Data from Apollo_Calib_20240827__AbsoluteIrradiance__869__13-38-02-782.txt Node

Date: Wed Aug 28 13:38:02 BST 2024
User: biology
Spectrometer: FLMT08252
Trigger mode: 0
Integration Time (sec): 5.000000E-1
Scans to average: 5
Electric dark correction enabled: true
Nonlinearity correction enabled: false
Boxcar width: 0
XAxis mode: Wavelengths
Number of Pixels in Spectrum: 3648
>>>>>Begin Spectral Data<<<<<
179.588	-0
179.809	-0
180.03	-0
180.251	-0
180.473	-0
180.694	0
180.915	0
181.136	-0
181.357	-0
181.578	-0
181.799	0
182.02	-0
182.241	-0
182.462	-0
182.683	0
182.904	-0
183.125	-0
183.346	0
183.567	0
183.788	0
184.009	0
184.23	0
184.451	0
184.672	0
184.892	0
185.113	0
185.334	0
185.555	0
185.776	0
185.996	0
186.217	0
186.438	0
186.659	0
186.879	0
187.1	0
187.321	0
187.541	0
187.762	0
187.983	0
188.203	0
188.424	0
188.644	0
188.865	0
189.086	0
189.306	0
189.527	0
189.747	0
189.968	0
190.188	0
190.409	0
190.629	0
190.849	0
191.07	0
191.29	0
191.511	0
191.731	0
191.951	0
192.172	0
192.392	0
192.612	0
192.833	0
193.053	0
193.273	0
193.493	0
193.714	0
193.934	0
194.154	0
194.374	0
194.594	0
194.815	0
195.035	0
195.255	0
195.475	0
195.695	0
195.915	0
196.135	0
196.355	0
196.575	0
196.795	0
197.015	0
197.235	0
197.455	0
197.675	0
197.895	0
198.115	0
198.335	0
198.555	0
198.775	0
198.995	0
199.214	0
199.434	0
199.654	0
199.874	0
200.094	4.78
200.313	2.22
200.533	1.54
200.753	1.66
200.973	3.6
201.192	3.17
201.412	1.24
201.632	1.97
201.851	3.65
202.071	1.65
202.291	1.68
202.51	1.14
202.73	2.76
202.95	1.47
203.169	0.96
203.389	1.63
203.608	2.06
203.828	1.62
204.047	1.64
204.267	2.44
204.486	1.77
204.706	2.15
204.925	1.83
205.145	1.79
205.364	2.43
205.583	2.81
205.803	1.58
206.022	1.11
206.242	1.86
206.461	1.84
206.68	1.18
206.9	2.05
207.119	2.38
207.338	2.25
207.557	1.14
207.777	1.29
207.996	1.55
208.215	2.12
208.434	0.96
208.654	1
208.873	1.61
209.092	1.8
209.311	1.25
209.53	1.09
209.749	1.32
209.968	0.96
210.187	1.26
210.407	0.57
210.626	1.25
210.845	1.89
211.064	1.07
211.283	0.84
211.502	1.64
211.721	1.2
211.94	0.88
212.159	1.37
212.377	1.3
212.596	1.61
212.815	1.16
213.034	1.19
213.253	1.37
213.472	1.26
213.691	0.89
213.91	0.6
214.128	0.89
214.347	1.59
214.566	0.59
214.785	0.64
215.003	1.29
215.222	1.3
215.441	0.8
215.66	0.29
215.878	0.98
216.097	1.41
216.316	0.77
216.534	0.65
216.753	0.95
216.972	0.8
217.19	0.8
217.409	0.63
217.627	0.7
217.846	1.06
218.064	1.06
218.283	0.77
218.501	1.43
218.72	1.06
218.938	0.63
219.157	0.55
219.375	1.22
219.594	1.14
219.812	0.6
220.031	0.41
220.249	1.44
220.467	1.13
220.686	0.47
220.904	0.59
221.122	0.74
221.341	1.18
221.559	0.75
221.777	0.44
221.995	0.81
222.214	0.9
222.432	0.62
222.65	0.82
222.868	0.81
223.086	0.88
223.305	0.86
223.523	0.63
223.741	1.26
223.959	0.68
224.177	0.24
224.395	0.57
224.613	0.8
224.831	1.03
225.049	0.4
225.267	0.7
225.485	0.82
225.703	0.6
225.921	0.6
226.139	0.48
226.357	0.97
226.575	0.94
226.793	0.51
227.011	1.59
227.229	0.83
227.447	0.97
227.665	0.51
227.883	0.37
228.1	0.59
228.318	0.71
228.536	0.24
228.754	0.33
228.972	0.72
229.189	1.04
229.407	0.47
229.625	0.57
229.843	0.96
230.06	0.97
230.278	0.48
230.496	0.68
230.713	0.56
230.931	0.8
231.149	0.52
231.366	0.3
231.584	0.52
231.801	1.1
232.019	0.41
232.236	0.35
232.454	0.48
232.671	0.74
232.889	0.43
233.106	0.41
233.324	0.68
233.541	0.52
233.759	0.56
233.976	0.36
234.194	0.56
234.411	0.46
234.628	0.37
234.846	0.45
235.063	0.58
235.28	0.64
235.498	0.58
235.715	0.36
235.932	0.92
236.149	0.51
236.367	0.31
236.584	0.59
236.801	0.51
237.018	0.66
237.236	0.56
237.453	0.21
237.67	0.72
237.887	0.44
238.104	0.48
238.321	0.37
238.538	0.48
238.755	0.68
238.973	0.34
239.19	0.56
239.407	0.69
239.624	0.62
239.841	0.45
240.058	0.4
240.275	0.49
240.492	0.51
240.709	0.42
240.925	0.36
241.142	0.55
241.359	0.41
241.576	0.32
241.793	0.36
242.01	0.49
242.227	0.67
242.444	0.59
242.66	0.6
242.877	0.46
243.094	0.45
243.311	0.45
243.527	0.4
243.744	0.43
243.961	0.61
244.178	0.38
244.394	0.45
244.611	0.62
244.828	0.64
245.044	0.37
245.261	0.37
245.477	0.55
245.694	0.56
245.911	0.29
246.127	0.44
246.344	0.64
246.56	0.54
246.777	0.38
246.993	0.35
247.21	0.46
247.426	0.58
247.643	0.38
247.859	0.31
248.076	0.37
248.292	0.74
248.508	0.34
248.725	0.44
248.941	0.51
249.157	0.6
249.374	0.3
249.59	0.36
249.806	0.34
250.023	0.51
250.239	0.39
250.455	0.35
250.671	0.45
250.888	0.56
251.104	0.47
251.32	0.3
251.536	0.47
251.752	0.4
251.969	0.4
252.185	0.29
252.401	0.73
252.617	0.47
252.833	0.39
253.049	0.36
253.265	0.43
253.481	0.43
253.697	0.38
253.913	0.33
254.129	0.49
254.345	0.42
254.561	0.42
254.777	0.37
254.993	0.51
255.209	0.42
255.425	0.36
255.641	0.3
255.857	0.49
256.073	0.51
256.288	0.29
256.504	0.41
256.72	0.44
256.936	0.62
257.152	0.31
257.367	0.31
257.583	0.47
257.799	0.46
258.015	0.32
258.23	0.34
258.446	0.56
258.662	0.38
258.877	0.32
259.093	0.31
259.309	0.37
259.524	0.47
259.74	0.35
259.955	0.24
260.171	0.39
260.387	0.42
260.602	0.43
260.818	0.45
261.033	0.32
261.249	0.47
261.464	0.27
261.68	0.23
261.895	0.49
262.11	0.45
262.326	0.34
262.541	0.28
262.757	0.5
262.972	0.4
263.187	0.4
263.403	0.39
263.618	0.51
263.833	0.38
264.049	0.29
264.264	0.31
264.479	0.43
264.694	0.49
264.91	0.21
265.125	0.38
265.34	0.46
265.555	0.55
265.77	0.37
265.986	0.29
266.201	0.42
266.416	0.47
266.631	0.32
266.846	0.32
267.061	0.47
267.276	0.48
267.491	0.18
267.706	0.4
267.921	0.42
268.136	0.36
268.351	0.34
268.566	0.27
268.781	0.43
268.996	0.47
269.211	0.31
269.426	0.24
269.641	0.35
269.856	0.44
270.071	0.3
270.285	0.21
270.5	0.48
270.715	0.48
270.93	0.37
271.145	0.3
271.359	0.42
271.574	0.32
271.789	0.35
272.004	0.22
272.218	0.32
272.433	0.4
272.648	0.29
272.862	0.42
273.077	0.43
273.292	0.41
273.506	0.22
273.721	0.29
273.936	0.41
274.15	0.46
274.365	0.28
274.579	0.39
274.794	0.4
275.008	0.44
275.223	0.2
275.437	0.34
275.652	0.4
275.866	0.41
276.081	0.33
276.295	0.37
276.509	0.32
276.724	0.39
276.938	0.32
277.153	0.35
277.367	0.4
277.581	0.28
277.796	0.36
278.01	0.25
278.224	0.46
278.438	0.54
278.653	0.22
278.867	0.22
279.081	0.22
279.295	0.34
279.51	0.36
279.724	0.21
279.938	0.36
280.152	0.36
280.366	0.31
280.58	0.32
280.794	0.43
281.008	0.38
281.222	0.36
281.437	0.49
281.651	0.38
281.865	0.42
282.079	0.29
282.293	0.17
282.507	0.25
282.721	0.33
282.935	0.3
283.148	0.18
283.362	0.28
283.576	0.26
283.79	0.29
284.004	0.26
284.218	0.41
284.432	0.29
284.646	0.35
284.859	0.25
285.073	0.27
285.287	0.33
285.501	0.28
285.714	0.31
285.928	0.35
286.142	0.31
286.356	0.25
286.569	0.25
286.783	0.41
286.997	0.34
287.21	0.34
287.424	0.28
287.637	0.29
287.851	0.24
288.065	0.37
288.278	0.24
288.492	0.3
288.705	0.26
288.919	0.33
289.132	0.21
289.346	0.37
289.559	0.2
289.773	0.25
289.986	0.27
290.2	0.26
290.413	0.33
290.626	0.25
290.84	0.27
291.053	0.28
291.267	0.39
291.48	0.29
291.693	0.28
291.906	0.25
292.12	0.28
292.333	0.28
292.546	0.24
292.76	0.39
292.973	0.29
293.186	0.34
293.399	0.25
293.612	0.38
293.826	0.27
294.039	0.29
294.252	0.23
294.465	0.4
294.678	0.34
294.891	0.25
295.104	0.22
295.317	0.32
295.53	0.27
295.743	0.26
295.956	0.24
296.169	0.37
296.382	0.37
296.595	0.27
296.808	0.2
297.021	0.37
297.234	0.35
297.447	0.25
297.66	0.29
297.873	0.34
298.086	0.36
298.299	0.19
298.511	0.18
298.724	0.29
298.937	0.21
299.15	0.22
299.363	0.25
299.575	0.33
299.788	0.32
300.001	0.25
300.213	0.23
300.426	0.25
300.639	0.29
300.852	0.19
301.064	0.32
301.277	0.37
301.489	0.31
301.702	0.27
301.915	0.24
302.127	0.28
302.34	0.26
302.552	0.31
302.765	0.19
302.977	0.28
303.19	0.21
303.402	0.22
303.615	0.22
303.827	0.27
304.04	0.31
304.252	0.27
304.464	0.23
304.677	0.38
304.889	0.39
305.102	0.21
305.314	0.22
305.526	0.29
305.739	0.35
305.951	0.22
306.163	0.24
306.375	0.37
306.588	0.24
306.8	0.24
307.012	0.19
307.224	0.29
307.436	0.32
307.649	0.16
307.861	0.25
308.073	0.28
308.285	0.23
308.497	0.21
308.709	0.23
308.921	0.26
309.133	0.32
309.346	0.26
309.558	0.27
309.77	0.32
309.982	0.34
310.194	0.3
310.406	0.22
310.617	0.37
310.829	0.25
311.041	0.3
311.253	0.2
311.465	0.28
311.677	0.24
311.889	0.28
312.101	0.22
312.313	0.37
312.524	0.37
312.736	0.2
312.948	0.24
313.16	0.4
313.372	0.32
313.583	0.27
313.795	0.22
314.007	0.23
314.218	0.34
314.43	0.25
314.642	0.26
314.853	0.23
315.065	0.33
315.277	0.27
315.488	0.26
315.7	0.35
315.912	0.34
316.123	0.24
316.335	0.23
316.546	0.36
316.758	0.21
316.969	0.22
317.181	0.23
317.392	0.25
317.604	0.34
317.815	0.22
318.026	0.18
318.238	0.24
318.449	0.28
318.661	0.19
318.872	0.18
319.083	0.24
319.295	0.35
319.506	0.24
319.717	0.3
319.929	0.32
320.14	0.29
320.351	0.3
320.562	0.2
320.774	0.3
320.985	0.28
321.196	0.23
321.407	0.19
321.618	0.3
321.829	0.29
322.041	0.26
322.252	0.28
322.463	0.28
322.674	0.33
322.885	0.21
323.096	0.26
323.307	0.28
323.518	0.27
323.729	0.26
323.94	0.24
324.151	0.23
324.362	0.25
324.573	0.26
324.784	0.25
324.995	0.33
325.206	0.26
325.417	0.25
325.628	0.23
325.838	0.3
326.049	0.3
326.26	0.3
326.471	0.26
326.682	0.27
326.892	0.3
327.103	0.19
327.314	0.2
327.525	0.32
327.735	0.31
327.946	0.2
328.157	0.22
328.368	0.31
328.578	0.27
328.789	0.33
328.999	0.22
329.21	0.25
329.421	0.31
329.631	0.22
329.842	0.21
330.052	0.28
330.263	0.3
330.473	0.31
330.684	0.22
330.894	0.25
331.105	0.28
331.315	0.28
331.526	0.17
331.736	0.35
331.947	0.24
332.157	0.27
332.367	0.16
332.578	0.31
332.788	0.36
332.999	0.36
333.209	0.27
333.419	0.28
333.629	0.29
333.84	0.27
334.05	0.23
334.26	0.37
334.47	0.28
334.681	0.31
334.891	0.19
335.101	0.32
335.311	0.33
335.521	0.25
335.732	0.23
335.942	0.31
336.152	0.35
336.362	0.25
336.572	0.29
336.782	0.32
336.992	0.22
337.202	0.26
337.412	0.25
337.622	0.32
337.832	0.22
338.042	0.29
338.252	0.2
338.462	0.28
338.672	0.24
338.882	0.26
339.092	0.26
339.302	0.38
339.511	0.33
339.721	0.24
339.931	0.2
340.141	0.33
340.351	0.36
340.561	0.28
340.77	0.28
340.98	0.28
341.19	0.25
341.4	0.23
341.609	0.22
341.819	0.22
342.029	0.18
342.238	0.29
342.448	0.27
342.658	0.29
342.867	0.22
343.077	0.26
343.286	0.25
343.496	0.27
343.706	0.38
343.915	0.18
344.125	0.26
344.334	0.26
344.544	0.2
344.753	0.22
344.963	0.22
345.172	0.24
345.381	0.22
345.591	0.23
345.8	0.22
346.01	0.35
346.219	0.33
346.428	0.14
346.638	0.26
346.847	0.26
347.056	0.35
347.266	0.24
347.475	0.21
347.684	0.27
347.893	0.31
348.103	0.27
348.312	0.24
348.521	0.26
348.73	0.29
348.94	0.26
349.149	0.24
349.358	0.23
349.567	0.23
349.776	0.15
349.985	0.24
350.194	0.3
350.403	0.34
350.612	0.15
350.821	0.21
351.03	0.29
351.239	0.2
351.448	0.29
351.657	0.24
351.866	0.32
352.075	0.28
352.284	0.32
352.493	0.21
352.702	0.33
352.911	0.32
353.12	0.25
353.329	0.28
353.538	0.31
353.746	0.19
353.955	0.21
354.164	0.3
354.373	0.21
354.582	0.32
354.79	0.27
354.999	0.32
355.208	0.3
355.416	0.32
355.625	0.18
355.834	0.2
356.042	0.28
356.251	0.21
356.46	0.18
356.668	0.23
356.877	0.38
357.085	0.31
357.294	0.16
357.503	0.23
357.711	0.26
357.92	0.43
358.128	0.24
358.337	0.24
358.545	0.23
358.754	0.24
358.962	0.29
359.17	0.22
359.379	0.26
359.587	0.28
359.796	0.3
360.004	0.3
360.212	0.29
360.421	0.33
360.629	0.21
360.837	0.2
361.046	0.3
361.254	0.4
361.462	0.22
361.67	0.23
361.879	0.26
362.087	0.33
362.295	0.22
362.503	0.23
362.711	0.17
362.92	0.22
363.128	0.25
363.336	0.19
363.544	0.2
363.752	0.22
363.96	0.21
364.168	0.22
364.376	0.26
364.584	0.26
364.792	0.35
365	0.26
365.208	0.24
365.416	0.28
365.624	0.34
365.832	0.2
366.04	0.32
366.248	0.25
366.456	0.26
366.664	0.27
366.872	0.27
367.079	0.25
367.287	0.26
367.495	0.26
367.703	0.21
367.911	0.23
368.118	0.28
368.326	0.25
368.534	0.23
368.742	0.3
368.949	0.19
369.157	0.19
369.365	0.31
369.572	0.26
369.78	0.2
369.988	0.32
370.195	0.28
370.403	0.3
370.61	0.2
370.818	0.27
371.026	0.36
371.233	0.22
371.441	0.25
371.648	0.25
371.856	0.29
372.063	0.28
372.271	0.2
372.478	0.24
372.685	0.21
372.893	0.3
373.1	0.27
373.308	0.19
373.515	0.38
373.722	0.32
373.93	0.24
374.137	0.27
374.344	0.34
374.552	0.34
374.759	0.26
374.966	0.28
375.173	0.26
375.381	0.37
375.588	0.23
375.795	0.19
376.002	0.28
376.209	0.22
376.417	0.25
376.624	0.3
376.831	0.31
377.038	0.25
377.245	0.19
377.452	0.28
377.659	0.28
377.866	0.26
378.073	0.21
378.28	0.26
378.487	0.33
378.694	0.28
378.901	0.23
379.108	0.25
379.315	0.33
379.522	0.4
379.729	0.27
379.936	0.25
380.143	0.28
380.35	0.3
380.557	0.26
380.763	0.23
380.97	0.29
381.177	0.29
381.384	0.26
381.591	0.18
381.797	0.3
382.004	0.35
382.211	0.3
382.418	0.27
382.624	0.34
382.831	0.36
383.038	0.29
383.244	0.28
383.451	0.3
383.658	0.32
383.864	0.24
384.071	0.24
384.277	0.35
384.484	0.28
384.69	0.37
384.897	0.25
385.103	0.26
385.31	0.28
385.516	0.26
385.723	0.2
385.929	0.32
386.136	0.28
386.342	0.33
386.549	0.27
386.755	0.34
386.961	0.35
387.168	0.21
387.374	0.25
387.58	0.36
387.787	0.3
387.993	0.35
388.199	0.29
388.406	0.23
388.612	0.28
388.818	0.24
389.024	0.21
389.231	0.31
389.437	0.42
389.643	0.34
389.849	0.27
390.055	0.33
390.261	0.28
390.467	0.35
390.674	0.31
390.88	0.3
391.086	0.37
391.292	0.24
391.498	0.34
391.704	0.27
391.91	0.28
392.116	0.29
392.322	0.19
392.528	0.38
392.734	0.26
392.94	0.33
393.146	0.34
393.352	0.32
393.557	0.33
393.763	0.32
393.969	0.36
394.175	0.31
394.381	0.34
394.587	0.26
394.792	0.29
394.998	0.35
395.204	0.4
395.41	0.25
395.615	0.33
395.821	0.37
396.027	0.42
396.233	0.26
396.438	0.37
396.644	0.42
396.85	0.32
397.055	0.34
397.261	0.35
397.466	0.36
397.672	0.36
397.878	0.39
398.083	0.39
398.289	0.31
398.494	0.47
398.7	0.4
398.905	0.26
399.111	0.46
399.316	0.28
399.522	0.37
399.727	0.33
399.932	0.33
400.138	0.29
400.343	0.37
400.549	0.34
400.754	0.37
400.959	0.35
401.165	0.35
401.37	0.38
401.575	0.51
401.78	0.4
401.986	0.38
402.191	0.42
402.396	0.39
402.601	0.44
402.807	0.42
403.012	0.38
403.217	0.44
403.422	0.42
403.627	0.42
403.832	0.4
404.037	0.49
404.243	0.45
404.448	0.38
404.653	0.43
404.858	0.43
405.063	0.47
405.268	0.44
405.473	0.37
405.678	0.41
405.883	0.65
406.088	0.51
406.293	0.4
406.498	0.49
406.703	0.57
406.907	0.5
407.112	0.48
407.317	0.51
407.522	0.59
407.727	0.51
407.932	0.55
408.136	0.69
408.341	0.59
408.546	0.6
408.751	0.59
408.956	0.64
409.16	0.66
409.365	0.62
409.57	0.63
409.774	0.63
409.979	0.66
410.184	0.7
410.388	0.61
410.593	0.78
410.798	0.75
411.002	0.76
411.207	0.83
411.411	0.84
411.616	0.74
411.82	0.86
412.025	0.88
412.229	0.84
412.434	0.96
412.638	0.94
412.843	0.87
413.047	1
413.252	0.97
413.456	1.06
413.66	1.1
413.865	1.05
414.069	1.14
414.273	1.14
414.478	1.1
414.682	1.2
414.886	1.3
415.091	1.25
415.295	1.24
415.499	1.44
415.703	1.38
415.908	1.55
416.112	1.4
416.316	1.65
416.52	1.63
416.724	1.56
416.929	1.6
417.133	1.88
417.337	1.81
417.541	1.87
417.745	1.86
417.949	2
418.153	2.03
418.357	2.03
418.561	2.29
418.765	2.26
418.969	2.44
419.173	2.49
419.377	2.44
419.581	2.8
419.785	2.67
419.989	2.73
420.193	2.85
420.397	2.97
420.601	3.13
420.804	3.18
421.008	3.16
421.212	3.32
421.416	3.29
421.62	3.32
421.823	3.44
422.027	3.7
422.231	3.6
422.435	3.61
422.638	3.55
422.842	3.73
423.046	3.85
423.249	4.01
423.453	4.12
423.657	4.29
423.86	4.3
424.064	4.43
424.268	4.61
424.471	4.62
424.675	4.81
424.878	4.88
425.082	4.96
425.285	5.27
425.489	5.27
425.692	5.29
425.896	5.36
426.099	5.57
426.303	5.72
426.506	5.82
426.71	6.06
426.913	6.24
427.116	6.46
427.32	6.5
427.523	6.6
427.726	6.89
427.93	6.98
428.133	7.19
428.336	7.28
428.54	7.58
428.743	7.86
428.946	8.02
429.149	7.99
429.353	7.99
429.556	8.07
429.759	8.26
429.962	8.29
430.165	8.47
430.368	8.05
430.571	8.23
430.775	8.22
430.978	8.26
431.181	8.19
431.384	8.38
431.587	8.41
431.79	8.83
431.993	8.76
432.196	9.12
432.399	9.42
432.602	9.58
432.805	9.62
433.008	10.21
433.211	10.11
433.414	10.42
433.616	10.43
433.819	10.38
434.022	10.59
434.225	10.8
434.428	10.69
434.631	11.27
434.833	10.98
435.036	11.29
435.239	11.35
435.442	11.43
435.645	11.7
435.847	11.72
436.05	12.02
436.253	12.16
436.455	12.28
436.658	12.19
436.861	12.5
437.063	12.53
437.266	12.53
437.468	12.86
437.671	13.25
437.874	13.2
438.076	13.13
438.279	13.6
438.481	13.65
438.684	14.33
438.886	13.98
439.089	14.27
439.291	14.36
439.494	14.59
439.696	14.88
439.899	15.36
440.101	15.87
440.303	15.92
440.506	16.62
440.708	16.32
440.91	16.65
441.113	16.71
441.315	17.2
441.517	16.9
441.72	17.44
441.922	17.03
442.124	16.93
442.326	17.44
442.529	17.6
442.731	17.55
442.933	17.73
443.135	17.62
443.337	17.64
443.539	18.14
443.742	17.79
443.944	18.44
444.146	18.25
444.348	18.2
444.55	18.09
444.752	18.26
444.954	18.18
445.156	18.17
445.358	18.55
445.56	18.83
445.762	18.56
445.964	18.77
446.166	18.62
446.368	18.66
446.57	18.72
446.772	18.27
446.974	18.02
447.175	18.27
447.377	18.08
447.579	18.37
447.781	18
447.983	17.84
448.184	17.46
448.386	17.72
448.588	17.28
448.79	17.32
448.991	17.59
449.193	17.44
449.395	16.84
449.597	16.51
449.798	16.38
450	15.77
450.202	15.71
450.403	15.84
450.605	15.57
450.806	15.32
451.008	15.08
451.21	14.78
451.411	14.54
451.613	13.81
451.814	13.97
452.016	14.03
452.217	13.17
452.419	13.24
452.62	12.82
452.821	12.55
453.023	12.41
453.224	12.1
453.426	11.71
453.627	11.1
453.828	11.07
454.03	11.25
454.231	11.11
454.432	10.92
454.634	10.75
454.835	10.34
455.036	10.27
455.238	9.96
455.439	9.73
455.64	9.34
455.841	9.23
456.042	9.43
456.244	9.03
456.445	8.84
456.646	8.45
456.847	8.62
457.048	8.3
457.249	8.46
457.45	8.28
457.651	7.55
457.852	7.55
458.054	7.26
458.255	7.1
458.456	7.16
458.657	7.1
458.858	6.59
459.058	6.6
459.259	6.71
459.46	6.33
459.661	6.28
459.862	6.34
460.063	6.24
460.264	6.17
460.465	5.98
460.666	5.95
460.866	5.71
461.067	5.49
461.268	5.47
461.469	5.45
461.67	5.34
461.87	5.22
462.071	5.16
462.272	5.05
462.473	5.07
462.673	5.21
462.874	5.09
463.075	5.06
463.275	5.14
463.476	5.09
463.676	5.03
463.877	4.92
464.078	4.92
464.278	4.93
464.479	4.76
464.679	4.74
464.88	4.74
465.08	4.63
465.281	4.42
465.481	4.28
465.682	4.11
465.882	4.12
466.083	4.05
466.283	3.97
466.483	3.82
466.684	3.75
466.884	3.55
467.085	3.62
467.285	3.73
467.485	3.59
467.686	3.53
467.886	3.41
468.086	3.33
468.286	3.34
468.487	3.39
468.687	3.23
468.887	3.15
469.087	3.31
469.287	3.21
469.488	3.05
469.688	3.16
469.888	3.2
470.088	3.15
470.288	3.04
470.488	3.03
470.688	2.87
470.888	2.83
471.088	2.69
471.288	2.77
471.488	2.8
471.688	2.75
471.888	2.64
472.088	2.81
472.288	2.69
472.488	2.6
472.688	2.52
472.888	2.63
473.088	2.6
473.288	2.5
473.488	2.41
473.688	2.62
473.887	2.47
474.087	2.46
474.287	2.43
474.487	2.4
474.687	2.46
474.886	2.32
475.086	2.32
475.286	2.33
475.486	2.34
475.685	2.22
475.885	2.2
476.085	2.32
476.284	2.24
476.484	2.25
476.684	2.21
476.883	2.33
477.083	2.13
477.282	2.11
477.482	2.18
477.681	2.14
477.881	2.09
478.08	2.06
478.28	2
478.479	2.11
478.679	2.16
478.878	2.02
479.078	1.98
479.277	2.12
479.477	2.05
479.676	2.01
479.875	2.01
480.075	1.95
480.274	2.01
480.473	2.08
480.673	1.98
480.872	2.13
481.071	2.04
481.271	2.07
481.47	2.01
481.669	1.96
481.868	1.96
482.067	1.93
482.267	1.92
482.466	1.96
482.665	1.95
482.864	1.93
483.063	1.93
483.262	2.01
483.461	2.03
483.661	2.04
483.86	2.04
484.059	2.03
484.258	2.05
484.457	2.03
484.656	2.01
484.855	2.12
485.054	1.94
485.253	1.95
485.452	1.94
485.651	2.02
485.849	2.03
486.048	1.95
486.247	2.02
486.446	2.11
486.645	2.05
486.844	2.06
487.043	2.02
487.241	2.13
487.44	2.06
487.639	2.17
487.838	2.11
488.037	2.14
488.235	2.23
488.434	2.17
488.633	2.02
488.831	2.19
489.03	2.21
489.229	2.26
489.427	2.24
489.626	2.28
489.825	2.29
490.023	2.29
490.222	2.28
490.42	2.31
490.619	2.37
490.817	2.37
491.016	2.37
491.214	2.45
491.413	2.41
491.611	2.36
491.81	2.38
492.008	2.45
492.207	2.56
492.405	2.52
492.604	2.46
492.802	2.58
493	2.57
493.199	2.61
493.397	2.64
493.595	2.72
493.794	2.65
493.992	2.77
494.19	2.75
494.388	2.82
494.587	2.74
494.785	2.79
494.983	2.73
495.181	2.87
495.379	2.92
495.578	2.97
495.776	2.96
495.974	2.95
496.172	2.95
496.37	3.09
496.568	3.11
496.766	3.11
496.964	3.23
497.162	3.21
497.36	3.21
497.558	3.26
497.756	3.34
497.954	3.31
498.152	3.36
498.35	3.46
498.548	3.38
498.746	3.41
498.944	3.41
499.142	3.41
499.34	3.51
499.538	3.62
499.736	3.52
499.933	3.68
500.131	3.64
500.329	3.83
500.527	3.74
500.725	3.88
500.922	3.92
501.12	3.9
501.318	3.93
501.516	3.96
501.713	4.01
501.911	4
502.109	3.91
502.306	4.13
502.504	4.02
502.701	4.12
502.899	4.17
503.097	4.42
503.294	4.18
503.492	4.32
503.689	4.37
503.887	4.41
504.084	4.45
504.282	4.44
504.479	4.38
504.677	4.6
504.874	4.57
505.072	4.46
505.269	4.7
505.466	4.67
505.664	4.76
505.861	4.67
506.059	4.78
506.256	4.84
506.453	4.91
506.651	4.96
506.848	5.01
507.045	4.98
507.242	4.99
507.44	5.06
507.637	5.09
507.834	5
508.031	5.27
508.229	5.16
508.426	5.14
508.623	5.27
508.82	5.33
509.017	5.3
509.214	5.28
509.411	5.41
509.608	5.32
509.805	5.53
510.003	5.49
510.2	5.52
510.397	5.72
510.594	5.62
510.791	5.6
510.988	5.65
511.184	5.69
511.381	5.55
511.578	5.69
511.775	5.87
511.972	5.75
512.169	5.84
512.366	5.89
512.563	5.97
512.76	6
512.956	6.05
513.153	5.92
513.35	5.9
513.547	6.03
513.744	6.05
513.94	6.04
514.137	6.15
514.334	6.15
514.53	6.2
514.727	6.39
514.924	6.29
515.12	6.29
515.317	6.31
515.514	6.29
515.71	6.22
515.907	6.46
516.103	6.42
516.3	6.38
516.497	6.51
516.693	6.53
516.89	6.49
517.086	6.51
517.283	6.53
517.479	6.4
517.676	6.66
517.872	6.63
518.068	6.63
518.265	6.66
518.461	6.56
518.658	6.73
518.854	6.72
519.05	6.86
519.247	6.88
519.443	6.78
519.639	6.92
519.836	6.86
520.032	6.73
520.228	6.92
520.424	6.93
520.621	6.97
520.817	7.01
521.013	6.93
521.209	7.12
521.405	7.12
521.601	7.09
521.798	6.96
521.994	7.09
522.19	7.01
522.386	7.06
522.582	7.09
522.778	7.29
522.974	7.06
523.17	7.18
523.366	7.11
523.562	7.2
523.758	7.19
523.954	7.1
524.15	7.26
524.346	7.31
524.542	7.29
524.738	7.24
524.934	7.39
525.129	7.35
525.325	7.25
525.521	7.26
525.717	7.55
525.913	7.39
526.109	7.35
526.304	7.49
526.5	7.43
526.696	7.45
526.892	7.37
527.087	7.66
527.283	7.54
527.479	7.52
527.674	7.34
527.87	7.52
528.066	7.52
528.261	7.58
528.457	7.46
528.653	7.64
528.848	7.63
529.044	7.7
529.239	7.58
529.435	7.57
529.63	7.51
529.826	7.56
530.021	7.57
530.217	7.64
530.412	7.57
530.608	7.61
530.803	7.68
530.999	7.52
531.194	7.71
531.389	7.78
531.585	7.75
531.78	7.87
531.975	7.71
532.171	7.76
532.366	7.77
532.561	7.81
532.757	7.77
532.952	7.88
533.147	7.65
533.342	7.85
533.538	7.74
533.733	7.88
533.928	7.59
534.123	7.75
534.318	7.89
534.513	7.78
534.709	8
534.904	7.88
535.099	7.93
535.294	7.93
535.489	7.9
535.684	7.88
535.879	7.88
536.074	8
536.269	8
536.464	7.9
536.659	7.95
536.854	7.88
537.049	7.95
537.244	7.87
537.439	7.97
537.634	7.96
537.828	8.01
538.023	7.95
538.218	7.94
538.413	7.87
538.608	7.94
538.803	7.96
538.997	7.93
539.192	7.98
539.387	7.97
539.582	7.91
539.776	7.9
539.971	8.03
540.166	8.08
540.36	7.97
540.555	8.09
540.75	8.02
540.944	8.06
541.139	8.05
541.334	7.99
541.528	8.04
541.723	8.08
541.917	8.13
542.112	8.03
542.306	7.95
542.501	7.91
542.695	8.04
542.89	7.98
543.084	8.01
543.279	8.02
543.473	8.1
543.668	8.14
543.862	7.98
544.056	7.93
544.251	8.09
544.445	8.12
544.64	8.18
544.834	7.84
545.028	7.71
545.222	8.1
545.417	8.29
545.611	8.2
545.805	8.06
546	7.89
546.194	8.09
546.388	8.16
546.582	8.01
546.776	7.98
546.97	8.08
547.165	8.07
547.359	8.04
547.553	8.01
547.747	8.07
547.941	8.26
548.135	8.04
548.329	8.15
548.523	8.1
548.717	7.99
548.911	8.03
549.105	8.03
549.299	8.15
549.493	8.1
549.687	8.03
549.881	8.18
550.075	8.05
550.269	7.99
550.463	8.18
550.657	8.15
550.85	8.1
551.044	8.08
551.238	8.11
551.432	8.06
551.626	8.14
551.82	8.15
552.013	7.97
552.207	8.2
552.401	8.18
552.594	8.12
552.788	7.99
552.982	8.08
553.176	8.08
553.369	8.28
553.563	8.24
553.756	8.07
553.95	8.07
554.144	8.2
554.337	8.19
554.531	8
554.724	8.15
554.918	8.25
555.111	8.1
555.305	8.11
555.498	8.05
555.692	8.23
555.885	8.17
556.079	8.12
556.272	8.13
556.466	8.14
556.659	8.11
556.852	8.2
557.046	8.09
557.239	7.96
557.432	8.04
557.626	8.15
557.819	8.22
558.012	8.15
558.206	8.24
558.399	8.14
558.592	8.13
558.785	8.11
558.979	8.16
559.172	8.12
559.365	8.15
559.558	8.04
559.751	8.08
559.944	8.18
560.138	8.05
560.331	8.16
560.524	8.22
560.717	8.05
560.91	8.11
561.103	8.17
561.296	7.98
561.489	8.12
561.682	8.22
561.875	8.14
562.068	8.21
562.261	8.05
562.454	8.27
562.647	8.09
562.84	8.16
563.032	8.16
563.225	8.08
563.418	8.09
563.611	8.19
563.804	8.16
563.997	8.01
564.19	7.95
564.382	8.18
564.575	8.12
564.768	8.05
564.961	8.18
565.153	8.05
565.346	8
565.539	8.14
565.731	8.06
565.924	8.23
566.117	8.25
566.309	8.12
566.502	8.09
566.695	8.01
566.887	8.1
567.08	8.11
567.272	8.14
567.465	8.04
567.657	8.15
567.85	8.04
568.042	8.15
568.235	8.12
568.427	7.91
568.62	8.1
568.812	8.06
569.005	8.12
569.197	8.03
569.389	8.12
569.582	8.08
569.774	8.11
569.966	7.96
570.159	7.98
570.351	7.96
570.543	8.06
570.736	8.03
570.928	7.9
571.12	8.08
571.312	7.96
571.505	7.83
571.697	8.05
571.889	8.05
572.081	8.02
572.273	7.88
572.465	8.06
572.658	8.03
572.85	8.04
573.042	8.05
573.234	7.94
573.426	7.96
573.618	7.92
573.81	8.05
574.002	8.03
574.194	8
574.386	7.94
574.578	7.87
574.77	7.95
574.962	7.94
575.154	7.85
575.346	7.91
575.538	7.85
575.729	7.83
575.921	8.01
576.113	8.03
576.305	7.96
576.497	8.07
576.689	7.94
576.88	7.77
577.072	8.02
577.264	7.82
577.456	7.85
577.647	7.83
577.839	7.99
578.031	7.84
578.223	7.77
578.414	7.76
578.606	7.89
578.798	7.96
578.989	7.86
579.181	7.87
579.372	7.83
579.564	7.93
579.755	7.83
579.947	7.74
580.139	7.82
580.33	7.67
580.522	7.9
580.713	7.72
580.905	7.71
581.096	7.88
581.287	7.79
581.479	7.71
581.67	7.78
581.862	7.74
582.053	7.75
582.244	7.57
582.436	7.86
582.627	7.63
582.818	7.61
583.01	7.67
583.201	7.66
583.392	7.65
583.583	7.66
583.775	7.48
583.966	7.62
584.157	7.67
584.348	7.74
584.54	7.56
584.731	7.64
584.922	7.58
585.113	7.47
585.304	7.61
585.495	7.56
585.686	7.65
585.877	7.63
586.068	7.7
586.259	7.58
586.45	7.61
586.641	7.49
586.832	7.61
587.023	7.53
587.214	7.44
587.405	7.51
587.596	7.4
587.787	7.42
587.978	7.51
588.169	7.4
588.36	7.41
588.551	7.49
588.742	7.45
588.932	7.49
589.123	7.32
589.314	7.54
589.505	7.34
589.696	7.38
589.886	7.38
590.077	7.4
590.268	7.34
590.458	7.27
590.649	7.19
590.84	7.35
591.03	7.29
591.221	7.26
591.412	7.14
591.602	7.39
591.793	7.32
591.984	7.31
592.174	7.21
592.365	7.43
592.555	7.16
592.746	7.23
592.936	7.22
593.127	7.23
593.317	7.19
593.508	7.19
593.698	7.06
593.889	7.11
594.079	7.12
594.269	7.03
594.46	7.07
594.65	7.12
594.84	7.07
595.031	6.97
595.221	7.01
595.411	7.09
595.602	7.03
595.792	6.99
595.982	6.93
596.172	7.13
596.363	6.87
596.553	6.97
596.743	6.95
596.933	6.99
597.123	6.93
597.314	6.75
597.504	6.72
597.694	6.91
597.884	6.88
598.074	6.92
598.264	6.79
598.454	6.79
598.644	6.8
598.834	6.86
599.024	6.77
599.214	6.72
599.404	6.85
599.594	6.77
599.784	6.66
599.974	6.76
600.164	6.69
600.354	6.64
600.544	6.56
600.734	6.66
600.924	6.6
601.114	6.51
601.303	6.52
601.493	6.63
601.683	6.54
601.873	6.6
602.063	6.45
602.252	6.59
602.442	6.51
602.632	6.53
602.821	6.39
603.011	6.5
603.201	6.47
603.39	6.41
603.58	6.28
603.77	6.47
603.959	6.51
604.149	6.36
604.339	6.38
604.528	6.42
604.718	6.39
604.907	6.33
605.097	6.28
605.286	6.27
605.476	6.37
605.665	6.31
605.855	6.19
606.044	6.35
606.234	6.3
606.423	6.24
606.612	6.2
606.802	6.17
606.991	6.23
607.181	6.21
607.37	6.18
607.559	5.93
607.749	6.13
607.938	6.03
608.127	6
608.316	6.06
608.506	6.03
608.695	6.08
608.884	6
609.073	6.06
609.263	6.13
609.452	6.02
609.641	5.87
609.83	5.84
610.019	5.97
610.208	5.87
610.397	5.9
610.586	5.94
610.775	5.85
610.965	5.82
611.154	5.68
611.343	5.78
611.532	5.7
611.721	5.86
611.91	5.72
612.099	5.77
612.287	5.69
612.476	5.63
612.665	5.76
612.854	5.62
613.043	5.68
613.232	5.64
613.421	5.55
613.61	5.62
613.798	5.56
613.987	5.64
614.176	5.56
614.365	5.59
614.554	5.54
614.742	5.61
614.931	5.35
615.12	5.52
615.309	5.51
615.497	5.43
615.686	5.34
615.875	5.44
616.063	5.41
616.252	5.31
616.44	5.41
616.629	5.38
616.818	5.34
617.006	5.32
617.195	5.24
617.383	5.29
617.572	5.17
617.76	5.13
617.949	5.18
618.137	5.29
618.326	5.32
618.514	5.05
618.703	5.04
618.891	5.19
619.079	5.09
619.268	5.19
619.456	5.01
619.644	5.22
619.833	5.09
620.021	4.99
620.209	4.91
620.398	5.01
620.586	4.92
620.774	4.97
620.962	4.98
621.151	5
621.339	4.94
621.527	4.85
621.715	4.9
621.903	4.89
622.092	4.75
622.28	4.9
622.468	4.69
622.656	4.85
622.844	4.79
623.032	4.82
623.22	4.64
623.408	4.87
623.596	4.79
623.784	4.8
623.972	4.63
624.16	4.71
624.348	4.73
624.536	4.73
624.724	4.57
624.912	4.65
625.1	4.64
625.288	4.61
625.476	4.55
625.664	4.62
625.851	4.5
626.039	4.59
626.227	4.49
626.415	4.56
626.603	4.41
626.79	4.48
626.978	4.49
627.166	4.54
627.354	4.37
627.541	4.38
627.729	4.27
627.917	4.5
628.104	4.43
628.292	4.33
628.48	4.35
628.667	4.26
628.855	4.39
629.042	4.38
629.23	4.26
629.418	4.24
629.605	4.23
629.793	4.16
629.98	4.2
630.168	4.17
630.355	4.15
630.543	4.16
630.73	4.09
630.917	4.11
631.105	4.18
631.292	4.15
631.48	4.07
631.667	4.22
631.854	4.09
632.042	4.02
632.229	3.94
632.416	4.03
632.604	4.03
632.791	3.87
632.978	3.98
633.165	3.94
633.353	4.06
633.54	3.96
633.727	3.85
633.914	3.86
634.101	3.76
634.289	3.97
634.476	3.85
634.663	3.78
634.85	3.8
635.037	3.75
635.224	3.68
635.411	3.85
635.598	3.8
635.785	3.74
635.972	3.71
636.159	3.77
636.346	3.68
636.533	3.65
636.72	3.65
636.907	3.62
637.094	3.69
637.281	3.49
637.468	3.56
637.655	3.57
637.842	3.61
638.029	3.53
638.215	3.55
638.402	3.55
638.589	3.5
638.776	3.5
638.963	3.45
639.149	3.53
639.336	3.56
639.523	3.42
639.709	3.4
639.896	3.39
640.083	3.44
640.27	3.46
640.456	3.34
640.643	3.37
640.829	3.32
641.016	3.27
641.203	3.23
641.389	3.3
641.576	3.32
641.762	3.28
641.949	3.21
642.135	3.31
642.322	3.23
642.508	3.17
642.695	3.24
642.881	3.14
643.068	3.11
643.254	3.19
643.441	3.21
643.627	3.2
643.813	3.03
644	3.15
644.186	3.04
644.372	3.11
644.559	3.13
644.745	2.99
644.931	3
645.118	3.06
645.304	2.95
645.49	2.98
645.676	2.97
645.862	3.04
646.049	3.05
646.235	2.94
646.421	3.1
646.607	3.08
646.793	2.91
646.979	2.91
647.165	2.86
647.352	2.92
647.538	2.94
647.724	2.83
647.91	2.84
648.096	2.92
648.282	2.91
648.468	2.79
648.654	2.81
648.84	2.85
649.026	2.79
649.212	2.73
649.397	2.71
649.583	2.7
649.769	2.78
649.955	2.71
650.141	2.7
650.327	2.71
650.513	2.65
650.698	2.7
650.884	2.59
651.07	2.69
651.256	2.67
651.442	2.63
651.627	2.49
651.813	2.62
651.999	2.58
652.184	2.61
652.37	2.55
652.556	2.59
652.741	2.65
652.927	2.42
653.113	2.52
653.298	2.53
653.484	2.52
653.669	2.46
653.855	2.46
654.04	2.54
654.226	2.48
654.412	2.43
654.597	2.37
654.782	2.45
654.968	2.47
655.153	2.4
655.339	2.38
655.524	2.33
655.71	2.38
655.895	2.37
656.08	2.33
656.266	2.43
656.451	2.3
656.636	2.22
656.822	2.32
657.007	2.31
657.192	2.32
657.378	2.23
657.563	2.23
657.748	2.28
657.933	2.29
658.118	2.23
658.304	2.18
658.489	2.31
658.674	2.18
658.859	2.16
659.044	2.18
659.229	2.2
659.414	2.19
659.599	2.18
659.785	2.07
659.97	2.09
660.155	2.13
660.34	2.13
660.525	2.07
660.71	2.07
660.895	2.14
661.08	2.05
661.264	1.99
661.449	2.19
661.634	2.02
661.819	2.1
662.004	2
662.189	1.98
662.374	1.97
662.559	1.93
662.743	1.92
662.928	2
663.113	1.91
663.298	1.89
663.483	1.9
663.667	1.96
663.852	1.89
664.037	2
664.221	1.93
664.406	1.97
664.591	1.94
664.775	1.92
664.96	1.83
665.145	1.91
665.329	1.95
665.514	1.87
665.698	1.85
665.883	1.74
666.068	1.93
666.252	1.85
666.437	1.81
666.621	1.81
666.806	1.82
666.99	1.75
667.174	1.75
667.359	1.89
667.543	1.72
667.728	1.75
667.912	1.65
668.096	1.76
668.281	1.76
668.465	1.76
668.649	1.74
668.834	1.65
669.018	1.77
669.202	1.71
669.387	1.69
669.571	1.79
669.755	1.66
669.939	1.68
670.124	1.66
670.308	1.73
670.492	1.7
670.676	1.66
670.86	1.61
671.044	1.6
671.228	1.72
671.413	1.55
671.597	1.61
671.781	1.62
671.965	1.64
672.149	1.56
672.333	1.55
672.517	1.59
672.701	1.62
672.885	1.56
673.069	1.47
673.253	1.68
673.437	1.54
673.621	1.53
673.804	1.53
673.988	1.54
674.172	1.46
674.356	1.43
674.54	1.51
674.724	1.59
674.908	1.47
675.091	1.52
675.275	1.5
675.459	1.49
675.643	1.58
675.826	1.47
676.01	1.39
676.194	1.45
676.377	1.5
676.561	1.52
676.745	1.46
676.928	1.49
677.112	1.52
677.296	1.41
677.479	1.41
677.663	1.39
677.846	1.47
678.03	1.41
678.213	1.33
678.397	1.35
678.58	1.33
678.764	1.34
678.947	1.34
679.131	1.37
679.314	1.41
679.498	1.29
679.681	1.35
679.865	1.42
680.048	1.28
680.231	1.27
680.415	1.23
680.598	1.27
680.781	1.29
680.965	1.29
681.148	1.28
681.331	1.26
681.514	1.26
681.698	1.25
681.881	1.28
682.064	1.33
682.247	1.33
682.43	1.15
682.614	1.25
682.797	1.36
682.98	1.32
683.163	1.17
683.346	1.22
683.529	1.2
683.712	1.19
683.895	1.26
684.078	1.12
684.261	1.17
684.444	1.15
684.627	1.22
684.81	1.14
684.993	1.19
685.176	1.22
685.359	1.12
685.542	1.17
685.725	1.25
685.908	1.16
686.091	1.1
686.274	1.17
686.457	1.15
686.639	1.16
686.822	1.17
687.005	1.09
687.188	1.15
687.371	1.3
687.553	1.19
687.736	1.11
687.919	1.26
688.102	1.21
688.284	1.12
688.467	1.03
688.65	1.09
688.832	1.04
689.015	0.97
689.197	0.95
689.38	1.17
689.563	1.19
689.745	1
689.928	0.96
690.11	1
690.293	1.06
690.475	0.95
690.658	1.01
690.84	1.01
691.023	1
691.205	0.92
691.388	0.97
691.57	1.12
691.752	1.09
691.935	0.9
692.117	0.89
692.3	1.06
692.482	1.03
692.664	0.99
692.847	0.96
693.029	1.11
693.211	1
693.393	0.95
693.576	0.9
693.758	0.97
693.94	0.96
694.122	0.92
694.304	0.93
694.487	0.92
694.669	0.94
694.851	0.86
695.033	0.89
695.215	0.87
695.397	0.91
695.579	0.96
695.761	0.86
695.943	0.79
696.125	1.05
696.308	0.96
696.49	0.83
696.671	1
696.853	0.88
697.035	1.14
697.217	0.82
697.399	0.96
697.581	0.87
697.763	0.92
697.945	0.76
698.127	0.91
698.309	0.93
698.491	0.91
698.672	0.96
698.854	0.95
699.036	0.92
699.218	0.84
699.399	0.88
699.581	0.9
699.763	0.82
699.945	0.73
700.126	0.77
700.308	0.86
700.49	0.92
700.671	0.77
700.853	0.76
701.035	0.85
701.216	0.83
701.398	0.77
701.579	0.77
701.761	0.81
701.943	0.78
702.124	0.73
702.306	0.78
702.487	1
702.669	0.84
702.85	0.77
703.031	0.71
703.213	0.91
703.394	0.88
703.576	0.77
703.757	0.97
703.938	0.86
704.12	1.01
704.301	0.78
704.483	0.75
704.664	0.86
704.845	0.94
705.026	0.87
705.208	0.69
705.389	0.8
705.57	0.84
705.751	0.72
705.933	0.77
706.114	0.85
706.295	0.73
706.476	0.69
706.657	0.83
706.838	0.85
707.02	0.83
707.201	0.74
707.382	0.66
707.563	0.77
707.744	0.65
707.925	0.71
708.106	0.64
708.287	0.74
708.468	0.84
708.649	0.7
708.83	0.77
709.011	0.67
709.192	0.85
709.373	0.6
709.554	0.65
709.734	0.85
709.915	0.77
710.096	0.77
710.277	0.51
710.458	0.67
710.639	0.72
710.819	0.55
711	0.65
711.181	0.74
711.362	0.72
711.542	0.64
711.723	0.65
711.904	0.82
712.085	0.78
712.265	0.76
712.446	0.52
712.627	0.63
712.807	0.6
712.988	0.67
713.168	0.56
713.349	0.76
713.53	0.55
713.71	0.62
713.891	0.48
714.071	0.66
714.252	0.58
714.432	0.61
714.613	0.47
714.793	0.57
714.974	0.8
715.154	0.7
715.334	0.72
715.515	0.78
715.695	0.52
715.876	0.61
716.056	0.51
716.236	0.58
716.417	0.63
716.597	0.55
716.777	0.89
716.957	0.61
717.138	0.65
717.318	0.57
717.498	0.5
717.678	0.61
717.859	0.69
718.039	0.44
718.219	0.59
718.399	0.56
718.579	0.56
718.759	0.49
718.939	0.52
719.12	0.61
719.3	0.54
719.48	0.43
719.66	0.43
719.84	0.79
720.02	0.57
720.2	0.46
720.38	0.47
720.56	0.74
720.74	0.45
720.92	0.56
721.1	0.74
721.279	0.69
721.459	0.54
721.639	0.49
721.819	0.57
721.999	0.57
722.179	0.65
722.359	0.47
722.538	0.62
722.718	0.49
722.898	0.55
723.078	0.56
723.257	0.47
723.437	0.62
723.617	0.53
723.797	0.52
723.976	0.52
724.156	0.64
724.336	0.71
724.515	0.77
724.695	0.31
724.874	0.55
725.054	0.62
725.234	0.44
725.413	0.62
725.593	0.49
725.772	0.58
725.952	0.51
726.131	0.42
726.311	0.54
726.49	0.53
726.67	0.45
726.849	0.47
727.028	0.52
727.208	0.51
727.387	0.57
727.567	0.43
727.746	0.46
727.925	0.5
728.105	0.46
728.284	0.48
728.463	0.52
728.643	0.56
728.822	0.39
729.001	0.42
729.18	0.65
729.359	0.64
729.539	0.45
729.718	0.59
729.897	0.66
730.076	0.49
730.255	0.34
730.434	0.46
730.614	0.62
730.793	0.69
730.972	0.51
731.151	0.4
731.33	0.64
731.509	0.54
731.688	0.52
731.867	0.52
732.046	0.29
732.225	0.72
732.404	0.4
732.583	0.42
732.762	0.51
732.941	0.63
733.12	0.54
733.298	0.51
733.477	0.58
733.656	0.46
733.835	0.45
734.014	0.67
734.193	0.53
734.371	0.67
734.55	0.53
734.729	0.27
734.908	0.5
735.086	0.62
735.265	0.67
735.444	0.31
735.623	0.33
735.801	0.48
735.98	0.4
736.159	0.38
736.337	0.5
736.516	0.71
736.694	0.6
736.873	0.51
737.052	0.83
737.23	0.71
737.409	0.58
737.587	0.74
737.766	0.45
737.944	0.46
738.123	0.47
738.301	0.55
738.479	0.54
738.658	0.6
738.836	0.37
739.015	0.44
739.193	0.65
739.371	0.36
739.55	0.41
739.728	0.35
739.906	0.64
740.085	0.73
740.263	0.43
740.441	0.32
740.62	0.74
740.798	0.56
740.976	0.44
741.154	0.31
741.332	0.68
741.511	0.51
741.689	0.41
741.867	0.54
742.045	0.6
742.223	0.54
742.401	0.37
742.579	0.43
742.757	0.46
742.935	0.4
743.114	0.47
743.292	0.45
743.47	0.58
743.648	0.52
743.826	0.36
744.004	0.59
744.181	0.56
744.359	0.44
744.537	0.49
744.715	0.38
744.893	0.45
745.071	0.66
745.249	0.45
745.427	0.47
745.605	0.58
745.782	0.45
745.96	0.42
746.138	0.54
746.316	0.61
746.493	0.5
746.671	0.45
746.849	0.34
747.027	0.64
747.204	0.34
747.382	0.49
747.56	0.26
747.737	0.52
747.915	0.4
748.093	0.4
748.27	0.44
748.448	0.46
748.625	0.35
748.803	0.36
748.98	0.32
749.158	0.56
749.335	0.63
749.513	0.39
749.69	0.34
749.868	0.45
750.045	0.41
750.223	0.29
750.4	0.24
750.578	0.72
750.755	0.53
750.932	0.22
751.11	0.55
751.287	0.34
751.464	0.68
751.642	0.22
751.819	0.49
751.996	0.41
752.173	0.33
752.351	0.24
752.528	0.42
752.705	0.35
752.882	0.33
753.06	0.4
753.237	0.48
753.414	0.68
753.591	0.79
753.768	0.37
753.945	0.31
754.122	0.4
754.299	0.53
754.476	0.33
754.654	0.39
754.831	0.56
755.008	0.46
755.185	0.36
755.362	0.35
755.539	0.46
755.716	0.33
755.892	0.34
756.069	0.38
756.246	0.33
756.423	0.35
756.6	0.51
756.777	0.37
756.954	0.53
757.131	0.37
757.307	0.28
757.484	0.16
757.661	0.39
757.838	0.66
758.015	0.22
758.191	0.51
758.368	0.48
758.545	0.62
758.721	0.44
758.898	0.27
759.075	0.3
759.251	0.53
759.428	0.41
759.605	0.2
759.781	0.38
759.958	0.48
760.134	0.49
760.311	0.21
760.488	0.59
760.664	0.62
760.841	0.34
761.017	0.28
761.194	0.38
761.37	0.48
761.547	0.45
761.723	0.31
761.899	0.6
762.076	0.44
762.252	0.3
762.429	0.36
762.605	0.56
762.781	0.13
762.958	0.54
763.134	0.31
763.31	0.25
763.486	0.44
763.663	0.03
763.839	0.34
764.015	0.18
764.191	0.39
764.368	0.27
764.544	0.26
764.72	0.41
764.896	0.42
765.072	0.52
765.248	0.42
765.425	0.42
765.601	0.44
765.777	0.34
765.953	0.14
766.129	0.34
766.305	0.39
766.481	0.54
766.657	0.36
766.833	0.61
767.009	0.2
767.185	0.3
767.361	0.27
767.537	0.3
767.713	0.54
767.889	0.37
768.065	0.41
768.24	0.38
768.416	0.47
768.592	0.34
768.768	0.36
768.944	0.42
769.12	0.29
769.295	0.32
769.471	0.34
769.647	0.37
769.823	0.53
769.998	0.21
770.174	0.35
770.35	0.74
770.525	0.72
770.701	0.46
770.877	0.34
771.052	0.24
771.228	0.61
771.403	0.38
771.579	0.41
771.755	0.65
771.93	0.31
772.106	0.14
772.281	0.06
772.457	0.3
772.632	0.52
772.808	0.25
772.983	0.41
773.159	0.2
773.334	0.71
773.509	0.4
773.685	0.16
773.86	0.88
774.036	0.52
774.211	0.32
774.386	0.54
774.562	0.38
774.737	0.44
774.912	0.2
775.087	0.54
775.263	0.4
775.438	0.43
775.613	0.29
775.788	0.36
775.964	0.66
776.139	0.87
776.314	0.04
776.489	0.36
776.664	0.43
776.839	0.2
777.014	0.66
777.19	0.45
777.365	0.79
777.54	0.87
777.715	0.47
777.89	0.41
778.065	0.24
778.24	0.33
778.415	0.57
778.59	0.17
778.765	0.39
778.94	0.64
779.115	0.43
779.289	0.3
779.464	0.43
779.639	0.31
779.814	0.21
779.989	0.27
780.164	0.5
780.339	0.63
780.513	0.28
780.688	0.04
780.863	0.4
781.038	0.76
781.212	0.17
781.387	0.39
781.562	0.74
781.737	0.38
781.911	0.65
782.086	0.3
782.261	0.32
782.435	0.63
782.61	0.27
782.784	0.22
782.959	0.52
783.134	0.33
783.308	0.07
783.483	0.2
783.657	1.08
783.832	0.69
784.006	0.19
784.181	0.58
784.355	0.58
784.53	0.28
784.704	0.15
784.878	0.65
785.053	0.59
785.227	0.83
785.402	0.89
785.576	0.24
785.75	0.42
785.925	0.26
786.099	0.42
786.273	0.46
786.448	0.69
786.622	0.75
786.796	0.34
786.97	0.47
787.145	1.12
787.319	0.12
787.493	0.51
787.667	0.25
787.841	0.54
788.015	0.75
788.19	0.33
788.364	0.55
788.538	0.8
788.712	0.65
788.886	0.26
789.06	0.6
789.234	1.01
789.408	0.21
789.582	0.35
789.756	0.44
789.93	0.36
790.104	0.42
790.278	0.29
790.452	0.05
790.626	0.72
790.8	0.15
790.973	0.56
791.147	0.79
791.321	0.93
791.495	0.87
791.669	0.42
791.843	0.65
792.016	0.61
792.19	0.98
792.364	0.34
792.538	1.04
792.711	0.84
792.885	0.36
793.059	0.18
793.233	-0.16
793.406	0.79
793.58	0.63
793.754	0.36
793.927	0.44
794.101	0.91
794.274	0.44
794.448	0.97
794.622	0.29
794.795	1.08
794.969	0.35
795.142	0.85
795.316	0.35
795.489	0.47
795.663	0.93
795.836	0.45
796.009	0.21
796.183	1.09
796.356	0.8
796.53	0.5
796.703	0.55
796.876	1.29
797.05	0.61
797.223	0.24
797.396	0.79
797.57	0.58
797.743	1.07
797.916	0.47
798.09	0.55
798.263	0.91
798.436	0.51
798.609	0.51
798.782	0.34
798.956	0.73
799.129	0.67
799.302	0.33
799.475	0.46
799.648	0.19
799.821	0.38
799.994	0.53
800.167	0.1
800.34	0.69
800.514	0.44
800.687	0.26
800.86	0.44
801.033	0.88
801.206	0.61
801.379	0.24
801.551	0.93
801.724	0.9
801.897	1.06
802.07	0.55
802.243	-0.2
802.416	0.67
802.589	0.42
802.762	0.64
802.935	0.48
803.107	0.77
803.28	0.73
803.453	0.77
803.626	0.27
803.798	0.53
803.971	0.42
804.144	0.65
804.317	0.35
804.489	0.94
804.662	0.5
804.835	0.43
805.007	0.23
805.18	1.12
805.353	0.61
805.525	0.34
805.698	0.15
805.87	0.83
806.043	0.81
806.215	0.11
806.388	0.21
806.56	0.78
806.733	1.12
806.905	0.57
807.078	0.12
807.25	0.46
807.423	1.04
807.595	0.57
807.768	0.69
807.94	1.01
808.112	1.07
808.285	0.75
808.457	0.44
808.629	0.53
808.802	1.23
808.974	0.77
809.146	0.58
809.318	0.39
809.491	0.64
809.663	1.28
809.835	0.26
810.007	1.09
810.18	0.8
810.352	0.13
810.524	0.33
810.696	0.76
810.868	1.4
811.04	0.62
811.212	0.41
811.384	0.89
811.556	1.01
811.728	0.48
811.901	1.62
812.073	0.56
812.245	1.15
812.417	0.52
812.589	0.1
812.76	0.71
812.932	1.03
813.104	0.75
813.276	0.67
813.448	1.11
813.62	0.77
813.792	0.94
813.964	0.76
814.136	1.39
814.307	0.54
814.479	0.23
814.651	0.45
814.823	1.73
814.995	0.61
815.166	0.95
815.338	0.34
815.51	-0.06
815.681	0.96
815.853	0.39
816.025	0.75
816.196	1.25
816.368	1.38
816.54	0.24
816.711	-0.02
816.883	0.9
817.054	2.05
817.226	0.26
817.398	1.03
817.569	0.41
817.741	0.28
817.912	0.58
818.084	0.17
818.255	1.3
818.426	0.08
818.598	0.9
818.769	0.25
818.941	0.93
819.112	1
819.283	0.61
819.455	0.34
819.626	0.58
819.798	0.98
819.969	0.9
820.14	0.59
820.311	0.83
820.483	1.1
820.654	0.98
820.825	0.45
820.996	0.66
821.168	0.35
821.339	0.58
821.51	0.23
821.681	0.65
821.852	0.67
822.023	0.06
822.195	-0.26
822.366	1.32
822.537	0.82
822.708	0.56
822.879	0.57
823.05	1.35
823.221	0.5
823.392	0.75
823.563	0.85
823.734	1.15
823.905	0.69
824.076	0.1
824.247	0.1
824.418	0.4
824.589	2.07
824.759	1.14
824.93	1.02
825.101	-0.13
825.272	2.07
825.443	1.77
825.614	1.53
825.784	-0.17
825.955	2.7
826.126	1.25
826.297	0.77
826.467	2.12
826.638	2.72
826.809	-0.13
826.98	1.26
827.15	1.14
827.321	1.02
827.492	1.73
827.662	0.6
827.833	2.21
828.003	1.42
828.174	0.79
828.345	-0
828.515	2.15
828.686	1.44
828.856	1.29
829.027	0.72
829.197	1.59
829.368	1.17
829.538	0.62
829.709	0.39
829.879	1.11
830.049	1.38
830.22	1.02
830.39	0.58
830.56	1.57
830.731	0.85
830.901	1.04
831.072	0.73
831.242	1.1
831.412	1.39
831.582	0.2
831.753	0.1
831.923	1.6
832.093	1.05
832.263	0.82
832.434	0.11
832.604	0.61
832.774	2.11
832.944	0.66
833.114	0.2
833.284	1.06
833.454	0.24
833.624	0.29
833.795	0.35
833.965	2.34
834.135	2.44
834.305	-0.59
834.475	-0.11
834.645	1.34
834.815	1.42
834.985	0.15
835.155	0.85
835.325	1.55
835.494	0.91
835.664	0.84
835.834	-0.17
836.004	1.31
836.174	1.84
836.344	0.89
836.514	0.3
836.684	0.91
836.853	1.08
837.023	1.15
837.193	0.25
837.363	1.71
837.532	1.73
837.702	0.97
837.872	0.09
838.041	1.76
838.211	2.37
838.381	-0.23
838.55	0.83
838.72	4.07
838.89	2.59
839.059	0.65
839.229	-0.03
839.398	3.49
839.568	1.83
839.738	0.68
839.907	2.62
840.077	1.39
840.246	0.71
840.416	-0.04
840.585	0.69
840.755	2.74
840.924	2.71
841.093	0.57
841.263	0.6
841.432	1.46
841.602	0.14
841.771	0.63
841.94	0.7
842.11	3.17
842.279	2.01
842.448	0.38
842.617	0.21
842.787	2.38
842.956	0.6
843.125	0.9
843.294	0.3
843.464	2.87
843.633	1.4
843.802	-0.24
843.971	1.26
844.14	1.94
844.309	1.82
844.479	-0.98
844.648	-0.28
844.817	1.2
844.986	1.91
845.155	0.61
845.324	0.92
845.493	0.57
845.662	0.78
845.831	1.29
846	2.23
846.169	0.9
846.338	3.21
846.507	0.86
846.676	1.58
846.844	1.09
847.013	1.9
847.182	1.47
847.351	0.55
847.52	1.85
847.689	1.98
847.858	1.41
848.026	0.68
848.195	0.96
848.364	0.83
848.533	-0.61
848.701	0.31
848.87	1.17
849.039	2.88
849.207	2.03
849.376	2.89
849.545	2.61
849.713	1
849.882	0.55
850.051	0.93
850.219	1.36
850.388	2.42
850.556	-0.25
850.725	0.48
850.893	1.68
851.062	0.75
851.23	2.37
851.399	0.2
851.567	0.38
851.736	1.31
851.904	0.75
852.073	1.57
852.241	1.65
852.41	1.29
852.578	0.33
852.746	0.57
852.915	2.41
853.083	2.29
853.251	0.52
853.42	1.23
853.588	0.83
853.756	3.51
853.924	0.67
854.093	1.21
854.261	1.29
854.429	0.12
854.597	2.22
854.765	-0.32
854.934	3.27
855.102	1.25
855.27	1.46
855.438	1.95
855.606	3.81
855.774	4.07
855.942	-0.76
856.11	-0.64
856.278	1.71
856.446	2.96
856.614	1.75
856.782	0.04
856.95	3.41
857.118	2.08
857.286	0.92
857.454	0.07
857.622	2.28
857.79	2.67
857.958	0.41
858.126	-0.97
858.294	-0.21
858.462	1.39
858.629	0.02
858.797	0.48
858.965	2.51
859.133	1.2
859.301	1.26
859.468	1.77
859.636	1.09
859.804	3.65
859.971	2
860.139	0.35
860.307	3.44
860.474	1.13
860.642	0.66
860.81	0.31
860.977	1.62
861.145	4.91
861.313	1.52
861.48	1.61
861.648	3.72
861.815	1.44
861.983	-0.7
862.15	1.02
862.318	2.62
862.485	1.89
862.653	0.38
862.82	0.41
862.988	4.08
863.155	-0.39
863.322	1.42
863.49	0.57
863.657	1.54
863.824	3.75
863.992	3.46
864.159	1.69
864.326	4.54
864.494	0.44
864.661	3.54
864.828	0.89
864.996	4.37
865.163	3.54
865.33	0.35
865.497	-0.87
865.664	0.76
865.832	-1.27
865.999	0.25
866.166	1.62
866.333	-0.06
866.5	2.94
866.667	1.71
866.834	2.47
867.001	4.5
867.168	-0.45
867.335	2.74
867.502	-1.27
867.669	1.69
867.836	5.04
868.003	1.42
868.17	3.09
868.337	4.77
868.504	6.15
868.671	0.23
868.838	-0.31
869.005	4.23
869.172	3.83
869.339	1.52
869.505	0.53
869.672	3.56
869.839	4.44
870.006	2.34
870.173	0.6
870.339	3.04
870.506	6.41
870.673	1.15
870.84	3.3
871.006	1.57
871.173	3.3
871.34	2.51
871.506	0.77
871.673	2.42
871.839	0.34
872.006	1.54
872.173	1.61
872.339	3.33
872.506	3.51
872.672	1.59
872.839	-0.73
873.005	2.9
873.172	6.32
873.338	4.4
873.505	3.25
873.671	3.36
873.838	3.69
874.004	-1.19
874.171	1.33
874.337	3.49
874.503	4.66
874.67	3.34
874.836	-0.26
875.002	6.03
875.169	3.68
875.335	0.47
875.501	3.31
875.668	3.36
875.834	1.98
876	1.42
876.166	2.41
876.332	3
876.499	6.62
876.665	2.27
876.831	0.95
876.997	7.56
877.163	2.73
877.329	3.51
877.495	3.82
877.662	4.23
877.828	4.89
877.994	1.49
878.16	-1.66
878.326	1.53
878.492	1.18
878.658	0.94
878.824	3.84
878.99	4.48
879.156	2.33
879.322	3.47
879.487	1.08
879.653	2.2
879.819	1.99
879.985	-0.11
880.151	1.19
880.317	2.82
880.483	1.94
880.648	3.64
880.814	-1.33
880.98	2.9
881.146	-4.41
881.312	-0.96
881.477	0.9
881.643	1.45
881.809	5.42
881.974	4.38
882.14	-1.17
882.306	0.71
882.471	6.31
882.637	2.25
882.803	2.12
882.968	5.72
883.134	5.83
883.299	2.62
883.465	1.72
883.63	4.57
883.796	1.66
883.961	5.02
884.127	3.37
884.292	-3.16
884.458	-0.46
884.623	-0.46
