Data from Apollo_Calib_20240827__AbsoluteIrradiance__762__11-51-00-624.txt Node

Date: Wed Aug 28 11:51:00 BST 2024
User: biology
Spectrometer: FLMT08252
Trigger mode: 0
Integration Time (sec): 5.000000E-1
Scans to average: 5
Electric dark correction enabled: true
Nonlinearity correction enabled: false
Boxcar width: 0
XAxis mode: Wavelengths
Number of Pixels in Spectrum: 3648
>>>>>Begin Spectral Data<<<<<
179.588	-0
179.809	-0
180.03	-0
180.251	-0
180.473	-0
180.694	0
180.915	0
181.136	-0
181.357	0
181.578	0
181.799	0
182.02	-0
182.241	0
182.462	-0
182.683	0
182.904	-0
183.125	-0
183.346	0
183.567	0
183.788	0
184.009	0
184.23	0
184.451	0
184.672	0
184.892	0
185.113	0
185.334	0
185.555	0
185.776	0
185.996	0
186.217	0
186.438	0
186.659	0
186.879	0
187.1	0
187.321	0
187.541	0
187.762	0
187.983	0
188.203	0
188.424	0
188.644	0
188.865	0
189.086	0
189.306	0
189.527	0
189.747	0
189.968	0
190.188	0
190.409	0
190.629	0
190.849	0
191.07	0
191.29	0
191.511	0
191.731	0
191.951	0
192.172	0
192.392	0
192.612	0
192.833	0
193.053	0
193.273	0
193.493	0
193.714	0
193.934	0
194.154	0
194.374	0
194.594	0
194.815	0
195.035	0
195.255	0
195.475	0
195.695	0
195.915	0
196.135	0
196.355	0
196.575	0
196.795	0
197.015	0
197.235	0
197.455	0
197.675	0
197.895	0
198.115	0
198.335	0
198.555	0
198.775	0
198.995	0
199.214	0
199.434	0
199.654	0
199.874	0
200.094	3.58
200.313	2.2
200.533	1.63
200.753	1.33
200.973	3.38
201.192	2.57
201.412	1.07
201.632	1.82
201.851	3.14
202.071	1.47
202.291	1.07
202.51	0.94
202.73	3.18
202.95	1.59
203.169	1.02
203.389	1.49
203.608	1.9
203.828	1.19
204.047	1.51
204.267	2.26
204.486	1.61
204.706	1.94
204.925	1.69
205.145	1.37
205.364	2.12
205.583	2.11
205.803	1.49
206.022	1.17
206.242	1.69
206.461	1.23
206.68	1.26
206.9	1.49
207.119	2.31
207.338	1.83
207.557	1.33
207.777	1.13
207.996	0.85
208.215	2.17
208.434	0.72
208.654	1.03
208.873	1.62
209.092	1.8
209.311	1.04
209.53	1.27
209.749	1.14
209.968	0.92
210.187	0.83
210.407	0.58
210.626	1.27
210.845	1.43
211.064	0.97
211.283	0.75
211.502	1.45
211.721	1.24
211.94	0.83
212.159	1.23
212.377	1.2
212.596	1.17
212.815	0.92
213.034	1.17
213.253	1.28
213.472	1.23
213.691	0.77
213.91	0.76
214.128	0.61
214.347	1.23
214.566	0.35
214.785	0.58
215.003	0.93
215.222	1.01
215.441	0.72
215.66	0.51
215.878	0.78
216.097	1.02
216.316	0.65
216.534	0.84
216.753	0.83
216.972	0.89
217.19	0.65
217.409	0.56
217.627	0.7
217.846	0.62
218.064	0.99
218.283	0.59
218.501	1.37
218.72	1.01
218.938	0.47
219.157	0.51
219.375	0.95
219.594	1.06
219.812	0.5
220.031	0.6
220.249	1.22
220.467	1.17
220.686	0.63
220.904	0.43
221.122	0.63
221.341	1.17
221.559	0.65
221.777	0.51
221.995	0.7
222.214	1.08
222.432	0.58
222.65	0.79
222.868	0.76
223.086	0.67
223.305	0.83
223.523	0.58
223.741	1.02
223.959	0.54
224.177	0.37
224.395	0.56
224.613	0.8
224.831	0.76
225.049	0.41
225.267	0.5
225.485	0.7
225.703	0.37
225.921	0.73
226.139	0.5
226.357	0.57
226.575	0.76
226.793	0.48
227.011	1.48
227.229	0.6
227.447	0.77
227.665	0.55
227.883	0.23
228.1	0.7
228.318	0.62
228.536	0.25
228.754	0.34
228.972	0.64
229.189	0.75
229.407	0.57
229.625	0.52
229.843	0.82
230.06	0.61
230.278	0.47
230.496	0.56
230.713	0.66
230.931	0.69
231.149	0.49
231.366	0.26
231.584	0.59
231.801	1.06
232.019	0.48
232.236	0.36
232.454	0.4
232.671	0.62
232.889	0.59
233.106	0.31
233.324	0.6
233.541	0.5
233.759	0.57
233.976	0.42
234.194	0.51
234.411	0.53
234.628	0.38
234.846	0.48
235.063	0.57
235.28	0.5
235.498	0.53
235.715	0.25
235.932	0.68
236.149	0.41
236.367	0.36
236.584	0.5
236.801	0.34
237.018	0.63
237.236	0.42
237.453	0.25
237.67	0.67
237.887	0.53
238.104	0.36
238.321	0.29
238.538	0.27
238.755	0.65
238.973	0.26
239.19	0.48
239.407	0.48
239.624	0.48
239.841	0.36
240.058	0.3
240.275	0.44
240.492	0.34
240.709	0.48
240.925	0.34
241.142	0.53
241.359	0.33
241.576	0.36
241.793	0.37
242.01	0.4
242.227	0.54
242.444	0.5
242.66	0.55
242.877	0.51
243.094	0.29
243.311	0.45
243.527	0.46
243.744	0.43
243.961	0.5
244.178	0.35
244.394	0.42
244.611	0.52
244.828	0.63
245.044	0.28
245.261	0.39
245.477	0.4
245.694	0.46
245.911	0.4
246.127	0.44
246.344	0.69
246.56	0.46
246.777	0.34
246.993	0.36
247.21	0.45
247.426	0.55
247.643	0.29
247.859	0.28
248.076	0.32
248.292	0.57
248.508	0.31
248.725	0.4
248.941	0.5
249.157	0.46
249.374	0.34
249.59	0.33
249.806	0.38
250.023	0.62
250.239	0.31
250.455	0.33
250.671	0.41
250.888	0.36
251.104	0.42
251.32	0.33
251.536	0.37
251.752	0.36
251.969	0.34
252.185	0.33
252.401	0.62
252.617	0.45
252.833	0.33
253.049	0.3
253.265	0.38
253.481	0.36
253.697	0.34
253.913	0.34
254.129	0.34
254.345	0.4
254.561	0.31
254.777	0.37
254.993	0.48
255.209	0.34
255.425	0.33
255.641	0.32
255.857	0.47
256.073	0.39
256.288	0.26
256.504	0.26
256.72	0.39
256.936	0.44
257.152	0.32
257.367	0.31
257.583	0.38
257.799	0.44
258.015	0.28
258.23	0.33
258.446	0.46
258.662	0.32
258.877	0.27
259.093	0.26
259.309	0.38
259.524	0.36
259.74	0.24
259.955	0.16
260.171	0.36
260.387	0.38
260.602	0.41
260.818	0.35
261.033	0.2
261.249	0.38
261.464	0.35
261.68	0.27
261.895	0.39
262.11	0.46
262.326	0.26
262.541	0.2
262.757	0.42
262.972	0.38
263.187	0.35
263.403	0.34
263.618	0.37
263.833	0.33
264.049	0.25
264.264	0.3
264.479	0.32
264.694	0.47
264.91	0.2
265.125	0.27
265.34	0.42
265.555	0.52
265.77	0.34
265.986	0.34
266.201	0.4
266.416	0.48
266.631	0.28
266.846	0.3
267.061	0.39
267.276	0.34
267.491	0.2
267.706	0.34
267.921	0.33
268.136	0.36
268.351	0.27
268.566	0.28
268.781	0.43
268.996	0.34
269.211	0.3
269.426	0.18
269.641	0.3
269.856	0.39
270.071	0.23
270.285	0.19
270.5	0.36
270.715	0.36
270.93	0.27
271.145	0.32
271.359	0.33
271.574	0.29
271.789	0.29
272.004	0.26
272.218	0.3
272.433	0.38
272.648	0.25
272.862	0.37
273.077	0.33
273.292	0.34
273.506	0.23
273.721	0.28
273.936	0.32
274.15	0.37
274.365	0.25
274.579	0.31
274.794	0.32
275.008	0.4
275.223	0.22
275.437	0.35
275.652	0.38
275.866	0.35
276.081	0.29
276.295	0.35
276.509	0.26
276.724	0.3
276.938	0.22
277.153	0.33
277.367	0.3
277.581	0.23
277.796	0.27
278.01	0.2
278.224	0.34
278.438	0.46
278.653	0.23
278.867	0.26
279.081	0.33
279.295	0.3
279.51	0.32
279.724	0.18
279.938	0.36
280.152	0.35
280.366	0.22
280.58	0.31
280.794	0.37
281.008	0.31
281.222	0.36
281.437	0.46
281.651	0.34
281.865	0.37
282.079	0.2
282.293	0.15
282.507	0.26
282.721	0.3
282.935	0.32
283.148	0.22
283.362	0.28
283.576	0.2
283.79	0.28
284.004	0.22
284.218	0.39
284.432	0.26
284.646	0.28
284.859	0.24
285.073	0.26
285.287	0.29
285.501	0.26
285.714	0.25
285.928	0.29
286.142	0.29
286.356	0.19
286.569	0.22
286.783	0.34
286.997	0.33
287.21	0.26
287.424	0.2
287.637	0.24
287.851	0.26
288.065	0.32
288.278	0.27
288.492	0.24
288.705	0.23
288.919	0.27
289.132	0.22
289.346	0.3
289.559	0.21
289.773	0.2
289.986	0.24
290.2	0.25
290.413	0.28
290.626	0.22
290.84	0.26
291.053	0.29
291.267	0.33
291.48	0.24
291.693	0.27
291.906	0.18
292.12	0.23
292.333	0.26
292.546	0.17
292.76	0.33
292.973	0.3
293.186	0.33
293.399	0.2
293.612	0.33
293.826	0.23
294.039	0.26
294.252	0.19
294.465	0.29
294.678	0.29
294.891	0.23
295.104	0.17
295.317	0.22
295.53	0.25
295.743	0.23
295.956	0.22
296.169	0.31
296.382	0.31
296.595	0.21
296.808	0.18
297.021	0.31
297.234	0.29
297.447	0.22
297.66	0.3
297.873	0.32
298.086	0.31
298.299	0.19
298.511	0.18
298.724	0.22
298.937	0.21
299.15	0.21
299.363	0.21
299.575	0.3
299.788	0.27
300.001	0.17
300.213	0.23
300.426	0.25
300.639	0.17
300.852	0.16
301.064	0.3
301.277	0.29
301.489	0.27
301.702	0.25
301.915	0.24
302.127	0.2
302.34	0.24
302.552	0.23
302.765	0.18
302.977	0.27
303.19	0.25
303.402	0.22
303.615	0.21
303.827	0.23
304.04	0.23
304.252	0.27
304.464	0.18
304.677	0.32
304.889	0.31
305.102	0.23
305.314	0.23
305.526	0.23
305.739	0.27
305.951	0.18
306.163	0.22
306.375	0.35
306.588	0.23
306.8	0.2
307.012	0.18
307.224	0.2
307.436	0.31
307.649	0.14
307.861	0.22
308.073	0.26
308.285	0.21
308.497	0.23
308.709	0.22
308.921	0.23
309.133	0.28
309.346	0.2
309.558	0.22
309.77	0.27
309.982	0.35
310.194	0.24
310.406	0.19
310.617	0.32
310.829	0.27
311.041	0.3
311.253	0.2
311.465	0.24
311.677	0.26
311.889	0.23
312.101	0.21
312.313	0.3
312.524	0.26
312.736	0.17
312.948	0.24
313.16	0.32
313.372	0.28
313.583	0.24
313.795	0.21
314.007	0.21
314.218	0.28
314.43	0.3
314.642	0.21
314.853	0.17
315.065	0.29
315.277	0.21
315.488	0.24
315.7	0.26
315.912	0.25
316.123	0.29
316.335	0.22
316.546	0.32
316.758	0.24
316.969	0.21
317.181	0.25
317.392	0.25
317.604	0.28
317.815	0.2
318.026	0.23
318.238	0.23
318.449	0.24
318.661	0.15
318.872	0.16
319.083	0.23
319.295	0.27
319.506	0.21
319.717	0.24
319.929	0.25
320.14	0.26
320.351	0.25
320.562	0.22
320.774	0.25
320.985	0.28
321.196	0.13
321.407	0.13
321.618	0.29
321.829	0.26
322.041	0.22
322.252	0.26
322.463	0.25
322.674	0.23
322.885	0.16
323.096	0.18
323.307	0.27
323.518	0.25
323.729	0.19
323.94	0.2
324.151	0.22
324.362	0.26
324.573	0.24
324.784	0.21
324.995	0.28
325.206	0.25
325.417	0.21
325.628	0.17
325.838	0.26
326.049	0.24
326.26	0.31
326.471	0.22
326.682	0.32
326.892	0.26
327.103	0.17
327.314	0.18
327.525	0.3
327.735	0.28
327.946	0.24
328.157	0.19
328.368	0.27
328.578	0.23
328.789	0.25
328.999	0.25
329.21	0.22
329.421	0.29
329.631	0.18
329.842	0.2
330.052	0.25
330.263	0.27
330.473	0.28
330.684	0.18
330.894	0.28
331.105	0.24
331.315	0.23
331.526	0.17
331.736	0.33
331.947	0.27
332.157	0.3
332.367	0.16
332.578	0.28
332.788	0.3
332.999	0.26
333.209	0.24
333.419	0.15
333.629	0.3
333.84	0.24
334.05	0.26
334.26	0.29
334.47	0.26
334.681	0.28
334.891	0.21
335.101	0.26
335.311	0.31
335.521	0.21
335.732	0.2
335.942	0.3
336.152	0.24
336.362	0.21
336.572	0.21
336.782	0.25
336.992	0.24
337.202	0.2
337.412	0.18
337.622	0.26
337.832	0.22
338.042	0.21
338.252	0.18
338.462	0.2
338.672	0.26
338.882	0.23
339.092	0.19
339.302	0.33
339.511	0.26
339.721	0.18
339.931	0.17
340.141	0.27
340.351	0.28
340.561	0.23
340.77	0.23
340.98	0.2
341.19	0.22
341.4	0.19
341.609	0.17
341.819	0.26
342.029	0.14
342.238	0.2
342.448	0.18
342.658	0.28
342.867	0.22
343.077	0.22
343.286	0.22
343.496	0.22
343.706	0.32
343.915	0.14
344.125	0.24
344.334	0.26
344.544	0.19
344.753	0.16
344.963	0.16
345.172	0.19
345.381	0.21
345.591	0.18
345.8	0.23
346.01	0.33
346.219	0.29
346.428	0.07
346.638	0.22
346.847	0.28
347.056	0.31
347.266	0.19
347.475	0.2
347.684	0.23
347.893	0.24
348.103	0.22
348.312	0.23
348.521	0.22
348.73	0.25
348.94	0.25
349.149	0.19
349.358	0.22
349.567	0.19
349.776	0.13
349.985	0.21
350.194	0.3
350.403	0.3
350.612	0.1
350.821	0.21
351.03	0.2
351.239	0.16
351.448	0.18
351.657	0.23
351.866	0.29
352.075	0.25
352.284	0.17
352.493	0.17
352.702	0.28
352.911	0.24
353.12	0.25
353.329	0.2
353.538	0.26
353.746	0.21
353.955	0.17
354.164	0.29
354.373	0.22
354.582	0.25
354.79	0.22
354.999	0.24
355.208	0.26
355.416	0.29
355.625	0.17
355.834	0.2
356.042	0.27
356.251	0.2
356.46	0.21
356.668	0.25
356.877	0.31
357.085	0.3
357.294	0.15
357.503	0.23
357.711	0.21
357.92	0.37
358.128	0.26
358.337	0.24
358.545	0.26
358.754	0.18
358.962	0.27
359.17	0.22
359.379	0.27
359.587	0.24
359.796	0.24
360.004	0.26
360.212	0.27
360.421	0.25
360.629	0.21
360.837	0.19
361.046	0.28
361.254	0.35
361.462	0.19
361.67	0.17
361.879	0.21
362.087	0.27
362.295	0.2
362.503	0.23
362.711	0.15
362.92	0.22
363.128	0.18
363.336	0.17
363.544	0.15
363.752	0.2
363.96	0.18
364.168	0.21
364.376	0.24
364.584	0.2
364.792	0.28
365	0.23
365.208	0.23
365.416	0.28
365.624	0.3
365.832	0.21
366.04	0.27
366.248	0.25
366.456	0.27
366.664	0.28
366.872	0.23
367.079	0.21
367.287	0.26
367.495	0.22
367.703	0.23
367.911	0.23
368.118	0.21
368.326	0.24
368.534	0.19
368.742	0.27
368.949	0.15
369.157	0.21
369.365	0.23
369.572	0.19
369.78	0.2
369.988	0.29
370.195	0.26
370.403	0.26
370.61	0.22
370.818	0.21
371.026	0.32
371.233	0.19
371.441	0.24
371.648	0.2
371.856	0.22
372.063	0.26
372.271	0.21
372.478	0.19
372.685	0.2
372.893	0.3
373.1	0.21
373.308	0.2
373.515	0.34
373.722	0.28
373.93	0.25
374.137	0.28
374.344	0.32
374.552	0.28
374.759	0.31
374.966	0.25
375.173	0.18
375.381	0.28
375.588	0.23
375.795	0.14
376.002	0.17
376.209	0.22
376.417	0.23
376.624	0.26
376.831	0.3
377.038	0.24
377.245	0.09
377.452	0.2
377.659	0.24
377.866	0.17
378.073	0.27
378.28	0.24
378.487	0.28
378.694	0.28
378.901	0.23
379.108	0.22
379.315	0.29
379.522	0.3
379.729	0.28
379.936	0.19
380.143	0.19
380.35	0.26
380.557	0.23
380.763	0.25
380.97	0.26
381.177	0.27
381.384	0.24
381.591	0.26
381.797	0.26
382.004	0.3
382.211	0.25
382.418	0.18
382.624	0.26
382.831	0.3
383.038	0.2
383.244	0.31
383.451	0.24
383.658	0.3
383.864	0.23
384.071	0.2
384.277	0.38
384.484	0.25
384.69	0.3
384.897	0.21
385.103	0.23
385.31	0.2
385.516	0.22
385.723	0.22
385.929	0.29
386.136	0.22
386.342	0.28
386.549	0.24
386.755	0.31
386.961	0.26
387.168	0.25
387.374	0.28
387.58	0.31
387.787	0.29
387.993	0.28
388.199	0.21
388.406	0.23
388.612	0.23
388.818	0.21
389.024	0.23
389.231	0.25
389.437	0.37
389.643	0.31
389.849	0.26
390.055	0.28
390.261	0.29
390.467	0.24
390.674	0.25
390.88	0.27
391.086	0.31
391.292	0.2
391.498	0.3
391.704	0.33
391.91	0.3
392.116	0.2
392.322	0.17
392.528	0.3
392.734	0.26
392.94	0.25
393.146	0.23
393.352	0.26
393.557	0.25
393.763	0.25
393.969	0.37
394.175	0.29
394.381	0.26
394.587	0.23
394.792	0.28
394.998	0.33
395.204	0.35
395.41	0.26
395.615	0.34
395.821	0.3
396.027	0.3
396.233	0.26
396.438	0.31
396.644	0.34
396.85	0.35
397.055	0.26
397.261	0.26
397.466	0.3
397.672	0.27
397.878	0.33
398.083	0.36
398.289	0.26
398.494	0.38
398.7	0.32
398.905	0.2
399.111	0.39
399.316	0.26
399.522	0.34
399.727	0.31
399.932	0.27
400.138	0.26
400.343	0.39
400.549	0.29
400.754	0.33
400.959	0.36
401.165	0.32
401.37	0.34
401.575	0.42
401.78	0.32
401.986	0.33
402.191	0.36
402.396	0.36
402.601	0.33
402.807	0.38
403.012	0.34
403.217	0.39
403.422	0.37
403.627	0.39
403.832	0.33
404.037	0.4
404.243	0.39
404.448	0.36
404.653	0.41
404.858	0.43
405.063	0.37
405.268	0.34
405.473	0.31
405.678	0.39
405.883	0.62
406.088	0.44
406.293	0.33
406.498	0.39
406.703	0.46
406.907	0.44
407.112	0.39
407.317	0.47
407.522	0.54
407.727	0.41
407.932	0.44
408.136	0.57
408.341	0.49
408.546	0.49
408.751	0.52
408.956	0.54
409.16	0.58
409.365	0.56
409.57	0.54
409.774	0.57
409.979	0.65
410.184	0.6
410.388	0.53
410.593	0.71
410.798	0.64
411.002	0.67
411.207	0.69
411.411	0.7
411.616	0.69
411.82	0.71
412.025	0.79
412.229	0.77
412.434	0.85
412.638	0.8
412.843	0.79
413.047	0.88
413.252	0.82
413.456	0.89
413.66	0.95
413.865	0.92
414.069	0.96
414.273	0.96
414.478	0.95
414.682	0.99
414.886	1.08
415.091	1.1
415.295	1.07
415.499	1.26
415.703	1.16
415.908	1.26
416.112	1.14
416.316	1.42
416.52	1.37
416.724	1.34
416.929	1.45
417.133	1.63
417.337	1.51
417.541	1.59
417.745	1.65
417.949	1.71
418.153	1.73
418.357	1.76
418.561	1.93
418.765	1.94
418.969	2.02
419.173	2.15
419.377	2.07
419.581	2.35
419.785	2.28
419.989	2.32
420.193	2.47
420.397	2.51
420.601	2.59
420.804	2.79
421.008	2.68
421.212	2.87
421.416	2.9
421.62	2.88
421.823	2.89
422.027	3.15
422.231	3.04
422.435	3.07
422.638	3.17
422.842	3.18
423.046	3.25
423.249	3.48
423.453	3.45
423.657	3.59
423.86	3.62
424.064	3.82
424.268	3.89
424.471	3.98
424.675	4.11
424.878	4.23
425.082	4.32
425.285	4.69
425.489	4.47
425.692	4.65
425.896	4.63
426.099	4.86
426.303	4.85
426.506	5.01
426.71	5.26
426.913	5.43
427.116	5.64
427.32	5.57
427.523	5.6
427.726	6.01
427.93	6.03
428.133	6.32
428.336	6.44
428.54	6.53
428.743	6.82
428.946	7.04
429.149	7
429.353	6.99
429.556	7.11
429.759	7.12
429.962	7.25
430.165	7.4
430.368	7.04
430.571	7.16
430.775	7.26
430.978	7.15
431.181	7.26
431.384	7.33
431.587	7.39
431.79	7.78
431.993	7.71
432.196	7.92
432.399	8.25
432.602	8.48
432.805	8.5
433.008	9.07
433.211	8.83
433.414	9.12
433.616	9.22
433.819	9.08
434.022	9.34
434.225	9.55
434.428	9.48
434.631	9.84
434.833	9.67
435.036	9.96
435.239	10.1
435.442	10.17
435.645	10.39
435.847	10.49
436.05	10.64
436.253	10.95
436.455	10.87
436.658	10.74
436.861	11.13
437.063	11.23
437.266	11.19
437.468	11.45
437.671	11.79
437.874	11.75
438.076	11.65
438.279	12.05
438.481	12.1
438.684	12.87
438.886	12.41
439.089	12.78
439.291	12.75
439.494	13.14
439.696	13.21
439.899	13.8
440.101	14.16
440.303	14.33
440.506	14.94
440.708	14.83
440.91	14.97
441.113	15.04
441.315	15.22
441.517	15.16
441.72	15.61
441.922	15.36
442.124	15.13
442.326	15.47
442.529	15.83
442.731	15.82
442.933	16.13
443.135	15.82
443.337	15.83
443.539	16.38
443.742	16.02
443.944	16.66
444.146	16.45
444.348	16.52
444.55	16.34
444.752	16.53
444.954	16.51
445.156	16.46
445.358	16.92
445.56	17.04
445.762	16.87
445.964	17.24
446.166	17.04
446.368	17.15
446.57	17.1
446.772	16.63
446.974	16.58
447.175	16.89
447.377	16.72
447.579	16.95
447.781	16.56
447.983	16.45
448.184	16.03
448.386	16.4
448.588	15.93
448.79	15.95
448.991	16.36
449.193	16.18
449.395	15.72
449.597	15.34
449.798	15.3
450	14.82
450.202	14.69
450.403	14.91
450.605	14.75
450.806	14.3
451.008	14.25
451.21	14.05
451.411	13.61
451.613	12.94
451.814	13.17
452.016	13.23
452.217	12.55
452.419	12.5
452.62	12.15
452.821	11.98
453.023	11.83
453.224	11.52
453.426	11.07
453.627	10.47
453.828	10.66
454.03	10.59
454.231	10.64
454.432	10.4
454.634	10.22
454.835	9.88
455.036	9.78
455.238	9.53
455.439	9.25
455.64	8.93
455.841	8.81
456.042	9.02
456.244	8.74
456.445	8.52
456.646	8.19
456.847	8.07
457.048	8.02
457.249	8.09
457.45	7.79
457.651	7.28
457.852	7.11
458.054	6.89
458.255	6.74
458.456	6.86
458.657	6.83
458.858	6.4
459.058	6.27
459.259	6.36
459.46	6.05
459.661	6.04
459.862	6.15
460.063	5.99
460.264	5.88
460.465	5.65
460.666	5.69
460.866	5.45
461.067	5.26
461.268	5.24
461.469	5.25
461.67	5.11
461.87	4.97
462.071	4.87
462.272	4.87
462.473	4.78
462.673	5.02
462.874	4.81
463.075	4.79
463.275	4.81
463.476	4.83
463.676	4.82
463.877	4.66
464.078	4.63
464.278	4.66
464.479	4.54
464.679	4.49
464.88	4.48
465.08	4.36
465.281	4.29
465.481	4.1
465.682	3.84
465.882	3.89
466.083	3.85
466.283	3.85
466.483	3.73
466.684	3.5
466.884	3.42
467.085	3.46
467.285	3.54
467.485	3.44
467.686	3.33
467.886	3.28
468.086	3.19
468.286	3.2
468.487	3.21
468.687	3.12
468.887	3
469.087	3.2
469.287	3.1
469.488	2.85
469.688	2.97
469.888	2.98
470.088	2.96
470.288	2.89
470.488	2.84
470.688	2.68
470.888	2.73
471.088	2.62
471.288	2.61
471.488	2.65
471.688	2.58
471.888	2.47
472.088	2.71
472.288	2.57
472.488	2.43
472.688	2.43
472.888	2.43
473.088	2.44
473.288	2.32
473.488	2.35
473.688	2.46
473.887	2.3
474.087	2.25
474.287	2.29
474.487	2.22
474.687	2.29
474.886	2.25
475.086	2.13
475.286	2.2
475.486	2.16
475.685	2.09
475.885	2.12
476.085	2.12
476.284	2.15
476.484	2.15
476.684	2.09
476.883	2.2
477.083	2.01
477.282	1.94
477.482	2.09
477.681	2
477.881	1.91
478.08	1.95
478.28	1.91
478.479	1.99
478.679	2.03
478.878	1.91
479.078	1.9
479.277	1.96
479.477	1.88
479.676	1.95
479.875	1.9
480.075	1.81
480.274	1.9
480.473	1.92
480.673	1.86
480.872	1.97
481.071	1.9
481.271	1.92
481.47	1.86
481.669	1.87
481.868	1.87
482.067	1.84
482.267	1.8
482.466	1.84
482.665	1.82
482.864	1.85
483.063	1.76
483.262	1.86
483.461	1.9
483.661	1.94
483.86	1.88
484.059	1.94
484.258	1.91
484.457	1.86
484.656	1.94
484.855	1.95
485.054	1.77
485.253	1.81
485.452	1.83
485.651	1.94
485.849	1.89
486.048	1.84
486.247	1.9
486.446	1.96
486.645	1.95
486.844	1.95
487.043	1.92
487.241	1.93
487.44	1.9
487.639	2
487.838	2
488.037	1.97
488.235	2.08
488.434	2
488.633	1.91
488.831	2.08
489.03	2.09
489.229	2.08
489.427	2.08
489.626	2.11
489.825	2.12
490.023	2.15
490.222	2.11
490.42	2.13
490.619	2.17
490.817	2.21
491.016	2.18
491.214	2.27
491.413	2.24
491.611	2.16
491.81	2.21
492.008	2.25
492.207	2.34
492.405	2.32
492.604	2.27
492.802	2.41
493	2.42
493.199	2.45
493.397	2.45
493.595	2.52
493.794	2.45
493.992	2.63
494.19	2.56
494.388	2.61
494.587	2.56
494.785	2.57
494.983	2.53
495.181	2.69
495.379	2.73
495.578	2.72
495.776	2.71
495.974	2.7
496.172	2.74
496.37	2.87
496.568	2.86
496.766	2.86
496.964	2.95
497.162	2.94
497.36	2.99
497.558	3.06
497.756	3.06
497.954	3.03
498.152	3.09
498.35	3.14
498.548	3.12
498.746	3.11
498.944	3.14
499.142	3.2
499.34	3.27
499.538	3.35
499.736	3.28
499.933	3.38
500.131	3.35
500.329	3.46
500.527	3.48
500.725	3.57
500.922	3.58
501.12	3.59
501.318	3.64
501.516	3.62
501.713	3.72
501.911	3.69
502.109	3.66
502.306	3.77
502.504	3.7
502.701	3.79
502.899	3.84
503.097	4.03
503.294	3.85
503.492	4.01
503.689	4.01
503.887	4.06
504.084	4.12
504.282	4.11
504.479	4.09
504.677	4.28
504.874	4.23
505.072	4.07
505.269	4.32
505.466	4.29
505.664	4.41
505.861	4.3
506.059	4.41
506.256	4.41
506.453	4.47
506.651	4.58
506.848	4.67
507.045	4.63
507.242	4.59
507.44	4.67
507.637	4.71
507.834	4.72
508.031	4.79
508.229	4.72
508.426	4.73
508.623	4.91
508.82	4.87
509.017	4.83
509.214	4.85
509.411	4.97
509.608	4.96
509.805	5.06
510.003	5.04
510.2	5.04
510.397	5.21
510.594	5.11
510.791	5.18
510.988	5.2
511.184	5.2
511.381	5.11
511.578	5.31
511.775	5.36
511.972	5.29
512.169	5.34
512.366	5.42
512.563	5.51
512.76	5.62
512.956	5.61
513.153	5.53
513.35	5.48
513.547	5.48
513.744	5.55
513.94	5.58
514.137	5.65
514.334	5.58
514.53	5.72
514.727	5.88
514.924	5.8
515.12	5.77
515.317	5.8
515.514	5.75
515.71	5.74
515.907	5.96
516.103	5.97
516.3	5.84
516.497	6.02
516.693	6.01
516.89	6
517.086	6.02
517.283	6.03
517.479	5.97
517.676	6.13
517.872	6.15
518.068	6.13
518.265	6.15
518.461	6.09
518.658	6.19
518.854	6.22
519.05	6.26
519.247	6.33
519.443	6.29
519.639	6.37
519.836	6.25
520.032	6.24
520.228	6.39
520.424	6.38
520.621	6.37
520.817	6.47
521.013	6.38
521.209	6.61
521.405	6.56
521.601	6.53
521.798	6.41
521.994	6.52
522.19	6.44
522.386	6.5
522.582	6.59
522.778	6.74
522.974	6.58
523.17	6.59
523.366	6.61
523.562	6.69
523.758	6.63
523.954	6.52
524.15	6.68
524.346	6.71
524.542	6.72
524.738	6.68
524.934	6.8
525.129	6.8
525.325	6.7
525.521	6.74
525.717	6.91
525.913	6.8
526.109	6.81
526.304	6.9
526.5	6.86
526.696	6.9
526.892	6.83
527.087	7.03
527.283	6.99
527.479	6.98
527.674	6.81
527.87	6.92
528.066	6.91
528.261	7
528.457	6.88
528.653	7.12
528.848	7.03
529.044	7.1
529.239	6.97
529.435	6.99
529.63	6.95
529.826	6.98
530.021	7.02
530.217	7.01
530.412	6.99
530.608	7.07
530.803	7.02
530.999	7.01
531.194	7.08
531.389	7.11
531.585	7.14
531.78	7.23
531.975	7.1
532.171	7.19
532.366	7.16
532.561	7.2
532.757	7.11
532.952	7.33
533.147	7.06
533.342	7.2
533.538	7.1
533.733	7.36
533.928	7.07
534.123	7.24
534.318	7.22
534.513	7.25
534.709	7.3
534.904	7.29
535.099	7.29
535.294	7.33
535.489	7.29
535.684	7.24
535.879	7.2
536.074	7.33
536.269	7.32
536.464	7.3
536.659	7.31
536.854	7.27
537.049	7.39
537.244	7.33
537.439	7.33
537.634	7.34
537.828	7.41
538.023	7.38
538.218	7.32
538.413	7.31
538.608	7.42
538.803	7.3
538.997	7.29
539.192	7.36
539.387	7.3
539.582	7.3
539.776	7.25
539.971	7.38
540.166	7.37
540.36	7.32
540.555	7.45
540.75	7.4
540.944	7.43
541.139	7.42
541.334	7.37
541.528	7.42
541.723	7.43
541.917	7.46
542.112	7.41
542.306	7.29
542.501	7.33
542.695	7.34
542.89	7.32
543.084	7.4
543.279	7.38
543.473	7.45
543.668	7.44
543.862	7.39
544.056	7.35
544.251	7.44
544.445	7.5
544.64	7.57
544.834	7.21
545.028	7.21
545.222	7.47
545.417	7.63
545.611	7.55
545.805	7.45
546	7.29
546.194	7.44
546.388	7.51
546.582	7.37
546.776	7.45
546.97	7.45
547.165	7.47
547.359	7.41
547.553	7.35
547.747	7.43
547.941	7.58
548.135	7.41
548.329	7.53
548.523	7.48
548.717	7.4
548.911	7.45
549.105	7.37
549.299	7.53
549.493	7.51
549.687	7.36
549.881	7.53
550.075	7.46
550.269	7.38
550.463	7.56
550.657	7.54
550.85	7.44
551.044	7.46
551.238	7.54
551.432	7.48
551.626	7.52
551.82	7.53
552.013	7.37
552.207	7.49
552.401	7.58
552.594	7.49
552.788	7.45
552.982	7.48
553.176	7.42
553.369	7.69
553.563	7.54
553.756	7.45
553.95	7.55
554.144	7.53
554.337	7.54
554.531	7.4
554.724	7.51
554.918	7.51
555.111	7.47
555.305	7.57
555.498	7.47
555.692	7.54
555.885	7.53
556.079	7.44
556.272	7.49
556.466	7.56
556.659	7.4
556.852	7.54
557.046	7.43
557.239	7.44
557.432	7.47
557.626	7.58
557.819	7.61
558.012	7.51
558.206	7.57
558.399	7.51
558.592	7.47
558.785	7.45
558.979	7.53
559.172	7.49
559.365	7.52
559.558	7.43
559.751	7.42
559.944	7.59
560.138	7.45
560.331	7.6
560.524	7.5
560.717	7.54
560.91	7.42
561.103	7.58
561.296	7.42
561.489	7.51
561.682	7.57
561.875	7.55
562.068	7.62
562.261	7.39
562.454	7.68
562.647	7.46
562.84	7.56
563.032	7.56
563.225	7.47
563.418	7.45
563.611	7.62
563.804	7.54
563.997	7.42
564.19	7.28
564.382	7.61
564.575	7.43
564.768	7.46
564.961	7.51
565.153	7.47
565.346	7.38
565.539	7.54
565.731	7.42
565.924	7.54
566.117	7.59
566.309	7.51
566.502	7.47
566.695	7.36
566.887	7.54
567.08	7.47
567.272	7.55
567.465	7.38
567.657	7.51
567.85	7.36
568.042	7.42
568.235	7.53
568.427	7.34
568.62	7.42
568.812	7.42
569.005	7.48
569.197	7.35
569.389	7.45
569.582	7.42
569.774	7.37
569.966	7.38
570.159	7.37
570.351	7.37
570.543	7.44
570.736	7.44
570.928	7.31
571.12	7.43
571.312	7.35
571.505	7.22
571.697	7.36
571.889	7.43
572.081	7.35
572.273	7.34
572.465	7.41
572.658	7.43
572.85	7.41
573.042	7.42
573.234	7.32
573.426	7.37
573.618	7.38
573.81	7.4
574.002	7.39
574.194	7.39
574.386	7.34
574.578	7.26
574.77	7.32
574.962	7.3
575.154	7.22
575.346	7.31
575.538	7.25
575.729	7.26
575.921	7.39
576.113	7.37
576.305	7.29
576.497	7.34
576.689	7.26
576.88	7.22
577.072	7.37
577.264	7.26
577.456	7.34
577.647	7.21
577.839	7.32
578.031	7.25
578.223	7.21
578.414	7.14
578.606	7.23
578.798	7.28
578.989	7.3
579.181	7.29
579.372	7.26
579.564	7.27
579.755	7.19
579.947	7.21
580.139	7.27
580.33	7.11
580.522	7.13
580.713	7.12
580.905	7.09
581.096	7.26
581.287	7.22
581.479	7.17
581.67	7.19
581.862	7.16
582.053	7.12
582.244	7
582.436	7.19
582.627	7.02
582.818	7.04
583.01	7
583.201	7.06
583.392	7.09
583.583	7.01
583.775	6.89
583.966	7.05
584.157	7.1
584.348	7.18
584.54	6.97
584.731	7.06
584.922	6.95
585.113	6.82
585.304	7.08
585.495	6.97
585.686	7.06
585.877	7.01
586.068	7.13
586.259	7.02
586.45	6.93
586.641	6.95
586.832	7.02
587.023	6.88
587.214	6.94
587.405	7.01
587.596	6.84
587.787	6.81
587.978	6.88
588.169	6.89
588.36	6.81
588.551	6.89
588.742	6.81
588.932	6.9
589.123	6.66
589.314	6.91
589.505	6.83
589.696	6.78
589.886	6.82
590.077	6.78
590.268	6.68
590.458	6.67
590.649	6.62
590.84	6.74
591.03	6.75
591.221	6.73
591.412	6.57
591.602	6.78
591.793	6.69
591.984	6.73
592.174	6.65
592.365	6.84
592.555	6.53
592.746	6.61
592.936	6.63
593.127	6.61
593.317	6.68
593.508	6.66
593.698	6.59
593.889	6.61
594.079	6.5
594.269	6.43
594.46	6.5
594.65	6.53
594.84	6.52
595.031	6.46
595.221	6.44
595.411	6.49
595.602	6.54
595.792	6.42
595.982	6.41
596.172	6.55
596.363	6.43
596.553	6.37
596.743	6.43
596.933	6.39
597.123	6.37
597.314	6.27
597.504	6.23
597.694	6.46
597.884	6.31
598.074	6.35
598.264	6.28
598.454	6.3
598.644	6.2
598.834	6.3
599.024	6.18
599.214	6.21
599.404	6.27
599.594	6.16
599.784	6.28
599.974	6.23
600.164	6.2
600.354	6.13
600.544	6.1
600.734	6.14
600.924	6.11
601.114	6
601.303	6.05
601.493	6.04
601.683	6.05
601.873	6.06
602.063	5.98
602.252	6.04
602.442	5.95
602.632	5.93
602.821	5.88
603.011	5.99
603.201	5.94
603.39	5.89
603.58	5.79
603.77	5.97
603.959	5.99
604.149	5.9
604.339	5.84
604.528	6.01
604.718	5.94
604.907	5.88
605.097	5.72
605.286	5.78
605.476	5.76
605.665	5.83
605.855	5.71
606.044	5.83
606.234	5.76
606.423	5.7
606.612	5.77
606.802	5.65
606.991	5.73
607.181	5.74
607.37	5.67
607.559	5.46
607.749	5.63
607.938	5.54
608.127	5.53
608.316	5.62
608.506	5.61
608.695	5.55
608.884	5.54
609.073	5.55
609.263	5.66
609.452	5.59
609.641	5.36
609.83	5.41
610.019	5.49
610.208	5.39
610.397	5.37
610.586	5.47
610.775	5.35
610.965	5.41
611.154	5.27
611.343	5.36
611.532	5.22
611.721	5.4
611.91	5.24
612.099	5.3
612.287	5.2
612.476	5.16
612.665	5.36
612.854	5.16
613.043	5.25
613.232	5.19
613.421	5.17
613.61	5.16
613.798	5.11
613.987	5.15
614.176	5.07
614.365	5.11
614.554	5.1
614.742	5.12
614.931	5
615.12	5.06
615.309	5.02
615.497	5.01
615.686	4.88
615.875	5.05
616.063	4.93
616.252	4.96
616.44	4.96
616.629	4.9
616.818	4.93
617.006	4.86
617.195	4.88
617.383	4.78
617.572	4.79
617.76	4.76
617.949	4.79
618.137	4.92
618.326	4.81
618.514	4.61
618.703	4.69
618.891	4.81
619.079	4.67
619.268	4.8
619.456	4.63
619.644	4.75
619.833	4.6
620.021	4.62
620.209	4.49
620.398	4.62
620.586	4.5
620.774	4.62
620.962	4.5
621.151	4.59
621.339	4.56
621.527	4.47
621.715	4.43
621.903	4.48
622.092	4.4
622.28	4.53
622.468	4.34
622.656	4.44
622.844	4.38
623.032	4.45
623.22	4.24
623.408	4.44
623.596	4.37
623.784	4.36
623.972	4.27
624.16	4.3
624.348	4.34
624.536	4.31
624.724	4.23
624.912	4.34
625.1	4.31
625.288	4.29
625.476	4.17
625.664	4.28
625.851	4.18
626.039	4.21
626.227	4.13
626.415	4.18
626.603	4.06
626.79	4.14
626.978	4.09
627.166	4.17
627.354	4.05
627.541	4.1
627.729	3.93
627.917	4.18
628.104	4.07
628.292	3.98
628.48	4.01
628.667	3.91
628.855	4
629.042	3.97
629.23	3.97
629.418	3.97
629.605	3.96
629.793	3.82
629.98	3.88
630.168	3.84
630.355	3.86
630.543	3.84
630.73	3.77
630.917	3.78
631.105	3.89
631.292	3.77
631.48	3.76
631.667	3.85
631.854	3.73
632.042	3.7
632.229	3.61
632.416	3.74
632.604	3.71
632.791	3.53
632.978	3.73
633.165	3.63
633.353	3.74
633.54	3.61
633.727	3.53
633.914	3.52
634.101	3.52
634.289	3.66
634.476	3.48
634.663	3.49
634.85	3.46
635.037	3.48
635.224	3.39
635.411	3.59
635.598	3.51
635.785	3.45
635.972	3.42
636.159	3.5
636.346	3.37
636.533	3.37
636.72	3.33
636.907	3.38
637.094	3.37
637.281	3.21
637.468	3.33
637.655	3.29
637.842	3.28
638.029	3.26
638.215	3.26
638.402	3.26
638.589	3.17
638.776	3.23
638.963	3.12
639.149	3.27
639.336	3.25
639.523	3.16
639.709	3.17
639.896	3.15
640.083	3.18
640.27	3.18
640.456	3.11
640.643	3.1
640.829	3.01
641.016	3.04
641.203	2.95
641.389	3.04
641.576	3.01
641.762	2.98
641.949	2.97
642.135	3.01
642.322	2.98
642.508	2.85
642.695	3.04
642.881	2.89
643.068	2.91
643.254	2.92
643.441	2.95
643.627	2.91
643.813	2.79
644	2.89
644.186	2.8
644.372	2.86
644.559	2.83
644.745	2.81
644.931	2.78
645.118	2.8
645.304	2.76
645.49	2.77
645.676	2.71
645.862	2.77
646.049	2.76
646.235	2.77
646.421	2.83
646.607	2.75
646.793	2.6
646.979	2.62
647.165	2.69
647.352	2.71
647.538	2.68
647.724	2.64
647.91	2.58
648.096	2.6
648.282	2.62
648.468	2.57
648.654	2.66
648.84	2.58
649.026	2.6
649.212	2.5
649.397	2.5
649.583	2.45
649.769	2.54
649.955	2.48
650.141	2.49
650.327	2.49
650.513	2.47
650.698	2.45
650.884	2.35
651.07	2.48
651.256	2.46
651.442	2.39
651.627	2.32
651.813	2.42
651.999	2.34
652.184	2.38
652.37	2.32
652.556	2.35
652.741	2.39
652.927	2.18
653.113	2.32
653.298	2.3
653.484	2.3
653.669	2.24
653.855	2.36
654.04	2.32
654.226	2.23
654.412	2.22
654.597	2.19
654.782	2.29
654.968	2.24
655.153	2.21
655.339	2.18
655.524	2.18
655.71	2.2
655.895	2.15
656.08	2.14
656.266	2.24
656.451	2.11
656.636	2.04
656.822	2.13
657.007	2.14
657.192	2.12
657.378	2.06
657.563	2.08
657.748	2.11
657.933	2.06
658.118	1.99
658.304	2.01
658.489	2.04
658.674	2.01
658.859	1.95
659.044	2
659.229	2.04
659.414	1.96
659.599	1.99
659.785	1.91
659.97	1.92
660.155	1.99
660.34	1.94
660.525	1.95
660.71	1.92
660.895	1.94
661.08	1.9
661.264	1.91
661.449	1.95
661.634	1.93
661.819	1.9
662.004	1.84
662.189	1.82
662.374	1.87
662.559	1.81
662.743	1.75
662.928	1.82
663.113	1.79
663.298	1.74
663.483	1.77
663.667	1.83
663.852	1.73
664.037	1.84
664.221	1.75
664.406	1.83
664.591	1.81
664.775	1.76
664.96	1.72
665.145	1.67
665.329	1.75
665.514	1.72
665.698	1.71
665.883	1.64
666.068	1.74
666.252	1.74
666.437	1.67
666.621	1.64
666.806	1.67
666.99	1.65
667.174	1.65
667.359	1.69
667.543	1.67
667.728	1.62
667.912	1.54
668.096	1.65
668.281	1.56
668.465	1.61
668.649	1.56
668.834	1.58
669.018	1.6
669.202	1.58
669.387	1.5
669.571	1.63
669.755	1.54
669.939	1.55
670.124	1.47
670.308	1.57
670.492	1.56
670.676	1.54
670.86	1.51
671.044	1.45
671.228	1.57
671.413	1.46
671.597	1.42
671.781	1.46
671.965	1.52
672.149	1.46
672.333	1.42
672.517	1.46
672.701	1.39
672.885	1.48
673.069	1.32
673.253	1.44
673.437	1.41
673.621	1.38
673.804	1.37
673.988	1.45
674.172	1.37
674.356	1.3
674.54	1.38
674.724	1.45
674.908	1.4
675.091	1.35
675.275	1.32
675.459	1.44
675.643	1.32
675.826	1.38
676.01	1.37
676.194	1.35
676.377	1.36
676.561	1.36
676.745	1.36
676.928	1.36
677.112	1.38
677.296	1.27
677.479	1.25
677.663	1.3
677.846	1.33
678.03	1.28
678.213	1.26
678.397	1.29
678.58	1.25
678.764	1.22
678.947	1.21
679.131	1.24
679.314	1.3
679.498	1.19
679.681	1.23
679.865	1.29
680.048	1.23
680.231	1.21
680.415	1.19
680.598	1.16
680.781	1.15
680.965	1.18
681.148	1.18
681.331	1.18
681.514	1.22
681.698	1.14
681.881	1.17
682.064	1.17
682.247	1.15
682.43	1.04
682.614	1.12
682.797	1.22
682.98	1.2
683.163	1.11
683.346	1.1
683.529	1.11
683.712	1.1
683.895	1.13
684.078	1.04
684.261	1.1
684.444	1.12
684.627	1.15
684.81	1.03
684.993	1.04
685.176	1.15
685.359	0.98
685.542	1.06
685.725	1.14
685.908	1.1
686.091	1.03
686.274	1.13
686.457	1.06
686.639	1.01
686.822	1.07
687.005	1.06
687.188	1.02
687.371	1.16
687.553	1.08
687.736	1.04
687.919	1.12
688.102	1.08
688.284	1.02
688.467	0.99
688.65	1.02
688.832	0.94
689.015	0.92
689.197	0.92
689.38	1.06
689.563	1.06
689.745	0.91
689.928	0.94
690.11	0.98
690.293	0.96
690.475	0.87
690.658	0.95
690.84	0.95
691.023	0.92
691.205	0.87
691.388	0.93
691.57	0.99
691.752	1.01
691.935	0.78
692.117	0.83
692.3	0.91
692.482	0.93
692.664	0.84
692.847	0.85
693.029	0.98
693.211	0.97
693.393	0.89
693.576	0.82
693.758	0.88
693.94	0.91
694.122	0.91
694.304	0.85
694.487	0.88
694.669	0.95
694.851	0.82
695.033	0.84
695.215	0.84
695.397	0.82
695.579	0.81
695.761	0.76
695.943	0.75
696.125	0.92
696.308	0.86
696.49	0.74
696.671	0.95
696.853	0.81
697.035	1.09
697.217	0.76
697.399	0.92
697.581	0.72
697.763	0.8
697.945	0.72
698.127	0.75
698.309	0.89
698.491	0.88
698.672	0.79
698.854	0.84
699.036	0.83
699.218	0.77
699.399	0.82
699.581	0.84
699.763	0.78
699.945	0.72
700.126	0.75
700.308	0.8
700.49	0.76
700.671	0.67
700.853	0.68
701.035	0.72
701.216	0.76
701.398	0.68
701.579	0.65
701.761	0.79
701.943	0.69
702.124	0.63
702.306	0.73
702.487	0.89
702.669	0.72
702.85	0.67
703.031	0.62
703.213	0.86
703.394	0.81
703.576	0.7
703.757	0.81
703.938	0.7
704.12	0.88
704.301	0.69
704.483	0.6
704.664	0.77
704.845	0.77
705.026	0.69
705.208	0.6
705.389	0.69
705.57	0.69
705.751	0.73
705.933	0.7
706.114	0.76
706.295	0.73
706.476	0.6
706.657	0.71
706.838	0.69
707.02	0.74
707.201	0.63
707.382	0.59
707.563	0.6
707.744	0.61
707.925	0.64
708.106	0.56
708.287	0.61
708.468	0.67
708.649	0.61
708.83	0.66
709.011	0.61
709.192	0.69
709.373	0.59
709.554	0.61
709.734	0.71
709.915	0.66
710.096	0.64
710.277	0.53
710.458	0.66
710.639	0.67
710.819	0.53
711	0.57
711.181	0.71
711.362	0.68
711.542	0.6
711.723	0.56
711.904	0.55
712.085	0.63
712.265	0.57
712.446	0.56
712.627	0.58
712.807	0.6
712.988	0.59
713.168	0.45
713.349	0.6
713.53	0.38
713.71	0.48
713.891	0.44
714.071	0.6
714.252	0.55
714.432	0.53
714.613	0.43
714.793	0.59
714.974	0.71
715.154	0.64
715.334	0.58
715.515	0.69
715.695	0.47
715.876	0.5
716.056	0.57
716.236	0.46
716.417	0.52
716.597	0.53
716.777	0.73
716.957	0.48
717.138	0.61
717.318	0.47
717.498	0.4
717.678	0.54
717.859	0.62
718.039	0.49
718.219	0.58
718.399	0.58
718.579	0.45
718.759	0.48
718.939	0.57
719.12	0.62
719.3	0.46
719.48	0.3
719.66	0.43
719.84	0.61
720.02	0.5
720.2	0.41
720.38	0.5
720.56	0.65
720.74	0.41
720.92	0.5
721.1	0.62
721.279	0.62
721.459	0.5
721.639	0.44
721.819	0.48
721.999	0.5
722.179	0.53
722.359	0.44
722.538	0.5
722.718	0.44
722.898	0.43
723.078	0.44
723.257	0.34
723.437	0.5
723.617	0.54
723.797	0.46
723.976	0.43
724.156	0.56
724.336	0.67
724.515	0.64
724.695	0.37
724.874	0.44
725.054	0.46
725.234	0.49
725.413	0.46
725.593	0.49
725.772	0.49
725.952	0.48
726.131	0.44
726.311	0.4
726.49	0.47
726.67	0.44
726.849	0.42
727.028	0.51
727.208	0.37
727.387	0.55
727.567	0.33
727.746	0.53
727.925	0.39
728.105	0.43
728.284	0.48
728.463	0.4
728.643	0.55
728.822	0.31
729.001	0.37
729.18	0.5
729.359	0.53
729.539	0.44
729.718	0.49
729.897	0.55
730.076	0.41
730.255	0.41
730.434	0.48
730.614	0.43
730.793	0.54
730.972	0.41
731.151	0.44
731.33	0.54
731.509	0.51
731.688	0.48
731.867	0.41
732.046	0.31
732.225	0.7
732.404	0.41
732.583	0.32
732.762	0.42
732.941	0.48
733.12	0.46
733.298	0.45
733.477	0.62
733.656	0.36
733.835	0.37
734.014	0.56
734.193	0.41
734.371	0.55
734.55	0.55
734.729	0.33
734.908	0.44
735.086	0.48
735.265	0.62
735.444	0.13
735.623	0.34
735.801	0.33
735.98	0.46
736.159	0.43
736.337	0.49
736.516	0.54
736.694	0.41
736.873	0.3
737.052	0.59
737.23	0.66
737.409	0.29
737.587	0.71
737.766	0.37
737.944	0.41
738.123	0.46
738.301	0.56
738.479	0.47
738.658	0.51
738.836	0.21
739.015	0.54
739.193	0.62
739.371	0.36
739.55	0.41
739.728	0.4
739.906	0.52
740.085	0.66
740.263	0.46
740.441	0.19
740.62	0.71
740.798	0.5
740.976	0.39
741.154	0.29
741.332	0.56
741.511	0.35
741.689	0.45
741.867	0.5
742.045	0.49
742.223	0.42
742.401	0.31
742.579	0.28
742.757	0.4
742.935	0.44
743.114	0.45
743.292	0.38
743.47	0.48
743.648	0.42
743.826	0.31
744.004	0.54
744.181	0.48
744.359	0.33
744.537	0.43
744.715	0.34
744.893	0.37
745.071	0.4
745.249	0.44
745.427	0.38
745.605	0.41
745.782	0.34
745.96	0.48
746.138	0.45
746.316	0.5
746.493	0.38
746.671	0.45
746.849	0.32
747.027	0.52
747.204	0.35
747.382	0.45
747.56	0.32
747.737	0.36
747.915	0.42
748.093	0.4
748.27	0.32
748.448	0.38
748.625	0.22
748.803	0.33
748.98	0.32
749.158	0.42
749.335	0.43
749.513	0.32
749.69	0.46
749.868	0.36
750.045	0.36
750.223	0.26
750.4	0.17
750.578	0.48
750.755	0.33
750.932	0.21
751.11	0.49
751.287	0.27
751.464	0.6
751.642	0.21
751.819	0.37
751.996	0.42
752.173	0.24
752.351	0.22
752.528	0.42
752.705	0.39
752.882	0.37
753.06	0.34
753.237	0.39
753.414	0.63
753.591	0.56
753.768	0.35
753.945	0.34
754.122	0.27
754.299	0.49
754.476	0.29
754.654	0.24
754.831	0.45
755.008	0.4
755.185	0.25
755.362	0.25
755.539	0.35
755.716	0.37
755.892	0.41
756.069	0.33
756.246	0.32
756.423	0.25
756.6	0.52
756.777	0.35
756.954	0.51
757.131	0.24
757.307	0.25
757.484	0.19
757.661	0.38
757.838	0.46
758.015	0.14
758.191	0.4
758.368	0.38
758.545	0.57
758.721	0.37
758.898	0.27
759.075	0.34
759.251	0.49
759.428	0.5
759.605	0.09
759.781	0.42
759.958	0.43
760.134	0.38
760.311	0.34
760.488	0.53
760.664	0.59
760.841	0.27
761.017	0.14
761.194	0.4
761.37	0.54
761.547	0.38
761.723	0.36
761.899	0.39
762.076	0.27
762.252	0.2
762.429	0.34
762.605	0.6
762.781	0.32
762.958	0.36
763.134	0.28
763.31	0.19
763.486	0.51
763.663	0.11
763.839	0.43
764.015	0.1
764.191	0.31
764.368	0.35
764.544	0.26
764.72	0.37
764.896	0.42
765.072	0.43
765.248	0.31
765.425	0.29
765.601	0.26
765.777	0.41
765.953	0.09
766.129	0.25
766.305	0.15
766.481	0.44
766.657	0.38
766.833	0.46
767.009	0.25
767.185	0.15
767.361	0.31
767.537	0.3
767.713	0.51
767.889	0.29
768.065	0.39
768.24	0.44
768.416	0.46
768.592	0.35
768.768	0.35
768.944	0.41
769.12	0.19
769.295	0.22
769.471	0.33
769.647	0.17
769.823	0.55
769.998	0.23
770.174	0.16
770.35	0.6
770.525	0.66
770.701	0.47
770.877	0.44
771.052	0.22
771.228	0.4
771.403	0.3
771.579	0.41
771.755	0.66
771.93	0.24
772.106	0.18
772.281	0.12
772.457	0.48
772.632	0.35
772.808	0.11
772.983	0.4
773.159	0.17
773.334	0.55
773.509	0.39
773.685	0.13
773.86	0.79
774.036	0.67
774.211	0.35
774.386	0.25
774.562	0.42
774.737	0.4
774.912	0.28
775.087	0.28
775.263	0.32
775.438	0.38
775.613	0.16
775.788	0.25
775.964	0.52
776.139	0.66
776.314	0.25
776.489	0.47
776.664	0.47
776.839	0.2
777.014	0.57
777.19	0.44
777.365	0.7
777.54	0.66
777.715	0.28
777.89	0.42
778.065	0.27
778.24	0.18
778.415	0.41
778.59	0.37
778.765	0.3
778.94	0.45
779.115	0.28
779.289	0.17
779.464	0.38
779.639	0.4
779.814	0.04
779.989	0.2
780.164	0.63
780.339	0.48
780.513	0.28
780.688	0.27
780.863	0.36
781.038	0.43
781.212	0.18
781.387	0.14
781.562	0.59
781.737	0.17
781.911	0.6
782.086	0.24
782.261	0.22
782.435	0.51
782.61	0.32
782.784	0.38
782.959	0.57
783.134	0.34
783.308	0.1
783.483	0.35
783.657	0.92
783.832	0.66
784.006	-0.01
784.181	0.26
784.355	0.57
784.53	0.09
784.704	0.2
784.878	0.74
785.053	0.52
785.227	0.41
785.402	0.69
785.576	0.19
785.75	0.46
785.925	0.3
786.099	0.33
786.273	0.41
786.448	0.57
786.622	0.36
786.796	0.47
786.97	0.19
787.145	1.04
787.319	0.16
787.493	0.29
787.667	-0.27
787.841	0.44
788.015	0.75
788.19	0.31
788.364	0.36
788.538	0.72
788.712	0.46
788.886	0.32
789.06	0.63
789.234	0.7
789.408	0.18
789.582	0.38
789.756	0.34
789.93	0.13
790.104	0.43
790.278	0.36
790.452	0.35
790.626	0.45
790.8	0.21
790.973	0.53
791.147	0.6
791.321	0.46
791.495	0.65
791.669	0.55
791.843	0.46
792.016	0.68
792.19	0.92
792.364	0.13
792.538	0.86
792.711	0.71
792.885	0.17
793.059	0.24
793.233	-0.02
793.406	0.48
793.58	0.47
793.754	0.68
793.927	0.45
794.101	0.83
794.274	0.28
794.448	0.66
794.622	0.18
794.795	0.68
794.969	0.5
795.142	0.9
795.316	0.22
795.489	0.39
795.663	1.18
795.836	0.36
796.009	0.21
796.183	0.75
796.356	0.47
796.53	0.66
796.703	0.49
796.876	1.22
797.05	0.29
797.223	0.51
797.396	0.58
797.57	0.42
797.743	0.82
797.916	0.6
798.09	0.33
798.263	0.97
798.436	0.57
798.609	0.28
798.782	0.15
798.956	0.44
799.129	0.45
799.302	0.31
799.475	0.29
799.648	0.18
799.821	0.25
799.994	0.44
800.167	-0.11
800.34	0.62
800.514	0.44
800.687	0.33
800.86	0.38
801.033	0.58
801.206	0.95
801.379	-0.23
801.551	0.76
801.724	0.71
801.897	0.9
802.07	0.3
802.243	0.21
802.416	0.52
802.589	0.19
802.762	0.7
802.935	0.29
803.107	0.68
803.28	0.73
803.453	0.74
803.626	0.41
803.798	0.38
803.971	0.07
804.144	0.46
804.317	0.73
804.489	0.96
804.662	0.61
804.835	0.59
805.007	0.14
805.18	1.16
805.353	0.78
805.525	-0.03
805.698	0.28
805.87	0.93
806.043	0.72
806.215	-0.1
806.388	0.34
806.56	0.59
806.733	0.96
806.905	0.38
807.078	0.02
807.25	0.22
807.423	0.85
807.595	0.73
807.768	0.36
807.94	0.94
808.112	0.91
808.285	0.75
808.457	0.14
808.629	0.26
808.802	0.53
808.974	0.84
809.146	0.41
809.318	0.54
809.491	0.74
809.663	0.69
809.835	0.44
810.007	0.96
810.18	0.43
810.352	0.03
810.524	0.46
810.696	1.04
810.868	0.91
811.04	0.7
811.212	0.27
811.384	0.84
811.556	0.43
811.728	0.19
811.901	1.26
812.073	0.6
812.245	0.76
812.417	0.4
812.589	-0.1
812.76	0.67
812.932	0.99
813.104	0.77
813.276	0.16
813.448	0.49
813.62	0.54
813.792	0.35
813.964	0.35
814.136	1.02
814.307	0.28
814.479	0.13
814.651	0.31
814.823	1.61
814.995	0.37
815.166	0.41
815.338	0.45
815.51	0.14
815.681	1.7
815.853	0.25
816.025	0.32
816.196	1.02
816.368	0.76
816.54	0.04
816.711	0.43
816.883	1.07
817.054	1.72
817.226	-0.1
817.398	1.03
817.569	0.45
817.741	0.68
817.912	0.47
818.084	0.57
818.255	1.12
818.426	0.06
818.598	0.61
818.769	-0
818.941	0.84
819.112	1.27
819.283	0.95
819.455	0.22
819.626	0.61
819.798	0.78
819.969	0.67
820.14	0.25
820.311	0.74
820.483	1.01
820.654	0.62
820.825	0.59
820.996	0.75
821.168	0.28
821.339	0.53
821.51	0.23
821.681	0.08
821.852	0.81
822.023	0.35
822.195	0.13
822.366	1.14
822.537	0.61
822.708	0.54
822.879	0.31
823.05	1.66
823.221	0.64
823.392	0.87
823.563	0.82
823.734	0.92
823.905	0.79
824.076	0.13
824.247	0.5
824.418	0.21
824.589	0.83
824.759	0.49
824.93	0.86
825.101	0.5
825.272	1.52
825.443	1.04
825.614	0.91
825.784	0.24
825.955	2.25
826.126	1.45
826.297	1.01
826.467	1.95
826.638	1.9
826.809	0.02
826.98	0.47
827.15	1.39
827.321	1.2
827.492	1.51
827.662	0.43
827.833	1.7
828.003	2.24
828.174	-0.09
828.345	0.22
828.515	1.41
828.686	0.74
828.856	0.69
829.027	0.58
829.197	1.23
829.368	1.01
829.538	0.36
829.709	0.21
829.879	0.68
830.049	0.48
830.22	0.5
830.39	-0.09
830.56	1.54
830.731	0.5
830.901	-0.01
831.072	0.78
831.242	1.13
831.412	1.11
831.582	0.62
831.753	-0.1
831.923	1.48
832.093	1.16
832.263	0.38
832.434	0.06
832.604	0.61
832.774	1
832.944	0.85
833.114	0.1
833.284	1.35
833.454	0.1
833.624	0.02
833.795	0.43
833.965	1.76
834.135	1.36
834.305	-0.14
834.475	-0.13
834.645	0.32
834.815	0.27
834.985	0.04
835.155	-0.03
835.325	1.24
835.494	1.51
835.664	0.65
835.834	0.69
836.004	1.51
836.174	1.33
836.344	0.56
836.514	-0.63
836.684	0.52
836.853	0.99
837.023	0.67
837.193	0.09
837.363	1.41
837.532	1.27
837.702	0.85
837.872	0.51
838.041	1.08
838.211	2.49
838.381	-0.29
838.55	1.1
838.72	2.85
838.89	1.77
839.059	1.29
839.229	-0.15
839.398	3.04
839.568	1.23
839.738	0.95
839.907	1.8
840.077	1.12
840.246	0.43
840.416	0.58
840.585	0.74
840.755	2.08
840.924	2.01
841.093	0.29
841.263	0.59
841.432	1.02
841.602	0.16
841.771	0.48
841.94	0.84
842.11	2.98
842.279	2.83
842.448	0.03
842.617	0.76
842.787	3.3
842.956	0.86
843.125	1.14
843.294	1.04
843.464	2.23
843.633	2
843.802	0.97
843.971	1.11
844.14	1.13
844.309	1.74
844.479	-0.38
844.648	0.47
844.817	1.07
844.986	1.38
845.155	0.97
845.324	0.27
845.493	0.32
845.662	0.57
845.831	1.47
846	0.93
846.169	1.49
846.338	3.05
846.507	1.53
846.676	1.86
846.844	-0.26
847.013	2.13
847.182	0.49
847.351	0.17
847.52	1.61
847.689	1.16
847.858	0.98
848.026	0.71
848.195	0.66
848.364	0.43
848.533	0.51
848.701	-0.55
848.87	1.68
849.039	1.96
849.207	2
849.376	2.36
849.545	2.55
849.713	0.65
849.882	0.1
850.051	0.47
850.219	1.04
850.388	2.26
850.556	-0.09
850.725	0.99
850.893	1.51
851.062	1.2
851.23	1.37
851.399	-0.3
851.567	0.91
851.736	1.03
851.904	0.52
852.073	1.11
852.241	2.54
852.41	1.29
852.578	0.03
852.746	-0.23
852.915	2.47
853.083	1.92
853.251	0.71
853.42	0.52
853.588	1.59
853.756	2.01
853.924	0.97
854.093	1.29
854.261	0.96
854.429	-0.23
854.597	1.24
854.765	0.64
854.934	1.73
855.102	2.95
855.27	1.88
855.438	1.73
855.606	3.27
855.774	3.42
855.942	-0.43
856.11	-0.49
856.278	1.72
856.446	1.79
856.614	1.11
856.782	-0.02
856.95	1.79
857.118	2.11
857.286	1.13
857.454	0.12
857.622	2.74
857.79	1.5
857.958	-0.74
858.126	0.3
858.294	-1.01
858.462	0.93
858.629	0.68
858.797	-0.04
858.965	1.63
859.133	1.41
859.301	2.4
859.468	2.55
859.636	1.4
859.804	3.77
859.971	2.37
860.139	0.88
860.307	2.29
860.474	1.33
860.642	0.12
860.81	0.28
860.977	0.66
861.145	3.24
861.313	1.32
861.48	0.72
861.648	3.23
861.815	0.98
861.983	0.64
862.15	0.12
862.318	2.28
862.485	2.58
862.653	1.42
862.82	-0.39
862.988	3.51
863.155	2.95
863.322	1.03
863.49	-0.82
863.657	-0.1
863.824	3.32
863.992	1.4
864.159	2.14
864.326	4.32
864.494	1
864.661	4.27
864.828	0.59
864.996	3.3
865.163	3.15
865.33	-0.3
865.497	0.27
865.664	0.44
865.832	0.17
865.999	1.6
866.166	0.14
866.333	0.46
866.5	1.18
866.667	1.61
866.834	1.67
867.001	3.69
867.168	0.63
867.335	2.16
867.502	-0.11
867.669	1.95
867.836	3.58
868.003	0.87
868.17	2.81
868.337	0.89
868.504	5.32
868.671	0.86
868.838	0.41
869.005	0.95
869.172	2.44
869.339	2.08
869.505	0.64
869.672	2.06
869.839	2.72
870.006	1.77
870.173	-0.68
870.339	2.33
870.506	2.85
870.673	1.08
870.84	2.5
871.006	2.69
871.173	2.56
871.34	2.47
871.506	0.28
871.673	1.81
871.839	0.24
872.006	1.63
872.173	1.23
872.339	0.88
872.506	3.06
872.672	1.82
872.839	-0.44
873.005	3.39
873.172	2.98
873.338	3.86
873.505	1.6
873.671	2.42
873.838	2.5
874.004	-1.42
874.171	0.74
874.337	3.01
874.503	2.9
874.67	-0.16
874.836	1.3
875.002	4.59
875.169	4.3
875.335	2.91
875.501	0.94
875.668	4.36
875.834	1.07
876	0.72
876.166	2.44
876.332	5.11
876.499	4
876.665	2.15
876.831	1.91
876.997	5.15
877.163	3.63
877.329	2.35
877.495	1.35
877.662	3.45
877.828	2.45
877.994	1.47
878.16	-1.04
878.326	1.75
878.492	4.14
878.658	1.01
878.824	3.35
878.99	1.68
879.156	0.03
879.322	2.46
879.487	2.12
879.653	2.25
879.819	3.37
879.985	0.96
880.151	3.89
880.317	3.99
880.483	1.64
880.648	3.39
880.814	-1.22
880.98	2.92
881.146	-0.98
881.312	-0.55
881.477	0.61
881.643	2.36
881.809	2.38
881.974	3.32
882.14	-1.32
882.306	1.03
882.471	5.94
882.637	0.88
882.803	2.18
882.968	4.35
883.134	4.5
883.299	2.07
883.465	2.55
883.63	3.2
883.796	2.75
883.961	3.66
884.127	1.82
884.292	-3.07
884.458	0.82
884.623	0.82
