Data from Apollo_Calib_20240827__AbsoluteIrradiance__737__11-26-03-082.txt Node

Date: Wed Aug 28 11:26:03 BST 2024
User: biology
Spectrometer: FLMT08252
Trigger mode: 0
Integration Time (sec): 5.000000E-1
Scans to average: 5
Electric dark correction enabled: true
Nonlinearity correction enabled: false
Boxcar width: 0
XAxis mode: Wavelengths
Number of Pixels in Spectrum: 3648
>>>>>Begin Spectral Data<<<<<
179.588	-0
179.809	-0
180.03	-0
180.251	-0
180.473	-0
180.694	0
180.915	0
181.136	-0
181.357	0
181.578	0
181.799	0
182.02	-0
182.241	0
182.462	-0
182.683	0
182.904	-0
183.125	-0
183.346	0
183.567	0
183.788	0
184.009	0
184.23	0
184.451	0
184.672	0
184.892	0
185.113	0
185.334	0
185.555	0
185.776	0
185.996	0
186.217	0
186.438	0
186.659	0
186.879	0
187.1	0
187.321	0
187.541	0
187.762	0
187.983	0
188.203	0
188.424	0
188.644	0
188.865	0
189.086	0
189.306	0
189.527	0
189.747	0
189.968	0
190.188	0
190.409	0
190.629	0
190.849	0
191.07	0
191.29	0
191.511	0
191.731	0
191.951	0
192.172	0
192.392	0
192.612	0
192.833	0
193.053	0
193.273	0
193.493	0
193.714	0
193.934	0
194.154	0
194.374	0
194.594	0
194.815	0
195.035	0
195.255	0
195.475	0
195.695	0
195.915	0
196.135	0
196.355	0
196.575	0
196.795	0
197.015	0
197.235	0
197.455	0
197.675	0
197.895	0
198.115	0
198.335	0
198.555	0
198.775	0
198.995	0
199.214	0
199.434	0
199.654	0
199.874	0
200.094	2.38
200.313	1.2
200.533	0.89
200.753	0.56
200.973	2.71
201.192	2
201.412	0.43
201.632	0.99
201.851	2.47
202.071	0.56
202.291	0.97
202.51	0.84
202.73	1.92
202.95	0.99
203.169	0.34
203.389	1.02
203.608	1.56
203.828	0.56
204.047	0.56
204.267	1.19
204.486	1.01
204.706	1.1
204.925	0.71
205.145	0.76
205.364	1.33
205.583	1.17
205.803	0.66
206.022	0.03
206.242	0.58
206.461	0.97
206.68	0.38
206.9	0.94
207.119	1.5
207.338	1.59
207.557	0.39
207.777	0.68
207.996	0.72
208.215	1.16
208.434	0.5
208.654	0.17
208.873	0.68
209.092	1.28
209.311	0.62
209.53	0.85
209.749	0.51
209.968	0.71
210.187	0.56
210.407	0.28
210.626	0.58
210.845	0.8
211.064	0.51
211.283	0.39
211.502	0.87
211.721	0.46
211.94	0.46
212.159	0.95
212.377	0.95
212.596	1.14
212.815	0.49
213.034	0.54
213.253	0.68
213.472	0.76
213.691	0.27
213.91	0.22
214.128	0.46
214.347	1.13
214.566	0.11
214.785	0.36
215.003	0.67
215.222	0.62
215.441	0.47
215.66	0.14
215.878	0.47
216.097	0.83
216.316	0.22
216.534	0.4
216.753	0.69
216.972	0.48
217.19	0.31
217.409	0.34
217.627	0.39
217.846	0.44
218.064	0.46
218.283	0.18
218.501	0.75
218.72	0.59
218.938	0.22
219.157	0.3
219.375	0.55
219.594	0.59
219.812	0.26
220.031	0.3
220.249	0.69
220.467	0.79
220.686	0.3
220.904	0.05
221.122	0.34
221.341	0.78
221.559	0.51
221.777	0.24
221.995	0.45
222.214	0.64
222.432	0.46
222.65	0.57
222.868	0.51
223.086	0.5
223.305	0.44
223.523	0.4
223.741	0.64
223.959	0.28
224.177	0.34
224.395	0.26
224.613	0.52
224.831	0.47
225.049	0.34
225.267	0.34
225.485	0.54
225.703	0.41
225.921	0.35
226.139	0.27
226.357	0.63
226.575	0.51
226.793	0.11
227.011	1.04
227.229	0.38
227.447	0.61
227.665	0.37
227.883	0.08
228.1	0.33
228.318	0.41
228.536	0.15
228.754	0.15
228.972	0.46
229.189	0.38
229.407	0.22
229.625	0.24
229.843	0.53
230.06	0.43
230.278	0.33
230.496	0.37
230.713	0.39
230.931	0.52
231.149	0.14
231.366	0.03
231.584	0.32
231.801	0.57
232.019	0.31
232.236	0.11
232.454	0.25
232.671	0.29
232.889	0.28
233.106	0.07
233.324	0.28
233.541	0.28
233.759	0.26
233.976	0.15
234.194	0.3
234.411	0.26
234.628	0.31
234.846	0.18
235.063	0.38
235.28	0.27
235.498	0.26
235.715	0.17
235.932	0.48
236.149	0.34
236.367	0.2
236.584	0.34
236.801	0.15
237.018	0.43
237.236	0.19
237.453	0.09
237.67	0.43
237.887	0.2
238.104	0.17
238.321	0.19
238.538	0.12
238.755	0.46
238.973	-0
239.19	0.23
239.407	0.31
239.624	0.37
239.841	0.14
240.058	0.12
240.275	0.25
240.492	0.23
240.709	0.26
240.925	0.16
241.142	0.22
241.359	0.05
241.576	0.16
241.793	0.15
242.01	0.28
242.227	0.37
242.444	0.24
242.66	0.41
242.877	0.26
243.094	0.17
243.311	0.35
243.527	0.19
243.744	0.22
243.961	0.29
244.178	0.06
244.394	0.28
244.611	0.34
244.828	0.44
245.044	0.06
245.261	0.13
245.477	0.26
245.694	0.27
245.911	0.13
246.127	0.25
246.344	0.44
246.56	0.27
246.777	0.21
246.993	0.22
247.21	0.26
247.426	0.26
247.643	0.17
247.859	0.16
248.076	0.2
248.292	0.47
248.508	0.17
248.725	0.26
248.941	0.3
249.157	0.26
249.374	0.19
249.59	0.21
249.806	0.2
250.023	0.37
250.239	0.16
250.455	0.18
250.671	0.2
250.888	0.24
251.104	0.29
251.32	0.23
251.536	0.12
251.752	0.19
251.969	0.22
252.185	0.23
252.401	0.43
252.617	0.33
252.833	0.2
253.049	0.23
253.265	0.29
253.481	0.26
253.697	0.18
253.913	0.17
254.129	0.23
254.345	0.2
254.561	0.18
254.777	0.2
254.993	0.26
255.209	0.25
255.425	0.17
255.641	0.06
255.857	0.33
256.073	0.25
256.288	0.13
256.504	0.11
256.72	0.26
256.936	0.35
257.152	0.18
257.367	0.09
257.583	0.2
257.799	0.25
258.015	0.17
258.23	0.15
258.446	0.38
258.662	0.23
258.877	0.17
259.093	0.13
259.309	0.21
259.524	0.25
259.74	0.15
259.955	0.08
260.171	0.17
260.387	0.24
260.602	0.3
260.818	0.26
261.033	0.18
261.249	0.16
261.464	0.15
261.68	0.09
261.895	0.2
262.11	0.23
262.326	0.11
262.541	0.1
262.757	0.23
262.972	0.23
263.187	0.16
263.403	0.17
263.618	0.23
263.833	0.17
264.049	0.09
264.264	0.21
264.479	0.18
264.694	0.33
264.91	0.1
265.125	0.18
265.34	0.24
265.555	0.4
265.77	0.21
265.986	0.1
266.201	0.26
266.416	0.29
266.631	0.13
266.846	0.18
267.061	0.24
267.276	0.22
267.491	0.01
267.706	0.26
267.921	0.21
268.136	0.23
268.351	0.13
268.566	0.08
268.781	0.24
268.996	0.25
269.211	0.21
269.426	0.11
269.641	0.15
269.856	0.19
270.071	0.15
270.285	0.07
270.5	0.17
270.715	0.26
270.93	0.15
271.145	0.3
271.359	0.27
271.574	0.17
271.789	0.21
272.004	0.07
272.218	0.15
272.433	0.27
272.648	0.06
272.862	0.26
273.077	0.13
273.292	0.25
273.506	0.05
273.721	0.15
273.936	0.23
274.15	0.22
274.365	0.12
274.579	0.19
274.794	0.2
275.008	0.26
275.223	0.08
275.437	0.17
275.652	0.26
275.866	0.22
276.081	0.13
276.295	0.27
276.509	0.17
276.724	0.21
276.938	0.18
277.153	0.18
277.367	0.23
277.581	0.11
277.796	0.19
278.01	0.07
278.224	0.19
278.438	0.29
278.653	0.13
278.867	0.16
279.081	0.18
279.295	0.14
279.51	0.15
279.724	0.08
279.938	0.22
280.152	0.16
280.366	0.13
280.58	0.12
280.794	0.28
281.008	0.19
281.222	0.22
281.437	0.24
281.651	0.18
281.865	0.24
282.079	0.13
282.293	0.06
282.507	0.07
282.721	0.21
282.935	0.12
283.148	0.11
283.362	0.15
283.576	0.11
283.79	0.21
284.004	0.12
284.218	0.24
284.432	0.12
284.646	0.13
284.859	0.04
285.073	0.15
285.287	0.16
285.501	0.18
285.714	0.08
285.928	0.15
286.142	0.13
286.356	0.16
286.569	0.15
286.783	0.23
286.997	0.26
287.21	0.2
287.424	0.14
287.637	0.18
287.851	0.11
288.065	0.17
288.278	0.16
288.492	0.14
288.705	0.14
288.919	0.19
289.132	0.07
289.346	0.24
289.559	0.03
289.773	0.1
289.986	0.17
290.2	0.14
290.413	0.19
290.626	0.08
290.84	0.11
291.053	0.17
291.267	0.19
291.48	0.12
291.693	0.15
291.906	0.06
292.12	0.18
292.333	0.09
292.546	0.15
292.76	0.2
292.973	0.16
293.186	0.17
293.399	0.1
293.612	0.22
293.826	0.1
294.039	0.14
294.252	0.11
294.465	0.23
294.678	0.18
294.891	0.14
295.104	0.05
295.317	0.12
295.53	0.18
295.743	0.13
295.956	0.12
296.169	0.25
296.382	0.21
296.595	0.09
296.808	0.07
297.021	0.24
297.234	0.17
297.447	0.18
297.66	0.14
297.873	0.17
298.086	0.2
298.299	0.08
298.511	0.09
298.724	0.14
298.937	0.11
299.15	0.1
299.363	0.14
299.575	0.17
299.788	0.19
300.001	0.12
300.213	0.13
300.426	0.12
300.639	0.12
300.852	0.11
301.064	0.18
301.277	0.22
301.489	0.17
301.702	0.16
301.915	0.15
302.127	0.12
302.34	0.16
302.552	0.18
302.765	0.07
302.977	0.18
303.19	0.11
303.402	0.13
303.615	0.12
303.827	0.14
304.04	0.13
304.252	0.17
304.464	0.1
304.677	0.23
304.889	0.2
305.102	0.09
305.314	0.1
305.526	0.17
305.739	0.21
305.951	0.11
306.163	0.11
306.375	0.24
306.588	0.12
306.8	0.08
307.012	0.07
307.224	0.16
307.436	0.19
307.649	0.08
307.861	0.12
308.073	0.18
308.285	0.1
308.497	0.11
308.709	0.08
308.921	0.13
309.133	0.19
309.346	0.14
309.558	0.1
309.77	0.17
309.982	0.18
310.194	0.15
310.406	0.1
310.617	0.19
310.829	0.15
311.041	0.18
311.253	0.14
311.465	0.12
311.677	0.15
311.889	0.18
312.101	0.08
312.313	0.2
312.524	0.15
312.736	0.08
312.948	0.12
313.16	0.19
313.372	0.17
313.583	0.15
313.795	0.1
314.007	0.1
314.218	0.21
314.43	0.12
314.642	0.08
314.853	0.04
315.065	0.14
315.277	0.11
315.488	0.14
315.7	0.21
315.912	0.18
316.123	0.12
316.335	0.14
316.546	0.28
316.758	0.14
316.969	0.1
317.181	0.18
317.392	0.13
317.604	0.2
317.815	0.06
318.026	0.09
318.238	0.14
318.449	0.17
318.661	0.09
318.872	0.08
319.083	0.06
319.295	0.18
319.506	0.11
319.717	0.13
319.929	0.17
320.14	0.13
320.351	0.13
320.562	0.09
320.774	0.15
320.985	0.19
321.196	0.1
321.407	0.06
321.618	0.18
321.829	0.16
322.041	0.18
322.252	0.14
322.463	0.17
322.674	0.19
322.885	0.11
323.096	0.04
323.307	0.17
323.518	0.18
323.729	0.12
323.94	0.1
324.151	0.11
324.362	0.17
324.573	0.15
324.784	0.09
324.995	0.22
325.206	0.18
325.417	0.12
325.628	0.12
325.838	0.12
326.049	0.14
326.26	0.19
326.471	0.12
326.682	0.15
326.892	0.17
327.103	0.09
327.314	0.06
327.525	0.19
327.735	0.17
327.946	0.13
328.157	0.11
328.368	0.19
328.578	0.13
328.789	0.15
328.999	0.16
329.21	0.11
329.421	0.21
329.631	0.06
329.842	0.11
330.052	0.15
330.263	0.18
330.473	0.18
330.684	0.12
330.894	0.14
331.105	0.18
331.315	0.13
331.526	0.1
331.736	0.23
331.947	0.1
332.157	0.13
332.367	0.08
332.578	0.16
332.788	0.2
332.999	0.17
333.209	0.12
333.419	0.05
333.629	0.17
333.84	0.13
334.05	0.08
334.26	0.17
334.47	0.18
334.681	0.18
334.891	0.1
335.101	0.14
335.311	0.2
335.521	0.1
335.732	0.06
335.942	0.19
336.152	0.15
336.362	0.11
336.572	0.16
336.782	0.18
336.992	0.15
337.202	0.16
337.412	0.12
337.622	0.15
337.832	0.15
338.042	0.15
338.252	0.1
338.462	0.12
338.672	0.14
338.882	0.08
339.092	0.1
339.302	0.2
339.511	0.15
339.721	0.15
339.931	0.07
340.141	0.21
340.351	0.21
340.561	0.16
340.77	0.12
340.98	0.14
341.19	0.17
341.4	0.06
341.609	0.11
341.819	0.14
342.029	0.04
342.238	0.16
342.448	0.1
342.658	0.16
342.867	0.12
343.077	0.15
343.286	0.12
343.496	0.15
343.706	0.23
343.915	0.12
344.125	0.12
344.334	0.15
344.544	0.03
344.753	0.12
344.963	0.1
345.172	0.08
345.381	0.11
345.591	0.08
345.8	0.14
346.01	0.21
346.219	0.18
346.428	0.01
346.638	0.14
346.847	0.14
347.056	0.22
347.266	0.09
347.475	0.11
347.684	0.22
347.893	0.21
348.103	0.17
348.312	0.11
348.521	0.12
348.73	0.13
348.94	0.17
349.149	0.12
349.358	0.06
349.567	0.1
349.776	0.08
349.985	0.1
350.194	0.18
350.403	0.21
350.612	0.07
350.821	0.09
351.03	0.16
351.239	0.1
351.448	0.15
351.657	0.05
351.866	0.23
352.075	0.14
352.284	0.16
352.493	0.06
352.702	0.21
352.911	0.17
353.12	0.14
353.329	0.09
353.538	0.13
353.746	0.13
353.955	0.12
354.164	0.15
354.373	0.14
354.582	0.19
354.79	0.13
354.999	0.15
355.208	0.13
355.416	0.21
355.625	0.08
355.834	0.11
356.042	0.15
356.251	0.11
356.46	0.08
356.668	0.15
356.877	0.18
357.085	0.18
357.294	0.05
357.503	0.18
357.711	0.13
357.92	0.24
358.128	0.13
358.337	0.08
358.545	0.12
358.754	0.07
358.962	0.14
359.17	0.13
359.379	0.16
359.587	0.18
359.796	0.13
360.004	0.18
360.212	0.2
360.421	0.18
360.629	0.14
360.837	0.14
361.046	0.17
361.254	0.24
361.462	0.13
361.67	0.13
361.879	0.17
362.087	0.18
362.295	0.16
362.503	0.12
362.711	0.07
362.92	0.11
363.128	0.13
363.336	0.13
363.544	0.11
363.752	0.16
363.96	0.11
364.168	0.09
364.376	0.13
364.584	0.18
364.792	0.15
365	0.18
365.208	0.13
365.416	0.16
365.624	0.18
365.832	0.11
366.04	0.19
366.248	0.13
366.456	0.12
366.664	0.14
366.872	0.13
367.079	0.12
367.287	0.18
367.495	0.14
367.703	0.11
367.911	0.13
368.118	0.15
368.326	0.09
368.534	0.1
368.742	0.21
368.949	0.1
369.157	0.09
369.365	0.18
369.572	0.1
369.78	0.09
369.988	0.19
370.195	0.13
370.403	0.15
370.61	0.11
370.818	0.13
371.026	0.17
371.233	0.15
371.441	0.14
371.648	0.12
371.856	0.14
372.063	0.16
372.271	0.12
372.478	0.13
372.685	0.1
372.893	0.15
373.1	0.14
373.308	0.12
373.515	0.24
373.722	0.15
373.93	0.14
374.137	0.15
374.344	0.2
374.552	0.12
374.759	0.16
374.966	0.15
375.173	0.11
375.381	0.23
375.588	0.14
375.795	0.07
376.002	0.12
376.209	0.07
376.417	0.1
376.624	0.14
376.831	0.14
377.038	0.13
377.245	0.03
377.452	0.15
377.659	0.13
377.866	0.09
378.073	0.11
378.28	0.16
378.487	0.18
378.694	0.17
378.901	0.11
379.108	0.11
379.315	0.16
379.522	0.24
379.729	0.15
379.936	0.1
380.143	0.17
380.35	0.14
380.557	0.12
380.763	0.16
380.97	0.15
381.177	0.17
381.384	0.14
381.591	0.15
381.797	0.16
382.004	0.15
382.211	0.17
382.418	0.06
382.624	0.21
382.831	0.18
383.038	0.08
383.244	0.14
383.451	0.1
383.658	0.16
383.864	0.15
384.071	0.11
384.277	0.25
384.484	0.16
384.69	0.17
384.897	0.15
385.103	0.12
385.31	0.07
385.516	0.1
385.723	0.11
385.929	0.14
386.136	0.11
386.342	0.13
386.549	0.11
386.755	0.21
386.961	0.15
387.168	0.09
387.374	0.16
387.58	0.19
387.787	0.13
387.993	0.18
388.199	0.14
388.406	0.11
388.612	0.13
388.818	0.13
389.024	0.09
389.231	0.16
389.437	0.22
389.643	0.18
389.849	0.17
390.055	0.18
390.261	0.18
390.467	0.16
390.674	0.09
390.88	0.13
391.086	0.18
391.292	0.08
391.498	0.17
391.704	0.2
391.91	0.16
392.116	0.13
392.322	0.09
392.528	0.19
392.734	0.15
392.94	0.18
393.146	0.17
393.352	0.18
393.557	0.13
393.763	0.15
393.969	0.19
394.175	0.15
394.381	0.18
394.587	0.14
394.792	0.14
394.998	0.2
395.204	0.21
395.41	0.12
395.615	0.16
395.821	0.22
396.027	0.17
396.233	0.16
396.438	0.22
396.644	0.21
396.85	0.2
397.055	0.16
397.261	0.16
397.466	0.16
397.672	0.2
397.878	0.22
398.083	0.19
398.289	0.13
398.494	0.19
398.7	0.2
398.905	0.11
399.111	0.26
399.316	0.12
399.522	0.15
399.727	0.19
399.932	0.17
400.138	0.13
400.343	0.19
400.549	0.19
400.754	0.22
400.959	0.22
401.165	0.15
401.37	0.2
401.575	0.21
401.78	0.18
401.986	0.19
402.191	0.16
402.396	0.2
402.601	0.25
402.807	0.2
403.012	0.21
403.217	0.26
403.422	0.25
403.627	0.18
403.832	0.19
404.037	0.27
404.243	0.27
404.448	0.19
404.653	0.26
404.858	0.23
405.063	0.28
405.268	0.17
405.473	0.15
405.678	0.21
405.883	0.39
406.088	0.24
406.293	0.15
406.498	0.21
406.703	0.27
406.907	0.23
407.112	0.2
407.317	0.27
407.522	0.32
407.727	0.2
407.932	0.26
408.136	0.38
408.341	0.25
408.546	0.31
408.751	0.31
408.956	0.27
409.16	0.32
409.365	0.29
409.57	0.3
409.774	0.33
409.979	0.35
410.184	0.34
410.388	0.32
410.593	0.39
410.798	0.33
411.002	0.37
411.207	0.39
411.411	0.4
411.616	0.36
411.82	0.37
412.025	0.45
412.229	0.44
412.434	0.44
412.638	0.46
412.843	0.42
413.047	0.45
413.252	0.43
413.456	0.49
413.66	0.51
413.865	0.48
414.069	0.65
414.273	0.51
414.478	0.51
414.682	0.53
414.886	0.6
415.091	0.48
415.295	0.59
415.499	0.66
415.703	0.64
415.908	0.71
416.112	0.61
416.316	0.77
416.52	0.72
416.724	0.73
416.929	0.8
417.133	0.96
417.337	0.88
417.541	0.83
417.745	0.82
417.949	0.89
418.153	1.01
418.357	0.9
418.561	1.13
418.765	1.02
418.969	1.22
419.173	1.18
419.377	1.11
419.581	1.25
419.785	1.22
419.989	1.24
420.193	1.3
420.397	1.32
420.601	1.47
420.804	1.53
421.008	1.49
421.212	1.56
421.416	1.65
421.62	1.52
421.823	1.6
422.027	1.72
422.231	1.7
422.435	1.7
422.638	1.79
422.842	1.76
423.046	1.79
423.249	1.95
423.453	1.94
423.657	1.98
423.86	2.06
424.064	2.13
424.268	2.23
424.471	2.15
424.675	2.39
424.878	2.32
425.082	2.33
425.285	2.59
425.489	2.48
425.692	2.54
425.896	2.51
426.099	2.63
426.303	2.71
426.506	2.81
426.71	2.9
426.913	3.08
427.116	3.13
427.32	3.11
427.523	3.13
427.726	3.33
427.93	3.26
428.133	3.52
428.336	3.53
428.54	3.66
428.743	3.8
428.946	3.87
429.149	3.84
429.353	3.85
429.556	3.9
429.759	3.93
429.962	3.85
430.165	4.16
430.368	3.88
430.571	3.94
430.775	3.92
430.978	3.94
431.181	3.98
431.384	4.03
431.587	4.04
431.79	4.25
431.993	4.15
432.196	4.32
432.399	4.54
432.602	4.67
432.805	4.62
433.008	4.9
433.211	4.82
433.414	5.06
433.616	5.09
433.819	5.01
434.022	5.04
434.225	5.26
434.428	5.18
434.631	5.49
434.833	5.36
435.036	5.48
435.239	5.55
435.442	5.66
435.645	5.67
435.847	5.72
436.05	5.91
436.253	6.06
436.455	6.03
436.658	6.03
436.861	6.21
437.063	6.2
437.266	6.13
437.468	6.34
437.671	6.6
437.874	6.62
438.076	6.46
438.279	6.78
438.481	6.79
438.684	7.13
438.886	6.94
439.089	7.16
439.291	7.14
439.494	7.39
439.696	7.44
439.899	7.77
440.101	7.97
440.303	8.02
440.506	8.41
440.708	8.35
440.91	8.51
441.113	8.64
441.315	8.76
441.517	8.69
441.72	9
441.922	8.75
442.124	8.68
442.326	9.03
442.529	9.2
442.731	9.28
442.933	9.38
443.135	9.27
443.337	9.2
443.539	9.53
443.742	9.32
443.944	9.69
444.146	9.55
444.348	9.69
444.55	9.56
444.752	9.65
444.954	9.64
445.156	9.82
445.358	9.96
445.56	10.14
445.762	10.1
445.964	10.2
446.166	10.2
446.368	10.12
446.57	10.19
446.772	9.97
446.974	9.78
447.175	10.04
447.377	9.88
447.579	10.12
447.781	9.99
447.983	10.03
448.184	9.64
448.386	9.92
448.588	9.63
448.79	9.66
448.991	9.68
449.193	9.76
449.395	9.41
449.597	9.13
449.798	9.21
450	8.94
450.202	8.97
450.403	8.92
450.605	8.79
450.806	8.65
451.008	8.51
451.21	8.44
451.411	8.17
451.613	7.74
451.814	7.93
452.016	7.89
452.217	7.42
452.419	7.51
452.62	7.26
452.821	7.17
453.023	7.13
453.224	6.98
453.426	6.59
453.627	6.21
453.828	6.31
454.03	6.35
454.231	6.25
454.432	6.13
454.634	6.16
454.835	5.81
455.036	5.78
455.238	5.72
455.439	5.48
455.64	5.26
455.841	5.14
456.042	5.25
456.244	5.12
456.445	4.83
456.646	4.68
456.847	4.66
457.048	4.59
457.249	4.65
457.45	4.67
457.651	4.28
457.852	4.13
458.054	3.91
458.255	3.93
458.456	4.11
458.657	3.88
458.858	3.66
459.058	3.6
459.259	3.69
459.46	3.54
459.661	3.44
459.862	3.46
460.063	3.34
460.264	3.43
460.465	3.29
460.666	3.36
460.866	3.06
461.067	2.96
461.268	3.06
461.469	2.96
461.67	2.94
461.87	2.85
462.071	2.82
462.272	2.74
462.473	2.81
462.673	2.83
462.874	2.8
463.075	2.75
463.275	2.73
463.476	2.78
463.676	2.82
463.877	2.66
464.078	2.67
464.278	2.68
464.479	2.71
464.679	2.56
464.88	2.57
465.08	2.51
465.281	2.44
465.481	2.37
465.682	2.21
465.882	2.24
466.083	2.24
466.283	2.18
466.483	2.14
466.684	2.01
466.884	1.99
467.085	2
467.285	1.99
467.485	1.95
467.686	1.94
467.886	1.78
468.086	1.85
468.286	1.79
468.487	1.86
468.687	1.69
468.887	1.69
469.087	1.81
469.287	1.71
469.488	1.62
469.688	1.71
469.888	1.77
470.088	1.71
470.288	1.67
470.488	1.63
470.688	1.51
470.888	1.51
471.088	1.37
471.288	1.49
471.488	1.49
471.688	1.47
471.888	1.42
472.088	1.52
472.288	1.45
472.488	1.37
472.688	1.36
472.888	1.39
473.088	1.39
473.288	1.31
473.488	1.24
473.688	1.42
473.887	1.31
474.087	1.27
474.287	1.3
474.487	1.24
474.687	1.25
474.886	1.22
475.086	1.21
475.286	1.19
475.486	1.16
475.685	1.15
475.885	1.16
476.085	1.17
476.284	1.17
476.484	1.15
476.684	1.18
476.883	1.24
477.083	1.12
477.282	1.07
477.482	1.12
477.681	1.14
477.881	1.12
478.08	1.07
478.28	1.03
478.479	1.13
478.679	1.16
478.878	1.08
479.078	1.05
479.277	1.11
479.477	1.06
479.676	1.1
479.875	1.05
480.075	1.03
480.274	1.07
480.473	1.11
480.673	1.01
480.872	1.11
481.071	1.09
481.271	1.1
481.47	1.04
481.669	1.05
481.868	1.02
482.067	1.03
482.267	1
482.466	1.02
482.665	0.99
482.864	0.99
483.063	1.01
483.262	1.06
483.461	1.09
483.661	1.1
483.86	1.02
484.059	1.1
484.258	1.06
484.457	1.03
484.656	1.07
484.855	1.13
485.054	0.98
485.253	1.02
485.452	1
485.651	1.11
485.849	1.05
486.048	1.04
486.247	1.03
486.446	1.11
486.645	1.05
486.844	1.1
487.043	1.04
487.241	1.1
487.44	1.06
487.639	1.09
487.838	1.11
488.037	1.11
488.235	1.19
488.434	1.12
488.633	1.05
488.831	1.19
489.03	1.16
489.229	1.16
489.427	1.18
489.626	1.21
489.825	1.2
490.023	1.2
490.222	1.19
490.42	1.25
490.619	1.22
490.817	1.24
491.016	1.25
491.214	1.29
491.413	1.28
491.611	1.25
491.81	1.25
492.008	1.33
492.207	1.35
492.405	1.32
492.604	1.3
492.802	1.37
493	1.39
493.199	1.41
493.397	1.41
493.595	1.46
493.794	1.4
493.992	1.53
494.19	1.48
494.388	1.51
494.587	1.47
494.785	1.47
494.983	1.44
495.181	1.54
495.379	1.57
495.578	1.58
495.776	1.59
495.974	1.58
496.172	1.58
496.37	1.64
496.568	1.63
496.766	1.64
496.964	1.69
497.162	1.74
497.36	1.69
497.558	1.75
497.756	1.78
497.954	1.78
498.152	1.82
498.35	1.86
498.548	1.8
498.746	1.85
498.944	1.78
499.142	1.88
499.34	1.89
499.538	1.99
499.736	1.9
499.933	1.98
500.131	1.98
500.329	2.02
500.527	2.06
500.725	2.08
500.922	2.1
501.12	2.1
501.318	2.16
501.516	2.15
501.713	2.19
501.911	2.16
502.109	2.12
502.306	2.23
502.504	2.19
502.701	2.24
502.899	2.28
503.097	2.43
503.294	2.33
503.492	2.35
503.689	2.42
503.887	2.37
504.084	2.45
504.282	2.42
504.479	2.37
504.677	2.51
504.874	2.46
505.072	2.44
505.269	2.52
505.466	2.58
505.664	2.62
505.861	2.53
506.059	2.58
506.256	2.62
506.453	2.6
506.651	2.78
506.848	2.77
507.045	2.75
507.242	2.72
507.44	2.75
507.637	2.78
507.834	2.75
508.031	2.86
508.229	2.81
508.426	2.83
508.623	2.91
508.82	2.92
509.017	2.91
509.214	2.88
509.411	2.95
509.608	2.94
509.805	2.98
510.003	2.97
510.2	3.03
510.397	3.12
510.594	3.05
510.791	3.07
510.988	3.11
511.184	3.1
511.381	3.06
511.578	3.12
511.775	3.23
511.972	3.14
512.169	3.19
512.366	3.16
512.563	3.26
512.76	3.28
512.956	3.32
513.153	3.26
513.35	3.24
513.547	3.23
513.744	3.32
513.94	3.3
514.137	3.44
514.334	3.38
514.53	3.39
514.727	3.52
514.924	3.5
515.12	3.41
515.317	3.44
515.514	3.39
515.71	3.38
515.907	3.5
516.103	3.55
516.3	3.49
516.497	3.61
516.693	3.58
516.89	3.56
517.086	3.58
517.283	3.63
517.479	3.5
517.676	3.67
517.872	3.65
518.068	3.67
518.265	3.65
518.461	3.57
518.658	3.71
518.854	3.69
519.05	3.73
519.247	3.77
519.443	3.74
519.639	3.82
519.836	3.75
520.032	3.77
520.228	3.8
520.424	3.83
520.621	3.85
520.817	3.85
521.013	3.8
521.209	3.95
521.405	3.92
521.601	3.86
521.798	3.9
521.994	3.9
522.19	3.81
522.386	3.82
522.582	3.9
522.778	3.99
522.974	3.93
523.17	3.91
523.366	3.9
523.562	4.03
523.758	4
523.954	3.82
524.15	3.98
524.346	4.03
524.542	4
524.738	4.02
524.934	4.09
525.129	4.05
525.325	4.02
525.521	3.99
525.717	4.17
525.913	4.07
526.109	4.06
526.304	4.16
526.5	4.08
526.696	4.12
526.892	4.13
527.087	4.21
527.283	4.12
527.479	4.18
527.674	4.03
527.87	4.17
528.066	4.19
528.261	4.16
528.457	4.08
528.653	4.19
528.848	4.19
529.044	4.27
529.239	4.13
529.435	4.2
529.63	4.16
529.826	4.2
530.021	4.19
530.217	4.26
530.412	4.14
530.608	4.14
530.803	4.17
530.999	4.14
531.194	4.19
531.389	4.25
531.585	4.18
531.78	4.25
531.975	4.22
532.171	4.31
532.366	4.28
532.561	4.26
532.757	4.21
532.952	4.3
533.147	4.21
533.342	4.22
533.538	4.26
533.733	4.41
533.928	4.14
534.123	4.27
534.318	4.28
534.513	4.26
534.709	4.37
534.904	4.31
535.099	4.34
535.294	4.32
535.489	4.36
535.684	4.32
535.879	4.34
536.074	4.36
536.269	4.35
536.464	4.37
536.659	4.31
536.854	4.32
537.049	4.4
537.244	4.35
537.439	4.34
537.634	4.35
537.828	4.38
538.023	4.36
538.218	4.35
538.413	4.29
538.608	4.32
538.803	4.36
538.997	4.29
539.192	4.4
539.387	4.36
539.582	4.38
539.776	4.35
539.971	4.38
540.166	4.43
540.36	4.34
540.555	4.47
540.75	4.37
540.944	4.39
541.139	4.42
541.334	4.41
541.528	4.41
541.723	4.4
541.917	4.44
542.112	4.32
542.306	4.3
542.501	4.33
542.695	4.36
542.89	4.35
543.084	4.38
543.279	4.42
543.473	4.45
543.668	4.47
543.862	4.35
544.056	4.38
544.251	4.43
544.445	4.46
544.64	4.47
544.834	4.31
545.028	4.23
545.222	4.44
545.417	4.53
545.611	4.47
545.805	4.43
546	4.28
546.194	4.42
546.388	4.44
546.582	4.39
546.776	4.42
546.97	4.45
547.165	4.4
547.359	4.41
547.553	4.39
547.747	4.4
547.941	4.47
548.135	4.39
548.329	4.47
548.523	4.45
548.717	4.38
548.911	4.36
549.105	4.37
549.299	4.45
549.493	4.44
549.687	4.42
549.881	4.49
550.075	4.45
550.269	4.32
550.463	4.45
550.657	4.45
550.85	4.43
551.044	4.39
551.238	4.42
551.432	4.39
551.626	4.5
551.82	4.46
552.013	4.38
552.207	4.52
552.401	4.52
552.594	4.45
552.788	4.41
552.982	4.39
553.176	4.37
553.369	4.52
553.563	4.45
553.756	4.46
553.95	4.45
554.144	4.5
554.337	4.46
554.531	4.38
554.724	4.45
554.918	4.51
555.111	4.45
555.305	4.44
555.498	4.42
555.692	4.5
555.885	4.49
556.079	4.45
556.272	4.45
556.466	4.42
556.659	4.44
556.852	4.42
557.046	4.37
557.239	4.4
557.432	4.42
557.626	4.45
557.819	4.52
558.012	4.43
558.206	4.49
558.399	4.47
558.592	4.44
558.785	4.43
558.979	4.45
559.172	4.43
559.365	4.48
559.558	4.42
559.751	4.45
559.944	4.49
560.138	4.42
560.331	4.44
560.524	4.45
560.717	4.47
560.91	4.4
561.103	4.47
561.296	4.35
561.489	4.46
561.682	4.49
561.875	4.41
562.068	4.53
562.261	4.42
562.454	4.53
562.647	4.44
562.84	4.49
563.032	4.49
563.225	4.39
563.418	4.4
563.611	4.52
563.804	4.48
563.997	4.38
564.19	4.32
564.382	4.43
564.575	4.44
564.768	4.45
564.961	4.46
565.153	4.43
565.346	4.38
565.539	4.53
565.731	4.43
565.924	4.48
566.117	4.56
566.309	4.51
566.502	4.39
566.695	4.37
566.887	4.46
567.08	4.44
567.272	4.48
567.465	4.4
567.657	4.48
567.85	4.41
568.042	4.43
568.235	4.46
568.427	4.35
568.62	4.46
568.812	4.41
569.005	4.47
569.197	4.34
569.389	4.41
569.582	4.38
569.774	4.42
569.966	4.3
570.159	4.4
570.351	4.36
570.543	4.44
570.736	4.43
570.928	4.28
571.12	4.42
571.312	4.4
571.505	4.24
571.697	4.49
571.889	4.43
572.081	4.35
572.273	4.32
572.465	4.41
572.658	4.44
572.85	4.43
573.042	4.43
573.234	4.33
573.426	4.34
573.618	4.36
573.81	4.42
574.002	4.36
574.194	4.4
574.386	4.3
574.578	4.26
574.77	4.35
574.962	4.36
575.154	4.24
575.346	4.34
575.538	4.36
575.729	4.33
575.921	4.39
576.113	4.34
576.305	4.34
576.497	4.39
576.689	4.28
576.88	4.23
577.072	4.41
577.264	4.31
577.456	4.34
577.647	4.27
577.839	4.37
578.031	4.32
578.223	4.24
578.414	4.26
578.606	4.34
578.798	4.32
578.989	4.3
579.181	4.28
579.372	4.27
579.564	4.32
579.755	4.23
579.947	4.26
580.139	4.27
580.33	4.21
580.522	4.25
580.713	4.2
580.905	4.26
581.096	4.34
581.287	4.25
581.479	4.24
581.67	4.24
581.862	4.24
582.053	4.24
582.244	4.18
582.436	4.3
582.627	4.17
582.818	4.16
583.01	4.17
583.201	4.24
583.392	4.21
583.583	4.24
583.775	4.09
583.966	4.17
584.157	4.21
584.348	4.29
584.54	4.15
584.731	4.23
584.922	4.1
585.113	4.13
585.304	4.16
585.495	4.18
585.686	4.18
585.877	4.21
586.068	4.23
586.259	4.14
586.45	4.18
586.641	4.12
586.832	4.16
587.023	4.09
587.214	4.11
587.405	4.2
587.596	4.05
587.787	4.1
587.978	4.13
588.169	4.07
588.36	4.01
588.551	4.07
588.742	4.13
588.932	4.15
589.123	3.98
589.314	4.13
589.505	4.07
589.696	4.03
589.886	4.03
590.077	4.02
590.268	3.97
590.458	3.92
590.649	3.87
590.84	3.99
591.03	3.99
591.221	3.94
591.412	3.94
591.602	4.07
591.793	3.99
591.984	3.99
592.174	3.96
592.365	4.08
592.555	3.89
592.746	3.97
592.936	3.93
593.127	3.97
593.317	4.01
593.508	3.93
593.698	3.87
593.889	3.92
594.079	3.85
594.269	3.88
594.46	3.89
594.65	3.89
594.84	3.91
595.031	3.83
595.221	3.86
595.411	3.85
595.602	3.85
595.792	3.8
595.982	3.75
596.172	3.86
596.363	3.84
596.553	3.83
596.743	3.83
596.933	3.78
597.123	3.8
597.314	3.69
597.504	3.71
597.694	3.8
597.884	3.74
598.074	3.77
598.264	3.76
598.454	3.73
598.644	3.73
598.834	3.73
599.024	3.69
599.214	3.69
599.404	3.75
599.594	3.68
599.784	3.63
599.974	3.73
600.164	3.71
600.354	3.64
600.544	3.62
600.734	3.66
600.924	3.62
601.114	3.62
601.303	3.65
601.493	3.6
601.683	3.62
601.873	3.62
602.063	3.52
602.252	3.63
602.442	3.51
602.632	3.52
602.821	3.51
603.011	3.58
603.201	3.55
603.39	3.53
603.58	3.42
603.77	3.53
603.959	3.54
604.149	3.49
604.339	3.53
604.528	3.53
604.718	3.49
604.907	3.49
605.097	3.47
605.286	3.41
605.476	3.45
605.665	3.5
605.855	3.42
606.044	3.5
606.234	3.44
606.423	3.42
606.612	3.43
606.802	3.35
606.991	3.42
607.181	3.45
607.37	3.33
607.559	3.24
607.749	3.39
607.938	3.27
608.127	3.3
608.316	3.28
608.506	3.33
608.695	3.33
608.884	3.23
609.073	3.28
609.263	3.34
609.452	3.34
609.641	3.23
609.83	3.16
610.019	3.28
610.208	3.24
610.397	3.22
610.586	3.26
610.775	3.2
610.965	3.22
611.154	3.16
611.343	3.17
611.532	3.12
611.721	3.19
611.91	3.11
612.099	3.16
612.287	3.11
612.476	3.03
612.665	3.15
612.854	3.08
613.043	3.13
613.232	3.1
613.421	3.06
613.61	3.03
613.798	3.05
613.987	3.08
614.176	3.07
614.365	3.11
614.554	3.1
614.742	3.04
614.931	2.97
615.12	3.05
615.309	2.98
615.497	2.98
615.686	2.94
615.875	2.98
616.063	2.92
616.252	2.9
616.44	2.95
616.629	2.94
616.818	2.94
617.006	2.93
617.195	2.9
617.383	2.91
617.572	2.78
617.76	2.86
617.949	2.86
618.137	2.92
618.326	2.92
618.514	2.71
618.703	2.72
618.891	2.84
619.079	2.74
619.268	2.88
619.456	2.75
619.644	2.82
619.833	2.72
620.021	2.75
620.209	2.67
620.398	2.73
620.586	2.7
620.774	2.71
620.962	2.67
621.151	2.77
621.339	2.69
621.527	2.62
621.715	2.63
621.903	2.66
622.092	2.58
622.28	2.69
622.468	2.58
622.656	2.63
622.844	2.59
623.032	2.66
623.22	2.51
623.408	2.66
623.596	2.6
623.784	2.64
623.972	2.51
624.16	2.56
624.348	2.58
624.536	2.59
624.724	2.5
624.912	2.55
625.1	2.54
625.288	2.48
625.476	2.47
625.664	2.58
625.851	2.43
626.039	2.5
626.227	2.48
626.415	2.48
626.603	2.4
626.79	2.43
626.978	2.36
627.166	2.48
627.354	2.36
627.541	2.41
627.729	2.29
627.917	2.47
628.104	2.42
628.292	2.33
628.48	2.38
628.667	2.38
628.855	2.36
629.042	2.39
629.23	2.33
629.418	2.32
629.605	2.33
629.793	2.25
629.98	2.25
630.168	2.26
630.355	2.3
630.543	2.31
630.73	2.25
630.917	2.29
631.105	2.31
631.292	2.24
631.48	2.23
631.667	2.3
631.854	2.2
632.042	2.19
632.229	2.13
632.416	2.25
632.604	2.17
632.791	2.09
632.978	2.2
633.165	2.17
633.353	2.2
633.54	2.26
633.727	2.06
633.914	2.11
634.101	2.01
634.289	2.19
634.476	2.06
634.663	1.99
634.85	2.04
635.037	2.06
635.224	1.96
635.411	2.05
635.598	2
635.785	2.04
635.972	2.01
636.159	2.03
636.346	1.99
636.533	1.99
636.72	2
636.907	1.99
637.094	1.99
637.281	1.93
637.468	1.95
637.655	1.93
637.842	1.97
638.029	1.92
638.215	1.97
638.402	1.93
638.589	1.89
638.776	1.83
638.963	1.79
639.149	1.9
639.336	1.93
639.523	1.85
639.709	1.85
639.896	1.86
640.083	1.86
640.27	1.83
640.456	1.83
640.643	1.84
640.829	1.71
641.016	1.77
641.203	1.73
641.389	1.8
641.576	1.84
641.762	1.76
641.949	1.69
642.135	1.73
642.322	1.77
642.508	1.64
642.695	1.74
642.881	1.71
643.068	1.67
643.254	1.7
643.441	1.7
643.627	1.68
643.813	1.61
644	1.76
644.186	1.61
644.372	1.72
644.559	1.71
644.745	1.67
644.931	1.61
645.118	1.65
645.304	1.63
645.49	1.63
645.676	1.56
645.862	1.62
646.049	1.62
646.235	1.59
646.421	1.67
646.607	1.63
646.793	1.59
646.979	1.49
647.165	1.54
647.352	1.6
647.538	1.58
647.724	1.56
647.91	1.52
648.096	1.54
648.282	1.56
648.468	1.49
648.654	1.52
648.84	1.51
649.026	1.51
649.212	1.48
649.397	1.44
649.583	1.46
649.769	1.52
649.955	1.46
650.141	1.47
650.327	1.5
650.513	1.36
650.698	1.48
650.884	1.32
651.07	1.46
651.256	1.44
651.442	1.39
651.627	1.36
651.813	1.41
651.999	1.37
652.184	1.41
652.37	1.34
652.556	1.35
652.741	1.41
652.927	1.25
653.113	1.29
653.298	1.34
653.484	1.31
653.669	1.23
653.855	1.31
654.04	1.35
654.226	1.32
654.412	1.31
654.597	1.27
654.782	1.36
654.968	1.32
655.153	1.27
655.339	1.27
655.524	1.24
655.71	1.28
655.895	1.25
656.08	1.27
656.266	1.29
656.451	1.24
656.636	1.2
656.822	1.26
657.007	1.27
657.192	1.23
657.378	1.16
657.563	1.17
657.748	1.22
657.933	1.23
658.118	1.14
658.304	1.14
658.489	1.23
658.674	1.16
658.859	1.09
659.044	1.16
659.229	1.2
659.414	1.12
659.599	1.16
659.785	1.13
659.97	1.16
660.155	1.17
660.34	1.16
660.525	1.12
660.71	1.11
660.895	1.18
661.08	1.09
661.264	1.09
661.449	1.12
661.634	1.09
661.819	1.11
662.004	1.1
662.189	1.04
662.374	1.08
662.559	1.04
662.743	0.99
662.928	1.07
663.113	1.03
663.298	1.01
663.483	1.01
663.667	1.03
663.852	0.97
664.037	1.06
664.221	0.98
664.406	1.04
664.591	1
664.775	0.98
664.96	0.99
665.145	1
665.329	1.05
665.514	0.98
665.698	0.92
665.883	0.95
666.068	1.05
666.252	0.96
666.437	0.95
666.621	0.97
666.806	0.97
666.99	0.94
667.174	0.89
667.359	1
667.543	0.91
667.728	0.97
667.912	0.88
668.096	0.98
668.281	0.89
668.465	0.96
668.649	0.9
668.834	0.91
669.018	0.88
669.202	0.88
669.387	0.88
669.571	0.91
669.755	0.87
669.939	0.87
670.124	0.89
670.308	0.94
670.492	0.88
670.676	0.89
670.86	0.86
671.044	0.87
671.228	0.92
671.413	0.81
671.597	0.81
671.781	0.82
671.965	0.9
672.149	0.82
672.333	0.87
672.517	0.8
672.701	0.84
672.885	0.82
673.069	0.75
673.253	0.91
673.437	0.82
673.621	0.8
673.804	0.79
673.988	0.83
674.172	0.84
674.356	0.73
674.54	0.78
674.724	0.87
674.908	0.74
675.091	0.83
675.275	0.77
675.459	0.83
675.643	0.73
675.826	0.77
676.01	0.75
676.194	0.7
676.377	0.77
676.561	0.77
676.745	0.78
676.928	0.76
677.112	0.81
677.296	0.73
677.479	0.7
677.663	0.66
677.846	0.79
678.03	0.73
678.213	0.67
678.397	0.76
678.58	0.7
678.764	0.72
678.947	0.66
679.131	0.68
679.314	0.78
679.498	0.68
679.681	0.68
679.865	0.78
680.048	0.63
680.231	0.67
680.415	0.64
680.598	0.66
680.781	0.66
680.965	0.69
681.148	0.69
681.331	0.63
681.514	0.68
681.698	0.64
681.881	0.71
682.064	0.65
682.247	0.64
682.43	0.63
682.614	0.67
682.797	0.7
682.98	0.65
683.163	0.58
683.346	0.69
683.529	0.63
683.712	0.61
683.895	0.67
684.078	0.57
684.261	0.58
684.444	0.63
684.627	0.67
684.81	0.61
684.993	0.6
685.176	0.6
685.359	0.55
685.542	0.56
685.725	0.7
685.908	0.64
686.091	0.58
686.274	0.64
686.457	0.59
686.639	0.63
686.822	0.68
687.005	0.61
687.188	0.6
687.371	0.66
687.553	0.6
687.736	0.66
687.919	0.64
688.102	0.7
688.284	0.58
688.467	0.53
688.65	0.56
688.832	0.53
689.015	0.55
689.197	0.47
689.38	0.65
689.563	0.62
689.745	0.53
689.928	0.47
690.11	0.54
690.293	0.51
690.475	0.49
690.658	0.59
690.84	0.55
691.023	0.5
691.205	0.54
691.388	0.56
691.57	0.63
691.752	0.6
691.935	0.43
692.117	0.49
692.3	0.54
692.482	0.47
692.664	0.51
692.847	0.49
693.029	0.58
693.211	0.55
693.393	0.54
693.576	0.46
693.758	0.51
693.94	0.49
694.122	0.48
694.304	0.52
694.487	0.44
694.669	0.53
694.851	0.41
695.033	0.47
695.215	0.52
695.397	0.47
695.579	0.52
695.761	0.45
695.943	0.38
696.125	0.54
696.308	0.49
696.49	0.33
696.671	0.61
696.853	0.47
697.035	0.65
697.217	0.47
697.399	0.52
697.581	0.38
697.763	0.42
697.945	0.39
698.127	0.45
698.309	0.51
698.491	0.47
698.672	0.49
698.854	0.52
699.036	0.51
699.218	0.42
699.399	0.5
699.581	0.47
699.763	0.46
699.945	0.36
700.126	0.37
700.308	0.47
700.49	0.44
700.671	0.33
700.853	0.36
701.035	0.41
701.216	0.44
701.398	0.41
701.579	0.38
701.761	0.5
701.943	0.4
702.124	0.42
702.306	0.43
702.487	0.57
702.669	0.52
702.85	0.35
703.031	0.36
703.213	0.56
703.394	0.43
703.576	0.32
703.757	0.49
703.938	0.46
704.12	0.55
704.301	0.39
704.483	0.34
704.664	0.45
704.845	0.49
705.026	0.43
705.208	0.39
705.389	0.41
705.57	0.39
705.751	0.43
705.933	0.42
706.114	0.42
706.295	0.41
706.476	0.33
706.657	0.49
706.838	0.39
707.02	0.52
707.201	0.36
707.382	0.3
707.563	0.36
707.744	0.32
707.925	0.36
708.106	0.33
708.287	0.39
708.468	0.52
708.649	0.37
708.83	0.33
709.011	0.32
709.192	0.42
709.373	0.28
709.554	0.32
709.734	0.42
709.915	0.42
710.096	0.32
710.277	0.25
710.458	0.34
710.639	0.31
710.819	0.3
711	0.29
711.181	0.41
711.362	0.41
711.542	0.36
711.723	0.36
711.904	0.4
712.085	0.38
712.265	0.3
712.446	0.3
712.627	0.35
712.807	0.35
712.988	0.38
713.168	0.24
713.349	0.36
713.53	0.25
713.71	0.21
713.891	0.28
714.071	0.34
714.252	0.26
714.432	0.32
714.613	0.27
714.793	0.31
714.974	0.39
715.154	0.39
715.334	0.43
715.515	0.39
715.695	0.23
715.876	0.3
716.056	0.26
716.236	0.29
716.417	0.38
716.597	0.27
716.777	0.49
716.957	0.31
717.138	0.28
717.318	0.3
717.498	0.27
717.678	0.32
717.859	0.34
718.039	0.2
718.219	0.35
718.399	0.38
718.579	0.25
718.759	0.2
718.939	0.33
719.12	0.32
719.3	0.29
719.48	0.17
719.66	0.2
719.84	0.38
720.02	0.34
720.2	0.2
720.38	0.28
720.56	0.37
720.74	0.23
720.92	0.3
721.1	0.35
721.279	0.34
721.459	0.31
721.639	0.14
721.819	0.36
721.999	0.27
722.179	0.31
722.359	0.17
722.538	0.3
722.718	0.29
722.898	0.24
723.078	0.24
723.257	0.19
723.437	0.24
723.617	0.3
723.797	0.19
723.976	0.31
724.156	0.42
724.336	0.36
724.515	0.43
724.695	0.21
724.874	0.31
725.054	0.37
725.234	0.21
725.413	0.34
725.593	0.27
725.772	0.16
725.952	0.33
726.131	0.25
726.311	0.3
726.49	0.27
726.67	0.29
726.849	0.19
727.028	0.36
727.208	0.22
727.387	0.26
727.567	0.15
727.746	0.27
727.925	0.23
728.105	0.23
728.284	0.2
728.463	0.21
728.643	0.36
728.822	0.1
729.001	0.19
729.18	0.15
729.359	0.29
729.539	0.29
729.718	0.2
729.897	0.31
730.076	0.29
730.255	0.12
730.434	0.2
730.614	0.36
730.793	0.35
730.972	0.24
731.151	0.22
731.33	0.34
731.509	0.33
731.688	0.34
731.867	0.27
732.046	0.1
732.225	0.54
732.404	0.23
732.583	0.17
732.762	0.2
732.941	0.31
733.12	0.28
733.298	0.25
733.477	0.35
733.656	0.3
733.835	0.1
734.014	0.36
734.193	0.33
734.371	0.33
734.55	0.29
734.729	0.2
734.908	0.16
735.086	0.25
735.265	0.4
735.444	0.2
735.623	0.25
735.801	0.26
735.98	0.23
736.159	0.11
736.337	0.32
736.516	0.17
736.694	0.25
736.873	0.18
737.052	0.41
737.23	0.34
737.409	0.13
737.587	0.42
737.766	0.09
737.944	0.24
738.123	0.31
738.301	0.3
738.479	0.25
738.658	0.24
738.836	0.1
739.015	0.19
739.193	0.2
739.371	0.23
739.55	0.23
739.728	0.22
739.906	0.43
740.085	0.42
740.263	0.28
740.441	0.06
740.62	0.51
740.798	0.39
740.976	0.19
741.154	0.19
741.332	0.39
741.511	0.19
741.689	0.28
741.867	0.29
742.045	0.3
742.223	0.14
742.401	0.16
742.579	0.12
742.757	0.3
742.935	0.16
743.114	0.22
743.292	0.25
743.47	0.35
743.648	0.37
743.826	0.34
744.004	0.4
744.181	0.22
744.359	0.2
744.537	0.21
744.715	0.26
744.893	0.28
745.071	0.24
745.249	0.15
745.427	0.3
745.605	0.33
745.782	0.25
745.96	0.31
746.138	0.28
746.316	0.39
746.493	0.15
746.671	0.37
746.849	0.2
747.027	0.36
747.204	0.21
747.382	0.31
747.56	0.07
747.737	0.28
747.915	0.18
748.093	0.32
748.27	0.17
748.448	0.24
748.625	0.16
748.803	0.12
748.98	0.12
749.158	0.31
749.335	0.35
749.513	0.22
749.69	0.24
749.868	0.15
750.045	0.32
750.223	0.11
750.4	0.08
750.578	0.42
750.755	0.22
750.932	0.07
751.11	0.27
751.287	0.1
751.464	0.34
751.642	0.16
751.819	0.4
751.996	0.18
752.173	0.15
752.351	0.18
752.528	0.21
752.705	0.29
752.882	0.15
753.06	0.14
753.237	0.24
753.414	0.56
753.591	0.37
753.768	0.23
753.945	0.19
754.122	0.22
754.299	0.25
754.476	0.15
754.654	0.21
754.831	0.21
755.008	0.32
755.185	0.11
755.362	0.13
755.539	0.25
755.716	0.15
755.892	0.18
756.069	0.24
756.246	0.25
756.423	0.24
756.6	0.41
756.777	0.18
756.954	0.26
757.131	0.12
757.307	0.23
757.484	0.05
757.661	0.26
757.838	0.2
758.015	0.09
758.191	0.19
758.368	0.31
758.545	0.32
758.721	0.25
758.898	0.08
759.075	0.33
759.251	0.38
759.428	0.33
759.605	0.11
759.781	0.18
759.958	0.29
760.134	0.26
760.311	0.16
760.488	0.4
760.664	0.31
760.841	0.2
761.017	0.08
761.194	0.24
761.37	0.31
761.547	0.28
761.723	0.08
761.899	0.21
762.076	0.14
762.252	0.16
762.429	0.07
762.605	0.28
762.781	0.22
762.958	0.27
763.134	0.08
763.31	0.21
763.486	0.29
763.663	-0.03
763.839	0.28
764.015	-0.01
764.191	0.08
764.368	0.2
764.544	0.1
764.72	0.17
764.896	0.24
765.072	0.1
765.248	0.15
765.425	0.09
765.601	0.19
765.777	0.23
765.953	-0.07
766.129	0.06
766.305	0.13
766.481	0.3
766.657	0.27
766.833	0.3
767.009	-0.02
767.185	0.17
767.361	0.15
767.537	0.06
767.713	0.3
767.889	0.04
768.065	0.15
768.24	-0.08
768.416	0.37
768.592	0.14
768.768	0.23
768.944	0.27
769.12	0.07
769.295	0.13
769.471	0.22
769.647	0.13
769.823	0.24
769.998	0.03
770.174	0.21
770.35	0.49
770.525	0.45
770.701	0.3
770.877	0.22
771.052	0.04
771.228	0.28
771.403	0.18
771.579	0.25
771.755	0.46
771.93	0.25
772.106	0.06
772.281	-0.04
772.457	0.25
772.632	0.16
772.808	-0.01
772.983	0.1
773.159	0.11
773.334	0.41
773.509	0.14
773.685	0.08
773.86	0.54
774.036	0.42
774.211	0.19
774.386	0.22
774.562	0.25
774.737	0.44
774.912	0.17
775.087	0.42
775.263	0.21
775.438	0.26
775.613	0.04
775.788	0.04
775.964	0.39
776.139	0.68
776.314	-0.07
776.489	0.23
776.664	0.37
776.839	0
777.014	0.15
777.19	0.3
777.365	0.25
777.54	0.29
777.715	0.09
777.89	0.08
778.065	0.13
778.24	0.22
778.415	0.28
778.59	0.1
778.765	0.16
778.94	0.31
779.115	0.19
779.289	0.24
779.464	0.29
779.639	0.08
779.814	-0.1
779.989	0.07
780.164	0.37
780.339	0.35
780.513	0.05
780.688	0.05
780.863	0.35
781.038	0.47
781.212	0.15
781.387	0.31
781.562	0.46
781.737	0.03
781.911	0.3
782.086	0.11
782.261	0.21
782.435	0.54
782.61	0.2
782.784	0.13
782.959	0.38
783.134	0.1
783.308	0.06
783.483	0.23
783.657	0.65
783.832	0.39
784.006	-0.04
784.181	0.28
784.355	0.48
784.53	0.1
784.704	0.04
784.878	0.46
785.053	0.31
785.227	0.35
785.402	0.72
785.576	0.13
785.75	0.41
785.925	0.06
786.099	0.37
786.273	0.45
786.448	0.35
786.622	0.46
786.796	0.19
786.97	0.25
787.145	0.87
787.319	-0.14
787.493	0.1
787.667	0
787.841	0.13
788.015	0.55
788.19	0.26
788.364	0.07
788.538	0.61
788.712	0.41
788.886	0.37
789.06	0.48
789.234	0.31
789.408	0.06
789.582	0.1
789.756	0.19
789.93	0.17
790.104	0.25
790.278	0.25
790.452	-0.07
790.626	0.2
790.8	0.18
790.973	0.35
791.147	0.38
791.321	0.56
791.495	0.39
791.669	0.15
791.843	0.53
792.016	0.15
792.19	0.41
792.364	0.15
792.538	0.77
792.711	0.55
792.885	0.2
793.059	0.25
793.233	0.12
793.406	0.42
793.58	0.17
793.754	0.45
793.927	0.24
794.101	0.5
794.274	0.43
794.448	0.57
794.622	0.08
794.795	0.59
794.969	0.02
795.142	0.82
795.316	0.17
795.489	0.07
795.663	0.84
795.836	0.18
796.009	0.14
796.183	0.72
796.356	0.36
796.53	0.39
796.703	0.22
796.876	0.95
797.05	0.13
797.223	0.3
797.396	0.27
797.57	0.19
797.743	0.58
797.916	0.32
798.09	0.23
798.263	0.67
798.436	0.37
798.609	-0.18
798.782	0.23
798.956	0.67
799.129	0.16
799.302	0.2
799.475	0.21
799.648	0.1
799.821	0.25
799.994	0.15
800.167	-0.1
800.34	0.27
800.514	0.35
800.687	0.2
800.86	0.17
801.033	0.15
801.206	0.33
801.379	-0.01
801.551	0.49
801.724	0.45
801.897	0.68
802.07	0.43
802.243	-0.21
802.416	0.02
802.589	0.18
802.762	0.42
802.935	0.15
803.107	0.4
803.28	0.96
803.453	0.46
803.626	-0.18
803.798	0.11
803.971	0.23
804.144	0.52
804.317	0.56
804.489	0.89
804.662	0.2
804.835	0.18
805.007	-0.1
805.18	0.88
805.353	0.54
805.525	0.14
805.698	0.26
805.87	0.53
806.043	0.45
806.215	0.05
806.388	-0.06
806.56	0.5
806.733	0.5
806.905	0.49
807.078	-0.02
807.25	0.11
807.423	0.4
807.595	0.28
807.768	0.4
807.94	0.51
808.112	0.23
808.285	0.1
808.457	0.18
808.629	0.36
808.802	0.61
808.974	0.55
809.146	0
809.318	-0.07
809.491	0.39
809.663	0.7
809.835	0.29
810.007	0.78
810.18	0.55
810.352	0.09
810.524	0.48
810.696	0.61
810.868	0.77
811.04	0.19
811.212	0.29
811.384	0.67
811.556	0.27
811.728	-0.08
811.901	1.04
812.073	0.31
812.245	0.15
812.417	0.37
812.589	-0.4
812.76	0.41
812.932	0.66
813.104	0.56
813.276	0.05
813.448	0.36
813.62	0.1
813.792	0.74
813.964	0.82
814.136	0.24
814.307	0.22
814.479	0.03
814.651	0.39
814.823	1.09
814.995	0.53
815.166	0.45
815.338	0.46
815.51	0.08
815.681	1.12
815.853	0.25
816.025	0.32
816.196	0.86
816.368	0.52
816.54	-0.17
816.711	0.04
816.883	0.78
817.054	1.37
817.226	0.13
817.398	0.45
817.569	0.02
817.741	0.49
817.912	0.24
818.084	0.55
818.255	0.97
818.426	0.34
818.598	0.33
818.769	-0
818.941	0.76
819.112	0.85
819.283	0.48
819.455	-0
819.626	0.94
819.798	0.63
819.969	0.42
820.14	0.56
820.311	0.31
820.483	0.43
820.654	0.68
820.825	0.03
820.996	0.3
821.168	-0
821.339	0.53
821.51	-0.03
821.681	0.15
821.852	0.51
822.023	0.13
822.195	-0.22
822.366	0.73
822.537	0.56
822.708	0.45
822.879	0.03
823.05	1.48
823.221	0.47
823.392	0.49
823.563	0.55
823.734	0.66
823.905	0.33
824.076	0.26
824.247	-0.42
824.418	0.02
824.589	0.62
824.759	0.32
824.93	-0.29
825.101	0.15
825.272	0.99
825.443	1.11
825.614	1.13
825.784	-0.3
825.955	2.03
826.126	0.82
826.297	0.48
826.467	0.86
826.638	0.64
826.809	-0.39
826.98	0.79
827.15	1.1
827.321	0.38
827.492	1.37
827.662	0.62
827.833	1.58
828.003	1.08
828.174	-0.02
828.345	0.21
828.515	0.92
828.686	0.22
828.856	0.5
829.027	0.33
829.197	-0.16
829.368	0.8
829.538	-0.39
829.709	0.44
829.879	0.72
830.049	0.71
830.22	0.36
830.39	0.46
830.56	0.98
830.731	0.17
830.901	0.28
831.072	0.14
831.242	0.97
831.412	0.44
831.582	0.75
831.753	-0.5
831.923	0.97
832.093	1.01
832.263	0.24
832.434	-0.16
832.604	-0.37
832.774	0.43
832.944	0.05
833.114	0.15
833.284	0.59
833.454	0.39
833.624	0.15
833.795	0.46
833.965	0.78
834.135	0.7
834.305	-0.21
834.475	-0.34
834.645	0.77
834.815	-0.45
834.985	0.46
835.155	-0.33
835.325	0.61
835.494	0.55
835.664	-0.03
835.834	-0.43
836.004	0.82
836.174	0.72
836.344	0.81
836.514	-1
836.684	0.26
836.853	0.67
837.023	0.81
837.193	0.17
837.363	1.12
837.532	2.05
837.702	0.28
837.872	0.19
838.041	2.11
838.211	1.79
838.381	-0.26
838.55	0.72
838.72	2.06
838.89	1.92
839.059	0.75
839.229	-0.47
839.398	1.85
839.568	0.27
839.738	0.53
839.907	1.35
840.077	0.46
840.246	0.25
840.416	0.29
840.585	0.02
840.755	2.06
840.924	1.58
841.093	-0.51
841.263	-0.09
841.432	0.84
841.602	0.8
841.771	0.14
841.94	0.25
842.11	2.25
842.279	2.61
842.448	0.04
842.617	-0.59
842.787	1.63
842.956	-0.73
843.125	0.52
843.294	0.97
843.464	1.75
843.633	0.5
843.802	-0.44
843.971	0.28
844.14	0.81
844.309	0.49
844.479	-0.4
844.648	0.11
844.817	1.05
844.986	1.03
845.155	-0.19
845.324	0.79
845.493	1
845.662	0
845.831	0.81
846	0.89
846.169	-0.1
846.338	1.45
846.507	0.32
846.676	0.44
846.844	0.44
847.013	1.33
847.182	0.28
847.351	0.17
847.52	0.41
847.689	1.33
847.858	0.28
848.026	0.55
848.195	0.74
848.364	0.18
848.533	0.33
848.701	0.13
848.87	1.33
849.039	1.77
849.207	1.63
849.376	2.27
849.545	2.2
849.713	0.71
849.882	0.17
850.051	0.34
850.219	1.08
850.388	1.82
850.556	-0.37
850.725	0
850.893	0.63
851.062	0.71
851.23	1.76
851.399	-0.51
851.567	0.24
851.736	0.82
851.904	-0.08
852.073	0.24
852.241	1.98
852.41	0.92
852.578	-0.1
852.746	1.01
852.915	1.93
853.083	0.54
853.251	0.09
853.42	0.56
853.588	0.11
853.756	2.48
853.924	-0.1
854.093	0.32
854.261	0.58
854.429	-0.21
854.597	0.83
854.765	0.74
854.934	1.27
855.102	2.91
855.27	1
855.438	1.88
855.606	0.85
855.774	2.93
855.942	0.47
856.11	-0.37
856.278	0.68
856.446	2.14
856.614	1.81
856.782	0.98
856.95	2.36
857.118	2.28
857.286	1.46
857.454	-0.21
857.622	2.84
857.79	1.31
857.958	0.4
858.126	0.05
858.294	-1.48
858.462	1.39
858.629	0.53
858.797	0.07
858.965	1.31
859.133	1.73
859.301	0.33
859.468	1.64
859.636	-0.17
859.804	2.4
859.971	2.01
860.139	-0.92
860.307	1.46
860.474	1.83
860.642	-0.5
860.81	0.06
860.977	1.05
861.145	2.13
861.313	0.11
861.48	-0.3
861.648	2.66
861.815	1.26
861.983	-0.25
862.15	0
862.318	1.59
862.485	0.83
862.653	0.12
862.82	-0.09
862.988	4.17
863.155	2.36
863.322	-1.2
863.49	-1.03
863.657	0.76
863.824	3.05
863.992	0.62
864.159	1.26
864.326	3.31
864.494	0.36
864.661	3.46
864.828	-0.36
864.996	2.91
865.163	3.12
865.33	0.81
865.497	-1.56
865.664	0.58
865.832	-1.62
865.999	0.44
866.166	-0.68
866.333	1.36
866.5	0.26
866.667	0.78
866.834	1.3
867.001	1.61
867.168	0.36
867.335	2.11
867.502	-1.46
867.669	1.11
867.836	2.39
868.003	0.28
868.17	1.27
868.337	-0.22
868.504	4.14
868.671	-0.57
868.838	-0.04
869.005	1.56
869.172	2.17
869.339	1.93
869.505	-0.17
869.672	0.02
869.839	3.59
870.006	1.21
870.173	0.81
870.339	1.48
870.506	4.74
870.673	-0.65
870.84	2.37
871.006	3.25
871.173	1.77
871.34	1.29
871.506	-0.5
871.673	2.73
871.839	-0.75
872.006	1.08
872.173	1.15
872.339	0.91
872.506	3.45
872.672	0.6
872.839	-1.05
873.005	1.83
873.172	4.1
873.338	3.14
873.505	1.9
873.671	0.78
873.838	1.86
874.004	-0.44
874.171	0.91
874.337	3.26
874.503	2.37
874.67	0.88
874.836	0.35
875.002	3.79
875.169	3.93
875.335	1.9
875.501	0.23
875.668	3.22
875.834	1.17
876	0.13
876.166	2.47
876.332	2.62
876.499	4.66
876.665	0.91
876.831	0.18
876.997	5.36
877.163	2.04
877.329	1.43
877.495	2.12
877.662	3.02
877.828	2.36
877.994	2.62
878.16	-2.22
878.326	1.59
878.492	1.56
878.658	0.06
878.824	1.17
878.99	3.11
879.156	0.15
879.322	3.94
879.487	0.58
879.653	2.92
879.819	1.21
879.985	0.93
880.151	1.89
880.317	2.51
880.483	0.26
880.648	1.48
880.814	-1.7
880.98	1.39
881.146	-1.29
881.312	-0.07
881.477	0.62
881.643	2.41
881.809	3.03
881.974	3.89
882.14	-0.9
882.306	0.59
882.471	4.65
882.637	0.51
882.803	3.2
882.968	4.56
883.134	4.6
883.299	0.53
883.465	1.38
883.63	2.03
883.796	1.55
883.961	2.02
884.127	1.53
884.292	-4.3
884.458	-1.2
884.623	-1.2
