Data from Apollo_Calib_20240827__AbsoluteIrradiance__885__13-54-02-746.txt Node

Date: Wed Aug 28 13:54:02 BST 2024
User: biology
Spectrometer: FLMT08252
Trigger mode: 0
Integration Time (sec): 5.000000E-1
Scans to average: 5
Electric dark correction enabled: true
Nonlinearity correction enabled: false
Boxcar width: 0
XAxis mode: Wavelengths
Number of Pixels in Spectrum: 3648
>>>>>Begin Spectral Data<<<<<
179.588	-0
179.809	-0
180.03	-0
180.251	-0
180.473	-0
180.694	0
180.915	0
181.136	-0
181.357	0
181.578	-0
181.799	-0
182.02	-0
182.241	-0
182.462	-0
182.683	0
182.904	-0
183.125	0
183.346	0
183.567	0
183.788	0
184.009	0
184.23	0
184.451	0
184.672	0
184.892	0
185.113	0
185.334	0
185.555	0
185.776	0
185.996	0
186.217	0
186.438	0
186.659	0
186.879	0
187.1	0
187.321	0
187.541	0
187.762	0
187.983	0
188.203	0
188.424	0
188.644	0
188.865	0
189.086	0
189.306	0
189.527	0
189.747	0
189.968	0
190.188	0
190.409	0
190.629	0
190.849	0
191.07	0
191.29	0
191.511	0
191.731	0
191.951	0
192.172	0
192.392	0
192.612	0
192.833	0
193.053	0
193.273	0
193.493	0
193.714	0
193.934	0
194.154	0
194.374	0
194.594	0
194.815	0
195.035	0
195.255	0
195.475	0
195.695	0
195.915	0
196.135	0
196.355	0
196.575	0
196.795	0
197.015	0
197.235	0
197.455	0
197.675	0
197.895	0
198.115	0
198.335	0
198.555	0
198.775	0
198.995	0
199.214	0
199.434	0
199.654	0
199.874	0
200.094	3.93
200.313	2.74
200.533	1.88
200.753	1.44
200.973	3.63
201.192	2.91
201.412	1.38
201.632	1.43
201.851	3.64
202.071	1.84
202.291	1.79
202.51	1.2
202.73	2.7
202.95	2.13
203.169	1.01
203.389	1.87
203.608	2.4
203.828	1.59
204.047	1.47
204.267	2.44
204.486	2.07
204.706	2.41
204.925	1.74
205.145	1.81
205.364	2.25
205.583	2.97
205.803	1.56
206.022	1.07
206.242	1.74
206.461	1.66
206.68	1.04
206.9	1.37
207.119	2.62
207.338	2.24
207.557	1.06
207.777	1.23
207.996	1.51
208.215	2.38
208.434	1.12
208.654	0.98
208.873	1.37
209.092	1.98
209.311	0.97
209.53	1.07
209.749	1.3
209.968	1.06
210.187	0.99
210.407	0.65
210.626	1.36
210.845	1.65
211.064	1.13
211.283	0.74
211.502	1.71
211.721	1.18
211.94	0.95
212.159	1.45
212.377	1.51
212.596	1.4
212.815	1.2
213.034	1.06
213.253	1.29
213.472	1.22
213.691	1.16
213.91	0.6
214.128	0.76
214.347	1.52
214.566	0.56
214.785	0.64
215.003	1.3
215.222	1.27
215.441	1.05
215.66	0.52
215.878	1.1
216.097	1.14
216.316	0.47
216.534	0.91
216.753	1.15
216.972	0.76
217.19	0.82
217.409	0.62
217.627	0.89
217.846	0.93
218.064	0.95
218.283	0.51
218.501	1.47
218.72	1.02
218.938	0.6
219.157	0.41
219.375	1.17
219.594	1.12
219.812	0.61
220.031	0.57
220.249	1.15
220.467	1.25
220.686	0.73
220.904	0.64
221.122	0.83
221.341	1.23
221.559	0.83
221.777	0.55
221.995	0.88
222.214	1
222.432	0.63
222.65	0.82
222.868	0.67
223.086	0.87
223.305	0.73
223.523	0.55
223.741	1.22
223.959	0.73
224.177	0.34
224.395	0.36
224.613	0.85
224.831	0.99
225.049	0.45
225.267	0.55
225.485	0.84
225.703	0.63
225.921	0.55
226.139	0.42
226.357	0.9
226.575	0.8
226.793	0.5
227.011	1.64
227.229	0.67
227.447	0.95
227.665	0.55
227.883	0.48
228.1	0.59
228.318	0.75
228.536	0.33
228.754	0.43
228.972	0.8
229.189	0.84
229.407	0.62
229.625	0.56
229.843	0.83
230.06	0.79
230.278	0.56
230.496	0.57
230.713	0.61
230.931	0.85
231.149	0.49
231.366	0.31
231.584	0.62
231.801	1.02
232.019	0.39
232.236	0.4
232.454	0.46
232.671	0.71
232.889	0.42
233.106	0.41
233.324	0.53
233.541	0.58
233.759	0.51
233.976	0.39
234.194	0.46
234.411	0.54
234.628	0.4
234.846	0.42
235.063	0.64
235.28	0.56
235.498	0.45
235.715	0.29
235.932	0.73
236.149	0.51
236.367	0.33
236.584	0.62
236.801	0.48
237.018	0.73
237.236	0.51
237.453	0.19
237.67	0.63
237.887	0.54
238.104	0.46
238.321	0.34
238.538	0.32
238.755	0.8
238.973	0.31
239.19	0.49
239.407	0.6
239.624	0.59
239.841	0.4
240.058	0.32
240.275	0.53
240.492	0.49
240.709	0.5
240.925	0.28
241.142	0.47
241.359	0.4
241.576	0.34
241.793	0.3
242.01	0.54
242.227	0.61
242.444	0.53
242.66	0.62
242.877	0.47
243.094	0.48
243.311	0.47
243.527	0.4
243.744	0.61
243.961	0.55
244.178	0.39
244.394	0.44
244.611	0.65
244.828	0.54
245.044	0.27
245.261	0.3
245.477	0.44
245.694	0.6
245.911	0.33
246.127	0.48
246.344	0.61
246.56	0.56
246.777	0.38
246.993	0.43
247.21	0.45
247.426	0.63
247.643	0.36
247.859	0.27
248.076	0.41
248.292	0.71
248.508	0.3
248.725	0.45
248.941	0.49
249.157	0.64
249.374	0.35
249.59	0.35
249.806	0.44
250.023	0.48
250.239	0.34
250.455	0.29
250.671	0.4
250.888	0.48
251.104	0.5
251.32	0.34
251.536	0.37
251.752	0.46
251.969	0.43
252.185	0.43
252.401	0.71
252.617	0.47
252.833	0.33
253.049	0.43
253.265	0.37
253.481	0.41
253.697	0.35
253.913	0.29
254.129	0.46
254.345	0.47
254.561	0.34
254.777	0.35
254.993	0.47
255.209	0.37
255.425	0.37
255.641	0.32
255.857	0.48
256.073	0.56
256.288	0.25
256.504	0.31
256.72	0.47
256.936	0.59
257.152	0.33
257.367	0.31
257.583	0.43
257.799	0.44
258.015	0.33
258.23	0.34
258.446	0.64
258.662	0.43
258.877	0.29
259.093	0.28
259.309	0.34
259.524	0.43
259.74	0.27
259.955	0.25
260.171	0.46
260.387	0.37
260.602	0.32
260.818	0.41
261.033	0.26
261.249	0.44
261.464	0.33
261.68	0.27
261.895	0.36
262.11	0.55
262.326	0.33
262.541	0.17
262.757	0.55
262.972	0.47
263.187	0.35
263.403	0.38
263.618	0.5
263.833	0.36
264.049	0.35
264.264	0.36
264.479	0.28
264.694	0.47
264.91	0.22
265.125	0.31
265.34	0.49
265.555	0.62
265.77	0.37
265.986	0.32
266.201	0.42
266.416	0.49
266.631	0.3
266.846	0.32
267.061	0.4
267.276	0.44
267.491	0.14
267.706	0.4
267.921	0.39
268.136	0.43
268.351	0.36
268.566	0.19
268.781	0.43
268.996	0.38
269.211	0.29
269.426	0.24
269.641	0.35
269.856	0.39
270.071	0.3
270.285	0.22
270.5	0.46
270.715	0.41
270.93	0.37
271.145	0.41
271.359	0.51
271.574	0.36
271.789	0.38
272.004	0.36
272.218	0.32
272.433	0.39
272.648	0.22
272.862	0.44
273.077	0.4
273.292	0.4
273.506	0.28
273.721	0.31
273.936	0.35
274.15	0.46
274.365	0.29
274.579	0.35
274.794	0.38
275.008	0.44
275.223	0.23
275.437	0.28
275.652	0.44
275.866	0.38
276.081	0.3
276.295	0.38
276.509	0.37
276.724	0.37
276.938	0.32
277.153	0.34
277.367	0.39
277.581	0.31
277.796	0.22
278.01	0.25
278.224	0.41
278.438	0.45
278.653	0.24
278.867	0.24
279.081	0.4
279.295	0.29
279.51	0.34
279.724	0.17
279.938	0.4
280.152	0.38
280.366	0.32
280.58	0.29
280.794	0.48
281.008	0.39
281.222	0.36
281.437	0.48
281.651	0.34
281.865	0.38
282.079	0.26
282.293	0.13
282.507	0.25
282.721	0.31
282.935	0.27
283.148	0.25
283.362	0.26
283.576	0.21
283.79	0.27
284.004	0.26
284.218	0.42
284.432	0.25
284.646	0.26
284.859	0.26
285.073	0.31
285.287	0.32
285.501	0.31
285.714	0.31
285.928	0.29
286.142	0.32
286.356	0.23
286.569	0.23
286.783	0.37
286.997	0.41
287.21	0.32
287.424	0.27
287.637	0.25
287.851	0.27
288.065	0.31
288.278	0.25
288.492	0.29
288.705	0.26
288.919	0.3
289.132	0.19
289.346	0.37
289.559	0.12
289.773	0.21
289.986	0.25
290.2	0.31
290.413	0.34
290.626	0.19
290.84	0.22
291.053	0.31
291.267	0.36
291.48	0.32
291.693	0.28
291.906	0.25
292.12	0.28
292.333	0.21
292.546	0.26
292.76	0.37
292.973	0.32
293.186	0.32
293.399	0.23
293.612	0.35
293.826	0.3
294.039	0.2
294.252	0.24
294.465	0.34
294.678	0.31
294.891	0.29
295.104	0.18
295.317	0.26
295.53	0.33
295.743	0.27
295.956	0.24
296.169	0.34
296.382	0.31
296.595	0.24
296.808	0.21
297.021	0.36
297.234	0.35
297.447	0.29
297.66	0.29
297.873	0.33
298.086	0.33
298.299	0.19
298.511	0.21
298.724	0.27
298.937	0.2
299.15	0.19
299.363	0.25
299.575	0.32
299.788	0.32
300.001	0.24
300.213	0.24
300.426	0.23
300.639	0.26
300.852	0.22
301.064	0.25
301.277	0.37
301.489	0.31
301.702	0.3
301.915	0.29
302.127	0.25
302.34	0.31
302.552	0.32
302.765	0.21
302.977	0.31
303.19	0.24
303.402	0.2
303.615	0.22
303.827	0.28
304.04	0.24
304.252	0.27
304.464	0.24
304.677	0.4
304.889	0.32
305.102	0.2
305.314	0.16
305.526	0.29
305.739	0.32
305.951	0.19
306.163	0.27
306.375	0.39
306.588	0.24
306.8	0.27
307.012	0.16
307.224	0.33
307.436	0.36
307.649	0.2
307.861	0.27
308.073	0.27
308.285	0.26
308.497	0.15
308.709	0.22
308.921	0.26
309.133	0.33
309.346	0.22
309.558	0.24
309.77	0.33
309.982	0.36
310.194	0.31
310.406	0.2
310.617	0.39
310.829	0.28
311.041	0.3
311.253	0.21
311.465	0.27
311.677	0.25
311.889	0.24
312.101	0.23
312.313	0.31
312.524	0.37
312.736	0.15
312.948	0.26
313.16	0.38
313.372	0.33
313.583	0.31
313.795	0.21
314.007	0.23
314.218	0.32
314.43	0.23
314.642	0.25
314.853	0.18
315.065	0.29
315.277	0.22
315.488	0.29
315.7	0.34
315.912	0.3
316.123	0.23
316.335	0.24
316.546	0.41
316.758	0.28
316.969	0.24
317.181	0.27
317.392	0.26
317.604	0.33
317.815	0.21
318.026	0.23
318.238	0.27
318.449	0.32
318.661	0.18
318.872	0.18
319.083	0.22
319.295	0.3
319.506	0.25
319.717	0.23
319.929	0.32
320.14	0.26
320.351	0.25
320.562	0.22
320.774	0.31
320.985	0.24
321.196	0.18
321.407	0.19
321.618	0.28
321.829	0.24
322.041	0.27
322.252	0.26
322.463	0.32
322.674	0.32
322.885	0.2
323.096	0.22
323.307	0.3
323.518	0.27
323.729	0.24
323.94	0.2
324.151	0.23
324.362	0.3
324.573	0.27
324.784	0.23
324.995	0.32
325.206	0.29
325.417	0.23
325.628	0.22
325.838	0.25
326.049	0.26
326.26	0.29
326.471	0.2
326.682	0.27
326.892	0.28
327.103	0.23
327.314	0.23
327.525	0.34
327.735	0.29
327.946	0.24
328.157	0.2
328.368	0.32
328.578	0.27
328.789	0.24
328.999	0.24
329.21	0.24
329.421	0.34
329.631	0.24
329.842	0.16
330.052	0.25
330.263	0.25
330.473	0.27
330.684	0.21
330.894	0.28
331.105	0.33
331.315	0.29
331.526	0.2
331.736	0.35
331.947	0.28
332.157	0.31
332.367	0.19
332.578	0.32
332.788	0.33
332.999	0.29
333.209	0.22
333.419	0.19
333.629	0.28
333.84	0.28
334.05	0.25
334.26	0.37
334.47	0.23
334.681	0.32
334.891	0.26
335.101	0.3
335.311	0.35
335.521	0.27
335.732	0.19
335.942	0.34
336.152	0.33
336.362	0.29
336.572	0.3
336.782	0.33
336.992	0.24
337.202	0.22
337.412	0.25
337.622	0.33
337.832	0.25
338.042	0.24
338.252	0.21
338.462	0.25
338.672	0.29
338.882	0.24
339.092	0.29
339.302	0.39
339.511	0.32
339.721	0.25
339.931	0.17
340.141	0.33
340.351	0.33
340.561	0.3
340.77	0.28
340.98	0.26
341.19	0.27
341.4	0.23
341.609	0.17
341.819	0.29
342.029	0.24
342.238	0.27
342.448	0.24
342.658	0.32
342.867	0.25
343.077	0.28
343.286	0.22
343.496	0.29
343.706	0.33
343.915	0.23
344.125	0.28
344.334	0.32
344.544	0.21
344.753	0.21
344.963	0.24
345.172	0.21
345.381	0.24
345.591	0.22
345.8	0.22
346.01	0.31
346.219	0.31
346.428	0.17
346.638	0.24
346.847	0.3
347.056	0.33
347.266	0.23
347.475	0.19
347.684	0.32
347.893	0.3
348.103	0.26
348.312	0.23
348.521	0.28
348.73	0.28
348.94	0.25
349.149	0.22
349.358	0.27
349.567	0.21
349.776	0.18
349.985	0.2
350.194	0.28
350.403	0.3
350.612	0.2
350.821	0.16
351.03	0.27
351.239	0.19
351.448	0.26
351.657	0.22
351.866	0.35
352.075	0.3
352.284	0.32
352.493	0.18
352.702	0.3
352.911	0.26
353.12	0.27
353.329	0.22
353.538	0.26
353.746	0.26
353.955	0.22
354.164	0.24
354.373	0.24
354.582	0.29
354.79	0.25
354.999	0.26
355.208	0.19
355.416	0.37
355.625	0.22
355.834	0.22
356.042	0.32
356.251	0.26
356.46	0.19
356.668	0.24
356.877	0.36
357.085	0.29
357.294	0.15
357.503	0.26
357.711	0.27
357.92	0.4
358.128	0.27
358.337	0.22
358.545	0.29
358.754	0.23
358.962	0.3
359.17	0.19
359.379	0.33
359.587	0.28
359.796	0.25
360.004	0.3
360.212	0.32
360.421	0.3
360.629	0.21
360.837	0.25
361.046	0.34
361.254	0.39
361.462	0.25
361.67	0.24
361.879	0.32
362.087	0.31
362.295	0.26
362.503	0.21
362.711	0.15
362.92	0.21
363.128	0.2
363.336	0.19
363.544	0.15
363.752	0.25
363.96	0.23
364.168	0.17
364.376	0.3
364.584	0.26
364.792	0.37
365	0.27
365.208	0.28
365.416	0.33
365.624	0.32
365.832	0.18
366.04	0.34
366.248	0.28
366.456	0.26
366.664	0.26
366.872	0.23
367.079	0.25
367.287	0.22
367.495	0.28
367.703	0.27
367.911	0.23
368.118	0.23
368.326	0.22
368.534	0.17
368.742	0.28
368.949	0.14
369.157	0.2
369.365	0.3
369.572	0.22
369.78	0.2
369.988	0.29
370.195	0.26
370.403	0.31
370.61	0.2
370.818	0.27
371.026	0.36
371.233	0.27
371.441	0.26
371.648	0.24
371.856	0.3
372.063	0.24
372.271	0.24
372.478	0.23
372.685	0.24
372.893	0.34
373.1	0.25
373.308	0.2
373.515	0.4
373.722	0.3
373.93	0.23
374.137	0.28
374.344	0.35
374.552	0.33
374.759	0.26
374.966	0.25
375.173	0.24
375.381	0.35
375.588	0.26
375.795	0.19
376.002	0.24
376.209	0.19
376.417	0.23
376.624	0.29
376.831	0.28
377.038	0.25
377.245	0.16
377.452	0.23
377.659	0.27
377.866	0.2
378.073	0.23
378.28	0.24
378.487	0.38
378.694	0.27
378.901	0.23
379.108	0.24
379.315	0.33
379.522	0.38
379.729	0.29
379.936	0.25
380.143	0.28
380.35	0.28
380.557	0.25
380.763	0.28
380.97	0.29
381.177	0.29
381.384	0.3
381.591	0.26
381.797	0.31
382.004	0.32
382.211	0.31
382.418	0.25
382.624	0.28
382.831	0.35
383.038	0.22
383.244	0.3
383.451	0.26
383.658	0.32
383.864	0.26
384.071	0.22
384.277	0.39
384.484	0.25
384.69	0.32
384.897	0.26
385.103	0.26
385.31	0.25
385.516	0.24
385.723	0.26
385.929	0.26
386.136	0.21
386.342	0.29
386.549	0.25
386.755	0.36
386.961	0.32
387.168	0.28
387.374	0.24
387.58	0.33
387.787	0.33
387.993	0.3
388.199	0.3
388.406	0.26
388.612	0.27
388.818	0.26
389.024	0.24
389.231	0.3
389.437	0.39
389.643	0.31
389.849	0.3
390.055	0.28
390.261	0.3
390.467	0.34
390.674	0.26
390.88	0.3
391.086	0.34
391.292	0.27
391.498	0.33
391.704	0.32
391.91	0.28
392.116	0.29
392.322	0.22
392.528	0.33
392.734	0.28
392.94	0.29
393.146	0.3
393.352	0.35
393.557	0.25
393.763	0.33
393.969	0.38
394.175	0.32
394.381	0.33
394.587	0.22
394.792	0.29
394.998	0.34
395.204	0.34
395.41	0.27
395.615	0.3
395.821	0.36
396.027	0.37
396.233	0.25
396.438	0.33
396.644	0.42
396.85	0.36
397.055	0.32
397.261	0.28
397.466	0.44
397.672	0.32
397.878	0.4
398.083	0.4
398.289	0.35
398.494	0.42
398.7	0.34
398.905	0.25
399.111	0.46
399.316	0.26
399.522	0.36
399.727	0.3
399.932	0.36
400.138	0.26
400.343	0.37
400.549	0.37
400.754	0.36
400.959	0.35
401.165	0.37
401.37	0.34
401.575	0.49
401.78	0.4
401.986	0.38
402.191	0.32
402.396	0.39
402.601	0.42
402.807	0.43
403.012	0.42
403.217	0.47
403.422	0.38
403.627	0.46
403.832	0.37
404.037	0.49
404.243	0.43
404.448	0.42
404.653	0.41
404.858	0.47
405.063	0.48
405.268	0.39
405.473	0.4
405.678	0.42
405.883	0.64
406.088	0.52
406.293	0.41
406.498	0.47
406.703	0.54
406.907	0.46
407.112	0.41
407.317	0.5
407.522	0.5
407.727	0.45
407.932	0.54
408.136	0.74
408.341	0.54
408.546	0.55
408.751	0.56
408.956	0.55
409.16	0.68
409.365	0.64
409.57	0.6
409.774	0.59
409.979	0.63
410.184	0.68
410.388	0.59
410.593	0.74
410.798	0.73
411.002	0.71
411.207	0.72
411.411	0.76
411.616	0.69
411.82	0.86
412.025	0.84
412.229	0.81
412.434	0.98
412.638	0.86
412.843	0.91
413.047	0.91
413.252	0.92
413.456	0.97
413.66	1.01
413.865	0.96
414.069	1.13
414.273	1.05
414.478	1.03
414.682	1.09
414.886	1.13
415.091	1.08
415.295	1.17
415.499	1.35
415.703	1.29
415.908	1.4
416.112	1.21
416.316	1.49
416.52	1.48
416.724	1.4
416.929	1.52
417.133	1.7
417.337	1.59
417.541	1.68
417.745	1.73
417.949	1.81
418.153	1.89
418.357	1.83
418.561	2.08
418.765	2.01
418.969	2.2
419.173	2.25
419.377	2.24
419.581	2.41
419.785	2.34
419.989	2.48
420.193	2.6
420.397	2.6
420.601	2.79
420.804	2.9
421.008	2.86
421.212	2.94
421.416	2.97
421.62	2.98
421.823	3.07
422.027	3.29
422.231	3.24
422.435	3.18
422.638	3.26
422.842	3.39
423.046	3.39
423.249	3.57
423.453	3.63
423.657	3.85
423.86	3.87
424.064	4.01
424.268	4.14
424.471	4.12
424.675	4.27
424.878	4.46
425.082	4.49
425.285	4.72
425.489	4.7
425.692	4.76
425.896	4.82
426.099	4.97
426.303	5.14
426.506	5.18
426.71	5.54
426.913	5.66
427.116	5.83
427.32	5.78
427.523	5.96
427.726	6.19
427.93	6.25
428.133	6.59
428.336	6.64
428.54	6.82
428.743	7.09
428.946	7.38
429.149	7.37
429.353	7.42
429.556	7.48
429.759	7.41
429.962	7.59
430.165	7.84
430.368	7.46
430.571	7.43
430.775	7.59
430.978	7.55
431.181	7.68
431.384	7.8
431.587	7.76
431.79	8.16
431.993	8.12
432.196	8.47
432.399	8.86
432.602	8.97
432.805	9.07
433.008	9.46
433.211	9.42
433.414	9.67
433.616	9.77
433.819	9.75
434.022	9.81
434.225	10.16
434.428	10.14
434.631	10.65
434.833	10.32
435.036	10.67
435.239	10.75
435.442	10.89
435.645	10.93
435.847	10.92
436.05	11.43
436.253	11.46
436.455	11.57
436.658	11.45
436.861	11.83
437.063	11.91
437.266	11.91
437.468	12.29
437.671	12.57
437.874	12.55
438.076	12.39
438.279	12.87
438.481	12.81
438.684	13.61
438.886	13.19
439.089	13.49
439.291	13.44
439.494	13.87
439.696	14.01
439.899	14.48
440.101	14.98
440.303	15.16
440.506	15.88
440.708	15.57
440.91	15.94
441.113	15.97
441.315	16.21
441.517	15.98
441.72	16.52
441.922	16.04
442.124	16.04
442.326	16.38
442.529	16.77
442.731	16.64
442.933	16.94
443.135	16.79
443.337	16.76
443.539	17.38
443.742	17.01
443.944	17.71
444.146	17.4
444.348	17.46
444.55	17.31
444.752	17.54
444.954	17.46
445.156	17.49
445.358	17.87
445.56	18.07
445.762	17.95
445.964	18.14
446.166	17.97
446.368	18.11
446.57	18.1
446.772	17.69
446.974	17.59
447.175	17.9
447.377	17.57
447.579	18.1
447.781	17.63
447.983	17.64
448.184	17.19
448.386	17.64
448.588	16.94
448.79	17.03
448.991	17.48
449.193	17.44
449.395	16.85
449.597	16.47
449.798	16.43
450	16.02
450.202	15.88
450.403	15.95
450.605	15.89
450.806	15.48
451.008	15.41
451.21	15.14
451.411	14.72
451.613	14.01
451.814	14.38
452.016	14.32
452.217	13.58
452.419	13.57
452.62	13.42
452.821	13.03
453.023	12.98
453.224	12.65
453.426	12.26
453.627	11.43
453.828	11.68
454.03	11.74
454.231	11.71
454.432	11.46
454.634	11.32
454.835	11.02
455.036	10.92
455.238	10.39
455.439	10.26
455.64	9.91
455.841	9.87
456.042	9.96
456.244	9.69
456.445	9.35
456.646	8.96
456.847	9.02
457.048	8.89
457.249	8.87
457.45	8.66
457.651	8.12
457.852	7.95
458.054	7.66
458.255	7.49
458.456	7.64
458.657	7.47
458.858	6.94
459.058	6.96
459.259	7.06
459.46	6.71
459.661	6.67
459.862	6.81
460.063	6.56
460.264	6.5
460.465	6.21
460.666	6.37
460.866	6.05
461.067	5.79
461.268	5.77
461.469	5.73
461.67	5.65
461.87	5.4
462.071	5.39
462.272	5.39
462.473	5.34
462.673	5.52
462.874	5.37
463.075	5.34
463.275	5.3
463.476	5.39
463.676	5.36
463.877	5.12
464.078	5.1
464.278	5.19
464.479	5.03
464.679	4.96
464.88	4.89
465.08	4.81
465.281	4.75
465.481	4.49
465.682	4.28
465.882	4.34
466.083	4.23
466.283	4.18
466.483	4.12
466.684	3.98
466.884	3.75
467.085	3.82
467.285	4
467.485	3.79
467.686	3.72
467.886	3.62
468.086	3.56
468.286	3.55
468.487	3.64
468.687	3.4
468.887	3.39
469.087	3.57
469.287	3.36
469.488	3.18
469.688	3.3
469.888	3.37
470.088	3.3
470.288	3.2
470.488	3.22
470.688	3.02
470.888	2.93
471.088	2.85
471.288	2.95
471.488	2.94
471.688	2.9
471.888	2.79
472.088	2.99
472.288	2.89
472.488	2.8
472.688	2.66
472.888	2.74
473.088	2.72
473.288	2.58
473.488	2.61
473.688	2.74
473.887	2.61
474.087	2.48
474.287	2.57
474.487	2.47
474.687	2.56
474.886	2.52
475.086	2.41
475.286	2.44
475.486	2.39
475.685	2.38
475.885	2.34
476.085	2.45
476.284	2.37
476.484	2.35
476.684	2.32
476.883	2.42
477.083	2.34
477.282	2.25
477.482	2.28
477.681	2.2
477.881	2.16
478.08	2.17
478.28	2.1
478.479	2.17
478.679	2.26
478.878	2.17
479.078	2.14
479.277	2.21
479.477	2.17
479.676	2.1
479.875	2.07
480.075	2.04
480.274	2.13
480.473	2.15
480.673	2.1
480.872	2.15
481.071	2.11
481.271	2.15
481.47	2.05
481.669	2.04
481.868	2.07
482.067	2.05
482.267	1.99
482.466	2.02
482.665	2.01
482.864	2.05
483.063	2
483.262	2.09
483.461	2.13
483.661	2.11
483.86	2.04
484.059	2.14
484.258	2.12
484.457	2.06
484.656	2.07
484.855	2.18
485.054	1.98
485.253	2.07
485.452	2.06
485.651	2.1
485.849	2.08
486.048	2.04
486.247	2.06
486.446	2.12
486.645	2.07
486.844	2.13
487.043	2.12
487.241	2.19
487.44	2.1
487.639	2.19
487.838	2.17
488.037	2.17
488.235	2.23
488.434	2.2
488.633	2.06
488.831	2.25
489.03	2.27
489.229	2.27
489.427	2.25
489.626	2.32
489.825	2.36
490.023	2.38
490.222	2.34
490.42	2.36
490.619	2.39
490.817	2.38
491.016	2.37
491.214	2.45
491.413	2.43
491.611	2.42
491.81	2.45
492.008	2.49
492.207	2.59
492.405	2.56
492.604	2.47
492.802	2.56
493	2.62
493.199	2.63
493.397	2.62
493.595	2.72
493.794	2.68
493.992	2.82
494.19	2.73
494.388	2.87
494.587	2.76
494.785	2.78
494.983	2.75
495.181	2.87
495.379	2.9
495.578	2.92
495.776	2.94
495.974	2.93
496.172	2.99
496.37	3.07
496.568	3.11
496.766	3.05
496.964	3.17
497.162	3.17
497.36	3.21
497.558	3.27
497.756	3.26
497.954	3.28
498.152	3.33
498.35	3.44
498.548	3.34
498.746	3.44
498.944	3.41
499.142	3.42
499.34	3.5
499.538	3.61
499.736	3.49
499.933	3.62
500.131	3.61
500.329	3.82
500.527	3.75
500.725	3.84
500.922	3.9
501.12	3.83
501.318	3.93
501.516	3.88
501.713	3.99
501.911	3.93
502.109	3.87
502.306	4.08
502.504	4
502.701	4.01
502.899	4.13
503.097	4.36
503.294	4.15
503.492	4.27
503.689	4.36
503.887	4.37
504.084	4.49
504.282	4.43
504.479	4.35
504.677	4.53
504.874	4.47
505.072	4.4
505.269	4.63
505.466	4.63
505.664	4.72
505.861	4.6
506.059	4.72
506.256	4.73
506.453	4.79
506.651	4.91
506.848	4.85
507.045	4.89
507.242	4.95
507.44	4.99
507.637	5.05
507.834	4.99
508.031	5.11
508.229	5.08
508.426	5.01
508.623	5.25
508.82	5.24
509.017	5.23
509.214	5.17
509.411	5.34
509.608	5.29
509.805	5.36
510.003	5.4
510.2	5.44
510.397	5.57
510.594	5.48
510.791	5.55
510.988	5.58
511.184	5.53
511.381	5.46
511.578	5.59
511.775	5.81
511.972	5.66
512.169	5.71
512.366	5.84
512.563	5.91
512.76	5.87
512.956	5.86
513.153	5.9
513.35	5.87
513.547	5.84
513.744	5.98
513.94	5.91
514.137	6.01
514.334	6.05
514.53	6.12
514.727	6.22
514.924	6.25
515.12	6.15
515.317	6.2
515.514	6.09
515.71	6.14
515.907	6.35
516.103	6.32
516.3	6.25
516.497	6.41
516.693	6.36
516.89	6.41
517.086	6.4
517.283	6.5
517.479	6.37
517.676	6.51
517.872	6.62
518.068	6.53
518.265	6.54
518.461	6.5
518.658	6.59
518.854	6.59
519.05	6.72
519.247	6.66
519.443	6.62
519.639	6.82
519.836	6.68
520.032	6.64
520.228	6.84
520.424	6.81
520.621	6.87
520.817	6.87
521.013	6.83
521.209	6.99
521.405	7
521.601	6.97
521.798	6.94
521.994	6.94
522.19	6.9
522.386	6.9
522.582	7.02
522.778	7.17
522.974	7.05
523.17	7.09
523.366	6.96
523.562	7.13
523.758	7.11
523.954	6.96
524.15	7.16
524.346	7.16
524.542	7.15
524.738	7.11
524.934	7.26
525.129	7.25
525.325	7.13
525.521	7.22
525.717	7.36
525.913	7.27
526.109	7.18
526.304	7.35
526.5	7.34
526.696	7.38
526.892	7.31
527.087	7.52
527.283	7.4
527.479	7.43
527.674	7.29
527.87	7.4
528.066	7.39
528.261	7.43
528.457	7.33
528.653	7.51
528.848	7.51
529.044	7.56
529.239	7.39
529.435	7.46
529.63	7.4
529.826	7.51
530.021	7.47
530.217	7.48
530.412	7.51
530.608	7.54
530.803	7.54
530.999	7.42
531.194	7.52
531.389	7.64
531.585	7.56
531.78	7.72
531.975	7.61
532.171	7.7
532.366	7.63
532.561	7.68
532.757	7.63
532.952	7.77
533.147	7.56
533.342	7.66
533.538	7.62
533.733	7.88
533.928	7.48
534.123	7.63
534.318	7.7
534.513	7.67
534.709	7.84
534.904	7.76
535.099	7.84
535.294	7.81
535.489	7.79
535.684	7.72
535.879	7.77
536.074	7.77
536.269	7.82
536.464	7.87
536.659	7.8
536.854	7.81
537.049	7.84
537.244	7.85
537.439	7.81
537.634	7.83
537.828	7.89
538.023	7.85
538.218	7.83
538.413	7.72
538.608	7.83
538.803	7.83
538.997	7.79
539.192	7.82
539.387	7.84
539.582	7.82
539.776	7.78
539.971	7.89
540.166	8
540.36	7.84
540.555	7.96
540.75	7.94
540.944	7.97
541.139	7.98
541.334	7.92
541.528	7.94
541.723	8.02
541.917	7.99
542.112	7.87
542.306	7.83
542.501	7.9
542.695	7.93
542.89	7.81
543.084	7.92
543.279	7.98
543.473	8.03
543.668	7.94
543.862	7.8
544.056	7.86
544.251	7.99
544.445	8.03
544.64	8.04
544.834	7.73
545.028	7.63
545.222	7.93
545.417	8.09
545.611	8.06
545.805	7.99
546	7.86
546.194	7.96
546.388	8.03
546.582	7.96
546.776	7.95
546.97	7.99
547.165	7.98
547.359	7.97
547.553	7.85
547.747	7.92
547.941	8.17
548.135	7.95
548.329	8.05
548.523	8.03
548.717	7.99
548.911	7.91
549.105	7.88
549.299	8.05
549.493	8.05
549.687	7.94
549.881	8.1
550.075	8.04
550.269	7.94
550.463	8.03
550.657	8.05
550.85	7.99
551.044	8.02
551.238	8.08
551.432	7.93
551.626	8.05
551.82	8.04
552.013	7.97
552.207	8.15
552.401	8.09
552.594	8.02
552.788	7.94
552.982	7.96
553.176	7.92
553.369	8.18
553.563	8.11
553.756	8.01
553.95	8.05
554.144	8.03
554.337	8.12
554.531	7.83
554.724	8.04
554.918	8.1
555.111	7.93
555.305	8.01
555.498	8
555.692	8.1
555.885	8.03
556.079	7.96
556.272	8.05
556.466	8.06
556.659	7.98
556.852	8.13
557.046	8.01
557.239	7.91
557.432	7.96
557.626	8.05
557.819	8.12
558.012	8.06
558.206	8.21
558.399	8.08
558.592	7.99
558.785	8
558.979	8.08
559.172	8.02
559.365	8.09
559.558	8.01
559.751	7.98
559.944	8.18
560.138	8.02
560.331	8.06
560.524	8.04
560.717	8.03
560.91	8.04
561.103	8.07
561.296	7.91
561.489	8.04
561.682	8.12
561.875	8.1
562.068	8.13
562.261	7.97
562.454	8.14
562.647	7.98
562.84	8.04
563.032	8.08
563.225	7.96
563.418	8.05
563.611	8.08
563.804	8.04
563.997	7.93
564.19	7.85
564.382	8.06
564.575	8.03
564.768	7.97
564.961	8.04
565.153	7.94
565.346	7.89
565.539	8.09
565.731	7.96
565.924	8.07
566.117	8.21
566.309	8.03
566.502	7.93
566.695	8.01
566.887	8.11
567.08	7.98
567.272	8.01
567.465	7.93
567.657	8.06
567.85	7.9
568.042	8
568.235	8.06
568.427	7.83
568.62	8.03
568.812	7.99
569.005	8.08
569.197	7.87
569.389	7.99
569.582	7.95
569.774	7.97
569.966	7.91
570.159	7.85
570.351	7.9
570.543	7.93
570.736	7.94
570.928	7.8
571.12	7.97
571.312	7.9
571.505	7.7
571.697	7.92
571.889	7.94
572.081	7.89
572.273	7.85
572.465	7.94
572.658	7.92
572.85	7.87
573.042	7.93
573.234	7.86
573.426	7.84
573.618	7.89
573.81	7.92
574.002	7.88
574.194	7.92
574.386	7.85
574.578	7.71
574.77	7.84
574.962	7.89
575.154	7.69
575.346	7.71
575.538	7.77
575.729	7.73
575.921	7.84
576.113	7.87
576.305	7.87
576.497	7.98
576.689	7.69
576.88	7.7
577.072	7.82
577.264	7.76
577.456	7.76
577.647	7.8
577.839	7.92
578.031	7.77
578.223	7.69
578.414	7.63
578.606	7.77
578.798	7.83
578.989	7.76
579.181	7.83
579.372	7.79
579.564	7.79
579.755	7.64
579.947	7.6
580.139	7.77
580.33	7.61
580.522	7.73
580.713	7.69
580.905	7.64
581.096	7.78
581.287	7.62
581.479	7.65
581.67	7.7
581.862	7.64
582.053	7.57
582.244	7.51
582.436	7.66
582.627	7.57
582.818	7.49
583.01	7.54
583.201	7.64
583.392	7.61
583.583	7.58
583.775	7.4
583.966	7.52
584.157	7.51
584.348	7.64
584.54	7.43
584.731	7.51
584.922	7.48
585.113	7.38
585.304	7.54
585.495	7.46
585.686	7.58
585.877	7.53
586.068	7.59
586.259	7.54
586.45	7.42
586.641	7.41
586.832	7.5
587.023	7.4
587.214	7.4
587.405	7.51
587.596	7.33
587.787	7.28
587.978	7.34
588.169	7.32
588.36	7.25
588.551	7.37
588.742	7.3
588.932	7.38
589.123	7.17
589.314	7.42
589.505	7.24
589.696	7.25
589.886	7.33
590.077	7.24
590.268	7.22
590.458	7.04
590.649	7.07
590.84	7.21
591.03	7.25
591.221	7.14
591.412	7.05
591.602	7.24
591.793	7.19
591.984	7.15
592.174	7.14
592.365	7.28
592.555	7.05
592.746	7.01
592.936	7.05
593.127	7.08
593.317	7.15
593.508	7.08
593.698	6.99
593.889	7.05
594.079	7.06
594.269	6.93
594.46	6.95
594.65	6.97
594.84	6.97
595.031	6.81
595.221	6.88
595.411	6.98
595.602	6.95
595.792	6.83
595.982	6.82
596.172	6.95
596.363	6.84
596.553	6.81
596.743	6.94
596.933	6.86
597.123	6.88
597.314	6.69
597.504	6.67
597.694	6.87
597.884	6.75
598.074	6.76
598.264	6.69
598.454	6.79
598.644	6.7
598.834	6.72
599.024	6.58
599.214	6.57
599.404	6.64
599.594	6.7
599.784	6.57
599.974	6.63
600.164	6.58
600.354	6.53
600.544	6.51
600.734	6.55
600.924	6.57
601.114	6.4
601.303	6.46
601.493	6.5
601.683	6.53
601.873	6.5
602.063	6.41
602.252	6.41
602.442	6.36
602.632	6.38
602.821	6.26
603.011	6.38
603.201	6.33
603.39	6.29
603.58	6.22
603.77	6.32
603.959	6.36
604.149	6.31
604.339	6.23
604.528	6.37
604.718	6.28
604.907	6.23
605.097	6.18
605.286	6.16
605.476	6.14
605.665	6.17
605.855	6.11
606.044	6.24
606.234	6.18
606.423	6.15
606.612	6.06
606.802	6.06
606.991	6.17
607.181	6.1
607.37	6.07
607.559	5.86
607.749	6.01
607.938	5.92
608.127	5.94
608.316	6.03
608.506	5.94
608.695	5.96
608.884	5.89
609.073	5.98
609.263	5.94
609.452	5.92
609.641	5.75
609.83	5.73
610.019	5.86
610.208	5.73
610.397	5.79
610.586	5.78
610.775	5.76
610.965	5.72
611.154	5.61
611.343	5.68
611.532	5.65
611.721	5.79
611.91	5.65
612.099	5.62
612.287	5.58
612.476	5.5
612.665	5.65
612.854	5.55
613.043	5.61
613.232	5.55
613.421	5.49
613.61	5.5
613.798	5.48
613.987	5.51
614.176	5.43
614.365	5.45
614.554	5.47
614.742	5.45
614.931	5.31
615.12	5.42
615.309	5.37
615.497	5.34
615.686	5.2
615.875	5.36
616.063	5.28
616.252	5.24
616.44	5.24
616.629	5.21
616.818	5.25
617.006	5.19
617.195	5.17
617.383	5.18
617.572	5.16
617.76	5.08
617.949	5.09
618.137	5.2
618.326	5.17
618.514	5.02
618.703	4.95
618.891	5.09
619.079	4.97
619.268	5.06
619.456	4.95
619.644	5.06
619.833	4.91
620.021	4.93
620.209	4.86
620.398	4.94
620.586	4.87
620.774	4.94
620.962	4.92
621.151	4.99
621.339	4.89
621.527	4.78
621.715	4.76
621.903	4.79
622.092	4.7
622.28	4.88
622.468	4.63
622.656	4.77
622.844	4.64
623.032	4.74
623.22	4.57
623.408	4.78
623.596	4.71
623.784	4.74
623.972	4.57
624.16	4.6
624.348	4.62
624.536	4.64
624.724	4.58
624.912	4.55
625.1	4.61
625.288	4.52
625.476	4.45
625.664	4.57
625.851	4.47
626.039	4.5
626.227	4.45
626.415	4.44
626.603	4.32
626.79	4.45
626.978	4.41
627.166	4.45
627.354	4.3
627.541	4.34
627.729	4.21
627.917	4.42
628.104	4.34
628.292	4.26
628.48	4.28
628.667	4.24
628.855	4.31
629.042	4.32
629.23	4.2
629.418	4.21
629.605	4.25
629.793	4.11
629.98	4.14
630.168	4.13
630.355	4.11
630.543	4.08
630.73	4.02
630.917	4.07
631.105	4.17
631.292	4.06
631.48	4.06
631.667	4.15
631.854	4.01
632.042	3.99
632.229	3.88
632.416	3.96
632.604	3.88
632.791	3.84
632.978	3.96
633.165	3.88
633.353	3.93
633.54	3.89
633.727	3.72
633.914	3.77
634.101	3.72
634.289	3.87
634.476	3.74
634.663	3.71
634.85	3.75
635.037	3.68
635.224	3.66
635.411	3.81
635.598	3.71
635.785	3.67
635.972	3.68
636.159	3.7
636.346	3.62
636.533	3.6
636.72	3.61
636.907	3.59
637.094	3.59
637.281	3.41
637.468	3.55
637.655	3.58
637.842	3.62
638.029	3.45
638.215	3.52
638.402	3.51
638.589	3.38
638.776	3.43
638.963	3.41
639.149	3.47
639.336	3.49
639.523	3.44
639.709	3.4
639.896	3.34
640.083	3.39
640.27	3.43
640.456	3.36
640.643	3.38
640.829	3.22
641.016	3.26
641.203	3.21
641.389	3.31
641.576	3.28
641.762	3.2
641.949	3.2
642.135	3.23
642.322	3.19
642.508	3.09
642.695	3.16
642.881	3.14
643.068	3.08
643.254	3.13
643.441	3.16
643.627	3.14
643.813	3.02
644	3.11
644.186	3.01
644.372	3.01
644.559	3.03
644.745	2.99
644.931	2.98
645.118	2.98
645.304	2.96
645.49	2.96
645.676	2.95
645.862	2.94
646.049	3.01
646.235	2.84
646.421	3.09
646.607	3
646.793	2.85
646.979	2.79
647.165	2.87
647.352	2.87
647.538	2.9
647.724	2.86
647.91	2.85
648.096	2.82
648.282	2.84
648.468	2.75
648.654	2.82
648.84	2.86
649.026	2.74
649.212	2.67
649.397	2.68
649.583	2.66
649.769	2.71
649.955	2.68
650.141	2.69
650.327	2.73
650.513	2.61
650.698	2.61
650.884	2.53
651.07	2.65
651.256	2.63
651.442	2.58
651.627	2.52
651.813	2.58
651.999	2.55
652.184	2.53
652.37	2.45
652.556	2.51
652.741	2.58
652.927	2.39
653.113	2.44
653.298	2.49
653.484	2.49
653.669	2.4
653.855	2.42
654.04	2.55
654.226	2.47
654.412	2.36
654.597	2.32
654.782	2.44
654.968	2.47
655.153	2.38
655.339	2.34
655.524	2.3
655.71	2.41
655.895	2.35
656.08	2.3
656.266	2.42
656.451	2.33
656.636	2.21
656.822	2.26
657.007	2.32
657.192	2.29
657.378	2.21
657.563	2.24
657.748	2.27
657.933	2.25
658.118	2.17
658.304	2.18
658.489	2.29
658.674	2.27
658.859	2.18
659.044	2.18
659.229	2.21
659.414	2.13
659.599	2.15
659.785	2.02
659.97	2.13
660.155	2.11
660.34	2.15
660.525	2.1
660.71	2.09
660.895	2.15
661.08	2.02
661.264	2.03
661.449	2.14
661.634	2.03
661.819	2.08
662.004	1.99
662.189	1.92
662.374	1.97
662.559	1.94
662.743	1.86
662.928	1.99
663.113	1.91
663.298	1.89
663.483	1.95
663.667	1.97
663.852	1.87
664.037	1.97
664.221	1.85
664.406	1.94
664.591	1.94
664.775	1.91
664.96	1.78
665.145	1.86
665.329	1.91
665.514	1.85
665.698	1.78
665.883	1.71
666.068	1.88
666.252	1.84
666.437	1.79
666.621	1.79
666.806	1.83
666.99	1.74
667.174	1.72
667.359	1.87
667.543	1.73
667.728	1.75
667.912	1.65
668.096	1.78
668.281	1.68
668.465	1.78
668.649	1.69
668.834	1.68
669.018	1.73
669.202	1.68
669.387	1.62
669.571	1.75
669.755	1.66
669.939	1.62
670.124	1.63
670.308	1.74
670.492	1.67
670.676	1.67
670.86	1.59
671.044	1.6
671.228	1.69
671.413	1.54
671.597	1.58
671.781	1.56
671.965	1.63
672.149	1.53
672.333	1.56
672.517	1.54
672.701	1.58
672.885	1.55
673.069	1.44
673.253	1.67
673.437	1.52
673.621	1.49
673.804	1.56
673.988	1.51
674.172	1.47
674.356	1.41
674.54	1.5
674.724	1.58
674.908	1.48
675.091	1.53
675.275	1.52
675.459	1.51
675.643	1.52
675.826	1.45
676.01	1.41
676.194	1.42
676.377	1.48
676.561	1.49
676.745	1.41
676.928	1.46
677.112	1.48
677.296	1.33
677.479	1.36
677.663	1.38
677.846	1.41
678.03	1.39
678.213	1.31
678.397	1.41
678.58	1.34
678.764	1.35
678.947	1.29
679.131	1.39
679.314	1.47
679.498	1.33
679.681	1.31
679.865	1.38
680.048	1.29
680.231	1.31
680.415	1.29
680.598	1.31
680.781	1.23
680.965	1.32
681.148	1.26
681.331	1.32
681.514	1.34
681.698	1.16
681.881	1.28
682.064	1.25
682.247	1.27
682.43	1.18
682.614	1.22
682.797	1.32
682.98	1.32
683.163	1.14
683.346	1.2
683.529	1.23
683.712	1.17
683.895	1.28
684.078	1.12
684.261	1.16
684.444	1.23
684.627	1.23
684.81	1.06
684.993	1.23
685.176	1.24
685.359	1.1
685.542	1.15
685.725	1.24
685.908	1.16
686.091	1.11
686.274	1.15
686.457	1.21
686.639	1.19
686.822	1.16
687.005	1.11
687.188	1.16
687.371	1.21
687.553	1.21
687.736	1.14
687.919	1.25
688.102	1.14
688.284	1.06
688.467	1.03
688.65	1.08
688.832	1.02
689.015	1.07
689.197	0.95
689.38	1.16
689.563	1.21
689.745	1
689.928	1
690.11	1.03
690.293	1.05
690.475	0.99
690.658	1.04
690.84	1.06
691.023	0.98
691.205	0.95
691.388	1.01
691.57	1.07
691.752	1.07
691.935	0.9
692.117	0.94
692.3	1.01
692.482	0.96
692.664	0.9
692.847	0.96
693.029	1.03
693.211	0.99
693.393	0.9
693.576	0.94
693.758	0.97
693.94	0.9
694.122	0.92
694.304	0.87
694.487	0.96
694.669	1.04
694.851	0.87
695.033	0.85
695.215	0.89
695.397	0.87
695.579	0.95
695.761	0.83
695.943	0.89
696.125	0.98
696.308	0.91
696.49	0.77
696.671	1.1
696.853	0.94
697.035	1.1
697.217	0.82
697.399	1.03
697.581	0.86
697.763	0.92
697.945	0.87
698.127	0.86
698.309	0.95
698.491	0.87
698.672	0.88
698.854	0.84
699.036	0.94
699.218	0.79
699.399	0.97
699.581	0.95
699.763	0.84
699.945	0.74
700.126	0.75
700.308	0.9
700.49	0.86
700.671	0.73
700.853	0.74
701.035	0.8
701.216	0.79
701.398	0.76
701.579	0.8
701.761	0.84
701.943	0.75
702.124	0.72
702.306	0.76
702.487	1.03
702.669	0.79
702.85	0.74
703.031	0.71
703.213	0.94
703.394	0.9
703.576	0.71
703.757	0.88
703.938	0.87
704.12	0.94
704.301	0.77
704.483	0.68
704.664	0.8
704.845	0.93
705.026	0.84
705.208	0.71
705.389	0.73
705.57	0.84
705.751	0.74
705.933	0.74
706.114	0.78
706.295	0.78
706.476	0.67
706.657	0.79
706.838	0.8
707.02	0.84
707.201	0.69
707.382	0.7
707.563	0.77
707.744	0.64
707.925	0.7
708.106	0.67
708.287	0.74
708.468	0.79
708.649	0.72
708.83	0.77
709.011	0.62
709.192	0.78
709.373	0.6
709.554	0.61
709.734	0.81
709.915	0.7
710.096	0.74
710.277	0.45
710.458	0.67
710.639	0.76
710.819	0.57
711	0.63
711.181	0.74
711.362	0.82
711.542	0.68
711.723	0.65
711.904	0.78
712.085	0.74
712.265	0.68
712.446	0.59
712.627	0.65
712.807	0.67
712.988	0.65
713.168	0.52
713.349	0.73
713.53	0.49
713.71	0.52
713.891	0.49
714.071	0.65
714.252	0.61
714.432	0.56
714.613	0.53
714.793	0.63
714.974	0.74
715.154	0.71
715.334	0.71
715.515	0.79
715.695	0.61
715.876	0.58
716.056	0.59
716.236	0.55
716.417	0.59
716.597	0.6
716.777	0.85
716.957	0.64
717.138	0.66
717.318	0.58
717.498	0.44
717.678	0.69
717.859	0.53
718.039	0.53
718.219	0.49
718.399	0.61
718.579	0.44
718.759	0.41
718.939	0.53
719.12	0.63
719.3	0.56
719.48	0.45
719.66	0.4
719.84	0.68
720.02	0.54
720.2	0.54
720.38	0.58
720.56	0.77
720.74	0.51
720.92	0.58
721.1	0.64
721.279	0.66
721.459	0.57
721.639	0.41
721.819	0.5
721.999	0.57
722.179	0.71
722.359	0.43
722.538	0.51
722.718	0.57
722.898	0.59
723.078	0.57
723.257	0.52
723.437	0.6
723.617	0.55
723.797	0.48
723.976	0.5
724.156	0.63
724.336	0.58
724.515	0.75
724.695	0.42
724.874	0.58
725.054	0.62
725.234	0.45
725.413	0.55
725.593	0.53
725.772	0.54
725.952	0.51
726.131	0.5
726.311	0.56
726.49	0.48
726.67	0.48
726.849	0.54
727.028	0.68
727.208	0.49
727.387	0.47
727.567	0.37
727.746	0.48
727.925	0.55
728.105	0.34
728.284	0.53
728.463	0.48
728.643	0.59
728.822	0.44
729.001	0.44
729.18	0.57
729.359	0.64
729.539	0.52
729.718	0.5
729.897	0.59
730.076	0.49
730.255	0.4
730.434	0.54
730.614	0.59
730.793	0.65
730.972	0.43
731.151	0.56
731.33	0.61
731.509	0.64
731.688	0.49
731.867	0.5
732.046	0.4
732.225	0.76
732.404	0.49
732.583	0.46
732.762	0.49
732.941	0.64
733.12	0.51
733.298	0.46
733.477	0.62
733.656	0.48
733.835	0.44
734.014	0.54
734.193	0.5
734.371	0.55
734.55	0.62
734.729	0.28
734.908	0.53
735.086	0.55
735.265	0.56
735.444	0.26
735.623	0.4
735.801	0.36
735.98	0.49
736.159	0.47
736.337	0.5
736.516	0.49
736.694	0.59
736.873	0.45
737.052	0.7
737.23	0.72
737.409	0.42
737.587	0.75
737.766	0.42
737.944	0.41
738.123	0.56
738.301	0.62
738.479	0.55
738.658	0.52
738.836	0.27
739.015	0.49
739.193	0.67
739.371	0.31
739.55	0.42
739.728	0.43
739.906	0.62
740.085	0.64
740.263	0.54
740.441	0.28
740.62	0.74
740.798	0.57
740.976	0.44
741.154	0.34
741.332	0.68
741.511	0.48
741.689	0.43
741.867	0.54
742.045	0.51
742.223	0.38
742.401	0.47
742.579	0.43
742.757	0.63
742.935	0.3
743.114	0.35
743.292	0.47
743.47	0.51
743.648	0.46
743.826	0.4
744.004	0.53
744.181	0.65
744.359	0.31
744.537	0.57
744.715	0.45
744.893	0.52
745.071	0.53
745.249	0.36
745.427	0.37
745.605	0.6
745.782	0.51
745.96	0.55
746.138	0.55
746.316	0.58
746.493	0.38
746.671	0.44
746.849	0.38
747.027	0.67
747.204	0.33
747.382	0.45
747.56	0.29
747.737	0.43
747.915	0.47
748.093	0.46
748.27	0.3
748.448	0.46
748.625	0.26
748.803	0.3
748.98	0.3
749.158	0.54
749.335	0.59
749.513	0.38
749.69	0.38
749.868	0.37
750.045	0.44
750.223	0.37
750.4	0.1
750.578	0.66
750.755	0.48
750.932	0.16
751.11	0.5
751.287	0.32
751.464	0.58
751.642	0.24
751.819	0.51
751.996	0.51
752.173	0.33
752.351	0.31
752.528	0.32
752.705	0.35
752.882	0.37
753.06	0.47
753.237	0.49
753.414	0.67
753.591	0.71
753.768	0.49
753.945	0.3
754.122	0.32
754.299	0.59
754.476	0.28
754.654	0.48
754.831	0.52
755.008	0.45
755.185	0.25
755.362	0.19
755.539	0.5
755.716	0.37
755.892	0.45
756.069	0.37
756.246	0.42
756.423	0.49
756.6	0.49
756.777	0.25
756.954	0.54
757.131	0.33
757.307	0.29
757.484	0.19
757.661	0.35
757.838	0.5
758.015	0.29
758.191	0.39
758.368	0.53
758.545	0.67
758.721	0.48
758.898	0.17
759.075	0.45
759.251	0.46
759.428	0.44
759.605	0.16
759.781	0.4
759.958	0.4
760.134	0.28
760.311	0.19
760.488	0.65
760.664	0.59
760.841	0.3
761.017	0.25
761.194	0.43
761.37	0.56
761.547	0.32
761.723	0.3
761.899	0.57
762.076	0.31
762.252	0.22
762.429	0.27
762.605	0.55
762.781	0.32
762.958	0.5
763.134	0.32
763.31	0.23
763.486	0.64
763.663	0.12
763.839	0.52
764.015	0.15
764.191	0.29
764.368	0.37
764.544	0.22
764.72	0.47
764.896	0.51
765.072	0.45
765.248	0.41
765.425	0.32
765.601	0.53
765.777	0.35
765.953	0.14
766.129	0.39
766.305	0.37
766.481	0.5
766.657	0.35
766.833	0.66
767.009	0.3
767.185	0.24
767.361	0.38
767.537	0.19
767.713	0.58
767.889	0.34
768.065	0.34
768.24	0.47
768.416	0.61
768.592	0.27
768.768	0.32
768.944	0.41
769.12	0.34
769.295	0.33
769.471	0.39
769.647	0.44
769.823	0.49
769.998	0.22
770.174	0.33
770.35	0.84
770.525	0.67
770.701	0.46
770.877	0.39
771.052	0.35
771.228	0.56
771.403	0.36
771.579	0.48
771.755	0.92
771.93	0.32
772.106	0.27
772.281	0.09
772.457	0.45
772.632	0.48
772.808	0.11
772.983	0.41
773.159	0.18
773.334	0.56
773.509	0.41
773.685	0.26
773.86	0.7
774.036	0.59
774.211	0.37
774.386	0.33
774.562	0.5
774.737	0.69
774.912	0.26
775.087	0.46
775.263	0.27
775.438	0.36
775.613	0.3
775.788	0.42
775.964	0.59
776.139	1.02
776.314	0.18
776.489	0.4
776.664	0.43
776.839	0.3
777.014	0.52
777.19	0.46
777.365	0.79
777.54	0.86
777.715	0.42
777.89	0.39
778.065	0.32
778.24	0.32
778.415	0.63
778.59	0.13
778.765	0.42
778.94	0.39
779.115	0.33
779.289	0.34
779.464	0.39
779.639	0.4
779.814	0.07
779.989	0.12
780.164	0.59
780.339	0.5
780.513	0.21
780.688	0.15
780.863	0.48
781.038	0.81
781.212	0.22
781.387	0.4
781.562	0.67
781.737	0.29
781.911	0.66
782.086	0.21
782.261	0.44
782.435	0.57
782.61	0.3
782.784	0.4
782.959	0.66
783.134	0.25
783.308	0.28
783.483	0.35
783.657	0.93
783.832	0.82
784.006	0.02
784.181	0.35
784.355	0.59
784.53	0.19
784.704	0.14
784.878	0.76
785.053	0.64
785.227	0.85
785.402	0.75
785.576	0.54
785.75	0.58
785.925	0.43
786.099	0.41
786.273	0.47
786.448	0.84
786.622	0.69
786.796	0.33
786.97	0.25
787.145	1.07
787.319	0.11
787.493	0.46
787.667	0.1
787.841	0.4
788.015	1.03
788.19	0.18
788.364	0.45
788.538	0.89
788.712	0.64
788.886	0.31
789.06	0.77
789.234	0.6
789.408	0.19
789.582	0.44
789.756	0.46
789.93	0.38
790.104	0.49
790.278	0.66
790.452	0.38
790.626	0.5
790.8	0.08
790.973	0.6
791.147	0.76
791.321	0.82
791.495	0.85
791.669	0.61
791.843	0.51
792.016	0.53
792.19	1.02
792.364	-0.06
792.538	1.2
792.711	0.6
792.885	0.19
793.059	0.12
793.233	0.09
793.406	0.76
793.58	0.5
793.754	0.44
793.927	0.47
794.101	0.97
794.274	0.43
794.448	0.58
794.622	0.17
794.795	1.11
794.969	0.46
795.142	1.06
795.316	0.33
795.489	0.38
795.663	0.94
795.836	0.7
796.009	-0.02
796.183	0.87
796.356	0.64
796.53	0.58
796.703	0.3
796.876	1.12
797.05	0.31
797.223	0.46
797.396	0.5
797.57	0.42
797.743	0.91
797.916	0.29
798.09	0.5
798.263	0.9
798.436	0.56
798.609	0.14
798.782	0.5
798.956	0.64
799.129	0.71
799.302	0.55
799.475	0.43
799.648	0.31
799.821	0.21
799.994	0.65
800.167	-0.15
800.34	0.41
800.514	0.67
800.687	0.43
800.86	0.35
801.033	0.58
801.206	0.81
801.379	0.07
801.551	0.78
801.724	0.74
801.897	1.04
802.07	0.43
802.243	-0.09
802.416	0.94
802.589	0.6
802.762	0.78
802.935	0.62
803.107	0.83
803.28	1.05
803.453	0.8
803.626	0.42
803.798	0.59
803.971	0.38
804.144	0.71
804.317	0.63
804.489	0.84
804.662	0.5
804.835	0.65
805.007	-0.03
805.18	1.06
805.353	0.89
805.525	0.33
805.698	0.33
805.87	0.8
806.043	0.77
806.215	0.05
806.388	0.14
806.56	0.94
806.733	0.89
806.905	0.79
807.078	0.48
807.25	0.63
807.423	0.79
807.595	0.55
807.768	0.29
807.94	0.99
808.112	0.89
808.285	0.64
808.457	0.31
808.629	0.89
808.802	0.96
808.974	0.61
809.146	0.09
809.318	0.5
809.491	0.77
809.663	0.91
809.835	0.23
810.007	0.94
810.18	0.83
810.352	0.18
810.524	0.23
810.696	0.95
810.868	1.28
811.04	0.54
811.212	0.31
811.384	0.99
811.556	0.87
811.728	0.64
811.901	1.56
812.073	0.71
812.245	0.91
812.417	0.72
812.589	-0.18
812.76	0.77
812.932	1.16
813.104	0.82
813.276	0.5
813.448	1.02
813.62	1.02
813.792	0.58
813.964	0.53
814.136	1.08
814.307	0.28
814.479	0.42
814.651	0.28
814.823	1.47
814.995	0.38
815.166	0.9
815.338	0.53
815.51	-0.26
815.681	1.8
815.853	1.02
816.025	0.37
816.196	2.16
816.368	1.37
816.54	0.13
816.711	0.26
816.883	1.5
817.054	1.87
817.226	-0.11
817.398	0.68
817.569	0.63
817.741	0.58
817.912	0.23
818.084	0.7
818.255	1.19
818.426	-0.01
818.598	0.67
818.769	0.36
818.941	1.08
819.112	1.84
819.283	1.18
819.455	0.15
819.626	0.72
819.798	1.47
819.969	0.92
820.14	0.34
820.311	0.75
820.483	1.1
820.654	0.93
820.825	0.76
820.996	0.96
821.168	0.3
821.339	0.82
821.51	-0.04
821.681	0.31
821.852	0.71
822.023	0.12
822.195	-0.29
822.366	1.65
822.537	1
822.708	0.83
822.879	0.01
823.05	1.34
823.221	0.45
823.392	1.21
823.563	1.07
823.734	1.06
823.905	0.78
824.076	0.13
824.247	0.01
824.418	0.86
824.589	1.53
824.759	0.69
824.93	0.62
825.101	-0.18
825.272	1.54
825.443	1.25
825.614	1.87
825.784	0.26
825.955	2.14
826.126	1.18
826.297	1.29
826.467	1.63
826.638	2.1
826.809	0
826.98	0.48
827.15	1.59
827.321	1.17
827.492	1.63
827.662	0.93
827.833	1.91
828.003	2
828.174	0.4
828.345	-0.17
828.515	2.2
828.686	1.24
828.856	0.2
829.027	0.6
829.197	1.6
829.368	1.46
829.538	0.33
829.709	0.3
829.879	1.03
830.049	0.92
830.22	0.82
830.39	0.76
830.56	1.74
830.731	0.82
830.901	0.21
831.072	0.71
831.242	1.06
831.412	1.36
831.582	1.05
831.753	-0.42
831.923	1.93
832.093	1.86
832.263	0.65
832.434	0.09
832.604	0.47
832.774	1.54
832.944	0.21
833.114	0.24
833.284	1.3
833.454	0.21
833.624	0.43
833.795	1.33
833.965	1.82
834.135	2.45
834.305	-0.68
834.475	-0.38
834.645	0.83
834.815	0.56
834.985	0.44
835.155	0.62
835.325	1.16
835.494	1.43
835.664	0.8
835.834	0.52
836.004	0.9
836.174	2.27
836.344	0.56
836.514	0.35
836.684	0.36
836.853	1.11
837.023	1.08
837.193	0.53
837.363	2.22
837.532	1.92
837.702	0.71
837.872	0.31
838.041	1.64
838.211	2.6
838.381	-0.03
838.55	0.92
838.72	4.12
838.89	2.7
839.059	0.92
839.229	-0.17
839.398	3.69
839.568	1.39
839.738	0.54
839.907	2
840.077	1.47
840.246	0.61
840.416	0.5
840.585	0.15
840.755	2.64
840.924	2.6
841.093	0.05
841.263	1.04
841.432	1.19
841.602	0.37
841.771	0.32
841.94	1.14
842.11	3.79
842.279	2.2
842.448	0.1
842.617	0.19
842.787	2.48
842.956	0.01
843.125	0.61
843.294	0.78
843.464	1.69
843.633	1.1
843.802	-0.4
843.971	0.83
844.14	2.09
844.309	2.65
844.479	-0.64
844.648	-0.04
844.817	1.67
844.986	1.63
845.155	0.66
845.324	0.5
845.493	1.5
845.662	0.16
845.831	1.36
846	1.51
846.169	1.56
846.338	2.21
846.507	1.29
846.676	1.32
846.844	1.37
847.013	1.33
847.182	0.64
847.351	0.94
847.52	0.45
847.689	2.14
847.858	1.27
848.026	-0.07
848.195	1.81
848.364	0.69
848.533	-0.1
848.701	0.97
848.87	1.33
849.039	2.88
849.207	0.87
849.376	2.22
849.545	2.35
849.713	1.25
849.882	0.76
850.051	0.68
850.219	1.71
850.388	2.38
850.556	0.41
850.725	0.82
850.893	1.83
851.062	1.47
851.23	1.85
851.399	-0.31
851.567	1.69
851.736	1.23
851.904	0
852.073	1.03
852.241	2.96
852.41	1.44
852.578	1.25
852.746	1.19
852.915	2.18
853.083	1.34
853.251	0.07
853.42	1.1
853.588	1.71
853.756	3.35
853.924	1.24
854.093	1.87
854.261	1.39
854.429	-0.27
854.597	1.48
854.765	-0.37
854.934	3.03
855.102	3.07
855.27	0.91
855.438	1.27
855.606	2.48
855.774	4.16
855.942	-0.76
856.11	-1.26
856.278	1.35
856.446	3.79
856.614	1.44
856.782	-0.66
856.95	2.35
857.118	2.31
857.286	1.15
857.454	-0.13
857.622	2.45
857.79	2.35
857.958	1.21
858.126	1.03
858.294	-0.89
858.462	2.31
858.629	-0.17
858.797	-0.02
858.965	2.53
859.133	1.84
859.301	1.83
859.468	3
859.636	1.62
859.804	4.97
859.971	1.77
860.139	-0.27
860.307	3.41
860.474	1.61
860.642	1.23
860.81	0.64
860.977	1.14
861.145	3.98
861.313	1.72
861.48	2.11
861.648	3.38
861.815	1.82
861.983	-0.72
862.15	-0.24
862.318	3.75
862.485	2.07
862.653	0.58
862.82	-0.6
862.988	3.75
863.155	3.87
863.322	-0.37
863.49	0.29
863.657	2.44
863.824	5.64
863.992	1.98
864.159	1.03
864.326	3.81
864.494	1.11
864.661	3.35
864.828	0.24
864.996	3.94
865.163	2.94
865.33	-0.49
865.497	-1.64
865.664	1.19
865.832	0.75
865.999	0.51
866.166	0.82
866.333	2.15
866.5	0.65
866.667	0.51
866.834	1.74
867.001	4.46
867.168	-1.07
867.335	1.5
867.502	-1.52
867.669	2.03
867.836	7.21
868.003	2.11
868.17	3.13
868.337	3.01
868.504	6.25
868.671	-1.33
868.838	-0.53
869.005	3.79
869.172	3.45
869.339	0.13
869.505	0.03
869.672	2.17
869.839	5.05
870.006	1.22
870.173	-1.12
870.339	3.06
870.506	5.36
870.673	1.19
870.84	3.4
871.006	2.92
871.173	2.25
871.34	1.38
871.506	-0.29
871.673	3.84
871.839	-0.72
872.006	1.54
872.173	2.17
872.339	3.29
872.506	3.1
872.672	1.35
872.839	-0.6
873.005	3.2
873.172	5.3
873.338	4.82
873.505	2.11
873.671	2.53
873.838	2.36
874.004	-1.02
874.171	1.28
874.337	5.16
874.503	4.99
874.67	1.17
874.836	0.85
875.002	4.81
875.169	3.25
875.335	2.13
875.501	2.44
875.668	5.62
875.834	1.9
876	1.03
876.166	1.65
876.332	4.06
876.499	5.31
876.665	0.66
876.831	4.13
876.997	6.15
877.163	3.11
877.329	1.96
877.495	0.31
877.662	3.54
877.828	1.87
877.994	2.82
878.16	-2.09
878.326	1.11
878.492	4.13
878.658	1.61
878.824	3.79
878.99	3.76
879.156	3.09
879.322	5.47
879.487	0.64
879.653	3.89
879.819	2.35
879.985	0.26
880.151	2.67
880.317	2.3
880.483	2.94
880.648	4.28
880.814	-0.18
880.98	3.3
881.146	-1.39
881.312	-0.28
881.477	1.77
881.643	0.32
881.809	3.45
881.974	3.67
882.14	-1.26
882.306	2.54
882.471	5.45
882.637	1.06
882.803	2.7
882.968	6.85
883.134	7.32
883.299	1.78
883.465	0.97
883.63	5.21
883.796	3.06
883.961	2.83
884.127	2.24
884.292	-2.69
884.458	-0.92
884.623	-0.92
