Data from Apollo_Calib_20240827__AbsoluteIrradiance__771__12-00-01-404.txt Node

Date: Wed Aug 28 12:00:01 BST 2024
User: biology
Spectrometer: FLMT08252
Trigger mode: 0
Integration Time (sec): 5.000000E-1
Scans to average: 5
Electric dark correction enabled: true
Nonlinearity correction enabled: false
Boxcar width: 0
XAxis mode: Wavelengths
Number of Pixels in Spectrum: 3648
>>>>>Begin Spectral Data<<<<<
179.588	-0
179.809	-0
180.03	-0
180.251	-0
180.473	-0
180.694	0
180.915	0
181.136	-0
181.357	-0
181.578	-0
181.799	-0
182.02	-0
182.241	-0
182.462	-0
182.683	0
182.904	-0
183.125	-0
183.346	0
183.567	0
183.788	0
184.009	0
184.23	0
184.451	0
184.672	0
184.892	0
185.113	0
185.334	0
185.555	0
185.776	0
185.996	0
186.217	0
186.438	0
186.659	0
186.879	0
187.1	0
187.321	0
187.541	0
187.762	0
187.983	0
188.203	0
188.424	0
188.644	0
188.865	0
189.086	0
189.306	0
189.527	0
189.747	0
189.968	0
190.188	0
190.409	0
190.629	0
190.849	0
191.07	0
191.29	0
191.511	0
191.731	0
191.951	0
192.172	0
192.392	0
192.612	0
192.833	0
193.053	0
193.273	0
193.493	0
193.714	0
193.934	0
194.154	0
194.374	0
194.594	0
194.815	0
195.035	0
195.255	0
195.475	0
195.695	0
195.915	0
196.135	0
196.355	0
196.575	0
196.795	0
197.015	0
197.235	0
197.455	0
197.675	0
197.895	0
198.115	0
198.335	0
198.555	0
198.775	0
198.995	0
199.214	0
199.434	0
199.654	0
199.874	0
200.094	3.84
200.313	1.82
200.533	2.21
200.753	1.61
200.973	3.2
201.192	3.01
201.412	1.48
201.632	1.62
201.851	3.22
202.071	2.04
202.291	1.55
202.51	1.54
202.73	2.83
202.95	1.78
203.169	1.38
203.389	1.86
203.608	1.84
203.828	1.46
204.047	1.57
204.267	2.49
204.486	1.84
204.706	1.66
204.925	1.7
205.145	1.57
205.364	2.35
205.583	2.85
205.803	1.47
206.022	1.05
206.242	1.63
206.461	1.65
206.68	1.47
206.9	1.7
207.119	2.46
207.338	2.02
207.557	1.32
207.777	1.12
207.996	1.43
208.215	2
208.434	0.99
208.654	0.62
208.873	1.13
209.092	2.02
209.311	1.36
209.53	1.14
209.749	1.45
209.968	1.04
210.187	0.99
210.407	0.53
210.626	1.09
210.845	1.6
211.064	1.15
211.283	0.89
211.502	1.47
211.721	1.29
211.94	1.09
212.159	1.16
212.377	1.34
212.596	1.46
212.815	1.12
213.034	1.32
213.253	1.59
213.472	1.22
213.691	1.03
213.91	0.62
214.128	0.78
214.347	1.4
214.566	0.66
214.785	0.62
215.003	1.16
215.222	0.87
215.441	0.91
215.66	0.59
215.878	0.98
216.097	1.02
216.316	0.53
216.534	0.69
216.753	1.22
216.972	0.78
217.19	0.94
217.409	0.65
217.627	0.63
217.846	0.85
218.064	0.9
218.283	0.51
218.501	1.31
218.72	1.18
218.938	0.86
219.157	0.85
219.375	1
219.594	0.99
219.812	0.48
220.031	0.46
220.249	1.26
220.467	1.03
220.686	0.56
220.904	0.38
221.122	0.47
221.341	1.29
221.559	0.73
221.777	0.44
221.995	0.79
222.214	0.98
222.432	0.41
222.65	0.63
222.868	0.67
223.086	0.81
223.305	0.79
223.523	0.68
223.741	1.22
223.959	0.55
224.177	0.17
224.395	0.52
224.613	0.66
224.831	0.85
225.049	0.51
225.267	0.51
225.485	0.74
225.703	0.59
225.921	0.51
226.139	0.58
226.357	0.89
226.575	0.75
226.793	0.53
227.011	1.5
227.229	0.74
227.447	0.86
227.665	0.53
227.883	0.34
228.1	0.65
228.318	0.71
228.536	0.3
228.754	0.39
228.972	0.8
229.189	0.82
229.407	0.6
229.625	0.55
229.843	0.95
230.06	0.68
230.278	0.57
230.496	0.55
230.713	0.62
230.931	0.8
231.149	0.41
231.366	0.31
231.584	0.52
231.801	1.01
232.019	0.52
232.236	0.35
232.454	0.37
232.671	0.61
232.889	0.46
233.106	0.39
233.324	0.61
233.541	0.54
233.759	0.6
233.976	0.41
234.194	0.49
234.411	0.57
234.628	0.4
234.846	0.51
235.063	0.55
235.28	0.55
235.498	0.48
235.715	0.34
235.932	0.84
236.149	0.47
236.367	0.43
236.584	0.56
236.801	0.53
237.018	0.77
237.236	0.42
237.453	0.26
237.67	0.67
237.887	0.46
238.104	0.45
238.321	0.29
238.538	0.37
238.755	0.64
238.973	0.34
239.19	0.4
239.407	0.53
239.624	0.65
239.841	0.3
240.058	0.45
240.275	0.55
240.492	0.51
240.709	0.35
240.925	0.39
241.142	0.55
241.359	0.37
241.576	0.42
241.793	0.27
242.01	0.47
242.227	0.65
242.444	0.55
242.66	0.65
242.877	0.48
243.094	0.48
243.311	0.5
243.527	0.35
243.744	0.53
243.961	0.47
244.178	0.28
244.394	0.36
244.611	0.51
244.828	0.64
245.044	0.34
245.261	0.38
245.477	0.44
245.694	0.46
245.911	0.29
246.127	0.44
246.344	0.76
246.56	0.56
246.777	0.29
246.993	0.34
247.21	0.46
247.426	0.63
247.643	0.35
247.859	0.37
248.076	0.35
248.292	0.64
248.508	0.33
248.725	0.38
248.941	0.49
249.157	0.58
249.374	0.32
249.59	0.42
249.806	0.37
250.023	0.59
250.239	0.29
250.455	0.3
250.671	0.46
250.888	0.46
251.104	0.47
251.32	0.37
251.536	0.41
251.752	0.44
251.969	0.38
252.185	0.41
252.401	0.6
252.617	0.41
252.833	0.42
253.049	0.37
253.265	0.38
253.481	0.36
253.697	0.28
253.913	0.3
254.129	0.46
254.345	0.42
254.561	0.36
254.777	0.28
254.993	0.49
255.209	0.39
255.425	0.31
255.641	0.26
255.857	0.44
256.073	0.48
256.288	0.27
256.504	0.3
256.72	0.4
256.936	0.55
257.152	0.33
257.367	0.29
257.583	0.41
257.799	0.45
258.015	0.34
258.23	0.28
258.446	0.52
258.662	0.35
258.877	0.32
259.093	0.25
259.309	0.38
259.524	0.35
259.74	0.27
259.955	0.23
260.171	0.34
260.387	0.35
260.602	0.4
260.818	0.42
261.033	0.25
261.249	0.37
261.464	0.38
261.68	0.19
261.895	0.36
262.11	0.48
262.326	0.33
262.541	0.13
262.757	0.57
262.972	0.46
263.187	0.38
263.403	0.33
263.618	0.43
263.833	0.34
264.049	0.28
264.264	0.38
264.479	0.38
264.694	0.5
264.91	0.25
265.125	0.29
265.34	0.44
265.555	0.55
265.77	0.36
265.986	0.32
266.201	0.34
266.416	0.42
266.631	0.31
266.846	0.28
267.061	0.44
267.276	0.4
267.491	0.18
267.706	0.43
267.921	0.41
268.136	0.37
268.351	0.3
268.566	0.28
268.781	0.44
268.996	0.44
269.211	0.24
269.426	0.19
269.641	0.31
269.856	0.42
270.071	0.3
270.285	0.11
270.5	0.39
270.715	0.39
270.93	0.28
271.145	0.42
271.359	0.29
271.574	0.33
271.789	0.32
272.004	0.3
272.218	0.32
272.433	0.33
272.648	0.24
272.862	0.41
273.077	0.38
273.292	0.32
273.506	0.21
273.721	0.28
273.936	0.38
274.15	0.44
274.365	0.22
274.579	0.37
274.794	0.39
275.008	0.39
275.223	0.2
275.437	0.32
275.652	0.42
275.866	0.4
276.081	0.23
276.295	0.39
276.509	0.35
276.724	0.31
276.938	0.31
277.153	0.33
277.367	0.43
277.581	0.27
277.796	0.31
278.01	0.23
278.224	0.38
278.438	0.47
278.653	0.28
278.867	0.23
279.081	0.18
279.295	0.23
279.51	0.33
279.724	0.17
279.938	0.41
280.152	0.33
280.366	0.32
280.58	0.35
280.794	0.37
281.008	0.31
281.222	0.33
281.437	0.49
281.651	0.3
281.865	0.38
282.079	0.26
282.293	0.15
282.507	0.23
282.721	0.31
282.935	0.31
283.148	0.22
283.362	0.25
283.576	0.23
283.79	0.28
284.004	0.27
284.218	0.39
284.432	0.21
284.646	0.28
284.859	0.26
285.073	0.28
285.287	0.29
285.501	0.32
285.714	0.26
285.928	0.3
286.142	0.32
286.356	0.29
286.569	0.22
286.783	0.4
286.997	0.35
287.21	0.31
287.424	0.26
287.637	0.25
287.851	0.27
288.065	0.35
288.278	0.26
288.492	0.28
288.705	0.27
288.919	0.35
289.132	0.21
289.346	0.35
289.559	0.19
289.773	0.24
289.986	0.26
290.2	0.22
290.413	0.34
290.626	0.24
290.84	0.23
291.053	0.3
291.267	0.36
291.48	0.27
291.693	0.27
291.906	0.2
292.12	0.27
292.333	0.22
292.546	0.25
292.76	0.37
292.973	0.3
293.186	0.3
293.399	0.21
293.612	0.28
293.826	0.25
294.039	0.27
294.252	0.22
294.465	0.38
294.678	0.31
294.891	0.29
295.104	0.24
295.317	0.22
295.53	0.29
295.743	0.23
295.956	0.21
296.169	0.36
296.382	0.32
296.595	0.26
296.808	0.16
297.021	0.32
297.234	0.26
297.447	0.24
297.66	0.26
297.873	0.38
298.086	0.31
298.299	0.19
298.511	0.18
298.724	0.27
298.937	0.2
299.15	0.19
299.363	0.27
299.575	0.34
299.788	0.33
300.001	0.21
300.213	0.24
300.426	0.24
300.639	0.22
300.852	0.24
301.064	0.28
301.277	0.33
301.489	0.28
301.702	0.28
301.915	0.22
302.127	0.25
302.34	0.3
302.552	0.3
302.765	0.23
302.977	0.26
303.19	0.25
303.402	0.22
303.615	0.23
303.827	0.25
304.04	0.21
304.252	0.32
304.464	0.22
304.677	0.41
304.889	0.33
305.102	0.22
305.314	0.23
305.526	0.28
305.739	0.32
305.951	0.23
306.163	0.22
306.375	0.32
306.588	0.18
306.8	0.22
307.012	0.21
307.224	0.31
307.436	0.37
307.649	0.12
307.861	0.24
308.073	0.33
308.285	0.24
308.497	0.19
308.709	0.21
308.921	0.24
309.133	0.31
309.346	0.21
309.558	0.25
309.77	0.3
309.982	0.3
310.194	0.33
310.406	0.2
310.617	0.36
310.829	0.23
311.041	0.29
311.253	0.2
311.465	0.23
311.677	0.27
311.889	0.24
312.101	0.2
312.313	0.33
312.524	0.32
312.736	0.21
312.948	0.24
313.16	0.33
313.372	0.3
313.583	0.28
313.795	0.2
314.007	0.25
314.218	0.31
314.43	0.26
314.642	0.25
314.853	0.24
315.065	0.31
315.277	0.23
315.488	0.26
315.7	0.3
315.912	0.27
316.123	0.23
316.335	0.24
316.546	0.34
316.758	0.22
316.969	0.21
317.181	0.22
317.392	0.23
317.604	0.32
317.815	0.2
318.026	0.24
318.238	0.26
318.449	0.28
318.661	0.15
318.872	0.19
319.083	0.25
319.295	0.31
319.506	0.23
319.717	0.23
319.929	0.3
320.14	0.28
320.351	0.26
320.562	0.19
320.774	0.29
320.985	0.25
321.196	0.17
321.407	0.16
321.618	0.29
321.829	0.28
322.041	0.3
322.252	0.22
322.463	0.28
322.674	0.28
322.885	0.2
323.096	0.25
323.307	0.26
323.518	0.31
323.729	0.21
323.94	0.23
324.151	0.27
324.362	0.27
324.573	0.25
324.784	0.23
324.995	0.3
325.206	0.25
325.417	0.22
325.628	0.23
325.838	0.24
326.049	0.3
326.26	0.3
326.471	0.25
326.682	0.3
326.892	0.23
327.103	0.2
327.314	0.2
327.525	0.33
327.735	0.29
327.946	0.25
328.157	0.2
328.368	0.33
328.578	0.22
328.789	0.34
328.999	0.27
329.21	0.22
329.421	0.31
329.631	0.25
329.842	0.19
330.052	0.28
330.263	0.26
330.473	0.29
330.684	0.23
330.894	0.26
331.105	0.25
331.315	0.22
331.526	0.17
331.736	0.35
331.947	0.3
332.157	0.26
332.367	0.19
332.578	0.29
332.788	0.33
332.999	0.27
333.209	0.25
333.419	0.18
333.629	0.26
333.84	0.28
334.05	0.22
334.26	0.33
334.47	0.26
334.681	0.28
334.891	0.23
335.101	0.27
335.311	0.36
335.521	0.22
335.732	0.2
335.942	0.32
336.152	0.27
336.362	0.29
336.572	0.25
336.782	0.3
336.992	0.2
337.202	0.23
337.412	0.22
337.622	0.3
337.832	0.22
338.042	0.24
338.252	0.22
338.462	0.22
338.672	0.21
338.882	0.23
339.092	0.25
339.302	0.36
339.511	0.25
339.721	0.21
339.931	0.16
340.141	0.35
340.351	0.3
340.561	0.29
340.77	0.23
340.98	0.27
341.19	0.31
341.4	0.23
341.609	0.2
341.819	0.25
342.029	0.2
342.238	0.25
342.448	0.21
342.658	0.24
342.867	0.24
343.077	0.23
343.286	0.22
343.496	0.28
343.706	0.29
343.915	0.17
344.125	0.23
344.334	0.24
344.544	0.18
344.753	0.2
344.963	0.22
345.172	0.2
345.381	0.19
345.591	0.13
345.8	0.2
346.01	0.33
346.219	0.25
346.428	0.16
346.638	0.25
346.847	0.25
347.056	0.3
347.266	0.18
347.475	0.23
347.684	0.29
347.893	0.26
348.103	0.31
348.312	0.21
348.521	0.26
348.73	0.24
348.94	0.28
349.149	0.18
349.358	0.26
349.567	0.24
349.776	0.23
349.985	0.2
350.194	0.28
350.403	0.3
350.612	0.17
350.821	0.22
351.03	0.25
351.239	0.2
351.448	0.24
351.657	0.23
351.866	0.32
352.075	0.28
352.284	0.21
352.493	0.13
352.702	0.28
352.911	0.26
353.12	0.22
353.329	0.22
353.538	0.29
353.746	0.25
353.955	0.18
354.164	0.26
354.373	0.22
354.582	0.26
354.79	0.24
354.999	0.27
355.208	0.29
355.416	0.31
355.625	0.19
355.834	0.24
356.042	0.27
356.251	0.22
356.46	0.18
356.668	0.27
356.877	0.31
357.085	0.27
357.294	0.12
357.503	0.24
357.711	0.27
357.92	0.38
358.128	0.24
358.337	0.22
358.545	0.27
358.754	0.22
358.962	0.24
359.17	0.21
359.379	0.26
359.587	0.3
359.796	0.22
360.004	0.3
360.212	0.27
360.421	0.3
360.629	0.23
360.837	0.23
361.046	0.3
361.254	0.36
361.462	0.29
361.67	0.23
361.879	0.27
362.087	0.32
362.295	0.25
362.503	0.24
362.711	0.17
362.92	0.22
363.128	0.2
363.336	0.18
363.544	0.17
363.752	0.25
363.96	0.23
364.168	0.18
364.376	0.23
364.584	0.25
364.792	0.28
365	0.25
365.208	0.29
365.416	0.22
365.624	0.3
365.832	0.22
366.04	0.31
366.248	0.23
366.456	0.23
366.664	0.25
366.872	0.21
367.079	0.26
367.287	0.24
367.495	0.25
367.703	0.27
367.911	0.24
368.118	0.23
368.326	0.26
368.534	0.2
368.742	0.32
368.949	0.2
369.157	0.21
369.365	0.29
369.572	0.18
369.78	0.18
369.988	0.28
370.195	0.28
370.403	0.31
370.61	0.2
370.818	0.22
371.026	0.31
371.233	0.2
371.441	0.27
371.648	0.21
371.856	0.27
372.063	0.26
372.271	0.21
372.478	0.24
372.685	0.22
372.893	0.27
373.1	0.24
373.308	0.22
373.515	0.34
373.722	0.32
373.93	0.23
374.137	0.27
374.344	0.32
374.552	0.27
374.759	0.27
374.966	0.24
375.173	0.22
375.381	0.29
375.588	0.23
375.795	0.2
376.002	0.23
376.209	0.21
376.417	0.25
376.624	0.32
376.831	0.25
377.038	0.21
377.245	0.14
377.452	0.26
377.659	0.25
377.866	0.25
378.073	0.27
378.28	0.26
378.487	0.33
378.694	0.32
378.901	0.22
379.108	0.23
379.315	0.31
379.522	0.37
379.729	0.27
379.936	0.25
380.143	0.28
380.35	0.3
380.557	0.2
380.763	0.26
380.97	0.28
381.177	0.32
381.384	0.3
381.591	0.28
381.797	0.24
382.004	0.3
382.211	0.31
382.418	0.21
382.624	0.31
382.831	0.34
383.038	0.22
383.244	0.28
383.451	0.26
383.658	0.32
383.864	0.25
384.071	0.22
384.277	0.34
384.484	0.23
384.69	0.31
384.897	0.23
385.103	0.27
385.31	0.23
385.516	0.24
385.723	0.2
385.929	0.26
386.136	0.28
386.342	0.29
386.549	0.27
386.755	0.35
386.961	0.37
387.168	0.24
387.374	0.27
387.58	0.34
387.787	0.3
387.993	0.28
388.199	0.26
388.406	0.24
388.612	0.32
388.818	0.26
389.024	0.24
389.231	0.25
389.437	0.31
389.643	0.33
389.849	0.25
390.055	0.27
390.261	0.3
390.467	0.32
390.674	0.22
390.88	0.25
391.086	0.35
391.292	0.19
391.498	0.36
391.704	0.26
391.91	0.26
392.116	0.25
392.322	0.16
392.528	0.34
392.734	0.26
392.94	0.31
393.146	0.31
393.352	0.33
393.557	0.35
393.763	0.24
393.969	0.34
394.175	0.25
394.381	0.35
394.587	0.23
394.792	0.31
394.998	0.37
395.204	0.37
395.41	0.29
395.615	0.34
395.821	0.33
396.027	0.35
396.233	0.29
396.438	0.31
396.644	0.33
396.85	0.34
397.055	0.34
397.261	0.32
397.466	0.36
397.672	0.34
397.878	0.36
398.083	0.37
398.289	0.31
398.494	0.39
398.7	0.41
398.905	0.26
399.111	0.46
399.316	0.27
399.522	0.28
399.727	0.29
399.932	0.31
400.138	0.26
400.343	0.33
400.549	0.31
400.754	0.36
400.959	0.35
401.165	0.34
401.37	0.33
401.575	0.47
401.78	0.36
401.986	0.35
402.191	0.39
402.396	0.35
402.601	0.36
402.807	0.43
403.012	0.38
403.217	0.49
403.422	0.4
403.627	0.38
403.832	0.37
404.037	0.4
404.243	0.41
404.448	0.35
404.653	0.43
404.858	0.44
405.063	0.44
405.268	0.4
405.473	0.38
405.678	0.39
405.883	0.63
406.088	0.51
406.293	0.42
406.498	0.45
406.703	0.52
406.907	0.46
407.112	0.45
407.317	0.51
407.522	0.56
407.727	0.43
407.932	0.47
408.136	0.64
408.341	0.51
408.546	0.59
408.751	0.56
408.956	0.6
409.16	0.68
409.365	0.59
409.57	0.59
409.774	0.6
409.979	0.68
410.184	0.64
410.388	0.62
410.593	0.77
410.798	0.71
411.002	0.72
411.207	0.78
411.411	0.79
411.616	0.7
411.82	0.82
412.025	0.86
412.229	0.83
412.434	0.95
412.638	0.93
412.843	0.9
413.047	0.96
413.252	0.92
413.456	1.01
413.66	1.02
413.865	1.03
414.069	1.13
414.273	1.1
414.478	1.09
414.682	1.16
414.886	1.19
415.091	1.12
415.295	1.2
415.499	1.37
415.703	1.33
415.908	1.43
416.112	1.38
416.316	1.53
416.52	1.49
416.724	1.46
416.929	1.58
417.133	1.85
417.337	1.65
417.541	1.74
417.745	1.8
417.949	1.94
418.153	1.96
418.357	1.97
418.561	2.18
418.765	2.14
418.969	2.32
419.173	2.37
419.377	2.32
419.581	2.59
419.785	2.56
419.989	2.54
420.193	2.8
420.397	2.77
420.601	2.96
420.804	2.98
421.008	3.06
421.212	3.22
421.416	3.12
421.62	3.12
421.823	3.29
422.027	3.45
422.231	3.41
422.435	3.4
422.638	3.49
422.842	3.58
423.046	3.63
423.249	3.89
423.453	3.81
423.657	4.05
423.86	4.09
424.064	4.23
424.268	4.27
424.471	4.34
424.675	4.59
424.878	4.73
425.082	4.76
425.285	5.11
425.489	4.99
425.692	5.15
425.896	5.16
426.099	5.36
426.303	5.48
426.506	5.61
426.71	5.82
426.913	6.08
427.116	6.19
427.32	6.2
427.523	6.19
427.726	6.61
427.93	6.66
428.133	6.99
428.336	7.04
428.54	7.27
428.743	7.56
428.946	7.76
429.149	7.78
429.353	7.72
429.556	7.91
429.759	7.81
429.962	8.01
430.165	8.16
430.368	7.73
430.571	7.9
430.775	8.05
430.978	7.97
431.181	8.04
431.384	8.07
431.587	8.16
431.79	8.62
431.993	8.54
432.196	8.82
432.399	9.13
432.602	9.32
432.805	9.41
433.008	9.91
433.211	9.82
433.414	10.21
433.616	10.17
433.819	10.12
434.022	10.2
434.225	10.48
434.428	10.5
434.631	10.95
434.833	10.72
435.036	10.92
435.239	11.03
435.442	11.24
435.645	11.4
435.847	11.49
436.05	11.76
436.253	11.91
436.455	11.97
436.658	11.96
436.861	12.14
437.063	12.28
437.266	12.29
437.468	12.58
437.671	12.94
437.874	12.9
438.076	12.81
438.279	13.31
438.481	13.35
438.684	14.13
438.886	13.67
439.089	13.92
439.291	13.95
439.494	14.27
439.696	14.55
439.899	15.08
440.101	15.51
440.303	15.71
440.506	16.39
440.708	16.1
440.91	16.46
441.113	16.61
441.315	16.74
441.517	16.56
441.72	17.08
441.922	16.71
442.124	16.54
442.326	16.99
442.529	17.2
442.731	17.21
442.933	17.53
443.135	17.2
443.337	17.38
443.539	17.81
443.742	17.52
443.944	18.07
444.146	17.97
444.348	18
444.55	17.79
444.752	17.94
444.954	18
445.156	17.78
445.358	18.29
445.56	18.61
445.762	18.34
445.964	18.75
446.166	18.59
446.368	18.53
446.57	18.3
446.772	17.98
446.974	17.85
447.175	18.15
447.377	17.83
447.579	18.22
447.781	17.93
447.983	17.73
448.184	17.35
448.386	17.73
448.588	17.2
448.79	17.24
448.991	17.36
449.193	17.34
449.395	16.72
449.597	16.43
449.798	16.37
450	15.97
450.202	15.88
450.403	15.94
450.605	15.8
450.806	15.44
451.008	15.22
451.21	15.05
451.411	14.75
451.613	13.83
451.814	14.14
452.016	14.03
452.217	13.36
452.419	13.34
452.62	13.1
452.821	12.87
453.023	12.74
453.224	12.3
453.426	12.04
453.627	11.26
453.828	11.39
454.03	11.43
454.231	11.32
454.432	11.19
454.634	10.93
454.835	10.65
455.036	10.6
455.238	10.16
455.439	9.94
455.64	9.71
455.841	9.49
456.042	9.61
456.244	9.35
456.445	9.11
456.646	8.71
456.847	8.67
457.048	8.49
457.249	8.61
457.45	8.35
457.651	7.88
457.852	7.78
458.054	7.3
458.255	7.36
458.456	7.38
458.657	7.28
458.858	6.78
459.058	6.82
459.259	6.75
459.46	6.52
459.661	6.45
459.862	6.55
460.063	6.38
460.264	6.32
460.465	6.04
460.666	6.15
460.866	5.8
461.067	5.62
461.268	5.68
461.469	5.42
461.67	5.39
461.87	5.34
462.071	5.23
462.272	5.21
462.473	5.09
462.673	5.36
462.874	5.2
463.075	5.16
463.275	5.06
463.476	5.3
463.676	5.17
463.877	4.99
464.078	5
464.278	5
464.479	5.02
464.679	4.85
464.88	4.72
465.08	4.73
465.281	4.47
465.481	4.32
465.682	4.21
465.882	4.22
466.083	4.16
466.283	4.05
466.483	3.98
466.684	3.72
466.884	3.67
467.085	3.7
467.285	3.76
467.485	3.72
467.686	3.5
467.886	3.42
468.086	3.49
468.286	3.33
468.487	3.49
468.687	3.27
468.887	3.25
469.087	3.38
469.287	3.27
469.488	3.14
469.688	3.21
469.888	3.23
470.088	3.18
470.288	3.11
470.488	3.01
470.688	2.93
470.888	2.9
471.088	2.68
471.288	2.83
471.488	2.78
471.688	2.78
471.888	2.73
472.088	2.8
472.288	2.77
472.488	2.65
472.688	2.61
472.888	2.63
473.088	2.66
473.288	2.55
473.488	2.44
473.688	2.7
473.887	2.53
474.087	2.47
474.287	2.45
474.487	2.43
474.687	2.43
474.886	2.46
475.086	2.35
475.286	2.4
475.486	2.34
475.685	2.26
475.885	2.22
476.085	2.34
476.284	2.31
476.484	2.27
476.684	2.23
476.883	2.31
477.083	2.19
477.282	2.09
477.482	2.3
477.681	2.17
477.881	2.12
478.08	2.1
478.28	2.03
478.479	2.09
478.679	2.16
478.878	2.04
479.078	2.08
479.277	2.08
479.477	2.1
479.676	2.04
479.875	2.02
480.075	1.97
480.274	2.05
480.473	2.12
480.673	2
480.872	2.1
481.071	2.07
481.271	2.07
481.47	2
481.669	2.05
481.868	1.96
482.067	1.99
482.267	1.91
482.466	1.98
482.665	1.93
482.864	1.92
483.063	1.96
483.262	2.04
483.461	2.06
483.661	2.08
483.86	2.03
484.059	2.08
484.258	2.04
484.457	2.07
484.656	2
484.855	2.09
485.054	1.93
485.253	2
485.452	1.95
485.651	2.08
485.849	2.05
486.048	2.02
486.247	2.03
486.446	2.12
486.645	2.03
486.844	2.09
487.043	2.06
487.241	2.1
487.44	2.11
487.639	2.16
487.838	2.15
488.037	2.12
488.235	2.23
488.434	2.18
488.633	2.07
488.831	2.25
489.03	2.23
489.229	2.25
489.427	2.21
489.626	2.24
489.825	2.3
490.023	2.32
490.222	2.3
490.42	2.33
490.619	2.34
490.817	2.36
491.016	2.34
491.214	2.39
491.413	2.39
491.611	2.34
491.81	2.39
492.008	2.47
492.207	2.53
492.405	2.57
492.604	2.48
492.802	2.58
493	2.59
493.199	2.63
493.397	2.63
493.595	2.7
493.794	2.65
493.992	2.77
494.19	2.7
494.388	2.82
494.587	2.77
494.785	2.8
494.983	2.75
495.181	2.87
495.379	2.91
495.578	2.98
495.776	2.98
495.974	2.94
496.172	2.97
496.37	3.08
496.568	3.1
496.766	3.06
496.964	3.14
497.162	3.15
497.36	3.2
497.558	3.23
497.756	3.31
497.954	3.28
498.152	3.34
498.35	3.44
498.548	3.41
498.746	3.37
498.944	3.4
499.142	3.45
499.34	3.49
499.538	3.64
499.736	3.49
499.933	3.65
500.131	3.62
500.329	3.76
500.527	3.78
500.725	3.82
500.922	3.9
501.12	3.83
501.318	3.99
501.516	3.92
501.713	4
501.911	4
502.109	3.95
502.306	4.11
502.504	4.03
502.701	4.11
502.899	4.17
503.097	4.37
503.294	4.24
503.492	4.33
503.689	4.36
503.887	4.37
504.084	4.43
504.282	4.44
504.479	4.39
504.677	4.61
504.874	4.52
505.072	4.42
505.269	4.66
505.466	4.69
505.664	4.72
505.861	4.61
506.059	4.77
506.256	4.8
506.453	4.83
506.651	4.95
506.848	4.96
507.045	5.01
507.242	4.95
507.44	5.01
507.637	5.08
507.834	5.04
508.031	5.22
508.229	5.11
508.426	5.1
508.623	5.26
508.82	5.31
509.017	5.23
509.214	5.27
509.411	5.35
509.608	5.34
509.805	5.5
510.003	5.45
510.2	5.47
510.397	5.65
510.594	5.52
510.791	5.65
510.988	5.6
511.184	5.57
511.381	5.48
511.578	5.65
511.775	5.78
511.972	5.72
512.169	5.84
512.366	5.78
512.563	5.93
512.76	6.01
512.956	5.96
513.153	5.92
513.35	5.85
513.547	5.91
513.744	6.01
513.94	6.04
514.137	6.12
514.334	6.1
514.53	6.12
514.727	6.41
514.924	6.22
515.12	6.24
515.317	6.27
515.514	6.18
515.71	6.16
515.907	6.37
516.103	6.4
516.3	6.35
516.497	6.45
516.693	6.48
516.89	6.47
517.086	6.51
517.283	6.53
517.479	6.38
517.676	6.62
517.872	6.65
518.068	6.61
518.265	6.6
518.461	6.58
518.658	6.76
518.854	6.71
519.05	6.8
519.247	6.82
519.443	6.79
519.639	6.91
519.836	6.76
520.032	6.77
520.228	6.89
520.424	6.89
520.621	6.89
520.817	6.98
521.013	6.83
521.209	7.06
521.405	7.07
521.601	6.97
521.798	7
521.994	7.07
522.19	6.96
522.386	7.02
522.582	7.11
522.778	7.2
522.974	7.04
523.17	7.16
523.366	7.08
523.562	7.13
523.758	7.18
523.954	7.08
524.15	7.18
524.346	7.24
524.542	7.27
524.738	7.15
524.934	7.36
525.129	7.29
525.325	7.22
525.521	7.25
525.717	7.45
525.913	7.33
526.109	7.33
526.304	7.44
526.5	7.43
526.696	7.42
526.892	7.37
527.087	7.61
527.283	7.56
527.479	7.47
527.674	7.27
527.87	7.51
528.066	7.51
528.261	7.51
528.457	7.4
528.653	7.61
528.848	7.53
529.044	7.64
529.239	7.48
529.435	7.53
529.63	7.53
529.826	7.56
530.021	7.55
530.217	7.56
530.412	7.58
530.608	7.58
530.803	7.6
530.999	7.49
531.194	7.61
531.389	7.69
531.585	7.7
531.78	7.81
531.975	7.71
532.171	7.74
532.366	7.73
532.561	7.74
532.757	7.69
532.952	7.87
533.147	7.68
533.342	7.76
533.538	7.67
533.733	7.89
533.928	7.54
534.123	7.79
534.318	7.75
534.513	7.69
534.709	7.92
534.904	7.82
535.099	7.93
535.294	7.85
535.489	7.86
535.684	7.88
535.879	7.81
536.074	7.96
536.269	7.89
536.464	7.95
536.659	7.89
536.854	7.91
537.049	7.97
537.244	7.89
537.439	7.9
537.634	7.9
537.828	7.98
538.023	7.95
538.218	7.9
538.413	7.84
538.608	7.92
538.803	7.92
538.997	7.91
539.192	7.97
539.387	7.9
539.582	7.91
539.776	7.78
539.971	7.96
540.166	8
540.36	7.92
540.555	8.03
540.75	7.98
540.944	7.99
541.139	8.03
541.334	7.98
541.528	7.95
541.723	8.11
541.917	8.11
542.112	7.9
542.306	7.89
542.501	7.92
542.695	8
542.89	7.92
543.084	8.04
543.279	7.99
543.473	8.05
543.668	8.08
543.862	7.94
544.056	7.95
544.251	8.07
544.445	8.15
544.64	8.14
544.834	7.85
545.028	7.67
545.222	8.04
545.417	8.23
545.611	8.09
545.805	8.02
546	7.87
546.194	8.1
546.388	8.12
546.582	7.99
546.776	8.02
546.97	8.04
547.165	8.05
547.359	8.03
547.553	7.98
547.747	8.09
547.941	8.17
548.135	8.02
548.329	8.14
548.523	8.08
548.717	8.03
548.911	7.99
549.105	8.01
549.299	8.1
549.493	8.07
549.687	7.98
549.881	8.12
550.075	8.13
550.269	7.97
550.463	8.14
550.657	8.04
550.85	8.06
551.044	8.07
551.238	8.14
551.432	8.08
551.626	8.14
551.82	8.16
552.013	8.02
552.207	8.18
552.401	8.12
552.594	8.08
552.788	7.99
552.982	7.99
553.176	7.97
553.369	8.24
553.563	8.14
553.756	8.1
553.95	8.18
554.144	8.21
554.337	8.19
554.531	7.92
554.724	8.16
554.918	8.21
555.111	8.08
555.305	8.13
555.498	8.02
555.692	8.19
555.885	8.14
556.079	8.06
556.272	8.11
556.466	8.05
556.659	8.04
556.852	8.13
557.046	8.02
557.239	7.99
557.432	8.07
557.626	8.11
557.819	8.18
558.012	8.14
558.206	8.22
558.399	8.15
558.592	8.05
558.785	8.1
558.979	8.09
559.172	8.09
559.365	8.12
559.558	8.05
559.751	8.04
559.944	8.16
560.138	8.07
560.331	8.16
560.524	8.16
560.717	8.09
560.91	8.1
561.103	8.13
561.296	7.93
561.489	8.17
561.682	8.19
561.875	8.2
562.068	8.2
562.261	7.97
562.454	8.25
562.647	8.08
562.84	8.1
563.032	8.11
563.225	8.01
563.418	8.1
563.611	8.14
563.804	8.13
563.997	7.97
564.19	7.86
564.382	8.12
564.575	8.09
564.768	8
564.961	8.14
565.153	8
565.346	7.98
565.539	8.17
565.731	8.04
565.924	8.18
566.117	8.18
566.309	8.15
566.502	8.07
566.695	8.01
566.887	8.14
567.08	8.03
567.272	8.09
567.465	7.99
567.657	8.13
567.85	7.95
568.042	8.1
568.235	8.11
568.427	7.93
568.62	8.09
568.812	8
569.005	8.15
569.197	7.98
569.389	8.1
569.582	8.07
569.774	8.03
569.966	7.92
570.159	7.93
570.351	7.98
570.543	8.03
570.736	8.04
570.928	7.85
571.12	8
571.312	7.95
571.505	7.77
571.697	8.07
571.889	8.03
572.081	8.01
572.273	7.91
572.465	7.96
572.658	8.02
572.85	8.02
573.042	8.03
573.234	7.93
573.426	7.89
573.618	7.96
573.81	7.93
574.002	7.93
574.194	7.99
574.386	7.93
574.578	7.76
574.77	7.91
574.962	7.98
575.154	7.83
575.346	7.88
575.538	7.82
575.729	7.83
575.921	7.92
576.113	7.94
576.305	7.9
576.497	8
576.689	7.82
576.88	7.77
577.072	7.92
577.264	7.86
577.456	7.89
577.647	7.81
577.839	7.98
578.031	7.87
578.223	7.8
578.414	7.71
578.606	7.8
578.798	7.83
578.989	7.81
579.181	7.86
579.372	7.79
579.564	7.85
579.755	7.77
579.947	7.73
580.139	7.84
580.33	7.64
580.522	7.79
580.713	7.71
580.905	7.66
581.096	7.81
581.287	7.71
581.479	7.75
581.67	7.77
581.862	7.72
582.053	7.74
582.244	7.54
582.436	7.77
582.627	7.66
582.818	7.6
583.01	7.58
583.201	7.64
583.392	7.63
583.583	7.6
583.775	7.48
583.966	7.58
584.157	7.68
584.348	7.73
584.54	7.56
584.731	7.62
584.922	7.45
585.113	7.41
585.304	7.54
585.495	7.52
585.686	7.68
585.877	7.56
586.068	7.63
586.259	7.56
586.45	7.53
586.641	7.5
586.832	7.58
587.023	7.42
587.214	7.42
587.405	7.52
587.596	7.37
587.787	7.37
587.978	7.42
588.169	7.39
588.36	7.33
588.551	7.36
588.742	7.38
588.932	7.44
589.123	7.25
589.314	7.4
589.505	7.28
589.696	7.37
589.886	7.34
590.077	7.26
590.268	7.31
590.458	7.19
590.649	7.24
590.84	7.28
591.03	7.2
591.221	7.23
591.412	7.12
591.602	7.35
591.793	7.27
591.984	7.2
592.174	7.22
592.365	7.31
592.555	7.08
592.746	7.09
592.936	7.15
593.127	7.22
593.317	7.23
593.508	7.12
593.698	7.09
593.889	7.13
594.079	7.09
594.269	6.99
594.46	7.03
594.65	7.05
594.84	7
595.031	7.01
595.221	6.97
595.411	7
595.602	7.02
595.792	6.95
595.982	6.85
596.172	7.05
596.363	6.88
596.553	6.87
596.743	6.91
596.933	6.92
597.123	6.87
597.314	6.74
597.504	6.74
597.694	6.86
597.884	6.79
598.074	6.82
598.264	6.77
598.454	6.84
598.644	6.76
598.834	6.8
599.024	6.67
599.214	6.71
599.404	6.79
599.594	6.76
599.784	6.6
599.974	6.71
600.164	6.68
600.354	6.59
600.544	6.6
600.734	6.59
600.924	6.6
601.114	6.51
601.303	6.56
601.493	6.54
601.683	6.6
601.873	6.56
602.063	6.39
602.252	6.49
602.442	6.37
602.632	6.43
602.821	6.34
603.011	6.45
603.201	6.41
603.39	6.41
603.58	6.24
603.77	6.37
603.959	6.39
604.149	6.26
604.339	6.34
604.528	6.37
604.718	6.31
604.907	6.27
605.097	6.25
605.286	6.23
605.476	6.23
605.665	6.3
605.855	6.17
606.044	6.26
606.234	6.23
606.423	6.19
606.612	6.13
606.802	6.12
606.991	6.2
607.181	6.17
607.37	6.09
607.559	5.88
607.749	6.08
607.938	6.02
608.127	6.03
608.316	6.05
608.506	6.06
608.695	6.05
608.884	5.93
609.073	5.97
609.263	6.03
609.452	5.98
609.641	5.81
609.83	5.85
610.019	5.97
610.208	5.77
610.397	5.81
610.586	5.86
610.775	5.8
610.965	5.8
611.154	5.71
611.343	5.73
611.532	5.69
611.721	5.75
611.91	5.72
612.099	5.6
612.287	5.62
612.476	5.56
612.665	5.71
612.854	5.54
613.043	5.64
613.232	5.56
613.421	5.56
613.61	5.6
613.798	5.53
613.987	5.53
614.176	5.56
614.365	5.56
614.554	5.51
614.742	5.49
614.931	5.33
615.12	5.52
615.309	5.53
615.497	5.41
615.686	5.27
615.875	5.41
616.063	5.34
616.252	5.31
616.44	5.37
616.629	5.31
616.818	5.3
617.006	5.26
617.195	5.22
617.383	5.17
617.572	5.18
617.76	5.17
617.949	5.18
618.137	5.31
618.326	5.22
618.514	5.01
618.703	5.04
618.891	5.12
619.079	5.04
619.268	5.16
619.456	4.99
619.644	5.1
619.833	5.07
620.021	5.01
620.209	4.91
620.398	5
620.586	4.92
620.774	4.96
620.962	4.93
621.151	5.01
621.339	4.9
621.527	4.84
621.715	4.82
621.903	4.82
622.092	4.76
622.28	4.91
622.468	4.63
622.656	4.81
622.844	4.78
623.032	4.77
623.22	4.65
623.408	4.91
623.596	4.65
623.784	4.78
623.972	4.59
624.16	4.62
624.348	4.64
624.536	4.74
624.724	4.53
624.912	4.59
625.1	4.59
625.288	4.61
625.476	4.51
625.664	4.59
625.851	4.49
626.039	4.52
626.227	4.48
626.415	4.52
626.603	4.41
626.79	4.5
626.978	4.48
627.166	4.5
627.354	4.37
627.541	4.3
627.729	4.29
627.917	4.48
628.104	4.41
628.292	4.3
628.48	4.32
628.667	4.26
628.855	4.36
629.042	4.32
629.23	4.24
629.418	4.27
629.605	4.26
629.793	4.18
629.98	4.18
630.168	4.14
630.355	4.22
630.543	4.13
630.73	4.02
630.917	4.07
631.105	4.28
631.292	4.08
631.48	4.04
631.667	4.13
631.854	4.03
632.042	4.05
632.229	3.91
632.416	4.02
632.604	4.02
632.791	3.9
632.978	3.94
633.165	3.91
633.353	3.99
633.54	3.92
633.727	3.81
633.914	3.86
634.101	3.75
634.289	3.88
634.476	3.76
634.663	3.79
634.85	3.82
635.037	3.76
635.224	3.68
635.411	3.81
635.598	3.72
635.785	3.74
635.972	3.67
636.159	3.71
636.346	3.63
636.533	3.65
636.72	3.63
636.907	3.6
637.094	3.61
637.281	3.55
637.468	3.6
637.655	3.61
637.842	3.57
638.029	3.5
638.215	3.5
638.402	3.49
638.589	3.46
638.776	3.45
638.963	3.4
639.149	3.47
639.336	3.52
639.523	3.4
639.709	3.4
639.896	3.46
640.083	3.41
640.27	3.41
640.456	3.31
640.643	3.34
640.829	3.25
641.016	3.28
641.203	3.22
641.389	3.33
641.576	3.26
641.762	3.26
641.949	3.18
642.135	3.24
642.322	3.16
642.508	3.13
642.695	3.22
642.881	3.15
643.068	3.13
643.254	3.08
643.441	3.18
643.627	3.18
643.813	3.05
644	3.13
644.186	2.99
644.372	3.08
644.559	3.04
644.745	3.06
644.931	2.98
645.118	3.06
645.304	3.01
645.49	2.98
645.676	2.94
645.862	2.95
646.049	3.02
646.235	2.91
646.421	3.09
646.607	3.01
646.793	2.91
646.979	2.82
647.165	2.92
647.352	2.87
647.538	2.88
647.724	2.93
647.91	2.78
648.096	2.86
648.282	2.89
648.468	2.78
648.654	2.78
648.84	2.83
649.026	2.77
649.212	2.74
649.397	2.7
649.583	2.67
649.769	2.78
649.955	2.7
650.141	2.74
650.327	2.73
650.513	2.62
650.698	2.66
650.884	2.54
651.07	2.64
651.256	2.59
651.442	2.6
651.627	2.53
651.813	2.65
651.999	2.6
652.184	2.52
652.37	2.55
652.556	2.47
652.741	2.6
652.927	2.37
653.113	2.51
653.298	2.51
653.484	2.46
653.669	2.45
653.855	2.43
654.04	2.52
654.226	2.46
654.412	2.45
654.597	2.34
654.782	2.43
654.968	2.43
655.153	2.41
655.339	2.38
655.524	2.36
655.71	2.41
655.895	2.35
656.08	2.3
656.266	2.39
656.451	2.29
656.636	2.3
656.822	2.29
657.007	2.26
657.192	2.26
657.378	2.21
657.563	2.24
657.748	2.28
657.933	2.23
658.118	2.17
658.304	2.22
658.489	2.31
658.674	2.24
658.859	2.09
659.044	2.16
659.229	2.21
659.414	2.14
659.599	2.16
659.785	2.02
659.97	2.15
660.155	2.16
660.34	2.16
660.525	2.1
660.71	2.07
660.895	2.14
661.08	2.07
661.264	1.96
661.449	2.13
661.634	2.05
661.819	2.03
662.004	1.98
662.189	1.95
662.374	1.98
662.559	1.99
662.743	1.88
662.928	1.98
663.113	1.9
663.298	1.89
663.483	1.93
663.667	1.94
663.852	1.85
664.037	1.95
664.221	1.89
664.406	1.91
664.591	1.98
664.775	1.88
664.96	1.92
665.145	1.88
665.329	1.88
665.514	1.83
665.698	1.73
665.883	1.73
666.068	1.89
666.252	1.82
666.437	1.8
666.621	1.85
666.806	1.83
666.99	1.78
667.174	1.73
667.359	1.86
667.543	1.73
667.728	1.74
667.912	1.67
668.096	1.75
668.281	1.67
668.465	1.71
668.649	1.69
668.834	1.69
669.018	1.68
669.202	1.67
669.387	1.67
669.571	1.77
669.755	1.68
669.939	1.68
670.124	1.64
670.308	1.7
670.492	1.68
670.676	1.64
670.86	1.64
671.044	1.62
671.228	1.61
671.413	1.58
671.597	1.58
671.781	1.59
671.965	1.63
672.149	1.57
672.333	1.58
672.517	1.57
672.701	1.57
672.885	1.54
673.069	1.48
673.253	1.63
673.437	1.52
673.621	1.45
673.804	1.51
673.988	1.53
674.172	1.46
674.356	1.43
674.54	1.46
674.724	1.61
674.908	1.46
675.091	1.53
675.275	1.48
675.459	1.5
675.643	1.51
675.826	1.49
676.01	1.46
676.194	1.42
676.377	1.46
676.561	1.47
676.745	1.41
676.928	1.4
677.112	1.44
677.296	1.4
677.479	1.39
677.663	1.36
677.846	1.44
678.03	1.43
678.213	1.32
678.397	1.41
678.58	1.35
678.764	1.36
678.947	1.3
679.131	1.33
679.314	1.43
679.498	1.35
679.681	1.36
679.865	1.38
680.048	1.29
680.231	1.3
680.415	1.29
680.598	1.31
680.781	1.22
680.965	1.3
681.148	1.29
681.331	1.24
681.514	1.33
681.698	1.25
681.881	1.25
682.064	1.25
682.247	1.28
682.43	1.15
682.614	1.19
682.797	1.34
682.98	1.27
683.163	1.16
683.346	1.21
683.529	1.24
683.712	1.16
683.895	1.23
684.078	1.14
684.261	1.14
684.444	1.22
684.627	1.19
684.81	1.12
684.993	1.17
685.176	1.17
685.359	1.09
685.542	1.11
685.725	1.24
685.908	1.17
686.091	1.12
686.274	1.17
686.457	1.15
686.639	1.15
686.822	1.17
687.005	1.11
687.188	1.11
687.371	1.26
687.553	1.13
687.736	1.11
687.919	1.18
688.102	1.13
688.284	1.03
688.467	1.08
688.65	1.05
688.832	1.05
689.015	1.04
689.197	0.94
689.38	1.09
689.563	1.16
689.745	1.03
689.928	0.98
690.11	1.06
690.293	1.08
690.475	0.97
690.658	1.1
690.84	1.02
691.023	0.95
691.205	0.95
691.388	0.99
691.57	1.09
691.752	1.05
691.935	0.89
692.117	0.9
692.3	0.99
692.482	0.95
692.664	0.94
692.847	0.95
693.029	1.03
693.211	1.02
693.393	0.97
693.576	0.85
693.758	0.96
693.94	0.95
694.122	0.94
694.304	0.91
694.487	0.88
694.669	0.97
694.851	0.87
695.033	0.88
695.215	0.9
695.397	0.93
695.579	0.88
695.761	0.8
695.943	0.82
696.125	0.98
696.308	0.9
696.49	0.75
696.671	1.03
696.853	0.87
697.035	1.06
697.217	0.87
697.399	0.95
697.581	0.85
697.763	0.89
697.945	0.71
698.127	0.9
698.309	0.9
698.491	0.84
698.672	0.96
698.854	0.93
699.036	0.91
699.218	0.82
699.399	0.93
699.581	0.88
699.763	0.78
699.945	0.79
700.126	0.77
700.308	0.81
700.49	0.84
700.671	0.66
700.853	0.7
701.035	0.83
701.216	0.81
701.398	0.76
701.579	0.76
701.761	0.88
701.943	0.8
702.124	0.76
702.306	0.72
702.487	0.92
702.669	0.8
702.85	0.68
703.031	0.73
703.213	0.82
703.394	0.85
703.576	0.72
703.757	0.93
703.938	0.78
704.12	1.02
704.301	0.72
704.483	0.71
704.664	0.8
704.845	0.88
705.026	0.76
705.208	0.69
705.389	0.79
705.57	0.77
705.751	0.68
705.933	0.73
706.114	0.83
706.295	0.69
706.476	0.67
706.657	0.88
706.838	0.75
707.02	0.79
707.201	0.68
707.382	0.7
707.563	0.74
707.744	0.7
707.925	0.64
708.106	0.65
708.287	0.67
708.468	0.78
708.649	0.65
708.83	0.7
709.011	0.66
709.192	0.75
709.373	0.6
709.554	0.62
709.734	0.83
709.915	0.79
710.096	0.61
710.277	0.47
710.458	0.71
710.639	0.76
710.819	0.57
711	0.62
711.181	0.72
711.362	0.73
711.542	0.68
711.723	0.69
711.904	0.69
712.085	0.63
712.265	0.69
712.446	0.52
712.627	0.65
712.807	0.59
712.988	0.62
713.168	0.48
713.349	0.66
713.53	0.45
713.71	0.52
713.891	0.48
714.071	0.63
714.252	0.56
714.432	0.56
714.613	0.56
714.793	0.59
714.974	0.69
715.154	0.63
715.334	0.7
715.515	0.7
715.695	0.54
715.876	0.61
716.056	0.57
716.236	0.56
716.417	0.52
716.597	0.51
716.777	0.77
716.957	0.54
717.138	0.55
717.318	0.56
717.498	0.43
717.678	0.56
717.859	0.6
718.039	0.47
718.219	0.61
718.399	0.54
718.579	0.53
718.759	0.51
718.939	0.59
719.12	0.59
719.3	0.59
719.48	0.37
719.66	0.45
719.84	0.66
720.02	0.56
720.2	0.48
720.38	0.54
720.56	0.67
720.74	0.4
720.92	0.59
721.1	0.74
721.279	0.69
721.459	0.48
721.639	0.48
721.819	0.56
721.999	0.49
722.179	0.61
722.359	0.4
722.538	0.51
722.718	0.57
722.898	0.55
723.078	0.44
723.257	0.45
723.437	0.56
723.617	0.52
723.797	0.46
723.976	0.58
724.156	0.55
724.336	0.67
724.515	0.7
724.695	0.32
724.874	0.55
725.054	0.56
725.234	0.4
725.413	0.54
725.593	0.46
725.772	0.55
725.952	0.5
726.131	0.45
726.311	0.44
726.49	0.54
726.67	0.42
726.849	0.37
727.028	0.49
727.208	0.48
727.387	0.5
727.567	0.35
727.746	0.45
727.925	0.46
728.105	0.37
728.284	0.47
728.463	0.44
728.643	0.47
728.822	0.37
729.001	0.42
729.18	0.6
729.359	0.59
729.539	0.49
729.718	0.59
729.897	0.55
730.076	0.49
730.255	0.39
730.434	0.5
730.614	0.56
730.793	0.56
730.972	0.42
731.151	0.48
731.33	0.61
731.509	0.54
731.688	0.52
731.867	0.46
732.046	0.32
732.225	0.68
732.404	0.36
732.583	0.35
732.762	0.48
732.941	0.57
733.12	0.54
733.298	0.47
733.477	0.63
733.656	0.39
733.835	0.28
734.014	0.65
734.193	0.48
734.371	0.54
734.55	0.5
734.729	0.25
734.908	0.56
735.086	0.53
735.265	0.48
735.444	0.32
735.623	0.43
735.801	0.4
735.98	0.37
736.159	0.48
736.337	0.59
736.516	0.44
736.694	0.56
736.873	0.34
737.052	0.81
737.23	0.67
737.409	0.48
737.587	0.74
737.766	0.32
737.944	0.47
738.123	0.52
738.301	0.49
738.479	0.54
738.658	0.48
738.836	0.3
739.015	0.55
739.193	0.64
739.371	0.38
739.55	0.38
739.728	0.39
739.906	0.67
740.085	0.66
740.263	0.54
740.441	0.25
740.62	0.69
740.798	0.54
740.976	0.42
741.154	0.37
741.332	0.72
741.511	0.49
741.689	0.38
741.867	0.47
742.045	0.52
742.223	0.37
742.401	0.29
742.579	0.27
742.757	0.61
742.935	0.31
743.114	0.33
743.292	0.45
743.47	0.4
743.648	0.38
743.826	0.42
744.004	0.51
744.181	0.52
744.359	0.36
744.537	0.59
744.715	0.38
744.893	0.44
745.071	0.45
745.249	0.41
745.427	0.43
745.605	0.49
745.782	0.4
745.96	0.45
746.138	0.54
746.316	0.61
746.493	0.43
746.671	0.41
746.849	0.39
747.027	0.49
747.204	0.36
747.382	0.48
747.56	0.28
747.737	0.29
747.915	0.44
748.093	0.52
748.27	0.32
748.448	0.32
748.625	0.18
748.803	0.35
748.98	0.39
749.158	0.5
749.335	0.54
749.513	0.32
749.69	0.42
749.868	0.46
750.045	0.49
750.223	0.38
750.4	0.23
750.578	0.59
750.755	0.4
750.932	0.28
751.11	0.57
751.287	0.14
751.464	0.58
751.642	0.25
751.819	0.42
751.996	0.42
752.173	0.26
752.351	0.31
752.528	0.26
752.705	0.42
752.882	0.36
753.06	0.38
753.237	0.52
753.414	0.64
753.591	0.63
753.768	0.43
753.945	0.48
754.122	0.31
754.299	0.4
754.476	0.23
754.654	0.42
754.831	0.46
755.008	0.41
755.185	0.33
755.362	0.24
755.539	0.47
755.716	0.29
755.892	0.46
756.069	0.29
756.246	0.33
756.423	0.29
756.6	0.43
756.777	0.28
756.954	0.57
757.131	0.32
757.307	0.29
757.484	0.27
757.661	0.29
757.838	0.49
758.015	0.23
758.191	0.56
758.368	0.57
758.545	0.48
758.721	0.42
758.898	0.29
759.075	0.39
759.251	0.51
759.428	0.38
759.605	0.29
759.781	0.23
759.958	0.54
760.134	0.46
760.311	0.2
760.488	0.51
760.664	0.49
760.841	0.22
761.017	0.26
761.194	0.49
761.37	0.41
761.547	0.43
761.723	0.41
761.899	0.53
762.076	0.2
762.252	0.25
762.429	0.27
762.605	0.49
762.781	0.27
762.958	0.43
763.134	0.26
763.31	0.22
763.486	0.58
763.663	0.12
763.839	0.4
764.015	0.07
764.191	0.25
764.368	0.42
764.544	0.26
764.72	0.48
764.896	0.44
765.072	0.34
765.248	0.29
765.425	0.22
765.601	0.32
765.777	0.26
765.953	0.07
766.129	0.35
766.305	0.21
766.481	0.39
766.657	0.4
766.833	0.7
767.009	0.31
767.185	0.35
767.361	0.52
767.537	0.3
767.713	0.68
767.889	0.23
768.065	0.33
768.24	0.22
768.416	0.61
768.592	0.27
768.768	0.36
768.944	0.47
769.12	0.23
769.295	0.36
769.471	0.23
769.647	0.23
769.823	0.51
769.998	0.35
770.174	0.18
770.35	0.59
770.525	0.74
770.701	0.51
770.877	0.38
771.052	0.21
771.228	0.47
771.403	0.4
771.579	0.29
771.755	0.6
771.93	0.26
772.106	0.41
772.281	-0.01
772.457	0.32
772.632	0.37
772.808	0.18
772.983	0.3
773.159	0.16
773.334	0.61
773.509	0.37
773.685	0.35
773.86	0.75
774.036	0.72
774.211	0.49
774.386	0.38
774.562	0.38
774.737	0.53
774.912	0.24
775.087	0.55
775.263	0.25
775.438	0.29
775.613	0.25
775.788	0.35
775.964	0.49
776.139	0.78
776.314	0.11
776.489	0.48
776.664	0.33
776.839	0.31
777.014	0.5
777.19	0.56
777.365	0.64
777.54	0.69
777.715	0.42
777.89	0.45
778.065	0.2
778.24	0.45
778.415	0.52
778.59	0.24
778.765	0.28
778.94	0.39
779.115	0.35
779.289	0.27
779.464	0.42
779.639	0.28
779.814	0.07
779.989	0.15
780.164	0.64
780.339	0.41
780.513	0.31
780.688	0.27
780.863	0.4
781.038	0.55
781.212	0.18
781.387	0.29
781.562	0.68
781.737	0.06
781.911	0.67
782.086	0.08
782.261	0.25
782.435	0.63
782.61	0.26
782.784	0.29
782.959	0.66
783.134	0.27
783.308	0.17
783.483	0.3
783.657	0.87
783.832	0.58
784.006	-0.09
784.181	0.38
784.355	0.49
784.53	0.15
784.704	0.11
784.878	0.72
785.053	0.61
785.227	0.62
785.402	0.79
785.576	0.41
785.75	0.33
785.925	0.33
786.099	0.11
786.273	0.22
786.448	0.66
786.622	0.56
786.796	0.25
786.97	0.38
787.145	0.98
787.319	0.19
787.493	0.27
787.667	-0.06
787.841	0.41
788.015	0.97
788.19	0.09
788.364	0.4
788.538	0.79
788.712	0.48
788.886	0.43
789.06	0.55
789.234	0.53
789.408	0.05
789.582	0.3
789.756	0.15
789.93	0.27
790.104	0.48
790.278	0.39
790.452	0.32
790.626	0.4
790.8	0.23
790.973	0.59
791.147	0.82
791.321	0.75
791.495	0.71
791.669	0.48
791.843	0.59
792.016	0.48
792.19	0.91
792.364	0.11
792.538	1.14
792.711	0.64
792.885	0.11
793.059	0.13
793.233	-0
793.406	0.58
793.58	0.34
793.754	0.68
793.927	0.52
794.101	0.82
794.274	0.22
794.448	0.6
794.622	0.08
794.795	0.77
794.969	0.29
795.142	0.8
795.316	0.39
795.489	0.25
795.663	1
795.836	0.42
796.009	0.26
796.183	1.03
796.356	0.21
796.53	0.59
796.703	0.48
796.876	1.03
797.05	0.25
797.223	0.38
797.396	0.46
797.57	0.46
797.743	0.65
797.916	0.67
798.09	0.48
798.263	0.84
798.436	0.66
798.609	0.3
798.782	0.28
798.956	0.49
799.129	0.57
799.302	0.33
799.475	0.31
799.648	0.59
799.821	0.7
799.994	0.61
800.167	0.08
800.34	0.3
800.514	0.34
800.687	0.18
800.86	0.35
801.033	0.62
801.206	0.72
801.379	0.41
801.551	0.73
801.724	0.67
801.897	0.87
802.07	0.36
802.243	0.31
802.416	0.32
802.589	0.48
802.762	0.61
802.935	0.41
803.107	0.7
803.28	0.79
803.453	0.65
803.626	0.39
803.798	0.61
803.971	0.15
804.144	0.56
804.317	0.76
804.489	0.76
804.662	0.59
804.835	0.76
805.007	0.35
805.18	1.02
805.353	0.78
805.525	0.04
805.698	0.19
805.87	0.72
806.043	0.64
806.215	0.3
806.388	0.02
806.56	0.72
806.733	0.98
806.905	0.76
807.078	0.33
807.25	0.23
807.423	0.84
807.595	0.4
807.768	0.41
807.94	0.91
808.112	0.72
808.285	0.54
808.457	0.36
808.629	0.73
808.802	0.7
808.974	0.83
809.146	0.07
809.318	0.31
809.491	0.37
809.663	0.81
809.835	0.33
810.007	0.64
810.18	0.74
810.352	0.2
810.524	0.26
810.696	0.99
810.868	0.73
811.04	0.44
811.212	0.45
811.384	0.96
811.556	0.99
811.728	0.6
811.901	1.49
812.073	0.5
812.245	0.6
812.417	0.46
812.589	-0.12
812.76	0.99
812.932	0.76
813.104	0.78
813.276	0.52
813.448	0.85
813.62	0.34
813.792	0.82
813.964	0.42
814.136	0.75
814.307	0.65
814.479	0.26
814.651	0.58
814.823	1.34
814.995	0.57
815.166	0.59
815.338	0.48
815.51	-0.04
815.681	1.59
815.853	0.65
816.025	0.52
816.196	1.21
816.368	1.2
816.54	0.23
816.711	0.28
816.883	0.96
817.054	1.72
817.226	-0
817.398	0.71
817.569	0.36
817.741	0.83
817.912	0.51
818.084	0.67
818.255	0.91
818.426	0.43
818.598	0.4
818.769	-0.04
818.941	1.41
819.112	1.51
819.283	0.81
819.455	-0.03
819.626	0.75
819.798	0.8
819.969	0.78
820.14	0.65
820.311	0.42
820.483	1.12
820.654	1.21
820.825	0.47
820.996	0.54
821.168	0.14
821.339	0.69
821.51	0.48
821.681	0.48
821.852	0.9
822.023	-0.02
822.195	0.04
822.366	0.96
822.537	0.8
822.708	1.31
822.879	0.69
823.05	1.35
823.221	0.69
823.392	1.05
823.563	0.5
823.734	0.97
823.905	0.62
824.076	0.75
824.247	0.16
824.418	0.84
824.589	1.27
824.759	0.63
824.93	0.74
825.101	-0.43
825.272	1.24
825.443	1.2
825.614	1.33
825.784	0.15
825.955	1.99
826.126	1.58
826.297	1.21
826.467	1.19
826.638	1.59
826.809	0.74
826.98	0.93
827.15	2.01
827.321	1.21
827.492	1.76
827.662	0.89
827.833	2.05
828.003	1.37
828.174	0.1
828.345	-0.3
828.515	1.42
828.686	1.03
828.856	0.82
829.027	0.88
829.197	1.23
829.368	1.24
829.538	0.82
829.709	0.7
829.879	0.73
830.049	0.56
830.22	0.33
830.39	0.79
830.56	0.92
830.731	0.88
830.901	0.66
831.072	0.54
831.242	1.14
831.412	0.97
831.582	1.01
831.753	0.07
831.923	1.82
832.093	0.94
832.263	0.58
832.434	0.29
832.604	0.62
832.774	1.32
832.944	0.42
833.114	0.05
833.284	0.97
833.454	0.25
833.624	0.8
833.795	0.24
833.965	1.57
834.135	1.86
834.305	-0.25
834.475	0.26
834.645	0.88
834.815	0.15
834.985	-0.21
835.155	0.09
835.325	1.61
835.494	1.24
835.664	0.81
835.834	0.17
836.004	1.29
836.174	1.61
836.344	0.88
836.514	-0.13
836.684	0.55
836.853	1.35
837.023	1.33
837.193	0.42
837.363	1.96
837.532	1.72
837.702	0.58
837.872	0.07
838.041	1.61
838.211	2.84
838.381	-0.3
838.55	0.62
838.72	3.71
838.89	2.21
839.059	0.64
839.229	-0.55
839.398	2.73
839.568	1.7
839.738	0.6
839.907	2.16
840.077	1.15
840.246	0.52
840.416	0.66
840.585	0.06
840.755	2.71
840.924	2.08
841.093	0.68
841.263	-0.03
841.432	0.96
841.602	0.64
841.771	0.01
841.94	0.89
842.11	2.48
842.279	2.9
842.448	0.14
842.617	0.32
842.787	2.1
842.956	0.03
843.125	0.98
843.294	0.38
843.464	2.22
843.633	0.97
843.802	0.46
843.971	0.19
844.14	1.47
844.309	1.38
844.479	-1.08
844.648	0.2
844.817	0.84
844.986	1.21
845.155	-0.03
845.324	0.32
845.493	1.13
845.662	0.12
845.831	0.99
846	0.87
846.169	1.02
846.338	2.16
846.507	1.21
846.676	0.89
846.844	0.28
847.013	2.34
847.182	1.44
847.351	0.07
847.52	0.51
847.689	2.06
847.858	1.5
848.026	0.42
848.195	1.21
848.364	0.47
848.533	1.24
848.701	0.23
848.87	1.02
849.039	2.68
849.207	2.15
849.376	2.44
849.545	2.75
849.713	0.56
849.882	0.73
850.051	1.4
850.219	0.9
850.388	2.56
850.556	-0.58
850.725	0.68
850.893	1.04
851.062	-0.13
851.23	1.2
851.399	-1.14
851.567	1.59
851.736	1.4
851.904	-0.18
852.073	1.15
852.241	1.7
852.41	1.71
852.578	0.99
852.746	1.41
852.915	1.86
853.083	2.15
853.251	-0.27
853.42	0.61
853.588	1.7
853.756	2.81
853.924	1.42
854.093	0.49
854.261	1.19
854.429	-0.49
854.597	1.2
854.765	0.12
854.934	2.01
855.102	2.07
855.27	1.13
855.438	1.82
855.606	3.76
855.774	2.75
855.942	0.1
856.11	-1.14
856.278	1.11
856.446	2.57
856.614	0.95
856.782	0.63
856.95	2.4
857.118	1.62
857.286	1.02
857.454	0.55
857.622	2.9
857.79	1.44
857.958	-0.5
858.126	0.89
858.294	-0.84
858.462	0.93
858.629	1.08
858.797	-0.4
858.965	2.8
859.133	1.74
859.301	0.52
859.468	2.07
859.636	1.75
859.804	4.29
859.971	2.72
860.139	0.04
860.307	1.36
860.474	1.53
860.642	1.18
860.81	1.44
860.977	2.1
861.145	2.31
861.313	0.12
861.48	1.89
861.648	3.11
861.815	1.44
861.983	0.23
862.15	-0.26
862.318	1.81
862.485	2.95
862.653	-0.33
862.82	1.65
862.988	3.39
863.155	1.95
863.322	1.01
863.49	-0.51
863.657	0.16
863.824	3.57
863.992	2.8
864.159	1.29
864.326	3.51
864.494	1.31
864.661	3.93
864.828	-0.51
864.996	2.63
865.163	3.75
865.33	0.5
865.497	-1.62
865.664	0.14
865.832	-0.22
865.999	1.43
866.166	0.5
866.333	-0.24
866.5	0.91
866.667	0.74
866.834	2.22
867.001	2.91
867.168	-0.54
867.335	1.79
867.502	-0.8
867.669	1.04
867.836	3.88
868.003	1.38
868.17	2.16
868.337	-0.24
868.504	5.18
868.671	0.27
868.838	0.69
869.005	3.11
869.172	1.9
869.339	2.71
869.505	0.74
869.672	1.58
869.839	4.55
870.006	1.26
870.173	0.09
870.339	1.07
870.506	4.47
870.673	0.39
870.84	1.58
871.006	2.19
871.173	2.01
871.34	2.7
871.506	0.03
871.673	2.57
871.839	-1.73
872.006	3.03
872.173	0.99
872.339	1.72
872.506	2.19
872.672	1.36
872.839	0.42
873.005	2.85
873.172	5.75
873.338	1.18
873.505	1.83
873.671	2.79
873.838	4.18
874.004	-1.26
874.171	0.41
874.337	1.37
874.503	3.28
874.67	1.41
874.836	1.41
875.002	3.53
875.169	2.59
875.335	1.66
875.501	1.68
875.668	2.99
875.834	3.03
876	0.37
876.166	2.29
876.332	2.24
876.499	6.06
876.665	1.31
876.831	1.83
876.997	4.45
877.163	2.19
877.329	0.99
877.495	4.15
877.662	2.27
877.828	3.57
877.994	1.4
878.16	-1.81
878.326	1.39
878.492	2.98
878.658	1.59
878.824	2.15
878.99	2.75
879.156	0.65
879.322	3.55
879.487	2.41
879.653	2.39
879.819	1.84
879.985	0.09
880.151	1.64
880.317	2.56
880.483	2.8
880.648	3.03
880.814	0.04
880.98	4.44
881.146	-0.77
881.312	1.09
881.477	1.92
881.643	0.64
881.809	3.33
881.974	4.87
882.14	-2.48
882.306	2.05
882.471	6.22
882.637	0.71
882.803	2.36
882.968	5.29
883.134	5.72
883.299	2.81
883.465	0.78
883.63	5.09
883.796	2.7
883.961	2.32
884.127	2.68
884.292	-1.69
884.458	-1.14
884.623	-1.14
