Data from Apollo_Calib_20240827__AbsoluteIrradiance__820__12-49-02-093.txt Node

Date: Wed Aug 28 12:49:02 BST 2024
User: biology
Spectrometer: FLMT08252
Trigger mode: 0
Integration Time (sec): 5.000000E-1
Scans to average: 5
Electric dark correction enabled: true
Nonlinearity correction enabled: false
Boxcar width: 0
XAxis mode: Wavelengths
Number of Pixels in Spectrum: 3648
>>>>>Begin Spectral Data<<<<<
179.588	-0
179.809	-0
180.03	-0
180.251	-0
180.473	-0
180.694	0
180.915	0
181.136	-0
181.357	0
181.578	-0
181.799	0
182.02	-0
182.241	-0
182.462	-0
182.683	0
182.904	-0
183.125	-0
183.346	0
183.567	0
183.788	0
184.009	0
184.23	0
184.451	0
184.672	0
184.892	0
185.113	0
185.334	0
185.555	0
185.776	0
185.996	0
186.217	0
186.438	0
186.659	0
186.879	0
187.1	0
187.321	0
187.541	0
187.762	0
187.983	0
188.203	0
188.424	0
188.644	0
188.865	0
189.086	0
189.306	0
189.527	0
189.747	0
189.968	0
190.188	0
190.409	0
190.629	0
190.849	0
191.07	0
191.29	0
191.511	0
191.731	0
191.951	0
192.172	0
192.392	0
192.612	0
192.833	0
193.053	0
193.273	0
193.493	0
193.714	0
193.934	0
194.154	0
194.374	0
194.594	0
194.815	0
195.035	0
195.255	0
195.475	0
195.695	0
195.915	0
196.135	0
196.355	0
196.575	0
196.795	0
197.015	0
197.235	0
197.455	0
197.675	0
197.895	0
198.115	0
198.335	0
198.555	0
198.775	0
198.995	0
199.214	0
199.434	0
199.654	0
199.874	0
200.094	3.71
200.313	2.49
200.533	1.67
200.753	1.26
200.973	3.73
201.192	4.07
201.412	0.87
201.632	1.76
201.851	3.25
202.071	1.56
202.291	1.63
202.51	0.88
202.73	3.23
202.95	1.6
203.169	1.31
203.389	1.86
203.608	2.26
203.828	1.78
204.047	1.4
204.267	2.12
204.486	1.93
204.706	2.31
204.925	1.34
205.145	1.45
205.364	2.33
205.583	2.73
205.803	0.99
206.022	0.83
206.242	1.62
206.461	1.33
206.68	1.24
206.9	1.73
207.119	2.57
207.338	2.16
207.557	1.28
207.777	1.34
207.996	1.41
208.215	2.02
208.434	1.28
208.654	0.77
208.873	1.41
209.092	2.21
209.311	0.97
209.53	1.21
209.749	1.1
209.968	1.19
210.187	0.89
210.407	0.78
210.626	1.2
210.845	1.44
211.064	1.05
211.283	0.72
211.502	1.53
211.721	0.95
211.94	0.83
212.159	1.41
212.377	1.27
212.596	1.49
212.815	1.05
213.034	1.05
213.253	1.31
213.472	1.21
213.691	0.83
213.91	0.62
214.128	0.77
214.347	1.3
214.566	0.56
214.785	0.55
215.003	1.3
215.222	1.16
215.441	1
215.66	0.59
215.878	1
216.097	1.39
216.316	0.68
216.534	0.74
216.753	1.14
216.972	0.92
217.19	0.74
217.409	0.57
217.627	0.64
217.846	0.75
218.064	0.97
218.283	0.52
218.501	1.26
218.72	1.07
218.938	0.54
219.157	0.57
219.375	1.02
219.594	0.98
219.812	0.5
220.031	0.48
220.249	0.97
220.467	1.26
220.686	0.45
220.904	0.5
221.122	0.72
221.341	1.15
221.559	0.74
221.777	0.45
221.995	0.64
222.214	0.95
222.432	0.55
222.65	0.79
222.868	0.82
223.086	0.76
223.305	0.9
223.523	0.6
223.741	1.04
223.959	0.68
224.177	0.23
224.395	0.54
224.613	0.83
224.831	0.85
225.049	0.49
225.267	0.55
225.485	0.77
225.703	0.68
225.921	0.53
226.139	0.39
226.357	0.86
226.575	0.77
226.793	0.47
227.011	1.48
227.229	0.76
227.447	0.78
227.665	0.53
227.883	0.29
228.1	0.79
228.318	0.8
228.536	0.25
228.754	0.38
228.972	0.76
229.189	0.59
229.407	0.45
229.625	0.55
229.843	0.78
230.06	0.74
230.278	0.45
230.496	0.59
230.713	0.71
230.931	0.83
231.149	0.44
231.366	0.31
231.584	0.52
231.801	0.97
232.019	0.44
232.236	0.32
232.454	0.41
232.671	0.66
232.889	0.43
233.106	0.37
233.324	0.55
233.541	0.43
233.759	0.4
233.976	0.31
234.194	0.48
234.411	0.46
234.628	0.34
234.846	0.35
235.063	0.48
235.28	0.62
235.498	0.51
235.715	0.4
235.932	0.76
236.149	0.49
236.367	0.44
236.584	0.47
236.801	0.43
237.018	0.7
237.236	0.5
237.453	0.25
237.67	0.75
237.887	0.52
238.104	0.42
238.321	0.33
238.538	0.28
238.755	0.76
238.973	0.29
239.19	0.5
239.407	0.56
239.624	0.51
239.841	0.42
240.058	0.41
240.275	0.61
240.492	0.55
240.709	0.46
240.925	0.41
241.142	0.44
241.359	0.31
241.576	0.3
241.793	0.36
242.01	0.47
242.227	0.53
242.444	0.45
242.66	0.57
242.877	0.55
243.094	0.3
243.311	0.39
243.527	0.35
243.744	0.48
243.961	0.52
244.178	0.35
244.394	0.39
244.611	0.6
244.828	0.79
245.044	0.33
245.261	0.28
245.477	0.51
245.694	0.56
245.911	0.24
246.127	0.48
246.344	0.64
246.56	0.55
246.777	0.42
246.993	0.38
247.21	0.49
247.426	0.58
247.643	0.31
247.859	0.35
248.076	0.36
248.292	0.73
248.508	0.3
248.725	0.36
248.941	0.58
249.157	0.58
249.374	0.25
249.59	0.38
249.806	0.42
250.023	0.46
250.239	0.36
250.455	0.32
250.671	0.44
250.888	0.43
251.104	0.49
251.32	0.32
251.536	0.45
251.752	0.41
251.969	0.38
252.185	0.39
252.401	0.6
252.617	0.42
252.833	0.29
253.049	0.41
253.265	0.43
253.481	0.4
253.697	0.29
253.913	0.32
254.129	0.43
254.345	0.45
254.561	0.3
254.777	0.37
254.993	0.42
255.209	0.52
255.425	0.37
255.641	0.32
255.857	0.48
256.073	0.44
256.288	0.22
256.504	0.25
256.72	0.42
256.936	0.51
257.152	0.34
257.367	0.34
257.583	0.42
257.799	0.5
258.015	0.31
258.23	0.28
258.446	0.58
258.662	0.36
258.877	0.3
259.093	0.26
259.309	0.37
259.524	0.49
259.74	0.25
259.955	0.27
260.171	0.35
260.387	0.4
260.602	0.36
260.818	0.4
261.033	0.25
261.249	0.4
261.464	0.27
261.68	0.19
261.895	0.42
262.11	0.45
262.326	0.28
262.541	0.23
262.757	0.54
262.972	0.38
263.187	0.35
263.403	0.38
263.618	0.44
263.833	0.36
264.049	0.22
264.264	0.26
264.479	0.37
264.694	0.48
264.91	0.21
265.125	0.29
265.34	0.36
265.555	0.56
265.77	0.31
265.986	0.26
266.201	0.46
266.416	0.47
266.631	0.3
266.846	0.35
267.061	0.38
267.276	0.39
267.491	0.19
267.706	0.3
267.921	0.42
268.136	0.33
268.351	0.34
268.566	0.26
268.781	0.4
268.996	0.45
269.211	0.3
269.426	0.23
269.641	0.28
269.856	0.48
270.071	0.23
270.285	0.26
270.5	0.46
270.715	0.44
270.93	0.26
271.145	0.33
271.359	0.43
271.574	0.28
271.789	0.27
272.004	0.28
272.218	0.32
272.433	0.37
272.648	0.23
272.862	0.36
273.077	0.36
273.292	0.29
273.506	0.27
273.721	0.23
273.936	0.47
274.15	0.38
274.365	0.3
274.579	0.36
274.794	0.35
275.008	0.36
275.223	0.2
275.437	0.35
275.652	0.47
275.866	0.36
276.081	0.31
276.295	0.37
276.509	0.32
276.724	0.37
276.938	0.29
277.153	0.33
277.367	0.35
277.581	0.22
277.796	0.29
278.01	0.25
278.224	0.46
278.438	0.47
278.653	0.23
278.867	0.19
279.081	0.19
279.295	0.26
279.51	0.28
279.724	0.13
279.938	0.37
280.152	0.35
280.366	0.23
280.58	0.35
280.794	0.39
281.008	0.4
281.222	0.31
281.437	0.45
281.651	0.3
281.865	0.37
282.079	0.24
282.293	0.14
282.507	0.34
282.721	0.25
282.935	0.29
283.148	0.16
283.362	0.27
283.576	0.22
283.79	0.24
284.004	0.22
284.218	0.4
284.432	0.22
284.646	0.3
284.859	0.27
285.073	0.29
285.287	0.32
285.501	0.28
285.714	0.28
285.928	0.24
286.142	0.33
286.356	0.22
286.569	0.24
286.783	0.34
286.997	0.41
287.21	0.3
287.424	0.29
287.637	0.29
287.851	0.3
288.065	0.34
288.278	0.25
288.492	0.33
288.705	0.29
288.919	0.31
289.132	0.22
289.346	0.31
289.559	0.18
289.773	0.21
289.986	0.21
290.2	0.27
290.413	0.33
290.626	0.25
290.84	0.23
291.053	0.25
291.267	0.35
291.48	0.26
291.693	0.25
291.906	0.24
292.12	0.23
292.333	0.21
292.546	0.24
292.76	0.36
292.973	0.3
293.186	0.34
293.399	0.2
293.612	0.32
293.826	0.25
294.039	0.26
294.252	0.27
294.465	0.37
294.678	0.3
294.891	0.25
295.104	0.16
295.317	0.29
295.53	0.29
295.743	0.23
295.956	0.24
296.169	0.37
296.382	0.27
296.595	0.25
296.808	0.16
297.021	0.39
297.234	0.32
297.447	0.18
297.66	0.29
297.873	0.33
298.086	0.33
298.299	0.27
298.511	0.14
298.724	0.21
298.937	0.23
299.15	0.2
299.363	0.23
299.575	0.29
299.788	0.3
300.001	0.21
300.213	0.18
300.426	0.23
300.639	0.23
300.852	0.24
301.064	0.27
301.277	0.34
301.489	0.32
301.702	0.27
301.915	0.25
302.127	0.23
302.34	0.24
302.552	0.3
302.765	0.18
302.977	0.31
303.19	0.22
303.402	0.22
303.615	0.19
303.827	0.22
304.04	0.23
304.252	0.3
304.464	0.26
304.677	0.41
304.889	0.3
305.102	0.21
305.314	0.21
305.526	0.27
305.739	0.3
305.951	0.2
306.163	0.23
306.375	0.32
306.588	0.2
306.8	0.22
307.012	0.15
307.224	0.28
307.436	0.35
307.649	0.15
307.861	0.23
308.073	0.31
308.285	0.21
308.497	0.2
308.709	0.2
308.921	0.26
309.133	0.29
309.346	0.23
309.558	0.2
309.77	0.34
309.982	0.34
310.194	0.29
310.406	0.2
310.617	0.39
310.829	0.24
311.041	0.3
311.253	0.2
311.465	0.26
311.677	0.25
311.889	0.24
312.101	0.2
312.313	0.3
312.524	0.31
312.736	0.15
312.948	0.25
313.16	0.35
313.372	0.29
313.583	0.28
313.795	0.23
314.007	0.25
314.218	0.29
314.43	0.27
314.642	0.2
314.853	0.17
315.065	0.36
315.277	0.24
315.488	0.25
315.7	0.31
315.912	0.28
316.123	0.25
316.335	0.25
316.546	0.38
316.758	0.25
316.969	0.21
317.181	0.25
317.392	0.26
317.604	0.31
317.815	0.22
318.026	0.19
318.238	0.23
318.449	0.28
318.661	0.15
318.872	0.22
319.083	0.19
319.295	0.28
319.506	0.24
319.717	0.25
319.929	0.28
320.14	0.24
320.351	0.24
320.562	0.2
320.774	0.28
320.985	0.24
321.196	0.21
321.407	0.14
321.618	0.29
321.829	0.28
322.041	0.24
322.252	0.24
322.463	0.26
322.674	0.24
322.885	0.23
323.096	0.22
323.307	0.24
323.518	0.29
323.729	0.23
323.94	0.24
324.151	0.25
324.362	0.27
324.573	0.26
324.784	0.23
324.995	0.31
325.206	0.26
325.417	0.22
325.628	0.2
325.838	0.22
326.049	0.3
326.26	0.28
326.471	0.21
326.682	0.29
326.892	0.24
327.103	0.15
327.314	0.18
327.525	0.28
327.735	0.29
327.946	0.23
328.157	0.22
328.368	0.3
328.578	0.21
328.789	0.27
328.999	0.25
329.21	0.22
329.421	0.33
329.631	0.22
329.842	0.2
330.052	0.27
330.263	0.3
330.473	0.25
330.684	0.22
330.894	0.23
331.105	0.24
331.315	0.22
331.526	0.19
331.736	0.37
331.947	0.24
332.157	0.27
332.367	0.19
332.578	0.28
332.788	0.35
332.999	0.26
333.209	0.22
333.419	0.16
333.629	0.32
333.84	0.28
334.05	0.21
334.26	0.37
334.47	0.3
334.681	0.25
334.891	0.19
335.101	0.29
335.311	0.35
335.521	0.21
335.732	0.21
335.942	0.37
336.152	0.31
336.362	0.22
336.572	0.3
336.782	0.32
336.992	0.27
337.202	0.27
337.412	0.21
337.622	0.32
337.832	0.23
338.042	0.24
338.252	0.18
338.462	0.23
338.672	0.28
338.882	0.26
339.092	0.22
339.302	0.34
339.511	0.25
339.721	0.2
339.931	0.19
340.141	0.3
340.351	0.32
340.561	0.25
340.77	0.26
340.98	0.29
341.19	0.26
341.4	0.18
341.609	0.18
341.819	0.21
342.029	0.22
342.238	0.29
342.448	0.24
342.658	0.32
342.867	0.24
343.077	0.23
343.286	0.24
343.496	0.29
343.706	0.31
343.915	0.2
344.125	0.23
344.334	0.25
344.544	0.16
344.753	0.22
344.963	0.21
345.172	0.23
345.381	0.29
345.591	0.2
345.8	0.24
346.01	0.33
346.219	0.29
346.428	0.22
346.638	0.25
346.847	0.24
347.056	0.32
347.266	0.25
347.475	0.24
347.684	0.25
347.893	0.35
348.103	0.26
348.312	0.17
348.521	0.23
348.73	0.22
348.94	0.24
349.149	0.22
349.358	0.29
349.567	0.22
349.776	0.13
349.985	0.22
350.194	0.3
350.403	0.3
350.612	0.17
350.821	0.19
351.03	0.22
351.239	0.15
351.448	0.21
351.657	0.21
351.866	0.34
352.075	0.24
352.284	0.22
352.493	0.22
352.702	0.31
352.911	0.25
353.12	0.24
353.329	0.18
353.538	0.25
353.746	0.22
353.955	0.23
354.164	0.26
354.373	0.23
354.582	0.27
354.79	0.21
354.999	0.29
355.208	0.21
355.416	0.3
355.625	0.16
355.834	0.22
356.042	0.22
356.251	0.2
356.46	0.18
356.668	0.23
356.877	0.34
357.085	0.27
357.294	0.18
357.503	0.26
357.711	0.22
357.92	0.37
358.128	0.28
358.337	0.21
358.545	0.28
358.754	0.21
358.962	0.31
359.17	0.2
359.379	0.24
359.587	0.28
359.796	0.22
360.004	0.27
360.212	0.26
360.421	0.3
360.629	0.19
360.837	0.23
361.046	0.27
361.254	0.42
361.462	0.23
361.67	0.21
361.879	0.27
362.087	0.33
362.295	0.26
362.503	0.22
362.711	0.19
362.92	0.22
363.128	0.19
363.336	0.19
363.544	0.21
363.752	0.22
363.96	0.21
364.168	0.2
364.376	0.2
364.584	0.27
364.792	0.31
365	0.23
365.208	0.23
365.416	0.24
365.624	0.25
365.832	0.21
366.04	0.37
366.248	0.25
366.456	0.24
366.664	0.22
366.872	0.25
367.079	0.25
367.287	0.24
367.495	0.25
367.703	0.24
367.911	0.25
368.118	0.22
368.326	0.23
368.534	0.22
368.742	0.33
368.949	0.16
369.157	0.22
369.365	0.26
369.572	0.22
369.78	0.14
369.988	0.3
370.195	0.25
370.403	0.32
370.61	0.2
370.818	0.24
371.026	0.35
371.233	0.21
371.441	0.23
371.648	0.24
371.856	0.27
372.063	0.26
372.271	0.19
372.478	0.22
372.685	0.22
372.893	0.31
373.1	0.28
373.308	0.24
373.515	0.37
373.722	0.3
373.93	0.22
374.137	0.28
374.344	0.3
374.552	0.29
374.759	0.29
374.966	0.24
375.173	0.21
375.381	0.35
375.588	0.23
375.795	0.17
376.002	0.22
376.209	0.18
376.417	0.28
376.624	0.27
376.831	0.3
377.038	0.26
377.245	0.17
377.452	0.21
377.659	0.25
377.866	0.2
378.073	0.22
378.28	0.23
378.487	0.32
378.694	0.33
378.901	0.26
379.108	0.23
379.315	0.31
379.522	0.33
379.729	0.28
379.936	0.24
380.143	0.27
380.35	0.27
380.557	0.25
380.763	0.24
380.97	0.28
381.177	0.31
381.384	0.27
381.591	0.26
381.797	0.32
382.004	0.3
382.211	0.28
382.418	0.2
382.624	0.26
382.831	0.34
383.038	0.26
383.244	0.25
383.451	0.3
383.658	0.3
383.864	0.23
384.071	0.23
384.277	0.35
384.484	0.24
384.69	0.35
384.897	0.26
385.103	0.29
385.31	0.2
385.516	0.25
385.723	0.25
385.929	0.29
386.136	0.25
386.342	0.34
386.549	0.24
386.755	0.35
386.961	0.29
387.168	0.24
387.374	0.28
387.58	0.33
387.787	0.28
387.993	0.3
388.199	0.29
388.406	0.22
388.612	0.25
388.818	0.24
389.024	0.18
389.231	0.31
389.437	0.38
389.643	0.34
389.849	0.24
390.055	0.29
390.261	0.3
390.467	0.31
390.674	0.22
390.88	0.32
391.086	0.35
391.292	0.25
391.498	0.29
391.704	0.26
391.91	0.27
392.116	0.28
392.322	0.15
392.528	0.35
392.734	0.25
392.94	0.32
393.146	0.25
393.352	0.31
393.557	0.25
393.763	0.3
393.969	0.33
394.175	0.32
394.381	0.31
394.587	0.23
394.792	0.3
394.998	0.35
395.204	0.35
395.41	0.23
395.615	0.34
395.821	0.37
396.027	0.32
396.233	0.31
396.438	0.36
396.644	0.36
396.85	0.32
397.055	0.28
397.261	0.33
397.466	0.31
397.672	0.35
397.878	0.34
398.083	0.35
398.289	0.28
398.494	0.41
398.7	0.41
398.905	0.24
399.111	0.45
399.316	0.29
399.522	0.3
399.727	0.29
399.932	0.31
400.138	0.29
400.343	0.34
400.549	0.35
400.754	0.36
400.959	0.36
401.165	0.34
401.37	0.34
401.575	0.39
401.78	0.31
401.986	0.31
402.191	0.35
402.396	0.41
402.601	0.42
402.807	0.45
403.012	0.39
403.217	0.43
403.422	0.44
403.627	0.42
403.832	0.33
404.037	0.43
404.243	0.4
404.448	0.35
404.653	0.41
404.858	0.43
405.063	0.45
405.268	0.42
405.473	0.35
405.678	0.39
405.883	0.65
406.088	0.51
406.293	0.38
406.498	0.48
406.703	0.53
406.907	0.41
407.112	0.37
407.317	0.46
407.522	0.61
407.727	0.43
407.932	0.53
408.136	0.62
408.341	0.49
408.546	0.53
408.751	0.51
408.956	0.54
409.16	0.65
409.365	0.57
409.57	0.55
409.774	0.6
409.979	0.66
410.184	0.64
410.388	0.64
410.593	0.7
410.798	0.7
411.002	0.65
411.207	0.81
411.411	0.76
411.616	0.72
411.82	0.8
412.025	0.81
412.229	0.81
412.434	0.93
412.638	0.9
412.843	0.84
413.047	0.89
413.252	0.9
413.456	0.98
413.66	1.04
413.865	1
414.069	1.09
414.273	0.97
414.478	1.05
414.682	1.06
414.886	1.18
415.091	1.12
415.295	1.15
415.499	1.37
415.703	1.27
415.908	1.36
416.112	1.35
416.316	1.52
416.52	1.48
416.724	1.43
416.929	1.49
417.133	1.74
417.337	1.63
417.541	1.69
417.745	1.71
417.949	1.86
418.153	1.86
418.357	1.89
418.561	2.17
418.765	2.08
418.969	2.27
419.173	2.33
419.377	2.2
419.581	2.49
419.785	2.5
419.989	2.5
420.193	2.63
420.397	2.73
420.601	2.87
420.804	2.9
421.008	2.87
421.212	3.08
421.416	3.09
421.62	3.07
421.823	3.1
422.027	3.38
422.231	3.33
422.435	3.27
422.638	3.3
422.842	3.48
423.046	3.45
423.249	3.78
423.453	3.74
423.657	3.85
423.86	3.99
424.064	4.04
424.268	4.17
424.471	4.26
424.675	4.43
424.878	4.45
425.082	4.61
425.285	4.91
425.489	4.77
425.692	4.92
425.896	4.89
426.099	5.19
426.303	5.26
426.506	5.42
426.71	5.58
426.913	5.81
427.116	5.98
427.32	5.9
427.523	5.94
427.726	6.43
427.93	6.51
428.133	6.74
428.336	6.85
428.54	6.96
428.743	7.27
428.946	7.48
429.149	7.46
429.353	7.5
429.556	7.64
429.759	7.65
429.962	7.72
430.165	8.03
430.368	7.61
430.571	7.75
430.775	7.78
430.978	7.76
431.181	7.78
431.384	7.9
431.587	8.01
431.79	8.4
431.993	8.36
432.196	8.62
432.399	8.89
432.602	9.07
432.805	9.2
433.008	9.71
433.211	9.61
433.414	9.98
433.616	9.89
433.819	9.88
434.022	10.07
434.225	10.31
434.428	10.23
434.631	10.66
434.833	10.51
435.036	10.78
435.239	10.89
435.442	10.99
435.645	11.18
435.847	11.16
436.05	11.61
436.253	11.86
436.455	11.72
436.658	11.79
436.861	11.96
437.063	11.99
437.266	12.13
437.468	12.39
437.671	12.72
437.874	12.75
438.076	12.61
438.279	12.96
438.481	13.07
438.684	13.81
438.886	13.39
439.089	13.68
439.291	13.86
439.494	14.08
439.696	14.27
439.899	14.78
440.101	15.23
440.303	15.33
440.506	15.97
440.708	15.76
440.91	15.99
441.113	16.15
441.315	16.46
441.517	16.33
441.72	16.8
441.922	16.45
442.124	16.16
442.326	16.61
442.529	17.04
442.731	16.94
442.933	17.25
443.135	17
443.337	16.99
443.539	17.55
443.742	17.13
443.944	17.84
444.146	17.69
444.348	17.55
444.55	17.49
444.752	17.69
444.954	17.67
445.156	17.44
445.358	18.07
445.56	18.21
445.762	18.12
445.964	18.49
446.166	18.18
446.368	18.28
446.57	18.28
446.772	17.9
446.974	17.7
447.175	17.92
447.377	17.76
447.579	18.07
447.781	17.83
447.983	17.59
448.184	17.37
448.386	17.62
448.588	17.14
448.79	17.09
448.991	17.56
449.193	17.5
449.395	16.78
449.597	16.45
449.798	16.39
450	15.84
450.202	15.79
450.403	15.95
450.605	15.85
450.806	15.39
451.008	15.22
451.21	15.16
451.411	14.6
451.613	14.01
451.814	14.17
452.016	14.21
452.217	13.57
452.419	13.47
452.62	13.11
452.821	13.07
453.023	12.85
453.224	12.46
453.426	12.12
453.627	11.3
453.828	11.38
454.03	11.55
454.231	11.56
454.432	11.31
454.634	11.17
454.835	10.81
455.036	10.61
455.238	10.32
455.439	10.04
455.64	9.76
455.841	9.61
456.042	9.82
456.244	9.46
456.445	9.23
456.646	8.8
456.847	8.77
457.048	8.75
457.249	8.72
457.45	8.51
457.651	7.9
457.852	7.89
458.054	7.51
458.255	7.44
458.456	7.5
458.657	7.36
458.858	6.92
459.058	6.93
459.259	6.86
459.46	6.57
459.661	6.6
459.862	6.59
460.063	6.5
460.264	6.45
460.465	6.15
460.666	6.2
460.866	5.88
461.067	5.75
461.268	5.64
461.469	5.56
461.67	5.54
461.87	5.35
462.071	5.34
462.272	5.28
462.473	5.22
462.673	5.42
462.874	5.25
463.075	5.33
463.275	5.22
463.476	5.26
463.676	5.24
463.877	5.03
464.078	5.04
464.278	5.13
464.479	4.92
464.679	4.82
464.88	4.9
465.08	4.82
465.281	4.6
465.481	4.45
465.682	4.26
465.882	4.25
466.083	4.14
466.283	4.12
466.483	3.97
466.684	3.77
466.884	3.78
467.085	3.83
467.285	3.88
467.485	3.65
467.686	3.62
467.886	3.54
468.086	3.49
468.286	3.46
468.487	3.55
468.687	3.4
468.887	3.35
469.087	3.46
469.287	3.37
469.488	3.17
469.688	3.31
469.888	3.2
470.088	3.2
470.288	3.16
470.488	3.17
470.688	2.94
470.888	2.91
471.088	2.77
471.288	2.91
471.488	2.88
471.688	2.81
471.888	2.78
472.088	2.94
472.288	2.83
472.488	2.68
472.688	2.59
472.888	2.71
473.088	2.62
473.288	2.61
473.488	2.49
473.688	2.69
473.887	2.53
474.087	2.45
474.287	2.51
474.487	2.48
474.687	2.49
474.886	2.45
475.086	2.35
475.286	2.38
475.486	2.33
475.685	2.32
475.885	2.26
476.085	2.33
476.284	2.33
476.484	2.22
476.684	2.22
476.883	2.35
477.083	2.26
477.282	2.19
477.482	2.22
477.681	2.19
477.881	2.09
478.08	2.15
478.28	2.09
478.479	2.15
478.679	2.19
478.878	2.1
479.078	2.07
479.277	2.13
479.477	2.09
479.676	2.09
479.875	2.05
480.075	1.97
480.274	2.11
480.473	2.11
480.673	2.05
480.872	2.17
481.071	2.06
481.271	2.12
481.47	2.04
481.669	2.06
481.868	1.99
482.067	2.03
482.267	1.98
482.466	1.97
482.665	1.97
482.864	1.94
483.063	1.97
483.262	2.09
483.461	2.06
483.661	2.14
483.86	2.06
484.059	2.09
484.258	2.09
484.457	2.06
484.656	2.04
484.855	2.11
485.054	1.95
485.253	2
485.452	1.97
485.651	2.1
485.849	2.07
486.048	2.04
486.247	2.04
486.446	2.1
486.645	2.06
486.844	2.1
487.043	2.11
487.241	2.13
487.44	2.14
487.639	2.14
487.838	2.16
488.037	2.16
488.235	2.24
488.434	2.17
488.633	2.07
488.831	2.23
489.03	2.28
489.229	2.25
489.427	2.23
489.626	2.31
489.825	2.31
490.023	2.3
490.222	2.3
490.42	2.33
490.619	2.36
490.817	2.38
491.016	2.37
491.214	2.47
491.413	2.45
491.611	2.37
491.81	2.41
492.008	2.47
492.207	2.53
492.405	2.56
492.604	2.45
492.802	2.53
493	2.59
493.199	2.62
493.397	2.63
493.595	2.68
493.794	2.63
493.992	2.79
494.19	2.76
494.388	2.86
494.587	2.75
494.785	2.81
494.983	2.76
495.181	2.87
495.379	2.88
495.578	2.95
495.776	2.98
495.974	2.91
496.172	2.94
496.37	3.04
496.568	3.1
496.766	3.03
496.964	3.17
497.162	3.16
497.36	3.19
497.558	3.23
497.756	3.28
497.954	3.26
498.152	3.34
498.35	3.41
498.548	3.37
498.746	3.38
498.944	3.38
499.142	3.41
499.34	3.55
499.538	3.61
499.736	3.52
499.933	3.6
500.131	3.63
500.329	3.74
500.527	3.73
500.725	3.85
500.922	3.81
501.12	3.83
501.318	3.92
501.516	3.89
501.713	3.97
501.911	3.96
502.109	3.92
502.306	4.09
502.504	4
502.701	4.07
502.899	4.13
503.097	4.35
503.294	4.19
503.492	4.37
503.689	4.34
503.887	4.29
504.084	4.43
504.282	4.4
504.479	4.34
504.677	4.55
504.874	4.55
505.072	4.4
505.269	4.64
505.466	4.62
505.664	4.68
505.861	4.6
506.059	4.7
506.256	4.75
506.453	4.83
506.651	4.92
506.848	4.99
507.045	4.93
507.242	4.95
507.44	4.94
507.637	5.06
507.834	5
508.031	5.16
508.229	5.1
508.426	5.04
508.623	5.25
508.82	5.23
509.017	5.21
509.214	5.19
509.411	5.33
509.608	5.28
509.805	5.44
510.003	5.4
510.2	5.41
510.397	5.63
510.594	5.5
510.791	5.58
510.988	5.57
511.184	5.57
511.381	5.48
511.578	5.63
511.775	5.77
511.972	5.66
512.169	5.75
512.366	5.72
512.563	5.83
512.76	5.93
512.956	5.9
513.153	5.87
513.35	5.85
513.547	5.84
513.744	6.01
513.94	5.97
514.137	6.07
514.334	6.06
514.53	6.1
514.727	6.3
514.924	6.2
515.12	6.22
515.317	6.21
515.514	6.1
515.71	6.11
515.907	6.34
516.103	6.32
516.3	6.3
516.497	6.45
516.693	6.42
516.89	6.41
517.086	6.5
517.283	6.5
517.479	6.36
517.676	6.55
517.872	6.58
518.068	6.62
518.265	6.58
518.461	6.45
518.658	6.63
518.854	6.61
519.05	6.72
519.247	6.78
519.443	6.67
519.639	6.82
519.836	6.73
520.032	6.67
520.228	6.81
520.424	6.79
520.621	6.84
520.817	6.95
521.013	6.87
521.209	7.04
521.405	7.01
521.601	7.03
521.798	6.93
521.994	6.96
522.19	6.91
522.386	6.89
522.582	7.1
522.778	7.22
522.974	7.09
523.17	7.08
523.366	7.08
523.562	7.19
523.758	7.13
523.954	6.89
524.15	7.16
524.346	7.19
524.542	7.21
524.738	7.12
524.934	7.29
525.129	7.21
525.325	7.17
525.521	7.2
525.717	7.47
525.913	7.24
526.109	7.23
526.304	7.35
526.5	7.34
526.696	7.36
526.892	7.33
527.087	7.51
527.283	7.42
527.479	7.44
527.674	7.25
527.87	7.43
528.066	7.42
528.261	7.44
528.457	7.39
528.653	7.54
528.848	7.5
529.044	7.58
529.239	7.46
529.435	7.48
529.63	7.46
529.826	7.5
530.021	7.54
530.217	7.62
530.412	7.45
530.608	7.57
530.803	7.54
530.999	7.49
531.194	7.57
531.389	7.62
531.585	7.67
531.78	7.71
531.975	7.66
532.171	7.71
532.366	7.63
532.561	7.68
532.757	7.63
532.952	7.85
533.147	7.61
533.342	7.72
533.538	7.66
533.733	7.88
533.928	7.46
534.123	7.71
534.318	7.76
534.513	7.64
534.709	7.85
534.904	7.78
535.099	7.82
535.294	7.88
535.489	7.86
535.684	7.78
535.879	7.79
536.074	7.9
536.269	7.86
536.464	7.89
536.659	7.81
536.854	7.87
537.049	7.92
537.244	7.91
537.439	7.82
537.634	7.86
537.828	7.94
538.023	7.85
538.218	7.86
538.413	7.75
538.608	7.89
538.803	7.9
538.997	7.85
539.192	7.91
539.387	7.78
539.582	7.86
539.776	7.79
539.971	7.89
540.166	7.96
540.36	7.88
540.555	8
540.75	7.94
540.944	7.96
541.139	7.94
541.334	7.97
541.528	7.98
541.723	8.03
541.917	8
542.112	7.91
542.306	7.79
542.501	7.84
542.695	7.95
542.89	7.91
543.084	7.97
543.279	7.96
543.473	8.03
543.668	8.04
543.862	7.88
544.056	7.81
544.251	8.02
544.445	8.09
544.64	8.07
544.834	7.84
545.028	7.71
545.222	7.99
545.417	8.18
545.611	8.02
545.805	8.05
546	7.78
546.194	7.98
546.388	8.05
546.582	7.92
546.776	7.87
546.97	7.98
547.165	7.91
547.359	7.94
547.553	7.91
547.747	8
547.941	8.18
548.135	7.95
548.329	8.04
548.523	7.98
548.717	7.92
548.911	7.98
549.105	7.93
549.299	8.03
549.493	8.09
549.687	7.93
549.881	8.12
550.075	8.09
550.269	7.93
550.463	8.06
550.657	8.09
550.85	8.03
551.044	7.98
551.238	8.09
551.432	8.06
551.626	8.09
551.82	8.01
552.013	7.97
552.207	8.11
552.401	8.16
552.594	7.98
552.788	7.97
552.982	7.99
553.176	7.99
553.369	8.19
553.563	8.07
553.756	8.06
553.95	8.08
554.144	8.12
554.337	8.15
554.531	7.96
554.724	8.05
554.918	8.16
555.111	8.05
555.305	8.01
555.498	8.03
555.692	8.14
555.885	8.16
556.079	8.02
556.272	8.11
556.466	7.98
556.659	8.04
556.852	8.1
557.046	7.99
557.239	7.88
557.432	7.99
557.626	8.03
557.819	8.11
558.012	8.07
558.206	8.13
558.399	8.03
558.592	8
558.785	8.01
558.979	8.02
559.172	8.03
559.365	8.03
559.558	8
559.751	7.95
559.944	8.18
560.138	8.04
560.331	8.05
560.524	8.14
560.717	7.96
560.91	8.05
561.103	8.07
561.296	7.92
561.489	8.04
561.682	8.13
561.875	8.1
562.068	8.19
562.261	7.97
562.454	8.19
562.647	7.99
562.84	8.16
563.032	8.09
563.225	8
563.418	8.06
563.611	8.08
563.804	8.04
563.997	7.96
564.19	7.82
564.382	8.11
564.575	8.09
564.768	7.95
564.961	8.08
565.153	7.97
565.346	7.99
565.539	8.04
565.731	8
565.924	8.11
566.117	8.25
566.309	8.1
566.502	7.99
566.695	7.92
566.887	8.1
567.08	8.12
567.272	8.14
567.465	7.97
567.657	8.13
567.85	7.95
568.042	8.05
568.235	8.08
568.427	7.88
568.62	8.01
568.812	7.91
569.005	8.07
569.197	7.94
569.389	8.05
569.582	7.96
569.774	8.03
569.966	7.9
570.159	7.85
570.351	7.91
570.543	7.95
570.736	7.95
570.928	7.84
571.12	8.04
571.312	7.89
571.505	7.78
571.697	8.03
571.889	8
572.081	7.9
572.273	7.87
572.465	7.99
572.658	7.96
572.85	7.99
573.042	7.93
573.234	7.83
573.426	7.91
573.618	7.82
573.81	7.94
574.002	7.84
574.194	7.98
574.386	7.84
574.578	7.76
574.77	7.82
574.962	7.87
575.154	7.77
575.346	7.8
575.538	7.74
575.729	7.75
575.921	7.88
576.113	7.91
576.305	7.84
576.497	8
576.689	7.73
576.88	7.74
577.072	7.88
577.264	7.82
577.456	7.76
577.647	7.74
577.839	7.93
578.031	7.74
578.223	7.78
578.414	7.65
578.606	7.8
578.798	7.79
578.989	7.81
579.181	7.87
579.372	7.76
579.564	7.77
579.755	7.76
579.947	7.69
580.139	7.74
580.33	7.58
580.522	7.69
580.713	7.65
580.905	7.66
581.096	7.77
581.287	7.65
581.479	7.65
581.67	7.73
581.862	7.63
582.053	7.62
582.244	7.52
582.436	7.75
582.627	7.6
582.818	7.6
583.01	7.57
583.201	7.68
583.392	7.54
583.583	7.56
583.775	7.47
583.966	7.55
584.157	7.57
584.348	7.66
584.54	7.45
584.731	7.59
584.922	7.44
585.113	7.37
585.304	7.49
585.495	7.47
585.686	7.6
585.877	7.54
586.068	7.68
586.259	7.51
586.45	7.48
586.641	7.46
586.832	7.51
587.023	7.42
587.214	7.47
587.405	7.48
587.596	7.26
587.787	7.32
587.978	7.45
588.169	7.31
588.36	7.32
588.551	7.36
588.742	7.36
588.932	7.41
589.123	7.22
589.314	7.42
589.505	7.29
589.696	7.25
589.886	7.24
590.077	7.31
590.268	7.24
590.458	7.15
590.649	7.04
590.84	7.25
591.03	7.26
591.221	7.18
591.412	7.06
591.602	7.26
591.793	7.16
591.984	7.14
592.174	7.2
592.365	7.32
592.555	7.03
592.746	7.06
592.936	7.04
593.127	7.14
593.317	7.13
593.508	7.11
593.698	7.02
593.889	7.08
594.079	7.07
594.269	6.91
594.46	7
594.65	7.02
594.84	6.95
595.031	6.88
595.221	6.9
595.411	6.95
595.602	6.96
595.792	6.89
595.982	6.82
596.172	6.97
596.363	6.8
596.553	6.84
596.743	6.87
596.933	6.84
597.123	6.83
597.314	6.68
597.504	6.74
597.694	6.85
597.884	6.71
598.074	6.8
598.264	6.77
598.454	6.72
598.644	6.73
598.834	6.68
599.024	6.56
599.214	6.62
599.404	6.7
599.594	6.65
599.784	6.56
599.974	6.74
600.164	6.66
600.354	6.6
600.544	6.51
600.734	6.61
600.924	6.55
601.114	6.46
601.303	6.49
601.493	6.46
601.683	6.51
601.873	6.43
602.063	6.37
602.252	6.42
602.442	6.33
602.632	6.39
602.821	6.32
603.011	6.5
603.201	6.36
603.39	6.3
603.58	6.21
603.77	6.36
603.959	6.42
604.149	6.28
604.339	6.34
604.528	6.39
604.718	6.3
604.907	6.23
605.097	6.23
605.286	6.21
605.476	6.15
605.665	6.21
605.855	6.16
606.044	6.21
606.234	6.15
606.423	6.06
606.612	6.09
606.802	6.08
606.991	6.18
607.181	6.17
607.37	6.09
607.559	5.86
607.749	6.03
607.938	5.96
608.127	6
608.316	6.01
608.506	5.91
608.695	6.06
608.884	6
609.073	5.89
609.263	5.97
609.452	5.93
609.641	5.85
609.83	5.79
610.019	5.94
610.208	5.83
610.397	5.81
610.586	5.78
610.775	5.73
610.965	5.78
611.154	5.7
611.343	5.81
611.532	5.67
611.721	5.78
611.91	5.64
612.099	5.68
612.287	5.59
612.476	5.5
612.665	5.64
612.854	5.57
613.043	5.59
613.232	5.57
613.421	5.54
613.61	5.53
613.798	5.45
613.987	5.5
614.176	5.43
614.365	5.51
614.554	5.51
614.742	5.5
614.931	5.35
615.12	5.53
615.309	5.44
615.497	5.36
615.686	5.21
615.875	5.3
616.063	5.33
616.252	5.3
616.44	5.27
616.629	5.21
616.818	5.26
617.006	5.24
617.195	5.18
617.383	5.19
617.572	5.11
617.76	5.12
617.949	5.16
618.137	5.23
618.326	5.22
618.514	4.96
618.703	4.95
618.891	5.13
619.079	4.99
619.268	5.14
619.456	4.96
619.644	5.03
619.833	5.02
620.021	4.92
620.209	4.91
620.398	4.96
620.586	4.89
620.774	4.99
620.962	4.83
621.151	4.97
621.339	4.89
621.527	4.8
621.715	4.78
621.903	4.81
622.092	4.73
622.28	4.89
622.468	4.71
622.656	4.78
622.844	4.75
623.032	4.79
623.22	4.6
623.408	4.79
623.596	4.68
623.784	4.74
623.972	4.62
624.16	4.59
624.348	4.7
624.536	4.66
624.724	4.51
624.912	4.59
625.1	4.62
625.288	4.54
625.476	4.45
625.664	4.55
625.851	4.45
626.039	4.49
626.227	4.42
626.415	4.44
626.603	4.39
626.79	4.45
626.978	4.39
627.166	4.51
627.354	4.3
627.541	4.38
627.729	4.21
627.917	4.37
628.104	4.43
628.292	4.3
628.48	4.29
628.667	4.22
628.855	4.32
629.042	4.33
629.23	4.23
629.418	4.21
629.605	4.21
629.793	4.09
629.98	4.19
630.168	4.16
630.355	4.16
630.543	4.06
630.73	4.02
630.917	4.07
631.105	4.23
631.292	4.08
631.48	4.04
631.667	4.13
631.854	4.06
632.042	3.98
632.229	3.89
632.416	4.04
632.604	3.98
632.791	3.82
632.978	3.98
633.165	3.89
633.353	3.92
633.54	3.95
633.727	3.76
633.914	3.8
634.101	3.74
634.289	3.86
634.476	3.73
634.663	3.76
634.85	3.77
635.037	3.71
635.224	3.61
635.411	3.76
635.598	3.71
635.785	3.64
635.972	3.62
636.159	3.66
636.346	3.67
636.533	3.6
636.72	3.57
636.907	3.61
637.094	3.61
637.281	3.45
637.468	3.58
637.655	3.53
637.842	3.56
638.029	3.48
638.215	3.51
638.402	3.56
638.589	3.4
638.776	3.43
638.963	3.39
639.149	3.52
639.336	3.52
639.523	3.37
639.709	3.4
639.896	3.36
640.083	3.37
640.27	3.36
640.456	3.34
640.643	3.33
640.829	3.22
641.016	3.25
641.203	3.24
641.389	3.28
641.576	3.26
641.762	3.22
641.949	3.13
642.135	3.28
642.322	3.16
642.508	3.08
642.695	3.18
642.881	3.14
643.068	3.08
643.254	3.13
643.441	3.15
643.627	3.17
643.813	3.05
644	3.09
644.186	2.98
644.372	3.04
644.559	3.08
644.745	3.01
644.931	2.97
645.118	2.96
645.304	3.01
645.49	2.93
645.676	2.92
645.862	2.92
646.049	3.02
646.235	2.92
646.421	3.04
646.607	3.03
646.793	2.86
646.979	2.85
647.165	2.87
647.352	2.93
647.538	2.9
647.724	2.82
647.91	2.77
648.096	2.91
648.282	2.81
648.468	2.79
648.654	2.81
648.84	2.8
649.026	2.76
649.212	2.67
649.397	2.64
649.583	2.7
649.769	2.73
649.955	2.66
650.141	2.71
650.327	2.7
650.513	2.64
650.698	2.65
650.884	2.56
651.07	2.65
651.256	2.62
651.442	2.61
651.627	2.52
651.813	2.68
651.999	2.55
652.184	2.54
652.37	2.54
652.556	2.53
652.741	2.55
652.927	2.34
653.113	2.47
653.298	2.45
653.484	2.42
653.669	2.42
653.855	2.47
654.04	2.52
654.226	2.42
654.412	2.4
654.597	2.3
654.782	2.45
654.968	2.42
655.153	2.4
655.339	2.35
655.524	2.34
655.71	2.36
655.895	2.31
656.08	2.29
656.266	2.36
656.451	2.31
656.636	2.24
656.822	2.3
657.007	2.26
657.192	2.27
657.378	2.21
657.563	2.22
657.748	2.26
657.933	2.24
658.118	2.16
658.304	2.19
658.489	2.24
658.674	2.2
658.859	2.17
659.044	2.2
659.229	2.2
659.414	2.11
659.599	2.14
659.785	2.06
659.97	2.1
660.155	2.13
660.34	2.09
660.525	2.06
660.71	2.04
660.895	2.1
661.08	1.98
661.264	2.06
661.449	2.1
661.634	2.09
661.819	2.05
662.004	2.02
662.189	1.96
662.374	1.99
662.559	1.96
662.743	1.84
662.928	1.98
663.113	1.89
663.298	1.9
663.483	1.88
663.667	1.91
663.852	1.87
664.037	1.95
664.221	1.87
664.406	1.94
664.591	1.91
664.775	1.91
664.96	1.78
665.145	1.88
665.329	1.91
665.514	1.81
665.698	1.81
665.883	1.75
666.068	1.86
666.252	1.83
666.437	1.76
666.621	1.78
666.806	1.83
666.99	1.8
667.174	1.76
667.359	1.86
667.543	1.79
667.728	1.77
667.912	1.64
668.096	1.74
668.281	1.7
668.465	1.72
668.649	1.74
668.834	1.68
669.018	1.68
669.202	1.63
669.387	1.63
669.571	1.77
669.755	1.61
669.939	1.66
670.124	1.65
670.308	1.7
670.492	1.65
670.676	1.69
670.86	1.58
671.044	1.53
671.228	1.66
671.413	1.54
671.597	1.57
671.781	1.54
671.965	1.63
672.149	1.57
672.333	1.57
672.517	1.5
672.701	1.55
672.885	1.53
673.069	1.41
673.253	1.59
673.437	1.49
673.621	1.48
673.804	1.53
673.988	1.54
674.172	1.47
674.356	1.39
674.54	1.51
674.724	1.59
674.908	1.48
675.091	1.49
675.275	1.46
675.459	1.49
675.643	1.43
675.826	1.44
676.01	1.37
676.194	1.43
676.377	1.51
676.561	1.45
676.745	1.45
676.928	1.44
677.112	1.47
677.296	1.4
677.479	1.41
677.663	1.33
677.846	1.45
678.03	1.38
678.213	1.3
678.397	1.38
678.58	1.35
678.764	1.33
678.947	1.31
679.131	1.29
679.314	1.42
679.498	1.32
679.681	1.29
679.865	1.43
680.048	1.25
680.231	1.28
680.415	1.2
680.598	1.3
680.781	1.25
680.965	1.24
681.148	1.31
681.331	1.2
681.514	1.34
681.698	1.26
681.881	1.28
682.064	1.26
682.247	1.28
682.43	1.15
682.614	1.23
682.797	1.27
682.98	1.29
683.163	1.13
683.346	1.24
683.529	1.17
683.712	1.13
683.895	1.25
684.078	1.14
684.261	1.16
684.444	1.21
684.627	1.18
684.81	1.14
684.993	1.2
685.176	1.21
685.359	1.12
685.542	1.13
685.725	1.24
685.908	1.13
686.091	1.1
686.274	1.16
686.457	1.14
686.639	1.21
686.822	1.14
687.005	1.1
687.188	1.18
687.371	1.22
687.553	1.12
687.736	1.14
687.919	1.19
688.102	1.14
688.284	1.05
688.467	1.01
688.65	1.09
688.832	0.97
689.015	1.05
689.197	0.95
689.38	1.11
689.563	1.14
689.745	0.98
689.928	1.03
690.11	0.98
690.293	1.05
690.475	0.98
690.658	1.04
690.84	0.95
691.023	1.04
691.205	0.92
691.388	0.97
691.57	1.08
691.752	1
691.935	0.97
692.117	0.92
692.3	0.99
692.482	0.91
692.664	0.86
692.847	0.93
693.029	1.08
693.211	1.02
693.393	0.92
693.576	0.82
693.758	0.95
693.94	0.93
694.122	0.97
694.304	0.87
694.487	0.88
694.669	1.01
694.851	0.84
695.033	0.92
695.215	0.88
695.397	0.91
695.579	0.9
695.761	0.89
695.943	0.8
696.125	1.02
696.308	0.98
696.49	0.74
696.671	1.07
696.853	0.87
697.035	1.14
697.217	0.83
697.399	0.95
697.581	0.8
697.763	0.89
697.945	0.83
698.127	0.92
698.309	0.96
698.491	0.9
698.672	0.91
698.854	0.96
699.036	0.94
699.218	0.89
699.399	0.92
699.581	0.88
699.763	0.81
699.945	0.73
700.126	0.71
700.308	0.84
700.49	0.75
700.671	0.72
700.853	0.79
701.035	0.77
701.216	0.8
701.398	0.81
701.579	0.75
701.761	0.86
701.943	0.76
702.124	0.68
702.306	0.75
702.487	1
702.669	0.75
702.85	0.7
703.031	0.71
703.213	0.93
703.394	0.83
703.576	0.66
703.757	0.92
703.938	0.78
704.12	0.97
704.301	0.74
704.483	0.66
704.664	0.79
704.845	0.86
705.026	0.82
705.208	0.77
705.389	0.76
705.57	0.78
705.751	0.73
705.933	0.73
706.114	0.78
706.295	0.76
706.476	0.56
706.657	0.81
706.838	0.76
707.02	0.81
707.201	0.69
707.382	0.69
707.563	0.75
707.744	0.72
707.925	0.57
708.106	0.66
708.287	0.73
708.468	0.82
708.649	0.7
708.83	0.81
709.011	0.64
709.192	0.77
709.373	0.6
709.554	0.66
709.734	0.75
709.915	0.72
710.096	0.67
710.277	0.5
710.458	0.64
710.639	0.7
710.819	0.56
711	0.59
711.181	0.76
711.362	0.73
711.542	0.69
711.723	0.61
711.904	0.77
712.085	0.68
712.265	0.67
712.446	0.53
712.627	0.67
712.807	0.67
712.988	0.67
713.168	0.45
713.349	0.61
713.53	0.48
713.71	0.48
713.891	0.52
714.071	0.56
714.252	0.59
714.432	0.57
714.613	0.44
714.793	0.66
714.974	0.74
715.154	0.65
715.334	0.71
715.515	0.72
715.695	0.65
715.876	0.56
716.056	0.6
716.236	0.54
716.417	0.59
716.597	0.57
716.777	0.77
716.957	0.57
717.138	0.59
717.318	0.53
717.498	0.48
717.678	0.66
717.859	0.57
718.039	0.4
718.219	0.6
718.399	0.55
718.579	0.52
718.759	0.5
718.939	0.55
719.12	0.66
719.3	0.52
719.48	0.36
719.66	0.38
719.84	0.59
720.02	0.57
720.2	0.45
720.38	0.5
720.56	0.7
720.74	0.37
720.92	0.56
721.1	0.68
721.279	0.66
721.459	0.53
721.639	0.43
721.819	0.59
721.999	0.52
722.179	0.61
722.359	0.43
722.538	0.54
722.718	0.59
722.898	0.53
723.078	0.53
723.257	0.48
723.437	0.47
723.617	0.54
723.797	0.5
723.976	0.47
724.156	0.62
724.336	0.6
724.515	0.76
724.695	0.38
724.874	0.52
725.054	0.58
725.234	0.44
725.413	0.4
725.593	0.45
725.772	0.51
725.952	0.45
726.131	0.49
726.311	0.43
726.49	0.5
726.67	0.45
726.849	0.38
727.028	0.45
727.208	0.46
727.387	0.52
727.567	0.4
727.746	0.49
727.925	0.46
728.105	0.28
728.284	0.4
728.463	0.47
728.643	0.54
728.822	0.34
729.001	0.49
729.18	0.47
729.359	0.6
729.539	0.48
729.718	0.51
729.897	0.59
730.076	0.45
730.255	0.32
730.434	0.43
730.614	0.56
730.793	0.67
730.972	0.51
731.151	0.45
731.33	0.55
731.509	0.55
731.688	0.49
731.867	0.44
732.046	0.26
732.225	0.63
732.404	0.36
732.583	0.34
732.762	0.41
732.941	0.58
733.12	0.48
733.298	0.44
733.477	0.65
733.656	0.38
733.835	0.38
734.014	0.57
734.193	0.55
734.371	0.56
734.55	0.44
734.729	0.31
734.908	0.52
735.086	0.53
735.265	0.47
735.444	0.43
735.623	0.32
735.801	0.49
735.98	0.43
736.159	0.39
736.337	0.52
736.516	0.41
736.694	0.43
736.873	0.43
737.052	0.77
737.23	0.62
737.409	0.35
737.587	0.66
737.766	0.31
737.944	0.34
738.123	0.43
738.301	0.61
738.479	0.49
738.658	0.47
738.836	0.23
739.015	0.48
739.193	0.54
739.371	0.23
739.55	0.5
739.728	0.29
739.906	0.72
740.085	0.7
740.263	0.51
740.441	0.18
740.62	0.68
740.798	0.6
740.976	0.37
741.154	0.32
741.332	0.74
741.511	0.45
741.689	0.53
741.867	0.44
742.045	0.58
742.223	0.35
742.401	0.27
742.579	0.36
742.757	0.62
742.935	0.3
743.114	0.45
743.292	0.37
743.47	0.46
743.648	0.54
743.826	0.16
744.004	0.49
744.181	0.61
744.359	0.38
744.537	0.53
744.715	0.41
744.893	0.52
745.071	0.54
745.249	0.38
745.427	0.29
745.605	0.52
745.782	0.54
745.96	0.45
746.138	0.6
746.316	0.53
746.493	0.4
746.671	0.38
746.849	0.44
747.027	0.74
747.204	0.35
747.382	0.38
747.56	0.28
747.737	0.54
747.915	0.31
748.093	0.5
748.27	0.25
748.448	0.4
748.625	0.34
748.803	0.33
748.98	0.41
749.158	0.51
749.335	0.54
749.513	0.32
749.69	0.4
749.868	0.4
750.045	0.37
750.223	0.2
750.4	0.17
750.578	0.56
750.755	0.45
750.932	0.28
751.11	0.57
751.287	0.26
751.464	0.47
751.642	0.27
751.819	0.51
751.996	0.42
752.173	0.43
752.351	0.29
752.528	0.3
752.705	0.34
752.882	0.27
753.06	0.3
753.237	0.46
753.414	0.59
753.591	0.69
753.768	0.32
753.945	0.23
754.122	0.4
754.299	0.51
754.476	0.36
754.654	0.4
754.831	0.49
755.008	0.45
755.185	0.3
755.362	0.31
755.539	0.39
755.716	0.37
755.892	0.34
756.069	0.31
756.246	0.41
756.423	0.36
756.6	0.63
756.777	0.27
756.954	0.43
757.131	0.39
757.307	0.23
757.484	0.23
757.661	0.43
757.838	0.52
758.015	0.21
758.191	0.38
758.368	0.36
758.545	0.6
758.721	0.37
758.898	0.31
759.075	0.46
759.251	0.42
759.428	0.44
759.605	0.18
759.781	0.28
759.958	0.31
760.134	0.32
760.311	0.16
760.488	0.53
760.664	0.58
760.841	0.37
761.017	0.17
761.194	0.42
761.37	0.46
761.547	0.35
761.723	0.3
761.899	0.5
762.076	0.37
762.252	0.25
762.429	0.23
762.605	0.53
762.781	0.33
762.958	0.5
763.134	0.25
763.31	0.2
763.486	0.53
763.663	0.09
763.839	0.46
764.015	0.1
764.191	0.34
764.368	0.22
764.544	0.24
764.72	0.46
764.896	0.43
765.072	0.38
765.248	0.29
765.425	0.24
765.601	0.41
765.777	0.4
765.953	-0.04
766.129	0.23
766.305	0.28
766.481	0.44
766.657	0.37
766.833	0.49
767.009	0.17
767.185	0.35
767.361	0.2
767.537	0.13
767.713	0.55
767.889	0.2
768.065	0.21
768.24	0.36
768.416	0.4
768.592	0.22
768.768	0.4
768.944	0.49
769.12	0.21
769.295	0.33
769.471	0.29
769.647	0.37
769.823	0.56
769.998	0.29
770.174	0.13
770.35	0.77
770.525	0.73
770.701	0.43
770.877	0.29
771.052	0.29
771.228	0.51
771.403	0.29
771.579	0.44
771.755	0.68
771.93	0.32
772.106	0.08
772.281	0.1
772.457	0.37
772.632	0.49
772.808	0.08
772.983	0.31
773.159	0.12
773.334	0.48
773.509	0.31
773.685	0.18
773.86	0.76
774.036	0.65
774.211	0.4
774.386	0.27
774.562	0.32
774.737	0.45
774.912	0.35
775.087	0.29
775.263	0.33
775.438	0.4
775.613	0.27
775.788	0.24
775.964	0.5
776.139	0.87
776.314	0.23
776.489	0.27
776.664	0.33
776.839	0.15
777.014	0.56
777.19	0.52
777.365	0.63
777.54	0.65
777.715	0.21
777.89	0.26
778.065	0.34
778.24	0.34
778.415	0.4
778.59	0.23
778.765	0.25
778.94	0.55
779.115	0.42
779.289	0.45
779.464	0.35
779.639	0.11
779.814	0.14
779.989	0.13
780.164	0.48
780.339	0.41
780.513	0.37
780.688	0.06
780.863	0.33
781.038	0.55
781.212	0.22
781.387	0.37
781.562	0.63
781.737	0.17
781.911	0.72
782.086	0.14
782.261	0.3
782.435	0.71
782.61	0.35
782.784	0.32
782.959	0.78
783.134	0.23
783.308	0.11
783.483	0.27
783.657	0.95
783.832	0.71
784.006	0.05
784.181	0.39
784.355	0.49
784.53	0.08
784.704	0.17
784.878	0.88
785.053	0.52
785.227	0.65
785.402	0.66
785.576	0.19
785.75	0.5
785.925	0.32
786.099	0.6
786.273	0.43
786.448	0.67
786.622	0.7
786.796	0.32
786.97	0.35
787.145	1.01
787.319	-0.01
787.493	0.26
787.667	0.03
787.841	0.51
788.015	0.64
788.19	0.22
788.364	0.39
788.538	0.69
788.712	0.6
788.886	0.5
789.06	0.51
789.234	0.75
789.408	0.31
789.582	0.18
789.756	0.43
789.93	0.28
790.104	0.5
790.278	0.38
790.452	0.13
790.626	0.53
790.8	0.35
790.973	0.58
791.147	0.76
791.321	0.84
791.495	0.73
791.669	0.41
791.843	0.39
792.016	0.42
792.19	0.92
792.364	0.12
792.538	1.24
792.711	0.67
792.885	0.2
793.059	0.24
793.233	-0.31
793.406	0.84
793.58	0.61
793.754	0.62
793.927	0.28
794.101	0.82
794.274	0.43
794.448	0.59
794.622	0.27
794.795	0.98
794.969	0.28
795.142	0.84
795.316	0.25
795.489	0.21
795.663	0.63
795.836	0.69
796.009	0.21
796.183	0.9
796.356	0.49
796.53	0.35
796.703	0.2
796.876	1.11
797.05	0.28
797.223	0.25
797.396	0.64
797.57	0.33
797.743	0.99
797.916	0.76
798.09	0.38
798.263	0.76
798.436	0.78
798.609	0.12
798.782	0.41
798.956	0.54
799.129	0.45
799.302	0.21
799.475	0.33
799.648	0.33
799.821	0.11
799.994	0.43
800.167	-0.13
800.34	0.6
800.514	0.45
800.687	0.14
800.86	0.28
801.033	0.28
801.206	0.82
801.379	0.1
801.551	0.63
801.724	0.71
801.897	1.27
802.07	0.34
802.243	0.06
802.416	0.74
802.589	0.48
802.762	0.8
802.935	0.25
803.107	1.13
803.28	0.95
803.453	0.69
803.626	0.44
803.798	0.66
803.971	0.25
804.144	0.51
804.317	0.69
804.489	0.74
804.662	0.39
804.835	0.24
805.007	0.24
805.18	1.13
805.353	0.65
805.525	0.22
805.698	0.28
805.87	1.16
806.043	0.94
806.215	-0.04
806.388	0.21
806.56	0.67
806.733	0.95
806.905	0.68
807.078	0.21
807.25	0.11
807.423	0.81
807.595	0.33
807.768	0.61
807.94	0.67
808.112	0.78
808.285	0.49
808.457	0.07
808.629	0.1
808.802	0.89
808.974	0.65
809.146	0.22
809.318	0.18
809.491	0.99
809.663	0.85
809.835	-0
810.007	0.79
810.18	0.36
810.352	0.23
810.524	0.41
810.696	0.92
810.868	0.74
811.04	0.33
811.212	0.31
811.384	1.17
811.556	0.83
811.728	0.41
811.901	1.13
812.073	0.25
812.245	1.32
812.417	0.57
812.589	-0.3
812.76	0.58
812.932	0.72
813.104	0.73
813.276	0.63
813.448	1.18
813.62	0.74
813.792	0.59
813.964	0.62
814.136	0.98
814.307	0.11
814.479	0.06
814.651	0.37
814.823	1.51
814.995	0.74
815.166	0.78
815.338	0.12
815.51	0.11
815.681	1.35
815.853	0.57
816.025	0.59
816.196	1.68
816.368	1.31
816.54	0.12
816.711	-0.17
816.883	0.93
817.054	1.94
817.226	-0.02
817.398	0.84
817.569	0.22
817.741	0.74
817.912	0.63
818.084	0.66
818.255	0.9
818.426	0.73
818.598	0.77
818.769	-0.03
818.941	1.26
819.112	1.07
819.283	0.22
819.455	-0.1
819.626	0.44
819.798	0.74
819.969	0.8
820.14	0.75
820.311	0.62
820.483	0.78
820.654	1.04
820.825	0.53
820.996	0.36
821.168	-0.07
821.339	0.7
821.51	0.03
821.681	0.33
821.852	0.86
822.023	0.55
822.195	0.47
822.366	1.07
822.537	0.58
822.708	0.35
822.879	0.33
823.05	1.24
823.221	0.27
823.392	1.12
823.563	-0.07
823.734	0.43
823.905	0.58
824.076	0.56
824.247	0.19
824.418	0.23
824.589	1.45
824.759	0.73
824.93	1.07
825.101	-0.23
825.272	1.39
825.443	1.71
825.614	1.26
825.784	-0.33
825.955	1.56
826.126	1.45
826.297	0.89
826.467	1.71
826.638	1.92
826.809	-0.12
826.98	0.86
827.15	1.04
827.321	0.28
827.492	1.12
827.662	0.81
827.833	2.17
828.003	1.73
828.174	0.39
828.345	0.35
828.515	1.71
828.686	0.91
828.856	0.22
829.027	0.49
829.197	0.41
829.368	0.97
829.538	0.39
829.709	0.66
829.879	0.87
830.049	0.78
830.22	-0.18
830.39	0.55
830.56	1.62
830.731	0.86
830.901	-0.03
831.072	0.64
831.242	1.16
831.412	1.28
831.582	0.04
831.753	0.11
831.923	0.94
832.093	1.48
832.263	0.68
832.434	0.36
832.604	0.32
832.774	1.19
832.944	0.61
833.114	0.37
833.284	0.98
833.454	0.63
833.624	0.37
833.795	0.35
833.965	1.56
834.135	2.14
834.305	-0.01
834.475	-0.62
834.645	1.44
834.815	0.83
834.985	-0.09
835.155	-0.31
835.325	1.44
835.494	1.42
835.664	0.82
835.834	-0.57
836.004	0.99
836.174	0.94
836.344	1.09
836.514	-0.44
836.684	-0.06
836.853	0.93
837.023	1.25
837.193	0.52
837.363	2.02
837.532	2
837.702	0.62
837.872	0.22
838.041	1.51
838.211	2.2
838.381	-0.15
838.55	0.46
838.72	3.81
838.89	2.63
839.059	0.2
839.229	0.51
839.398	2.68
839.568	1.21
839.738	0.73
839.907	1.9
840.077	0.34
840.246	0.26
840.416	0.21
840.585	-0.32
840.755	2.88
840.924	2.31
841.093	0.12
841.263	-0.19
841.432	0.84
841.602	0.08
841.771	0.54
841.94	0.42
842.11	3.6
842.279	2.96
842.448	0.24
842.617	0.83
842.787	2.34
842.956	-0.37
843.125	0.66
843.294	0.24
843.464	2.55
843.633	0.59
843.802	-0.3
843.971	0.76
844.14	1.36
844.309	2.08
844.479	-0.91
844.648	-0.3
844.817	0.99
844.986	0.85
845.155	0.18
845.324	-0.02
845.493	0.65
845.662	0.48
845.831	1
846	1.1
846.169	0.76
846.338	2.51
846.507	0.57
846.676	1.08
846.844	0.32
847.013	1.53
847.182	1.05
847.351	0.41
847.52	0.85
847.689	2.34
847.858	1.43
848.026	0.43
848.195	0.87
848.364	0.29
848.533	-0.07
848.701	0.54
848.87	1.31
849.039	2.48
849.207	0.8
849.376	2.99
849.545	2.45
849.713	0.55
849.882	1.08
850.051	1.55
850.219	0.56
850.388	1.45
850.556	-0.11
850.725	-0.45
850.893	2
851.062	0.46
851.23	1.03
851.399	-0.7
851.567	1.14
851.736	0.55
851.904	0.07
852.073	1.33
852.241	2.26
852.41	1.03
852.578	0.95
852.746	0.35
852.915	1.71
853.083	1.22
853.251	-1.07
853.42	0.13
853.588	1.4
853.756	2.15
853.924	-0.84
854.093	1.57
854.261	1.69
854.429	-0.57
854.597	1.3
854.765	0.31
854.934	1.71
855.102	3.44
855.27	0.56
855.438	1.17
855.606	3.08
855.774	3.48
855.942	-0.76
856.11	0.66
856.278	1.43
856.446	2.24
856.614	0.82
856.782	0.62
856.95	2.38
857.118	1.46
857.286	1.56
857.454	0.5
857.622	2.87
857.79	3.59
857.958	-0.07
858.126	0.81
858.294	-1.59
858.462	1.71
858.629	1.38
858.797	-0.48
858.965	2.03
859.133	1.58
859.301	0.78
859.468	1.81
859.636	1.03
859.804	4.53
859.971	2.06
860.139	-1.05
860.307	2.78
860.474	2.4
860.642	-0.9
860.81	0.12
860.977	0.7
861.145	2.73
861.313	0.72
861.48	0.42
861.648	2.78
861.815	1.45
861.983	0.76
862.15	-0.67
862.318	2.49
862.485	2.24
862.653	-0.13
862.82	-0.45
862.988	3.56
863.155	0.76
863.322	-0.27
863.49	-0.33
863.657	1.4
863.824	4.91
863.992	2.45
864.159	1.95
864.326	2.46
864.494	0.4
864.661	4.5
864.828	-0.17
864.996	3.29
865.163	3.81
865.33	-0.53
865.497	-1.69
865.664	0.33
865.832	0.04
865.999	0.52
866.166	0.62
866.333	1.38
866.5	0.79
866.667	0.21
866.834	1.98
867.001	3.38
867.168	-0.85
867.335	0.55
867.502	-1.19
867.669	1.14
867.836	5.97
868.003	0.83
868.17	2.32
868.337	4.3
868.504	6.36
868.671	-1.53
868.838	-0.17
869.005	2.78
869.172	2.27
869.339	1.25
869.505	-0.02
869.672	2.23
869.839	3.14
870.006	1.08
870.173	0.25
870.339	1.53
870.506	5.05
870.673	0.52
870.84	2.62
871.006	-0.1
871.173	0.86
871.34	1.35
871.506	0.27
871.673	2.77
871.839	-0.26
872.006	1.86
872.173	-0.79
872.339	4.15
872.506	3.51
872.672	1.53
872.839	-1.27
873.005	2.46
873.172	5.13
873.338	2.07
873.505	1.12
873.671	4.02
873.838	1.96
874.004	-1.23
874.171	0.51
874.337	3.11
874.503	3.64
874.67	-0.43
874.836	2
875.002	5.8
875.169	3.51
875.335	1.74
875.501	0.49
875.668	3.45
875.834	-0.43
876	0.62
876.166	2.7
876.332	1.49
876.499	6.55
876.665	0.34
876.831	0.49
876.997	6.28
877.163	1.87
877.329	0.62
877.495	1.52
877.662	0.77
877.828	3.07
877.994	-0.28
878.16	-1.43
878.326	1.62
878.492	2.57
878.658	1.35
878.824	3.3
878.99	2.21
879.156	1.62
879.322	4.05
879.487	1.7
879.653	2.28
879.819	1.15
879.985	1.74
880.151	3.08
880.317	3.38
880.483	2.52
880.648	2.03
880.814	-1.79
880.98	3.63
881.146	-2.2
881.312	-0.4
881.477	1.33
881.643	1.82
881.809	4.21
881.974	4.57
882.14	-0.62
882.306	2.8
882.471	4.57
882.637	0.09
882.803	3.13
882.968	4.86
883.134	5.85
883.299	2.2
883.465	3.32
883.63	3.65
883.796	3.32
883.961	2.14
884.127	2.9
884.292	-3.73
884.458	-0.26
884.623	-0.26
