Data from Apollo_Calib_20240827__AbsoluteIrradiance__889__13-58-02-736.txt Node

Date: Wed Aug 28 13:58:02 BST 2024
User: biology
Spectrometer: FLMT08252
Trigger mode: 0
Integration Time (sec): 5.000000E-1
Scans to average: 5
Electric dark correction enabled: true
Nonlinearity correction enabled: false
Boxcar width: 0
XAxis mode: Wavelengths
Number of Pixels in Spectrum: 3648
>>>>>Begin Spectral Data<<<<<
179.588	-0
179.809	-0
180.03	-0
180.251	-0
180.473	-0
180.694	0
180.915	0
181.136	-0
181.357	0
181.578	-0
181.799	-0
182.02	-0
182.241	0
182.462	-0
182.683	0
182.904	-0
183.125	-0
183.346	0
183.567	0
183.788	0
184.009	0
184.23	0
184.451	0
184.672	0
184.892	0
185.113	0
185.334	0
185.555	0
185.776	0
185.996	0
186.217	0
186.438	0
186.659	0
186.879	0
187.1	0
187.321	0
187.541	0
187.762	0
187.983	0
188.203	0
188.424	0
188.644	0
188.865	0
189.086	0
189.306	0
189.527	0
189.747	0
189.968	0
190.188	0
190.409	0
190.629	0
190.849	0
191.07	0
191.29	0
191.511	0
191.731	0
191.951	0
192.172	0
192.392	0
192.612	0
192.833	0
193.053	0
193.273	0
193.493	0
193.714	0
193.934	0
194.154	0
194.374	0
194.594	0
194.815	0
195.035	0
195.255	0
195.475	0
195.695	0
195.915	0
196.135	0
196.355	0
196.575	0
196.795	0
197.015	0
197.235	0
197.455	0
197.675	0
197.895	0
198.115	0
198.335	0
198.555	0
198.775	0
198.995	0
199.214	0
199.434	0
199.654	0
199.874	0
200.094	4.17
200.313	2.6
200.533	2.64
200.753	1.5
200.973	4.3
201.192	3.47
201.412	1.67
201.632	1.84
201.851	3.71
202.071	1.85
202.291	2.16
202.51	1.35
202.73	3.01
202.95	2.06
203.169	1.24
203.389	2.12
203.608	2.49
203.828	1.57
204.047	1.44
204.267	2.11
204.486	2.28
204.706	2.61
204.925	1.76
205.145	1.26
205.364	2.4
205.583	2.68
205.803	1.49
206.022	0.95
206.242	1.81
206.461	1.54
206.68	1.07
206.9	1.64
207.119	2.39
207.338	2.48
207.557	1.26
207.777	1.4
207.996	1.66
208.215	2.3
208.434	1.04
208.654	0.58
208.873	1.48
209.092	2.47
209.311	1.12
209.53	1.37
209.749	1.36
209.968	1.08
210.187	0.87
210.407	0.74
210.626	1.32
210.845	1.71
211.064	1.13
211.283	1.06
211.502	1.65
211.721	1.1
211.94	0.98
212.159	1.37
212.377	1.41
212.596	1.58
212.815	1.18
213.034	1.2
213.253	1.49
213.472	1.24
213.691	1.06
213.91	0.65
214.128	0.77
214.347	1.44
214.566	0.5
214.785	0.42
215.003	1.46
215.222	1.37
215.441	0.89
215.66	0.55
215.878	1.16
216.097	1.26
216.316	0.64
216.534	0.9
216.753	1.31
216.972	1.04
217.19	0.92
217.409	0.74
217.627	0.84
217.846	0.94
218.064	1.14
218.283	0.57
218.501	1.56
218.72	1.21
218.938	0.62
219.157	0.75
219.375	1.26
219.594	1.17
219.812	0.61
220.031	0.55
220.249	1.29
220.467	1.25
220.686	0.66
220.904	0.36
221.122	0.92
221.341	1.32
221.559	0.85
221.777	0.62
221.995	0.96
222.214	1.12
222.432	0.57
222.65	0.79
222.868	0.88
223.086	1.02
223.305	1.1
223.523	0.73
223.741	1.13
223.959	0.76
224.177	0.33
224.395	0.5
224.613	0.83
224.831	1.08
225.049	0.39
225.267	0.56
225.485	0.86
225.703	0.83
225.921	0.62
226.139	0.44
226.357	0.96
226.575	0.85
226.793	0.51
227.011	1.71
227.229	0.74
227.447	1
227.665	0.57
227.883	0.44
228.1	0.6
228.318	0.75
228.536	0.33
228.754	0.43
228.972	0.78
229.189	0.98
229.407	0.52
229.625	0.59
229.843	0.88
230.06	0.81
230.278	0.49
230.496	0.67
230.713	0.68
230.931	0.98
231.149	0.52
231.366	0.3
231.584	0.57
231.801	1.08
232.019	0.45
232.236	0.39
232.454	0.45
232.671	0.66
232.889	0.55
233.106	0.51
233.324	0.53
233.541	0.64
233.759	0.63
233.976	0.33
234.194	0.6
234.411	0.59
234.628	0.38
234.846	0.49
235.063	0.58
235.28	0.58
235.498	0.5
235.715	0.35
235.932	0.77
236.149	0.5
236.367	0.39
236.584	0.58
236.801	0.48
237.018	0.74
237.236	0.52
237.453	0.37
237.67	0.67
237.887	0.49
238.104	0.43
238.321	0.33
238.538	0.38
238.755	0.78
238.973	0.26
239.19	0.51
239.407	0.62
239.624	0.61
239.841	0.36
240.058	0.43
240.275	0.53
240.492	0.43
240.709	0.46
240.925	0.4
241.142	0.51
241.359	0.34
241.576	0.43
241.793	0.42
242.01	0.53
242.227	0.63
242.444	0.62
242.66	0.55
242.877	0.49
243.094	0.48
243.311	0.48
243.527	0.35
243.744	0.47
243.961	0.62
244.178	0.37
244.394	0.42
244.611	0.56
244.828	0.79
245.044	0.33
245.261	0.42
245.477	0.51
245.694	0.5
245.911	0.43
246.127	0.43
246.344	0.7
246.56	0.56
246.777	0.43
246.993	0.42
247.21	0.54
247.426	0.49
247.643	0.37
247.859	0.36
248.076	0.33
248.292	0.76
248.508	0.29
248.725	0.47
248.941	0.5
249.157	0.69
249.374	0.3
249.59	0.38
249.806	0.42
250.023	0.52
250.239	0.32
250.455	0.31
250.671	0.4
250.888	0.49
251.104	0.5
251.32	0.4
251.536	0.46
251.752	0.37
251.969	0.35
252.185	0.39
252.401	0.66
252.617	0.49
252.833	0.32
253.049	0.43
253.265	0.43
253.481	0.49
253.697	0.37
253.913	0.28
254.129	0.51
254.345	0.54
254.561	0.38
254.777	0.39
254.993	0.51
255.209	0.47
255.425	0.39
255.641	0.38
255.857	0.51
256.073	0.43
256.288	0.25
256.504	0.34
256.72	0.52
256.936	0.65
257.152	0.45
257.367	0.3
257.583	0.49
257.799	0.48
258.015	0.33
258.23	0.29
258.446	0.59
258.662	0.39
258.877	0.26
259.093	0.21
259.309	0.44
259.524	0.52
259.74	0.35
259.955	0.27
260.171	0.4
260.387	0.44
260.602	0.44
260.818	0.42
261.033	0.29
261.249	0.43
261.464	0.33
261.68	0.21
261.895	0.5
262.11	0.53
262.326	0.37
262.541	0.25
262.757	0.54
262.972	0.43
263.187	0.42
263.403	0.34
263.618	0.52
263.833	0.37
264.049	0.28
264.264	0.27
264.479	0.39
264.694	0.51
264.91	0.24
265.125	0.39
265.34	0.5
265.555	0.54
265.77	0.46
265.986	0.39
266.201	0.43
266.416	0.5
266.631	0.31
266.846	0.32
267.061	0.49
267.276	0.45
267.491	0.17
267.706	0.38
267.921	0.38
268.136	0.43
268.351	0.32
268.566	0.25
268.781	0.48
268.996	0.51
269.211	0.32
269.426	0.27
269.641	0.35
269.856	0.53
270.071	0.29
270.285	0.23
270.5	0.49
270.715	0.39
270.93	0.33
271.145	0.37
271.359	0.49
271.574	0.39
271.789	0.33
272.004	0.31
272.218	0.32
272.433	0.47
272.648	0.26
272.862	0.44
273.077	0.33
273.292	0.36
273.506	0.26
273.721	0.29
273.936	0.45
274.15	0.49
274.365	0.31
274.579	0.36
274.794	0.45
275.008	0.42
275.223	0.23
275.437	0.3
275.652	0.5
275.866	0.4
276.081	0.32
276.295	0.36
276.509	0.37
276.724	0.36
276.938	0.29
277.153	0.38
277.367	0.4
277.581	0.31
277.796	0.34
278.01	0.26
278.224	0.42
278.438	0.5
278.653	0.25
278.867	0.27
279.081	0.17
279.295	0.38
279.51	0.35
279.724	0.18
279.938	0.39
280.152	0.36
280.366	0.32
280.58	0.36
280.794	0.46
281.008	0.34
281.222	0.41
281.437	0.47
281.651	0.37
281.865	0.45
282.079	0.25
282.293	0.17
282.507	0.28
282.721	0.26
282.935	0.28
283.148	0.16
283.362	0.32
283.576	0.24
283.79	0.28
284.004	0.24
284.218	0.48
284.432	0.3
284.646	0.3
284.859	0.25
285.073	0.25
285.287	0.36
285.501	0.31
285.714	0.28
285.928	0.37
286.142	0.31
286.356	0.24
286.569	0.27
286.783	0.39
286.997	0.36
287.21	0.31
287.424	0.29
287.637	0.25
287.851	0.3
288.065	0.42
288.278	0.3
288.492	0.39
288.705	0.27
288.919	0.3
289.132	0.21
289.346	0.39
289.559	0.23
289.773	0.2
289.986	0.27
290.2	0.29
290.413	0.34
290.626	0.27
290.84	0.23
291.053	0.28
291.267	0.42
291.48	0.29
291.693	0.27
291.906	0.22
292.12	0.29
292.333	0.24
292.546	0.25
292.76	0.41
292.973	0.34
293.186	0.35
293.399	0.26
293.612	0.36
293.826	0.3
294.039	0.23
294.252	0.21
294.465	0.33
294.678	0.31
294.891	0.27
295.104	0.23
295.317	0.3
295.53	0.26
295.743	0.29
295.956	0.27
296.169	0.39
296.382	0.32
296.595	0.27
296.808	0.24
297.021	0.4
297.234	0.39
297.447	0.26
297.66	0.3
297.873	0.4
298.086	0.32
298.299	0.21
298.511	0.17
298.724	0.33
298.937	0.22
299.15	0.21
299.363	0.25
299.575	0.3
299.788	0.32
300.001	0.22
300.213	0.25
300.426	0.26
300.639	0.24
300.852	0.21
301.064	0.33
301.277	0.4
301.489	0.33
301.702	0.29
301.915	0.25
302.127	0.31
302.34	0.29
302.552	0.31
302.765	0.22
302.977	0.34
303.19	0.24
303.402	0.26
303.615	0.25
303.827	0.28
304.04	0.25
304.252	0.29
304.464	0.24
304.677	0.43
304.889	0.38
305.102	0.28
305.314	0.22
305.526	0.3
305.739	0.3
305.951	0.16
306.163	0.19
306.375	0.35
306.588	0.22
306.8	0.25
307.012	0.21
307.224	0.28
307.436	0.37
307.649	0.18
307.861	0.26
308.073	0.32
308.285	0.22
308.497	0.21
308.709	0.23
308.921	0.27
309.133	0.34
309.346	0.26
309.558	0.23
309.77	0.33
309.982	0.41
310.194	0.26
310.406	0.25
310.617	0.34
310.829	0.27
311.041	0.26
311.253	0.25
311.465	0.26
311.677	0.3
311.889	0.27
312.101	0.19
312.313	0.31
312.524	0.4
312.736	0.2
312.948	0.2
313.16	0.34
313.372	0.34
313.583	0.29
313.795	0.18
314.007	0.26
314.218	0.32
314.43	0.25
314.642	0.22
314.853	0.16
315.065	0.33
315.277	0.23
315.488	0.3
315.7	0.32
315.912	0.31
316.123	0.22
316.335	0.22
316.546	0.41
316.758	0.27
316.969	0.26
317.181	0.25
317.392	0.28
317.604	0.39
317.815	0.24
318.026	0.22
318.238	0.27
318.449	0.28
318.661	0.18
318.872	0.22
319.083	0.24
319.295	0.32
319.506	0.25
319.717	0.27
319.929	0.3
320.14	0.29
320.351	0.27
320.562	0.22
320.774	0.28
320.985	0.32
321.196	0.23
321.407	0.18
321.618	0.27
321.829	0.3
322.041	0.25
322.252	0.27
322.463	0.32
322.674	0.3
322.885	0.22
323.096	0.3
323.307	0.29
323.518	0.31
323.729	0.18
323.94	0.23
324.151	0.24
324.362	0.31
324.573	0.28
324.784	0.25
324.995	0.33
325.206	0.29
325.417	0.23
325.628	0.26
325.838	0.27
326.049	0.29
326.26	0.31
326.471	0.25
326.682	0.3
326.892	0.26
327.103	0.23
327.314	0.22
327.525	0.34
327.735	0.33
327.946	0.26
328.157	0.16
328.368	0.29
328.578	0.32
328.789	0.33
328.999	0.29
329.21	0.24
329.421	0.37
329.631	0.23
329.842	0.2
330.052	0.28
330.263	0.31
330.473	0.29
330.684	0.25
330.894	0.22
331.105	0.3
331.315	0.28
331.526	0.16
331.736	0.29
331.947	0.32
332.157	0.28
332.367	0.19
332.578	0.31
332.788	0.35
332.999	0.3
333.209	0.26
333.419	0.19
333.629	0.33
333.84	0.28
334.05	0.28
334.26	0.39
334.47	0.29
334.681	0.31
334.891	0.22
335.101	0.31
335.311	0.4
335.521	0.24
335.732	0.21
335.942	0.35
336.152	0.28
336.362	0.25
336.572	0.28
336.782	0.31
336.992	0.24
337.202	0.25
337.412	0.23
337.622	0.35
337.832	0.26
338.042	0.25
338.252	0.22
338.462	0.24
338.672	0.27
338.882	0.28
339.092	0.25
339.302	0.32
339.511	0.35
339.721	0.23
339.931	0.18
340.141	0.32
340.351	0.31
340.561	0.28
340.77	0.26
340.98	0.31
341.19	0.29
341.4	0.26
341.609	0.2
341.819	0.27
342.029	0.21
342.238	0.26
342.448	0.2
342.658	0.32
342.867	0.23
343.077	0.26
343.286	0.29
343.496	0.3
343.706	0.34
343.915	0.19
344.125	0.25
344.334	0.3
344.544	0.21
344.753	0.19
344.963	0.21
345.172	0.25
345.381	0.23
345.591	0.23
345.8	0.25
346.01	0.34
346.219	0.28
346.428	0.18
346.638	0.27
346.847	0.27
347.056	0.36
347.266	0.21
347.475	0.24
347.684	0.31
347.893	0.33
348.103	0.29
348.312	0.21
348.521	0.29
348.73	0.33
348.94	0.26
349.149	0.24
349.358	0.25
349.567	0.2
349.776	0.18
349.985	0.23
350.194	0.32
350.403	0.34
350.612	0.19
350.821	0.21
351.03	0.25
351.239	0.2
351.448	0.23
351.657	0.21
351.866	0.33
352.075	0.23
352.284	0.31
352.493	0.22
352.702	0.36
352.911	0.27
353.12	0.29
353.329	0.24
353.538	0.3
353.746	0.26
353.955	0.21
354.164	0.29
354.373	0.29
354.582	0.32
354.79	0.29
354.999	0.26
355.208	0.25
355.416	0.4
355.625	0.19
355.834	0.23
356.042	0.25
356.251	0.24
356.46	0.24
356.668	0.28
356.877	0.36
357.085	0.33
357.294	0.2
357.503	0.29
357.711	0.28
357.92	0.46
358.128	0.29
358.337	0.23
358.545	0.26
358.754	0.25
358.962	0.3
359.17	0.25
359.379	0.28
359.587	0.27
359.796	0.25
360.004	0.34
360.212	0.3
360.421	0.33
360.629	0.22
360.837	0.24
361.046	0.34
361.254	0.44
361.462	0.24
361.67	0.25
361.879	0.29
362.087	0.36
362.295	0.23
362.503	0.22
362.711	0.2
362.92	0.23
363.128	0.22
363.336	0.19
363.544	0.21
363.752	0.2
363.96	0.19
364.168	0.25
364.376	0.29
364.584	0.29
364.792	0.31
365	0.27
365.208	0.28
365.416	0.3
365.624	0.33
365.832	0.23
366.04	0.33
366.248	0.31
366.456	0.26
366.664	0.23
366.872	0.26
367.079	0.28
367.287	0.27
367.495	0.25
367.703	0.24
367.911	0.28
368.118	0.26
368.326	0.21
368.534	0.23
368.742	0.32
368.949	0.18
369.157	0.23
369.365	0.27
369.572	0.25
369.78	0.22
369.988	0.29
370.195	0.27
370.403	0.33
370.61	0.28
370.818	0.26
371.026	0.37
371.233	0.25
371.441	0.24
371.648	0.26
371.856	0.31
372.063	0.3
372.271	0.25
372.478	0.24
372.685	0.26
372.893	0.34
373.1	0.25
373.308	0.25
373.515	0.41
373.722	0.29
373.93	0.24
374.137	0.28
374.344	0.33
374.552	0.31
374.759	0.28
374.966	0.25
375.173	0.22
375.381	0.35
375.588	0.27
375.795	0.21
376.002	0.23
376.209	0.24
376.417	0.28
376.624	0.32
376.831	0.31
377.038	0.25
377.245	0.2
377.452	0.26
377.659	0.32
377.866	0.24
378.073	0.24
378.28	0.26
378.487	0.34
378.694	0.36
378.901	0.27
379.108	0.29
379.315	0.3
379.522	0.38
379.729	0.31
379.936	0.26
380.143	0.27
380.35	0.26
380.557	0.27
380.763	0.27
380.97	0.27
381.177	0.29
381.384	0.24
381.591	0.19
381.797	0.31
382.004	0.32
382.211	0.3
382.418	0.28
382.624	0.31
382.831	0.36
383.038	0.3
383.244	0.3
383.451	0.3
383.658	0.26
383.864	0.24
384.071	0.24
384.277	0.35
384.484	0.28
384.69	0.36
384.897	0.24
385.103	0.29
385.31	0.29
385.516	0.23
385.723	0.23
385.929	0.27
386.136	0.3
386.342	0.36
386.549	0.29
386.755	0.36
386.961	0.33
387.168	0.31
387.374	0.25
387.58	0.36
387.787	0.31
387.993	0.3
388.199	0.28
388.406	0.28
388.612	0.28
388.818	0.27
389.024	0.24
389.231	0.3
389.437	0.44
389.643	0.32
389.849	0.31
390.055	0.31
390.261	0.31
390.467	0.31
390.674	0.26
390.88	0.3
391.086	0.36
391.292	0.28
391.498	0.28
391.704	0.34
391.91	0.29
392.116	0.27
392.322	0.19
392.528	0.35
392.734	0.28
392.94	0.34
393.146	0.31
393.352	0.38
393.557	0.3
393.763	0.32
393.969	0.36
394.175	0.33
394.381	0.34
394.587	0.23
394.792	0.32
394.998	0.36
395.204	0.36
395.41	0.3
395.615	0.31
395.821	0.35
396.027	0.35
396.233	0.27
396.438	0.35
396.644	0.39
396.85	0.36
397.055	0.34
397.261	0.32
397.466	0.34
397.672	0.35
397.878	0.4
398.083	0.39
398.289	0.32
398.494	0.43
398.7	0.4
398.905	0.28
399.111	0.44
399.316	0.32
399.522	0.37
399.727	0.35
399.932	0.33
400.138	0.34
400.343	0.41
400.549	0.32
400.754	0.37
400.959	0.42
401.165	0.38
401.37	0.43
401.575	0.52
401.78	0.35
401.986	0.37
402.191	0.35
402.396	0.4
402.601	0.42
402.807	0.45
403.012	0.42
403.217	0.45
403.422	0.44
403.627	0.44
403.832	0.36
404.037	0.54
404.243	0.45
404.448	0.4
404.653	0.39
404.858	0.46
405.063	0.46
405.268	0.42
405.473	0.38
405.678	0.4
405.883	0.65
406.088	0.54
406.293	0.43
406.498	0.5
406.703	0.48
406.907	0.48
407.112	0.46
407.317	0.53
407.522	0.6
407.727	0.51
407.932	0.56
408.136	0.71
408.341	0.55
408.546	0.63
408.751	0.56
408.956	0.59
409.16	0.68
409.365	0.6
409.57	0.69
409.774	0.64
409.979	0.66
410.184	0.69
410.388	0.61
410.593	0.75
410.798	0.71
411.002	0.74
411.207	0.82
411.411	0.82
411.616	0.8
411.82	0.77
412.025	0.88
412.229	0.83
412.434	1
412.638	0.93
412.843	0.89
413.047	0.95
413.252	0.99
413.456	0.97
413.66	1.05
413.865	1.05
414.069	1.17
414.273	1.13
414.478	1.11
414.682	1.14
414.886	1.24
415.091	1.2
415.295	1.19
415.499	1.41
415.703	1.39
415.908	1.43
416.112	1.37
416.316	1.61
416.52	1.56
416.724	1.51
416.929	1.62
417.133	1.82
417.337	1.73
417.541	1.8
417.745	1.82
417.949	1.98
418.153	1.98
418.357	2
418.561	2.21
418.765	2.1
418.969	2.29
419.173	2.39
419.377	2.41
419.581	2.63
419.785	2.65
419.989	2.57
420.193	2.72
420.397	2.88
420.601	2.98
420.804	3.03
421.008	3.05
421.212	3.19
421.416	3.21
421.62	3.16
421.823	3.25
422.027	3.53
422.231	3.44
422.435	3.4
422.638	3.49
422.842	3.65
423.046	3.67
423.249	3.89
423.453	3.9
423.657	4.11
423.86	4.07
424.064	4.32
424.268	4.53
424.471	4.39
424.675	4.6
424.878	4.63
425.082	4.78
425.285	5.09
425.489	5.07
425.692	5.13
425.896	5.07
426.099	5.34
426.303	5.49
426.506	5.6
426.71	5.78
426.913	6.13
427.116	6.16
427.32	6.21
427.523	6.17
427.726	6.63
427.93	6.59
428.133	7.03
428.336	7.17
428.54	7.27
428.743	7.48
428.946	7.68
429.149	7.76
429.353	7.78
429.556	7.77
429.759	8.04
429.962	8.09
430.165	8.21
430.368	7.84
430.571	7.88
430.775	7.93
430.978	7.88
431.181	8.03
431.384	8.02
431.587	8.21
431.79	8.57
431.993	8.54
432.196	8.78
432.399	9.16
432.602	9.38
432.805	9.39
433.008	9.89
433.211	9.72
433.414	10.05
433.616	10.25
433.819	10.03
434.022	10.3
434.225	10.55
434.428	10.58
434.631	11.01
434.833	10.65
435.036	11.01
435.239	11.14
435.442	11.09
435.645	11.41
435.847	11.5
436.05	11.78
436.253	11.98
436.455	12.03
436.658	11.97
436.861	12.26
437.063	12.32
437.266	12.35
437.468	12.69
437.671	13
437.874	12.97
438.076	12.85
438.279	13.35
438.481	13.34
438.684	14.18
438.886	13.73
439.089	13.93
439.291	14.05
439.494	14.31
439.696	14.46
439.899	14.96
440.101	15.55
440.303	15.68
440.506	16.44
440.708	16.1
440.91	16.39
441.113	16.56
441.315	16.81
441.517	16.57
441.72	16.98
441.922	16.75
442.124	16.57
442.326	17
442.529	17.18
442.731	17.22
442.933	17.52
443.135	17.45
443.337	17.39
443.539	17.78
443.742	17.4
443.944	18.16
444.146	17.93
444.348	17.9
444.55	17.78
444.752	18.1
444.954	17.89
445.156	17.94
445.358	18.26
445.56	18.6
445.762	18.39
445.964	18.71
446.166	18.51
446.368	18.5
446.57	18.52
446.772	18.07
446.974	17.82
447.175	18.27
447.377	17.77
447.579	18.3
447.781	17.92
447.983	17.78
448.184	17.34
448.386	17.59
448.588	17.15
448.79	17.16
448.991	17.41
449.193	17.29
449.395	16.89
449.597	16.45
449.798	16.32
450	15.96
450.202	15.84
450.403	15.89
450.605	15.76
450.806	15.45
451.008	15.27
451.21	15.03
451.411	14.68
451.613	13.89
451.814	14.22
452.016	14.1
452.217	13.36
452.419	13.4
452.62	13.17
452.821	12.86
453.023	12.6
453.224	12.39
453.426	11.97
453.627	11.14
453.828	11.33
454.03	11.43
454.231	11.33
454.432	11.25
454.634	11.03
454.835	10.63
455.036	10.48
455.238	10.2
455.439	9.94
455.64	9.64
455.841	9.47
456.042	9.7
456.244	9.24
456.445	9.09
456.646	8.81
456.847	8.8
457.048	8.6
457.249	8.67
457.45	8.51
457.651	7.81
457.852	7.83
458.054	7.33
458.255	7.25
458.456	7.53
458.657	7.28
458.858	6.81
459.058	6.74
459.259	6.79
459.46	6.55
459.661	6.56
459.862	6.62
460.063	6.43
460.264	6.32
460.465	6.15
460.666	6.18
460.866	5.86
461.067	5.59
461.268	5.63
461.469	5.62
461.67	5.42
461.87	5.31
462.071	5.37
462.272	5.29
462.473	5.17
462.673	5.38
462.874	5.25
463.075	5.23
463.275	5.21
463.476	5.2
463.676	5.15
463.877	5.02
464.078	5.07
464.278	5.08
464.479	4.94
464.679	4.8
464.88	4.79
465.08	4.8
465.281	4.57
465.481	4.37
465.682	4.2
465.882	4.2
466.083	4.11
466.283	4.05
466.483	3.98
466.684	3.82
466.884	3.71
467.085	3.74
467.285	3.74
467.485	3.71
467.686	3.58
467.886	3.48
468.086	3.51
468.286	3.44
468.487	3.45
468.687	3.34
468.887	3.32
469.087	3.41
469.287	3.37
469.488	3.09
469.688	3.27
469.888	3.22
470.088	3.24
470.288	3.17
470.488	3.12
470.688	2.95
470.888	2.92
471.088	2.74
471.288	2.91
471.488	2.83
471.688	2.81
471.888	2.76
472.088	2.91
472.288	2.78
472.488	2.61
472.688	2.64
472.888	2.66
473.088	2.68
473.288	2.54
473.488	2.52
473.688	2.66
473.887	2.57
474.087	2.45
474.287	2.43
474.487	2.45
474.687	2.49
474.886	2.39
475.086	2.36
475.286	2.38
475.486	2.31
475.685	2.29
475.885	2.26
476.085	2.3
476.284	2.32
476.484	2.32
476.684	2.25
476.883	2.32
477.083	2.22
477.282	2.16
477.482	2.25
477.681	2.2
477.881	2.12
478.08	2.13
478.28	2.08
478.479	2.17
478.679	2.2
478.878	2.06
479.078	2.07
479.277	2.13
479.477	2.09
479.676	2.02
479.875	2.03
480.075	2.01
480.274	2.05
480.473	2.09
480.673	2.05
480.872	2.11
481.071	2.07
481.271	2.09
481.47	2.02
481.669	2.05
481.868	2
482.067	2.05
482.267	1.93
482.466	1.98
482.665	1.99
482.864	1.99
483.063	1.96
483.262	2.05
483.461	2.1
483.661	2.1
483.86	2.02
484.059	2.07
484.258	2.08
484.457	2.04
484.656	2.09
484.855	2.14
485.054	1.96
485.253	2.06
485.452	1.99
485.651	2.06
485.849	2.02
486.048	2.06
486.247	2.05
486.446	2.11
486.645	2.05
486.844	2.08
487.043	2.09
487.241	2.13
487.44	2.1
487.639	2.16
487.838	2.14
488.037	2.11
488.235	2.21
488.434	2.15
488.633	2.07
488.831	2.26
489.03	2.28
489.229	2.2
489.427	2.23
489.626	2.3
489.825	2.31
490.023	2.32
490.222	2.3
490.42	2.34
490.619	2.4
490.817	2.38
491.016	2.35
491.214	2.42
491.413	2.43
491.611	2.39
491.81	2.4
492.008	2.48
492.207	2.56
492.405	2.58
492.604	2.47
492.802	2.61
493	2.65
493.199	2.62
493.397	2.63
493.595	2.71
493.794	2.71
493.992	2.77
494.19	2.78
494.388	2.82
494.587	2.74
494.785	2.83
494.983	2.74
495.181	2.88
495.379	2.94
495.578	2.93
495.776	2.94
495.974	2.94
496.172	3.02
496.37	3.1
496.568	3.11
496.766	3.08
496.964	3.22
497.162	3.21
497.36	3.22
497.558	3.26
497.756	3.31
497.954	3.31
498.152	3.37
498.35	3.45
498.548	3.38
498.746	3.39
498.944	3.41
499.142	3.49
499.34	3.55
499.538	3.66
499.736	3.51
499.933	3.65
500.131	3.6
500.329	3.71
500.527	3.83
500.725	3.85
500.922	3.88
501.12	3.88
501.318	3.97
501.516	3.92
501.713	4
501.911	3.97
502.109	3.98
502.306	4.05
502.504	4.05
502.701	4.1
502.899	4.21
503.097	4.39
503.294	4.2
503.492	4.34
503.689	4.4
503.887	4.35
504.084	4.48
504.282	4.47
504.479	4.41
504.677	4.57
504.874	4.53
505.072	4.43
505.269	4.67
505.466	4.7
505.664	4.76
505.861	4.72
506.059	4.73
506.256	4.77
506.453	4.83
506.651	4.98
506.848	4.98
507.045	4.99
507.242	4.91
507.44	5.02
507.637	5.06
507.834	5.05
508.031	5.24
508.229	5.18
508.426	5.16
508.623	5.3
508.82	5.31
509.017	5.27
509.214	5.24
509.411	5.37
509.608	5.32
509.805	5.46
510.003	5.43
510.2	5.5
510.397	5.62
510.594	5.54
510.791	5.67
510.988	5.64
511.184	5.65
511.381	5.52
511.578	5.66
511.775	5.85
511.972	5.75
512.169	5.78
512.366	5.77
512.563	5.93
512.76	6
512.956	5.96
513.153	5.92
513.35	5.88
513.547	5.9
513.744	6.03
513.94	6.05
514.137	6.16
514.334	6.06
514.53	6.12
514.727	6.4
514.924	6.24
515.12	6.25
515.317	6.22
515.514	6.22
515.71	6.21
515.907	6.43
516.103	6.45
516.3	6.29
516.497	6.48
516.693	6.44
516.89	6.49
517.086	6.5
517.283	6.52
517.479	6.49
517.676	6.62
517.872	6.64
518.068	6.6
518.265	6.6
518.461	6.59
518.658	6.69
518.854	6.7
519.05	6.82
519.247	6.79
519.443	6.81
519.639	6.92
519.836	6.86
520.032	6.71
520.228	6.9
520.424	6.83
520.621	6.9
520.817	7.01
521.013	6.89
521.209	7.1
521.405	7.09
521.601	7.03
521.798	7.03
521.994	7.07
522.19	6.97
522.386	7.01
522.582	7.12
522.778	7.25
522.974	7.07
523.17	7.1
523.366	7.13
523.562	7.18
523.758	7.18
523.954	7.02
524.15	7.19
524.346	7.29
524.542	7.26
524.738	7.21
524.934	7.33
525.129	7.31
525.325	7.28
525.521	7.19
525.717	7.51
525.913	7.32
526.109	7.36
526.304	7.42
526.5	7.4
526.696	7.47
526.892	7.4
527.087	7.64
527.283	7.49
527.479	7.51
527.674	7.32
527.87	7.54
528.066	7.5
528.261	7.53
528.457	7.44
528.653	7.62
528.848	7.6
529.044	7.66
529.239	7.51
529.435	7.55
529.63	7.49
529.826	7.57
530.021	7.51
530.217	7.64
530.412	7.58
530.608	7.64
530.803	7.68
530.999	7.48
531.194	7.56
531.389	7.7
531.585	7.68
531.78	7.79
531.975	7.68
532.171	7.78
532.366	7.71
532.561	7.75
532.757	7.7
532.952	7.81
533.147	7.66
533.342	7.79
533.538	7.66
533.733	7.94
533.928	7.54
534.123	7.76
534.318	7.81
534.513	7.74
534.709	7.87
534.904	7.86
535.099	7.86
535.294	7.93
535.489	7.87
535.684	7.8
535.879	7.86
536.074	7.91
536.269	7.93
536.464	8
536.659	7.9
536.854	7.87
537.049	7.97
537.244	7.9
537.439	7.87
537.634	7.95
537.828	7.96
538.023	7.89
538.218	7.93
538.413	7.85
538.608	7.91
538.803	7.93
538.997	7.89
539.192	7.97
539.387	7.89
539.582	7.92
539.776	7.92
539.971	7.99
540.166	8.07
540.36	7.92
540.555	8.06
540.75	7.99
540.944	8.03
541.139	8.06
541.334	7.94
541.528	8.02
541.723	8.07
541.917	8.03
542.112	7.92
542.306	7.84
542.501	7.92
542.695	8.02
542.89	7.92
543.084	8.04
543.279	8.01
543.473	8.01
543.668	8.06
543.862	7.91
544.056	7.97
544.251	8.08
544.445	8.15
544.64	8.12
544.834	7.84
545.028	7.66
545.222	8.01
545.417	8.21
545.611	8.11
545.805	8.07
546	7.92
546.194	8.07
546.388	8.12
546.582	8.03
546.776	8.04
546.97	8.1
547.165	7.96
547.359	8.07
547.553	7.98
547.747	8.01
547.941	8.26
548.135	8.05
548.329	8.16
548.523	8.04
548.717	7.98
548.911	8.03
549.105	7.96
549.299	8.11
549.493	8.11
549.687	7.98
549.881	8.12
550.075	8.08
550.269	7.99
550.463	8.12
550.657	8.11
550.85	8
551.044	8.05
551.238	8.14
551.432	8.06
551.626	8.13
551.82	8.14
552.013	7.98
552.207	8.18
552.401	8.09
552.594	8.05
552.788	8.05
552.982	8.04
553.176	8.02
553.369	8.19
553.563	8.2
553.756	8.05
553.95	8.11
554.144	8.16
554.337	8.16
554.531	7.95
554.724	8.15
554.918	8.2
555.111	8.1
555.305	8.08
555.498	8.06
555.692	8.17
555.885	8.12
556.079	8.06
556.272	8.15
556.466	8.13
556.659	8.07
556.852	8.11
557.046	8.01
557.239	7.96
557.432	8.09
557.626	8.11
557.819	8.24
558.012	8.11
558.206	8.23
558.399	8.16
558.592	8.07
558.785	8.09
558.979	8.06
559.172	8.17
559.365	8.18
559.558	8.06
559.751	8.06
559.944	8.12
560.138	8.08
560.331	8.16
560.524	8.07
560.717	8.12
560.91	8.03
561.103	8.13
561.296	8.04
561.489	8.14
561.682	8.13
561.875	8.15
562.068	8.2
562.261	8.01
562.454	8.26
562.647	8.08
562.84	8.15
563.032	8.2
563.225	8.07
563.418	8.12
563.611	8.19
563.804	8.13
563.997	7.99
564.19	7.91
564.382	8.24
564.575	8.12
564.768	8.04
564.961	8.14
565.153	8.02
565.346	8.01
565.539	8.17
565.731	8.06
565.924	8.15
566.117	8.21
566.309	8.13
566.502	8.05
566.695	8.07
566.887	8.1
567.08	8.05
567.272	8.12
567.465	8.01
567.657	8.18
567.85	8
568.042	8.13
568.235	8.08
568.427	7.9
568.62	8.04
568.812	8.01
569.005	8.01
569.197	8
569.389	8.05
569.582	8.1
569.774	8.04
569.966	7.94
570.159	8.01
570.351	8.01
570.543	7.99
570.736	8
570.928	7.85
571.12	8.06
571.312	7.92
571.505	7.8
571.697	8.12
571.889	8
572.081	8.03
572.273	7.95
572.465	7.98
572.658	8.01
572.85	8.03
573.042	8.08
573.234	7.89
573.426	7.93
573.618	7.91
573.81	8.06
574.002	7.95
574.194	8.01
574.386	7.93
574.578	7.82
574.77	7.94
574.962	7.94
575.154	7.8
575.346	7.81
575.538	7.87
575.729	7.84
575.921	7.89
576.113	7.96
576.305	7.89
576.497	8
576.689	7.82
576.88	7.79
577.072	7.99
577.264	7.9
577.456	7.9
577.647	7.83
577.839	7.99
578.031	7.9
578.223	7.79
578.414	7.71
578.606	7.89
578.798	7.92
578.989	7.86
579.181	7.87
579.372	7.83
579.564	7.82
579.755	7.81
579.947	7.72
580.139	7.88
580.33	7.72
580.522	7.72
580.713	7.71
580.905	7.72
581.096	7.87
581.287	7.76
581.479	7.76
581.67	7.8
581.862	7.63
582.053	7.67
582.244	7.56
582.436	7.81
582.627	7.7
582.818	7.61
583.01	7.64
583.201	7.75
583.392	7.69
583.583	7.61
583.775	7.49
583.966	7.64
584.157	7.58
584.348	7.67
584.54	7.57
584.731	7.61
584.922	7.49
585.113	7.45
585.304	7.54
585.495	7.58
585.686	7.61
585.877	7.57
586.068	7.71
586.259	7.57
586.45	7.55
586.641	7.53
586.832	7.62
587.023	7.44
587.214	7.5
587.405	7.55
587.596	7.37
587.787	7.4
587.978	7.45
588.169	7.39
588.36	7.42
588.551	7.43
588.742	7.4
588.932	7.44
589.123	7.27
589.314	7.46
589.505	7.31
589.696	7.35
589.886	7.3
590.077	7.36
590.268	7.26
590.458	7.24
590.649	7.09
590.84	7.31
591.03	7.28
591.221	7.27
591.412	7.17
591.602	7.3
591.793	7.28
591.984	7.23
592.174	7.19
592.365	7.35
592.555	7.14
592.746	7.14
592.936	7.1
593.127	7.24
593.317	7.24
593.508	7.16
593.698	7.09
593.889	7.08
594.079	7.09
594.269	7.02
594.46	7.02
594.65	7.14
594.84	7.05
595.031	6.97
595.221	6.99
595.411	7.02
595.602	6.99
595.792	6.97
595.982	6.86
596.172	7.05
596.363	6.87
596.553	6.9
596.743	6.91
596.933	6.88
597.123	6.88
597.314	6.78
597.504	6.66
597.694	6.87
597.884	6.78
598.074	6.83
598.264	6.81
598.454	6.81
598.644	6.78
598.834	6.75
599.024	6.74
599.214	6.74
599.404	6.82
599.594	6.76
599.784	6.66
599.974	6.77
600.164	6.7
600.354	6.66
600.544	6.57
600.734	6.62
600.924	6.64
601.114	6.54
601.303	6.54
601.493	6.62
601.683	6.59
601.873	6.53
602.063	6.47
602.252	6.56
602.442	6.4
602.632	6.44
602.821	6.34
603.011	6.43
603.201	6.47
603.39	6.36
603.58	6.3
603.77	6.39
603.959	6.48
604.149	6.37
604.339	6.33
604.528	6.39
604.718	6.33
604.907	6.3
605.097	6.25
605.286	6.24
605.476	6.29
605.665	6.3
605.855	6.18
606.044	6.28
606.234	6.24
606.423	6.14
606.612	6.15
606.802	6.09
606.991	6.18
607.181	6.2
607.37	6.19
607.559	5.94
607.749	6.13
607.938	5.98
608.127	6.01
608.316	6.07
608.506	6.02
608.695	6.06
608.884	5.93
609.073	6.04
609.263	6.03
609.452	6.01
609.641	5.84
609.83	5.84
610.019	5.96
610.208	5.84
610.397	5.85
610.586	5.87
610.775	5.75
610.965	5.83
611.154	5.68
611.343	5.83
611.532	5.68
611.721	5.75
611.91	5.7
612.099	5.73
612.287	5.65
612.476	5.53
612.665	5.74
612.854	5.57
613.043	5.65
613.232	5.73
613.421	5.51
613.61	5.66
613.798	5.51
613.987	5.6
614.176	5.54
614.365	5.57
614.554	5.49
614.742	5.54
614.931	5.39
615.12	5.55
615.309	5.45
615.497	5.32
615.686	5.3
615.875	5.37
616.063	5.36
616.252	5.35
616.44	5.33
616.629	5.3
616.818	5.31
617.006	5.26
617.195	5.21
617.383	5.24
617.572	5.15
617.76	5.1
617.949	5.17
618.137	5.31
618.326	5.18
618.514	4.98
618.703	4.97
618.891	5.24
619.079	4.99
619.268	5.14
619.456	5.01
619.644	5.16
619.833	5.07
620.021	5.03
620.209	4.88
620.398	5.02
620.586	4.94
620.774	4.96
620.962	4.98
621.151	5.04
621.339	4.92
621.527	4.79
621.715	4.79
621.903	4.82
622.092	4.75
622.28	4.9
622.468	4.71
622.656	4.85
622.844	4.71
623.032	4.84
623.22	4.64
623.408	4.84
623.596	4.77
623.784	4.8
623.972	4.59
624.16	4.65
624.348	4.77
624.536	4.71
624.724	4.56
624.912	4.58
625.1	4.67
625.288	4.57
625.476	4.53
625.664	4.62
625.851	4.51
626.039	4.55
626.227	4.47
626.415	4.49
626.603	4.41
626.79	4.46
626.978	4.45
627.166	4.5
627.354	4.33
627.541	4.36
627.729	4.2
627.917	4.53
628.104	4.49
628.292	4.29
628.48	4.34
628.667	4.27
628.855	4.39
629.042	4.35
629.23	4.25
629.418	4.23
629.605	4.25
629.793	4.14
629.98	4.17
630.168	4.17
630.355	4.16
630.543	4.18
630.73	4.05
630.917	4.12
631.105	4.21
631.292	4.11
631.48	4.13
631.667	4.18
631.854	4.12
632.042	4.05
632.229	3.95
632.416	4.07
632.604	3.96
632.791	3.89
632.978	3.96
633.165	3.97
633.353	3.98
633.54	3.97
633.727	3.84
633.914	3.89
634.101	3.89
634.289	3.92
634.476	3.81
634.663	3.77
634.85	3.85
635.037	3.75
635.224	3.66
635.411	3.86
635.598	3.75
635.785	3.71
635.972	3.7
636.159	3.73
636.346	3.61
636.533	3.62
636.72	3.66
636.907	3.64
637.094	3.66
637.281	3.5
637.468	3.6
637.655	3.67
637.842	3.58
638.029	3.56
638.215	3.55
638.402	3.53
638.589	3.46
638.776	3.43
638.963	3.47
639.149	3.55
639.336	3.56
639.523	3.41
639.709	3.46
639.896	3.38
640.083	3.38
640.27	3.43
640.456	3.33
640.643	3.38
640.829	3.27
641.016	3.25
641.203	3.27
641.389	3.3
641.576	3.34
641.762	3.25
641.949	3.18
642.135	3.26
642.322	3.27
642.508	3.11
642.695	3.19
642.881	3.17
643.068	3.11
643.254	3.14
643.441	3.15
643.627	3.19
643.813	3.04
644	3.13
644.186	3.02
644.372	3.06
644.559	3.09
644.745	3.06
644.931	2.97
645.118	3.02
645.304	3.03
645.49	3.02
645.676	2.95
645.862	2.97
646.049	3.02
646.235	2.98
646.421	3.04
646.607	3.03
646.793	2.9
646.979	2.81
647.165	2.91
647.352	2.87
647.538	2.9
647.724	2.85
647.91	2.87
648.096	2.92
648.282	2.9
648.468	2.82
648.654	2.81
648.84	2.81
649.026	2.77
649.212	2.7
649.397	2.67
649.583	2.7
649.769	2.72
649.955	2.71
650.141	2.75
650.327	2.74
650.513	2.64
650.698	2.66
650.884	2.57
651.07	2.68
651.256	2.66
651.442	2.63
651.627	2.53
651.813	2.67
651.999	2.63
652.184	2.55
652.37	2.56
652.556	2.56
652.741	2.58
652.927	2.39
653.113	2.51
653.298	2.48
653.484	2.41
653.669	2.43
653.855	2.42
654.04	2.52
654.226	2.48
654.412	2.4
654.597	2.42
654.782	2.44
654.968	2.44
655.153	2.37
655.339	2.35
655.524	2.35
655.71	2.41
655.895	2.41
656.08	2.38
656.266	2.39
656.451	2.35
656.636	2.26
656.822	2.31
657.007	2.34
657.192	2.29
657.378	2.26
657.563	2.27
657.748	2.32
657.933	2.28
658.118	2.21
658.304	2.17
658.489	2.34
658.674	2.24
658.859	2.15
659.044	2.16
659.229	2.24
659.414	2.15
659.599	2.17
659.785	2.07
659.97	2.14
660.155	2.14
660.34	2.19
660.525	2.06
660.71	2.06
660.895	2.14
661.08	2.06
661.264	2.04
661.449	2.13
661.634	2.06
661.819	2.12
662.004	1.99
662.189	1.98
662.374	1.96
662.559	1.97
662.743	1.95
662.928	2
663.113	1.97
663.298	1.93
663.483	1.97
663.667	2.01
663.852	1.9
664.037	1.99
664.221	1.87
664.406	1.94
664.591	1.96
664.775	1.94
664.96	1.92
665.145	1.92
665.329	1.98
665.514	1.89
665.698	1.8
665.883	1.77
666.068	1.89
666.252	1.82
666.437	1.8
666.621	1.79
666.806	1.87
666.99	1.8
667.174	1.73
667.359	1.87
667.543	1.75
667.728	1.77
667.912	1.68
668.096	1.8
668.281	1.73
668.465	1.77
668.649	1.71
668.834	1.72
669.018	1.73
669.202	1.73
669.387	1.7
669.571	1.75
669.755	1.64
669.939	1.67
670.124	1.64
670.308	1.73
670.492	1.72
670.676	1.66
670.86	1.6
671.044	1.55
671.228	1.67
671.413	1.6
671.597	1.55
671.781	1.59
671.965	1.67
672.149	1.55
672.333	1.63
672.517	1.54
672.701	1.61
672.885	1.54
673.069	1.47
673.253	1.68
673.437	1.59
673.621	1.51
673.804	1.56
673.988	1.54
674.172	1.53
674.356	1.46
674.54	1.49
674.724	1.62
674.908	1.49
675.091	1.53
675.275	1.51
675.459	1.52
675.643	1.52
675.826	1.48
676.01	1.43
676.194	1.54
676.377	1.55
676.561	1.46
676.745	1.42
676.928	1.46
677.112	1.51
677.296	1.38
677.479	1.4
677.663	1.39
677.846	1.48
678.03	1.45
678.213	1.29
678.397	1.39
678.58	1.37
678.764	1.4
678.947	1.29
679.131	1.33
679.314	1.38
679.498	1.32
679.681	1.36
679.865	1.38
680.048	1.36
680.231	1.31
680.415	1.26
680.598	1.3
680.781	1.27
680.965	1.25
681.148	1.28
681.331	1.24
681.514	1.31
681.698	1.23
681.881	1.27
682.064	1.35
682.247	1.31
682.43	1.12
682.614	1.26
682.797	1.33
682.98	1.33
683.163	1.21
683.346	1.3
683.529	1.22
683.712	1.14
683.895	1.23
684.078	1.16
684.261	1.18
684.444	1.21
684.627	1.23
684.81	1.15
684.993	1.17
685.176	1.24
685.359	1.14
685.542	1.12
685.725	1.3
685.908	1.15
686.091	1.16
686.274	1.21
686.457	1.19
686.639	1.13
686.822	1.12
687.005	1.12
687.188	1.21
687.371	1.27
687.553	1.18
687.736	1.16
687.919	1.25
688.102	1.18
688.284	1.11
688.467	1.13
688.65	1.07
688.832	1.06
689.015	1.01
689.197	0.91
689.38	1.21
689.563	1.15
689.745	1.02
689.928	0.98
690.11	1.04
690.293	1.04
690.475	0.97
690.658	1.06
690.84	1.05
691.023	1
691.205	0.99
691.388	1.02
691.57	1.04
691.752	1.06
691.935	0.94
692.117	0.96
692.3	1.03
692.482	1.01
692.664	0.97
692.847	1.03
693.029	1.09
693.211	1.08
693.393	0.93
693.576	0.95
693.758	1
693.94	0.98
694.122	0.97
694.304	0.95
694.487	0.9
694.669	1.02
694.851	0.86
695.033	0.89
695.215	0.88
695.397	0.96
695.579	0.96
695.761	0.87
695.943	0.87
696.125	1
696.308	0.94
696.49	0.83
696.671	1.08
696.853	0.87
697.035	1.17
697.217	0.89
697.399	0.96
697.581	0.86
697.763	0.85
697.945	0.72
698.127	0.97
698.309	0.99
698.491	0.87
698.672	0.93
698.854	0.9
699.036	0.91
699.218	0.87
699.399	0.96
699.581	0.97
699.763	0.83
699.945	0.78
700.126	0.71
700.308	0.84
700.49	0.79
700.671	0.75
700.853	0.79
701.035	0.77
701.216	0.84
701.398	0.8
701.579	0.78
701.761	0.9
701.943	0.82
702.124	0.77
702.306	0.8
702.487	0.95
702.669	0.8
702.85	0.75
703.031	0.7
703.213	0.94
703.394	0.91
703.576	0.75
703.757	0.92
703.938	0.91
704.12	1.03
704.301	0.74
704.483	0.77
704.664	0.83
704.845	0.91
705.026	0.83
705.208	0.72
705.389	0.85
705.57	0.86
705.751	0.75
705.933	0.74
706.114	0.79
706.295	0.8
706.476	0.66
706.657	0.85
706.838	0.85
707.02	0.83
707.201	0.7
707.382	0.66
707.563	0.8
707.744	0.68
707.925	0.68
708.106	0.69
708.287	0.77
708.468	0.86
708.649	0.69
708.83	0.83
709.011	0.69
709.192	0.79
709.373	0.64
709.554	0.7
709.734	0.79
709.915	0.75
710.096	0.67
710.277	0.56
710.458	0.76
710.639	0.74
710.819	0.54
711	0.63
711.181	0.8
711.362	0.77
711.542	0.71
711.723	0.66
711.904	0.77
712.085	0.77
712.265	0.68
712.446	0.53
712.627	0.64
712.807	0.76
712.988	0.66
713.168	0.58
713.349	0.7
713.53	0.5
713.71	0.59
713.891	0.56
714.071	0.66
714.252	0.66
714.432	0.58
714.613	0.56
714.793	0.67
714.974	0.74
715.154	0.67
715.334	0.67
715.515	0.83
715.695	0.57
715.876	0.66
716.056	0.61
716.236	0.52
716.417	0.63
716.597	0.57
716.777	0.86
716.957	0.7
717.138	0.7
717.318	0.61
717.498	0.51
717.678	0.67
717.859	0.63
718.039	0.59
718.219	0.63
718.399	0.58
718.579	0.55
718.759	0.48
718.939	0.61
719.12	0.58
719.3	0.66
719.48	0.4
719.66	0.43
719.84	0.72
720.02	0.67
720.2	0.49
720.38	0.58
720.56	0.74
720.74	0.52
720.92	0.58
721.1	0.77
721.279	0.72
721.459	0.62
721.639	0.5
721.819	0.55
721.999	0.52
722.179	0.63
722.359	0.48
722.538	0.52
722.718	0.62
722.898	0.58
723.078	0.53
723.257	0.55
723.437	0.65
723.617	0.63
723.797	0.55
723.976	0.54
724.156	0.7
724.336	0.7
724.515	0.73
724.695	0.36
724.874	0.57
725.054	0.69
725.234	0.53
725.413	0.62
725.593	0.51
725.772	0.64
725.952	0.46
726.131	0.46
726.311	0.54
726.49	0.49
726.67	0.49
726.849	0.4
727.028	0.63
727.208	0.44
727.387	0.49
727.567	0.47
727.746	0.53
727.925	0.54
728.105	0.46
728.284	0.42
728.463	0.44
728.643	0.52
728.822	0.45
729.001	0.42
729.18	0.54
729.359	0.68
729.539	0.55
729.718	0.53
729.897	0.6
730.076	0.5
730.255	0.37
730.434	0.49
730.614	0.66
730.793	0.72
730.972	0.53
731.151	0.46
731.33	0.62
731.509	0.5
731.688	0.52
731.867	0.49
732.046	0.34
732.225	0.67
732.404	0.44
732.583	0.29
732.762	0.44
732.941	0.56
733.12	0.52
733.298	0.55
733.477	0.75
733.656	0.49
733.835	0.36
734.014	0.56
734.193	0.6
734.371	0.55
734.55	0.6
734.729	0.34
734.908	0.47
735.086	0.6
735.265	0.52
735.444	0.4
735.623	0.47
735.801	0.35
735.98	0.49
736.159	0.51
736.337	0.55
736.516	0.66
736.694	0.54
736.873	0.49
737.052	0.78
737.23	0.75
737.409	0.51
737.587	0.77
737.766	0.48
737.944	0.6
738.123	0.53
738.301	0.6
738.479	0.55
738.658	0.71
738.836	0.27
739.015	0.54
739.193	0.63
739.371	0.33
739.55	0.47
739.728	0.33
739.906	0.7
740.085	0.78
740.263	0.59
740.441	0.31
740.62	0.8
740.798	0.6
740.976	0.42
741.154	0.38
741.332	0.71
741.511	0.52
741.689	0.57
741.867	0.55
742.045	0.57
742.223	0.47
742.401	0.32
742.579	0.45
742.757	0.62
742.935	0.35
743.114	0.38
743.292	0.47
743.47	0.57
743.648	0.5
743.826	0.46
744.004	0.54
744.181	0.75
744.359	0.43
744.537	0.65
744.715	0.4
744.893	0.45
745.071	0.57
745.249	0.41
745.427	0.49
745.605	0.55
745.782	0.62
745.96	0.52
746.138	0.6
746.316	0.6
746.493	0.52
746.671	0.42
746.849	0.37
747.027	0.68
747.204	0.38
747.382	0.48
747.56	0.27
747.737	0.61
747.915	0.45
748.093	0.49
748.27	0.46
748.448	0.38
748.625	0.21
748.803	0.3
748.98	0.41
749.158	0.5
749.335	0.56
749.513	0.32
749.69	0.29
749.868	0.41
750.045	0.5
750.223	0.34
750.4	0.15
750.578	0.75
750.755	0.53
750.932	0.17
751.11	0.45
751.287	0.38
751.464	0.62
751.642	0.32
751.819	0.39
751.996	0.5
752.173	0.42
752.351	0.32
752.528	0.41
752.705	0.44
752.882	0.38
753.06	0.42
753.237	0.44
753.414	0.77
753.591	0.78
753.768	0.38
753.945	0.4
754.122	0.39
754.299	0.59
754.476	0.21
754.654	0.44
754.831	0.56
755.008	0.58
755.185	0.38
755.362	0.27
755.539	0.48
755.716	0.45
755.892	0.53
756.069	0.35
756.246	0.47
756.423	0.45
756.6	0.56
756.777	0.35
756.954	0.65
757.131	0.43
757.307	0.27
757.484	0.3
757.661	0.41
757.838	0.53
758.015	0.23
758.191	0.51
758.368	0.53
758.545	0.56
758.721	0.42
758.898	0.26
759.075	0.55
759.251	0.51
759.428	0.38
759.605	0.31
759.781	0.3
759.958	0.47
760.134	0.45
760.311	0.32
760.488	0.66
760.664	0.57
760.841	0.41
761.017	0.31
761.194	0.39
761.37	0.51
761.547	0.43
761.723	0.36
761.899	0.65
762.076	0.3
762.252	0.23
762.429	0.26
762.605	0.56
762.781	0.51
762.958	0.55
763.134	0.38
763.31	0.33
763.486	0.57
763.663	0.19
763.839	0.45
764.015	0.23
764.191	0.38
764.368	0.33
764.544	0.22
764.72	0.47
764.896	0.5
765.072	0.45
765.248	0.42
765.425	0.37
765.601	0.57
765.777	0.4
765.953	0.07
766.129	0.4
766.305	0.36
766.481	0.47
766.657	0.38
766.833	0.73
767.009	0.3
767.185	0.36
767.361	0.32
767.537	0.31
767.713	0.7
767.889	0.31
768.065	0.43
768.24	0.28
768.416	0.4
768.592	0.39
768.768	0.4
768.944	0.46
769.12	0.3
769.295	0.34
769.471	0.42
769.647	0.32
769.823	0.61
769.998	0.31
770.174	0.28
770.35	0.84
770.525	0.69
770.701	0.41
770.877	0.3
771.052	0.26
771.228	0.64
771.403	0.42
771.579	0.45
771.755	0.89
771.93	0.28
772.106	0.34
772.281	0.01
772.457	0.48
772.632	0.47
772.808	0.14
772.983	0.25
773.159	0.33
773.334	0.73
773.509	0.52
773.685	0.25
773.86	0.85
774.036	0.74
774.211	0.38
774.386	0.35
774.562	0.38
774.737	0.57
774.912	0.13
775.087	0.42
775.263	0.39
775.438	0.41
775.613	0.34
775.788	0.24
775.964	0.59
776.139	1.05
776.314	0.22
776.489	0.42
776.664	0.46
776.839	0.34
777.014	0.61
777.19	0.55
777.365	0.66
777.54	0.63
777.715	0.35
777.89	0.44
778.065	0.27
778.24	0.42
778.415	0.47
778.59	0.29
778.765	0.56
778.94	0.49
779.115	0.47
779.289	0.42
779.464	0.46
779.639	0.21
779.814	0.19
779.989	0.27
780.164	0.61
780.339	0.62
780.513	0.2
780.688	0.15
780.863	0.39
781.038	0.75
781.212	0.18
781.387	0.36
781.562	0.88
781.737	0.34
781.911	0.74
782.086	0.37
782.261	0.61
782.435	0.77
782.61	0.35
782.784	0.45
782.959	0.59
783.134	0.41
783.308	0.31
783.483	0.36
783.657	1.09
783.832	0.79
784.006	0.25
784.181	0.46
784.355	0.56
784.53	0.4
784.704	0.36
784.878	0.71
785.053	0.69
785.227	0.89
785.402	0.84
785.576	0.19
785.75	0.53
785.925	0.48
786.099	0.54
786.273	0.73
786.448	0.77
786.622	0.62
786.796	0.45
786.97	0.45
787.145	1.32
787.319	0.16
787.493	0.34
787.667	0.1
787.841	0.31
788.015	0.81
788.19	0.17
788.364	0.35
788.538	0.77
788.712	0.82
788.886	0.4
789.06	0.56
789.234	0.77
789.408	0.22
789.582	0.23
789.756	0.44
789.93	0.36
790.104	0.42
790.278	0.52
790.452	0.31
790.626	0.58
790.8	0.49
790.973	0.62
791.147	0.95
791.321	0.96
791.495	1.11
791.669	0.58
791.843	0.48
792.016	0.62
792.19	1.02
792.364	0.26
792.538	1.2
792.711	0.75
792.885	0.45
793.059	0.24
793.233	-0.12
793.406	0.63
793.58	0.54
793.754	0.68
793.927	0.35
794.101	0.82
794.274	0.65
794.448	0.59
794.622	0.26
794.795	1.03
794.969	0.37
795.142	0.85
795.316	0.32
795.489	0.37
795.663	0.88
795.836	0.5
796.009	0.07
796.183	1.07
796.356	0.36
796.53	0.89
796.703	0.6
796.876	1.36
797.05	0.61
797.223	0.46
797.396	0.54
797.57	0.38
797.743	1.08
797.916	0.58
798.09	0.39
798.263	0.94
798.436	0.73
798.609	0.46
798.782	0.38
798.956	0.82
799.129	0.76
799.302	0.32
799.475	0.3
799.648	0.57
799.821	0.25
799.994	0.44
800.167	-0.14
800.34	0.54
800.514	0.54
800.687	0.54
800.86	0.44
801.033	0.68
801.206	0.7
801.379	0.23
801.551	0.99
801.724	0.99
801.897	1.18
802.07	0.7
802.243	-0.1
802.416	0.78
802.589	0.62
802.762	0.8
802.935	0.8
803.107	0.92
803.28	1.04
803.453	1.1
803.626	0.53
803.798	0.81
803.971	0.64
804.144	0.76
804.317	0.46
804.489	1.09
804.662	0.74
804.835	0.56
805.007	0.65
805.18	1.15
805.353	0.81
805.525	0.01
805.698	0.51
805.87	1.06
806.043	1.12
806.215	0.17
806.388	0.16
806.56	0.74
806.733	0.97
806.905	0.69
807.078	0.45
807.25	0.37
807.423	0.62
807.595	0.86
807.768	0.34
807.94	0.81
808.112	1.05
808.285	0.79
808.457	0.51
808.629	0.86
808.802	0.69
808.974	0.78
809.146	0.33
809.318	0.2
809.491	0.75
809.663	0.86
809.835	0.74
810.007	1.01
810.18	0.66
810.352	0.25
810.524	0.45
810.696	0.98
810.868	1.31
811.04	0.53
811.212	0.67
811.384	1.36
811.556	1
811.728	0.51
811.901	1.56
812.073	0.7
812.245	1.01
812.417	0.53
812.589	-0.13
812.76	0.96
812.932	0.9
813.104	1.01
813.276	0.41
813.448	1.17
813.62	0.54
813.792	0.9
813.964	0.95
814.136	1.02
814.307	0.57
814.479	0.25
814.651	0.41
814.823	1.74
814.995	0.53
815.166	0.96
815.338	0.22
815.51	0.07
815.681	1.87
815.853	0.96
816.025	0.8
816.196	1.8
816.368	1.52
816.54	0.32
816.711	0.21
816.883	1.61
817.054	1.95
817.226	0.31
817.398	1.26
817.569	0.71
817.741	1.36
817.912	0.49
818.084	0.58
818.255	1.17
818.426	0.49
818.598	1.23
818.769	-0.04
818.941	1.01
819.112	1.59
819.283	0.75
819.455	0.56
819.626	0.65
819.798	1.12
819.969	0.73
820.14	0.86
820.311	1
820.483	0.93
820.654	1.26
820.825	1.18
820.996	0.46
821.168	0.19
821.339	0.94
821.51	-0.05
821.681	0.65
821.852	0.94
822.023	0.25
822.195	-0.15
822.366	1.95
822.537	0.97
822.708	1.12
822.879	0.41
823.05	1.68
823.221	1
823.392	1.4
823.563	1.22
823.734	1
823.905	0.72
824.076	0.53
824.247	-0.02
824.418	0.68
824.589	1.28
824.759	0.88
824.93	0.51
825.101	-0.01
825.272	2.27
825.443	1.71
825.614	1.48
825.784	0.26
825.955	1.95
826.126	1.68
826.297	1.13
826.467	1.54
826.638	1.87
826.809	-0.03
826.98	0.79
827.15	1.09
827.321	1.33
827.492	1.35
827.662	1.28
827.833	2.56
828.003	1.95
828.174	0.67
828.345	-0.08
828.515	1.96
828.686	0.91
828.856	1.2
829.027	0.81
829.197	1.94
829.368	1.42
829.538	0.51
829.709	0.93
829.879	1.28
830.049	1.32
830.22	1.18
830.39	0.91
830.56	1.93
830.731	1.61
830.901	0.53
831.072	0.67
831.242	1.45
831.412	1.46
831.582	0.57
831.753	0.37
831.923	1.39
832.093	1.37
832.263	0.81
832.434	0.15
832.604	0.69
832.774	1.17
832.944	0.78
833.114	0.93
833.284	1.91
833.454	0.41
833.624	0.67
833.795	0.62
833.965	1.77
834.135	2.87
834.305	-0.99
834.475	0.14
834.645	1.51
834.815	0.85
834.985	0.92
835.155	-0.01
835.325	2.01
835.494	2.04
835.664	0.66
835.834	0.71
836.004	1.12
836.174	1.53
836.344	1.25
836.514	0.27
836.684	0.66
836.853	1.28
837.023	1.11
837.193	0.47
837.363	1.9
837.532	2.05
837.702	1.29
837.872	0.54
838.041	1.67
838.211	3.42
838.381	-0.03
838.55	1.38
838.72	4.08
838.89	2.57
839.059	1.24
839.229	0.43
839.398	4.24
839.568	1.55
839.738	0.46
839.907	2.87
840.077	1.23
840.246	0.6
840.416	0.22
840.585	0.14
840.755	2.47
840.924	2.67
841.093	-0.16
841.263	1.36
841.432	1.53
841.602	0.82
841.771	0.56
841.94	1.99
842.11	4.4
842.279	3.18
842.448	0.59
842.617	0.02
842.787	2.68
842.956	0.49
843.125	1.36
843.294	0.58
843.464	3.25
843.633	1.9
843.802	0.2
843.971	0.84
844.14	2.59
844.309	3.06
844.479	-0.25
844.648	0.15
844.817	1.37
844.986	1.52
845.155	0.8
845.324	0.94
845.493	1.29
845.662	0.61
845.831	1.79
846	2.28
846.169	1.27
846.338	2.88
846.507	1.77
846.676	0.73
846.844	1
847.013	1.9
847.182	1.37
847.351	0.99
847.52	1.83
847.689	1.41
847.858	1.69
848.026	0.46
848.195	2.09
848.364	0.32
848.533	-0.24
848.701	0.94
848.87	2.9
849.039	2.26
849.207	1.7
849.376	2.97
849.545	2.79
849.713	0.81
849.882	0.51
850.051	0.89
850.219	2.34
850.388	2.56
850.556	0.31
850.725	1.05
850.893	1.72
851.062	1.26
851.23	2.69
851.399	0.18
851.567	1.89
851.736	2.13
851.904	0.77
852.073	2.38
852.241	3.2
852.41	2.19
852.578	1.16
852.746	1.16
852.915	2.71
853.083	1.64
853.251	-0.44
853.42	1.92
853.588	2.05
853.756	3.91
853.924	0.7
854.093	1.48
854.261	2.23
854.429	0.16
854.597	1.73
854.765	0.1
854.934	2.74
855.102	2.79
855.27	1.57
855.438	2.77
855.606	2.83
855.774	4.28
855.942	0.47
856.11	-0.11
856.278	3.12
856.446	1.63
856.614	1.16
856.782	0.67
856.95	2.48
857.118	3.2
857.286	3.35
857.454	0.95
857.622	3.2
857.79	2.81
857.958	-0.17
858.126	0.61
858.294	-0.54
858.462	2.22
858.629	0.5
858.797	0.71
858.965	1.66
859.133	1.97
859.301	1.67
859.468	2.62
859.636	1.91
859.804	5.1
859.971	0.6
860.139	0.33
860.307	2.6
860.474	2.81
860.642	-0.33
860.81	0.86
860.977	1.43
861.145	4.44
861.313	1.53
861.48	-0.01
861.648	3.79
861.815	2.55
861.983	-0.64
862.15	1.3
862.318	3.81
862.485	5.17
862.653	0.51
862.82	-1.04
862.988	3.49
863.155	3.08
863.322	0.44
863.49	1.03
863.657	1.42
863.824	5.28
863.992	3.27
864.159	2.64
864.326	4.7
864.494	1.36
864.661	4.93
864.828	1.92
864.996	3.74
865.163	4.19
865.33	1.56
865.497	-1.3
865.664	0.53
865.832	-1.98
865.999	1.86
866.166	0.65
866.333	1.92
866.5	2.52
866.667	1.66
866.834	1.93
867.001	4.2
867.168	-0.67
867.335	2.73
867.502	1.11
867.669	2.5
867.836	6.48
868.003	0.47
868.17	3.81
868.337	5.65
868.504	7.13
868.671	-0.64
868.838	1.71
869.005	4.29
869.172	1.93
869.339	3.07
869.505	2.98
869.672	4.11
869.839	4.48
870.006	1.76
870.173	0.2
870.339	2.7
870.506	6.5
870.673	1.89
870.84	3.28
871.006	2.71
871.173	1.67
871.34	1.63
871.506	-0.34
871.673	3.88
871.839	0.96
872.006	2.44
872.173	1.38
872.339	4.19
872.506	4.44
872.672	1.46
872.839	1.56
873.005	3.43
873.172	3.78
873.338	4.37
873.505	2.93
873.671	4.26
873.838	4.89
874.004	-0.78
874.171	0.65
874.337	4.13
874.503	3.87
874.67	2.56
874.836	0.84
875.002	4.63
875.169	4.34
875.335	1.74
875.501	3.03
875.668	4.26
875.834	1.15
876	1.65
876.166	4.02
876.332	3.73
876.499	5.88
876.665	1.88
876.831	2.72
876.997	6.29
877.163	5.31
877.329	0.95
877.495	3.2
877.662	2.84
877.828	1.85
877.994	2.32
878.16	-1.72
878.326	2.49
878.492	3.89
878.658	1.5
878.824	4.47
878.99	5.41
879.156	1.99
879.322	5.23
879.487	1.14
879.653	3.81
879.819	4.49
879.985	0.95
880.151	2.29
880.317	4.47
880.483	4.35
880.648	6.16
880.814	0.58
880.98	3.54
881.146	-2.08
881.312	0.75
881.477	-0.28
881.643	3.78
881.809	4.44
881.974	3.68
882.14	-0.49
882.306	3.16
882.471	7.12
882.637	1.97
882.803	3.11
882.968	7.83
883.134	7.89
883.299	2.04
883.465	2.71
883.63	5.18
883.796	3.3
883.961	3.65
884.127	3.53
884.292	-2.1
884.458	-0.44
884.623	-0.44
