Data from Apollo_Calib_20240827__AbsoluteIrradiance__841__13-10-02-846.txt Node

Date: Wed Aug 28 13:10:02 BST 2024
User: biology
Spectrometer: FLMT08252
Trigger mode: 0
Integration Time (sec): 5.000000E-1
Scans to average: 5
Electric dark correction enabled: true
Nonlinearity correction enabled: false
Boxcar width: 0
XAxis mode: Wavelengths
Number of Pixels in Spectrum: 3648
>>>>>Begin Spectral Data<<<<<
179.588	-0
179.809	-0
180.03	-0
180.251	-0
180.473	-0
180.694	0
180.915	0
181.136	-0
181.357	0
181.578	-0
181.799	0
182.02	-0
182.241	-0
182.462	-0
182.683	0
182.904	-0
183.125	-0
183.346	0
183.567	0
183.788	0
184.009	0
184.23	0
184.451	0
184.672	0
184.892	0
185.113	0
185.334	0
185.555	0
185.776	0
185.996	0
186.217	0
186.438	0
186.659	0
186.879	0
187.1	0
187.321	0
187.541	0
187.762	0
187.983	0
188.203	0
188.424	0
188.644	0
188.865	0
189.086	0
189.306	0
189.527	0
189.747	0
189.968	0
190.188	0
190.409	0
190.629	0
190.849	0
191.07	0
191.29	0
191.511	0
191.731	0
191.951	0
192.172	0
192.392	0
192.612	0
192.833	0
193.053	0
193.273	0
193.493	0
193.714	0
193.934	0
194.154	0
194.374	0
194.594	0
194.815	0
195.035	0
195.255	0
195.475	0
195.695	0
195.915	0
196.135	0
196.355	0
196.575	0
196.795	0
197.015	0
197.235	0
197.455	0
197.675	0
197.895	0
198.115	0
198.335	0
198.555	0
198.775	0
198.995	0
199.214	0
199.434	0
199.654	0
199.874	0
200.094	4.69
200.313	2.15
200.533	2.16
200.753	1.41
200.973	3.78
201.192	3.52
201.412	1.53
201.632	1.56
201.851	3.33
202.071	1.92
202.291	2
202.51	1.75
202.73	3.38
202.95	1.72
203.169	1.37
203.389	1.88
203.608	2.21
203.828	1.92
204.047	1.46
204.267	2.22
204.486	2.49
204.706	2.38
204.925	2.03
205.145	1.41
205.364	2.75
205.583	2.65
205.803	1.4
206.022	1.04
206.242	2.04
206.461	1.84
206.68	1.33
206.9	1.65
207.119	2.82
207.338	2.21
207.557	1.24
207.777	1.41
207.996	1.71
208.215	2.36
208.434	0.99
208.654	0.81
208.873	1.57
209.092	1.94
209.311	1.18
209.53	1.08
209.749	1.38
209.968	1.31
210.187	1.08
210.407	0.73
210.626	1.36
210.845	1.56
211.064	1.05
211.283	0.75
211.502	1.61
211.721	1.29
211.94	1
212.159	1.59
212.377	1.56
212.596	1.57
212.815	1.34
213.034	1.35
213.253	1.33
213.472	1.32
213.691	0.78
213.91	0.76
214.128	0.63
214.347	1.45
214.566	0.72
214.785	0.56
215.003	1.27
215.222	1.09
215.441	0.76
215.66	0.56
215.878	0.85
216.097	1.25
216.316	0.68
216.534	0.66
216.753	1.1
216.972	0.86
217.19	0.86
217.409	0.62
217.627	0.83
217.846	0.69
218.064	1
218.283	0.64
218.501	1.5
218.72	1.29
218.938	0.7
219.157	0.64
219.375	1.17
219.594	1.02
219.812	0.49
220.031	0.57
220.249	1.33
220.467	1.3
220.686	0.73
220.904	0.51
221.122	0.77
221.341	1.39
221.559	0.69
221.777	0.51
221.995	0.84
222.214	1.07
222.432	0.6
222.65	1.12
222.868	0.92
223.086	0.82
223.305	0.98
223.523	0.6
223.741	1.27
223.959	0.61
224.177	0.21
224.395	0.53
224.613	0.86
224.831	1
225.049	0.56
225.267	0.73
225.485	0.88
225.703	0.6
225.921	0.5
226.139	0.52
226.357	0.81
226.575	0.79
226.793	0.59
227.011	1.59
227.229	0.88
227.447	0.94
227.665	0.51
227.883	0.54
228.1	0.59
228.318	0.81
228.536	0.38
228.754	0.5
228.972	0.8
229.189	0.86
229.407	0.5
229.625	0.6
229.843	0.86
230.06	0.82
230.278	0.64
230.496	0.52
230.713	0.62
230.931	0.97
231.149	0.53
231.366	0.37
231.584	0.72
231.801	1.12
232.019	0.49
232.236	0.38
232.454	0.52
232.671	0.73
232.889	0.45
233.106	0.47
233.324	0.52
233.541	0.41
233.759	0.5
233.976	0.42
234.194	0.48
234.411	0.63
234.628	0.51
234.846	0.44
235.063	0.52
235.28	0.7
235.498	0.55
235.715	0.35
235.932	0.82
236.149	0.6
236.367	0.43
236.584	0.58
236.801	0.53
237.018	0.62
237.236	0.54
237.453	0.36
237.67	0.78
237.887	0.5
238.104	0.48
238.321	0.33
238.538	0.31
238.755	0.79
238.973	0.28
239.19	0.47
239.407	0.53
239.624	0.61
239.841	0.35
240.058	0.42
240.275	0.59
240.492	0.61
240.709	0.48
240.925	0.41
241.142	0.54
241.359	0.42
241.576	0.39
241.793	0.33
242.01	0.49
242.227	0.71
242.444	0.52
242.66	0.65
242.877	0.53
243.094	0.53
243.311	0.43
243.527	0.41
243.744	0.59
243.961	0.6
244.178	0.34
244.394	0.41
244.611	0.61
244.828	0.74
245.044	0.32
245.261	0.45
245.477	0.54
245.694	0.54
245.911	0.35
246.127	0.5
246.344	0.73
246.56	0.53
246.777	0.44
246.993	0.39
247.21	0.44
247.426	0.65
247.643	0.33
247.859	0.36
248.076	0.39
248.292	0.72
248.508	0.39
248.725	0.48
248.941	0.58
249.157	0.59
249.374	0.3
249.59	0.4
249.806	0.42
250.023	0.51
250.239	0.32
250.455	0.26
250.671	0.4
250.888	0.51
251.104	0.51
251.32	0.34
251.536	0.45
251.752	0.45
251.969	0.46
252.185	0.41
252.401	0.72
252.617	0.51
252.833	0.39
253.049	0.37
253.265	0.4
253.481	0.45
253.697	0.33
253.913	0.4
254.129	0.47
254.345	0.48
254.561	0.29
254.777	0.3
254.993	0.49
255.209	0.47
255.425	0.41
255.641	0.32
255.857	0.47
256.073	0.5
256.288	0.26
256.504	0.32
256.72	0.51
256.936	0.56
257.152	0.36
257.367	0.34
257.583	0.44
257.799	0.57
258.015	0.31
258.23	0.33
258.446	0.57
258.662	0.36
258.877	0.29
259.093	0.24
259.309	0.38
259.524	0.44
259.74	0.34
259.955	0.22
260.171	0.42
260.387	0.43
260.602	0.47
260.818	0.35
261.033	0.21
261.249	0.42
261.464	0.29
261.68	0.27
261.895	0.53
262.11	0.43
262.326	0.3
262.541	0.23
262.757	0.49
262.972	0.43
263.187	0.44
263.403	0.45
263.618	0.39
263.833	0.41
264.049	0.29
264.264	0.28
264.479	0.39
264.694	0.51
264.91	0.3
265.125	0.38
265.34	0.46
265.555	0.56
265.77	0.39
265.986	0.31
266.201	0.43
266.416	0.47
266.631	0.31
266.846	0.33
267.061	0.48
267.276	0.48
267.491	0.25
267.706	0.42
267.921	0.42
268.136	0.43
268.351	0.35
268.566	0.24
268.781	0.55
268.996	0.46
269.211	0.3
269.426	0.32
269.641	0.39
269.856	0.43
270.071	0.32
270.285	0.29
270.5	0.48
270.715	0.41
270.93	0.33
271.145	0.32
271.359	0.5
271.574	0.29
271.789	0.3
272.004	0.22
272.218	0.33
272.433	0.4
272.648	0.33
272.862	0.39
273.077	0.37
273.292	0.4
273.506	0.24
273.721	0.28
273.936	0.39
274.15	0.43
274.365	0.25
274.579	0.42
274.794	0.45
275.008	0.46
275.223	0.27
275.437	0.3
275.652	0.42
275.866	0.36
276.081	0.34
276.295	0.39
276.509	0.37
276.724	0.33
276.938	0.36
277.153	0.37
277.367	0.4
277.581	0.3
277.796	0.24
278.01	0.23
278.224	0.4
278.438	0.49
278.653	0.19
278.867	0.27
279.081	0.18
279.295	0.3
279.51	0.33
279.724	0.23
279.938	0.35
280.152	0.41
280.366	0.34
280.58	0.34
280.794	0.43
281.008	0.39
281.222	0.34
281.437	0.48
281.651	0.39
281.865	0.43
282.079	0.31
282.293	0.17
282.507	0.28
282.721	0.35
282.935	0.3
283.148	0.21
283.362	0.29
283.576	0.25
283.79	0.33
284.004	0.25
284.218	0.41
284.432	0.34
284.646	0.32
284.859	0.24
285.073	0.31
285.287	0.33
285.501	0.33
285.714	0.27
285.928	0.29
286.142	0.35
286.356	0.26
286.569	0.31
286.783	0.37
286.997	0.4
287.21	0.3
287.424	0.33
287.637	0.26
287.851	0.24
288.065	0.39
288.278	0.32
288.492	0.34
288.705	0.32
288.919	0.35
289.132	0.19
289.346	0.39
289.559	0.21
289.773	0.24
289.986	0.25
290.2	0.32
290.413	0.38
290.626	0.24
290.84	0.22
291.053	0.31
291.267	0.38
291.48	0.25
291.693	0.25
291.906	0.25
292.12	0.28
292.333	0.22
292.546	0.25
292.76	0.44
292.973	0.32
293.186	0.36
293.399	0.24
293.612	0.37
293.826	0.32
294.039	0.25
294.252	0.23
294.465	0.37
294.678	0.31
294.891	0.31
295.104	0.23
295.317	0.29
295.53	0.3
295.743	0.3
295.956	0.2
296.169	0.39
296.382	0.31
296.595	0.27
296.808	0.24
297.021	0.28
297.234	0.34
297.447	0.29
297.66	0.26
297.873	0.37
298.086	0.32
298.299	0.25
298.511	0.18
298.724	0.26
298.937	0.27
299.15	0.2
299.363	0.23
299.575	0.36
299.788	0.28
300.001	0.21
300.213	0.2
300.426	0.3
300.639	0.26
300.852	0.23
301.064	0.29
301.277	0.38
301.489	0.35
301.702	0.29
301.915	0.21
302.127	0.25
302.34	0.32
302.552	0.28
302.765	0.23
302.977	0.34
303.19	0.27
303.402	0.26
303.615	0.22
303.827	0.29
304.04	0.25
304.252	0.28
304.464	0.24
304.677	0.46
304.889	0.27
305.102	0.21
305.314	0.23
305.526	0.32
305.739	0.31
305.951	0.23
306.163	0.27
306.375	0.36
306.588	0.24
306.8	0.2
307.012	0.18
307.224	0.35
307.436	0.38
307.649	0.18
307.861	0.31
308.073	0.29
308.285	0.28
308.497	0.23
308.709	0.27
308.921	0.24
309.133	0.36
309.346	0.27
309.558	0.25
309.77	0.32
309.982	0.36
310.194	0.3
310.406	0.22
310.617	0.39
310.829	0.29
311.041	0.34
311.253	0.2
311.465	0.28
311.677	0.28
311.889	0.27
312.101	0.22
312.313	0.34
312.524	0.37
312.736	0.23
312.948	0.23
313.16	0.35
313.372	0.36
313.583	0.29
313.795	0.2
314.007	0.26
314.218	0.26
314.43	0.25
314.642	0.25
314.853	0.19
315.065	0.35
315.277	0.22
315.488	0.26
315.7	0.35
315.912	0.34
316.123	0.24
316.335	0.22
316.546	0.38
316.758	0.29
316.969	0.27
317.181	0.26
317.392	0.27
317.604	0.3
317.815	0.23
318.026	0.24
318.238	0.21
318.449	0.27
318.661	0.14
318.872	0.17
319.083	0.25
319.295	0.29
319.506	0.25
319.717	0.27
319.929	0.32
320.14	0.29
320.351	0.28
320.562	0.19
320.774	0.31
320.985	0.27
321.196	0.26
321.407	0.17
321.618	0.32
321.829	0.28
322.041	0.27
322.252	0.27
322.463	0.32
322.674	0.31
322.885	0.2
323.096	0.24
323.307	0.27
323.518	0.28
323.729	0.24
323.94	0.24
324.151	0.2
324.362	0.28
324.573	0.32
324.784	0.29
324.995	0.33
325.206	0.25
325.417	0.26
325.628	0.23
325.838	0.29
326.049	0.29
326.26	0.31
326.471	0.22
326.682	0.35
326.892	0.31
327.103	0.19
327.314	0.22
327.525	0.35
327.735	0.33
327.946	0.24
328.157	0.19
328.368	0.33
328.578	0.25
328.789	0.34
328.999	0.27
329.21	0.26
329.421	0.36
329.631	0.21
329.842	0.2
330.052	0.28
330.263	0.3
330.473	0.28
330.684	0.25
330.894	0.3
331.105	0.25
331.315	0.27
331.526	0.19
331.736	0.38
331.947	0.29
332.157	0.3
332.367	0.2
332.578	0.32
332.788	0.34
332.999	0.33
333.209	0.25
333.419	0.21
333.629	0.28
333.84	0.29
334.05	0.22
334.26	0.39
334.47	0.27
334.681	0.32
334.891	0.23
335.101	0.31
335.311	0.37
335.521	0.26
335.732	0.24
335.942	0.37
336.152	0.27
336.362	0.28
336.572	0.27
336.782	0.31
336.992	0.23
337.202	0.24
337.412	0.22
337.622	0.28
337.832	0.25
338.042	0.26
338.252	0.22
338.462	0.26
338.672	0.3
338.882	0.26
339.092	0.23
339.302	0.37
339.511	0.32
339.721	0.26
339.931	0.21
340.141	0.32
340.351	0.35
340.561	0.29
340.77	0.27
340.98	0.25
341.19	0.29
341.4	0.27
341.609	0.21
341.819	0.24
342.029	0.21
342.238	0.25
342.448	0.22
342.658	0.33
342.867	0.27
343.077	0.26
343.286	0.24
343.496	0.32
343.706	0.35
343.915	0.2
344.125	0.24
344.334	0.31
344.544	0.22
344.753	0.23
344.963	0.24
345.172	0.27
345.381	0.22
345.591	0.18
345.8	0.23
346.01	0.36
346.219	0.33
346.428	0.12
346.638	0.29
346.847	0.27
347.056	0.35
347.266	0.18
347.475	0.26
347.684	0.32
347.893	0.29
348.103	0.26
348.312	0.23
348.521	0.25
348.73	0.28
348.94	0.3
349.149	0.24
349.358	0.2
349.567	0.22
349.776	0.21
349.985	0.21
350.194	0.33
350.403	0.31
350.612	0.16
350.821	0.19
351.03	0.25
351.239	0.17
351.448	0.28
351.657	0.21
351.866	0.37
352.075	0.23
352.284	0.28
352.493	0.23
352.702	0.31
352.911	0.28
353.12	0.31
353.329	0.26
353.538	0.33
353.746	0.27
353.955	0.2
354.164	0.29
354.373	0.23
354.582	0.32
354.79	0.27
354.999	0.32
355.208	0.27
355.416	0.37
355.625	0.2
355.834	0.25
356.042	0.32
356.251	0.23
356.46	0.25
356.668	0.24
356.877	0.33
357.085	0.33
357.294	0.17
357.503	0.29
357.711	0.26
357.92	0.4
358.128	0.25
358.337	0.21
358.545	0.25
358.754	0.23
358.962	0.29
359.17	0.23
359.379	0.3
359.587	0.26
359.796	0.28
360.004	0.31
360.212	0.27
360.421	0.32
360.629	0.24
360.837	0.22
361.046	0.32
361.254	0.42
361.462	0.26
361.67	0.24
361.879	0.24
362.087	0.35
362.295	0.27
362.503	0.26
362.711	0.2
362.92	0.21
363.128	0.24
363.336	0.21
363.544	0.23
363.752	0.22
363.96	0.26
364.168	0.25
364.376	0.27
364.584	0.3
364.792	0.3
365	0.29
365.208	0.27
365.416	0.32
365.624	0.34
365.832	0.19
366.04	0.33
366.248	0.29
366.456	0.26
366.664	0.26
366.872	0.23
367.079	0.24
367.287	0.27
367.495	0.22
367.703	0.26
367.911	0.28
368.118	0.27
368.326	0.24
368.534	0.2
368.742	0.32
368.949	0.21
369.157	0.23
369.365	0.29
369.572	0.26
369.78	0.18
369.988	0.3
370.195	0.28
370.403	0.27
370.61	0.2
370.818	0.24
371.026	0.4
371.233	0.29
371.441	0.3
371.648	0.25
371.856	0.28
372.063	0.28
372.271	0.21
372.478	0.2
372.685	0.23
372.893	0.32
373.1	0.26
373.308	0.21
373.515	0.39
373.722	0.34
373.93	0.27
374.137	0.31
374.344	0.3
374.552	0.34
374.759	0.27
374.966	0.24
375.173	0.21
375.381	0.35
375.588	0.25
375.795	0.18
376.002	0.28
376.209	0.24
376.417	0.23
376.624	0.3
376.831	0.32
377.038	0.27
377.245	0.22
377.452	0.26
377.659	0.32
377.866	0.2
378.073	0.26
378.28	0.26
378.487	0.35
378.694	0.34
378.901	0.27
379.108	0.24
379.315	0.35
379.522	0.35
379.729	0.28
379.936	0.27
380.143	0.28
380.35	0.31
380.557	0.29
380.763	0.25
380.97	0.31
381.177	0.28
381.384	0.28
381.591	0.26
381.797	0.3
382.004	0.34
382.211	0.33
382.418	0.22
382.624	0.31
382.831	0.42
383.038	0.28
383.244	0.3
383.451	0.33
383.658	0.32
383.864	0.26
384.071	0.21
384.277	0.36
384.484	0.26
384.69	0.31
384.897	0.27
385.103	0.26
385.31	0.24
385.516	0.25
385.723	0.29
385.929	0.27
386.136	0.25
386.342	0.31
386.549	0.25
386.755	0.39
386.961	0.34
387.168	0.28
387.374	0.27
387.58	0.35
387.787	0.28
387.993	0.3
388.199	0.27
388.406	0.27
388.612	0.32
388.818	0.28
389.024	0.23
389.231	0.31
389.437	0.42
389.643	0.34
389.849	0.3
390.055	0.3
390.261	0.3
390.467	0.32
390.674	0.23
390.88	0.32
391.086	0.35
391.292	0.27
391.498	0.31
391.704	0.32
391.91	0.33
392.116	0.31
392.322	0.21
392.528	0.33
392.734	0.32
392.94	0.34
393.146	0.32
393.352	0.35
393.557	0.33
393.763	0.28
393.969	0.39
394.175	0.34
394.381	0.3
394.587	0.27
394.792	0.26
394.998	0.37
395.204	0.37
395.41	0.24
395.615	0.31
395.821	0.35
396.027	0.4
396.233	0.27
396.438	0.34
396.644	0.42
396.85	0.37
397.055	0.33
397.261	0.34
397.466	0.34
397.672	0.39
397.878	0.39
398.083	0.39
398.289	0.28
398.494	0.47
398.7	0.36
398.905	0.24
399.111	0.46
399.316	0.27
399.522	0.32
399.727	0.32
399.932	0.37
400.138	0.31
400.343	0.41
400.549	0.35
400.754	0.35
400.959	0.42
401.165	0.38
401.37	0.34
401.575	0.35
401.78	0.39
401.986	0.32
402.191	0.35
402.396	0.41
402.601	0.46
402.807	0.45
403.012	0.42
403.217	0.54
403.422	0.44
403.627	0.42
403.832	0.39
404.037	0.48
404.243	0.5
404.448	0.42
404.653	0.43
404.858	0.47
405.063	0.42
405.268	0.39
405.473	0.37
405.678	0.44
405.883	0.67
406.088	0.55
406.293	0.43
406.498	0.47
406.703	0.57
406.907	0.47
407.112	0.46
407.317	0.52
407.522	0.62
407.727	0.46
407.932	0.55
408.136	0.66
408.341	0.57
408.546	0.54
408.751	0.59
408.956	0.6
409.16	0.69
409.365	0.67
409.57	0.66
409.774	0.63
409.979	0.7
410.184	0.71
410.388	0.64
410.593	0.76
410.798	0.79
411.002	0.73
411.207	0.8
411.411	0.82
411.616	0.75
411.82	0.86
412.025	0.89
412.229	0.87
412.434	1.01
412.638	0.98
412.843	0.99
413.047	0.97
413.252	0.99
413.456	1.04
413.66	1.09
413.865	1.07
414.069	1.25
414.273	1.09
414.478	1.15
414.682	1.16
414.886	1.28
415.091	1.23
415.295	1.29
415.499	1.46
415.703	1.4
415.908	1.55
416.112	1.37
416.316	1.67
416.52	1.6
416.724	1.58
416.929	1.69
417.133	1.94
417.337	1.75
417.541	1.86
417.745	1.88
417.949	1.96
418.153	2.12
418.357	2.1
418.561	2.31
418.765	2.26
418.969	2.42
419.173	2.49
419.377	2.5
419.581	2.72
419.785	2.76
419.989	2.7
420.193	2.92
420.397	2.94
420.601	3.1
420.804	3.21
421.008	3.18
421.212	3.37
421.416	3.36
421.62	3.35
421.823	3.39
422.027	3.63
422.231	3.61
422.435	3.54
422.638	3.7
422.842	3.75
423.046	3.83
423.249	3.96
423.453	4.07
423.657	4.27
423.86	4.31
424.064	4.43
424.268	4.64
424.471	4.63
424.675	4.88
424.878	4.82
425.082	5.01
425.285	5.38
425.489	5.27
425.692	5.42
425.896	5.4
426.099	5.66
426.303	5.82
426.506	5.87
426.71	6.14
426.913	6.34
427.116	6.51
427.32	6.5
427.523	6.53
427.726	6.9
427.93	6.99
428.133	7.27
428.336	7.48
428.54	7.5
428.743	7.91
428.946	8.06
429.149	8
429.353	8.09
429.556	8.19
429.759	8.2
429.962	8.3
430.165	8.53
430.368	8.12
430.571	8.19
430.775	8.35
430.978	8.19
431.181	8.32
431.384	8.32
431.587	8.44
431.79	8.84
431.993	8.81
432.196	9.14
432.399	9.38
432.602	9.64
432.805	9.8
433.008	10.21
433.211	10.12
433.414	10.42
433.616	10.5
433.819	10.45
434.022	10.6
434.225	10.73
434.428	10.69
434.631	11.2
434.833	10.94
435.036	11.23
435.239	11.48
435.442	11.54
435.645	11.78
435.847	11.73
436.05	11.97
436.253	12.18
436.455	12.35
436.658	12.13
436.861	12.46
437.063	12.55
437.266	12.56
437.468	12.89
437.671	13.19
437.874	13.25
438.076	13.2
438.279	13.49
438.481	13.68
438.684	14.41
438.886	13.99
439.089	14.23
439.291	14.34
439.494	14.74
439.696	14.9
439.899	15.49
440.101	15.82
440.303	16.07
440.506	16.73
440.708	16.46
440.91	16.79
441.113	16.87
441.315	17.08
441.517	16.95
441.72	17.5
441.922	17.01
442.124	16.93
442.326	17.23
442.529	17.59
442.731	17.67
442.933	17.85
443.135	17.48
443.337	17.55
443.539	18.15
443.742	17.73
443.944	18.5
444.146	18.21
444.348	18.18
444.55	18.07
444.752	18.23
444.954	18.23
445.156	18.11
445.358	18.55
445.56	18.75
445.762	18.51
445.964	18.9
446.166	18.75
446.368	18.64
446.57	18.9
446.772	18.28
446.974	18
447.175	18.29
447.377	18.08
447.579	18.27
447.781	17.98
447.983	17.81
448.184	17.33
448.386	17.79
448.588	17.29
448.79	17.17
448.991	17.42
449.193	17.57
449.395	16.85
449.597	16.45
449.798	16.26
450	15.86
450.202	15.84
450.403	15.86
450.605	15.73
450.806	15.35
451.008	15.09
451.21	14.85
451.411	14.52
451.613	13.78
451.814	14.03
452.016	13.94
452.217	13.15
452.419	13.25
452.62	12.87
452.821	12.51
453.023	12.52
453.224	12.19
453.426	11.69
453.627	11.04
453.828	11.12
454.03	11.16
454.231	11.19
454.432	10.86
454.634	10.72
454.835	10.39
455.036	10.32
455.238	9.94
455.439	9.67
455.64	9.31
455.841	9.27
456.042	9.41
456.244	9.1
456.445	8.83
456.646	8.52
456.847	8.45
457.048	8.35
457.249	8.46
457.45	8.25
457.651	7.59
457.852	7.55
458.054	7.12
458.255	7.18
458.456	7.22
458.657	7.16
458.858	6.63
459.058	6.65
459.259	6.68
459.46	6.39
459.661	6.39
459.862	6.5
460.063	6.28
460.264	6.17
460.465	5.99
460.666	5.96
460.866	5.84
461.067	5.48
461.268	5.45
461.469	5.41
461.67	5.38
461.87	5.15
462.071	5.21
462.272	5.11
462.473	5.11
462.673	5.2
462.874	5.14
463.075	5.03
463.275	5.11
463.476	5.1
463.676	5.16
463.877	4.93
464.078	4.91
464.278	4.98
464.479	4.83
464.679	4.66
464.88	4.61
465.08	4.65
465.281	4.42
465.481	4.29
465.682	4.18
465.882	4.11
466.083	4.03
466.283	4
466.483	3.91
466.684	3.68
466.884	3.62
467.085	3.57
467.285	3.75
467.485	3.59
467.686	3.48
467.886	3.38
468.086	3.38
468.286	3.31
468.487	3.37
468.687	3.13
468.887	3.24
469.087	3.32
469.287	3.21
469.488	2.98
469.688	3.14
469.888	3.22
470.088	3.05
470.288	3
470.488	3.02
470.688	2.82
470.888	2.8
471.088	2.68
471.288	2.76
471.488	2.76
471.688	2.69
471.888	2.69
472.088	2.78
472.288	2.69
472.488	2.59
472.688	2.55
472.888	2.56
473.088	2.56
473.288	2.41
473.488	2.42
473.688	2.59
473.887	2.46
474.087	2.41
474.287	2.42
474.487	2.39
474.687	2.37
474.886	2.41
475.086	2.28
475.286	2.29
475.486	2.25
475.685	2.27
475.885	2.15
476.085	2.28
476.284	2.28
476.484	2.26
476.684	2.15
476.883	2.27
477.083	2.15
477.282	2.14
477.482	2.14
477.681	2.12
477.881	2.06
478.08	2.05
478.28	2.02
478.479	2.08
478.679	2.16
478.878	2.03
479.078	2.04
479.277	2.09
479.477	2.08
479.676	2.01
479.875	1.98
480.075	1.94
480.274	2.01
480.473	2.06
480.673	2
480.872	2.11
481.071	2.05
481.271	2.03
481.47	1.98
481.669	1.94
481.868	1.95
482.067	1.94
482.267	1.92
482.466	1.97
482.665	1.92
482.864	1.97
483.063	1.94
483.262	2.03
483.461	2.05
483.661	2.05
483.86	2
484.059	2.05
484.258	2.08
484.457	2.04
484.656	1.99
484.855	2.15
485.054	1.89
485.253	1.95
485.452	1.96
485.651	2.07
485.849	2.04
486.048	2
486.247	1.98
486.446	2.1
486.645	1.98
486.844	2.05
487.043	2.06
487.241	2.07
487.44	2.08
487.639	2.11
487.838	2.09
488.037	2.1
488.235	2.16
488.434	2.14
488.633	2.04
488.831	2.17
489.03	2.22
489.229	2.23
489.427	2.24
489.626	2.27
489.825	2.28
490.023	2.28
490.222	2.26
490.42	2.37
490.619	2.38
490.817	2.39
491.016	2.37
491.214	2.42
491.413	2.44
491.611	2.37
491.81	2.41
492.008	2.44
492.207	2.47
492.405	2.53
492.604	2.45
492.802	2.53
493	2.63
493.199	2.66
493.397	2.64
493.595	2.68
493.794	2.67
493.992	2.8
494.19	2.76
494.388	2.79
494.587	2.75
494.785	2.79
494.983	2.71
495.181	2.85
495.379	2.91
495.578	2.92
495.776	2.99
495.974	2.95
496.172	2.97
496.37	3.1
496.568	3.11
496.766	3.07
496.964	3.17
497.162	3.21
497.36	3.22
497.558	3.25
497.756	3.27
497.954	3.3
498.152	3.34
498.35	3.43
498.548	3.38
498.746	3.43
498.944	3.43
499.142	3.49
499.34	3.56
499.538	3.65
499.736	3.57
499.933	3.67
500.131	3.69
500.329	3.75
500.527	3.8
500.725	3.88
500.922	3.87
501.12	3.89
501.318	3.99
501.516	3.94
501.713	4.06
501.911	3.96
502.109	3.96
502.306	4.12
502.504	4.02
502.701	4.08
502.899	4.16
503.097	4.39
503.294	4.23
503.492	4.33
503.689	4.4
503.887	4.36
504.084	4.48
504.282	4.43
504.479	4.43
504.677	4.56
504.874	4.56
505.072	4.48
505.269	4.72
505.466	4.76
505.664	4.78
505.861	4.67
506.059	4.78
506.256	4.79
506.453	4.88
506.651	4.99
506.848	5
507.045	4.93
507.242	5.05
507.44	5.02
507.637	5.1
507.834	5.06
508.031	5.2
508.229	5.17
508.426	5.15
508.623	5.27
508.82	5.29
509.017	5.28
509.214	5.28
509.411	5.44
509.608	5.38
509.805	5.54
510.003	5.47
510.2	5.54
510.397	5.71
510.594	5.61
510.791	5.64
510.988	5.67
511.184	5.63
511.381	5.54
511.578	5.69
511.775	5.83
511.972	5.82
512.169	5.84
512.366	5.81
512.563	6.02
512.76	6.02
512.956	6.05
513.153	5.96
513.35	5.93
513.547	5.94
513.744	6.06
513.94	6.04
514.137	6.17
514.334	6.11
514.53	6.17
514.727	6.39
514.924	6.33
515.12	6.3
515.317	6.29
515.514	6.25
515.71	6.22
515.907	6.39
516.103	6.46
516.3	6.35
516.497	6.49
516.693	6.53
516.89	6.48
517.086	6.54
517.283	6.6
517.479	6.45
517.676	6.66
517.872	6.66
518.068	6.65
518.265	6.62
518.461	6.6
518.658	6.71
518.854	6.7
519.05	6.75
519.247	6.85
519.443	6.82
519.639	6.91
519.836	6.83
520.032	6.74
520.228	6.95
520.424	6.91
520.621	6.94
520.817	6.94
521.013	6.97
521.209	7.12
521.405	7.05
521.601	7.04
521.798	7.02
521.994	7.11
522.19	7.01
522.386	7.09
522.582	7.16
522.778	7.31
522.974	7.12
523.17	7.17
523.366	7.13
523.562	7.18
523.758	7.3
523.954	7.08
524.15	7.25
524.346	7.35
524.542	7.27
524.738	7.29
524.934	7.45
525.129	7.31
525.325	7.3
525.521	7.29
525.717	7.48
525.913	7.32
526.109	7.4
526.304	7.49
526.5	7.51
526.696	7.52
526.892	7.38
527.087	7.64
527.283	7.58
527.479	7.52
527.674	7.32
527.87	7.55
528.066	7.54
528.261	7.53
528.457	7.51
528.653	7.69
528.848	7.57
529.044	7.67
529.239	7.55
529.435	7.56
529.63	7.53
529.826	7.59
530.021	7.58
530.217	7.69
530.412	7.62
530.608	7.67
530.803	7.64
530.999	7.58
531.194	7.75
531.389	7.78
531.585	7.74
531.78	7.87
531.975	7.72
532.171	7.82
532.366	7.75
532.561	7.76
532.757	7.77
532.952	7.93
533.147	7.67
533.342	7.87
533.538	7.71
533.733	7.98
533.928	7.66
534.123	7.79
534.318	7.9
534.513	7.78
534.709	7.92
534.904	7.86
535.099	7.96
535.294	7.91
535.489	7.9
535.684	7.91
535.879	7.87
536.074	7.9
536.269	7.98
536.464	7.96
536.659	7.91
536.854	7.92
537.049	8.04
537.244	7.96
537.439	7.91
537.634	7.99
537.828	8
538.023	7.96
538.218	7.95
538.413	7.99
538.608	7.94
538.803	7.95
538.997	7.98
539.192	7.95
539.387	7.92
539.582	7.95
539.776	7.86
539.971	8.05
540.166	8.06
540.36	7.94
540.555	8.15
540.75	8.02
540.944	8.05
541.139	8.06
541.334	8.01
541.528	8
541.723	8.17
541.917	8.07
542.112	8.01
542.306	7.88
542.501	7.95
542.695	7.95
542.89	7.97
543.084	8.04
543.279	8.04
543.473	8.12
543.668	8.12
543.862	7.93
544.056	7.93
544.251	8.09
544.445	8.13
544.64	8.14
544.834	7.8
545.028	7.69
545.222	8.07
545.417	8.21
545.611	8.21
545.805	8.05
546	7.92
546.194	8.04
546.388	8.16
546.582	8.04
546.776	8.08
546.97	8.1
547.165	8.1
547.359	8.11
547.553	8
547.747	8.06
547.941	8.28
548.135	8.04
548.329	8.11
548.523	8.12
548.717	8.03
548.911	7.98
549.105	8.07
549.299	8.14
549.493	8.15
549.687	7.96
549.881	8.22
550.075	8.15
550.269	7.97
550.463	8.14
550.657	8.1
550.85	8.1
551.044	8.07
551.238	8.17
551.432	8.06
551.626	8.12
551.82	8.15
552.013	8.1
552.207	8.21
552.401	8.19
552.594	8.04
552.788	8.05
552.982	8.1
553.176	8.03
553.369	8.24
553.563	8.17
553.756	8.06
553.95	8.16
554.144	8.17
554.337	8.2
554.531	7.95
554.724	8.19
554.918	8.19
555.111	8.12
555.305	8.17
555.498	8.07
555.692	8.24
555.885	8.14
556.079	8.05
556.272	8.19
556.466	8.12
556.659	8.01
556.852	8.2
557.046	8.06
557.239	8.04
557.432	8.03
557.626	8.17
557.819	8.22
558.012	8.1
558.206	8.22
558.399	8.12
558.592	8.11
558.785	8.08
558.979	8.13
559.172	8.13
559.365	8.12
559.558	8.08
559.751	8
559.944	8.16
560.138	8.15
560.331	8.17
560.524	8.14
560.717	8.11
560.91	8.07
561.103	8.16
561.296	8.03
561.489	8.16
561.682	8.22
561.875	8.18
562.068	8.22
562.261	8.04
562.454	8.32
562.647	8.1
562.84	8.2
563.032	8.17
563.225	8.03
563.418	8.12
563.611	8.19
563.804	8.14
563.997	8.01
564.19	7.93
564.382	8.2
564.575	8.11
564.768	8.11
564.961	8.21
565.153	8.04
565.346	8.04
565.539	8.21
565.731	8.1
565.924	8.11
566.117	8.22
566.309	8.19
566.502	8.04
566.695	8.01
566.887	8.13
567.08	8.13
567.272	8.14
567.465	8.05
567.657	8.24
567.85	8.02
568.042	8.15
568.235	8.14
568.427	7.97
568.62	8.09
568.812	8.06
569.005	8.15
569.197	8.02
569.389	8.14
569.582	8.05
569.774	8.11
569.966	8.03
570.159	8.02
570.351	7.99
570.543	8.08
570.736	8.03
570.928	7.93
571.12	8
571.312	8.01
571.505	7.83
571.697	8.02
571.889	8.02
572.081	8.06
572.273	7.92
572.465	8.01
572.658	8.09
572.85	8.08
573.042	8.05
573.234	7.94
573.426	8.03
573.618	7.98
573.81	8.05
574.002	8
574.194	8.04
574.386	7.91
574.578	7.85
574.77	7.92
574.962	8.01
575.154	7.92
575.346	7.91
575.538	7.9
575.729	7.89
575.921	8.01
576.113	7.99
576.305	7.93
576.497	8.06
576.689	7.79
576.88	7.78
577.072	8
577.264	7.84
577.456	7.95
577.647	7.88
577.839	8.02
578.031	7.91
578.223	7.84
578.414	7.75
578.606	7.86
578.798	7.89
578.989	7.87
579.181	7.93
579.372	7.86
579.564	7.88
579.755	7.78
579.947	7.73
580.139	7.85
580.33	7.71
580.522	7.78
580.713	7.78
580.905	7.75
581.096	7.89
581.287	7.71
581.479	7.71
581.67	7.82
581.862	7.72
582.053	7.77
582.244	7.61
582.436	7.87
582.627	7.67
582.818	7.63
583.01	7.64
583.201	7.71
583.392	7.68
583.583	7.58
583.775	7.51
583.966	7.55
584.157	7.61
584.348	7.72
584.54	7.62
584.731	7.62
584.922	7.56
585.113	7.43
585.304	7.62
585.495	7.66
585.686	7.67
585.877	7.63
586.068	7.76
586.259	7.61
586.45	7.6
586.641	7.48
586.832	7.61
587.023	7.52
587.214	7.49
587.405	7.53
587.596	7.46
587.787	7.42
587.978	7.44
588.169	7.46
588.36	7.41
588.551	7.42
588.742	7.43
588.932	7.49
589.123	7.28
589.314	7.54
589.505	7.34
589.696	7.38
589.886	7.34
590.077	7.37
590.268	7.35
590.458	7.26
590.649	7.13
590.84	7.35
591.03	7.3
591.221	7.23
591.412	7.16
591.602	7.36
591.793	7.31
591.984	7.29
592.174	7.22
592.365	7.43
592.555	7.15
592.746	7.15
592.936	7.17
593.127	7.17
593.317	7.18
593.508	7.23
593.698	7.09
593.889	7.19
594.079	7.09
594.269	6.98
594.46	7.06
594.65	7.13
594.84	7.07
595.031	6.99
595.221	7.02
595.411	7.11
595.602	7.06
595.792	7.02
595.982	6.92
596.172	7.05
596.363	6.96
596.553	6.96
596.743	6.96
596.933	6.98
597.123	6.94
597.314	6.77
597.504	6.82
597.694	6.89
597.884	6.84
598.074	6.87
598.264	6.85
598.454	6.82
598.644	6.84
598.834	6.79
599.024	6.72
599.214	6.77
599.404	6.85
599.594	6.79
599.784	6.66
599.974	6.79
600.164	6.74
600.354	6.61
600.544	6.55
600.734	6.62
600.924	6.6
601.114	6.5
601.303	6.56
601.493	6.57
601.683	6.56
601.873	6.6
602.063	6.48
602.252	6.55
602.442	6.46
602.632	6.5
602.821	6.41
603.011	6.46
603.201	6.46
603.39	6.47
603.58	6.28
603.77	6.44
603.959	6.43
604.149	6.43
604.339	6.42
604.528	6.46
604.718	6.42
604.907	6.31
605.097	6.23
605.286	6.3
605.476	6.29
605.665	6.27
605.855	6.22
606.044	6.36
606.234	6.24
606.423	6.24
606.612	6.15
606.802	6.11
606.991	6.27
607.181	6.22
607.37	6.15
607.559	5.95
607.749	6.2
607.938	5.99
608.127	6.06
608.316	6.06
608.506	6.1
608.695	6.07
608.884	6.02
609.073	6.05
609.263	6.1
609.452	5.98
609.641	5.86
609.83	5.87
610.019	6.03
610.208	5.9
610.397	5.9
610.586	5.87
610.775	5.84
610.965	5.78
611.154	5.73
611.343	5.77
611.532	5.7
611.721	5.81
611.91	5.71
612.099	5.71
612.287	5.64
612.476	5.58
612.665	5.76
612.854	5.56
613.043	5.71
613.232	5.65
613.421	5.54
613.61	5.56
613.798	5.59
613.987	5.6
614.176	5.49
614.365	5.62
614.554	5.56
614.742	5.55
614.931	5.4
615.12	5.59
615.309	5.45
615.497	5.43
615.686	5.25
615.875	5.38
616.063	5.42
616.252	5.37
616.44	5.39
616.629	5.29
616.818	5.37
617.006	5.22
617.195	5.24
617.383	5.25
617.572	5.2
617.76	5.19
617.949	5.24
618.137	5.28
618.326	5.27
618.514	5.04
618.703	5.03
618.891	5.19
619.079	5.09
619.268	5.16
619.456	5.01
619.644	5.1
619.833	5.02
620.021	5.03
620.209	4.96
620.398	5
620.586	4.95
620.774	5
620.962	4.96
621.151	5.06
621.339	4.93
621.527	4.82
621.715	4.82
621.903	4.91
622.092	4.79
622.28	4.93
622.468	4.71
622.656	4.81
622.844	4.77
623.032	4.84
623.22	4.69
623.408	4.79
623.596	4.74
623.784	4.83
623.972	4.67
624.16	4.65
624.348	4.78
624.536	4.78
624.724	4.57
624.912	4.62
625.1	4.66
625.288	4.61
625.476	4.53
625.664	4.62
625.851	4.49
626.039	4.52
626.227	4.52
626.415	4.55
626.603	4.42
626.79	4.51
626.978	4.45
627.166	4.55
627.354	4.38
627.541	4.37
627.729	4.27
627.917	4.48
628.104	4.47
628.292	4.26
628.48	4.38
628.667	4.28
628.855	4.38
629.042	4.39
629.23	4.25
629.418	4.31
629.605	4.26
629.793	4.14
629.98	4.15
630.168	4.19
630.355	4.25
630.543	4.21
630.73	4.11
630.917	4.16
631.105	4.23
631.292	4.16
631.48	4.12
631.667	4.23
631.854	4.14
632.042	4.02
632.229	3.93
632.416	4.05
632.604	4.03
632.791	3.86
632.978	4.07
633.165	3.97
633.353	3.98
633.54	4.03
633.727	3.81
633.914	3.89
634.101	3.82
634.289	3.98
634.476	3.79
634.663	3.81
634.85	3.8
635.037	3.77
635.224	3.69
635.411	3.87
635.598	3.75
635.785	3.75
635.972	3.73
636.159	3.78
636.346	3.64
636.533	3.59
636.72	3.64
636.907	3.67
637.094	3.64
637.281	3.52
637.468	3.65
637.655	3.63
637.842	3.63
638.029	3.54
638.215	3.55
638.402	3.57
638.589	3.46
638.776	3.44
638.963	3.45
639.149	3.51
639.336	3.58
639.523	3.43
639.709	3.42
639.896	3.45
640.083	3.39
640.27	3.45
640.456	3.37
640.643	3.41
640.829	3.21
641.016	3.32
641.203	3.28
641.389	3.37
641.576	3.28
641.762	3.28
641.949	3.21
642.135	3.27
642.322	3.25
642.508	3.15
642.695	3.22
642.881	3.17
643.068	3.18
643.254	3.2
643.441	3.17
643.627	3.21
643.813	3.08
644	3.15
644.186	3.1
644.372	3.11
644.559	3.11
644.745	3.06
644.931	2.97
645.118	3.07
645.304	3.05
645.49	3
645.676	2.96
645.862	2.99
646.049	3.07
646.235	2.96
646.421	3.06
646.607	3.04
646.793	2.93
646.979	2.85
647.165	2.93
647.352	2.94
647.538	2.91
647.724	2.86
647.91	2.82
648.096	2.87
648.282	2.91
648.468	2.85
648.654	2.79
648.84	2.87
649.026	2.84
649.212	2.74
649.397	2.69
649.583	2.74
649.769	2.76
649.955	2.72
650.141	2.73
650.327	2.72
650.513	2.64
650.698	2.68
650.884	2.56
651.07	2.72
651.256	2.62
651.442	2.62
651.627	2.56
651.813	2.64
651.999	2.61
652.184	2.56
652.37	2.57
652.556	2.51
652.741	2.65
652.927	2.39
653.113	2.54
653.298	2.51
653.484	2.49
653.669	2.44
653.855	2.49
654.04	2.55
654.226	2.47
654.412	2.42
654.597	2.32
654.782	2.46
654.968	2.41
655.153	2.4
655.339	2.33
655.524	2.32
655.71	2.41
655.895	2.28
656.08	2.37
656.266	2.44
656.451	2.32
656.636	2.31
656.822	2.35
657.007	2.31
657.192	2.3
657.378	2.24
657.563	2.28
657.748	2.28
657.933	2.29
658.118	2.2
658.304	2.19
658.489	2.29
658.674	2.21
658.859	2.17
659.044	2.16
659.229	2.24
659.414	2.12
659.599	2.2
659.785	2.11
659.97	2.16
660.155	2.15
660.34	2.17
660.525	2.12
660.71	2.1
660.895	2.15
661.08	2.09
661.264	2.02
661.449	2.17
661.634	2.09
661.819	2.07
662.004	2.01
662.189	2
662.374	1.98
662.559	1.96
662.743	1.96
662.928	2.01
663.113	1.93
663.298	1.94
663.483	1.93
663.667	1.95
663.852	1.95
664.037	2
664.221	1.88
664.406	2.02
664.591	1.95
664.775	1.96
664.96	1.9
665.145	1.9
665.329	1.99
665.514	1.88
665.698	1.82
665.883	1.78
666.068	1.91
666.252	1.85
666.437	1.76
666.621	1.85
666.806	1.83
666.99	1.83
667.174	1.76
667.359	1.86
667.543	1.75
667.728	1.76
667.912	1.67
668.096	1.77
668.281	1.67
668.465	1.74
668.649	1.74
668.834	1.63
669.018	1.71
669.202	1.7
669.387	1.64
669.571	1.75
669.755	1.65
669.939	1.71
670.124	1.67
670.308	1.71
670.492	1.7
670.676	1.69
670.86	1.61
671.044	1.56
671.228	1.67
671.413	1.58
671.597	1.58
671.781	1.59
671.965	1.64
672.149	1.58
672.333	1.58
672.517	1.6
672.701	1.54
672.885	1.58
673.069	1.5
673.253	1.64
673.437	1.59
673.621	1.52
673.804	1.56
673.988	1.53
674.172	1.49
674.356	1.44
674.54	1.53
674.724	1.63
674.908	1.49
675.091	1.52
675.275	1.52
675.459	1.54
675.643	1.46
675.826	1.46
676.01	1.41
676.194	1.46
676.377	1.49
676.561	1.44
676.745	1.51
676.928	1.47
677.112	1.49
677.296	1.39
677.479	1.41
677.663	1.4
677.846	1.4
678.03	1.36
678.213	1.32
678.397	1.41
678.58	1.4
678.764	1.38
678.947	1.33
679.131	1.4
679.314	1.39
679.498	1.34
679.681	1.34
679.865	1.46
680.048	1.31
680.231	1.3
680.415	1.31
680.598	1.32
680.781	1.28
680.965	1.31
681.148	1.31
681.331	1.28
681.514	1.3
681.698	1.3
681.881	1.28
682.064	1.33
682.247	1.29
682.43	1.18
682.614	1.21
682.797	1.32
682.98	1.29
683.163	1.17
683.346	1.24
683.529	1.22
683.712	1.15
683.895	1.27
684.078	1.14
684.261	1.15
684.444	1.26
684.627	1.23
684.81	1.19
684.993	1.15
685.176	1.17
685.359	1.1
685.542	1.11
685.725	1.25
685.908	1.18
686.091	1.06
686.274	1.21
686.457	1.18
686.639	1.15
686.822	1.23
687.005	1.13
687.188	1.2
687.371	1.28
687.553	1.15
687.736	1.18
687.919	1.23
688.102	1.15
688.284	1.01
688.467	1.11
688.65	1.05
688.832	1.04
689.015	1.09
689.197	0.96
689.38	1.18
689.563	1.18
689.745	1.03
689.928	0.96
690.11	1.05
690.293	1.08
690.475	0.94
690.658	1.01
690.84	1.06
691.023	1.07
691.205	0.95
691.388	1.06
691.57	1.09
691.752	1.1
691.935	0.94
692.117	0.97
692.3	0.99
692.482	1.04
692.664	0.91
692.847	1
693.029	1.07
693.211	0.98
693.393	0.92
693.576	0.95
693.758	0.92
693.94	1
694.122	0.91
694.304	0.92
694.487	0.91
694.669	1.05
694.851	0.83
695.033	0.88
695.215	0.98
695.397	0.87
695.579	0.94
695.761	0.85
695.943	0.81
696.125	1.02
696.308	0.95
696.49	0.8
696.671	1.08
696.853	0.94
697.035	1.12
697.217	0.92
697.399	0.93
697.581	0.81
697.763	0.92
697.945	0.84
698.127	0.86
698.309	0.9
698.491	0.9
698.672	0.89
698.854	0.86
699.036	0.96
699.218	0.81
699.399	0.9
699.581	0.92
699.763	0.88
699.945	0.78
700.126	0.72
700.308	0.84
700.49	0.79
700.671	0.72
700.853	0.79
701.035	0.8
701.216	0.83
701.398	0.77
701.579	0.81
701.761	0.9
701.943	0.77
702.124	0.77
702.306	0.78
702.487	0.93
702.669	0.85
702.85	0.78
703.031	0.73
703.213	0.99
703.394	0.9
703.576	0.74
703.757	0.91
703.938	0.84
704.12	0.98
704.301	0.82
704.483	0.7
704.664	0.76
704.845	0.97
705.026	0.87
705.208	0.79
705.389	0.77
705.57	0.75
705.751	0.7
705.933	0.74
706.114	0.78
706.295	0.81
706.476	0.71
706.657	0.87
706.838	0.79
707.02	0.76
707.201	0.69
707.382	0.65
707.563	0.82
707.744	0.68
707.925	0.68
708.106	0.64
708.287	0.78
708.468	0.88
708.649	0.71
708.83	0.81
709.011	0.68
709.192	0.81
709.373	0.63
709.554	0.66
709.734	0.75
709.915	0.76
710.096	0.74
710.277	0.58
710.458	0.65
710.639	0.73
710.819	0.6
711	0.66
711.181	0.8
711.362	0.8
711.542	0.7
711.723	0.66
711.904	0.79
712.085	0.73
712.265	0.65
712.446	0.55
712.627	0.59
712.807	0.61
712.988	0.62
713.168	0.55
713.349	0.71
713.53	0.51
713.71	0.53
713.891	0.52
714.071	0.64
714.252	0.6
714.432	0.55
714.613	0.47
714.793	0.62
714.974	0.77
715.154	0.7
715.334	0.68
715.515	0.78
715.695	0.54
715.876	0.6
716.056	0.58
716.236	0.52
716.417	0.56
716.597	0.6
716.777	0.82
716.957	0.6
717.138	0.61
717.318	0.53
717.498	0.44
717.678	0.61
717.859	0.62
718.039	0.49
718.219	0.61
718.399	0.54
718.579	0.58
718.759	0.48
718.939	0.65
719.12	0.63
719.3	0.54
719.48	0.42
719.66	0.46
719.84	0.75
720.02	0.54
720.2	0.53
720.38	0.52
720.56	0.75
720.74	0.44
720.92	0.57
721.1	0.75
721.279	0.62
721.459	0.53
721.639	0.46
721.819	0.55
721.999	0.55
722.179	0.65
722.359	0.47
722.538	0.55
722.718	0.51
722.898	0.51
723.078	0.54
723.257	0.52
723.437	0.56
723.617	0.58
723.797	0.54
723.976	0.54
724.156	0.68
724.336	0.58
724.515	0.67
724.695	0.34
724.874	0.6
725.054	0.62
725.234	0.49
725.413	0.61
725.593	0.59
725.772	0.55
725.952	0.56
726.131	0.52
726.311	0.57
726.49	0.55
726.67	0.39
726.849	0.43
727.028	0.61
727.208	0.52
727.387	0.56
727.567	0.39
727.746	0.5
727.925	0.51
728.105	0.51
728.284	0.48
728.463	0.52
728.643	0.63
728.822	0.47
729.001	0.54
729.18	0.53
729.359	0.67
729.539	0.48
729.718	0.54
729.897	0.61
730.076	0.48
730.255	0.43
730.434	0.5
730.614	0.64
730.793	0.66
730.972	0.47
731.151	0.52
731.33	0.63
731.509	0.64
731.688	0.42
731.867	0.54
732.046	0.42
732.225	0.72
732.404	0.49
732.583	0.33
732.762	0.5
732.941	0.57
733.12	0.47
733.298	0.49
733.477	0.64
733.656	0.48
733.835	0.48
734.014	0.62
734.193	0.5
734.371	0.65
734.55	0.67
734.729	0.44
734.908	0.54
735.086	0.61
735.265	0.63
735.444	0.31
735.623	0.36
735.801	0.42
735.98	0.52
736.159	0.37
736.337	0.63
736.516	0.62
736.694	0.47
736.873	0.36
737.052	0.72
737.23	0.77
737.409	0.47
737.587	0.78
737.766	0.37
737.944	0.63
738.123	0.46
738.301	0.61
738.479	0.63
738.658	0.59
738.836	0.2
739.015	0.42
739.193	0.67
739.371	0.37
739.55	0.56
739.728	0.45
739.906	0.57
740.085	0.68
740.263	0.44
740.441	0.24
740.62	0.76
740.798	0.55
740.976	0.35
741.154	0.37
741.332	0.62
741.511	0.51
741.689	0.46
741.867	0.58
742.045	0.59
742.223	0.48
742.401	0.27
742.579	0.37
742.757	0.67
742.935	0.34
743.114	0.4
743.292	0.39
743.47	0.55
743.648	0.61
743.826	0.36
744.004	0.56
744.181	0.59
744.359	0.37
744.537	0.5
744.715	0.38
744.893	0.55
745.071	0.61
745.249	0.5
745.427	0.55
745.605	0.42
745.782	0.49
745.96	0.53
746.138	0.5
746.316	0.43
746.493	0.46
746.671	0.47
746.849	0.34
747.027	0.53
747.204	0.46
747.382	0.46
747.56	0.26
747.737	0.37
747.915	0.44
748.093	0.45
748.27	0.35
748.448	0.44
748.625	0.38
748.803	0.44
748.98	0.36
749.158	0.43
749.335	0.56
749.513	0.39
749.69	0.26
749.868	0.43
750.045	0.4
750.223	0.43
750.4	0.2
750.578	0.65
750.755	0.54
750.932	0.26
751.11	0.46
751.287	0.39
751.464	0.65
751.642	0.47
751.819	0.52
751.996	0.49
752.173	0.43
752.351	0.37
752.528	0.37
752.705	0.4
752.882	0.3
753.06	0.47
753.237	0.44
753.414	0.69
753.591	0.73
753.768	0.33
753.945	0.36
754.122	0.37
754.299	0.56
754.476	0.35
754.654	0.38
754.831	0.52
755.008	0.39
755.185	0.33
755.362	0.25
755.539	0.5
755.716	0.48
755.892	0.36
756.069	0.36
756.246	0.37
756.423	0.37
756.6	0.53
756.777	0.22
756.954	0.51
757.131	0.28
757.307	0.26
757.484	0.19
757.661	0.3
757.838	0.56
758.015	0.23
758.191	0.52
758.368	0.36
758.545	0.69
758.721	0.38
758.898	0.27
759.075	0.47
759.251	0.55
759.428	0.45
759.605	0.15
759.781	0.32
759.958	0.44
760.134	0.38
760.311	0.4
760.488	0.67
760.664	0.51
760.841	0.4
761.017	0.3
761.194	0.41
761.37	0.54
761.547	0.42
761.723	0.27
761.899	0.54
762.076	0.31
762.252	0.27
762.429	0.32
762.605	0.52
762.781	0.42
762.958	0.43
763.134	0.25
763.31	0.33
763.486	0.64
763.663	0.1
763.839	0.5
764.015	0.18
764.191	0.4
764.368	0.25
764.544	0.27
764.72	0.48
764.896	0.54
765.072	0.44
765.248	0.3
765.425	0.34
765.601	0.36
765.777	0.42
765.953	0.15
766.129	0.28
766.305	0.29
766.481	0.45
766.657	0.44
766.833	0.62
767.009	0.34
767.185	0.25
767.361	0.4
767.537	0.24
767.713	0.52
767.889	0.33
768.065	0.36
768.24	0.59
768.416	0.54
768.592	0.42
768.768	0.32
768.944	0.48
769.12	0.25
769.295	0.33
769.471	0.3
769.647	0.4
769.823	0.64
769.998	0.3
770.174	0.18
770.35	0.85
770.525	0.76
770.701	0.43
770.877	0.38
771.052	0.34
771.228	0.47
771.403	0.29
771.579	0.4
771.755	0.71
771.93	0.39
772.106	0.21
772.281	0.11
772.457	0.31
772.632	0.45
772.808	0.26
772.983	0.24
773.159	0.3
773.334	0.61
773.509	0.59
773.685	0.29
773.86	0.92
774.036	0.63
774.211	0.52
774.386	0.37
774.562	0.42
774.737	0.64
774.912	0.28
775.087	0.55
775.263	0.33
775.438	0.5
775.613	0.31
775.788	0.37
775.964	0.66
776.139	1.06
776.314	0.2
776.489	0.55
776.664	0.36
776.839	0.17
777.014	0.46
777.19	0.49
777.365	0.78
777.54	0.73
777.715	0.31
777.89	0.49
778.065	0.34
778.24	0.48
778.415	0.47
778.59	0.2
778.765	0.49
778.94	0.57
779.115	0.3
779.289	0.33
779.464	0.51
779.639	0.47
779.814	0.28
779.989	0.15
780.164	0.55
780.339	0.52
780.513	0.32
780.688	0.15
780.863	0.43
781.038	0.55
781.212	0.34
781.387	0.4
781.562	0.79
781.737	0.27
781.911	0.62
782.086	0.33
782.261	0.63
782.435	0.8
782.61	0.47
782.784	0.37
782.959	0.72
783.134	0.31
783.308	0.19
783.483	0.2
783.657	1.02
783.832	0.65
784.006	0.19
784.181	0.32
784.355	0.7
784.53	0.32
784.704	0.17
784.878	0.82
785.053	0.63
785.227	0.7
785.402	0.82
785.576	0.4
785.75	0.67
785.925	0.48
786.099	0.43
786.273	0.51
786.448	0.76
786.622	0.85
786.796	0.53
786.97	0.39
787.145	0.97
787.319	0.4
787.493	0.27
787.667	0.01
787.841	0.58
788.015	0.89
788.19	0.43
788.364	0.55
788.538	0.93
788.712	0.89
788.886	0.5
789.06	0.72
789.234	0.8
789.408	0.42
789.582	0.38
789.756	0.28
789.93	0.48
790.104	0.46
790.278	0.34
790.452	0.22
790.626	0.59
790.8	0.34
790.973	0.63
791.147	0.94
791.321	1.07
791.495	0.8
791.669	0.82
791.843	0.71
792.016	0.46
792.19	1.11
792.364	0.41
792.538	1.2
792.711	0.91
792.885	0.42
793.059	0.08
793.233	0.01
793.406	0.67
793.58	0.38
793.754	0.77
793.927	0.51
794.101	0.9
794.274	0.58
794.448	0.81
794.622	0.12
794.795	1.26
794.969	0.42
795.142	0.63
795.316	0.34
795.489	0.36
795.663	0.82
795.836	0.59
796.009	0.31
796.183	0.89
796.356	0.67
796.53	0.61
796.703	0.4
796.876	1.38
797.05	0.37
797.223	0.47
797.396	0.66
797.57	0.49
797.743	1.09
797.916	0.55
798.09	0.58
798.263	0.96
798.436	0.78
798.609	0.38
798.782	0.29
798.956	0.75
799.129	0.48
799.302	0.28
799.475	0.47
799.648	0.42
799.821	0.38
799.994	0.49
800.167	-0.16
800.34	0.43
800.514	0.54
800.687	0.38
800.86	0.46
801.033	0.98
801.206	0.7
801.379	0.2
801.551	0.99
801.724	0.85
801.897	1.29
802.07	0.56
802.243	-0.03
802.416	0.78
802.589	0.72
802.762	0.91
802.935	0.56
803.107	0.74
803.28	0.9
803.453	0.78
803.626	0.33
803.798	0.81
803.971	0.65
804.144	0.66
804.317	0.78
804.489	1.15
804.662	0.84
804.835	0.36
805.007	0.15
805.18	1.24
805.353	0.53
805.525	0.43
805.698	0.39
805.87	1.16
806.043	0.77
806.215	-0.29
806.388	0.34
806.56	0.72
806.733	1
806.905	0.6
807.078	0.46
807.25	0.6
807.423	0.79
807.595	0.78
807.768	0.6
807.94	1.09
808.112	1.07
808.285	0.77
808.457	0.21
808.629	0.7
808.802	1.08
808.974	1.06
809.146	0.32
809.318	0.39
809.491	0.79
809.663	0.84
809.835	0.77
810.007	0.55
810.18	0.65
810.352	-0.07
810.524	0.39
810.696	1.09
810.868	1.23
811.04	0.65
811.212	0.64
811.384	1.32
811.556	0.55
811.728	0.66
811.901	1.6
812.073	0.6
812.245	1.05
812.417	0.89
812.589	-0.26
812.76	0.83
812.932	0.89
813.104	0.97
813.276	0.83
813.448	1.13
813.62	0.71
813.792	0.52
813.964	0.66
814.136	0.82
814.307	0.91
814.479	0.46
814.651	0.23
814.823	1.9
814.995	0.69
815.166	0.94
815.338	0.37
815.51	0.56
815.681	2.01
815.853	0.83
816.025	0.74
816.196	1.77
816.368	1.39
816.54	0.27
816.711	0.33
816.883	1.39
817.054	2.13
817.226	0.33
817.398	0.44
817.569	0.42
817.741	0.93
817.912	0.95
818.084	0.82
818.255	1.69
818.426	0.52
818.598	0.6
818.769	-0.03
818.941	1.14
819.112	1.39
819.283	0.94
819.455	0.47
819.626	0.44
819.798	1.11
819.969	1.11
820.14	0.67
820.311	0.78
820.483	0.97
820.654	1.02
820.825	0.79
820.996	0.49
821.168	0.01
821.339	0.58
821.51	0.32
821.681	0.63
821.852	1.13
822.023	0.29
822.195	0.32
822.366	0.97
822.537	0.63
822.708	0.71
822.879	0.11
823.05	1.14
823.221	0.82
823.392	1.14
823.563	0.89
823.734	1.26
823.905	0.89
824.076	0.34
824.247	0.57
824.418	0.62
824.589	1.59
824.759	0.48
824.93	1.04
825.101	-0.47
825.272	1.91
825.443	1.3
825.614	1.18
825.784	0.04
825.955	2.16
826.126	1.5
826.297	1.32
826.467	2.2
826.638	1.8
826.809	0.2
826.98	1.16
827.15	1.54
827.321	1.11
827.492	1.06
827.662	1.37
827.833	2.52
828.003	1.95
828.174	0.35
828.345	0.05
828.515	2.03
828.686	1.03
828.856	0.7
829.027	0.72
829.197	1.18
829.368	1.12
829.538	0.72
829.709	0.7
829.879	1.33
830.049	1.03
830.22	0.74
830.39	0.68
830.56	1.51
830.731	0.65
830.901	0.82
831.072	0.72
831.242	1.31
831.412	1.29
831.582	1.08
831.753	-0.01
831.923	1.64
832.093	1.58
832.263	1.13
832.434	0.23
832.604	0.6
832.774	1.31
832.944	1.21
833.114	0.15
833.284	1.16
833.454	0.04
833.624	0.7
833.795	0.69
833.965	2.02
834.135	2.59
834.305	0.1
834.475	0.6
834.645	1.49
834.815	1.22
834.985	0.98
835.155	0.05
835.325	1.37
835.494	1.75
835.664	0.67
835.834	-0.32
836.004	0.94
836.174	1.36
836.344	1.1
836.514	-0.19
836.684	0.89
836.853	1.88
837.023	1.12
837.193	0.73
837.363	2.08
837.532	1.94
837.702	1.57
837.872	0.54
838.041	1.96
838.211	2.72
838.381	0.2
838.55	0.8
838.72	3.5
838.89	2.95
839.059	0.39
839.229	0.21
839.398	3.04
839.568	1.59
839.738	0.94
839.907	2.01
840.077	1.33
840.246	0.58
840.416	1.34
840.585	0.39
840.755	2.74
840.924	2.99
841.093	0.08
841.263	0.81
841.432	1.04
841.602	0.77
841.771	0.73
841.94	1.45
842.11	3.45
842.279	3.6
842.448	-0.07
842.617	0.76
842.787	2.31
842.956	0.23
843.125	0.41
843.294	0.97
843.464	2.96
843.633	1.78
843.802	-0.01
843.971	0.86
844.14	2.27
844.309	2.82
844.479	-0.57
844.648	-0.41
844.817	1.3
844.986	1.73
845.155	0.24
845.324	0.88
845.493	0.87
845.662	1.19
845.831	2.15
846	1.47
846.169	0.84
846.338	2.47
846.507	1.59
846.676	1.33
846.844	1.21
847.013	2.44
847.182	1.13
847.351	1.8
847.52	0.94
847.689	1.4
847.858	0.94
848.026	0.78
848.195	1.52
848.364	1.62
848.533	-0.02
848.701	-0.06
848.87	1.55
849.039	2.46
849.207	1.4
849.376	3.19
849.545	3.23
849.713	1.24
849.882	0.95
850.051	0.94
850.219	2.04
850.388	2.65
850.556	1.08
850.725	0.47
850.893	1.6
851.062	1.7
851.23	2.53
851.399	-0.23
851.567	2.01
851.736	1.08
851.904	-0.01
852.073	1.38
852.241	3.05
852.41	1.74
852.578	1.74
852.746	0.23
852.915	1.28
853.083	3.36
853.251	0.05
853.42	0.86
853.588	1.7
853.756	3
853.924	0.51
854.093	1.18
854.261	1.49
854.429	-0.05
854.597	2.15
854.765	1.3
854.934	2.69
855.102	1.93
855.27	2.19
855.438	2.58
855.606	2.3
855.774	4.44
855.942	0.2
856.11	0.02
856.278	1.92
856.446	2
856.614	1.6
856.782	0.34
856.95	2.48
857.118	1.93
857.286	2.52
857.454	0.71
857.622	2.8
857.79	3.83
857.958	0.31
858.126	1.07
858.294	-0.99
858.462	1.42
858.629	1
858.797	0.42
858.965	2.65
859.133	1.53
859.301	1.24
859.468	1.99
859.636	0.82
859.804	4.43
859.971	1.97
860.139	0.82
860.307	3.06
860.474	2.03
860.642	0.11
860.81	-0.23
860.977	1.61
861.145	4.01
861.313	0.9
861.48	1.53
861.648	4.16
861.815	1.11
861.983	0.04
862.15	1.23
862.318	4.24
862.485	4.15
862.653	0.7
862.82	0.61
862.988	3.55
863.155	2.56
863.322	0.27
863.49	0.02
863.657	1.68
863.824	5.13
863.992	2.49
864.159	2.56
864.326	4.51
864.494	0.4
864.661	4.69
864.828	0.74
864.996	3.77
865.163	3.53
865.33	0.29
865.497	-0.42
865.664	-0.56
865.832	0.21
865.999	2.4
866.166	0.06
866.333	1.93
866.5	1.5
866.667	2.59
866.834	1.77
867.001	3.79
867.168	0.96
867.335	0.75
867.502	0.49
867.669	3.52
867.836	5.58
868.003	1.74
868.17	2.88
868.337	2.46
868.504	7
868.671	-1.36
868.838	2.86
869.005	2.89
869.172	3.63
869.339	1.9
869.505	0.86
869.672	3.64
869.839	4.3
870.006	3.11
870.173	0.16
870.339	3.19
870.506	6.72
870.673	0.51
870.84	1.99
871.006	2.61
871.173	0.85
871.34	0.6
871.506	-0.51
871.673	4.42
871.839	1.25
872.006	2.69
872.173	0.76
872.339	1.57
872.506	5.29
872.672	1.1
872.839	0.06
873.005	3.9
873.172	6.79
873.338	3.46
873.505	1.61
873.671	3.52
873.838	2.89
874.004	0.26
874.171	2.33
874.337	3.91
874.503	4.95
874.67	2.05
874.836	1.71
875.002	6.14
875.169	3.03
875.335	2.67
875.501	1.81
875.668	4.94
875.834	-0.7
876	2.16
876.166	0.63
876.332	3.81
876.499	5.74
876.665	1.08
876.831	3.09
876.997	8.17
877.163	4.05
877.329	1.14
877.495	2.4
877.662	2.92
877.828	3.25
877.994	2.47
878.16	0.06
878.326	1.06
878.492	3.02
878.658	1.4
878.824	2.66
878.99	2.27
879.156	0.68
879.322	5.01
879.487	2.19
879.653	3.07
879.819	4.27
879.985	0.82
880.151	2.15
880.317	3.03
880.483	4.1
880.648	4.56
880.814	-2.03
880.98	3.17
881.146	-0.5
881.312	0.48
881.477	2.69
881.643	3.15
881.809	3.7
881.974	5.95
882.14	0.51
882.306	3.02
882.471	7.05
882.637	1.04
882.803	2.46
882.968	5.41
883.134	6.08
883.299	2.33
883.465	5.07
883.63	6.33
883.796	3.6
883.961	3.38
884.127	3.37
884.292	-1.79
884.458	0.43
884.623	0.43
