Data from Apollo_Calib_20240827__AbsoluteIrradiance__799__12-28-01-340.txt Node

Date: Wed Aug 28 12:28:01 BST 2024
User: biology
Spectrometer: FLMT08252
Trigger mode: 0
Integration Time (sec): 5.000000E-1
Scans to average: 5
Electric dark correction enabled: true
Nonlinearity correction enabled: false
Boxcar width: 0
XAxis mode: Wavelengths
Number of Pixels in Spectrum: 3648
>>>>>Begin Spectral Data<<<<<
179.588	-0
179.809	-0
180.03	-0
180.251	-0
180.473	-0
180.694	0
180.915	0
181.136	-0
181.357	0
181.578	-0
181.799	-0
182.02	-0
182.241	0
182.462	-0
182.683	0
182.904	-0
183.125	-0
183.346	0
183.567	0
183.788	0
184.009	0
184.23	0
184.451	0
184.672	0
184.892	0
185.113	0
185.334	0
185.555	0
185.776	0
185.996	0
186.217	0
186.438	0
186.659	0
186.879	0
187.1	0
187.321	0
187.541	0
187.762	0
187.983	0
188.203	0
188.424	0
188.644	0
188.865	0
189.086	0
189.306	0
189.527	0
189.747	0
189.968	0
190.188	0
190.409	0
190.629	0
190.849	0
191.07	0
191.29	0
191.511	0
191.731	0
191.951	0
192.172	0
192.392	0
192.612	0
192.833	0
193.053	0
193.273	0
193.493	0
193.714	0
193.934	0
194.154	0
194.374	0
194.594	0
194.815	0
195.035	0
195.255	0
195.475	0
195.695	0
195.915	0
196.135	0
196.355	0
196.575	0
196.795	0
197.015	0
197.235	0
197.455	0
197.675	0
197.895	0
198.115	0
198.335	0
198.555	0
198.775	0
198.995	0
199.214	0
199.434	0
199.654	0
199.874	0
200.094	3.93
200.313	2.61
200.533	2.14
200.753	1.72
200.973	4.05
201.192	3.37
201.412	1.15
201.632	2.04
201.851	3.57
202.071	1.94
202.291	2.08
202.51	1.54
202.73	2.92
202.95	1.63
203.169	1.11
203.389	1.99
203.608	1.98
203.828	1.67
204.047	1.42
204.267	2.61
204.486	2.24
204.706	2.22
204.925	2
205.145	1.73
205.364	2.24
205.583	2.69
205.803	1.66
206.022	1.53
206.242	2.06
206.461	1.64
206.68	1.59
206.9	1.5
207.119	2.4
207.338	2.25
207.557	1.12
207.777	1.42
207.996	1.53
208.215	2.24
208.434	1.02
208.654	0.91
208.873	1.78
209.092	2.27
209.311	1.05
209.53	1.26
209.749	1.29
209.968	1.38
210.187	0.91
210.407	0.84
210.626	1.31
210.845	1.71
211.064	1.08
211.283	0.98
211.502	1.38
211.721	0.95
211.94	1.12
212.159	1.37
212.377	1.27
212.596	1.38
212.815	1.22
213.034	1.15
213.253	1.51
213.472	1.31
213.691	1.21
213.91	0.82
214.128	0.89
214.347	1.7
214.566	0.67
214.785	0.53
215.003	1.23
215.222	1.08
215.441	0.96
215.66	0.62
215.878	1.28
216.097	1.33
216.316	0.71
216.534	0.86
216.753	1.19
216.972	0.64
217.19	0.81
217.409	0.64
217.627	0.91
217.846	0.96
218.064	1.1
218.283	0.67
218.501	1.39
218.72	1.2
218.938	0.58
219.157	0.54
219.375	1.08
219.594	1
219.812	0.52
220.031	0.52
220.249	1.31
220.467	1.24
220.686	0.74
220.904	0.4
221.122	0.78
221.341	1.28
221.559	0.9
221.777	0.47
221.995	0.76
222.214	1.05
222.432	0.48
222.65	0.83
222.868	0.77
223.086	0.95
223.305	0.85
223.523	0.67
223.741	1.28
223.959	0.69
224.177	0.54
224.395	0.52
224.613	0.92
224.831	0.97
225.049	0.52
225.267	0.55
225.485	0.86
225.703	0.55
225.921	0.58
226.139	0.56
226.357	0.86
226.575	0.81
226.793	0.59
227.011	1.71
227.229	0.73
227.447	0.88
227.665	0.47
227.883	0.47
228.1	0.64
228.318	0.69
228.536	0.34
228.754	0.45
228.972	0.68
229.189	0.84
229.407	0.53
229.625	0.53
229.843	1.02
230.06	0.87
230.278	0.48
230.496	0.63
230.713	0.69
230.931	0.86
231.149	0.58
231.366	0.19
231.584	0.59
231.801	1.03
232.019	0.54
232.236	0.3
232.454	0.5
232.671	0.69
232.889	0.51
233.106	0.46
233.324	0.7
233.541	0.58
233.759	0.51
233.976	0.5
234.194	0.59
234.411	0.56
234.628	0.45
234.846	0.42
235.063	0.63
235.28	0.59
235.498	0.47
235.715	0.44
235.932	0.88
236.149	0.51
236.367	0.38
236.584	0.57
236.801	0.4
237.018	0.75
237.236	0.59
237.453	0.36
237.67	0.65
237.887	0.63
238.104	0.54
238.321	0.44
238.538	0.45
238.755	0.75
238.973	0.33
239.19	0.54
239.407	0.53
239.624	0.61
239.841	0.42
240.058	0.34
240.275	0.55
240.492	0.48
240.709	0.46
240.925	0.38
241.142	0.49
241.359	0.41
241.576	0.39
241.793	0.47
242.01	0.39
242.227	0.65
242.444	0.58
242.66	0.6
242.877	0.58
243.094	0.44
243.311	0.48
243.527	0.42
243.744	0.49
243.961	0.66
244.178	0.35
244.394	0.48
244.611	0.68
244.828	0.7
245.044	0.42
245.261	0.34
245.477	0.54
245.694	0.65
245.911	0.33
246.127	0.44
246.344	0.63
246.56	0.61
246.777	0.45
246.993	0.38
247.21	0.49
247.426	0.55
247.643	0.42
247.859	0.28
248.076	0.38
248.292	0.74
248.508	0.45
248.725	0.45
248.941	0.52
249.157	0.56
249.374	0.34
249.59	0.33
249.806	0.44
250.023	0.47
250.239	0.33
250.455	0.36
250.671	0.47
250.888	0.56
251.104	0.5
251.32	0.34
251.536	0.39
251.752	0.38
251.969	0.44
252.185	0.46
252.401	0.66
252.617	0.43
252.833	0.31
253.049	0.47
253.265	0.4
253.481	0.41
253.697	0.42
253.913	0.38
254.129	0.49
254.345	0.46
254.561	0.31
254.777	0.39
254.993	0.44
255.209	0.49
255.425	0.42
255.641	0.32
255.857	0.51
256.073	0.51
256.288	0.25
256.504	0.32
256.72	0.42
256.936	0.6
257.152	0.39
257.367	0.29
257.583	0.45
257.799	0.47
258.015	0.41
258.23	0.39
258.446	0.63
258.662	0.36
258.877	0.31
259.093	0.38
259.309	0.48
259.524	0.43
259.74	0.3
259.955	0.38
260.171	0.39
260.387	0.42
260.602	0.47
260.818	0.47
261.033	0.32
261.249	0.36
261.464	0.31
261.68	0.24
261.895	0.43
262.11	0.42
262.326	0.32
262.541	0.25
262.757	0.47
262.972	0.48
263.187	0.43
263.403	0.36
263.618	0.5
263.833	0.44
264.049	0.23
264.264	0.42
264.479	0.41
264.694	0.48
264.91	0.21
265.125	0.36
265.34	0.47
265.555	0.57
265.77	0.37
265.986	0.32
266.201	0.41
266.416	0.46
266.631	0.39
266.846	0.33
267.061	0.4
267.276	0.52
267.491	0.17
267.706	0.41
267.921	0.42
268.136	0.42
268.351	0.32
268.566	0.25
268.781	0.53
268.996	0.41
269.211	0.35
269.426	0.28
269.641	0.32
269.856	0.46
270.071	0.25
270.285	0.23
270.5	0.45
270.715	0.47
270.93	0.28
271.145	0.33
271.359	0.46
271.574	0.37
271.789	0.36
272.004	0.27
272.218	0.37
272.433	0.38
272.648	0.35
272.862	0.36
273.077	0.38
273.292	0.33
273.506	0.26
273.721	0.34
273.936	0.45
274.15	0.47
274.365	0.31
274.579	0.37
274.794	0.42
275.008	0.37
275.223	0.22
275.437	0.3
275.652	0.4
275.866	0.41
276.081	0.29
276.295	0.37
276.509	0.42
276.724	0.34
276.938	0.32
277.153	0.35
277.367	0.42
277.581	0.28
277.796	0.31
278.01	0.19
278.224	0.42
278.438	0.53
278.653	0.23
278.867	0.27
279.081	0.48
279.295	0.36
279.51	0.41
279.724	0.18
279.938	0.33
280.152	0.39
280.366	0.31
280.58	0.32
280.794	0.51
281.008	0.42
281.222	0.36
281.437	0.48
281.651	0.36
281.865	0.41
282.079	0.28
282.293	0.21
282.507	0.25
282.721	0.29
282.935	0.27
283.148	0.19
283.362	0.34
283.576	0.22
283.79	0.33
284.004	0.25
284.218	0.39
284.432	0.32
284.646	0.31
284.859	0.31
285.073	0.34
285.287	0.37
285.501	0.31
285.714	0.29
285.928	0.3
286.142	0.33
286.356	0.27
286.569	0.24
286.783	0.43
286.997	0.38
287.21	0.32
287.424	0.29
287.637	0.3
287.851	0.27
288.065	0.36
288.278	0.23
288.492	0.34
288.705	0.26
288.919	0.33
289.132	0.22
289.346	0.37
289.559	0.18
289.773	0.24
289.986	0.32
290.2	0.33
290.413	0.36
290.626	0.23
290.84	0.22
291.053	0.33
291.267	0.39
291.48	0.28
291.693	0.29
291.906	0.27
292.12	0.31
292.333	0.27
292.546	0.25
292.76	0.42
292.973	0.32
293.186	0.34
293.399	0.25
293.612	0.38
293.826	0.29
294.039	0.29
294.252	0.2
294.465	0.34
294.678	0.35
294.891	0.27
295.104	0.23
295.317	0.25
295.53	0.31
295.743	0.29
295.956	0.27
296.169	0.45
296.382	0.33
296.595	0.26
296.808	0.21
297.021	0.32
297.234	0.34
297.447	0.23
297.66	0.34
297.873	0.36
298.086	0.29
298.299	0.25
298.511	0.16
298.724	0.32
298.937	0.2
299.15	0.22
299.363	0.22
299.575	0.37
299.788	0.33
300.001	0.25
300.213	0.24
300.426	0.28
300.639	0.28
300.852	0.22
301.064	0.3
301.277	0.38
301.489	0.32
301.702	0.28
301.915	0.24
302.127	0.27
302.34	0.31
302.552	0.31
302.765	0.23
302.977	0.37
303.19	0.25
303.402	0.23
303.615	0.28
303.827	0.22
304.04	0.24
304.252	0.26
304.464	0.2
304.677	0.38
304.889	0.27
305.102	0.24
305.314	0.24
305.526	0.34
305.739	0.31
305.951	0.21
306.163	0.27
306.375	0.34
306.588	0.23
306.8	0.25
307.012	0.18
307.224	0.31
307.436	0.36
307.649	0.19
307.861	0.22
308.073	0.31
308.285	0.28
308.497	0.22
308.709	0.18
308.921	0.28
309.133	0.38
309.346	0.24
309.558	0.24
309.77	0.34
309.982	0.35
310.194	0.3
310.406	0.23
310.617	0.37
310.829	0.29
311.041	0.3
311.253	0.23
311.465	0.28
311.677	0.25
311.889	0.25
312.101	0.25
312.313	0.31
312.524	0.36
312.736	0.19
312.948	0.24
313.16	0.39
313.372	0.38
313.583	0.23
313.795	0.22
314.007	0.22
314.218	0.32
314.43	0.26
314.642	0.25
314.853	0.18
315.065	0.35
315.277	0.26
315.488	0.26
315.7	0.29
315.912	0.32
316.123	0.29
316.335	0.27
316.546	0.37
316.758	0.28
316.969	0.22
317.181	0.28
317.392	0.23
317.604	0.33
317.815	0.23
318.026	0.25
318.238	0.23
318.449	0.31
318.661	0.17
318.872	0.18
319.083	0.22
319.295	0.31
319.506	0.19
319.717	0.28
319.929	0.29
320.14	0.33
320.351	0.26
320.562	0.21
320.774	0.24
320.985	0.25
321.196	0.26
321.407	0.19
321.618	0.33
321.829	0.32
322.041	0.31
322.252	0.27
322.463	0.32
322.674	0.31
322.885	0.21
323.096	0.27
323.307	0.27
323.518	0.3
323.729	0.22
323.94	0.21
324.151	0.23
324.362	0.28
324.573	0.25
324.784	0.26
324.995	0.3
325.206	0.28
325.417	0.23
325.628	0.27
325.838	0.26
326.049	0.26
326.26	0.25
326.471	0.24
326.682	0.26
326.892	0.34
327.103	0.2
327.314	0.19
327.525	0.29
327.735	0.25
327.946	0.23
328.157	0.17
328.368	0.32
328.578	0.28
328.789	0.3
328.999	0.25
329.21	0.24
329.421	0.29
329.631	0.23
329.842	0.18
330.052	0.3
330.263	0.33
330.473	0.33
330.684	0.24
330.894	0.24
331.105	0.25
331.315	0.28
331.526	0.19
331.736	0.37
331.947	0.28
332.157	0.29
332.367	0.2
332.578	0.32
332.788	0.36
332.999	0.3
333.209	0.23
333.419	0.21
333.629	0.28
333.84	0.29
334.05	0.22
334.26	0.36
334.47	0.27
334.681	0.32
334.891	0.27
335.101	0.3
335.311	0.38
335.521	0.28
335.732	0.22
335.942	0.32
336.152	0.29
336.362	0.28
336.572	0.26
336.782	0.33
336.992	0.23
337.202	0.2
337.412	0.23
337.622	0.3
337.832	0.24
338.042	0.28
338.252	0.25
338.462	0.23
338.672	0.3
338.882	0.19
339.092	0.29
339.302	0.36
339.511	0.3
339.721	0.25
339.931	0.22
340.141	0.34
340.351	0.34
340.561	0.28
340.77	0.29
340.98	0.33
341.19	0.33
341.4	0.25
341.609	0.23
341.819	0.3
342.029	0.21
342.238	0.28
342.448	0.2
342.658	0.33
342.867	0.23
343.077	0.23
343.286	0.27
343.496	0.3
343.706	0.34
343.915	0.19
344.125	0.25
344.334	0.28
344.544	0.19
344.753	0.2
344.963	0.22
345.172	0.21
345.381	0.22
345.591	0.22
345.8	0.24
346.01	0.34
346.219	0.33
346.428	0.13
346.638	0.27
346.847	0.3
347.056	0.35
347.266	0.22
347.475	0.25
347.684	0.29
347.893	0.29
348.103	0.24
348.312	0.27
348.521	0.25
348.73	0.27
348.94	0.26
349.149	0.23
349.358	0.26
349.567	0.22
349.776	0.21
349.985	0.22
350.194	0.29
350.403	0.3
350.612	0.2
350.821	0.22
351.03	0.28
351.239	0.16
351.448	0.27
351.657	0.21
351.866	0.4
352.075	0.25
352.284	0.25
352.493	0.19
352.702	0.35
352.911	0.27
353.12	0.23
353.329	0.25
353.538	0.29
353.746	0.29
353.955	0.23
354.164	0.28
354.373	0.22
354.582	0.32
354.79	0.28
354.999	0.29
355.208	0.24
355.416	0.4
355.625	0.21
355.834	0.24
356.042	0.29
356.251	0.24
356.46	0.2
356.668	0.29
356.877	0.33
357.085	0.29
357.294	0.16
357.503	0.28
357.711	0.24
357.92	0.46
358.128	0.28
358.337	0.23
358.545	0.28
358.754	0.2
358.962	0.33
359.17	0.25
359.379	0.25
359.587	0.26
359.796	0.28
360.004	0.3
360.212	0.27
360.421	0.3
360.629	0.25
360.837	0.19
361.046	0.32
361.254	0.39
361.462	0.28
361.67	0.24
361.879	0.26
362.087	0.35
362.295	0.28
362.503	0.23
362.711	0.19
362.92	0.22
363.128	0.23
363.336	0.22
363.544	0.21
363.752	0.22
363.96	0.21
364.168	0.22
364.376	0.29
364.584	0.3
364.792	0.31
365	0.26
365.208	0.25
365.416	0.28
365.624	0.29
365.832	0.22
366.04	0.3
366.248	0.3
366.456	0.27
366.664	0.27
366.872	0.29
367.079	0.2
367.287	0.27
367.495	0.25
367.703	0.23
367.911	0.24
368.118	0.26
368.326	0.25
368.534	0.21
368.742	0.29
368.949	0.19
369.157	0.24
369.365	0.35
369.572	0.24
369.78	0.23
369.988	0.28
370.195	0.24
370.403	0.3
370.61	0.24
370.818	0.24
371.026	0.35
371.233	0.21
371.441	0.27
371.648	0.24
371.856	0.29
372.063	0.27
372.271	0.23
372.478	0.24
372.685	0.25
372.893	0.33
373.1	0.27
373.308	0.25
373.515	0.36
373.722	0.39
373.93	0.26
374.137	0.28
374.344	0.36
374.552	0.34
374.759	0.31
374.966	0.26
375.173	0.26
375.381	0.32
375.588	0.23
375.795	0.23
376.002	0.27
376.209	0.23
376.417	0.23
376.624	0.24
376.831	0.28
377.038	0.23
377.245	0.16
377.452	0.26
377.659	0.28
377.866	0.24
378.073	0.26
378.28	0.23
378.487	0.37
378.694	0.27
378.901	0.26
379.108	0.29
379.315	0.33
379.522	0.38
379.729	0.32
379.936	0.25
380.143	0.29
380.35	0.28
380.557	0.26
380.763	0.27
380.97	0.25
381.177	0.31
381.384	0.26
381.591	0.21
381.797	0.33
382.004	0.34
382.211	0.3
382.418	0.24
382.624	0.28
382.831	0.31
383.038	0.27
383.244	0.26
383.451	0.27
383.658	0.35
383.864	0.26
384.071	0.23
384.277	0.36
384.484	0.27
384.69	0.37
384.897	0.21
385.103	0.25
385.31	0.27
385.516	0.26
385.723	0.25
385.929	0.27
386.136	0.27
386.342	0.31
386.549	0.23
386.755	0.36
386.961	0.35
387.168	0.28
387.374	0.27
387.58	0.35
387.787	0.34
387.993	0.3
388.199	0.27
388.406	0.28
388.612	0.29
388.818	0.25
389.024	0.22
389.231	0.29
389.437	0.42
389.643	0.28
389.849	0.34
390.055	0.31
390.261	0.28
390.467	0.32
390.674	0.29
390.88	0.3
391.086	0.35
391.292	0.26
391.498	0.37
391.704	0.36
391.91	0.32
392.116	0.31
392.322	0.19
392.528	0.35
392.734	0.26
392.94	0.32
393.146	0.29
393.352	0.34
393.557	0.26
393.763	0.32
393.969	0.35
394.175	0.34
394.381	0.34
394.587	0.32
394.792	0.33
394.998	0.38
395.204	0.38
395.41	0.26
395.615	0.34
395.821	0.38
396.027	0.33
396.233	0.29
396.438	0.4
396.644	0.36
396.85	0.38
397.055	0.3
397.261	0.37
397.466	0.36
397.672	0.35
397.878	0.36
398.083	0.42
398.289	0.32
398.494	0.37
398.7	0.37
398.905	0.26
399.111	0.45
399.316	0.27
399.522	0.35
399.727	0.35
399.932	0.38
400.138	0.37
400.343	0.37
400.549	0.33
400.754	0.34
400.959	0.41
401.165	0.36
401.37	0.36
401.575	0.48
401.78	0.42
401.986	0.33
402.191	0.36
402.396	0.38
402.601	0.42
402.807	0.4
403.012	0.4
403.217	0.46
403.422	0.42
403.627	0.47
403.832	0.35
404.037	0.48
404.243	0.47
404.448	0.42
404.653	0.42
404.858	0.46
405.063	0.46
405.268	0.45
405.473	0.4
405.678	0.38
405.883	0.62
406.088	0.5
406.293	0.42
406.498	0.43
406.703	0.53
406.907	0.51
407.112	0.47
407.317	0.52
407.522	0.57
407.727	0.48
407.932	0.53
408.136	0.65
408.341	0.58
408.546	0.55
408.751	0.58
408.956	0.62
409.16	0.66
409.365	0.6
409.57	0.67
409.774	0.65
409.979	0.67
410.184	0.67
410.388	0.64
410.593	0.82
410.798	0.74
411.002	0.72
411.207	0.78
411.411	0.8
411.616	0.73
411.82	0.76
412.025	0.86
412.229	0.81
412.434	0.97
412.638	0.9
412.843	0.91
413.047	0.94
413.252	0.93
413.456	0.99
413.66	1.06
413.865	1.04
414.069	1.19
414.273	1.08
414.478	1.11
414.682	1.17
414.886	1.15
415.091	1.15
415.295	1.24
415.499	1.41
415.703	1.32
415.908	1.5
416.112	1.32
416.316	1.56
416.52	1.57
416.724	1.5
416.929	1.58
417.133	1.84
417.337	1.74
417.541	1.81
417.745	1.88
417.949	1.96
418.153	1.98
418.357	1.99
418.561	2.28
418.765	2.13
418.969	2.29
419.173	2.41
419.377	2.39
419.581	2.65
419.785	2.61
419.989	2.61
420.193	2.71
420.397	2.89
420.601	3.04
420.804	3.15
421.008	3.02
421.212	3.18
421.416	3.24
421.62	3.23
421.823	3.27
422.027	3.39
422.231	3.42
422.435	3.44
422.638	3.54
422.842	3.61
423.046	3.63
423.249	3.84
423.453	3.91
423.657	4.09
423.86	4.14
424.064	4.2
424.268	4.41
424.471	4.4
424.675	4.59
424.878	4.67
425.082	4.84
425.285	5.04
425.489	5
425.692	5.16
425.896	5.21
426.099	5.35
426.303	5.5
426.506	5.69
426.71	5.92
426.913	6.15
427.116	6.25
427.32	6.18
427.523	6.33
427.726	6.69
427.93	6.64
428.133	7.14
428.336	7.12
428.54	7.27
428.743	7.51
428.946	7.75
429.149	7.78
429.353	7.75
429.556	7.89
429.759	7.94
429.962	8.09
430.165	8.33
430.368	7.95
430.571	8.01
430.775	7.95
430.978	7.91
431.181	8.04
431.384	8.1
431.587	8.2
431.79	8.63
431.993	8.58
432.196	8.82
432.399	9.18
432.602	9.41
432.805	9.33
433.008	9.91
433.211	9.86
433.414	10.1
433.616	10.31
433.819	10.14
434.022	10.31
434.225	10.55
434.428	10.63
434.631	11.04
434.833	10.71
435.036	10.95
435.239	11.22
435.442	11.26
435.645	11.51
435.847	11.53
436.05	11.88
436.253	12.06
436.455	12.05
436.658	11.95
436.861	12.12
437.063	12.31
437.266	12.34
437.468	12.79
437.671	13.06
437.874	13.06
438.076	12.85
438.279	13.3
438.481	13.36
438.684	14.2
438.886	13.82
439.089	14.05
439.291	14.06
439.494	14.34
439.696	14.66
439.899	15.09
440.101	15.52
440.303	15.67
440.506	16.36
440.708	16.01
440.91	16.34
441.113	16.65
441.315	16.87
441.517	16.66
441.72	17.21
441.922	16.71
442.124	16.67
442.326	17.03
442.529	17.44
442.731	17.34
442.933	17.56
443.135	17.34
443.337	17.36
443.539	17.82
443.742	17.47
443.944	18.22
444.146	17.92
444.348	17.83
444.55	17.76
444.752	17.9
444.954	18.01
445.156	18.08
445.358	18.32
445.56	18.66
445.762	18.36
445.964	18.76
446.166	18.44
446.368	18.59
446.57	18.56
446.772	18.08
446.974	17.81
447.175	18.18
447.377	17.98
447.579	18.37
447.781	17.94
447.983	17.82
448.184	17.35
448.386	17.64
448.588	17.23
448.79	17.26
448.991	17.62
449.193	17.57
449.395	16.98
449.597	16.56
449.798	16.58
450	16.1
450.202	15.81
450.403	15.86
450.605	15.79
450.806	15.43
451.008	15.4
451.21	15.02
451.411	14.59
451.613	13.81
451.814	14.08
452.016	14.12
452.217	13.42
452.419	13.35
452.62	13.04
452.821	12.77
453.023	12.75
453.224	12.4
453.426	12
453.627	11.14
453.828	11.4
454.03	11.37
454.231	11.3
454.432	11.2
454.634	10.9
454.835	10.67
455.036	10.52
455.238	10.19
455.439	9.88
455.64	9.62
455.841	9.52
456.042	9.73
456.244	9.18
456.445	9.01
456.646	8.78
456.847	8.66
457.048	8.53
457.249	8.61
457.45	8.44
457.651	7.76
457.852	7.7
458.054	7.37
458.255	7.28
458.456	7.35
458.657	7.29
458.858	6.83
459.058	6.71
459.259	6.85
459.46	6.54
459.661	6.54
459.862	6.55
460.063	6.57
460.264	6.35
460.465	6.1
460.666	6.2
460.866	5.84
461.067	5.58
461.268	5.69
461.469	5.55
461.67	5.44
461.87	5.31
462.071	5.26
462.272	5.21
462.473	5.2
462.673	5.37
462.874	5.27
463.075	5.2
463.275	5.21
463.476	5.28
463.676	5.18
463.877	4.96
464.078	5.14
464.278	5.05
464.479	4.94
464.679	4.84
464.88	4.72
465.08	4.7
465.281	4.48
465.481	4.4
465.682	4.24
465.882	4.18
466.083	4.16
466.283	4.01
466.483	3.98
466.684	3.79
466.884	3.69
467.085	3.73
467.285	3.8
467.485	3.65
467.686	3.65
467.886	3.43
468.086	3.39
468.286	3.38
468.487	3.46
468.687	3.31
468.887	3.25
469.087	3.42
469.287	3.29
469.488	3.05
469.688	3.26
469.888	3.26
470.088	3.16
470.288	3.15
470.488	3.06
470.688	2.94
470.888	2.93
471.088	2.72
471.288	2.87
471.488	2.81
471.688	2.8
471.888	2.76
472.088	2.87
472.288	2.74
472.488	2.68
472.688	2.6
472.888	2.68
473.088	2.65
473.288	2.51
473.488	2.51
473.688	2.62
473.887	2.58
474.087	2.46
474.287	2.45
474.487	2.39
474.687	2.49
474.886	2.4
475.086	2.33
475.286	2.33
475.486	2.35
475.685	2.26
475.885	2.24
476.085	2.34
476.284	2.32
476.484	2.31
476.684	2.21
476.883	2.35
477.083	2.18
477.282	2.12
477.482	2.27
477.681	2.17
477.881	2.1
478.08	2.12
478.28	2.06
478.479	2.15
478.679	2.15
478.878	2.08
479.078	2.03
479.277	2.12
479.477	2.12
479.676	2.07
479.875	1.99
480.075	1.96
480.274	2.03
480.473	2.19
480.673	2.08
480.872	2.15
481.071	2.05
481.271	2.07
481.47	2.08
481.669	2.03
481.868	1.96
482.067	2.05
482.267	1.92
482.466	1.97
482.665	1.99
482.864	2.01
483.063	2
483.262	2.04
483.461	2.08
483.661	2.15
483.86	2.03
484.059	2.1
484.258	2.07
484.457	2.06
484.656	2.02
484.855	2.12
485.054	1.95
485.253	2.02
485.452	2
485.651	2.06
485.849	2.01
486.048	2.02
486.247	2.06
486.446	2.12
486.645	2.07
486.844	2.08
487.043	2.09
487.241	2.14
487.44	2.12
487.639	2.14
487.838	2.17
488.037	2.14
488.235	2.25
488.434	2.21
488.633	2.08
488.831	2.24
489.03	2.24
489.229	2.19
489.427	2.23
489.626	2.27
489.825	2.29
490.023	2.33
490.222	2.3
490.42	2.35
490.619	2.39
490.817	2.37
491.016	2.39
491.214	2.41
491.413	2.43
491.611	2.37
491.81	2.4
492.008	2.49
492.207	2.53
492.405	2.53
492.604	2.5
492.802	2.54
493	2.62
493.199	2.62
493.397	2.67
493.595	2.71
493.794	2.67
493.992	2.83
494.19	2.75
494.388	2.86
494.587	2.76
494.785	2.76
494.983	2.72
495.181	2.88
495.379	2.9
495.578	2.97
495.776	2.97
495.974	2.92
496.172	3
496.37	3.12
496.568	3.11
496.766	3.09
496.964	3.21
497.162	3.25
497.36	3.19
497.558	3.23
497.756	3.31
497.954	3.32
498.152	3.34
498.35	3.45
498.548	3.37
498.746	3.4
498.944	3.43
499.142	3.45
499.34	3.52
499.538	3.65
499.736	3.53
499.933	3.65
500.131	3.63
500.329	3.75
500.527	3.77
500.725	3.87
500.922	3.89
501.12	3.88
501.318	3.94
501.516	3.9
501.713	4.05
501.911	3.95
502.109	3.97
502.306	4.08
502.504	3.96
502.701	4.09
502.899	4.16
503.097	4.35
503.294	4.22
503.492	4.33
503.689	4.34
503.887	4.37
504.084	4.44
504.282	4.42
504.479	4.38
504.677	4.6
504.874	4.56
505.072	4.47
505.269	4.7
505.466	4.65
505.664	4.75
505.861	4.65
506.059	4.75
506.256	4.8
506.453	4.86
506.651	4.97
506.848	5
507.045	4.92
507.242	4.99
507.44	5.01
507.637	5.08
507.834	5.03
508.031	5.19
508.229	5.17
508.426	5.11
508.623	5.26
508.82	5.36
509.017	5.29
509.214	5.24
509.411	5.44
509.608	5.4
509.805	5.49
510.003	5.46
510.2	5.49
510.397	5.65
510.594	5.51
510.791	5.62
510.988	5.63
511.184	5.62
511.381	5.52
511.578	5.65
511.775	5.85
511.972	5.77
512.169	5.76
512.366	5.79
512.563	5.92
512.76	5.95
512.956	6.06
513.153	5.92
513.35	5.89
513.547	5.92
513.744	6.07
513.94	6.08
514.137	6.1
514.334	6.14
514.53	6.17
514.727	6.38
514.924	6.29
515.12	6.25
515.317	6.24
515.514	6.21
515.71	6.18
515.907	6.41
516.103	6.43
516.3	6.29
516.497	6.45
516.693	6.51
516.89	6.46
517.086	6.5
517.283	6.56
517.479	6.42
517.676	6.61
517.872	6.63
518.068	6.6
518.265	6.59
518.461	6.59
518.658	6.71
518.854	6.67
519.05	6.76
519.247	6.81
519.443	6.8
519.639	6.91
519.836	6.81
520.032	6.72
520.228	6.92
520.424	6.9
520.621	6.96
520.817	6.94
521.013	6.92
521.209	7.11
521.405	7.11
521.601	7.05
521.798	7.04
521.994	7.03
522.19	7
522.386	7.02
522.582	7.12
522.778	7.24
522.974	7.12
523.17	7.17
523.366	7.11
523.562	7.15
523.758	7.2
523.954	6.96
524.15	7.23
524.346	7.24
524.542	7.3
524.738	7.2
524.934	7.34
525.129	7.24
525.325	7.25
525.521	7.26
525.717	7.51
525.913	7.34
526.109	7.31
526.304	7.42
526.5	7.44
526.696	7.46
526.892	7.37
527.087	7.6
527.283	7.49
527.479	7.52
527.674	7.33
527.87	7.52
528.066	7.52
528.261	7.54
528.457	7.46
528.653	7.58
528.848	7.55
529.044	7.65
529.239	7.53
529.435	7.58
529.63	7.52
529.826	7.56
530.021	7.59
530.217	7.64
530.412	7.57
530.608	7.57
530.803	7.64
530.999	7.53
531.194	7.62
531.389	7.67
531.585	7.7
531.78	7.83
531.975	7.72
532.171	7.73
532.366	7.8
532.561	7.84
532.757	7.67
532.952	7.85
533.147	7.67
533.342	7.72
533.538	7.68
533.733	7.92
533.928	7.57
534.123	7.81
534.318	7.86
534.513	7.73
534.709	7.93
534.904	7.89
535.099	7.91
535.294	7.86
535.489	7.89
535.684	7.83
535.879	7.81
536.074	7.95
536.269	7.96
536.464	7.96
536.659	7.86
536.854	7.82
537.049	7.9
537.244	7.94
537.439	7.85
537.634	7.86
537.828	8.02
538.023	7.94
538.218	7.9
538.413	7.89
538.608	7.97
538.803	7.95
538.997	7.92
539.192	7.93
539.387	7.93
539.582	7.97
539.776	7.87
539.971	7.99
540.166	8.05
540.36	7.96
540.555	8.05
540.75	7.98
540.944	8.02
541.139	8
541.334	7.99
541.528	8.06
541.723	8.13
541.917	8.09
542.112	7.93
542.306	7.86
542.501	7.89
542.695	7.94
542.89	7.94
543.084	8.05
543.279	7.98
543.473	8.04
543.668	8.09
543.862	7.97
544.056	7.91
544.251	8.06
544.445	8.1
544.64	8.08
544.834	7.81
545.028	7.72
545.222	8
545.417	8.27
545.611	8.05
545.805	8.06
546	7.91
546.194	8.07
546.388	8.05
546.582	7.93
546.776	8.04
546.97	8.1
547.165	8.08
547.359	8.06
547.553	8.01
547.747	8
547.941	8.28
548.135	8.03
548.329	8.11
548.523	8.06
548.717	8.05
548.911	8.04
549.105	8.02
549.299	8.09
549.493	8.17
549.687	7.95
549.881	8.14
550.075	8.14
550.269	7.98
550.463	8.12
550.657	8.07
550.85	8.07
551.044	8.09
551.238	8.14
551.432	8.08
551.626	8.11
551.82	8.19
552.013	7.99
552.207	8.17
552.401	8.11
552.594	8.06
552.788	8.08
552.982	8.05
553.176	8.04
553.369	8.26
553.563	8.18
553.756	8.08
553.95	8.17
554.144	8.13
554.337	8.12
554.531	7.95
554.724	8.1
554.918	8.19
555.111	8.04
555.305	8.14
555.498	8.02
555.692	8.17
555.885	8.21
556.079	8.07
556.272	8.12
556.466	8.13
556.659	8.12
556.852	8.22
557.046	8.06
557.239	7.97
557.432	8.04
557.626	8.14
557.819	8.15
558.012	8.15
558.206	8.17
558.399	8.11
558.592	8.09
558.785	8.03
558.979	8.06
559.172	8.13
559.365	8.08
559.558	8.01
559.751	8.02
559.944	8.17
560.138	8.02
560.331	8.12
560.524	8.14
560.717	8.1
560.91	8.07
561.103	8.13
561.296	7.97
561.489	8.18
561.682	8.27
561.875	8.13
562.068	8.18
562.261	8.01
562.454	8.27
562.647	8.04
562.84	8.13
563.032	8.15
563.225	8.03
563.418	8.1
563.611	8.19
563.804	8.18
563.997	7.97
564.19	7.85
564.382	8.18
564.575	8.13
564.768	8.02
564.961	8.14
565.153	8.04
565.346	8.02
565.539	8.15
565.731	8.05
565.924	8.17
566.117	8.18
566.309	8.14
566.502	8.04
566.695	7.97
566.887	8.14
567.08	8.06
567.272	8.12
567.465	7.93
567.657	8.14
567.85	7.99
568.042	8.12
568.235	8.08
568.427	7.9
568.62	8.07
568.812	8.06
569.005	8.13
569.197	8.02
569.389	8.07
569.582	8.1
569.774	8.06
569.966	7.94
570.159	7.88
570.351	7.98
570.543	8.02
570.736	7.99
570.928	7.83
571.12	8.05
571.312	7.94
571.505	7.76
571.697	8.03
571.889	8.01
572.081	8
572.273	7.92
572.465	8.01
572.658	8.05
572.85	8.04
573.042	7.97
573.234	7.94
573.426	8
573.618	7.93
573.81	8.03
574.002	7.97
574.194	8
574.386	7.9
574.578	7.8
574.77	7.93
574.962	7.97
575.154	7.76
575.346	7.92
575.538	7.89
575.729	7.87
575.921	7.9
576.113	7.97
576.305	7.91
576.497	7.99
576.689	7.77
576.88	7.79
577.072	7.96
577.264	7.88
577.456	7.85
577.647	7.82
577.839	7.98
578.031	7.86
578.223	7.76
578.414	7.74
578.606	7.83
578.798	7.91
578.989	7.82
579.181	7.89
579.372	7.86
579.564	7.88
579.755	7.76
579.947	7.69
580.139	7.81
580.33	7.66
580.522	7.82
580.713	7.68
580.905	7.74
581.096	7.89
581.287	7.7
581.479	7.7
581.67	7.8
581.862	7.73
582.053	7.72
582.244	7.62
582.436	7.74
582.627	7.6
582.818	7.67
583.01	7.63
583.201	7.69
583.392	7.63
583.583	7.61
583.775	7.51
583.966	7.63
584.157	7.65
584.348	7.73
584.54	7.64
584.731	7.63
584.922	7.51
585.113	7.45
585.304	7.63
585.495	7.56
585.686	7.64
585.877	7.59
586.068	7.6
586.259	7.61
586.45	7.53
586.641	7.49
586.832	7.57
587.023	7.54
587.214	7.4
587.405	7.48
587.596	7.4
587.787	7.44
587.978	7.46
588.169	7.37
588.36	7.32
588.551	7.46
588.742	7.35
588.932	7.44
589.123	7.2
589.314	7.45
589.505	7.35
589.696	7.36
589.886	7.3
590.077	7.29
590.268	7.22
590.458	7.23
590.649	7.14
590.84	7.32
591.03	7.29
591.221	7.24
591.412	7.1
591.602	7.33
591.793	7.23
591.984	7.29
592.174	7.21
592.365	7.41
592.555	7.13
592.746	7.2
592.936	7.15
593.127	7.18
593.317	7.16
593.508	7.21
593.698	7.1
593.889	7.07
594.079	7.11
594.269	7
594.46	7.04
594.65	7.1
594.84	7.06
595.031	7
595.221	6.96
595.411	7.02
595.602	6.98
595.792	6.96
595.982	6.92
596.172	7.02
596.363	6.87
596.553	6.89
596.743	6.93
596.933	6.9
597.123	6.87
597.314	6.81
597.504	6.77
597.694	6.91
597.884	6.83
598.074	6.87
598.264	6.8
598.454	6.74
598.644	6.75
598.834	6.74
599.024	6.67
599.214	6.71
599.404	6.81
599.594	6.68
599.784	6.6
599.974	6.8
600.164	6.7
600.354	6.6
600.544	6.59
600.734	6.68
600.924	6.63
601.114	6.52
601.303	6.49
601.493	6.58
601.683	6.61
601.873	6.58
602.063	6.46
602.252	6.52
602.442	6.43
602.632	6.44
602.821	6.39
603.011	6.49
603.201	6.42
603.39	6.45
603.58	6.29
603.77	6.47
603.959	6.45
604.149	6.37
604.339	6.31
604.528	6.44
604.718	6.36
604.907	6.29
605.097	6.19
605.286	6.24
605.476	6.29
605.665	6.23
605.855	6.2
606.044	6.31
606.234	6.23
606.423	6.17
606.612	6.15
606.802	6.08
606.991	6.14
607.181	6.18
607.37	6.13
607.559	5.93
607.749	6.14
607.938	6.01
608.127	6.06
608.316	6.07
608.506	5.94
608.695	6.07
608.884	5.96
609.073	6.01
609.263	6.03
609.452	5.98
609.641	5.93
609.83	5.8
610.019	5.92
610.208	5.82
610.397	5.91
610.586	5.87
610.775	5.87
610.965	5.81
611.154	5.69
611.343	5.82
611.532	5.69
611.721	5.85
611.91	5.69
612.099	5.77
612.287	5.59
612.476	5.54
612.665	5.65
612.854	5.58
613.043	5.64
613.232	5.68
613.421	5.46
613.61	5.58
613.798	5.56
613.987	5.51
614.176	5.49
614.365	5.56
614.554	5.52
614.742	5.56
614.931	5.39
615.12	5.52
615.309	5.5
615.497	5.34
615.686	5.33
615.875	5.37
616.063	5.38
616.252	5.32
616.44	5.4
616.629	5.35
616.818	5.35
617.006	5.31
617.195	5.17
617.383	5.25
617.572	5.2
617.76	5.21
617.949	5.19
618.137	5.21
618.326	5.22
618.514	5.05
618.703	5.01
618.891	5.25
619.079	5.1
619.268	5.17
619.456	5.02
619.644	5.11
619.833	5.03
620.021	5
620.209	4.91
620.398	4.97
620.586	4.85
620.774	4.91
620.962	4.92
621.151	5.03
621.339	4.9
621.527	4.87
621.715	4.81
621.903	4.9
622.092	4.81
622.28	4.86
622.468	4.69
622.656	4.78
622.844	4.74
623.032	4.83
623.22	4.65
623.408	4.86
623.596	4.83
623.784	4.79
623.972	4.63
624.16	4.57
624.348	4.76
624.536	4.76
624.724	4.59
624.912	4.68
625.1	4.62
625.288	4.61
625.476	4.55
625.664	4.64
625.851	4.51
626.039	4.51
626.227	4.48
626.415	4.46
626.603	4.34
626.79	4.48
626.978	4.46
627.166	4.5
627.354	4.39
627.541	4.38
627.729	4.22
627.917	4.49
628.104	4.41
628.292	4.3
628.48	4.33
628.667	4.31
628.855	4.33
629.042	4.33
629.23	4.2
629.418	4.25
629.605	4.24
629.793	4.23
629.98	4.18
630.168	4.14
630.355	4.11
630.543	4.13
630.73	4.12
630.917	4.14
631.105	4.19
631.292	4.09
631.48	4.09
631.667	4.17
631.854	4.02
632.042	3.99
632.229	3.97
632.416	4.06
632.604	4
632.791	3.88
632.978	3.98
633.165	3.96
633.353	4.02
633.54	3.96
633.727	3.77
633.914	3.84
634.101	3.86
634.289	3.94
634.476	3.76
634.663	3.8
634.85	3.75
635.037	3.75
635.224	3.7
635.411	3.84
635.598	3.71
635.785	3.74
635.972	3.66
636.159	3.73
636.346	3.67
636.533	3.69
636.72	3.69
636.907	3.61
637.094	3.61
637.281	3.52
637.468	3.61
637.655	3.56
637.842	3.63
638.029	3.52
638.215	3.51
638.402	3.59
638.589	3.46
638.776	3.49
638.963	3.43
639.149	3.51
639.336	3.54
639.523	3.41
639.709	3.47
639.896	3.33
640.083	3.36
640.27	3.47
640.456	3.36
640.643	3.38
640.829	3.27
641.016	3.29
641.203	3.25
641.389	3.36
641.576	3.31
641.762	3.25
641.949	3.25
642.135	3.21
642.322	3.17
642.508	3.14
642.695	3.21
642.881	3.15
643.068	3.13
643.254	3.17
643.441	3.19
643.627	3.19
643.813	3.02
644	3.18
644.186	3.06
644.372	3.11
644.559	3.09
644.745	3.09
644.931	2.96
645.118	3
645.304	3.04
645.49	2.96
645.676	2.95
645.862	2.96
646.049	3.08
646.235	2.97
646.421	3.06
646.607	3.02
646.793	2.89
646.979	2.83
647.165	2.89
647.352	2.92
647.538	2.92
647.724	2.88
647.91	2.81
648.096	2.86
648.282	2.8
648.468	2.78
648.654	2.76
648.84	2.79
649.026	2.74
649.212	2.71
649.397	2.71
649.583	2.71
649.769	2.71
649.955	2.69
650.141	2.73
650.327	2.73
650.513	2.63
650.698	2.68
650.884	2.56
651.07	2.73
651.256	2.68
651.442	2.62
651.627	2.56
651.813	2.64
651.999	2.57
652.184	2.6
652.37	2.53
652.556	2.56
652.741	2.63
652.927	2.46
653.113	2.48
653.298	2.56
653.484	2.47
653.669	2.48
653.855	2.44
654.04	2.5
654.226	2.49
654.412	2.46
654.597	2.3
654.782	2.46
654.968	2.48
655.153	2.35
655.339	2.37
655.524	2.33
655.71	2.42
655.895	2.36
656.08	2.37
656.266	2.37
656.451	2.31
656.636	2.24
656.822	2.31
657.007	2.28
657.192	2.28
657.378	2.23
657.563	2.21
657.748	2.29
657.933	2.28
658.118	2.11
658.304	2.25
658.489	2.3
658.674	2.26
658.859	2.19
659.044	2.18
659.229	2.23
659.414	2.16
659.599	2.17
659.785	2.09
659.97	2.13
660.155	2.18
660.34	2.12
660.525	2.05
660.71	2.07
660.895	2.12
661.08	2.05
661.264	1.93
661.449	2.14
661.634	2.11
661.819	2.09
662.004	2.03
662.189	1.96
662.374	1.96
662.559	1.96
662.743	2
662.928	1.99
663.113	1.96
663.298	1.91
663.483	1.96
663.667	1.93
663.852	1.92
664.037	2.03
664.221	1.91
664.406	2.01
664.591	1.98
664.775	1.91
664.96	1.9
665.145	1.91
665.329	1.93
665.514	1.9
665.698	1.77
665.883	1.77
666.068	1.92
666.252	1.87
666.437	1.76
666.621	1.88
666.806	1.84
666.99	1.79
667.174	1.75
667.359	1.86
667.543	1.81
667.728	1.77
667.912	1.67
668.096	1.69
668.281	1.69
668.465	1.74
668.649	1.72
668.834	1.7
669.018	1.73
669.202	1.7
669.387	1.68
669.571	1.78
669.755	1.66
669.939	1.71
670.124	1.69
670.308	1.67
670.492	1.68
670.676	1.66
670.86	1.66
671.044	1.59
671.228	1.7
671.413	1.59
671.597	1.57
671.781	1.61
671.965	1.6
672.149	1.56
672.333	1.6
672.517	1.56
672.701	1.62
672.885	1.57
673.069	1.5
673.253	1.64
673.437	1.53
673.621	1.54
673.804	1.54
673.988	1.57
674.172	1.54
674.356	1.41
674.54	1.49
674.724	1.63
674.908	1.51
675.091	1.52
675.275	1.43
675.459	1.53
675.643	1.44
675.826	1.49
676.01	1.45
676.194	1.5
676.377	1.53
676.561	1.49
676.745	1.48
676.928	1.47
677.112	1.48
677.296	1.42
677.479	1.44
677.663	1.37
677.846	1.49
678.03	1.4
678.213	1.32
678.397	1.38
678.58	1.41
678.764	1.32
678.947	1.3
679.131	1.42
679.314	1.4
679.498	1.39
679.681	1.36
679.865	1.38
680.048	1.28
680.231	1.32
680.415	1.26
680.598	1.32
680.781	1.3
680.965	1.34
681.148	1.25
681.331	1.26
681.514	1.32
681.698	1.23
681.881	1.27
682.064	1.26
682.247	1.32
682.43	1.11
682.614	1.26
682.797	1.3
682.98	1.28
683.163	1.17
683.346	1.19
683.529	1.22
683.712	1.17
683.895	1.23
684.078	1.11
684.261	1.21
684.444	1.24
684.627	1.28
684.81	1.16
684.993	1.16
685.176	1.27
685.359	1.09
685.542	1.16
685.725	1.26
685.908	1.15
686.091	1.14
686.274	1.19
686.457	1.16
686.639	1.14
686.822	1.15
687.005	1.1
687.188	1.17
687.371	1.24
687.553	1.17
687.736	1.12
687.919	1.25
688.102	1.23
688.284	1.06
688.467	1.1
688.65	1.05
688.832	1
689.015	1.08
689.197	1.06
689.38	1.17
689.563	1.21
689.745	1
689.928	0.99
690.11	1.06
690.293	1.09
690.475	0.95
690.658	1.04
690.84	1.05
691.023	1.04
691.205	0.94
691.388	1.04
691.57	1.07
691.752	1.14
691.935	0.86
692.117	0.96
692.3	1.03
692.482	0.96
692.664	0.93
692.847	1.03
693.029	1.08
693.211	1.03
693.393	0.95
693.576	0.89
693.758	0.98
693.94	0.97
694.122	0.95
694.304	0.93
694.487	0.95
694.669	1
694.851	0.87
695.033	0.91
695.215	0.9
695.397	0.88
695.579	0.95
695.761	0.88
695.943	0.81
696.125	1
696.308	0.93
696.49	0.79
696.671	1.08
696.853	0.9
697.035	1.12
697.217	0.89
697.399	1
697.581	0.86
697.763	0.92
697.945	0.8
698.127	0.88
698.309	0.91
698.491	0.89
698.672	0.95
698.854	0.94
699.036	0.93
699.218	0.83
699.399	0.9
699.581	0.87
699.763	0.86
699.945	0.77
700.126	0.76
700.308	0.87
700.49	0.83
700.671	0.75
700.853	0.83
701.035	0.82
701.216	0.81
701.398	0.76
701.579	0.79
701.761	0.88
701.943	0.79
702.124	0.78
702.306	0.8
702.487	0.99
702.669	0.75
702.85	0.75
703.031	0.73
703.213	0.9
703.394	0.92
703.576	0.74
703.757	0.89
703.938	0.89
704.12	0.95
704.301	0.79
704.483	0.71
704.664	0.84
704.845	0.9
705.026	0.83
705.208	0.72
705.389	0.82
705.57	0.79
705.751	0.75
705.933	0.84
706.114	0.83
706.295	0.74
706.476	0.68
706.657	0.82
706.838	0.87
707.02	0.82
707.201	0.64
707.382	0.79
707.563	0.8
707.744	0.73
707.925	0.62
708.106	0.65
708.287	0.71
708.468	0.85
708.649	0.7
708.83	0.76
709.011	0.61
709.192	0.75
709.373	0.62
709.554	0.67
709.734	0.79
709.915	0.79
710.096	0.66
710.277	0.61
710.458	0.74
710.639	0.83
710.819	0.6
711	0.63
711.181	0.75
711.362	0.76
711.542	0.66
711.723	0.63
711.904	0.76
712.085	0.69
712.265	0.62
712.446	0.61
712.627	0.65
712.807	0.77
712.988	0.68
713.168	0.5
713.349	0.73
713.53	0.59
713.71	0.6
713.891	0.5
714.071	0.65
714.252	0.6
714.432	0.59
714.613	0.54
714.793	0.65
714.974	0.7
715.154	0.72
715.334	0.65
715.515	0.76
715.695	0.58
715.876	0.6
716.056	0.55
716.236	0.58
716.417	0.55
716.597	0.54
716.777	0.87
716.957	0.62
717.138	0.66
717.318	0.6
717.498	0.52
717.678	0.67
717.859	0.58
718.039	0.47
718.219	0.61
718.399	0.59
718.579	0.51
718.759	0.52
718.939	0.64
719.12	0.62
719.3	0.59
719.48	0.49
719.66	0.42
719.84	0.73
720.02	0.6
720.2	0.51
720.38	0.54
720.56	0.8
720.74	0.46
720.92	0.52
721.1	0.73
721.279	0.69
721.459	0.57
721.639	0.49
721.819	0.55
721.999	0.55
722.179	0.61
722.359	0.49
722.538	0.52
722.718	0.59
722.898	0.44
723.078	0.47
723.257	0.54
723.437	0.58
723.617	0.62
723.797	0.47
723.976	0.63
724.156	0.58
724.336	0.73
724.515	0.72
724.695	0.37
724.874	0.56
725.054	0.65
725.234	0.51
725.413	0.53
725.593	0.52
725.772	0.53
725.952	0.57
726.131	0.55
726.311	0.44
726.49	0.63
726.67	0.45
726.849	0.56
727.028	0.58
727.208	0.5
727.387	0.66
727.567	0.36
727.746	0.53
727.925	0.53
728.105	0.36
728.284	0.44
728.463	0.49
728.643	0.6
728.822	0.39
729.001	0.56
729.18	0.44
729.359	0.68
729.539	0.49
729.718	0.52
729.897	0.59
730.076	0.51
730.255	0.46
730.434	0.5
730.614	0.62
730.793	0.62
730.972	0.47
731.151	0.45
731.33	0.61
731.509	0.6
731.688	0.47
731.867	0.5
732.046	0.29
732.225	0.7
732.404	0.45
732.583	0.36
732.762	0.49
732.941	0.53
733.12	0.59
733.298	0.45
733.477	0.64
733.656	0.47
733.835	0.45
734.014	0.53
734.193	0.59
734.371	0.5
734.55	0.52
734.729	0.45
734.908	0.53
735.086	0.48
735.265	0.7
735.444	0.39
735.623	0.36
735.801	0.52
735.98	0.41
736.159	0.5
736.337	0.55
736.516	0.64
736.694	0.54
736.873	0.29
737.052	0.81
737.23	0.61
737.409	0.37
737.587	0.75
737.766	0.3
737.944	0.5
738.123	0.55
738.301	0.54
738.479	0.52
738.658	0.56
738.836	0.34
739.015	0.59
739.193	0.6
739.371	0.42
739.55	0.46
739.728	0.33
739.906	0.62
740.085	0.69
740.263	0.55
740.441	0.24
740.62	0.74
740.798	0.67
740.976	0.44
741.154	0.3
741.332	0.81
741.511	0.37
741.689	0.5
741.867	0.61
742.045	0.52
742.223	0.54
742.401	0.32
742.579	0.39
742.757	0.57
742.935	0.26
743.114	0.34
743.292	0.4
743.47	0.48
743.648	0.51
743.826	0.49
744.004	0.51
744.181	0.65
744.359	0.49
744.537	0.52
744.715	0.42
744.893	0.54
745.071	0.53
745.249	0.43
745.427	0.49
745.605	0.49
745.782	0.49
745.96	0.59
746.138	0.51
746.316	0.59
746.493	0.31
746.671	0.43
746.849	0.41
747.027	0.7
747.204	0.37
747.382	0.49
747.56	0.34
747.737	0.45
747.915	0.37
748.093	0.52
748.27	0.42
748.448	0.42
748.625	0.28
748.803	0.34
748.98	0.38
749.158	0.5
749.335	0.57
749.513	0.37
749.69	0.42
749.868	0.4
750.045	0.48
750.223	0.38
750.4	0.17
750.578	0.65
750.755	0.51
750.932	0.32
751.11	0.54
751.287	0.36
751.464	0.56
751.642	0.28
751.819	0.43
751.996	0.44
752.173	0.44
752.351	0.29
752.528	0.38
752.705	0.36
752.882	0.39
753.06	0.38
753.237	0.49
753.414	0.73
753.591	0.65
753.768	0.4
753.945	0.36
754.122	0.4
754.299	0.48
754.476	0.31
754.654	0.39
754.831	0.5
755.008	0.43
755.185	0.3
755.362	0.27
755.539	0.4
755.716	0.36
755.892	0.41
756.069	0.32
756.246	0.38
756.423	0.36
756.6	0.55
756.777	0.24
756.954	0.58
757.131	0.4
757.307	0.24
757.484	0.26
757.661	0.46
757.838	0.39
758.015	0.25
758.191	0.36
758.368	0.59
758.545	0.54
758.721	0.5
758.898	0.22
759.075	0.45
759.251	0.47
759.428	0.39
759.605	0.23
759.781	0.5
759.958	0.47
760.134	0.38
760.311	0.24
760.488	0.57
760.664	0.65
760.841	0.38
761.017	0.2
761.194	0.49
761.37	0.53
761.547	0.41
761.723	0.4
761.899	0.54
762.076	0.38
762.252	0.32
762.429	0.39
762.605	0.62
762.781	0.33
762.958	0.48
763.134	0.27
763.31	0.26
763.486	0.63
763.663	0.16
763.839	0.45
764.015	0.24
764.191	0.4
764.368	0.37
764.544	0.37
764.72	0.42
764.896	0.5
765.072	0.51
765.248	0.33
765.425	0.37
765.601	0.44
765.777	0.39
765.953	0.15
766.129	0.16
766.305	0.32
766.481	0.49
766.657	0.26
766.833	0.57
767.009	0.22
767.185	0.31
767.361	0.25
767.537	0.24
767.713	0.66
767.889	0.31
768.065	0.38
768.24	0.44
768.416	0.5
768.592	0.45
768.768	0.36
768.944	0.41
769.12	0.3
769.295	0.39
769.471	0.32
769.647	0.29
769.823	0.56
769.998	0.38
770.174	0.3
770.35	0.87
770.525	0.72
770.701	0.5
770.877	0.36
771.052	0.36
771.228	0.62
771.403	0.48
771.579	0.38
771.755	0.69
771.93	0.43
772.106	0.23
772.281	0.16
772.457	0.39
772.632	0.41
772.808	0.27
772.983	0.29
773.159	0.2
773.334	0.64
773.509	0.35
773.685	0.14
773.86	0.88
774.036	0.55
774.211	0.45
774.386	0.36
774.562	0.47
774.737	0.67
774.912	0.35
775.087	0.51
775.263	0.41
775.438	0.52
775.613	0.33
775.788	0.3
775.964	0.73
776.139	0.91
776.314	0.19
776.489	0.34
776.664	0.47
776.839	0.25
777.014	0.49
777.19	0.49
777.365	0.7
777.54	0.77
777.715	0.3
777.89	0.34
778.065	0.28
778.24	0.4
778.415	0.4
778.59	0.15
778.765	0.36
778.94	0.61
779.115	0.52
779.289	0.44
779.464	0.42
779.639	0.32
779.814	0.24
779.989	0.14
780.164	0.78
780.339	0.41
780.513	0.34
780.688	0.17
780.863	0.61
781.038	0.57
781.212	0.21
781.387	0.36
781.562	0.81
781.737	0.25
781.911	0.65
782.086	0.29
782.261	0.38
782.435	0.83
782.61	0.27
782.784	0.41
782.959	0.63
783.134	0.23
783.308	0.23
783.483	0.38
783.657	1.1
783.832	0.67
784.006	0.19
784.181	0.45
784.355	0.57
784.53	0.33
784.704	0.33
784.878	0.74
785.053	0.52
785.227	0.71
785.402	0.97
785.576	0.24
785.75	0.75
785.925	0.34
786.099	0.38
786.273	0.58
786.448	0.65
786.622	0.8
786.796	0.34
786.97	0.33
787.145	1.19
787.319	0.25
787.493	0.39
787.667	0.03
787.841	0.41
788.015	0.78
788.19	0.34
788.364	0.37
788.538	0.78
788.712	0.75
788.886	0.47
789.06	0.79
789.234	0.77
789.408	0.14
789.582	0.43
789.756	0.42
789.93	0.42
790.104	0.51
790.278	0.49
790.452	0.26
790.626	0.6
790.8	0.44
790.973	0.59
791.147	0.89
791.321	0.96
791.495	0.87
791.669	0.49
791.843	0.52
792.016	0.63
792.19	1.01
792.364	0.38
792.538	1.21
792.711	0.85
792.885	0.55
793.059	0.4
793.233	-0.06
793.406	0.77
793.58	0.31
793.754	0.46
793.927	0.39
794.101	0.79
794.274	0.3
794.448	0.76
794.622	0.11
794.795	0.86
794.969	0.36
795.142	0.79
795.316	0.22
795.489	0.31
795.663	0.96
795.836	0.39
796.009	0.41
796.183	0.75
796.356	0.72
796.53	0.49
796.703	0.53
796.876	1.21
797.05	0.64
797.223	0.29
797.396	0.27
797.57	0.57
797.743	1.01
797.916	0.72
798.09	0.42
798.263	0.76
798.436	0.73
798.609	0.22
798.782	0.47
798.956	0.71
799.129	0.56
799.302	0.5
799.475	0.37
799.648	0.45
799.821	0.4
799.994	0.35
800.167	0.12
800.34	0.67
800.514	0.66
800.687	0.22
800.86	0.43
801.033	0.77
801.206	0.64
801.379	0.37
801.551	1.12
801.724	0.84
801.897	1.14
802.07	0.47
802.243	0.08
802.416	0.32
802.589	0.25
802.762	0.76
802.935	0.49
803.107	0.83
803.28	1.28
803.453	0.58
803.626	0.46
803.798	0.58
803.971	0.67
804.144	0.73
804.317	0.96
804.489	1.17
804.662	0.53
804.835	0.46
805.007	0.5
805.18	1.34
805.353	0.66
805.525	0.34
805.698	0.47
805.87	0.86
806.043	1.09
806.215	0.32
806.388	0.32
806.56	1.06
806.733	1.19
806.905	0.76
807.078	0.46
807.25	0.5
807.423	1.12
807.595	0.82
807.768	0.66
807.94	0.86
808.112	1.01
808.285	1.08
808.457	0.47
808.629	0.81
808.802	0.84
808.974	0.64
809.146	0.23
809.318	0.52
809.491	0.98
809.663	1.12
809.835	0.38
810.007	0.68
810.18	0.78
810.352	-0.04
810.524	0.35
810.696	0.9
810.868	1.07
811.04	0.65
811.212	0.38
811.384	0.98
811.556	0.64
811.728	0.53
811.901	1.83
812.073	0.59
812.245	1.41
812.417	0.59
812.589	0.14
812.76	0.61
812.932	0.82
813.104	0.97
813.276	0.66
813.448	1.09
813.62	1.05
813.792	0.68
813.964	0.6
814.136	0.92
814.307	0.63
814.479	0.15
814.651	0.59
814.823	1.75
814.995	0.51
815.166	1.05
815.338	0.09
815.51	0.21
815.681	1.49
815.853	0.86
816.025	0.47
816.196	1.41
816.368	1.11
816.54	0.48
816.711	0.62
816.883	0.95
817.054	2.24
817.226	0.12
817.398	0.88
817.569	0.37
817.741	1.16
817.912	0.71
818.084	0.62
818.255	1.42
818.426	0.51
818.598	0.83
818.769	0.26
818.941	1.3
819.112	1.62
819.283	1.31
819.455	0.28
819.626	0.51
819.798	1.18
819.969	0.68
820.14	0.39
820.311	0.53
820.483	1.06
820.654	1.06
820.825	0.77
820.996	0.7
821.168	0.16
821.339	0.88
821.51	0.08
821.681	0.7
821.852	0.82
822.023	0.16
822.195	-0.29
822.366	1.36
822.537	0.99
822.708	0.98
822.879	0.37
823.05	1.51
823.221	1.06
823.392	0.84
823.563	0.9
823.734	1.16
823.905	0.7
824.076	0.16
824.247	0.16
824.418	0.95
824.589	1.73
824.759	0.98
824.93	0.86
825.101	-0.16
825.272	1.69
825.443	1.68
825.614	1.24
825.784	-0.1
825.955	2.35
826.126	1.2
826.297	1.17
826.467	2.09
826.638	1.47
826.809	0.47
826.98	0.67
827.15	1.45
827.321	1.02
827.492	1.4
827.662	1.1
827.833	2.72
828.003	1.41
828.174	-0.15
828.345	0.09
828.515	1.85
828.686	1.06
828.856	0.87
829.027	0.8
829.197	1.46
829.368	1.57
829.538	0.77
829.709	0.87
829.879	0.67
830.049	0.91
830.22	0.28
830.39	0.85
830.56	1.76
830.731	0.93
830.901	0.32
831.072	0.76
831.242	1.95
831.412	1.51
831.582	0.83
831.753	0.3
831.923	2.13
832.093	1.63
832.263	1.27
832.434	-0.12
832.604	0.55
832.774	1.49
832.944	0.46
833.114	0.67
833.284	1.92
833.454	0.26
833.624	0.36
833.795	0.7
833.965	2.58
834.135	2.27
834.305	-0.71
834.475	-0.11
834.645	1.33
834.815	1.27
834.985	0.14
835.155	0.57
835.325	1.62
835.494	1.84
835.664	0.61
835.834	0.67
836.004	1.03
836.174	1.51
836.344	0.57
836.514	-0.57
836.684	0.26
836.853	1.58
837.023	1.14
837.193	0.23
837.363	2.46
837.532	2.22
837.702	0.75
837.872	0.6
838.041	1.78
838.211	2.48
838.381	-0.49
838.55	1.27
838.72	3.92
838.89	2.17
839.059	0.63
839.229	0.35
839.398	2.64
839.568	1.32
839.738	0.66
839.907	1.76
840.077	1.33
840.246	0.59
840.416	0.28
840.585	0.29
840.755	2.99
840.924	2.65
841.093	0.26
841.263	0.7
841.432	1.07
841.602	0.72
841.771	0.92
841.94	0.79
842.11	2.84
842.279	2.18
842.448	0.51
842.617	0.83
842.787	2.57
842.956	0.07
843.125	0.66
843.294	1.67
843.464	2.47
843.633	1.37
843.802	0.3
843.971	1.43
844.14	2.15
844.309	2.61
844.479	-0.52
844.648	0.6
844.817	1.33
844.986	1.61
845.155	1.25
845.324	0.83
845.493	1.67
845.662	0.32
845.831	1.96
846	2.04
846.169	1.71
846.338	2.54
846.507	1.27
846.676	1.07
846.844	1.17
847.013	1.39
847.182	1.35
847.351	0.44
847.52	0.66
847.689	1.43
847.858	0.87
848.026	0.68
848.195	1.28
848.364	0.83
848.533	0.45
848.701	-0.06
848.87	1.9
849.039	2.37
849.207	2.14
849.376	3.09
849.545	3.75
849.713	0.84
849.882	1.28
850.051	0.73
850.219	1.82
850.388	2.98
850.556	0.57
850.725	0.53
850.893	1.33
851.062	1.42
851.23	1.9
851.399	-0.76
851.567	1.35
851.736	0.98
851.904	-0.07
852.073	1.65
852.241	2.44
852.41	1.39
852.578	0.84
852.746	0.27
852.915	2.71
853.083	2.18
853.251	-0.34
853.42	-0.39
853.588	2.04
853.756	3.38
853.924	1.46
854.093	1.41
854.261	1.01
854.429	-0.29
854.597	3.06
854.765	0.9
854.934	1.77
855.102	2.87
855.27	1.42
855.438	2.44
855.606	3.35
855.774	3.29
855.942	0.09
856.11	-0.39
856.278	1.71
856.446	2.69
856.614	2.26
856.782	0.33
856.95	2.39
857.118	2.7
857.286	2.71
857.454	0.85
857.622	2.66
857.79	2.56
857.958	-0.6
858.126	1.24
858.294	-0.7
858.462	1.44
858.629	0.87
858.797	0.73
858.965	1.84
859.133	3.17
859.301	1.2
859.468	0.96
859.636	0.38
859.804	4.84
859.971	3
860.139	1.59
860.307	4.42
860.474	2.38
860.642	-0.08
860.81	1.39
860.977	1.99
861.145	3.4
861.313	0.89
861.48	1.77
861.648	3.35
861.815	1.51
861.983	-0.6
862.15	1.04
862.318	2.97
862.485	3.7
862.653	1.58
862.82	1.54
862.988	4.17
863.155	3.72
863.322	1.33
863.49	0.54
863.657	1.98
863.824	4.75
863.992	1.73
864.159	3.13
864.326	3.95
864.494	1.43
864.661	3.78
864.828	1.45
864.996	3.52
865.163	3.8
865.33	1.34
865.497	-1.05
865.664	1.35
865.832	-0.05
865.999	1.5
866.166	0.01
866.333	2.65
866.5	0.11
866.667	1.95
866.834	2.27
867.001	4.25
867.168	-0.14
867.335	1.05
867.502	0.08
867.669	2.23
867.836	5.36
868.003	1.52
868.17	5.25
868.337	5.14
868.504	5.62
868.671	-0.29
868.838	2.79
869.005	4.61
869.172	3.48
869.339	2.24
869.505	2.34
869.672	3.14
869.839	4.05
870.006	1.19
870.173	-0.04
870.339	3.15
870.506	4.68
870.673	1.7
870.84	3.72
871.006	3.8
871.173	2.1
871.34	2.53
871.506	-0.52
871.673	3.21
871.839	0.27
872.006	2.53
872.173	1.01
872.339	3.11
872.506	2.21
872.672	3.15
872.839	-1.54
873.005	3.81
873.172	3.91
873.338	3.4
873.505	2.44
873.671	2.65
873.838	2.74
874.004	-1.45
874.171	0.1
874.337	4.5
874.503	5.27
874.67	0.68
874.836	2.98
875.002	5.59
875.169	4.46
875.335	1.86
875.501	1.84
875.668	3.48
875.834	2.56
876	1.4
876.166	2.93
876.332	4.21
876.499	6.24
876.665	1.7
876.831	2.73
876.997	7.52
877.163	2.49
877.329	1.2
877.495	2.76
877.662	1.57
877.828	4.19
877.994	1.5
878.16	-0.32
878.326	2.82
878.492	4.05
878.658	0.96
878.824	2.44
878.99	3.73
879.156	0.18
879.322	5.11
879.487	2.03
879.653	4.09
879.819	3.55
879.985	0.38
880.151	1.97
880.317	2.48
880.483	2.46
880.648	2.46
880.814	0.42
880.98	3.61
881.146	-0.29
881.312	0.16
881.477	0.41
881.643	3.15
881.809	4.51
881.974	3.77
882.14	-0.83
882.306	1.24
882.471	7.26
882.637	0.76
882.803	1.74
882.968	6.97
883.134	6.78
883.299	1.49
883.465	1.19
883.63	3.52
883.796	3.98
883.961	4.79
884.127	3.38
884.292	-1.88
884.458	-1.02
884.623	-1.02
