Data from Apollo_Calib_20240827__AbsoluteIrradiance__802__12-31-00-533.txt Node

Date: Wed Aug 28 12:31:00 BST 2024
User: biology
Spectrometer: FLMT08252
Trigger mode: 0
Integration Time (sec): 5.000000E-1
Scans to average: 5
Electric dark correction enabled: true
Nonlinearity correction enabled: false
Boxcar width: 0
XAxis mode: Wavelengths
Number of Pixels in Spectrum: 3648
>>>>>Begin Spectral Data<<<<<
179.588	-0
179.809	-0
180.03	-0
180.251	-0
180.473	-0
180.694	0
180.915	0
181.136	-0
181.357	0
181.578	-0
181.799	0
182.02	-0
182.241	-0
182.462	-0
182.683	0
182.904	-0
183.125	-0
183.346	0
183.567	0
183.788	0
184.009	0
184.23	0
184.451	0
184.672	0
184.892	0
185.113	0
185.334	0
185.555	0
185.776	0
185.996	0
186.217	0
186.438	0
186.659	0
186.879	0
187.1	0
187.321	0
187.541	0
187.762	0
187.983	0
188.203	0
188.424	0
188.644	0
188.865	0
189.086	0
189.306	0
189.527	0
189.747	0
189.968	0
190.188	0
190.409	0
190.629	0
190.849	0
191.07	0
191.29	0
191.511	0
191.731	0
191.951	0
192.172	0
192.392	0
192.612	0
192.833	0
193.053	0
193.273	0
193.493	0
193.714	0
193.934	0
194.154	0
194.374	0
194.594	0
194.815	0
195.035	0
195.255	0
195.475	0
195.695	0
195.915	0
196.135	0
196.355	0
196.575	0
196.795	0
197.015	0
197.235	0
197.455	0
197.675	0
197.895	0
198.115	0
198.335	0
198.555	0
198.775	0
198.995	0
199.214	0
199.434	0
199.654	0
199.874	0
200.094	3.82
200.313	2.26
200.533	2.09
200.753	1.69
200.973	3.47
201.192	3.32
201.412	1.39
201.632	2.06
201.851	3.4
202.071	2.03
202.291	1.66
202.51	1.3
202.73	2.67
202.95	1.45
203.169	1.14
203.389	1.74
203.608	2.09
203.828	1.44
204.047	1.58
204.267	2.62
204.486	2.03
204.706	2.11
204.925	1.89
205.145	1.67
205.364	2.42
205.583	2.62
205.803	1.12
206.022	1.07
206.242	1.91
206.461	1.47
206.68	1.34
206.9	1.72
207.119	2.45
207.338	2.24
207.557	1.27
207.777	1.18
207.996	1.4
208.215	2.15
208.434	0.96
208.654	0.98
208.873	1.33
209.092	2.18
209.311	1.34
209.53	1.24
209.749	1.23
209.968	1.29
210.187	0.92
210.407	0.61
210.626	1.01
210.845	1.68
211.064	1.23
211.283	0.91
211.502	1.55
211.721	1.2
211.94	1.2
212.159	1.2
212.377	1.35
212.596	1.69
212.815	1.17
213.034	1.19
213.253	1.28
213.472	1.33
213.691	1.35
213.91	0.82
214.128	0.98
214.347	1.64
214.566	0.42
214.785	0.52
215.003	1.46
215.222	1.18
215.441	0.67
215.66	0.47
215.878	0.93
216.097	1.35
216.316	0.78
216.534	0.94
216.753	1
216.972	0.76
217.19	0.8
217.409	0.54
217.627	0.96
217.846	1
218.064	0.94
218.283	0.71
218.501	1.4
218.72	1.15
218.938	0.67
219.157	0.7
219.375	1.06
219.594	0.94
219.812	0.48
220.031	0.55
220.249	1.21
220.467	1.18
220.686	0.58
220.904	0.37
221.122	0.72
221.341	1.31
221.559	0.74
221.777	0.5
221.995	0.74
222.214	1
222.432	0.58
222.65	0.76
222.868	0.8
223.086	0.87
223.305	0.82
223.523	0.57
223.741	1.08
223.959	0.76
224.177	0.33
224.395	0.56
224.613	0.92
224.831	0.99
225.049	0.43
225.267	0.53
225.485	0.76
225.703	0.65
225.921	0.65
226.139	0.42
226.357	0.95
226.575	0.78
226.793	0.52
227.011	1.57
227.229	0.85
227.447	0.87
227.665	0.48
227.883	0.44
228.1	0.68
228.318	0.76
228.536	0.36
228.754	0.39
228.972	0.72
229.189	0.84
229.407	0.53
229.625	0.52
229.843	0.68
230.06	0.78
230.278	0.49
230.496	0.6
230.713	0.71
230.931	0.73
231.149	0.49
231.366	0.3
231.584	0.46
231.801	1
232.019	0.56
232.236	0.4
232.454	0.47
232.671	0.69
232.889	0.5
233.106	0.38
233.324	0.51
233.541	0.49
233.759	0.51
233.976	0.53
234.194	0.55
234.411	0.54
234.628	0.49
234.846	0.48
235.063	0.52
235.28	0.63
235.498	0.52
235.715	0.4
235.932	0.82
236.149	0.46
236.367	0.43
236.584	0.57
236.801	0.49
237.018	0.75
237.236	0.62
237.453	0.38
237.67	0.64
237.887	0.56
238.104	0.43
238.321	0.41
238.538	0.4
238.755	0.63
238.973	0.24
239.19	0.48
239.407	0.56
239.624	0.59
239.841	0.37
240.058	0.35
240.275	0.51
240.492	0.53
240.709	0.29
240.925	0.39
241.142	0.57
241.359	0.33
241.576	0.35
241.793	0.36
242.01	0.51
242.227	0.73
242.444	0.46
242.66	0.58
242.877	0.56
243.094	0.32
243.311	0.46
243.527	0.39
243.744	0.56
243.961	0.54
244.178	0.51
244.394	0.38
244.611	0.6
244.828	0.66
245.044	0.32
245.261	0.35
245.477	0.53
245.694	0.66
245.911	0.27
246.127	0.46
246.344	0.6
246.56	0.49
246.777	0.26
246.993	0.37
247.21	0.54
247.426	0.44
247.643	0.36
247.859	0.38
248.076	0.36
248.292	0.57
248.508	0.38
248.725	0.46
248.941	0.44
249.157	0.63
249.374	0.35
249.59	0.4
249.806	0.41
250.023	0.49
250.239	0.25
250.455	0.29
250.671	0.45
250.888	0.53
251.104	0.48
251.32	0.36
251.536	0.38
251.752	0.38
251.969	0.46
252.185	0.41
252.401	0.65
252.617	0.5
252.833	0.36
253.049	0.29
253.265	0.5
253.481	0.46
253.697	0.34
253.913	0.38
254.129	0.45
254.345	0.49
254.561	0.3
254.777	0.37
254.993	0.49
255.209	0.43
255.425	0.36
255.641	0.35
255.857	0.44
256.073	0.44
256.288	0.25
256.504	0.28
256.72	0.45
256.936	0.58
257.152	0.34
257.367	0.27
257.583	0.38
257.799	0.48
258.015	0.34
258.23	0.32
258.446	0.59
258.662	0.42
258.877	0.31
259.093	0.29
259.309	0.41
259.524	0.38
259.74	0.25
259.955	0.22
260.171	0.44
260.387	0.37
260.602	0.46
260.818	0.39
261.033	0.24
261.249	0.37
261.464	0.4
261.68	0.31
261.895	0.37
262.11	0.46
262.326	0.3
262.541	0.23
262.757	0.49
262.972	0.48
263.187	0.35
263.403	0.45
263.618	0.54
263.833	0.43
264.049	0.3
264.264	0.29
264.479	0.41
264.694	0.56
264.91	0.32
265.125	0.29
265.34	0.45
265.555	0.5
265.77	0.37
265.986	0.28
266.201	0.37
266.416	0.45
266.631	0.38
266.846	0.38
267.061	0.44
267.276	0.46
267.491	0.21
267.706	0.43
267.921	0.42
268.136	0.43
268.351	0.31
268.566	0.19
268.781	0.47
268.996	0.43
269.211	0.24
269.426	0.21
269.641	0.31
269.856	0.49
270.071	0.23
270.285	0.25
270.5	0.47
270.715	0.43
270.93	0.32
271.145	0.38
271.359	0.35
271.574	0.34
271.789	0.39
272.004	0.26
272.218	0.38
272.433	0.37
272.648	0.26
272.862	0.37
273.077	0.42
273.292	0.32
273.506	0.23
273.721	0.27
273.936	0.37
274.15	0.46
274.365	0.27
274.579	0.35
274.794	0.36
275.008	0.43
275.223	0.25
275.437	0.28
275.652	0.4
275.866	0.37
276.081	0.33
276.295	0.41
276.509	0.34
276.724	0.32
276.938	0.36
277.153	0.35
277.367	0.41
277.581	0.3
277.796	0.28
278.01	0.23
278.224	0.36
278.438	0.5
278.653	0.31
278.867	0.29
279.081	0.42
279.295	0.37
279.51	0.35
279.724	0.22
279.938	0.34
280.152	0.38
280.366	0.28
280.58	0.33
280.794	0.46
281.008	0.36
281.222	0.34
281.437	0.46
281.651	0.34
281.865	0.46
282.079	0.27
282.293	0.2
282.507	0.23
282.721	0.29
282.935	0.29
283.148	0.24
283.362	0.24
283.576	0.24
283.79	0.3
284.004	0.21
284.218	0.45
284.432	0.29
284.646	0.25
284.859	0.22
285.073	0.26
285.287	0.32
285.501	0.26
285.714	0.22
285.928	0.33
286.142	0.29
286.356	0.21
286.569	0.26
286.783	0.42
286.997	0.38
287.21	0.29
287.424	0.26
287.637	0.33
287.851	0.25
288.065	0.35
288.278	0.3
288.492	0.33
288.705	0.27
288.919	0.35
289.132	0.2
289.346	0.36
289.559	0.17
289.773	0.25
289.986	0.31
290.2	0.27
290.413	0.4
290.626	0.26
290.84	0.26
291.053	0.29
291.267	0.38
291.48	0.25
291.693	0.25
291.906	0.27
292.12	0.29
292.333	0.26
292.546	0.23
292.76	0.39
292.973	0.31
293.186	0.34
293.399	0.23
293.612	0.36
293.826	0.28
294.039	0.26
294.252	0.22
294.465	0.35
294.678	0.29
294.891	0.25
295.104	0.23
295.317	0.26
295.53	0.31
295.743	0.28
295.956	0.3
296.169	0.35
296.382	0.31
296.595	0.28
296.808	0.23
297.021	0.33
297.234	0.34
297.447	0.27
297.66	0.32
297.873	0.33
298.086	0.36
298.299	0.21
298.511	0.19
298.724	0.29
298.937	0.21
299.15	0.17
299.363	0.24
299.575	0.3
299.788	0.32
300.001	0.23
300.213	0.21
300.426	0.28
300.639	0.23
300.852	0.21
301.064	0.31
301.277	0.33
301.489	0.3
301.702	0.29
301.915	0.21
302.127	0.25
302.34	0.33
302.552	0.28
302.765	0.24
302.977	0.32
303.19	0.24
303.402	0.23
303.615	0.27
303.827	0.25
304.04	0.29
304.252	0.29
304.464	0.23
304.677	0.42
304.889	0.3
305.102	0.25
305.314	0.21
305.526	0.28
305.739	0.31
305.951	0.2
306.163	0.2
306.375	0.36
306.588	0.25
306.8	0.21
307.012	0.21
307.224	0.3
307.436	0.3
307.649	0.19
307.861	0.25
308.073	0.32
308.285	0.2
308.497	0.21
308.709	0.23
308.921	0.27
309.133	0.32
309.346	0.23
309.558	0.25
309.77	0.33
309.982	0.39
310.194	0.26
310.406	0.22
310.617	0.36
310.829	0.25
311.041	0.32
311.253	0.2
311.465	0.28
311.677	0.24
311.889	0.22
312.101	0.21
312.313	0.36
312.524	0.34
312.736	0.18
312.948	0.22
313.16	0.34
313.372	0.34
313.583	0.3
313.795	0.23
314.007	0.22
314.218	0.3
314.43	0.27
314.642	0.24
314.853	0.15
315.065	0.32
315.277	0.26
315.488	0.28
315.7	0.28
315.912	0.28
316.123	0.24
316.335	0.22
316.546	0.39
316.758	0.27
316.969	0.22
317.181	0.27
317.392	0.25
317.604	0.35
317.815	0.22
318.026	0.22
318.238	0.24
318.449	0.31
318.661	0.21
318.872	0.19
319.083	0.19
319.295	0.27
319.506	0.27
319.717	0.27
319.929	0.34
320.14	0.27
320.351	0.26
320.562	0.22
320.774	0.27
320.985	0.27
321.196	0.17
321.407	0.17
321.618	0.32
321.829	0.27
322.041	0.23
322.252	0.26
322.463	0.3
322.674	0.33
322.885	0.19
323.096	0.27
323.307	0.25
323.518	0.24
323.729	0.22
323.94	0.24
324.151	0.28
324.362	0.27
324.573	0.21
324.784	0.26
324.995	0.28
325.206	0.32
325.417	0.22
325.628	0.22
325.838	0.27
326.049	0.28
326.26	0.29
326.471	0.22
326.682	0.24
326.892	0.27
327.103	0.19
327.314	0.21
327.525	0.31
327.735	0.32
327.946	0.25
328.157	0.2
328.368	0.29
328.578	0.28
328.789	0.28
328.999	0.22
329.21	0.22
329.421	0.29
329.631	0.23
329.842	0.17
330.052	0.27
330.263	0.3
330.473	0.29
330.684	0.24
330.894	0.28
331.105	0.28
331.315	0.27
331.526	0.16
331.736	0.34
331.947	0.23
332.157	0.29
332.367	0.21
332.578	0.28
332.788	0.35
332.999	0.26
333.209	0.24
333.419	0.18
333.629	0.33
333.84	0.23
334.05	0.26
334.26	0.35
334.47	0.27
334.681	0.27
334.891	0.23
335.101	0.3
335.311	0.36
335.521	0.25
335.732	0.19
335.942	0.33
336.152	0.29
336.362	0.29
336.572	0.27
336.782	0.29
336.992	0.25
337.202	0.25
337.412	0.21
337.622	0.27
337.832	0.28
338.042	0.25
338.252	0.21
338.462	0.24
338.672	0.31
338.882	0.21
339.092	0.25
339.302	0.36
339.511	0.29
339.721	0.2
339.931	0.17
340.141	0.31
340.351	0.3
340.561	0.29
340.77	0.29
340.98	0.3
341.19	0.3
341.4	0.27
341.609	0.18
341.819	0.23
342.029	0.17
342.238	0.28
342.448	0.21
342.658	0.3
342.867	0.26
343.077	0.24
343.286	0.3
343.496	0.3
343.706	0.32
343.915	0.22
344.125	0.28
344.334	0.3
344.544	0.2
344.753	0.22
344.963	0.2
345.172	0.24
345.381	0.23
345.591	0.22
345.8	0.24
346.01	0.3
346.219	0.31
346.428	0.13
346.638	0.23
346.847	0.21
347.056	0.32
347.266	0.23
347.475	0.21
347.684	0.29
347.893	0.29
348.103	0.33
348.312	0.23
348.521	0.26
348.73	0.27
348.94	0.24
349.149	0.23
349.358	0.25
349.567	0.22
349.776	0.17
349.985	0.21
350.194	0.34
350.403	0.31
350.612	0.18
350.821	0.21
351.03	0.26
351.239	0.2
351.448	0.24
351.657	0.19
351.866	0.32
352.075	0.25
352.284	0.32
352.493	0.18
352.702	0.3
352.911	0.29
353.12	0.23
353.329	0.2
353.538	0.28
353.746	0.27
353.955	0.19
354.164	0.23
354.373	0.24
354.582	0.32
354.79	0.26
354.999	0.29
355.208	0.29
355.416	0.33
355.625	0.14
355.834	0.21
356.042	0.27
356.251	0.26
356.46	0.19
356.668	0.24
356.877	0.32
357.085	0.28
357.294	0.12
357.503	0.27
357.711	0.24
357.92	0.44
358.128	0.27
358.337	0.21
358.545	0.28
358.754	0.22
358.962	0.29
359.17	0.24
359.379	0.28
359.587	0.29
359.796	0.24
360.004	0.33
360.212	0.31
360.421	0.32
360.629	0.21
360.837	0.22
361.046	0.29
361.254	0.34
361.462	0.26
361.67	0.23
361.879	0.27
362.087	0.33
362.295	0.27
362.503	0.23
362.711	0.22
362.92	0.23
363.128	0.19
363.336	0.21
363.544	0.2
363.752	0.27
363.96	0.23
364.168	0.19
364.376	0.29
364.584	0.27
364.792	0.33
365	0.27
365.208	0.26
365.416	0.29
365.624	0.34
365.832	0.23
366.04	0.32
366.248	0.24
366.456	0.25
366.664	0.22
366.872	0.27
367.079	0.27
367.287	0.25
367.495	0.25
367.703	0.24
367.911	0.28
368.118	0.26
368.326	0.23
368.534	0.22
368.742	0.32
368.949	0.2
369.157	0.22
369.365	0.28
369.572	0.26
369.78	0.2
369.988	0.3
370.195	0.29
370.403	0.3
370.61	0.16
370.818	0.22
371.026	0.34
371.233	0.21
371.441	0.27
371.648	0.23
371.856	0.3
372.063	0.28
372.271	0.21
372.478	0.24
372.685	0.22
372.893	0.34
373.1	0.29
373.308	0.2
373.515	0.36
373.722	0.29
373.93	0.25
374.137	0.27
374.344	0.32
374.552	0.33
374.759	0.3
374.966	0.29
375.173	0.22
375.381	0.36
375.588	0.22
375.795	0.15
376.002	0.23
376.209	0.23
376.417	0.27
376.624	0.22
376.831	0.31
377.038	0.24
377.245	0.18
377.452	0.25
377.659	0.29
377.866	0.21
378.073	0.22
378.28	0.26
378.487	0.34
378.694	0.34
378.901	0.24
379.108	0.26
379.315	0.3
379.522	0.36
379.729	0.26
379.936	0.27
380.143	0.25
380.35	0.31
380.557	0.25
380.763	0.27
380.97	0.27
381.177	0.23
381.384	0.3
381.591	0.2
381.797	0.3
382.004	0.32
382.211	0.33
382.418	0.19
382.624	0.3
382.831	0.29
383.038	0.22
383.244	0.25
383.451	0.27
383.658	0.33
383.864	0.24
384.071	0.22
384.277	0.36
384.484	0.27
384.69	0.34
384.897	0.25
385.103	0.31
385.31	0.29
385.516	0.23
385.723	0.22
385.929	0.29
386.136	0.28
386.342	0.28
386.549	0.23
386.755	0.32
386.961	0.34
387.168	0.27
387.374	0.25
387.58	0.33
387.787	0.3
387.993	0.3
388.199	0.3
388.406	0.24
388.612	0.31
388.818	0.26
389.024	0.24
389.231	0.3
389.437	0.39
389.643	0.32
389.849	0.28
390.055	0.31
390.261	0.29
390.467	0.32
390.674	0.28
390.88	0.27
391.086	0.32
391.292	0.26
391.498	0.34
391.704	0.33
391.91	0.35
392.116	0.29
392.322	0.21
392.528	0.32
392.734	0.34
392.94	0.29
393.146	0.32
393.352	0.3
393.557	0.26
393.763	0.31
393.969	0.35
394.175	0.29
394.381	0.29
394.587	0.22
394.792	0.3
394.998	0.37
395.204	0.34
395.41	0.28
395.615	0.33
395.821	0.35
396.027	0.34
396.233	0.31
396.438	0.33
396.644	0.42
396.85	0.32
397.055	0.31
397.261	0.33
397.466	0.33
397.672	0.38
397.878	0.37
398.083	0.35
398.289	0.33
398.494	0.41
398.7	0.37
398.905	0.23
399.111	0.44
399.316	0.33
399.522	0.35
399.727	0.34
399.932	0.34
400.138	0.34
400.343	0.41
400.549	0.34
400.754	0.37
400.959	0.39
401.165	0.34
401.37	0.4
401.575	0.52
401.78	0.41
401.986	0.34
402.191	0.34
402.396	0.37
402.601	0.46
402.807	0.4
403.012	0.43
403.217	0.49
403.422	0.44
403.627	0.4
403.832	0.39
404.037	0.47
404.243	0.47
404.448	0.36
404.653	0.47
404.858	0.45
405.063	0.45
405.268	0.39
405.473	0.38
405.678	0.39
405.883	0.64
406.088	0.52
406.293	0.43
406.498	0.42
406.703	0.5
406.907	0.48
407.112	0.43
407.317	0.49
407.522	0.55
407.727	0.46
407.932	0.54
408.136	0.65
408.341	0.56
408.546	0.57
408.751	0.61
408.956	0.61
409.16	0.69
409.365	0.61
409.57	0.62
409.774	0.59
409.979	0.71
410.184	0.67
410.388	0.64
410.593	0.72
410.798	0.74
411.002	0.74
411.207	0.88
411.411	0.73
411.616	0.78
411.82	0.82
412.025	0.85
412.229	0.88
412.434	0.99
412.638	0.94
412.843	0.95
413.047	1.01
413.252	0.99
413.456	1
413.66	1.05
413.865	1.08
414.069	1.18
414.273	1.05
414.478	1.18
414.682	1.21
414.886	1.23
415.091	1.19
415.295	1.25
415.499	1.45
415.703	1.36
415.908	1.46
416.112	1.33
416.316	1.57
416.52	1.54
416.724	1.55
416.929	1.56
417.133	1.83
417.337	1.75
417.541	1.81
417.745	1.84
417.949	1.99
418.153	2.04
418.357	2.06
418.561	2.29
418.765	2.2
418.969	2.39
419.173	2.4
419.377	2.43
419.581	2.67
419.785	2.64
419.989	2.64
420.193	2.79
420.397	2.8
420.601	3.09
420.804	3.09
421.008	3.04
421.212	3.3
421.416	3.3
421.62	3.27
421.823	3.33
422.027	3.62
422.231	3.51
422.435	3.54
422.638	3.6
422.842	3.62
423.046	3.76
423.249	3.95
423.453	3.98
423.657	4.1
423.86	4.24
424.064	4.3
424.268	4.44
424.471	4.52
424.675	4.72
424.878	4.91
425.082	4.87
425.285	5.26
425.489	5.07
425.692	5.21
425.896	5.25
426.099	5.52
426.303	5.61
426.506	5.76
426.71	5.97
426.913	6.23
427.116	6.35
427.32	6.4
427.523	6.44
427.726	6.73
427.93	6.85
428.133	7.08
428.336	7.21
428.54	7.4
428.743	7.67
428.946	7.75
429.149	7.9
429.353	7.9
429.556	8.07
429.759	8.07
429.962	8.16
430.165	8.39
430.368	7.92
430.571	8.06
430.775	8.18
430.978	8.16
431.181	8.21
431.384	8.26
431.587	8.37
431.79	8.68
431.993	8.71
432.196	8.96
432.399	9.29
432.602	9.43
432.805	9.5
433.008	10.04
433.211	9.98
433.414	10.24
433.616	10.49
433.819	10.29
434.022	10.39
434.225	10.61
434.428	10.56
434.631	11.12
434.833	10.86
435.036	11.13
435.239	11.3
435.442	11.3
435.645	11.44
435.847	11.57
436.05	11.94
436.253	12.12
436.455	12.23
436.658	12.02
436.861	12.43
437.063	12.46
437.266	12.43
437.468	12.87
437.671	13.26
437.874	13.27
438.076	12.95
438.279	13.4
438.481	13.5
438.684	14.4
438.886	13.8
439.089	14.13
439.291	14.22
439.494	14.47
439.696	14.78
439.899	15.34
440.101	15.65
440.303	15.71
440.506	16.52
440.708	16.22
440.91	16.65
441.113	16.72
441.315	17.1
441.517	16.76
441.72	17.11
441.922	16.84
442.124	16.79
442.326	17.21
442.529	17.41
442.731	17.39
442.933	17.65
443.135	17.47
443.337	17.41
443.539	17.94
443.742	17.69
443.944	18.38
444.146	18.17
444.348	18.12
444.55	17.83
444.752	18.08
444.954	18.25
445.156	17.89
445.358	18.38
445.56	18.6
445.762	18.46
445.964	18.95
446.166	18.52
446.368	18.56
446.57	18.7
446.772	18.28
446.974	17.9
447.175	18.27
447.377	17.99
447.579	18.29
447.781	18
447.983	17.77
448.184	17.17
448.386	17.86
448.588	17.21
448.79	17.21
448.991	17.46
449.193	17.47
449.395	16.71
449.597	16.57
449.798	16.42
450	15.91
450.202	15.84
450.403	15.88
450.605	15.79
450.806	15.3
451.008	15.28
451.21	14.95
451.411	14.55
451.613	13.71
451.814	14.05
452.016	14.06
452.217	13.21
452.419	13.4
452.62	12.99
452.821	12.69
453.023	12.57
453.224	12.24
453.426	11.75
453.627	11.02
453.828	11.16
454.03	11.21
454.231	11.25
454.432	10.99
454.634	10.86
454.835	10.35
455.036	10.38
455.238	9.97
455.439	9.87
455.64	9.5
455.841	9.46
456.042	9.61
456.244	9.07
456.445	8.89
456.646	8.58
456.847	8.56
457.048	8.43
457.249	8.43
457.45	8.22
457.651	7.74
457.852	7.54
458.054	7.11
458.255	7.28
458.456	7.32
458.657	7.2
458.858	6.77
459.058	6.69
459.259	6.81
459.46	6.5
459.661	6.36
459.862	6.43
460.063	6.4
460.264	6.32
460.465	6
460.666	6.05
460.866	5.75
461.067	5.53
461.268	5.52
461.469	5.51
461.67	5.38
461.87	5.27
462.071	5.26
462.272	5.11
462.473	5.19
462.673	5.32
462.874	5.05
463.075	5.11
463.275	5.13
463.476	5.14
463.676	5.05
463.877	4.97
464.078	4.93
464.278	4.98
464.479	4.8
464.679	4.71
464.88	4.73
465.08	4.71
465.281	4.57
465.481	4.31
465.682	4.13
465.882	4.17
466.083	4.09
466.283	4.01
466.483	3.92
466.684	3.74
466.884	3.66
467.085	3.69
467.285	3.76
467.485	3.57
467.686	3.53
467.886	3.42
468.086	3.41
468.286	3.34
468.487	3.43
468.687	3.27
468.887	3.21
469.087	3.35
469.287	3.3
469.488	3.03
469.688	3.2
469.888	3.2
470.088	3.13
470.288	3.12
470.488	3.04
470.688	2.88
470.888	2.89
471.088	2.7
471.288	2.83
471.488	2.77
471.688	2.72
471.888	2.66
472.088	2.83
472.288	2.74
472.488	2.65
472.688	2.56
472.888	2.63
473.088	2.6
473.288	2.48
473.488	2.47
473.688	2.61
473.887	2.46
474.087	2.43
474.287	2.42
474.487	2.41
474.687	2.41
474.886	2.32
475.086	2.29
475.286	2.33
475.486	2.28
475.685	2.24
475.885	2.21
476.085	2.34
476.284	2.28
476.484	2.24
476.684	2.21
476.883	2.34
477.083	2.21
477.282	2.11
477.482	2.21
477.681	2.15
477.881	2.07
478.08	2.08
478.28	2.08
478.479	2.14
478.679	2.17
478.878	2.06
479.078	2.04
479.277	2.11
479.477	2.04
479.676	2.02
479.875	2.01
480.075	1.95
480.274	2.07
480.473	2.08
480.673	2.03
480.872	2.11
481.071	2.05
481.271	2.06
481.47	2.01
481.669	2.04
481.868	1.99
482.067	2.03
482.267	1.91
482.466	1.92
482.665	1.95
482.864	1.96
483.063	1.93
483.262	2
483.461	2.11
483.661	2.1
483.86	1.99
484.059	2.03
484.258	2
484.457	1.97
484.656	2.03
484.855	2.1
485.054	1.92
485.253	2
485.452	1.98
485.651	2.06
485.849	2.05
486.048	1.99
486.247	2.05
486.446	2.08
486.645	2.01
486.844	2.07
487.043	2.03
487.241	2.12
487.44	2.1
487.639	2.13
487.838	2.1
488.037	2.12
488.235	2.21
488.434	2.15
488.633	2.07
488.831	2.22
489.03	2.23
489.229	2.2
489.427	2.25
489.626	2.28
489.825	2.26
490.023	2.35
490.222	2.3
490.42	2.3
490.619	2.33
490.817	2.36
491.016	2.35
491.214	2.38
491.413	2.42
491.611	2.37
491.81	2.39
492.008	2.46
492.207	2.54
492.405	2.55
492.604	2.49
492.802	2.53
493	2.6
493.199	2.6
493.397	2.64
493.595	2.71
493.794	2.72
493.992	2.83
494.19	2.73
494.388	2.81
494.587	2.76
494.785	2.79
494.983	2.75
495.181	2.84
495.379	2.92
495.578	2.94
495.776	2.96
495.974	2.9
496.172	2.98
496.37	3.08
496.568	3.11
496.766	3.07
496.964	3.2
497.162	3.14
497.36	3.17
497.558	3.23
497.756	3.35
497.954	3.25
498.152	3.37
498.35	3.45
498.548	3.34
498.746	3.4
498.944	3.4
499.142	3.44
499.34	3.48
499.538	3.63
499.736	3.53
499.933	3.62
500.131	3.66
500.329	3.79
500.527	3.76
500.725	3.86
500.922	3.84
501.12	3.86
501.318	3.98
501.516	3.97
501.713	4.06
501.911	4.05
502.109	3.94
502.306	4.12
502.504	3.99
502.701	4.09
502.899	4.19
503.097	4.35
503.294	4.19
503.492	4.38
503.689	4.37
503.887	4.41
504.084	4.47
504.282	4.44
504.479	4.4
504.677	4.61
504.874	4.56
505.072	4.49
505.269	4.67
505.466	4.72
505.664	4.7
505.861	4.69
506.059	4.8
506.256	4.78
506.453	4.85
506.651	5
506.848	5.01
507.045	4.96
507.242	5.01
507.44	4.96
507.637	5.1
507.834	5.08
508.031	5.21
508.229	5.11
508.426	5.11
508.623	5.29
508.82	5.33
509.017	5.25
509.214	5.26
509.411	5.4
509.608	5.3
509.805	5.54
510.003	5.48
510.2	5.53
510.397	5.66
510.594	5.56
510.791	5.63
510.988	5.65
511.184	5.59
511.381	5.53
511.578	5.71
511.775	5.84
511.972	5.75
512.169	5.89
512.366	5.81
512.563	5.98
512.76	5.98
512.956	6.02
513.153	5.94
513.35	5.9
513.547	5.98
513.744	6.03
513.94	6.03
514.137	6.12
514.334	6.14
514.53	6.19
514.727	6.34
514.924	6.28
515.12	6.26
515.317	6.27
515.514	6.26
515.71	6.2
515.907	6.45
516.103	6.46
516.3	6.31
516.497	6.54
516.693	6.51
516.89	6.48
517.086	6.45
517.283	6.59
517.479	6.46
517.676	6.63
517.872	6.64
518.068	6.64
518.265	6.61
518.461	6.64
518.658	6.76
518.854	6.78
519.05	6.82
519.247	6.84
519.443	6.81
519.639	6.87
519.836	6.8
520.032	6.76
520.228	6.96
520.424	6.92
520.621	6.94
520.817	6.95
521.013	6.9
521.209	7.05
521.405	7.08
521.601	7.05
521.798	6.99
521.994	7.02
522.19	6.98
522.386	6.97
522.582	7.1
522.778	7.24
522.974	7.12
523.17	7.12
523.366	7.15
523.562	7.22
523.758	7.22
523.954	7.06
524.15	7.28
524.346	7.27
524.542	7.29
524.738	7.22
524.934	7.38
525.129	7.23
525.325	7.22
525.521	7.25
525.717	7.49
525.913	7.35
526.109	7.34
526.304	7.47
526.5	7.49
526.696	7.47
526.892	7.41
527.087	7.69
527.283	7.53
527.479	7.49
527.674	7.35
527.87	7.53
528.066	7.51
528.261	7.54
528.457	7.42
528.653	7.62
528.848	7.59
529.044	7.68
529.239	7.52
529.435	7.55
529.63	7.51
529.826	7.57
530.021	7.62
530.217	7.61
530.412	7.62
530.608	7.67
530.803	7.62
530.999	7.54
531.194	7.6
531.389	7.74
531.585	7.65
531.78	7.82
531.975	7.69
532.171	7.78
532.366	7.72
532.561	7.76
532.757	7.73
532.952	7.89
533.147	7.68
533.342	7.82
533.538	7.7
533.733	7.91
533.928	7.63
534.123	7.78
534.318	7.81
534.513	7.73
534.709	7.89
534.904	7.82
535.099	7.86
535.294	7.92
535.489	7.87
535.684	7.89
535.879	7.81
536.074	7.91
536.269	7.89
536.464	7.96
536.659	7.84
536.854	7.91
537.049	7.99
537.244	7.93
537.439	7.98
537.634	7.96
537.828	8.01
538.023	7.93
538.218	7.92
538.413	7.83
538.608	8.01
538.803	8
538.997	7.9
539.192	7.95
539.387	7.88
539.582	7.96
539.776	7.82
539.971	8.03
540.166	8.07
540.36	7.98
540.555	8.11
540.75	7.98
540.944	8.02
541.139	8.03
541.334	7.94
541.528	7.98
541.723	8.08
541.917	8.06
542.112	7.93
542.306	7.86
542.501	7.98
542.695	7.95
542.89	7.99
543.084	7.97
543.279	8.12
543.473	8.12
543.668	8.12
543.862	7.93
544.056	7.9
544.251	8.17
544.445	8.1
544.64	8.15
544.834	7.78
545.028	7.7
545.222	8.02
545.417	8.21
545.611	8.11
545.805	8.04
546	7.87
546.194	8.06
546.388	8.11
546.582	7.97
546.776	8.03
546.97	8.04
547.165	8.09
547.359	8.07
547.553	7.99
547.747	8.01
547.941	8.24
548.135	8.07
548.329	8.12
548.523	8.06
548.717	7.99
548.911	8.07
549.105	8.02
549.299	8.12
549.493	8.12
549.687	7.97
549.881	8.17
550.075	8.12
550.269	7.97
550.463	8.08
550.657	8.14
550.85	8.03
551.044	8.03
551.238	8.15
551.432	8.07
551.626	8.12
551.82	8.12
552.013	7.94
552.207	8.17
552.401	8.18
552.594	8.1
552.788	8.04
552.982	8.06
553.176	7.99
553.369	8.24
553.563	8.12
553.756	8.08
553.95	8.19
554.144	8.17
554.337	8.15
554.531	7.95
554.724	8.1
554.918	8.19
555.111	8.1
555.305	8.06
555.498	8.06
555.692	8.24
555.885	8.11
556.079	8.05
556.272	8.09
556.466	8.11
556.659	8.04
556.852	8.16
557.046	8.05
557.239	7.96
557.432	8.07
557.626	8.16
557.819	8.17
558.012	8.16
558.206	8.29
558.399	8.17
558.592	8.09
558.785	8.06
558.979	8.09
559.172	8.11
559.365	8.11
559.558	8.05
559.751	8.01
559.944	8.22
560.138	8.09
560.331	8.07
560.524	8.13
560.717	8.11
560.91	8.08
561.103	8.13
561.296	7.98
561.489	8.1
561.682	8.14
561.875	8.15
562.068	8.26
562.261	8.07
562.454	8.21
562.647	8.06
562.84	8.16
563.032	8.17
563.225	8.03
563.418	8.1
563.611	8.2
563.804	8.15
563.997	8.02
564.19	7.9
564.382	8.21
564.575	8.16
564.768	8.04
564.961	8.2
565.153	8.05
565.346	8.05
565.539	8.12
565.731	8.05
565.924	8.15
566.117	8.25
566.309	8.15
566.502	8.04
566.695	8.04
566.887	8.18
567.08	8.05
567.272	8.16
567.465	8
567.657	8.18
567.85	8.01
568.042	8.1
568.235	8.11
568.427	8.02
568.62	8.05
568.812	8.09
569.005	8.16
569.197	8.02
569.389	8.11
569.582	8.03
569.774	8.13
569.966	7.98
570.159	7.92
570.351	8
570.543	8
570.736	8.04
570.928	7.91
571.12	8.05
571.312	7.94
571.505	7.74
571.697	8.11
571.889	8.03
572.081	8.03
572.273	7.97
572.465	8.05
572.658	8.01
572.85	8.07
573.042	7.98
573.234	7.93
573.426	7.97
573.618	7.93
573.81	7.99
574.002	7.94
574.194	7.99
574.386	7.93
574.578	7.86
574.77	7.98
574.962	7.98
575.154	7.76
575.346	7.85
575.538	7.79
575.729	7.86
575.921	7.88
576.113	7.93
576.305	7.91
576.497	8.08
576.689	7.79
576.88	7.77
577.072	7.96
577.264	7.89
577.456	7.84
577.647	7.81
577.839	7.98
578.031	7.82
578.223	7.82
578.414	7.72
578.606	7.86
578.798	7.94
578.989	7.88
579.181	7.92
579.372	7.87
579.564	7.84
579.755	7.81
579.947	7.7
580.139	7.81
580.33	7.72
580.522	7.8
580.713	7.75
580.905	7.72
581.096	7.88
581.287	7.72
581.479	7.76
581.67	7.86
581.862	7.7
582.053	7.71
582.244	7.58
582.436	7.76
582.627	7.68
582.818	7.64
583.01	7.66
583.201	7.71
583.392	7.66
583.583	7.64
583.775	7.46
583.966	7.5
584.157	7.69
584.348	7.75
584.54	7.63
584.731	7.63
584.922	7.53
585.113	7.47
585.304	7.57
585.495	7.61
585.686	7.57
585.877	7.62
586.068	7.67
586.259	7.56
586.45	7.56
586.641	7.47
586.832	7.57
587.023	7.44
587.214	7.47
587.405	7.55
587.596	7.37
587.787	7.4
587.978	7.47
588.169	7.41
588.36	7.39
588.551	7.48
588.742	7.42
588.932	7.47
589.123	7.28
589.314	7.5
589.505	7.41
589.696	7.34
589.886	7.3
590.077	7.31
590.268	7.29
590.458	7.23
590.649	7.14
590.84	7.3
591.03	7.31
591.221	7.3
591.412	7.18
591.602	7.28
591.793	7.24
591.984	7.29
592.174	7.17
592.365	7.39
592.555	7.1
592.746	7.1
592.936	7.17
593.127	7.2
593.317	7.3
593.508	7.2
593.698	7.05
593.889	7.19
594.079	7.09
594.269	7.01
594.46	7.07
594.65	7.12
594.84	7.06
595.031	6.98
595.221	7.03
595.411	7.01
595.602	7.06
595.792	6.92
595.982	6.91
596.172	7.02
596.363	6.86
596.553	6.89
596.743	6.95
596.933	6.87
597.123	6.93
597.314	6.77
597.504	6.77
597.694	7.02
597.884	6.81
598.074	6.84
598.264	6.81
598.454	6.87
598.644	6.81
598.834	6.74
599.024	6.69
599.214	6.72
599.404	6.8
599.594	6.76
599.784	6.68
599.974	6.7
600.164	6.73
600.354	6.6
600.544	6.57
600.734	6.7
600.924	6.64
601.114	6.52
601.303	6.53
601.493	6.58
601.683	6.55
601.873	6.6
602.063	6.44
602.252	6.56
602.442	6.45
602.632	6.39
602.821	6.39
603.011	6.49
603.201	6.46
603.39	6.41
603.58	6.39
603.77	6.48
603.959	6.44
604.149	6.36
604.339	6.4
604.528	6.42
604.718	6.38
604.907	6.3
605.097	6.26
605.286	6.29
605.476	6.24
605.665	6.29
605.855	6.2
606.044	6.31
606.234	6.2
606.423	6.19
606.612	6.14
606.802	6.08
606.991	6.18
607.181	6.24
607.37	6.11
607.559	5.93
607.749	6.14
607.938	6.03
608.127	6.06
608.316	6.06
608.506	6
608.695	6
608.884	5.91
609.073	6.03
609.263	6.03
609.452	6.01
609.641	5.85
609.83	5.83
610.019	5.95
610.208	5.78
610.397	5.87
610.586	5.89
610.775	5.81
610.965	5.81
611.154	5.72
611.343	5.81
611.532	5.66
611.721	5.84
611.91	5.7
612.099	5.67
612.287	5.62
612.476	5.52
612.665	5.8
612.854	5.66
613.043	5.72
613.232	5.63
613.421	5.57
613.61	5.61
613.798	5.57
613.987	5.52
614.176	5.54
614.365	5.6
614.554	5.54
614.742	5.58
614.931	5.39
615.12	5.53
615.309	5.47
615.497	5.34
615.686	5.27
615.875	5.41
616.063	5.33
616.252	5.35
616.44	5.37
616.629	5.34
616.818	5.33
617.006	5.27
617.195	5.2
617.383	5.25
617.572	5.17
617.76	5.21
617.949	5.24
618.137	5.27
618.326	5.22
618.514	5.05
618.703	4.99
618.891	5.17
619.079	5.02
619.268	5.19
619.456	5.01
619.644	5.22
619.833	4.98
620.021	5.07
620.209	4.96
620.398	4.97
620.586	4.92
620.774	4.92
620.962	4.92
621.151	4.99
621.339	4.89
621.527	4.77
621.715	4.83
621.903	4.85
622.092	4.83
622.28	4.84
622.468	4.72
622.656	4.79
622.844	4.85
623.032	4.76
623.22	4.61
623.408	4.83
623.596	4.77
623.784	4.73
623.972	4.66
624.16	4.75
624.348	4.68
624.536	4.74
624.724	4.58
624.912	4.63
625.1	4.67
625.288	4.65
625.476	4.51
625.664	4.62
625.851	4.48
626.039	4.6
626.227	4.47
626.415	4.44
626.603	4.37
626.79	4.45
626.978	4.41
627.166	4.54
627.354	4.31
627.541	4.41
627.729	4.23
627.917	4.47
628.104	4.44
628.292	4.31
628.48	4.31
628.667	4.27
628.855	4.47
629.042	4.34
629.23	4.23
629.418	4.24
629.605	4.22
629.793	4.2
629.98	4.21
630.168	4.21
630.355	4.21
630.543	4.08
630.73	4.06
630.917	4.14
631.105	4.24
631.292	4.1
631.48	4.12
631.667	4.2
631.854	4.03
632.042	4.01
632.229	3.99
632.416	4.02
632.604	3.96
632.791	3.85
632.978	3.96
633.165	3.98
633.353	4.02
633.54	3.98
633.727	3.82
633.914	3.84
634.101	3.84
634.289	3.95
634.476	3.74
634.663	3.82
634.85	3.82
635.037	3.77
635.224	3.7
635.411	3.82
635.598	3.77
635.785	3.69
635.972	3.69
636.159	3.77
636.346	3.65
636.533	3.66
636.72	3.64
636.907	3.59
637.094	3.65
637.281	3.54
637.468	3.59
637.655	3.59
637.842	3.64
638.029	3.54
638.215	3.52
638.402	3.55
638.589	3.51
638.776	3.44
638.963	3.45
639.149	3.51
639.336	3.56
639.523	3.42
639.709	3.42
639.896	3.39
640.083	3.4
640.27	3.42
640.456	3.34
640.643	3.39
640.829	3.24
641.016	3.33
641.203	3.21
641.389	3.39
641.576	3.28
641.762	3.27
641.949	3.2
642.135	3.26
642.322	3.31
642.508	3.14
642.695	3.22
642.881	3.15
643.068	3.14
643.254	3.13
643.441	3.13
643.627	3.2
643.813	3.07
644	3.17
644.186	3.05
644.372	3.09
644.559	3.14
644.745	3.04
644.931	3.02
645.118	3.1
645.304	3
645.49	2.98
645.676	2.96
645.862	3
646.049	3.08
646.235	2.93
646.421	3.08
646.607	3.03
646.793	2.89
646.979	2.84
647.165	2.87
647.352	2.92
647.538	2.92
647.724	2.83
647.91	2.83
648.096	2.87
648.282	2.88
648.468	2.82
648.654	2.84
648.84	2.86
649.026	2.76
649.212	2.74
649.397	2.69
649.583	2.73
649.769	2.81
649.955	2.73
650.141	2.69
650.327	2.76
650.513	2.65
650.698	2.68
650.884	2.54
651.07	2.67
651.256	2.64
651.442	2.64
651.627	2.54
651.813	2.61
651.999	2.54
652.184	2.59
652.37	2.55
652.556	2.54
652.741	2.59
652.927	2.4
653.113	2.51
653.298	2.54
653.484	2.5
653.669	2.46
653.855	2.47
654.04	2.49
654.226	2.49
654.412	2.41
654.597	2.35
654.782	2.45
654.968	2.44
655.153	2.38
655.339	2.33
655.524	2.28
655.71	2.42
655.895	2.36
656.08	2.35
656.266	2.41
656.451	2.33
656.636	2.26
656.822	2.28
657.007	2.29
657.192	2.28
657.378	2.25
657.563	2.24
657.748	2.3
657.933	2.28
658.118	2.18
658.304	2.2
658.489	2.33
658.674	2.22
658.859	2.15
659.044	2.15
659.229	2.23
659.414	2.13
659.599	2.16
659.785	2.11
659.97	2.15
660.155	2.12
660.34	2.15
660.525	2.08
660.71	2.11
660.895	2.15
661.08	2.05
661.264	1.99
661.449	2.15
661.634	2.08
661.819	2.05
662.004	2.04
662.189	2.01
662.374	2
662.559	1.97
662.743	1.96
662.928	2.04
663.113	1.93
663.298	1.9
663.483	1.93
663.667	1.99
663.852	1.91
664.037	1.98
664.221	1.89
664.406	1.92
664.591	1.95
664.775	1.96
664.96	1.91
665.145	1.86
665.329	1.93
665.514	1.86
665.698	1.79
665.883	1.79
666.068	1.93
666.252	1.82
666.437	1.77
666.621	1.8
666.806	1.86
666.99	1.82
667.174	1.76
667.359	1.81
667.543	1.76
667.728	1.79
667.912	1.67
668.096	1.8
668.281	1.73
668.465	1.76
668.649	1.7
668.834	1.7
669.018	1.7
669.202	1.72
669.387	1.64
669.571	1.73
669.755	1.65
669.939	1.71
670.124	1.63
670.308	1.73
670.492	1.74
670.676	1.61
670.86	1.6
671.044	1.58
671.228	1.68
671.413	1.56
671.597	1.6
671.781	1.58
671.965	1.61
672.149	1.57
672.333	1.61
672.517	1.55
672.701	1.62
672.885	1.54
673.069	1.48
673.253	1.63
673.437	1.54
673.621	1.5
673.804	1.55
673.988	1.54
674.172	1.5
674.356	1.41
674.54	1.52
674.724	1.64
674.908	1.45
675.091	1.53
675.275	1.49
675.459	1.51
675.643	1.49
675.826	1.47
676.01	1.44
676.194	1.48
676.377	1.48
676.561	1.48
676.745	1.42
676.928	1.48
677.112	1.44
677.296	1.43
677.479	1.37
677.663	1.43
677.846	1.4
678.03	1.41
678.213	1.35
678.397	1.4
678.58	1.38
678.764	1.38
678.947	1.28
679.131	1.3
679.314	1.37
679.498	1.31
679.681	1.36
679.865	1.41
680.048	1.33
680.231	1.31
680.415	1.3
680.598	1.35
680.781	1.28
680.965	1.3
681.148	1.26
681.331	1.25
681.514	1.31
681.698	1.2
681.881	1.29
682.064	1.24
682.247	1.25
682.43	1.15
682.614	1.22
682.797	1.33
682.98	1.22
683.163	1.13
683.346	1.23
683.529	1.21
683.712	1.15
683.895	1.2
684.078	1.13
684.261	1.13
684.444	1.24
684.627	1.23
684.81	1.14
684.993	1.15
685.176	1.22
685.359	1.12
685.542	1.1
685.725	1.26
685.908	1.19
686.091	1.13
686.274	1.2
686.457	1.17
686.639	1.16
686.822	1.17
687.005	1.16
687.188	1.16
687.371	1.25
687.553	1.15
687.736	1.15
687.919	1.24
688.102	1.2
688.284	1.11
688.467	1.03
688.65	1.12
688.832	1.06
689.015	1.07
689.197	0.95
689.38	1.15
689.563	1.16
689.745	0.95
689.928	1.02
690.11	1.01
690.293	1.14
690.475	0.97
690.658	1.03
690.84	1.02
691.023	0.99
691.205	1
691.388	1.06
691.57	1.07
691.752	1.05
691.935	0.91
692.117	0.93
692.3	1.01
692.482	0.99
692.664	0.91
692.847	0.96
693.029	1.06
693.211	1.03
693.393	0.91
693.576	0.93
693.758	1.02
693.94	0.97
694.122	0.95
694.304	0.91
694.487	0.96
694.669	1
694.851	0.89
695.033	0.93
695.215	0.88
695.397	0.87
695.579	0.86
695.761	0.83
695.943	0.77
696.125	1.05
696.308	0.94
696.49	0.79
696.671	1.06
696.853	0.91
697.035	1.05
697.217	0.83
697.399	1
697.581	0.8
697.763	0.84
697.945	0.83
698.127	0.87
698.309	0.94
698.491	0.86
698.672	0.89
698.854	0.87
699.036	0.98
699.218	0.83
699.399	0.91
699.581	0.86
699.763	0.85
699.945	0.75
700.126	0.71
700.308	0.85
700.49	0.83
700.671	0.71
700.853	0.76
701.035	0.81
701.216	0.79
701.398	0.73
701.579	0.8
701.761	0.85
701.943	0.78
702.124	0.7
702.306	0.79
702.487	0.95
702.669	0.77
702.85	0.68
703.031	0.68
703.213	0.86
703.394	0.83
703.576	0.7
703.757	0.94
703.938	0.82
704.12	0.96
704.301	0.78
704.483	0.72
704.664	0.81
704.845	0.85
705.026	0.81
705.208	0.77
705.389	0.83
705.57	0.75
705.751	0.77
705.933	0.76
706.114	0.85
706.295	0.78
706.476	0.62
706.657	0.82
706.838	0.79
707.02	0.81
707.201	0.69
707.382	0.69
707.563	0.77
707.744	0.64
707.925	0.61
708.106	0.64
708.287	0.75
708.468	0.86
708.649	0.73
708.83	0.78
709.011	0.66
709.192	0.81
709.373	0.6
709.554	0.67
709.734	0.75
709.915	0.76
710.096	0.71
710.277	0.53
710.458	0.68
710.639	0.71
710.819	0.56
711	0.63
711.181	0.78
711.362	0.76
711.542	0.67
711.723	0.61
711.904	0.73
712.085	0.71
712.265	0.62
712.446	0.59
712.627	0.61
712.807	0.63
712.988	0.58
713.168	0.54
713.349	0.75
713.53	0.5
713.71	0.57
713.891	0.56
714.071	0.63
714.252	0.62
714.432	0.57
714.613	0.52
714.793	0.64
714.974	0.69
715.154	0.71
715.334	0.69
715.515	0.78
715.695	0.61
715.876	0.59
716.056	0.51
716.236	0.58
716.417	0.64
716.597	0.52
716.777	0.82
716.957	0.64
717.138	0.61
717.318	0.55
717.498	0.49
717.678	0.61
717.859	0.61
718.039	0.51
718.219	0.54
718.399	0.65
718.579	0.49
718.759	0.46
718.939	0.56
719.12	0.61
719.3	0.58
719.48	0.44
719.66	0.46
719.84	0.7
720.02	0.57
720.2	0.5
720.38	0.62
720.56	0.74
720.74	0.47
720.92	0.59
721.1	0.76
721.279	0.65
721.459	0.57
721.639	0.42
721.819	0.56
721.999	0.48
722.179	0.5
722.359	0.36
722.538	0.55
722.718	0.48
722.898	0.56
723.078	0.54
723.257	0.46
723.437	0.64
723.617	0.55
723.797	0.52
723.976	0.57
724.156	0.64
724.336	0.64
724.515	0.73
724.695	0.39
724.874	0.56
725.054	0.62
725.234	0.5
725.413	0.53
725.593	0.53
725.772	0.54
725.952	0.44
726.131	0.48
726.311	0.54
726.49	0.55
726.67	0.38
726.849	0.48
727.028	0.54
727.208	0.42
727.387	0.58
727.567	0.35
727.746	0.53
727.925	0.46
728.105	0.4
728.284	0.48
728.463	0.43
728.643	0.57
728.822	0.41
729.001	0.47
729.18	0.6
729.359	0.62
729.539	0.44
729.718	0.51
729.897	0.57
730.076	0.5
730.255	0.31
730.434	0.48
730.614	0.58
730.793	0.58
730.972	0.46
731.151	0.55
731.33	0.61
731.509	0.54
731.688	0.44
731.867	0.52
732.046	0.41
732.225	0.75
732.404	0.39
732.583	0.33
732.762	0.49
732.941	0.58
733.12	0.39
733.298	0.4
733.477	0.68
733.656	0.42
733.835	0.39
734.014	0.59
734.193	0.53
734.371	0.5
734.55	0.51
734.729	0.37
734.908	0.46
735.086	0.6
735.265	0.58
735.444	0.36
735.623	0.35
735.801	0.37
735.98	0.51
736.159	0.39
736.337	0.57
736.516	0.61
736.694	0.46
736.873	0.42
737.052	0.64
737.23	0.68
737.409	0.41
737.587	0.73
737.766	0.39
737.944	0.47
738.123	0.59
738.301	0.52
738.479	0.51
738.658	0.58
738.836	0.37
739.015	0.48
739.193	0.7
739.371	0.3
739.55	0.39
739.728	0.4
739.906	0.67
740.085	0.82
740.263	0.54
740.441	0.25
740.62	0.83
740.798	0.57
740.976	0.33
741.154	0.38
741.332	0.85
741.511	0.41
741.689	0.4
741.867	0.63
742.045	0.48
742.223	0.45
742.401	0.32
742.579	0.36
742.757	0.57
742.935	0.37
743.114	0.33
743.292	0.45
743.47	0.46
743.648	0.45
743.826	0.37
744.004	0.51
744.181	0.64
744.359	0.49
744.537	0.53
744.715	0.36
744.893	0.46
745.071	0.59
745.249	0.45
745.427	0.41
745.605	0.56
745.782	0.39
745.96	0.58
746.138	0.49
746.316	0.53
746.493	0.41
746.671	0.51
746.849	0.39
747.027	0.52
747.204	0.33
747.382	0.46
747.56	0.28
747.737	0.35
747.915	0.35
748.093	0.51
748.27	0.23
748.448	0.4
748.625	0.25
748.803	0.36
748.98	0.31
749.158	0.5
749.335	0.54
749.513	0.39
749.69	0.29
749.868	0.44
750.045	0.46
750.223	0.29
750.4	0.24
750.578	0.66
750.755	0.44
750.932	0.29
751.11	0.55
751.287	0.33
751.464	0.52
751.642	0.17
751.819	0.44
751.996	0.4
752.173	0.3
752.351	0.34
752.528	0.36
752.705	0.44
752.882	0.33
753.06	0.49
753.237	0.45
753.414	0.65
753.591	0.6
753.768	0.34
753.945	0.46
754.122	0.44
754.299	0.52
754.476	0.34
754.654	0.26
754.831	0.55
755.008	0.5
755.185	0.31
755.362	0.32
755.539	0.51
755.716	0.35
755.892	0.33
756.069	0.22
756.246	0.5
756.423	0.43
756.6	0.56
756.777	0.31
756.954	0.52
757.131	0.37
757.307	0.26
757.484	0.29
757.661	0.46
757.838	0.41
758.015	0.23
758.191	0.38
758.368	0.37
758.545	0.69
758.721	0.37
758.898	0.19
759.075	0.37
759.251	0.41
759.428	0.33
759.605	0.18
759.781	0.31
759.958	0.46
760.134	0.46
760.311	0.18
760.488	0.55
760.664	0.59
760.841	0.44
761.017	0.21
761.194	0.43
761.37	0.48
761.547	0.33
761.723	0.29
761.899	0.47
762.076	0.36
762.252	0.2
762.429	0.3
762.605	0.53
762.781	0.43
762.958	0.49
763.134	0.29
763.31	0.29
763.486	0.51
763.663	0.09
763.839	0.41
764.015	0.16
764.191	0.35
764.368	0.41
764.544	0.32
764.72	0.34
764.896	0.45
765.072	0.33
765.248	0.29
765.425	0.34
765.601	0.5
765.777	0.42
765.953	0.15
766.129	0.3
766.305	0.24
766.481	0.52
766.657	0.33
766.833	0.55
767.009	0.32
767.185	0.41
767.361	0.29
767.537	0.18
767.713	0.53
767.889	0.25
768.065	0.34
768.24	0.22
768.416	0.48
768.592	0.29
768.768	0.33
768.944	0.48
769.12	0.31
769.295	0.33
769.471	0.37
769.647	0.37
769.823	0.52
769.998	0.23
770.174	0.25
770.35	0.78
770.525	0.67
770.701	0.38
770.877	0.42
771.052	0.3
771.228	0.55
771.403	0.4
771.579	0.3
771.755	0.78
771.93	0.13
772.106	0.11
772.281	-0.04
772.457	0.43
772.632	0.41
772.808	0.14
772.983	0.32
773.159	0.29
773.334	0.63
773.509	0.38
773.685	0.19
773.86	0.83
774.036	0.62
774.211	0.35
774.386	0.34
774.562	0.38
774.737	0.55
774.912	0.41
775.087	0.4
775.263	0.49
775.438	0.41
775.613	0.16
775.788	0.38
775.964	0.56
776.139	0.82
776.314	0.18
776.489	0.42
776.664	0.38
776.839	0.26
777.014	0.49
777.19	0.61
777.365	0.68
777.54	0.68
777.715	0.26
777.89	0.27
778.065	0.25
778.24	0.31
778.415	0.56
778.59	0.28
778.765	0.43
778.94	0.58
779.115	0.3
779.289	0.35
779.464	0.37
779.639	0.16
779.814	0.24
779.989	0.1
780.164	0.74
780.339	0.35
780.513	0.2
780.688	0.35
780.863	0.49
781.038	0.56
781.212	0.19
781.387	0.37
781.562	0.73
781.737	0.27
781.911	0.6
782.086	0.23
782.261	0.37
782.435	0.7
782.61	0.41
782.784	0.43
782.959	0.7
783.134	0.16
783.308	0.24
783.483	0.19
783.657	0.92
783.832	0.75
784.006	0.06
784.181	0.51
784.355	0.55
784.53	0.26
784.704	0.23
784.878	0.7
785.053	0.56
785.227	0.66
785.402	0.8
785.576	0.32
785.75	0.51
785.925	0.31
786.099	0.39
786.273	0.77
786.448	0.55
786.622	0.69
786.796	0.53
786.97	0.58
787.145	0.93
787.319	-0.01
787.493	0.36
787.667	-0.06
787.841	0.61
788.015	0.67
788.19	0.37
788.364	0.5
788.538	0.83
788.712	0.75
788.886	0.25
789.06	0.56
789.234	0.62
789.408	0.31
789.582	0.22
789.756	0.36
789.93	0.26
790.104	0.2
790.278	0.31
790.452	0.24
790.626	0.41
790.8	0.35
790.973	0.82
791.147	0.77
791.321	0.88
791.495	0.69
791.669	0.4
791.843	0.39
792.016	0.37
792.19	0.9
792.364	0.04
792.538	1.12
792.711	0.91
792.885	0.45
793.059	0.07
793.233	-0.22
793.406	0.81
793.58	0.44
793.754	0.51
793.927	0.46
794.101	1.08
794.274	0.39
794.448	0.6
794.622	0.32
794.795	1.07
794.969	0.22
795.142	0.74
795.316	0.44
795.489	0.27
795.663	0.7
795.836	0.35
796.009	0.17
796.183	0.86
796.356	0.56
796.53	0.53
796.703	0.52
796.876	1.14
797.05	0.58
797.223	0.37
797.396	0.42
797.57	0.48
797.743	1.04
797.916	0.38
798.09	0.67
798.263	0.63
798.436	0.63
798.609	0.35
798.782	0.24
798.956	0.5
799.129	0.45
799.302	0.34
799.475	0.16
799.648	0.32
799.821	0.24
799.994	0.66
800.167	-0.06
800.34	0.61
800.514	0.52
800.687	0.28
800.86	0.19
801.033	0.71
801.206	0.81
801.379	0.17
801.551	0.99
801.724	0.48
801.897	1.24
802.07	0.32
802.243	-0.06
802.416	0.56
802.589	0.68
802.762	0.62
802.935	0.38
803.107	0.81
803.28	0.83
803.453	0.81
803.626	0.27
803.798	0.61
803.971	0.42
804.144	0.57
804.317	0.93
804.489	0.88
804.662	0.57
804.835	0.52
805.007	0.45
805.18	0.82
805.353	0.76
805.525	0.08
805.698	0.43
805.87	0.98
806.043	0.78
806.215	0.36
806.388	0.61
806.56	0.9
806.733	1.15
806.905	0.55
807.078	0.27
807.25	0.51
807.423	0.65
807.595	0.5
807.768	0.41
807.94	0.69
808.112	0.63
808.285	0.57
808.457	0.23
808.629	0.59
808.802	0.9
808.974	0.48
809.146	0
809.318	0.33
809.491	0.64
809.663	1.02
809.835	0.38
810.007	0.67
810.18	0.38
810.352	-0.15
810.524	0.74
810.696	0.62
810.868	1.36
811.04	0.36
811.212	0.54
811.384	0.9
811.556	0.7
811.728	0.28
811.901	1.48
812.073	0.52
812.245	1.16
812.417	0.67
812.589	-0.25
812.76	1.07
812.932	0.96
813.104	0.96
813.276	0.57
813.448	1.22
813.62	0.96
813.792	0.16
813.964	0.53
814.136	0.98
814.307	0.52
814.479	0.24
814.651	0.46
814.823	1.8
814.995	0.57
815.166	0.48
815.338	0.46
815.51	0.2
815.681	1.48
815.853	0.7
816.025	0.2
816.196	1.41
816.368	1.04
816.54	0.3
816.711	0.18
816.883	1.1
817.054	1.9
817.226	-0.13
817.398	0.66
817.569	0.25
817.741	0.43
817.912	0.83
818.084	1.04
818.255	1.27
818.426	0.62
818.598	0.64
818.769	0.01
818.941	1.25
819.112	1.25
819.283	0.91
819.455	0.27
819.626	0.98
819.798	1.23
819.969	0.78
820.14	0.59
820.311	0.76
820.483	1.11
820.654	0.83
820.825	0.81
820.996	0.86
821.168	0.01
821.339	0.41
821.51	0.44
821.681	0.17
821.852	0.72
822.023	0.02
822.195	0.45
822.366	1
822.537	0.89
822.708	1.1
822.879	0.7
823.05	1.11
823.221	0.83
823.392	1.09
823.563	0.46
823.734	0.67
823.905	0.9
824.076	0.5
824.247	0.8
824.418	0.4
824.589	1.58
824.759	0.83
824.93	0.76
825.101	-0.13
825.272	1.55
825.443	1.47
825.614	1.15
825.784	-0
825.955	2.25
826.126	1.04
826.297	1.09
826.467	1.97
826.638	2.21
826.809	0.18
826.98	0.93
827.15	1.69
827.321	1.03
827.492	1.54
827.662	0.8
827.833	2.15
828.003	1.34
828.174	0.42
828.345	-0.27
828.515	2.07
828.686	1.34
828.856	0.78
829.027	0.97
829.197	1.17
829.368	0.96
829.538	-0.01
829.709	0.25
829.879	1.49
830.049	1.38
830.22	0.65
830.39	1.12
830.56	1.92
830.731	1.04
830.901	0.61
831.072	0.97
831.242	1.19
831.412	1.44
831.582	0.69
831.753	0.03
831.923	1.92
832.093	1.37
832.263	0.7
832.434	0.19
832.604	0.89
832.774	1.6
832.944	0.82
833.114	0.09
833.284	0.93
833.454	0.88
833.624	0.82
833.795	0.87
833.965	1.38
834.135	1.63
834.305	-0.05
834.475	0.04
834.645	0.79
834.815	0.82
834.985	-0.02
835.155	-0.06
835.325	1.4
835.494	0.94
835.664	0.16
835.834	0.33
836.004	1.2
836.174	1.66
836.344	0.97
836.514	0.14
836.684	0.72
836.853	0.93
837.023	1.29
837.193	0.03
837.363	1.31
837.532	1.82
837.702	0.64
837.872	-0.26
838.041	1.7
838.211	2.36
838.381	-0.77
838.55	1.16
838.72	3.69
838.89	2.62
839.059	1.1
839.229	0.29
839.398	2.78
839.568	1.66
839.738	0.35
839.907	1.88
840.077	1.45
840.246	0.22
840.416	0.2
840.585	0.4
840.755	2.83
840.924	2.61
841.093	-0.43
841.263	0.46
841.432	1.14
841.602	0.97
841.771	0.53
841.94	0.67
842.11	3.28
842.279	3
842.448	0.07
842.617	0.2
842.787	2.33
842.956	0.31
843.125	0.58
843.294	1.45
843.464	2.05
843.633	1.78
843.802	0.47
843.971	0.78
844.14	2.09
844.309	2.21
844.479	-1.09
844.648	0.66
844.817	0.32
844.986	0.99
845.155	0.86
845.324	1.12
845.493	1.61
845.662	0.81
845.831	1.71
846	1.44
846.169	0.91
846.338	3.24
846.507	1.2
846.676	1.92
846.844	0.92
847.013	1.95
847.182	0.35
847.351	0.23
847.52	1.05
847.689	2.41
847.858	1.49
848.026	1.19
848.195	0.8
848.364	0.11
848.533	0.25
848.701	0.3
848.87	1.9
849.039	2.82
849.207	1.51
849.376	3.28
849.545	3.05
849.713	1.4
849.882	0.54
850.051	0.97
850.219	1.65
850.388	1.17
850.556	-0.01
850.725	0.31
850.893	1.16
851.062	1.62
851.23	2.56
851.399	0.12
851.567	1.58
851.736	0.59
851.904	0.52
852.073	2
852.241	2.14
852.41	2.39
852.578	1.71
852.746	-0.01
852.915	1.81
853.083	1.58
853.251	0.69
853.42	0.38
853.588	1.63
853.756	2.58
853.924	1.65
854.093	0.66
854.261	1.2
854.429	0.29
854.597	1.45
854.765	0.26
854.934	2.12
855.102	2.82
855.27	1.34
855.438	2.91
855.606	2.31
855.774	3.87
855.942	1.24
856.11	0.12
856.278	0.89
856.446	2.26
856.614	0.33
856.782	0.68
856.95	2.63
857.118	2.77
857.286	1.08
857.454	0.39
857.622	1.69
857.79	2.75
857.958	0.38
858.126	0.36
858.294	-0.59
858.462	2.32
858.629	0.4
858.797	1.06
858.965	2.32
859.133	0.7
859.301	1.4
859.468	0.45
859.636	1.65
859.804	3.78
859.971	2.17
860.139	0.25
860.307	2.97
860.474	3.1
860.642	0.46
860.81	1.37
860.977	1.66
861.145	3.46
861.313	0.91
861.48	1.07
861.648	3.12
861.815	1.09
861.983	-0.24
862.15	1.14
862.318	2.82
862.485	2.9
862.653	0.45
862.82	1
862.988	5.01
863.155	2.32
863.322	0.54
863.49	-0.51
863.657	1.4
863.824	3.48
863.992	2.48
864.159	1.6
864.326	1.82
864.494	0.14
864.661	4.46
864.828	-0.01
864.996	4.96
865.163	3.8
865.33	0.76
865.497	-1.58
865.664	2.07
865.832	-1.38
865.999	1.72
866.166	0.39
866.333	1.57
866.5	0.16
866.667	1.09
866.834	3.38
867.001	3.15
867.168	0.38
867.335	3.11
867.502	0.49
867.669	2.84
867.836	5.8
868.003	1.04
868.17	2.07
868.337	4.87
868.504	5.84
868.671	-0.66
868.838	0.82
869.005	3.68
869.172	2.58
869.339	1.71
869.505	0.43
869.672	2
869.839	4.73
870.006	0.62
870.173	-0.01
870.339	3.63
870.506	5.41
870.673	2.9
870.84	3.49
871.006	2.7
871.173	2.33
871.34	3.1
871.506	0.68
871.673	3.01
871.839	0.1
872.006	3.38
872.173	1.39
872.339	1.51
872.506	5.04
872.672	1.87
872.839	0.76
873.005	3.47
873.172	5.62
873.338	2.59
873.505	1.6
873.671	1.66
873.838	3.31
874.004	-0.78
874.171	1.25
874.337	3.06
874.503	5.66
874.67	-0.06
874.836	1.47
875.002	5.9
875.169	4.63
875.335	2.68
875.501	0.22
875.668	3.99
875.834	2.72
876	0.95
876.166	1.55
876.332	3.2
876.499	6.86
876.665	1.02
876.831	1.34
876.997	7.66
877.163	1.61
877.329	2.11
877.495	2.13
877.662	3.1
877.828	4.27
877.994	0.98
878.16	-1.45
878.326	3.13
878.492	3.69
878.658	1.67
878.824	4.02
878.99	3.13
879.156	2.97
879.322	5.35
879.487	3.03
879.653	2.42
879.819	2.06
879.985	0.81
880.151	0.66
880.317	3
880.483	2.34
880.648	3.22
880.814	0.74
880.98	4.32
881.146	-1.57
881.312	1.66
881.477	2.56
881.643	2.96
881.809	4.94
881.974	4.11
882.14	1.13
882.306	1.65
882.471	7.45
882.637	-0.16
882.803	2.91
882.968	5.99
883.134	7
883.299	1.24
883.465	3.22
883.63	4.28
883.796	3.89
883.961	2.61
884.127	3.21
884.292	-2.09
884.458	0.1
884.623	0.1
