Data from Apollo_Calib_20240827__AbsoluteIrradiance__12__23-21-00-247.txt Node

Date: Tue Aug 27 23:21:00 BST 2024
User: biology
Spectrometer: FLMT08252
Trigger mode: 0
Integration Time (sec): 5.000000E-1
Scans to average: 5
Electric dark correction enabled: true
Nonlinearity correction enabled: false
Boxcar width: 0
XAxis mode: Wavelengths
Number of Pixels in Spectrum: 3648
>>>>>Begin Spectral Data<<<<<
179.588	-0
179.809	-0
180.03	-0
180.251	-0
180.473	-0
180.694	0
180.915	0
181.136	-0
181.357	-0
181.578	-0
181.799	0
182.02	-0
182.241	-0
182.462	-0
182.683	0
182.904	-0
183.125	-0
183.346	0
183.567	0
183.788	0
184.009	0
184.23	0
184.451	0
184.672	0
184.892	0
185.113	0
185.334	0
185.555	0
185.776	0
185.996	0
186.217	0
186.438	0
186.659	0
186.879	0
187.1	0
187.321	0
187.541	0
187.762	0
187.983	0
188.203	0
188.424	0
188.644	0
188.865	0
189.086	0
189.306	0
189.527	0
189.747	0
189.968	0
190.188	0
190.409	0
190.629	0
190.849	0
191.07	0
191.29	0
191.511	0
191.731	0
191.951	0
192.172	0
192.392	0
192.612	0
192.833	0
193.053	0
193.273	0
193.493	0
193.714	0
193.934	0
194.154	0
194.374	0
194.594	0
194.815	0
195.035	0
195.255	0
195.475	0
195.695	0
195.915	0
196.135	0
196.355	0
196.575	0
196.795	0
197.015	0
197.235	0
197.455	0
197.675	0
197.895	0
198.115	0
198.335	0
198.555	0
198.775	0
198.995	0
199.214	0
199.434	0
199.654	0
199.874	0
200.094	3.66
200.313	2.46
200.533	2.76
200.753	1.75
200.973	3.68
201.192	3.15
201.412	1.54
201.632	2.11
201.851	3.04
202.071	2.43
202.291	2.41
202.51	1.87
202.73	2.4
202.95	1.74
203.169	1.77
203.389	2.3
203.608	2.16
203.828	2
204.047	2.28
204.267	2.36
204.486	2.17
204.706	2.36
204.925	1.93
205.145	1.83
205.364	2.12
205.583	2.43
205.803	1.72
206.022	1.57
206.242	1.89
206.461	1.73
206.68	1.26
206.9	1.59
207.119	2.19
207.338	1.45
207.557	1.31
207.777	1.64
207.996	1.24
208.215	2.18
208.434	1.49
208.654	1.55
208.873	1.5
209.092	1.75
209.311	1.4
209.53	1.37
209.749	1.35
209.968	1.05
210.187	1.41
210.407	0.98
210.626	0.96
210.845	1.35
211.064	1.24
211.283	1.1
211.502	1.79
211.721	1.36
211.94	1.05
212.159	1.41
212.377	1.49
212.596	1.54
212.815	1.28
213.034	1.25
213.253	1.25
213.472	1.49
213.691	1.26
213.91	0.8
214.128	1
214.347	1.42
214.566	1.05
214.785	0.82
215.003	1.22
215.222	1.09
215.441	1.04
215.66	0.85
215.878	0.91
216.097	1.09
216.316	0.86
216.534	1.01
216.753	1.06
216.972	0.88
217.19	0.96
217.409	0.85
217.627	0.63
217.846	0.86
218.064	0.96
218.283	0.84
218.501	1.46
218.72	1.21
218.938	0.81
219.157	0.76
219.375	1.2
219.594	0.92
219.812	0.6
220.031	0.72
220.249	1.19
220.467	1.05
220.686	0.82
220.904	0.66
221.122	0.81
221.341	1.1
221.559	1.09
221.777	0.7
221.995	0.72
222.214	0.92
222.432	0.81
222.65	1.05
222.868	0.89
223.086	0.81
223.305	0.92
223.523	0.67
223.741	1.09
223.959	0.56
224.177	0.6
224.395	0.56
224.613	0.81
224.831	0.88
225.049	0.68
225.267	0.64
225.485	0.68
225.703	0.65
225.921	0.82
226.139	0.76
226.357	0.97
226.575	0.72
226.793	0.65
227.011	1.26
227.229	0.7
227.447	0.87
227.665	0.5
227.883	0.5
228.1	0.73
228.318	0.68
228.536	0.52
228.754	0.57
228.972	0.64
229.189	0.73
229.407	0.5
229.625	0.57
229.843	0.76
230.06	0.83
230.278	0.67
230.496	0.73
230.713	0.8
230.931	0.79
231.149	0.61
231.366	0.57
231.584	0.68
231.801	1.05
232.019	0.58
232.236	0.5
232.454	0.53
232.671	0.77
232.889	0.59
233.106	0.51
233.324	0.55
233.541	0.54
233.759	0.65
233.976	0.52
234.194	0.61
234.411	0.62
234.628	0.53
234.846	0.49
235.063	0.59
235.28	0.53
235.498	0.6
235.715	0.43
235.932	0.73
236.149	0.6
236.367	0.49
236.584	0.52
236.801	0.51
237.018	0.58
237.236	0.63
237.453	0.44
237.67	0.59
237.887	0.5
238.104	0.49
238.321	0.46
238.538	0.49
238.755	0.58
238.973	0.32
239.19	0.5
239.407	0.58
239.624	0.57
239.841	0.4
240.058	0.46
240.275	0.6
240.492	0.54
240.709	0.44
240.925	0.43
241.142	0.54
241.359	0.43
241.576	0.46
241.793	0.48
242.01	0.51
242.227	0.53
242.444	0.58
242.66	0.51
242.877	0.5
243.094	0.52
243.311	0.57
243.527	0.48
243.744	0.65
243.961	0.54
244.178	0.44
244.394	0.45
244.611	0.45
244.828	0.58
245.044	0.34
245.261	0.55
245.477	0.43
245.694	0.47
245.911	0.47
246.127	0.57
246.344	0.6
246.56	0.49
246.777	0.33
246.993	0.5
247.21	0.45
247.426	0.46
247.643	0.45
247.859	0.41
248.076	0.33
248.292	0.57
248.508	0.4
248.725	0.45
248.941	0.44
249.157	0.57
249.374	0.47
249.59	0.46
249.806	0.43
250.023	0.46
250.239	0.4
250.455	0.41
250.671	0.44
250.888	0.46
251.104	0.51
251.32	0.41
251.536	0.48
251.752	0.45
251.969	0.5
252.185	0.53
252.401	0.58
252.617	0.48
252.833	0.43
253.049	0.4
253.265	0.42
253.481	0.43
253.697	0.39
253.913	0.34
254.129	0.48
254.345	0.43
254.561	0.43
254.777	0.44
254.993	0.53
255.209	0.41
255.425	0.4
255.641	0.38
255.857	0.45
256.073	0.54
256.288	0.35
256.504	0.4
256.72	0.45
256.936	0.52
257.152	0.46
257.367	0.33
257.583	0.47
257.799	0.47
258.015	0.29
258.23	0.36
258.446	0.58
258.662	0.43
258.877	0.39
259.093	0.39
259.309	0.43
259.524	0.39
259.74	0.34
259.955	0.32
260.171	0.47
260.387	0.37
260.602	0.52
260.818	0.49
261.033	0.36
261.249	0.41
261.464	0.39
261.68	0.28
261.895	0.39
262.11	0.49
262.326	0.36
262.541	0.29
262.757	0.37
262.972	0.42
263.187	0.46
263.403	0.4
263.618	0.4
263.833	0.36
264.049	0.32
264.264	0.43
264.479	0.44
264.694	0.49
264.91	0.32
265.125	0.32
265.34	0.42
265.555	0.52
265.77	0.43
265.986	0.31
266.201	0.4
266.416	0.44
266.631	0.39
266.846	0.38
267.061	0.41
267.276	0.37
267.491	0.27
267.706	0.35
267.921	0.39
268.136	0.37
268.351	0.37
268.566	0.29
268.781	0.48
268.996	0.32
269.211	0.36
269.426	0.33
269.641	0.33
269.856	0.34
270.071	0.31
270.285	0.34
270.5	0.43
270.715	0.36
270.93	0.41
271.145	0.38
271.359	0.44
271.574	0.29
271.789	0.3
272.004	0.37
272.218	0.34
272.433	0.39
272.648	0.28
272.862	0.4
273.077	0.28
273.292	0.35
273.506	0.33
273.721	0.33
273.936	0.36
274.15	0.4
274.365	0.32
274.579	0.44
274.794	0.38
275.008	0.45
275.223	0.27
275.437	0.35
275.652	0.5
275.866	0.37
276.081	0.31
276.295	0.44
276.509	0.32
276.724	0.35
276.938	0.36
277.153	0.35
277.367	0.35
277.581	0.27
277.796	0.3
278.01	0.31
278.224	0.39
278.438	0.46
278.653	0.26
278.867	0.28
279.081	0.12
279.295	0.28
279.51	0.35
279.724	0.27
279.938	0.41
280.152	0.36
280.366	0.29
280.58	0.35
280.794	0.43
281.008	0.41
281.222	0.35
281.437	0.45
281.651	0.37
281.865	0.38
282.079	0.29
282.293	0.24
282.507	0.26
282.721	0.32
282.935	0.29
283.148	0.25
283.362	0.31
283.576	0.24
283.79	0.35
284.004	0.26
284.218	0.33
284.432	0.24
284.646	0.32
284.859	0.27
285.073	0.34
285.287	0.32
285.501	0.3
285.714	0.28
285.928	0.3
286.142	0.24
286.356	0.28
286.569	0.25
286.783	0.39
286.997	0.33
287.21	0.33
287.424	0.33
287.637	0.3
287.851	0.35
288.065	0.33
288.278	0.28
288.492	0.37
288.705	0.27
288.919	0.35
289.132	0.25
289.346	0.34
289.559	0.24
289.773	0.22
289.986	0.28
290.2	0.31
290.413	0.35
290.626	0.23
290.84	0.27
291.053	0.24
291.267	0.35
291.48	0.3
291.693	0.32
291.906	0.3
292.12	0.27
292.333	0.27
292.546	0.27
292.76	0.38
292.973	0.29
293.186	0.31
293.399	0.27
293.612	0.32
293.826	0.23
294.039	0.3
294.252	0.34
294.465	0.3
294.678	0.3
294.891	0.26
295.104	0.23
295.317	0.28
295.53	0.3
295.743	0.3
295.956	0.25
296.169	0.37
296.382	0.3
296.595	0.26
296.808	0.26
297.021	0.3
297.234	0.31
297.447	0.24
297.66	0.31
297.873	0.33
298.086	0.32
298.299	0.23
298.511	0.24
298.724	0.28
298.937	0.21
299.15	0.24
299.363	0.28
299.575	0.31
299.788	0.26
300.001	0.26
300.213	0.21
300.426	0.31
300.639	0.26
300.852	0.23
301.064	0.32
301.277	0.33
301.489	0.31
301.702	0.29
301.915	0.31
302.127	0.25
302.34	0.3
302.552	0.3
302.765	0.26
302.977	0.32
303.19	0.24
303.402	0.27
303.615	0.28
303.827	0.24
304.04	0.28
304.252	0.26
304.464	0.31
304.677	0.37
304.889	0.34
305.102	0.21
305.314	0.29
305.526	0.29
305.739	0.29
305.951	0.25
306.163	0.28
306.375	0.38
306.588	0.19
306.8	0.26
307.012	0.19
307.224	0.31
307.436	0.32
307.649	0.21
307.861	0.25
308.073	0.28
308.285	0.27
308.497	0.27
308.709	0.24
308.921	0.25
309.133	0.32
309.346	0.3
309.558	0.27
309.77	0.3
309.982	0.32
310.194	0.29
310.406	0.24
310.617	0.32
310.829	0.26
311.041	0.32
311.253	0.23
311.465	0.24
311.677	0.29
311.889	0.23
312.101	0.22
312.313	0.33
312.524	0.26
312.736	0.22
312.948	0.26
313.16	0.34
313.372	0.31
313.583	0.29
313.795	0.26
314.007	0.24
314.218	0.29
314.43	0.21
314.642	0.24
314.853	0.23
315.065	0.29
315.277	0.24
315.488	0.29
315.7	0.32
315.912	0.28
316.123	0.21
316.335	0.26
316.546	0.31
316.758	0.25
316.969	0.27
317.181	0.29
317.392	0.26
317.604	0.32
317.815	0.24
318.026	0.19
318.238	0.24
318.449	0.25
318.661	0.22
318.872	0.21
319.083	0.24
319.295	0.33
319.506	0.23
319.717	0.31
319.929	0.27
320.14	0.23
320.351	0.27
320.562	0.23
320.774	0.23
320.985	0.29
321.196	0.2
321.407	0.2
321.618	0.34
321.829	0.25
322.041	0.31
322.252	0.25
322.463	0.35
322.674	0.28
322.885	0.23
323.096	0.27
323.307	0.26
323.518	0.3
323.729	0.24
323.94	0.3
324.151	0.26
324.362	0.28
324.573	0.28
324.784	0.23
324.995	0.28
325.206	0.27
325.417	0.18
325.628	0.24
325.838	0.25
326.049	0.29
326.26	0.29
326.471	0.26
326.682	0.26
326.892	0.3
327.103	0.22
327.314	0.25
327.525	0.28
327.735	0.3
327.946	0.31
328.157	0.23
328.368	0.28
328.578	0.28
328.789	0.32
328.999	0.26
329.21	0.3
329.421	0.28
329.631	0.25
329.842	0.24
330.052	0.28
330.263	0.27
330.473	0.3
330.684	0.23
330.894	0.22
331.105	0.25
331.315	0.28
331.526	0.24
331.736	0.29
331.947	0.34
332.157	0.24
332.367	0.21
332.578	0.3
332.788	0.32
332.999	0.34
333.209	0.24
333.419	0.2
333.629	0.28
333.84	0.29
334.05	0.31
334.26	0.36
334.47	0.32
334.681	0.31
334.891	0.23
335.101	0.33
335.311	0.35
335.521	0.23
335.732	0.24
335.942	0.34
336.152	0.29
336.362	0.24
336.572	0.25
336.782	0.3
336.992	0.24
337.202	0.24
337.412	0.3
337.622	0.25
337.832	0.28
338.042	0.27
338.252	0.27
338.462	0.28
338.672	0.28
338.882	0.22
339.092	0.2
339.302	0.35
339.511	0.3
339.721	0.23
339.931	0.25
340.141	0.29
340.351	0.34
340.561	0.29
340.77	0.27
340.98	0.23
341.19	0.32
341.4	0.24
341.609	0.25
341.819	0.22
342.029	0.27
342.238	0.26
342.448	0.22
342.658	0.27
342.867	0.26
343.077	0.21
343.286	0.27
343.496	0.27
343.706	0.3
343.915	0.23
344.125	0.3
344.334	0.27
344.544	0.21
344.753	0.29
344.963	0.23
345.172	0.25
345.381	0.23
345.591	0.25
345.8	0.26
346.01	0.29
346.219	0.31
346.428	0.11
346.638	0.24
346.847	0.26
347.056	0.32
347.266	0.22
347.475	0.3
347.684	0.27
347.893	0.28
348.103	0.26
348.312	0.22
348.521	0.24
348.73	0.25
348.94	0.26
349.149	0.24
349.358	0.26
349.567	0.21
349.776	0.21
349.985	0.24
350.194	0.3
350.403	0.32
350.612	0.22
350.821	0.24
351.03	0.27
351.239	0.24
351.448	0.24
351.657	0.18
351.866	0.29
352.075	0.27
352.284	0.32
352.493	0.17
352.702	0.31
352.911	0.25
353.12	0.29
353.329	0.28
353.538	0.27
353.746	0.28
353.955	0.23
354.164	0.27
354.373	0.27
354.582	0.31
354.79	0.25
354.999	0.29
355.208	0.24
355.416	0.25
355.625	0.25
355.834	0.26
356.042	0.27
356.251	0.23
356.46	0.2
356.668	0.27
356.877	0.32
357.085	0.31
357.294	0.22
357.503	0.27
357.711	0.24
357.92	0.39
358.128	0.23
358.337	0.2
358.545	0.24
358.754	0.23
358.962	0.27
359.17	0.28
359.379	0.25
359.587	0.25
359.796	0.19
360.004	0.28
360.212	0.29
360.421	0.26
360.629	0.22
360.837	0.26
361.046	0.29
361.254	0.34
361.462	0.25
361.67	0.25
361.879	0.24
362.087	0.29
362.295	0.26
362.503	0.21
362.711	0.17
362.92	0.31
363.128	0.24
363.336	0.19
363.544	0.22
363.752	0.24
363.96	0.25
364.168	0.24
364.376	0.24
364.584	0.23
364.792	0.28
365	0.24
365.208	0.29
365.416	0.28
365.624	0.31
365.832	0.21
366.04	0.31
366.248	0.27
366.456	0.31
366.664	0.31
366.872	0.26
367.079	0.2
367.287	0.24
367.495	0.26
367.703	0.27
367.911	0.24
368.118	0.23
368.326	0.27
368.534	0.22
368.742	0.3
368.949	0.18
369.157	0.23
369.365	0.27
369.572	0.25
369.78	0.24
369.988	0.3
370.195	0.28
370.403	0.24
370.61	0.24
370.818	0.23
371.026	0.31
371.233	0.22
371.441	0.25
371.648	0.22
371.856	0.27
372.063	0.24
372.271	0.24
372.478	0.22
372.685	0.24
372.893	0.33
373.1	0.23
373.308	0.29
373.515	0.38
373.722	0.29
373.93	0.26
374.137	0.28
374.344	0.35
374.552	0.27
374.759	0.28
374.966	0.35
375.173	0.25
375.381	0.33
375.588	0.24
375.795	0.21
376.002	0.26
376.209	0.23
376.417	0.27
376.624	0.28
376.831	0.3
377.038	0.27
377.245	0.2
377.452	0.22
377.659	0.29
377.866	0.19
378.073	0.32
378.28	0.29
378.487	0.25
378.694	0.27
378.901	0.28
379.108	0.32
379.315	0.31
379.522	0.32
379.729	0.23
379.936	0.25
380.143	0.26
380.35	0.28
380.557	0.25
380.763	0.26
380.97	0.25
381.177	0.29
381.384	0.3
381.591	0.26
381.797	0.21
382.004	0.31
382.211	0.32
382.418	0.31
382.624	0.33
382.831	0.31
383.038	0.26
383.244	0.25
383.451	0.29
383.658	0.32
383.864	0.3
384.071	0.21
384.277	0.33
384.484	0.25
384.69	0.35
384.897	0.27
385.103	0.24
385.31	0.27
385.516	0.25
385.723	0.23
385.929	0.3
386.136	0.25
386.342	0.28
386.549	0.27
386.755	0.31
386.961	0.29
387.168	0.3
387.374	0.33
387.58	0.29
387.787	0.29
387.993	0.33
388.199	0.27
388.406	0.29
388.612	0.26
388.818	0.28
389.024	0.28
389.231	0.3
389.437	0.34
389.643	0.29
389.849	0.35
390.055	0.31
390.261	0.3
390.467	0.36
390.674	0.27
390.88	0.29
391.086	0.28
391.292	0.28
391.498	0.35
391.704	0.37
391.91	0.28
392.116	0.26
392.322	0.22
392.528	0.36
392.734	0.3
392.94	0.33
393.146	0.34
393.352	0.27
393.557	0.33
393.763	0.27
393.969	0.34
394.175	0.31
394.381	0.32
394.587	0.27
394.792	0.32
394.998	0.34
395.204	0.36
395.41	0.33
395.615	0.3
395.821	0.33
396.027	0.36
396.233	0.31
396.438	0.34
396.644	0.37
396.85	0.31
397.055	0.29
397.261	0.43
397.466	0.43
397.672	0.35
397.878	0.37
398.083	0.28
398.289	0.34
398.494	0.39
398.7	0.39
398.905	0.28
399.111	0.4
399.316	0.31
399.522	0.36
399.727	0.36
399.932	0.36
400.138	0.32
400.343	0.38
400.549	0.36
400.754	0.37
400.959	0.4
401.165	0.35
401.37	0.38
401.575	0.46
401.78	0.34
401.986	0.33
402.191	0.33
402.396	0.38
402.601	0.45
402.807	0.46
403.012	0.43
403.217	0.42
403.422	0.38
403.627	0.42
403.832	0.38
404.037	0.44
404.243	0.44
404.448	0.42
404.653	0.38
404.858	0.47
405.063	0.48
405.268	0.41
405.473	0.39
405.678	0.43
405.883	0.62
406.088	0.5
406.293	0.48
406.498	0.44
406.703	0.52
406.907	0.44
407.112	0.47
407.317	0.55
407.522	0.58
407.727	0.51
407.932	0.51
408.136	0.58
408.341	0.58
408.546	0.63
408.751	0.6
408.956	0.57
409.16	0.66
409.365	0.64
409.57	0.6
409.774	0.6
409.979	0.67
410.184	0.67
410.388	0.66
410.593	0.71
410.798	0.73
411.002	0.72
411.207	0.79
411.411	0.8
411.616	0.76
411.82	0.85
412.025	0.82
412.229	0.84
412.434	0.96
412.638	0.93
412.843	0.95
413.047	0.99
413.252	0.92
413.456	0.97
413.66	1.06
413.865	1
414.069	1.13
414.273	1.13
414.478	1.14
414.682	1.15
414.886	1.18
415.091	1.24
415.295	1.26
415.499	1.4
415.703	1.31
415.908	1.45
416.112	1.36
416.316	1.56
416.52	1.58
416.724	1.54
416.929	1.6
417.133	1.82
417.337	1.69
417.541	1.8
417.745	1.85
417.949	1.93
418.153	1.97
418.357	1.98
418.561	2.15
418.765	2.11
418.969	2.31
419.173	2.39
419.377	2.44
419.581	2.61
419.785	2.57
419.989	2.6
420.193	2.8
420.397	2.8
420.601	2.99
420.804	3.06
421.008	3.06
421.212	3.21
421.416	3.22
421.62	3.23
421.823	3.29
422.027	3.46
422.231	3.36
422.435	3.44
422.638	3.53
422.842	3.59
423.046	3.73
423.249	3.9
423.453	3.9
423.657	4.12
423.86	4.13
424.064	4.28
424.268	4.36
424.471	4.42
424.675	4.68
424.878	4.72
425.082	4.81
425.285	5.11
425.489	4.95
425.692	5.2
425.896	5.21
426.099	5.43
426.303	5.46
426.506	5.73
426.71	5.82
426.913	5.97
427.116	6.27
427.32	6.22
427.523	6.38
427.726	6.61
427.93	6.71
428.133	7.08
428.336	7.15
428.54	7.29
428.743	7.49
428.946	7.84
429.149	7.71
429.353	7.82
429.556	7.9
429.759	8.03
429.962	8.13
430.165	8.23
430.368	7.85
430.571	7.98
430.775	7.98
430.978	8.07
431.181	8.07
431.384	8.07
431.587	8.27
431.79	8.64
431.993	8.56
432.196	8.82
432.399	9.32
432.602	9.39
432.805	9.42
433.008	9.97
433.211	9.87
433.414	10.14
433.616	10.17
433.819	10.18
434.022	10.42
434.225	10.5
434.428	10.44
434.631	11.04
434.833	10.83
435.036	11.05
435.239	11.24
435.442	11.3
435.645	11.49
435.847	11.52
436.05	11.97
436.253	12.03
436.455	12.12
436.658	11.92
436.861	12.18
437.063	12.36
437.266	12.38
437.468	12.75
437.671	13.01
437.874	13.09
438.076	12.94
438.279	13.38
438.481	13.46
438.684	14.15
438.886	13.84
439.089	14.11
439.291	14.1
439.494	14.43
439.696	14.68
439.899	15.14
440.101	15.52
440.303	15.78
440.506	16.44
440.708	16.23
440.91	16.29
441.113	16.67
441.315	16.9
441.517	16.63
441.72	17.22
441.922	16.87
442.124	16.73
442.326	17.15
442.529	17.3
442.731	17.33
442.933	17.65
443.135	17.42
443.337	17.41
443.539	18.07
443.742	17.59
443.944	18.41
444.146	18.08
444.348	18.08
444.55	17.95
444.752	18.01
444.954	18.07
445.156	17.95
445.358	18.41
445.56	18.69
445.762	18.43
445.964	18.85
446.166	18.6
446.368	18.65
446.57	18.6
446.772	18.18
446.974	17.95
447.175	18.37
447.377	17.92
447.579	18.47
447.781	18.17
447.983	17.96
448.184	17.45
448.386	17.79
448.588	17.3
448.79	17.3
448.991	17.58
449.193	17.74
449.395	16.9
449.597	16.57
449.798	16.54
450	16.09
450.202	15.92
450.403	16.02
450.605	15.8
450.806	15.55
451.008	15.43
451.21	15.22
451.411	14.76
451.613	13.98
451.814	14.27
452.016	14.12
452.217	13.43
452.419	13.58
452.62	13.13
452.821	12.95
453.023	12.82
453.224	12.43
453.426	12.15
453.627	11.24
453.828	11.41
454.03	11.45
454.231	11.47
454.432	11.2
454.634	10.93
454.835	10.77
455.036	10.56
455.238	10.22
455.439	9.89
455.64	9.66
455.841	9.6
456.042	9.61
456.244	9.38
456.445	9.09
456.646	8.72
456.847	8.72
457.048	8.63
457.249	8.57
457.45	8.29
457.651	7.9
457.852	7.65
458.054	7.35
458.255	7.35
458.456	7.43
458.657	7.31
458.858	6.87
459.058	6.75
459.259	6.86
459.46	6.51
459.661	6.5
459.862	6.55
460.063	6.51
460.264	6.36
460.465	6.11
460.666	6.12
460.866	5.89
461.067	5.51
461.268	5.57
461.469	5.61
461.67	5.46
461.87	5.29
462.071	5.27
462.272	5.23
462.473	5.2
462.673	5.27
462.874	5.35
463.075	5.19
463.275	5.22
463.476	5.19
463.676	5.12
463.877	5.02
464.078	4.96
464.278	4.99
464.479	4.95
464.679	4.88
464.88	4.8
465.08	4.74
465.281	4.67
465.481	4.35
465.682	4.23
465.882	4.28
466.083	4.15
466.283	4.1
466.483	3.97
466.684	3.8
466.884	3.73
467.085	3.73
467.285	3.82
467.485	3.7
467.686	3.58
467.886	3.53
468.086	3.45
468.286	3.39
468.487	3.46
468.687	3.35
468.887	3.28
469.087	3.39
469.287	3.31
469.488	3.14
469.688	3.21
469.888	3.15
470.088	3.13
470.288	3.06
470.488	3.04
470.688	2.87
470.888	2.85
471.088	2.7
471.288	2.85
471.488	2.76
471.688	2.74
471.888	2.71
472.088	2.85
472.288	2.74
472.488	2.65
472.688	2.61
472.888	2.67
473.088	2.57
473.288	2.55
473.488	2.49
473.688	2.62
473.887	2.48
474.087	2.45
474.287	2.49
474.487	2.48
474.687	2.44
474.886	2.39
475.086	2.35
475.286	2.42
475.486	2.24
475.685	2.28
475.885	2.24
476.085	2.28
476.284	2.29
476.484	2.33
476.684	2.24
476.883	2.33
477.083	2.15
477.282	2.15
477.482	2.17
477.681	2.14
477.881	2.09
478.08	2.08
478.28	2.04
478.479	2.14
478.679	2.13
478.878	2.06
479.078	2.07
479.277	2.09
479.477	2.04
479.676	2
479.875	2.04
480.075	1.99
480.274	2.06
480.473	2.09
480.673	2.03
480.872	2.06
481.071	2.02
481.271	2.05
481.47	1.98
481.669	2.08
481.868	1.96
482.067	2
482.267	1.91
482.466	1.96
482.665	1.96
482.864	1.95
483.063	1.93
483.262	2.01
483.461	2.02
483.661	2.07
483.86	2.01
484.059	2.06
484.258	2.03
484.457	2.06
484.656	2.05
484.855	2.07
485.054	1.95
485.253	2
485.452	1.99
485.651	2.1
485.849	2.01
486.048	2.02
486.247	2.04
486.446	2.08
486.645	2.07
486.844	2.07
487.043	2.08
487.241	2.05
487.44	2.06
487.639	2.18
487.838	2.13
488.037	2.12
488.235	2.17
488.434	2.17
488.633	2.06
488.831	2.27
489.03	2.21
489.229	2.24
489.427	2.23
489.626	2.23
489.825	2.3
490.023	2.29
490.222	2.32
490.42	2.31
490.619	2.37
490.817	2.37
491.016	2.38
491.214	2.4
491.413	2.47
491.611	2.36
491.81	2.39
492.008	2.44
492.207	2.54
492.405	2.54
492.604	2.46
492.802	2.58
493	2.59
493.199	2.6
493.397	2.64
493.595	2.7
493.794	2.67
493.992	2.78
494.19	2.7
494.388	2.82
494.587	2.72
494.785	2.8
494.983	2.7
495.181	2.87
495.379	2.91
495.578	2.98
495.776	2.96
495.974	2.9
496.172	3.02
496.37	3.08
496.568	3.09
496.766	3.03
496.964	3.2
497.162	3.2
497.36	3.22
497.558	3.21
497.756	3.31
497.954	3.32
498.152	3.32
498.35	3.43
498.548	3.36
498.746	3.41
498.944	3.41
499.142	3.44
499.34	3.49
499.538	3.66
499.736	3.5
499.933	3.55
500.131	3.59
500.329	3.77
500.527	3.76
500.725	3.89
500.922	3.84
501.12	3.87
501.318	3.93
501.516	3.92
501.713	4.02
501.911	4
502.109	3.95
502.306	4.1
502.504	3.99
502.701	4.09
502.899	4.12
503.097	4.24
503.294	4.19
503.492	4.32
503.689	4.42
503.887	4.35
504.084	4.42
504.282	4.43
504.479	4.39
504.677	4.53
504.874	4.48
505.072	4.45
505.269	4.71
505.466	4.64
505.664	4.74
505.861	4.64
506.059	4.78
506.256	4.78
506.453	4.79
506.651	4.97
506.848	5.03
507.045	4.94
507.242	4.89
507.44	5.02
507.637	5.04
507.834	5.06
508.031	5.16
508.229	5.1
508.426	5.04
508.623	5.25
508.82	5.31
509.017	5.27
509.214	5.19
509.411	5.36
509.608	5.39
509.805	5.47
510.003	5.43
510.2	5.52
510.397	5.65
510.594	5.55
510.791	5.6
510.988	5.66
511.184	5.58
511.381	5.53
511.578	5.64
511.775	5.82
511.972	5.7
512.169	5.78
512.366	5.79
512.563	5.95
512.76	6
512.956	5.97
513.153	5.93
513.35	5.89
513.547	5.91
513.744	6.08
513.94	6.03
514.137	6.08
514.334	6.05
514.53	6.15
514.727	6.32
514.924	6.24
515.12	6.23
515.317	6.28
515.514	6.17
515.71	6.08
515.907	6.42
516.103	6.34
516.3	6.33
516.497	6.41
516.693	6.47
516.89	6.42
517.086	6.48
517.283	6.48
517.479	6.42
517.676	6.6
517.872	6.61
518.068	6.66
518.265	6.61
518.461	6.55
518.658	6.68
518.854	6.67
519.05	6.81
519.247	6.82
519.443	6.74
519.639	6.92
519.836	6.79
520.032	6.73
520.228	6.92
520.424	6.88
520.621	6.93
520.817	6.96
521.013	6.86
521.209	7.08
521.405	7.08
521.601	7.01
521.798	6.97
521.994	6.99
522.19	6.95
522.386	6.98
522.582	7.08
522.778	7.2
522.974	7.09
523.17	7.1
523.366	7.13
523.562	7.13
523.758	7.16
523.954	7.02
524.15	7.22
524.346	7.25
524.542	7.25
524.738	7.22
524.934	7.39
525.129	7.34
525.325	7.2
525.521	7.25
525.717	7.47
525.913	7.26
526.109	7.29
526.304	7.4
526.5	7.43
526.696	7.44
526.892	7.39
527.087	7.58
527.283	7.55
527.479	7.48
527.674	7.29
527.87	7.5
528.066	7.52
528.261	7.55
528.457	7.38
528.653	7.61
528.848	7.6
529.044	7.59
529.239	7.47
529.435	7.51
529.63	7.45
529.826	7.48
530.021	7.59
530.217	7.62
530.412	7.55
530.608	7.61
530.803	7.56
530.999	7.49
531.194	7.66
531.389	7.74
531.585	7.71
531.78	7.76
531.975	7.7
532.171	7.66
532.366	7.73
532.561	7.76
532.757	7.68
532.952	7.84
533.147	7.63
533.342	7.78
533.538	7.62
533.733	7.85
533.928	7.58
534.123	7.76
534.318	7.79
534.513	7.7
534.709	7.9
534.904	7.82
535.099	7.95
535.294	7.97
535.489	7.91
535.684	7.82
535.879	7.81
536.074	7.92
536.269	7.89
536.464	7.91
536.659	7.82
536.854	7.91
537.049	7.94
537.244	7.93
537.439	7.89
537.634	7.89
537.828	7.97
538.023	7.9
538.218	7.94
538.413	7.85
538.608	7.87
538.803	7.91
538.997	7.9
539.192	7.96
539.387	7.87
539.582	7.92
539.776	7.86
539.971	7.95
540.166	8
540.36	7.86
540.555	8.1
540.75	7.97
540.944	7.92
541.139	8.03
541.334	7.95
541.528	7.96
541.723	8.02
541.917	8.04
542.112	7.93
542.306	7.88
542.501	7.97
542.695	7.98
542.89	7.89
543.084	7.96
543.279	8.01
543.473	8.06
543.668	8.08
543.862	7.9
544.056	7.91
544.251	8.02
544.445	8.11
544.64	8.11
544.834	7.81
545.028	7.69
545.222	8.03
545.417	8.19
545.611	8.09
545.805	8.05
546	7.85
546.194	8.06
546.388	8.04
546.582	7.95
546.776	7.99
546.97	8.03
547.165	7.97
547.359	8.02
547.553	7.96
547.747	7.99
547.941	8.16
548.135	8.01
548.329	8.11
548.523	8.04
548.717	8.04
548.911	8.01
549.105	8.02
549.299	8.15
549.493	8.08
549.687	7.97
549.881	8.15
550.075	8.06
550.269	7.97
550.463	8.15
550.657	8.05
550.85	8.03
551.044	8.06
551.238	8.1
551.432	8.09
551.626	8.15
551.82	8.1
552.013	8.01
552.207	8.15
552.401	8.12
552.594	8.06
552.788	7.97
552.982	8.07
553.176	7.98
553.369	8.2
553.563	8.15
553.756	8.04
553.95	8.09
554.144	8.1
554.337	8.13
554.531	7.9
554.724	8.11
554.918	8.18
555.111	8.02
555.305	8.09
555.498	8.04
555.692	8.21
555.885	8.12
556.079	8.06
556.272	8.07
556.466	8.1
556.659	8.09
556.852	8.14
557.046	8.01
557.239	7.96
557.432	8.09
557.626	8.15
557.819	8.15
558.012	8.08
558.206	8.16
558.399	8.12
558.592	8.04
558.785	8.05
558.979	8.06
559.172	8.04
559.365	8.07
559.558	8.01
559.751	8.01
559.944	8.15
560.138	8.05
560.331	8.11
560.524	8.18
560.717	8.06
560.91	8.15
561.103	8.1
561.296	8.01
561.489	8.12
561.682	8.25
561.875	8.07
562.068	8.19
562.261	8.01
562.454	8.21
562.647	8.07
562.84	8.16
563.032	8.12
563.225	8
563.418	8.1
563.611	8.12
563.804	8.15
563.997	7.98
564.19	7.9
564.382	8.18
564.575	8.1
564.768	8.02
564.961	8.11
565.153	8.05
565.346	7.99
565.539	8.14
565.731	8.08
565.924	8.16
566.117	8.23
566.309	8.12
566.502	8.03
566.695	8.01
566.887	8.12
567.08	8.11
567.272	8.13
567.465	7.97
567.657	8.16
567.85	7.96
568.042	8.08
568.235	8.03
568.427	7.87
568.62	8.06
568.812	8.04
569.005	8.14
569.197	7.97
569.389	8.02
569.582	8.05
569.774	8.07
569.966	7.98
570.159	7.97
570.351	7.96
570.543	7.98
570.736	7.97
570.928	7.9
571.12	8.01
571.312	7.98
571.505	7.79
571.697	8.01
571.889	8.03
572.081	8.02
572.273	7.97
572.465	7.96
572.658	7.98
572.85	7.98
573.042	8.03
573.234	7.85
573.426	7.95
573.618	7.96
573.81	7.95
574.002	7.97
574.194	7.86
574.386	7.89
574.578	7.79
574.77	7.89
574.962	7.94
575.154	7.72
575.346	7.82
575.538	7.76
575.729	7.89
575.921	7.95
576.113	7.96
576.305	7.85
576.497	7.97
576.689	7.75
576.88	7.77
577.072	7.93
577.264	7.9
577.456	7.85
577.647	7.88
577.839	7.96
578.031	7.8
578.223	7.73
578.414	7.71
578.606	7.86
578.798	7.82
578.989	7.78
579.181	7.88
579.372	7.85
579.564	7.82
579.755	7.71
579.947	7.73
580.139	7.79
580.33	7.65
580.522	7.76
580.713	7.73
580.905	7.74
581.096	7.82
581.287	7.64
581.479	7.69
581.67	7.73
581.862	7.7
582.053	7.74
582.244	7.66
582.436	7.83
582.627	7.61
582.818	7.61
583.01	7.65
583.201	7.73
583.392	7.65
583.583	7.66
583.775	7.5
583.966	7.55
584.157	7.57
584.348	7.7
584.54	7.54
584.731	7.62
584.922	7.5
585.113	7.45
585.304	7.57
585.495	7.52
585.686	7.58
585.877	7.56
586.068	7.71
586.259	7.54
586.45	7.51
586.641	7.5
586.832	7.61
587.023	7.49
587.214	7.44
587.405	7.55
587.596	7.39
587.787	7.38
587.978	7.4
588.169	7.36
588.36	7.4
588.551	7.43
588.742	7.35
588.932	7.46
589.123	7.23
589.314	7.47
589.505	7.31
589.696	7.41
589.886	7.31
590.077	7.26
590.268	7.28
590.458	7.19
590.649	7.13
590.84	7.22
591.03	7.23
591.221	7.24
591.412	7.14
591.602	7.34
591.793	7.16
591.984	7.26
592.174	7.26
592.365	7.34
592.555	7.1
592.746	7.12
592.936	7.17
593.127	7.18
593.317	7.16
593.508	7.18
593.698	7.05
593.889	7.08
594.079	7.01
594.269	7.02
594.46	7.03
594.65	7.12
594.84	6.99
595.031	6.96
595.221	6.95
595.411	7.03
595.602	7.01
595.792	6.89
595.982	6.9
596.172	6.98
596.363	6.88
596.553	6.93
596.743	6.96
596.933	6.9
597.123	6.85
597.314	6.76
597.504	6.78
597.694	6.91
597.884	6.82
598.074	6.91
598.264	6.86
598.454	6.78
598.644	6.78
598.834	6.75
599.024	6.7
599.214	6.64
599.404	6.74
599.594	6.69
599.784	6.66
599.974	6.7
600.164	6.69
600.354	6.64
600.544	6.57
600.734	6.65
600.924	6.57
601.114	6.55
601.303	6.53
601.493	6.57
601.683	6.54
601.873	6.56
602.063	6.44
602.252	6.49
602.442	6.41
602.632	6.35
602.821	6.41
603.011	6.5
603.201	6.41
603.39	6.42
603.58	6.32
603.77	6.35
603.959	6.46
604.149	6.35
604.339	6.36
604.528	6.38
604.718	6.29
604.907	6.28
605.097	6.24
605.286	6.21
605.476	6.2
605.665	6.28
605.855	6.22
606.044	6.3
606.234	6.2
606.423	6.16
606.612	6.25
606.802	6.18
606.991	6.16
607.181	6.14
607.37	6.15
607.559	5.89
607.749	6.11
607.938	5.98
608.127	6.06
608.316	6.02
608.506	5.99
608.695	6.07
608.884	6.01
609.073	5.94
609.263	6.01
609.452	6.01
609.641	5.92
609.83	5.84
610.019	5.98
610.208	5.82
610.397	5.82
610.586	5.79
610.775	5.81
610.965	5.79
611.154	5.72
611.343	5.82
611.532	5.69
611.721	5.84
611.91	5.67
612.099	5.68
612.287	5.67
612.476	5.58
612.665	5.74
612.854	5.59
613.043	5.59
613.232	5.62
613.421	5.54
613.61	5.61
613.798	5.54
613.987	5.56
614.176	5.46
614.365	5.45
614.554	5.45
614.742	5.54
614.931	5.31
615.12	5.51
615.309	5.39
615.497	5.4
615.686	5.33
615.875	5.33
616.063	5.35
616.252	5.34
616.44	5.35
616.629	5.24
616.818	5.34
617.006	5.27
617.195	5.18
617.383	5.18
617.572	5.16
617.76	5.18
617.949	5.22
618.137	5.3
618.326	5.23
618.514	5.09
618.703	4.96
618.891	5.15
619.079	5.04
619.268	5.1
619.456	5.01
619.644	5.07
619.833	5.02
620.021	5.01
620.209	4.89
620.398	4.97
620.586	4.89
620.774	5.04
620.962	4.98
621.151	4.97
621.339	4.94
621.527	4.81
621.715	4.84
621.903	4.82
622.092	4.81
622.28	4.94
622.468	4.72
622.656	4.8
622.844	4.81
623.032	4.8
623.22	4.64
623.408	4.83
623.596	4.72
623.784	4.75
623.972	4.61
624.16	4.72
624.348	4.67
624.536	4.75
624.724	4.56
624.912	4.57
625.1	4.58
625.288	4.62
625.476	4.48
625.664	4.64
625.851	4.51
626.039	4.52
626.227	4.49
626.415	4.51
626.603	4.4
626.79	4.49
626.978	4.42
627.166	4.44
627.354	4.38
627.541	4.31
627.729	4.27
627.917	4.47
628.104	4.41
628.292	4.28
628.48	4.31
628.667	4.25
628.855	4.38
629.042	4.28
629.23	4.28
629.418	4.26
629.605	4.29
629.793	4.18
629.98	4.2
630.168	4.15
630.355	4.15
630.543	4.19
630.73	4.07
630.917	4.08
631.105	4.2
631.292	4.11
631.48	4.12
631.667	4.13
631.854	4.05
632.042	4.06
632.229	4
632.416	4.06
632.604	3.97
632.791	3.89
632.978	4.07
633.165	3.93
633.353	4
633.54	4.04
633.727	3.83
633.914	3.81
634.101	3.83
634.289	3.93
634.476	3.84
634.663	3.8
634.85	3.82
635.037	3.79
635.224	3.76
635.411	3.84
635.598	3.72
635.785	3.73
635.972	3.7
636.159	3.75
636.346	3.7
636.533	3.63
636.72	3.67
636.907	3.63
637.094	3.59
637.281	3.57
637.468	3.62
637.655	3.62
637.842	3.61
638.029	3.61
638.215	3.55
638.402	3.57
638.589	3.49
638.776	3.48
638.963	3.5
639.149	3.53
639.336	3.56
639.523	3.55
639.709	3.45
639.896	3.44
640.083	3.38
640.27	3.47
640.456	3.41
640.643	3.41
640.829	3.28
641.016	3.3
641.203	3.27
641.389	3.32
641.576	3.32
641.762	3.25
641.949	3.23
642.135	3.3
642.322	3.28
642.508	3.19
642.695	3.24
642.881	3.12
643.068	3.2
643.254	3.26
643.441	3.21
643.627	3.24
643.813	3.06
644	3.17
644.186	3.05
644.372	3.17
644.559	3.1
644.745	3.05
644.931	3.05
645.118	3.07
645.304	3.07
645.49	3.07
645.676	3
645.862	3.04
646.049	3.08
646.235	3.02
646.421	3.07
646.607	3.04
646.793	2.94
646.979	2.85
647.165	2.98
647.352	2.96
647.538	2.97
647.724	2.95
647.91	2.81
648.096	2.94
648.282	2.89
648.468	2.86
648.654	2.87
648.84	2.86
649.026	2.82
649.212	2.85
649.397	2.83
649.583	2.8
649.769	2.87
649.955	2.75
650.141	2.8
650.327	2.75
650.513	2.73
650.698	2.79
650.884	2.59
651.07	2.81
651.256	2.68
651.442	2.73
651.627	2.64
651.813	2.7
651.999	2.61
652.184	2.67
652.37	2.66
652.556	2.59
652.741	2.69
652.927	2.49
653.113	2.64
653.298	2.58
653.484	2.56
653.669	2.5
653.855	2.58
654.04	2.61
654.226	2.61
654.412	2.59
654.597	2.46
654.782	2.56
654.968	2.57
655.153	2.53
655.339	2.54
655.524	2.4
655.71	2.47
655.895	2.46
656.08	2.47
656.266	2.51
656.451	2.44
656.636	2.38
656.822	2.46
657.007	2.39
657.192	2.39
657.378	2.41
657.563	2.31
657.748	2.36
657.933	2.43
658.118	2.32
658.304	2.34
658.489	2.4
658.674	2.29
658.859	2.32
659.044	2.31
659.229	2.34
659.414	2.32
659.599	2.33
659.785	2.27
659.97	2.26
660.155	2.29
660.34	2.3
660.525	2.26
660.71	2.22
660.895	2.26
661.08	2.19
661.264	2.2
661.449	2.23
661.634	2.25
661.819	2.19
662.004	2.13
662.189	2.12
662.374	2.1
662.559	2.14
662.743	2.06
662.928	2.09
663.113	2.06
663.298	2.05
663.483	2.03
663.667	2.06
663.852	2.03
664.037	2.08
664.221	2
664.406	2.09
664.591	1.98
664.775	1.99
664.96	1.94
665.145	1.93
665.329	1.95
665.514	1.94
665.698	1.93
665.883	1.85
666.068	1.98
666.252	1.99
666.437	1.83
666.621	1.88
666.806	1.88
666.99	1.86
667.174	1.81
667.359	1.85
667.543	1.83
667.728	1.83
667.912	1.73
668.096	1.77
668.281	1.73
668.465	1.81
668.649	1.72
668.834	1.71
669.018	1.79
669.202	1.79
669.387	1.78
669.571	1.76
669.755	1.7
669.939	1.71
670.124	1.71
670.308	1.71
670.492	1.69
670.676	1.65
670.86	1.67
671.044	1.64
671.228	1.73
671.413	1.62
671.597	1.59
671.781	1.58
671.965	1.66
672.149	1.62
672.333	1.58
672.517	1.6
672.701	1.58
672.885	1.54
673.069	1.52
673.253	1.65
673.437	1.55
673.621	1.59
673.804	1.57
673.988	1.55
674.172	1.57
674.356	1.48
674.54	1.51
674.724	1.62
674.908	1.47
675.091	1.55
675.275	1.51
675.459	1.51
675.643	1.43
675.826	1.51
676.01	1.48
676.194	1.46
676.377	1.51
676.561	1.51
676.745	1.41
676.928	1.49
677.112	1.49
677.296	1.39
677.479	1.39
677.663	1.38
677.846	1.43
678.03	1.38
678.213	1.35
678.397	1.4
678.58	1.39
678.764	1.41
678.947	1.31
679.131	1.36
679.314	1.44
679.498	1.39
679.681	1.4
679.865	1.39
680.048	1.34
680.231	1.34
680.415	1.29
680.598	1.33
680.781	1.32
680.965	1.23
681.148	1.29
681.331	1.28
681.514	1.27
681.698	1.22
681.881	1.28
682.064	1.27
682.247	1.26
682.43	1.22
682.614	1.32
682.797	1.29
682.98	1.24
683.163	1.2
683.346	1.23
683.529	1.21
683.712	1.14
683.895	1.28
684.078	1.14
684.261	1.19
684.444	1.22
684.627	1.24
684.81	1.18
684.993	1.2
685.176	1.18
685.359	1.16
685.542	1.19
685.725	1.27
685.908	1.14
686.091	1.14
686.274	1.17
686.457	1.18
686.639	1.11
686.822	1.2
687.005	1.1
687.188	1.12
687.371	1.16
687.553	1.17
687.736	1.12
687.919	1.19
688.102	1.15
688.284	1.12
688.467	1.06
688.65	1.08
688.832	1.07
689.015	1.06
689.197	1.01
689.38	1.18
689.563	1.14
689.745	1.06
689.928	1.05
690.11	1.03
690.293	1.06
690.475	0.95
690.658	1.09
690.84	0.95
691.023	1.02
691.205	1.02
691.388	1.04
691.57	1.07
691.752	1.06
691.935	0.94
692.117	1
692.3	0.95
692.482	1.01
692.664	0.98
692.847	0.99
693.029	1.07
693.211	1.02
693.393	0.96
693.576	0.9
693.758	0.94
693.94	0.98
694.122	0.94
694.304	0.95
694.487	0.91
694.669	1.03
694.851	0.92
695.033	0.99
695.215	0.94
695.397	0.89
695.579	0.94
695.761	0.87
695.943	0.83
696.125	0.93
696.308	0.99
696.49	0.79
696.671	1.01
696.853	0.94
697.035	1.02
697.217	0.85
697.399	0.92
697.581	0.86
697.763	0.88
697.945	0.86
698.127	0.91
698.309	0.93
698.491	0.84
698.672	0.97
698.854	0.88
699.036	0.87
699.218	0.78
699.399	0.92
699.581	0.84
699.763	0.8
699.945	0.76
700.126	0.75
700.308	0.88
700.49	0.75
700.671	0.76
700.853	0.81
701.035	0.8
701.216	0.88
701.398	0.78
701.579	0.78
701.761	0.89
701.943	0.76
702.124	0.76
702.306	0.79
702.487	0.94
702.669	0.83
702.85	0.8
703.031	0.74
703.213	0.83
703.394	0.83
703.576	0.77
703.757	0.95
703.938	0.85
704.12	0.89
704.301	0.84
704.483	0.68
704.664	0.8
704.845	0.88
705.026	0.85
705.208	0.74
705.389	0.78
705.57	0.86
705.751	0.74
705.933	0.79
706.114	0.77
706.295	0.75
706.476	0.76
706.657	0.81
706.838	0.77
707.02	0.84
707.201	0.75
707.382	0.79
707.563	0.83
707.744	0.7
707.925	0.71
708.106	0.74
708.287	0.74
708.468	0.78
708.649	0.73
708.83	0.75
709.011	0.71
709.192	0.74
709.373	0.68
709.554	0.69
709.734	0.75
709.915	0.73
710.096	0.72
710.277	0.63
710.458	0.69
710.639	0.78
710.819	0.58
711	0.69
711.181	0.72
711.362	0.75
711.542	0.69
711.723	0.66
711.904	0.75
712.085	0.73
712.265	0.71
712.446	0.58
712.627	0.73
712.807	0.73
712.988	0.7
713.168	0.54
713.349	0.73
713.53	0.53
713.71	0.59
713.891	0.57
714.071	0.61
714.252	0.56
714.432	0.66
714.613	0.53
714.793	0.63
714.974	0.79
715.154	0.7
715.334	0.68
715.515	0.73
715.695	0.49
715.876	0.66
716.056	0.63
716.236	0.6
716.417	0.63
716.597	0.58
716.777	0.76
716.957	0.59
717.138	0.64
717.318	0.6
717.498	0.54
717.678	0.57
717.859	0.64
718.039	0.62
718.219	0.68
718.399	0.65
718.579	0.53
718.759	0.59
718.939	0.63
719.12	0.64
719.3	0.63
719.48	0.56
719.66	0.5
719.84	0.76
720.02	0.59
720.2	0.5
720.38	0.56
720.56	0.68
720.74	0.53
720.92	0.61
721.1	0.75
721.279	0.7
721.459	0.58
721.639	0.49
721.819	0.63
721.999	0.57
722.179	0.67
722.359	0.53
722.538	0.56
722.718	0.57
722.898	0.55
723.078	0.6
723.257	0.57
723.437	0.64
723.617	0.62
723.797	0.6
723.976	0.57
724.156	0.65
724.336	0.76
724.515	0.76
724.695	0.5
724.874	0.56
725.054	0.59
725.234	0.6
725.413	0.57
725.593	0.57
725.772	0.49
725.952	0.6
726.131	0.62
726.311	0.62
726.49	0.62
726.67	0.56
726.849	0.51
727.028	0.54
727.208	0.63
727.387	0.63
727.567	0.59
727.746	0.56
727.925	0.5
728.105	0.53
728.284	0.52
728.463	0.63
728.643	0.65
728.822	0.59
729.001	0.66
729.18	0.64
729.359	0.7
729.539	0.55
729.718	0.56
729.897	0.65
730.076	0.61
730.255	0.5
730.434	0.65
730.614	0.55
730.793	0.71
730.972	0.56
731.151	0.57
731.33	0.74
731.509	0.58
731.688	0.58
731.867	0.59
732.046	0.46
732.225	0.7
732.404	0.56
732.583	0.44
732.762	0.6
732.941	0.66
733.12	0.6
733.298	0.55
733.477	0.62
733.656	0.57
733.835	0.51
734.014	0.65
734.193	0.6
734.371	0.57
734.55	0.69
734.729	0.47
734.908	0.61
735.086	0.63
735.265	0.67
735.444	0.45
735.623	0.51
735.801	0.52
735.98	0.66
736.159	0.53
736.337	0.73
736.516	0.73
736.694	0.64
736.873	0.53
737.052	0.66
737.23	0.73
737.409	0.44
737.587	0.84
737.766	0.47
737.944	0.53
738.123	0.69
738.301	0.75
738.479	0.63
738.658	0.63
738.836	0.48
739.015	0.62
739.193	0.8
739.371	0.46
739.55	0.65
739.728	0.47
739.906	0.75
740.085	0.73
740.263	0.57
740.441	0.45
740.62	0.71
740.798	0.61
740.976	0.58
741.154	0.48
741.332	0.71
741.511	0.51
741.689	0.64
741.867	0.56
742.045	0.58
742.223	0.49
742.401	0.5
742.579	0.51
742.757	0.61
742.935	0.48
743.114	0.48
743.292	0.51
743.47	0.56
743.648	0.63
743.826	0.55
744.004	0.6
744.181	0.6
744.359	0.5
744.537	0.61
744.715	0.38
744.893	0.48
745.071	0.51
745.249	0.48
745.427	0.51
745.605	0.55
745.782	0.45
745.96	0.62
746.138	0.45
746.316	0.46
746.493	0.48
746.671	0.49
746.849	0.55
747.027	0.57
747.204	0.42
747.382	0.62
747.56	0.42
747.737	0.38
747.915	0.33
748.093	0.52
748.27	0.48
748.448	0.46
748.625	0.41
748.803	0.38
748.98	0.48
749.158	0.49
749.335	0.57
749.513	0.37
749.69	0.45
749.868	0.48
750.045	0.54
750.223	0.41
750.4	0.3
750.578	0.62
750.755	0.34
750.932	0.31
751.11	0.57
751.287	0.28
751.464	0.47
751.642	0.34
751.819	0.43
751.996	0.46
752.173	0.47
752.351	0.34
752.528	0.42
752.705	0.33
752.882	0.38
753.06	0.45
753.237	0.48
753.414	0.64
753.591	0.44
753.768	0.42
753.945	0.46
754.122	0.33
754.299	0.48
754.476	0.34
754.654	0.35
754.831	0.55
755.008	0.51
755.185	0.32
755.362	0.42
755.539	0.34
755.716	0.61
755.892	0.41
756.069	0.35
756.246	0.41
756.423	0.34
756.6	0.43
756.777	0.38
756.954	0.54
757.131	0.36
757.307	0.26
757.484	0.27
757.661	0.46
757.838	0.42
758.015	0.31
758.191	0.54
758.368	0.45
758.545	0.47
758.721	0.46
758.898	0.4
759.075	0.45
759.251	0.53
759.428	0.45
759.605	0.27
759.781	0.49
759.958	0.41
760.134	0.47
760.311	0.39
760.488	0.47
760.664	0.45
760.841	0.39
761.017	0.39
761.194	0.36
761.37	0.54
761.547	0.47
761.723	0.38
761.899	0.51
762.076	0.3
762.252	0.33
762.429	0.41
762.605	0.5
762.781	0.3
762.958	0.46
763.134	0.33
763.31	0.34
763.486	0.54
763.663	0.26
763.839	0.51
764.015	0.31
764.191	0.28
764.368	0.35
764.544	0.35
764.72	0.39
764.896	0.56
765.072	0.4
765.248	0.34
765.425	0.39
765.601	0.37
765.777	0.4
765.953	0.19
766.129	0.39
766.305	0.23
766.481	0.49
766.657	0.4
766.833	0.61
767.009	0.3
767.185	0.2
767.361	0.5
767.537	0.23
767.713	0.55
767.889	0.35
768.065	0.38
768.24	0.59
768.416	0.49
768.592	0.43
768.768	0.32
768.944	0.4
769.12	0.41
769.295	0.37
769.471	0.5
769.647	0.34
769.823	0.5
769.998	0.26
770.174	0.18
770.35	0.55
770.525	0.63
770.701	0.44
770.877	0.43
771.052	0.31
771.228	0.43
771.403	0.5
771.579	0.56
771.755	0.7
771.93	0.36
772.106	0.16
772.281	0.18
772.457	0.41
772.632	0.37
772.808	0.3
772.983	0.47
773.159	0.26
773.334	0.43
773.509	0.33
773.685	0.35
773.86	0.67
774.036	0.61
774.211	0.45
774.386	0.29
774.562	0.32
774.737	0.57
774.912	0.25
775.087	0.43
775.263	0.44
775.438	0.58
775.613	0.33
775.788	0.39
775.964	0.51
776.139	0.49
776.314	0.32
776.489	0.52
776.664	0.56
776.839	0.33
777.014	0.53
777.19	0.54
777.365	0.51
777.54	0.49
777.715	0.51
777.89	0.37
778.065	0.28
778.24	0.4
778.415	0.51
778.59	0.26
778.765	0.27
778.94	0.38
779.115	0.58
779.289	0.4
779.464	0.43
779.639	0.45
779.814	0.23
779.989	0.28
780.164	0.61
780.339	0.41
780.513	0.37
780.688	0.49
780.863	0.48
781.038	0.5
781.212	0.37
781.387	0.44
781.562	0.48
781.737	0.63
781.911	0.73
782.086	0.43
782.261	0.48
782.435	0.58
782.61	0.5
782.784	0.49
782.959	0.41
783.134	0.38
783.308	0.35
783.483	0.51
783.657	0.62
783.832	0.62
784.006	0.06
784.181	0.67
784.355	0.73
784.53	0.49
784.704	0.4
784.878	0.68
785.053	0.53
785.227	0.59
785.402	0.76
785.576	0.19
785.75	0.43
785.925	0.45
786.099	0.31
786.273	0.54
786.448	0.66
786.622	0.6
786.796	0.51
786.97	0.43
787.145	0.81
787.319	0.13
787.493	0.39
787.667	0.19
787.841	0.54
788.015	0.63
788.19	0.18
788.364	0.41
788.538	0.53
788.712	0.74
788.886	0.34
789.06	0.61
789.234	0.53
789.408	0.14
789.582	0.51
789.756	0.48
789.93	0.12
790.104	0.4
790.278	0.52
790.452	0.29
790.626	0.76
790.8	0.44
790.973	0.71
791.147	0.8
791.321	0.63
791.495	0.73
791.669	0.67
791.843	0.66
792.016	0.64
792.19	0.74
792.364	0.28
792.538	0.78
792.711	0.91
792.885	0.42
793.059	0.26
793.233	-0.01
793.406	0.65
793.58	0.46
793.754	0.55
793.927	0.26
794.101	0.8
794.274	0.64
794.448	0.75
794.622	0.43
794.795	0.69
794.969	0.57
795.142	0.89
795.316	0.44
795.489	0.51
795.663	0.74
795.836	0.2
796.009	0.51
796.183	0.77
796.356	0.63
796.53	0.62
796.703	0.39
796.876	1.06
797.05	0.54
797.223	0.49
797.396	0.67
797.57	0.64
797.743	0.76
797.916	0.44
798.09	0.59
798.263	0.64
798.436	0.62
798.609	0.55
798.782	0.44
798.956	0.64
799.129	0.75
799.302	0.4
799.475	0.32
799.648	0.63
799.821	0.22
799.994	0.38
800.167	0.25
800.34	0.71
800.514	0.53
800.687	0.8
800.86	0.56
801.033	0.55
801.206	0.66
801.379	0.45
801.551	0.71
801.724	0.48
801.897	1.07
802.07	0.27
802.243	0.1
802.416	0.64
802.589	0.4
802.762	0.81
802.935	0.54
803.107	0.84
803.28	1.07
803.453	0.84
803.626	0.44
803.798	0.38
803.971	0.37
804.144	0.99
804.317	0.66
804.489	0.75
804.662	0.65
804.835	0.94
805.007	-0.02
805.18	1.02
805.353	0.8
805.525	0.27
805.698	0.59
805.87	0.85
806.043	0.88
806.215	0.44
806.388	0.35
806.56	0.74
806.733	0.85
806.905	0.71
807.078	0.48
807.25	0.73
807.423	0.74
807.595	0.32
807.768	0.44
807.94	1.17
808.112	0.57
808.285	0.63
808.457	0.74
808.629	0.42
808.802	0.85
808.974	0.61
809.146	1.07
809.318	0.09
809.491	0.4
809.663	0.78
809.835	0.46
810.007	0.94
810.18	0.36
810.352	0.52
810.524	0.34
810.696	0.81
810.868	0.95
811.04	0.5
811.212	0.66
811.384	0.98
811.556	0.99
811.728	0.73
811.901	1.43
812.073	0.55
812.245	1.11
812.417	0.77
812.589	0.17
812.76	0.53
812.932	0.91
813.104	0.65
813.276	0.39
813.448	1.03
813.62	0.65
813.792	0.94
813.964	0.98
814.136	0.66
814.307	0.78
814.479	0.44
814.651	0.65
814.823	1.5
814.995	0.55
815.166	0.99
815.338	0.69
815.51	0.49
815.681	1.51
815.853	0.6
816.025	0.46
816.196	1.28
816.368	1.17
816.54	0.35
816.711	0.62
816.883	1.5
817.054	1.54
817.226	0.43
817.398	1.05
817.569	0.96
817.741	0.92
817.912	0.72
818.084	0.69
818.255	0.83
818.426	0.85
818.598	0.93
818.769	0.3
818.941	1.25
819.112	0.88
819.283	1.3
819.455	0.29
819.626	1.18
819.798	1.14
819.969	0.8
820.14	0.82
820.311	0.91
820.483	0.48
820.654	1.15
820.825	0.94
820.996	0.8
821.168	0.56
821.339	0.69
821.51	0.14
821.681	0.73
821.852	0.53
822.023	0.87
822.195	0.53
822.366	1.26
822.537	0.78
822.708	0.87
822.879	0.81
823.05	1.38
823.221	0.76
823.392	1.58
823.563	0.74
823.734	0.79
823.905	0.6
824.076	1.18
824.247	0.53
824.418	0.49
824.589	1.43
824.759	0.89
824.93	0.84
825.101	0.43
825.272	1.3
825.443	1.38
825.614	1.53
825.784	-0.38
825.955	2.11
826.126	1.2
826.297	1.41
826.467	1.63
826.638	1.4
826.809	0.78
826.98	0.59
827.15	1.66
827.321	0.64
827.492	2.37
827.662	1.05
827.833	1.78
828.003	1.23
828.174	-0.18
828.345	0.33
828.515	1.91
828.686	1.12
828.856	0.67
829.027	1.2
829.197	1.36
829.368	1.23
829.538	0.95
829.709	0.13
829.879	0.8
830.049	0.99
830.22	0.39
830.39	0.91
830.56	1.1
830.731	0.84
830.901	1.21
831.072	1.24
831.242	0.88
831.412	0.56
831.582	0.88
831.753	0.49
831.923	1.72
832.093	0.74
832.263	1.18
832.434	0.36
832.604	0.61
832.774	1.04
832.944	0.91
833.114	1.18
833.284	1.68
833.454	0.89
833.624	0.93
833.795	0.69
833.965	1.82
834.135	1.62
834.305	0.67
834.475	0.66
834.645	0.76
834.815	1.32
834.985	0.09
835.155	0.95
835.325	1.28
835.494	2.05
835.664	0.91
835.834	0.31
836.004	1.11
836.174	1.25
836.344	1.14
836.514	0.42
836.684	0.99
836.853	1.21
837.023	1.32
837.193	1.46
837.363	1.3
837.532	1.32
837.702	1.09
837.872	0.69
838.041	1.7
838.211	2.38
838.381	0.22
838.55	1.61
838.72	2.89
838.89	1.79
839.059	1.04
839.229	1.49
839.398	1.96
839.568	0.68
839.738	1.73
839.907	2.04
840.077	1.85
840.246	0.21
840.416	0.27
840.585	0.89
840.755	1.76
840.924	1.2
841.093	0.8
841.263	1.14
841.432	1.32
841.602	0.54
841.771	0.78
841.94	1.24
842.11	2.48
842.279	2.22
842.448	0.79
842.617	0.96
842.787	2.49
842.956	-0.07
843.125	1.46
843.294	1.66
843.464	1.53
843.633	1.07
843.802	1.25
843.971	0.74
844.14	1.65
844.309	1.84
844.479	1.66
844.648	1.37
844.817	0.74
844.986	1.51
845.155	0.69
845.324	0.7
845.493	1.52
845.662	0.69
845.831	1.13
846	2.01
846.169	1.19
846.338	2.28
846.507	1.54
846.676	1.63
846.844	1.33
847.013	1.52
847.182	0.41
847.351	1.07
847.52	1.22
847.689	1.91
847.858	1.55
848.026	1.14
848.195	0.78
848.364	0.91
848.533	1.05
848.701	1.08
848.87	1.92
849.039	2.31
849.207	2.18
849.376	2.74
849.545	2.51
849.713	0.74
849.882	1.76
850.051	1.07
850.219	1.67
850.388	2.23
850.556	1.28
850.725	0.82
850.893	1.97
851.062	2.32
851.23	2.25
851.399	1.7
851.567	1.2
851.736	1.08
851.904	0.22
852.073	1.31
852.241	2.58
852.41	1.02
852.578	0.89
852.746	0.89
852.915	1.05
853.083	1.37
853.251	1.5
853.42	0.8
853.588	2.92
853.756	2.67
853.924	1.38
854.093	2.27
854.261	1.23
854.429	0.43
854.597	1.67
854.765	0.84
854.934	2.49
855.102	2.43
855.27	1.67
855.438	1.59
855.606	2.24
855.774	3.88
855.942	0.44
856.11	2.05
856.278	1.87
856.446	2.16
856.614	1.35
856.782	1.82
856.95	2.99
857.118	1.5
857.286	2.65
857.454	1.48
857.622	2.55
857.79	3.77
857.958	1.36
858.126	1.52
858.294	0.31
858.462	2.36
858.629	0.74
858.797	1.27
858.965	2.26
859.133	2.77
859.301	1.37
859.468	2.1
859.636	0.63
859.804	3.84
859.971	2.37
860.139	1.14
860.307	3.62
860.474	1.26
860.642	1.29
860.81	1.79
860.977	1.69
861.145	2.32
861.313	1.77
861.48	2.38
861.648	3.26
861.815	2.07
861.983	0.8
862.15	1.97
862.318	1.85
862.485	2.61
862.653	0.67
862.82	1.67
862.988	2.71
863.155	3.78
863.322	1.51
863.49	0.55
863.657	1.12
863.824	3.36
863.992	2.41
864.159	1.14
864.326	3.42
864.494	0.78
864.661	4.75
864.828	1.42
864.996	3.11
865.163	4.56
865.33	1.35
865.497	0.42
865.664	2.48
865.832	0.54
865.999	1.16
866.166	-0.16
866.333	0.3
866.5	1.58
866.667	3.37
866.834	2.79
867.001	4.55
867.168	0.41
867.335	2.57
867.502	0.67
867.669	3.13
867.836	2.98
868.003	1.19
868.17	2.97
868.337	0.87
868.504	4.13
868.671	0.84
868.838	1.73
869.005	2.91
869.172	3.4
869.339	2.98
869.505	0.84
869.672	1.79
869.839	2.93
870.006	3.91
870.173	0.15
870.339	4.42
870.506	4.79
870.673	1.13
870.84	3.79
871.006	2.76
871.173	2.47
871.34	3.22
871.506	2.14
871.673	2.34
871.839	0.77
872.006	1.35
872.173	0.61
872.339	1.97
872.506	4.21
872.672	1.02
872.839	0.97
873.005	2.2
873.172	4.74
873.338	2.77
873.505	3.31
873.671	1.66
873.838	2.97
874.004	1.21
874.171	1.58
874.337	2.56
874.503	3.05
874.67	3.21
874.836	0.61
875.002	4.85
875.169	2.99
875.335	2.83
875.501	0.51
875.668	4.65
875.834	3.62
876	1.98
876.166	3.49
876.332	2.72
876.499	4.99
876.665	2.09
876.831	1.28
876.997	3.87
877.163	3.68
877.329	2.37
877.495	2.53
877.662	5.52
877.828	4.16
877.994	3.08
878.16	0.91
878.326	1.58
878.492	4.58
878.658	2.45
878.824	2.07
878.99	4.06
879.156	0.9
879.322	4.21
879.487	3.24
879.653	2.53
879.819	2.91
879.985	1.86
880.151	2.58
880.317	3.05
880.483	4.34
880.648	3.7
880.814	1.2
880.98	2.33
881.146	0.04
881.312	0.46
881.477	2.69
881.643	2.15
881.809	3.49
881.974	5.48
882.14	0.1
882.306	2.6
882.471	4.47
882.637	2.22
882.803	3.25
882.968	4.7
883.134	5.17
883.299	0.79
883.465	1.99
883.63	4.93
883.796	3.18
883.961	4.45
884.127	3.04
884.292	-2.43
884.458	2.41
884.623	2.4
