Data from Apollo_Calib_20240827__AbsoluteIrradiance__798__12-27-00-542.txt Node

Date: Wed Aug 28 12:27:00 BST 2024
User: biology
Spectrometer: FLMT08252
Trigger mode: 0
Integration Time (sec): 5.000000E-1
Scans to average: 5
Electric dark correction enabled: true
Nonlinearity correction enabled: false
Boxcar width: 0
XAxis mode: Wavelengths
Number of Pixels in Spectrum: 3648
>>>>>Begin Spectral Data<<<<<
179.588	-0
179.809	-0
180.03	-0
180.251	-0
180.473	-0
180.694	0
180.915	0
181.136	-0
181.357	0
181.578	-0
181.799	0
182.02	-0
182.241	-0
182.462	-0
182.683	0
182.904	-0
183.125	-0
183.346	0
183.567	0
183.788	0
184.009	0
184.23	0
184.451	0
184.672	0
184.892	0
185.113	0
185.334	0
185.555	0
185.776	0
185.996	0
186.217	0
186.438	0
186.659	0
186.879	0
187.1	0
187.321	0
187.541	0
187.762	0
187.983	0
188.203	0
188.424	0
188.644	0
188.865	0
189.086	0
189.306	0
189.527	0
189.747	0
189.968	0
190.188	0
190.409	0
190.629	0
190.849	0
191.07	0
191.29	0
191.511	0
191.731	0
191.951	0
192.172	0
192.392	0
192.612	0
192.833	0
193.053	0
193.273	0
193.493	0
193.714	0
193.934	0
194.154	0
194.374	0
194.594	0
194.815	0
195.035	0
195.255	0
195.475	0
195.695	0
195.915	0
196.135	0
196.355	0
196.575	0
196.795	0
197.015	0
197.235	0
197.455	0
197.675	0
197.895	0
198.115	0
198.335	0
198.555	0
198.775	0
198.995	0
199.214	0
199.434	0
199.654	0
199.874	0
200.094	4.2
200.313	2.2
200.533	1.95
200.753	0.83
200.973	3.54
201.192	3.63
201.412	1.48
201.632	1.97
201.851	3.37
202.071	1.73
202.291	1.75
202.51	1.22
202.73	2.52
202.95	2.13
203.169	0.77
203.389	1.89
203.608	1.94
203.828	1.78
204.047	1.59
204.267	2.62
204.486	2.07
204.706	2.24
204.925	1.55
205.145	1.6
205.364	2.21
205.583	2.56
205.803	1.32
206.022	1.19
206.242	1.69
206.461	1.65
206.68	1.29
206.9	1.54
207.119	2.42
207.338	1.97
207.557	1.11
207.777	1.29
207.996	1.37
208.215	2.35
208.434	1.05
208.654	0.6
208.873	1.35
209.092	2.17
209.311	1.33
209.53	1.22
209.749	1.31
209.968	1.09
210.187	1.03
210.407	0.86
210.626	1.28
210.845	1.56
211.064	1.31
211.283	0.82
211.502	1.48
211.721	1.35
211.94	1.08
212.159	1.29
212.377	1.47
212.596	1.48
212.815	1.22
213.034	1.12
213.253	1.24
213.472	1.23
213.691	1.02
213.91	0.94
214.128	0.76
214.347	1.53
214.566	0.4
214.785	0.67
215.003	1.26
215.222	1.17
215.441	0.99
215.66	0.49
215.878	1.02
216.097	1.27
216.316	0.62
216.534	0.72
216.753	1.24
216.972	0.81
217.19	0.81
217.409	0.62
217.627	0.83
217.846	0.86
218.064	1.01
218.283	0.65
218.501	1.44
218.72	1.28
218.938	0.57
219.157	0.68
219.375	1.21
219.594	1.16
219.812	0.53
220.031	0.6
220.249	1.28
220.467	1.15
220.686	0.74
220.904	0.44
221.122	0.68
221.341	1.28
221.559	0.78
221.777	0.48
221.995	0.57
222.214	0.94
222.432	0.65
222.65	0.88
222.868	0.74
223.086	0.93
223.305	0.8
223.523	0.64
223.741	1.17
223.959	0.52
224.177	0.33
224.395	0.64
224.613	0.77
224.831	0.99
225.049	0.34
225.267	0.55
225.485	0.74
225.703	0.81
225.921	0.59
226.139	0.59
226.357	0.75
226.575	0.82
226.793	0.52
227.011	1.6
227.229	0.71
227.447	0.84
227.665	0.57
227.883	0.31
228.1	0.64
228.318	0.94
228.536	0.33
228.754	0.4
228.972	0.76
229.189	0.85
229.407	0.54
229.625	0.47
229.843	0.91
230.06	0.76
230.278	0.55
230.496	0.6
230.713	0.7
230.931	0.76
231.149	0.43
231.366	0.25
231.584	0.62
231.801	1.07
232.019	0.47
232.236	0.39
232.454	0.41
232.671	0.68
232.889	0.61
233.106	0.45
233.324	0.55
233.541	0.52
233.759	0.56
233.976	0.3
234.194	0.59
234.411	0.51
234.628	0.41
234.846	0.5
235.063	0.56
235.28	0.62
235.498	0.61
235.715	0.42
235.932	0.76
236.149	0.5
236.367	0.4
236.584	0.59
236.801	0.49
237.018	0.77
237.236	0.49
237.453	0.26
237.67	0.7
237.887	0.54
238.104	0.4
238.321	0.35
238.538	0.39
238.755	0.7
238.973	0.28
239.19	0.43
239.407	0.56
239.624	0.57
239.841	0.34
240.058	0.33
240.275	0.56
240.492	0.46
240.709	0.48
240.925	0.46
241.142	0.54
241.359	0.33
241.576	0.31
241.793	0.35
242.01	0.54
242.227	0.62
242.444	0.54
242.66	0.71
242.877	0.52
243.094	0.44
243.311	0.44
243.527	0.43
243.744	0.53
243.961	0.55
244.178	0.35
244.394	0.38
244.611	0.56
244.828	0.67
245.044	0.42
245.261	0.41
245.477	0.44
245.694	0.63
245.911	0.33
246.127	0.43
246.344	0.62
246.56	0.68
246.777	0.39
246.993	0.4
247.21	0.52
247.426	0.61
247.643	0.38
247.859	0.32
248.076	0.38
248.292	0.69
248.508	0.32
248.725	0.41
248.941	0.48
249.157	0.59
249.374	0.33
249.59	0.48
249.806	0.46
250.023	0.51
250.239	0.35
250.455	0.26
250.671	0.44
250.888	0.53
251.104	0.55
251.32	0.35
251.536	0.41
251.752	0.43
251.969	0.41
252.185	0.43
252.401	0.69
252.617	0.46
252.833	0.39
253.049	0.36
253.265	0.45
253.481	0.43
253.697	0.31
253.913	0.33
254.129	0.5
254.345	0.37
254.561	0.31
254.777	0.4
254.993	0.46
255.209	0.49
255.425	0.35
255.641	0.36
255.857	0.55
256.073	0.44
256.288	0.35
256.504	0.38
256.72	0.46
256.936	0.53
257.152	0.34
257.367	0.34
257.583	0.4
257.799	0.56
258.015	0.32
258.23	0.31
258.446	0.59
258.662	0.35
258.877	0.22
259.093	0.25
259.309	0.44
259.524	0.43
259.74	0.35
259.955	0.27
260.171	0.41
260.387	0.35
260.602	0.45
260.818	0.43
261.033	0.31
261.249	0.33
261.464	0.31
261.68	0.27
261.895	0.39
262.11	0.48
262.326	0.33
262.541	0.29
262.757	0.52
262.972	0.48
263.187	0.35
263.403	0.45
263.618	0.52
263.833	0.39
264.049	0.33
264.264	0.34
264.479	0.39
264.694	0.5
264.91	0.21
265.125	0.29
265.34	0.45
265.555	0.6
265.77	0.4
265.986	0.33
266.201	0.43
266.416	0.53
266.631	0.35
266.846	0.35
267.061	0.43
267.276	0.48
267.491	0.19
267.706	0.38
267.921	0.45
268.136	0.38
268.351	0.35
268.566	0.26
268.781	0.51
268.996	0.46
269.211	0.35
269.426	0.25
269.641	0.39
269.856	0.43
270.071	0.27
270.285	0.22
270.5	0.42
270.715	0.41
270.93	0.35
271.145	0.39
271.359	0.46
271.574	0.35
271.789	0.34
272.004	0.28
272.218	0.34
272.433	0.39
272.648	0.28
272.862	0.41
273.077	0.37
273.292	0.38
273.506	0.27
273.721	0.29
273.936	0.37
274.15	0.41
274.365	0.31
274.579	0.39
274.794	0.37
275.008	0.4
275.223	0.28
275.437	0.3
275.652	0.44
275.866	0.37
276.081	0.29
276.295	0.38
276.509	0.31
276.724	0.31
276.938	0.35
277.153	0.31
277.367	0.39
277.581	0.29
277.796	0.26
278.01	0.26
278.224	0.41
278.438	0.49
278.653	0.25
278.867	0.29
279.081	0.39
279.295	0.31
279.51	0.33
279.724	0.19
279.938	0.44
280.152	0.36
280.366	0.29
280.58	0.33
280.794	0.45
281.008	0.43
281.222	0.31
281.437	0.5
281.651	0.33
281.865	0.42
282.079	0.29
282.293	0.17
282.507	0.3
282.721	0.31
282.935	0.3
283.148	0.13
283.362	0.28
283.576	0.24
283.79	0.31
284.004	0.24
284.218	0.38
284.432	0.28
284.646	0.25
284.859	0.27
285.073	0.29
285.287	0.34
285.501	0.31
285.714	0.33
285.928	0.3
286.142	0.36
286.356	0.22
286.569	0.22
286.783	0.4
286.997	0.38
287.21	0.22
287.424	0.26
287.637	0.26
287.851	0.25
288.065	0.39
288.278	0.25
288.492	0.26
288.705	0.29
288.919	0.32
289.132	0.18
289.346	0.34
289.559	0.21
289.773	0.2
289.986	0.3
290.2	0.27
290.413	0.36
290.626	0.24
290.84	0.26
291.053	0.3
291.267	0.35
291.48	0.32
291.693	0.26
291.906	0.25
292.12	0.3
292.333	0.19
292.546	0.24
292.76	0.41
292.973	0.32
293.186	0.31
293.399	0.23
293.612	0.33
293.826	0.28
294.039	0.28
294.252	0.26
294.465	0.32
294.678	0.28
294.891	0.28
295.104	0.25
295.317	0.25
295.53	0.27
295.743	0.24
295.956	0.22
296.169	0.41
296.382	0.37
296.595	0.24
296.808	0.17
297.021	0.33
297.234	0.36
297.447	0.25
297.66	0.32
297.873	0.34
298.086	0.33
298.299	0.22
298.511	0.15
298.724	0.25
298.937	0.19
299.15	0.25
299.363	0.24
299.575	0.31
299.788	0.35
300.001	0.26
300.213	0.26
300.426	0.28
300.639	0.25
300.852	0.23
301.064	0.32
301.277	0.36
301.489	0.33
301.702	0.28
301.915	0.24
302.127	0.27
302.34	0.29
302.552	0.3
302.765	0.21
302.977	0.33
303.19	0.23
303.402	0.18
303.615	0.25
303.827	0.23
304.04	0.27
304.252	0.28
304.464	0.27
304.677	0.39
304.889	0.26
305.102	0.22
305.314	0.24
305.526	0.29
305.739	0.31
305.951	0.2
306.163	0.24
306.375	0.35
306.588	0.25
306.8	0.19
307.012	0.18
307.224	0.3
307.436	0.37
307.649	0.15
307.861	0.28
308.073	0.32
308.285	0.24
308.497	0.18
308.709	0.2
308.921	0.24
309.133	0.33
309.346	0.26
309.558	0.26
309.77	0.28
309.982	0.39
310.194	0.33
310.406	0.22
310.617	0.4
310.829	0.28
311.041	0.33
311.253	0.19
311.465	0.23
311.677	0.31
311.889	0.21
312.101	0.22
312.313	0.29
312.524	0.37
312.736	0.21
312.948	0.25
313.16	0.37
313.372	0.33
313.583	0.28
313.795	0.24
314.007	0.24
314.218	0.38
314.43	0.28
314.642	0.25
314.853	0.2
315.065	0.37
315.277	0.25
315.488	0.3
315.7	0.34
315.912	0.29
316.123	0.28
316.335	0.22
316.546	0.33
316.758	0.27
316.969	0.25
317.181	0.26
317.392	0.3
317.604	0.32
317.815	0.23
318.026	0.24
318.238	0.26
318.449	0.3
318.661	0.2
318.872	0.19
319.083	0.25
319.295	0.29
319.506	0.23
319.717	0.27
319.929	0.32
320.14	0.27
320.351	0.23
320.562	0.2
320.774	0.3
320.985	0.27
321.196	0.22
321.407	0.2
321.618	0.32
321.829	0.26
322.041	0.27
322.252	0.23
322.463	0.34
322.674	0.31
322.885	0.15
323.096	0.24
323.307	0.28
323.518	0.31
323.729	0.21
323.94	0.24
324.151	0.25
324.362	0.26
324.573	0.3
324.784	0.23
324.995	0.32
325.206	0.31
325.417	0.24
325.628	0.25
325.838	0.24
326.049	0.25
326.26	0.31
326.471	0.21
326.682	0.27
326.892	0.26
327.103	0.19
327.314	0.22
327.525	0.34
327.735	0.28
327.946	0.24
328.157	0.21
328.368	0.31
328.578	0.26
328.789	0.26
328.999	0.26
329.21	0.22
329.421	0.29
329.631	0.27
329.842	0.19
330.052	0.3
330.263	0.31
330.473	0.32
330.684	0.24
330.894	0.29
331.105	0.24
331.315	0.28
331.526	0.17
331.736	0.37
331.947	0.3
332.157	0.24
332.367	0.14
332.578	0.31
332.788	0.35
332.999	0.34
333.209	0.24
333.419	0.19
333.629	0.26
333.84	0.28
334.05	0.28
334.26	0.35
334.47	0.26
334.681	0.29
334.891	0.24
335.101	0.3
335.311	0.41
335.521	0.27
335.732	0.21
335.942	0.31
336.152	0.25
336.362	0.29
336.572	0.3
336.782	0.27
336.992	0.24
337.202	0.27
337.412	0.23
337.622	0.29
337.832	0.23
338.042	0.29
338.252	0.21
338.462	0.23
338.672	0.28
338.882	0.21
339.092	0.29
339.302	0.3
339.511	0.31
339.721	0.24
339.931	0.21
340.141	0.34
340.351	0.27
340.561	0.3
340.77	0.28
340.98	0.27
341.19	0.31
341.4	0.3
341.609	0.22
341.819	0.25
342.029	0.2
342.238	0.27
342.448	0.2
342.658	0.3
342.867	0.26
343.077	0.26
343.286	0.29
343.496	0.3
343.706	0.33
343.915	0.2
344.125	0.24
344.334	0.23
344.544	0.19
344.753	0.22
344.963	0.26
345.172	0.21
345.381	0.26
345.591	0.19
345.8	0.24
346.01	0.37
346.219	0.32
346.428	0.12
346.638	0.26
346.847	0.32
347.056	0.34
347.266	0.21
347.475	0.25
347.684	0.32
347.893	0.26
348.103	0.28
348.312	0.23
348.521	0.26
348.73	0.25
348.94	0.26
349.149	0.26
349.358	0.23
349.567	0.27
349.776	0.19
349.985	0.19
350.194	0.31
350.403	0.28
350.612	0.17
350.821	0.18
351.03	0.26
351.239	0.17
351.448	0.27
351.657	0.21
351.866	0.35
352.075	0.28
352.284	0.22
352.493	0.21
352.702	0.34
352.911	0.31
353.12	0.28
353.329	0.23
353.538	0.26
353.746	0.24
353.955	0.2
354.164	0.27
354.373	0.23
354.582	0.32
354.79	0.25
354.999	0.25
355.208	0.21
355.416	0.32
355.625	0.21
355.834	0.22
356.042	0.3
356.251	0.21
356.46	0.22
356.668	0.28
356.877	0.36
357.085	0.3
357.294	0.17
357.503	0.29
357.711	0.26
357.92	0.43
358.128	0.28
358.337	0.24
358.545	0.3
358.754	0.22
358.962	0.29
359.17	0.25
359.379	0.26
359.587	0.26
359.796	0.22
360.004	0.31
360.212	0.31
360.421	0.31
360.629	0.22
360.837	0.22
361.046	0.28
361.254	0.4
361.462	0.24
361.67	0.2
361.879	0.28
362.087	0.33
362.295	0.26
362.503	0.24
362.711	0.21
362.92	0.21
363.128	0.25
363.336	0.19
363.544	0.17
363.752	0.29
363.96	0.24
364.168	0.18
364.376	0.24
364.584	0.27
364.792	0.32
365	0.28
365.208	0.25
365.416	0.32
365.624	0.32
365.832	0.24
366.04	0.31
366.248	0.25
366.456	0.29
366.664	0.24
366.872	0.26
367.079	0.3
367.287	0.26
367.495	0.28
367.703	0.22
367.911	0.25
368.118	0.28
368.326	0.24
368.534	0.23
368.742	0.35
368.949	0.21
369.157	0.22
369.365	0.29
369.572	0.21
369.78	0.22
369.988	0.29
370.195	0.27
370.403	0.27
370.61	0.25
370.818	0.26
371.026	0.36
371.233	0.25
371.441	0.26
371.648	0.26
371.856	0.28
372.063	0.29
372.271	0.25
372.478	0.22
372.685	0.23
372.893	0.35
373.1	0.27
373.308	0.26
373.515	0.38
373.722	0.33
373.93	0.29
374.137	0.35
374.344	0.32
374.552	0.31
374.759	0.27
374.966	0.26
375.173	0.25
375.381	0.29
375.588	0.24
375.795	0.22
376.002	0.24
376.209	0.22
376.417	0.25
376.624	0.23
376.831	0.26
377.038	0.29
377.245	0.17
377.452	0.25
377.659	0.28
377.866	0.23
378.073	0.24
378.28	0.29
378.487	0.28
378.694	0.33
378.901	0.23
379.108	0.26
379.315	0.37
379.522	0.36
379.729	0.27
379.936	0.28
380.143	0.27
380.35	0.3
380.557	0.23
380.763	0.25
380.97	0.28
381.177	0.29
381.384	0.26
381.591	0.21
381.797	0.3
382.004	0.31
382.211	0.28
382.418	0.23
382.624	0.33
382.831	0.33
383.038	0.29
383.244	0.25
383.451	0.26
383.658	0.31
383.864	0.29
384.071	0.26
384.277	0.39
384.484	0.25
384.69	0.33
384.897	0.24
385.103	0.28
385.31	0.25
385.516	0.18
385.723	0.22
385.929	0.29
386.136	0.27
386.342	0.33
386.549	0.27
386.755	0.32
386.961	0.29
387.168	0.26
387.374	0.25
387.58	0.34
387.787	0.29
387.993	0.32
388.199	0.24
388.406	0.22
388.612	0.26
388.818	0.23
389.024	0.26
389.231	0.3
389.437	0.42
389.643	0.32
389.849	0.31
390.055	0.32
390.261	0.24
390.467	0.3
390.674	0.24
390.88	0.32
391.086	0.32
391.292	0.25
391.498	0.32
391.704	0.29
391.91	0.32
392.116	0.28
392.322	0.16
392.528	0.35
392.734	0.32
392.94	0.31
393.146	0.26
393.352	0.3
393.557	0.26
393.763	0.25
393.969	0.35
394.175	0.3
394.381	0.32
394.587	0.27
394.792	0.35
394.998	0.35
395.204	0.35
395.41	0.27
395.615	0.28
395.821	0.37
396.027	0.36
396.233	0.29
396.438	0.35
396.644	0.35
396.85	0.36
397.055	0.34
397.261	0.34
397.466	0.45
397.672	0.34
397.878	0.41
398.083	0.36
398.289	0.31
398.494	0.4
398.7	0.4
398.905	0.25
399.111	0.5
399.316	0.28
399.522	0.37
399.727	0.36
399.932	0.33
400.138	0.31
400.343	0.38
400.549	0.36
400.754	0.37
400.959	0.4
401.165	0.31
401.37	0.37
401.575	0.45
401.78	0.39
401.986	0.36
402.191	0.39
402.396	0.35
402.601	0.42
402.807	0.41
403.012	0.41
403.217	0.46
403.422	0.4
403.627	0.41
403.832	0.39
404.037	0.44
404.243	0.45
404.448	0.37
404.653	0.38
404.858	0.45
405.063	0.47
405.268	0.42
405.473	0.4
405.678	0.43
405.883	0.68
406.088	0.51
406.293	0.41
406.498	0.48
406.703	0.49
406.907	0.49
407.112	0.42
407.317	0.52
407.522	0.53
407.727	0.47
407.932	0.55
408.136	0.62
408.341	0.57
408.546	0.58
408.751	0.54
408.956	0.58
409.16	0.63
409.365	0.61
409.57	0.57
409.774	0.64
409.979	0.68
410.184	0.67
410.388	0.62
410.593	0.77
410.798	0.68
411.002	0.7
411.207	0.82
411.411	0.77
411.616	0.72
411.82	0.78
412.025	0.9
412.229	0.8
412.434	0.99
412.638	0.87
412.843	0.92
413.047	0.94
413.252	0.93
413.456	1.02
413.66	1.05
413.865	1.03
414.069	1.16
414.273	1.06
414.478	1.11
414.682	1.15
414.886	1.19
415.091	1.15
415.295	1.22
415.499	1.36
415.703	1.3
415.908	1.42
416.112	1.35
416.316	1.54
416.52	1.52
416.724	1.48
416.929	1.61
417.133	1.86
417.337	1.65
417.541	1.77
417.745	1.78
417.949	1.94
418.153	2
418.357	1.9
418.561	2.25
418.765	2.11
418.969	2.31
419.173	2.33
419.377	2.38
419.581	2.62
419.785	2.57
419.989	2.56
420.193	2.68
420.397	2.81
420.601	2.93
420.804	3.17
421.008	3.05
421.212	3.26
421.416	3.22
421.62	3.19
421.823	3.32
422.027	3.44
422.231	3.38
422.435	3.38
422.638	3.46
422.842	3.6
423.046	3.58
423.249	3.89
423.453	3.84
423.657	4.09
423.86	4.02
424.064	4.19
424.268	4.37
424.471	4.33
424.675	4.63
424.878	4.69
425.082	4.75
425.285	5.01
425.489	4.96
425.692	5.04
425.896	5.11
426.099	5.26
426.303	5.41
426.506	5.61
426.71	5.76
426.913	5.97
427.116	6.21
427.32	6.1
427.523	6.16
427.726	6.56
427.93	6.63
428.133	6.84
428.336	7.04
428.54	7.2
428.743	7.4
428.946	7.78
429.149	7.72
429.353	7.73
429.556	7.86
429.759	7.86
429.962	7.9
430.165	8.26
430.368	7.83
430.571	7.86
430.775	8
430.978	7.95
431.181	7.95
431.384	7.98
431.587	8.13
431.79	8.54
431.993	8.52
432.196	8.77
432.399	9.17
432.602	9.23
432.805	9.38
433.008	9.92
433.211	9.73
433.414	10.16
433.616	10.19
433.819	10.15
434.022	10.28
434.225	10.4
434.428	10.41
434.631	11
434.833	10.63
435.036	10.94
435.239	11.15
435.442	11.23
435.645	11.38
435.847	11.46
436.05	11.7
436.253	11.98
436.455	11.98
436.658	11.85
436.861	12.09
437.063	12.35
437.266	12.28
437.468	12.56
437.671	12.84
437.874	12.83
438.076	12.81
438.279	13.35
438.481	13.33
438.684	14.12
438.886	13.6
439.089	13.97
439.291	13.98
439.494	14.37
439.696	14.51
439.899	15.02
440.101	15.42
440.303	15.59
440.506	16.53
440.708	15.97
440.91	16.28
441.113	16.41
441.315	16.84
441.517	16.55
441.72	16.99
441.922	16.67
442.124	16.54
442.326	16.92
442.529	17.2
442.731	17.13
442.933	17.32
443.135	17.19
443.337	17.18
443.539	17.75
443.742	17.37
443.944	17.95
444.146	17.81
444.348	17.87
444.55	17.83
444.752	17.91
444.954	18.1
445.156	17.92
445.358	18.15
445.56	18.49
445.762	18.32
445.964	18.63
446.166	18.45
446.368	18.44
446.57	18.44
446.772	18.12
446.974	17.85
447.175	18.12
447.377	17.85
447.579	18.18
447.781	17.89
447.983	17.64
448.184	17.37
448.386	17.69
448.588	17.22
448.79	17.18
448.991	17.42
449.193	17.4
449.395	16.89
449.597	16.43
449.798	16.39
450	15.82
450.202	15.9
450.403	16.04
450.605	15.82
450.806	15.43
451.008	15.28
451.21	15.08
451.411	14.57
451.613	13.76
451.814	14.28
452.016	14.12
452.217	13.32
452.419	13.43
452.62	13.11
452.821	12.88
453.023	12.77
453.224	12.37
453.426	11.99
453.627	11.19
453.828	11.3
454.03	11.49
454.231	11.4
454.432	11.31
454.634	10.97
454.835	10.75
455.036	10.63
455.238	10.27
455.439	9.93
455.64	9.6
455.841	9.47
456.042	9.64
456.244	9.37
456.445	9.1
456.646	8.8
456.847	8.65
457.048	8.65
457.249	8.7
457.45	8.36
457.651	7.86
457.852	7.68
458.054	7.37
458.255	7.29
458.456	7.34
458.657	7.31
458.858	6.94
459.058	6.81
459.259	6.84
459.46	6.47
459.661	6.54
459.862	6.53
460.063	6.47
460.264	6.33
460.465	6.03
460.666	6.19
460.866	5.92
461.067	5.57
461.268	5.63
461.469	5.6
461.67	5.42
461.87	5.35
462.071	5.31
462.272	5.3
462.473	5.16
462.673	5.33
462.874	5.27
463.075	5.23
463.275	5.2
463.476	5.22
463.676	5.11
463.877	4.99
464.078	5.02
464.278	5.09
464.479	4.96
464.679	4.8
464.88	4.78
465.08	4.69
465.281	4.54
465.481	4.39
465.682	4.18
465.882	4.29
466.083	4.13
466.283	4.04
466.483	4.06
466.684	3.84
466.884	3.68
467.085	3.76
467.285	3.78
467.485	3.69
467.686	3.62
467.886	3.51
468.086	3.43
468.286	3.43
468.487	3.47
468.687	3.26
468.887	3.28
469.087	3.41
469.287	3.29
469.488	3.07
469.688	3.33
469.888	3.3
470.088	3.21
470.288	3.1
470.488	3.14
470.688	2.96
470.888	2.95
471.088	2.74
471.288	2.86
471.488	2.81
471.688	2.8
471.888	2.76
472.088	2.87
472.288	2.77
472.488	2.62
472.688	2.66
472.888	2.62
473.088	2.64
473.288	2.57
473.488	2.52
473.688	2.73
473.887	2.53
474.087	2.49
474.287	2.49
474.487	2.41
474.687	2.52
474.886	2.39
475.086	2.33
475.286	2.34
475.486	2.32
475.685	2.33
475.885	2.27
476.085	2.35
476.284	2.33
476.484	2.3
476.684	2.2
476.883	2.35
477.083	2.23
477.282	2.16
477.482	2.28
477.681	2.17
477.881	2.09
478.08	2.15
478.28	2.08
478.479	2.15
478.679	2.16
478.878	2.11
479.078	2.05
479.277	2.11
479.477	2.1
479.676	2.09
479.875	2.03
480.075	1.97
480.274	2.04
480.473	2.1
480.673	2.05
480.872	2.12
481.071	2.09
481.271	2.11
481.47	2.02
481.669	2
481.868	1.99
482.067	2.01
482.267	1.93
482.466	1.95
482.665	1.96
482.864	1.99
483.063	1.97
483.262	2.04
483.461	2.08
483.661	2.11
483.86	1.99
484.059	2.06
484.258	2.06
484.457	2.02
484.656	2.04
484.855	2.11
485.054	1.94
485.253	2.01
485.452	2.01
485.651	2.13
485.849	2.03
486.048	2.03
486.247	2.07
486.446	2.11
486.645	2.01
486.844	2.1
487.043	2.06
487.241	2.11
487.44	2.11
487.639	2.15
487.838	2.13
488.037	2.14
488.235	2.23
488.434	2.19
488.633	2.07
488.831	2.26
489.03	2.26
489.229	2.2
489.427	2.26
489.626	2.33
489.825	2.31
490.023	2.34
490.222	2.25
490.42	2.32
490.619	2.37
490.817	2.37
491.016	2.37
491.214	2.46
491.413	2.46
491.611	2.37
491.81	2.41
492.008	2.45
492.207	2.54
492.405	2.54
492.604	2.48
492.802	2.55
493	2.62
493.199	2.62
493.397	2.66
493.595	2.71
493.794	2.68
493.992	2.77
494.19	2.74
494.388	2.82
494.587	2.76
494.785	2.76
494.983	2.74
495.181	2.89
495.379	2.93
495.578	2.99
495.776	3
495.974	2.96
496.172	2.98
496.37	3.1
496.568	3.11
496.766	3.07
496.964	3.18
497.162	3.2
497.36	3.21
497.558	3.28
497.756	3.35
497.954	3.32
498.152	3.35
498.35	3.43
498.548	3.38
498.746	3.39
498.944	3.4
499.142	3.44
499.34	3.52
499.538	3.59
499.736	3.49
499.933	3.65
500.131	3.64
500.329	3.73
500.527	3.77
500.725	3.86
500.922	3.88
501.12	3.87
501.318	3.96
501.516	3.9
501.713	4.01
501.911	4
502.109	3.94
502.306	4.09
502.504	4.04
502.701	4.09
502.899	4.17
503.097	4.35
503.294	4.21
503.492	4.34
503.689	4.36
503.887	4.37
504.084	4.45
504.282	4.4
504.479	4.41
504.677	4.58
504.874	4.53
505.072	4.42
505.269	4.66
505.466	4.65
505.664	4.74
505.861	4.65
506.059	4.77
506.256	4.78
506.453	4.84
506.651	4.99
506.848	4.98
507.045	4.94
507.242	4.96
507.44	5.03
507.637	5.06
507.834	5.01
508.031	5.2
508.229	5.11
508.426	5.1
508.623	5.26
508.82	5.3
509.017	5.25
509.214	5.27
509.411	5.39
509.608	5.34
509.805	5.47
510.003	5.48
510.2	5.53
510.397	5.64
510.594	5.53
510.791	5.59
510.988	5.62
511.184	5.62
511.381	5.52
511.578	5.7
511.775	5.81
511.972	5.74
512.169	5.75
512.366	5.77
512.563	5.96
512.76	5.9
512.956	6.02
513.153	5.9
513.35	5.9
513.547	5.89
513.744	6.03
513.94	6.05
514.137	6.15
514.334	6.1
514.53	6.17
514.727	6.33
514.924	6.23
515.12	6.21
515.317	6.25
515.514	6.18
515.71	6.2
515.907	6.4
516.103	6.37
516.3	6.34
516.497	6.44
516.693	6.44
516.89	6.48
517.086	6.52
517.283	6.53
517.479	6.38
517.676	6.64
517.872	6.64
518.068	6.57
518.265	6.63
518.461	6.53
518.658	6.74
518.854	6.72
519.05	6.78
519.247	6.75
519.443	6.76
519.639	6.91
519.836	6.8
520.032	6.76
520.228	6.89
520.424	6.87
520.621	6.99
520.817	6.96
521.013	6.87
521.209	7.11
521.405	7.1
521.601	7.03
521.798	6.98
521.994	7.08
522.19	6.95
522.386	7.01
522.582	7.09
522.778	7.28
522.974	7.11
523.17	7.13
523.366	7.06
523.562	7.16
523.758	7.18
523.954	7.04
524.15	7.21
524.346	7.29
524.542	7.23
524.738	7.15
524.934	7.34
525.129	7.29
525.325	7.2
525.521	7.25
525.717	7.46
525.913	7.25
526.109	7.28
526.304	7.45
526.5	7.38
526.696	7.52
526.892	7.38
527.087	7.6
527.283	7.48
527.479	7.43
527.674	7.33
527.87	7.54
528.066	7.47
528.261	7.59
528.457	7.4
528.653	7.58
528.848	7.58
529.044	7.66
529.239	7.52
529.435	7.59
529.63	7.52
529.826	7.54
530.021	7.6
530.217	7.62
530.412	7.58
530.608	7.57
530.803	7.64
530.999	7.48
531.194	7.66
531.389	7.67
531.585	7.61
531.78	7.75
531.975	7.72
532.171	7.79
532.366	7.73
532.561	7.78
532.757	7.71
532.952	7.86
533.147	7.62
533.342	7.78
533.538	7.72
533.733	7.89
533.928	7.58
534.123	7.79
534.318	7.81
534.513	7.72
534.709	7.89
534.904	7.82
535.099	7.92
535.294	7.9
535.489	7.94
535.684	7.79
535.879	7.83
536.074	7.89
536.269	7.86
536.464	7.91
536.659	7.88
536.854	7.9
537.049	7.92
537.244	7.86
537.439	7.9
537.634	7.92
537.828	7.96
538.023	7.94
538.218	7.96
538.413	7.83
538.608	7.95
538.803	7.92
538.997	7.9
539.192	7.99
539.387	7.92
539.582	7.89
539.776	7.87
539.971	7.97
540.166	8.07
540.36	7.86
540.555	8.11
540.75	8
540.944	7.96
541.139	8.02
541.334	7.98
541.528	7.99
541.723	8.06
541.917	8.06
542.112	7.95
542.306	7.83
542.501	7.92
542.695	7.95
542.89	7.88
543.084	8.03
543.279	7.99
543.473	8
543.668	8.12
543.862	7.91
544.056	7.95
544.251	8.07
544.445	8.06
544.64	8.09
544.834	7.79
545.028	7.76
545.222	8.04
545.417	8.2
545.611	8.06
545.805	8.07
546	7.86
546.194	8.07
546.388	8.13
546.582	8.01
546.776	7.98
546.97	8.08
547.165	8.02
547.359	7.99
547.553	7.94
547.747	8
547.941	8.22
548.135	8
548.329	8.11
548.523	8.09
548.717	7.99
548.911	7.96
549.105	7.98
549.299	8.11
549.493	8.08
549.687	7.99
549.881	8.1
550.075	8.12
550.269	8
550.463	8.14
550.657	8.12
550.85	8.07
551.044	8.07
551.238	8.1
551.432	8.05
551.626	8.13
551.82	8.14
552.013	7.94
552.207	8.15
552.401	8.14
552.594	8.07
552.788	8.04
552.982	8.08
553.176	8.01
553.369	8.21
553.563	8.16
553.756	8.09
553.95	8.17
554.144	8.11
554.337	8.14
554.531	7.96
554.724	8.14
554.918	8.18
555.111	8.12
555.305	8.1
555.498	8.07
555.692	8.19
555.885	8.18
556.079	8.07
556.272	8.1
556.466	8.14
556.659	8.07
556.852	8.15
557.046	8.07
557.239	8.03
557.432	8.07
557.626	8.14
557.819	8.17
558.012	8.14
558.206	8.23
558.399	8.13
558.592	8.08
558.785	7.99
558.979	8.12
559.172	8.11
559.365	8.07
559.558	8.02
559.751	8.01
559.944	8.21
560.138	8.09
560.331	8.07
560.524	8.11
560.717	8.04
560.91	8.04
561.103	8.11
561.296	7.99
561.489	8.14
561.682	8.18
561.875	8.13
562.068	8.2
562.261	8.06
562.454	8.23
562.647	8.09
562.84	8.13
563.032	8.1
563.225	8.03
563.418	8.09
563.611	8.19
563.804	8.15
563.997	7.99
564.19	7.85
564.382	8.18
564.575	8.11
564.768	8.05
564.961	8.16
565.153	8.03
565.346	7.97
565.539	8.14
565.731	8.04
565.924	8.15
566.117	8.29
566.309	8.08
566.502	8.09
566.695	7.99
566.887	8.14
567.08	8.09
567.272	8.07
567.465	7.99
567.657	8.14
567.85	7.95
568.042	8.09
568.235	8.14
568.427	7.91
568.62	8.05
568.812	8.03
569.005	8.12
569.197	7.96
569.389	8.06
569.582	8.05
569.774	8
569.966	7.96
570.159	7.96
570.351	7.97
570.543	8
570.736	7.97
570.928	7.87
571.12	8.04
571.312	7.89
571.505	7.8
571.697	8.02
571.889	8.02
572.081	7.99
572.273	7.9
572.465	8.03
572.658	7.98
572.85	8.04
573.042	8
573.234	7.92
573.426	7.92
573.618	7.92
573.81	7.98
574.002	7.95
574.194	7.92
574.386	7.9
574.578	7.76
574.77	7.88
574.962	7.92
575.154	7.83
575.346	7.81
575.538	7.84
575.729	7.84
575.921	7.91
576.113	7.92
576.305	7.9
576.497	8.02
576.689	7.81
576.88	7.75
577.072	7.89
577.264	7.91
577.456	7.84
577.647	7.8
577.839	8.04
578.031	7.86
578.223	7.75
578.414	7.68
578.606	7.8
578.798	7.94
578.989	7.81
579.181	7.9
579.372	7.81
579.564	7.85
579.755	7.77
579.947	7.71
580.139	7.81
580.33	7.62
580.522	7.75
580.713	7.71
580.905	7.73
581.096	7.83
581.287	7.7
581.479	7.7
581.67	7.84
581.862	7.67
582.053	7.66
582.244	7.56
582.436	7.78
582.627	7.69
582.818	7.66
583.01	7.64
583.201	7.6
583.392	7.63
583.583	7.57
583.775	7.36
583.966	7.51
584.157	7.61
584.348	7.71
584.54	7.53
584.731	7.59
584.922	7.51
585.113	7.45
585.304	7.58
585.495	7.57
585.686	7.68
585.877	7.57
586.068	7.64
586.259	7.58
586.45	7.47
586.641	7.46
586.832	7.51
587.023	7.5
587.214	7.39
587.405	7.5
587.596	7.41
587.787	7.36
587.978	7.47
588.169	7.37
588.36	7.34
588.551	7.42
588.742	7.39
588.932	7.51
589.123	7.21
589.314	7.5
589.505	7.36
589.696	7.34
589.886	7.3
590.077	7.35
590.268	7.29
590.458	7.18
590.649	7.16
590.84	7.36
591.03	7.26
591.221	7.28
591.412	7.13
591.602	7.36
591.793	7.23
591.984	7.25
592.174	7.17
592.365	7.4
592.555	7.12
592.746	7.14
592.936	7.12
593.127	7.25
593.317	7.22
593.508	7.14
593.698	7.08
593.889	7.16
594.079	7.08
594.269	7.02
594.46	7.04
594.65	7.11
594.84	7.08
595.031	6.95
595.221	6.96
595.411	7.03
595.602	7.01
595.792	6.92
595.982	6.91
596.172	7.05
596.363	6.9
596.553	6.86
596.743	6.93
596.933	6.93
597.123	6.87
597.314	6.75
597.504	6.73
597.694	6.92
597.884	6.81
598.074	6.82
598.264	6.75
598.454	6.82
598.644	6.78
598.834	6.74
599.024	6.64
599.214	6.75
599.404	6.81
599.594	6.71
599.784	6.61
599.974	6.74
600.164	6.69
600.354	6.57
600.544	6.55
600.734	6.61
600.924	6.6
601.114	6.54
601.303	6.44
601.493	6.6
601.683	6.52
601.873	6.49
602.063	6.47
602.252	6.51
602.442	6.41
602.632	6.4
602.821	6.42
603.011	6.51
603.201	6.46
603.39	6.37
603.58	6.29
603.77	6.38
603.959	6.43
604.149	6.39
604.339	6.3
604.528	6.44
604.718	6.39
604.907	6.32
605.097	6.24
605.286	6.19
605.476	6.25
605.665	6.24
605.855	6.23
606.044	6.31
606.234	6.25
606.423	6.19
606.612	6.13
606.802	6.07
606.991	6.22
607.181	6.16
607.37	6.15
607.559	5.9
607.749	6.1
607.938	5.98
608.127	6.06
608.316	6.06
608.506	6.03
608.695	6.09
608.884	5.98
609.073	5.92
609.263	6.05
609.452	5.92
609.641	5.86
609.83	5.87
610.019	5.92
610.208	5.82
610.397	5.89
610.586	5.86
610.775	5.83
610.965	5.81
611.154	5.66
611.343	5.8
611.532	5.67
611.721	5.79
611.91	5.69
612.099	5.68
612.287	5.61
612.476	5.56
612.665	5.74
612.854	5.6
613.043	5.6
613.232	5.66
613.421	5.5
613.61	5.63
613.798	5.52
613.987	5.63
614.176	5.55
614.365	5.53
614.554	5.48
614.742	5.59
614.931	5.39
615.12	5.54
615.309	5.43
615.497	5.37
615.686	5.37
615.875	5.32
616.063	5.39
616.252	5.31
616.44	5.33
616.629	5.35
616.818	5.26
617.006	5.24
617.195	5.2
617.383	5.25
617.572	5.14
617.76	5.15
617.949	5.19
618.137	5.24
618.326	5.2
618.514	5
618.703	5
618.891	5.19
619.079	5.06
619.268	5.16
619.456	4.97
619.644	5.16
619.833	5.02
620.021	5.01
620.209	4.89
620.398	5.03
620.586	4.97
620.774	5.01
620.962	4.95
621.151	5.04
621.339	4.91
621.527	4.8
621.715	4.86
621.903	4.88
622.092	4.79
622.28	4.89
622.468	4.73
622.656	4.8
622.844	4.76
623.032	4.74
623.22	4.66
623.408	4.88
623.596	4.71
623.784	4.74
623.972	4.59
624.16	4.65
624.348	4.68
624.536	4.68
624.724	4.52
624.912	4.66
625.1	4.62
625.288	4.63
625.476	4.49
625.664	4.6
625.851	4.52
626.039	4.55
626.227	4.47
626.415	4.49
626.603	4.41
626.79	4.48
626.978	4.33
627.166	4.43
627.354	4.35
627.541	4.41
627.729	4.29
627.917	4.49
628.104	4.39
628.292	4.3
628.48	4.3
628.667	4.26
628.855	4.4
629.042	4.32
629.23	4.23
629.418	4.23
629.605	4.25
629.793	4.12
629.98	4.22
630.168	4.18
630.355	4.14
630.543	4.15
630.73	4.08
630.917	4.09
631.105	4.21
631.292	4.14
631.48	4.1
631.667	4.21
631.854	4.05
632.042	4.04
632.229	3.91
632.416	4.03
632.604	4.04
632.791	3.81
632.978	4.01
633.165	3.9
633.353	4.01
633.54	3.98
633.727	3.84
633.914	3.8
634.101	3.77
634.289	3.88
634.476	3.73
634.663	3.79
634.85	3.8
635.037	3.76
635.224	3.64
635.411	3.77
635.598	3.71
635.785	3.7
635.972	3.71
636.159	3.72
636.346	3.67
636.533	3.63
636.72	3.64
636.907	3.68
637.094	3.65
637.281	3.49
637.468	3.61
637.655	3.56
637.842	3.55
638.029	3.49
638.215	3.48
638.402	3.5
638.589	3.47
638.776	3.45
638.963	3.43
639.149	3.49
639.336	3.54
639.523	3.44
639.709	3.41
639.896	3.4
640.083	3.4
640.27	3.48
640.456	3.33
640.643	3.33
640.829	3.29
641.016	3.25
641.203	3.24
641.389	3.28
641.576	3.29
641.762	3.23
641.949	3.21
642.135	3.25
642.322	3.27
642.508	3.11
642.695	3.21
642.881	3.2
643.068	3.12
643.254	3.18
643.441	3.17
643.627	3.2
643.813	3.02
644	3.15
644.186	3.09
644.372	3.12
644.559	3.06
644.745	3.04
644.931	2.97
645.118	3
645.304	3.02
645.49	2.96
645.676	2.98
645.862	2.98
646.049	3.04
646.235	2.97
646.421	3.05
646.607	3.05
646.793	2.96
646.979	2.8
647.165	2.86
647.352	2.87
647.538	2.93
647.724	2.82
647.91	2.81
648.096	2.88
648.282	2.88
648.468	2.83
648.654	2.78
648.84	2.84
649.026	2.76
649.212	2.71
649.397	2.67
649.583	2.72
649.769	2.78
649.955	2.7
650.141	2.71
650.327	2.71
650.513	2.62
650.698	2.69
650.884	2.52
651.07	2.7
651.256	2.66
651.442	2.56
651.627	2.51
651.813	2.69
651.999	2.54
652.184	2.57
652.37	2.54
652.556	2.53
652.741	2.61
652.927	2.41
653.113	2.52
653.298	2.56
653.484	2.54
653.669	2.41
653.855	2.43
654.04	2.51
654.226	2.48
654.412	2.44
654.597	2.33
654.782	2.39
654.968	2.39
655.153	2.35
655.339	2.36
655.524	2.35
655.71	2.41
655.895	2.33
656.08	2.36
656.266	2.42
656.451	2.31
656.636	2.23
656.822	2.28
657.007	2.33
657.192	2.29
657.378	2.22
657.563	2.25
657.748	2.32
657.933	2.26
658.118	2.22
658.304	2.21
658.489	2.32
658.674	2.22
658.859	2.12
659.044	2.19
659.229	2.24
659.414	2.16
659.599	2.2
659.785	2.1
659.97	2.16
660.155	2.2
660.34	2.07
660.525	2.08
660.71	2.03
660.895	2.07
661.08	2.06
661.264	2.01
661.449	2.13
661.634	2.09
661.819	2.1
662.004	2.04
662.189	1.98
662.374	1.97
662.559	1.95
662.743	1.89
662.928	1.99
663.113	1.96
663.298	1.92
663.483	1.93
663.667	1.98
663.852	1.9
664.037	1.98
664.221	1.94
664.406	2
664.591	1.94
664.775	1.84
664.96	1.92
665.145	1.85
665.329	1.91
665.514	1.81
665.698	1.82
665.883	1.77
666.068	1.92
666.252	1.82
666.437	1.82
666.621	1.83
666.806	1.87
666.99	1.8
667.174	1.74
667.359	1.84
667.543	1.74
667.728	1.75
667.912	1.68
668.096	1.74
668.281	1.7
668.465	1.76
668.649	1.73
668.834	1.69
669.018	1.76
669.202	1.68
669.387	1.69
669.571	1.8
669.755	1.65
669.939	1.71
670.124	1.64
670.308	1.72
670.492	1.72
670.676	1.63
670.86	1.58
671.044	1.57
671.228	1.65
671.413	1.58
671.597	1.58
671.781	1.61
671.965	1.7
672.149	1.62
672.333	1.58
672.517	1.54
672.701	1.57
672.885	1.53
673.069	1.41
673.253	1.64
673.437	1.56
673.621	1.46
673.804	1.52
673.988	1.56
674.172	1.48
674.356	1.44
674.54	1.47
674.724	1.65
674.908	1.44
675.091	1.5
675.275	1.48
675.459	1.52
675.643	1.43
675.826	1.46
676.01	1.42
676.194	1.46
676.377	1.44
676.561	1.49
676.745	1.42
676.928	1.46
677.112	1.5
677.296	1.42
677.479	1.32
677.663	1.37
677.846	1.39
678.03	1.41
678.213	1.29
678.397	1.41
678.58	1.42
678.764	1.3
678.947	1.28
679.131	1.36
679.314	1.36
679.498	1.35
679.681	1.33
679.865	1.43
680.048	1.29
680.231	1.36
680.415	1.27
680.598	1.31
680.781	1.26
680.965	1.23
681.148	1.27
681.331	1.26
681.514	1.31
681.698	1.28
681.881	1.3
682.064	1.29
682.247	1.32
682.43	1.17
682.614	1.29
682.797	1.31
682.98	1.27
683.163	1.18
683.346	1.23
683.529	1.17
683.712	1.17
683.895	1.23
684.078	1.15
684.261	1.15
684.444	1.19
684.627	1.25
684.81	1.16
684.993	1.19
685.176	1.26
685.359	1.08
685.542	1.12
685.725	1.27
685.908	1.17
686.091	1.11
686.274	1.24
686.457	1.18
686.639	1.14
686.822	1.13
687.005	1.17
687.188	1.14
687.371	1.24
687.553	1.16
687.736	1.12
687.919	1.21
688.102	1.13
688.284	1.1
688.467	1.09
688.65	1.05
688.832	1.02
689.015	1.08
689.197	1
689.38	1.18
689.563	1.19
689.745	0.99
689.928	1.05
690.11	1.06
690.293	1.06
690.475	0.94
690.658	1.04
690.84	1.04
691.023	1.01
691.205	0.95
691.388	1.04
691.57	1.1
691.752	1.1
691.935	0.92
692.117	1.02
692.3	0.98
692.482	0.99
692.664	0.98
692.847	0.99
693.029	1.11
693.211	1
693.393	0.94
693.576	0.96
693.758	0.93
693.94	0.95
694.122	0.94
694.304	0.93
694.487	0.92
694.669	1.04
694.851	0.83
695.033	0.92
695.215	0.89
695.397	0.88
695.579	0.91
695.761	0.87
695.943	0.79
696.125	0.96
696.308	0.95
696.49	0.79
696.671	1.01
696.853	0.91
697.035	1.17
697.217	0.86
697.399	0.97
697.581	0.86
697.763	0.85
697.945	0.81
698.127	0.87
698.309	0.88
698.491	0.95
698.672	0.96
698.854	0.93
699.036	0.93
699.218	0.85
699.399	0.87
699.581	0.96
699.763	0.87
699.945	0.75
700.126	0.78
700.308	0.88
700.49	0.89
700.671	0.73
700.853	0.75
701.035	0.8
701.216	0.81
701.398	0.72
701.579	0.78
701.761	0.88
701.943	0.76
702.124	0.75
702.306	0.77
702.487	0.96
702.669	0.79
702.85	0.72
703.031	0.73
703.213	0.98
703.394	0.84
703.576	0.78
703.757	0.96
703.938	0.83
704.12	0.95
704.301	0.78
704.483	0.77
704.664	0.76
704.845	0.91
705.026	0.82
705.208	0.69
705.389	0.82
705.57	0.78
705.751	0.75
705.933	0.75
706.114	0.82
706.295	0.75
706.476	0.62
706.657	0.84
706.838	0.82
707.02	0.86
707.201	0.69
707.382	0.7
707.563	0.79
707.744	0.68
707.925	0.59
708.106	0.67
708.287	0.74
708.468	0.85
708.649	0.68
708.83	0.74
709.011	0.69
709.192	0.75
709.373	0.62
709.554	0.63
709.734	0.84
709.915	0.77
710.096	0.67
710.277	0.56
710.458	0.68
710.639	0.75
710.819	0.56
711	0.72
711.181	0.79
711.362	0.73
711.542	0.7
711.723	0.59
711.904	0.72
712.085	0.7
712.265	0.68
712.446	0.48
712.627	0.64
712.807	0.63
712.988	0.6
713.168	0.55
713.349	0.66
713.53	0.46
713.71	0.56
713.891	0.57
714.071	0.61
714.252	0.57
714.432	0.59
714.613	0.48
714.793	0.66
714.974	0.72
715.154	0.67
715.334	0.65
715.515	0.71
715.695	0.44
715.876	0.59
716.056	0.54
716.236	0.66
716.417	0.56
716.597	0.57
716.777	0.84
716.957	0.62
717.138	0.64
717.318	0.66
717.498	0.43
717.678	0.67
717.859	0.63
718.039	0.44
718.219	0.63
718.399	0.64
718.579	0.59
718.759	0.49
718.939	0.62
719.12	0.66
719.3	0.62
719.48	0.47
719.66	0.45
719.84	0.67
720.02	0.48
720.2	0.53
720.38	0.57
720.56	0.73
720.74	0.44
720.92	0.64
721.1	0.68
721.279	0.66
721.459	0.63
721.639	0.49
721.819	0.53
721.999	0.53
722.179	0.57
722.359	0.39
722.538	0.47
722.718	0.54
722.898	0.55
723.078	0.61
723.257	0.53
723.437	0.58
723.617	0.53
723.797	0.48
723.976	0.54
724.156	0.62
724.336	0.63
724.515	0.68
724.695	0.33
724.874	0.56
725.054	0.6
725.234	0.48
725.413	0.51
725.593	0.49
725.772	0.56
725.952	0.53
726.131	0.5
726.311	0.56
726.49	0.56
726.67	0.48
726.849	0.45
727.028	0.56
727.208	0.47
727.387	0.54
727.567	0.44
727.746	0.46
727.925	0.4
728.105	0.45
728.284	0.46
728.463	0.39
728.643	0.55
728.822	0.35
729.001	0.57
729.18	0.52
729.359	0.67
729.539	0.44
729.718	0.52
729.897	0.66
730.076	0.56
730.255	0.41
730.434	0.45
730.614	0.55
730.793	0.71
730.972	0.51
731.151	0.49
731.33	0.59
731.509	0.5
731.688	0.59
731.867	0.5
732.046	0.37
732.225	0.65
732.404	0.38
732.583	0.33
732.762	0.51
732.941	0.55
733.12	0.54
733.298	0.46
733.477	0.65
733.656	0.45
733.835	0.45
734.014	0.59
734.193	0.47
734.371	0.61
734.55	0.6
734.729	0.37
734.908	0.61
735.086	0.44
735.265	0.61
735.444	0.29
735.623	0.37
735.801	0.44
735.98	0.41
736.159	0.52
736.337	0.64
736.516	0.49
736.694	0.54
736.873	0.53
737.052	0.68
737.23	0.69
737.409	0.36
737.587	0.81
737.766	0.33
737.944	0.51
738.123	0.69
738.301	0.58
738.479	0.48
738.658	0.44
738.836	0.31
739.015	0.61
739.193	0.66
739.371	0.33
739.55	0.42
739.728	0.37
739.906	0.67
740.085	0.7
740.263	0.57
740.441	0.28
740.62	0.7
740.798	0.51
740.976	0.39
741.154	0.34
741.332	0.7
741.511	0.49
741.689	0.6
741.867	0.62
742.045	0.57
742.223	0.38
742.401	0.42
742.579	0.42
742.757	0.55
742.935	0.25
743.114	0.46
743.292	0.46
743.47	0.46
743.648	0.48
743.826	0.27
744.004	0.65
744.181	0.57
744.359	0.41
744.537	0.44
744.715	0.54
744.893	0.43
745.071	0.51
745.249	0.43
745.427	0.38
745.605	0.46
745.782	0.5
745.96	0.46
746.138	0.54
746.316	0.53
746.493	0.35
746.671	0.56
746.849	0.43
747.027	0.62
747.204	0.28
747.382	0.45
747.56	0.28
747.737	0.39
747.915	0.41
748.093	0.53
748.27	0.36
748.448	0.33
748.625	0.32
748.803	0.25
748.98	0.39
749.158	0.38
749.335	0.59
749.513	0.39
749.69	0.34
749.868	0.4
750.045	0.43
750.223	0.32
750.4	0.21
750.578	0.54
750.755	0.42
750.932	0.22
751.11	0.53
751.287	0.29
751.464	0.51
751.642	0.27
751.819	0.44
751.996	0.47
752.173	0.38
752.351	0.28
752.528	0.41
752.705	0.38
752.882	0.36
753.06	0.32
753.237	0.44
753.414	0.58
753.591	0.57
753.768	0.41
753.945	0.31
754.122	0.41
754.299	0.55
754.476	0.36
754.654	0.4
754.831	0.51
755.008	0.39
755.185	0.3
755.362	0.3
755.539	0.47
755.716	0.33
755.892	0.29
756.069	0.39
756.246	0.49
756.423	0.5
756.6	0.49
756.777	0.29
756.954	0.62
757.131	0.36
757.307	0.23
757.484	0.22
757.661	0.44
757.838	0.43
758.015	0.19
758.191	0.42
758.368	0.47
758.545	0.64
758.721	0.42
758.898	0.28
759.075	0.44
759.251	0.48
759.428	0.51
759.605	0.26
759.781	0.27
759.958	0.43
760.134	0.43
760.311	0.34
760.488	0.55
760.664	0.51
760.841	0.46
761.017	0.26
761.194	0.33
761.37	0.57
761.547	0.4
761.723	0.4
761.899	0.54
762.076	0.24
762.252	0.31
762.429	0.27
762.605	0.4
762.781	0.34
762.958	0.51
763.134	0.31
763.31	0.37
763.486	0.66
763.663	0.17
763.839	0.56
764.015	0.14
764.191	0.26
764.368	0.25
764.544	0.28
764.72	0.29
764.896	0.47
765.072	0.49
765.248	0.39
765.425	0.3
765.601	0.42
765.777	0.37
765.953	0.14
766.129	0.28
766.305	0.33
766.481	0.47
766.657	0.43
766.833	0.51
767.009	0.24
767.185	0.37
767.361	0.3
767.537	0.39
767.713	0.62
767.889	0.32
768.065	0.31
768.24	0.43
768.416	0.47
768.592	0.33
768.768	0.37
768.944	0.47
769.12	0.32
769.295	0.34
769.471	0.43
769.647	0.3
769.823	0.7
769.998	0.3
770.174	0.44
770.35	0.98
770.525	0.77
770.701	0.47
770.877	0.4
771.052	0.21
771.228	0.56
771.403	0.43
771.579	0.34
771.755	0.71
771.93	0.32
772.106	0.25
772.281	0.11
772.457	0.23
772.632	0.44
772.808	0.14
772.983	0.31
773.159	0.2
773.334	0.66
773.509	0.49
773.685	0.16
773.86	0.77
774.036	0.67
774.211	0.51
774.386	0.32
774.562	0.38
774.737	0.55
774.912	0.36
775.087	0.63
775.263	0.33
775.438	0.39
775.613	0.24
775.788	0.36
775.964	0.73
776.139	0.93
776.314	0.39
776.489	0.49
776.664	0.45
776.839	0.21
777.014	0.65
777.19	0.5
777.365	0.52
777.54	0.72
777.715	0.28
777.89	0.34
778.065	0.38
778.24	0.4
778.415	0.59
778.59	0.18
778.765	0.33
778.94	0.61
779.115	0.43
779.289	0.36
779.464	0.3
779.639	0.26
779.814	0.3
779.989	0.18
780.164	0.68
780.339	0.44
780.513	0.25
780.688	0.2
780.863	0.41
781.038	0.7
781.212	0.04
781.387	0.35
781.562	0.69
781.737	0.13
781.911	0.63
782.086	0.1
782.261	0.44
782.435	0.69
782.61	0.28
782.784	0.51
782.959	0.73
783.134	0.29
783.308	0.2
783.483	0.43
783.657	0.73
783.832	0.66
784.006	0.09
784.181	0.38
784.355	0.68
784.53	0.32
784.704	0.16
784.878	0.76
785.053	0.58
785.227	0.78
785.402	0.72
785.576	0.23
785.75	0.65
785.925	0.47
786.099	0.54
786.273	0.44
786.448	0.74
786.622	0.61
786.796	0.22
786.97	0.39
787.145	1.11
787.319	0.28
787.493	0.31
787.667	-0.09
787.841	0.54
788.015	0.81
788.19	0.46
788.364	0.36
788.538	0.61
788.712	0.63
788.886	0.3
789.06	0.59
789.234	0.66
789.408	0.29
789.582	0.47
789.756	0.22
789.93	0.08
790.104	0.55
790.278	0.45
790.452	0.28
790.626	0.69
790.8	0.54
790.973	0.56
791.147	0.85
791.321	0.78
791.495	0.74
791.669	0.6
791.843	0.7
792.016	0.43
792.19	0.77
792.364	0.18
792.538	1.26
792.711	0.73
792.885	0.2
793.059	0.22
793.233	-0.13
793.406	0.7
793.58	0.54
793.754	0.5
793.927	0.35
794.101	0.75
794.274	0.22
794.448	0.7
794.622	-0.04
794.795	1.08
794.969	0.33
795.142	0.87
795.316	0.29
795.489	0.31
795.663	0.96
795.836	0.54
796.009	0.21
796.183	0.64
796.356	0.69
796.53	0.52
796.703	0.33
796.876	1.21
797.05	0.37
797.223	0.37
797.396	0.38
797.57	0.41
797.743	1.02
797.916	0.5
798.09	0.58
798.263	0.72
798.436	0.58
798.609	0.47
798.782	0.67
798.956	0.68
799.129	0.49
799.302	-0.04
799.475	0.55
799.648	0.35
799.821	0.39
799.994	0.45
800.167	0.01
800.34	0.63
800.514	0.52
800.687	0.2
800.86	0.08
801.033	0.84
801.206	0.68
801.379	0.47
801.551	0.97
801.724	0.73
801.897	1.15
802.07	0.18
802.243	0.14
802.416	0.6
802.589	0.41
802.762	0.95
802.935	0.44
803.107	0.9
803.28	0.95
803.453	0.99
803.626	0.53
803.798	0.8
803.971	0.75
804.144	0.56
804.317	0.62
804.489	0.84
804.662	1
804.835	0.71
805.007	0.22
805.18	1.04
805.353	0.66
805.525	0.41
805.698	0.35
805.87	0.84
806.043	1.02
806.215	0.21
806.388	0.65
806.56	0.77
806.733	1.21
806.905	0.5
807.078	0.3
807.25	0.27
807.423	0.74
807.595	0.48
807.768	0.56
807.94	0.86
808.112	1.15
808.285	0.62
808.457	0.57
808.629	0.55
808.802	0.93
808.974	0.6
809.146	0.42
809.318	0.23
809.491	0.7
809.663	0.63
809.835	0.33
810.007	0.64
810.18	0.78
810.352	0.04
810.524	0.65
810.696	1.03
810.868	0.92
811.04	0.23
811.212	0.89
811.384	0.99
811.556	1.12
811.728	0.61
811.901	1.8
812.073	0.85
812.245	1.14
812.417	0.75
812.589	-0.15
812.76	0.62
812.932	1.19
813.104	0.91
813.276	0.55
813.448	0.82
813.62	0.8
813.792	0.8
813.964	0.32
814.136	1.01
814.307	0.65
814.479	0.18
814.651	0.24
814.823	1.61
814.995	0.41
815.166	0.67
815.338	0.72
815.51	0.41
815.681	1.65
815.853	0.86
816.025	0.34
816.196	1.12
816.368	1.49
816.54	0.36
816.711	0.56
816.883	0.8
817.054	1.81
817.226	0.35
817.398	1
817.569	0.42
817.741	0.77
817.912	0.23
818.084	0.6
818.255	1.41
818.426	0.6
818.598	1.02
818.769	0.1
818.941	0.68
819.112	1.63
819.283	0.91
819.455	0.21
819.626	0.61
819.798	1.27
819.969	0.77
820.14	0.25
820.311	0.64
820.483	0.82
820.654	0.99
820.825	0.81
820.996	0.43
821.168	0.15
821.339	0.52
821.51	0.11
821.681	0.55
821.852	0.8
822.023	0.56
822.195	-0.51
822.366	1.54
822.537	0.91
822.708	1.02
822.879	0.24
823.05	1.16
823.221	0.34
823.392	0.83
823.563	0.59
823.734	0.85
823.905	0.43
824.076	0.41
824.247	0.83
824.418	0.32
824.589	2.23
824.759	1.18
824.93	0.42
825.101	-0.12
825.272	1.95
825.443	1.57
825.614	1.47
825.784	0.49
825.955	1.86
826.126	1.57
826.297	0.56
826.467	1.98
826.638	1.88
826.809	0.21
826.98	0.48
827.15	1.32
827.321	1.16
827.492	1.12
827.662	0.9
827.833	1.66
828.003	1.44
828.174	0.26
828.345	-0.13
828.515	1.82
828.686	1.24
828.856	0.64
829.027	0.44
829.197	1.3
829.368	0.92
829.538	0.41
829.709	0.3
829.879	1.42
830.049	1.72
830.22	0.73
830.39	1.06
830.56	1.61
830.731	0.65
830.901	0.65
831.072	1.08
831.242	1.06
831.412	1.86
831.582	1.41
831.753	0.18
831.923	1.7
832.093	1.13
832.263	0.82
832.434	0.98
832.604	0.15
832.774	1.38
832.944	0.5
833.114	0.67
833.284	1.08
833.454	0.36
833.624	0.38
833.795	0.64
833.965	1.69
834.135	1.8
834.305	-0.36
834.475	-0.16
834.645	0.55
834.815	0.36
834.985	0.5
835.155	0.74
835.325	1.33
835.494	1.78
835.664	0.57
835.834	0.36
836.004	1.57
836.174	1.89
836.344	0.17
836.514	-0.59
836.684	0.97
836.853	0.68
837.023	1.36
837.193	0.68
837.363	1.73
837.532	1.65
837.702	1.02
837.872	-0.18
838.041	1.65
838.211	3.08
838.381	-0.04
838.55	0.8
838.72	3.7
838.89	2.04
839.059	0.5
839.229	0.08
839.398	3.8
839.568	1.26
839.738	1.08
839.907	1.78
840.077	1.42
840.246	0.67
840.416	0.49
840.585	0.39
840.755	2.94
840.924	2.34
841.093	0.26
841.263	1.15
841.432	1.13
841.602	0.71
841.771	0.92
841.94	1.75
842.11	3.49
842.279	3.34
842.448	0.43
842.617	0.45
842.787	3.29
842.956	0.05
843.125	0.23
843.294	0.58
843.464	2.81
843.633	1.88
843.802	0.95
843.971	0.35
844.14	1.73
844.309	3.03
844.479	-0.91
844.648	0.58
844.817	1.42
844.986	1.21
845.155	0.85
845.324	1.14
845.493	1.38
845.662	0.51
845.831	1.51
846	0.42
846.169	1.69
846.338	3.05
846.507	1.4
846.676	1.68
846.844	0.7
847.013	2.14
847.182	1.3
847.351	0.56
847.52	1.71
847.689	2.1
847.858	0.41
848.026	0.37
848.195	0.94
848.364	1.14
848.533	0.6
848.701	0.31
848.87	1.55
849.039	2.85
849.207	2.05
849.376	2.51
849.545	2.16
849.713	0.97
849.882	0.77
850.051	1.18
850.219	1.65
850.388	2.21
850.556	-0.14
850.725	0.41
850.893	2.47
851.062	1.65
851.23	1.78
851.399	-0.73
851.567	1.44
851.736	0.61
851.904	0.02
852.073	0.53
852.241	1.85
852.41	1.05
852.578	0.78
852.746	0.34
852.915	1.87
853.083	1.37
853.251	0.65
853.42	0.22
853.588	1.06
853.756	3.28
853.924	1.77
854.093	2
854.261	1.08
854.429	-0.5
854.597	1.81
854.765	0.57
854.934	3.34
855.102	3.8
855.27	0.92
855.438	1.74
855.606	3.74
855.774	4.35
855.942	-0.51
856.11	-0.6
856.278	2.01
856.446	2.73
856.614	1.76
856.782	-0.09
856.95	2.75
857.118	2.8
857.286	2.14
857.454	0.56
857.622	2.26
857.79	2.66
857.958	-0.22
858.126	0.66
858.294	-0.54
858.462	1.65
858.629	0.3
858.797	-0.69
858.965	1.82
859.133	1.85
859.301	1.11
859.468	2.79
859.636	0.68
859.804	4.65
859.971	2.75
860.139	0.89
860.307	1.98
860.474	1.67
860.642	1.27
860.81	1.21
860.977	0.73
861.145	2.78
861.313	-0.17
861.48	0.93
861.648	4.04
861.815	2.03
861.983	0.41
862.15	1.2
862.318	2.61
862.485	2.59
862.653	-1.08
862.82	0.53
862.988	5.17
863.155	2.25
863.322	-0.13
863.49	-0.28
863.657	1.29
863.824	5.39
863.992	1.92
864.159	2.08
864.326	5.22
864.494	1.45
864.661	4.37
864.828	0.55
864.996	3.97
865.163	3.42
865.33	0.54
865.497	-0.77
865.664	1.51
865.832	0.16
865.999	1.57
866.166	1.96
866.333	0.99
866.5	0.63
866.667	2.06
866.834	1.59
867.001	3.12
867.168	0.35
867.335	0.94
867.502	1.17
867.669	2.3
867.836	5.33
868.003	0.36
868.17	3.8
868.337	5.16
868.504	5.68
868.671	-0.71
868.838	0.6
869.005	3.13
869.172	3.09
869.339	1.1
869.505	1.83
869.672	2.12
869.839	6.08
870.006	0.7
870.173	0.01
870.339	2.97
870.506	7.57
870.673	1.08
870.84	3.3
871.006	2.07
871.173	2.92
871.34	1.36
871.506	0.25
871.673	2.57
871.839	-0.3
872.006	1.63
872.173	0.47
872.339	4.44
872.506	3.43
872.672	3.36
872.839	0.07
873.005	3.2
873.172	7.32
873.338	4.16
873.505	0.32
873.671	3.59
873.838	2.77
874.004	-0.73
874.171	1.68
874.337	3.21
874.503	3.92
874.67	0.59
874.836	0.39
875.002	4.27
875.169	5.32
875.335	2.76
875.501	2.09
875.668	4.39
875.834	2.26
876	0.7
876.166	3.39
876.332	4.55
876.499	5.71
876.665	0.88
876.831	1.83
876.997	7.18
877.163	2.54
877.329	2.11
877.495	3.72
877.662	4.53
877.828	1.87
877.994	1.87
878.16	-1.44
878.326	0.39
878.492	4.41
878.658	1.86
878.824	2.48
878.99	3.45
879.156	1.63
879.322	6.06
879.487	0.68
879.653	2.08
879.819	3.19
879.985	2.14
880.151	1.87
880.317	4.19
880.483	2.73
880.648	2.79
880.814	0.36
880.98	4.09
881.146	-0.89
881.312	0.23
881.477	2.67
881.643	1.94
881.809	5.77
881.974	4.89
882.14	-1.76
882.306	1.31
882.471	5.98
882.637	2.64
882.803	4.13
882.968	4.61
883.134	6.55
883.299	0.21
883.465	1.5
883.63	4.89
883.796	3.4
883.961	2.57
884.127	2.35
884.292	-2.18
884.458	-0.92
884.623	-0.92
