Data from Apollo_Calib_20240827__AbsoluteIrradiance__872__13-41-01-999.txt Node

Date: Wed Aug 28 13:41:01 BST 2024
User: biology
Spectrometer: FLMT08252
Trigger mode: 0
Integration Time (sec): 5.000000E-1
Scans to average: 5
Electric dark correction enabled: true
Nonlinearity correction enabled: false
Boxcar width: 0
XAxis mode: Wavelengths
Number of Pixels in Spectrum: 3648
>>>>>Begin Spectral Data<<<<<
179.588	-0
179.809	-0
180.03	-0
180.251	-0
180.473	-0
180.694	0
180.915	0
181.136	-0
181.357	-0
181.578	-0
181.799	0
182.02	-0
182.241	0
182.462	-0
182.683	0
182.904	-0
183.125	-0
183.346	0
183.567	0
183.788	0
184.009	0
184.23	0
184.451	0
184.672	0
184.892	0
185.113	0
185.334	0
185.555	0
185.776	0
185.996	0
186.217	0
186.438	0
186.659	0
186.879	0
187.1	0
187.321	0
187.541	0
187.762	0
187.983	0
188.203	0
188.424	0
188.644	0
188.865	0
189.086	0
189.306	0
189.527	0
189.747	0
189.968	0
190.188	0
190.409	0
190.629	0
190.849	0
191.07	0
191.29	0
191.511	0
191.731	0
191.951	0
192.172	0
192.392	0
192.612	0
192.833	0
193.053	0
193.273	0
193.493	0
193.714	0
193.934	0
194.154	0
194.374	0
194.594	0
194.815	0
195.035	0
195.255	0
195.475	0
195.695	0
195.915	0
196.135	0
196.355	0
196.575	0
196.795	0
197.015	0
197.235	0
197.455	0
197.675	0
197.895	0
198.115	0
198.335	0
198.555	0
198.775	0
198.995	0
199.214	0
199.434	0
199.654	0
199.874	0
200.094	4.16
200.313	2.97
200.533	1.95
200.753	2.03
200.973	4.71
201.192	2.76
201.412	1.47
201.632	2.12
201.851	3.58
202.071	2.46
202.291	1.75
202.51	1.54
202.73	2.71
202.95	1.44
203.169	1.42
203.389	1.92
203.608	1.69
203.828	1.89
204.047	1.2
204.267	2.23
204.486	2.05
204.706	2.49
204.925	1.56
205.145	1.22
205.364	2.4
205.583	2.79
205.803	1.16
206.022	1.16
206.242	1.66
206.461	1.88
206.68	1.04
206.9	1.68
207.119	2.56
207.338	2.25
207.557	1.38
207.777	1.04
207.996	1.4
208.215	2.28
208.434	1
208.654	0.8
208.873	1.57
209.092	2.03
209.311	1.28
209.53	0.95
209.749	1.22
209.968	1.22
210.187	1.07
210.407	0.51
210.626	1.31
210.845	1.71
211.064	1.24
211.283	0.75
211.502	1.53
211.721	1.18
211.94	0.94
212.159	1.18
212.377	1.56
212.596	1.5
212.815	1.15
213.034	1.26
213.253	1.29
213.472	1.25
213.691	1.06
213.91	0.66
214.128	0.75
214.347	1.62
214.566	0.48
214.785	0.7
215.003	1.22
215.222	1.43
215.441	1.04
215.66	0.57
215.878	1
216.097	1.25
216.316	0.73
216.534	0.8
216.753	1.05
216.972	0.87
217.19	0.89
217.409	0.68
217.627	0.76
217.846	0.91
218.064	0.99
218.283	0.72
218.501	1.38
218.72	1.15
218.938	0.52
219.157	0.77
219.375	1.09
219.594	1.16
219.812	0.63
220.031	0.53
220.249	1.36
220.467	1.18
220.686	0.59
220.904	0.6
221.122	0.66
221.341	1.11
221.559	0.86
221.777	0.34
221.995	0.86
222.214	0.84
222.432	0.58
222.65	0.79
222.868	0.69
223.086	0.84
223.305	0.87
223.523	0.77
223.741	1.23
223.959	0.74
224.177	0.31
224.395	0.43
224.613	0.79
224.831	1.14
225.049	0.41
225.267	0.69
225.485	0.8
225.703	0.54
225.921	0.5
226.139	0.55
226.357	0.71
226.575	0.91
226.793	0.57
227.011	1.83
227.229	0.74
227.447	0.94
227.665	0.49
227.883	0.36
228.1	0.56
228.318	0.74
228.536	0.17
228.754	0.45
228.972	0.86
229.189	0.93
229.407	0.55
229.625	0.65
229.843	0.85
230.06	0.91
230.278	0.55
230.496	0.59
230.713	0.61
230.931	0.84
231.149	0.52
231.366	0.28
231.584	0.69
231.801	1.02
232.019	0.47
232.236	0.28
232.454	0.38
232.671	0.74
232.889	0.6
233.106	0.41
233.324	0.63
233.541	0.58
233.759	0.52
233.976	0.37
234.194	0.62
234.411	0.4
234.628	0.48
234.846	0.54
235.063	0.55
235.28	0.59
235.498	0.48
235.715	0.4
235.932	0.82
236.149	0.55
236.367	0.32
236.584	0.51
236.801	0.58
237.018	0.71
237.236	0.43
237.453	0.36
237.67	0.73
237.887	0.48
238.104	0.48
238.321	0.33
238.538	0.38
238.755	0.69
238.973	0.37
239.19	0.39
239.407	0.6
239.624	0.63
239.841	0.4
240.058	0.33
240.275	0.55
240.492	0.56
240.709	0.45
240.925	0.47
241.142	0.58
241.359	0.4
241.576	0.3
241.793	0.35
242.01	0.55
242.227	0.62
242.444	0.46
242.66	0.63
242.877	0.57
243.094	0.48
243.311	0.52
243.527	0.42
243.744	0.54
243.961	0.68
244.178	0.35
244.394	0.4
244.611	0.6
244.828	0.69
245.044	0.33
245.261	0.38
245.477	0.45
245.694	0.71
245.911	0.36
246.127	0.46
246.344	0.59
246.56	0.52
246.777	0.36
246.993	0.41
247.21	0.49
247.426	0.43
247.643	0.35
247.859	0.46
248.076	0.36
248.292	0.73
248.508	0.38
248.725	0.52
248.941	0.47
249.157	0.61
249.374	0.35
249.59	0.44
249.806	0.46
250.023	0.52
250.239	0.3
250.455	0.36
250.671	0.47
250.888	0.5
251.104	0.45
251.32	0.27
251.536	0.46
251.752	0.33
251.969	0.43
252.185	0.36
252.401	0.73
252.617	0.51
252.833	0.34
253.049	0.43
253.265	0.41
253.481	0.4
253.697	0.3
253.913	0.31
254.129	0.51
254.345	0.45
254.561	0.34
254.777	0.35
254.993	0.47
255.209	0.47
255.425	0.33
255.641	0.32
255.857	0.56
256.073	0.44
256.288	0.22
256.504	0.32
256.72	0.48
256.936	0.59
257.152	0.38
257.367	0.31
257.583	0.39
257.799	0.58
258.015	0.26
258.23	0.38
258.446	0.66
258.662	0.38
258.877	0.27
259.093	0.27
259.309	0.45
259.524	0.47
259.74	0.3
259.955	0.25
260.171	0.41
260.387	0.47
260.602	0.45
260.818	0.44
261.033	0.29
261.249	0.47
261.464	0.3
261.68	0.23
261.895	0.44
262.11	0.45
262.326	0.29
262.541	0.22
262.757	0.53
262.972	0.44
263.187	0.46
263.403	0.34
263.618	0.52
263.833	0.41
264.049	0.3
264.264	0.36
264.479	0.37
264.694	0.56
264.91	0.27
265.125	0.38
265.34	0.49
265.555	0.6
265.77	0.39
265.986	0.29
266.201	0.45
266.416	0.53
266.631	0.27
266.846	0.31
267.061	0.45
267.276	0.49
267.491	0.17
267.706	0.36
267.921	0.45
268.136	0.46
268.351	0.34
268.566	0.27
268.781	0.48
268.996	0.52
269.211	0.31
269.426	0.26
269.641	0.32
269.856	0.44
270.071	0.26
270.285	0.26
270.5	0.43
270.715	0.44
270.93	0.27
271.145	0.34
271.359	0.43
271.574	0.38
271.789	0.37
272.004	0.35
272.218	0.29
272.433	0.38
272.648	0.28
272.862	0.41
273.077	0.38
273.292	0.36
273.506	0.25
273.721	0.32
273.936	0.41
274.15	0.43
274.365	0.26
274.579	0.37
274.794	0.43
275.008	0.38
275.223	0.22
275.437	0.29
275.652	0.46
275.866	0.43
276.081	0.35
276.295	0.36
276.509	0.37
276.724	0.38
276.938	0.36
277.153	0.39
277.367	0.35
277.581	0.27
277.796	0.22
278.01	0.26
278.224	0.45
278.438	0.48
278.653	0.25
278.867	0.28
279.081	0.35
279.295	0.3
279.51	0.33
279.724	0.2
279.938	0.4
280.152	0.43
280.366	0.31
280.58	0.32
280.794	0.45
281.008	0.44
281.222	0.38
281.437	0.49
281.651	0.33
281.865	0.46
282.079	0.29
282.293	0.16
282.507	0.26
282.721	0.31
282.935	0.28
283.148	0.19
283.362	0.27
283.576	0.22
283.79	0.3
284.004	0.28
284.218	0.44
284.432	0.3
284.646	0.32
284.859	0.25
285.073	0.28
285.287	0.36
285.501	0.34
285.714	0.29
285.928	0.33
286.142	0.33
286.356	0.26
286.569	0.31
286.783	0.43
286.997	0.4
287.21	0.3
287.424	0.21
287.637	0.33
287.851	0.23
288.065	0.34
288.278	0.31
288.492	0.33
288.705	0.27
288.919	0.33
289.132	0.16
289.346	0.35
289.559	0.19
289.773	0.25
289.986	0.26
290.2	0.28
290.413	0.33
290.626	0.27
290.84	0.25
291.053	0.32
291.267	0.42
291.48	0.33
291.693	0.27
291.906	0.23
292.12	0.3
292.333	0.23
292.546	0.22
292.76	0.39
292.973	0.33
293.186	0.33
293.399	0.3
293.612	0.37
293.826	0.27
294.039	0.31
294.252	0.26
294.465	0.36
294.678	0.27
294.891	0.28
295.104	0.23
295.317	0.25
295.53	0.33
295.743	0.32
295.956	0.25
296.169	0.35
296.382	0.36
296.595	0.23
296.808	0.22
297.021	0.34
297.234	0.32
297.447	0.28
297.66	0.28
297.873	0.35
298.086	0.39
298.299	0.25
298.511	0.18
298.724	0.3
298.937	0.25
299.15	0.27
299.363	0.27
299.575	0.33
299.788	0.3
300.001	0.22
300.213	0.21
300.426	0.27
300.639	0.24
300.852	0.24
301.064	0.35
301.277	0.38
301.489	0.33
301.702	0.32
301.915	0.2
302.127	0.29
302.34	0.31
302.552	0.28
302.765	0.24
302.977	0.4
303.19	0.21
303.402	0.22
303.615	0.21
303.827	0.23
304.04	0.27
304.252	0.31
304.464	0.21
304.677	0.38
304.889	0.35
305.102	0.24
305.314	0.19
305.526	0.33
305.739	0.31
305.951	0.25
306.163	0.26
306.375	0.37
306.588	0.25
306.8	0.2
307.012	0.22
307.224	0.31
307.436	0.38
307.649	0.22
307.861	0.24
308.073	0.32
308.285	0.24
308.497	0.2
308.709	0.23
308.921	0.28
309.133	0.32
309.346	0.22
309.558	0.25
309.77	0.32
309.982	0.34
310.194	0.25
310.406	0.25
310.617	0.39
310.829	0.28
311.041	0.33
311.253	0.19
311.465	0.23
311.677	0.27
311.889	0.26
312.101	0.2
312.313	0.3
312.524	0.36
312.736	0.16
312.948	0.23
313.16	0.34
313.372	0.31
313.583	0.3
313.795	0.26
314.007	0.24
314.218	0.35
314.43	0.25
314.642	0.25
314.853	0.18
315.065	0.31
315.277	0.27
315.488	0.27
315.7	0.34
315.912	0.31
316.123	0.26
316.335	0.24
316.546	0.41
316.758	0.26
316.969	0.21
317.181	0.27
317.392	0.28
317.604	0.34
317.815	0.2
318.026	0.26
318.238	0.28
318.449	0.26
318.661	0.21
318.872	0.19
319.083	0.22
319.295	0.31
319.506	0.22
319.717	0.26
319.929	0.36
320.14	0.26
320.351	0.26
320.562	0.23
320.774	0.3
320.985	0.3
321.196	0.19
321.407	0.18
321.618	0.32
321.829	0.29
322.041	0.29
322.252	0.24
322.463	0.29
322.674	0.32
322.885	0.17
323.096	0.24
323.307	0.26
323.518	0.26
323.729	0.22
323.94	0.26
324.151	0.23
324.362	0.25
324.573	0.26
324.784	0.27
324.995	0.29
325.206	0.31
325.417	0.25
325.628	0.28
325.838	0.28
326.049	0.25
326.26	0.28
326.471	0.2
326.682	0.3
326.892	0.26
327.103	0.19
327.314	0.26
327.525	0.35
327.735	0.32
327.946	0.23
328.157	0.17
328.368	0.32
328.578	0.25
328.789	0.3
328.999	0.28
329.21	0.3
329.421	0.34
329.631	0.21
329.842	0.17
330.052	0.3
330.263	0.34
330.473	0.28
330.684	0.24
330.894	0.26
331.105	0.3
331.315	0.3
331.526	0.15
331.736	0.34
331.947	0.34
332.157	0.28
332.367	0.2
332.578	0.28
332.788	0.38
332.999	0.3
333.209	0.26
333.419	0.16
333.629	0.32
333.84	0.28
334.05	0.26
334.26	0.36
334.47	0.24
334.681	0.32
334.891	0.23
335.101	0.31
335.311	0.41
335.521	0.27
335.732	0.21
335.942	0.3
336.152	0.28
336.362	0.27
336.572	0.24
336.782	0.33
336.992	0.23
337.202	0.24
337.412	0.19
337.622	0.28
337.832	0.26
338.042	0.23
338.252	0.21
338.462	0.25
338.672	0.33
338.882	0.28
339.092	0.3
339.302	0.34
339.511	0.28
339.721	0.24
339.931	0.21
340.141	0.33
340.351	0.3
340.561	0.3
340.77	0.27
340.98	0.34
341.19	0.31
341.4	0.26
341.609	0.2
341.819	0.25
342.029	0.17
342.238	0.23
342.448	0.2
342.658	0.27
342.867	0.23
343.077	0.27
343.286	0.26
343.496	0.29
343.706	0.35
343.915	0.21
344.125	0.24
344.334	0.28
344.544	0.23
344.753	0.21
344.963	0.22
345.172	0.23
345.381	0.26
345.591	0.19
345.8	0.27
346.01	0.34
346.219	0.34
346.428	0.17
346.638	0.27
346.847	0.25
347.056	0.37
347.266	0.24
347.475	0.25
347.684	0.35
347.893	0.37
348.103	0.27
348.312	0.25
348.521	0.29
348.73	0.27
348.94	0.28
349.149	0.23
349.358	0.24
349.567	0.25
349.776	0.19
349.985	0.22
350.194	0.29
350.403	0.32
350.612	0.2
350.821	0.19
351.03	0.27
351.239	0.23
351.448	0.28
351.657	0.24
351.866	0.31
352.075	0.25
352.284	0.31
352.493	0.22
352.702	0.32
352.911	0.33
353.12	0.23
353.329	0.23
353.538	0.27
353.746	0.26
353.955	0.2
354.164	0.3
354.373	0.25
354.582	0.34
354.79	0.24
354.999	0.29
355.208	0.28
355.416	0.37
355.625	0.21
355.834	0.22
356.042	0.31
356.251	0.21
356.46	0.2
356.668	0.29
356.877	0.37
357.085	0.34
357.294	0.18
357.503	0.31
357.711	0.26
357.92	0.45
358.128	0.26
358.337	0.18
358.545	0.29
358.754	0.23
358.962	0.32
359.17	0.24
359.379	0.29
359.587	0.26
359.796	0.23
360.004	0.32
360.212	0.32
360.421	0.35
360.629	0.26
360.837	0.21
361.046	0.34
361.254	0.46
361.462	0.26
361.67	0.25
361.879	0.3
362.087	0.36
362.295	0.26
362.503	0.25
362.711	0.2
362.92	0.22
363.128	0.2
363.336	0.22
363.544	0.17
363.752	0.25
363.96	0.2
364.168	0.18
364.376	0.25
364.584	0.28
364.792	0.3
365	0.24
365.208	0.28
365.416	0.31
365.624	0.35
365.832	0.24
366.04	0.34
366.248	0.29
366.456	0.24
366.664	0.28
366.872	0.27
367.079	0.25
367.287	0.24
367.495	0.25
367.703	0.21
367.911	0.23
368.118	0.25
368.326	0.26
368.534	0.21
368.742	0.34
368.949	0.19
369.157	0.19
369.365	0.3
369.572	0.23
369.78	0.19
369.988	0.3
370.195	0.29
370.403	0.31
370.61	0.23
370.818	0.22
371.026	0.37
371.233	0.25
371.441	0.26
371.648	0.24
371.856	0.27
372.063	0.27
372.271	0.21
372.478	0.26
372.685	0.23
372.893	0.33
373.1	0.23
373.308	0.24
373.515	0.38
373.722	0.32
373.93	0.27
374.137	0.29
374.344	0.34
374.552	0.33
374.759	0.28
374.966	0.27
375.173	0.27
375.381	0.34
375.588	0.25
375.795	0.23
376.002	0.26
376.209	0.21
376.417	0.27
376.624	0.26
376.831	0.27
377.038	0.25
377.245	0.17
377.452	0.23
377.659	0.27
377.866	0.25
378.073	0.23
378.28	0.28
378.487	0.35
378.694	0.34
378.901	0.24
379.108	0.25
379.315	0.35
379.522	0.37
379.729	0.3
379.936	0.27
380.143	0.27
380.35	0.31
380.557	0.26
380.763	0.2
380.97	0.32
381.177	0.28
381.384	0.28
381.591	0.19
381.797	0.32
382.004	0.33
382.211	0.29
382.418	0.2
382.624	0.3
382.831	0.33
383.038	0.24
383.244	0.32
383.451	0.31
383.658	0.33
383.864	0.24
384.071	0.27
384.277	0.38
384.484	0.27
384.69	0.35
384.897	0.24
385.103	0.27
385.31	0.25
385.516	0.24
385.723	0.24
385.929	0.31
386.136	0.3
386.342	0.33
386.549	0.28
386.755	0.33
386.961	0.33
387.168	0.3
387.374	0.27
387.58	0.29
387.787	0.32
387.993	0.31
388.199	0.3
388.406	0.25
388.612	0.26
388.818	0.23
389.024	0.27
389.231	0.33
389.437	0.38
389.643	0.29
389.849	0.25
390.055	0.28
390.261	0.27
390.467	0.3
390.674	0.27
390.88	0.31
391.086	0.33
391.292	0.23
391.498	0.35
391.704	0.35
391.91	0.33
392.116	0.28
392.322	0.23
392.528	0.32
392.734	0.29
392.94	0.31
393.146	0.34
393.352	0.37
393.557	0.31
393.763	0.32
393.969	0.35
394.175	0.33
394.381	0.31
394.587	0.29
394.792	0.29
394.998	0.4
395.204	0.38
395.41	0.3
395.615	0.34
395.821	0.38
396.027	0.36
396.233	0.27
396.438	0.4
396.644	0.42
396.85	0.33
397.055	0.33
397.261	0.31
397.466	0.33
397.672	0.35
397.878	0.38
398.083	0.4
398.289	0.34
398.494	0.39
398.7	0.41
398.905	0.27
399.111	0.45
399.316	0.3
399.522	0.34
399.727	0.37
399.932	0.36
400.138	0.34
400.343	0.39
400.549	0.33
400.754	0.44
400.959	0.39
401.165	0.37
401.37	0.35
401.575	0.52
401.78	0.36
401.986	0.36
402.191	0.35
402.396	0.37
402.601	0.4
402.807	0.44
403.012	0.42
403.217	0.46
403.422	0.42
403.627	0.4
403.832	0.4
404.037	0.49
404.243	0.45
404.448	0.39
404.653	0.43
404.858	0.46
405.063	0.45
405.268	0.42
405.473	0.38
405.678	0.44
405.883	0.71
406.088	0.51
406.293	0.4
406.498	0.48
406.703	0.57
406.907	0.5
407.112	0.43
407.317	0.57
407.522	0.6
407.727	0.55
407.932	0.55
408.136	0.68
408.341	0.58
408.546	0.56
408.751	0.58
408.956	0.63
409.16	0.72
409.365	0.64
409.57	0.59
409.774	0.65
409.979	0.69
410.184	0.73
410.388	0.67
410.593	0.78
410.798	0.77
411.002	0.74
411.207	0.82
411.411	0.8
411.616	0.75
411.82	0.85
412.025	0.87
412.229	0.87
412.434	1.02
412.638	0.92
412.843	0.91
413.047	1.02
413.252	0.98
413.456	1.04
413.66	1.05
413.865	1.05
414.069	1.14
414.273	1.12
414.478	1.15
414.682	1.21
414.886	1.32
415.091	1.21
415.295	1.26
415.499	1.45
415.703	1.37
415.908	1.49
416.112	1.41
416.316	1.61
416.52	1.58
416.724	1.6
416.929	1.61
417.133	1.96
417.337	1.79
417.541	1.88
417.745	1.86
417.949	2
418.153	2.08
418.357	2.07
418.561	2.29
418.765	2.29
418.969	2.42
419.173	2.5
419.377	2.49
419.581	2.78
419.785	2.71
419.989	2.7
420.193	2.89
420.397	2.97
420.601	3.1
420.804	3.24
421.008	3.16
421.212	3.36
421.416	3.4
421.62	3.36
421.823	3.38
422.027	3.61
422.231	3.59
422.435	3.62
422.638	3.66
422.842	3.77
423.046	3.87
423.249	4.03
423.453	4.03
423.657	4.27
423.86	4.36
424.064	4.51
424.268	4.59
424.471	4.5
424.675	4.85
424.878	4.9
425.082	4.95
425.285	5.33
425.489	5.18
425.692	5.44
425.896	5.35
426.099	5.6
426.303	5.82
426.506	5.82
426.71	6.17
426.913	6.26
427.116	6.59
427.32	6.47
427.523	6.48
427.726	6.86
427.93	6.97
428.133	7.29
428.336	7.46
428.54	7.51
428.743	7.79
428.946	8.11
429.149	8.01
429.353	8.05
429.556	8.2
429.759	8.13
429.962	8.3
430.165	8.45
430.368	8.11
430.571	8.22
430.775	8.24
430.978	8.21
431.181	8.25
431.384	8.38
431.587	8.4
431.79	8.83
431.993	8.71
432.196	9.07
432.399	9.59
432.602	9.6
432.805	9.73
433.008	10.21
433.211	10.11
433.414	10.45
433.616	10.52
433.819	10.3
434.022	10.56
434.225	10.76
434.428	10.76
434.631	11.25
434.833	10.95
435.036	11.21
435.239	11.39
435.442	11.58
435.645	11.71
435.847	11.66
436.05	12.1
436.253	12.21
436.455	12.21
436.658	12.2
436.861	12.49
437.063	12.54
437.266	12.52
437.468	12.92
437.671	13.25
437.874	13.26
438.076	13.17
438.279	13.72
438.481	13.72
438.684	14.52
438.886	14.03
439.089	14.32
439.291	14.28
439.494	14.66
439.696	14.91
439.899	15.51
440.101	15.83
440.303	16.03
440.506	16.76
440.708	16.51
440.91	16.68
441.113	16.78
441.315	17.02
441.517	16.85
441.72	17.44
441.922	16.92
442.124	16.92
442.326	17.33
442.529	17.65
442.731	17.61
442.933	17.87
443.135	17.66
443.337	17.6
443.539	18.25
443.742	17.8
443.944	18.54
444.146	18.22
444.348	18.19
444.55	18
444.752	18.34
444.954	18.31
445.156	18.16
445.358	18.59
445.56	18.63
445.762	18.76
445.964	18.93
446.166	18.64
446.368	18.67
446.57	18.73
446.772	18.24
446.974	18.04
447.175	18.38
447.377	18.08
447.579	18.34
447.781	17.98
447.983	17.79
448.184	17.44
448.386	17.8
448.588	17.35
448.79	17.13
448.991	17.41
449.193	17.46
449.395	16.66
449.597	16.39
449.798	16.22
450	15.83
450.202	15.72
450.403	15.73
450.605	15.72
450.806	15.23
451.008	15.1
451.21	14.91
451.411	14.43
451.613	13.66
451.814	13.93
452.016	13.84
452.217	13.14
452.419	13.32
452.62	12.75
452.821	12.56
453.023	12.51
453.224	12.11
453.426	11.71
453.627	11.02
453.828	11.22
454.03	11.29
454.231	11.09
454.432	10.98
454.634	10.76
454.835	10.45
455.036	10.36
455.238	9.92
455.439	9.7
455.64	9.35
455.841	9.31
456.042	9.48
456.244	9.13
456.445	8.83
456.646	8.45
456.847	8.45
457.048	8.35
457.249	8.42
457.45	8.18
457.651	7.62
457.852	7.49
458.054	7.24
458.255	7.08
458.456	7.18
458.657	7.12
458.858	6.59
459.058	6.6
459.259	6.65
459.46	6.3
459.661	6.42
459.862	6.38
460.063	6.31
460.264	6.27
460.465	5.9
460.666	6.02
460.866	5.67
461.067	5.44
461.268	5.43
461.469	5.32
461.67	5.27
461.87	5.16
462.071	5.1
462.272	5.03
462.473	4.98
462.673	5.21
462.874	5.07
463.075	5.07
463.275	4.99
463.476	5.1
463.676	5.03
463.877	4.87
464.078	4.82
464.278	4.9
464.479	4.81
464.679	4.68
464.88	4.66
465.08	4.64
465.281	4.52
465.481	4.2
465.682	4.05
465.882	4.11
466.083	4.06
466.283	3.94
466.483	3.9
466.684	3.66
466.884	3.54
467.085	3.62
467.285	3.8
467.485	3.56
467.686	3.54
467.886	3.35
468.086	3.4
468.286	3.25
468.487	3.4
468.687	3.19
468.887	3.15
469.087	3.28
469.287	3.17
469.488	3.02
469.688	3.13
469.888	3.21
470.088	3.1
470.288	3.02
470.488	3.02
470.688	2.79
470.888	2.8
471.088	2.63
471.288	2.83
471.488	2.72
471.688	2.73
471.888	2.64
472.088	2.86
472.288	2.63
472.488	2.57
472.688	2.59
472.888	2.57
473.088	2.56
473.288	2.46
473.488	2.43
473.688	2.6
473.887	2.47
474.087	2.38
474.287	2.4
474.487	2.3
474.687	2.42
474.886	2.36
475.086	2.29
475.286	2.31
475.486	2.22
475.685	2.23
475.885	2.22
476.085	2.32
476.284	2.29
476.484	2.24
476.684	2.21
476.883	2.28
477.083	2.15
477.282	2.1
477.482	2.17
477.681	2.15
477.881	2.08
478.08	2.08
478.28	2.02
478.479	2.12
478.679	2.21
478.878	2.01
479.078	2
479.277	2.05
479.477	2.06
479.676	2.04
479.875	1.99
480.075	1.9
480.274	2
480.473	2.04
480.673	2.04
480.872	2.06
481.071	2.01
481.271	2.01
481.47	1.96
481.669	1.94
481.868	1.99
482.067	1.95
482.267	1.89
482.466	1.92
482.665	1.96
482.864	1.91
483.063	1.93
483.262	2.02
483.461	2.08
483.661	2.06
483.86	1.98
484.059	2.04
484.258	2.05
484.457	2.02
484.656	2.02
484.855	2.08
485.054	1.94
485.253	1.97
485.452	1.96
485.651	2.06
485.849	2
486.048	1.98
486.247	2.06
486.446	2.13
486.645	2.03
486.844	2.04
487.043	2.02
487.241	2.11
487.44	2.03
487.639	2.16
487.838	2.12
488.037	2.09
488.235	2.27
488.434	2.18
488.633	2.05
488.831	2.21
489.03	2.22
489.229	2.25
489.427	2.19
489.626	2.28
489.825	2.26
490.023	2.36
490.222	2.29
490.42	2.29
490.619	2.38
490.817	2.38
491.016	2.34
491.214	2.44
491.413	2.42
491.611	2.35
491.81	2.38
492.008	2.42
492.207	2.59
492.405	2.53
492.604	2.45
492.802	2.56
493	2.6
493.199	2.63
493.397	2.64
493.595	2.7
493.794	2.66
493.992	2.78
494.19	2.72
494.388	2.81
494.587	2.75
494.785	2.78
494.983	2.7
495.181	2.88
495.379	2.95
495.578	3.02
495.776	2.97
495.974	2.93
496.172	2.98
496.37	3.09
496.568	3.13
496.766	3.08
496.964	3.19
497.162	3.18
497.36	3.18
497.558	3.21
497.756	3.34
497.954	3.28
498.152	3.42
498.35	3.45
498.548	3.37
498.746	3.44
498.944	3.45
499.142	3.44
499.34	3.52
499.538	3.63
499.736	3.54
499.933	3.63
500.131	3.68
500.329	3.79
500.527	3.79
500.725	3.88
500.922	3.85
501.12	3.91
501.318	3.94
501.516	3.92
501.713	4.05
501.911	4
502.109	3.95
502.306	4.12
502.504	3.98
502.701	4.13
502.899	4.13
503.097	4.38
503.294	4.21
503.492	4.4
503.689	4.42
503.887	4.36
504.084	4.49
504.282	4.45
504.479	4.46
504.677	4.55
504.874	4.58
505.072	4.47
505.269	4.67
505.466	4.67
505.664	4.74
505.861	4.67
506.059	4.78
506.256	4.83
506.453	4.86
506.651	4.98
506.848	5
507.045	4.97
507.242	4.98
507.44	4.98
507.637	5.08
507.834	5.05
508.031	5.24
508.229	5.12
508.426	5.1
508.623	5.27
508.82	5.32
509.017	5.28
509.214	5.31
509.411	5.42
509.608	5.38
509.805	5.47
510.003	5.48
510.2	5.49
510.397	5.7
510.594	5.6
510.791	5.65
510.988	5.66
511.184	5.62
511.381	5.57
511.578	5.68
511.775	5.88
511.972	5.75
512.169	5.88
512.366	5.83
512.563	5.95
512.76	5.98
512.956	6.05
513.153	5.92
513.35	5.86
513.547	5.91
513.744	6.08
513.94	6.05
514.137	6.18
514.334	6.15
514.53	6.21
514.727	6.4
514.924	6.34
515.12	6.24
515.317	6.32
515.514	6.27
515.71	6.25
515.907	6.42
516.103	6.49
516.3	6.35
516.497	6.47
516.693	6.56
516.89	6.53
517.086	6.56
517.283	6.6
517.479	6.42
517.676	6.66
517.872	6.65
518.068	6.68
518.265	6.62
518.461	6.63
518.658	6.76
518.854	6.78
519.05	6.84
519.247	6.81
519.443	6.78
519.639	6.89
519.836	6.81
520.032	6.8
520.228	6.9
520.424	6.94
520.621	7.03
520.817	6.97
521.013	6.89
521.209	7.08
521.405	7.09
521.601	7
521.798	7.03
521.994	7.12
522.19	6.96
522.386	7.02
522.582	7.14
522.778	7.3
522.974	7.13
523.17	7.16
523.366	7.15
523.562	7.25
523.758	7.24
523.954	7.07
524.15	7.26
524.346	7.31
524.542	7.34
524.738	7.25
524.934	7.44
525.129	7.38
525.325	7.29
525.521	7.26
525.717	7.46
525.913	7.38
526.109	7.39
526.304	7.51
526.5	7.49
526.696	7.51
526.892	7.4
527.087	7.62
527.283	7.52
527.479	7.54
527.674	7.34
527.87	7.61
528.066	7.54
528.261	7.58
528.457	7.45
528.653	7.62
528.848	7.62
529.044	7.72
529.239	7.53
529.435	7.57
529.63	7.52
529.826	7.57
530.021	7.61
530.217	7.71
530.412	7.62
530.608	7.62
530.803	7.67
530.999	7.53
531.194	7.71
531.389	7.73
531.585	7.74
531.78	7.84
531.975	7.75
532.171	7.84
532.366	7.74
532.561	7.79
532.757	7.76
532.952	7.95
533.147	7.65
533.342	7.76
533.538	7.7
533.733	7.93
533.928	7.68
534.123	7.81
534.318	7.85
534.513	7.75
534.709	7.93
534.904	7.89
535.099	7.96
535.294	7.93
535.489	7.98
535.684	7.83
535.879	7.87
536.074	7.96
536.269	7.91
536.464	7.98
536.659	7.92
536.854	7.86
537.049	8
537.244	7.96
537.439	7.94
537.634	7.98
537.828	8.04
538.023	7.97
538.218	7.97
538.413	7.86
538.608	7.98
538.803	7.89
538.997	7.9
539.192	8
539.387	7.93
539.582	7.96
539.776	7.87
539.971	8.04
540.166	8.02
540.36	7.95
540.555	8.1
540.75	8.02
540.944	8.03
541.139	8.07
541.334	7.97
541.528	8.05
541.723	8.12
541.917	8.04
542.112	7.92
542.306	7.92
542.501	8.01
542.695	7.99
542.89	8.06
543.084	8.03
543.279	8.01
543.473	8.12
543.668	8.11
543.862	7.95
544.056	7.95
544.251	8.09
544.445	8.14
544.64	8.22
544.834	7.86
545.028	7.77
545.222	8.07
545.417	8.24
545.611	8.15
545.805	8.06
546	7.9
546.194	8.1
546.388	8.04
546.582	8.05
546.776	8.03
546.97	8.09
547.165	8.09
547.359	8.08
547.553	7.99
547.747	8.08
547.941	8.24
548.135	8.06
548.329	8.14
548.523	8.07
548.717	8.05
548.911	8
549.105	8.03
549.299	8.2
549.493	8.12
549.687	8.06
549.881	8.22
550.075	8.11
550.269	7.95
550.463	8.17
550.657	8.13
550.85	8.08
551.044	8.05
551.238	8.17
551.432	8.09
551.626	8.14
551.82	8.22
552.013	8.01
552.207	8.2
552.401	8.22
552.594	8.17
552.788	8.04
552.982	8.02
553.176	8.02
553.369	8.19
553.563	8.16
553.756	8.07
553.95	8.17
554.144	8.15
554.337	8.25
554.531	7.98
554.724	8.12
554.918	8.22
555.111	8.15
555.305	8.17
555.498	8.09
555.692	8.23
555.885	8.16
556.079	8.07
556.272	8.13
556.466	8.1
556.659	8.12
556.852	8.21
557.046	8.07
557.239	7.99
557.432	8.04
557.626	8.2
557.819	8.21
558.012	8.18
558.206	8.21
558.399	8.15
558.592	8.16
558.785	8.04
558.979	8.1
559.172	8.14
559.365	8.11
559.558	8.09
559.751	8.03
559.944	8.22
560.138	8.06
560.331	8.16
560.524	8.24
560.717	8.08
560.91	8.14
561.103	8.18
561.296	7.97
561.489	8.17
561.682	8.22
561.875	8.16
562.068	8.2
562.261	8.04
562.454	8.27
562.647	8.07
562.84	8.16
563.032	8.15
563.225	8.1
563.418	8.15
563.611	8.16
563.804	8.13
563.997	8.02
564.19	7.94
564.382	8.2
564.575	8.08
564.768	8.05
564.961	8.22
565.153	8.06
565.346	8.03
565.539	8.17
565.731	8.09
565.924	8.13
566.117	8.24
566.309	8.16
566.502	8.1
566.695	8.05
566.887	8.15
567.08	8.12
567.272	8.12
567.465	7.99
567.657	8.19
567.85	8.04
568.042	8.08
568.235	8.17
568.427	7.96
568.62	8.08
568.812	8.07
569.005	8.1
569.197	8.04
569.389	8.04
569.582	8.06
569.774	8.06
569.966	8.03
570.159	8
570.351	7.99
570.543	8.01
570.736	8.03
570.928	7.91
571.12	8.1
571.312	7.97
571.505	7.75
571.697	8.07
571.889	8.05
572.081	8.06
572.273	7.94
572.465	7.99
572.658	8.08
572.85	7.99
573.042	8.07
573.234	7.94
573.426	7.98
573.618	7.96
573.81	8.05
574.002	8
574.194	8.05
574.386	7.9
574.578	7.85
574.77	7.91
574.962	8.03
575.154	7.81
575.346	7.9
575.538	7.83
575.729	7.82
575.921	7.92
576.113	8
576.305	7.95
576.497	8
576.689	7.82
576.88	7.8
577.072	7.97
577.264	7.96
577.456	7.88
577.647	7.89
577.839	8.02
578.031	7.85
578.223	7.86
578.414	7.75
578.606	7.94
578.798	7.96
578.989	7.89
579.181	7.95
579.372	7.85
579.564	7.85
579.755	7.82
579.947	7.78
580.139	7.86
580.33	7.72
580.522	7.79
580.713	7.71
580.905	7.76
581.096	7.88
581.287	7.73
581.479	7.73
581.67	7.88
581.862	7.73
582.053	7.73
582.244	7.66
582.436	7.85
582.627	7.65
582.818	7.68
583.01	7.67
583.201	7.73
583.392	7.69
583.583	7.6
583.775	7.52
583.966	7.63
584.157	7.67
584.348	7.79
584.54	7.56
584.731	7.7
584.922	7.59
585.113	7.46
585.304	7.59
585.495	7.66
585.686	7.63
585.877	7.56
586.068	7.67
586.259	7.57
586.45	7.59
586.641	7.56
586.832	7.63
587.023	7.46
587.214	7.49
587.405	7.63
587.596	7.36
587.787	7.4
587.978	7.45
588.169	7.44
588.36	7.36
588.551	7.48
588.742	7.46
588.932	7.48
589.123	7.26
589.314	7.53
589.505	7.32
589.696	7.49
589.886	7.37
590.077	7.37
590.268	7.3
590.458	7.26
590.649	7.23
590.84	7.4
591.03	7.26
591.221	7.33
591.412	7.21
591.602	7.39
591.793	7.3
591.984	7.26
592.174	7.23
592.365	7.38
592.555	7.09
592.746	7.13
592.936	7.23
593.127	7.2
593.317	7.25
593.508	7.21
593.698	7.14
593.889	7.16
594.079	7.1
594.269	7
594.46	7.04
594.65	7.12
594.84	7.09
595.031	6.99
595.221	7.06
595.411	7
595.602	7.01
595.792	6.88
595.982	6.88
596.172	7.15
596.363	6.99
596.553	6.94
596.743	6.98
596.933	7.01
597.123	6.91
597.314	6.76
597.504	6.75
597.694	6.92
597.884	6.78
598.074	6.92
598.264	6.75
598.454	6.85
598.644	6.85
598.834	6.79
599.024	6.72
599.214	6.74
599.404	6.8
599.594	6.71
599.784	6.64
599.974	6.8
600.164	6.69
600.354	6.6
600.544	6.59
600.734	6.69
600.924	6.66
601.114	6.53
601.303	6.54
601.493	6.55
601.683	6.59
601.873	6.56
602.063	6.55
602.252	6.55
602.442	6.44
602.632	6.45
602.821	6.39
603.011	6.55
603.201	6.52
603.39	6.43
603.58	6.27
603.77	6.47
603.959	6.53
604.149	6.38
604.339	6.37
604.528	6.48
604.718	6.38
604.907	6.3
605.097	6.27
605.286	6.26
605.476	6.28
605.665	6.31
605.855	6.29
606.044	6.33
606.234	6.27
606.423	6.22
606.612	6.22
606.802	6.18
606.991	6.24
607.181	6.16
607.37	6.21
607.559	5.93
607.749	6.11
607.938	6.06
608.127	6.03
608.316	6.12
608.506	6.01
608.695	6.11
608.884	5.98
609.073	5.99
609.263	6.11
609.452	6.06
609.641	5.9
609.83	5.82
610.019	5.94
610.208	5.83
610.397	5.86
610.586	5.91
610.775	5.81
610.965	5.85
611.154	5.7
611.343	5.84
611.532	5.74
611.721	5.79
611.91	5.73
612.099	5.74
612.287	5.72
612.476	5.54
612.665	5.76
612.854	5.62
613.043	5.67
613.232	5.64
613.421	5.6
613.61	5.64
613.798	5.61
613.987	5.59
614.176	5.52
614.365	5.56
614.554	5.55
614.742	5.58
614.931	5.34
615.12	5.63
615.309	5.46
615.497	5.36
615.686	5.31
615.875	5.42
616.063	5.35
616.252	5.37
616.44	5.4
616.629	5.35
616.818	5.36
617.006	5.32
617.195	5.27
617.383	5.24
617.572	5.19
617.76	5.21
617.949	5.2
618.137	5.3
618.326	5.24
618.514	5.03
618.703	5.04
618.891	5.25
619.079	5.03
619.268	5.18
619.456	4.97
619.644	5.18
619.833	5.11
620.021	5
620.209	4.89
620.398	5.08
620.586	4.95
620.774	4.99
620.962	4.96
621.151	5.04
621.339	4.9
621.527	4.88
621.715	4.83
621.903	4.9
622.092	4.83
622.28	4.96
622.468	4.7
622.656	4.82
622.844	4.81
623.032	4.82
623.22	4.71
623.408	4.83
623.596	4.78
623.784	4.8
623.972	4.64
624.16	4.69
624.348	4.76
624.536	4.75
624.724	4.55
624.912	4.67
625.1	4.64
625.288	4.67
625.476	4.51
625.664	4.6
625.851	4.46
626.039	4.58
626.227	4.47
626.415	4.62
626.603	4.4
626.79	4.52
626.978	4.5
627.166	4.5
627.354	4.37
627.541	4.43
627.729	4.25
627.917	4.5
628.104	4.44
628.292	4.34
628.48	4.35
628.667	4.3
628.855	4.42
629.042	4.37
629.23	4.23
629.418	4.27
629.605	4.26
629.793	4.18
629.98	4.19
630.168	4.19
630.355	4.23
630.543	4.17
630.73	4.11
630.917	4.12
631.105	4.26
631.292	4.1
631.48	4.05
631.667	4.24
631.854	4.01
632.042	4.07
632.229	3.99
632.416	4.05
632.604	4.01
632.791	3.9
632.978	4.02
633.165	3.99
633.353	4.04
633.54	3.99
633.727	3.84
633.914	3.84
634.101	3.86
634.289	3.98
634.476	3.79
634.663	3.75
634.85	3.85
635.037	3.78
635.224	3.68
635.411	3.86
635.598	3.75
635.785	3.76
635.972	3.72
636.159	3.76
636.346	3.7
636.533	3.64
636.72	3.63
636.907	3.62
637.094	3.66
637.281	3.49
637.468	3.61
637.655	3.62
637.842	3.59
638.029	3.56
638.215	3.61
638.402	3.58
638.589	3.43
638.776	3.49
638.963	3.44
639.149	3.54
639.336	3.55
639.523	3.46
639.709	3.42
639.896	3.42
640.083	3.43
640.27	3.41
640.456	3.34
640.643	3.39
640.829	3.25
641.016	3.32
641.203	3.24
641.389	3.36
641.576	3.27
641.762	3.27
641.949	3.23
642.135	3.27
642.322	3.19
642.508	3.12
642.695	3.22
642.881	3.17
643.068	3.12
643.254	3.15
643.441	3.19
643.627	3.2
643.813	3.05
644	3.2
644.186	3.06
644.372	3.09
644.559	3.16
644.745	3.06
644.931	2.97
645.118	3.07
645.304	3.05
645.49	3.01
645.676	2.96
645.862	3
646.049	3.04
646.235	2.94
646.421	3.09
646.607	3
646.793	2.93
646.979	2.87
647.165	2.9
647.352	2.91
647.538	2.95
647.724	2.82
647.91	2.79
648.096	2.87
648.282	2.83
648.468	2.84
648.654	2.83
648.84	2.87
649.026	2.82
649.212	2.75
649.397	2.67
649.583	2.71
649.769	2.79
649.955	2.71
650.141	2.67
650.327	2.72
650.513	2.67
650.698	2.62
650.884	2.6
651.07	2.67
651.256	2.69
651.442	2.64
651.627	2.52
651.813	2.62
651.999	2.58
652.184	2.61
652.37	2.57
652.556	2.52
652.741	2.63
652.927	2.41
653.113	2.48
653.298	2.5
653.484	2.51
653.669	2.43
653.855	2.46
654.04	2.52
654.226	2.45
654.412	2.45
654.597	2.38
654.782	2.46
654.968	2.44
655.153	2.4
655.339	2.37
655.524	2.32
655.71	2.39
655.895	2.34
656.08	2.33
656.266	2.42
656.451	2.33
656.636	2.26
656.822	2.3
657.007	2.32
657.192	2.24
657.378	2.26
657.563	2.21
657.748	2.27
657.933	2.28
658.118	2.2
658.304	2.17
658.489	2.28
658.674	2.25
658.859	2.22
659.044	2.16
659.229	2.24
659.414	2.15
659.599	2.18
659.785	2.1
659.97	2.16
660.155	2.16
660.34	2.14
660.525	2.08
660.71	2.05
660.895	2.12
661.08	2.1
661.264	2.04
661.449	2.15
661.634	2.11
661.819	2.07
662.004	2.01
662.189	1.98
662.374	1.98
662.559	1.92
662.743	1.92
662.928	1.96
663.113	1.92
663.298	1.93
663.483	1.96
663.667	1.98
663.852	1.86
664.037	2.01
664.221	1.89
664.406	1.96
664.591	1.97
664.775	1.93
664.96	1.91
665.145	1.89
665.329	1.94
665.514	1.85
665.698	1.81
665.883	1.79
666.068	1.91
666.252	1.8
666.437	1.81
666.621	1.81
666.806	1.88
666.99	1.83
667.174	1.75
667.359	1.86
667.543	1.77
667.728	1.76
667.912	1.69
668.096	1.76
668.281	1.72
668.465	1.75
668.649	1.7
668.834	1.75
669.018	1.72
669.202	1.73
669.387	1.67
669.571	1.73
669.755	1.65
669.939	1.62
670.124	1.66
670.308	1.74
670.492	1.68
670.676	1.68
670.86	1.57
671.044	1.62
671.228	1.7
671.413	1.56
671.597	1.58
671.781	1.55
671.965	1.67
672.149	1.6
672.333	1.56
672.517	1.57
672.701	1.52
672.885	1.57
673.069	1.45
673.253	1.64
673.437	1.54
673.621	1.51
673.804	1.56
673.988	1.58
674.172	1.58
674.356	1.42
674.54	1.49
674.724	1.6
674.908	1.5
675.091	1.53
675.275	1.45
675.459	1.55
675.643	1.46
675.826	1.47
676.01	1.43
676.194	1.46
676.377	1.48
676.561	1.52
676.745	1.4
676.928	1.47
677.112	1.5
677.296	1.42
677.479	1.39
677.663	1.41
677.846	1.48
678.03	1.44
678.213	1.28
678.397	1.42
678.58	1.38
678.764	1.42
678.947	1.3
679.131	1.36
679.314	1.41
679.498	1.34
679.681	1.34
679.865	1.39
680.048	1.3
680.231	1.35
680.415	1.29
680.598	1.32
680.781	1.28
680.965	1.27
681.148	1.27
681.331	1.25
681.514	1.38
681.698	1.22
681.881	1.28
682.064	1.34
682.247	1.25
682.43	1.16
682.614	1.24
682.797	1.29
682.98	1.3
683.163	1.17
683.346	1.25
683.529	1.18
683.712	1.14
683.895	1.28
684.078	1.11
684.261	1.14
684.444	1.25
684.627	1.27
684.81	1.2
684.993	1.14
685.176	1.18
685.359	1.14
685.542	1.12
685.725	1.27
685.908	1.17
686.091	1.1
686.274	1.21
686.457	1.24
686.639	1.11
686.822	1.18
687.005	1.16
687.188	1.18
687.371	1.27
687.553	1.1
687.736	1.19
687.919	1.23
688.102	1.28
688.284	1.08
688.467	1.13
688.65	1.17
688.832	1.08
689.015	1.05
689.197	1.01
689.38	1.22
689.563	1.17
689.745	0.97
689.928	0.97
690.11	1.03
690.293	1.02
690.475	0.98
690.658	1.01
690.84	1.08
691.023	1.04
691.205	1
691.388	1.04
691.57	1.07
691.752	1.08
691.935	0.93
692.117	0.95
692.3	1.05
692.482	0.99
692.664	0.98
692.847	0.98
693.029	1.1
693.211	1.03
693.393	0.89
693.576	0.96
693.758	0.98
693.94	0.94
694.122	0.96
694.304	0.88
694.487	0.86
694.669	1.05
694.851	0.87
695.033	0.84
695.215	0.91
695.397	0.86
695.579	0.88
695.761	0.87
695.943	0.83
696.125	1.04
696.308	0.9
696.49	0.85
696.671	1.06
696.853	0.92
697.035	1.13
697.217	0.89
697.399	0.99
697.581	0.83
697.763	0.84
697.945	0.81
698.127	0.89
698.309	0.96
698.491	0.88
698.672	0.86
698.854	0.89
699.036	0.98
699.218	0.85
699.399	0.92
699.581	0.87
699.763	0.83
699.945	0.74
700.126	0.73
700.308	0.82
700.49	0.79
700.671	0.7
700.853	0.74
701.035	0.82
701.216	0.82
701.398	0.77
701.579	0.77
701.761	0.89
701.943	0.85
702.124	0.74
702.306	0.79
702.487	0.95
702.669	0.79
702.85	0.69
703.031	0.66
703.213	0.87
703.394	0.88
703.576	0.77
703.757	0.9
703.938	0.88
704.12	0.99
704.301	0.76
704.483	0.7
704.664	0.71
704.845	0.86
705.026	0.82
705.208	0.74
705.389	0.84
705.57	0.79
705.751	0.8
705.933	0.76
706.114	0.83
706.295	0.76
706.476	0.67
706.657	0.82
706.838	0.82
707.02	0.87
707.201	0.66
707.382	0.67
707.563	0.78
707.744	0.67
707.925	0.64
708.106	0.67
708.287	0.68
708.468	0.88
708.649	0.78
708.83	0.75
709.011	0.69
709.192	0.75
709.373	0.57
709.554	0.67
709.734	0.78
709.915	0.83
710.096	0.74
710.277	0.56
710.458	0.72
710.639	0.73
710.819	0.57
711	0.64
711.181	0.78
711.362	0.8
711.542	0.69
711.723	0.62
711.904	0.81
712.085	0.7
712.265	0.66
712.446	0.56
712.627	0.64
712.807	0.67
712.988	0.66
713.168	0.5
713.349	0.77
713.53	0.48
713.71	0.57
713.891	0.52
714.071	0.6
714.252	0.67
714.432	0.58
714.613	0.49
714.793	0.62
714.974	0.74
715.154	0.72
715.334	0.73
715.515	0.69
715.695	0.51
715.876	0.58
716.056	0.54
716.236	0.55
716.417	0.54
716.597	0.55
716.777	0.82
716.957	0.6
717.138	0.61
717.318	0.54
717.498	0.51
717.678	0.61
717.859	0.63
718.039	0.49
718.219	0.58
718.399	0.6
718.579	0.57
718.759	0.5
718.939	0.56
719.12	0.59
719.3	0.57
719.48	0.44
719.66	0.44
719.84	0.68
720.02	0.62
720.2	0.5
720.38	0.5
720.56	0.76
720.74	0.52
720.92	0.59
721.1	0.75
721.279	0.71
721.459	0.6
721.639	0.52
721.819	0.53
721.999	0.57
722.179	0.65
722.359	0.46
722.538	0.55
722.718	0.58
722.898	0.55
723.078	0.55
723.257	0.47
723.437	0.62
723.617	0.62
723.797	0.48
723.976	0.43
724.156	0.66
724.336	0.71
724.515	0.78
724.695	0.47
724.874	0.51
725.054	0.63
725.234	0.46
725.413	0.52
725.593	0.42
725.772	0.57
725.952	0.46
726.131	0.48
726.311	0.49
726.49	0.57
726.67	0.46
726.849	0.52
727.028	0.58
727.208	0.56
727.387	0.52
727.567	0.38
727.746	0.48
727.925	0.45
728.105	0.35
728.284	0.48
728.463	0.46
728.643	0.55
728.822	0.37
729.001	0.42
729.18	0.49
729.359	0.62
729.539	0.51
729.718	0.49
729.897	0.71
730.076	0.56
730.255	0.38
730.434	0.5
730.614	0.55
730.793	0.69
730.972	0.44
731.151	0.48
731.33	0.64
731.509	0.59
731.688	0.45
731.867	0.49
732.046	0.34
732.225	0.76
732.404	0.39
732.583	0.4
732.762	0.48
732.941	0.62
733.12	0.58
733.298	0.43
733.477	0.66
733.656	0.48
733.835	0.45
734.014	0.47
734.193	0.57
734.371	0.61
734.55	0.63
734.729	0.38
734.908	0.61
735.086	0.55
735.265	0.56
735.444	0.28
735.623	0.31
735.801	0.4
735.98	0.48
736.159	0.43
736.337	0.57
736.516	0.54
736.694	0.48
736.873	0.44
737.052	0.77
737.23	0.64
737.409	0.33
737.587	0.79
737.766	0.37
737.944	0.53
738.123	0.53
738.301	0.59
738.479	0.51
738.658	0.51
738.836	0.28
739.015	0.51
739.193	0.68
739.371	0.42
739.55	0.46
739.728	0.41
739.906	0.72
740.085	0.76
740.263	0.56
740.441	0.27
740.62	0.67
740.798	0.64
740.976	0.44
741.154	0.32
741.332	0.76
741.511	0.53
741.689	0.64
741.867	0.58
742.045	0.58
742.223	0.52
742.401	0.4
742.579	0.42
742.757	0.61
742.935	0.31
743.114	0.47
743.292	0.49
743.47	0.49
743.648	0.55
743.826	0.27
744.004	0.55
744.181	0.59
744.359	0.4
744.537	0.52
744.715	0.5
744.893	0.4
745.071	0.59
745.249	0.41
745.427	0.42
745.605	0.55
745.782	0.45
745.96	0.52
746.138	0.56
746.316	0.61
746.493	0.51
746.671	0.48
746.849	0.42
747.027	0.67
747.204	0.35
747.382	0.5
747.56	0.28
747.737	0.44
747.915	0.34
748.093	0.43
748.27	0.26
748.448	0.46
748.625	0.25
748.803	0.31
748.98	0.3
749.158	0.48
749.335	0.51
749.513	0.35
749.69	0.4
749.868	0.36
750.045	0.49
750.223	0.38
750.4	0.21
750.578	0.63
750.755	0.44
750.932	0.19
751.11	0.55
751.287	0.38
751.464	0.72
751.642	0.33
751.819	0.44
751.996	0.5
752.173	0.31
752.351	0.25
752.528	0.35
752.705	0.42
752.882	0.36
753.06	0.47
753.237	0.36
753.414	0.64
753.591	0.66
753.768	0.43
753.945	0.32
754.122	0.46
754.299	0.41
754.476	0.29
754.654	0.51
754.831	0.57
755.008	0.55
755.185	0.3
755.362	0.27
755.539	0.46
755.716	0.34
755.892	0.33
756.069	0.38
756.246	0.37
756.423	0.41
756.6	0.56
756.777	0.33
756.954	0.61
757.131	0.43
757.307	0.35
757.484	0.24
757.661	0.37
757.838	0.41
758.015	0.13
758.191	0.45
758.368	0.47
758.545	0.58
758.721	0.41
758.898	0.19
759.075	0.47
759.251	0.56
759.428	0.46
759.605	0.23
759.781	0.34
759.958	0.45
760.134	0.46
760.311	0.29
760.488	0.53
760.664	0.48
760.841	0.42
761.017	0.24
761.194	0.44
761.37	0.69
761.547	0.38
761.723	0.2
761.899	0.58
762.076	0.23
762.252	0.25
762.429	0.31
762.605	0.57
762.781	0.31
762.958	0.42
763.134	0.21
763.31	0.25
763.486	0.57
763.663	0.07
763.839	0.41
764.015	0.17
764.191	0.39
764.368	0.39
764.544	0.22
764.72	0.42
764.896	0.48
765.072	0.4
765.248	0.29
765.425	0.41
765.601	0.44
765.777	0.35
765.953	0.16
766.129	0.33
766.305	0.21
766.481	0.57
766.657	0.44
766.833	0.62
767.009	0.25
767.185	0.41
767.361	0.35
767.537	0.24
767.713	0.69
767.889	0.19
768.065	0.42
768.24	0.13
768.416	0.55
768.592	0.27
768.768	0.31
768.944	0.58
769.12	0.36
769.295	0.32
769.471	0.34
769.647	0.33
769.823	0.68
769.998	0.28
770.174	0.27
770.35	0.77
770.525	0.63
770.701	0.56
770.877	0.37
771.052	0.17
771.228	0.59
771.403	0.58
771.579	0.45
771.755	0.74
771.93	0.42
772.106	0.34
772.281	0.06
772.457	0.52
772.632	0.57
772.808	0.19
772.983	0.31
773.159	0.12
773.334	0.65
773.509	0.42
773.685	0.28
773.86	1
774.036	0.7
774.211	0.38
774.386	0.53
774.562	0.31
774.737	0.65
774.912	0.35
775.087	0.49
775.263	0.3
775.438	0.39
775.613	0.3
775.788	0.33
775.964	0.74
776.139	1.04
776.314	0.21
776.489	0.48
776.664	0.37
776.839	0.2
777.014	0.55
777.19	0.67
777.365	0.77
777.54	0.75
777.715	0.28
777.89	0.37
778.065	0.25
778.24	0.39
778.415	0.51
778.59	0.28
778.765	0.38
778.94	0.64
779.115	0.42
779.289	0.38
779.464	0.48
779.639	0.31
779.814	0.25
779.989	0.26
780.164	0.71
780.339	0.44
780.513	0.29
780.688	0.06
780.863	0.54
781.038	0.79
781.212	0.37
781.387	0.38
781.562	0.81
781.737	0.3
781.911	0.8
782.086	0.19
782.261	0.45
782.435	0.8
782.61	0.41
782.784	0.42
782.959	0.74
783.134	0.26
783.308	0.19
783.483	0.3
783.657	0.89
783.832	0.62
784.006	0.19
784.181	0.49
784.355	0.67
784.53	0.39
784.704	0.37
784.878	0.7
785.053	0.5
785.227	0.54
785.402	0.86
785.576	0.29
785.75	0.6
785.925	0.24
786.099	0.42
786.273	0.47
786.448	0.65
786.622	0.56
786.796	0.48
786.97	0.4
787.145	1.08
787.319	0.25
787.493	0.4
787.667	0.17
787.841	0.62
788.015	0.97
788.19	0.33
788.364	0.35
788.538	0.81
788.712	0.78
788.886	0.37
789.06	0.56
789.234	0.68
789.408	0.18
789.582	0.23
789.756	0.52
789.93	0.39
790.104	0.46
790.278	0.27
790.452	0.3
790.626	0.62
790.8	0.3
790.973	0.79
791.147	0.65
791.321	0.9
791.495	0.89
791.669	0.45
791.843	0.43
792.016	0.5
792.19	1.01
792.364	0.21
792.538	1.04
792.711	0.82
792.885	0.45
793.059	0.01
793.233	0.01
793.406	0.84
793.58	0.77
793.754	0.71
793.927	0.36
794.101	0.8
794.274	0.65
794.448	0.77
794.622	0.14
794.795	0.93
794.969	0.35
795.142	0.72
795.316	0.26
795.489	0.34
795.663	0.98
795.836	0.48
796.009	0.3
796.183	0.76
796.356	0.72
796.53	0.4
796.703	0.5
796.876	1.35
797.05	0.44
797.223	0.16
797.396	0.55
797.57	0.59
797.743	0.89
797.916	0.6
798.09	0.39
798.263	0.57
798.436	0.72
798.609	0.41
798.782	0.56
798.956	0.9
799.129	0.58
799.302	0.24
799.475	0.39
799.648	0.3
799.821	0.29
799.994	0.54
800.167	0.17
800.34	0.51
800.514	0.49
800.687	0.33
800.86	0.26
801.033	0.88
801.206	0.85
801.379	0.19
801.551	0.74
801.724	0.93
801.897	1.17
802.07	0.37
802.243	0.08
802.416	0.43
802.589	0.36
802.762	0.77
802.935	0.44
803.107	1.24
803.28	1.14
803.453	0.68
803.626	0.63
803.798	0.83
803.971	0.38
804.144	0.5
804.317	0.74
804.489	1.04
804.662	0.84
804.835	0.63
805.007	0.49
805.18	1.41
805.353	0.84
805.525	0.21
805.698	0.59
805.87	1.11
806.043	0.92
806.215	0.18
806.388	0.29
806.56	0.87
806.733	1.07
806.905	0.6
807.078	0.36
807.25	0.63
807.423	1.05
807.595	0.66
807.768	0.64
807.94	0.75
808.112	1.04
808.285	0.85
808.457	0.39
808.629	0.49
808.802	0.83
808.974	0.7
809.146	0.26
809.318	0.35
809.491	0.8
809.663	0.63
809.835	0.34
810.007	0.94
810.18	0.62
810.352	-0.06
810.524	0.63
810.696	0.87
810.868	0.92
811.04	0.64
811.212	0.68
811.384	1.19
811.556	1.1
811.728	0.59
811.901	1.84
812.073	0.34
812.245	0.93
812.417	0.69
812.589	-0.13
812.76	0.5
812.932	1.07
813.104	0.99
813.276	0.64
813.448	1.07
813.62	0.69
813.792	0.5
813.964	0.66
814.136	0.93
814.307	0.41
814.479	0.78
814.651	0.66
814.823	1.83
814.995	0.49
815.166	0.93
815.338	0.16
815.51	-0.05
815.681	2.04
815.853	0.95
816.025	0.33
816.196	1.8
816.368	1.12
816.54	0.12
816.711	0.7
816.883	1.19
817.054	1.94
817.226	0.01
817.398	0.76
817.569	0.88
817.741	0.57
817.912	0.38
818.084	0.27
818.255	1.47
818.426	0.38
818.598	0.37
818.769	0.4
818.941	1.2
819.112	1.43
819.283	0.69
819.455	0.25
819.626	0.72
819.798	1
819.969	0.81
820.14	0.34
820.311	0.76
820.483	0.98
820.654	0.69
820.825	0.71
820.996	0.85
821.168	0.02
821.339	0.01
821.51	-0.04
821.681	0.6
821.852	1.14
822.023	0.11
822.195	-0.18
822.366	1.45
822.537	1.08
822.708	1.03
822.879	0.1
823.05	1.66
823.221	0.65
823.392	0.99
823.563	0.91
823.734	0.77
823.905	0.73
824.076	0.73
824.247	0.16
824.418	0.98
824.589	1.39
824.759	0.4
824.93	0.32
825.101	0.36
825.272	1.44
825.443	1.59
825.614	1.38
825.784	0.33
825.955	1.99
826.126	1.56
826.297	1.14
826.467	2.56
826.638	2.31
826.809	0.24
826.98	1.09
827.15	1.35
827.321	1
827.492	1.93
827.662	0.74
827.833	2.44
828.003	1.42
828.174	0.3
828.345	-0.16
828.515	2.22
828.686	1.34
828.856	1.12
829.027	0.65
829.197	1.7
829.368	1.26
829.538	0.42
829.709	0.5
829.879	1.73
830.049	1.41
830.22	0.45
830.39	0.1
830.56	1.45
830.731	0.55
830.901	0.19
831.072	0.68
831.242	1.54
831.412	1.71
831.582	0.51
831.753	-0.54
831.923	1.64
832.093	1.42
832.263	0.88
832.434	0.37
832.604	0.61
832.774	1.87
832.944	0.83
833.114	0.62
833.284	1.71
833.454	0.23
833.624	-0.09
833.795	0.5
833.965	1.43
834.135	2
834.305	-0.34
834.475	0.58
834.645	1.43
834.815	0.26
834.985	0.27
835.155	0.04
835.325	1.67
835.494	2.13
835.664	0.64
835.834	0.6
836.004	1.59
836.174	1.16
836.344	0.69
836.514	-0.01
836.684	0.7
836.853	1.46
837.023	1.91
837.193	0.87
837.363	2.39
837.532	1.3
837.702	0.65
837.872	1.22
838.041	1.92
838.211	2.83
838.381	-0.27
838.55	1.25
838.72	3.74
838.89	3.13
839.059	0.66
839.229	0.36
839.398	2.63
839.568	2.14
839.738	0.14
839.907	2.39
840.077	1.88
840.246	0.8
840.416	0.6
840.585	0.07
840.755	3.29
840.924	2.15
841.093	0.75
841.263	0.64
841.432	0.95
841.602	0.7
841.771	0.11
841.94	1.01
842.11	3.23
842.279	2.33
842.448	0.6
842.617	0.26
842.787	3.08
842.956	0.89
843.125	1.04
843.294	1.29
843.464	2.76
843.633	1.47
843.802	0.47
843.971	0.98
844.14	2.46
844.309	2.31
844.479	-0.47
844.648	-0.14
844.817	1.3
844.986	1.06
845.155	0.23
845.324	0.72
845.493	0.94
845.662	1.73
845.831	1.46
846	2.09
846.169	1.11
846.338	3.4
846.507	1.32
846.676	0.96
846.844	0.41
847.013	2.13
847.182	1.4
847.351	0.87
847.52	1.37
847.689	1.55
847.858	0.88
848.026	0.08
848.195	1.56
848.364	1.23
848.533	0.05
848.701	0.53
848.87	1.95
849.039	2.67
849.207	1.94
849.376	1.71
849.545	2.01
849.713	0.45
849.882	1.29
850.051	1.54
850.219	1.8
850.388	2.28
850.556	0.23
850.725	0.28
850.893	1.06
851.062	1.34
851.23	1.9
851.399	0.75
851.567	1.05
851.736	1.39
851.904	0.43
852.073	1.01
852.241	2.5
852.41	2.26
852.578	1.45
852.746	1.13
852.915	2.56
853.083	2.5
853.251	0.03
853.42	0.74
853.588	1.17
853.756	2.89
853.924	1.48
854.093	0.94
854.261	0.42
854.429	0.22
854.597	2.26
854.765	0.99
854.934	2.63
855.102	2.83
855.27	2.14
855.438	2.39
855.606	3.36
855.774	3.48
855.942	-0.1
856.11	-0.49
856.278	1.87
856.446	3.06
856.614	0.94
856.782	1.25
856.95	3.4
857.118	3.23
857.286	2.65
857.454	1.24
857.622	2.81
857.79	2.73
857.958	-0.53
858.126	0.82
858.294	-0.88
858.462	1.42
858.629	0.35
858.797	-0.44
858.965	2.36
859.133	2.74
859.301	0.77
859.468	1.64
859.636	1.68
859.804	5.09
859.971	2.73
860.139	-0.17
860.307	3.87
860.474	2.61
860.642	0.71
860.81	0.91
860.977	1.34
861.145	4.6
861.313	2.14
861.48	2.4
861.648	3.23
861.815	2.22
861.983	0.42
862.15	0.72
862.318	2.76
862.485	2.91
862.653	0.22
862.82	0.53
862.988	3.06
863.155	1.38
863.322	-0.16
863.49	0.39
863.657	1.72
863.824	5.13
863.992	2.33
864.159	2.7
864.326	4.63
864.494	0.83
864.661	3.9
864.828	0.04
864.996	4.16
865.163	3.46
865.33	1.43
865.497	-0.9
865.664	1.29
865.832	-1.17
865.999	1.46
866.166	0.95
866.333	1.64
866.5	1.71
866.667	0.74
866.834	0.56
867.001	3.89
867.168	-0.27
867.335	1.99
867.502	-0.98
867.669	2.68
867.836	6.02
868.003	1.79
868.17	2.74
868.337	1.56
868.504	7.06
868.671	-0.76
868.838	1.07
869.005	5.18
869.172	3.6
869.339	2.04
869.505	0.77
869.672	3.32
869.839	4.11
870.006	2.08
870.173	-0.14
870.339	3.57
870.506	6.22
870.673	0.89
870.84	3.5
871.006	2.44
871.173	2.74
871.34	1.73
871.506	-1.46
871.673	3.28
871.839	0.46
872.006	2.67
872.173	0.48
872.339	2.76
872.506	2.7
872.672	1.61
872.839	-1.36
873.005	4.21
873.172	4.12
873.338	3.17
873.505	1.54
873.671	3.03
873.838	3.53
874.004	-1.05
874.171	-0.87
874.337	5.86
874.503	4.01
874.67	1.67
874.836	-0.29
875.002	5.07
875.169	4.07
875.335	2.08
875.501	0.76
875.668	3.61
875.834	2.62
876	1.5
876.166	3.63
876.332	3.5
876.499	4.58
876.665	1.22
876.831	1.3
876.997	7.71
877.163	3.49
877.329	0.37
877.495	1.74
877.662	4.56
877.828	3.96
877.994	2.27
878.16	-1.29
878.326	3.31
878.492	2.48
878.658	3.91
878.824	2.08
878.99	2.51
879.156	2.67
879.322	4.22
879.487	-0.75
879.653	3.44
879.819	4.19
879.985	-0.22
880.151	3.71
880.317	3.31
880.483	3.34
880.648	3.66
880.814	-0.52
880.98	2.85
881.146	1.33
881.312	0.3
881.477	0.32
881.643	1.82
881.809	4.86
881.974	5.23
882.14	-0.3
882.306	1.96
882.471	7.05
882.637	0.49
882.803	2.12
882.968	4.99
883.134	5.46
883.299	1.16
883.465	2.13
883.63	4.16
883.796	4.59
883.961	4.43
884.127	3.94
884.292	-3.49
884.458	1.63
884.623	1.62
