Data from Apollo_Calib_20240827__AbsoluteIrradiance__760__11-49-02-228.txt Node

Date: Wed Aug 28 11:49:02 BST 2024
User: biology
Spectrometer: FLMT08252
Trigger mode: 0
Integration Time (sec): 5.000000E-1
Scans to average: 5
Electric dark correction enabled: true
Nonlinearity correction enabled: false
Boxcar width: 0
XAxis mode: Wavelengths
Number of Pixels in Spectrum: 3648
>>>>>Begin Spectral Data<<<<<
179.588	-0
179.809	-0
180.03	-0
180.251	-0
180.473	-0
180.694	0
180.915	0
181.136	-0
181.357	0
181.578	-0
181.799	-0
182.02	-0
182.241	-0
182.462	-0
182.683	0
182.904	0
183.125	-0
183.346	0
183.567	0
183.788	0
184.009	0
184.23	0
184.451	0
184.672	0
184.892	0
185.113	0
185.334	0
185.555	0
185.776	0
185.996	0
186.217	0
186.438	0
186.659	0
186.879	0
187.1	0
187.321	0
187.541	0
187.762	0
187.983	0
188.203	0
188.424	0
188.644	0
188.865	0
189.086	0
189.306	0
189.527	0
189.747	0
189.968	0
190.188	0
190.409	0
190.629	0
190.849	0
191.07	0
191.29	0
191.511	0
191.731	0
191.951	0
192.172	0
192.392	0
192.612	0
192.833	0
193.053	0
193.273	0
193.493	0
193.714	0
193.934	0
194.154	0
194.374	0
194.594	0
194.815	0
195.035	0
195.255	0
195.475	0
195.695	0
195.915	0
196.135	0
196.355	0
196.575	0
196.795	0
197.015	0
197.235	0
197.455	0
197.675	0
197.895	0
198.115	0
198.335	0
198.555	0
198.775	0
198.995	0
199.214	0
199.434	0
199.654	0
199.874	0
200.094	3.37
200.313	1.48
200.533	1.26
200.753	1.45
200.973	3.44
201.192	2.74
201.412	1.08
201.632	1.45
201.851	2.73
202.071	1.72
202.291	1.38
202.51	1.11
202.73	2.11
202.95	1.26
203.169	0.93
203.389	1.6
203.608	1.62
203.828	1.19
204.047	1.25
204.267	1.94
204.486	1.73
204.706	1.76
204.925	1.49
205.145	1.27
205.364	1.61
205.583	2.51
205.803	1.08
206.022	0.8
206.242	1.59
206.461	1.32
206.68	0.95
206.9	1.22
207.119	1.96
207.338	1.33
207.557	1.13
207.777	1.19
207.996	0.78
208.215	2.09
208.434	0.76
208.654	0.51
208.873	1.42
209.092	1.85
209.311	0.8
209.53	0.88
209.749	0.79
209.968	1.04
210.187	1.06
210.407	0.61
210.626	0.93
210.845	1.11
211.064	0.93
211.283	0.65
211.502	1.24
211.721	0.97
211.94	0.85
212.159	1.18
212.377	1.34
212.596	1.32
212.815	0.94
213.034	1.1
213.253	1.14
213.472	1.25
213.691	0.79
213.91	0.63
214.128	0.68
214.347	1.36
214.566	0.39
214.785	0.42
215.003	1.07
215.222	1.09
215.441	0.79
215.66	0.38
215.878	0.75
216.097	0.82
216.316	0.55
216.534	0.58
216.753	0.89
216.972	0.91
217.19	0.58
217.409	0.6
217.627	0.71
217.846	0.62
218.064	0.9
218.283	0.54
218.501	1.34
218.72	0.89
218.938	0.57
219.157	0.58
219.375	0.9
219.594	0.96
219.812	0.42
220.031	0.46
220.249	1.02
220.467	1.12
220.686	0.38
220.904	0.38
221.122	0.57
221.341	1.03
221.559	0.61
221.777	0.48
221.995	0.66
222.214	0.67
222.432	0.56
222.65	0.65
222.868	0.49
223.086	0.63
223.305	0.74
223.523	0.45
223.741	0.99
223.959	0.53
224.177	0.13
224.395	0.48
224.613	0.73
224.831	0.88
225.049	0.27
225.267	0.6
225.485	0.44
225.703	0.58
225.921	0.55
226.139	0.44
226.357	0.7
226.575	0.68
226.793	0.46
227.011	1.24
227.229	0.61
227.447	0.69
227.665	0.56
227.883	0.24
228.1	0.45
228.318	0.75
228.536	0.19
228.754	0.35
228.972	0.56
229.189	0.78
229.407	0.52
229.625	0.35
229.843	0.55
230.06	0.65
230.278	0.42
230.496	0.49
230.713	0.61
230.931	0.63
231.149	0.4
231.366	0.16
231.584	0.42
231.801	0.79
232.019	0.51
232.236	0.32
232.454	0.32
232.671	0.5
232.889	0.31
233.106	0.34
233.324	0.56
233.541	0.44
233.759	0.41
233.976	0.32
234.194	0.46
234.411	0.48
234.628	0.36
234.846	0.36
235.063	0.49
235.28	0.44
235.498	0.54
235.715	0.2
235.932	0.64
236.149	0.46
236.367	0.31
236.584	0.51
236.801	0.4
237.018	0.38
237.236	0.34
237.453	0.23
237.67	0.54
237.887	0.38
238.104	0.39
238.321	0.29
238.538	0.38
238.755	0.62
238.973	0.28
239.19	0.35
239.407	0.45
239.624	0.48
239.841	0.24
240.058	0.3
240.275	0.45
240.492	0.5
240.709	0.41
240.925	0.28
241.142	0.4
241.359	0.31
241.576	0.3
241.793	0.25
242.01	0.3
242.227	0.5
242.444	0.4
242.66	0.47
242.877	0.44
243.094	0.32
243.311	0.37
243.527	0.29
243.744	0.39
243.961	0.46
244.178	0.26
244.394	0.41
244.611	0.57
244.828	0.52
245.044	0.3
245.261	0.3
245.477	0.46
245.694	0.39
245.911	0.31
246.127	0.42
246.344	0.57
246.56	0.41
246.777	0.26
246.993	0.24
247.21	0.4
247.426	0.43
247.643	0.25
247.859	0.23
248.076	0.3
248.292	0.51
248.508	0.35
248.725	0.33
248.941	0.41
249.157	0.47
249.374	0.26
249.59	0.32
249.806	0.36
250.023	0.51
250.239	0.23
250.455	0.25
250.671	0.38
250.888	0.4
251.104	0.41
251.32	0.3
251.536	0.37
251.752	0.37
251.969	0.32
252.185	0.27
252.401	0.5
252.617	0.37
252.833	0.33
253.049	0.32
253.265	0.35
253.481	0.41
253.697	0.27
253.913	0.27
254.129	0.43
254.345	0.35
254.561	0.35
254.777	0.27
254.993	0.36
255.209	0.4
255.425	0.28
255.641	0.24
255.857	0.4
256.073	0.44
256.288	0.13
256.504	0.29
256.72	0.28
256.936	0.41
257.152	0.29
257.367	0.25
257.583	0.4
257.799	0.32
258.015	0.27
258.23	0.23
258.446	0.47
258.662	0.29
258.877	0.25
259.093	0.25
259.309	0.34
259.524	0.32
259.74	0.3
259.955	0.23
260.171	0.34
260.387	0.29
260.602	0.34
260.818	0.37
261.033	0.23
261.249	0.27
261.464	0.35
261.68	0.24
261.895	0.37
262.11	0.37
262.326	0.2
262.541	0.24
262.757	0.41
262.972	0.33
263.187	0.32
263.403	0.32
263.618	0.41
263.833	0.31
264.049	0.25
264.264	0.26
264.479	0.38
264.694	0.43
264.91	0.23
265.125	0.31
265.34	0.4
265.555	0.54
265.77	0.28
265.986	0.24
266.201	0.36
266.416	0.43
266.631	0.28
266.846	0.21
267.061	0.27
267.276	0.37
267.491	0.17
267.706	0.33
267.921	0.42
268.136	0.25
268.351	0.25
268.566	0.22
268.781	0.41
268.996	0.33
269.211	0.27
269.426	0.25
269.641	0.28
269.856	0.36
270.071	0.27
270.285	0.21
270.5	0.35
270.715	0.33
270.93	0.29
271.145	0.32
271.359	0.31
271.574	0.23
271.789	0.27
272.004	0.23
272.218	0.2
272.433	0.31
272.648	0.23
272.862	0.34
273.077	0.29
273.292	0.31
273.506	0.19
273.721	0.28
273.936	0.33
274.15	0.38
274.365	0.21
274.579	0.32
274.794	0.3
275.008	0.39
275.223	0.2
275.437	0.21
275.652	0.34
275.866	0.28
276.081	0.23
276.295	0.38
276.509	0.24
276.724	0.27
276.938	0.28
277.153	0.3
277.367	0.33
277.581	0.26
277.796	0.21
278.01	0.14
278.224	0.3
278.438	0.44
278.653	0.24
278.867	0.2
279.081	0.11
279.295	0.31
279.51	0.26
279.724	0.19
279.938	0.31
280.152	0.3
280.366	0.22
280.58	0.26
280.794	0.37
281.008	0.24
281.222	0.32
281.437	0.39
281.651	0.29
281.865	0.33
282.079	0.2
282.293	0.15
282.507	0.22
282.721	0.21
282.935	0.29
283.148	0.16
283.362	0.23
283.576	0.2
283.79	0.26
284.004	0.21
284.218	0.37
284.432	0.2
284.646	0.25
284.859	0.23
285.073	0.23
285.287	0.24
285.501	0.25
285.714	0.21
285.928	0.28
286.142	0.27
286.356	0.19
286.569	0.23
286.783	0.29
286.997	0.3
287.21	0.22
287.424	0.31
287.637	0.2
287.851	0.2
288.065	0.3
288.278	0.22
288.492	0.23
288.705	0.28
288.919	0.27
289.132	0.14
289.346	0.32
289.559	0.15
289.773	0.18
289.986	0.24
290.2	0.23
290.413	0.31
290.626	0.21
290.84	0.16
291.053	0.19
291.267	0.32
291.48	0.19
291.693	0.23
291.906	0.14
292.12	0.19
292.333	0.23
292.546	0.2
292.76	0.33
292.973	0.28
293.186	0.29
293.399	0.26
293.612	0.29
293.826	0.26
294.039	0.23
294.252	0.19
294.465	0.28
294.678	0.27
294.891	0.21
295.104	0.16
295.317	0.23
295.53	0.24
295.743	0.23
295.956	0.16
296.169	0.33
296.382	0.29
296.595	0.22
296.808	0.16
297.021	0.29
297.234	0.34
297.447	0.24
297.66	0.28
297.873	0.29
298.086	0.27
298.299	0.2
298.511	0.11
298.724	0.22
298.937	0.17
299.15	0.18
299.363	0.22
299.575	0.24
299.788	0.27
300.001	0.19
300.213	0.23
300.426	0.23
300.639	0.2
300.852	0.18
301.064	0.23
301.277	0.31
301.489	0.23
301.702	0.27
301.915	0.21
302.127	0.24
302.34	0.27
302.552	0.24
302.765	0.17
302.977	0.25
303.19	0.2
303.402	0.19
303.615	0.23
303.827	0.14
304.04	0.24
304.252	0.26
304.464	0.18
304.677	0.34
304.889	0.29
305.102	0.18
305.314	0.2
305.526	0.28
305.739	0.26
305.951	0.18
306.163	0.17
306.375	0.32
306.588	0.17
306.8	0.15
307.012	0.15
307.224	0.22
307.436	0.34
307.649	0.14
307.861	0.18
308.073	0.25
308.285	0.17
308.497	0.18
308.709	0.2
308.921	0.26
309.133	0.22
309.346	0.21
309.558	0.19
309.77	0.24
309.982	0.31
310.194	0.23
310.406	0.18
310.617	0.3
310.829	0.25
311.041	0.23
311.253	0.18
311.465	0.17
311.677	0.25
311.889	0.22
312.101	0.14
312.313	0.26
312.524	0.28
312.736	0.13
312.948	0.2
313.16	0.28
313.372	0.24
313.583	0.24
313.795	0.2
314.007	0.19
314.218	0.28
314.43	0.23
314.642	0.19
314.853	0.12
315.065	0.27
315.277	0.22
315.488	0.2
315.7	0.28
315.912	0.23
316.123	0.23
316.335	0.19
316.546	0.31
316.758	0.19
316.969	0.16
317.181	0.2
317.392	0.23
317.604	0.32
317.815	0.18
318.026	0.15
318.238	0.19
318.449	0.21
318.661	0.12
318.872	0.17
319.083	0.22
319.295	0.23
319.506	0.22
319.717	0.21
319.929	0.25
320.14	0.2
320.351	0.22
320.562	0.19
320.774	0.21
320.985	0.22
321.196	0.17
321.407	0.18
321.618	0.29
321.829	0.23
322.041	0.25
322.252	0.21
322.463	0.24
322.674	0.22
322.885	0.15
323.096	0.19
323.307	0.24
323.518	0.23
323.729	0.16
323.94	0.17
324.151	0.18
324.362	0.27
324.573	0.22
324.784	0.22
324.995	0.23
325.206	0.22
325.417	0.2
325.628	0.16
325.838	0.26
326.049	0.21
326.26	0.3
326.471	0.18
326.682	0.24
326.892	0.23
327.103	0.15
327.314	0.18
327.525	0.31
327.735	0.19
327.946	0.22
328.157	0.14
328.368	0.25
328.578	0.22
328.789	0.24
328.999	0.24
329.21	0.22
329.421	0.27
329.631	0.16
329.842	0.15
330.052	0.23
330.263	0.23
330.473	0.24
330.684	0.21
330.894	0.25
331.105	0.22
331.315	0.22
331.526	0.12
331.736	0.33
331.947	0.22
332.157	0.25
332.367	0.19
332.578	0.25
332.788	0.28
332.999	0.25
333.209	0.2
333.419	0.16
333.629	0.27
333.84	0.24
334.05	0.25
334.26	0.3
334.47	0.27
334.681	0.27
334.891	0.21
335.101	0.2
335.311	0.3
335.521	0.22
335.732	0.18
335.942	0.32
336.152	0.22
336.362	0.23
336.572	0.22
336.782	0.28
336.992	0.22
337.202	0.21
337.412	0.18
337.622	0.25
337.832	0.22
338.042	0.22
338.252	0.2
338.462	0.2
338.672	0.2
338.882	0.17
339.092	0.19
339.302	0.3
339.511	0.27
339.721	0.22
339.931	0.17
340.141	0.23
340.351	0.29
340.561	0.23
340.77	0.19
340.98	0.21
341.19	0.24
341.4	0.18
341.609	0.14
341.819	0.21
342.029	0.16
342.238	0.23
342.448	0.2
342.658	0.29
342.867	0.25
343.077	0.19
343.286	0.21
343.496	0.22
343.706	0.3
343.915	0.14
344.125	0.18
344.334	0.15
344.544	0.15
344.753	0.16
344.963	0.2
345.172	0.2
345.381	0.16
345.591	0.15
345.8	0.21
346.01	0.29
346.219	0.25
346.428	0.05
346.638	0.2
346.847	0.22
347.056	0.27
347.266	0.22
347.475	0.2
347.684	0.23
347.893	0.24
348.103	0.23
348.312	0.2
348.521	0.17
348.73	0.26
348.94	0.22
349.149	0.18
349.358	0.22
349.567	0.16
349.776	0.11
349.985	0.19
350.194	0.27
350.403	0.25
350.612	0.15
350.821	0.19
351.03	0.2
351.239	0.12
351.448	0.19
351.657	0.15
351.866	0.28
352.075	0.23
352.284	0.22
352.493	0.13
352.702	0.3
352.911	0.25
353.12	0.23
353.329	0.19
353.538	0.27
353.746	0.18
353.955	0.12
354.164	0.25
354.373	0.19
354.582	0.26
354.79	0.17
354.999	0.22
355.208	0.21
355.416	0.3
355.625	0.16
355.834	0.2
356.042	0.25
356.251	0.23
356.46	0.13
356.668	0.24
356.877	0.28
357.085	0.24
357.294	0.09
357.503	0.22
357.711	0.19
357.92	0.31
358.128	0.23
358.337	0.17
358.545	0.24
358.754	0.17
358.962	0.18
359.17	0.22
359.379	0.22
359.587	0.21
359.796	0.22
360.004	0.26
360.212	0.24
360.421	0.23
360.629	0.21
360.837	0.16
361.046	0.24
361.254	0.35
361.462	0.21
361.67	0.14
361.879	0.21
362.087	0.28
362.295	0.2
362.503	0.17
362.711	0.16
362.92	0.16
363.128	0.18
363.336	0.12
363.544	0.15
363.752	0.21
363.96	0.18
364.168	0.2
364.376	0.2
364.584	0.22
364.792	0.24
365	0.2
365.208	0.2
365.416	0.25
365.624	0.28
365.832	0.17
366.04	0.29
366.248	0.26
366.456	0.19
366.664	0.21
366.872	0.24
367.079	0.23
367.287	0.18
367.495	0.19
367.703	0.23
367.911	0.19
368.118	0.23
368.326	0.2
368.534	0.16
368.742	0.24
368.949	0.13
369.157	0.17
369.365	0.28
369.572	0.23
369.78	0.17
369.988	0.26
370.195	0.23
370.403	0.27
370.61	0.19
370.818	0.24
371.026	0.3
371.233	0.17
371.441	0.18
371.648	0.2
371.856	0.21
372.063	0.22
372.271	0.15
372.478	0.19
372.685	0.18
372.893	0.25
373.1	0.22
373.308	0.2
373.515	0.31
373.722	0.29
373.93	0.2
374.137	0.24
374.344	0.27
374.552	0.25
374.759	0.25
374.966	0.2
375.173	0.19
375.381	0.27
375.588	0.21
375.795	0.17
376.002	0.2
376.209	0.2
376.417	0.21
376.624	0.21
376.831	0.24
377.038	0.2
377.245	0.13
377.452	0.25
377.659	0.23
377.866	0.18
378.073	0.21
378.28	0.18
378.487	0.26
378.694	0.27
378.901	0.17
379.108	0.19
379.315	0.27
379.522	0.32
379.729	0.22
379.936	0.23
380.143	0.23
380.35	0.23
380.557	0.21
380.763	0.2
380.97	0.22
381.177	0.26
381.384	0.24
381.591	0.23
381.797	0.23
382.004	0.29
382.211	0.29
382.418	0.15
382.624	0.28
382.831	0.24
383.038	0.21
383.244	0.24
383.451	0.21
383.658	0.26
383.864	0.21
384.071	0.17
384.277	0.32
384.484	0.2
384.69	0.26
384.897	0.26
385.103	0.21
385.31	0.18
385.516	0.22
385.723	0.21
385.929	0.24
386.136	0.21
386.342	0.25
386.549	0.23
386.755	0.32
386.961	0.28
387.168	0.2
387.374	0.22
387.58	0.23
387.787	0.27
387.993	0.22
388.199	0.22
388.406	0.22
388.612	0.22
388.818	0.22
389.024	0.21
389.231	0.24
389.437	0.33
389.643	0.26
389.849	0.26
390.055	0.26
390.261	0.17
390.467	0.23
390.674	0.21
390.88	0.24
391.086	0.27
391.292	0.23
391.498	0.25
391.704	0.28
391.91	0.23
392.116	0.17
392.322	0.15
392.528	0.26
392.734	0.22
392.94	0.26
393.146	0.2
393.352	0.28
393.557	0.22
393.763	0.2
393.969	0.27
394.175	0.25
394.381	0.28
394.587	0.2
394.792	0.22
394.998	0.27
395.204	0.32
395.41	0.21
395.615	0.27
395.821	0.27
396.027	0.31
396.233	0.24
396.438	0.27
396.644	0.32
396.85	0.33
397.055	0.24
397.261	0.28
397.466	0.37
397.672	0.31
397.878	0.32
398.083	0.33
398.289	0.25
398.494	0.36
398.7	0.33
398.905	0.21
399.111	0.38
399.316	0.22
399.522	0.27
399.727	0.3
399.932	0.27
400.138	0.3
400.343	0.31
400.549	0.28
400.754	0.3
400.959	0.35
401.165	0.31
401.37	0.34
401.575	0.37
401.78	0.29
401.986	0.34
402.191	0.29
402.396	0.33
402.601	0.34
402.807	0.33
403.012	0.31
403.217	0.38
403.422	0.37
403.627	0.33
403.832	0.33
404.037	0.37
404.243	0.36
404.448	0.31
404.653	0.34
404.858	0.38
405.063	0.4
405.268	0.32
405.473	0.34
405.678	0.35
405.883	0.59
406.088	0.42
406.293	0.34
406.498	0.34
406.703	0.43
406.907	0.39
407.112	0.35
407.317	0.42
407.522	0.51
407.727	0.41
407.932	0.47
408.136	0.56
408.341	0.42
408.546	0.49
408.751	0.51
408.956	0.51
409.16	0.58
409.365	0.53
409.57	0.51
409.774	0.48
409.979	0.61
410.184	0.59
410.388	0.49
410.593	0.63
410.798	0.58
411.002	0.57
411.207	0.64
411.411	0.66
411.616	0.61
411.82	0.67
412.025	0.7
412.229	0.68
412.434	0.81
412.638	0.76
412.843	0.78
413.047	0.81
413.252	0.75
413.456	0.83
413.66	0.82
413.865	0.9
414.069	1.01
414.273	0.86
414.478	0.92
414.682	0.97
414.886	0.98
415.091	0.93
415.295	1.01
415.499	1.17
415.703	1.07
415.908	1.2
416.112	1.12
416.316	1.28
416.52	1.3
416.724	1.25
416.929	1.29
417.133	1.53
417.337	1.44
417.541	1.43
417.745	1.52
417.949	1.65
418.153	1.65
418.357	1.66
418.561	1.85
418.765	1.77
418.969	1.94
419.173	2
419.377	1.96
419.581	2.21
419.785	2.14
419.989	2.1
420.193	2.23
420.397	2.37
420.601	2.44
420.804	2.6
421.008	2.58
421.212	2.72
421.416	2.65
421.62	2.63
421.823	2.72
422.027	2.82
422.231	2.84
422.435	2.78
422.638	2.89
422.842	2.99
423.046	3.08
423.249	3.27
423.453	3.28
423.657	3.43
423.86	3.49
424.064	3.53
424.268	3.75
424.471	3.71
424.675	3.95
424.878	3.96
425.082	4.07
425.285	4.24
425.489	4.16
425.692	4.32
425.896	4.33
426.099	4.52
426.303	4.61
426.506	4.71
426.71	4.92
426.913	5.19
427.116	5.21
427.32	5.28
427.523	5.29
427.726	5.57
427.93	5.56
428.133	5.79
428.336	6.03
428.54	6.05
428.743	6.35
428.946	6.51
429.149	6.49
429.353	6.54
429.556	6.47
429.759	6.64
429.962	6.72
430.165	6.92
430.368	6.59
430.571	6.59
430.775	6.71
430.978	6.64
431.181	6.74
431.384	6.81
431.587	6.87
431.79	7.2
431.993	7.15
432.196	7.44
432.399	7.67
432.602	7.77
432.805	7.9
433.008	8.26
433.211	8.2
433.414	8.63
433.616	8.48
433.819	8.41
434.022	8.61
434.225	8.77
434.428	8.76
434.631	9.25
434.833	8.98
435.036	9.14
435.239	9.34
435.442	9.4
435.645	9.57
435.847	9.6
436.05	9.86
436.253	10.12
436.455	10.06
436.658	9.96
436.861	10.29
437.063	10.4
437.266	10.3
437.468	10.67
437.671	10.91
437.874	10.96
438.076	10.71
438.279	11.21
438.481	11.27
438.684	11.87
438.886	11.49
439.089	11.84
439.291	11.79
439.494	12.05
439.696	12.19
439.899	12.79
440.101	13.09
440.303	13.15
440.506	13.99
440.708	13.64
440.91	13.95
441.113	14.03
441.315	14.39
441.517	14.07
441.72	14.5
441.922	14.21
442.124	14.2
442.326	14.38
442.529	14.79
442.731	14.77
442.933	14.94
443.135	14.76
443.337	14.89
443.539	15.25
443.742	14.96
443.944	15.56
444.146	15.27
444.348	15.4
444.55	15.22
444.752	15.44
444.954	15.49
445.156	15.4
445.358	15.72
445.56	15.87
445.762	15.76
445.964	16.04
446.166	15.74
446.368	15.8
446.57	15.84
446.772	15.49
446.974	15.26
447.175	15.57
447.377	15.36
447.579	15.67
447.781	15.42
447.983	15.37
448.184	14.9
448.386	15.22
448.588	14.81
448.79	14.83
448.991	15.1
449.193	14.96
449.395	14.44
449.597	14.16
449.798	14.05
450	13.71
450.202	13.78
450.403	13.66
450.605	13.52
450.806	13.34
451.008	13.12
451.21	12.91
451.411	12.55
451.613	11.98
451.814	12.09
452.016	12.15
452.217	11.48
452.419	11.48
452.62	11.3
452.821	11.07
453.023	10.86
453.224	10.68
453.426	10.22
453.627	9.54
453.828	9.77
454.03	9.72
454.231	9.75
454.432	9.54
454.634	9.36
454.835	9.07
455.036	8.91
455.238	8.71
455.439	8.43
455.64	8.23
455.841	8.03
456.042	8.18
456.244	7.88
456.445	7.68
456.646	7.34
456.847	7.37
457.048	7.32
457.249	7.32
457.45	7.02
457.651	6.55
457.852	6.53
458.054	6.14
458.255	6.25
458.456	6.32
458.657	6.19
458.858	5.87
459.058	5.67
459.259	5.81
459.46	5.55
459.661	5.44
459.862	5.58
460.063	5.46
460.264	5.28
460.465	5.05
460.666	5.21
460.866	4.95
461.067	4.78
461.268	4.73
461.469	4.73
461.67	4.64
461.87	4.44
462.071	4.46
462.272	4.4
462.473	4.27
462.673	4.44
462.874	4.37
463.075	4.4
463.275	4.34
463.476	4.35
463.676	4.35
463.877	4.19
464.078	4.23
464.278	4.27
464.479	4.09
464.679	4.05
464.88	3.99
465.08	3.98
465.281	3.88
465.481	3.73
465.682	3.51
465.882	3.55
466.083	3.49
466.283	3.46
466.483	3.3
466.684	3.16
466.884	3.09
467.085	3.17
467.285	3.2
467.485	3.07
467.686	3.03
467.886	2.9
468.086	2.89
468.286	2.88
468.487	2.91
468.687	2.82
468.887	2.79
469.087	2.87
469.287	2.85
469.488	2.59
469.688	2.73
469.888	2.68
470.088	2.65
470.288	2.62
470.488	2.55
470.688	2.37
470.888	2.41
471.088	2.32
471.288	2.41
471.488	2.4
471.688	2.33
471.888	2.25
472.088	2.39
472.288	2.28
472.488	2.22
472.688	2.19
472.888	2.17
473.088	2.18
473.288	2.13
473.488	2.01
473.688	2.23
473.887	2.1
474.087	2.04
474.287	2.08
474.487	2.04
474.687	2.05
474.886	2
475.086	1.94
475.286	2.04
475.486	1.94
475.685	1.93
475.885	1.86
476.085	1.93
476.284	1.95
476.484	1.93
476.684	1.88
476.883	1.94
477.083	1.86
477.282	1.78
477.482	1.85
477.681	1.81
477.881	1.71
478.08	1.76
478.28	1.7
478.479	1.82
478.679	1.85
478.878	1.75
479.078	1.75
479.277	1.74
479.477	1.76
479.676	1.68
479.875	1.71
480.075	1.66
480.274	1.72
480.473	1.75
480.673	1.7
480.872	1.78
481.071	1.72
481.271	1.75
481.47	1.68
481.669	1.72
481.868	1.67
482.067	1.68
482.267	1.64
482.466	1.63
482.665	1.63
482.864	1.63
483.063	1.62
483.262	1.69
483.461	1.72
483.661	1.73
483.86	1.66
484.059	1.72
484.258	1.73
484.457	1.7
484.656	1.69
484.855	1.76
485.054	1.65
485.253	1.71
485.452	1.65
485.651	1.7
485.849	1.74
486.048	1.67
486.247	1.67
486.446	1.72
486.645	1.68
486.844	1.78
487.043	1.71
487.241	1.78
487.44	1.74
487.639	1.81
487.838	1.81
488.037	1.8
488.235	1.92
488.434	1.83
488.633	1.73
488.831	1.91
489.03	1.84
489.229	1.87
489.427	1.87
489.626	1.92
489.825	1.94
490.023	1.96
490.222	1.93
490.42	1.96
490.619	2
490.817	2.01
491.016	2.01
491.214	2.07
491.413	2.03
491.611	1.99
491.81	2.02
492.008	2.09
492.207	2.13
492.405	2.13
492.604	2.09
492.802	2.17
493	2.23
493.199	2.21
493.397	2.21
493.595	2.27
493.794	2.28
493.992	2.35
494.19	2.29
494.388	2.41
494.587	2.33
494.785	2.37
494.983	2.29
495.181	2.41
495.379	2.46
495.578	2.52
495.776	2.52
495.974	2.48
496.172	2.54
496.37	2.61
496.568	2.67
496.766	2.61
496.964	2.7
497.162	2.69
497.36	2.72
497.558	2.82
497.756	2.82
497.954	2.77
498.152	2.87
498.35	2.92
498.548	2.88
498.746	2.91
498.944	2.9
499.142	2.93
499.34	2.98
499.538	3.08
499.736	2.99
499.933	3.07
500.131	3.12
500.329	3.26
500.527	3.19
500.725	3.28
500.922	3.33
501.12	3.34
501.318	3.36
501.516	3.34
501.713	3.42
501.911	3.33
502.109	3.35
502.306	3.48
502.504	3.42
502.701	3.51
502.899	3.51
503.097	3.76
503.294	3.58
503.492	3.71
503.689	3.71
503.887	3.71
504.084	3.84
504.282	3.74
504.479	3.73
504.677	3.92
504.874	3.84
505.072	3.75
505.269	3.98
505.466	4
505.664	3.99
505.861	4
506.059	4.1
506.256	4.12
506.453	4.15
506.651	4.25
506.848	4.29
507.045	4.24
507.242	4.26
507.44	4.26
507.637	4.32
507.834	4.36
508.031	4.52
508.229	4.36
508.426	4.35
508.623	4.51
508.82	4.52
509.017	4.54
509.214	4.49
509.411	4.65
509.608	4.6
509.805	4.7
510.003	4.65
510.2	4.74
510.397	4.85
510.594	4.71
510.791	4.86
510.988	4.8
511.184	4.84
511.381	4.75
511.578	4.9
511.775	5
511.972	4.94
512.169	4.99
512.366	5
512.563	5.06
512.76	5.12
512.956	5.13
513.153	5.1
513.35	5.06
513.547	5.04
513.744	5.21
513.94	5.19
514.137	5.29
514.334	5.26
514.53	5.25
514.727	5.49
514.924	5.38
515.12	5.33
515.317	5.39
515.514	5.36
515.71	5.26
515.907	5.48
516.103	5.52
516.3	5.43
516.497	5.55
516.693	5.56
516.89	5.56
517.086	5.59
517.283	5.63
517.479	5.51
517.676	5.67
517.872	5.71
518.068	5.66
518.265	5.66
518.461	5.64
518.658	5.75
518.854	5.74
519.05	5.82
519.247	5.82
519.443	5.78
519.639	5.92
519.836	5.84
520.032	5.82
520.228	5.93
520.424	5.92
520.621	5.98
520.817	6.01
521.013	5.95
521.209	6.11
521.405	6.11
521.601	6.03
521.798	6.02
521.994	6.05
522.19	5.96
522.386	6
522.582	6.15
522.778	6.17
522.974	6.08
523.17	6.1
523.366	6.06
523.562	6.16
523.758	6.16
523.954	6.04
524.15	6.19
524.346	6.22
524.542	6.18
524.738	6.17
524.934	6.31
525.129	6.31
525.325	6.26
525.521	6.24
525.717	6.39
525.913	6.25
526.109	6.26
526.304	6.37
526.5	6.38
526.696	6.4
526.892	6.28
527.087	6.51
527.283	6.45
527.479	6.43
527.674	6.26
527.87	6.44
528.066	6.43
528.261	6.49
528.457	6.36
528.653	6.55
528.848	6.44
529.044	6.55
529.239	6.42
529.435	6.49
529.63	6.44
529.826	6.44
530.021	6.49
530.217	6.53
530.412	6.55
530.608	6.57
530.803	6.57
530.999	6.43
531.194	6.51
531.389	6.6
531.585	6.53
531.78	6.67
531.975	6.6
532.171	6.69
532.366	6.63
532.561	6.67
532.757	6.69
532.952	6.73
533.147	6.55
533.342	6.66
533.538	6.61
533.733	6.8
533.928	6.55
534.123	6.65
534.318	6.71
534.513	6.61
534.709	6.81
534.904	6.74
535.099	6.75
535.294	6.71
535.489	6.82
535.684	6.74
535.879	6.67
536.074	6.79
536.269	6.8
536.464	6.8
536.659	6.72
536.854	6.73
537.049	6.83
537.244	6.8
537.439	6.75
537.634	6.74
537.828	6.86
538.023	6.82
538.218	6.75
538.413	6.75
538.608	6.82
538.803	6.8
538.997	6.77
539.192	6.84
539.387	6.76
539.582	6.8
539.776	6.72
539.971	6.8
540.166	6.93
540.36	6.77
540.555	6.89
540.75	6.86
540.944	6.86
541.139	6.83
541.334	6.79
541.528	6.89
541.723	6.91
541.917	6.93
542.112	6.78
542.306	6.76
542.501	6.83
542.695	6.79
542.89	6.8
543.084	6.83
543.279	6.83
543.473	6.86
543.668	6.9
543.862	6.76
544.056	6.8
544.251	6.93
544.445	6.95
544.64	6.94
544.834	6.72
545.028	6.61
545.222	6.9
545.417	7.03
545.611	6.95
545.805	6.89
546	6.78
546.194	6.91
546.388	6.95
546.582	6.86
546.776	6.85
546.97	6.94
547.165	6.85
547.359	6.87
547.553	6.83
547.747	6.89
547.941	7.07
548.135	6.92
548.329	6.9
548.523	6.93
548.717	6.85
548.911	6.88
549.105	6.81
549.299	6.99
549.493	6.93
549.687	6.85
549.881	6.99
550.075	6.89
550.269	6.87
550.463	6.93
550.657	6.95
550.85	6.89
551.044	6.87
551.238	6.99
551.432	6.9
551.626	6.95
551.82	6.98
552.013	6.85
552.207	7.01
552.401	7
552.594	6.93
552.788	6.81
552.982	6.89
553.176	6.82
553.369	7.05
553.563	6.94
553.756	6.9
553.95	6.93
554.144	6.96
554.337	6.97
554.531	6.76
554.724	6.96
554.918	7.01
555.111	6.88
555.305	6.96
555.498	6.86
555.692	7.04
555.885	6.97
556.079	6.91
556.272	6.95
556.466	6.9
556.659	6.91
556.852	6.96
557.046	6.85
557.239	6.79
557.432	6.91
557.626	6.89
557.819	7.06
558.012	6.97
558.206	7.02
558.399	6.95
558.592	6.92
558.785	6.9
558.979	6.93
559.172	6.94
559.365	6.96
559.558	6.93
559.751	6.84
559.944	7
560.138	6.91
560.331	6.99
560.524	6.95
560.717	6.93
560.91	6.88
561.103	6.97
561.296	6.84
561.489	7.02
561.682	6.97
561.875	6.95
562.068	7.04
562.261	6.83
562.454	7.03
562.647	6.9
562.84	6.97
563.032	6.99
563.225	6.87
563.418	6.98
563.611	7.04
563.804	6.92
563.997	6.85
564.19	6.72
564.382	6.98
564.575	6.91
564.768	6.88
564.961	6.95
565.153	6.92
565.346	6.85
565.539	6.95
565.731	6.88
565.924	6.97
566.117	7.07
566.309	6.97
566.502	6.91
566.695	6.86
566.887	6.99
567.08	6.95
567.272	6.97
567.465	6.82
567.657	6.97
567.85	6.85
568.042	6.97
568.235	6.98
568.427	6.75
568.62	6.91
568.812	6.87
569.005	6.94
569.197	6.85
569.389	6.87
569.582	6.92
569.774	6.97
569.966	6.81
570.159	6.82
570.351	6.83
570.543	6.9
570.736	6.84
570.928	6.7
571.12	6.86
571.312	6.84
571.505	6.65
571.697	6.86
571.889	6.81
572.081	6.85
572.273	6.75
572.465	6.9
572.658	6.88
572.85	6.89
573.042	6.87
573.234	6.77
573.426	6.75
573.618	6.81
573.81	6.83
574.002	6.81
574.194	6.82
574.386	6.73
574.578	6.68
574.77	6.7
574.962	6.81
575.154	6.69
575.346	6.71
575.538	6.69
575.729	6.72
575.921	6.75
576.113	6.87
576.305	6.81
576.497	6.89
576.689	6.72
576.88	6.63
577.072	6.81
577.264	6.8
577.456	6.71
577.647	6.69
577.839	6.81
578.031	6.75
578.223	6.66
578.414	6.66
578.606	6.7
578.798	6.8
578.989	6.71
579.181	6.72
579.372	6.76
579.564	6.7
579.755	6.6
579.947	6.64
580.139	6.7
580.33	6.54
580.522	6.67
580.713	6.58
580.905	6.6
581.096	6.72
581.287	6.66
581.479	6.56
581.67	6.68
581.862	6.55
582.053	6.63
582.244	6.45
582.436	6.71
582.627	6.57
582.818	6.54
583.01	6.53
583.201	6.63
583.392	6.57
583.583	6.52
583.775	6.4
583.966	6.56
584.157	6.53
584.348	6.61
584.54	6.44
584.731	6.49
584.922	6.39
585.113	6.34
585.304	6.5
585.495	6.49
585.686	6.59
585.877	6.57
586.068	6.55
586.259	6.5
586.45	6.44
586.641	6.4
586.832	6.46
587.023	6.43
587.214	6.38
587.405	6.47
587.596	6.35
587.787	6.36
587.978	6.46
588.169	6.4
588.36	6.33
588.551	6.36
588.742	6.37
588.932	6.37
589.123	6.25
589.314	6.38
589.505	6.28
589.696	6.36
589.886	6.3
590.077	6.25
590.268	6.21
590.458	6.24
590.649	6.08
590.84	6.25
591.03	6.2
591.221	6.25
591.412	6.12
591.602	6.33
591.793	6.17
591.984	6.23
592.174	6.17
592.365	6.32
592.555	6.06
592.746	6.14
592.936	6.12
593.127	6.14
593.317	6.15
593.508	6.13
593.698	6.04
593.889	6.07
594.079	6.04
594.269	6.01
594.46	5.97
594.65	6.05
594.84	6.07
595.031	5.97
595.221	5.96
595.411	6
595.602	5.99
595.792	5.94
595.982	5.91
596.172	6.05
596.363	5.93
596.553	5.91
596.743	5.99
596.933	5.97
597.123	5.87
597.314	5.76
597.504	5.82
597.694	5.93
597.884	5.8
598.074	5.9
598.264	5.85
598.454	5.77
598.644	5.78
598.834	5.81
599.024	5.72
599.214	5.74
599.404	5.82
599.594	5.72
599.784	5.73
599.974	5.76
600.164	5.69
600.354	5.68
600.544	5.62
600.734	5.7
600.924	5.7
601.114	5.58
601.303	5.62
601.493	5.65
601.683	5.64
601.873	5.62
602.063	5.53
602.252	5.56
602.442	5.54
602.632	5.56
602.821	5.5
603.011	5.47
603.201	5.52
603.39	5.49
603.58	5.37
603.77	5.5
603.959	5.5
604.149	5.44
604.339	5.43
604.528	5.51
604.718	5.43
604.907	5.37
605.097	5.33
605.286	5.28
605.476	5.35
605.665	5.42
605.855	5.28
606.044	5.4
606.234	5.36
606.423	5.27
606.612	5.26
606.802	5.26
606.991	5.25
607.181	5.27
607.37	5.34
607.559	5.05
607.749	5.19
607.938	5.15
608.127	5.22
608.316	5.18
608.506	5.12
608.695	5.21
608.884	5.11
609.073	5.11
609.263	5.2
609.452	5.15
609.641	5.04
609.83	4.98
610.019	5.13
610.208	4.97
610.397	5
610.586	5.04
610.775	4.98
610.965	4.97
611.154	4.89
611.343	5.02
611.532	4.93
611.721	5
611.91	4.85
612.099	4.87
612.287	4.86
612.476	4.78
612.665	4.9
612.854	4.82
613.043	4.89
613.232	4.84
613.421	4.75
613.61	4.74
613.798	4.79
613.987	4.8
614.176	4.72
614.365	4.75
614.554	4.72
614.742	4.71
614.931	4.61
615.12	4.76
615.309	4.73
615.497	4.63
615.686	4.57
615.875	4.55
616.063	4.62
616.252	4.57
616.44	4.57
616.629	4.56
616.818	4.53
617.006	4.52
617.195	4.47
617.383	4.48
617.572	4.4
617.76	4.45
617.949	4.51
618.137	4.52
618.326	4.53
618.514	4.34
618.703	4.31
618.891	4.39
619.079	4.3
619.268	4.44
619.456	4.26
619.644	4.42
619.833	4.29
620.021	4.27
620.209	4.23
620.398	4.26
620.586	4.19
620.774	4.27
620.962	4.2
621.151	4.32
621.339	4.17
621.527	4.11
621.715	4.12
621.903	4.11
622.092	4.04
622.28	4.19
622.468	4.01
622.656	4.1
622.844	4.1
623.032	4.14
623.22	3.96
623.408	4.12
623.596	3.98
623.784	4.11
623.972	3.94
624.16	3.97
624.348	4.06
624.536	4.07
624.724	3.88
624.912	4.02
625.1	3.91
625.288	3.91
625.476	3.86
625.664	3.95
625.851	3.84
626.039	3.83
626.227	3.81
626.415	3.85
626.603	3.77
626.79	3.83
626.978	3.8
627.166	3.87
627.354	3.74
627.541	3.74
627.729	3.68
627.917	3.81
628.104	3.81
628.292	3.68
628.48	3.69
628.667	3.64
628.855	3.71
629.042	3.72
629.23	3.66
629.418	3.63
629.605	3.66
629.793	3.52
629.98	3.53
630.168	3.52
630.355	3.56
630.543	3.55
630.73	3.45
630.917	3.52
631.105	3.6
631.292	3.56
631.48	3.45
631.667	3.61
631.854	3.47
632.042	3.47
632.229	3.34
632.416	3.48
632.604	3.39
632.791	3.29
632.978	3.42
633.165	3.35
633.353	3.39
633.54	3.44
633.727	3.26
633.914	3.24
634.101	3.28
634.289	3.37
634.476	3.23
634.663	3.23
634.85	3.22
635.037	3.2
635.224	3.17
635.411	3.28
635.598	3.22
635.785	3.16
635.972	3.16
636.159	3.19
636.346	3.13
636.533	3.1
636.72	3.08
636.907	3.11
637.094	3.06
637.281	3.02
637.468	3.05
637.655	3.06
637.842	3.01
638.029	3.04
638.215	3.04
638.402	3.05
638.589	2.96
638.776	2.96
638.963	2.95
639.149	3
639.336	3.02
639.523	2.92
639.709	2.94
639.896	2.89
640.083	2.91
640.27	2.94
640.456	2.84
640.643	2.91
640.829	2.73
641.016	2.8
641.203	2.73
641.389	2.79
641.576	2.83
641.762	2.74
641.949	2.73
642.135	2.8
642.322	2.78
642.508	2.7
642.695	2.75
642.881	2.73
643.068	2.65
643.254	2.7
643.441	2.74
643.627	2.7
643.813	2.61
644	2.64
644.186	2.57
644.372	2.67
644.559	2.66
644.745	2.55
644.931	2.53
645.118	2.58
645.304	2.55
645.49	2.54
645.676	2.48
645.862	2.5
646.049	2.6
646.235	2.54
646.421	2.56
646.607	2.57
646.793	2.45
646.979	2.4
647.165	2.51
647.352	2.47
647.538	2.47
647.724	2.43
647.91	2.4
648.096	2.44
648.282	2.46
648.468	2.36
648.654	2.49
648.84	2.38
649.026	2.37
649.212	2.34
649.397	2.33
649.583	2.3
649.769	2.36
649.955	2.26
650.141	2.24
650.327	2.29
650.513	2.24
650.698	2.26
650.884	2.17
651.07	2.29
651.256	2.26
651.442	2.23
651.627	2.11
651.813	2.27
651.999	2.23
652.184	2.19
652.37	2.15
652.556	2.17
652.741	2.2
652.927	2.06
653.113	2.15
653.298	2.12
653.484	2.11
653.669	2.06
653.855	2.07
654.04	2.13
654.226	2.07
654.412	2.05
654.597	1.98
654.782	2.06
654.968	2.09
655.153	2.03
655.339	2
655.524	1.99
655.71	2.04
655.895	2.01
656.08	2
656.266	2.06
656.451	1.97
656.636	1.89
656.822	1.9
657.007	1.97
657.192	1.95
657.378	1.87
657.563	1.89
657.748	1.91
657.933	1.89
658.118	1.88
658.304	1.86
658.489	1.95
658.674	1.88
658.859	1.85
659.044	1.86
659.229	1.91
659.414	1.83
659.599	1.86
659.785	1.77
659.97	1.81
660.155	1.83
660.34	1.82
660.525	1.76
660.71	1.78
660.895	1.79
661.08	1.76
661.264	1.7
661.449	1.79
661.634	1.75
661.819	1.76
662.004	1.72
662.189	1.66
662.374	1.67
662.559	1.7
662.743	1.62
662.928	1.67
663.113	1.64
663.298	1.68
663.483	1.66
663.667	1.69
663.852	1.58
664.037	1.69
664.221	1.61
664.406	1.68
664.591	1.62
664.775	1.61
664.96	1.6
665.145	1.55
665.329	1.63
665.514	1.56
665.698	1.55
665.883	1.51
666.068	1.61
666.252	1.59
666.437	1.57
666.621	1.53
666.806	1.54
666.99	1.48
667.174	1.49
667.359	1.57
667.543	1.5
667.728	1.48
667.912	1.39
668.096	1.48
668.281	1.44
668.465	1.49
668.649	1.46
668.834	1.41
669.018	1.43
669.202	1.36
669.387	1.44
669.571	1.46
669.755	1.41
669.939	1.41
670.124	1.41
670.308	1.45
670.492	1.43
670.676	1.43
670.86	1.4
671.044	1.3
671.228	1.46
671.413	1.32
671.597	1.38
671.781	1.34
671.965	1.34
672.149	1.32
672.333	1.38
672.517	1.33
672.701	1.35
672.885	1.27
673.069	1.19
673.253	1.41
673.437	1.35
673.621	1.3
673.804	1.29
673.988	1.34
674.172	1.24
674.356	1.19
674.54	1.27
674.724	1.33
674.908	1.22
675.091	1.3
675.275	1.26
675.459	1.34
675.643	1.28
675.826	1.25
676.01	1.19
676.194	1.23
676.377	1.23
676.561	1.3
676.745	1.26
676.928	1.21
677.112	1.26
677.296	1.17
677.479	1.16
677.663	1.16
677.846	1.22
678.03	1.19
678.213	1.11
678.397	1.2
678.58	1.15
678.764	1.17
678.947	1.08
679.131	1.17
679.314	1.24
679.498	1.15
679.681	1.12
679.865	1.21
680.048	1.04
680.231	1.08
680.415	1.07
680.598	1.13
680.781	1.06
680.965	1.08
681.148	1.11
681.331	1.02
681.514	1.1
681.698	1.02
681.881	1.05
682.064	1.1
682.247	1.08
682.43	1.01
682.614	1.05
682.797	1.08
682.98	1.05
683.163	0.97
683.346	1.1
683.529	1.02
683.712	0.98
683.895	1.04
684.078	0.91
684.261	0.95
684.444	1.01
684.627	1.05
684.81	0.97
684.993	0.94
685.176	1.04
685.359	0.97
685.542	0.95
685.725	1.03
685.908	0.99
686.091	0.97
686.274	0.99
686.457	0.99
686.639	0.96
686.822	0.99
687.005	0.95
687.188	1.02
687.371	1.07
687.553	1.03
687.736	0.93
687.919	0.97
688.102	0.96
688.284	0.89
688.467	0.87
688.65	0.9
688.832	0.85
689.015	0.87
689.197	0.82
689.38	0.97
689.563	0.98
689.745	0.77
689.928	0.85
690.11	0.9
690.293	0.9
690.475	0.77
690.658	0.86
690.84	0.89
691.023	0.88
691.205	0.81
691.388	0.83
691.57	0.9
691.752	0.87
691.935	0.7
692.117	0.85
692.3	0.87
692.482	0.83
692.664	0.75
692.847	0.82
693.029	0.88
693.211	0.86
693.393	0.81
693.576	0.74
693.758	0.84
693.94	0.79
694.122	0.75
694.304	0.74
694.487	0.74
694.669	0.84
694.851	0.75
695.033	0.77
695.215	0.76
695.397	0.76
695.579	0.75
695.761	0.75
695.943	0.67
696.125	0.83
696.308	0.83
696.49	0.6
696.671	0.83
696.853	0.72
697.035	0.97
697.217	0.76
697.399	0.78
697.581	0.69
697.763	0.75
697.945	0.68
698.127	0.71
698.309	0.86
698.491	0.75
698.672	0.77
698.854	0.78
699.036	0.82
699.218	0.69
699.399	0.76
699.581	0.75
699.763	0.72
699.945	0.66
700.126	0.61
700.308	0.71
700.49	0.68
700.671	0.58
700.853	0.62
701.035	0.66
701.216	0.68
701.398	0.63
701.579	0.65
701.761	0.8
701.943	0.61
702.124	0.62
702.306	0.68
702.487	0.8
702.669	0.64
702.85	0.65
703.031	0.58
703.213	0.72
703.394	0.76
703.576	0.63
703.757	0.76
703.938	0.72
704.12	0.87
704.301	0.68
704.483	0.66
704.664	0.65
704.845	0.74
705.026	0.69
705.208	0.6
705.389	0.58
705.57	0.65
705.751	0.61
705.933	0.68
706.114	0.72
706.295	0.58
706.476	0.56
706.657	0.74
706.838	0.71
707.02	0.67
707.201	0.53
707.382	0.63
707.563	0.68
707.744	0.55
707.925	0.53
708.106	0.54
708.287	0.57
708.468	0.73
708.649	0.6
708.83	0.67
709.011	0.6
709.192	0.68
709.373	0.53
709.554	0.55
709.734	0.62
709.915	0.55
710.096	0.54
710.277	0.45
710.458	0.6
710.639	0.57
710.819	0.41
711	0.54
711.181	0.63
711.362	0.64
711.542	0.52
711.723	0.52
711.904	0.64
712.085	0.58
712.265	0.57
712.446	0.4
712.627	0.56
712.807	0.49
712.988	0.5
713.168	0.43
713.349	0.55
713.53	0.36
713.71	0.49
713.891	0.41
714.071	0.52
714.252	0.49
714.432	0.56
714.613	0.39
714.793	0.55
714.974	0.53
715.154	0.55
715.334	0.58
715.515	0.6
715.695	0.43
715.876	0.58
716.056	0.47
716.236	0.45
716.417	0.5
716.597	0.5
716.777	0.72
716.957	0.54
717.138	0.61
717.318	0.48
717.498	0.39
717.678	0.55
717.859	0.51
718.039	0.42
718.219	0.52
718.399	0.56
718.579	0.41
718.759	0.47
718.939	0.53
719.12	0.55
719.3	0.43
719.48	0.31
719.66	0.38
719.84	0.62
720.02	0.46
720.2	0.4
720.38	0.4
720.56	0.62
720.74	0.33
720.92	0.49
721.1	0.54
721.279	0.57
721.459	0.53
721.639	0.36
721.819	0.43
721.999	0.43
722.179	0.5
722.359	0.35
722.538	0.46
722.718	0.48
722.898	0.41
723.078	0.44
723.257	0.46
723.437	0.49
723.617	0.44
723.797	0.47
723.976	0.4
724.156	0.52
724.336	0.58
724.515	0.68
724.695	0.29
724.874	0.44
725.054	0.45
725.234	0.41
725.413	0.39
725.593	0.46
725.772	0.4
725.952	0.36
726.131	0.48
726.311	0.55
726.49	0.38
726.67	0.4
726.849	0.32
727.028	0.35
727.208	0.35
727.387	0.47
727.567	0.32
727.746	0.42
727.925	0.41
728.105	0.34
728.284	0.33
728.463	0.39
728.643	0.5
728.822	0.24
729.001	0.34
729.18	0.43
729.359	0.51
729.539	0.38
729.718	0.49
729.897	0.5
730.076	0.33
730.255	0.3
730.434	0.43
730.614	0.48
730.793	0.54
730.972	0.36
731.151	0.35
731.33	0.51
731.509	0.47
731.688	0.48
731.867	0.35
732.046	0.26
732.225	0.59
732.404	0.37
732.583	0.24
732.762	0.39
732.941	0.41
733.12	0.39
733.298	0.48
733.477	0.54
733.656	0.36
733.835	0.35
734.014	0.49
734.193	0.53
734.371	0.4
734.55	0.44
734.729	0.22
734.908	0.51
735.086	0.46
735.265	0.51
735.444	0.32
735.623	0.19
735.801	0.42
735.98	0.36
736.159	0.34
736.337	0.45
736.516	0.44
736.694	0.43
736.873	0.38
737.052	0.61
737.23	0.41
737.409	0.42
737.587	0.7
737.766	0.24
737.944	0.42
738.123	0.4
738.301	0.52
738.479	0.55
738.658	0.53
738.836	0.24
739.015	0.38
739.193	0.48
739.371	0.25
739.55	0.41
739.728	0.39
739.906	0.53
740.085	0.46
740.263	0.41
740.441	0.09
740.62	0.65
740.798	0.51
740.976	0.22
741.154	0.42
741.332	0.64
741.511	0.34
741.689	0.37
741.867	0.43
742.045	0.47
742.223	0.38
742.401	0.32
742.579	0.39
742.757	0.55
742.935	0.23
743.114	0.41
743.292	0.3
743.47	0.39
743.648	0.39
743.826	0.36
744.004	0.46
744.181	0.49
744.359	0.45
744.537	0.43
744.715	0.39
744.893	0.43
745.071	0.4
745.249	0.3
745.427	0.32
745.605	0.51
745.782	0.35
745.96	0.42
746.138	0.48
746.316	0.51
746.493	0.28
746.671	0.41
746.849	0.34
747.027	0.51
747.204	0.27
747.382	0.39
747.56	0.18
747.737	0.38
747.915	0.17
748.093	0.42
748.27	0.32
748.448	0.31
748.625	0.26
748.803	0.27
748.98	0.22
749.158	0.38
749.335	0.51
749.513	0.28
749.69	0.33
749.868	0.34
750.045	0.43
750.223	0.2
750.4	0.14
750.578	0.44
750.755	0.29
750.932	0.14
751.11	0.5
751.287	0.17
751.464	0.52
751.642	0.23
751.819	0.35
751.996	0.33
752.173	0.25
752.351	0.24
752.528	0.38
752.705	0.38
752.882	0.18
753.06	0.33
753.237	0.32
753.414	0.5
753.591	0.58
753.768	0.44
753.945	0.2
754.122	0.25
754.299	0.42
754.476	0.1
754.654	0.24
754.831	0.52
755.008	0.4
755.185	0.29
755.362	0.27
755.539	0.33
755.716	0.25
755.892	0.32
756.069	0.35
756.246	0.2
756.423	0.24
756.6	0.5
756.777	0.24
756.954	0.39
757.131	0.31
757.307	0.23
757.484	0.18
757.661	0.34
757.838	0.36
758.015	0.05
758.191	0.42
758.368	0.36
758.545	0.51
758.721	0.38
758.898	0.14
759.075	0.39
759.251	0.4
759.428	0.39
759.605	0.18
759.781	0.23
759.958	0.33
760.134	0.36
760.311	0.26
760.488	0.45
760.664	0.37
760.841	0.21
761.017	0.22
761.194	0.48
761.37	0.44
761.547	0.28
761.723	0.26
761.899	0.58
762.076	0.19
762.252	0.14
762.429	0.21
762.605	0.43
762.781	0.27
762.958	0.44
763.134	0.2
763.31	0.26
763.486	0.42
763.663	0.11
763.839	0.39
764.015	0.09
764.191	0.25
764.368	0.23
764.544	0.25
764.72	0.29
764.896	0.37
765.072	0.37
765.248	0.31
765.425	0.3
765.601	0.32
765.777	0.31
765.953	0.08
766.129	0.2
766.305	0.06
766.481	0.49
766.657	0.3
766.833	0.44
767.009	0.19
767.185	0.19
767.361	0.25
767.537	0.21
767.713	0.47
767.889	0.28
768.065	0.32
768.24	0.33
768.416	0.32
768.592	0.27
768.768	0.22
768.944	0.26
769.12	0.19
769.295	0.3
769.471	0.37
769.647	0.32
769.823	0.38
769.998	0.19
770.174	0.11
770.35	0.71
770.525	0.56
770.701	0.31
770.877	0.26
771.052	0.21
771.228	0.41
771.403	0.43
771.579	0.38
771.755	0.63
771.93	0.27
772.106	0.12
772.281	0.02
772.457	0.26
772.632	0.39
772.808	0.15
772.983	0.18
773.159	0.16
773.334	0.55
773.509	0.36
773.685	0.23
773.86	0.59
774.036	0.54
774.211	0.37
774.386	0.2
774.562	0.33
774.737	0.43
774.912	0.28
775.087	0.48
775.263	0.29
775.438	0.33
775.613	0.23
775.788	0.21
775.964	0.4
776.139	0.82
776.314	0.22
776.489	0.37
776.664	0.17
776.839	0.26
777.014	0.44
777.19	0.47
777.365	0.56
777.54	0.65
777.715	0.15
777.89	0.38
778.065	0.19
778.24	0.33
778.415	0.45
778.59	0.03
778.765	0.19
778.94	0.32
779.115	0.27
779.289	0.29
779.464	0.24
779.639	0.18
779.814	0.06
779.989	0.28
780.164	0.45
780.339	0.46
780.513	0.23
780.688	0.19
780.863	0.35
781.038	0.5
781.212	0.27
781.387	0.39
781.562	0.52
781.737	0.16
781.911	0.58
782.086	0.07
782.261	0.32
782.435	0.48
782.61	0.22
782.784	0.42
782.959	0.54
783.134	0.15
783.308	0.22
783.483	0.32
783.657	0.83
783.832	0.51
784.006	-0.05
784.181	0.26
784.355	0.62
784.53	0.27
784.704	0.16
784.878	0.79
785.053	0.53
785.227	0.76
785.402	0.49
785.576	0.01
785.75	0.49
785.925	0.29
786.099	0.24
786.273	0.46
786.448	0.58
786.622	0.78
786.796	0.15
786.97	0.41
787.145	0.98
787.319	-0.03
787.493	0.32
787.667	-0.02
787.841	0.27
788.015	0.68
788.19	0.16
788.364	0.31
788.538	0.54
788.712	0.52
788.886	0.23
789.06	0.46
789.234	0.54
789.408	0.08
789.582	0.26
789.756	0.24
789.93	0.18
790.104	0.37
790.278	0.33
790.452	0.04
790.626	0.58
790.8	0.29
790.973	0.61
791.147	0.64
791.321	0.67
791.495	0.53
791.669	0.31
791.843	0.63
792.016	0.44
792.19	0.83
792.364	0.2
792.538	0.95
792.711	0.58
792.885	0.17
793.059	0.08
793.233	-0.15
793.406	0.75
793.58	0.36
793.754	0.38
793.927	0.28
794.101	0.86
794.274	0.42
794.448	0.45
794.622	0.1
794.795	0.74
794.969	0.39
795.142	0.68
795.316	0.39
795.489	0.33
795.663	0.91
795.836	0.72
796.009	-0.01
796.183	0.64
796.356	0.6
796.53	0.51
796.703	0.47
796.876	0.88
797.05	0.19
797.223	0.32
797.396	0.27
797.57	0.32
797.743	0.77
797.916	0.5
798.09	0.47
798.263	0.56
798.436	0.45
798.609	0.13
798.782	0.12
798.956	0.64
799.129	0.25
799.302	0.23
799.475	0.28
799.648	0.41
799.821	0.07
799.994	0.32
800.167	-0.12
800.34	0.24
800.514	0.57
800.687	0.49
800.86	0.19
801.033	0.59
801.206	0.25
801.379	0.21
801.551	0.7
801.724	0.88
801.897	0.85
802.07	0.42
802.243	0.08
802.416	0.62
802.589	0.37
802.762	0.6
802.935	0.51
803.107	0.79
803.28	0.66
803.453	0.5
803.626	0.06
803.798	0.74
803.971	0.29
804.144	0.51
804.317	0.33
804.489	0.56
804.662	0.57
804.835	0.46
805.007	0.28
805.18	0.89
805.353	0.77
805.525	0.03
805.698	0.28
805.87	0.74
806.043	0.7
806.215	0.01
806.388	0.04
806.56	0.65
806.733	0.87
806.905	0.54
807.078	0.23
807.25	0.23
807.423	0.6
807.595	0.41
807.768	0.6
807.94	0.71
808.112	0.77
808.285	0.25
808.457	0.11
808.629	0.51
808.802	0.93
808.974	0.32
809.146	0.08
809.318	-0.09
809.491	0.34
809.663	0.62
809.835	0.41
810.007	0.5
810.18	0.62
810.352	-0.21
810.524	0.2
810.696	0.69
810.868	0.87
811.04	0.12
811.212	0.53
811.384	1.12
811.556	0.44
811.728	0.65
811.901	1.4
812.073	0.56
812.245	0.62
812.417	0.47
812.589	-0.01
812.76	0.41
812.932	0.52
813.104	0.72
813.276	0.38
813.448	0.88
813.62	0.45
813.792	0.42
813.964	0.54
814.136	0.25
814.307	0.19
814.479	0.29
814.651	0.04
814.823	1.25
814.995	0.67
815.166	0.45
815.338	0.38
815.51	0.12
815.681	1.66
815.853	0.99
816.025	0.22
816.196	1.05
816.368	0.88
816.54	-0.12
816.711	0.85
816.883	0.71
817.054	1.49
817.226	-0.3
817.398	0.97
817.569	-0.01
817.741	1.08
817.912	0.2
818.084	0.14
818.255	0.88
818.426	0.68
818.598	0.42
818.769	-0.04
818.941	0.63
819.112	1.19
819.283	0.94
819.455	-0.13
819.626	0.7
819.798	0.81
819.969	0.33
820.14	0.34
820.311	0.19
820.483	1.04
820.654	0.79
820.825	0.4
820.996	0.28
821.168	0.09
821.339	0.18
821.51	-0.15
821.681	0.08
821.852	0.69
822.023	0.2
822.195	0.5
822.366	1.07
822.537	0.59
822.708	1.24
822.879	0.32
823.05	1.39
823.221	0.3
823.392	0.63
823.563	0.45
823.734	0.43
823.905	0.26
824.076	0.15
824.247	0.14
824.418	0.67
824.589	1.13
824.759	1.04
824.93	0.84
825.101	0.25
825.272	1.39
825.443	1.12
825.614	1.01
825.784	-0.24
825.955	2.16
826.126	1.66
826.297	0.54
826.467	1.42
826.638	1.34
826.809	0.44
826.98	0.94
827.15	1.49
827.321	0.6
827.492	0.97
827.662	0.34
827.833	2.44
828.003	1.42
828.174	-0.14
828.345	-0.43
828.515	1.87
828.686	1.25
828.856	0.27
829.027	-0.03
829.197	0.92
829.368	1.22
829.538	0.77
829.709	0.23
829.879	1.24
830.049	1.3
830.22	0.13
830.39	0.47
830.56	1.31
830.731	0.47
830.901	0.21
831.072	0.66
831.242	0.4
831.412	0.63
831.582	0.71
831.753	-0.26
831.923	1.37
832.093	0.9
832.263	0.54
832.434	-0.32
832.604	0.16
832.774	1.1
832.944	0.62
833.114	0.17
833.284	1.18
833.454	0.41
833.624	0.7
833.795	0.68
833.965	2.45
834.135	1.33
834.305	-0.58
834.475	-0.18
834.645	0.45
834.815	0.49
834.985	0.57
835.155	0
835.325	1.29
835.494	1.39
835.664	0.74
835.834	0.62
836.004	1.15
836.174	0.63
836.344	0.94
836.514	0.01
836.684	0.54
836.853	1.2
837.023	0.82
837.193	-0.15
837.363	1.47
837.532	0.92
837.702	1.14
837.872	0.03
838.041	2
838.211	2.38
838.381	-0.03
838.55	0.27
838.72	3.19
838.89	1.63
839.059	0.12
839.229	-0.11
839.398	2.78
839.568	0.93
839.738	0.68
839.907	1.7
840.077	1.13
840.246	0.28
840.416	0.22
840.585	0.33
840.755	2.21
840.924	1.98
841.093	-0.05
841.263	-0.14
841.432	1.43
841.602	0.18
841.771	-0.21
841.94	0.94
842.11	3.38
842.279	1.93
842.448	0.01
842.617	0.14
842.787	2.06
842.956	-0.08
843.125	1.39
843.294	0.85
843.464	2.46
843.633	1.49
843.802	0.03
843.971	0.31
844.14	1.05
844.309	1.53
844.479	0.01
844.648	-0.96
844.817	0.24
844.986	0.9
845.155	0.05
845.324	0.26
845.493	0.47
845.662	0.55
845.831	1.55
846	0.32
846.169	0.34
846.338	2.62
846.507	1.01
846.676	0.21
846.844	0.11
847.013	1.57
847.182	0.75
847.351	0.48
847.52	0.77
847.689	2.18
847.858	0.58
848.026	0.16
848.195	0.9
848.364	1.16
848.533	-0.72
848.701	0.39
848.87	1.35
849.039	2.83
849.207	1.69
849.376	2.03
849.545	3.24
849.713	0.75
849.882	1.02
850.051	1.08
850.219	0.73
850.388	1.8
850.556	0.92
850.725	0.86
850.893	2.05
851.062	0.58
851.23	2.02
851.399	0.28
851.567	0.35
851.736	0.65
851.904	0.41
852.073	0.63
852.241	2.05
852.41	1.67
852.578	0.27
852.746	0.29
852.915	3.21
853.083	1.1
853.251	-0.22
853.42	1.04
853.588	1.13
853.756	2.66
853.924	0.96
854.093	0.58
854.261	0.77
854.429	-0.45
854.597	1.17
854.765	0.4
854.934	2.05
855.102	1.98
855.27	1.21
855.438	1.62
855.606	1.63
855.774	3.28
855.942	-0.25
856.11	-0.62
856.278	1.29
856.446	2.39
856.614	1.26
856.782	0.1
856.95	2.06
857.118	2.35
857.286	1.1
857.454	0.75
857.622	2.28
857.79	2.76
857.958	0.39
858.126	0.78
858.294	-1.22
858.462	1.35
858.629	0.35
858.797	0.14
858.965	1.87
859.133	1.28
859.301	1.4
859.468	2.85
859.636	1.48
859.804	2.68
859.971	0.98
860.139	-0.02
860.307	1.88
860.474	1.46
860.642	-0.51
860.81	0.17
860.977	0.43
861.145	3.56
861.313	1.99
861.48	1.65
861.648	2.35
861.815	2.25
861.983	-1.18
862.15	0.19
862.318	2.21
862.485	2.45
862.653	1.1
862.82	-0.48
862.988	3.06
863.155	2.24
863.322	0.39
863.49	0.12
863.657	0.53
863.824	4.52
863.992	1.73
864.159	1.24
864.326	2.57
864.494	-0.2
864.661	3.7
864.828	0.25
864.996	3.64
865.163	3.42
865.33	1.15
865.497	-1.36
865.664	1.73
865.832	-0.48
865.999	0.6
866.166	-0.12
866.333	0.73
866.5	1.7
866.667	-0.18
866.834	2.21
867.001	4.28
867.168	-0.54
867.335	1.58
867.502	-0.03
867.669	2.8
867.836	3.42
868.003	1.94
868.17	2.7
868.337	2.81
868.504	3.25
868.671	-0.4
868.838	-0.2
869.005	2.02
869.172	2.22
869.339	2.6
869.505	1.67
869.672	0.85
869.839	2.56
870.006	2.23
870.173	-0.52
870.339	2.33
870.506	3.86
870.673	-0.71
870.84	4.13
871.006	2.3
871.173	1.38
871.34	1.48
871.506	-1.54
871.673	1.57
871.839	0.76
872.006	1.06
872.173	0.01
872.339	1.68
872.506	2.89
872.672	1.01
872.839	-1.29
873.005	1.78
873.172	2.08
873.338	3.75
873.505	1.89
873.671	3.8
873.838	2.55
874.004	-1.04
874.171	-0.84
874.337	1.5
874.503	3.3
874.67	0.72
874.836	2.07
875.002	4.4
875.169	3.66
875.335	1.91
875.501	0.63
875.668	1.6
875.834	2.3
876	-0.52
876.166	4.57
876.332	1.72
876.499	5.97
876.665	0.14
876.831	1.64
876.997	6.66
877.163	3.96
877.329	2.94
877.495	3.36
877.662	1.75
877.828	2.32
877.994	2.48
878.16	-1.43
878.326	0.57
878.492	4.62
878.658	1.61
878.824	2.54
878.99	3.34
879.156	-0.32
879.322	4.66
879.487	2.01
879.653	2.14
879.819	2.03
879.985	1.59
880.151	2.64
880.317	2.2
880.483	3.25
880.648	2.07
880.814	0.14
880.98	2.83
881.146	-1.66
881.312	0.6
881.477	2.51
881.643	1.67
881.809	2.16
881.974	3
882.14	-0.21
882.306	3.68
882.471	6.51
882.637	-1.02
882.803	3.1
882.968	4.84
883.134	6.88
883.299	1.15
883.465	1.92
883.63	3.69
883.796	2.96
883.961	2.24
884.127	2.3
884.292	-2.29
884.458	-0.63
884.623	-0.63
