Data from Apollo_Calib_20240827__AbsoluteIrradiance__795__12-24-01-351.txt Node

Date: Wed Aug 28 12:24:01 BST 2024
User: biology
Spectrometer: FLMT08252
Trigger mode: 0
Integration Time (sec): 5.000000E-1
Scans to average: 5
Electric dark correction enabled: true
Nonlinearity correction enabled: false
Boxcar width: 0
XAxis mode: Wavelengths
Number of Pixels in Spectrum: 3648
>>>>>Begin Spectral Data<<<<<
179.588	-0
179.809	-0
180.03	-0
180.251	-0
180.473	-0
180.694	0
180.915	0
181.136	-0
181.357	0
181.578	-0
181.799	-0
182.02	-0
182.241	0
182.462	0
182.683	0
182.904	-0
183.125	-0
183.346	0
183.567	0
183.788	0
184.009	0
184.23	0
184.451	0
184.672	0
184.892	0
185.113	0
185.334	0
185.555	0
185.776	0
185.996	0
186.217	0
186.438	0
186.659	0
186.879	0
187.1	0
187.321	0
187.541	0
187.762	0
187.983	0
188.203	0
188.424	0
188.644	0
188.865	0
189.086	0
189.306	0
189.527	0
189.747	0
189.968	0
190.188	0
190.409	0
190.629	0
190.849	0
191.07	0
191.29	0
191.511	0
191.731	0
191.951	0
192.172	0
192.392	0
192.612	0
192.833	0
193.053	0
193.273	0
193.493	0
193.714	0
193.934	0
194.154	0
194.374	0
194.594	0
194.815	0
195.035	0
195.255	0
195.475	0
195.695	0
195.915	0
196.135	0
196.355	0
196.575	0
196.795	0
197.015	0
197.235	0
197.455	0
197.675	0
197.895	0
198.115	0
198.335	0
198.555	0
198.775	0
198.995	0
199.214	0
199.434	0
199.654	0
199.874	0
200.094	3.59
200.313	2.16
200.533	1.47
200.753	0.85
200.973	3.81
201.192	2.77
201.412	1.64
201.632	1.58
201.851	3.49
202.071	1.69
202.291	1.65
202.51	0.86
202.73	2.53
202.95	2.12
203.169	1.19
203.389	1.72
203.608	1.99
203.828	1.72
204.047	1.8
204.267	2.22
204.486	2.05
204.706	2.13
204.925	1.38
205.145	1.17
205.364	2.34
205.583	2.47
205.803	1.21
206.022	0.71
206.242	1.52
206.461	1.39
206.68	1.61
206.9	1.59
207.119	2.31
207.338	2.09
207.557	1.23
207.777	0.94
207.996	1.47
208.215	2.32
208.434	0.87
208.654	0.85
208.873	1.31
209.092	2.12
209.311	1.03
209.53	0.98
209.749	1.1
209.968	0.91
210.187	0.91
210.407	0.73
210.626	1.19
210.845	1.44
211.064	0.99
211.283	0.72
211.502	1.67
211.721	1.17
211.94	0.72
212.159	1.52
212.377	1.25
212.596	1.31
212.815	0.93
213.034	0.95
213.253	1.53
213.472	1.39
213.691	0.93
213.91	0.74
214.128	0.69
214.347	1.21
214.566	0.59
214.785	0.41
215.003	1.19
215.222	1.11
215.441	0.85
215.66	0.53
215.878	0.89
216.097	1.33
216.316	0.62
216.534	0.84
216.753	0.88
216.972	0.62
217.19	0.83
217.409	0.63
217.627	0.76
217.846	0.64
218.064	0.87
218.283	0.57
218.501	1.3
218.72	1.01
218.938	0.57
219.157	0.68
219.375	1.21
219.594	1
219.812	0.31
220.031	0.51
220.249	1.14
220.467	1.16
220.686	0.55
220.904	0.43
221.122	0.7
221.341	1.15
221.559	0.64
221.777	0.5
221.995	0.76
222.214	0.93
222.432	0.53
222.65	1.01
222.868	0.79
223.086	0.78
223.305	0.94
223.523	0.55
223.741	1.13
223.959	0.56
224.177	0.38
224.395	0.61
224.613	0.82
224.831	0.9
225.049	0.45
225.267	0.58
225.485	0.78
225.703	0.68
225.921	0.51
226.139	0.44
226.357	0.79
226.575	0.73
226.793	0.49
227.011	1.54
227.229	0.64
227.447	0.89
227.665	0.43
227.883	0.39
228.1	0.56
228.318	0.55
228.536	0.23
228.754	0.39
228.972	0.77
229.189	0.68
229.407	0.51
229.625	0.52
229.843	0.82
230.06	0.72
230.278	0.49
230.496	0.58
230.713	0.65
230.931	0.71
231.149	0.45
231.366	0.3
231.584	0.7
231.801	1.01
232.019	0.42
232.236	0.4
232.454	0.41
232.671	0.7
232.889	0.52
233.106	0.36
233.324	0.46
233.541	0.47
233.759	0.44
233.976	0.34
234.194	0.5
234.411	0.52
234.628	0.2
234.846	0.43
235.063	0.52
235.28	0.57
235.498	0.49
235.715	0.35
235.932	0.71
236.149	0.62
236.367	0.38
236.584	0.46
236.801	0.39
237.018	0.59
237.236	0.53
237.453	0.23
237.67	0.68
237.887	0.42
238.104	0.46
238.321	0.36
238.538	0.38
238.755	0.67
238.973	0.28
239.19	0.43
239.407	0.54
239.624	0.54
239.841	0.36
240.058	0.3
240.275	0.42
240.492	0.42
240.709	0.32
240.925	0.41
241.142	0.46
241.359	0.31
241.576	0.31
241.793	0.34
242.01	0.52
242.227	0.65
242.444	0.49
242.66	0.52
242.877	0.4
243.094	0.4
243.311	0.48
243.527	0.45
243.744	0.58
243.961	0.62
244.178	0.32
244.394	0.39
244.611	0.62
244.828	0.54
245.044	0.22
245.261	0.42
245.477	0.41
245.694	0.58
245.911	0.28
246.127	0.45
246.344	0.64
246.56	0.54
246.777	0.35
246.993	0.41
247.21	0.45
247.426	0.65
247.643	0.33
247.859	0.28
248.076	0.36
248.292	0.69
248.508	0.24
248.725	0.36
248.941	0.49
249.157	0.59
249.374	0.42
249.59	0.34
249.806	0.39
250.023	0.52
250.239	0.31
250.455	0.34
250.671	0.44
250.888	0.48
251.104	0.46
251.32	0.36
251.536	0.35
251.752	0.36
251.969	0.42
252.185	0.41
252.401	0.62
252.617	0.44
252.833	0.36
253.049	0.33
253.265	0.4
253.481	0.4
253.697	0.31
253.913	0.29
254.129	0.42
254.345	0.44
254.561	0.41
254.777	0.34
254.993	0.45
255.209	0.39
255.425	0.3
255.641	0.28
255.857	0.52
256.073	0.38
256.288	0.26
256.504	0.36
256.72	0.39
256.936	0.52
257.152	0.32
257.367	0.3
257.583	0.35
257.799	0.52
258.015	0.31
258.23	0.26
258.446	0.57
258.662	0.34
258.877	0.33
259.093	0.28
259.309	0.4
259.524	0.42
259.74	0.3
259.955	0.27
260.171	0.36
260.387	0.35
260.602	0.41
260.818	0.35
261.033	0.24
261.249	0.35
261.464	0.28
261.68	0.17
261.895	0.4
262.11	0.38
262.326	0.32
262.541	0.23
262.757	0.47
262.972	0.45
263.187	0.39
263.403	0.32
263.618	0.48
263.833	0.39
264.049	0.26
264.264	0.28
264.479	0.37
264.694	0.45
264.91	0.26
265.125	0.3
265.34	0.44
265.555	0.51
265.77	0.37
265.986	0.27
266.201	0.37
266.416	0.47
266.631	0.25
266.846	0.27
267.061	0.43
267.276	0.4
267.491	0.21
267.706	0.4
267.921	0.38
268.136	0.32
268.351	0.31
268.566	0.19
268.781	0.48
268.996	0.39
269.211	0.34
269.426	0.27
269.641	0.32
269.856	0.45
270.071	0.23
270.285	0.18
270.5	0.42
270.715	0.44
270.93	0.3
271.145	0.38
271.359	0.43
271.574	0.34
271.789	0.34
272.004	0.24
272.218	0.3
272.433	0.38
272.648	0.22
272.862	0.38
273.077	0.37
273.292	0.36
273.506	0.21
273.721	0.35
273.936	0.34
274.15	0.42
274.365	0.21
274.579	0.35
274.794	0.37
275.008	0.41
275.223	0.2
275.437	0.35
275.652	0.38
275.866	0.34
276.081	0.32
276.295	0.45
276.509	0.34
276.724	0.34
276.938	0.33
277.153	0.31
277.367	0.38
277.581	0.28
277.796	0.29
278.01	0.26
278.224	0.39
278.438	0.42
278.653	0.3
278.867	0.28
279.081	0.37
279.295	0.28
279.51	0.32
279.724	0.19
279.938	0.35
280.152	0.37
280.366	0.27
280.58	0.26
280.794	0.48
281.008	0.34
281.222	0.37
281.437	0.41
281.651	0.32
281.865	0.36
282.079	0.25
282.293	0.13
282.507	0.26
282.721	0.27
282.935	0.26
283.148	0.21
283.362	0.25
283.576	0.25
283.79	0.26
284.004	0.25
284.218	0.44
284.432	0.26
284.646	0.31
284.859	0.21
285.073	0.22
285.287	0.3
285.501	0.24
285.714	0.28
285.928	0.3
286.142	0.35
286.356	0.26
286.569	0.23
286.783	0.42
286.997	0.36
287.21	0.33
287.424	0.26
287.637	0.25
287.851	0.24
288.065	0.36
288.278	0.23
288.492	0.28
288.705	0.24
288.919	0.27
289.132	0.13
289.346	0.33
289.559	0.19
289.773	0.18
289.986	0.22
290.2	0.25
290.413	0.35
290.626	0.22
290.84	0.21
291.053	0.31
291.267	0.36
291.48	0.25
291.693	0.19
291.906	0.26
292.12	0.26
292.333	0.24
292.546	0.25
292.76	0.39
292.973	0.29
293.186	0.29
293.399	0.23
293.612	0.36
293.826	0.25
294.039	0.25
294.252	0.24
294.465	0.32
294.678	0.28
294.891	0.29
295.104	0.18
295.317	0.24
295.53	0.3
295.743	0.26
295.956	0.2
296.169	0.36
296.382	0.34
296.595	0.2
296.808	0.22
297.021	0.37
297.234	0.32
297.447	0.23
297.66	0.3
297.873	0.28
298.086	0.31
298.299	0.18
298.511	0.17
298.724	0.25
298.937	0.18
299.15	0.22
299.363	0.27
299.575	0.34
299.788	0.29
300.001	0.2
300.213	0.19
300.426	0.27
300.639	0.2
300.852	0.21
301.064	0.27
301.277	0.33
301.489	0.29
301.702	0.32
301.915	0.26
302.127	0.25
302.34	0.24
302.552	0.26
302.765	0.18
302.977	0.28
303.19	0.19
303.402	0.25
303.615	0.24
303.827	0.29
304.04	0.23
304.252	0.27
304.464	0.21
304.677	0.38
304.889	0.33
305.102	0.22
305.314	0.2
305.526	0.29
305.739	0.27
305.951	0.21
306.163	0.21
306.375	0.34
306.588	0.23
306.8	0.22
307.012	0.19
307.224	0.27
307.436	0.32
307.649	0.17
307.861	0.26
308.073	0.32
308.285	0.23
308.497	0.16
308.709	0.18
308.921	0.28
309.133	0.33
309.346	0.21
309.558	0.19
309.77	0.28
309.982	0.33
310.194	0.29
310.406	0.2
310.617	0.34
310.829	0.22
311.041	0.31
311.253	0.19
311.465	0.23
311.677	0.24
311.889	0.19
312.101	0.21
312.313	0.31
312.524	0.29
312.736	0.18
312.948	0.17
313.16	0.35
313.372	0.35
313.583	0.28
313.795	0.2
314.007	0.22
314.218	0.31
314.43	0.23
314.642	0.21
314.853	0.17
315.065	0.29
315.277	0.2
315.488	0.25
315.7	0.34
315.912	0.25
316.123	0.22
316.335	0.22
316.546	0.34
316.758	0.21
316.969	0.24
317.181	0.27
317.392	0.26
317.604	0.3
317.815	0.19
318.026	0.21
318.238	0.23
318.449	0.3
318.661	0.18
318.872	0.21
319.083	0.21
319.295	0.29
319.506	0.2
319.717	0.21
319.929	0.3
320.14	0.24
320.351	0.21
320.562	0.19
320.774	0.27
320.985	0.23
321.196	0.19
321.407	0.16
321.618	0.33
321.829	0.28
322.041	0.23
322.252	0.21
322.463	0.26
322.674	0.3
322.885	0.16
323.096	0.25
323.307	0.25
323.518	0.26
323.729	0.23
323.94	0.2
324.151	0.25
324.362	0.28
324.573	0.25
324.784	0.24
324.995	0.33
325.206	0.26
325.417	0.2
325.628	0.18
325.838	0.25
326.049	0.29
326.26	0.27
326.471	0.25
326.682	0.28
326.892	0.28
327.103	0.17
327.314	0.18
327.525	0.32
327.735	0.3
327.946	0.15
328.157	0.21
328.368	0.27
328.578	0.26
328.789	0.28
328.999	0.23
329.21	0.2
329.421	0.28
329.631	0.22
329.842	0.15
330.052	0.27
330.263	0.3
330.473	0.28
330.684	0.19
330.894	0.24
331.105	0.23
331.315	0.23
331.526	0.16
331.736	0.35
331.947	0.27
332.157	0.27
332.367	0.17
332.578	0.3
332.788	0.28
332.999	0.27
333.209	0.2
333.419	0.2
333.629	0.29
333.84	0.29
334.05	0.2
334.26	0.32
334.47	0.24
334.681	0.28
334.891	0.19
335.101	0.27
335.311	0.35
335.521	0.23
335.732	0.16
335.942	0.29
336.152	0.27
336.362	0.3
336.572	0.28
336.782	0.25
336.992	0.26
337.202	0.24
337.412	0.22
337.622	0.25
337.832	0.29
338.042	0.25
338.252	0.19
338.462	0.23
338.672	0.26
338.882	0.2
339.092	0.22
339.302	0.34
339.511	0.27
339.721	0.21
339.931	0.16
340.141	0.36
340.351	0.33
340.561	0.24
340.77	0.27
340.98	0.29
341.19	0.29
341.4	0.26
341.609	0.17
341.819	0.22
342.029	0.19
342.238	0.26
342.448	0.2
342.658	0.29
342.867	0.24
343.077	0.2
343.286	0.25
343.496	0.28
343.706	0.37
343.915	0.16
344.125	0.2
344.334	0.27
344.544	0.18
344.753	0.18
344.963	0.21
345.172	0.23
345.381	0.24
345.591	0.19
345.8	0.2
346.01	0.3
346.219	0.28
346.428	0.13
346.638	0.21
346.847	0.24
347.056	0.29
347.266	0.18
347.475	0.18
347.684	0.28
347.893	0.3
348.103	0.25
348.312	0.19
348.521	0.24
348.73	0.26
348.94	0.26
349.149	0.22
349.358	0.24
349.567	0.23
349.776	0.13
349.985	0.17
350.194	0.31
350.403	0.29
350.612	0.2
350.821	0.2
351.03	0.26
351.239	0.17
351.448	0.23
351.657	0.21
351.866	0.3
352.075	0.25
352.284	0.2
352.493	0.17
352.702	0.29
352.911	0.24
353.12	0.26
353.329	0.19
353.538	0.27
353.746	0.21
353.955	0.17
354.164	0.27
354.373	0.22
354.582	0.33
354.79	0.2
354.999	0.28
355.208	0.23
355.416	0.32
355.625	0.15
355.834	0.23
356.042	0.3
356.251	0.21
356.46	0.2
356.668	0.28
356.877	0.36
357.085	0.27
357.294	0.16
357.503	0.26
357.711	0.26
357.92	0.46
358.128	0.24
358.337	0.24
358.545	0.25
358.754	0.19
358.962	0.34
359.17	0.24
359.379	0.24
359.587	0.23
359.796	0.24
360.004	0.25
360.212	0.31
360.421	0.31
360.629	0.23
360.837	0.21
361.046	0.3
361.254	0.37
361.462	0.24
361.67	0.18
361.879	0.25
362.087	0.28
362.295	0.27
362.503	0.19
362.711	0.19
362.92	0.23
363.128	0.21
363.336	0.18
363.544	0.2
363.752	0.26
363.96	0.22
364.168	0.19
364.376	0.24
364.584	0.31
364.792	0.29
365	0.29
365.208	0.27
365.416	0.27
365.624	0.31
365.832	0.2
366.04	0.3
366.248	0.25
366.456	0.24
366.664	0.28
366.872	0.25
367.079	0.29
367.287	0.24
367.495	0.25
367.703	0.23
367.911	0.22
368.118	0.25
368.326	0.23
368.534	0.18
368.742	0.31
368.949	0.19
369.157	0.2
369.365	0.28
369.572	0.25
369.78	0.16
369.988	0.29
370.195	0.26
370.403	0.26
370.61	0.24
370.818	0.23
371.026	0.35
371.233	0.22
371.441	0.22
371.648	0.22
371.856	0.24
372.063	0.28
372.271	0.22
372.478	0.19
372.685	0.21
372.893	0.28
373.1	0.23
373.308	0.19
373.515	0.39
373.722	0.3
373.93	0.23
374.137	0.26
374.344	0.33
374.552	0.29
374.759	0.27
374.966	0.27
375.173	0.24
375.381	0.33
375.588	0.22
375.795	0.16
376.002	0.25
376.209	0.23
376.417	0.27
376.624	0.24
376.831	0.33
377.038	0.19
377.245	0.11
377.452	0.18
377.659	0.27
377.866	0.23
378.073	0.23
378.28	0.28
378.487	0.31
378.694	0.29
378.901	0.24
379.108	0.24
379.315	0.31
379.522	0.41
379.729	0.25
379.936	0.27
380.143	0.29
380.35	0.23
380.557	0.23
380.763	0.25
380.97	0.24
381.177	0.25
381.384	0.25
381.591	0.22
381.797	0.26
382.004	0.33
382.211	0.29
382.418	0.23
382.624	0.28
382.831	0.31
383.038	0.25
383.244	0.27
383.451	0.26
383.658	0.32
383.864	0.23
384.071	0.19
384.277	0.34
384.484	0.27
384.69	0.37
384.897	0.3
385.103	0.25
385.31	0.26
385.516	0.24
385.723	0.2
385.929	0.26
386.136	0.22
386.342	0.32
386.549	0.21
386.755	0.3
386.961	0.34
387.168	0.27
387.374	0.25
387.58	0.35
387.787	0.34
387.993	0.27
388.199	0.26
388.406	0.22
388.612	0.26
388.818	0.25
389.024	0.25
389.231	0.28
389.437	0.38
389.643	0.35
389.849	0.26
390.055	0.32
390.261	0.24
390.467	0.35
390.674	0.23
390.88	0.25
391.086	0.31
391.292	0.22
391.498	0.31
391.704	0.34
391.91	0.27
392.116	0.26
392.322	0.19
392.528	0.27
392.734	0.28
392.94	0.28
393.146	0.28
393.352	0.28
393.557	0.26
393.763	0.29
393.969	0.37
394.175	0.29
394.381	0.31
394.587	0.23
394.792	0.26
394.998	0.37
395.204	0.3
395.41	0.28
395.615	0.33
395.821	0.36
396.027	0.34
396.233	0.28
396.438	0.33
396.644	0.37
396.85	0.3
397.055	0.3
397.261	0.33
397.466	0.32
397.672	0.32
397.878	0.38
398.083	0.34
398.289	0.26
398.494	0.38
398.7	0.35
398.905	0.24
399.111	0.46
399.316	0.27
399.522	0.31
399.727	0.35
399.932	0.33
400.138	0.3
400.343	0.34
400.549	0.32
400.754	0.35
400.959	0.37
401.165	0.31
401.37	0.33
401.575	0.48
401.78	0.36
401.986	0.33
402.191	0.34
402.396	0.39
402.601	0.45
402.807	0.41
403.012	0.37
403.217	0.46
403.422	0.42
403.627	0.43
403.832	0.37
404.037	0.48
404.243	0.44
404.448	0.33
404.653	0.44
404.858	0.4
405.063	0.48
405.268	0.39
405.473	0.35
405.678	0.39
405.883	0.61
406.088	0.51
406.293	0.35
406.498	0.39
406.703	0.52
406.907	0.48
407.112	0.42
407.317	0.51
407.522	0.57
407.727	0.48
407.932	0.49
408.136	0.69
408.341	0.53
408.546	0.52
408.751	0.55
408.956	0.56
409.16	0.67
409.365	0.58
409.57	0.6
409.774	0.59
409.979	0.65
410.184	0.64
410.388	0.61
410.593	0.74
410.798	0.71
411.002	0.73
411.207	0.72
411.411	0.75
411.616	0.69
411.82	0.77
412.025	0.8
412.229	0.79
412.434	0.93
412.638	0.8
412.843	0.82
413.047	0.94
413.252	0.91
413.456	0.94
413.66	0.98
413.865	0.93
414.069	1.13
414.273	1.06
414.478	1.06
414.682	1.1
414.886	1.17
415.091	1.12
415.295	1.13
415.499	1.32
415.703	1.3
415.908	1.31
416.112	1.23
416.316	1.45
416.52	1.42
416.724	1.42
416.929	1.48
417.133	1.72
417.337	1.54
417.541	1.68
417.745	1.72
417.949	1.86
418.153	1.86
418.357	1.89
418.561	2.1
418.765	2.08
418.969	2.2
419.173	2.23
419.377	2.22
419.581	2.42
419.785	2.43
419.989	2.42
420.193	2.59
420.397	2.64
420.601	2.81
420.804	2.87
421.008	2.84
421.212	3.01
421.416	3
421.62	2.94
421.823	3.03
422.027	3.23
422.231	3.17
422.435	3.13
422.638	3.33
422.842	3.36
423.046	3.49
423.249	3.63
423.453	3.67
423.657	3.76
423.86	3.81
424.064	3.96
424.268	4.16
424.471	4.11
424.675	4.34
424.878	4.34
425.082	4.44
425.285	4.72
425.489	4.66
425.692	4.72
425.896	4.83
426.099	4.99
426.303	5.09
426.506	5.24
426.71	5.53
426.913	5.66
427.116	5.86
427.32	5.84
427.523	6
427.726	6.28
427.93	6.38
428.133	6.62
428.336	6.79
428.54	6.83
428.743	7.15
428.946	7.38
429.149	7.4
429.353	7.37
429.556	7.49
429.759	7.54
429.962	7.67
430.165	7.81
430.368	7.54
430.571	7.54
430.775	7.63
430.978	7.54
431.181	7.7
431.384	7.66
431.587	7.81
431.79	8.2
431.993	8.23
432.196	8.47
432.399	8.87
432.602	8.93
432.805	9.09
433.008	9.56
433.211	9.42
433.414	9.83
433.616	9.83
433.819	9.79
434.022	9.9
434.225	10.12
434.428	10.17
434.631	10.65
434.833	10.36
435.036	10.65
435.239	10.83
435.442	10.81
435.645	11
435.847	11.04
436.05	11.42
436.253	11.58
436.455	11.69
436.658	11.52
436.861	11.93
437.063	11.95
437.266	11.81
437.468	12.39
437.671	12.58
437.874	12.54
438.076	12.5
438.279	12.93
438.481	13.02
438.684	13.61
438.886	13.18
439.089	13.56
439.291	13.57
439.494	13.92
439.696	14.07
439.899	14.64
440.101	15.03
440.303	15.12
440.506	15.9
440.708	15.62
440.91	15.75
441.113	16.09
441.315	16.25
441.517	16.11
441.72	16.59
441.922	16.37
442.124	16.13
442.326	16.55
442.529	16.86
442.731	16.78
442.933	16.95
443.135	16.97
443.337	16.87
443.539	17.39
443.742	17.02
443.944	17.75
444.146	17.49
444.348	17.38
444.55	17.41
444.752	17.59
444.954	17.71
445.156	17.65
445.358	17.94
445.56	18.23
445.762	18.05
445.964	18.43
446.166	18.03
446.368	18.22
446.57	18.07
446.772	17.76
446.974	17.56
447.175	17.99
447.377	17.69
447.579	18.2
447.781	17.7
447.983	17.56
448.184	17.06
448.386	17.56
448.588	17.09
448.79	17.1
448.991	17.57
449.193	17.52
449.395	16.89
449.597	16.44
449.798	16.45
450	15.99
450.202	15.94
450.403	16.05
450.605	15.9
450.806	15.52
451.008	15.44
451.21	15.2
451.411	14.8
451.613	14.19
451.814	14.31
452.016	14.27
452.217	13.62
452.419	13.65
452.62	13.41
452.821	13.1
453.023	12.98
453.224	12.68
453.426	12.26
453.627	11.54
453.828	11.63
454.03	11.61
454.231	11.73
454.432	11.52
454.634	11.3
454.835	10.95
455.036	10.84
455.238	10.45
455.439	10.18
455.64	10.01
455.841	9.82
456.042	10.02
456.244	9.66
456.445	9.4
456.646	9.01
456.847	9.01
457.048	8.88
457.249	8.87
457.45	8.74
457.651	8.06
457.852	7.99
458.054	7.6
458.255	7.49
458.456	7.69
458.657	7.61
458.858	6.95
459.058	7.04
459.259	7.12
459.46	6.8
459.661	6.76
459.862	6.78
460.063	6.65
460.264	6.6
460.465	6.28
460.666	6.39
460.866	6.09
461.067	5.68
461.268	5.85
461.469	5.71
461.67	5.61
461.87	5.39
462.071	5.47
462.272	5.44
462.473	5.33
462.673	5.48
462.874	5.36
463.075	5.33
463.275	5.31
463.476	5.42
463.676	5.28
463.877	5.15
464.078	5.17
464.278	5.21
464.479	5.07
464.679	5.03
464.88	4.93
465.08	4.92
465.281	4.68
465.481	4.52
465.682	4.35
465.882	4.37
466.083	4.24
466.283	4.23
466.483	4.1
466.684	3.89
466.884	3.86
467.085	3.84
467.285	3.89
467.485	3.77
467.686	3.73
467.886	3.62
468.086	3.57
468.286	3.51
468.487	3.6
468.687	3.45
468.887	3.4
469.087	3.56
469.287	3.45
469.488	3.24
469.688	3.38
469.888	3.43
470.088	3.26
470.288	3.21
470.488	3.23
470.688	3
470.888	3.09
471.088	2.79
471.288	2.97
471.488	2.96
471.688	2.83
471.888	2.8
472.088	3.05
472.288	2.84
472.488	2.76
472.688	2.67
472.888	2.77
473.088	2.76
473.288	2.67
473.488	2.67
473.688	2.74
473.887	2.57
474.087	2.57
474.287	2.56
474.487	2.52
474.687	2.55
474.886	2.47
475.086	2.47
475.286	2.45
475.486	2.41
475.685	2.37
475.885	2.32
476.085	2.34
476.284	2.41
476.484	2.37
476.684	2.32
476.883	2.37
477.083	2.27
477.282	2.22
477.482	2.31
477.681	2.24
477.881	2.13
478.08	2.16
478.28	2.11
478.479	2.21
478.679	2.24
478.878	2.16
479.078	2.09
479.277	2.17
479.477	2.15
479.676	2.12
479.875	2.08
480.075	2.06
480.274	2.12
480.473	2.13
480.673	2.1
480.872	2.17
481.071	2.09
481.271	2.12
481.47	2.05
481.669	2.07
481.868	2.02
482.067	2.07
482.267	1.99
482.466	2.03
482.665	2
482.864	2.01
483.063	1.98
483.262	2.05
483.461	2.12
483.661	2.13
483.86	2.04
484.059	2.15
484.258	2.12
484.457	2.11
484.656	2.06
484.855	2.13
485.054	2.01
485.253	2.03
485.452	2.05
485.651	2.12
485.849	2.09
486.048	2.08
486.247	2.07
486.446	2.16
486.645	2.05
486.844	2.12
487.043	2.07
487.241	2.1
487.44	2.13
487.639	2.19
487.838	2.18
488.037	2.16
488.235	2.3
488.434	2.21
488.633	2.08
488.831	2.29
489.03	2.26
489.229	2.26
489.427	2.22
489.626	2.29
489.825	2.33
490.023	2.33
490.222	2.31
490.42	2.35
490.619	2.41
490.817	2.39
491.016	2.34
491.214	2.44
491.413	2.48
491.611	2.37
491.81	2.42
492.008	2.5
492.207	2.51
492.405	2.57
492.604	2.51
492.802	2.53
493	2.62
493.199	2.63
493.397	2.65
493.595	2.73
493.794	2.68
493.992	2.76
494.19	2.78
494.388	2.86
494.587	2.75
494.785	2.78
494.983	2.71
495.181	2.86
495.379	2.93
495.578	2.96
495.776	2.98
495.974	2.91
496.172	2.97
496.37	3.1
496.568	3.08
496.766	3.1
496.964	3.19
497.162	3.17
497.36	3.24
497.558	3.25
497.756	3.29
497.954	3.28
498.152	3.31
498.35	3.45
498.548	3.39
498.746	3.37
498.944	3.39
499.142	3.41
499.34	3.52
499.538	3.58
499.736	3.48
499.933	3.61
500.131	3.6
500.329	3.77
500.527	3.71
500.725	3.82
500.922	3.81
501.12	3.8
501.318	3.91
501.516	3.94
501.713	3.97
501.911	4
502.109	3.92
502.306	4.06
502.504	3.99
502.701	4.09
502.899	4.14
503.097	4.31
503.294	4.17
503.492	4.32
503.689	4.31
503.887	4.37
504.084	4.44
504.282	4.37
504.479	4.35
504.677	4.56
504.874	4.53
505.072	4.4
505.269	4.63
505.466	4.61
505.664	4.7
505.861	4.61
506.059	4.68
506.256	4.79
506.453	4.78
506.651	4.88
506.848	4.94
507.045	4.91
507.242	4.92
507.44	4.95
507.637	5.01
507.834	5.02
508.031	5.1
508.229	5.06
508.426	5.07
508.623	5.22
508.82	5.3
509.017	5.23
509.214	5.22
509.411	5.38
509.608	5.3
509.805	5.48
510.003	5.44
510.2	5.5
510.397	5.66
510.594	5.54
510.791	5.61
510.988	5.6
511.184	5.56
511.381	5.51
511.578	5.63
511.775	5.74
511.972	5.66
512.169	5.79
512.366	5.79
512.563	5.85
512.76	5.9
512.956	5.95
513.153	5.85
513.35	5.82
513.547	5.86
513.744	6.01
513.94	5.95
514.137	6.08
514.334	6.1
514.53	6.06
514.727	6.29
514.924	6.2
515.12	6.19
515.317	6.21
515.514	6.17
515.71	6.12
515.907	6.37
516.103	6.38
516.3	6.24
516.497	6.39
516.693	6.42
516.89	6.39
517.086	6.41
517.283	6.45
517.479	6.3
517.676	6.58
517.872	6.6
518.068	6.61
518.265	6.57
518.461	6.5
518.658	6.68
518.854	6.66
519.05	6.76
519.247	6.75
519.443	6.74
519.639	6.81
519.836	6.67
520.032	6.71
520.228	6.82
520.424	6.81
520.621	6.84
520.817	6.9
521.013	6.86
521.209	7.03
521.405	6.99
521.601	6.96
521.798	6.95
521.994	7.03
522.19	6.87
522.386	6.92
522.582	7.08
522.778	7.18
522.974	7.08
523.17	7.06
523.366	7.03
523.562	7.11
523.758	7.1
523.954	6.96
524.15	7.16
524.346	7.23
524.542	7.23
524.738	7.15
524.934	7.28
525.129	7.15
525.325	7.15
525.521	7.21
525.717	7.47
525.913	7.28
526.109	7.29
526.304	7.41
526.5	7.38
526.696	7.36
526.892	7.33
527.087	7.55
527.283	7.48
527.479	7.41
527.674	7.26
527.87	7.43
528.066	7.42
528.261	7.44
528.457	7.41
528.653	7.56
528.848	7.54
529.044	7.59
529.239	7.52
529.435	7.47
529.63	7.47
529.826	7.54
530.021	7.5
530.217	7.56
530.412	7.55
530.608	7.5
530.803	7.54
530.999	7.51
531.194	7.56
531.389	7.63
531.585	7.63
531.78	7.77
531.975	7.65
532.171	7.73
532.366	7.74
532.561	7.78
532.757	7.65
532.952	7.83
533.147	7.61
533.342	7.7
533.538	7.56
533.733	7.93
533.928	7.51
534.123	7.67
534.318	7.83
534.513	7.7
534.709	7.8
534.904	7.77
535.099	7.8
535.294	7.83
535.489	7.86
535.684	7.73
535.879	7.76
536.074	7.85
536.269	7.85
536.464	7.85
536.659	7.74
536.854	7.85
537.049	7.91
537.244	7.88
537.439	7.86
537.634	7.89
537.828	7.89
538.023	7.82
538.218	7.87
538.413	7.8
538.608	7.91
538.803	7.89
538.997	7.87
539.192	7.92
539.387	7.9
539.582	7.88
539.776	7.81
539.971	7.91
540.166	8.01
540.36	7.87
540.555	8.04
540.75	7.92
540.944	7.92
541.139	7.98
541.334	7.91
541.528	7.96
541.723	8.03
541.917	8.06
542.112	7.88
542.306	7.84
542.501	7.88
542.695	7.96
542.89	7.82
543.084	7.92
543.279	8
543.473	8
543.668	8.04
543.862	7.82
544.056	7.85
544.251	8.06
544.445	8.05
544.64	8.1
544.834	7.8
545.028	7.64
545.222	7.95
545.417	8.14
545.611	8.07
545.805	8.01
546	7.85
546.194	8.02
546.388	8.07
546.582	7.95
546.776	7.96
546.97	8.02
547.165	8.02
547.359	8.01
547.553	7.93
547.747	7.98
547.941	8.18
548.135	8.03
548.329	8.08
548.523	8.08
548.717	7.96
548.911	7.93
549.105	8.03
549.299	8.06
549.493	8.01
549.687	8.04
549.881	8.1
550.075	8.01
550.269	7.91
550.463	8.14
550.657	8.08
550.85	7.99
551.044	7.96
551.238	8.1
551.432	8.05
551.626	8.11
551.82	8.12
552.013	7.94
552.207	8.14
552.401	8.19
552.594	8.04
552.788	8
552.982	8.04
553.176	7.94
553.369	8.21
553.563	8.12
553.756	7.98
553.95	8.1
554.144	8.1
554.337	8.15
554.531	7.89
554.724	8.14
554.918	8.18
555.111	8.03
555.305	8.06
555.498	8.1
555.692	8.21
555.885	8.16
556.079	8.03
556.272	8.04
556.466	8.11
556.659	8.05
556.852	8.07
557.046	8
557.239	7.9
557.432	8.03
557.626	8.05
557.819	8.09
558.012	8.09
558.206	8.17
558.399	8.08
558.592	8.04
558.785	7.95
558.979	8.11
559.172	8.09
559.365	8.03
559.558	7.97
559.751	7.99
559.944	8.2
560.138	8.08
560.331	8.11
560.524	8.06
560.717	8.02
560.91	8.02
561.103	8.13
561.296	7.9
561.489	8.08
561.682	8.16
561.875	8.08
562.068	8.16
562.261	8
562.454	8.2
562.647	8.06
562.84	8.07
563.032	8.07
563.225	7.98
563.418	8.04
563.611	8.11
563.804	8.18
563.997	7.95
564.19	7.84
564.382	8.13
564.575	8.07
564.768	8.01
564.961	8.11
565.153	8.03
565.346	7.95
565.539	8.16
565.731	8.09
565.924	8.13
566.117	8.19
566.309	8.09
566.502	8.05
566.695	8.01
566.887	8.12
567.08	8.01
567.272	8.11
567.465	7.91
567.657	8.02
567.85	7.92
568.042	8.13
568.235	8.06
568.427	7.92
568.62	8.02
568.812	8
569.005	8.02
569.197	8.01
569.389	8.03
569.582	8.02
569.774	8.01
569.966	7.96
570.159	7.93
570.351	7.91
570.543	7.95
570.736	7.93
570.928	7.8
571.12	8.03
571.312	7.94
571.505	7.68
571.697	8.01
571.889	7.97
572.081	7.99
572.273	7.86
572.465	7.92
572.658	7.96
572.85	7.96
573.042	7.95
573.234	7.87
573.426	7.87
573.618	7.83
573.81	7.9
574.002	7.91
574.194	7.94
574.386	7.85
574.578	7.72
574.77	7.89
574.962	7.96
575.154	7.71
575.346	7.78
575.538	7.76
575.729	7.8
575.921	7.87
576.113	7.92
576.305	7.89
576.497	8.01
576.689	7.63
576.88	7.69
577.072	7.87
577.264	7.81
577.456	7.81
577.647	7.71
577.839	7.95
578.031	7.77
578.223	7.76
578.414	7.63
578.606	7.77
578.798	7.86
578.989	7.76
579.181	7.88
579.372	7.81
579.564	7.79
579.755	7.68
579.947	7.66
580.139	7.75
580.33	7.57
580.522	7.72
580.713	7.66
580.905	7.7
581.096	7.8
581.287	7.6
581.479	7.67
581.67	7.72
581.862	7.58
582.053	7.67
582.244	7.63
582.436	7.77
582.627	7.58
582.818	7.6
583.01	7.55
583.201	7.61
583.392	7.55
583.583	7.55
583.775	7.42
583.966	7.53
584.157	7.58
584.348	7.64
584.54	7.47
584.731	7.52
584.922	7.43
585.113	7.42
585.304	7.5
585.495	7.51
585.686	7.59
585.877	7.58
586.068	7.65
586.259	7.5
586.45	7.4
586.641	7.46
586.832	7.58
587.023	7.48
587.214	7.4
587.405	7.46
587.596	7.32
587.787	7.34
587.978	7.42
588.169	7.31
588.36	7.28
588.551	7.37
588.742	7.39
588.932	7.36
589.123	7.19
589.314	7.47
589.505	7.32
589.696	7.32
589.886	7.29
590.077	7.32
590.268	7.24
590.458	7.16
590.649	7.12
590.84	7.21
591.03	7.19
591.221	7.24
591.412	7.08
591.602	7.29
591.793	7.22
591.984	7.19
592.174	7.14
592.365	7.32
592.555	7.06
592.746	7.11
592.936	7.13
593.127	7.18
593.317	7.16
593.508	7.04
593.698	7.01
593.889	7.07
594.079	7.06
594.269	6.92
594.46	7.01
594.65	7.07
594.84	6.98
595.031	6.86
595.221	6.95
595.411	6.96
595.602	6.9
595.792	6.9
595.982	6.85
596.172	7
596.363	6.86
596.553	6.86
596.743	6.9
596.933	6.79
597.123	6.82
597.314	6.73
597.504	6.76
597.694	6.87
597.884	6.67
598.074	6.81
598.264	6.79
598.454	6.77
598.644	6.69
598.834	6.71
599.024	6.61
599.214	6.66
599.404	6.73
599.594	6.7
599.784	6.56
599.974	6.72
600.164	6.62
600.354	6.51
600.544	6.44
600.734	6.56
600.924	6.56
601.114	6.45
601.303	6.45
601.493	6.5
601.683	6.47
601.873	6.44
602.063	6.4
602.252	6.46
602.442	6.39
602.632	6.34
602.821	6.3
603.011	6.41
603.201	6.43
603.39	6.39
603.58	6.22
603.77	6.33
603.959	6.38
604.149	6.29
604.339	6.3
604.528	6.33
604.718	6.32
604.907	6.2
605.097	6.19
605.286	6.16
605.476	6.19
605.665	6.25
605.855	6.16
606.044	6.28
606.234	6.19
606.423	6.11
606.612	6.07
606.802	6.02
606.991	6.09
607.181	6.16
607.37	6.1
607.559	5.89
607.749	6.04
607.938	5.94
608.127	6.02
608.316	5.98
608.506	5.95
608.695	6.01
608.884	5.97
609.073	5.97
609.263	6.02
609.452	5.97
609.641	5.8
609.83	5.77
610.019	5.9
610.208	5.76
610.397	5.82
610.586	5.85
610.775	5.79
610.965	5.77
611.154	5.62
611.343	5.74
611.532	5.65
611.721	5.79
611.91	5.63
612.099	5.61
612.287	5.58
612.476	5.58
612.665	5.67
612.854	5.47
613.043	5.51
613.232	5.53
613.421	5.52
613.61	5.55
613.798	5.49
613.987	5.49
614.176	5.47
614.365	5.49
614.554	5.51
614.742	5.45
614.931	5.28
615.12	5.53
615.309	5.4
615.497	5.34
615.686	5.27
615.875	5.29
616.063	5.36
616.252	5.29
616.44	5.32
616.629	5.25
616.818	5.22
617.006	5.18
617.195	5.2
617.383	5.21
617.572	5.13
617.76	5.11
617.949	5.14
618.137	5.17
618.326	5.19
618.514	4.96
618.703	4.95
618.891	5.11
619.079	5.02
619.268	5.13
619.456	4.96
619.644	5.1
619.833	5.02
620.021	4.96
620.209	4.88
620.398	4.94
620.586	4.9
620.774	4.96
620.962	4.83
621.151	5.01
621.339	4.88
621.527	4.82
621.715	4.8
621.903	4.82
622.092	4.71
622.28	4.87
622.468	4.64
622.656	4.74
622.844	4.78
623.032	4.75
623.22	4.63
623.408	4.77
623.596	4.73
623.784	4.73
623.972	4.6
624.16	4.65
624.348	4.73
624.536	4.72
624.724	4.5
624.912	4.54
625.1	4.56
625.288	4.53
625.476	4.46
625.664	4.55
625.851	4.42
626.039	4.5
626.227	4.44
626.415	4.41
626.603	4.34
626.79	4.39
626.978	4.41
627.166	4.48
627.354	4.32
627.541	4.32
627.729	4.22
627.917	4.42
628.104	4.38
628.292	4.28
628.48	4.31
628.667	4.19
628.855	4.35
629.042	4.34
629.23	4.15
629.418	4.2
629.605	4.2
629.793	4.14
629.98	4.12
630.168	4.11
630.355	4.11
630.543	4.2
630.73	3.99
630.917	4.05
631.105	4.23
631.292	4.05
631.48	4.03
631.667	4.16
631.854	4.06
632.042	3.96
632.229	3.91
632.416	4.07
632.604	3.95
632.791	3.85
632.978	3.92
633.165	3.87
633.353	3.97
633.54	3.93
633.727	3.76
633.914	3.82
634.101	3.77
634.289	3.98
634.476	3.72
634.663	3.76
634.85	3.77
635.037	3.74
635.224	3.63
635.411	3.81
635.598	3.71
635.785	3.68
635.972	3.62
636.159	3.67
636.346	3.66
636.533	3.62
636.72	3.62
636.907	3.63
637.094	3.63
637.281	3.5
637.468	3.54
637.655	3.56
637.842	3.52
638.029	3.51
638.215	3.45
638.402	3.5
638.589	3.4
638.776	3.44
638.963	3.38
639.149	3.5
639.336	3.49
639.523	3.37
639.709	3.45
639.896	3.36
640.083	3.39
640.27	3.42
640.456	3.32
640.643	3.38
640.829	3.15
641.016	3.32
641.203	3.19
641.389	3.25
641.576	3.29
641.762	3.22
641.949	3.18
642.135	3.25
642.322	3.2
642.508	3.06
642.695	3.14
642.881	3.12
643.068	3.11
643.254	3.09
643.441	3.14
643.627	3.14
643.813	3.01
644	3.12
644.186	3.04
644.372	3.08
644.559	3.04
644.745	2.96
644.931	2.94
645.118	3
645.304	2.97
645.49	2.97
645.676	2.86
645.862	2.93
646.049	2.96
646.235	2.93
646.421	3.03
646.607	3.03
646.793	2.9
646.979	2.82
647.165	2.82
647.352	2.87
647.538	2.9
647.724	2.81
647.91	2.84
648.096	2.85
648.282	2.83
648.468	2.73
648.654	2.79
648.84	2.76
649.026	2.76
649.212	2.73
649.397	2.65
649.583	2.73
649.769	2.73
649.955	2.7
650.141	2.7
650.327	2.66
650.513	2.6
650.698	2.68
650.884	2.51
651.07	2.67
651.256	2.65
651.442	2.56
651.627	2.48
651.813	2.6
651.999	2.57
652.184	2.57
652.37	2.51
652.556	2.49
652.741	2.55
652.927	2.39
653.113	2.46
653.298	2.49
653.484	2.46
653.669	2.43
653.855	2.49
654.04	2.51
654.226	2.4
654.412	2.4
654.597	2.31
654.782	2.42
654.968	2.44
655.153	2.39
655.339	2.35
655.524	2.28
655.71	2.38
655.895	2.31
656.08	2.3
656.266	2.38
656.451	2.28
656.636	2.2
656.822	2.29
657.007	2.27
657.192	2.3
657.378	2.18
657.563	2.21
657.748	2.24
657.933	2.25
658.118	2.18
658.304	2.19
658.489	2.24
658.674	2.24
658.859	2.16
659.044	2.16
659.229	2.2
659.414	2.12
659.599	2.14
659.785	2.1
659.97	2.14
660.155	2.07
660.34	2.11
660.525	2.1
660.71	2.06
660.895	2.11
661.08	2.06
661.264	1.95
661.449	2.11
661.634	2.05
661.819	2.06
662.004	1.99
662.189	1.99
662.374	2.01
662.559	1.96
662.743	1.93
662.928	1.96
663.113	1.92
663.298	1.93
663.483	1.95
663.667	1.94
663.852	1.89
664.037	1.98
664.221	1.85
664.406	1.98
664.591	1.97
664.775	1.91
664.96	1.85
665.145	1.91
665.329	1.9
665.514	1.86
665.698	1.79
665.883	1.71
666.068	1.94
666.252	1.8
666.437	1.78
666.621	1.8
666.806	1.82
666.99	1.78
667.174	1.72
667.359	1.86
667.543	1.75
667.728	1.76
667.912	1.65
668.096	1.75
668.281	1.73
668.465	1.72
668.649	1.74
668.834	1.65
669.018	1.72
669.202	1.71
669.387	1.63
669.571	1.72
669.755	1.68
669.939	1.7
670.124	1.66
670.308	1.68
670.492	1.69
670.676	1.59
670.86	1.6
671.044	1.56
671.228	1.66
671.413	1.56
671.597	1.55
671.781	1.58
671.965	1.63
672.149	1.57
672.333	1.54
672.517	1.53
672.701	1.6
672.885	1.54
673.069	1.44
673.253	1.65
673.437	1.54
673.621	1.51
673.804	1.51
673.988	1.53
674.172	1.5
674.356	1.41
674.54	1.49
674.724	1.62
674.908	1.48
675.091	1.48
675.275	1.44
675.459	1.54
675.643	1.47
675.826	1.46
676.01	1.42
676.194	1.45
676.377	1.52
676.561	1.48
676.745	1.4
676.928	1.48
677.112	1.52
677.296	1.41
677.479	1.37
677.663	1.36
677.846	1.42
678.03	1.4
678.213	1.28
678.397	1.42
678.58	1.4
678.764	1.37
678.947	1.24
679.131	1.37
679.314	1.44
679.498	1.33
679.681	1.35
679.865	1.43
680.048	1.33
680.231	1.29
680.415	1.3
680.598	1.25
680.781	1.22
680.965	1.23
681.148	1.27
681.331	1.22
681.514	1.28
681.698	1.17
681.881	1.26
682.064	1.36
682.247	1.23
682.43	1.18
682.614	1.25
682.797	1.34
682.98	1.24
683.163	1.11
683.346	1.22
683.529	1.16
683.712	1.19
683.895	1.2
684.078	1.1
684.261	1.16
684.444	1.27
684.627	1.22
684.81	1.11
684.993	1.21
685.176	1.24
685.359	1.14
685.542	1.13
685.725	1.25
685.908	1.15
686.091	1.13
686.274	1.19
686.457	1.16
686.639	1.14
686.822	1.21
687.005	1.09
687.188	1.15
687.371	1.25
687.553	1.16
687.736	1.12
687.919	1.19
688.102	1.21
688.284	1.06
688.467	1.05
688.65	1.02
688.832	0.97
689.015	1.08
689.197	0.9
689.38	1.16
689.563	1.16
689.745	1.01
689.928	0.96
690.11	1
690.293	1.03
690.475	0.95
690.658	1.03
690.84	1.04
691.023	0.95
691.205	0.94
691.388	0.99
691.57	1.08
691.752	1.02
691.935	0.92
692.117	0.95
692.3	0.99
692.482	0.99
692.664	0.97
692.847	0.96
693.029	1.11
693.211	1.05
693.393	0.93
693.576	0.91
693.758	1.01
693.94	0.92
694.122	0.92
694.304	0.92
694.487	0.91
694.669	0.95
694.851	0.82
695.033	0.9
695.215	0.9
695.397	0.89
695.579	0.88
695.761	0.83
695.943	0.83
696.125	0.96
696.308	0.93
696.49	0.76
696.671	1.06
696.853	0.87
697.035	1.09
697.217	0.85
697.399	0.95
697.581	0.81
697.763	0.87
697.945	0.79
698.127	0.86
698.309	0.98
698.491	0.89
698.672	0.91
698.854	0.94
699.036	0.93
699.218	0.82
699.399	0.88
699.581	0.84
699.763	0.77
699.945	0.83
700.126	0.77
700.308	0.87
700.49	0.85
700.671	0.74
700.853	0.76
701.035	0.75
701.216	0.82
701.398	0.75
701.579	0.78
701.761	0.87
701.943	0.74
702.124	0.67
702.306	0.8
702.487	0.91
702.669	0.82
702.85	0.72
703.031	0.69
703.213	0.87
703.394	0.8
703.576	0.69
703.757	0.95
703.938	0.84
704.12	0.92
704.301	0.73
704.483	0.71
704.664	0.82
704.845	0.93
705.026	0.82
705.208	0.7
705.389	0.73
705.57	0.78
705.751	0.7
705.933	0.75
706.114	0.82
706.295	0.75
706.476	0.61
706.657	0.82
706.838	0.76
707.02	0.75
707.201	0.66
707.382	0.68
707.563	0.73
707.744	0.7
707.925	0.59
708.106	0.66
708.287	0.72
708.468	0.81
708.649	0.68
708.83	0.66
709.011	0.61
709.192	0.75
709.373	0.57
709.554	0.68
709.734	0.78
709.915	0.72
710.096	0.67
710.277	0.55
710.458	0.62
710.639	0.66
710.819	0.48
711	0.67
711.181	0.67
711.362	0.75
711.542	0.62
711.723	0.64
711.904	0.69
712.085	0.67
712.265	0.63
712.446	0.54
712.627	0.59
712.807	0.6
712.988	0.6
713.168	0.53
713.349	0.69
713.53	0.47
713.71	0.6
713.891	0.58
714.071	0.62
714.252	0.56
714.432	0.56
714.613	0.51
714.793	0.64
714.974	0.67
715.154	0.68
715.334	0.64
715.515	0.78
715.695	0.54
715.876	0.62
716.056	0.57
716.236	0.55
716.417	0.58
716.597	0.57
716.777	0.8
716.957	0.58
717.138	0.59
717.318	0.63
717.498	0.43
717.678	0.59
717.859	0.61
718.039	0.47
718.219	0.6
718.399	0.63
718.579	0.5
718.759	0.4
718.939	0.62
719.12	0.51
719.3	0.56
719.48	0.4
719.66	0.38
719.84	0.64
720.02	0.55
720.2	0.48
720.38	0.46
720.56	0.78
720.74	0.45
720.92	0.58
721.1	0.64
721.279	0.63
721.459	0.54
721.639	0.42
721.819	0.53
721.999	0.52
722.179	0.66
722.359	0.4
722.538	0.48
722.718	0.5
722.898	0.58
723.078	0.46
723.257	0.49
723.437	0.48
723.617	0.52
723.797	0.5
723.976	0.51
724.156	0.67
724.336	0.63
724.515	0.75
724.695	0.36
724.874	0.57
725.054	0.62
725.234	0.45
725.413	0.6
725.593	0.61
725.772	0.48
725.952	0.46
726.131	0.47
726.311	0.48
726.49	0.48
726.67	0.4
726.849	0.43
727.028	0.61
727.208	0.44
727.387	0.53
727.567	0.31
727.746	0.38
727.925	0.53
728.105	0.29
728.284	0.47
728.463	0.45
728.643	0.5
728.822	0.39
729.001	0.48
729.18	0.44
729.359	0.66
729.539	0.46
729.718	0.5
729.897	0.52
730.076	0.51
730.255	0.41
730.434	0.5
730.614	0.54
730.793	0.63
730.972	0.37
731.151	0.46
731.33	0.68
731.509	0.56
731.688	0.37
731.867	0.49
732.046	0.37
732.225	0.69
732.404	0.34
732.583	0.3
732.762	0.41
732.941	0.59
733.12	0.48
733.298	0.43
733.477	0.64
733.656	0.31
733.835	0.4
734.014	0.54
734.193	0.45
734.371	0.56
734.55	0.62
734.729	0.4
734.908	0.49
735.086	0.56
735.265	0.54
735.444	0.32
735.623	0.34
735.801	0.39
735.98	0.45
736.159	0.46
736.337	0.5
736.516	0.42
736.694	0.47
736.873	0.45
737.052	0.63
737.23	0.62
737.409	0.43
737.587	0.67
737.766	0.43
737.944	0.45
738.123	0.52
738.301	0.46
738.479	0.58
738.658	0.45
738.836	0.24
739.015	0.55
739.193	0.44
739.371	0.2
739.55	0.5
739.728	0.36
739.906	0.51
740.085	0.74
740.263	0.62
740.441	0.25
740.62	0.75
740.798	0.61
740.976	0.36
741.154	0.3
741.332	0.69
741.511	0.32
741.689	0.5
741.867	0.55
742.045	0.62
742.223	0.48
742.401	0.29
742.579	0.48
742.757	0.47
742.935	0.32
743.114	0.37
743.292	0.31
743.47	0.59
743.648	0.58
743.826	0.51
744.004	0.49
744.181	0.55
744.359	0.38
744.537	0.56
744.715	0.43
744.893	0.51
745.071	0.5
745.249	0.37
745.427	0.36
745.605	0.58
745.782	0.34
745.96	0.48
746.138	0.56
746.316	0.52
746.493	0.24
746.671	0.4
746.849	0.24
747.027	0.65
747.204	0.32
747.382	0.36
747.56	0.29
747.737	0.44
747.915	0.41
748.093	0.49
748.27	0.32
748.448	0.48
748.625	0.18
748.803	0.28
748.98	0.34
749.158	0.45
749.335	0.47
749.513	0.34
749.69	0.4
749.868	0.38
750.045	0.38
750.223	0.25
750.4	0.18
750.578	0.68
750.755	0.36
750.932	0.25
751.11	0.47
751.287	0.25
751.464	0.55
751.642	0.23
751.819	0.54
751.996	0.46
752.173	0.37
752.351	0.2
752.528	0.33
752.705	0.39
752.882	0.29
753.06	0.36
753.237	0.42
753.414	0.55
753.591	0.62
753.768	0.38
753.945	0.32
754.122	0.25
754.299	0.42
754.476	0.33
754.654	0.23
754.831	0.41
755.008	0.32
755.185	0.25
755.362	0.34
755.539	0.41
755.716	0.34
755.892	0.3
756.069	0.29
756.246	0.3
756.423	0.37
756.6	0.5
756.777	0.29
756.954	0.53
757.131	0.31
757.307	0.32
757.484	0.28
757.661	0.43
757.838	0.38
758.015	0.17
758.191	0.39
758.368	0.36
758.545	0.56
758.721	0.37
758.898	0.24
759.075	0.38
759.251	0.37
759.428	0.38
759.605	0.16
759.781	0.18
759.958	0.35
760.134	0.46
760.311	0.19
760.488	0.52
760.664	0.51
760.841	0.31
761.017	0.23
761.194	0.44
761.37	0.45
761.547	0.36
761.723	0.34
761.899	0.62
762.076	0.37
762.252	0.18
762.429	0.36
762.605	0.56
762.781	0.31
762.958	0.36
763.134	0.25
763.31	0.28
763.486	0.57
763.663	0.14
763.839	0.39
764.015	0.1
764.191	0.26
764.368	0.31
764.544	0.25
764.72	0.38
764.896	0.53
765.072	0.43
765.248	0.43
765.425	0.43
765.601	0.35
765.777	0.37
765.953	0.21
766.129	0.22
766.305	0.23
766.481	0.43
766.657	0.41
766.833	0.58
767.009	0.31
767.185	0.35
767.361	0.17
767.537	0.17
767.713	0.44
767.889	0.23
768.065	0.37
768.24	0.34
768.416	0.58
768.592	0.36
768.768	0.33
768.944	0.31
769.12	0.21
769.295	0.29
769.471	0.31
769.647	0.27
769.823	0.41
769.998	0.3
770.174	0.29
770.35	0.87
770.525	0.68
770.701	0.42
770.877	0.31
771.052	0.28
771.228	0.6
771.403	0.43
771.579	0.38
771.755	0.82
771.93	0.29
772.106	0.14
772.281	-0.12
772.457	0.37
772.632	0.39
772.808	0.21
772.983	0.35
773.159	0.06
773.334	0.59
773.509	0.34
773.685	0.15
773.86	0.8
774.036	0.49
774.211	0.34
774.386	0.32
774.562	0.41
774.737	0.57
774.912	0.25
775.087	0.41
775.263	0.38
775.438	0.45
775.613	0.23
775.788	0.38
775.964	0.6
776.139	0.77
776.314	0.26
776.489	0.61
776.664	0.42
776.839	0.19
777.014	0.47
777.19	0.5
777.365	0.75
777.54	0.59
777.715	0.16
777.89	0.39
778.065	0.24
778.24	0.37
778.415	0.61
778.59	0.18
778.765	0.35
778.94	0.64
779.115	0.3
779.289	0.22
779.464	0.34
779.639	0.28
779.814	0.22
779.989	0.18
780.164	0.48
780.339	0.36
780.513	0.26
780.688	0.09
780.863	0.34
781.038	0.52
781.212	0.24
781.387	0.36
781.562	0.68
781.737	0.08
781.911	0.63
782.086	0.26
782.261	0.25
782.435	0.53
782.61	0.29
782.784	0.23
782.959	0.76
783.134	0.34
783.308	0.14
783.483	0.44
783.657	1.02
783.832	0.76
784.006	0.1
784.181	0.36
784.355	0.47
784.53	0.31
784.704	0.28
784.878	0.68
785.053	0.4
785.227	0.59
785.402	0.78
785.576	0.28
785.75	0.42
785.925	0.36
786.099	0.41
786.273	0.3
786.448	0.6
786.622	0.58
786.796	0.45
786.97	0.28
787.145	1.2
787.319	-0.06
787.493	0.18
787.667	-0.01
787.841	0.47
788.015	0.65
788.19	0.18
788.364	0.47
788.538	0.86
788.712	0.49
788.886	0.42
789.06	0.7
789.234	0.88
789.408	0.18
789.582	0.32
789.756	0.39
789.93	0.36
790.104	0.3
790.278	0.26
790.452	0.03
790.626	0.4
790.8	0.27
790.973	0.5
791.147	0.69
791.321	0.91
791.495	0.69
791.669	0.39
791.843	0.49
792.016	0.4
792.19	0.78
792.364	0.4
792.538	1.24
792.711	0.63
792.885	0.29
793.059	0.16
793.233	-0.04
793.406	0.69
793.58	0.42
793.754	0.61
793.927	0.18
794.101	0.8
794.274	0.8
794.448	0.72
794.622	0.11
794.795	0.69
794.969	0.25
795.142	0.89
795.316	0.39
795.489	0.37
795.663	0.69
795.836	0.43
796.009	0.06
796.183	0.69
796.356	0.54
796.53	0.48
796.703	0.1
796.876	1.12
797.05	0.32
797.223	0.45
797.396	0.45
797.57	0.31
797.743	0.86
797.916	0.73
798.09	0.45
798.263	0.62
798.436	0.72
798.609	0.31
798.782	0.59
798.956	0.48
799.129	0.54
799.302	0.35
799.475	0.02
799.648	0.37
799.821	0.42
799.994	0.04
800.167	0.05
800.34	0.46
800.514	0.21
800.687	0.34
800.86	0.21
801.033	0.84
801.206	0.65
801.379	-0.07
801.551	0.56
801.724	0.57
801.897	1.17
802.07	0.22
802.243	-0.13
802.416	0.52
802.589	0.4
802.762	0.81
802.935	0.4
803.107	0.91
803.28	1.02
803.453	0.67
803.626	0.41
803.798	0.35
803.971	0.25
804.144	0.57
804.317	0.72
804.489	0.86
804.662	0.53
804.835	0.56
805.007	-0.02
805.18	0.9
805.353	0.36
805.525	0.07
805.698	0.15
805.87	1.02
806.043	0.81
806.215	0.21
806.388	-0.02
806.56	0.42
806.733	0.92
806.905	0.46
807.078	0.24
807.25	0.19
807.423	0.39
807.595	0.56
807.768	0.52
807.94	1.01
808.112	0.7
808.285	0.63
808.457	-0.02
808.629	0.46
808.802	0.65
808.974	0.56
809.146	0.35
809.318	0.29
809.491	0.81
809.663	0.83
809.835	0.52
810.007	0.42
810.18	0.63
810.352	-0.19
810.524	0.4
810.696	1.22
810.868	1.18
811.04	0.67
811.212	0.31
811.384	0.95
811.556	0.62
811.728	0.26
811.901	1.23
812.073	0.64
812.245	0.7
812.417	0.29
812.589	-0.13
812.76	0.39
812.932	0.94
813.104	1.11
813.276	0.75
813.448	0.9
813.62	0.71
813.792	0.78
813.964	0.44
814.136	1.27
814.307	0.29
814.479	0.45
814.651	0.04
814.823	1.93
814.995	0.21
815.166	0.41
815.338	-0.02
815.51	-0.02
815.681	1.9
815.853	0.73
816.025	0.47
816.196	0.79
816.368	1.54
816.54	-0.19
816.711	0.21
816.883	1.12
817.054	2.24
817.226	-0.03
817.398	0.58
817.569	0.43
817.741	0.62
817.912	0.34
818.084	0.32
818.255	1.13
818.426	0.36
818.598	0.56
818.769	0.14
818.941	0.74
819.112	1.22
819.283	1.06
819.455	0.21
819.626	1.05
819.798	1.25
819.969	0.77
820.14	0.03
820.311	0.61
820.483	1.04
820.654	0.57
820.825	0.62
820.996	0.9
821.168	-0.07
821.339	0.52
821.51	-0.23
821.681	0.42
821.852	0.59
822.023	-0.23
822.195	-0.51
822.366	1.29
822.537	1.09
822.708	0.67
822.879	0.13
823.05	1.23
823.221	0.55
823.392	0.49
823.563	0.47
823.734	0.69
823.905	0.41
824.076	0.45
824.247	0.28
824.418	0.44
824.589	1.27
824.759	0.6
824.93	0.4
825.101	-0.19
825.272	1.18
825.443	1.31
825.614	1.33
825.784	0.1
825.955	1.53
826.126	1.4
826.297	0.91
826.467	2.35
826.638	1.68
826.809	-0.18
826.98	0.7
827.15	1.32
827.321	1.17
827.492	1.48
827.662	0.83
827.833	2
828.003	0.89
828.174	0.37
828.345	-0.22
828.515	1.68
828.686	0.92
828.856	0.71
829.027	0.62
829.197	0.97
829.368	1.1
829.538	0.11
829.709	-0.2
829.879	0.8
830.049	0.55
830.22	0.9
830.39	0.72
830.56	1.58
830.731	0.89
830.901	0.11
831.072	0.35
831.242	0.93
831.412	0.97
831.582	0.68
831.753	0.4
831.923	1.45
832.093	1.58
832.263	1.1
832.434	-0.09
832.604	0.99
832.774	1.55
832.944	0.61
833.114	-0.09
833.284	1.11
833.454	0.59
833.624	0.68
833.795	-0.02
833.965	1.62
834.135	2
834.305	-0.23
834.475	0.18
834.645	1.22
834.815	0.32
834.985	0.67
835.155	0.04
835.325	1.31
835.494	1.18
835.664	0.43
835.834	-0.14
836.004	0.88
836.174	1.03
836.344	0.26
836.514	-0.32
836.684	-0.03
836.853	0.52
837.023	1.33
837.193	0.67
837.363	2.28
837.532	2.1
837.702	1.16
837.872	-0.25
838.041	0.51
838.211	2.72
838.381	-0.47
838.55	0.29
838.72	3.53
838.89	1.7
839.059	-0.1
839.229	-0.11
839.398	2.23
839.568	0.58
839.738	0.29
839.907	1.73
840.077	1.23
840.246	0.53
840.416	0.04
840.585	0.34
840.755	1.86
840.924	1.5
841.093	0.28
841.263	-0.07
841.432	0.76
841.602	0.37
841.771	-0.46
841.94	0.68
842.11	3.17
842.279	2.16
842.448	0.26
842.617	-0.56
842.787	2.28
842.956	0.05
843.125	0.06
843.294	0.66
843.464	2.01
843.633	0.62
843.802	0.42
843.971	0.66
844.14	1.96
844.309	2.25
844.479	-0.3
844.648	0.48
844.817	0.06
844.986	0.32
845.155	0.27
845.324	0.84
845.493	0.42
845.662	0.82
845.831	1.16
846	1.18
846.169	1.97
846.338	2.92
846.507	1.42
846.676	0.72
846.844	0.71
847.013	1.49
847.182	1.16
847.351	0.57
847.52	1.15
847.689	1.31
847.858	0.86
848.026	0.41
848.195	1.07
848.364	-0.02
848.533	0.47
848.701	0.78
848.87	1.74
849.039	1.97
849.207	1.63
849.376	2.44
849.545	2.27
849.713	0.28
849.882	0.41
850.051	1.25
850.219	0.76
850.388	1.8
850.556	0.39
850.725	0.06
850.893	1.3
851.062	1.4
851.23	0.9
851.399	-0.65
851.567	1.82
851.736	0.9
851.904	-0.08
852.073	0.9
852.241	2.14
852.41	1.44
852.578	0.36
852.746	0.06
852.915	2.27
853.083	0.31
853.251	-0.49
853.42	-0.49
853.588	1.46
853.756	1.84
853.924	1.23
854.093	1.39
854.261	1.45
854.429	-0.66
854.597	0.84
854.765	0.01
854.934	0.87
855.102	2.48
855.27	1.14
855.438	1.98
855.606	2.73
855.774	3.72
855.942	0.26
856.11	-0.86
856.278	0.4
856.446	3.04
856.614	1.06
856.782	0.58
856.95	2.43
857.118	1.8
857.286	1.84
857.454	0.09
857.622	3.39
857.79	2.05
857.958	0.68
858.126	0.73
858.294	-1.81
858.462	0.77
858.629	-0.54
858.797	-0.95
858.965	1.93
859.133	1.68
859.301	0.77
859.468	1.55
859.636	0.59
859.804	4.25
859.971	2.1
860.139	0.48
860.307	1.47
860.474	1.74
860.642	0.47
860.81	0.37
860.977	1
861.145	1.94
861.313	0.65
861.48	-0.01
861.648	2.91
861.815	2.25
861.983	-0.58
862.15	0.73
862.318	3.89
862.485	2.85
862.653	1.1
862.82	-0.29
862.988	3.31
863.155	0.98
863.322	0.38
863.49	0.25
863.657	1.13
863.824	5.25
863.992	1.81
864.159	1.87
864.326	2.92
864.494	1.22
864.661	3.66
864.828	-0.39
864.996	3.25
865.163	2.88
865.33	0
865.497	-1.17
865.664	0.05
865.832	-1.29
865.999	0.31
866.166	-1.22
866.333	1.48
866.5	0.92
866.667	2.67
866.834	1.64
867.001	3.79
867.168	-1.65
867.335	0.98
867.502	0.09
867.669	2.27
867.836	3.77
868.003	0.82
868.17	3.32
868.337	1.29
868.504	6.76
868.671	-1.72
868.838	0.35
869.005	2.97
869.172	1.9
869.339	3.09
869.505	0.4
869.672	1.32
869.839	2.87
870.006	2.18
870.173	0.13
870.339	3.49
870.506	4.58
870.673	0.65
870.84	2.7
871.006	1.89
871.173	1.21
871.34	2.14
871.506	-0.03
871.673	2.59
871.839	-0.06
872.006	1.84
872.173	1.58
872.339	2.2
872.506	3.99
872.672	1.18
872.839	-0.56
873.005	1.93
873.172	5.12
873.338	4.19
873.505	1.39
873.671	4.03
873.838	2.53
874.004	-0.59
874.171	0.99
874.337	2.45
874.503	3.34
874.67	0.36
874.836	1.3
875.002	4.86
875.169	4.68
875.335	1.83
875.501	2.04
875.668	4.44
875.834	1.33
876	-0.73
876.166	1.84
876.332	2.93
876.499	5.69
876.665	0.96
876.831	1.65
876.997	5.18
877.163	3.03
877.329	1.47
877.495	1.76
877.662	3.63
877.828	3.5
877.994	1.73
878.16	-1.42
878.326	1.68
878.492	3.74
878.658	0.76
878.824	0.75
878.99	2.68
879.156	1.47
879.322	4.43
879.487	-0.37
879.653	2.71
879.819	2.71
879.985	1.04
880.151	2.76
880.317	2.96
880.483	2.56
880.648	2.51
880.814	0.56
880.98	3.79
881.146	-2.83
881.312	0.21
881.477	-0.09
881.643	1.77
881.809	4.32
881.974	3.58
882.14	-0.71
882.306	1.85
882.471	5.6
882.637	1.84
882.803	3
882.968	5.03
883.134	4.38
883.299	1.2
883.465	2.06
883.63	4.48
883.796	2.26
883.961	2.66
884.127	1.84
884.292	-2.15
884.458	-0.55
884.623	-0.55
