Data from Apollo_Calib_20240827__AbsoluteIrradiance__796__12-25-02-147.txt Node

Date: Wed Aug 28 12:25:02 BST 2024
User: biology
Spectrometer: FLMT08252
Trigger mode: 0
Integration Time (sec): 5.000000E-1
Scans to average: 5
Electric dark correction enabled: true
Nonlinearity correction enabled: false
Boxcar width: 0
XAxis mode: Wavelengths
Number of Pixels in Spectrum: 3648
>>>>>Begin Spectral Data<<<<<
179.588	-0
179.809	-0
180.03	-0
180.251	-0
180.473	-0
180.694	0
180.915	0
181.136	-0
181.357	0
181.578	-0
181.799	0
182.02	-0
182.241	-0
182.462	0
182.683	0
182.904	-0
183.125	-0
183.346	0
183.567	0
183.788	0
184.009	0
184.23	0
184.451	0
184.672	0
184.892	0
185.113	0
185.334	0
185.555	0
185.776	0
185.996	0
186.217	0
186.438	0
186.659	0
186.879	0
187.1	0
187.321	0
187.541	0
187.762	0
187.983	0
188.203	0
188.424	0
188.644	0
188.865	0
189.086	0
189.306	0
189.527	0
189.747	0
189.968	0
190.188	0
190.409	0
190.629	0
190.849	0
191.07	0
191.29	0
191.511	0
191.731	0
191.951	0
192.172	0
192.392	0
192.612	0
192.833	0
193.053	0
193.273	0
193.493	0
193.714	0
193.934	0
194.154	0
194.374	0
194.594	0
194.815	0
195.035	0
195.255	0
195.475	0
195.695	0
195.915	0
196.135	0
196.355	0
196.575	0
196.795	0
197.015	0
197.235	0
197.455	0
197.675	0
197.895	0
198.115	0
198.335	0
198.555	0
198.775	0
198.995	0
199.214	0
199.434	0
199.654	0
199.874	0
200.094	4.56
200.313	1.85
200.533	1.64
200.753	1.39
200.973	3.38
201.192	2.92
201.412	0.82
201.632	1.48
201.851	3.34
202.071	1.79
202.291	1.63
202.51	1.45
202.73	2.3
202.95	1.69
203.169	1.11
203.389	1.68
203.608	2.02
203.828	1.68
204.047	1.51
204.267	2.19
204.486	2.22
204.706	2.17
204.925	1.79
205.145	1.29
205.364	1.89
205.583	2.28
205.803	1.36
206.022	0.99
206.242	1.74
206.461	1.42
206.68	1.15
206.9	1.58
207.119	2.19
207.338	2.32
207.557	1.07
207.777	1.42
207.996	1.4
208.215	2.07
208.434	0.95
208.654	0.86
208.873	1.3
209.092	1.89
209.311	0.83
209.53	1.17
209.749	1.27
209.968	1.24
210.187	0.95
210.407	0.6
210.626	1.16
210.845	1.51
211.064	1.11
211.283	0.52
211.502	1.46
211.721	1.06
211.94	0.97
212.159	1.08
212.377	1.21
212.596	1.63
212.815	1.11
213.034	1.18
213.253	1.32
213.472	1.25
213.691	0.79
213.91	0.73
214.128	0.6
214.347	1.5
214.566	0.47
214.785	0.41
215.003	1.24
215.222	1.16
215.441	0.97
215.66	0.38
215.878	0.92
216.097	1.13
216.316	0.71
216.534	0.8
216.753	0.99
216.972	0.89
217.19	0.93
217.409	0.59
217.627	0.74
217.846	0.6
218.064	0.82
218.283	0.68
218.501	1.4
218.72	1.15
218.938	0.66
219.157	0.57
219.375	1.03
219.594	0.91
219.812	0.53
220.031	0.64
220.249	1.14
220.467	1.14
220.686	0.59
220.904	0.28
221.122	0.58
221.341	1.06
221.559	0.77
221.777	0.47
221.995	0.75
222.214	0.94
222.432	0.52
222.65	0.75
222.868	0.75
223.086	0.96
223.305	0.79
223.523	0.6
223.741	1.05
223.959	0.8
224.177	0.34
224.395	0.63
224.613	0.75
224.831	0.81
225.049	0.37
225.267	0.5
225.485	0.78
225.703	0.66
225.921	0.44
226.139	0.31
226.357	0.7
226.575	0.66
226.793	0.46
227.011	1.53
227.229	0.75
227.447	0.9
227.665	0.41
227.883	0.34
228.1	0.54
228.318	0.79
228.536	0.22
228.754	0.41
228.972	0.59
229.189	0.73
229.407	0.44
229.625	0.64
229.843	0.75
230.06	0.89
230.278	0.48
230.496	0.52
230.713	0.59
230.931	0.82
231.149	0.46
231.366	0.31
231.584	0.51
231.801	1.05
232.019	0.43
232.236	0.3
232.454	0.38
232.671	0.58
232.889	0.4
233.106	0.41
233.324	0.6
233.541	0.46
233.759	0.46
233.976	0.46
234.194	0.43
234.411	0.47
234.628	0.26
234.846	0.34
235.063	0.45
235.28	0.45
235.498	0.48
235.715	0.37
235.932	0.72
236.149	0.55
236.367	0.28
236.584	0.52
236.801	0.42
237.018	0.64
237.236	0.46
237.453	0.32
237.67	0.67
237.887	0.51
238.104	0.37
238.321	0.39
238.538	0.34
238.755	0.69
238.973	0.3
239.19	0.49
239.407	0.55
239.624	0.49
239.841	0.31
240.058	0.31
240.275	0.43
240.492	0.42
240.709	0.42
240.925	0.37
241.142	0.41
241.359	0.36
241.576	0.31
241.793	0.4
242.01	0.41
242.227	0.59
242.444	0.54
242.66	0.58
242.877	0.48
243.094	0.4
243.311	0.41
243.527	0.4
243.744	0.46
243.961	0.48
244.178	0.35
244.394	0.43
244.611	0.54
244.828	0.61
245.044	0.35
245.261	0.4
245.477	0.51
245.694	0.56
245.911	0.33
246.127	0.43
246.344	0.55
246.56	0.57
246.777	0.34
246.993	0.39
247.21	0.47
247.426	0.55
247.643	0.35
247.859	0.26
248.076	0.31
248.292	0.68
248.508	0.37
248.725	0.42
248.941	0.47
249.157	0.59
249.374	0.28
249.59	0.32
249.806	0.35
250.023	0.46
250.239	0.39
250.455	0.34
250.671	0.43
250.888	0.43
251.104	0.48
251.32	0.32
251.536	0.43
251.752	0.43
251.969	0.37
252.185	0.32
252.401	0.62
252.617	0.46
252.833	0.24
253.049	0.37
253.265	0.39
253.481	0.49
253.697	0.3
253.913	0.33
254.129	0.54
254.345	0.38
254.561	0.35
254.777	0.35
254.993	0.46
255.209	0.49
255.425	0.32
255.641	0.28
255.857	0.49
256.073	0.4
256.288	0.21
256.504	0.27
256.72	0.44
256.936	0.6
257.152	0.27
257.367	0.27
257.583	0.34
257.799	0.48
258.015	0.32
258.23	0.31
258.446	0.54
258.662	0.37
258.877	0.21
259.093	0.31
259.309	0.34
259.524	0.46
259.74	0.32
259.955	0.23
260.171	0.3
260.387	0.32
260.602	0.41
260.818	0.4
261.033	0.28
261.249	0.33
261.464	0.28
261.68	0.24
261.895	0.43
262.11	0.42
262.326	0.29
262.541	0.2
262.757	0.45
262.972	0.4
263.187	0.31
263.403	0.35
263.618	0.45
263.833	0.34
264.049	0.31
264.264	0.36
264.479	0.46
264.694	0.48
264.91	0.27
265.125	0.32
265.34	0.4
265.555	0.45
265.77	0.33
265.986	0.24
266.201	0.4
266.416	0.4
266.631	0.36
266.846	0.3
267.061	0.39
267.276	0.42
267.491	0.18
267.706	0.35
267.921	0.35
268.136	0.29
268.351	0.31
268.566	0.22
268.781	0.43
268.996	0.43
269.211	0.3
269.426	0.26
269.641	0.32
269.856	0.43
270.071	0.25
270.285	0.23
270.5	0.39
270.715	0.42
270.93	0.26
271.145	0.33
271.359	0.39
271.574	0.27
271.789	0.33
272.004	0.26
272.218	0.29
272.433	0.34
272.648	0.25
272.862	0.38
273.077	0.28
273.292	0.28
273.506	0.22
273.721	0.29
273.936	0.42
274.15	0.43
274.365	0.29
274.579	0.32
274.794	0.44
275.008	0.45
275.223	0.16
275.437	0.28
275.652	0.44
275.866	0.32
276.081	0.27
276.295	0.42
276.509	0.35
276.724	0.28
276.938	0.28
277.153	0.34
277.367	0.4
277.581	0.28
277.796	0.28
278.01	0.23
278.224	0.35
278.438	0.43
278.653	0.18
278.867	0.23
279.081	0.39
279.295	0.26
279.51	0.34
279.724	0.16
279.938	0.37
280.152	0.36
280.366	0.22
280.58	0.3
280.794	0.45
281.008	0.37
281.222	0.35
281.437	0.48
281.651	0.34
281.865	0.4
282.079	0.29
282.293	0.11
282.507	0.22
282.721	0.31
282.935	0.28
283.148	0.19
283.362	0.27
283.576	0.21
283.79	0.26
284.004	0.2
284.218	0.41
284.432	0.27
284.646	0.28
284.859	0.25
285.073	0.3
285.287	0.28
285.501	0.29
285.714	0.26
285.928	0.29
286.142	0.33
286.356	0.23
286.569	0.16
286.783	0.39
286.997	0.38
287.21	0.3
287.424	0.24
287.637	0.25
287.851	0.23
288.065	0.29
288.278	0.25
288.492	0.27
288.705	0.23
288.919	0.33
289.132	0.18
289.346	0.36
289.559	0.21
289.773	0.18
289.986	0.27
290.2	0.29
290.413	0.31
290.626	0.25
290.84	0.21
291.053	0.28
291.267	0.33
291.48	0.26
291.693	0.29
291.906	0.24
292.12	0.32
292.333	0.23
292.546	0.21
292.76	0.33
292.973	0.28
293.186	0.29
293.399	0.24
293.612	0.3
293.826	0.27
294.039	0.23
294.252	0.24
294.465	0.37
294.678	0.27
294.891	0.22
295.104	0.23
295.317	0.26
295.53	0.29
295.743	0.25
295.956	0.23
296.169	0.4
296.382	0.33
296.595	0.26
296.808	0.18
297.021	0.36
297.234	0.23
297.447	0.27
297.66	0.34
297.873	0.33
298.086	0.36
298.299	0.2
298.511	0.19
298.724	0.29
298.937	0.15
299.15	0.17
299.363	0.24
299.575	0.29
299.788	0.31
300.001	0.19
300.213	0.25
300.426	0.21
300.639	0.2
300.852	0.19
301.064	0.28
301.277	0.3
301.489	0.3
301.702	0.28
301.915	0.23
302.127	0.28
302.34	0.25
302.552	0.29
302.765	0.18
302.977	0.34
303.19	0.23
303.402	0.23
303.615	0.24
303.827	0.22
304.04	0.24
304.252	0.3
304.464	0.22
304.677	0.41
304.889	0.29
305.102	0.21
305.314	0.21
305.526	0.3
305.739	0.28
305.951	0.24
306.163	0.2
306.375	0.37
306.588	0.21
306.8	0.2
307.012	0.17
307.224	0.27
307.436	0.31
307.649	0.22
307.861	0.23
308.073	0.32
308.285	0.23
308.497	0.19
308.709	0.2
308.921	0.24
309.133	0.31
309.346	0.21
309.558	0.23
309.77	0.32
309.982	0.3
310.194	0.25
310.406	0.17
310.617	0.37
310.829	0.28
311.041	0.26
311.253	0.21
311.465	0.28
311.677	0.26
311.889	0.23
312.101	0.17
312.313	0.29
312.524	0.31
312.736	0.18
312.948	0.21
313.16	0.38
313.372	0.31
313.583	0.26
313.795	0.25
314.007	0.22
314.218	0.33
314.43	0.22
314.642	0.22
314.853	0.16
315.065	0.33
315.277	0.23
315.488	0.26
315.7	0.27
315.912	0.27
316.123	0.25
316.335	0.25
316.546	0.41
316.758	0.24
316.969	0.23
317.181	0.27
317.392	0.28
317.604	0.32
317.815	0.17
318.026	0.22
318.238	0.22
318.449	0.27
318.661	0.17
318.872	0.19
319.083	0.21
319.295	0.28
319.506	0.28
319.717	0.26
319.929	0.27
320.14	0.24
320.351	0.21
320.562	0.21
320.774	0.29
320.985	0.26
321.196	0.19
321.407	0.12
321.618	0.32
321.829	0.28
322.041	0.29
322.252	0.22
322.463	0.32
322.674	0.29
322.885	0.19
323.096	0.2
323.307	0.27
323.518	0.25
323.729	0.21
323.94	0.18
324.151	0.21
324.362	0.29
324.573	0.26
324.784	0.24
324.995	0.28
325.206	0.3
325.417	0.2
325.628	0.22
325.838	0.22
326.049	0.25
326.26	0.3
326.471	0.24
326.682	0.3
326.892	0.27
327.103	0.18
327.314	0.21
327.525	0.32
327.735	0.26
327.946	0.23
328.157	0.19
328.368	0.33
328.578	0.27
328.789	0.24
328.999	0.27
329.21	0.28
329.421	0.32
329.631	0.16
329.842	0.19
330.052	0.25
330.263	0.32
330.473	0.27
330.684	0.24
330.894	0.23
331.105	0.25
331.315	0.21
331.526	0.16
331.736	0.36
331.947	0.23
332.157	0.27
332.367	0.19
332.578	0.3
332.788	0.34
332.999	0.28
333.209	0.22
333.419	0.18
333.629	0.27
333.84	0.25
334.05	0.24
334.26	0.37
334.47	0.3
334.681	0.31
334.891	0.23
335.101	0.26
335.311	0.36
335.521	0.24
335.732	0.2
335.942	0.35
336.152	0.3
336.362	0.22
336.572	0.23
336.782	0.31
336.992	0.24
337.202	0.25
337.412	0.19
337.622	0.24
337.832	0.25
338.042	0.24
338.252	0.16
338.462	0.21
338.672	0.25
338.882	0.21
339.092	0.24
339.302	0.33
339.511	0.3
339.721	0.18
339.931	0.2
340.141	0.32
340.351	0.34
340.561	0.19
340.77	0.25
340.98	0.26
341.19	0.26
341.4	0.24
341.609	0.16
341.819	0.23
342.029	0.2
342.238	0.28
342.448	0.22
342.658	0.35
342.867	0.22
343.077	0.22
343.286	0.26
343.496	0.25
343.706	0.35
343.915	0.24
344.125	0.21
344.334	0.27
344.544	0.15
344.753	0.18
344.963	0.18
345.172	0.23
345.381	0.22
345.591	0.16
345.8	0.24
346.01	0.34
346.219	0.35
346.428	0.15
346.638	0.21
346.847	0.24
347.056	0.3
347.266	0.22
347.475	0.24
347.684	0.28
347.893	0.29
348.103	0.28
348.312	0.22
348.521	0.24
348.73	0.27
348.94	0.2
349.149	0.22
349.358	0.23
349.567	0.2
349.776	0.17
349.985	0.24
350.194	0.27
350.403	0.3
350.612	0.16
350.821	0.19
351.03	0.26
351.239	0.19
351.448	0.23
351.657	0.2
351.866	0.33
352.075	0.24
352.284	0.2
352.493	0.14
352.702	0.31
352.911	0.26
353.12	0.25
353.329	0.21
353.538	0.26
353.746	0.28
353.955	0.17
354.164	0.24
354.373	0.22
354.582	0.27
354.79	0.23
354.999	0.26
355.208	0.23
355.416	0.32
355.625	0.16
355.834	0.23
356.042	0.3
356.251	0.22
356.46	0.18
356.668	0.25
356.877	0.32
357.085	0.3
357.294	0.14
357.503	0.23
357.711	0.21
357.92	0.43
358.128	0.23
358.337	0.22
358.545	0.27
358.754	0.22
358.962	0.29
359.17	0.21
359.379	0.24
359.587	0.3
359.796	0.25
360.004	0.29
360.212	0.26
360.421	0.28
360.629	0.2
360.837	0.23
361.046	0.35
361.254	0.39
361.462	0.21
361.67	0.15
361.879	0.28
362.087	0.35
362.295	0.24
362.503	0.19
362.711	0.17
362.92	0.23
363.128	0.19
363.336	0.16
363.544	0.2
363.752	0.25
363.96	0.22
364.168	0.2
364.376	0.2
364.584	0.29
364.792	0.29
365	0.23
365.208	0.2
365.416	0.25
365.624	0.29
365.832	0.21
366.04	0.3
366.248	0.25
366.456	0.26
366.664	0.22
366.872	0.22
367.079	0.24
367.287	0.25
367.495	0.27
367.703	0.24
367.911	0.2
368.118	0.26
368.326	0.25
368.534	0.18
368.742	0.33
368.949	0.17
369.157	0.19
369.365	0.26
369.572	0.22
369.78	0.17
369.988	0.28
370.195	0.24
370.403	0.25
370.61	0.18
370.818	0.26
371.026	0.32
371.233	0.21
371.441	0.25
371.648	0.22
371.856	0.25
372.063	0.25
372.271	0.2
372.478	0.2
372.685	0.26
372.893	0.26
373.1	0.24
373.308	0.22
373.515	0.31
373.722	0.3
373.93	0.2
374.137	0.27
374.344	0.37
374.552	0.3
374.759	0.24
374.966	0.25
375.173	0.22
375.381	0.28
375.588	0.23
375.795	0.21
376.002	0.23
376.209	0.24
376.417	0.25
376.624	0.26
376.831	0.29
377.038	0.23
377.245	0.14
377.452	0.16
377.659	0.24
377.866	0.25
378.073	0.22
378.28	0.25
378.487	0.34
378.694	0.29
378.901	0.22
379.108	0.24
379.315	0.32
379.522	0.34
379.729	0.27
379.936	0.25
380.143	0.26
380.35	0.26
380.557	0.27
380.763	0.17
380.97	0.25
381.177	0.31
381.384	0.28
381.591	0.19
381.797	0.27
382.004	0.32
382.211	0.27
382.418	0.19
382.624	0.28
382.831	0.38
383.038	0.23
383.244	0.3
383.451	0.24
383.658	0.31
383.864	0.23
384.071	0.17
384.277	0.37
384.484	0.26
384.69	0.31
384.897	0.22
385.103	0.25
385.31	0.24
385.516	0.25
385.723	0.22
385.929	0.28
386.136	0.26
386.342	0.28
386.549	0.24
386.755	0.33
386.961	0.35
387.168	0.24
387.374	0.23
387.58	0.32
387.787	0.27
387.993	0.28
388.199	0.28
388.406	0.24
388.612	0.24
388.818	0.23
389.024	0.23
389.231	0.31
389.437	0.4
389.643	0.34
389.849	0.26
390.055	0.25
390.261	0.31
390.467	0.29
390.674	0.28
390.88	0.24
391.086	0.28
391.292	0.22
391.498	0.31
391.704	0.3
391.91	0.27
392.116	0.26
392.322	0.18
392.528	0.34
392.734	0.33
392.94	0.29
393.146	0.3
393.352	0.31
393.557	0.29
393.763	0.26
393.969	0.32
394.175	0.26
394.381	0.34
394.587	0.25
394.792	0.32
394.998	0.31
395.204	0.37
395.41	0.22
395.615	0.33
395.821	0.35
396.027	0.32
396.233	0.23
396.438	0.33
396.644	0.36
396.85	0.31
397.055	0.3
397.261	0.33
397.466	0.37
397.672	0.32
397.878	0.35
398.083	0.37
398.289	0.28
398.494	0.42
398.7	0.35
398.905	0.25
399.111	0.39
399.316	0.3
399.522	0.34
399.727	0.33
399.932	0.3
400.138	0.3
400.343	0.37
400.549	0.35
400.754	0.39
400.959	0.31
401.165	0.34
401.37	0.4
401.575	0.47
401.78	0.4
401.986	0.4
402.191	0.31
402.396	0.36
402.601	0.39
402.807	0.37
403.012	0.35
403.217	0.43
403.422	0.4
403.627	0.43
403.832	0.37
404.037	0.46
404.243	0.44
404.448	0.39
404.653	0.41
404.858	0.46
405.063	0.44
405.268	0.39
405.473	0.37
405.678	0.38
405.883	0.61
406.088	0.44
406.293	0.39
406.498	0.42
406.703	0.49
406.907	0.5
407.112	0.45
407.317	0.51
407.522	0.55
407.727	0.47
407.932	0.52
408.136	0.63
408.341	0.52
408.546	0.55
408.751	0.55
408.956	0.55
409.16	0.66
409.365	0.59
409.57	0.58
409.774	0.6
409.979	0.64
410.184	0.66
410.388	0.55
410.593	0.74
410.798	0.75
411.002	0.68
411.207	0.77
411.411	0.77
411.616	0.72
411.82	0.7
412.025	0.78
412.229	0.75
412.434	0.93
412.638	0.87
412.843	0.88
413.047	0.96
413.252	0.92
413.456	0.92
413.66	1
413.865	0.97
414.069	1.09
414.273	1.02
414.478	1.11
414.682	1.08
414.886	1.15
415.091	1.15
415.295	1.14
415.499	1.35
415.703	1.27
415.908	1.41
416.112	1.28
416.316	1.53
416.52	1.48
416.724	1.46
416.929	1.54
417.133	1.74
417.337	1.58
417.541	1.69
417.745	1.74
417.949	1.81
418.153	1.84
418.357	1.87
418.561	2.16
418.765	2
418.969	2.23
419.173	2.33
419.377	2.26
419.581	2.48
419.785	2.47
419.989	2.5
420.193	2.6
420.397	2.78
420.601	2.81
420.804	2.93
421.008	2.95
421.212	3.1
421.416	3.08
421.62	3.03
421.823	3.11
422.027	3.3
422.231	3.3
422.435	3.23
422.638	3.36
422.842	3.41
423.046	3.47
423.249	3.69
423.453	3.7
423.657	3.87
423.86	3.98
424.064	4.06
424.268	4.18
424.471	4.14
424.675	4.48
424.878	4.53
425.082	4.62
425.285	4.93
425.489	4.78
425.692	4.99
425.896	4.92
426.099	5.14
426.303	5.21
426.506	5.42
426.71	5.59
426.913	5.73
427.116	5.99
427.32	5.98
427.523	6.11
427.726	6.36
427.93	6.44
428.133	6.71
428.336	6.84
428.54	6.91
428.743	7.23
428.946	7.57
429.149	7.43
429.353	7.44
429.556	7.56
429.759	7.67
429.962	7.78
430.165	7.97
430.368	7.6
430.571	7.67
430.775	7.79
430.978	7.74
431.181	7.73
431.384	7.89
431.587	7.97
431.79	8.3
431.993	8.25
432.196	8.66
432.399	9
432.602	9.16
432.805	9.21
433.008	9.67
433.211	9.57
433.414	9.87
433.616	9.96
433.819	9.88
434.022	10.12
434.225	10.23
434.428	10.25
434.631	10.69
434.833	10.37
435.036	10.75
435.239	10.91
435.442	10.83
435.645	11.13
435.847	11.25
436.05	11.45
436.253	11.82
436.455	11.75
436.658	11.61
436.861	11.91
437.063	12.12
437.266	12.02
437.468	12.33
437.671	12.68
437.874	12.76
438.076	12.59
438.279	13.02
438.481	13.04
438.684	13.87
438.886	13.41
439.089	13.74
439.291	13.7
439.494	14.12
439.696	14.2
439.899	14.71
440.101	15.16
440.303	15.36
440.506	15.96
440.708	15.86
440.91	16.01
441.113	16.26
441.315	16.45
441.517	16.17
441.72	16.85
441.922	16.42
442.124	16.33
442.326	16.64
442.529	16.98
442.731	16.9
442.933	17.18
443.135	17.08
443.337	17.01
443.539	17.54
443.742	17.26
443.944	17.82
444.146	17.7
444.348	17.6
444.55	17.62
444.752	17.73
444.954	17.74
445.156	17.59
445.358	17.93
445.56	18.28
445.762	18.09
445.964	18.5
446.166	18.22
446.368	18.26
446.57	18.3
446.772	17.91
446.974	17.72
447.175	17.86
447.377	17.68
447.579	18.08
447.781	17.83
447.983	17.74
448.184	17.31
448.386	17.67
448.588	17.23
448.79	17.18
448.991	17.57
449.193	17.53
449.395	16.86
449.597	16.5
449.798	16.47
450	15.99
450.202	15.83
450.403	15.95
450.605	15.78
450.806	15.42
451.008	15.4
451.21	15.15
451.411	14.6
451.613	13.95
451.814	14.17
452.016	14.21
452.217	13.62
452.419	13.51
452.62	13.26
452.821	12.96
453.023	12.83
453.224	12.54
453.426	12.28
453.627	11.48
453.828	11.46
454.03	11.54
454.231	11.52
454.432	11.42
454.634	11.16
454.835	10.73
455.036	10.66
455.238	10.39
455.439	10.13
455.64	9.88
455.841	9.64
456.042	9.78
456.244	9.54
456.445	9.12
456.646	8.97
456.847	8.95
457.048	8.83
457.249	8.74
457.45	8.49
457.651	8.02
457.852	7.92
458.054	7.45
458.255	7.45
458.456	7.52
458.657	7.45
458.858	6.94
459.058	6.85
459.259	6.98
459.46	6.75
459.661	6.59
459.862	6.71
460.063	6.57
460.264	6.43
460.465	6.14
460.666	6.32
460.866	6.02
461.067	5.72
461.268	5.74
461.469	5.7
461.67	5.54
461.87	5.39
462.071	5.46
462.272	5.24
462.473	5.29
462.673	5.5
462.874	5.35
463.075	5.27
463.275	5.26
463.476	5.31
463.676	5.25
463.877	5.06
464.078	5.13
464.278	5.15
464.479	5.01
464.679	4.86
464.88	4.85
465.08	4.91
465.281	4.69
465.481	4.44
465.682	4.23
465.882	4.32
466.083	4.26
466.283	4.13
466.483	3.98
466.684	3.8
466.884	3.8
467.085	3.8
467.285	3.88
467.485	3.7
467.686	3.66
467.886	3.6
468.086	3.47
468.286	3.48
468.487	3.53
468.687	3.38
468.887	3.35
469.087	3.42
469.287	3.33
469.488	3.19
469.688	3.3
469.888	3.31
470.088	3.21
470.288	3.16
470.488	3.15
470.688	2.96
470.888	2.94
471.088	2.77
471.288	2.93
471.488	2.87
471.688	2.82
471.888	2.72
472.088	2.94
472.288	2.81
472.488	2.68
472.688	2.67
472.888	2.67
473.088	2.67
473.288	2.61
473.488	2.55
473.688	2.65
473.887	2.58
474.087	2.5
474.287	2.51
474.487	2.44
474.687	2.54
474.886	2.39
475.086	2.34
475.286	2.38
475.486	2.34
475.685	2.34
475.885	2.24
476.085	2.37
476.284	2.3
476.484	2.34
476.684	2.27
476.883	2.38
477.083	2.26
477.282	2.2
477.482	2.26
477.681	2.21
477.881	2.09
478.08	2.18
478.28	2.09
478.479	2.17
478.679	2.21
478.878	2.11
479.078	2.06
479.277	2.12
479.477	2.15
479.676	2.05
479.875	2.07
480.075	1.99
480.274	2.06
480.473	2.13
480.673	2.06
480.872	2.13
481.071	2.07
481.271	2.09
481.47	2.01
481.669	2.02
481.868	2.03
482.067	2.02
482.267	1.96
482.466	1.98
482.665	1.95
482.864	1.98
483.063	1.97
483.262	2.1
483.461	2.11
483.661	2.13
483.86	2.05
484.059	2.13
484.258	2.08
484.457	2.07
484.656	2.09
484.855	2.13
485.054	1.96
485.253	2
485.452	1.98
485.651	2.11
485.849	2.01
486.048	2.07
486.247	2.05
486.446	2.1
486.645	2.06
486.844	2.11
487.043	2.11
487.241	2.14
487.44	2.1
487.639	2.12
487.838	2.15
488.037	2.16
488.235	2.22
488.434	2.16
488.633	2.05
488.831	2.24
489.03	2.29
489.229	2.28
489.427	2.27
489.626	2.34
489.825	2.3
490.023	2.31
490.222	2.28
490.42	2.31
490.619	2.37
490.817	2.4
491.016	2.36
491.214	2.47
491.413	2.43
491.611	2.4
491.81	2.41
492.008	2.47
492.207	2.55
492.405	2.53
492.604	2.49
492.802	2.57
493	2.62
493.199	2.63
493.397	2.64
493.595	2.72
493.794	2.65
493.992	2.81
494.19	2.75
494.388	2.82
494.587	2.76
494.785	2.81
494.983	2.74
495.181	2.88
495.379	2.91
495.578	2.92
495.776	2.96
495.974	2.93
496.172	2.95
496.37	3.12
496.568	3.09
496.766	3.02
496.964	3.19
497.162	3.14
497.36	3.2
497.558	3.27
497.756	3.26
497.954	3.28
498.152	3.36
498.35	3.42
498.548	3.41
498.746	3.37
498.944	3.38
499.142	3.45
499.34	3.47
499.538	3.61
499.736	3.46
499.933	3.68
500.131	3.6
500.329	3.76
500.527	3.73
500.725	3.86
500.922	3.85
501.12	3.83
501.318	3.88
501.516	3.94
501.713	3.97
501.911	3.97
502.109	3.92
502.306	4.14
502.504	4
502.701	4.04
502.899	4.07
503.097	4.33
503.294	4.19
503.492	4.29
503.689	4.38
503.887	4.31
504.084	4.47
504.282	4.4
504.479	4.33
504.677	4.56
504.874	4.57
505.072	4.44
505.269	4.59
505.466	4.7
505.664	4.73
505.861	4.61
506.059	4.71
506.256	4.77
506.453	4.84
506.651	4.95
506.848	4.99
507.045	4.95
507.242	4.97
507.44	4.96
507.637	5.01
507.834	5.01
508.031	5.22
508.229	5.11
508.426	5.04
508.623	5.28
508.82	5.25
509.017	5.22
509.214	5.21
509.411	5.36
509.608	5.3
509.805	5.42
510.003	5.39
510.2	5.46
510.397	5.57
510.594	5.52
510.791	5.6
510.988	5.59
511.184	5.57
511.381	5.46
511.578	5.63
511.775	5.8
511.972	5.65
512.169	5.79
512.366	5.73
512.563	5.88
512.76	5.93
512.956	5.95
513.153	5.89
513.35	5.84
513.547	5.88
513.744	5.96
513.94	5.94
514.137	6.12
514.334	6.08
514.53	6.09
514.727	6.31
514.924	6.22
515.12	6.19
515.317	6.2
515.514	6.2
515.71	6.22
515.907	6.37
516.103	6.41
516.3	6.26
516.497	6.42
516.693	6.41
516.89	6.42
517.086	6.46
517.283	6.47
517.479	6.38
517.676	6.61
517.872	6.59
518.068	6.56
518.265	6.57
518.461	6.51
518.658	6.63
518.854	6.65
519.05	6.71
519.247	6.78
519.443	6.72
519.639	6.82
519.836	6.71
520.032	6.71
520.228	6.85
520.424	6.86
520.621	6.92
520.817	6.91
521.013	6.87
521.209	7.08
521.405	6.98
521.601	6.99
521.798	6.94
521.994	7.02
522.19	6.93
522.386	6.97
522.582	7.1
522.778	7.2
522.974	7.06
523.17	7.05
523.366	6.98
523.562	7.18
523.758	7.11
523.954	7.06
524.15	7.21
524.346	7.2
524.542	7.25
524.738	7.19
524.934	7.31
525.129	7.21
525.325	7.2
525.521	7.2
525.717	7.45
525.913	7.27
526.109	7.3
526.304	7.37
526.5	7.43
526.696	7.39
526.892	7.33
527.087	7.6
527.283	7.46
527.479	7.43
527.674	7.26
527.87	7.47
528.066	7.41
528.261	7.51
528.457	7.41
528.653	7.55
528.848	7.51
529.044	7.65
529.239	7.47
529.435	7.49
529.63	7.41
529.826	7.48
530.021	7.55
530.217	7.58
530.412	7.48
530.608	7.55
530.803	7.61
530.999	7.47
531.194	7.63
531.389	7.71
531.585	7.68
531.78	7.77
531.975	7.62
532.171	7.68
532.366	7.7
532.561	7.69
532.757	7.7
532.952	7.91
533.147	7.61
533.342	7.73
533.538	7.64
533.733	7.89
533.928	7.5
534.123	7.7
534.318	7.79
534.513	7.67
534.709	7.84
534.904	7.77
535.099	7.87
535.294	7.84
535.489	7.86
535.684	7.82
535.879	7.84
536.074	7.85
536.269	7.88
536.464	7.9
536.659	7.81
536.854	7.84
537.049	7.9
537.244	7.88
537.439	7.89
537.634	7.91
537.828	7.97
538.023	7.9
538.218	7.91
538.413	7.85
538.608	7.9
538.803	7.86
538.997	7.82
539.192	7.89
539.387	7.84
539.582	7.84
539.776	7.86
539.971	7.97
540.166	7.96
540.36	7.9
540.555	8.04
540.75	7.98
540.944	7.95
541.139	7.98
541.334	7.86
541.528	7.99
541.723	8.06
541.917	8.08
542.112	7.84
542.306	7.87
542.501	7.89
542.695	7.93
542.89	7.9
543.084	7.93
543.279	7.98
543.473	8.05
543.668	8.04
543.862	7.87
544.056	7.88
544.251	8.02
544.445	8.13
544.64	8.11
544.834	7.8
545.028	7.64
545.222	8.03
545.417	8.21
545.611	8.05
545.805	8.07
546	7.84
546.194	8.06
546.388	8.08
546.582	7.89
546.776	8.02
546.97	8.03
547.165	8.01
547.359	7.97
547.553	8
547.747	8
547.941	8.22
548.135	8.01
548.329	8.08
548.523	8.02
548.717	8.03
548.911	8.01
549.105	7.94
549.299	8.09
549.493	8.07
549.687	7.94
549.881	8.08
550.075	8.02
550.269	7.89
550.463	8.09
550.657	8.09
550.85	8.03
551.044	8
551.238	8.05
551.432	8
551.626	8.07
551.82	8.14
552.013	7.98
552.207	8.14
552.401	8.11
552.594	8.07
552.788	7.92
552.982	7.96
553.176	8
553.369	8.23
553.563	8.09
553.756	8
553.95	8.08
554.144	8.12
554.337	8.09
554.531	7.91
554.724	8.15
554.918	8.14
555.111	8.05
555.305	8.11
555.498	8.05
555.692	8.14
555.885	8.08
556.079	8.03
556.272	8.07
556.466	8.09
556.659	7.99
556.852	8.11
557.046	8.02
557.239	7.94
557.432	8.06
557.626	8.1
557.819	8.17
558.012	8.1
558.206	8.16
558.399	8.1
558.592	8.04
558.785	8.04
558.979	8.06
559.172	8.06
559.365	8.07
559.558	8
559.751	8.04
559.944	8.16
560.138	8.02
560.331	8.07
560.524	8.11
560.717	8.1
560.91	8.07
561.103	8.1
561.296	7.92
561.489	8.1
561.682	8.18
561.875	8.11
562.068	8.17
562.261	7.93
562.454	8.3
562.647	8.05
562.84	8.1
563.032	8.14
563.225	8.03
563.418	8.03
563.611	8.15
563.804	8.12
563.997	7.93
564.19	7.84
564.382	8.17
564.575	8.02
564.768	8.02
564.961	8.13
565.153	7.93
565.346	7.94
565.539	8.1
565.731	8.02
565.924	8.11
566.117	8.14
566.309	8.06
566.502	8.08
566.695	8
566.887	8.11
567.08	8.06
567.272	8.01
567.465	7.95
567.657	8.06
567.85	7.95
568.042	8.04
568.235	8.05
568.427	7.85
568.62	8.11
568.812	7.99
569.005	8.11
569.197	7.94
569.389	8.05
569.582	8.03
569.774	8.03
569.966	7.89
570.159	7.93
570.351	7.98
570.543	7.98
570.736	7.98
570.928	7.8
571.12	8.01
571.312	7.9
571.505	7.73
571.697	7.99
571.889	7.97
572.081	7.95
572.273	7.94
572.465	7.99
572.658	8.01
572.85	7.97
573.042	7.96
573.234	7.86
573.426	7.93
573.618	7.82
573.81	8.01
574.002	7.93
574.194	7.98
574.386	7.83
574.578	7.78
574.77	7.84
574.962	7.92
575.154	7.71
575.346	7.78
575.538	7.82
575.729	7.84
575.921	7.86
576.113	7.93
576.305	7.86
576.497	7.91
576.689	7.73
576.88	7.72
577.072	7.9
577.264	7.84
577.456	7.81
577.647	7.73
577.839	7.92
578.031	7.85
578.223	7.78
578.414	7.67
578.606	7.72
578.798	7.86
578.989	7.79
579.181	7.87
579.372	7.85
579.564	7.79
579.755	7.69
579.947	7.75
580.139	7.77
580.33	7.64
580.522	7.72
580.713	7.67
580.905	7.69
581.096	7.73
581.287	7.74
581.479	7.64
581.67	7.74
581.862	7.62
582.053	7.68
582.244	7.49
582.436	7.7
582.627	7.64
582.818	7.62
583.01	7.62
583.201	7.66
583.392	7.59
583.583	7.61
583.775	7.38
583.966	7.56
584.157	7.67
584.348	7.64
584.54	7.53
584.731	7.6
584.922	7.46
585.113	7.4
585.304	7.53
585.495	7.47
585.686	7.63
585.877	7.53
586.068	7.58
586.259	7.48
586.45	7.47
586.641	7.49
586.832	7.58
587.023	7.47
587.214	7.44
587.405	7.51
587.596	7.31
587.787	7.27
587.978	7.49
588.169	7.31
588.36	7.29
588.551	7.36
588.742	7.37
588.932	7.49
589.123	7.23
589.314	7.42
589.505	7.35
589.696	7.3
589.886	7.27
590.077	7.28
590.268	7.18
590.458	7.16
590.649	7.07
590.84	7.29
591.03	7.22
591.221	7.23
591.412	7.11
591.602	7.34
591.793	7.19
591.984	7.2
592.174	7.14
592.365	7.38
592.555	7.03
592.746	7.08
592.936	7.09
593.127	7.17
593.317	7.1
593.508	7.16
593.698	7.04
593.889	7.03
594.079	7.06
594.269	6.96
594.46	6.98
594.65	7.07
594.84	7.01
595.031	6.95
595.221	6.96
595.411	6.95
595.602	6.94
595.792	6.94
595.982	6.83
596.172	6.99
596.363	6.83
596.553	6.87
596.743	6.87
596.933	6.85
597.123	6.83
597.314	6.68
597.504	6.67
597.694	6.86
597.884	6.74
598.074	6.84
598.264	6.84
598.454	6.72
598.644	6.75
598.834	6.73
599.024	6.71
599.214	6.67
599.404	6.78
599.594	6.65
599.784	6.59
599.974	6.69
600.164	6.59
600.354	6.61
600.544	6.49
600.734	6.64
600.924	6.65
601.114	6.5
601.303	6.43
601.493	6.49
601.683	6.5
601.873	6.52
602.063	6.4
602.252	6.5
602.442	6.37
602.632	6.39
602.821	6.36
603.011	6.46
603.201	6.38
603.39	6.36
603.58	6.2
603.77	6.34
603.959	6.38
604.149	6.3
604.339	6.34
604.528	6.4
604.718	6.37
604.907	6.32
605.097	6.23
605.286	6.25
605.476	6.16
605.665	6.23
605.855	6.11
606.044	6.21
606.234	6.18
606.423	6.11
606.612	6.13
606.802	6.01
606.991	6.21
607.181	6.11
607.37	6.13
607.559	5.85
607.749	6.07
607.938	5.96
608.127	5.95
608.316	6.02
608.506	5.94
608.695	6.07
608.884	5.92
609.073	5.88
609.263	6.04
609.452	5.95
609.641	5.72
609.83	5.79
610.019	5.93
610.208	5.77
610.397	5.79
610.586	5.83
610.775	5.81
610.965	5.79
611.154	5.71
611.343	5.81
611.532	5.7
611.721	5.79
611.91	5.64
612.099	5.67
612.287	5.6
612.476	5.53
612.665	5.76
612.854	5.59
613.043	5.6
613.232	5.53
613.421	5.5
613.61	5.52
613.798	5.46
613.987	5.55
614.176	5.46
614.365	5.51
614.554	5.51
614.742	5.53
614.931	5.38
615.12	5.44
615.309	5.43
615.497	5.32
615.686	5.26
615.875	5.35
616.063	5.27
616.252	5.25
616.44	5.36
616.629	5.3
616.818	5.25
617.006	5.24
617.195	5.15
617.383	5.19
617.572	5.18
617.76	5.2
617.949	5.16
618.137	5.16
618.326	5.17
618.514	4.93
618.703	4.99
618.891	5.17
619.079	4.95
619.268	5.06
619.456	4.97
619.644	5.05
619.833	4.99
620.021	4.95
620.209	4.91
620.398	4.98
620.586	4.82
620.774	4.97
620.962	4.93
621.151	5.02
621.339	4.87
621.527	4.86
621.715	4.83
621.903	4.85
622.092	4.72
622.28	4.89
622.468	4.66
622.656	4.77
622.844	4.72
623.032	4.73
623.22	4.63
623.408	4.85
623.596	4.67
623.784	4.74
623.972	4.59
624.16	4.63
624.348	4.71
624.536	4.65
624.724	4.57
624.912	4.64
625.1	4.58
625.288	4.53
625.476	4.48
625.664	4.55
625.851	4.47
626.039	4.51
626.227	4.42
626.415	4.47
626.603	4.33
626.79	4.43
626.978	4.39
627.166	4.48
627.354	4.34
627.541	4.29
627.729	4.22
627.917	4.54
628.104	4.4
628.292	4.3
628.48	4.28
628.667	4.28
628.855	4.31
629.042	4.34
629.23	4.25
629.418	4.21
629.605	4.17
629.793	4.08
629.98	4.11
630.168	4.08
630.355	4.21
630.543	4.2
630.73	4.02
630.917	4.06
631.105	4.23
631.292	4.1
631.48	4.04
631.667	4.18
631.854	4.07
632.042	4
632.229	3.89
632.416	4
632.604	3.98
632.791	3.86
632.978	4
633.165	3.87
633.353	3.99
633.54	3.93
633.727	3.76
633.914	3.84
634.101	3.76
634.289	3.89
634.476	3.73
634.663	3.71
634.85	3.77
635.037	3.67
635.224	3.71
635.411	3.78
635.598	3.68
635.785	3.63
635.972	3.57
636.159	3.72
636.346	3.68
636.533	3.63
636.72	3.58
636.907	3.63
637.094	3.56
637.281	3.52
637.468	3.58
637.655	3.6
637.842	3.6
638.029	3.48
638.215	3.55
638.402	3.55
638.589	3.46
638.776	3.46
638.963	3.37
639.149	3.51
639.336	3.55
639.523	3.4
639.709	3.39
639.896	3.36
640.083	3.39
640.27	3.37
640.456	3.32
640.643	3.34
640.829	3.29
641.016	3.26
641.203	3.16
641.389	3.27
641.576	3.27
641.762	3.24
641.949	3.18
642.135	3.23
642.322	3.2
642.508	3.11
642.695	3.18
642.881	3.12
643.068	3.12
643.254	3.14
643.441	3.14
643.627	3.17
643.813	3.05
644	3.08
644.186	2.95
644.372	3.08
644.559	3.09
644.745	3.03
644.931	2.97
645.118	3
645.304	3.01
645.49	2.93
645.676	2.93
645.862	2.9
646.049	2.97
646.235	2.89
646.421	3.07
646.607	3.03
646.793	2.86
646.979	2.82
647.165	2.86
647.352	2.87
647.538	2.87
647.724	2.85
647.91	2.84
648.096	2.78
648.282	2.82
648.468	2.84
648.654	2.8
648.84	2.74
649.026	2.81
649.212	2.68
649.397	2.71
649.583	2.67
649.769	2.72
649.955	2.71
650.141	2.77
650.327	2.68
650.513	2.61
650.698	2.64
650.884	2.47
651.07	2.65
651.256	2.63
651.442	2.62
651.627	2.51
651.813	2.62
651.999	2.57
652.184	2.55
652.37	2.52
652.556	2.51
652.741	2.62
652.927	2.39
653.113	2.51
653.298	2.52
653.484	2.47
653.669	2.46
653.855	2.48
654.04	2.5
654.226	2.47
654.412	2.4
654.597	2.35
654.782	2.4
654.968	2.36
655.153	2.37
655.339	2.34
655.524	2.32
655.71	2.4
655.895	2.33
656.08	2.3
656.266	2.34
656.451	2.32
656.636	2.25
656.822	2.29
657.007	2.26
657.192	2.28
657.378	2.21
657.563	2.21
657.748	2.27
657.933	2.25
658.118	2.24
658.304	2.24
658.489	2.27
658.674	2.17
658.859	2.19
659.044	2.13
659.229	2.2
659.414	2.15
659.599	2.09
659.785	2.08
659.97	2.1
660.155	2.14
660.34	2.11
660.525	2.06
660.71	2.05
660.895	2.11
661.08	2.03
661.264	2.01
661.449	2.06
661.634	2.1
661.819	2.1
662.004	1.96
662.189	1.94
662.374	1.94
662.559	1.89
662.743	1.9
662.928	2.04
663.113	1.91
663.298	1.88
663.483	1.88
663.667	1.92
663.852	1.86
664.037	1.91
664.221	1.85
664.406	1.95
664.591	1.88
664.775	1.92
664.96	1.88
665.145	1.85
665.329	1.9
665.514	1.81
665.698	1.75
665.883	1.77
666.068	1.92
666.252	1.81
666.437	1.76
666.621	1.81
666.806	1.81
666.99	1.76
667.174	1.73
667.359	1.8
667.543	1.76
667.728	1.75
667.912	1.63
668.096	1.75
668.281	1.72
668.465	1.75
668.649	1.74
668.834	1.66
669.018	1.67
669.202	1.7
669.387	1.66
669.571	1.73
669.755	1.61
669.939	1.69
670.124	1.62
670.308	1.72
670.492	1.72
670.676	1.66
670.86	1.63
671.044	1.59
671.228	1.58
671.413	1.54
671.597	1.59
671.781	1.6
671.965	1.61
672.149	1.57
672.333	1.55
672.517	1.52
672.701	1.52
672.885	1.55
673.069	1.49
673.253	1.61
673.437	1.52
673.621	1.44
673.804	1.52
673.988	1.53
674.172	1.52
674.356	1.45
674.54	1.45
674.724	1.61
674.908	1.45
675.091	1.57
675.275	1.46
675.459	1.54
675.643	1.46
675.826	1.44
676.01	1.45
676.194	1.46
676.377	1.45
676.561	1.45
676.745	1.42
676.928	1.47
677.112	1.46
677.296	1.37
677.479	1.36
677.663	1.32
677.846	1.42
678.03	1.36
678.213	1.33
678.397	1.39
678.58	1.35
678.764	1.33
678.947	1.29
679.131	1.33
679.314	1.39
679.498	1.35
679.681	1.37
679.865	1.38
680.048	1.28
680.231	1.29
680.415	1.23
680.598	1.31
680.781	1.28
680.965	1.31
681.148	1.24
681.331	1.26
681.514	1.27
681.698	1.2
681.881	1.27
682.064	1.26
682.247	1.27
682.43	1.18
682.614	1.22
682.797	1.28
682.98	1.24
683.163	1.14
683.346	1.22
683.529	1.17
683.712	1.16
683.895	1.25
684.078	1.09
684.261	1.16
684.444	1.22
684.627	1.21
684.81	1.14
684.993	1.11
685.176	1.23
685.359	1.09
685.542	1.12
685.725	1.23
685.908	1.12
686.091	1.08
686.274	1.12
686.457	1.15
686.639	1.11
686.822	1.22
687.005	1.1
687.188	1.18
687.371	1.19
687.553	1.16
687.736	1.13
687.919	1.24
688.102	1.18
688.284	1.01
688.467	1.06
688.65	1.1
688.832	1.01
689.015	1.03
689.197	0.93
689.38	1.16
689.563	1.18
689.745	0.94
689.928	0.94
690.11	1.05
690.293	1.02
690.475	0.87
690.658	1.08
690.84	1.03
691.023	1.01
691.205	0.97
691.388	0.94
691.57	1.08
691.752	1.06
691.935	0.88
692.117	0.9
692.3	1.01
692.482	0.95
692.664	0.9
692.847	0.95
693.029	1.05
693.211	1
693.393	0.92
693.576	0.93
693.758	0.92
693.94	0.92
694.122	0.92
694.304	0.91
694.487	0.92
694.669	1.03
694.851	0.86
695.033	0.86
695.215	0.88
695.397	0.91
695.579	0.89
695.761	0.79
695.943	0.87
696.125	1.02
696.308	0.93
696.49	0.78
696.671	1.09
696.853	0.89
697.035	1.05
697.217	0.91
697.399	0.99
697.581	0.78
697.763	0.83
697.945	0.84
698.127	0.88
698.309	0.9
698.491	0.89
698.672	0.91
698.854	0.91
699.036	0.91
699.218	0.86
699.399	0.91
699.581	0.87
699.763	0.82
699.945	0.76
700.126	0.75
700.308	0.79
700.49	0.73
700.671	0.69
700.853	0.75
701.035	0.78
701.216	0.81
701.398	0.8
701.579	0.78
701.761	0.82
701.943	0.75
702.124	0.72
702.306	0.76
702.487	0.95
702.669	0.8
702.85	0.71
703.031	0.72
703.213	0.99
703.394	0.78
703.576	0.74
703.757	0.92
703.938	0.79
704.12	0.92
704.301	0.7
704.483	0.76
704.664	0.8
704.845	0.89
705.026	0.84
705.208	0.74
705.389	0.78
705.57	0.7
705.751	0.68
705.933	0.75
706.114	0.77
706.295	0.72
706.476	0.65
706.657	0.78
706.838	0.78
707.02	0.78
707.201	0.69
707.382	0.66
707.563	0.72
707.744	0.72
707.925	0.64
708.106	0.6
708.287	0.76
708.468	0.78
708.649	0.74
708.83	0.73
709.011	0.66
709.192	0.77
709.373	0.53
709.554	0.62
709.734	0.78
709.915	0.8
710.096	0.73
710.277	0.51
710.458	0.68
710.639	0.74
710.819	0.52
711	0.58
711.181	0.67
711.362	0.8
711.542	0.62
711.723	0.73
711.904	0.75
712.085	0.65
712.265	0.64
712.446	0.54
712.627	0.61
712.807	0.65
712.988	0.68
713.168	0.49
713.349	0.66
713.53	0.49
713.71	0.5
713.891	0.48
714.071	0.64
714.252	0.57
714.432	0.54
714.613	0.53
714.793	0.57
714.974	0.75
715.154	0.69
715.334	0.74
715.515	0.72
715.695	0.51
715.876	0.58
716.056	0.56
716.236	0.5
716.417	0.57
716.597	0.56
716.777	0.79
716.957	0.51
717.138	0.6
717.318	0.54
717.498	0.5
717.678	0.6
717.859	0.54
718.039	0.43
718.219	0.61
718.399	0.54
718.579	0.48
718.759	0.49
718.939	0.6
719.12	0.58
719.3	0.52
719.48	0.38
719.66	0.43
719.84	0.7
720.02	0.51
720.2	0.49
720.38	0.55
720.56	0.73
720.74	0.46
720.92	0.51
721.1	0.77
721.279	0.67
721.459	0.57
721.639	0.46
721.819	0.52
721.999	0.52
722.179	0.6
722.359	0.43
722.538	0.54
722.718	0.54
722.898	0.49
723.078	0.44
723.257	0.51
723.437	0.56
723.617	0.56
723.797	0.55
723.976	0.49
724.156	0.54
724.336	0.62
724.515	0.72
724.695	0.39
724.874	0.47
725.054	0.57
725.234	0.55
725.413	0.54
725.593	0.54
725.772	0.56
725.952	0.53
726.131	0.47
726.311	0.49
726.49	0.45
726.67	0.39
726.849	0.47
727.028	0.5
727.208	0.47
727.387	0.55
727.567	0.35
727.746	0.46
727.925	0.47
728.105	0.3
728.284	0.46
728.463	0.37
728.643	0.53
728.822	0.34
729.001	0.46
729.18	0.57
729.359	0.62
729.539	0.49
729.718	0.51
729.897	0.56
730.076	0.5
730.255	0.39
730.434	0.46
730.614	0.58
730.793	0.59
730.972	0.36
731.151	0.51
731.33	0.59
731.509	0.49
731.688	0.38
731.867	0.48
732.046	0.28
732.225	0.64
732.404	0.42
732.583	0.37
732.762	0.42
732.941	0.56
733.12	0.46
733.298	0.44
733.477	0.55
733.656	0.42
733.835	0.45
734.014	0.62
734.193	0.48
734.371	0.5
734.55	0.6
734.729	0.42
734.908	0.48
735.086	0.51
735.265	0.59
735.444	0.23
735.623	0.28
735.801	0.45
735.98	0.48
736.159	0.39
736.337	0.53
736.516	0.46
736.694	0.49
736.873	0.42
737.052	0.73
737.23	0.71
737.409	0.4
737.587	0.8
737.766	0.3
737.944	0.43
738.123	0.49
738.301	0.55
738.479	0.41
738.658	0.47
738.836	0.38
739.015	0.55
739.193	0.66
739.371	0.3
739.55	0.38
739.728	0.34
739.906	0.62
740.085	0.7
740.263	0.45
740.441	0.34
740.62	0.67
740.798	0.51
740.976	0.42
741.154	0.32
741.332	0.63
741.511	0.46
741.689	0.52
741.867	0.57
742.045	0.62
742.223	0.32
742.401	0.37
742.579	0.29
742.757	0.54
742.935	0.26
743.114	0.36
743.292	0.36
743.47	0.48
743.648	0.4
743.826	0.5
744.004	0.5
744.181	0.62
744.359	0.43
744.537	0.5
744.715	0.34
744.893	0.39
745.071	0.48
745.249	0.3
745.427	0.36
745.605	0.47
745.782	0.42
745.96	0.46
746.138	0.49
746.316	0.56
746.493	0.22
746.671	0.43
746.849	0.33
747.027	0.63
747.204	0.41
747.382	0.39
747.56	0.35
747.737	0.22
747.915	0.37
748.093	0.55
748.27	0.23
748.448	0.31
748.625	0.25
748.803	0.31
748.98	0.24
749.158	0.54
749.335	0.51
749.513	0.44
749.69	0.33
749.868	0.34
750.045	0.46
750.223	0.32
750.4	0.18
750.578	0.55
750.755	0.39
750.932	0.28
751.11	0.45
751.287	0.2
751.464	0.5
751.642	0.16
751.819	0.46
751.996	0.36
752.173	0.29
752.351	0.24
752.528	0.33
752.705	0.42
752.882	0.28
753.06	0.35
753.237	0.49
753.414	0.61
753.591	0.58
753.768	0.38
753.945	0.34
754.122	0.26
754.299	0.52
754.476	0.24
754.654	0.35
754.831	0.42
755.008	0.5
755.185	0.3
755.362	0.27
755.539	0.38
755.716	0.4
755.892	0.4
756.069	0.36
756.246	0.43
756.423	0.32
756.6	0.52
756.777	0.25
756.954	0.61
757.131	0.29
757.307	0.38
757.484	0.17
757.661	0.37
757.838	0.4
758.015	0.16
758.191	0.36
758.368	0.36
758.545	0.53
758.721	0.35
758.898	0.29
759.075	0.43
759.251	0.4
759.428	0.42
759.605	0.27
759.781	0.34
759.958	0.45
760.134	0.42
760.311	0.27
760.488	0.45
760.664	0.65
760.841	0.34
761.017	0.22
761.194	0.42
761.37	0.52
761.547	0.35
761.723	0.42
761.899	0.56
762.076	0.16
762.252	0.24
762.429	0.29
762.605	0.54
762.781	0.26
762.958	0.38
763.134	0.31
763.31	0.2
763.486	0.45
763.663	0.13
763.839	0.39
764.015	0.08
764.191	0.23
764.368	0.34
764.544	0.26
764.72	0.35
764.896	0.46
765.072	0.44
765.248	0.32
765.425	0.28
765.601	0.36
765.777	0.38
765.953	0.04
766.129	0.31
766.305	0.23
766.481	0.36
766.657	0.35
766.833	0.46
767.009	0.21
767.185	0.26
767.361	0.33
767.537	0.15
767.713	0.61
767.889	0.23
768.065	0.32
768.24	0.34
768.416	0.5
768.592	0.25
768.768	0.33
768.944	0.54
769.12	0.15
769.295	0.2
769.471	0.23
769.647	0.39
769.823	0.59
769.998	0.22
770.174	0.27
770.35	0.63
770.525	0.62
770.701	0.4
770.877	0.26
771.052	0.32
771.228	0.46
771.403	0.42
771.579	0.31
771.755	0.69
771.93	0.24
772.106	0.22
772.281	0.15
772.457	0.34
772.632	0.47
772.808	0.34
772.983	0.23
773.159	0.3
773.334	0.65
773.509	0.44
773.685	0.29
773.86	0.8
774.036	0.73
774.211	0.42
774.386	0.3
774.562	0.33
774.737	0.63
774.912	0.21
775.087	0.35
775.263	0.39
775.438	0.4
775.613	0.3
775.788	0.27
775.964	0.55
776.139	0.8
776.314	0.25
776.489	0.33
776.664	0.31
776.839	0.18
777.014	0.41
777.19	0.33
777.365	0.67
777.54	0.63
777.715	0.25
777.89	0.24
778.065	0.24
778.24	0.52
778.415	0.55
778.59	0.07
778.765	0.44
778.94	0.36
779.115	0.28
779.289	0.3
779.464	0.29
779.639	0.53
779.814	0.12
779.989	0.05
780.164	0.64
780.339	0.31
780.513	0.19
780.688	0.14
780.863	0.39
781.038	0.57
781.212	0.05
781.387	0.23
781.562	0.6
781.737	0.24
781.911	0.58
782.086	0.12
782.261	0.46
782.435	0.7
782.61	0.37
782.784	0.41
782.959	0.86
783.134	0.23
783.308	0.06
783.483	0.29
783.657	0.92
783.832	0.61
784.006	-0.09
784.181	0.27
784.355	0.49
784.53	0.17
784.704	0.28
784.878	0.64
785.053	0.52
785.227	0.77
785.402	0.58
785.576	0.12
785.75	0.51
785.925	0.28
786.099	0.43
786.273	0.33
786.448	0.62
786.622	0.71
786.796	0.37
786.97	0.23
787.145	0.9
787.319	0.21
787.493	0.35
787.667	0.09
787.841	0.3
788.015	0.56
788.19	0.25
788.364	0.23
788.538	0.56
788.712	0.69
788.886	0.66
789.06	0.56
789.234	0.55
789.408	0.38
789.582	0.35
789.756	0.26
789.93	0.25
790.104	0.34
790.278	0.34
790.452	0.19
790.626	0.56
790.8	0.33
790.973	0.65
791.147	0.69
791.321	0.78
791.495	0.45
791.669	0.59
791.843	0.4
792.016	0.42
792.19	0.8
792.364	-0
792.538	0.98
792.711	0.69
792.885	0.22
793.059	0.07
793.233	-0.27
793.406	0.67
793.58	0.51
793.754	0.73
793.927	0.09
794.101	0.64
794.274	0.52
794.448	0.78
794.622	-0.09
794.795	1.02
794.969	0.33
795.142	0.75
795.316	0.19
795.489	0.06
795.663	0.96
795.836	0.41
796.009	0.44
796.183	0.8
796.356	0.56
796.53	0.47
796.703	0.38
796.876	1.03
797.05	0.56
797.223	0.34
797.396	0.52
797.57	0.51
797.743	0.99
797.916	0.44
798.09	0.05
798.263	0.78
798.436	0.55
798.609	0.21
798.782	0.37
798.956	0.74
799.129	0.16
799.302	0.15
799.475	0.13
799.648	0.39
799.821	0.31
799.994	0.47
800.167	0.01
800.34	0.26
800.514	0.64
800.687	0.37
800.86	0.3
801.033	0.55
801.206	0.85
801.379	0.33
801.551	0.55
801.724	0.59
801.897	0.9
802.07	0.33
802.243	-0.27
802.416	0.54
802.589	0.71
802.762	0.42
802.935	0.29
803.107	0.8
803.28	0.96
803.453	0.68
803.626	0.26
803.798	0.63
803.971	0.44
804.144	0.6
804.317	0.32
804.489	0.99
804.662	0.61
804.835	0.49
805.007	0.3
805.18	1.17
805.353	0.52
805.525	0.17
805.698	0.48
805.87	0.77
806.043	0.71
806.215	-0.07
806.388	0.22
806.56	0.45
806.733	1.05
806.905	0.52
807.078	0.35
807.25	0.52
807.423	0.73
807.595	0.67
807.768	0.35
807.94	0.55
808.112	0.58
808.285	0.42
808.457	0.15
808.629	0.46
808.802	0.82
808.974	0.4
809.146	0.34
809.318	0.27
809.491	0.68
809.663	0.84
809.835	0.32
810.007	0.57
810.18	0.52
810.352	0.1
810.524	0.45
810.696	0.59
810.868	0.9
811.04	0.35
811.212	0.55
811.384	0.54
811.556	1
811.728	0.35
811.901	1.39
812.073	0.53
812.245	0.95
812.417	0.3
812.589	0.09
812.76	0.64
812.932	0.63
813.104	0.81
813.276	0.02
813.448	0.97
813.62	0.47
813.792	0.64
813.964	0.67
814.136	1.13
814.307	0.31
814.479	-0.04
814.651	0.51
814.823	1.65
814.995	0.24
815.166	0.41
815.338	0.09
815.51	0.36
815.681	1.6
815.853	0.65
816.025	0.21
816.196	1.35
816.368	0.86
816.54	-0.1
816.711	0.35
816.883	0.81
817.054	1.83
817.226	-0.16
817.398	0.65
817.569	0.26
817.741	0.61
817.912	0.79
818.084	0.46
818.255	1.2
818.426	0.39
818.598	0.14
818.769	0.49
818.941	1.07
819.112	1.39
819.283	0.46
819.455	0.19
819.626	0.52
819.798	1.04
819.969	0.28
820.14	0.48
820.311	0.28
820.483	0.96
820.654	0.86
820.825	0.47
820.996	0.51
821.168	-0.15
821.339	0.57
821.51	-0.17
821.681	0.3
821.852	0.77
822.023	-0.01
822.195	-0.16
822.366	1.1
822.537	0.38
822.708	0.91
822.879	0.08
823.05	1.04
823.221	0.15
823.392	0.88
823.563	0.65
823.734	0.77
823.905	0.71
824.076	-0.2
824.247	-0.13
824.418	0.49
824.589	2.37
824.759	0.7
824.93	0.55
825.101	0.46
825.272	1.2
825.443	1.28
825.614	1.12
825.784	0.18
825.955	1.48
826.126	1.22
826.297	0.42
826.467	1.36
826.638	1.79
826.809	-0.44
826.98	0.55
827.15	0.99
827.321	1.07
827.492	1.12
827.662	0.89
827.833	1.91
828.003	1.72
828.174	0.13
828.345	0.25
828.515	1.38
828.686	1.34
828.856	0.41
829.027	1.23
829.197	1.5
829.368	0.99
829.538	0.23
829.709	0.4
829.879	1.13
830.049	0.95
830.22	-0.07
830.39	0.49
830.56	2.05
830.731	0.74
830.901	0.13
831.072	0.43
831.242	1.19
831.412	1.34
831.582	0.75
831.753	0.03
831.923	1.11
832.093	1.01
832.263	0.98
832.434	0.28
832.604	0.43
832.774	1.68
832.944	0.69
833.114	0.22
833.284	1.1
833.454	0.38
833.624	0.54
833.795	-0.17
833.965	1.63
834.135	1.74
834.305	-0.6
834.475	0.12
834.645	1.27
834.815	0.54
834.985	-0.11
835.155	-0.06
835.325	0.61
835.494	2.07
835.664	0.44
835.834	0.38
836.004	0.7
836.174	1.12
836.344	0.69
836.514	0.23
836.684	0.78
836.853	0.81
837.023	0.82
837.193	0.66
837.363	1.65
837.532	1.03
837.702	0.64
837.872	-0.29
838.041	1.15
838.211	2.92
838.381	-0.67
838.55	0.23
838.72	2.67
838.89	2
839.059	0.67
839.229	-0.15
839.398	3.5
839.568	1.34
839.738	0.04
839.907	1.9
840.077	0.48
840.246	-0.37
840.416	0.39
840.585	0.79
840.755	2.81
840.924	2.3
841.093	0.06
841.263	0.25
841.432	0.32
841.602	-0.38
841.771	0.07
841.94	0.47
842.11	3.19
842.279	2.79
842.448	0.48
842.617	-0.05
842.787	1.89
842.956	0.81
843.125	0.39
843.294	0.41
843.464	2.64
843.633	0.86
843.802	0.05
843.971	0.79
844.14	1.55
844.309	1.27
844.479	-0.19
844.648	0.19
844.817	1.02
844.986	1.2
845.155	1.25
845.324	0.98
845.493	0.82
845.662	0.55
845.831	0.65
846	1.2
846.169	0.88
846.338	1.84
846.507	1.62
846.676	0.73
846.844	1.19
847.013	1.26
847.182	1.78
847.351	0.41
847.52	1.18
847.689	1.08
847.858	1.2
848.026	0.25
848.195	1.69
848.364	1.08
848.533	-0.03
848.701	0.17
848.87	1.2
849.039	2.32
849.207	1.3
849.376	2.33
849.545	2.72
849.713	0.69
849.882	0.57
850.051	0.14
850.219	1.37
850.388	2.04
850.556	0.77
850.725	0.58
850.893	1.87
851.062	-0.04
851.23	1.64
851.399	-0.71
851.567	1.09
851.736	0.36
851.904	-0.07
852.073	1.16
852.241	1.91
852.41	1.17
852.578	0.59
852.746	0.01
852.915	2.13
853.083	1.56
853.251	-0.33
853.42	0.28
853.588	0.83
853.756	2.74
853.924	1.02
854.093	1.68
854.261	0.25
854.429	-0.19
854.597	1.48
854.765	-0.09
854.934	1.51
855.102	3.14
855.27	1.36
855.438	2.08
855.606	3.87
855.774	2.15
855.942	-0.33
856.11	-0.7
856.278	1.89
856.446	2.57
856.614	1.7
856.782	-0.48
856.95	3.22
857.118	2.66
857.286	0.96
857.454	-0.03
857.622	2.3
857.79	1.76
857.958	1.06
858.126	-0
858.294	-1.04
858.462	1.63
858.629	0.02
858.797	-0.75
858.965	1.73
859.133	1.91
859.301	1.37
859.468	2.07
859.636	0.55
859.804	3.18
859.971	1.53
860.139	0.26
860.307	2.15
860.474	1.75
860.642	0.39
860.81	0.07
860.977	1.06
861.145	3.98
861.313	1.57
861.48	1.14
861.648	1.67
861.815	0.7
861.983	-0.7
862.15	0.23
862.318	1.61
862.485	3.7
862.653	0.23
862.82	-1.1
862.988	3.95
863.155	2.19
863.322	1.68
863.49	0.25
863.657	0.88
863.824	3.76
863.992	1.64
864.159	0.94
864.326	3.29
864.494	0.05
864.661	4.4
864.828	0.48
864.996	4.46
865.163	3.44
865.33	-0.25
865.497	-1.76
865.664	0.44
865.832	-0.99
865.999	1.08
866.166	0.29
866.333	1.96
866.5	0.97
866.667	0.4
866.834	2.06
867.001	3.01
867.168	-1
867.335	1.29
867.502	-0.7
867.669	2.49
867.836	4.78
868.003	1.33
868.17	3.88
868.337	4.62
868.504	6.84
868.671	-1.29
868.838	0.38
869.005	1.88
869.172	2.27
869.339	1.64
869.505	0.17
869.672	1.84
869.839	3.72
870.006	0.75
870.173	-0.08
870.339	2.25
870.506	4.26
870.673	0.23
870.84	2.17
871.006	2.42
871.173	1.57
871.34	0.78
871.506	0.16
871.673	2.54
871.839	-0.32
872.006	1.43
872.173	0.18
872.339	2.11
872.506	3.57
872.672	0.81
872.839	-1.39
873.005	1.89
873.172	4.61
873.338	3.28
873.505	2.37
873.671	3.78
873.838	2.6
874.004	-1.26
874.171	0.23
874.337	2.77
874.503	2.35
874.67	1.63
874.836	0.58
875.002	3.81
875.169	3.52
875.335	0.59
875.501	1.96
875.668	3.06
875.834	1.34
876	1.22
876.166	2.78
876.332	4.09
876.499	4.38
876.665	0.03
876.831	2.62
876.997	7.43
877.163	3.56
877.329	2.67
877.495	-0.02
877.662	2.7
877.828	2.83
877.994	1.91
878.16	-1.54
878.326	1.45
878.492	2.44
878.658	1.18
878.824	2.78
878.99	3.49
879.156	1.24
879.322	4.42
879.487	1.04
879.653	2.22
879.819	3.72
879.985	0.81
880.151	1.6
880.317	3.25
880.483	1.82
880.648	3.3
880.814	-1.16
880.98	2.96
881.146	0.76
881.312	0.63
881.477	-0.18
881.643	2.19
881.809	3.25
881.974	1.27
882.14	0.22
882.306	1.18
882.471	4.53
882.637	-0.83
882.803	1.96
882.968	6.41
883.134	7.1
883.299	1.19
883.465	2.44
883.63	1
883.796	3.63
883.961	2.78
884.127	1.93
884.292	-3.37
884.458	-1.19
884.623	-1.19
