Data from Apollo_Calib_20240827__AbsoluteIrradiance__884__13-53-01-948.txt Node

Date: Wed Aug 28 13:53:01 BST 2024
User: biology
Spectrometer: FLMT08252
Trigger mode: 0
Integration Time (sec): 5.000000E-1
Scans to average: 5
Electric dark correction enabled: true
Nonlinearity correction enabled: false
Boxcar width: 0
XAxis mode: Wavelengths
Number of Pixels in Spectrum: 3648
>>>>>Begin Spectral Data<<<<<
179.588	-0
179.809	-0
180.03	-0
180.251	-0
180.473	-0
180.694	0
180.915	0
181.136	-0
181.357	0
181.578	-0
181.799	-0
182.02	-0
182.241	-0
182.462	-0
182.683	0
182.904	-0
183.125	-0
183.346	0
183.567	0
183.788	0
184.009	0
184.23	0
184.451	0
184.672	0
184.892	0
185.113	0
185.334	0
185.555	0
185.776	0
185.996	0
186.217	0
186.438	0
186.659	0
186.879	0
187.1	0
187.321	0
187.541	0
187.762	0
187.983	0
188.203	0
188.424	0
188.644	0
188.865	0
189.086	0
189.306	0
189.527	0
189.747	0
189.968	0
190.188	0
190.409	0
190.629	0
190.849	0
191.07	0
191.29	0
191.511	0
191.731	0
191.951	0
192.172	0
192.392	0
192.612	0
192.833	0
193.053	0
193.273	0
193.493	0
193.714	0
193.934	0
194.154	0
194.374	0
194.594	0
194.815	0
195.035	0
195.255	0
195.475	0
195.695	0
195.915	0
196.135	0
196.355	0
196.575	0
196.795	0
197.015	0
197.235	0
197.455	0
197.675	0
197.895	0
198.115	0
198.335	0
198.555	0
198.775	0
198.995	0
199.214	0
199.434	0
199.654	0
199.874	0
200.094	4.2
200.313	2.47
200.533	1.38
200.753	1.22
200.973	3.79
201.192	3.42
201.412	1.11
201.632	2.04
201.851	3.1
202.071	1.52
202.291	1.23
202.51	1.15
202.73	2.77
202.95	1.75
203.169	1.07
203.389	1.7
203.608	1.52
203.828	1.7
204.047	1.13
204.267	2.01
204.486	2.19
204.706	2.3
204.925	1.76
205.145	1.15
205.364	2.2
205.583	2.59
205.803	1.17
206.022	1.14
206.242	1.79
206.461	1.89
206.68	1.19
206.9	1.21
207.119	2.62
207.338	2.14
207.557	0.99
207.777	1.03
207.996	1.42
208.215	2.05
208.434	0.91
208.654	0.69
208.873	1.43
209.092	2.11
209.311	0.95
209.53	1.12
209.749	1.22
209.968	1.01
210.187	0.91
210.407	0.79
210.626	1.35
210.845	1.75
211.064	0.83
211.283	0.69
211.502	1.46
211.721	1.28
211.94	0.82
212.159	1.2
212.377	1.43
212.596	1.5
212.815	1.05
213.034	1.11
213.253	1.44
213.472	1.15
213.691	0.83
213.91	0.5
214.128	0.78
214.347	1.78
214.566	0.66
214.785	0.4
215.003	1.14
215.222	1.34
215.441	0.58
215.66	0.36
215.878	1.21
216.097	1.3
216.316	0.8
216.534	0.84
216.753	1.14
216.972	0.72
217.19	0.98
217.409	0.74
217.627	0.88
217.846	0.85
218.064	1.08
218.283	0.56
218.501	1.29
218.72	1.16
218.938	0.54
219.157	0.63
219.375	1.21
219.594	1.18
219.812	0.3
220.031	0.36
220.249	1.2
220.467	1.13
220.686	0.49
220.904	0.46
221.122	0.7
221.341	1.15
221.559	0.84
221.777	0.4
221.995	0.74
222.214	0.95
222.432	0.47
222.65	0.73
222.868	0.71
223.086	0.74
223.305	0.85
223.523	0.63
223.741	1.27
223.959	0.77
224.177	0.2
224.395	0.6
224.613	0.81
224.831	0.94
225.049	0.44
225.267	0.41
225.485	0.71
225.703	0.54
225.921	0.46
226.139	0.43
226.357	0.8
226.575	0.82
226.793	0.51
227.011	1.42
227.229	0.69
227.447	0.82
227.665	0.54
227.883	0.32
228.1	0.6
228.318	0.78
228.536	0.18
228.754	0.45
228.972	0.55
229.189	0.71
229.407	0.47
229.625	0.52
229.843	0.73
230.06	0.73
230.278	0.56
230.496	0.55
230.713	0.64
230.931	0.77
231.149	0.39
231.366	0.31
231.584	0.54
231.801	0.94
232.019	0.47
232.236	0.3
232.454	0.42
232.671	0.61
232.889	0.42
233.106	0.31
233.324	0.57
233.541	0.51
233.759	0.51
233.976	0.35
234.194	0.61
234.411	0.53
234.628	0.45
234.846	0.37
235.063	0.6
235.28	0.63
235.498	0.42
235.715	0.34
235.932	0.77
236.149	0.57
236.367	0.36
236.584	0.52
236.801	0.42
237.018	0.68
237.236	0.5
237.453	0.27
237.67	0.72
237.887	0.46
238.104	0.45
238.321	0.3
238.538	0.27
238.755	0.65
238.973	0.22
239.19	0.44
239.407	0.56
239.624	0.43
239.841	0.26
240.058	0.29
240.275	0.49
240.492	0.5
240.709	0.47
240.925	0.39
241.142	0.55
241.359	0.34
241.576	0.26
241.793	0.35
242.01	0.48
242.227	0.53
242.444	0.51
242.66	0.55
242.877	0.52
243.094	0.32
243.311	0.42
243.527	0.45
243.744	0.41
243.961	0.52
244.178	0.27
244.394	0.4
244.611	0.6
244.828	0.67
245.044	0.32
245.261	0.34
245.477	0.48
245.694	0.62
245.911	0.31
246.127	0.41
246.344	0.68
246.56	0.55
246.777	0.33
246.993	0.36
247.21	0.4
247.426	0.57
247.643	0.32
247.859	0.25
248.076	0.3
248.292	0.75
248.508	0.38
248.725	0.41
248.941	0.35
249.157	0.56
249.374	0.29
249.59	0.36
249.806	0.39
250.023	0.45
250.239	0.31
250.455	0.2
250.671	0.34
250.888	0.45
251.104	0.45
251.32	0.3
251.536	0.36
251.752	0.3
251.969	0.4
252.185	0.37
252.401	0.66
252.617	0.46
252.833	0.28
253.049	0.37
253.265	0.42
253.481	0.45
253.697	0.32
253.913	0.28
254.129	0.44
254.345	0.44
254.561	0.37
254.777	0.31
254.993	0.49
255.209	0.43
255.425	0.36
255.641	0.25
255.857	0.57
256.073	0.41
256.288	0.29
256.504	0.3
256.72	0.5
256.936	0.56
257.152	0.38
257.367	0.3
257.583	0.46
257.799	0.56
258.015	0.27
258.23	0.28
258.446	0.65
258.662	0.34
258.877	0.25
259.093	0.27
259.309	0.39
259.524	0.43
259.74	0.28
259.955	0.24
260.171	0.3
260.387	0.44
260.602	0.27
260.818	0.39
261.033	0.23
261.249	0.49
261.464	0.33
261.68	0.21
261.895	0.45
262.11	0.44
262.326	0.34
262.541	0.23
262.757	0.48
262.972	0.45
263.187	0.32
263.403	0.36
263.618	0.47
263.833	0.39
264.049	0.31
264.264	0.31
264.479	0.33
264.694	0.52
264.91	0.15
265.125	0.35
265.34	0.38
265.555	0.57
265.77	0.39
265.986	0.3
266.201	0.46
266.416	0.46
266.631	0.33
266.846	0.26
267.061	0.4
267.276	0.49
267.491	0.15
267.706	0.42
267.921	0.39
268.136	0.35
268.351	0.34
268.566	0.25
268.781	0.44
268.996	0.45
269.211	0.24
269.426	0.25
269.641	0.29
269.856	0.5
270.071	0.23
270.285	0.23
270.5	0.42
270.715	0.45
270.93	0.31
271.145	0.31
271.359	0.42
271.574	0.25
271.789	0.27
272.004	0.25
272.218	0.29
272.433	0.38
272.648	0.28
272.862	0.39
273.077	0.39
273.292	0.24
273.506	0.18
273.721	0.27
273.936	0.39
274.15	0.46
274.365	0.25
274.579	0.36
274.794	0.4
275.008	0.43
275.223	0.21
275.437	0.32
275.652	0.38
275.866	0.34
276.081	0.27
276.295	0.4
276.509	0.33
276.724	0.36
276.938	0.3
277.153	0.3
277.367	0.36
277.581	0.28
277.796	0.28
278.01	0.21
278.224	0.41
278.438	0.53
278.653	0.25
278.867	0.2
279.081	0.42
279.295	0.28
279.51	0.27
279.724	0.13
279.938	0.41
280.152	0.34
280.366	0.28
280.58	0.27
280.794	0.42
281.008	0.34
281.222	0.34
281.437	0.5
281.651	0.33
281.865	0.42
282.079	0.27
282.293	0.16
282.507	0.24
282.721	0.3
282.935	0.28
283.148	0.16
283.362	0.29
283.576	0.2
283.79	0.29
284.004	0.29
284.218	0.38
284.432	0.23
284.646	0.28
284.859	0.24
285.073	0.26
285.287	0.31
285.501	0.22
285.714	0.3
285.928	0.32
286.142	0.3
286.356	0.2
286.569	0.23
286.783	0.4
286.997	0.37
287.21	0.29
287.424	0.26
287.637	0.3
287.851	0.27
288.065	0.31
288.278	0.21
288.492	0.3
288.705	0.25
288.919	0.35
289.132	0.18
289.346	0.34
289.559	0.22
289.773	0.2
289.986	0.28
290.2	0.24
290.413	0.35
290.626	0.19
290.84	0.2
291.053	0.3
291.267	0.42
291.48	0.26
291.693	0.24
291.906	0.26
292.12	0.26
292.333	0.2
292.546	0.23
292.76	0.38
292.973	0.32
293.186	0.34
293.399	0.22
293.612	0.3
293.826	0.28
294.039	0.26
294.252	0.23
294.465	0.35
294.678	0.33
294.891	0.27
295.104	0.23
295.317	0.23
295.53	0.26
295.743	0.28
295.956	0.19
296.169	0.37
296.382	0.31
296.595	0.28
296.808	0.18
297.021	0.33
297.234	0.34
297.447	0.22
297.66	0.3
297.873	0.31
298.086	0.36
298.299	0.23
298.511	0.2
298.724	0.28
298.937	0.19
299.15	0.18
299.363	0.23
299.575	0.36
299.788	0.27
300.001	0.24
300.213	0.24
300.426	0.23
300.639	0.2
300.852	0.18
301.064	0.27
301.277	0.35
301.489	0.29
301.702	0.25
301.915	0.25
302.127	0.28
302.34	0.3
302.552	0.27
302.765	0.2
302.977	0.35
303.19	0.22
303.402	0.19
303.615	0.2
303.827	0.26
304.04	0.2
304.252	0.3
304.464	0.25
304.677	0.42
304.889	0.33
305.102	0.2
305.314	0.22
305.526	0.37
305.739	0.33
305.951	0.19
306.163	0.19
306.375	0.36
306.588	0.23
306.8	0.23
307.012	0.21
307.224	0.28
307.436	0.32
307.649	0.15
307.861	0.23
308.073	0.3
308.285	0.23
308.497	0.18
308.709	0.18
308.921	0.31
309.133	0.34
309.346	0.21
309.558	0.22
309.77	0.3
309.982	0.4
310.194	0.28
310.406	0.16
310.617	0.39
310.829	0.3
311.041	0.29
311.253	0.21
311.465	0.25
311.677	0.25
311.889	0.26
312.101	0.25
312.313	0.34
312.524	0.38
312.736	0.22
312.948	0.23
313.16	0.37
313.372	0.28
313.583	0.25
313.795	0.22
314.007	0.2
314.218	0.3
314.43	0.26
314.642	0.2
314.853	0.17
315.065	0.3
315.277	0.24
315.488	0.25
315.7	0.31
315.912	0.29
316.123	0.21
316.335	0.22
316.546	0.34
316.758	0.26
316.969	0.2
317.181	0.27
317.392	0.27
317.604	0.34
317.815	0.18
318.026	0.23
318.238	0.23
318.449	0.26
318.661	0.14
318.872	0.17
319.083	0.21
319.295	0.33
319.506	0.23
319.717	0.25
319.929	0.27
320.14	0.27
320.351	0.25
320.562	0.21
320.774	0.29
320.985	0.27
321.196	0.2
321.407	0.15
321.618	0.31
321.829	0.27
322.041	0.27
322.252	0.2
322.463	0.31
322.674	0.29
322.885	0.17
323.096	0.22
323.307	0.32
323.518	0.3
323.729	0.18
323.94	0.18
324.151	0.22
324.362	0.25
324.573	0.23
324.784	0.2
324.995	0.31
325.206	0.27
325.417	0.28
325.628	0.21
325.838	0.25
326.049	0.28
326.26	0.26
326.471	0.22
326.682	0.26
326.892	0.28
327.103	0.2
327.314	0.22
327.525	0.38
327.735	0.25
327.946	0.25
328.157	0.24
328.368	0.26
328.578	0.25
328.789	0.26
328.999	0.24
329.21	0.22
329.421	0.29
329.631	0.2
329.842	0.2
330.052	0.26
330.263	0.26
330.473	0.28
330.684	0.2
330.894	0.23
331.105	0.28
331.315	0.25
331.526	0.18
331.736	0.34
331.947	0.3
332.157	0.28
332.367	0.19
332.578	0.27
332.788	0.34
332.999	0.28
333.209	0.24
333.419	0.19
333.629	0.28
333.84	0.27
334.05	0.24
334.26	0.33
334.47	0.25
334.681	0.29
334.891	0.24
335.101	0.31
335.311	0.36
335.521	0.23
335.732	0.21
335.942	0.31
336.152	0.24
336.362	0.25
336.572	0.26
336.782	0.3
336.992	0.22
337.202	0.21
337.412	0.22
337.622	0.31
337.832	0.24
338.042	0.2
338.252	0.19
338.462	0.19
338.672	0.25
338.882	0.26
339.092	0.21
339.302	0.37
339.511	0.32
339.721	0.18
339.931	0.15
340.141	0.31
340.351	0.3
340.561	0.25
340.77	0.26
340.98	0.27
341.19	0.3
341.4	0.25
341.609	0.17
341.819	0.26
342.029	0.21
342.238	0.22
342.448	0.19
342.658	0.28
342.867	0.29
343.077	0.24
343.286	0.21
343.496	0.31
343.706	0.35
343.915	0.18
344.125	0.25
344.334	0.26
344.544	0.15
344.753	0.22
344.963	0.18
345.172	0.18
345.381	0.25
345.591	0.21
345.8	0.26
346.01	0.3
346.219	0.33
346.428	0.1
346.638	0.2
346.847	0.29
347.056	0.31
347.266	0.24
347.475	0.21
347.684	0.26
347.893	0.28
348.103	0.28
348.312	0.21
348.521	0.26
348.73	0.26
348.94	0.23
349.149	0.2
349.358	0.24
349.567	0.21
349.776	0.16
349.985	0.21
350.194	0.3
350.403	0.33
350.612	0.16
350.821	0.18
351.03	0.28
351.239	0.17
351.448	0.22
351.657	0.2
351.866	0.34
352.075	0.25
352.284	0.3
352.493	0.19
352.702	0.32
352.911	0.22
353.12	0.27
353.329	0.25
353.538	0.3
353.746	0.27
353.955	0.25
354.164	0.27
354.373	0.21
354.582	0.33
354.79	0.22
354.999	0.27
355.208	0.2
355.416	0.29
355.625	0.21
355.834	0.23
356.042	0.28
356.251	0.21
356.46	0.19
356.668	0.26
356.877	0.39
357.085	0.32
357.294	0.14
357.503	0.27
357.711	0.24
357.92	0.41
358.128	0.27
358.337	0.21
358.545	0.25
358.754	0.21
358.962	0.3
359.17	0.23
359.379	0.28
359.587	0.25
359.796	0.24
360.004	0.32
360.212	0.34
360.421	0.33
360.629	0.2
360.837	0.24
361.046	0.32
361.254	0.41
361.462	0.27
361.67	0.24
361.879	0.3
362.087	0.35
362.295	0.25
362.503	0.23
362.711	0.17
362.92	0.22
363.128	0.2
363.336	0.21
363.544	0.19
363.752	0.28
363.96	0.28
364.168	0.23
364.376	0.29
364.584	0.26
364.792	0.28
365	0.29
365.208	0.27
365.416	0.28
365.624	0.34
365.832	0.2
366.04	0.34
366.248	0.27
366.456	0.25
366.664	0.21
366.872	0.24
367.079	0.23
367.287	0.22
367.495	0.25
367.703	0.22
367.911	0.23
368.118	0.25
368.326	0.24
368.534	0.21
368.742	0.34
368.949	0.15
369.157	0.19
369.365	0.28
369.572	0.24
369.78	0.2
369.988	0.28
370.195	0.25
370.403	0.3
370.61	0.21
370.818	0.26
371.026	0.38
371.233	0.23
371.441	0.25
371.648	0.24
371.856	0.3
372.063	0.23
372.271	0.23
372.478	0.17
372.685	0.24
372.893	0.32
373.1	0.23
373.308	0.17
373.515	0.38
373.722	0.33
373.93	0.24
374.137	0.25
374.344	0.33
374.552	0.27
374.759	0.26
374.966	0.2
375.173	0.25
375.381	0.31
375.588	0.26
375.795	0.16
376.002	0.27
376.209	0.21
376.417	0.2
376.624	0.31
376.831	0.31
377.038	0.23
377.245	0.14
377.452	0.22
377.659	0.24
377.866	0.22
378.073	0.24
378.28	0.23
378.487	0.36
378.694	0.29
378.901	0.21
379.108	0.22
379.315	0.28
379.522	0.37
379.729	0.26
379.936	0.26
380.143	0.26
380.35	0.27
380.557	0.22
380.763	0.27
380.97	0.3
381.177	0.28
381.384	0.3
381.591	0.28
381.797	0.28
382.004	0.3
382.211	0.29
382.418	0.23
382.624	0.3
382.831	0.34
383.038	0.26
383.244	0.3
383.451	0.27
383.658	0.29
383.864	0.23
384.071	0.22
384.277	0.35
384.484	0.26
384.69	0.36
384.897	0.24
385.103	0.24
385.31	0.2
385.516	0.21
385.723	0.2
385.929	0.31
386.136	0.23
386.342	0.28
386.549	0.28
386.755	0.38
386.961	0.32
387.168	0.23
387.374	0.32
387.58	0.28
387.787	0.28
387.993	0.28
388.199	0.27
388.406	0.22
388.612	0.25
388.818	0.24
389.024	0.22
389.231	0.32
389.437	0.36
389.643	0.32
389.849	0.28
390.055	0.32
390.261	0.27
390.467	0.3
390.674	0.25
390.88	0.3
391.086	0.33
391.292	0.22
391.498	0.35
391.704	0.32
391.91	0.26
392.116	0.27
392.322	0.17
392.528	0.33
392.734	0.29
392.94	0.3
393.146	0.32
393.352	0.27
393.557	0.27
393.763	0.29
393.969	0.34
394.175	0.31
394.381	0.29
394.587	0.28
394.792	0.32
394.998	0.38
395.204	0.35
395.41	0.29
395.615	0.31
395.821	0.34
396.027	0.35
396.233	0.3
396.438	0.36
396.644	0.38
396.85	0.37
397.055	0.28
397.261	0.35
397.466	0.41
397.672	0.32
397.878	0.37
398.083	0.35
398.289	0.34
398.494	0.4
398.7	0.35
398.905	0.24
399.111	0.42
399.316	0.26
399.522	0.36
399.727	0.3
399.932	0.34
400.138	0.34
400.343	0.37
400.549	0.33
400.754	0.37
400.959	0.34
401.165	0.36
401.37	0.4
401.575	0.37
401.78	0.35
401.986	0.35
402.191	0.34
402.396	0.38
402.601	0.39
402.807	0.37
403.012	0.35
403.217	0.42
403.422	0.45
403.627	0.41
403.832	0.41
404.037	0.44
404.243	0.43
404.448	0.38
404.653	0.46
404.858	0.45
405.063	0.45
405.268	0.38
405.473	0.38
405.678	0.4
405.883	0.66
406.088	0.44
406.293	0.42
406.498	0.45
406.703	0.49
406.907	0.46
407.112	0.42
407.317	0.47
407.522	0.56
407.727	0.45
407.932	0.49
408.136	0.66
408.341	0.53
408.546	0.56
408.751	0.53
408.956	0.58
409.16	0.67
409.365	0.56
409.57	0.57
409.774	0.62
409.979	0.63
410.184	0.63
410.388	0.58
410.593	0.78
410.798	0.69
411.002	0.69
411.207	0.77
411.411	0.75
411.616	0.7
411.82	0.79
412.025	0.79
412.229	0.8
412.434	0.92
412.638	0.86
412.843	0.86
413.047	0.95
413.252	0.91
413.456	0.9
413.66	1.02
413.865	0.95
414.069	1.12
414.273	1.02
414.478	1.02
414.682	1.07
414.886	1.11
415.091	1.11
415.295	1.13
415.499	1.32
415.703	1.31
415.908	1.31
416.112	1.19
416.316	1.48
416.52	1.44
416.724	1.41
416.929	1.5
417.133	1.8
417.337	1.57
417.541	1.64
417.745	1.7
417.949	1.91
418.153	1.91
418.357	1.84
418.561	2.11
418.765	2.1
418.969	2.23
419.173	2.3
419.377	2.2
419.581	2.51
419.785	2.49
419.989	2.44
420.193	2.57
420.397	2.71
420.601	2.78
420.804	2.88
421.008	2.86
421.212	3.05
421.416	3
421.62	2.98
421.823	3.04
422.027	3.32
422.231	3.27
422.435	3.23
422.638	3.29
422.842	3.43
423.046	3.38
423.249	3.63
423.453	3.66
423.657	3.77
423.86	3.86
424.064	3.95
424.268	4.2
424.471	4.14
424.675	4.41
424.878	4.46
425.082	4.5
425.285	4.78
425.489	4.69
425.692	4.82
425.896	4.86
426.099	4.99
426.303	5.14
426.506	5.2
426.71	5.45
426.913	5.72
427.116	5.9
427.32	5.8
427.523	5.87
427.726	6.26
427.93	6.41
428.133	6.53
428.336	6.75
428.54	6.87
428.743	7.11
428.946	7.38
429.149	7.35
429.353	7.4
429.556	7.5
429.759	7.43
429.962	7.57
430.165	7.84
430.368	7.54
430.571	7.59
430.775	7.62
430.978	7.62
431.181	7.71
431.384	7.79
431.587	7.89
431.79	8.21
431.993	8.12
432.196	8.45
432.399	8.79
432.602	8.99
432.805	9.05
433.008	9.68
433.211	9.53
433.414	9.84
433.616	9.89
433.819	9.78
434.022	9.95
434.225	10.13
434.428	10.16
434.631	10.61
434.833	10.38
435.036	10.6
435.239	10.8
435.442	10.93
435.645	11.1
435.847	11.09
436.05	11.4
436.253	11.7
436.455	11.64
436.658	11.53
436.861	11.8
437.063	11.93
437.266	11.92
437.468	12.28
437.671	12.53
437.874	12.62
438.076	12.38
438.279	12.97
438.481	12.9
438.684	13.55
438.886	13.29
439.089	13.56
439.291	13.57
439.494	13.94
439.696	14.03
439.899	14.66
440.101	14.9
440.303	15.2
440.506	15.89
440.708	15.63
440.91	15.83
441.113	16.24
441.315	16.28
441.517	16.09
441.72	16.7
441.922	16.25
442.124	16.22
442.326	16.53
442.529	16.81
442.731	16.83
442.933	17.04
443.135	16.83
443.337	17
443.539	17.34
443.742	16.98
443.944	17.77
444.146	17.54
444.348	17.41
444.55	17.32
444.752	17.49
444.954	17.49
445.156	17.57
445.358	18.04
445.56	18.18
445.762	17.99
445.964	18.34
446.166	18.06
446.368	18.11
446.57	18.24
446.772	17.8
446.974	17.56
447.175	17.9
447.377	17.68
447.579	17.91
447.781	17.77
447.983	17.55
448.184	17.14
448.386	17.45
448.588	16.94
448.79	16.94
448.991	17.4
449.193	17.32
449.395	16.83
449.597	16.46
449.798	16.36
450	15.9
450.202	15.93
450.403	15.94
450.605	15.86
450.806	15.43
451.008	15.28
451.21	15.16
451.411	14.65
451.613	14.03
451.814	14.29
452.016	14.32
452.217	13.49
452.419	13.54
452.62	13.12
452.821	12.94
453.023	12.92
453.224	12.5
453.426	12.17
453.627	11.38
453.828	11.52
454.03	11.65
454.231	11.62
454.432	11.47
454.634	11.21
454.835	10.86
455.036	10.85
455.238	10.39
455.439	10.28
455.64	9.94
455.841	9.71
456.042	9.91
456.244	9.55
456.445	9.17
456.646	8.96
456.847	8.94
457.048	8.72
457.249	8.78
457.45	8.64
457.651	7.95
457.852	7.99
458.054	7.5
458.255	7.46
458.456	7.56
458.657	7.49
458.858	6.99
459.058	6.89
459.259	7.1
459.46	6.71
459.661	6.62
459.862	6.69
460.063	6.51
460.264	6.58
460.465	6.25
460.666	6.29
460.866	6.06
461.067	5.68
461.268	5.78
461.469	5.75
461.67	5.58
461.87	5.44
462.071	5.46
462.272	5.43
462.473	5.25
462.673	5.48
462.874	5.29
463.075	5.37
463.275	5.31
463.476	5.33
463.676	5.3
463.877	5.16
464.078	5.1
464.278	5.17
464.479	5.04
464.679	4.96
464.88	4.94
465.08	4.97
465.281	4.72
465.481	4.44
465.682	4.32
465.882	4.32
466.083	4.23
466.283	4.14
466.483	4.09
466.684	3.86
466.884	3.76
467.085	3.85
467.285	3.86
467.485	3.8
467.686	3.74
467.886	3.6
468.086	3.56
468.286	3.54
468.487	3.58
468.687	3.41
468.887	3.33
469.087	3.55
469.287	3.42
469.488	3.21
469.688	3.34
469.888	3.35
470.088	3.27
470.288	3.22
470.488	3.19
470.688	3.03
470.888	3
471.088	2.81
471.288	2.93
471.488	2.91
471.688	2.88
471.888	2.8
472.088	2.93
472.288	2.83
472.488	2.74
472.688	2.72
472.888	2.72
473.088	2.68
473.288	2.56
473.488	2.61
473.688	2.75
473.887	2.59
474.087	2.57
474.287	2.56
474.487	2.45
474.687	2.5
474.886	2.43
475.086	2.42
475.286	2.46
475.486	2.38
475.685	2.36
475.885	2.29
476.085	2.39
476.284	2.37
476.484	2.35
476.684	2.26
476.883	2.38
477.083	2.28
477.282	2.19
477.482	2.24
477.681	2.2
477.881	2.15
478.08	2.15
478.28	2.09
478.479	2.2
478.679	2.19
478.878	2.11
479.078	2.1
479.277	2.15
479.477	2.14
479.676	2.08
479.875	2.06
480.075	2.04
480.274	2.09
480.473	2.11
480.673	2.1
480.872	2.13
481.071	2.1
481.271	2.13
481.47	2.03
481.669	2.07
481.868	2.04
482.067	2.07
482.267	1.93
482.466	2
482.665	2
482.864	2.01
483.063	2
483.262	2.13
483.461	2.1
483.661	2.15
483.86	2.04
484.059	2.13
484.258	2.07
484.457	2.05
484.656	2.08
484.855	2.12
485.054	1.94
485.253	2.04
485.452	2.02
485.651	2.09
485.849	2.06
486.048	2.03
486.247	2.06
486.446	2.14
486.645	2.08
486.844	2.14
487.043	2.13
487.241	2.15
487.44	2.09
487.639	2.16
487.838	2.16
488.037	2.14
488.235	2.23
488.434	2.22
488.633	2.08
488.831	2.23
489.03	2.26
489.229	2.26
489.427	2.24
489.626	2.3
489.825	2.38
490.023	2.31
490.222	2.28
490.42	2.37
490.619	2.39
490.817	2.4
491.016	2.37
491.214	2.45
491.413	2.43
491.611	2.39
491.81	2.4
492.008	2.48
492.207	2.59
492.405	2.51
492.604	2.51
492.802	2.59
493	2.63
493.199	2.61
493.397	2.64
493.595	2.72
493.794	2.68
493.992	2.75
494.19	2.74
494.388	2.78
494.587	2.76
494.785	2.79
494.983	2.74
495.181	2.84
495.379	2.91
495.578	2.95
495.776	2.95
495.974	2.92
496.172	2.96
496.37	3.05
496.568	3.08
496.766	3.08
496.964	3.16
497.162	3.14
497.36	3.24
497.558	3.22
497.756	3.27
497.954	3.24
498.152	3.3
498.35	3.41
498.548	3.33
498.746	3.36
498.944	3.41
499.142	3.41
499.34	3.51
499.538	3.58
499.736	3.46
499.933	3.64
500.131	3.62
500.329	3.77
500.527	3.74
500.725	3.87
500.922	3.82
501.12	3.87
501.318	3.94
501.516	3.94
501.713	3.98
501.911	3.94
502.109	3.91
502.306	4.07
502.504	4
502.701	4.07
502.899	4.13
503.097	4.37
503.294	4.15
503.492	4.35
503.689	4.31
503.887	4.32
504.084	4.44
504.282	4.39
504.479	4.39
504.677	4.48
504.874	4.51
505.072	4.44
505.269	4.58
505.466	4.64
505.664	4.67
505.861	4.59
506.059	4.68
506.256	4.79
506.453	4.74
506.651	4.93
506.848	4.95
507.045	4.91
507.242	4.91
507.44	4.97
507.637	5.04
507.834	5
508.031	5.2
508.229	5.04
508.426	5.03
508.623	5.16
508.82	5.21
509.017	5.19
509.214	5.24
509.411	5.33
509.608	5.27
509.805	5.41
510.003	5.39
510.2	5.44
510.397	5.63
510.594	5.53
510.791	5.57
510.988	5.55
511.184	5.55
511.381	5.48
511.578	5.57
511.775	5.74
511.972	5.69
512.169	5.69
512.366	5.74
512.563	5.83
512.76	5.87
512.956	5.95
513.153	5.87
513.35	5.84
513.547	5.82
513.744	5.94
513.94	5.95
514.137	6.1
514.334	6.08
514.53	6.09
514.727	6.25
514.924	6.15
515.12	6.12
515.317	6.2
515.514	6.15
515.71	6.11
515.907	6.34
516.103	6.33
516.3	6.27
516.497	6.43
516.693	6.39
516.89	6.37
517.086	6.42
517.283	6.47
517.479	6.34
517.676	6.56
517.872	6.59
518.068	6.52
518.265	6.51
518.461	6.49
518.658	6.62
518.854	6.64
519.05	6.7
519.247	6.7
519.443	6.69
519.639	6.83
519.836	6.7
520.032	6.63
520.228	6.8
520.424	6.78
520.621	6.81
520.817	6.88
521.013	6.81
521.209	6.94
521.405	6.99
521.601	6.89
521.798	6.94
521.994	6.99
522.19	6.9
522.386	6.98
522.582	7.06
522.778	7.15
522.974	7.01
523.17	7.05
523.366	7.03
523.562	7.14
523.758	7.1
523.954	6.95
524.15	7.12
524.346	7.18
524.542	7.2
524.738	7.14
524.934	7.27
525.129	7.27
525.325	7.18
525.521	7.16
525.717	7.41
525.913	7.22
526.109	7.29
526.304	7.38
526.5	7.32
526.696	7.38
526.892	7.28
527.087	7.53
527.283	7.44
527.479	7.39
527.674	7.21
527.87	7.43
528.066	7.4
528.261	7.44
528.457	7.37
528.653	7.55
528.848	7.45
529.044	7.58
529.239	7.4
529.435	7.41
529.63	7.42
529.826	7.48
530.021	7.52
530.217	7.52
530.412	7.5
530.608	7.56
530.803	7.52
530.999	7.48
531.194	7.52
531.389	7.6
531.585	7.58
531.78	7.67
531.975	7.64
532.171	7.67
532.366	7.66
532.561	7.68
532.757	7.64
532.952	7.73
533.147	7.58
533.342	7.7
533.538	7.57
533.733	7.88
533.928	7.47
534.123	7.65
534.318	7.75
534.513	7.66
534.709	7.83
534.904	7.73
535.099	7.88
535.294	7.81
535.489	7.84
535.684	7.72
535.879	7.72
536.074	7.86
536.269	7.85
536.464	7.83
536.659	7.8
536.854	7.77
537.049	7.9
537.244	7.81
537.439	7.82
537.634	7.78
537.828	7.93
538.023	7.85
538.218	7.77
538.413	7.8
538.608	7.88
538.803	7.9
538.997	7.82
539.192	7.89
539.387	7.86
539.582	7.85
539.776	7.77
539.971	7.94
540.166	7.95
540.36	7.91
540.555	7.95
540.75	7.92
540.944	7.95
541.139	7.93
541.334	7.93
541.528	7.91
541.723	8.03
541.917	8.01
542.112	7.89
542.306	7.8
542.501	7.88
542.695	7.89
542.89	7.86
543.084	7.89
543.279	7.94
543.473	8.01
543.668	7.96
543.862	7.85
544.056	7.88
544.251	7.97
544.445	8.08
544.64	8.05
544.834	7.74
545.028	7.64
545.222	7.98
545.417	8.17
545.611	8.09
545.805	7.96
546	7.84
546.194	8
546.388	8.06
546.582	7.91
546.776	7.95
546.97	8.02
547.165	8.02
547.359	7.94
547.553	7.92
547.747	7.97
547.941	8.18
548.135	7.96
548.329	8.01
548.523	7.99
548.717	7.89
548.911	7.95
549.105	7.88
549.299	8.01
549.493	8.08
549.687	7.89
549.881	8.02
550.075	8.05
550.269	7.95
550.463	8.09
550.657	8
550.85	8.03
551.044	7.93
551.238	8.05
551.432	8.04
551.626	8.07
551.82	8.09
552.013	7.94
552.207	8.09
552.401	8.13
552.594	8
552.788	7.98
552.982	7.98
553.176	7.91
553.369	8.15
553.563	8.08
553.756	7.97
553.95	8.05
554.144	8.08
554.337	8.1
554.531	7.91
554.724	8.09
554.918	8.13
555.111	8.04
555.305	8.1
555.498	8.02
555.692	8.13
555.885	8.1
556.079	8.05
556.272	8.05
556.466	8.09
556.659	8
556.852	8.11
557.046	7.89
557.239	7.85
557.432	7.99
557.626	8.05
557.819	8.07
558.012	8
558.206	8.15
558.399	8.06
558.592	8.02
558.785	8
558.979	8.05
559.172	8.06
559.365	8.04
559.558	8.01
559.751	8.02
559.944	8.13
560.138	8
560.331	8.05
560.524	8.1
560.717	8
560.91	8.04
561.103	8.04
561.296	7.95
561.489	8.09
561.682	8.15
561.875	8.07
562.068	8.14
562.261	7.91
562.454	8.18
562.647	7.94
562.84	8.1
563.032	8.08
563.225	7.99
563.418	7.98
563.611	8.11
563.804	8.03
563.997	7.88
564.19	7.86
564.382	8.11
564.575	8.04
564.768	8.04
564.961	8.05
565.153	7.94
565.346	7.87
565.539	8.14
565.731	8.04
565.924	8.05
566.117	8.2
566.309	8.09
566.502	7.95
566.695	7.98
566.887	8.04
567.08	8.06
567.272	8.03
567.465	7.87
567.657	8.03
567.85	7.92
568.042	8.03
568.235	8.05
568.427	7.87
568.62	7.99
568.812	7.95
569.005	7.99
569.197	7.89
569.389	8.09
569.582	8.04
569.774	8.03
569.966	7.95
570.159	7.88
570.351	7.85
570.543	7.97
570.736	8
570.928	7.75
571.12	7.96
571.312	7.86
571.505	7.72
571.697	7.95
571.889	7.94
572.081	7.9
572.273	7.88
572.465	7.96
572.658	7.98
572.85	7.91
573.042	7.95
573.234	7.84
573.426	7.89
573.618	7.91
573.81	7.93
574.002	7.87
574.194	7.95
574.386	7.85
574.578	7.8
574.77	7.81
574.962	7.86
575.154	7.78
575.346	7.75
575.538	7.74
575.729	7.75
575.921	7.85
576.113	7.96
576.305	7.84
576.497	7.88
576.689	7.71
576.88	7.73
577.072	7.86
577.264	7.83
577.456	7.8
577.647	7.73
577.839	7.82
578.031	7.76
578.223	7.79
578.414	7.7
578.606	7.76
578.798	7.8
578.989	7.74
579.181	7.77
579.372	7.74
579.564	7.77
579.755	7.69
579.947	7.63
580.139	7.76
580.33	7.64
580.522	7.69
580.713	7.59
580.905	7.65
581.096	7.74
581.287	7.65
581.479	7.62
581.67	7.72
581.862	7.62
582.053	7.63
582.244	7.47
582.436	7.73
582.627	7.6
582.818	7.55
583.01	7.55
583.201	7.58
583.392	7.54
583.583	7.52
583.775	7.4
583.966	7.48
584.157	7.56
584.348	7.6
584.54	7.49
584.731	7.57
584.922	7.47
585.113	7.37
585.304	7.5
585.495	7.51
585.686	7.54
585.877	7.54
586.068	7.58
586.259	7.57
586.45	7.49
586.641	7.43
586.832	7.47
587.023	7.44
587.214	7.37
587.405	7.49
587.596	7.27
587.787	7.26
587.978	7.36
588.169	7.31
588.36	7.28
588.551	7.31
588.742	7.3
588.932	7.47
589.123	7.09
589.314	7.44
589.505	7.21
589.696	7.26
589.886	7.24
590.077	7.26
590.268	7.17
590.458	7.16
590.649	7.07
590.84	7.24
591.03	7.18
591.221	7.16
591.412	7.09
591.602	7.26
591.793	7.08
591.984	7.15
592.174	7.11
592.365	7.27
592.555	7.06
592.746	7.08
592.936	7.05
593.127	7.07
593.317	7.14
593.508	7.07
593.698	7.03
593.889	7.04
594.079	6.97
594.269	6.87
594.46	6.97
594.65	7.06
594.84	7
595.031	6.88
595.221	6.88
595.411	6.91
595.602	6.96
595.792	6.91
595.982	6.78
596.172	6.97
596.363	6.78
596.553	6.82
596.743	6.89
596.933	6.88
597.123	6.77
597.314	6.66
597.504	6.72
597.694	6.84
597.884	6.76
598.074	6.74
598.264	6.72
598.454	6.78
598.644	6.76
598.834	6.66
599.024	6.62
599.214	6.6
599.404	6.76
599.594	6.62
599.784	6.63
599.974	6.7
600.164	6.63
600.354	6.58
600.544	6.46
600.734	6.57
600.924	6.56
601.114	6.42
601.303	6.43
601.493	6.47
601.683	6.47
601.873	6.46
602.063	6.34
602.252	6.46
602.442	6.28
602.632	6.39
602.821	6.32
603.011	6.45
603.201	6.36
603.39	6.32
603.58	6.17
603.77	6.35
603.959	6.37
604.149	6.3
604.339	6.29
604.528	6.37
604.718	6.29
604.907	6.23
605.097	6.14
605.286	6.19
605.476	6.14
605.665	6.23
605.855	6.11
606.044	6.21
606.234	6.12
606.423	6.08
606.612	6.11
606.802	6.04
606.991	6.14
607.181	6.15
607.37	6.07
607.559	5.79
607.749	6.07
607.938	5.93
608.127	5.99
608.316	5.99
608.506	5.89
608.695	6
608.884	5.93
609.073	5.9
609.263	5.96
609.452	5.91
609.641	5.76
609.83	5.78
610.019	5.92
610.208	5.78
610.397	5.78
610.586	5.76
610.775	5.75
610.965	5.71
611.154	5.61
611.343	5.77
611.532	5.63
611.721	5.79
611.91	5.65
612.099	5.65
612.287	5.55
612.476	5.49
612.665	5.63
612.854	5.5
613.043	5.54
613.232	5.56
613.421	5.51
613.61	5.48
613.798	5.48
613.987	5.54
614.176	5.42
614.365	5.45
614.554	5.5
614.742	5.49
614.931	5.3
615.12	5.5
615.309	5.41
615.497	5.3
615.686	5.24
615.875	5.32
616.063	5.3
616.252	5.27
616.44	5.35
616.629	5.16
616.818	5.26
617.006	5.18
617.195	5.2
617.383	5.21
617.572	5.09
617.76	5.15
617.949	5.1
618.137	5.22
618.326	5.21
618.514	4.94
618.703	4.99
618.891	5.18
619.079	4.99
619.268	5.14
619.456	4.93
619.644	5.06
619.833	4.96
620.021	4.95
620.209	4.82
620.398	4.96
620.586	4.91
620.774	4.93
620.962	4.87
621.151	4.95
621.339	4.81
621.527	4.75
621.715	4.73
621.903	4.8
622.092	4.73
622.28	4.88
622.468	4.55
622.656	4.71
622.844	4.73
623.032	4.76
623.22	4.63
623.408	4.78
623.596	4.71
623.784	4.7
623.972	4.54
624.16	4.61
624.348	4.69
624.536	4.62
624.724	4.51
624.912	4.55
625.1	4.61
625.288	4.51
625.476	4.53
625.664	4.56
625.851	4.48
626.039	4.47
626.227	4.41
626.415	4.45
626.603	4.36
626.79	4.44
626.978	4.4
627.166	4.41
627.354	4.3
627.541	4.32
627.729	4.22
627.917	4.44
628.104	4.44
628.292	4.29
628.48	4.31
628.667	4.25
628.855	4.26
629.042	4.33
629.23	4.2
629.418	4.2
629.605	4.25
629.793	4.14
629.98	4.12
630.168	4.09
630.355	4.2
630.543	4.09
630.73	4.07
630.917	4.02
631.105	4.11
631.292	4.09
631.48	4.03
631.667	4.16
631.854	3.94
632.042	3.99
632.229	3.92
632.416	3.96
632.604	3.94
632.791	3.82
632.978	3.95
633.165	3.84
633.353	3.9
633.54	3.96
633.727	3.77
633.914	3.81
634.101	3.77
634.289	3.93
634.476	3.73
634.663	3.71
634.85	3.74
635.037	3.71
635.224	3.6
635.411	3.85
635.598	3.7
635.785	3.66
635.972	3.71
636.159	3.68
636.346	3.58
636.533	3.63
636.72	3.57
636.907	3.57
637.094	3.6
637.281	3.47
637.468	3.58
637.655	3.58
637.842	3.57
638.029	3.45
638.215	3.48
638.402	3.44
638.589	3.46
638.776	3.4
638.963	3.37
639.149	3.47
639.336	3.49
639.523	3.39
639.709	3.37
639.896	3.35
640.083	3.34
640.27	3.43
640.456	3.31
640.643	3.35
640.829	3.18
641.016	3.23
641.203	3.21
641.389	3.31
641.576	3.3
641.762	3.18
641.949	3.21
642.135	3.23
642.322	3.19
642.508	3.1
642.695	3.16
642.881	3.06
643.068	3.14
643.254	3.1
643.441	3.18
643.627	3.08
643.813	2.97
644	3.09
644.186	2.96
644.372	3.04
644.559	3.07
644.745	3.01
644.931	3
645.118	2.99
645.304	2.99
645.49	2.93
645.676	2.99
645.862	2.97
646.049	3.03
646.235	2.93
646.421	3.03
646.607	3.03
646.793	2.86
646.979	2.78
647.165	2.87
647.352	2.9
647.538	2.84
647.724	2.85
647.91	2.75
648.096	2.82
648.282	2.78
648.468	2.73
648.654	2.8
648.84	2.84
649.026	2.76
649.212	2.69
649.397	2.64
649.583	2.71
649.769	2.78
649.955	2.72
650.141	2.67
650.327	2.7
650.513	2.63
650.698	2.69
650.884	2.52
651.07	2.64
651.256	2.59
651.442	2.6
651.627	2.48
651.813	2.59
651.999	2.56
652.184	2.51
652.37	2.5
652.556	2.51
652.741	2.6
652.927	2.39
653.113	2.48
653.298	2.52
653.484	2.48
653.669	2.41
653.855	2.38
654.04	2.48
654.226	2.48
654.412	2.39
654.597	2.34
654.782	2.35
654.968	2.4
655.153	2.38
655.339	2.33
655.524	2.29
655.71	2.39
655.895	2.34
656.08	2.29
656.266	2.39
656.451	2.29
656.636	2.21
656.822	2.26
657.007	2.27
657.192	2.24
657.378	2.2
657.563	2.19
657.748	2.29
657.933	2.2
658.118	2.13
658.304	2.19
658.489	2.29
658.674	2.21
658.859	2.15
659.044	2.17
659.229	2.19
659.414	2.14
659.599	2.13
659.785	2.07
659.97	2.12
660.155	2.12
660.34	2.17
660.525	2.07
660.71	2.01
660.895	2.1
661.08	2.07
661.264	1.99
661.449	2.12
661.634	2.09
661.819	2.06
662.004	2.02
662.189	1.91
662.374	1.95
662.559	1.97
662.743	1.88
662.928	1.93
663.113	1.92
663.298	1.88
663.483	1.92
663.667	1.94
663.852	1.87
664.037	1.99
664.221	1.86
664.406	1.96
664.591	1.96
664.775	1.93
664.96	1.82
665.145	1.84
665.329	1.89
665.514	1.84
665.698	1.81
665.883	1.73
666.068	1.87
666.252	1.8
666.437	1.8
666.621	1.78
666.806	1.83
666.99	1.83
667.174	1.72
667.359	1.82
667.543	1.75
667.728	1.77
667.912	1.67
668.096	1.76
668.281	1.73
668.465	1.74
668.649	1.72
668.834	1.67
669.018	1.65
669.202	1.71
669.387	1.62
669.571	1.73
669.755	1.65
669.939	1.63
670.124	1.61
670.308	1.73
670.492	1.69
670.676	1.57
670.86	1.63
671.044	1.54
671.228	1.63
671.413	1.53
671.597	1.54
671.781	1.58
671.965	1.63
672.149	1.52
672.333	1.62
672.517	1.56
672.701	1.61
672.885	1.5
673.069	1.43
673.253	1.61
673.437	1.53
673.621	1.49
673.804	1.57
673.988	1.57
674.172	1.46
674.356	1.44
674.54	1.48
674.724	1.67
674.908	1.45
675.091	1.5
675.275	1.43
675.459	1.47
675.643	1.49
675.826	1.45
676.01	1.43
676.194	1.49
676.377	1.48
676.561	1.49
676.745	1.46
676.928	1.41
677.112	1.44
677.296	1.32
677.479	1.34
677.663	1.42
677.846	1.37
678.03	1.37
678.213	1.24
678.397	1.43
678.58	1.38
678.764	1.31
678.947	1.31
679.131	1.38
679.314	1.34
679.498	1.32
679.681	1.33
679.865	1.43
680.048	1.31
680.231	1.28
680.415	1.25
680.598	1.27
680.781	1.24
680.965	1.26
681.148	1.25
681.331	1.25
681.514	1.25
681.698	1.23
681.881	1.29
682.064	1.27
682.247	1.29
682.43	1.16
682.614	1.26
682.797	1.32
682.98	1.25
683.163	1.18
683.346	1.19
683.529	1.17
683.712	1.14
683.895	1.21
684.078	1.11
684.261	1.16
684.444	1.25
684.627	1.22
684.81	1.1
684.993	1.13
685.176	1.17
685.359	1.11
685.542	1.12
685.725	1.33
685.908	1.16
686.091	1.14
686.274	1.2
686.457	1.12
686.639	1.07
686.822	1.19
687.005	1.08
687.188	1.17
687.371	1.25
687.553	1.15
687.736	1.1
687.919	1.26
688.102	1.18
688.284	1.08
688.467	1.06
688.65	1.07
688.832	1
689.015	1.03
689.197	0.95
689.38	1.15
689.563	1.16
689.745	0.99
689.928	0.97
690.11	1.04
690.293	1.11
690.475	0.97
690.658	1.04
690.84	1
691.023	1.01
691.205	0.94
691.388	0.97
691.57	1.11
691.752	1.06
691.935	0.88
692.117	0.98
692.3	0.98
692.482	0.97
692.664	0.89
692.847	0.98
693.029	1.05
693.211	0.98
693.393	0.93
693.576	0.88
693.758	0.92
693.94	0.94
694.122	0.99
694.304	0.85
694.487	0.92
694.669	1
694.851	0.82
695.033	0.92
695.215	0.87
695.397	0.91
695.579	0.87
695.761	0.89
695.943	0.81
696.125	1
696.308	0.92
696.49	0.72
696.671	1.02
696.853	0.93
697.035	1.08
697.217	0.85
697.399	0.99
697.581	0.85
697.763	0.86
697.945	0.82
698.127	0.89
698.309	0.95
698.491	0.9
698.672	0.88
698.854	0.92
699.036	0.94
699.218	0.78
699.399	0.85
699.581	0.87
699.763	0.84
699.945	0.74
700.126	0.78
700.308	0.9
700.49	0.8
700.671	0.77
700.853	0.77
701.035	0.72
701.216	0.88
701.398	0.77
701.579	0.78
701.761	0.88
701.943	0.78
702.124	0.7
702.306	0.76
702.487	0.97
702.669	0.77
702.85	0.77
703.031	0.68
703.213	0.91
703.394	0.87
703.576	0.7
703.757	0.96
703.938	0.92
704.12	1.02
704.301	0.71
704.483	0.72
704.664	0.76
704.845	0.89
705.026	0.88
705.208	0.75
705.389	0.81
705.57	0.8
705.751	0.7
705.933	0.77
706.114	0.86
706.295	0.76
706.476	0.63
706.657	0.82
706.838	0.8
707.02	0.78
707.201	0.63
707.382	0.7
707.563	0.74
707.744	0.72
707.925	0.63
708.106	0.68
708.287	0.71
708.468	0.8
708.649	0.72
708.83	0.73
709.011	0.65
709.192	0.77
709.373	0.64
709.554	0.75
709.734	0.81
709.915	0.75
710.096	0.66
710.277	0.53
710.458	0.73
710.639	0.74
710.819	0.55
711	0.62
711.181	0.76
711.362	0.71
711.542	0.68
711.723	0.63
711.904	0.75
712.085	0.68
712.265	0.69
712.446	0.55
712.627	0.66
712.807	0.65
712.988	0.62
713.168	0.5
713.349	0.69
713.53	0.48
713.71	0.53
713.891	0.56
714.071	0.59
714.252	0.63
714.432	0.59
714.613	0.53
714.793	0.68
714.974	0.77
715.154	0.67
715.334	0.62
715.515	0.78
715.695	0.53
715.876	0.57
716.056	0.52
716.236	0.58
716.417	0.53
716.597	0.49
716.777	0.77
716.957	0.67
717.138	0.6
717.318	0.45
717.498	0.46
717.678	0.63
717.859	0.61
718.039	0.5
718.219	0.55
718.399	0.53
718.579	0.52
718.759	0.51
718.939	0.61
719.12	0.65
719.3	0.59
719.48	0.43
719.66	0.41
719.84	0.73
720.02	0.55
720.2	0.44
720.38	0.54
720.56	0.7
720.74	0.41
720.92	0.52
721.1	0.65
721.279	0.6
721.459	0.62
721.639	0.38
721.819	0.51
721.999	0.51
722.179	0.61
722.359	0.48
722.538	0.52
722.718	0.52
722.898	0.54
723.078	0.43
723.257	0.53
723.437	0.53
723.617	0.52
723.797	0.48
723.976	0.51
724.156	0.64
724.336	0.67
724.515	0.74
724.695	0.35
724.874	0.56
725.054	0.58
725.234	0.51
725.413	0.51
725.593	0.51
725.772	0.52
725.952	0.54
726.131	0.52
726.311	0.45
726.49	0.54
726.67	0.46
726.849	0.45
727.028	0.57
727.208	0.5
727.387	0.44
727.567	0.4
727.746	0.48
727.925	0.44
728.105	0.35
728.284	0.43
728.463	0.42
728.643	0.52
728.822	0.36
729.001	0.42
729.18	0.54
729.359	0.58
729.539	0.43
729.718	0.42
729.897	0.64
730.076	0.4
730.255	0.34
730.434	0.51
730.614	0.46
730.793	0.61
730.972	0.52
731.151	0.52
731.33	0.62
731.509	0.56
731.688	0.53
731.867	0.52
732.046	0.21
732.225	0.77
732.404	0.42
732.583	0.37
732.762	0.46
732.941	0.6
733.12	0.52
733.298	0.39
733.477	0.66
733.656	0.45
733.835	0.39
734.014	0.56
734.193	0.47
734.371	0.51
734.55	0.61
734.729	0.39
734.908	0.46
735.086	0.64
735.265	0.56
735.444	0.33
735.623	0.37
735.801	0.36
735.98	0.42
736.159	0.41
736.337	0.52
736.516	0.49
736.694	0.56
736.873	0.41
737.052	0.7
737.23	0.65
737.409	0.47
737.587	0.71
737.766	0.42
737.944	0.52
738.123	0.48
738.301	0.55
738.479	0.55
738.658	0.46
738.836	0.39
739.015	0.41
739.193	0.63
739.371	0.31
739.55	0.43
739.728	0.43
739.906	0.58
740.085	0.74
740.263	0.43
740.441	0.25
740.62	0.79
740.798	0.56
740.976	0.52
741.154	0.32
741.332	0.69
741.511	0.52
741.689	0.48
741.867	0.54
742.045	0.52
742.223	0.38
742.401	0.34
742.579	0.51
742.757	0.48
742.935	0.33
743.114	0.31
743.292	0.35
743.47	0.47
743.648	0.46
743.826	0.35
744.004	0.46
744.181	0.57
744.359	0.51
744.537	0.47
744.715	0.37
744.893	0.43
745.071	0.51
745.249	0.52
745.427	0.35
745.605	0.45
745.782	0.4
745.96	0.5
746.138	0.55
746.316	0.54
746.493	0.47
746.671	0.39
746.849	0.27
747.027	0.79
747.204	0.37
747.382	0.35
747.56	0.21
747.737	0.51
747.915	0.33
748.093	0.42
748.27	0.26
748.448	0.31
748.625	0.27
748.803	0.35
748.98	0.4
749.158	0.41
749.335	0.59
749.513	0.37
749.69	0.32
749.868	0.45
750.045	0.43
750.223	0.34
750.4	0.28
750.578	0.61
750.755	0.38
750.932	0.22
751.11	0.47
751.287	0.27
751.464	0.57
751.642	0.25
751.819	0.52
751.996	0.43
752.173	0.41
752.351	0.29
752.528	0.45
752.705	0.42
752.882	0.38
753.06	0.44
753.237	0.38
753.414	0.62
753.591	0.66
753.768	0.41
753.945	0.37
754.122	0.29
754.299	0.45
754.476	0.34
754.654	0.43
754.831	0.52
755.008	0.57
755.185	0.27
755.362	0.21
755.539	0.49
755.716	0.31
755.892	0.34
756.069	0.28
756.246	0.48
756.423	0.37
756.6	0.53
756.777	0.22
756.954	0.51
757.131	0.28
757.307	0.32
757.484	0.19
757.661	0.45
757.838	0.56
758.015	0.22
758.191	0.49
758.368	0.42
758.545	0.7
758.721	0.51
758.898	0.27
759.075	0.4
759.251	0.49
759.428	0.39
759.605	0.21
759.781	0.33
759.958	0.44
760.134	0.4
760.311	0.24
760.488	0.57
760.664	0.42
760.841	0.33
761.017	0.25
761.194	0.44
761.37	0.5
761.547	0.38
761.723	0.36
761.899	0.62
762.076	0.29
762.252	0.2
762.429	0.18
762.605	0.43
762.781	0.29
762.958	0.49
763.134	0.22
763.31	0.24
763.486	0.6
763.663	0.21
763.839	0.31
764.015	0.14
764.191	0.36
764.368	0.32
764.544	0.22
764.72	0.33
764.896	0.46
765.072	0.42
765.248	0.27
765.425	0.25
765.601	0.42
765.777	0.43
765.953	-0.02
766.129	0.21
766.305	0.26
766.481	0.32
766.657	0.29
766.833	0.52
767.009	0.24
767.185	0.34
767.361	0.29
767.537	0.2
767.713	0.62
767.889	0.22
768.065	0.28
768.24	0.49
768.416	0.43
768.592	0.29
768.768	0.25
768.944	0.43
769.12	0.24
769.295	0.28
769.471	0.34
769.647	0.35
769.823	0.58
769.998	0.11
770.174	0.2
770.35	0.84
770.525	0.53
770.701	0.3
770.877	0.32
771.052	0.23
771.228	0.51
771.403	0.45
771.579	0.36
771.755	0.66
771.93	0.24
772.106	0.28
772.281	0.15
772.457	0.39
772.632	0.43
772.808	0.19
772.983	0.32
773.159	0.15
773.334	0.53
773.509	0.43
773.685	0.1
773.86	0.77
774.036	0.69
774.211	0.22
774.386	0.36
774.562	0.45
774.737	0.65
774.912	0.27
775.087	0.38
775.263	0.25
775.438	0.28
775.613	0.24
775.788	0.24
775.964	0.46
776.139	0.98
776.314	0.12
776.489	0.44
776.664	0.34
776.839	0.23
777.014	0.61
777.19	0.55
777.365	0.7
777.54	0.68
777.715	0.18
777.89	0.38
778.065	0.36
778.24	0.43
778.415	0.5
778.59	0.22
778.765	0.35
778.94	0.49
779.115	0.3
779.289	0.3
779.464	0.23
779.639	0.25
779.814	0.11
779.989	0.04
780.164	0.43
780.339	0.58
780.513	0.25
780.688	0.26
780.863	0.41
781.038	0.53
781.212	0.16
781.387	0.46
781.562	0.8
781.737	0.34
781.911	0.55
782.086	0.25
782.261	0.36
782.435	0.67
782.61	0.27
782.784	0.46
782.959	0.64
783.134	0.35
783.308	0.13
783.483	0.24
783.657	1.02
783.832	0.59
784.006	0.06
784.181	0.38
784.355	0.36
784.53	0.23
784.704	0.2
784.878	0.62
785.053	0.66
785.227	0.77
785.402	0.71
785.576	0.16
785.75	0.63
785.925	0.37
786.099	0.35
786.273	0.42
786.448	0.73
786.622	0.64
786.796	0.37
786.97	0.46
787.145	1.05
787.319	-0.07
787.493	0.2
787.667	0.03
787.841	0.4
788.015	0.76
788.19	0.43
788.364	0.29
788.538	0.64
788.712	0.79
788.886	0.36
789.06	0.66
789.234	0.6
789.408	0.13
789.582	0.25
789.756	0.15
789.93	0.27
790.104	0.26
790.278	0.23
790.452	0.29
790.626	0.55
790.8	0.35
790.973	0.46
791.147	0.88
791.321	0.91
791.495	0.73
791.669	0.44
791.843	0.62
792.016	0.49
792.19	0.97
792.364	0.03
792.538	1.07
792.711	0.72
792.885	0.21
793.059	0.25
793.233	-0.18
793.406	0.67
793.58	0.49
793.754	0.32
793.927	0.28
794.101	0.89
794.274	0.28
794.448	0.9
794.622	0.19
794.795	1.29
794.969	0.26
795.142	0.64
795.316	0.47
795.489	0.23
795.663	0.84
795.836	0.37
796.009	0.15
796.183	0.77
796.356	0.7
796.53	0.65
796.703	0.44
796.876	1.17
797.05	0.42
797.223	0.17
797.396	0.54
797.57	0.56
797.743	1.13
797.916	0.34
798.09	0.42
798.263	0.93
798.436	0.58
798.609	0.16
798.782	0.38
798.956	0.65
799.129	0.84
799.302	0.28
799.475	0.07
799.648	0.67
799.821	0.5
799.994	0.56
800.167	-0.02
800.34	0.48
800.514	0.35
800.687	0.39
800.86	0.09
801.033	0.42
801.206	0.44
801.379	0.13
801.551	0.84
801.724	0.59
801.897	1.32
802.07	0.34
802.243	-0
802.416	0.36
802.589	0.53
802.762	0.92
802.935	0.57
803.107	0.77
803.28	1.05
803.453	0.76
803.626	0.43
803.798	0.75
803.971	0.26
804.144	0.49
804.317	0.39
804.489	1.18
804.662	0.7
804.835	0.4
805.007	0.21
805.18	1.21
805.353	0.55
805.525	0.19
805.698	0.43
805.87	0.67
806.043	0.99
806.215	-0.05
806.388	0.18
806.56	0.62
806.733	1
806.905	0.58
807.078	0.22
807.25	0.72
807.423	1.08
807.595	0.44
807.768	0.7
807.94	0.74
808.112	0.85
808.285	0.71
808.457	0.39
808.629	0.49
808.802	0.68
808.974	0.46
809.146	0.13
809.318	0.27
809.491	0.62
809.663	0.68
809.835	0.14
810.007	0.63
810.18	0.73
810.352	0.17
810.524	0.27
810.696	0.77
810.868	1.16
811.04	0.42
811.212	0.44
811.384	0.95
811.556	0.6
811.728	0.35
811.901	1.58
812.073	0.5
812.245	1.11
812.417	0.58
812.589	-0.11
812.76	0.84
812.932	0.82
813.104	0.79
813.276	0.14
813.448	1.17
813.62	0.47
813.792	0.46
813.964	0.59
814.136	0.89
814.307	0.49
814.479	0.19
814.651	-0.01
814.823	1.51
814.995	0.82
815.166	0.62
815.338	0.38
815.51	-0.2
815.681	2.04
815.853	0.75
816.025	0.1
816.196	1.35
816.368	1.09
816.54	0.24
816.711	0.11
816.883	1.35
817.054	2
817.226	-0.2
817.398	0.5
817.569	0.13
817.741	0.95
817.912	0.92
818.084	0.51
818.255	0.96
818.426	-0.06
818.598	0.7
818.769	0.53
818.941	0.87
819.112	1.85
819.283	0.59
819.455	-0.06
819.626	0.69
819.798	1.41
819.969	0.81
820.14	0.29
820.311	0.49
820.483	1.01
820.654	0.4
820.825	0.7
820.996	0.73
821.168	0.19
821.339	0.48
821.51	-0.35
821.681	0.29
821.852	0.91
822.023	-0.03
822.195	-0.37
822.366	0.99
822.537	0.77
822.708	0.8
822.879	0.34
823.05	1.34
823.221	0.66
823.392	1.07
823.563	0.27
823.734	1.03
823.905	1.08
824.076	0.39
824.247	0.55
824.418	0.98
824.589	0.74
824.759	0.65
824.93	0.39
825.101	-0.12
825.272	1.55
825.443	0.96
825.614	1.02
825.784	-0.31
825.955	2.25
826.126	1.27
826.297	0.76
826.467	2.11
826.638	1.89
826.809	0.12
826.98	0.64
827.15	1.57
827.321	1.2
827.492	1.94
827.662	0.89
827.833	2.28
828.003	1.2
828.174	0.16
828.345	-0.25
828.515	1.86
828.686	1.04
828.856	0.69
829.027	0.48
829.197	1.3
829.368	0.89
829.538	0.22
829.709	0.07
829.879	1.41
830.049	1.39
830.22	0.71
830.39	0.83
830.56	1.78
830.731	1.01
830.901	-0.02
831.072	0.16
831.242	1.04
831.412	1.19
831.582	0.61
831.753	-0.3
831.923	1.77
832.093	1.62
832.263	0.84
832.434	0.18
832.604	0.6
832.774	1.75
832.944	0.55
833.114	0.56
833.284	1.57
833.454	0.46
833.624	0.41
833.795	0.61
833.965	1.74
834.135	2.08
834.305	-0.67
834.475	-0.48
834.645	1.43
834.815	0.55
834.985	0.36
835.155	0.12
835.325	1.81
835.494	1.77
835.664	0.59
835.834	0.15
836.004	1.8
836.174	1.62
836.344	0.63
836.514	0.78
836.684	0.24
836.853	0.35
837.023	0.42
837.193	0.82
837.363	3
837.532	1.74
837.702	0.89
837.872	0.04
838.041	1.57
838.211	3.23
838.381	0.16
838.55	0.39
838.72	3.97
838.89	2.8
839.059	0.43
839.229	-0.17
839.398	4.36
839.568	1.45
839.738	0.86
839.907	1.57
840.077	1.27
840.246	0.28
840.416	-0.43
840.585	0.33
840.755	2.35
840.924	2.49
841.093	0.4
841.263	0.48
841.432	1.63
841.602	-0.06
841.771	-0.37
841.94	0.24
842.11	3.28
842.279	2.81
842.448	-0.34
842.617	0.25
842.787	2.76
842.956	0.22
843.125	0.48
843.294	1.31
843.464	2.71
843.633	1.4
843.802	0.23
843.971	0.47
844.14	2.17
844.309	2.44
844.479	-0.17
844.648	-0.05
844.817	0.37
844.986	1.23
845.155	-0.02
845.324	1.13
845.493	1.16
845.662	0.56
845.831	1.7
846	0.97
846.169	0.56
846.338	3.14
846.507	0.79
846.676	1.63
846.844	0.2
847.013	2.82
847.182	1.24
847.351	0.87
847.52	1.55
847.689	1.89
847.858	1.04
848.026	0.49
848.195	1.23
848.364	0.51
848.533	-0.75
848.701	-0.14
848.87	-0.16
849.039	2.64
849.207	1.35
849.376	3.54
849.545	3.32
849.713	0.44
849.882	0.61
850.051	0.69
850.219	1.37
850.388	2.09
850.556	-0.1
850.725	-0.34
850.893	1.42
851.062	0.19
851.23	1.21
851.399	-0.08
851.567	1.44
851.736	0.06
851.904	0.91
852.073	0.85
852.241	2.09
852.41	1.42
852.578	1.31
852.746	0.59
852.915	2.61
853.083	1.57
853.251	-0.51
853.42	0.32
853.588	0.98
853.756	3.26
853.924	1.14
854.093	0.96
854.261	0.82
854.429	-0.78
854.597	0.33
854.765	0.59
854.934	3.91
855.102	3.11
855.27	0.16
855.438	2.46
855.606	2.5
855.774	3.69
855.942	0.21
856.11	-0.78
856.278	2.08
856.446	2.8
856.614	1.08
856.782	-0.53
856.95	2.93
857.118	2.16
857.286	1.22
857.454	0.45
857.622	2.47
857.79	1.97
857.958	0.03
858.126	-0.35
858.294	-0.16
858.462	1.01
858.629	1.21
858.797	0.56
858.965	1.53
859.133	1.68
859.301	0.43
859.468	0.9
859.636	0.56
859.804	3.99
859.971	2.7
860.139	-1.12
860.307	1.38
860.474	1.88
860.642	0.49
860.81	0.96
860.977	2.21
861.145	4.17
861.313	1.05
861.48	1.73
861.648	1.92
861.815	1.43
861.983	-0.56
862.15	-0.31
862.318	2.49
862.485	2.25
862.653	-0.06
862.82	0.27
862.988	2.69
863.155	0.48
863.322	1.73
863.49	-2.77
863.657	1.3
863.824	3.02
863.992	2.09
864.159	1.57
864.326	3.99
864.494	0.9
864.661	4.83
864.828	0.67
864.996	4.61
865.163	4.66
865.33	-0.7
865.497	-0.98
865.664	0.57
865.832	-1.84
865.999	0.74
866.166	-0.64
866.333	1.74
866.5	1.46
866.667	1.61
866.834	0.91
867.001	2.84
867.168	-1.91
867.335	0.22
867.502	-2.32
867.669	1.85
867.836	5.2
868.003	0.35
868.17	2.18
868.337	1.62
868.504	5.97
868.671	-0.35
868.838	0.7
869.005	3.53
869.172	3.09
869.339	0.78
869.505	1.33
869.672	1.13
869.839	6.1
870.006	1.17
870.173	0.43
870.339	2.99
870.506	6.64
870.673	0.18
870.84	2.19
871.006	2.61
871.173	2.06
871.34	1.69
871.506	-0.7
871.673	2.58
871.839	1.45
872.006	0.47
872.173	-0.27
872.339	1.59
872.506	4.9
872.672	2.47
872.839	-0.62
873.005	2.27
873.172	3.84
873.338	4.53
873.505	0.88
873.671	1.96
873.838	4.01
874.004	-1.55
874.171	0.97
874.337	3.3
874.503	3.64
874.67	0.08
874.836	0.29
875.002	5.04
875.169	3.42
875.335	1.95
875.501	1.82
875.668	3.39
875.834	2.23
876	0.19
876.166	2.53
876.332	4.59
876.499	6.18
876.665	0.72
876.831	1.29
876.997	6.95
877.163	2.88
877.329	1.26
877.495	2.22
877.662	3.86
877.828	4.15
877.994	1.04
878.16	-1.63
878.326	1.86
878.492	3.86
878.658	0.83
878.824	1.2
878.99	1.33
879.156	0.87
879.322	4.6
879.487	-0.59
879.653	3.84
879.819	4.39
879.985	-1.18
880.151	2.21
880.317	3.56
880.483	2.68
880.648	3.95
880.814	-0.19
880.98	2.97
881.146	-1.72
881.312	0.61
881.477	1.48
881.643	3.11
881.809	5.08
881.974	2.91
882.14	-1.57
882.306	1.65
882.471	7.96
882.637	1.08
882.803	2.82
882.968	7.57
883.134	4.7
883.299	1.19
883.465	2.35
883.63	4.38
883.796	3.5
883.961	3.91
884.127	2
884.292	-2.35
884.458	0.21
884.623	0.21
