Data from Apollo_Calib_20240827__AbsoluteIrradiance__837__13-06-02-852.txt Node

Date: Wed Aug 28 13:06:02 BST 2024
User: biology
Spectrometer: FLMT08252
Trigger mode: 0
Integration Time (sec): 5.000000E-1
Scans to average: 5
Electric dark correction enabled: true
Nonlinearity correction enabled: false
Boxcar width: 0
XAxis mode: Wavelengths
Number of Pixels in Spectrum: 3648
>>>>>Begin Spectral Data<<<<<
179.588	-0
179.809	-0
180.03	-0
180.251	-0
180.473	-0
180.694	0
180.915	0
181.136	-0
181.357	0
181.578	0
181.799	0
182.02	-0
182.241	-0
182.462	-0
182.683	0
182.904	-0
183.125	-0
183.346	0
183.567	0
183.788	0
184.009	0
184.23	0
184.451	0
184.672	0
184.892	0
185.113	0
185.334	0
185.555	0
185.776	0
185.996	0
186.217	0
186.438	0
186.659	0
186.879	0
187.1	0
187.321	0
187.541	0
187.762	0
187.983	0
188.203	0
188.424	0
188.644	0
188.865	0
189.086	0
189.306	0
189.527	0
189.747	0
189.968	0
190.188	0
190.409	0
190.629	0
190.849	0
191.07	0
191.29	0
191.511	0
191.731	0
191.951	0
192.172	0
192.392	0
192.612	0
192.833	0
193.053	0
193.273	0
193.493	0
193.714	0
193.934	0
194.154	0
194.374	0
194.594	0
194.815	0
195.035	0
195.255	0
195.475	0
195.695	0
195.915	0
196.135	0
196.355	0
196.575	0
196.795	0
197.015	0
197.235	0
197.455	0
197.675	0
197.895	0
198.115	0
198.335	0
198.555	0
198.775	0
198.995	0
199.214	0
199.434	0
199.654	0
199.874	0
200.094	4.38
200.313	2.44
200.533	1.96
200.753	2.07
200.973	3.68
201.192	3.46
201.412	1.36
201.632	1.48
201.851	3.97
202.071	1.67
202.291	1.22
202.51	1.65
202.73	2.78
202.95	2.07
203.169	1.36
203.389	1.53
203.608	1.86
203.828	1.62
204.047	2
204.267	2.14
204.486	2.53
204.706	2.29
204.925	1.69
205.145	1.37
205.364	2.52
205.583	2.6
205.803	1.13
206.022	1.15
206.242	1.85
206.461	1.69
206.68	1.14
206.9	1.66
207.119	2.9
207.338	2.2
207.557	1.08
207.777	1.31
207.996	1.41
208.215	2.44
208.434	1.13
208.654	0.61
208.873	1.68
209.092	2.24
209.311	0.9
209.53	1.18
209.749	1.29
209.968	1.11
210.187	1.1
210.407	0.68
210.626	1.13
210.845	1.7
211.064	1.25
211.283	0.9
211.502	1.55
211.721	1.09
211.94	1.1
212.159	1.49
212.377	1.47
212.596	1.6
212.815	1.05
213.034	1.14
213.253	1.53
213.472	1.23
213.691	0.81
213.91	0.8
214.128	0.79
214.347	1.51
214.566	0.46
214.785	0.39
215.003	1.32
215.222	1.05
215.441	0.86
215.66	0.45
215.878	0.92
216.097	1.3
216.316	0.73
216.534	0.8
216.753	1.08
216.972	1
217.19	0.75
217.409	0.72
217.627	0.72
217.846	0.66
218.064	0.83
218.283	0.66
218.501	1.43
218.72	1.11
218.938	0.37
219.157	0.6
219.375	1.11
219.594	0.98
219.812	0.5
220.031	0.59
220.249	1.36
220.467	1.07
220.686	0.58
220.904	0.44
221.122	0.88
221.341	1.11
221.559	0.78
221.777	0.41
221.995	0.75
222.214	0.99
222.432	0.66
222.65	0.99
222.868	0.83
223.086	0.87
223.305	0.84
223.523	0.6
223.741	1.06
223.959	0.85
224.177	0.42
224.395	0.47
224.613	0.82
224.831	1.06
225.049	0.44
225.267	0.58
225.485	0.84
225.703	0.71
225.921	0.49
226.139	0.53
226.357	0.8
226.575	0.78
226.793	0.48
227.011	1.72
227.229	0.74
227.447	1.05
227.665	0.51
227.883	0.44
228.1	0.71
228.318	0.75
228.536	0.43
228.754	0.5
228.972	0.62
229.189	0.8
229.407	0.58
229.625	0.65
229.843	0.88
230.06	0.78
230.278	0.54
230.496	0.62
230.713	0.6
230.931	0.84
231.149	0.39
231.366	0.34
231.584	0.6
231.801	1.02
232.019	0.51
232.236	0.38
232.454	0.39
232.671	0.67
232.889	0.47
233.106	0.32
233.324	0.69
233.541	0.52
233.759	0.52
233.976	0.5
234.194	0.52
234.411	0.66
234.628	0.35
234.846	0.44
235.063	0.52
235.28	0.64
235.498	0.44
235.715	0.33
235.932	0.72
236.149	0.61
236.367	0.46
236.584	0.5
236.801	0.47
237.018	0.64
237.236	0.52
237.453	0.2
237.67	0.79
237.887	0.46
238.104	0.4
238.321	0.4
238.538	0.36
238.755	0.69
238.973	0.28
239.19	0.42
239.407	0.59
239.624	0.55
239.841	0.31
240.058	0.29
240.275	0.53
240.492	0.47
240.709	0.45
240.925	0.41
241.142	0.49
241.359	0.31
241.576	0.25
241.793	0.33
242.01	0.49
242.227	0.57
242.444	0.55
242.66	0.57
242.877	0.48
243.094	0.51
243.311	0.36
243.527	0.35
243.744	0.58
243.961	0.44
244.178	0.39
244.394	0.4
244.611	0.67
244.828	0.67
245.044	0.39
245.261	0.42
245.477	0.49
245.694	0.5
245.911	0.3
246.127	0.41
246.344	0.62
246.56	0.52
246.777	0.35
246.993	0.46
247.21	0.51
247.426	0.56
247.643	0.29
247.859	0.38
248.076	0.36
248.292	0.69
248.508	0.29
248.725	0.39
248.941	0.46
249.157	0.6
249.374	0.29
249.59	0.35
249.806	0.48
250.023	0.51
250.239	0.32
250.455	0.29
250.671	0.42
250.888	0.53
251.104	0.52
251.32	0.34
251.536	0.4
251.752	0.42
251.969	0.37
252.185	0.4
252.401	0.6
252.617	0.5
252.833	0.28
253.049	0.38
253.265	0.45
253.481	0.49
253.697	0.3
253.913	0.27
254.129	0.52
254.345	0.4
254.561	0.37
254.777	0.36
254.993	0.51
255.209	0.36
255.425	0.31
255.641	0.35
255.857	0.45
256.073	0.43
256.288	0.22
256.504	0.32
256.72	0.47
256.936	0.54
257.152	0.37
257.367	0.36
257.583	0.42
257.799	0.44
258.015	0.27
258.23	0.33
258.446	0.55
258.662	0.39
258.877	0.22
259.093	0.24
259.309	0.35
259.524	0.38
259.74	0.26
259.955	0.23
260.171	0.38
260.387	0.4
260.602	0.39
260.818	0.38
261.033	0.29
261.249	0.37
261.464	0.4
261.68	0.25
261.895	0.39
262.11	0.47
262.326	0.28
262.541	0.21
262.757	0.48
262.972	0.47
263.187	0.38
263.403	0.34
263.618	0.42
263.833	0.4
264.049	0.19
264.264	0.27
264.479	0.39
264.694	0.51
264.91	0.3
265.125	0.29
265.34	0.44
265.555	0.59
265.77	0.36
265.986	0.27
266.201	0.34
266.416	0.49
266.631	0.33
266.846	0.32
267.061	0.48
267.276	0.42
267.491	0.19
267.706	0.4
267.921	0.41
268.136	0.34
268.351	0.4
268.566	0.26
268.781	0.44
268.996	0.41
269.211	0.29
269.426	0.24
269.641	0.25
269.856	0.47
270.071	0.27
270.285	0.21
270.5	0.41
270.715	0.44
270.93	0.36
271.145	0.32
271.359	0.48
271.574	0.29
271.789	0.29
272.004	0.21
272.218	0.28
272.433	0.41
272.648	0.31
272.862	0.35
273.077	0.34
273.292	0.34
273.506	0.29
273.721	0.34
273.936	0.41
274.15	0.42
274.365	0.21
274.579	0.36
274.794	0.38
275.008	0.41
275.223	0.22
275.437	0.31
275.652	0.44
275.866	0.36
276.081	0.28
276.295	0.41
276.509	0.3
276.724	0.36
276.938	0.34
277.153	0.36
277.367	0.37
277.581	0.25
277.796	0.25
278.01	0.27
278.224	0.33
278.438	0.44
278.653	0.23
278.867	0.25
279.081	0.36
279.295	0.27
279.51	0.31
279.724	0.19
279.938	0.39
280.152	0.36
280.366	0.26
280.58	0.33
280.794	0.42
281.008	0.33
281.222	0.35
281.437	0.46
281.651	0.36
281.865	0.37
282.079	0.29
282.293	0.12
282.507	0.24
282.721	0.29
282.935	0.33
283.148	0.19
283.362	0.31
283.576	0.24
283.79	0.28
284.004	0.23
284.218	0.39
284.432	0.29
284.646	0.29
284.859	0.27
285.073	0.32
285.287	0.34
285.501	0.3
285.714	0.26
285.928	0.33
286.142	0.35
286.356	0.22
286.569	0.23
286.783	0.38
286.997	0.38
287.21	0.31
287.424	0.27
287.637	0.32
287.851	0.27
288.065	0.33
288.278	0.27
288.492	0.32
288.705	0.23
288.919	0.27
289.132	0.21
289.346	0.37
289.559	0.19
289.773	0.2
289.986	0.27
290.2	0.27
290.413	0.39
290.626	0.2
290.84	0.26
291.053	0.27
291.267	0.34
291.48	0.28
291.693	0.25
291.906	0.28
292.12	0.25
292.333	0.21
292.546	0.24
292.76	0.38
292.973	0.32
293.186	0.29
293.399	0.24
293.612	0.32
293.826	0.25
294.039	0.27
294.252	0.24
294.465	0.38
294.678	0.31
294.891	0.33
295.104	0.23
295.317	0.26
295.53	0.29
295.743	0.25
295.956	0.23
296.169	0.38
296.382	0.35
296.595	0.23
296.808	0.21
297.021	0.34
297.234	0.32
297.447	0.28
297.66	0.27
297.873	0.36
298.086	0.34
298.299	0.25
298.511	0.21
298.724	0.22
298.937	0.22
299.15	0.25
299.363	0.24
299.575	0.3
299.788	0.32
300.001	0.21
300.213	0.19
300.426	0.22
300.639	0.25
300.852	0.19
301.064	0.27
301.277	0.35
301.489	0.32
301.702	0.28
301.915	0.25
302.127	0.26
302.34	0.29
302.552	0.26
302.765	0.19
302.977	0.31
303.19	0.24
303.402	0.24
303.615	0.24
303.827	0.23
304.04	0.23
304.252	0.29
304.464	0.27
304.677	0.39
304.889	0.29
305.102	0.21
305.314	0.21
305.526	0.32
305.739	0.31
305.951	0.2
306.163	0.21
306.375	0.36
306.588	0.19
306.8	0.21
307.012	0.2
307.224	0.29
307.436	0.33
307.649	0.15
307.861	0.26
308.073	0.31
308.285	0.22
308.497	0.21
308.709	0.19
308.921	0.33
309.133	0.36
309.346	0.22
309.558	0.23
309.77	0.29
309.982	0.22
310.194	0.29
310.406	0.2
310.617	0.3
310.829	0.28
311.041	0.29
311.253	0.18
311.465	0.26
311.677	0.24
311.889	0.24
312.101	0.21
312.313	0.35
312.524	0.31
312.736	0.2
312.948	0.25
313.16	0.37
313.372	0.3
313.583	0.26
313.795	0.28
314.007	0.23
314.218	0.31
314.43	0.28
314.642	0.19
314.853	0.15
315.065	0.29
315.277	0.28
315.488	0.28
315.7	0.31
315.912	0.32
316.123	0.25
316.335	0.25
316.546	0.36
316.758	0.26
316.969	0.23
317.181	0.29
317.392	0.28
317.604	0.34
317.815	0.23
318.026	0.21
318.238	0.26
318.449	0.31
318.661	0.19
318.872	0.19
319.083	0.23
319.295	0.33
319.506	0.23
319.717	0.26
319.929	0.28
320.14	0.27
320.351	0.25
320.562	0.21
320.774	0.28
320.985	0.27
321.196	0.22
321.407	0.17
321.618	0.28
321.829	0.29
322.041	0.27
322.252	0.25
322.463	0.29
322.674	0.32
322.885	0.16
323.096	0.22
323.307	0.24
323.518	0.28
323.729	0.21
323.94	0.23
324.151	0.24
324.362	0.27
324.573	0.25
324.784	0.23
324.995	0.31
325.206	0.32
325.417	0.2
325.628	0.21
325.838	0.24
326.049	0.28
326.26	0.26
326.471	0.2
326.682	0.28
326.892	0.31
327.103	0.17
327.314	0.26
327.525	0.32
327.735	0.25
327.946	0.28
328.157	0.16
328.368	0.32
328.578	0.26
328.789	0.32
328.999	0.28
329.21	0.26
329.421	0.31
329.631	0.21
329.842	0.19
330.052	0.29
330.263	0.27
330.473	0.27
330.684	0.23
330.894	0.25
331.105	0.25
331.315	0.24
331.526	0.16
331.736	0.37
331.947	0.3
332.157	0.28
332.367	0.12
332.578	0.33
332.788	0.36
332.999	0.3
333.209	0.22
333.419	0.23
333.629	0.29
333.84	0.24
334.05	0.27
334.26	0.38
334.47	0.25
334.681	0.31
334.891	0.21
335.101	0.3
335.311	0.39
335.521	0.24
335.732	0.23
335.942	0.36
336.152	0.27
336.362	0.25
336.572	0.21
336.782	0.32
336.992	0.23
337.202	0.23
337.412	0.22
337.622	0.31
337.832	0.25
338.042	0.27
338.252	0.2
338.462	0.21
338.672	0.29
338.882	0.25
339.092	0.19
339.302	0.33
339.511	0.3
339.721	0.22
339.931	0.19
340.141	0.29
340.351	0.33
340.561	0.27
340.77	0.26
340.98	0.32
341.19	0.27
341.4	0.23
341.609	0.23
341.819	0.23
342.029	0.22
342.238	0.26
342.448	0.23
342.658	0.29
342.867	0.24
343.077	0.23
343.286	0.25
343.496	0.25
343.706	0.33
343.915	0.2
344.125	0.27
344.334	0.3
344.544	0.2
344.753	0.22
344.963	0.19
345.172	0.24
345.381	0.25
345.591	0.2
345.8	0.22
346.01	0.3
346.219	0.35
346.428	0.13
346.638	0.26
346.847	0.25
347.056	0.32
347.266	0.2
347.475	0.23
347.684	0.32
347.893	0.3
348.103	0.27
348.312	0.23
348.521	0.27
348.73	0.26
348.94	0.23
349.149	0.19
349.358	0.24
349.567	0.19
349.776	0.15
349.985	0.21
350.194	0.26
350.403	0.31
350.612	0.18
350.821	0.22
351.03	0.24
351.239	0.2
351.448	0.24
351.657	0.24
351.866	0.35
352.075	0.25
352.284	0.24
352.493	0.19
352.702	0.31
352.911	0.28
353.12	0.26
353.329	0.24
353.538	0.26
353.746	0.26
353.955	0.21
354.164	0.24
354.373	0.23
354.582	0.3
354.79	0.25
354.999	0.3
355.208	0.26
355.416	0.32
355.625	0.19
355.834	0.2
356.042	0.28
356.251	0.2
356.46	0.23
356.668	0.22
356.877	0.35
357.085	0.28
357.294	0.15
357.503	0.25
357.711	0.28
357.92	0.35
358.128	0.27
358.337	0.2
358.545	0.31
358.754	0.21
358.962	0.26
359.17	0.22
359.379	0.26
359.587	0.27
359.796	0.24
360.004	0.35
360.212	0.28
360.421	0.32
360.629	0.19
360.837	0.23
361.046	0.3
361.254	0.39
361.462	0.27
361.67	0.23
361.879	0.29
362.087	0.31
362.295	0.27
362.503	0.22
362.711	0.16
362.92	0.22
363.128	0.19
363.336	0.22
363.544	0.2
363.752	0.23
363.96	0.2
364.168	0.18
364.376	0.27
364.584	0.26
364.792	0.28
365	0.26
365.208	0.24
365.416	0.31
365.624	0.32
365.832	0.23
366.04	0.33
366.248	0.24
366.456	0.3
366.664	0.27
366.872	0.24
367.079	0.28
367.287	0.24
367.495	0.23
367.703	0.23
367.911	0.23
368.118	0.25
368.326	0.28
368.534	0.22
368.742	0.31
368.949	0.16
369.157	0.21
369.365	0.27
369.572	0.22
369.78	0.18
369.988	0.25
370.195	0.25
370.403	0.28
370.61	0.21
370.818	0.25
371.026	0.33
371.233	0.19
371.441	0.26
371.648	0.27
371.856	0.29
372.063	0.28
372.271	0.21
372.478	0.22
372.685	0.21
372.893	0.32
373.1	0.25
373.308	0.26
373.515	0.36
373.722	0.32
373.93	0.26
374.137	0.25
374.344	0.35
374.552	0.34
374.759	0.25
374.966	0.22
375.173	0.21
375.381	0.35
375.588	0.23
375.795	0.18
376.002	0.28
376.209	0.22
376.417	0.26
376.624	0.24
376.831	0.3
377.038	0.24
377.245	0.2
377.452	0.2
377.659	0.26
377.866	0.24
378.073	0.21
378.28	0.26
378.487	0.31
378.694	0.3
378.901	0.23
379.108	0.25
379.315	0.36
379.522	0.39
379.729	0.27
379.936	0.26
380.143	0.26
380.35	0.31
380.557	0.24
380.763	0.23
380.97	0.28
381.177	0.3
381.384	0.26
381.591	0.22
381.797	0.3
382.004	0.32
382.211	0.29
382.418	0.22
382.624	0.32
382.831	0.31
383.038	0.25
383.244	0.29
383.451	0.28
383.658	0.32
383.864	0.22
384.071	0.18
384.277	0.34
384.484	0.26
384.69	0.35
384.897	0.26
385.103	0.27
385.31	0.26
385.516	0.24
385.723	0.21
385.929	0.29
386.136	0.25
386.342	0.31
386.549	0.22
386.755	0.35
386.961	0.33
387.168	0.28
387.374	0.29
387.58	0.35
387.787	0.32
387.993	0.26
388.199	0.28
388.406	0.22
388.612	0.27
388.818	0.24
389.024	0.21
389.231	0.29
389.437	0.4
389.643	0.32
389.849	0.28
390.055	0.33
390.261	0.32
390.467	0.37
390.674	0.25
390.88	0.28
391.086	0.29
391.292	0.24
391.498	0.28
391.704	0.34
391.91	0.27
392.116	0.27
392.322	0.18
392.528	0.33
392.734	0.31
392.94	0.32
393.146	0.25
393.352	0.29
393.557	0.32
393.763	0.32
393.969	0.37
394.175	0.27
394.381	0.32
394.587	0.24
394.792	0.3
394.998	0.4
395.204	0.37
395.41	0.33
395.615	0.31
395.821	0.34
396.027	0.35
396.233	0.26
396.438	0.37
396.644	0.33
396.85	0.35
397.055	0.33
397.261	0.38
397.466	0.46
397.672	0.37
397.878	0.38
398.083	0.36
398.289	0.3
398.494	0.39
398.7	0.34
398.905	0.23
399.111	0.43
399.316	0.29
399.522	0.35
399.727	0.33
399.932	0.34
400.138	0.3
400.343	0.33
400.549	0.35
400.754	0.37
400.959	0.35
401.165	0.34
401.37	0.37
401.575	0.49
401.78	0.39
401.986	0.32
402.191	0.4
402.396	0.34
402.601	0.42
402.807	0.41
403.012	0.37
403.217	0.46
403.422	0.43
403.627	0.41
403.832	0.35
404.037	0.44
404.243	0.41
404.448	0.36
404.653	0.42
404.858	0.49
405.063	0.48
405.268	0.36
405.473	0.38
405.678	0.41
405.883	0.66
406.088	0.5
406.293	0.4
406.498	0.45
406.703	0.52
406.907	0.47
407.112	0.43
407.317	0.55
407.522	0.59
407.727	0.52
407.932	0.56
408.136	0.69
408.341	0.5
408.546	0.55
408.751	0.54
408.956	0.59
409.16	0.73
409.365	0.6
409.57	0.57
409.774	0.6
409.979	0.69
410.184	0.69
410.388	0.62
410.593	0.73
410.798	0.75
411.002	0.8
411.207	0.82
411.411	0.8
411.616	0.76
411.82	0.82
412.025	0.85
412.229	0.84
412.434	0.97
412.638	0.88
412.843	0.88
413.047	1
413.252	0.96
413.456	1.01
413.66	1.09
413.865	1.05
414.069	1.17
414.273	1.12
414.478	1.15
414.682	1.21
414.886	1.24
415.091	1.18
415.295	1.24
415.499	1.44
415.703	1.37
415.908	1.48
416.112	1.38
416.316	1.63
416.52	1.59
416.724	1.51
416.929	1.54
417.133	1.89
417.337	1.76
417.541	1.82
417.745	1.91
417.949	1.94
418.153	2.05
418.357	1.99
418.561	2.34
418.765	2.15
418.969	2.38
419.173	2.5
419.377	2.4
419.581	2.68
419.785	2.7
419.989	2.68
420.193	2.81
420.397	2.96
420.601	3.14
420.804	3.23
421.008	3.14
421.212	3.34
421.416	3.29
421.62	3.31
421.823	3.44
422.027	3.64
422.231	3.55
422.435	3.53
422.638	3.65
422.842	3.72
423.046	3.84
423.249	3.99
423.453	4.03
423.657	4.14
423.86	4.22
424.064	4.4
424.268	4.63
424.471	4.62
424.675	4.78
424.878	4.86
425.082	5.01
425.285	5.3
425.489	5.19
425.692	5.3
425.896	5.37
426.099	5.62
426.303	5.71
426.506	5.82
426.71	6.05
426.913	6.32
427.116	6.41
427.32	6.47
427.523	6.49
427.726	6.9
427.93	6.88
428.133	7.28
428.336	7.32
428.54	7.44
428.743	7.69
428.946	7.99
429.149	8.03
429.353	8.03
429.556	8.06
429.759	8.2
429.962	8.32
430.165	8.47
430.368	8.13
430.571	8.09
430.775	8.21
430.978	8.17
431.181	8.24
431.384	8.32
431.587	8.39
431.79	8.86
431.993	8.63
432.196	8.94
432.399	9.38
432.602	9.65
432.805	9.69
433.008	10.16
433.211	10
433.414	10.33
433.616	10.39
433.819	10.3
434.022	10.6
434.225	10.79
434.428	10.81
434.631	11.23
434.833	10.94
435.036	11.23
435.239	11.36
435.442	11.45
435.645	11.64
435.847	11.79
436.05	11.98
436.253	12.18
436.455	12.24
436.658	12.18
436.861	12.39
437.063	12.66
437.266	12.53
437.468	12.79
437.671	13.29
437.874	13.18
438.076	13.13
438.279	13.43
438.481	13.61
438.684	14.31
438.886	14.04
439.089	14.26
439.291	14.25
439.494	14.54
439.696	14.77
439.899	15.39
440.101	15.72
440.303	15.92
440.506	16.7
440.708	16.4
440.91	16.58
441.113	16.74
441.315	17.04
441.517	16.84
441.72	17.26
441.922	16.93
442.124	16.88
442.326	17.25
442.529	17.5
442.731	17.49
442.933	17.76
443.135	17.5
443.337	17.41
443.539	18.11
443.742	17.7
443.944	18.26
444.146	18.17
444.348	18.21
444.55	18.06
444.752	18.34
444.954	18.29
445.156	17.97
445.358	18.55
445.56	18.88
445.762	18.54
445.964	18.99
446.166	18.65
446.368	18.6
446.57	18.65
446.772	18.11
446.974	18.04
447.175	18.35
447.377	17.94
447.579	18.3
447.781	17.99
447.983	17.79
448.184	17.37
448.386	17.89
448.588	17.2
448.79	17.15
448.991	17.54
449.193	17.42
449.395	16.79
449.597	16.43
449.798	16.42
450	15.9
450.202	15.78
450.403	15.85
450.605	15.7
450.806	15.18
451.008	15.15
451.21	14.84
451.411	14.44
451.613	13.79
451.814	13.95
452.016	13.91
452.217	13.38
452.419	13.16
452.62	12.95
452.821	12.63
453.023	12.55
453.224	12.18
453.426	11.72
453.627	10.99
453.828	11.26
454.03	11.16
454.231	11.08
454.432	11.05
454.634	10.73
454.835	10.39
455.036	10.22
455.238	9.99
455.439	9.68
455.64	9.43
455.841	9.36
456.042	9.39
456.244	9.1
456.445	8.81
456.646	8.62
456.847	8.44
457.048	8.42
457.249	8.43
457.45	8.19
457.651	7.71
457.852	7.63
458.054	7.21
458.255	7.1
458.456	7.26
458.657	7.08
458.858	6.6
459.058	6.59
459.259	6.69
459.46	6.41
459.661	6.28
459.862	6.38
460.063	6.25
460.264	6.17
460.465	5.88
460.666	6.02
460.866	5.71
461.067	5.5
461.268	5.44
461.469	5.47
461.67	5.39
461.87	5.12
462.071	5.16
462.272	5.15
462.473	5.03
462.673	5.27
462.874	5.15
463.075	5.07
463.275	5.05
463.476	5.15
463.676	5.05
463.877	4.85
464.078	4.87
464.278	4.96
464.479	4.78
464.679	4.67
464.88	4.66
465.08	4.63
465.281	4.5
465.481	4.29
465.682	4.07
465.882	4.15
466.083	4.02
466.283	3.97
466.483	3.82
466.684	3.71
466.884	3.58
467.085	3.66
467.285	3.73
467.485	3.55
467.686	3.51
467.886	3.38
468.086	3.35
468.286	3.39
468.487	3.43
468.687	3.26
468.887	3.16
469.087	3.29
469.287	3.23
469.488	3.02
469.688	3.2
469.888	3.18
470.088	3.08
470.288	2.96
470.488	3.06
470.688	2.85
470.888	2.82
471.088	2.64
471.288	2.79
471.488	2.75
471.688	2.64
471.888	2.69
472.088	2.8
472.288	2.64
472.488	2.53
472.688	2.53
472.888	2.59
473.088	2.52
473.288	2.47
473.488	2.42
473.688	2.57
473.887	2.43
474.087	2.36
474.287	2.42
474.487	2.34
474.687	2.46
474.886	2.29
475.086	2.3
475.286	2.32
475.486	2.27
475.685	2.28
475.885	2.14
476.085	2.29
476.284	2.28
476.484	2.25
476.684	2.19
476.883	2.25
477.083	2.15
477.282	2.08
477.482	2.2
477.681	2.2
477.881	2.08
478.08	2.08
478.28	2.01
478.479	2.08
478.679	2.12
478.878	2.04
479.078	2.01
479.277	2.11
479.477	2.01
479.676	2.04
479.875	2
480.075	1.97
480.274	2.04
480.473	2.07
480.673	1.97
480.872	2.1
481.071	1.99
481.271	2.06
481.47	1.98
481.669	1.99
481.868	1.94
482.067	2.04
482.267	1.91
482.466	1.92
482.665	1.91
482.864	1.9
483.063	1.93
483.262	1.99
483.461	2.03
483.661	2.05
483.86	1.99
484.059	2
484.258	2.01
484.457	1.99
484.656	2.01
484.855	2.05
485.054	1.92
485.253	1.98
485.452	1.95
485.651	2.06
485.849	2.03
486.048	2
486.247	2.02
486.446	2.08
486.645	2
486.844	2.05
487.043	2.04
487.241	2.07
487.44	2.07
487.639	2.14
487.838	2.08
488.037	2.04
488.235	2.19
488.434	2.18
488.633	2.02
488.831	2.23
489.03	2.19
489.229	2.2
489.427	2.22
489.626	2.28
489.825	2.28
490.023	2.32
490.222	2.25
490.42	2.3
490.619	2.37
490.817	2.34
491.016	2.36
491.214	2.41
491.413	2.39
491.611	2.38
491.81	2.37
492.008	2.45
492.207	2.56
492.405	2.51
492.604	2.44
492.802	2.52
493	2.6
493.199	2.61
493.397	2.62
493.595	2.69
493.794	2.67
493.992	2.76
494.19	2.71
494.388	2.8
494.587	2.76
494.785	2.74
494.983	2.72
495.181	2.89
495.379	2.89
495.578	2.93
495.776	2.97
495.974	2.94
496.172	2.97
496.37	3.13
496.568	3.13
496.766	3.08
496.964	3.19
497.162	3.18
497.36	3.23
497.558	3.24
497.756	3.31
497.954	3.31
498.152	3.3
498.35	3.44
498.548	3.36
498.746	3.4
498.944	3.4
499.142	3.43
499.34	3.47
499.538	3.64
499.736	3.51
499.933	3.64
500.131	3.63
500.329	3.8
500.527	3.75
500.725	3.88
500.922	3.9
501.12	3.94
501.318	3.93
501.516	3.99
501.713	3.99
501.911	4.01
502.109	3.92
502.306	4.1
502.504	4.01
502.701	4.13
502.899	4.22
503.097	4.32
503.294	4.27
503.492	4.34
503.689	4.38
503.887	4.39
504.084	4.49
504.282	4.41
504.479	4.38
504.677	4.56
504.874	4.58
505.072	4.45
505.269	4.68
505.466	4.72
505.664	4.76
505.861	4.65
506.059	4.76
506.256	4.81
506.453	4.83
506.651	4.99
506.848	5.01
507.045	4.95
507.242	4.95
507.44	5.05
507.637	5.12
507.834	5.01
508.031	5.24
508.229	5.18
508.426	5.05
508.623	5.32
508.82	5.29
509.017	5.31
509.214	5.33
509.411	5.4
509.608	5.36
509.805	5.5
510.003	5.46
510.2	5.53
510.397	5.73
510.594	5.58
510.791	5.66
510.988	5.64
511.184	5.62
511.381	5.57
511.578	5.71
511.775	5.82
511.972	5.8
512.169	5.83
512.366	5.85
512.563	5.99
512.76	6.04
512.956	6.05
513.153	5.95
513.35	5.95
513.547	5.96
513.744	6.05
513.94	6.03
514.137	6.21
514.334	6.12
514.53	6.11
514.727	6.37
514.924	6.35
515.12	6.32
515.317	6.27
515.514	6.25
515.71	6.18
515.907	6.45
516.103	6.5
516.3	6.31
516.497	6.51
516.693	6.51
516.89	6.52
517.086	6.49
517.283	6.54
517.479	6.5
517.676	6.6
517.872	6.64
518.068	6.66
518.265	6.61
518.461	6.53
518.658	6.72
518.854	6.72
519.05	6.81
519.247	6.8
519.443	6.82
519.639	6.89
519.836	6.82
520.032	6.72
520.228	6.89
520.424	6.91
520.621	6.93
520.817	6.93
521.013	6.97
521.209	7.14
521.405	7.08
521.601	7.04
521.798	7.05
521.994	7.1
522.19	7
522.386	7.06
522.582	7.1
522.778	7.27
522.974	7.09
523.17	7.19
523.366	7.12
523.562	7.17
523.758	7.21
523.954	7.05
524.15	7.28
524.346	7.28
524.542	7.32
524.738	7.28
524.934	7.36
525.129	7.28
525.325	7.28
525.521	7.28
525.717	7.48
525.913	7.34
526.109	7.4
526.304	7.47
526.5	7.46
526.696	7.46
526.892	7.37
527.087	7.64
527.283	7.52
527.479	7.55
527.674	7.28
527.87	7.54
528.066	7.46
528.261	7.56
528.457	7.47
528.653	7.62
528.848	7.62
529.044	7.72
529.239	7.56
529.435	7.53
529.63	7.56
529.826	7.61
530.021	7.58
530.217	7.63
530.412	7.61
530.608	7.59
530.803	7.66
530.999	7.57
531.194	7.66
531.389	7.71
531.585	7.75
531.78	7.86
531.975	7.76
532.171	7.8
532.366	7.75
532.561	7.72
532.757	7.71
532.952	7.91
533.147	7.7
533.342	7.8
533.538	7.7
533.733	7.96
533.928	7.66
534.123	7.77
534.318	7.82
534.513	7.79
534.709	7.93
534.904	7.89
535.099	7.89
535.294	7.9
535.489	7.91
535.684	7.83
535.879	7.82
536.074	7.97
536.269	7.97
536.464	7.95
536.659	7.84
536.854	7.88
537.049	7.98
537.244	7.93
537.439	7.9
537.634	7.94
537.828	7.96
538.023	7.95
538.218	7.91
538.413	7.91
538.608	7.98
538.803	7.96
538.997	7.94
539.192	7.95
539.387	7.86
539.582	7.95
539.776	7.87
539.971	8
540.166	8.04
540.36	7.91
540.555	8.11
540.75	8.02
540.944	8.02
541.139	8.01
541.334	7.97
541.528	8.02
541.723	8.03
541.917	8.04
542.112	7.96
542.306	7.87
542.501	7.94
542.695	7.97
542.89	8
543.084	8.01
543.279	7.97
543.473	8.07
543.668	8.11
543.862	7.92
544.056	7.9
544.251	8.06
544.445	8.19
544.64	8.13
544.834	7.85
545.028	7.73
545.222	8.04
545.417	8.3
545.611	8.08
545.805	8.06
546	7.92
546.194	8.1
546.388	8.14
546.582	7.97
546.776	7.99
546.97	8.1
547.165	8.11
547.359	8.04
547.553	8.08
547.747	8.11
547.941	8.3
548.135	8.04
548.329	8.13
548.523	8.09
548.717	8
548.911	8.03
549.105	8
549.299	8.16
549.493	8.13
549.687	7.91
549.881	8.18
550.075	8.12
550.269	7.98
550.463	8.12
550.657	8.13
550.85	8.09
551.044	8.11
551.238	8.14
551.432	8.11
551.626	8.16
551.82	8.21
552.013	8.04
552.207	8.11
552.401	8.19
552.594	8.07
552.788	8.04
552.982	8.04
553.176	8.08
553.369	8.2
553.563	8.17
553.756	8.09
553.95	8.2
554.144	8.2
554.337	8.17
554.531	7.92
554.724	8.12
554.918	8.22
555.111	8.15
555.305	8.1
555.498	8.1
555.692	8.24
555.885	8.14
556.079	8.03
556.272	8.12
556.466	8.05
556.659	8.04
556.852	8.17
557.046	8.06
557.239	7.95
557.432	8.11
557.626	8.08
557.819	8.2
558.012	8.16
558.206	8.24
558.399	8.1
558.592	8.13
558.785	8.08
558.979	8.11
559.172	8.13
559.365	8.22
559.558	8.09
559.751	8.02
559.944	8.19
560.138	8.01
560.331	8.19
560.524	8.13
560.717	8.07
560.91	8.12
561.103	8.16
561.296	8.07
561.489	8.18
561.682	8.2
561.875	8.14
562.068	8.25
562.261	8.05
562.454	8.26
562.647	8.15
562.84	8.12
563.032	8.19
563.225	8.04
563.418	8.11
563.611	8.14
563.804	8.12
563.997	8
564.19	7.9
564.382	8.2
564.575	8.07
564.768	8.06
564.961	8.15
565.153	8.06
565.346	8.06
565.539	8.21
565.731	8.11
565.924	8.17
566.117	8.26
566.309	8.18
566.502	8.04
566.695	8.03
566.887	8.14
567.08	8.15
567.272	8.17
567.465	8.04
567.657	8.16
567.85	8
568.042	8.14
568.235	8.16
568.427	7.9
568.62	8.06
568.812	8.01
569.005	8.15
569.197	7.97
569.389	8.08
569.582	8.07
569.774	8.13
569.966	8
570.159	8.05
570.351	8
570.543	8
570.736	8.03
570.928	7.86
571.12	8.1
571.312	7.93
571.505	7.8
571.697	8.02
571.889	8.11
572.081	8.03
572.273	7.92
572.465	8
572.658	7.99
572.85	8.06
573.042	8.09
573.234	7.9
573.426	7.96
573.618	7.93
573.81	8.03
574.002	7.98
574.194	8
574.386	7.91
574.578	7.86
574.77	7.93
574.962	7.99
575.154	7.82
575.346	7.87
575.538	7.89
575.729	7.92
575.921	7.95
576.113	8.02
576.305	7.93
576.497	7.98
576.689	7.78
576.88	7.78
577.072	8.02
577.264	7.88
577.456	7.91
577.647	7.85
577.839	7.98
578.031	7.81
578.223	7.79
578.414	7.72
578.606	7.82
578.798	7.9
578.989	7.89
579.181	7.95
579.372	7.87
579.564	7.87
579.755	7.74
579.947	7.71
580.139	7.83
580.33	7.68
580.522	7.79
580.713	7.77
580.905	7.72
581.096	7.85
581.287	7.81
581.479	7.68
581.67	7.8
581.862	7.7
582.053	7.71
582.244	7.6
582.436	7.84
582.627	7.67
582.818	7.61
583.01	7.62
583.201	7.68
583.392	7.59
583.583	7.64
583.775	7.46
583.966	7.64
584.157	7.7
584.348	7.71
584.54	7.59
584.731	7.65
584.922	7.57
585.113	7.46
585.304	7.6
585.495	7.52
585.686	7.67
585.877	7.59
586.068	7.68
586.259	7.61
586.45	7.54
586.641	7.45
586.832	7.6
587.023	7.49
587.214	7.48
587.405	7.54
587.596	7.46
587.787	7.44
587.978	7.48
588.169	7.41
588.36	7.33
588.551	7.47
588.742	7.41
588.932	7.51
589.123	7.29
589.314	7.53
589.505	7.33
589.696	7.32
589.886	7.35
590.077	7.3
590.268	7.27
590.458	7.23
590.649	7.15
590.84	7.3
591.03	7.24
591.221	7.31
591.412	7.08
591.602	7.37
591.793	7.23
591.984	7.29
592.174	7.2
592.365	7.42
592.555	7.11
592.746	7.06
592.936	7.12
593.127	7.28
593.317	7.19
593.508	7.21
593.698	7.15
593.889	7.18
594.079	7.19
594.269	6.98
594.46	7.04
594.65	7.08
594.84	7.08
595.031	6.98
595.221	6.99
595.411	7.06
595.602	7.01
595.792	6.95
595.982	6.89
596.172	7.05
596.363	6.92
596.553	6.9
596.743	7
596.933	7.01
597.123	6.96
597.314	6.72
597.504	6.75
597.694	6.94
597.884	6.86
598.074	6.87
598.264	6.79
598.454	6.84
598.644	6.79
598.834	6.72
599.024	6.69
599.214	6.72
599.404	6.84
599.594	6.68
599.784	6.67
599.974	6.79
600.164	6.79
600.354	6.6
600.544	6.62
600.734	6.61
600.924	6.62
601.114	6.55
601.303	6.52
601.493	6.54
601.683	6.63
601.873	6.58
602.063	6.5
602.252	6.52
602.442	6.38
602.632	6.43
602.821	6.38
603.011	6.45
603.201	6.46
603.39	6.41
603.58	6.32
603.77	6.43
603.959	6.44
604.149	6.35
604.339	6.36
604.528	6.43
604.718	6.39
604.907	6.34
605.097	6.17
605.286	6.29
605.476	6.33
605.665	6.3
605.855	6.23
606.044	6.32
606.234	6.27
606.423	6.17
606.612	6.2
606.802	6.17
606.991	6.25
607.181	6.2
607.37	6.16
607.559	5.93
607.749	6.11
607.938	6.02
608.127	6.07
608.316	6.03
608.506	6.01
608.695	6.09
608.884	6.01
609.073	5.98
609.263	6.07
609.452	6.07
609.641	5.83
609.83	5.89
610.019	5.99
610.208	5.87
610.397	5.85
610.586	5.95
610.775	5.83
610.965	5.87
611.154	5.75
611.343	5.86
611.532	5.73
611.721	5.81
611.91	5.72
612.099	5.73
612.287	5.62
612.476	5.59
612.665	5.73
612.854	5.58
613.043	5.62
613.232	5.65
613.421	5.51
613.61	5.59
613.798	5.56
613.987	5.67
614.176	5.51
614.365	5.56
614.554	5.53
614.742	5.61
614.931	5.34
615.12	5.54
615.309	5.46
615.497	5.46
615.686	5.3
615.875	5.33
616.063	5.37
616.252	5.32
616.44	5.39
616.629	5.34
616.818	5.27
617.006	5.31
617.195	5.2
617.383	5.26
617.572	5.2
617.76	5.21
617.949	5.24
618.137	5.29
618.326	5.3
618.514	5.09
618.703	5.09
618.891	5.19
619.079	5.06
619.268	5.16
619.456	5
619.644	5.2
619.833	4.99
620.021	5.02
620.209	4.89
620.398	5.08
620.586	4.91
620.774	4.98
620.962	4.96
621.151	5.05
621.339	4.92
621.527	4.85
621.715	4.8
621.903	4.88
622.092	4.76
622.28	4.96
622.468	4.68
622.656	4.79
622.844	4.76
623.032	4.81
623.22	4.67
623.408	4.78
623.596	4.77
623.784	4.76
623.972	4.63
624.16	4.61
624.348	4.78
624.536	4.73
624.724	4.51
624.912	4.66
625.1	4.62
625.288	4.63
625.476	4.53
625.664	4.58
625.851	4.54
626.039	4.57
626.227	4.5
626.415	4.51
626.603	4.43
626.79	4.47
626.978	4.43
627.166	4.43
627.354	4.39
627.541	4.36
627.729	4.3
627.917	4.47
628.104	4.42
628.292	4.32
628.48	4.35
628.667	4.29
628.855	4.39
629.042	4.38
629.23	4.26
629.418	4.29
629.605	4.25
629.793	4.15
629.98	4.21
630.168	4.22
630.355	4.24
630.543	4.13
630.73	4.13
630.917	4.1
631.105	4.25
631.292	4.1
631.48	4.1
631.667	4.23
631.854	4.06
632.042	4.07
632.229	3.94
632.416	4.06
632.604	3.98
632.791	3.91
632.978	4.03
633.165	3.97
633.353	4.04
633.54	3.93
633.727	3.91
633.914	3.84
634.101	3.77
634.289	3.94
634.476	3.82
634.663	3.79
634.85	3.82
635.037	3.78
635.224	3.72
635.411	3.84
635.598	3.77
635.785	3.63
635.972	3.64
636.159	3.76
636.346	3.67
636.533	3.62
636.72	3.64
636.907	3.64
637.094	3.62
637.281	3.52
637.468	3.59
637.655	3.59
637.842	3.6
638.029	3.53
638.215	3.54
638.402	3.55
638.589	3.46
638.776	3.46
638.963	3.44
639.149	3.62
639.336	3.54
639.523	3.46
639.709	3.41
639.896	3.39
640.083	3.38
640.27	3.45
640.456	3.39
640.643	3.4
640.829	3.25
641.016	3.26
641.203	3.21
641.389	3.27
641.576	3.27
641.762	3.24
641.949	3.23
642.135	3.22
642.322	3.23
642.508	3.13
642.695	3.25
642.881	3.15
643.068	3.13
643.254	3.18
643.441	3.19
643.627	3.2
643.813	3.09
644	3.16
644.186	3.04
644.372	3.07
644.559	3.14
644.745	3.03
644.931	2.99
645.118	3.03
645.304	3.03
645.49	2.96
645.676	2.99
645.862	2.99
646.049	3.06
646.235	2.94
646.421	3.09
646.607	3.09
646.793	2.95
646.979	2.81
647.165	2.91
647.352	2.9
647.538	2.94
647.724	2.81
647.91	2.82
648.096	2.86
648.282	2.87
648.468	2.8
648.654	2.82
648.84	2.85
649.026	2.84
649.212	2.68
649.397	2.69
649.583	2.71
649.769	2.75
649.955	2.69
650.141	2.77
650.327	2.73
650.513	2.64
650.698	2.69
650.884	2.57
651.07	2.71
651.256	2.59
651.442	2.6
651.627	2.53
651.813	2.61
651.999	2.54
652.184	2.57
652.37	2.55
652.556	2.56
652.741	2.6
652.927	2.42
653.113	2.5
653.298	2.54
653.484	2.49
653.669	2.4
653.855	2.5
654.04	2.51
654.226	2.43
654.412	2.4
654.597	2.33
654.782	2.41
654.968	2.43
655.153	2.38
655.339	2.37
655.524	2.28
655.71	2.39
655.895	2.31
656.08	2.35
656.266	2.45
656.451	2.34
656.636	2.25
656.822	2.35
657.007	2.24
657.192	2.29
657.378	2.19
657.563	2.16
657.748	2.27
657.933	2.23
658.118	2.16
658.304	2.2
658.489	2.26
658.674	2.2
658.859	2.16
659.044	2.16
659.229	2.2
659.414	2.15
659.599	2.17
659.785	2.12
659.97	2.16
660.155	2.13
660.34	2.17
660.525	2.12
660.71	2.08
660.895	2.15
661.08	2.12
661.264	2
661.449	2.18
661.634	2.07
661.819	2.07
662.004	2.01
662.189	1.97
662.374	2
662.559	1.98
662.743	1.98
662.928	1.99
663.113	1.95
663.298	1.92
663.483	1.92
663.667	2.01
663.852	1.9
664.037	2.01
664.221	1.91
664.406	1.94
664.591	1.94
664.775	1.91
664.96	1.8
665.145	1.91
665.329	1.91
665.514	1.84
665.698	1.79
665.883	1.75
666.068	1.93
666.252	1.85
666.437	1.74
666.621	1.81
666.806	1.81
666.99	1.8
667.174	1.73
667.359	1.86
667.543	1.74
667.728	1.74
667.912	1.63
668.096	1.8
668.281	1.78
668.465	1.76
668.649	1.68
668.834	1.69
669.018	1.7
669.202	1.72
669.387	1.67
669.571	1.71
669.755	1.68
669.939	1.7
670.124	1.66
670.308	1.7
670.492	1.71
670.676	1.65
670.86	1.64
671.044	1.62
671.228	1.72
671.413	1.56
671.597	1.61
671.781	1.58
671.965	1.66
672.149	1.58
672.333	1.57
672.517	1.54
672.701	1.57
672.885	1.53
673.069	1.43
673.253	1.66
673.437	1.52
673.621	1.52
673.804	1.6
673.988	1.58
674.172	1.47
674.356	1.43
674.54	1.48
674.724	1.61
674.908	1.47
675.091	1.53
675.275	1.52
675.459	1.48
675.643	1.42
675.826	1.46
676.01	1.49
676.194	1.49
676.377	1.49
676.561	1.44
676.745	1.42
676.928	1.46
677.112	1.43
677.296	1.34
677.479	1.37
677.663	1.38
677.846	1.41
678.03	1.4
678.213	1.35
678.397	1.42
678.58	1.36
678.764	1.36
678.947	1.29
679.131	1.4
679.314	1.41
679.498	1.33
679.681	1.38
679.865	1.38
680.048	1.25
680.231	1.3
680.415	1.26
680.598	1.23
680.781	1.24
680.965	1.3
681.148	1.33
681.331	1.21
681.514	1.33
681.698	1.19
681.881	1.3
682.064	1.29
682.247	1.23
682.43	1.07
682.614	1.26
682.797	1.3
682.98	1.25
683.163	1.2
683.346	1.25
683.529	1.23
683.712	1.14
683.895	1.23
684.078	1.17
684.261	1.19
684.444	1.2
684.627	1.23
684.81	1.1
684.993	1.11
685.176	1.26
685.359	1.06
685.542	1.1
685.725	1.18
685.908	1.14
686.091	1.06
686.274	1.16
686.457	1.26
686.639	1.13
686.822	1.17
687.005	1.14
687.188	1.15
687.371	1.21
687.553	1.2
687.736	1.22
687.919	1.18
688.102	1.18
688.284	1.09
688.467	1.07
688.65	1.13
688.832	0.99
689.015	1.07
689.197	0.97
689.38	1.14
689.563	1.19
689.745	0.96
689.928	0.94
690.11	1.03
690.293	1.03
690.475	0.96
690.658	1.03
690.84	1.02
691.023	1.02
691.205	0.94
691.388	0.98
691.57	1.07
691.752	1.03
691.935	0.91
692.117	0.92
692.3	1.05
692.482	1.01
692.664	0.91
692.847	0.92
693.029	1.12
693.211	1.07
693.393	0.89
693.576	0.92
693.758	0.93
693.94	0.93
694.122	0.9
694.304	0.95
694.487	0.89
694.669	1.02
694.851	0.86
695.033	0.88
695.215	0.93
695.397	0.9
695.579	0.88
695.761	0.88
695.943	0.83
696.125	1.01
696.308	0.92
696.49	0.73
696.671	1.06
696.853	0.86
697.035	1.18
697.217	0.82
697.399	0.97
697.581	0.82
697.763	0.9
697.945	0.82
698.127	0.82
698.309	0.9
698.491	0.93
698.672	0.89
698.854	0.94
699.036	0.91
699.218	0.89
699.399	0.88
699.581	0.9
699.763	0.84
699.945	0.74
700.126	0.78
700.308	0.84
700.49	0.79
700.671	0.7
700.853	0.71
701.035	0.74
701.216	0.81
701.398	0.74
701.579	0.81
701.761	0.91
701.943	0.79
702.124	0.77
702.306	0.78
702.487	0.99
702.669	0.78
702.85	0.64
703.031	0.73
703.213	0.85
703.394	0.85
703.576	0.78
703.757	0.92
703.938	0.84
704.12	1.01
704.301	0.76
704.483	0.71
704.664	0.77
704.845	0.89
705.026	0.85
705.208	0.78
705.389	0.8
705.57	0.72
705.751	0.72
705.933	0.76
706.114	0.83
706.295	0.77
706.476	0.6
706.657	0.79
706.838	0.79
707.02	0.78
707.201	0.65
707.382	0.66
707.563	0.76
707.744	0.71
707.925	0.68
708.106	0.64
708.287	0.76
708.468	0.79
708.649	0.71
708.83	0.75
709.011	0.68
709.192	0.74
709.373	0.64
709.554	0.64
709.734	0.77
709.915	0.78
710.096	0.67
710.277	0.52
710.458	0.65
710.639	0.7
710.819	0.56
711	0.6
711.181	0.7
711.362	0.81
711.542	0.66
711.723	0.67
711.904	0.78
712.085	0.7
712.265	0.64
712.446	0.63
712.627	0.64
712.807	0.63
712.988	0.58
713.168	0.5
713.349	0.74
713.53	0.49
713.71	0.51
713.891	0.55
714.071	0.65
714.252	0.57
714.432	0.63
714.613	0.48
714.793	0.52
714.974	0.79
715.154	0.66
715.334	0.69
715.515	0.78
715.695	0.55
715.876	0.6
716.056	0.62
716.236	0.58
716.417	0.61
716.597	0.51
716.777	0.81
716.957	0.6
717.138	0.57
717.318	0.59
717.498	0.45
717.678	0.58
717.859	0.65
718.039	0.53
718.219	0.6
718.399	0.52
718.579	0.56
718.759	0.47
718.939	0.61
719.12	0.57
719.3	0.57
719.48	0.36
719.66	0.43
719.84	0.66
720.02	0.54
720.2	0.46
720.38	0.5
720.56	0.73
720.74	0.48
720.92	0.61
721.1	0.71
721.279	0.6
721.459	0.59
721.639	0.46
721.819	0.52
721.999	0.5
722.179	0.63
722.359	0.41
722.538	0.48
722.718	0.5
722.898	0.5
723.078	0.5
723.257	0.54
723.437	0.6
723.617	0.51
723.797	0.5
723.976	0.59
724.156	0.64
724.336	0.63
724.515	0.69
724.695	0.36
724.874	0.59
725.054	0.55
725.234	0.47
725.413	0.53
725.593	0.44
725.772	0.56
725.952	0.49
726.131	0.45
726.311	0.46
726.49	0.48
726.67	0.39
726.849	0.45
727.028	0.56
727.208	0.51
727.387	0.51
727.567	0.37
727.746	0.54
727.925	0.39
728.105	0.41
728.284	0.44
728.463	0.47
728.643	0.48
728.822	0.35
729.001	0.48
729.18	0.52
729.359	0.63
729.539	0.46
729.718	0.51
729.897	0.54
730.076	0.44
730.255	0.39
730.434	0.49
730.614	0.65
730.793	0.59
730.972	0.39
731.151	0.53
731.33	0.58
731.509	0.49
731.688	0.51
731.867	0.42
732.046	0.3
732.225	0.71
732.404	0.48
732.583	0.36
732.762	0.47
732.941	0.59
733.12	0.36
733.298	0.46
733.477	0.59
733.656	0.52
733.835	0.41
734.014	0.52
734.193	0.45
734.371	0.51
734.55	0.56
734.729	0.42
734.908	0.49
735.086	0.58
735.265	0.58
735.444	0.28
735.623	0.44
735.801	0.46
735.98	0.46
736.159	0.46
736.337	0.47
736.516	0.52
736.694	0.54
736.873	0.37
737.052	0.68
737.23	0.68
737.409	0.46
737.587	0.79
737.766	0.42
737.944	0.39
738.123	0.53
738.301	0.61
738.479	0.51
738.658	0.5
738.836	0.33
739.015	0.57
739.193	0.65
739.371	0.28
739.55	0.46
739.728	0.33
739.906	0.67
740.085	0.67
740.263	0.4
740.441	0.2
740.62	0.58
740.798	0.6
740.976	0.39
741.154	0.35
741.332	0.7
741.511	0.54
741.689	0.47
741.867	0.49
742.045	0.57
742.223	0.51
742.401	0.28
742.579	0.33
742.757	0.63
742.935	0.38
743.114	0.38
743.292	0.43
743.47	0.5
743.648	0.56
743.826	0.23
744.004	0.46
744.181	0.56
744.359	0.37
744.537	0.48
744.715	0.43
744.893	0.45
745.071	0.45
745.249	0.4
745.427	0.43
745.605	0.41
745.782	0.55
745.96	0.5
746.138	0.49
746.316	0.52
746.493	0.46
746.671	0.35
746.849	0.36
747.027	0.62
747.204	0.28
747.382	0.48
747.56	0.28
747.737	0.47
747.915	0.33
748.093	0.48
748.27	0.36
748.448	0.48
748.625	0.2
748.803	0.31
748.98	0.28
749.158	0.51
749.335	0.55
749.513	0.38
749.69	0.41
749.868	0.46
750.045	0.5
750.223	0.29
750.4	0.16
750.578	0.55
750.755	0.34
750.932	0.11
751.11	0.49
751.287	0.23
751.464	0.47
751.642	0.38
751.819	0.44
751.996	0.47
752.173	0.38
752.351	0.31
752.528	0.41
752.705	0.29
752.882	0.3
753.06	0.32
753.237	0.37
753.414	0.58
753.591	0.65
753.768	0.37
753.945	0.36
754.122	0.46
754.299	0.54
754.476	0.28
754.654	0.32
754.831	0.46
755.008	0.48
755.185	0.27
755.362	0.2
755.539	0.41
755.716	0.34
755.892	0.3
756.069	0.4
756.246	0.31
756.423	0.34
756.6	0.55
756.777	0.27
756.954	0.5
757.131	0.36
757.307	0.28
757.484	0.22
757.661	0.34
757.838	0.48
758.015	0.27
758.191	0.43
758.368	0.4
758.545	0.59
758.721	0.43
758.898	0.19
759.075	0.41
759.251	0.43
759.428	0.44
759.605	0.25
759.781	0.17
759.958	0.5
760.134	0.42
760.311	0.41
760.488	0.53
760.664	0.63
760.841	0.36
761.017	0.24
761.194	0.43
761.37	0.5
761.547	0.33
761.723	0.3
761.899	0.57
762.076	0.36
762.252	0.23
762.429	0.22
762.605	0.51
762.781	0.37
762.958	0.39
763.134	0.25
763.31	0.21
763.486	0.51
763.663	0.09
763.839	0.53
764.015	0.16
764.191	0.14
764.368	0.28
764.544	0.32
764.72	0.44
764.896	0.39
765.072	0.42
765.248	0.26
765.425	0.42
765.601	0.43
765.777	0.42
765.953	0.01
766.129	0.31
766.305	0.18
766.481	0.48
766.657	0.44
766.833	0.6
767.009	0.16
767.185	0.33
767.361	0.32
767.537	0.16
767.713	0.53
767.889	0.28
768.065	0.37
768.24	0.32
768.416	0.42
768.592	0.34
768.768	0.5
768.944	0.48
769.12	0.02
769.295	0.38
769.471	0.41
769.647	0.42
769.823	0.56
769.998	0.27
770.174	0.28
770.35	0.68
770.525	0.57
770.701	0.53
770.877	0.33
771.052	0.28
771.228	0.48
771.403	0.49
771.579	0.33
771.755	0.77
771.93	0.33
772.106	0.23
772.281	-0.02
772.457	0.34
772.632	0.47
772.808	0.15
772.983	0.17
773.159	0.18
773.334	0.51
773.509	0.42
773.685	0.26
773.86	0.73
774.036	0.66
774.211	0.3
774.386	0.41
774.562	0.35
774.737	0.54
774.912	0.42
775.087	0.32
775.263	0.47
775.438	0.33
775.613	0.28
775.788	0.28
775.964	0.59
776.139	0.87
776.314	0.11
776.489	0.5
776.664	0.51
776.839	0.26
777.014	0.51
777.19	0.45
777.365	0.65
777.54	0.82
777.715	0.22
777.89	0.51
778.065	0.18
778.24	0.39
778.415	0.43
778.59	0.03
778.765	0.23
778.94	0.43
779.115	0.25
779.289	0.35
779.464	0.39
779.639	0.22
779.814	0.12
779.989	0.21
780.164	0.52
780.339	0.4
780.513	0.21
780.688	0.04
780.863	0.45
781.038	0.7
781.212	0.13
781.387	0.14
781.562	0.71
781.737	0.28
781.911	0.58
782.086	0.29
782.261	0.34
782.435	0.72
782.61	0.29
782.784	0.28
782.959	0.6
783.134	0.38
783.308	0.04
783.483	0.44
783.657	1
783.832	0.91
784.006	0.17
784.181	0.25
784.355	0.44
784.53	0.38
784.704	0.14
784.878	0.71
785.053	0.5
785.227	0.68
785.402	0.75
785.576	0.21
785.75	0.46
785.925	0.29
786.099	0.43
786.273	0.49
786.448	0.71
786.622	0.61
786.796	0.55
786.97	0.22
787.145	1.2
787.319	0.12
787.493	0.38
787.667	0.1
787.841	0.25
788.015	0.83
788.19	0.42
788.364	0.41
788.538	0.75
788.712	0.66
788.886	0.33
789.06	0.6
789.234	0.56
789.408	0.19
789.582	0.3
789.756	0.26
789.93	0.5
790.104	0.39
790.278	0.35
790.452	0.24
790.626	0.38
790.8	0.16
790.973	0.65
791.147	0.68
791.321	0.89
791.495	0.74
791.669	0.54
791.843	0.61
792.016	0.52
792.19	1.13
792.364	0.18
792.538	1.02
792.711	0.64
792.885	0.34
793.059	0.18
793.233	-0.07
793.406	0.77
793.58	0.69
793.754	0.61
793.927	0.31
794.101	0.79
794.274	0.56
794.448	0.79
794.622	0.05
794.795	0.93
794.969	0.47
795.142	0.82
795.316	0.24
795.489	0.25
795.663	0.92
795.836	0.4
796.009	0.27
796.183	0.85
796.356	0.38
796.53	0.43
796.703	0.48
796.876	1.12
797.05	0.43
797.223	0.36
797.396	0.51
797.57	0.55
797.743	0.88
797.916	0.42
798.09	0.24
798.263	0.8
798.436	0.57
798.609	0.36
798.782	0.44
798.956	0.43
799.129	0.64
799.302	0.34
799.475	0.31
799.648	0.46
799.821	0.44
799.994	0.38
800.167	-0.02
800.34	0.52
800.514	0.37
800.687	0.39
800.86	0.38
801.033	0.72
801.206	0.53
801.379	0.22
801.551	0.67
801.724	0.69
801.897	1
802.07	0.27
802.243	0.06
802.416	0.46
802.589	0.5
802.762	0.76
802.935	0.44
803.107	0.67
803.28	0.99
803.453	0.75
803.626	0.16
803.798	0.57
803.971	0.48
804.144	0.66
804.317	0.67
804.489	0.8
804.662	0.57
804.835	0.16
805.007	0.27
805.18	0.81
805.353	0.69
805.525	-0.05
805.698	0.19
805.87	0.88
806.043	0.73
806.215	0.22
806.388	0.34
806.56	0.7
806.733	1.01
806.905	0.68
807.078	0.26
807.25	0.47
807.423	0.8
807.595	0.36
807.768	0.5
807.94	0.92
808.112	0.67
808.285	0.36
808.457	0.52
808.629	0.79
808.802	0.74
808.974	0.94
809.146	-0.09
809.318	0.63
809.491	0.69
809.663	0.81
809.835	0.35
810.007	1
810.18	0.63
810.352	-0.13
810.524	0.64
810.696	1.11
810.868	0.9
811.04	0.24
811.212	0.38
811.384	1.06
811.556	0.73
811.728	0.28
811.901	1.61
812.073	0.44
812.245	1.24
812.417	0.37
812.589	-0.09
812.76	0.65
812.932	0.59
813.104	1.02
813.276	0.25
813.448	0.77
813.62	0.7
813.792	0.8
813.964	0.29
814.136	1.05
814.307	0.27
814.479	0.32
814.651	0.35
814.823	2.06
814.995	0.6
815.166	0.58
815.338	0.22
815.51	-0.14
815.681	1.2
815.853	0.61
816.025	0.07
816.196	1.49
816.368	1.17
816.54	0.08
816.711	0.08
816.883	0.89
817.054	2.01
817.226	0.11
817.398	0.9
817.569	0.54
817.741	0.83
817.912	0.22
818.084	0.66
818.255	1.36
818.426	0.36
818.598	0.46
818.769	0.61
818.941	0.75
819.112	1.22
819.283	0.7
819.455	0.34
819.626	0.14
819.798	0.97
819.969	0.51
820.14	0.31
820.311	0.61
820.483	0.93
820.654	0.76
820.825	0.34
820.996	0.5
821.168	-0.2
821.339	0.68
821.51	-0.4
821.681	0.31
821.852	0.78
822.023	-0.22
822.195	-0.44
822.366	1.41
822.537	0.64
822.708	0.68
822.879	0.57
823.05	1.73
823.221	0.8
823.392	0.91
823.563	0.83
823.734	0.91
823.905	0.32
824.076	0.52
824.247	0.13
824.418	0.73
824.589	1.56
824.759	1.04
824.93	0.69
825.101	0.01
825.272	1.75
825.443	1.32
825.614	1.76
825.784	-0.14
825.955	1.64
826.126	1.48
826.297	1.14
826.467	1.38
826.638	2.6
826.809	0.2
826.98	0.97
827.15	0.92
827.321	1.33
827.492	1.26
827.662	0.44
827.833	2.09
828.003	1.52
828.174	0.3
828.345	-0.21
828.515	2.16
828.686	0.7
828.856	0.24
829.027	0.52
829.197	1.38
829.368	0.69
829.538	0.3
829.709	0.57
829.879	1.19
830.049	1.05
830.22	0.34
830.39	0.66
830.56	1.8
830.731	0.47
830.901	0.44
831.072	0.44
831.242	0.94
831.412	1.48
831.582	0.72
831.753	-0.18
831.923	1.26
832.093	1.24
832.263	0.73
832.434	-0.06
832.604	0.28
832.774	1.76
832.944	0.66
833.114	0.7
833.284	1.38
833.454	0.73
833.624	0.41
833.795	0.75
833.965	1.54
834.135	2.04
834.305	-0.5
834.475	-0
834.645	0.9
834.815	0.69
834.985	0.46
835.155	0.37
835.325	0.82
835.494	1.03
835.664	0.54
835.834	0.26
836.004	1.38
836.174	0.95
836.344	0.83
836.514	-0.05
836.684	0.53
836.853	0.92
837.023	1.26
837.193	0.42
837.363	2
837.532	1.5
837.702	0.92
837.872	0.06
838.041	1.51
838.211	2.3
838.381	-0.16
838.55	0.99
838.72	3.89
838.89	3.08
839.059	0.68
839.229	-0.06
839.398	3.27
839.568	1.27
839.738	0.72
839.907	1.7
840.077	1
840.246	0.72
840.416	-0.2
840.585	0.66
840.755	2.4
840.924	2.64
841.093	0.12
841.263	0.32
841.432	1.65
841.602	0.47
841.771	0.33
841.94	0.88
842.11	3.21
842.279	2.09
842.448	0.59
842.617	0.3
842.787	1.98
842.956	-0.06
843.125	0.83
843.294	1.13
843.464	2.67
843.633	1.82
843.802	0.4
843.971	1.21
844.14	1.49
844.309	1.77
844.479	-0.29
844.648	0.01
844.817	1.66
844.986	1.09
845.155	-0.32
845.324	0.47
845.493	0.88
845.662	0.61
845.831	1.47
846	1.02
846.169	0.72
846.338	3
846.507	1.65
846.676	0.66
846.844	1.28
847.013	2.81
847.182	0.52
847.351	0.79
847.52	1.32
847.689	1.4
847.858	0.71
848.026	-0.44
848.195	0.93
848.364	0.1
848.533	0.3
848.701	0.21
848.87	1.4
849.039	2.73
849.207	1.07
849.376	3.39
849.545	3.66
849.713	0.26
849.882	0.24
850.051	1.06
850.219	1.55
850.388	2.05
850.556	-0.06
850.725	-0
850.893	0.76
851.062	1.86
851.23	1.58
851.399	-0.56
851.567	0.3
851.736	1.09
851.904	-0.32
852.073	0.62
852.241	1.71
852.41	1.5
852.578	1.75
852.746	0.51
852.915	2.53
853.083	1.65
853.251	-0.35
853.42	0.99
853.588	1.32
853.756	3.38
853.924	1.29
854.093	1.83
854.261	1.31
854.429	0.62
854.597	1.84
854.765	0.18
854.934	1.73
855.102	3.42
855.27	0.67
855.438	1.72
855.606	3.79
855.774	4.48
855.942	-0.22
856.11	-0.54
856.278	2.14
856.446	3.41
856.614	0.73
856.782	-1.14
856.95	2.63
857.118	2.25
857.286	1.38
857.454	-0.3
857.622	2.92
857.79	2.31
857.958	-0.63
858.126	1.03
858.294	-0.85
858.462	1.01
858.629	0.38
858.797	0.98
858.965	2.67
859.133	1.16
859.301	1.67
859.468	1.79
859.636	0.36
859.804	4.06
859.971	1.76
860.139	-0.81
860.307	2.66
860.474	2.72
860.642	0.12
860.81	-0.4
860.977	0.96
861.145	3.56
861.313	1.86
861.48	1.09
861.648	2.49
861.815	0.88
861.983	0.06
862.15	0.16
862.318	2.18
862.485	3.23
862.653	0.93
862.82	0.73
862.988	3.52
863.155	2.81
863.322	0.57
863.49	0.97
863.657	0.47
863.824	4.92
863.992	1.82
864.159	0.74
864.326	3.54
864.494	0.63
864.661	3.56
864.828	0.7
864.996	3.75
865.163	3.52
865.33	0.65
865.497	-0.75
865.664	0.24
865.832	-0.09
865.999	0.76
866.166	0.82
866.333	1.55
866.5	1.46
866.667	1.17
866.834	1.63
867.001	4.07
867.168	0.16
867.335	1.94
867.502	0.01
867.669	2.84
867.836	5.7
868.003	1.09
868.17	3.77
868.337	0.05
868.504	5.01
868.671	-1.91
868.838	0.21
869.005	1.49
869.172	2.64
869.339	1.67
869.505	0.15
869.672	1.23
869.839	3.85
870.006	1.95
870.173	1.04
870.339	4.19
870.506	5.35
870.673	1.81
870.84	2.22
871.006	2.53
871.173	2.13
871.34	2.18
871.506	-0.71
871.673	4.49
871.839	0.19
872.006	1.19
872.173	0.87
872.339	1.68
872.506	3.74
872.672	1.26
872.839	-1.6
873.005	2.68
873.172	5.38
873.338	3.46
873.505	1.34
873.671	2.22
873.838	1.76
874.004	-0.4
874.171	1.14
874.337	2.99
874.503	5.79
874.67	0.25
874.836	0.91
875.002	4.59
875.169	3.71
875.335	1.97
875.501	1.66
875.668	2.55
875.834	0.99
876	0.85
876.166	1.94
876.332	1.95
876.499	5.44
876.665	1.03
876.831	1.66
876.997	6.29
877.163	2.62
877.329	1.44
877.495	1.27
877.662	4
877.828	4.48
877.994	1.85
878.16	-1.11
878.326	1.36
878.492	3.66
878.658	0.57
878.824	2.72
878.99	3.01
879.156	1.8
879.322	4.01
879.487	-0.85
879.653	2.33
879.819	3.01
879.985	-0.73
880.151	3.31
880.317	4.52
880.483	2.68
880.648	2.72
880.814	-1.72
880.98	2.92
881.146	-2.75
881.312	0.22
881.477	0.67
881.643	2.34
881.809	3.21
881.974	2.76
882.14	-0.51
882.306	1.97
882.471	6.72
882.637	2.74
882.803	1.12
882.968	5.53
883.134	7.08
883.299	3.29
883.465	2.37
883.63	3.13
883.796	3
883.961	3.5
884.127	4.18
884.292	-2.6
884.458	-0.19
884.623	-0.19
