Data from Apollo_Calib_20240827__AbsoluteIrradiance__896__14-05-01-921.txt Node

Date: Wed Aug 28 14:05:01 BST 2024
User: biology
Spectrometer: FLMT08252
Trigger mode: 0
Integration Time (sec): 5.000000E-1
Scans to average: 5
Electric dark correction enabled: true
Nonlinearity correction enabled: false
Boxcar width: 0
XAxis mode: Wavelengths
Number of Pixels in Spectrum: 3648
>>>>>Begin Spectral Data<<<<<
179.588	-0
179.809	-0
180.03	-0
180.251	-0
180.473	-0
180.694	0
180.915	0
181.136	-0
181.357	0
181.578	-0
181.799	0
182.02	-0
182.241	0
182.462	-0
182.683	0
182.904	-0
183.125	-0
183.346	0
183.567	0
183.788	0
184.009	0
184.23	0
184.451	0
184.672	0
184.892	0
185.113	0
185.334	0
185.555	0
185.776	0
185.996	0
186.217	0
186.438	0
186.659	0
186.879	0
187.1	0
187.321	0
187.541	0
187.762	0
187.983	0
188.203	0
188.424	0
188.644	0
188.865	0
189.086	0
189.306	0
189.527	0
189.747	0
189.968	0
190.188	0
190.409	0
190.629	0
190.849	0
191.07	0
191.29	0
191.511	0
191.731	0
191.951	0
192.172	0
192.392	0
192.612	0
192.833	0
193.053	0
193.273	0
193.493	0
193.714	0
193.934	0
194.154	0
194.374	0
194.594	0
194.815	0
195.035	0
195.255	0
195.475	0
195.695	0
195.915	0
196.135	0
196.355	0
196.575	0
196.795	0
197.015	0
197.235	0
197.455	0
197.675	0
197.895	0
198.115	0
198.335	0
198.555	0
198.775	0
198.995	0
199.214	0
199.434	0
199.654	0
199.874	0
200.094	4
200.313	2.29
200.533	1.63
200.753	1.52
200.973	3.71
201.192	3.16
201.412	1.08
201.632	1.78
201.851	3.28
202.071	1.62
202.291	1.38
202.51	1.3
202.73	2.72
202.95	1.55
203.169	1.47
203.389	1.48
203.608	1.88
203.828	2.09
204.047	1.47
204.267	2.26
204.486	2.06
204.706	2.17
204.925	1.79
205.145	1.53
205.364	2.26
205.583	2.3
205.803	1.31
206.022	0.93
206.242	1.99
206.461	1.86
206.68	1.59
206.9	1.54
207.119	2.56
207.338	2.16
207.557	1.09
207.777	1.1
207.996	1.46
208.215	2.23
208.434	1.03
208.654	0.95
208.873	1.34
209.092	2.25
209.311	1.21
209.53	1.27
209.749	1.21
209.968	0.83
210.187	0.88
210.407	0.64
210.626	1.11
210.845	1.72
211.064	0.99
211.283	0.82
211.502	1.61
211.721	1.24
211.94	1.03
212.159	1.36
212.377	1.25
212.596	1.75
212.815	1.17
213.034	1.24
213.253	1.41
213.472	1.26
213.691	0.9
213.91	0.62
214.128	0.75
214.347	1.55
214.566	0.39
214.785	0.38
215.003	1.28
215.222	1.24
215.441	0.96
215.66	0.55
215.878	0.91
216.097	1.23
216.316	0.64
216.534	0.69
216.753	1.22
216.972	0.89
217.19	0.76
217.409	0.54
217.627	0.68
217.846	0.72
218.064	0.92
218.283	0.46
218.501	1.49
218.72	1.16
218.938	0.53
219.157	0.79
219.375	1.01
219.594	1.03
219.812	0.5
220.031	0.54
220.249	1.17
220.467	1.29
220.686	0.66
220.904	0.49
221.122	0.68
221.341	1.16
221.559	0.88
221.777	0.34
221.995	0.81
222.214	0.96
222.432	0.55
222.65	0.79
222.868	0.75
223.086	0.64
223.305	0.93
223.523	0.52
223.741	1.26
223.959	0.86
224.177	0.29
224.395	0.47
224.613	0.96
224.831	1
225.049	0.37
225.267	0.55
225.485	0.78
225.703	0.62
225.921	0.53
226.139	0.57
226.357	0.78
226.575	0.73
226.793	0.48
227.011	1.63
227.229	0.81
227.447	0.9
227.665	0.51
227.883	0.26
228.1	0.55
228.318	0.75
228.536	0.28
228.754	0.47
228.972	0.69
229.189	0.68
229.407	0.52
229.625	0.57
229.843	0.76
230.06	0.65
230.278	0.5
230.496	0.56
230.713	0.68
230.931	0.71
231.149	0.5
231.366	0.29
231.584	0.51
231.801	1
232.019	0.59
232.236	0.35
232.454	0.54
232.671	0.65
232.889	0.36
233.106	0.38
233.324	0.72
233.541	0.56
233.759	0.49
233.976	0.41
234.194	0.5
234.411	0.57
234.628	0.37
234.846	0.4
235.063	0.58
235.28	0.58
235.498	0.47
235.715	0.36
235.932	0.72
236.149	0.54
236.367	0.35
236.584	0.52
236.801	0.42
237.018	0.79
237.236	0.46
237.453	0.3
237.67	0.68
237.887	0.5
238.104	0.43
238.321	0.29
238.538	0.36
238.755	0.82
238.973	0.27
239.19	0.48
239.407	0.53
239.624	0.62
239.841	0.24
240.058	0.29
240.275	0.61
240.492	0.55
240.709	0.36
240.925	0.36
241.142	0.45
241.359	0.34
241.576	0.3
241.793	0.45
242.01	0.42
242.227	0.7
242.444	0.43
242.66	0.65
242.877	0.54
243.094	0.41
243.311	0.46
243.527	0.31
243.744	0.5
243.961	0.53
244.178	0.46
244.394	0.37
244.611	0.52
244.828	0.64
245.044	0.34
245.261	0.42
245.477	0.55
245.694	0.6
245.911	0.32
246.127	0.38
246.344	0.55
246.56	0.51
246.777	0.38
246.993	0.37
247.21	0.48
247.426	0.53
247.643	0.36
247.859	0.27
248.076	0.31
248.292	0.75
248.508	0.3
248.725	0.51
248.941	0.43
249.157	0.53
249.374	0.34
249.59	0.38
249.806	0.47
250.023	0.52
250.239	0.31
250.455	0.37
250.671	0.37
250.888	0.52
251.104	0.5
251.32	0.27
251.536	0.43
251.752	0.38
251.969	0.44
252.185	0.4
252.401	0.68
252.617	0.49
252.833	0.34
253.049	0.38
253.265	0.4
253.481	0.39
253.697	0.31
253.913	0.26
254.129	0.41
254.345	0.47
254.561	0.29
254.777	0.29
254.993	0.4
255.209	0.42
255.425	0.29
255.641	0.29
255.857	0.42
256.073	0.4
256.288	0.3
256.504	0.35
256.72	0.42
256.936	0.53
257.152	0.32
257.367	0.26
257.583	0.43
257.799	0.53
258.015	0.3
258.23	0.36
258.446	0.59
258.662	0.41
258.877	0.32
259.093	0.29
259.309	0.39
259.524	0.47
259.74	0.26
259.955	0.15
260.171	0.4
260.387	0.37
260.602	0.38
260.818	0.39
261.033	0.32
261.249	0.38
261.464	0.27
261.68	0.29
261.895	0.4
262.11	0.48
262.326	0.35
262.541	0.23
262.757	0.46
262.972	0.37
263.187	0.37
263.403	0.36
263.618	0.39
263.833	0.43
264.049	0.26
264.264	0.33
264.479	0.39
264.694	0.52
264.91	0.18
265.125	0.29
265.34	0.41
265.555	0.56
265.77	0.37
265.986	0.29
266.201	0.4
266.416	0.44
266.631	0.3
266.846	0.3
267.061	0.43
267.276	0.44
267.491	0.19
267.706	0.38
267.921	0.37
268.136	0.41
268.351	0.3
268.566	0.22
268.781	0.5
268.996	0.42
269.211	0.3
269.426	0.21
269.641	0.3
269.856	0.51
270.071	0.26
270.285	0.21
270.5	0.45
270.715	0.4
270.93	0.29
271.145	0.33
271.359	0.46
271.574	0.24
271.789	0.27
272.004	0.23
272.218	0.34
272.433	0.39
272.648	0.26
272.862	0.41
273.077	0.35
273.292	0.33
273.506	0.29
273.721	0.28
273.936	0.43
274.15	0.48
274.365	0.23
274.579	0.35
274.794	0.45
275.008	0.41
275.223	0.23
275.437	0.27
275.652	0.4
275.866	0.45
276.081	0.39
276.295	0.39
276.509	0.32
276.724	0.38
276.938	0.32
277.153	0.36
277.367	0.36
277.581	0.33
277.796	0.29
278.01	0.22
278.224	0.39
278.438	0.48
278.653	0.23
278.867	0.25
279.081	0.14
279.295	0.29
279.51	0.27
279.724	0.14
279.938	0.38
280.152	0.43
280.366	0.22
280.58	0.28
280.794	0.43
281.008	0.38
281.222	0.35
281.437	0.47
281.651	0.33
281.865	0.45
282.079	0.22
282.293	0.13
282.507	0.21
282.721	0.32
282.935	0.27
283.148	0.22
283.362	0.32
283.576	0.25
283.79	0.23
284.004	0.26
284.218	0.44
284.432	0.21
284.646	0.23
284.859	0.25
285.073	0.25
285.287	0.28
285.501	0.31
285.714	0.25
285.928	0.37
286.142	0.31
286.356	0.23
286.569	0.26
286.783	0.47
286.997	0.33
287.21	0.28
287.424	0.3
287.637	0.29
287.851	0.28
288.065	0.34
288.278	0.23
288.492	0.3
288.705	0.32
288.919	0.29
289.132	0.17
289.346	0.33
289.559	0.19
289.773	0.23
289.986	0.24
290.2	0.29
290.413	0.35
290.626	0.24
290.84	0.23
291.053	0.29
291.267	0.38
291.48	0.26
291.693	0.28
291.906	0.23
292.12	0.29
292.333	0.27
292.546	0.19
292.76	0.43
292.973	0.33
293.186	0.32
293.399	0.23
293.612	0.31
293.826	0.3
294.039	0.25
294.252	0.24
294.465	0.36
294.678	0.27
294.891	0.24
295.104	0.22
295.317	0.26
295.53	0.31
295.743	0.27
295.956	0.2
296.169	0.33
296.382	0.29
296.595	0.22
296.808	0.21
297.021	0.37
297.234	0.37
297.447	0.25
297.66	0.31
297.873	0.41
298.086	0.35
298.299	0.22
298.511	0.2
298.724	0.3
298.937	0.18
299.15	0.19
299.363	0.21
299.575	0.32
299.788	0.29
300.001	0.21
300.213	0.25
300.426	0.21
300.639	0.24
300.852	0.18
301.064	0.3
301.277	0.35
301.489	0.3
301.702	0.26
301.915	0.25
302.127	0.25
302.34	0.3
302.552	0.33
302.765	0.22
302.977	0.33
303.19	0.26
303.402	0.22
303.615	0.23
303.827	0.28
304.04	0.23
304.252	0.25
304.464	0.25
304.677	0.43
304.889	0.31
305.102	0.21
305.314	0.2
305.526	0.28
305.739	0.3
305.951	0.2
306.163	0.18
306.375	0.4
306.588	0.22
306.8	0.22
307.012	0.22
307.224	0.29
307.436	0.35
307.649	0.13
307.861	0.29
308.073	0.29
308.285	0.23
308.497	0.19
308.709	0.21
308.921	0.27
309.133	0.33
309.346	0.2
309.558	0.22
309.77	0.3
309.982	0.34
310.194	0.29
310.406	0.22
310.617	0.4
310.829	0.25
311.041	0.27
311.253	0.19
311.465	0.26
311.677	0.27
311.889	0.2
312.101	0.2
312.313	0.34
312.524	0.34
312.736	0.17
312.948	0.22
313.16	0.37
313.372	0.32
313.583	0.32
313.795	0.2
314.007	0.25
314.218	0.33
314.43	0.22
314.642	0.18
314.853	0.13
315.065	0.33
315.277	0.25
315.488	0.25
315.7	0.29
315.912	0.29
316.123	0.2
316.335	0.23
316.546	0.36
316.758	0.24
316.969	0.27
317.181	0.23
317.392	0.27
317.604	0.35
317.815	0.21
318.026	0.22
318.238	0.24
318.449	0.26
318.661	0.17
318.872	0.18
319.083	0.21
319.295	0.28
319.506	0.22
319.717	0.24
319.929	0.31
320.14	0.26
320.351	0.27
320.562	0.18
320.774	0.32
320.985	0.33
321.196	0.22
321.407	0.17
321.618	0.32
321.829	0.3
322.041	0.26
322.252	0.24
322.463	0.29
322.674	0.29
322.885	0.2
323.096	0.24
323.307	0.21
323.518	0.26
323.729	0.22
323.94	0.24
324.151	0.26
324.362	0.26
324.573	0.27
324.784	0.26
324.995	0.31
325.206	0.3
325.417	0.24
325.628	0.17
325.838	0.24
326.049	0.28
326.26	0.26
326.471	0.16
326.682	0.29
326.892	0.29
327.103	0.18
327.314	0.23
327.525	0.36
327.735	0.29
327.946	0.25
328.157	0.15
328.368	0.32
328.578	0.26
328.789	0.33
328.999	0.26
329.21	0.22
329.421	0.34
329.631	0.23
329.842	0.2
330.052	0.25
330.263	0.34
330.473	0.33
330.684	0.25
330.894	0.25
331.105	0.28
331.315	0.27
331.526	0.21
331.736	0.31
331.947	0.27
332.157	0.29
332.367	0.21
332.578	0.26
332.788	0.33
332.999	0.32
333.209	0.22
333.419	0.17
333.629	0.29
333.84	0.28
334.05	0.22
334.26	0.31
334.47	0.3
334.681	0.28
334.891	0.16
335.101	0.33
335.311	0.37
335.521	0.28
335.732	0.23
335.942	0.3
336.152	0.28
336.362	0.23
336.572	0.25
336.782	0.25
336.992	0.23
337.202	0.24
337.412	0.25
337.622	0.29
337.832	0.23
338.042	0.22
338.252	0.2
338.462	0.26
338.672	0.27
338.882	0.2
339.092	0.25
339.302	0.33
339.511	0.3
339.721	0.24
339.931	0.19
340.141	0.29
340.351	0.34
340.561	0.28
340.77	0.28
340.98	0.28
341.19	0.3
341.4	0.22
341.609	0.17
341.819	0.27
342.029	0.21
342.238	0.26
342.448	0.26
342.658	0.32
342.867	0.2
343.077	0.23
343.286	0.24
343.496	0.33
343.706	0.33
343.915	0.19
344.125	0.22
344.334	0.29
344.544	0.18
344.753	0.21
344.963	0.21
345.172	0.21
345.381	0.19
345.591	0.19
345.8	0.27
346.01	0.33
346.219	0.29
346.428	0.13
346.638	0.25
346.847	0.27
347.056	0.35
347.266	0.19
347.475	0.22
347.684	0.28
347.893	0.28
348.103	0.3
348.312	0.23
348.521	0.26
348.73	0.27
348.94	0.27
349.149	0.23
349.358	0.26
349.567	0.21
349.776	0.17
349.985	0.24
350.194	0.29
350.403	0.34
350.612	0.18
350.821	0.2
351.03	0.29
351.239	0.23
351.448	0.28
351.657	0.21
351.866	0.34
352.075	0.26
352.284	0.3
352.493	0.18
352.702	0.32
352.911	0.26
353.12	0.23
353.329	0.2
353.538	0.28
353.746	0.22
353.955	0.19
354.164	0.3
354.373	0.21
354.582	0.32
354.79	0.26
354.999	0.3
355.208	0.21
355.416	0.35
355.625	0.18
355.834	0.2
356.042	0.26
356.251	0.19
356.46	0.16
356.668	0.25
356.877	0.36
357.085	0.28
357.294	0.17
357.503	0.25
357.711	0.22
357.92	0.43
358.128	0.26
358.337	0.21
358.545	0.24
358.754	0.21
358.962	0.31
359.17	0.18
359.379	0.26
359.587	0.26
359.796	0.26
360.004	0.35
360.212	0.28
360.421	0.33
360.629	0.21
360.837	0.19
361.046	0.3
361.254	0.35
361.462	0.24
361.67	0.22
361.879	0.28
362.087	0.32
362.295	0.24
362.503	0.21
362.711	0.19
362.92	0.26
363.128	0.25
363.336	0.22
363.544	0.18
363.752	0.27
363.96	0.25
364.168	0.2
364.376	0.26
364.584	0.27
364.792	0.34
365	0.28
365.208	0.24
365.416	0.27
365.624	0.3
365.832	0.17
366.04	0.39
366.248	0.28
366.456	0.24
366.664	0.23
366.872	0.27
367.079	0.27
367.287	0.21
367.495	0.27
367.703	0.23
367.911	0.21
368.118	0.22
368.326	0.26
368.534	0.16
368.742	0.33
368.949	0.21
369.157	0.24
369.365	0.31
369.572	0.2
369.78	0.2
369.988	0.27
370.195	0.28
370.403	0.28
370.61	0.21
370.818	0.22
371.026	0.36
371.233	0.2
371.441	0.27
371.648	0.22
371.856	0.22
372.063	0.28
372.271	0.19
372.478	0.19
372.685	0.25
372.893	0.33
373.1	0.24
373.308	0.19
373.515	0.38
373.722	0.31
373.93	0.23
374.137	0.27
374.344	0.37
374.552	0.32
374.759	0.27
374.966	0.23
375.173	0.22
375.381	0.29
375.588	0.25
375.795	0.21
376.002	0.24
376.209	0.23
376.417	0.25
376.624	0.26
376.831	0.24
377.038	0.26
377.245	0.19
377.452	0.24
377.659	0.28
377.866	0.29
378.073	0.23
378.28	0.25
378.487	0.35
378.694	0.34
378.901	0.26
379.108	0.25
379.315	0.28
379.522	0.41
379.729	0.24
379.936	0.25
380.143	0.29
380.35	0.28
380.557	0.24
380.763	0.25
380.97	0.27
381.177	0.31
381.384	0.28
381.591	0.27
381.797	0.33
382.004	0.27
382.211	0.31
382.418	0.23
382.624	0.26
382.831	0.34
383.038	0.25
383.244	0.27
383.451	0.27
383.658	0.33
383.864	0.29
384.071	0.22
384.277	0.36
384.484	0.28
384.69	0.34
384.897	0.2
385.103	0.25
385.31	0.27
385.516	0.26
385.723	0.25
385.929	0.27
386.136	0.24
386.342	0.3
386.549	0.22
386.755	0.31
386.961	0.3
387.168	0.24
387.374	0.26
387.58	0.33
387.787	0.31
387.993	0.31
388.199	0.27
388.406	0.24
388.612	0.27
388.818	0.26
389.024	0.22
389.231	0.27
389.437	0.42
389.643	0.32
389.849	0.28
390.055	0.23
390.261	0.3
390.467	0.37
390.674	0.24
390.88	0.3
391.086	0.32
391.292	0.22
391.498	0.33
391.704	0.34
391.91	0.31
392.116	0.25
392.322	0.18
392.528	0.32
392.734	0.28
392.94	0.34
393.146	0.29
393.352	0.33
393.557	0.28
393.763	0.27
393.969	0.34
394.175	0.24
394.381	0.32
394.587	0.22
394.792	0.28
394.998	0.38
395.204	0.36
395.41	0.26
395.615	0.31
395.821	0.34
396.027	0.33
396.233	0.3
396.438	0.36
396.644	0.4
396.85	0.33
397.055	0.3
397.261	0.33
397.466	0.3
397.672	0.31
397.878	0.35
398.083	0.39
398.289	0.28
398.494	0.39
398.7	0.39
398.905	0.21
399.111	0.44
399.316	0.28
399.522	0.37
399.727	0.32
399.932	0.4
400.138	0.33
400.343	0.36
400.549	0.34
400.754	0.34
400.959	0.37
401.165	0.37
401.37	0.36
401.575	0.47
401.78	0.36
401.986	0.4
402.191	0.4
402.396	0.38
402.601	0.42
402.807	0.41
403.012	0.38
403.217	0.41
403.422	0.4
403.627	0.42
403.832	0.35
404.037	0.46
404.243	0.45
404.448	0.37
404.653	0.41
404.858	0.47
405.063	0.46
405.268	0.4
405.473	0.38
405.678	0.45
405.883	0.66
406.088	0.51
406.293	0.39
406.498	0.42
406.703	0.56
406.907	0.46
407.112	0.41
407.317	0.48
407.522	0.59
407.727	0.5
407.932	0.52
408.136	0.69
408.341	0.53
408.546	0.57
408.751	0.59
408.956	0.53
409.16	0.67
409.365	0.61
409.57	0.63
409.774	0.64
409.979	0.69
410.184	0.7
410.388	0.64
410.593	0.77
410.798	0.76
411.002	0.71
411.207	0.83
411.411	0.8
411.616	0.77
411.82	0.79
412.025	0.84
412.229	0.84
412.434	1
412.638	0.89
412.843	0.9
413.047	0.97
413.252	0.93
413.456	1
413.66	1.08
413.865	1.06
414.069	1.14
414.273	1.1
414.478	1.1
414.682	1.18
414.886	1.24
415.091	1.2
415.295	1.24
415.499	1.45
415.703	1.36
415.908	1.45
416.112	1.34
416.316	1.6
416.52	1.58
416.724	1.58
416.929	1.57
417.133	1.89
417.337	1.7
417.541	1.77
417.745	1.85
417.949	1.98
418.153	2.05
418.357	2.06
418.561	2.35
418.765	2.24
418.969	2.4
419.173	2.41
419.377	2.43
419.581	2.66
419.785	2.66
419.989	2.63
420.193	2.8
420.397	2.93
420.601	3.03
420.804	3.23
421.008	3.12
421.212	3.36
421.416	3.28
421.62	3.31
421.823	3.41
422.027	3.53
422.231	3.58
422.435	3.51
422.638	3.59
422.842	3.72
423.046	3.8
423.249	3.97
423.453	3.97
423.657	4.15
423.86	4.23
424.064	4.37
424.268	4.59
424.471	4.57
424.675	4.72
424.878	4.82
425.082	5.02
425.285	5.32
425.489	5.18
425.692	5.33
425.896	5.3
426.099	5.55
426.303	5.65
426.506	5.79
426.71	6.06
426.913	6.27
427.116	6.43
427.32	6.4
427.523	6.49
427.726	6.82
427.93	6.87
428.133	7.2
428.336	7.38
428.54	7.55
428.743	7.76
428.946	7.97
429.149	8.08
429.353	8.09
429.556	8.06
429.759	8.07
429.962	8.23
430.165	8.43
430.368	8.03
430.571	8.15
430.775	8.23
430.978	8.18
431.181	8.2
431.384	8.25
431.587	8.46
431.79	8.76
431.993	8.78
432.196	8.94
432.399	9.4
432.602	9.5
432.805	9.58
433.008	10.14
433.211	10.01
433.414	10.35
433.616	10.46
433.819	10.31
434.022	10.43
434.225	10.77
434.428	10.67
434.631	11.13
434.833	11
435.036	11.14
435.239	11.42
435.442	11.41
435.645	11.63
435.847	11.69
436.05	11.95
436.253	12.25
436.455	12.25
436.658	12.04
436.861	12.41
437.063	12.51
437.266	12.46
437.468	12.94
437.671	13.19
437.874	13.2
438.076	13.07
438.279	13.52
438.481	13.62
438.684	14.34
438.886	13.93
439.089	14.14
439.291	14.29
439.494	14.63
439.696	14.78
439.899	15.3
440.101	15.73
440.303	15.87
440.506	16.67
440.708	16.43
440.91	16.62
441.113	16.67
441.315	17.03
441.517	16.83
441.72	17.3
441.922	16.97
442.124	16.84
442.326	17.31
442.529	17.57
442.731	17.41
442.933	17.84
443.135	17.49
443.337	17.39
443.539	18.18
443.742	17.84
443.944	18.33
444.146	18.01
444.348	18.15
444.55	18.04
444.752	18.25
444.954	18.2
445.156	18.08
445.358	18.5
445.56	18.78
445.762	18.5
445.964	18.8
446.166	18.48
446.368	18.64
446.57	18.6
446.772	18.25
446.974	17.92
447.175	18.3
447.377	18.03
447.579	18.29
447.781	18.08
447.983	17.74
448.184	17.48
448.386	17.68
448.588	17.17
448.79	17.23
448.991	17.48
449.193	17.49
449.395	16.88
449.597	16.48
449.798	16.44
450	16.01
450.202	15.9
450.403	15.78
450.605	15.68
450.806	15.31
451.008	15.23
451.21	14.92
451.411	14.59
451.613	13.72
451.814	13.99
452.016	14.01
452.217	13.22
452.419	13.18
452.62	12.89
452.821	12.63
453.023	12.56
453.224	12.18
453.426	11.75
453.627	10.97
453.828	11.13
454.03	11.3
454.231	11.08
454.432	11.04
454.634	10.66
454.835	10.47
455.036	10.33
455.238	9.9
455.439	9.75
455.64	9.54
455.841	9.3
456.042	9.5
456.244	9.12
456.445	8.87
456.646	8.56
456.847	8.46
457.048	8.43
457.249	8.51
457.45	8.29
457.651	7.72
457.852	7.54
458.054	7.21
458.255	7.12
458.456	7.21
458.657	7.06
458.858	6.69
459.058	6.61
459.259	6.69
459.46	6.37
459.661	6.33
459.862	6.48
460.063	6.33
460.264	6.2
460.465	5.99
460.666	6.03
460.866	5.67
461.067	5.53
461.268	5.58
461.469	5.47
461.67	5.36
461.87	5.22
462.071	5.16
462.272	5.1
462.473	5.14
462.673	5.26
462.874	5.15
463.075	5.03
463.275	5.06
463.476	5.16
463.676	5.01
463.877	4.9
464.078	4.9
464.278	4.92
464.479	4.76
464.679	4.71
464.88	4.66
465.08	4.69
465.281	4.48
465.481	4.23
465.682	4.08
465.882	4.16
466.083	4.03
466.283	3.98
466.483	3.9
466.684	3.64
466.884	3.55
467.085	3.61
467.285	3.76
467.485	3.55
467.686	3.47
467.886	3.42
468.086	3.34
468.286	3.37
468.487	3.44
468.687	3.27
468.887	3.17
469.087	3.36
469.287	3.22
469.488	3.04
469.688	3.14
469.888	3.21
470.088	3.14
470.288	3.04
470.488	3
470.688	2.85
470.888	2.8
471.088	2.58
471.288	2.74
471.488	2.75
471.688	2.79
471.888	2.66
472.088	2.79
472.288	2.7
472.488	2.62
472.688	2.57
472.888	2.58
473.088	2.58
473.288	2.51
473.488	2.4
473.688	2.58
473.887	2.46
474.087	2.4
474.287	2.41
474.487	2.38
474.687	2.45
474.886	2.36
475.086	2.25
475.286	2.33
475.486	2.25
475.685	2.26
475.885	2.2
476.085	2.25
476.284	2.28
476.484	2.29
476.684	2.18
476.883	2.3
477.083	2.18
477.282	2.11
477.482	2.21
477.681	2.15
477.881	2.07
478.08	2.07
478.28	2
478.479	2.08
478.679	2.14
478.878	2.08
479.078	2.01
479.277	2.11
479.477	2.07
479.676	2.06
479.875	1.97
480.075	1.93
480.274	2.01
480.473	2.02
480.673	2.04
480.872	2.13
481.071	2.06
481.271	2.06
481.47	1.99
481.669	1.97
481.868	1.97
482.067	1.95
482.267	1.88
482.466	1.94
482.665	1.95
482.864	1.93
483.063	1.94
483.262	2.01
483.461	2
483.661	2.05
483.86	2
484.059	2.03
484.258	2.07
484.457	2.02
484.656	2.03
484.855	2.11
485.054	1.96
485.253	1.99
485.452	1.96
485.651	2.08
485.849	1.99
486.048	1.97
486.247	2.02
486.446	2.09
486.645	2.04
486.844	2.08
487.043	2.08
487.241	2.09
487.44	2.08
487.639	2.11
487.838	2.11
488.037	2.11
488.235	2.24
488.434	2.17
488.633	2.03
488.831	2.22
489.03	2.2
489.229	2.22
489.427	2.18
489.626	2.3
489.825	2.32
490.023	2.3
490.222	2.27
490.42	2.27
490.619	2.37
490.817	2.38
491.016	2.35
491.214	2.41
491.413	2.41
491.611	2.37
491.81	2.35
492.008	2.45
492.207	2.57
492.405	2.51
492.604	2.49
492.802	2.57
493	2.61
493.199	2.56
493.397	2.63
493.595	2.67
493.794	2.66
493.992	2.76
494.19	2.74
494.388	2.82
494.587	2.72
494.785	2.77
494.983	2.72
495.181	2.88
495.379	2.9
495.578	2.94
495.776	2.94
495.974	2.95
496.172	2.97
496.37	3.09
496.568	3.07
496.766	3.07
496.964	3.2
497.162	3.18
497.36	3.22
497.558	3.24
497.756	3.33
497.954	3.29
498.152	3.37
498.35	3.45
498.548	3.35
498.746	3.38
498.944	3.39
499.142	3.45
499.34	3.53
499.538	3.68
499.736	3.52
499.933	3.67
500.131	3.68
500.329	3.78
500.527	3.78
500.725	3.86
500.922	3.9
501.12	3.88
501.318	3.96
501.516	3.93
501.713	4
501.911	4.02
502.109	3.99
502.306	4.08
502.504	4.03
502.701	4.13
502.899	4.22
503.097	4.35
503.294	4.19
503.492	4.37
503.689	4.34
503.887	4.41
504.084	4.46
504.282	4.46
504.479	4.4
504.677	4.59
504.874	4.58
505.072	4.45
505.269	4.65
505.466	4.73
505.664	4.76
505.861	4.67
506.059	4.71
506.256	4.8
506.453	4.83
506.651	5.06
506.848	5.03
507.045	4.98
507.242	5
507.44	5.03
507.637	5.12
507.834	5.09
508.031	5.2
508.229	5.14
508.426	5.11
508.623	5.31
508.82	5.3
509.017	5.3
509.214	5.22
509.411	5.35
509.608	5.35
509.805	5.52
510.003	5.42
510.2	5.5
510.397	5.68
510.594	5.57
510.791	5.63
510.988	5.65
511.184	5.66
511.381	5.46
511.578	5.7
511.775	5.88
511.972	5.74
512.169	5.82
512.366	5.78
512.563	5.91
512.76	6.04
512.956	6.02
513.153	5.94
513.35	5.88
513.547	5.95
513.744	6.04
513.94	6.02
514.137	6.14
514.334	6.12
514.53	6.14
514.727	6.44
514.924	6.27
515.12	6.26
515.317	6.27
515.514	6.2
515.71	6.21
515.907	6.51
516.103	6.46
516.3	6.36
516.497	6.49
516.693	6.47
516.89	6.55
517.086	6.49
517.283	6.59
517.479	6.48
517.676	6.65
517.872	6.67
518.068	6.64
518.265	6.69
518.461	6.58
518.658	6.7
518.854	6.71
519.05	6.8
519.247	6.8
519.443	6.73
519.639	6.92
519.836	6.79
520.032	6.78
520.228	6.92
520.424	6.96
520.621	6.91
520.817	7.01
521.013	6.88
521.209	7.12
521.405	7.12
521.601	7.05
521.798	7.02
521.994	7.04
522.19	6.98
522.386	7
522.582	7.16
522.778	7.35
522.974	7.18
523.17	7.11
523.366	7.12
523.562	7.2
523.758	7.21
523.954	7.03
524.15	7.24
524.346	7.24
524.542	7.25
524.738	7.24
524.934	7.37
525.129	7.36
525.325	7.26
525.521	7.3
525.717	7.44
525.913	7.36
526.109	7.37
526.304	7.4
526.5	7.41
526.696	7.48
526.892	7.36
527.087	7.61
527.283	7.52
527.479	7.57
527.674	7.37
527.87	7.5
528.066	7.51
528.261	7.57
528.457	7.44
528.653	7.6
528.848	7.59
529.044	7.73
529.239	7.57
529.435	7.62
529.63	7.52
529.826	7.57
530.021	7.6
530.217	7.62
530.412	7.57
530.608	7.63
530.803	7.7
530.999	7.53
531.194	7.65
531.389	7.76
531.585	7.69
531.78	7.84
531.975	7.74
532.171	7.79
532.366	7.72
532.561	7.82
532.757	7.72
532.952	7.89
533.147	7.7
533.342	7.8
533.538	7.7
533.733	7.92
533.928	7.63
534.123	7.84
534.318	7.83
534.513	7.76
534.709	7.9
534.904	7.9
535.099	7.94
535.294	7.96
535.489	7.96
535.684	7.91
535.879	7.87
536.074	8.01
536.269	7.89
536.464	7.95
536.659	7.91
536.854	7.88
537.049	7.96
537.244	7.93
537.439	7.9
537.634	7.94
537.828	7.99
538.023	7.92
538.218	7.96
538.413	7.84
538.608	7.91
538.803	7.94
538.997	7.92
539.192	7.99
539.387	7.91
539.582	7.94
539.776	7.84
539.971	8.05
540.166	8.1
540.36	7.94
540.555	8.1
540.75	8.07
540.944	8.06
541.139	8.07
541.334	7.99
541.528	8.02
541.723	8.1
541.917	8.06
542.112	7.96
542.306	7.93
542.501	7.94
542.695	8.03
542.89	7.9
543.084	7.97
543.279	8.03
543.473	8.11
543.668	8.15
543.862	7.92
544.056	7.94
544.251	8.12
544.445	8.1
544.64	8.15
544.834	7.86
545.028	7.66
545.222	8.05
545.417	8.21
545.611	8.14
545.805	8.07
546	7.88
546.194	8.1
546.388	8.09
546.582	8.06
546.776	8.06
546.97	8.13
547.165	8.09
547.359	8.02
547.553	7.99
547.747	8.05
547.941	8.29
548.135	8.05
548.329	8.12
548.523	8.12
548.717	7.98
548.911	8.05
549.105	8
549.299	8.15
549.493	8.11
549.687	7.97
549.881	8.16
550.075	8.08
550.269	7.99
550.463	8.13
550.657	8.21
550.85	8.11
551.044	8.06
551.238	8.13
551.432	8.11
551.626	8.18
551.82	8.18
552.013	7.98
552.207	8.21
552.401	8.18
552.594	8.1
552.788	8.07
552.982	8.04
553.176	8.05
553.369	8.22
553.563	8.18
553.756	8.13
553.95	8.15
554.144	8.14
554.337	8.13
554.531	7.95
554.724	8.23
554.918	8.23
555.111	8.08
555.305	8.15
555.498	8.09
555.692	8.21
555.885	8.19
556.079	8.08
556.272	8.1
556.466	8.03
556.659	8.12
556.852	8.18
557.046	8.02
557.239	7.99
557.432	8.08
557.626	8.18
557.819	8.25
558.012	8.15
558.206	8.27
558.399	8.12
558.592	8.08
558.785	8.02
558.979	8.14
559.172	8.11
559.365	8.14
559.558	8.04
559.751	8.01
559.944	8.26
560.138	8.16
560.331	8.12
560.524	8.11
560.717	8.07
560.91	8.11
561.103	8.09
561.296	8.01
561.489	8.15
561.682	8.17
561.875	8.16
562.068	8.21
562.261	8.1
562.454	8.32
562.647	8.06
562.84	8.22
563.032	8.21
563.225	8.06
563.418	8.02
563.611	8.16
563.804	8.17
563.997	8
564.19	7.92
564.382	8.19
564.575	8.07
564.768	8.13
564.961	8.16
565.153	8.05
565.346	8.04
565.539	8.17
565.731	8.17
565.924	8.2
566.117	8.25
566.309	8.21
566.502	8.05
566.695	8.05
566.887	8.11
567.08	8.11
567.272	8.12
567.465	8.04
567.657	8.1
567.85	8.02
568.042	8.05
568.235	8.14
568.427	7.98
568.62	8.05
568.812	7.97
569.005	8.17
569.197	7.98
569.389	8.09
569.582	8.06
569.774	8.03
569.966	7.99
570.159	7.94
570.351	7.95
570.543	8.04
570.736	8.05
570.928	7.91
571.12	8.1
571.312	7.92
571.505	7.81
571.697	8.06
571.889	8.04
572.081	8
572.273	8
572.465	7.94
572.658	7.96
572.85	8
573.042	8.05
573.234	7.91
573.426	7.98
573.618	7.94
573.81	7.99
574.002	7.94
574.194	8.03
574.386	7.87
574.578	7.79
574.77	7.9
574.962	7.94
575.154	7.83
575.346	7.89
575.538	7.88
575.729	7.91
575.921	7.93
576.113	7.99
576.305	7.95
576.497	7.96
576.689	7.77
576.88	7.82
577.072	7.92
577.264	7.87
577.456	7.91
577.647	7.88
577.839	8.04
578.031	7.91
578.223	7.83
578.414	7.77
578.606	7.85
578.798	7.94
578.989	7.81
579.181	7.86
579.372	7.76
579.564	7.9
579.755	7.74
579.947	7.77
580.139	7.89
580.33	7.65
580.522	7.81
580.713	7.79
580.905	7.76
581.096	7.84
581.287	7.79
581.479	7.76
581.67	7.83
581.862	7.67
582.053	7.75
582.244	7.55
582.436	7.81
582.627	7.67
582.818	7.69
583.01	7.69
583.201	7.68
583.392	7.63
583.583	7.58
583.775	7.49
583.966	7.57
584.157	7.65
584.348	7.79
584.54	7.56
584.731	7.63
584.922	7.55
585.113	7.44
585.304	7.66
585.495	7.61
585.686	7.62
585.877	7.64
586.068	7.67
586.259	7.66
586.45	7.54
586.641	7.49
586.832	7.57
587.023	7.5
587.214	7.51
587.405	7.54
587.596	7.42
587.787	7.41
587.978	7.5
588.169	7.41
588.36	7.32
588.551	7.46
588.742	7.43
588.932	7.48
589.123	7.27
589.314	7.49
589.505	7.39
589.696	7.36
589.886	7.33
590.077	7.38
590.268	7.29
590.458	7.15
590.649	7.16
590.84	7.4
591.03	7.29
591.221	7.28
591.412	7.14
591.602	7.39
591.793	7.2
591.984	7.29
592.174	7.22
592.365	7.42
592.555	7.04
592.746	7.23
592.936	7.16
593.127	7.19
593.317	7.17
593.508	7.25
593.698	7.15
593.889	7.14
594.079	7.14
594.269	7.08
594.46	7.08
594.65	7.16
594.84	7.05
595.031	6.88
595.221	7.06
595.411	7.07
595.602	7.05
595.792	6.93
595.982	6.91
596.172	7.1
596.363	6.9
596.553	6.97
596.743	6.91
596.933	6.92
597.123	6.92
597.314	6.75
597.504	6.73
597.694	6.93
597.884	6.85
598.074	6.88
598.264	6.81
598.454	6.79
598.644	6.77
598.834	6.76
599.024	6.69
599.214	6.8
599.404	6.88
599.594	6.7
599.784	6.65
599.974	6.74
600.164	6.75
600.354	6.69
600.544	6.55
600.734	6.73
600.924	6.69
601.114	6.52
601.303	6.53
601.493	6.59
601.683	6.64
601.873	6.51
602.063	6.45
602.252	6.54
602.442	6.38
602.632	6.4
602.821	6.4
603.011	6.51
603.201	6.45
603.39	6.41
603.58	6.34
603.77	6.4
603.959	6.51
604.149	6.38
604.339	6.38
604.528	6.43
604.718	6.39
604.907	6.3
605.097	6.26
605.286	6.26
605.476	6.24
605.665	6.26
605.855	6.19
606.044	6.3
606.234	6.28
606.423	6.17
606.612	6.18
606.802	6.11
606.991	6.23
607.181	6.23
607.37	6.17
607.559	5.96
607.749	6.13
607.938	6.02
608.127	6.01
608.316	6.08
608.506	6.05
608.695	6.11
608.884	6
609.073	6.06
609.263	6.1
609.452	6.02
609.641	5.91
609.83	5.85
610.019	5.99
610.208	5.83
610.397	5.89
610.586	5.94
610.775	5.83
610.965	5.85
611.154	5.7
611.343	5.82
611.532	5.73
611.721	5.87
611.91	5.76
612.099	5.74
612.287	5.59
612.476	5.62
612.665	5.71
612.854	5.61
613.043	5.66
613.232	5.62
613.421	5.56
613.61	5.55
613.798	5.62
613.987	5.7
614.176	5.52
614.365	5.54
614.554	5.47
614.742	5.58
614.931	5.33
615.12	5.52
615.309	5.48
615.497	5.42
615.686	5.27
615.875	5.39
616.063	5.3
616.252	5.34
616.44	5.36
616.629	5.3
616.818	5.33
617.006	5.26
617.195	5.21
617.383	5.23
617.572	5.19
617.76	5.16
617.949	5.2
618.137	5.28
618.326	5.23
618.514	5.07
618.703	5.03
618.891	5.18
619.079	5.08
619.268	5.11
619.456	4.98
619.644	5.15
619.833	5.01
620.021	5
620.209	4.87
620.398	5.03
620.586	4.89
620.774	4.99
620.962	5
621.151	5.04
621.339	4.88
621.527	4.85
621.715	4.89
621.903	4.87
622.092	4.78
622.28	4.93
622.468	4.66
622.656	4.78
622.844	4.75
623.032	4.81
623.22	4.67
623.408	4.82
623.596	4.76
623.784	4.84
623.972	4.67
624.16	4.7
624.348	4.76
624.536	4.73
624.724	4.56
624.912	4.64
625.1	4.67
625.288	4.6
625.476	4.44
625.664	4.58
625.851	4.54
626.039	4.53
626.227	4.5
626.415	4.51
626.603	4.38
626.79	4.44
626.978	4.45
627.166	4.52
627.354	4.35
627.541	4.36
627.729	4.2
627.917	4.5
628.104	4.44
628.292	4.26
628.48	4.29
628.667	4.3
628.855	4.42
629.042	4.3
629.23	4.28
629.418	4.25
629.605	4.24
629.793	4.13
629.98	4.18
630.168	4.22
630.355	4.17
630.543	4.14
630.73	4.06
630.917	4.11
631.105	4.2
631.292	4.12
631.48	4.06
631.667	4.22
631.854	4.04
632.042	4.04
632.229	4
632.416	4.04
632.604	4.03
632.791	3.84
632.978	4.04
633.165	4
633.353	4.01
633.54	3.97
633.727	3.81
633.914	3.88
634.101	3.79
634.289	3.95
634.476	3.8
634.663	3.79
634.85	3.84
635.037	3.78
635.224	3.7
635.411	3.82
635.598	3.76
635.785	3.7
635.972	3.72
636.159	3.76
636.346	3.7
636.533	3.67
636.72	3.67
636.907	3.64
637.094	3.67
637.281	3.54
637.468	3.63
637.655	3.64
637.842	3.57
638.029	3.56
638.215	3.53
638.402	3.54
638.589	3.45
638.776	3.49
638.963	3.44
639.149	3.55
639.336	3.55
639.523	3.4
639.709	3.41
639.896	3.38
640.083	3.45
640.27	3.44
640.456	3.35
640.643	3.36
640.829	3.3
641.016	3.28
641.203	3.21
641.389	3.27
641.576	3.27
641.762	3.27
641.949	3.19
642.135	3.23
642.322	3.19
642.508	3.12
642.695	3.21
642.881	3.17
643.068	3.14
643.254	3.17
643.441	3.21
643.627	3.15
643.813	3.04
644	3.15
644.186	3.03
644.372	3.07
644.559	3.1
644.745	3.02
644.931	2.96
645.118	3.06
645.304	3.01
645.49	3
645.676	3.02
645.862	2.98
646.049	3.07
646.235	2.97
646.421	3.09
646.607	3.06
646.793	2.88
646.979	2.85
647.165	2.89
647.352	2.91
647.538	2.9
647.724	2.84
647.91	2.84
648.096	2.87
648.282	2.89
648.468	2.76
648.654	2.83
648.84	2.83
649.026	2.79
649.212	2.68
649.397	2.68
649.583	2.71
649.769	2.76
649.955	2.72
650.141	2.73
650.327	2.71
650.513	2.67
650.698	2.75
650.884	2.54
651.07	2.64
651.256	2.65
651.442	2.6
651.627	2.56
651.813	2.61
651.999	2.59
652.184	2.54
652.37	2.54
652.556	2.56
652.741	2.63
652.927	2.45
653.113	2.48
653.298	2.51
653.484	2.54
653.669	2.41
653.855	2.45
654.04	2.52
654.226	2.46
654.412	2.43
654.597	2.33
654.782	2.43
654.968	2.5
655.153	2.41
655.339	2.33
655.524	2.36
655.71	2.38
655.895	2.32
656.08	2.34
656.266	2.44
656.451	2.34
656.636	2.3
656.822	2.35
657.007	2.3
657.192	2.3
657.378	2.23
657.563	2.22
657.748	2.25
657.933	2.25
658.118	2.14
658.304	2.18
658.489	2.27
658.674	2.19
658.859	2.05
659.044	2.12
659.229	2.16
659.414	2.12
659.599	2.14
659.785	2.09
659.97	2.14
660.155	2.16
660.34	2.14
660.525	2.07
660.71	2.01
660.895	2.1
661.08	2.04
661.264	1.99
661.449	2.16
661.634	2
661.819	2.08
662.004	2.04
662.189	1.97
662.374	1.95
662.559	1.93
662.743	1.94
662.928	1.97
663.113	1.99
663.298	1.92
663.483	1.98
663.667	1.95
663.852	1.89
664.037	1.94
664.221	1.88
664.406	2.01
664.591	1.96
664.775	1.97
664.96	1.85
665.145	1.93
665.329	1.95
665.514	1.86
665.698	1.87
665.883	1.74
666.068	1.93
666.252	1.8
666.437	1.77
666.621	1.81
666.806	1.88
666.99	1.79
667.174	1.75
667.359	1.85
667.543	1.74
667.728	1.8
667.912	1.63
668.096	1.76
668.281	1.7
668.465	1.74
668.649	1.7
668.834	1.67
669.018	1.73
669.202	1.73
669.387	1.66
669.571	1.79
669.755	1.67
669.939	1.66
670.124	1.65
670.308	1.72
670.492	1.7
670.676	1.66
670.86	1.6
671.044	1.55
671.228	1.69
671.413	1.55
671.597	1.53
671.781	1.59
671.965	1.59
672.149	1.59
672.333	1.57
672.517	1.51
672.701	1.6
672.885	1.58
673.069	1.45
673.253	1.62
673.437	1.52
673.621	1.52
673.804	1.52
673.988	1.59
674.172	1.49
674.356	1.47
674.54	1.46
674.724	1.65
674.908	1.52
675.091	1.54
675.275	1.46
675.459	1.56
675.643	1.51
675.826	1.45
676.01	1.43
676.194	1.5
676.377	1.46
676.561	1.48
676.745	1.42
676.928	1.51
677.112	1.48
677.296	1.4
677.479	1.38
677.663	1.36
677.846	1.49
678.03	1.38
678.213	1.29
678.397	1.44
678.58	1.36
678.764	1.33
678.947	1.28
679.131	1.37
679.314	1.41
679.498	1.31
679.681	1.34
679.865	1.45
680.048	1.35
680.231	1.31
680.415	1.28
680.598	1.29
680.781	1.23
680.965	1.27
681.148	1.29
681.331	1.27
681.514	1.31
681.698	1.18
681.881	1.25
682.064	1.28
682.247	1.31
682.43	1.18
682.614	1.25
682.797	1.3
682.98	1.21
683.163	1.11
683.346	1.23
683.529	1.21
683.712	1.13
683.895	1.23
684.078	1.13
684.261	1.15
684.444	1.22
684.627	1.19
684.81	1.09
684.993	1.11
685.176	1.29
685.359	1.13
685.542	1.13
685.725	1.22
685.908	1.17
686.091	1.14
686.274	1.19
686.457	1.21
686.639	1.14
686.822	1.19
687.005	1.13
687.188	1.12
687.371	1.24
687.553	1.22
687.736	1.11
687.919	1.24
688.102	1.24
688.284	1.13
688.467	1.03
688.65	1.09
688.832	1.07
689.015	1.02
689.197	0.98
689.38	1.17
689.563	1.24
689.745	1.01
689.928	1
690.11	1.08
690.293	1.09
690.475	0.97
690.658	1.04
690.84	1.03
691.023	1.02
691.205	0.94
691.388	1.01
691.57	1.1
691.752	1.04
691.935	0.88
692.117	0.93
692.3	1.02
692.482	0.97
692.664	0.89
692.847	0.88
693.029	1.02
693.211	0.99
693.393	0.86
693.576	0.92
693.758	0.98
693.94	0.9
694.122	0.9
694.304	0.9
694.487	0.83
694.669	1.01
694.851	0.87
695.033	0.94
695.215	0.92
695.397	0.9
695.579	0.88
695.761	0.86
695.943	0.84
696.125	1.03
696.308	1
696.49	0.79
696.671	1.04
696.853	0.88
697.035	1.13
697.217	0.9
697.399	0.96
697.581	0.84
697.763	0.85
697.945	0.81
698.127	0.89
698.309	0.96
698.491	0.89
698.672	0.9
698.854	0.91
699.036	0.95
699.218	0.88
699.399	0.88
699.581	0.95
699.763	0.88
699.945	0.78
700.126	0.77
700.308	0.85
700.49	0.82
700.671	0.71
700.853	0.76
701.035	0.75
701.216	0.81
701.398	0.73
701.579	0.8
701.761	0.79
701.943	0.82
702.124	0.77
702.306	0.79
702.487	0.99
702.669	0.77
702.85	0.74
703.031	0.71
703.213	0.95
703.394	0.84
703.576	0.71
703.757	0.93
703.938	0.91
704.12	0.99
704.301	0.76
704.483	0.68
704.664	0.8
704.845	0.95
705.026	0.87
705.208	0.7
705.389	0.8
705.57	0.81
705.751	0.8
705.933	0.72
706.114	0.82
706.295	0.79
706.476	0.58
706.657	0.83
706.838	0.82
707.02	0.82
707.201	0.68
707.382	0.68
707.563	0.86
707.744	0.66
707.925	0.68
708.106	0.62
708.287	0.7
708.468	0.79
708.649	0.71
708.83	0.78
709.011	0.69
709.192	0.81
709.373	0.58
709.554	0.63
709.734	0.76
709.915	0.73
710.096	0.72
710.277	0.53
710.458	0.72
710.639	0.77
710.819	0.51
711	0.64
711.181	0.68
711.362	0.76
711.542	0.73
711.723	0.64
711.904	0.8
712.085	0.72
712.265	0.67
712.446	0.51
712.627	0.63
712.807	0.71
712.988	0.71
713.168	0.52
713.349	0.66
713.53	0.49
713.71	0.51
713.891	0.49
714.071	0.61
714.252	0.58
714.432	0.58
714.613	0.49
714.793	0.66
714.974	0.68
715.154	0.75
715.334	0.62
715.515	0.84
715.695	0.56
715.876	0.58
716.056	0.6
716.236	0.48
716.417	0.51
716.597	0.5
716.777	0.82
716.957	0.56
717.138	0.6
717.318	0.6
717.498	0.44
717.678	0.6
717.859	0.65
718.039	0.5
718.219	0.58
718.399	0.65
718.579	0.51
718.759	0.42
718.939	0.52
719.12	0.65
719.3	0.61
719.48	0.42
719.66	0.45
719.84	0.71
720.02	0.55
720.2	0.5
720.38	0.45
720.56	0.82
720.74	0.46
720.92	0.56
721.1	0.62
721.279	0.69
721.459	0.54
721.639	0.41
721.819	0.54
721.999	0.46
722.179	0.61
722.359	0.42
722.538	0.52
722.718	0.57
722.898	0.57
723.078	0.5
723.257	0.54
723.437	0.67
723.617	0.55
723.797	0.44
723.976	0.54
724.156	0.65
724.336	0.68
724.515	0.67
724.695	0.4
724.874	0.52
725.054	0.56
725.234	0.44
725.413	0.49
725.593	0.56
725.772	0.53
725.952	0.46
726.131	0.48
726.311	0.5
726.49	0.57
726.67	0.48
726.849	0.46
727.028	0.65
727.208	0.53
727.387	0.54
727.567	0.37
727.746	0.47
727.925	0.55
728.105	0.44
728.284	0.43
728.463	0.49
728.643	0.5
728.822	0.32
729.001	0.41
729.18	0.54
729.359	0.55
729.539	0.54
729.718	0.48
729.897	0.62
730.076	0.44
730.255	0.42
730.434	0.48
730.614	0.49
730.793	0.68
730.972	0.42
731.151	0.55
731.33	0.58
731.509	0.63
731.688	0.39
731.867	0.5
732.046	0.34
732.225	0.67
732.404	0.36
732.583	0.35
732.762	0.53
732.941	0.61
733.12	0.56
733.298	0.55
733.477	0.54
733.656	0.54
733.835	0.43
734.014	0.62
734.193	0.46
734.371	0.56
734.55	0.59
734.729	0.44
734.908	0.53
735.086	0.57
735.265	0.65
735.444	0.38
735.623	0.36
735.801	0.42
735.98	0.51
736.159	0.53
736.337	0.51
736.516	0.59
736.694	0.63
736.873	0.41
737.052	0.77
737.23	0.67
737.409	0.46
737.587	0.78
737.766	0.31
737.944	0.45
738.123	0.58
738.301	0.55
738.479	0.5
738.658	0.55
738.836	0.25
739.015	0.52
739.193	0.61
739.371	0.35
739.55	0.42
739.728	0.35
739.906	0.51
740.085	0.68
740.263	0.52
740.441	0.36
740.62	0.6
740.798	0.62
740.976	0.38
741.154	0.34
741.332	0.67
741.511	0.42
741.689	0.62
741.867	0.6
742.045	0.51
742.223	0.34
742.401	0.46
742.579	0.4
742.757	0.52
742.935	0.3
743.114	0.51
743.292	0.38
743.47	0.55
743.648	0.58
743.826	0.45
744.004	0.49
744.181	0.57
744.359	0.37
744.537	0.61
744.715	0.43
744.893	0.51
745.071	0.41
745.249	0.44
745.427	0.36
745.605	0.47
745.782	0.46
745.96	0.5
746.138	0.49
746.316	0.51
746.493	0.41
746.671	0.41
746.849	0.32
747.027	0.59
747.204	0.35
747.382	0.48
747.56	0.19
747.737	0.49
747.915	0.18
748.093	0.45
748.27	0.33
748.448	0.38
748.625	0.27
748.803	0.33
748.98	0.29
749.158	0.46
749.335	0.43
749.513	0.36
749.69	0.35
749.868	0.39
750.045	0.4
750.223	0.4
750.4	0.19
750.578	0.63
750.755	0.44
750.932	0.22
751.11	0.52
751.287	0.34
751.464	0.44
751.642	0.32
751.819	0.46
751.996	0.5
752.173	0.34
752.351	0.25
752.528	0.39
752.705	0.36
752.882	0.36
753.06	0.47
753.237	0.37
753.414	0.61
753.591	0.7
753.768	0.42
753.945	0.41
754.122	0.37
754.299	0.54
754.476	0.29
754.654	0.42
754.831	0.59
755.008	0.41
755.185	0.3
755.362	0.31
755.539	0.38
755.716	0.43
755.892	0.27
756.069	0.36
756.246	0.38
756.423	0.36
756.6	0.52
756.777	0.26
756.954	0.54
757.131	0.34
757.307	0.36
757.484	0.16
757.661	0.42
757.838	0.38
758.015	0.26
758.191	0.52
758.368	0.59
758.545	0.54
758.721	0.45
758.898	0.28
759.075	0.48
759.251	0.47
759.428	0.37
759.605	0.17
759.781	0.32
759.958	0.46
760.134	0.43
760.311	0.26
760.488	0.69
760.664	0.61
760.841	0.36
761.017	0.22
761.194	0.55
761.37	0.53
761.547	0.38
761.723	0.33
761.899	0.47
762.076	0.19
762.252	0.27
762.429	0.36
762.605	0.44
762.781	0.41
762.958	0.36
763.134	0.24
763.31	0.38
763.486	0.52
763.663	0.05
763.839	0.47
764.015	0.33
764.191	0.35
764.368	0.38
764.544	0.26
764.72	0.43
764.896	0.48
765.072	0.48
765.248	0.24
765.425	0.34
765.601	0.41
765.777	0.45
765.953	0.1
766.129	0.3
766.305	0.28
766.481	0.45
766.657	0.44
766.833	0.58
767.009	0.3
767.185	0.36
767.361	0.28
767.537	0.28
767.713	0.62
767.889	0.23
768.065	0.32
768.24	0.26
768.416	0.57
768.592	0.2
768.768	0.3
768.944	0.5
769.12	0.22
769.295	0.39
769.471	0.31
769.647	0.34
769.823	0.58
769.998	0.22
770.174	0.23
770.35	0.86
770.525	0.69
770.701	0.32
770.877	0.35
771.052	0.2
771.228	0.5
771.403	0.45
771.579	0.42
771.755	0.99
771.93	0.33
772.106	0.15
772.281	0.11
772.457	0.44
772.632	0.48
772.808	0.1
772.983	0.3
773.159	0.05
773.334	0.55
773.509	0.48
773.685	0.15
773.86	0.8
774.036	0.68
774.211	0.26
774.386	0.3
774.562	0.48
774.737	0.38
774.912	0.31
775.087	0.3
775.263	0.43
775.438	0.43
775.613	0.27
775.788	0.12
775.964	0.51
776.139	1.08
776.314	0.08
776.489	0.41
776.664	0.35
776.839	0.37
777.014	0.58
777.19	0.58
777.365	0.81
777.54	0.75
777.715	0.3
777.89	0.35
778.065	0.38
778.24	0.28
778.415	0.62
778.59	0.32
778.765	0.4
778.94	0.45
779.115	0.2
779.289	0.31
779.464	0.23
779.639	0.3
779.814	0.17
779.989	0.16
780.164	0.55
780.339	0.34
780.513	0.27
780.688	0.28
780.863	0.6
781.038	0.54
781.212	0.26
781.387	0.45
781.562	0.62
781.737	0.38
781.911	0.62
782.086	0.33
782.261	0.32
782.435	0.76
782.61	0.21
782.784	0.44
782.959	0.67
783.134	0.35
783.308	0.07
783.483	0.2
783.657	0.93
783.832	0.63
784.006	-0.02
784.181	0.34
784.355	0.63
784.53	0.22
784.704	0.03
784.878	0.61
785.053	0.49
785.227	0.8
785.402	0.72
785.576	0.11
785.75	0.56
785.925	0.46
786.099	0.49
786.273	0.3
786.448	0.77
786.622	0.61
786.796	0.29
786.97	0.46
787.145	0.96
787.319	0.14
787.493	0.14
787.667	0.04
787.841	0.4
788.015	0.89
788.19	0.23
788.364	0.21
788.538	0.43
788.712	0.65
788.886	0.24
789.06	0.54
789.234	0.8
789.408	0.17
789.582	0.19
789.756	0.32
789.93	0.27
790.104	0.36
790.278	0.38
790.452	0.18
790.626	0.46
790.8	0.29
790.973	0.52
791.147	0.99
791.321	0.97
791.495	0.85
791.669	0.35
791.843	0.56
792.016	0.35
792.19	1.18
792.364	0.33
792.538	1.09
792.711	0.6
792.885	0.17
793.059	0.09
793.233	-0.16
793.406	0.86
793.58	0.48
793.754	0.7
793.927	0.25
794.101	0.93
794.274	0.35
794.448	0.61
794.622	-0
794.795	0.9
794.969	0.32
795.142	0.89
795.316	0.15
795.489	0.36
795.663	0.91
795.836	0.51
796.009	0.03
796.183	0.91
796.356	0.62
796.53	0.68
796.703	0.45
796.876	0.98
797.05	0.22
797.223	0.39
797.396	0.66
797.57	0.3
797.743	1.03
797.916	0.33
798.09	0.53
798.263	1.16
798.436	0.65
798.609	0.23
798.782	0.55
798.956	0.58
799.129	0.68
799.302	0.39
799.475	0.16
799.648	0.47
799.821	0.19
799.994	0.44
800.167	-0.09
800.34	0.51
800.514	0.63
800.687	0.49
800.86	0.17
801.033	0.7
801.206	0.66
801.379	-0.15
801.551	1.06
801.724	0.67
801.897	1.11
802.07	0.42
802.243	-0.1
802.416	0.82
802.589	0.36
802.762	0.73
802.935	0.39
803.107	0.93
803.28	0.85
803.453	0.71
803.626	0.57
803.798	0.56
803.971	0.64
804.144	0.31
804.317	0.82
804.489	1.24
804.662	0.84
804.835	0.4
805.007	0.2
805.18	1.11
805.353	0.49
805.525	0.02
805.698	0.38
805.87	0.94
806.043	0.94
806.215	0.15
806.388	0.18
806.56	0.88
806.733	0.95
806.905	0.46
807.078	0.32
807.25	0.45
807.423	0.76
807.595	0.41
807.768	0.52
807.94	0.98
808.112	1.31
808.285	0.34
808.457	0.53
808.629	0.57
808.802	0.74
808.974	0.64
809.146	0.31
809.318	0.19
809.491	0.56
809.663	1.09
809.835	0.06
810.007	0.81
810.18	0.56
810.352	-0.29
810.524	0.39
810.696	1.23
810.868	1.14
811.04	0.47
811.212	0.3
811.384	0.95
811.556	0.82
811.728	0.19
811.901	1.84
812.073	0.73
812.245	0.65
812.417	0.64
812.589	-0.05
812.76	0.94
812.932	1.11
813.104	0.92
813.276	0.45
813.448	1.33
813.62	0.81
813.792	0.46
813.964	0.49
814.136	0.79
814.307	0.95
814.479	0.32
814.651	-0.05
814.823	1.82
814.995	0.72
815.166	0.9
815.338	0.74
815.51	-0.03
815.681	1.95
815.853	0.63
816.025	0.66
816.196	1.72
816.368	1.48
816.54	-0.05
816.711	0.47
816.883	1.12
817.054	1.85
817.226	0.26
817.398	0.65
817.569	0.63
817.741	0.73
817.912	0.32
818.084	0.47
818.255	1.42
818.426	0.66
818.598	0.24
818.769	0.15
818.941	0.94
819.112	1.55
819.283	0.65
819.455	0.5
819.626	0.63
819.798	1
819.969	1.06
820.14	0.48
820.311	0.8
820.483	0.99
820.654	1.06
820.825	0.8
820.996	0.74
821.168	0.11
821.339	0.59
821.51	-0.15
821.681	0.17
821.852	0.8
822.023	-0.04
822.195	-0.1
822.366	1.4
822.537	0.96
822.708	0.71
822.879	0.26
823.05	1.3
823.221	0.2
823.392	0.78
823.563	0.58
823.734	0.83
823.905	0.48
824.076	0.52
824.247	0.42
824.418	0.44
824.589	1.97
824.759	0.47
824.93	0.67
825.101	0.29
825.272	1.63
825.443	1.84
825.614	1.07
825.784	0.02
825.955	2.09
826.126	1.26
826.297	1.06
826.467	1.58
826.638	2.42
826.809	-0.01
826.98	0.85
827.15	1.3
827.321	0.75
827.492	0.8
827.662	0.7
827.833	2.6
828.003	1.38
828.174	-0.14
828.345	-0.2
828.515	2.32
828.686	0.85
828.856	0.32
829.027	0.64
829.197	1.4
829.368	1.58
829.538	0.71
829.709	0.37
829.879	1.44
830.049	0.68
830.22	0.55
830.39	0.83
830.56	1
830.731	0.91
830.901	0.3
831.072	0.16
831.242	1.35
831.412	1.23
831.582	0.97
831.753	0.39
831.923	1.3
832.093	1.8
832.263	0.79
832.434	0.27
832.604	0.95
832.774	1.68
832.944	0.51
833.114	0.6
833.284	0.95
833.454	0.37
833.624	0.53
833.795	0.95
833.965	1.31
834.135	1.91
834.305	-0.24
834.475	-0.36
834.645	1.41
834.815	1.2
834.985	0.01
835.155	-0.18
835.325	1.82
835.494	1.03
835.664	0.69
835.834	-0.14
836.004	0.93
836.174	1.41
836.344	0.6
836.514	0.03
836.684	0.63
836.853	0.82
837.023	1.07
837.193	0.19
837.363	1.9
837.532	1.89
837.702	-0.11
837.872	0.83
838.041	1.44
838.211	2.84
838.381	-0.2
838.55	0.9
838.72	3.94
838.89	2.54
839.059	0.09
839.229	0.18
839.398	3.74
839.568	1.27
839.738	0.77
839.907	2.65
840.077	1.21
840.246	1.12
840.416	0.72
840.585	-0.04
840.755	2.78
840.924	2.16
841.093	0.39
841.263	0.43
841.432	0.84
841.602	0.38
841.771	0.15
841.94	0.83
842.11	3.63
842.279	2.7
842.448	0.29
842.617	0.13
842.787	2.79
842.956	0.18
843.125	0.47
843.294	1.17
843.464	3.05
843.633	2.01
843.802	0.49
843.971	0.6
844.14	1.69
844.309	2.38
844.479	-0.63
844.648	-0.38
844.817	0.53
844.986	0.79
845.155	0.73
845.324	1.13
845.493	1.22
845.662	1.21
845.831	1.85
846	1.92
846.169	1.22
846.338	2.54
846.507	1.09
846.676	1.08
846.844	1.23
847.013	1.86
847.182	1.43
847.351	0.99
847.52	1.08
847.689	1.39
847.858	0.56
848.026	0.94
848.195	1.92
848.364	0.6
848.533	-0.49
848.701	0.55
848.87	1.44
849.039	2.87
849.207	1.53
849.376	2.01
849.545	3.42
849.713	-0.58
849.882	0.29
850.051	0.52
850.219	1.27
850.388	1.63
850.556	0.73
850.725	0.67
850.893	0.88
851.062	0.76
851.23	1.51
851.399	0.22
851.567	1.78
851.736	1.51
851.904	0.22
852.073	1.3
852.241	2.98
852.41	2.02
852.578	0.49
852.746	0.5
852.915	2.59
853.083	1.68
853.251	-0.54
853.42	0.98
853.588	1.25
853.756	3.26
853.924	0.76
854.093	1.44
854.261	0.94
854.429	-0.2
854.597	1.3
854.765	0.49
854.934	2.01
855.102	1.78
855.27	0.1
855.438	2.28
855.606	2.72
855.774	3.85
855.942	-0.87
856.11	-0.1
856.278	2.67
856.446	2.15
856.614	1.03
856.782	-0.2
856.95	1.6
857.118	1.14
857.286	1.8
857.454	0.85
857.622	3.35
857.79	2.54
857.958	-0.34
858.126	0.19
858.294	-2.56
858.462	1.02
858.629	0.15
858.797	0.78
858.965	2.7
859.133	1.61
859.301	0.94
859.468	1.49
859.636	1.39
859.804	4.47
859.971	2.07
860.139	0.16
860.307	2.6
860.474	2.21
860.642	0.39
860.81	0.62
860.977	1.6
861.145	3.43
861.313	1.02
861.48	1.02
861.648	2.84
861.815	1.85
861.983	-0.74
862.15	-0.23
862.318	1.14
862.485	3.53
862.653	-0.35
862.82	-0.57
862.988	3.53
863.155	2.23
863.322	0.78
863.49	0.45
863.657	1.13
863.824	4.04
863.992	1.85
864.159	0.99
864.326	4.04
864.494	0.08
864.661	5.75
864.828	-1.65
864.996	3.37
865.163	3.95
865.33	0.45
865.497	-2.2
865.664	0.87
865.832	0.38
865.999	0.89
866.166	0.13
866.333	1.04
866.5	0.13
866.667	1.24
866.834	2.05
867.001	4.38
867.168	-0.75
867.335	1.88
867.502	0.13
867.669	1.27
867.836	6.02
868.003	0.87
868.17	3.58
868.337	1.18
868.504	6.89
868.671	-0.7
868.838	1.82
869.005	3.43
869.172	3.08
869.339	2.19
869.505	1.56
869.672	1.74
869.839	5.05
870.006	1.34
870.173	1.97
870.339	5.44
870.506	6.63
870.673	-1.8
870.84	4.13
871.006	2.49
871.173	2.83
871.34	1.64
871.506	0.96
871.673	1.54
871.839	-0.13
872.006	2.06
872.173	0.92
872.339	2.94
872.506	4.02
872.672	3.04
872.839	-1.95
873.005	2.3
873.172	4.4
873.338	4.39
873.505	0.5
873.671	4.9
873.838	3.76
874.004	-1.21
874.171	0.2
874.337	3.01
874.503	4.29
874.67	2.2
874.836	1.53
875.002	5.39
875.169	3.92
875.335	1.01
875.501	1.79
875.668	3.82
875.834	0.32
876	1.19
876.166	2.57
876.332	3.41
876.499	8.15
876.665	1.05
876.831	1.09
876.997	6.28
877.163	2.37
877.329	2.41
877.495	1.54
877.662	2.86
877.828	2.38
877.994	1.05
878.16	-2
878.326	0.79
878.492	3.37
878.658	-0.09
878.824	2.21
878.99	3.16
879.156	1.43
879.322	5.19
879.487	0.62
879.653	2.5
879.819	3.46
879.985	0.72
880.151	1.94
880.317	2.41
880.483	2.67
880.648	3.77
880.814	-0.45
880.98	2.19
881.146	-2.29
881.312	-0.94
881.477	-0.43
881.643	3.98
881.809	2.13
881.974	4.44
882.14	-0.87
882.306	1.5
882.471	6.53
882.637	-1.19
882.803	2.04
882.968	5.91
883.134	8.19
883.299	1.12
883.465	2.18
883.63	5.35
883.796	3.37
883.961	4.59
884.127	3.07
884.292	-4.14
884.458	-0.37
884.623	-0.37
