Data from Apollo_Calib_20240827__AbsoluteIrradiance__805__12-34-02-927.txt Node

Date: Wed Aug 28 12:34:02 BST 2024
User: biology
Spectrometer: FLMT08252
Trigger mode: 0
Integration Time (sec): 5.000000E-1
Scans to average: 5
Electric dark correction enabled: true
Nonlinearity correction enabled: false
Boxcar width: 0
XAxis mode: Wavelengths
Number of Pixels in Spectrum: 3648
>>>>>Begin Spectral Data<<<<<
179.588	-0
179.809	-0
180.03	-0
180.251	-0
180.473	-0
180.694	0
180.915	0
181.136	-0
181.357	0
181.578	-0
181.799	-0
182.02	-0
182.241	-0
182.462	-0
182.683	0
182.904	-0
183.125	-0
183.346	0
183.567	0
183.788	0
184.009	0
184.23	0
184.451	0
184.672	0
184.892	0
185.113	0
185.334	0
185.555	0
185.776	0
185.996	0
186.217	0
186.438	0
186.659	0
186.879	0
187.1	0
187.321	0
187.541	0
187.762	0
187.983	0
188.203	0
188.424	0
188.644	0
188.865	0
189.086	0
189.306	0
189.527	0
189.747	0
189.968	0
190.188	0
190.409	0
190.629	0
190.849	0
191.07	0
191.29	0
191.511	0
191.731	0
191.951	0
192.172	0
192.392	0
192.612	0
192.833	0
193.053	0
193.273	0
193.493	0
193.714	0
193.934	0
194.154	0
194.374	0
194.594	0
194.815	0
195.035	0
195.255	0
195.475	0
195.695	0
195.915	0
196.135	0
196.355	0
196.575	0
196.795	0
197.015	0
197.235	0
197.455	0
197.675	0
197.895	0
198.115	0
198.335	0
198.555	0
198.775	0
198.995	0
199.214	0
199.434	0
199.654	0
199.874	0
200.094	4.22
200.313	2.49
200.533	1.8
200.753	1.62
200.973	3.83
201.192	3.2
201.412	1.94
201.632	1.61
201.851	3.96
202.071	1.53
202.291	1.67
202.51	0.94
202.73	2.9
202.95	1.83
203.169	1.5
203.389	1.52
203.608	2.34
203.828	1.47
204.047	1.49
204.267	2.48
204.486	2.15
204.706	2.34
204.925	1.32
205.145	1.61
205.364	2.18
205.583	2.78
205.803	1.27
206.022	1.13
206.242	1.83
206.461	1.83
206.68	1.22
206.9	1.75
207.119	2.46
207.338	1.93
207.557	0.9
207.777	1.15
207.996	1.5
208.215	1.98
208.434	0.92
208.654	1.14
208.873	1.45
209.092	2.52
209.311	1.24
209.53	1.1
209.749	1.21
209.968	1.11
210.187	0.89
210.407	0.65
210.626	0.92
210.845	1.59
211.064	1.09
211.283	0.65
211.502	1.41
211.721	1.23
211.94	0.93
212.159	1.4
212.377	1.49
212.596	1.59
212.815	1.07
213.034	1.04
213.253	1.63
213.472	1.37
213.691	0.96
213.91	0.85
214.128	0.84
214.347	1.53
214.566	0.6
214.785	0.45
215.003	1.16
215.222	1.16
215.441	0.9
215.66	0.64
215.878	0.86
216.097	1.17
216.316	0.59
216.534	0.8
216.753	1.1
216.972	0.93
217.19	1.01
217.409	0.57
217.627	0.87
217.846	0.76
218.064	1.03
218.283	0.77
218.501	1.42
218.72	1.26
218.938	0.61
219.157	0.8
219.375	0.85
219.594	1.09
219.812	0.66
220.031	0.49
220.249	1.23
220.467	1.25
220.686	0.57
220.904	0.64
221.122	0.73
221.341	1.27
221.559	0.79
221.777	0.46
221.995	0.81
222.214	1
222.432	0.6
222.65	0.83
222.868	0.65
223.086	0.86
223.305	0.97
223.523	0.61
223.741	1.11
223.959	0.69
224.177	0.43
224.395	0.43
224.613	0.87
224.831	1.06
225.049	0.4
225.267	0.49
225.485	0.67
225.703	0.56
225.921	0.57
226.139	0.55
226.357	0.82
226.575	0.74
226.793	0.46
227.011	1.6
227.229	0.78
227.447	0.93
227.665	0.52
227.883	0.33
228.1	0.59
228.318	0.73
228.536	0.23
228.754	0.49
228.972	0.75
229.189	0.86
229.407	0.65
229.625	0.57
229.843	0.89
230.06	0.77
230.278	0.49
230.496	0.57
230.713	0.7
230.931	0.91
231.149	0.49
231.366	0.35
231.584	0.54
231.801	1.03
232.019	0.41
232.236	0.39
232.454	0.41
232.671	0.71
232.889	0.43
233.106	0.45
233.324	0.57
233.541	0.64
233.759	0.64
233.976	0.44
234.194	0.6
234.411	0.65
234.628	0.38
234.846	0.38
235.063	0.53
235.28	0.59
235.498	0.51
235.715	0.29
235.932	0.82
236.149	0.52
236.367	0.34
236.584	0.54
236.801	0.61
237.018	0.7
237.236	0.4
237.453	0.39
237.67	0.7
237.887	0.48
238.104	0.5
238.321	0.28
238.538	0.42
238.755	0.71
238.973	0.35
239.19	0.47
239.407	0.55
239.624	0.58
239.841	0.28
240.058	0.27
240.275	0.59
240.492	0.56
240.709	0.52
240.925	0.37
241.142	0.46
241.359	0.28
241.576	0.34
241.793	0.4
242.01	0.55
242.227	0.65
242.444	0.53
242.66	0.54
242.877	0.56
243.094	0.42
243.311	0.5
243.527	0.48
243.744	0.49
243.961	0.46
244.178	0.36
244.394	0.38
244.611	0.67
244.828	0.65
245.044	0.31
245.261	0.36
245.477	0.55
245.694	0.65
245.911	0.39
246.127	0.45
246.344	0.67
246.56	0.48
246.777	0.36
246.993	0.43
247.21	0.48
247.426	0.61
247.643	0.3
247.859	0.34
248.076	0.36
248.292	0.7
248.508	0.32
248.725	0.45
248.941	0.34
249.157	0.54
249.374	0.24
249.59	0.37
249.806	0.41
250.023	0.47
250.239	0.33
250.455	0.32
250.671	0.4
250.888	0.48
251.104	0.48
251.32	0.3
251.536	0.39
251.752	0.46
251.969	0.42
252.185	0.38
252.401	0.61
252.617	0.33
252.833	0.36
253.049	0.36
253.265	0.45
253.481	0.37
253.697	0.38
253.913	0.34
254.129	0.44
254.345	0.49
254.561	0.37
254.777	0.34
254.993	0.45
255.209	0.4
255.425	0.39
255.641	0.38
255.857	0.5
256.073	0.45
256.288	0.25
256.504	0.24
256.72	0.44
256.936	0.62
257.152	0.35
257.367	0.29
257.583	0.44
257.799	0.51
258.015	0.31
258.23	0.29
258.446	0.65
258.662	0.42
258.877	0.29
259.093	0.26
259.309	0.4
259.524	0.47
259.74	0.31
259.955	0.18
260.171	0.4
260.387	0.36
260.602	0.48
260.818	0.45
261.033	0.28
261.249	0.42
261.464	0.29
261.68	0.24
261.895	0.42
262.11	0.47
262.326	0.34
262.541	0.24
262.757	0.49
262.972	0.47
263.187	0.46
263.403	0.39
263.618	0.53
263.833	0.36
264.049	0.26
264.264	0.3
264.479	0.46
264.694	0.6
264.91	0.29
265.125	0.32
265.34	0.42
265.555	0.61
265.77	0.42
265.986	0.26
266.201	0.38
266.416	0.39
266.631	0.24
266.846	0.28
267.061	0.38
267.276	0.46
267.491	0.25
267.706	0.41
267.921	0.39
268.136	0.43
268.351	0.36
268.566	0.24
268.781	0.46
268.996	0.44
269.211	0.34
269.426	0.28
269.641	0.35
269.856	0.45
270.071	0.24
270.285	0.19
270.5	0.44
270.715	0.44
270.93	0.29
271.145	0.39
271.359	0.43
271.574	0.3
271.789	0.33
272.004	0.29
272.218	0.24
272.433	0.43
272.648	0.23
272.862	0.38
273.077	0.35
273.292	0.35
273.506	0.27
273.721	0.32
273.936	0.35
274.15	0.46
274.365	0.27
274.579	0.35
274.794	0.41
275.008	0.47
275.223	0.18
275.437	0.33
275.652	0.44
275.866	0.39
276.081	0.28
276.295	0.39
276.509	0.38
276.724	0.36
276.938	0.34
277.153	0.34
277.367	0.38
277.581	0.35
277.796	0.27
278.01	0.18
278.224	0.45
278.438	0.46
278.653	0.26
278.867	0.24
279.081	0.2
279.295	0.35
279.51	0.33
279.724	0.21
279.938	0.39
280.152	0.38
280.366	0.29
280.58	0.34
280.794	0.43
281.008	0.36
281.222	0.35
281.437	0.42
281.651	0.36
281.865	0.4
282.079	0.31
282.293	0.21
282.507	0.24
282.721	0.34
282.935	0.32
283.148	0.19
283.362	0.36
283.576	0.24
283.79	0.34
284.004	0.21
284.218	0.44
284.432	0.32
284.646	0.27
284.859	0.28
285.073	0.25
285.287	0.27
285.501	0.24
285.714	0.29
285.928	0.37
286.142	0.31
286.356	0.19
286.569	0.28
286.783	0.4
286.997	0.39
287.21	0.25
287.424	0.27
287.637	0.26
287.851	0.26
288.065	0.36
288.278	0.28
288.492	0.31
288.705	0.26
288.919	0.33
289.132	0.19
289.346	0.29
289.559	0.2
289.773	0.25
289.986	0.29
290.2	0.28
290.413	0.4
290.626	0.22
290.84	0.23
291.053	0.26
291.267	0.38
291.48	0.28
291.693	0.27
291.906	0.26
292.12	0.34
292.333	0.25
292.546	0.23
292.76	0.39
292.973	0.36
293.186	0.34
293.399	0.26
293.612	0.34
293.826	0.3
294.039	0.28
294.252	0.28
294.465	0.37
294.678	0.33
294.891	0.28
295.104	0.21
295.317	0.26
295.53	0.28
295.743	0.28
295.956	0.24
296.169	0.37
296.382	0.34
296.595	0.26
296.808	0.17
297.021	0.38
297.234	0.35
297.447	0.25
297.66	0.27
297.873	0.35
298.086	0.34
298.299	0.22
298.511	0.17
298.724	0.23
298.937	0.21
299.15	0.23
299.363	0.25
299.575	0.29
299.788	0.25
300.001	0.24
300.213	0.18
300.426	0.28
300.639	0.22
300.852	0.22
301.064	0.28
301.277	0.32
301.489	0.33
301.702	0.32
301.915	0.25
302.127	0.27
302.34	0.25
302.552	0.32
302.765	0.2
302.977	0.34
303.19	0.27
303.402	0.21
303.615	0.21
303.827	0.24
304.04	0.24
304.252	0.29
304.464	0.21
304.677	0.43
304.889	0.31
305.102	0.2
305.314	0.23
305.526	0.28
305.739	0.31
305.951	0.19
306.163	0.24
306.375	0.34
306.588	0.27
306.8	0.24
307.012	0.18
307.224	0.28
307.436	0.35
307.649	0.17
307.861	0.28
308.073	0.31
308.285	0.25
308.497	0.16
308.709	0.23
308.921	0.28
309.133	0.31
309.346	0.24
309.558	0.17
309.77	0.34
309.982	0.32
310.194	0.26
310.406	0.22
310.617	0.4
310.829	0.25
311.041	0.29
311.253	0.15
311.465	0.24
311.677	0.26
311.889	0.22
312.101	0.21
312.313	0.33
312.524	0.36
312.736	0.22
312.948	0.22
313.16	0.38
313.372	0.3
313.583	0.25
313.795	0.24
314.007	0.23
314.218	0.32
314.43	0.24
314.642	0.23
314.853	0.19
315.065	0.32
315.277	0.23
315.488	0.25
315.7	0.31
315.912	0.29
316.123	0.22
316.335	0.24
316.546	0.38
316.758	0.24
316.969	0.22
317.181	0.28
317.392	0.24
317.604	0.33
317.815	0.22
318.026	0.21
318.238	0.27
318.449	0.28
318.661	0.19
318.872	0.18
319.083	0.22
319.295	0.28
319.506	0.24
319.717	0.24
319.929	0.3
320.14	0.29
320.351	0.27
320.562	0.2
320.774	0.25
320.985	0.28
321.196	0.24
321.407	0.18
321.618	0.29
321.829	0.29
322.041	0.31
322.252	0.26
322.463	0.3
322.674	0.27
322.885	0.23
323.096	0.25
323.307	0.26
323.518	0.29
323.729	0.18
323.94	0.22
324.151	0.23
324.362	0.27
324.573	0.29
324.784	0.26
324.995	0.29
325.206	0.31
325.417	0.24
325.628	0.19
325.838	0.25
326.049	0.27
326.26	0.25
326.471	0.23
326.682	0.3
326.892	0.28
327.103	0.16
327.314	0.21
327.525	0.35
327.735	0.32
327.946	0.21
328.157	0.2
328.368	0.29
328.578	0.23
328.789	0.28
328.999	0.25
329.21	0.25
329.421	0.29
329.631	0.24
329.842	0.22
330.052	0.23
330.263	0.28
330.473	0.3
330.684	0.22
330.894	0.21
331.105	0.25
331.315	0.25
331.526	0.22
331.736	0.34
331.947	0.27
332.157	0.3
332.367	0.18
332.578	0.26
332.788	0.31
332.999	0.25
333.209	0.22
333.419	0.15
333.629	0.25
333.84	0.24
334.05	0.24
334.26	0.33
334.47	0.31
334.681	0.3
334.891	0.23
335.101	0.3
335.311	0.32
335.521	0.26
335.732	0.18
335.942	0.32
336.152	0.31
336.362	0.24
336.572	0.24
336.782	0.31
336.992	0.24
337.202	0.21
337.412	0.2
337.622	0.21
337.832	0.28
338.042	0.25
338.252	0.23
338.462	0.27
338.672	0.26
338.882	0.21
339.092	0.29
339.302	0.36
339.511	0.23
339.721	0.22
339.931	0.18
340.141	0.31
340.351	0.32
340.561	0.29
340.77	0.26
340.98	0.31
341.19	0.26
341.4	0.24
341.609	0.17
341.819	0.21
342.029	0.19
342.238	0.26
342.448	0.22
342.658	0.3
342.867	0.23
343.077	0.24
343.286	0.24
343.496	0.3
343.706	0.29
343.915	0.18
344.125	0.21
344.334	0.32
344.544	0.18
344.753	0.2
344.963	0.24
345.172	0.21
345.381	0.21
345.591	0.18
345.8	0.25
346.01	0.35
346.219	0.3
346.428	0.1
346.638	0.21
346.847	0.26
347.056	0.37
347.266	0.23
347.475	0.23
347.684	0.28
347.893	0.34
348.103	0.29
348.312	0.24
348.521	0.24
348.73	0.28
348.94	0.23
349.149	0.22
349.358	0.23
349.567	0.23
349.776	0.18
349.985	0.23
350.194	0.29
350.403	0.32
350.612	0.18
350.821	0.17
351.03	0.26
351.239	0.17
351.448	0.23
351.657	0.2
351.866	0.35
352.075	0.25
352.284	0.29
352.493	0.17
352.702	0.37
352.911	0.27
353.12	0.23
353.329	0.25
353.538	0.32
353.746	0.26
353.955	0.19
354.164	0.26
354.373	0.23
354.582	0.26
354.79	0.26
354.999	0.28
355.208	0.25
355.416	0.33
355.625	0.21
355.834	0.23
356.042	0.26
356.251	0.21
356.46	0.21
356.668	0.26
356.877	0.35
357.085	0.31
357.294	0.18
357.503	0.25
357.711	0.26
357.92	0.44
358.128	0.25
358.337	0.21
358.545	0.28
358.754	0.23
358.962	0.29
359.17	0.2
359.379	0.25
359.587	0.25
359.796	0.22
360.004	0.33
360.212	0.26
360.421	0.32
360.629	0.21
360.837	0.2
361.046	0.29
361.254	0.4
361.462	0.21
361.67	0.21
361.879	0.31
362.087	0.32
362.295	0.27
362.503	0.22
362.711	0.19
362.92	0.26
363.128	0.24
363.336	0.21
363.544	0.17
363.752	0.25
363.96	0.25
364.168	0.18
364.376	0.23
364.584	0.27
364.792	0.33
365	0.26
365.208	0.23
365.416	0.28
365.624	0.29
365.832	0.18
366.04	0.32
366.248	0.22
366.456	0.23
366.664	0.28
366.872	0.26
367.079	0.24
367.287	0.24
367.495	0.26
367.703	0.23
367.911	0.25
368.118	0.25
368.326	0.27
368.534	0.15
368.742	0.32
368.949	0.17
369.157	0.2
369.365	0.24
369.572	0.21
369.78	0.23
369.988	0.25
370.195	0.23
370.403	0.32
370.61	0.19
370.818	0.25
371.026	0.31
371.233	0.21
371.441	0.25
371.648	0.25
371.856	0.27
372.063	0.28
372.271	0.23
372.478	0.22
372.685	0.23
372.893	0.29
373.1	0.28
373.308	0.21
373.515	0.37
373.722	0.31
373.93	0.25
374.137	0.24
374.344	0.34
374.552	0.29
374.759	0.28
374.966	0.29
375.173	0.22
375.381	0.32
375.588	0.29
375.795	0.21
376.002	0.22
376.209	0.2
376.417	0.23
376.624	0.26
376.831	0.29
377.038	0.23
377.245	0.14
377.452	0.25
377.659	0.27
377.866	0.21
378.073	0.26
378.28	0.26
378.487	0.34
378.694	0.32
378.901	0.19
379.108	0.28
379.315	0.34
379.522	0.39
379.729	0.31
379.936	0.26
380.143	0.28
380.35	0.27
380.557	0.28
380.763	0.26
380.97	0.3
381.177	0.3
381.384	0.28
381.591	0.22
381.797	0.26
382.004	0.31
382.211	0.27
382.418	0.24
382.624	0.29
382.831	0.27
383.038	0.25
383.244	0.27
383.451	0.25
383.658	0.3
383.864	0.27
384.071	0.2
384.277	0.39
384.484	0.31
384.69	0.34
384.897	0.24
385.103	0.26
385.31	0.27
385.516	0.24
385.723	0.26
385.929	0.28
386.136	0.24
386.342	0.3
386.549	0.22
386.755	0.37
386.961	0.32
387.168	0.26
387.374	0.29
387.58	0.37
387.787	0.23
387.993	0.31
388.199	0.27
388.406	0.28
388.612	0.25
388.818	0.24
389.024	0.22
389.231	0.33
389.437	0.39
389.643	0.32
389.849	0.28
390.055	0.36
390.261	0.33
390.467	0.36
390.674	0.24
390.88	0.29
391.086	0.35
391.292	0.26
391.498	0.29
391.704	0.32
391.91	0.31
392.116	0.22
392.322	0.22
392.528	0.31
392.734	0.31
392.94	0.3
393.146	0.28
393.352	0.35
393.557	0.3
393.763	0.29
393.969	0.35
394.175	0.27
394.381	0.32
394.587	0.27
394.792	0.29
394.998	0.33
395.204	0.35
395.41	0.25
395.615	0.33
395.821	0.37
396.027	0.33
396.233	0.28
396.438	0.36
396.644	0.44
396.85	0.33
397.055	0.31
397.261	0.37
397.466	0.37
397.672	0.34
397.878	0.37
398.083	0.37
398.289	0.31
398.494	0.35
398.7	0.37
398.905	0.28
399.111	0.45
399.316	0.28
399.522	0.37
399.727	0.37
399.932	0.29
400.138	0.33
400.343	0.4
400.549	0.36
400.754	0.4
400.959	0.34
401.165	0.38
401.37	0.37
401.575	0.44
401.78	0.38
401.986	0.4
402.191	0.35
402.396	0.38
402.601	0.4
402.807	0.39
403.012	0.45
403.217	0.43
403.422	0.42
403.627	0.43
403.832	0.39
404.037	0.47
404.243	0.4
404.448	0.38
404.653	0.41
404.858	0.43
405.063	0.47
405.268	0.4
405.473	0.38
405.678	0.44
405.883	0.66
406.088	0.5
406.293	0.41
406.498	0.44
406.703	0.51
406.907	0.48
407.112	0.44
407.317	0.5
407.522	0.56
407.727	0.43
407.932	0.54
408.136	0.66
408.341	0.54
408.546	0.58
408.751	0.6
408.956	0.59
409.16	0.69
409.365	0.57
409.57	0.61
409.774	0.67
409.979	0.7
410.184	0.63
410.388	0.59
410.593	0.79
410.798	0.74
411.002	0.77
411.207	0.79
411.411	0.87
411.616	0.81
411.82	0.82
412.025	0.87
412.229	0.83
412.434	0.99
412.638	0.91
412.843	0.94
413.047	0.96
413.252	0.97
413.456	1.03
413.66	1.09
413.865	1.11
414.069	1.12
414.273	1.07
414.478	1.12
414.682	1.16
414.886	1.25
415.091	1.22
415.295	1.24
415.499	1.36
415.703	1.38
415.908	1.49
416.112	1.36
416.316	1.63
416.52	1.57
416.724	1.54
416.929	1.63
417.133	1.84
417.337	1.71
417.541	1.86
417.745	1.82
417.949	1.99
418.153	2.05
418.357	2.02
418.561	2.27
418.765	2.22
418.969	2.38
419.173	2.46
419.377	2.44
419.581	2.7
419.785	2.67
419.989	2.71
420.193	2.81
420.397	2.88
420.601	3.08
420.804	3.18
421.008	3.19
421.212	3.35
421.416	3.33
421.62	3.3
421.823	3.38
422.027	3.62
422.231	3.58
422.435	3.51
422.638	3.57
422.842	3.7
423.046	3.71
423.249	4.01
423.453	4.01
423.657	4.16
423.86	4.22
424.064	4.39
424.268	4.54
424.471	4.6
424.675	4.79
424.878	4.84
425.082	5
425.285	5.25
425.489	5.13
425.692	5.37
425.896	5.45
426.099	5.47
426.303	5.63
426.506	5.75
426.71	6.03
426.913	6.27
427.116	6.37
427.32	6.4
427.523	6.47
427.726	6.82
427.93	6.92
428.133	7.24
428.336	7.35
428.54	7.5
428.743	7.74
428.946	8
429.149	7.96
429.353	8
429.556	8.13
429.759	8.08
429.962	8.19
430.165	8.43
430.368	8.09
430.571	8.08
430.775	8.17
430.978	8.15
431.181	8.29
431.384	8.28
431.587	8.36
431.79	8.78
431.993	8.74
432.196	8.94
432.399	9.35
432.602	9.51
432.805	9.67
433.008	10.17
433.211	10
433.414	10.41
433.616	10.39
433.819	10.47
434.022	10.51
434.225	10.67
434.428	10.77
434.631	11.17
434.833	11.02
435.036	11.16
435.239	11.5
435.442	11.31
435.645	11.53
435.847	11.6
436.05	11.92
436.253	12.12
436.455	12.16
436.658	12.09
436.861	12.42
437.063	12.48
437.266	12.41
437.468	12.86
437.671	13.18
437.874	13.13
438.076	13.02
438.279	13.59
438.481	13.65
438.684	14.37
438.886	13.92
439.089	14.19
439.291	14.32
439.494	14.6
439.696	14.8
439.899	15.31
440.101	15.72
440.303	15.87
440.506	16.6
440.708	16.33
440.91	16.6
441.113	16.78
441.315	17.05
441.517	16.8
441.72	17.25
441.922	16.93
442.124	16.84
442.326	17.23
442.529	17.52
442.731	17.47
442.933	17.81
443.135	17.43
443.337	17.47
443.539	18.13
443.742	17.71
443.944	18.39
444.146	18.06
444.348	18.19
444.55	17.95
444.752	18.13
444.954	18.09
445.156	18.03
445.358	18.52
445.56	18.71
445.762	18.57
445.964	18.82
446.166	18.51
446.368	18.66
446.57	18.49
446.772	18.24
446.974	17.92
447.175	18.33
447.377	17.98
447.579	18.44
447.781	18
447.983	17.78
448.184	17.45
448.386	17.79
448.588	17.27
448.79	17.17
448.991	17.46
449.193	17.47
449.395	16.84
449.597	16.62
449.798	16.31
450	15.91
450.202	15.78
450.403	15.83
450.605	15.81
450.806	15.33
451.008	15.13
451.21	14.95
451.411	14.52
451.613	13.7
451.814	13.95
452.016	13.94
452.217	13.23
452.419	13.25
452.62	12.99
452.821	12.61
453.023	12.62
453.224	12.21
453.426	11.6
453.627	11.04
453.828	11.03
454.03	11.27
454.231	11.2
454.432	10.95
454.634	10.76
454.835	10.45
455.036	10.36
455.238	10.03
455.439	9.82
455.64	9.47
455.841	9.31
456.042	9.42
456.244	9.17
456.445	8.91
456.646	8.57
456.847	8.51
457.048	8.42
457.249	8.41
457.45	8.19
457.651	7.66
457.852	7.55
458.054	7.25
458.255	7.17
458.456	7.34
458.657	7.05
458.858	6.72
459.058	6.68
459.259	6.71
459.46	6.41
459.661	6.38
459.862	6.47
460.063	6.28
460.264	6.22
460.465	5.96
460.666	5.94
460.866	5.7
461.067	5.45
461.268	5.54
461.469	5.44
461.67	5.43
461.87	5.19
462.071	5.24
462.272	5.09
462.473	5.06
462.673	5.23
462.874	5.11
463.075	5.06
463.275	5.03
463.476	5.07
463.676	5.09
463.877	4.89
464.078	4.89
464.278	4.97
464.479	4.76
464.679	4.69
464.88	4.62
465.08	4.72
465.281	4.44
465.481	4.33
465.682	4.11
465.882	4.2
466.083	4.01
466.283	4
466.483	3.88
466.684	3.73
466.884	3.61
467.085	3.7
467.285	3.76
467.485	3.6
467.686	3.53
467.886	3.4
468.086	3.37
468.286	3.32
468.487	3.43
468.687	3.22
468.887	3.18
469.087	3.35
469.287	3.28
469.488	3.04
469.688	3.17
469.888	3.17
470.088	3.14
470.288	3.05
470.488	3.02
470.688	2.88
470.888	2.85
471.088	2.64
471.288	2.73
471.488	2.78
471.688	2.68
471.888	2.6
472.088	2.8
472.288	2.69
472.488	2.57
472.688	2.52
472.888	2.59
473.088	2.56
473.288	2.51
473.488	2.44
473.688	2.64
473.887	2.46
474.087	2.4
474.287	2.44
474.487	2.39
474.687	2.46
474.886	2.35
475.086	2.3
475.286	2.32
475.486	2.28
475.685	2.25
475.885	2.18
476.085	2.27
476.284	2.25
476.484	2.21
476.684	2.21
476.883	2.23
477.083	2.14
477.282	2.12
477.482	2.19
477.681	2.13
477.881	2.07
478.08	2.08
478.28	2.05
478.479	2.13
478.679	2.14
478.878	1.99
479.078	2.02
479.277	2.03
479.477	2.05
479.676	2.02
479.875	2.01
480.075	1.95
480.274	2.02
480.473	2.06
480.673	2.01
480.872	2.08
481.071	2.02
481.271	2.08
481.47	1.95
481.669	2
481.868	1.93
482.067	1.96
482.267	1.9
482.466	1.94
482.665	1.95
482.864	1.98
483.063	1.91
483.262	2.01
483.461	2.02
483.661	2.05
483.86	1.98
484.059	2.08
484.258	2.01
484.457	1.98
484.656	2.02
484.855	2.1
485.054	1.92
485.253	2
485.452	1.93
485.651	2.04
485.849	2.03
486.048	2.08
486.247	2.03
486.446	2.1
486.645	2
486.844	2.02
487.043	2.01
487.241	2.07
487.44	2.06
487.639	2.13
487.838	2.13
488.037	2.12
488.235	2.24
488.434	2.14
488.633	2.01
488.831	2.18
489.03	2.23
489.229	2.24
489.427	2.19
489.626	2.27
489.825	2.29
490.023	2.29
490.222	2.25
490.42	2.33
490.619	2.35
490.817	2.39
491.016	2.36
491.214	2.39
491.413	2.39
491.611	2.36
491.81	2.42
492.008	2.43
492.207	2.53
492.405	2.52
492.604	2.47
492.802	2.55
493	2.63
493.199	2.64
493.397	2.59
493.595	2.72
493.794	2.63
493.992	2.81
494.19	2.74
494.388	2.81
494.587	2.73
494.785	2.76
494.983	2.68
495.181	2.88
495.379	2.9
495.578	2.95
495.776	2.96
495.974	2.91
496.172	2.93
496.37	3.07
496.568	3.08
496.766	3.07
496.964	3.19
497.162	3.19
497.36	3.23
497.558	3.27
497.756	3.3
497.954	3.3
498.152	3.36
498.35	3.48
498.548	3.35
498.746	3.41
498.944	3.39
499.142	3.42
499.34	3.53
499.538	3.63
499.736	3.5
499.933	3.63
500.131	3.6
500.329	3.76
500.527	3.74
500.725	3.86
500.922	3.9
501.12	3.86
501.318	3.96
501.516	3.95
501.713	4.04
501.911	4.01
502.109	3.94
502.306	4.07
502.504	4.06
502.701	4.08
502.899	4.13
503.097	4.37
503.294	4.19
503.492	4.32
503.689	4.4
503.887	4.37
504.084	4.48
504.282	4.42
504.479	4.41
504.677	4.58
504.874	4.58
505.072	4.45
505.269	4.67
505.466	4.68
505.664	4.78
505.861	4.65
506.059	4.77
506.256	4.8
506.453	4.84
506.651	4.99
506.848	5
507.045	4.97
507.242	4.97
507.44	5.02
507.637	5.08
507.834	5.06
508.031	5.21
508.229	5.15
508.426	5.15
508.623	5.31
508.82	5.31
509.017	5.24
509.214	5.27
509.411	5.42
509.608	5.31
509.805	5.47
510.003	5.45
510.2	5.56
510.397	5.65
510.594	5.58
510.791	5.61
510.988	5.6
511.184	5.67
511.381	5.56
511.578	5.69
511.775	5.86
511.972	5.77
512.169	5.77
512.366	5.8
512.563	5.96
512.76	5.97
512.956	6.02
513.153	5.97
513.35	5.92
513.547	5.91
513.744	6.09
513.94	6.04
514.137	6.19
514.334	6.11
514.53	6.14
514.727	6.4
514.924	6.32
515.12	6.26
515.317	6.27
515.514	6.23
515.71	6.14
515.907	6.46
516.103	6.43
516.3	6.34
516.497	6.47
516.693	6.48
516.89	6.49
517.086	6.55
517.283	6.53
517.479	6.45
517.676	6.61
517.872	6.64
518.068	6.66
518.265	6.69
518.461	6.57
518.658	6.75
518.854	6.74
519.05	6.82
519.247	6.82
519.443	6.76
519.639	6.92
519.836	6.8
520.032	6.77
520.228	6.86
520.424	6.92
520.621	6.97
520.817	6.97
521.013	6.9
521.209	7.15
521.405	7.09
521.601	7.03
521.798	7.05
521.994	7.09
522.19	7.01
522.386	7.02
522.582	7.11
522.778	7.26
522.974	7.12
523.17	7.14
523.366	7.13
523.562	7.25
523.758	7.16
523.954	7.07
524.15	7.22
524.346	7.27
524.542	7.27
524.738	7.23
524.934	7.4
525.129	7.29
525.325	7.22
525.521	7.26
525.717	7.52
525.913	7.35
526.109	7.37
526.304	7.51
526.5	7.48
526.696	7.51
526.892	7.44
527.087	7.6
527.283	7.5
527.479	7.55
527.674	7.36
527.87	7.52
528.066	7.47
528.261	7.58
528.457	7.46
528.653	7.63
528.848	7.61
529.044	7.71
529.239	7.56
529.435	7.57
529.63	7.51
529.826	7.56
530.021	7.58
530.217	7.64
530.412	7.57
530.608	7.64
530.803	7.67
530.999	7.53
531.194	7.67
531.389	7.68
531.585	7.67
531.78	7.83
531.975	7.74
532.171	7.76
532.366	7.68
532.561	7.83
532.757	7.7
532.952	7.9
533.147	7.68
533.342	7.83
533.538	7.69
533.733	8.02
533.928	7.57
534.123	7.73
534.318	7.83
534.513	7.78
534.709	7.95
534.904	7.86
535.099	7.9
535.294	7.95
535.489	7.89
535.684	7.87
535.879	7.88
536.074	7.94
536.269	7.92
536.464	7.98
536.659	7.89
536.854	7.91
537.049	7.95
537.244	7.98
537.439	7.92
537.634	7.91
537.828	7.98
538.023	7.92
538.218	7.94
538.413	7.88
538.608	7.9
538.803	7.98
538.997	7.94
539.192	7.97
539.387	7.97
539.582	7.94
539.776	7.88
539.971	7.99
540.166	8.08
540.36	7.89
540.555	8.07
540.75	7.99
540.944	8.05
541.139	8
541.334	7.99
541.528	8.03
541.723	8.13
541.917	8.08
542.112	7.96
542.306	7.9
542.501	8
542.695	7.99
542.89	7.99
543.084	8.03
543.279	8.11
543.473	8.15
543.668	8.11
543.862	7.95
544.056	8
544.251	8.06
544.445	8.13
544.64	8.15
544.834	7.8
545.028	7.74
545.222	8.04
545.417	8.24
545.611	8.11
545.805	8.07
546	7.86
546.194	8.12
546.388	8.05
546.582	8.01
546.776	8.05
546.97	8.08
547.165	8.12
547.359	7.99
547.553	8.01
547.747	8.09
547.941	8.27
548.135	8.08
548.329	8.09
548.523	8.14
548.717	8.03
548.911	8.06
549.105	8.01
549.299	8.17
549.493	8.11
549.687	8.02
549.881	8.18
550.075	8.18
550.269	8.03
550.463	8.12
550.657	8.12
550.85	8.04
551.044	8.1
551.238	8.17
551.432	8.09
551.626	8.16
551.82	8.2
552.013	8.01
552.207	8.17
552.401	8.24
552.594	8.08
552.788	8.03
552.982	8.08
553.176	8.04
553.369	8.24
553.563	8.12
553.756	8.07
553.95	8.11
554.144	8.18
554.337	8.11
554.531	7.87
554.724	8.17
554.918	8.17
555.111	8.13
555.305	8.15
555.498	8.04
555.692	8.22
555.885	8.14
556.079	8.07
556.272	8.11
556.466	8.13
556.659	8.07
556.852	8.21
557.046	8.05
557.239	7.95
557.432	8.08
557.626	8.14
557.819	8.2
558.012	8.05
558.206	8.25
558.399	8.18
558.592	8.05
558.785	8.1
558.979	8.07
559.172	8.14
559.365	8.16
559.558	8.07
559.751	8.03
559.944	8.25
560.138	8.13
560.331	8.13
560.524	8.18
560.717	8.08
560.91	8.09
561.103	8.14
561.296	7.96
561.489	8.14
561.682	8.24
561.875	8.2
562.068	8.22
562.261	8.04
562.454	8.26
562.647	8.08
562.84	8.17
563.032	8.13
563.225	8.06
563.418	8.12
563.611	8.12
563.804	8.13
563.997	7.97
564.19	7.88
564.382	8.14
564.575	8.09
564.768	8.06
564.961	8.22
565.153	8.1
565.346	7.99
565.539	8.17
565.731	8.08
565.924	8.18
566.117	8.27
566.309	8.13
566.502	8.07
566.695	8.04
566.887	8.14
567.08	8.11
567.272	8.11
567.465	8.05
567.657	8.19
567.85	8.03
568.042	8.11
568.235	8.1
568.427	7.98
568.62	8.11
568.812	8.01
569.005	8.16
569.197	7.94
569.389	8.1
569.582	8.1
569.774	8
569.966	7.99
570.159	7.93
570.351	8.01
570.543	8
570.736	8.03
570.928	7.93
571.12	8.02
571.312	8
571.505	7.79
571.697	8.05
571.889	8.04
572.081	8.03
572.273	7.91
572.465	8.05
572.658	8.13
572.85	8
573.042	8.05
573.234	7.87
573.426	7.96
573.618	7.97
573.81	8.06
574.002	7.96
574.194	7.99
574.386	7.96
574.578	7.81
574.77	7.86
574.962	7.95
575.154	7.85
575.346	7.84
575.538	7.85
575.729	7.91
575.921	7.94
576.113	7.97
576.305	7.96
576.497	7.99
576.689	7.85
576.88	7.76
577.072	7.99
577.264	7.89
577.456	7.91
577.647	7.82
577.839	7.96
578.031	7.93
578.223	7.82
578.414	7.76
578.606	7.87
578.798	7.89
578.989	7.83
579.181	7.92
579.372	7.84
579.564	7.84
579.755	7.81
579.947	7.79
580.139	7.85
580.33	7.7
580.522	7.86
580.713	7.73
580.905	7.74
581.096	7.89
581.287	7.74
581.479	7.71
581.67	7.82
581.862	7.76
582.053	7.78
582.244	7.61
582.436	7.82
582.627	7.7
582.818	7.65
583.01	7.65
583.201	7.71
583.392	7.64
583.583	7.61
583.775	7.51
583.966	7.62
584.157	7.69
584.348	7.68
584.54	7.57
584.731	7.67
584.922	7.57
585.113	7.43
585.304	7.59
585.495	7.58
585.686	7.62
585.877	7.63
586.068	7.72
586.259	7.63
586.45	7.54
586.641	7.54
586.832	7.61
587.023	7.5
587.214	7.47
587.405	7.53
587.596	7.38
587.787	7.36
587.978	7.47
588.169	7.45
588.36	7.38
588.551	7.45
588.742	7.45
588.932	7.52
589.123	7.23
589.314	7.51
589.505	7.38
589.696	7.39
589.886	7.41
590.077	7.36
590.268	7.28
590.458	7.27
590.649	7.14
590.84	7.34
591.03	7.34
591.221	7.24
591.412	7.08
591.602	7.39
591.793	7.28
591.984	7.29
592.174	7.22
592.365	7.36
592.555	7.08
592.746	7.1
592.936	7.1
593.127	7.23
593.317	7.23
593.508	7.24
593.698	7.11
593.889	7.16
594.079	7.08
594.269	7
594.46	7.03
594.65	7.07
594.84	7.01
595.031	6.91
595.221	7.01
595.411	6.98
595.602	7.04
595.792	6.93
595.982	6.88
596.172	7.06
596.363	6.87
596.553	6.93
596.743	6.96
596.933	6.9
597.123	6.89
597.314	6.71
597.504	6.73
597.694	6.91
597.884	6.86
598.074	6.86
598.264	6.82
598.454	6.86
598.644	6.77
598.834	6.77
599.024	6.71
599.214	6.75
599.404	6.78
599.594	6.81
599.784	6.65
599.974	6.76
600.164	6.75
600.354	6.62
600.544	6.54
600.734	6.7
600.924	6.63
601.114	6.53
601.303	6.58
601.493	6.6
601.683	6.56
601.873	6.58
602.063	6.47
602.252	6.59
602.442	6.43
602.632	6.52
602.821	6.37
603.011	6.51
603.201	6.46
603.39	6.43
603.58	6.31
603.77	6.41
603.959	6.48
604.149	6.36
604.339	6.37
604.528	6.42
604.718	6.38
604.907	6.29
605.097	6.26
605.286	6.24
605.476	6.27
605.665	6.27
605.855	6.15
606.044	6.32
606.234	6.26
606.423	6.15
606.612	6.16
606.802	6.09
606.991	6.22
607.181	6.17
607.37	6.12
607.559	5.93
607.749	6.12
607.938	5.97
608.127	6.02
608.316	5.99
608.506	6
608.695	6.07
608.884	6.05
609.073	6.06
609.263	6.07
609.452	6.06
609.641	5.84
609.83	5.84
610.019	5.96
610.208	5.88
610.397	5.92
610.586	5.88
610.775	5.77
610.965	5.86
611.154	5.73
611.343	5.81
611.532	5.68
611.721	5.77
611.91	5.7
612.099	5.74
612.287	5.66
612.476	5.56
612.665	5.7
612.854	5.54
613.043	5.62
613.232	5.62
613.421	5.5
613.61	5.61
613.798	5.57
613.987	5.59
614.176	5.54
614.365	5.55
614.554	5.52
614.742	5.59
614.931	5.39
615.12	5.51
615.309	5.49
615.497	5.4
615.686	5.29
615.875	5.41
616.063	5.31
616.252	5.35
616.44	5.32
616.629	5.32
616.818	5.31
617.006	5.32
617.195	5.18
617.383	5.31
617.572	5.14
617.76	5.19
617.949	5.15
618.137	5.24
618.326	5.24
618.514	4.96
618.703	5.02
618.891	5.17
619.079	5.06
619.268	5.18
619.456	4.97
619.644	5.1
619.833	4.98
620.021	5.01
620.209	4.94
620.398	5.02
620.586	4.92
620.774	5.01
620.962	4.92
621.151	5.04
621.339	4.93
621.527	4.87
621.715	4.77
621.903	4.9
622.092	4.74
622.28	4.92
622.468	4.69
622.656	4.8
622.844	4.7
623.032	4.83
623.22	4.66
623.408	4.83
623.596	4.74
623.784	4.73
623.972	4.64
624.16	4.63
624.348	4.73
624.536	4.75
624.724	4.59
624.912	4.63
625.1	4.59
625.288	4.57
625.476	4.52
625.664	4.56
625.851	4.47
626.039	4.52
626.227	4.5
626.415	4.54
626.603	4.43
626.79	4.48
626.978	4.47
627.166	4.45
627.354	4.39
627.541	4.41
627.729	4.24
627.917	4.53
628.104	4.44
628.292	4.26
628.48	4.35
628.667	4.27
628.855	4.4
629.042	4.36
629.23	4.24
629.418	4.31
629.605	4.24
629.793	4.2
629.98	4.19
630.168	4.22
630.355	4.2
630.543	4.13
630.73	4.04
630.917	4.07
631.105	4.26
631.292	4.12
631.48	4.11
631.667	4.23
631.854	4
632.042	4.04
632.229	3.97
632.416	4.04
632.604	4.03
632.791	3.87
632.978	3.99
633.165	3.93
633.353	4.04
633.54	3.99
633.727	3.83
633.914	3.81
634.101	3.79
634.289	3.93
634.476	3.81
634.663	3.79
634.85	3.88
635.037	3.77
635.224	3.71
635.411	3.77
635.598	3.79
635.785	3.75
635.972	3.69
636.159	3.75
636.346	3.68
636.533	3.64
636.72	3.6
636.907	3.64
637.094	3.62
637.281	3.46
637.468	3.63
637.655	3.61
637.842	3.6
638.029	3.53
638.215	3.54
638.402	3.55
638.589	3.45
638.776	3.45
638.963	3.46
639.149	3.49
639.336	3.57
639.523	3.45
639.709	3.47
639.896	3.41
640.083	3.36
640.27	3.41
640.456	3.34
640.643	3.38
640.829	3.28
641.016	3.34
641.203	3.24
641.389	3.35
641.576	3.28
641.762	3.25
641.949	3.22
642.135	3.28
642.322	3.27
642.508	3.12
642.695	3.16
642.881	3.14
643.068	3.19
643.254	3.16
643.441	3.16
643.627	3.19
643.813	3.03
644	3.13
644.186	3.02
644.372	3.13
644.559	3.07
644.745	3.04
644.931	2.98
645.118	3.05
645.304	3.04
645.49	2.99
645.676	2.94
645.862	2.96
646.049	3.01
646.235	2.94
646.421	3.06
646.607	3.04
646.793	2.89
646.979	2.84
647.165	2.88
647.352	2.87
647.538	2.87
647.724	2.84
647.91	2.84
648.096	2.86
648.282	2.88
648.468	2.78
648.654	2.85
648.84	2.78
649.026	2.8
649.212	2.71
649.397	2.66
649.583	2.64
649.769	2.77
649.955	2.69
650.141	2.71
650.327	2.77
650.513	2.64
650.698	2.73
650.884	2.53
651.07	2.68
651.256	2.62
651.442	2.61
651.627	2.54
651.813	2.69
651.999	2.58
652.184	2.6
652.37	2.53
652.556	2.56
652.741	2.57
652.927	2.4
653.113	2.51
653.298	2.5
653.484	2.51
653.669	2.41
653.855	2.42
654.04	2.5
654.226	2.47
654.412	2.46
654.597	2.36
654.782	2.39
654.968	2.41
655.153	2.39
655.339	2.38
655.524	2.32
655.71	2.34
655.895	2.38
656.08	2.36
656.266	2.45
656.451	2.33
656.636	2.24
656.822	2.32
657.007	2.3
657.192	2.26
657.378	2.23
657.563	2.24
657.748	2.33
657.933	2.25
658.118	2.22
658.304	2.19
658.489	2.27
658.674	2.21
658.859	2.16
659.044	2.15
659.229	2.21
659.414	2.13
659.599	2.14
659.785	2.08
659.97	2.11
660.155	2.13
660.34	2.13
660.525	2.09
660.71	2.04
660.895	2.16
661.08	2.05
661.264	2.03
661.449	2.14
661.634	2.03
661.819	2.09
662.004	2.02
662.189	1.94
662.374	1.99
662.559	1.95
662.743	1.9
662.928	1.95
663.113	1.92
663.298	1.91
663.483	1.89
663.667	2.01
663.852	1.9
664.037	2
664.221	1.9
664.406	1.98
664.591	2.01
664.775	1.96
664.96	1.85
665.145	1.88
665.329	1.94
665.514	1.87
665.698	1.8
665.883	1.8
666.068	1.92
666.252	1.88
666.437	1.72
666.621	1.8
666.806	1.81
666.99	1.81
667.174	1.75
667.359	1.83
667.543	1.77
667.728	1.78
667.912	1.65
668.096	1.78
668.281	1.76
668.465	1.74
668.649	1.73
668.834	1.68
669.018	1.7
669.202	1.7
669.387	1.67
669.571	1.76
669.755	1.65
669.939	1.65
670.124	1.66
670.308	1.74
670.492	1.63
670.676	1.62
670.86	1.6
671.044	1.57
671.228	1.66
671.413	1.54
671.597	1.51
671.781	1.57
671.965	1.59
672.149	1.54
672.333	1.55
672.517	1.55
672.701	1.55
672.885	1.58
673.069	1.46
673.253	1.62
673.437	1.56
673.621	1.5
673.804	1.54
673.988	1.52
674.172	1.46
674.356	1.41
674.54	1.5
674.724	1.57
674.908	1.5
675.091	1.53
675.275	1.5
675.459	1.51
675.643	1.47
675.826	1.46
676.01	1.48
676.194	1.47
676.377	1.53
676.561	1.45
676.745	1.43
676.928	1.5
677.112	1.49
677.296	1.4
677.479	1.37
677.663	1.35
677.846	1.41
678.03	1.41
678.213	1.31
678.397	1.42
678.58	1.4
678.764	1.33
678.947	1.34
679.131	1.38
679.314	1.42
679.498	1.34
679.681	1.39
679.865	1.43
680.048	1.34
680.231	1.3
680.415	1.24
680.598	1.28
680.781	1.26
680.965	1.3
681.148	1.31
681.331	1.19
681.514	1.35
681.698	1.24
681.881	1.23
682.064	1.32
682.247	1.31
682.43	1.11
682.614	1.27
682.797	1.37
682.98	1.21
683.163	1.18
683.346	1.23
683.529	1.17
683.712	1.14
683.895	1.19
684.078	1.12
684.261	1.13
684.444	1.26
684.627	1.21
684.81	1.17
684.993	1.14
685.176	1.24
685.359	1.09
685.542	1.13
685.725	1.25
685.908	1.14
686.091	1.15
686.274	1.16
686.457	1.18
686.639	1.09
686.822	1.2
687.005	1.07
687.188	1.19
687.371	1.19
687.553	1.14
687.736	1.15
687.919	1.22
688.102	1.18
688.284	1.08
688.467	1.09
688.65	1.08
688.832	0.97
689.015	1.03
689.197	1.03
689.38	1.22
689.563	1.22
689.745	0.97
689.928	1.03
690.11	1.08
690.293	1.06
690.475	0.95
690.658	1.04
690.84	1.05
691.023	0.97
691.205	0.93
691.388	0.98
691.57	1.11
691.752	1.03
691.935	0.94
692.117	0.97
692.3	1.08
692.482	0.93
692.664	0.89
692.847	0.99
693.029	1.06
693.211	1.04
693.393	0.93
693.576	0.85
693.758	1
693.94	0.97
694.122	0.97
694.304	0.88
694.487	0.9
694.669	1.03
694.851	0.86
695.033	0.95
695.215	0.92
695.397	0.91
695.579	0.9
695.761	0.8
695.943	0.83
696.125	0.98
696.308	0.98
696.49	0.77
696.671	1.04
696.853	0.88
697.035	1.13
697.217	0.8
697.399	0.94
697.581	0.83
697.763	0.86
697.945	0.83
698.127	0.9
698.309	0.98
698.491	0.89
698.672	0.91
698.854	0.95
699.036	0.92
699.218	0.89
699.399	0.86
699.581	0.89
699.763	0.81
699.945	0.73
700.126	0.81
700.308	0.85
700.49	0.77
700.671	0.71
700.853	0.76
701.035	0.81
701.216	0.85
701.398	0.8
701.579	0.81
701.761	0.89
701.943	0.78
702.124	0.69
702.306	0.8
702.487	1
702.669	0.76
702.85	0.76
703.031	0.67
703.213	0.92
703.394	0.83
703.576	0.74
703.757	0.92
703.938	0.87
704.12	0.95
704.301	0.74
704.483	0.71
704.664	0.83
704.845	0.9
705.026	0.81
705.208	0.68
705.389	0.75
705.57	0.82
705.751	0.68
705.933	0.72
706.114	0.8
706.295	0.71
706.476	0.62
706.657	0.82
706.838	0.77
707.02	0.82
707.201	0.65
707.382	0.67
707.563	0.76
707.744	0.7
707.925	0.65
708.106	0.61
708.287	0.78
708.468	0.87
708.649	0.69
708.83	0.81
709.011	0.64
709.192	0.73
709.373	0.63
709.554	0.69
709.734	0.75
709.915	0.8
710.096	0.72
710.277	0.58
710.458	0.62
710.639	0.79
710.819	0.53
711	0.65
711.181	0.7
711.362	0.71
711.542	0.68
711.723	0.66
711.904	0.71
712.085	0.64
712.265	0.63
712.446	0.62
712.627	0.61
712.807	0.67
712.988	0.66
713.168	0.5
713.349	0.74
713.53	0.42
713.71	0.58
713.891	0.49
714.071	0.67
714.252	0.55
714.432	0.47
714.613	0.46
714.793	0.56
714.974	0.76
715.154	0.7
715.334	0.64
715.515	0.74
715.695	0.48
715.876	0.6
716.056	0.56
716.236	0.52
716.417	0.49
716.597	0.55
716.777	0.78
716.957	0.55
717.138	0.59
717.318	0.58
717.498	0.48
717.678	0.59
717.859	0.66
718.039	0.54
718.219	0.57
718.399	0.58
718.579	0.5
718.759	0.48
718.939	0.59
719.12	0.66
719.3	0.62
719.48	0.37
719.66	0.38
719.84	0.7
720.02	0.59
720.2	0.48
720.38	0.58
720.56	0.75
720.74	0.43
720.92	0.54
721.1	0.67
721.279	0.62
721.459	0.55
721.639	0.39
721.819	0.49
721.999	0.49
722.179	0.61
722.359	0.43
722.538	0.56
722.718	0.52
722.898	0.51
723.078	0.53
723.257	0.43
723.437	0.51
723.617	0.59
723.797	0.49
723.976	0.6
724.156	0.62
724.336	0.64
724.515	0.67
724.695	0.36
724.874	0.49
725.054	0.63
725.234	0.47
725.413	0.54
725.593	0.51
725.772	0.59
725.952	0.46
726.131	0.44
726.311	0.51
726.49	0.53
726.67	0.43
726.849	0.41
727.028	0.55
727.208	0.45
727.387	0.46
727.567	0.46
727.746	0.49
727.925	0.44
728.105	0.46
728.284	0.45
728.463	0.42
728.643	0.58
728.822	0.41
729.001	0.5
729.18	0.49
729.359	0.61
729.539	0.39
729.718	0.49
729.897	0.57
730.076	0.51
730.255	0.36
730.434	0.41
730.614	0.59
730.793	0.61
730.972	0.44
731.151	0.51
731.33	0.54
731.509	0.44
731.688	0.47
731.867	0.55
732.046	0.39
732.225	0.65
732.404	0.24
732.583	0.32
732.762	0.43
732.941	0.59
733.12	0.53
733.298	0.42
733.477	0.59
733.656	0.4
733.835	0.38
734.014	0.62
734.193	0.56
734.371	0.63
734.55	0.56
734.729	0.36
734.908	0.51
735.086	0.56
735.265	0.51
735.444	0.34
735.623	0.38
735.801	0.43
735.98	0.37
736.159	0.42
736.337	0.52
736.516	0.61
736.694	0.53
736.873	0.44
737.052	0.74
737.23	0.65
737.409	0.4
737.587	0.77
737.766	0.32
737.944	0.58
738.123	0.59
738.301	0.54
738.479	0.56
738.658	0.49
738.836	0.28
739.015	0.57
739.193	0.7
739.371	0.37
739.55	0.4
739.728	0.38
739.906	0.63
740.085	0.74
740.263	0.54
740.441	0.24
740.62	0.76
740.798	0.51
740.976	0.41
741.154	0.27
741.332	0.66
741.511	0.46
741.689	0.51
741.867	0.58
742.045	0.64
742.223	0.47
742.401	0.36
742.579	0.41
742.757	0.61
742.935	0.34
743.114	0.48
743.292	0.35
743.47	0.48
743.648	0.5
743.826	0.56
744.004	0.56
744.181	0.65
744.359	0.41
744.537	0.46
744.715	0.48
744.893	0.47
745.071	0.46
745.249	0.46
745.427	0.45
745.605	0.64
745.782	0.49
745.96	0.39
746.138	0.63
746.316	0.56
746.493	0.41
746.671	0.48
746.849	0.3
747.027	0.6
747.204	0.36
747.382	0.41
747.56	0.31
747.737	0.47
747.915	0.37
748.093	0.42
748.27	0.28
748.448	0.47
748.625	0.21
748.803	0.33
748.98	0.42
749.158	0.56
749.335	0.51
749.513	0.39
749.69	0.29
749.868	0.42
750.045	0.39
750.223	0.27
750.4	0.2
750.578	0.61
750.755	0.4
750.932	0.14
751.11	0.57
751.287	0.33
751.464	0.58
751.642	0.26
751.819	0.44
751.996	0.49
752.173	0.36
752.351	0.32
752.528	0.48
752.705	0.39
752.882	0.24
753.06	0.34
753.237	0.39
753.414	0.6
753.591	0.66
753.768	0.44
753.945	0.32
754.122	0.46
754.299	0.49
754.476	0.29
754.654	0.38
754.831	0.46
755.008	0.44
755.185	0.36
755.362	0.33
755.539	0.34
755.716	0.24
755.892	0.37
756.069	0.4
756.246	0.41
756.423	0.43
756.6	0.53
756.777	0.3
756.954	0.55
757.131	0.33
757.307	0.3
757.484	0.16
757.661	0.45
757.838	0.49
758.015	0.3
758.191	0.39
758.368	0.33
758.545	0.57
758.721	0.43
758.898	0.1
759.075	0.4
759.251	0.49
759.428	0.43
759.605	0.31
759.781	0.35
759.958	0.42
760.134	0.46
760.311	0.24
760.488	0.58
760.664	0.5
760.841	0.29
761.017	0.16
761.194	0.48
761.37	0.57
761.547	0.29
761.723	0.23
761.899	0.59
762.076	0.26
762.252	0.25
762.429	0.24
762.605	0.51
762.781	0.27
762.958	0.49
763.134	0.29
763.31	0.23
763.486	0.52
763.663	0.15
763.839	0.4
764.015	0.23
764.191	0.27
764.368	0.4
764.544	0.26
764.72	0.4
764.896	0.45
765.072	0.35
765.248	0.26
765.425	0.37
765.601	0.33
765.777	0.31
765.953	0.03
766.129	0.28
766.305	0.16
766.481	0.51
766.657	0.33
766.833	0.46
767.009	0.16
767.185	0.38
767.361	0.27
767.537	0.33
767.713	0.56
767.889	0.27
768.065	0.31
768.24	0.54
768.416	0.47
768.592	0.34
768.768	0.21
768.944	0.52
769.12	0.2
769.295	0.27
769.471	0.36
769.647	0.36
769.823	0.67
769.998	0.18
770.174	0.21
770.35	0.71
770.525	0.72
770.701	0.34
770.877	0.39
771.052	0.21
771.228	0.5
771.403	0.5
771.579	0.38
771.755	0.66
771.93	0.35
772.106	0.25
772.281	0.12
772.457	0.32
772.632	0.38
772.808	0.25
772.983	0.37
773.159	0.18
773.334	0.55
773.509	0.49
773.685	0.26
773.86	0.72
774.036	0.48
774.211	0.33
774.386	0.36
774.562	0.37
774.737	0.55
774.912	0.2
775.087	0.43
775.263	0.38
775.438	0.42
775.613	0.27
775.788	0.22
775.964	0.55
776.139	0.96
776.314	0.19
776.489	0.51
776.664	0.43
776.839	0.23
777.014	0.64
777.19	0.48
777.365	0.71
777.54	0.79
777.715	0.23
777.89	0.28
778.065	0.24
778.24	0.46
778.415	0.45
778.59	0.19
778.765	0.49
778.94	0.46
779.115	0.42
779.289	0.27
779.464	0.28
779.639	0.35
779.814	0.17
779.989	0.11
780.164	0.7
780.339	0.47
780.513	0.19
780.688	0.26
780.863	0.39
781.038	0.55
781.212	0.25
781.387	0.18
781.562	0.83
781.737	0.2
781.911	0.64
782.086	0.28
782.261	0.36
782.435	0.73
782.61	0.32
782.784	0.42
782.959	0.59
783.134	0.21
783.308	0.1
783.483	0.26
783.657	0.9
783.832	0.5
784.006	0.06
784.181	0.33
784.355	0.75
784.53	0.37
784.704	0.35
784.878	0.69
785.053	0.54
785.227	0.67
785.402	0.84
785.576	0.16
785.75	0.41
785.925	0.47
786.099	0.48
786.273	0.38
786.448	0.72
786.622	0.52
786.796	0.32
786.97	0.45
787.145	1.2
787.319	-0.03
787.493	0.22
787.667	0.07
787.841	0.46
788.015	0.78
788.19	0.2
788.364	0.42
788.538	0.65
788.712	0.48
788.886	0.47
789.06	0.67
789.234	0.61
789.408	0.22
789.582	0.38
789.756	0.18
789.93	0.43
790.104	0.39
790.278	0.38
790.452	0.3
790.626	0.59
790.8	0.28
790.973	0.42
791.147	0.81
791.321	0.77
791.495	0.92
791.669	0.54
791.843	0.53
792.016	0.55
792.19	0.86
792.364	0.17
792.538	1.17
792.711	0.8
792.885	0.46
793.059	0.16
793.233	-0.06
793.406	0.72
793.58	0.4
793.754	0.52
793.927	0.35
794.101	0.7
794.274	0.66
794.448	0.7
794.622	0.12
794.795	0.82
794.969	0.42
795.142	0.94
795.316	0.07
795.489	0.3
795.663	0.99
795.836	0.44
796.009	0.21
796.183	0.8
796.356	0.55
796.53	0.47
796.703	0.35
796.876	1.31
797.05	0.33
797.223	0.4
797.396	0.36
797.57	0.4
797.743	1.25
797.916	0.32
798.09	0.41
798.263	0.79
798.436	0.91
798.609	0.31
798.782	0.19
798.956	0.42
799.129	0.61
799.302	0.37
799.475	0.29
799.648	0.36
799.821	0.3
799.994	0.43
800.167	-0.02
800.34	0.68
800.514	0.29
800.687	0.1
800.86	0.17
801.033	0.77
801.206	0.82
801.379	0.31
801.551	0.85
801.724	0.76
801.897	1.01
802.07	0.49
802.243	0.02
802.416	0.78
802.589	0.31
802.762	0.73
802.935	0.85
803.107	1.26
803.28	0.77
803.453	0.82
803.626	0.46
803.798	0.77
803.971	0.31
804.144	0.44
804.317	1.02
804.489	1.17
804.662	0.77
804.835	0.57
805.007	0.28
805.18	0.82
805.353	0.41
805.525	0.33
805.698	0.25
805.87	0.95
806.043	0.83
806.215	0.09
806.388	0.31
806.56	0.75
806.733	0.78
806.905	0.38
807.078	0.22
807.25	0.27
807.423	0.82
807.595	0.39
807.768	0.42
807.94	0.71
808.112	0.88
808.285	0.76
808.457	0.19
808.629	0.55
808.802	1.04
808.974	0.35
809.146	0.28
809.318	0.3
809.491	0.58
809.663	0.98
809.835	0.39
810.007	0.77
810.18	0.81
810.352	0.13
810.524	0.37
810.696	1.01
810.868	1.05
811.04	0.42
811.212	0.49
811.384	0.8
811.556	1.16
811.728	0.39
811.901	1.27
812.073	0.89
812.245	1.19
812.417	0.77
812.589	-0.24
812.76	0.58
812.932	0.94
813.104	0.92
813.276	0.44
813.448	1.31
813.62	0.66
813.792	0.35
813.964	0.23
814.136	0.56
814.307	0.52
814.479	0.29
814.651	0.24
814.823	1.79
814.995	0.56
815.166	0.14
815.338	0.33
815.51	0.27
815.681	1.74
815.853	0.51
816.025	0.79
816.196	1.72
816.368	1.14
816.54	0.1
816.711	-0.08
816.883	1.06
817.054	1.69
817.226	0.06
817.398	0.76
817.569	-0.02
817.741	0.52
817.912	0.6
818.084	0.78
818.255	1.12
818.426	0.5
818.598	0.46
818.769	0.4
818.941	1.1
819.112	1.08
819.283	0.84
819.455	0.25
819.626	0.78
819.798	0.91
819.969	0.37
820.14	0.82
820.311	0.51
820.483	1.09
820.654	1.31
820.825	0.74
820.996	0.48
821.168	0.32
821.339	0.45
821.51	0.2
821.681	0.56
821.852	1.02
822.023	-0.28
822.195	0.45
822.366	1.64
822.537	0.72
822.708	0.48
822.879	0.12
823.05	1.64
823.221	0.35
823.392	0.81
823.563	0.2
823.734	1.06
823.905	0.69
824.076	0.47
824.247	0.62
824.418	1.01
824.589	1.65
824.759	1.11
824.93	0.51
825.101	0.02
825.272	1.55
825.443	1.37
825.614	1.95
825.784	-0.18
825.955	1.89
826.126	1.5
826.297	-0.05
826.467	2.14
826.638	2.44
826.809	-0.23
826.98	1.46
827.15	1.83
827.321	0.61
827.492	2.06
827.662	0.21
827.833	2.08
828.003	1.61
828.174	0.12
828.345	-0.17
828.515	1.52
828.686	1.25
828.856	0.11
829.027	0.73
829.197	1.74
829.368	1.33
829.538	0.28
829.709	0.51
829.879	0.7
830.049	0.92
830.22	0.45
830.39	0.65
830.56	1.55
830.731	0.78
830.901	0.26
831.072	0.58
831.242	1.15
831.412	1.49
831.582	0.83
831.753	0.01
831.923	1.45
832.093	1.75
832.263	0.59
832.434	0.39
832.604	-0.05
832.774	1.86
832.944	0.65
833.114	0.2
833.284	1.16
833.454	0.43
833.624	0.66
833.795	0.71
833.965	1.5
834.135	1.29
834.305	-0.6
834.475	-0.05
834.645	0.98
834.815	0.17
834.985	0.16
835.155	0.04
835.325	1.14
835.494	1.35
835.664	0.56
835.834	0.73
836.004	1.06
836.174	1.39
836.344	0.64
836.514	-0.53
836.684	0.68
836.853	0.78
837.023	0.67
837.193	0.02
837.363	1.88
837.532	2.11
837.702	1.01
837.872	0.46
838.041	1.28
838.211	3.09
838.381	-0.03
838.55	0.16
838.72	3.27
838.89	2.41
839.059	0.79
839.229	0.37
839.398	2.36
839.568	1.28
839.738	1.14
839.907	2.13
840.077	1.55
840.246	0.7
840.416	-0.19
840.585	0.01
840.755	2.17
840.924	2.12
841.093	0.66
841.263	0.45
841.432	1.12
841.602	1.21
841.771	0.69
841.94	1.22
842.11	3.56
842.279	2.59
842.448	-0.05
842.617	0.03
842.787	2.06
842.956	-0.14
843.125	0.29
843.294	0.43
843.464	2.39
843.633	1.54
843.802	0.54
843.971	0.79
844.14	1.69
844.309	2.01
844.479	-0.88
844.648	0.51
844.817	1.44
844.986	1.63
845.155	1
845.324	1
845.493	0.61
845.662	-0.29
845.831	2.09
846	1.8
846.169	1.67
846.338	2.93
846.507	0.71
846.676	1.9
846.844	0.81
847.013	2.08
847.182	1.32
847.351	0.61
847.52	1.19
847.689	1.62
847.858	0.4
848.026	0.15
848.195	2.44
848.364	1
848.533	-0.13
848.701	0.15
848.87	1.51
849.039	2.63
849.207	2
849.376	2.39
849.545	1.79
849.713	0.41
849.882	0.64
850.051	0.34
850.219	1.44
850.388	2.02
850.556	0.77
850.725	0.19
850.893	1.5
851.062	0.87
851.23	1.17
851.399	-0.36
851.567	0.61
851.736	1.94
851.904	0.45
852.073	0.06
852.241	2.6
852.41	1.76
852.578	0.27
852.746	0.52
852.915	1.9
853.083	1.76
853.251	-0.2
853.42	0.84
853.588	1.33
853.756	3.31
853.924	1.16
854.093	2
854.261	1.78
854.429	-0.35
854.597	1.5
854.765	0.42
854.934	2.56
855.102	2.83
855.27	0.52
855.438	1.99
855.606	2.81
855.774	2.77
855.942	0.68
856.11	0.4
856.278	1.78
856.446	2.73
856.614	2.08
856.782	0.84
856.95	3.36
857.118	1.73
857.286	1.88
857.454	0.98
857.622	3.32
857.79	1.98
857.958	0.05
858.126	1.31
858.294	-2.21
858.462	1.42
858.629	0
858.797	-0.59
858.965	1.66
859.133	1.27
859.301	1.14
859.468	1.35
859.636	0.97
859.804	4.29
859.971	1.83
860.139	0.43
860.307	3.34
860.474	1.94
860.642	-0.07
860.81	0.94
860.977	1.11
861.145	3.21
861.313	1.22
861.48	1.52
861.648	1.97
861.815	0.54
861.983	-0.29
862.15	1.02
862.318	2.25
862.485	3.29
862.653	-0.55
862.82	0.24
862.988	3.27
863.155	2.4
863.322	0.07
863.49	0.08
863.657	1.34
863.824	3.96
863.992	2.59
864.159	2.34
864.326	2.75
864.494	1.2
864.661	4.56
864.828	0.75
864.996	2.24
865.163	3.81
865.33	-0.13
865.497	-1.22
865.664	0.39
865.832	-0.91
865.999	1.43
866.166	-0.47
866.333	2.3
866.5	1.48
866.667	1.73
866.834	1.21
867.001	3.86
867.168	-0.77
867.335	1.79
867.502	-0.04
867.669	1.45
867.836	4.19
868.003	1.76
868.17	2.28
868.337	5.13
868.504	5.07
868.671	-0.38
868.838	1.59
869.005	2.95
869.172	4
869.339	0.67
869.505	1.13
869.672	2.1
869.839	5.81
870.006	1.84
870.173	1.47
870.339	3.33
870.506	5.76
870.673	0.35
870.84	1.88
871.006	1.24
871.173	0.29
871.34	2.01
871.506	0.06
871.673	2.86
871.839	1.71
872.006	1.9
872.173	-0.36
872.339	0.92
872.506	3.3
872.672	1.06
872.839	-1.63
873.005	3.25
873.172	5.98
873.338	2.9
873.505	2.28
873.671	4.09
873.838	3.05
874.004	0.51
874.171	0.68
874.337	3.54
874.503	3.61
874.67	1.98
874.836	0.14
875.002	4.13
875.169	3.89
875.335	1.74
875.501	2.75
875.668	4.19
875.834	2.37
876	0.52
876.166	3.45
876.332	1.83
876.499	6.39
876.665	1.63
876.831	1.11
876.997	5.49
877.163	2.96
877.329	0.92
877.495	2.56
877.662	3.26
877.828	2.47
877.994	1.71
878.16	0.15
878.326	1.05
878.492	2.24
878.658	2.43
878.824	1.88
878.99	3.79
879.156	1.9
879.322	6.05
879.487	0.19
879.653	2.54
879.819	2.4
879.985	-0.26
880.151	2.78
880.317	5.18
880.483	3.98
880.648	3.62
880.814	-0.88
880.98	1.67
881.146	-1.2
881.312	0.32
881.477	2.01
881.643	2.09
881.809	4.33
881.974	4.36
882.14	-1.28
882.306	2.05
882.471	5.91
882.637	1.71
882.803	2.49
882.968	4.1
883.134	4.71
883.299	1.12
883.465	0.13
883.63	4.7
883.796	3.52
883.961	1.88
884.127	2.73
884.292	-2.62
884.458	-1.85
884.623	-1.84
