Data from Apollo_Calib_20240827__AbsoluteIrradiance__868__13-37-01-983.txt Node

Date: Wed Aug 28 13:37:01 BST 2024
User: biology
Spectrometer: FLMT08252
Trigger mode: 0
Integration Time (sec): 5.000000E-1
Scans to average: 5
Electric dark correction enabled: true
Nonlinearity correction enabled: false
Boxcar width: 0
XAxis mode: Wavelengths
Number of Pixels in Spectrum: 3648
>>>>>Begin Spectral Data<<<<<
179.588	-0
179.809	-0
180.03	-0
180.251	-0
180.473	-0
180.694	0
180.915	0
181.136	-0
181.357	0
181.578	-0
181.799	0
182.02	-0
182.241	-0
182.462	-0
182.683	0
182.904	-0
183.125	-0
183.346	0
183.567	0
183.788	0
184.009	0
184.23	0
184.451	0
184.672	0
184.892	0
185.113	0
185.334	0
185.555	0
185.776	0
185.996	0
186.217	0
186.438	0
186.659	0
186.879	0
187.1	0
187.321	0
187.541	0
187.762	0
187.983	0
188.203	0
188.424	0
188.644	0
188.865	0
189.086	0
189.306	0
189.527	0
189.747	0
189.968	0
190.188	0
190.409	0
190.629	0
190.849	0
191.07	0
191.29	0
191.511	0
191.731	0
191.951	0
192.172	0
192.392	0
192.612	0
192.833	0
193.053	0
193.273	0
193.493	0
193.714	0
193.934	0
194.154	0
194.374	0
194.594	0
194.815	0
195.035	0
195.255	0
195.475	0
195.695	0
195.915	0
196.135	0
196.355	0
196.575	0
196.795	0
197.015	0
197.235	0
197.455	0
197.675	0
197.895	0
198.115	0
198.335	0
198.555	0
198.775	0
198.995	0
199.214	0
199.434	0
199.654	0
199.874	0
200.094	3.67
200.313	2.83
200.533	1.32
200.753	1.33
200.973	3.1
201.192	3.27
201.412	1.18
201.632	2.04
201.851	3.54
202.071	2.33
202.291	1.4
202.51	1.19
202.73	2.46
202.95	1.6
203.169	0.87
203.389	1.54
203.608	2.24
203.828	1.82
204.047	1.14
204.267	1.99
204.486	2.33
204.706	1.96
204.925	1.89
205.145	1.27
205.364	2.8
205.583	3
205.803	1.33
206.022	0.96
206.242	1.57
206.461	1.44
206.68	1.28
206.9	1.4
207.119	2.27
207.338	1.9
207.557	0.94
207.777	1.07
207.996	1.48
208.215	2.17
208.434	0.92
208.654	0.73
208.873	1.55
209.092	2.1
209.311	0.79
209.53	0.95
209.749	1.03
209.968	1.11
210.187	0.77
210.407	0.7
210.626	1.3
210.845	1.7
211.064	0.95
211.283	0.72
211.502	1.74
211.721	1.14
211.94	1.08
212.159	1.17
212.377	1.61
212.596	1.31
212.815	1.02
213.034	1.22
213.253	1.26
213.472	1.21
213.691	1.07
213.91	0.69
214.128	0.74
214.347	1.42
214.566	0.46
214.785	0.53
215.003	1.17
215.222	1
215.441	0.86
215.66	0.22
215.878	0.92
216.097	1.28
216.316	0.74
216.534	0.92
216.753	0.93
216.972	0.64
217.19	0.72
217.409	0.62
217.627	0.76
217.846	0.6
218.064	0.98
218.283	0.59
218.501	1.32
218.72	1.22
218.938	0.7
219.157	0.66
219.375	1.06
219.594	1.05
219.812	0.5
220.031	0.51
220.249	1.39
220.467	1.08
220.686	0.81
220.904	0.41
221.122	0.76
221.341	1.05
221.559	0.81
221.777	0.44
221.995	0.83
222.214	0.82
222.432	0.52
222.65	0.73
222.868	0.67
223.086	0.68
223.305	0.92
223.523	0.68
223.741	1.13
223.959	0.59
224.177	0.46
224.395	0.47
224.613	0.71
224.831	0.95
225.049	0.26
225.267	0.55
225.485	0.74
225.703	0.51
225.921	0.57
226.139	0.41
226.357	0.78
226.575	0.73
226.793	0.46
227.011	1.74
227.229	0.79
227.447	0.86
227.665	0.48
227.883	0.39
228.1	0.68
228.318	0.79
228.536	0.37
228.754	0.43
228.972	0.68
229.189	0.74
229.407	0.43
229.625	0.56
229.843	0.91
230.06	0.68
230.278	0.52
230.496	0.51
230.713	0.6
230.931	0.67
231.149	0.47
231.366	0.21
231.584	0.63
231.801	1.17
232.019	0.37
232.236	0.29
232.454	0.46
232.671	0.67
232.889	0.34
233.106	0.35
233.324	0.63
233.541	0.49
233.759	0.51
233.976	0.43
234.194	0.47
234.411	0.66
234.628	0.38
234.846	0.43
235.063	0.65
235.28	0.57
235.498	0.46
235.715	0.3
235.932	0.72
236.149	0.46
236.367	0.36
236.584	0.53
236.801	0.51
237.018	0.64
237.236	0.47
237.453	0.18
237.67	0.77
237.887	0.47
238.104	0.34
238.321	0.42
238.538	0.4
238.755	0.75
238.973	0.24
239.19	0.34
239.407	0.56
239.624	0.45
239.841	0.31
240.058	0.33
240.275	0.45
240.492	0.51
240.709	0.44
240.925	0.41
241.142	0.56
241.359	0.38
241.576	0.28
241.793	0.22
242.01	0.48
242.227	0.66
242.444	0.47
242.66	0.57
242.877	0.56
243.094	0.46
243.311	0.4
243.527	0.35
243.744	0.58
243.961	0.46
244.178	0.37
244.394	0.38
244.611	0.6
244.828	0.71
245.044	0.32
245.261	0.34
245.477	0.52
245.694	0.56
245.911	0.26
246.127	0.4
246.344	0.67
246.56	0.51
246.777	0.36
246.993	0.49
247.21	0.44
247.426	0.56
247.643	0.35
247.859	0.28
248.076	0.36
248.292	0.69
248.508	0.32
248.725	0.45
248.941	0.49
249.157	0.66
249.374	0.25
249.59	0.38
249.806	0.42
250.023	0.6
250.239	0.3
250.455	0.28
250.671	0.49
250.888	0.46
251.104	0.46
251.32	0.35
251.536	0.38
251.752	0.36
251.969	0.43
252.185	0.38
252.401	0.72
252.617	0.46
252.833	0.35
253.049	0.36
253.265	0.39
253.481	0.47
253.697	0.3
253.913	0.3
254.129	0.52
254.345	0.45
254.561	0.33
254.777	0.36
254.993	0.46
255.209	0.39
255.425	0.34
255.641	0.27
255.857	0.51
256.073	0.43
256.288	0.23
256.504	0.28
256.72	0.44
256.936	0.6
257.152	0.39
257.367	0.32
257.583	0.4
257.799	0.54
258.015	0.24
258.23	0.26
258.446	0.61
258.662	0.41
258.877	0.22
259.093	0.2
259.309	0.37
259.524	0.41
259.74	0.24
259.955	0.19
260.171	0.34
260.387	0.45
260.602	0.34
260.818	0.36
261.033	0.32
261.249	0.4
261.464	0.26
261.68	0.22
261.895	0.43
262.11	0.43
262.326	0.31
262.541	0.2
262.757	0.37
262.972	0.42
263.187	0.38
263.403	0.37
263.618	0.45
263.833	0.32
264.049	0.34
264.264	0.32
264.479	0.4
264.694	0.48
264.91	0.26
265.125	0.31
265.34	0.46
265.555	0.58
265.77	0.32
265.986	0.24
266.201	0.41
266.416	0.48
266.631	0.26
266.846	0.29
267.061	0.44
267.276	0.42
267.491	0.11
267.706	0.43
267.921	0.35
268.136	0.38
268.351	0.3
268.566	0.22
268.781	0.46
268.996	0.44
269.211	0.34
269.426	0.24
269.641	0.35
269.856	0.51
270.071	0.27
270.285	0.15
270.5	0.35
270.715	0.41
270.93	0.25
271.145	0.36
271.359	0.48
271.574	0.33
271.789	0.31
272.004	0.31
272.218	0.32
272.433	0.34
272.648	0.24
272.862	0.4
273.077	0.34
273.292	0.36
273.506	0.31
273.721	0.28
273.936	0.42
274.15	0.43
274.365	0.25
274.579	0.41
274.794	0.42
275.008	0.43
275.223	0.17
275.437	0.26
275.652	0.43
275.866	0.37
276.081	0.3
276.295	0.45
276.509	0.37
276.724	0.33
276.938	0.37
277.153	0.33
277.367	0.4
277.581	0.27
277.796	0.28
278.01	0.17
278.224	0.37
278.438	0.47
278.653	0.28
278.867	0.24
279.081	0.38
279.295	0.29
279.51	0.33
279.724	0.2
279.938	0.39
280.152	0.42
280.366	0.28
280.58	0.31
280.794	0.47
281.008	0.39
281.222	0.31
281.437	0.52
281.651	0.34
281.865	0.44
282.079	0.35
282.293	0.17
282.507	0.29
282.721	0.27
282.935	0.21
283.148	0.18
283.362	0.25
283.576	0.25
283.79	0.24
284.004	0.26
284.218	0.44
284.432	0.29
284.646	0.28
284.859	0.24
285.073	0.26
285.287	0.32
285.501	0.27
285.714	0.28
285.928	0.36
286.142	0.35
286.356	0.25
286.569	0.23
286.783	0.4
286.997	0.33
287.21	0.31
287.424	0.27
287.637	0.24
287.851	0.23
288.065	0.33
288.278	0.25
288.492	0.31
288.705	0.23
288.919	0.27
289.132	0.16
289.346	0.38
289.559	0.18
289.773	0.18
289.986	0.29
290.2	0.34
290.413	0.4
290.626	0.22
290.84	0.22
291.053	0.32
291.267	0.32
291.48	0.26
291.693	0.25
291.906	0.26
292.12	0.27
292.333	0.23
292.546	0.21
292.76	0.44
292.973	0.3
293.186	0.34
293.399	0.22
293.612	0.34
293.826	0.29
294.039	0.24
294.252	0.19
294.465	0.31
294.678	0.27
294.891	0.25
295.104	0.19
295.317	0.25
295.53	0.32
295.743	0.27
295.956	0.2
296.169	0.4
296.382	0.32
296.595	0.24
296.808	0.22
297.021	0.3
297.234	0.33
297.447	0.26
297.66	0.34
297.873	0.4
298.086	0.32
298.299	0.22
298.511	0.19
298.724	0.3
298.937	0.25
299.15	0.16
299.363	0.22
299.575	0.33
299.788	0.29
300.001	0.24
300.213	0.21
300.426	0.24
300.639	0.25
300.852	0.23
301.064	0.26
301.277	0.4
301.489	0.29
301.702	0.25
301.915	0.28
302.127	0.25
302.34	0.28
302.552	0.25
302.765	0.22
302.977	0.31
303.19	0.23
303.402	0.23
303.615	0.2
303.827	0.25
304.04	0.23
304.252	0.29
304.464	0.27
304.677	0.42
304.889	0.35
305.102	0.16
305.314	0.21
305.526	0.29
305.739	0.29
305.951	0.22
306.163	0.23
306.375	0.35
306.588	0.22
306.8	0.23
307.012	0.16
307.224	0.32
307.436	0.38
307.649	0.15
307.861	0.29
308.073	0.3
308.285	0.25
308.497	0.2
308.709	0.17
308.921	0.22
309.133	0.33
309.346	0.21
309.558	0.24
309.77	0.25
309.982	0.39
310.194	0.27
310.406	0.23
310.617	0.36
310.829	0.25
311.041	0.26
311.253	0.21
311.465	0.26
311.677	0.29
311.889	0.29
312.101	0.21
312.313	0.33
312.524	0.31
312.736	0.21
312.948	0.21
313.16	0.34
313.372	0.32
313.583	0.26
313.795	0.22
314.007	0.2
314.218	0.29
314.43	0.22
314.642	0.23
314.853	0.12
315.065	0.28
315.277	0.27
315.488	0.28
315.7	0.32
315.912	0.27
316.123	0.27
316.335	0.23
316.546	0.34
316.758	0.24
316.969	0.22
317.181	0.27
317.392	0.28
317.604	0.34
317.815	0.21
318.026	0.27
318.238	0.25
318.449	0.34
318.661	0.16
318.872	0.17
319.083	0.23
319.295	0.25
319.506	0.22
319.717	0.28
319.929	0.29
320.14	0.24
320.351	0.26
320.562	0.2
320.774	0.29
320.985	0.27
321.196	0.21
321.407	0.15
321.618	0.32
321.829	0.28
322.041	0.29
322.252	0.2
322.463	0.32
322.674	0.28
322.885	0.2
323.096	0.25
323.307	0.24
323.518	0.24
323.729	0.23
323.94	0.21
324.151	0.24
324.362	0.31
324.573	0.27
324.784	0.22
324.995	0.33
325.206	0.24
325.417	0.24
325.628	0.19
325.838	0.3
326.049	0.27
326.26	0.32
326.471	0.24
326.682	0.24
326.892	0.26
327.103	0.14
327.314	0.18
327.525	0.33
327.735	0.27
327.946	0.19
328.157	0.21
328.368	0.29
328.578	0.27
328.789	0.3
328.999	0.26
329.21	0.25
329.421	0.35
329.631	0.22
329.842	0.2
330.052	0.31
330.263	0.21
330.473	0.27
330.684	0.24
330.894	0.23
331.105	0.23
331.315	0.26
331.526	0.19
331.736	0.36
331.947	0.31
332.157	0.24
332.367	0.17
332.578	0.25
332.788	0.34
332.999	0.3
333.209	0.24
333.419	0.17
333.629	0.3
333.84	0.26
334.05	0.24
334.26	0.34
334.47	0.3
334.681	0.32
334.891	0.21
335.101	0.29
335.311	0.34
335.521	0.25
335.732	0.22
335.942	0.35
336.152	0.26
336.362	0.22
336.572	0.27
336.782	0.28
336.992	0.21
337.202	0.25
337.412	0.2
337.622	0.27
337.832	0.25
338.042	0.27
338.252	0.2
338.462	0.24
338.672	0.27
338.882	0.17
339.092	0.24
339.302	0.31
339.511	0.32
339.721	0.2
339.931	0.14
340.141	0.34
340.351	0.28
340.561	0.23
340.77	0.28
340.98	0.25
341.19	0.28
341.4	0.24
341.609	0.19
341.819	0.21
342.029	0.2
342.238	0.29
342.448	0.2
342.658	0.31
342.867	0.24
343.077	0.25
343.286	0.22
343.496	0.24
343.706	0.36
343.915	0.21
344.125	0.23
344.334	0.3
344.544	0.18
344.753	0.23
344.963	0.22
345.172	0.21
345.381	0.29
345.591	0.16
345.8	0.28
346.01	0.29
346.219	0.31
346.428	0.1
346.638	0.23
346.847	0.27
347.056	0.36
347.266	0.19
347.475	0.23
347.684	0.28
347.893	0.32
348.103	0.29
348.312	0.17
348.521	0.24
348.73	0.26
348.94	0.25
349.149	0.21
349.358	0.26
349.567	0.2
349.776	0.18
349.985	0.2
350.194	0.28
350.403	0.32
350.612	0.16
350.821	0.24
351.03	0.25
351.239	0.2
351.448	0.26
351.657	0.17
351.866	0.34
352.075	0.24
352.284	0.29
352.493	0.18
352.702	0.36
352.911	0.29
353.12	0.25
353.329	0.14
353.538	0.29
353.746	0.24
353.955	0.18
354.164	0.27
354.373	0.22
354.582	0.32
354.79	0.22
354.999	0.25
355.208	0.21
355.416	0.36
355.625	0.18
355.834	0.19
356.042	0.3
356.251	0.25
356.46	0.18
356.668	0.23
356.877	0.34
357.085	0.31
357.294	0.17
357.503	0.25
357.711	0.26
357.92	0.35
358.128	0.25
358.337	0.23
358.545	0.32
358.754	0.22
358.962	0.3
359.17	0.25
359.379	0.29
359.587	0.25
359.796	0.23
360.004	0.31
360.212	0.28
360.421	0.31
360.629	0.26
360.837	0.23
361.046	0.32
361.254	0.4
361.462	0.25
361.67	0.22
361.879	0.29
362.087	0.34
362.295	0.25
362.503	0.24
362.711	0.17
362.92	0.24
363.128	0.22
363.336	0.21
363.544	0.18
363.752	0.2
363.96	0.25
364.168	0.19
364.376	0.25
364.584	0.27
364.792	0.28
365	0.26
365.208	0.24
365.416	0.29
365.624	0.33
365.832	0.24
366.04	0.33
366.248	0.31
366.456	0.27
366.664	0.23
366.872	0.25
367.079	0.24
367.287	0.21
367.495	0.27
367.703	0.2
367.911	0.25
368.118	0.22
368.326	0.26
368.534	0.19
368.742	0.32
368.949	0.17
369.157	0.22
369.365	0.27
369.572	0.24
369.78	0.2
369.988	0.29
370.195	0.24
370.403	0.34
370.61	0.22
370.818	0.21
371.026	0.38
371.233	0.24
371.441	0.25
371.648	0.23
371.856	0.25
372.063	0.26
372.271	0.25
372.478	0.19
372.685	0.22
372.893	0.31
373.1	0.21
373.308	0.22
373.515	0.37
373.722	0.36
373.93	0.22
374.137	0.27
374.344	0.34
374.552	0.34
374.759	0.28
374.966	0.22
375.173	0.25
375.381	0.35
375.588	0.22
375.795	0.13
376.002	0.27
376.209	0.25
376.417	0.22
376.624	0.27
376.831	0.3
377.038	0.24
377.245	0.18
377.452	0.2
377.659	0.28
377.866	0.2
378.073	0.27
378.28	0.23
378.487	0.32
378.694	0.32
378.901	0.23
379.108	0.22
379.315	0.32
379.522	0.36
379.729	0.26
379.936	0.24
380.143	0.3
380.35	0.31
380.557	0.21
380.763	0.24
380.97	0.28
381.177	0.32
381.384	0.27
381.591	0.2
381.797	0.3
382.004	0.31
382.211	0.26
382.418	0.22
382.624	0.28
382.831	0.32
383.038	0.26
383.244	0.32
383.451	0.27
383.658	0.31
383.864	0.29
384.071	0.25
384.277	0.37
384.484	0.25
384.69	0.33
384.897	0.26
385.103	0.25
385.31	0.22
385.516	0.25
385.723	0.25
385.929	0.29
386.136	0.25
386.342	0.31
386.549	0.24
386.755	0.34
386.961	0.34
387.168	0.25
387.374	0.29
387.58	0.29
387.787	0.26
387.993	0.26
388.199	0.24
388.406	0.24
388.612	0.26
388.818	0.28
389.024	0.24
389.231	0.27
389.437	0.39
389.643	0.28
389.849	0.27
390.055	0.31
390.261	0.3
390.467	0.36
390.674	0.26
390.88	0.3
391.086	0.31
391.292	0.17
391.498	0.34
391.704	0.28
391.91	0.25
392.116	0.3
392.322	0.19
392.528	0.34
392.734	0.29
392.94	0.27
393.146	0.32
393.352	0.34
393.557	0.29
393.763	0.32
393.969	0.34
394.175	0.3
394.381	0.29
394.587	0.26
394.792	0.33
394.998	0.36
395.204	0.39
395.41	0.21
395.615	0.34
395.821	0.32
396.027	0.37
396.233	0.24
396.438	0.31
396.644	0.39
396.85	0.33
397.055	0.31
397.261	0.34
397.466	0.45
397.672	0.35
397.878	0.39
398.083	0.37
398.289	0.31
398.494	0.44
398.7	0.38
398.905	0.26
399.111	0.46
399.316	0.28
399.522	0.33
399.727	0.32
399.932	0.31
400.138	0.33
400.343	0.35
400.549	0.32
400.754	0.3
400.959	0.39
401.165	0.37
401.37	0.38
401.575	0.5
401.78	0.37
401.986	0.38
402.191	0.28
402.396	0.35
402.601	0.36
402.807	0.41
403.012	0.38
403.217	0.41
403.422	0.42
403.627	0.39
403.832	0.35
404.037	0.45
404.243	0.48
404.448	0.42
404.653	0.47
404.858	0.48
405.063	0.42
405.268	0.41
405.473	0.39
405.678	0.43
405.883	0.65
406.088	0.48
406.293	0.38
406.498	0.43
406.703	0.51
406.907	0.45
407.112	0.48
407.317	0.54
407.522	0.57
407.727	0.47
407.932	0.53
408.136	0.68
408.341	0.54
408.546	0.59
408.751	0.57
408.956	0.57
409.16	0.71
409.365	0.57
409.57	0.57
409.774	0.66
409.979	0.71
410.184	0.68
410.388	0.62
410.593	0.79
410.798	0.79
411.002	0.76
411.207	0.8
411.411	0.83
411.616	0.75
411.82	0.84
412.025	0.89
412.229	0.88
412.434	0.94
412.638	0.89
412.843	0.91
413.047	0.96
413.252	0.95
413.456	1.03
413.66	1.08
413.865	1.07
414.069	1.13
414.273	1.12
414.478	1.14
414.682	1.14
414.886	1.27
415.091	1.21
415.295	1.24
415.499	1.43
415.703	1.39
415.908	1.47
416.112	1.39
416.316	1.61
416.52	1.55
416.724	1.6
416.929	1.61
417.133	1.89
417.337	1.75
417.541	1.76
417.745	1.84
417.949	2
418.153	2.06
418.357	1.98
418.561	2.31
418.765	2.25
418.969	2.39
419.173	2.49
419.377	2.33
419.581	2.72
419.785	2.69
419.989	2.67
420.193	2.87
420.397	2.95
420.601	3.15
420.804	3.17
421.008	3.15
421.212	3.28
421.416	3.32
421.62	3.29
421.823	3.37
422.027	3.6
422.231	3.56
422.435	3.55
422.638	3.64
422.842	3.77
423.046	3.83
423.249	4.01
423.453	4.02
423.657	4.18
423.86	4.27
424.064	4.41
424.268	4.56
424.471	4.55
424.675	4.82
424.878	4.92
425.082	4.93
425.285	5.33
425.489	5.16
425.692	5.3
425.896	5.34
426.099	5.52
426.303	5.71
426.506	5.75
426.71	6.04
426.913	6.27
427.116	6.44
427.32	6.43
427.523	6.51
427.726	6.84
427.93	6.89
428.133	7.18
428.336	7.35
428.54	7.55
428.743	7.83
428.946	8.04
429.149	8.02
429.353	7.97
429.556	8.12
429.759	8.13
429.962	8.29
430.165	8.49
430.368	8.14
430.571	8.15
430.775	8.21
430.978	8.15
431.181	8.25
431.384	8.29
431.587	8.49
431.79	8.78
431.993	8.74
432.196	9.04
432.399	9.38
432.602	9.49
432.805	9.62
433.008	10.25
433.211	10.04
433.414	10.45
433.616	10.41
433.819	10.38
434.022	10.55
434.225	10.73
434.428	10.78
434.631	11.21
434.833	10.94
435.036	11.26
435.239	11.41
435.442	11.48
435.645	11.56
435.847	11.61
436.05	12.09
436.253	12.32
436.455	12.22
436.658	12.04
436.861	12.53
437.063	12.46
437.266	12.4
437.468	12.93
437.671	13.21
437.874	13.28
438.076	13.04
438.279	13.51
438.481	13.68
438.684	14.34
438.886	13.94
439.089	14.26
439.291	14.26
439.494	14.67
439.696	14.84
439.899	15.42
440.101	15.65
440.303	15.81
440.506	16.57
440.708	16.32
440.91	16.6
441.113	16.74
441.315	17.06
441.517	16.89
441.72	17.5
441.922	16.97
442.124	16.94
442.326	17.42
442.529	17.65
442.731	17.46
442.933	17.86
443.135	17.59
443.337	17.53
443.539	18.07
443.742	17.8
443.944	18.47
444.146	18.23
444.348	18.15
444.55	17.98
444.752	18.3
444.954	18.25
445.156	18.08
445.358	18.5
445.56	18.88
445.762	18.57
445.964	18.97
446.166	18.7
446.368	18.56
446.57	18.61
446.772	18.22
446.974	18.03
447.175	18.32
447.377	17.89
447.579	18.43
447.781	18.05
447.983	17.81
448.184	17.38
448.386	17.69
448.588	17.28
448.79	17.12
448.991	17.49
449.193	17.46
449.395	16.76
449.597	16.46
449.798	16.25
450	15.89
450.202	15.8
450.403	15.76
450.605	15.7
450.806	15.26
451.008	15.14
451.21	14.97
451.411	14.47
451.613	13.71
451.814	13.94
452.016	13.87
452.217	13.21
452.419	13.23
452.62	12.77
452.821	12.52
453.023	12.57
453.224	12.08
453.426	11.84
453.627	10.97
453.828	11.11
454.03	11.2
454.231	11.1
454.432	11.01
454.634	10.74
454.835	10.44
455.036	10.27
455.238	9.97
455.439	9.75
455.64	9.4
455.841	9.3
456.042	9.41
456.244	9.04
456.445	8.84
456.646	8.5
456.847	8.5
457.048	8.27
457.249	8.33
457.45	8.19
457.651	7.65
457.852	7.49
458.054	7.15
458.255	7.06
458.456	7.25
458.657	6.96
458.858	6.68
459.058	6.59
459.259	6.62
459.46	6.31
459.661	6.31
459.862	6.44
460.063	6.29
460.264	6.19
460.465	5.95
460.666	6.05
460.866	5.69
461.067	5.44
461.268	5.41
461.469	5.47
461.67	5.27
461.87	5.18
462.071	5.22
462.272	5.05
462.473	5.02
462.673	5.17
462.874	5.12
463.075	5.09
463.275	5.1
463.476	5.21
463.676	5.08
463.877	4.88
464.078	4.89
464.278	4.96
464.479	4.8
464.679	4.76
464.88	4.69
465.08	4.65
465.281	4.38
465.481	4.2
465.682	4.08
465.882	4.11
466.083	4.08
466.283	3.92
466.483	3.83
466.684	3.73
466.884	3.58
467.085	3.6
467.285	3.68
467.485	3.52
467.686	3.48
467.886	3.43
468.086	3.28
468.286	3.34
468.487	3.41
468.687	3.25
468.887	3.21
469.087	3.37
469.287	3.2
469.488	2.97
469.688	3.1
469.888	3.19
470.088	3.11
470.288	2.99
470.488	3.04
470.688	2.84
470.888	2.77
471.088	2.68
471.288	2.83
471.488	2.76
471.688	2.71
471.888	2.62
472.088	2.79
472.288	2.69
472.488	2.53
472.688	2.55
472.888	2.58
473.088	2.6
473.288	2.44
473.488	2.45
473.688	2.56
473.887	2.44
474.087	2.41
474.287	2.41
474.487	2.37
474.687	2.48
474.886	2.3
475.086	2.3
475.286	2.3
475.486	2.23
475.685	2.22
475.885	2.15
476.085	2.25
476.284	2.25
476.484	2.29
476.684	2.17
476.883	2.28
477.083	2.13
477.282	2.07
477.482	2.19
477.681	2.12
477.881	2.04
478.08	2.05
478.28	1.99
478.479	2.06
478.679	2.12
478.878	2.05
479.078	2.02
479.277	2.04
479.477	2.08
479.676	1.98
479.875	2.03
480.075	1.93
480.274	2.05
480.473	2.02
480.673	2.02
480.872	2.07
481.071	2.03
481.271	2.04
481.47	1.96
481.669	2
481.868	1.95
482.067	1.97
482.267	1.88
482.466	1.93
482.665	1.93
482.864	1.97
483.063	1.91
483.262	2
483.461	2.03
483.661	2.08
483.86	2
484.059	2.05
484.258	2.04
484.457	2
484.656	1.98
484.855	2.08
485.054	1.91
485.253	1.97
485.452	1.96
485.651	2.05
485.849	2.01
486.048	2
486.247	2
486.446	2.05
486.645	1.97
486.844	2.02
487.043	2.02
487.241	2.06
487.44	2.04
487.639	2.12
487.838	2.07
488.037	2.11
488.235	2.23
488.434	2.17
488.633	2.06
488.831	2.25
489.03	2.21
489.229	2.2
489.427	2.21
489.626	2.25
489.825	2.26
490.023	2.26
490.222	2.26
490.42	2.29
490.619	2.34
490.817	2.36
491.016	2.32
491.214	2.43
491.413	2.4
491.611	2.38
491.81	2.38
492.008	2.44
492.207	2.55
492.405	2.58
492.604	2.43
492.802	2.55
493	2.61
493.199	2.63
493.397	2.62
493.595	2.71
493.794	2.67
493.992	2.77
494.19	2.71
494.388	2.81
494.587	2.76
494.785	2.8
494.983	2.71
495.181	2.87
495.379	2.9
495.578	2.87
495.776	2.96
495.974	2.93
496.172	2.96
496.37	3.08
496.568	3.13
496.766	3.07
496.964	3.21
497.162	3.19
497.36	3.22
497.558	3.28
497.756	3.32
497.954	3.26
498.152	3.33
498.35	3.44
498.548	3.36
498.746	3.39
498.944	3.4
499.142	3.44
499.34	3.56
499.538	3.64
499.736	3.53
499.933	3.66
500.131	3.62
500.329	3.77
500.527	3.77
500.725	3.87
500.922	3.87
501.12	3.85
501.318	3.99
501.516	3.94
501.713	4.04
501.911	4.07
502.109	3.93
502.306	4.09
502.504	4.03
502.701	4.09
502.899	4.17
503.097	4.4
503.294	4.22
503.492	4.34
503.689	4.38
503.887	4.38
504.084	4.49
504.282	4.46
504.479	4.44
504.677	4.56
504.874	4.5
505.072	4.45
505.269	4.68
505.466	4.7
505.664	4.78
505.861	4.67
506.059	4.78
506.256	4.8
506.453	4.86
506.651	5.02
506.848	5.03
507.045	4.95
507.242	4.98
507.44	5.02
507.637	5.09
507.834	5.07
508.031	5.25
508.229	5.18
508.426	5.12
508.623	5.33
508.82	5.3
509.017	5.23
509.214	5.26
509.411	5.35
509.608	5.37
509.805	5.5
510.003	5.44
510.2	5.56
510.397	5.65
510.594	5.51
510.791	5.67
510.988	5.7
511.184	5.67
511.381	5.57
511.578	5.68
511.775	5.89
511.972	5.73
512.169	5.78
512.366	5.86
512.563	6
512.76	6.01
512.956	6.08
513.153	5.98
513.35	5.98
513.547	5.93
513.744	6.1
513.94	6.03
514.137	6.16
514.334	6.1
514.53	6.16
514.727	6.39
514.924	6.31
515.12	6.27
515.317	6.25
515.514	6.2
515.71	6.21
515.907	6.43
516.103	6.45
516.3	6.35
516.497	6.5
516.693	6.58
516.89	6.56
517.086	6.49
517.283	6.52
517.479	6.39
517.676	6.62
517.872	6.66
518.068	6.67
518.265	6.64
518.461	6.61
518.658	6.76
518.854	6.73
519.05	6.8
519.247	6.86
519.443	6.78
519.639	6.94
519.836	6.77
520.032	6.79
520.228	6.96
520.424	6.96
520.621	6.96
520.817	7.01
521.013	6.91
521.209	7.13
521.405	7.08
521.601	7.05
521.798	7
521.994	7.11
522.19	7.02
522.386	7.01
522.582	7.16
522.778	7.27
522.974	7.07
523.17	7.2
523.366	7.09
523.562	7.27
523.758	7.17
523.954	7.04
524.15	7.23
524.346	7.3
524.542	7.28
524.738	7.21
524.934	7.38
525.129	7.36
525.325	7.19
525.521	7.25
525.717	7.5
525.913	7.35
526.109	7.41
526.304	7.49
526.5	7.44
526.696	7.51
526.892	7.44
527.087	7.6
527.283	7.56
527.479	7.49
527.674	7.32
527.87	7.56
528.066	7.47
528.261	7.51
528.457	7.42
528.653	7.65
528.848	7.56
529.044	7.62
529.239	7.54
529.435	7.53
529.63	7.51
529.826	7.58
530.021	7.57
530.217	7.67
530.412	7.6
530.608	7.66
530.803	7.63
530.999	7.52
531.194	7.61
531.389	7.72
531.585	7.72
531.78	7.81
531.975	7.75
532.171	7.78
532.366	7.78
532.561	7.8
532.757	7.74
532.952	7.84
533.147	7.73
533.342	7.82
533.538	7.7
533.733	7.93
533.928	7.58
534.123	7.76
534.318	7.85
534.513	7.71
534.709	7.89
534.904	7.86
535.099	7.89
535.294	7.84
535.489	7.95
535.684	7.87
535.879	7.9
536.074	7.92
536.269	7.94
536.464	8
536.659	7.84
536.854	7.9
537.049	7.97
537.244	7.92
537.439	7.94
537.634	7.93
537.828	7.98
538.023	8.01
538.218	7.9
538.413	7.85
538.608	7.95
538.803	8
538.997	7.9
539.192	7.95
539.387	7.9
539.582	7.93
539.776	7.86
539.971	8.07
540.166	8.04
540.36	7.92
540.555	8.1
540.75	8.04
540.944	8.03
541.139	8.02
541.334	7.97
541.528	8.05
541.723	8.13
541.917	8.16
542.112	7.98
542.306	7.85
542.501	8
542.695	7.93
542.89	7.9
543.084	7.98
543.279	8.04
543.473	8.06
543.668	8.11
543.862	7.89
544.056	7.96
544.251	8.07
544.445	8.09
544.64	8.11
544.834	7.85
545.028	7.68
545.222	8.07
545.417	8.23
545.611	8.14
545.805	8.04
546	7.9
546.194	8.06
546.388	8.1
546.582	8
546.776	7.95
546.97	8.09
547.165	8.05
547.359	8.02
547.553	8
547.747	8.14
547.941	8.24
548.135	8.08
548.329	8.13
548.523	8.13
548.717	8.08
548.911	8.01
549.105	8.05
549.299	8.1
549.493	8.12
549.687	8.02
549.881	8.14
550.075	8.07
550.269	8.03
550.463	8.15
550.657	8.09
550.85	8.08
551.044	8.13
551.238	8.11
551.432	8.07
551.626	8.15
551.82	8.12
552.013	8.02
552.207	8.16
552.401	8.16
552.594	8.11
552.788	8.03
552.982	8.09
553.176	7.99
553.369	8.24
553.563	8.2
553.756	8.13
553.95	8.15
554.144	8.2
554.337	8.2
554.531	7.96
554.724	8.1
554.918	8.22
555.111	8.1
555.305	8.13
555.498	8.08
555.692	8.21
555.885	8.14
556.079	8.04
556.272	8.17
556.466	8.14
556.659	8.02
556.852	8.19
557.046	8.1
557.239	7.95
557.432	8.07
557.626	8.2
557.819	8.17
558.012	8.16
558.206	8.23
558.399	8.14
558.592	8.11
558.785	8.03
558.979	8.11
559.172	8.14
559.365	8.12
559.558	8.15
559.751	8.04
559.944	8.19
560.138	8.07
560.331	8.13
560.524	8.23
560.717	8.11
560.91	8.11
561.103	8.2
561.296	8.02
561.489	8.17
561.682	8.22
561.875	8.17
562.068	8.22
562.261	8.07
562.454	8.19
562.647	8.09
562.84	8.19
563.032	8.19
563.225	8.11
563.418	8.1
563.611	8.19
563.804	8.16
563.997	8.02
564.19	7.88
564.382	8.19
564.575	8.1
564.768	8.11
564.961	8.19
565.153	8.05
565.346	8
565.539	8.11
565.731	8.11
565.924	8.15
566.117	8.24
566.309	8.15
566.502	8.09
566.695	8.01
566.887	8.13
567.08	8.06
567.272	8.12
567.465	7.98
567.657	8.14
567.85	7.98
568.042	8.2
568.235	8.08
568.427	7.98
568.62	8.13
568.812	8.05
569.005	8.19
569.197	7.99
569.389	8.15
569.582	8.13
569.774	8.1
569.966	7.94
570.159	7.96
570.351	7.93
570.543	8.03
570.736	8.01
570.928	7.89
571.12	8.1
571.312	8.01
571.505	7.81
571.697	8
571.889	8.02
572.081	8
572.273	7.87
572.465	8
572.658	8.05
572.85	8.01
573.042	8.03
573.234	7.95
573.426	7.98
573.618	7.96
573.81	8.03
574.002	7.98
574.194	8.02
574.386	7.95
574.578	7.76
574.77	7.94
574.962	7.94
575.154	7.85
575.346	7.83
575.538	7.83
575.729	7.85
575.921	7.95
576.113	7.95
576.305	7.93
576.497	8.05
576.689	7.76
576.88	7.79
577.072	8.01
577.264	7.9
577.456	7.9
577.647	7.82
577.839	8.02
578.031	7.89
578.223	7.83
578.414	7.7
578.606	7.82
578.798	7.92
578.989	7.85
579.181	7.94
579.372	7.79
579.564	7.85
579.755	7.77
579.947	7.7
580.139	7.84
580.33	7.61
580.522	7.76
580.713	7.77
580.905	7.79
581.096	7.87
581.287	7.73
581.479	7.73
581.67	7.76
581.862	7.7
582.053	7.7
582.244	7.54
582.436	7.79
582.627	7.68
582.818	7.62
583.01	7.71
583.201	7.72
583.392	7.68
583.583	7.64
583.775	7.53
583.966	7.65
584.157	7.62
584.348	7.73
584.54	7.57
584.731	7.65
584.922	7.56
585.113	7.47
585.304	7.58
585.495	7.64
585.686	7.63
585.877	7.6
586.068	7.72
586.259	7.59
586.45	7.53
586.641	7.53
586.832	7.59
587.023	7.56
587.214	7.47
587.405	7.61
587.596	7.42
587.787	7.4
587.978	7.49
588.169	7.35
588.36	7.41
588.551	7.43
588.742	7.42
588.932	7.53
589.123	7.25
589.314	7.55
589.505	7.27
589.696	7.39
589.886	7.31
590.077	7.38
590.268	7.28
590.458	7.15
590.649	7.16
590.84	7.28
591.03	7.28
591.221	7.31
591.412	7.17
591.602	7.37
591.793	7.24
591.984	7.24
592.174	7.22
592.365	7.38
592.555	7.1
592.746	7.14
592.936	7.23
593.127	7.19
593.317	7.2
593.508	7.22
593.698	7.14
593.889	7.11
594.079	7.14
594.269	7.13
594.46	7.04
594.65	7.14
594.84	7.14
595.031	6.98
595.221	7.02
595.411	7.02
595.602	7.03
595.792	7
595.982	6.89
596.172	7.02
596.363	6.94
596.553	6.84
596.743	6.97
596.933	6.95
597.123	6.96
597.314	6.81
597.504	6.76
597.694	6.93
597.884	6.88
598.074	6.89
598.264	6.85
598.454	6.84
598.644	6.78
598.834	6.77
599.024	6.68
599.214	6.7
599.404	6.78
599.594	6.79
599.784	6.66
599.974	6.74
600.164	6.72
600.354	6.63
600.544	6.6
600.734	6.71
600.924	6.67
601.114	6.56
601.303	6.53
601.493	6.52
601.683	6.52
601.873	6.53
602.063	6.49
602.252	6.53
602.442	6.45
602.632	6.45
602.821	6.44
603.011	6.48
603.201	6.42
603.39	6.4
603.58	6.34
603.77	6.43
603.959	6.48
604.149	6.38
604.339	6.36
604.528	6.42
604.718	6.41
604.907	6.34
605.097	6.24
605.286	6.32
605.476	6.24
605.665	6.24
605.855	6.22
606.044	6.3
606.234	6.3
606.423	6.17
606.612	6.15
606.802	6.11
606.991	6.2
607.181	6.17
607.37	6.18
607.559	5.95
607.749	6.15
607.938	5.99
608.127	6.01
608.316	5.98
608.506	6.04
608.695	6.1
608.884	5.99
609.073	6.01
609.263	6.05
609.452	6.05
609.641	5.85
609.83	5.86
610.019	5.99
610.208	5.85
610.397	5.9
610.586	5.88
610.775	5.83
610.965	5.84
611.154	5.68
611.343	5.81
611.532	5.77
611.721	5.81
611.91	5.71
612.099	5.75
612.287	5.69
612.476	5.63
612.665	5.76
612.854	5.63
613.043	5.66
613.232	5.63
613.421	5.53
613.61	5.59
613.798	5.61
613.987	5.55
614.176	5.55
614.365	5.52
614.554	5.52
614.742	5.54
614.931	5.39
615.12	5.51
615.309	5.49
615.497	5.43
615.686	5.35
615.875	5.44
616.063	5.36
616.252	5.34
616.44	5.37
616.629	5.28
616.818	5.38
617.006	5.27
617.195	5.21
617.383	5.27
617.572	5.17
617.76	5.21
617.949	5.22
618.137	5.29
618.326	5.34
618.514	4.97
618.703	4.99
618.891	5.19
619.079	5.03
619.268	5.17
619.456	4.97
619.644	5.14
619.833	5.04
620.021	5.01
620.209	4.91
620.398	5.1
620.586	4.93
620.774	4.98
620.962	4.92
621.151	5.04
621.339	4.95
621.527	4.82
621.715	4.81
621.903	4.86
622.092	4.83
622.28	5
622.468	4.7
622.656	4.79
622.844	4.78
623.032	4.79
623.22	4.7
623.408	4.86
623.596	4.76
623.784	4.74
623.972	4.63
624.16	4.63
624.348	4.72
624.536	4.73
624.724	4.53
624.912	4.66
625.1	4.63
625.288	4.62
625.476	4.57
625.664	4.55
625.851	4.55
626.039	4.56
626.227	4.51
626.415	4.52
626.603	4.39
626.79	4.47
626.978	4.53
627.166	4.46
627.354	4.39
627.541	4.33
627.729	4.26
627.917	4.53
628.104	4.43
628.292	4.26
628.48	4.37
628.667	4.27
628.855	4.38
629.042	4.34
629.23	4.29
629.418	4.23
629.605	4.22
629.793	4.19
629.98	4.13
630.168	4.19
630.355	4.21
630.543	4.18
630.73	4.07
630.917	4.12
631.105	4.23
631.292	4.08
631.48	4.15
631.667	4.19
631.854	4.04
632.042	4.02
632.229	3.98
632.416	4.04
632.604	4.04
632.791	3.87
632.978	3.99
633.165	3.89
633.353	4
633.54	4
633.727	3.77
633.914	3.85
634.101	3.81
634.289	3.92
634.476	3.78
634.663	3.76
634.85	3.87
635.037	3.78
635.224	3.66
635.411	3.81
635.598	3.72
635.785	3.73
635.972	3.72
636.159	3.75
636.346	3.61
636.533	3.61
636.72	3.62
636.907	3.65
637.094	3.68
637.281	3.46
637.468	3.56
637.655	3.61
637.842	3.57
638.029	3.56
638.215	3.53
638.402	3.52
638.589	3.51
638.776	3.49
638.963	3.47
639.149	3.54
639.336	3.57
639.523	3.41
639.709	3.39
639.896	3.39
640.083	3.36
640.27	3.42
640.456	3.35
640.643	3.38
640.829	3.31
641.016	3.32
641.203	3.26
641.389	3.33
641.576	3.27
641.762	3.24
641.949	3.25
642.135	3.24
642.322	3.19
642.508	3.14
642.695	3.23
642.881	3.13
643.068	3.14
643.254	3.15
643.441	3.17
643.627	3.19
643.813	3.05
644	3.15
644.186	3
644.372	3.11
644.559	3.05
644.745	3.06
644.931	2.97
645.118	2.99
645.304	3.04
645.49	2.95
645.676	2.95
645.862	2.94
646.049	3.03
646.235	3.03
646.421	3.07
646.607	3
646.793	2.9
646.979	2.81
647.165	2.9
647.352	2.9
647.538	2.93
647.724	2.82
647.91	2.81
648.096	2.87
648.282	2.88
648.468	2.78
648.654	2.87
648.84	2.85
649.026	2.77
649.212	2.71
649.397	2.65
649.583	2.75
649.769	2.76
649.955	2.66
650.141	2.72
650.327	2.75
650.513	2.63
650.698	2.68
650.884	2.57
651.07	2.71
651.256	2.63
651.442	2.65
651.627	2.53
651.813	2.63
651.999	2.58
652.184	2.58
652.37	2.56
652.556	2.56
652.741	2.62
652.927	2.4
653.113	2.47
653.298	2.53
653.484	2.46
653.669	2.43
653.855	2.49
654.04	2.53
654.226	2.48
654.412	2.42
654.597	2.4
654.782	2.43
654.968	2.44
655.153	2.39
655.339	2.29
655.524	2.35
655.71	2.4
655.895	2.34
656.08	2.31
656.266	2.41
656.451	2.35
656.636	2.28
656.822	2.34
657.007	2.29
657.192	2.3
657.378	2.21
657.563	2.27
657.748	2.27
657.933	2.26
658.118	2.16
658.304	2.23
658.489	2.25
658.674	2.21
658.859	2.17
659.044	2.2
659.229	2.17
659.414	2.17
659.599	2.14
659.785	2.08
659.97	2.11
660.155	2.13
660.34	2.13
660.525	2.05
660.71	2.03
660.895	2.11
661.08	2.08
661.264	2.02
661.449	2.16
661.634	2.04
661.819	2.07
662.004	2.06
662.189	1.98
662.374	1.94
662.559	1.94
662.743	1.93
662.928	1.99
663.113	1.93
663.298	1.93
663.483	1.91
663.667	1.96
663.852	1.9
664.037	2.01
664.221	1.84
664.406	1.99
664.591	1.91
664.775	1.92
664.96	1.83
665.145	1.88
665.329	1.94
665.514	1.81
665.698	1.79
665.883	1.76
666.068	1.89
666.252	1.84
666.437	1.75
666.621	1.82
666.806	1.82
666.99	1.81
667.174	1.76
667.359	1.86
667.543	1.73
667.728	1.73
667.912	1.62
668.096	1.79
668.281	1.75
668.465	1.75
668.649	1.72
668.834	1.63
669.018	1.71
669.202	1.68
669.387	1.65
669.571	1.78
669.755	1.6
669.939	1.67
670.124	1.64
670.308	1.73
670.492	1.67
670.676	1.68
670.86	1.62
671.044	1.55
671.228	1.66
671.413	1.57
671.597	1.58
671.781	1.61
671.965	1.64
672.149	1.54
672.333	1.59
672.517	1.52
672.701	1.6
672.885	1.57
673.069	1.44
673.253	1.69
673.437	1.55
673.621	1.47
673.804	1.53
673.988	1.54
674.172	1.46
674.356	1.43
674.54	1.48
674.724	1.62
674.908	1.45
675.091	1.46
675.275	1.51
675.459	1.54
675.643	1.38
675.826	1.49
676.01	1.4
676.194	1.47
676.377	1.46
676.561	1.45
676.745	1.46
676.928	1.46
677.112	1.5
677.296	1.39
677.479	1.36
677.663	1.33
677.846	1.39
678.03	1.38
678.213	1.28
678.397	1.45
678.58	1.38
678.764	1.37
678.947	1.32
679.131	1.39
679.314	1.4
679.498	1.32
679.681	1.37
679.865	1.39
680.048	1.31
680.231	1.3
680.415	1.3
680.598	1.3
680.781	1.26
680.965	1.32
681.148	1.25
681.331	1.28
681.514	1.34
681.698	1.19
681.881	1.21
682.064	1.27
682.247	1.31
682.43	1.15
682.614	1.19
682.797	1.34
682.98	1.25
683.163	1.15
683.346	1.15
683.529	1.22
683.712	1.11
683.895	1.21
684.078	1.13
684.261	1.15
684.444	1.25
684.627	1.22
684.81	1.12
684.993	1.16
685.176	1.19
685.359	1.11
685.542	1.08
685.725	1.27
685.908	1.19
686.091	1.1
686.274	1.18
686.457	1.19
686.639	1.16
686.822	1.15
687.005	1.09
687.188	1.16
687.371	1.25
687.553	1.16
687.736	1.17
687.919	1.22
688.102	1.08
688.284	1.13
688.467	1.07
688.65	1.09
688.832	1.01
689.015	1.06
689.197	0.97
689.38	1.16
689.563	1.19
689.745	0.92
689.928	0.98
690.11	1.02
690.293	1.05
690.475	0.95
690.658	1.06
690.84	1.05
691.023	0.98
691.205	0.98
691.388	1
691.57	1.08
691.752	1.09
691.935	0.95
692.117	0.92
692.3	1.07
692.482	0.93
692.664	1.01
692.847	0.93
693.029	1.09
693.211	1.01
693.393	0.89
693.576	0.91
693.758	0.97
693.94	0.98
694.122	0.89
694.304	0.86
694.487	0.92
694.669	1.03
694.851	0.86
695.033	0.91
695.215	0.89
695.397	0.86
695.579	0.87
695.761	0.85
695.943	0.82
696.125	1.01
696.308	0.89
696.49	0.73
696.671	1.05
696.853	0.84
697.035	1.13
697.217	0.84
697.399	0.99
697.581	0.81
697.763	0.86
697.945	0.84
698.127	0.9
698.309	0.94
698.491	0.82
698.672	0.88
698.854	0.96
699.036	0.92
699.218	0.78
699.399	0.83
699.581	0.97
699.763	0.83
699.945	0.78
700.126	0.75
700.308	0.78
700.49	0.8
700.671	0.69
700.853	0.69
701.035	0.77
701.216	0.83
701.398	0.77
701.579	0.77
701.761	0.83
701.943	0.77
702.124	0.7
702.306	0.77
702.487	0.94
702.669	0.8
702.85	0.78
703.031	0.7
703.213	0.91
703.394	0.92
703.576	0.69
703.757	0.92
703.938	0.8
704.12	0.95
704.301	0.69
704.483	0.64
704.664	0.79
704.845	0.84
705.026	0.81
705.208	0.71
705.389	0.79
705.57	0.76
705.751	0.79
705.933	0.79
706.114	0.83
706.295	0.75
706.476	0.69
706.657	0.79
706.838	0.76
707.02	0.82
707.201	0.6
707.382	0.65
707.563	0.74
707.744	0.7
707.925	0.63
708.106	0.63
708.287	0.73
708.468	0.81
708.649	0.68
708.83	0.75
709.011	0.67
709.192	0.75
709.373	0.61
709.554	0.6
709.734	0.74
709.915	0.73
710.096	0.6
710.277	0.56
710.458	0.66
710.639	0.72
710.819	0.51
711	0.57
711.181	0.73
711.362	0.8
711.542	0.69
711.723	0.59
711.904	0.76
712.085	0.67
712.265	0.66
712.446	0.57
712.627	0.56
712.807	0.61
712.988	0.59
713.168	0.5
713.349	0.67
713.53	0.46
713.71	0.65
713.891	0.55
714.071	0.61
714.252	0.53
714.432	0.54
714.613	0.5
714.793	0.66
714.974	0.77
715.154	0.69
715.334	0.71
715.515	0.74
715.695	0.6
715.876	0.61
716.056	0.55
716.236	0.6
716.417	0.62
716.597	0.42
716.777	0.84
716.957	0.59
717.138	0.63
717.318	0.58
717.498	0.47
717.678	0.63
717.859	0.62
718.039	0.48
718.219	0.51
718.399	0.6
718.579	0.55
718.759	0.41
718.939	0.56
719.12	0.58
719.3	0.6
719.48	0.45
719.66	0.41
719.84	0.77
720.02	0.61
720.2	0.47
720.38	0.5
720.56	0.74
720.74	0.5
720.92	0.56
721.1	0.71
721.279	0.64
721.459	0.6
721.639	0.48
721.819	0.56
721.999	0.46
722.179	0.61
722.359	0.41
722.538	0.54
722.718	0.53
722.898	0.49
723.078	0.51
723.257	0.47
723.437	0.62
723.617	0.56
723.797	0.45
723.976	0.57
724.156	0.57
724.336	0.69
724.515	0.75
724.695	0.35
724.874	0.51
725.054	0.57
725.234	0.48
725.413	0.45
725.593	0.48
725.772	0.53
725.952	0.44
726.131	0.5
726.311	0.6
726.49	0.57
726.67	0.42
726.849	0.4
727.028	0.53
727.208	0.48
727.387	0.46
727.567	0.31
727.746	0.44
727.925	0.49
728.105	0.49
728.284	0.45
728.463	0.41
728.643	0.52
728.822	0.31
729.001	0.39
729.18	0.52
729.359	0.6
729.539	0.42
729.718	0.43
729.897	0.57
730.076	0.44
730.255	0.37
730.434	0.39
730.614	0.58
730.793	0.67
730.972	0.46
731.151	0.46
731.33	0.65
731.509	0.67
731.688	0.43
731.867	0.54
732.046	0.3
732.225	0.71
732.404	0.43
732.583	0.37
732.762	0.45
732.941	0.56
733.12	0.52
733.298	0.46
733.477	0.7
733.656	0.51
733.835	0.32
734.014	0.56
734.193	0.55
734.371	0.49
734.55	0.53
734.729	0.3
734.908	0.47
735.086	0.53
735.265	0.53
735.444	0.36
735.623	0.41
735.801	0.36
735.98	0.44
736.159	0.42
736.337	0.52
736.516	0.49
736.694	0.51
736.873	0.48
737.052	0.68
737.23	0.88
737.409	0.47
737.587	0.76
737.766	0.4
737.944	0.48
738.123	0.49
738.301	0.52
738.479	0.43
738.658	0.41
738.836	0.36
739.015	0.35
739.193	0.67
739.371	0.34
739.55	0.43
739.728	0.45
739.906	0.66
740.085	0.66
740.263	0.54
740.441	0.14
740.62	0.71
740.798	0.57
740.976	0.31
741.154	0.35
741.332	0.7
741.511	0.39
741.689	0.52
741.867	0.45
742.045	0.57
742.223	0.48
742.401	0.28
742.579	0.44
742.757	0.6
742.935	0.42
743.114	0.42
743.292	0.39
743.47	0.46
743.648	0.54
743.826	0.3
744.004	0.47
744.181	0.48
744.359	0.39
744.537	0.57
744.715	0.4
744.893	0.4
745.071	0.56
745.249	0.4
745.427	0.28
745.605	0.59
745.782	0.41
745.96	0.57
746.138	0.49
746.316	0.49
746.493	0.45
746.671	0.35
746.849	0.4
747.027	0.62
747.204	0.37
747.382	0.34
747.56	0.26
747.737	0.47
747.915	0.36
748.093	0.5
748.27	0.31
748.448	0.5
748.625	0.4
748.803	0.31
748.98	0.28
749.158	0.52
749.335	0.53
749.513	0.32
749.69	0.31
749.868	0.38
750.045	0.36
750.223	0.35
750.4	0.1
750.578	0.58
750.755	0.38
750.932	0.23
751.11	0.59
751.287	0.25
751.464	0.52
751.642	0.22
751.819	0.43
751.996	0.39
752.173	0.26
752.351	0.29
752.528	0.37
752.705	0.39
752.882	0.35
753.06	0.38
753.237	0.38
753.414	0.65
753.591	0.69
753.768	0.45
753.945	0.32
754.122	0.31
754.299	0.5
754.476	0.39
754.654	0.32
754.831	0.47
755.008	0.35
755.185	0.3
755.362	0.21
755.539	0.45
755.716	0.37
755.892	0.33
756.069	0.29
756.246	0.42
756.423	0.42
756.6	0.46
756.777	0.31
756.954	0.49
757.131	0.27
757.307	0.22
757.484	0.24
757.661	0.37
757.838	0.47
758.015	0.27
758.191	0.47
758.368	0.35
758.545	0.68
758.721	0.46
758.898	0.14
759.075	0.39
759.251	0.41
759.428	0.23
759.605	0.18
759.781	0.31
759.958	0.46
760.134	0.39
760.311	0.25
760.488	0.58
760.664	0.5
760.841	0.35
761.017	0.15
761.194	0.45
761.37	0.56
761.547	0.44
761.723	0.25
761.899	0.53
762.076	0.32
762.252	0.14
762.429	0.27
762.605	0.54
762.781	0.31
762.958	0.38
763.134	0.24
763.31	0.29
763.486	0.49
763.663	0.07
763.839	0.34
764.015	0.16
764.191	0.2
764.368	0.33
764.544	0.29
764.72	0.37
764.896	0.44
765.072	0.41
765.248	0.34
765.425	0.26
765.601	0.49
765.777	0.29
765.953	0.01
766.129	0.32
766.305	0.19
766.481	0.4
766.657	0.4
766.833	0.51
767.009	0.25
767.185	0.34
767.361	0.26
767.537	0.18
767.713	0.56
767.889	0.28
768.065	0.3
768.24	0.17
768.416	0.43
768.592	0.39
768.768	0.33
768.944	0.49
769.12	0.36
769.295	0.37
769.471	0.25
769.647	0.31
769.823	0.51
769.998	0.17
770.174	0.19
770.35	0.79
770.525	0.74
770.701	0.44
770.877	0.37
771.052	0.26
771.228	0.35
771.403	0.56
771.579	0.42
771.755	0.73
771.93	0.24
772.106	0.18
772.281	0.12
772.457	0.45
772.632	0.45
772.808	0.14
772.983	0.2
773.159	0.13
773.334	0.62
773.509	0.35
773.685	0.18
773.86	0.92
774.036	0.54
774.211	0.39
774.386	0.31
774.562	0.38
774.737	0.57
774.912	0.13
775.087	0.48
775.263	0.33
775.438	0.33
775.613	0.22
775.788	0.46
775.964	0.55
776.139	1.01
776.314	0.11
776.489	0.48
776.664	0.39
776.839	0.16
777.014	0.5
777.19	0.34
777.365	0.69
777.54	0.47
777.715	0.09
777.89	0.3
778.065	0.38
778.24	0.39
778.415	0.5
778.59	0.16
778.765	0.31
778.94	0.35
779.115	0.31
779.289	0.4
779.464	0.24
779.639	0.28
779.814	0.1
779.989	0.11
780.164	0.58
780.339	0.44
780.513	0.18
780.688	0.04
780.863	0.37
781.038	0.66
781.212	0.19
781.387	0.21
781.562	0.78
781.737	0.4
781.911	0.64
782.086	0.04
782.261	0.23
782.435	0.72
782.61	0.24
782.784	0.24
782.959	0.72
783.134	0.37
783.308	0.07
783.483	0.38
783.657	0.93
783.832	0.79
784.006	-0.08
784.181	0.3
784.355	0.79
784.53	0.43
784.704	0.23
784.878	0.63
785.053	0.71
785.227	0.63
785.402	0.75
785.576	0.32
785.75	0.41
785.925	0.35
786.099	0.44
786.273	0.62
786.448	0.68
786.622	0.64
786.796	0.33
786.97	0.44
787.145	1.16
787.319	0.04
787.493	0.51
787.667	-0.04
787.841	0.41
788.015	0.58
788.19	0.28
788.364	0.42
788.538	0.59
788.712	0.66
788.886	0.39
789.06	0.54
789.234	0.86
789.408	0.03
789.582	0.18
789.756	0.11
789.93	0.23
790.104	0.32
790.278	0.49
790.452	0.21
790.626	0.65
790.8	0.28
790.973	0.45
791.147	0.99
791.321	0.87
791.495	0.69
791.669	0.6
791.843	0.49
792.016	0.46
792.19	1.21
792.364	0.03
792.538	0.98
792.711	0.57
792.885	0.28
793.059	0.18
793.233	-0.22
793.406	0.69
793.58	0.47
793.754	0.44
793.927	0.38
794.101	0.75
794.274	0.21
794.448	0.63
794.622	-0.05
794.795	1.05
794.969	0.31
795.142	0.89
795.316	0.37
795.489	0.18
795.663	0.91
795.836	0.52
796.009	0.12
796.183	0.64
796.356	0.48
796.53	0.51
796.703	0.48
796.876	1.16
797.05	0.4
797.223	0.57
797.396	0.38
797.57	0.56
797.743	1.08
797.916	0.57
798.09	0.35
798.263	0.8
798.436	0.68
798.609	0.33
798.782	0.32
798.956	0.83
799.129	0.79
799.302	0.41
799.475	0.29
799.648	0.22
799.821	0.26
799.994	0.47
800.167	-0.12
800.34	0.26
800.514	0.71
800.687	0.29
800.86	0.24
801.033	0.59
801.206	0.7
801.379	0.08
801.551	0.67
801.724	0.81
801.897	1.1
802.07	0.34
802.243	-0.02
802.416	0.68
802.589	0.47
802.762	0.45
802.935	0.37
803.107	0.89
803.28	0.84
803.453	0.49
803.626	0.22
803.798	0.73
803.971	0.31
804.144	0.43
804.317	0.43
804.489	0.84
804.662	0.68
804.835	0.47
805.007	0.37
805.18	1.04
805.353	0.57
805.525	0.33
805.698	0.36
805.87	0.96
806.043	1.11
806.215	-0.39
806.388	0.16
806.56	0.57
806.733	1.01
806.905	0.63
807.078	0.45
807.25	0.47
807.423	0.9
807.595	0.04
807.768	0.46
807.94	0.68
808.112	0.99
808.285	0.74
808.457	0.28
808.629	0.74
808.802	0.78
808.974	0.63
809.146	0.07
809.318	0.49
809.491	0.57
809.663	0.76
809.835	-0.07
810.007	0.74
810.18	0.44
810.352	-0.16
810.524	0.33
810.696	1.15
810.868	1.3
811.04	0.54
811.212	0.22
811.384	1.02
811.556	0.9
811.728	0.12
811.901	1.76
812.073	0.47
812.245	0.98
812.417	0.57
812.589	-0.13
812.76	0.27
812.932	1.27
813.104	0.78
813.276	0.55
813.448	0.93
813.62	0.68
813.792	0.54
813.964	0.34
814.136	0.82
814.307	0.33
814.479	0.15
814.651	0.28
814.823	1.49
814.995	0.53
815.166	0.43
815.338	0.33
815.51	-0.18
815.681	1.49
815.853	0.55
816.025	0.81
816.196	1.35
816.368	1.49
816.54	0.16
816.711	0.02
816.883	0.76
817.054	2.19
817.226	-0.35
817.398	1.18
817.569	0.23
817.741	0.89
817.912	0.42
818.084	0.35
818.255	1.33
818.426	0.42
818.598	0.43
818.769	0.19
818.941	0.69
819.112	1.29
819.283	0.85
819.455	-0.05
819.626	0.37
819.798	0.98
819.969	0.66
820.14	0.3
820.311	0.75
820.483	0.78
820.654	0.68
820.825	0.32
820.996	0.56
821.168	-0.11
821.339	0.59
821.51	-0.37
821.681	0.43
821.852	0.81
822.023	0.27
822.195	-0.25
822.366	1.57
822.537	0.66
822.708	0.93
822.879	0.35
823.05	1.44
823.221	0.44
823.392	0.94
823.563	0.55
823.734	0.5
823.905	0.69
824.076	0.48
824.247	0.12
824.418	0.75
824.589	1.18
824.759	0.79
824.93	0.73
825.101	-0.33
825.272	1.61
825.443	1.06
825.614	1.12
825.784	-0.2
825.955	1.92
826.126	1.31
826.297	0.9
826.467	1.77
826.638	2.32
826.809	-0.51
826.98	0.62
827.15	1.32
827.321	1.58
827.492	1.78
827.662	0.84
827.833	2.15
828.003	1.25
828.174	0.33
828.345	0.28
828.515	2.06
828.686	0.68
828.856	0.79
829.027	0.53
829.197	1.13
829.368	0.8
829.538	0.07
829.709	0.24
829.879	1.18
830.049	1.02
830.22	0.48
830.39	0.61
830.56	1.62
830.731	1.13
830.901	0.28
831.072	0.88
831.242	1.25
831.412	1.37
831.582	0.56
831.753	-0.28
831.923	1.51
832.093	1.13
832.263	0.67
832.434	0.13
832.604	0.39
832.774	1.78
832.944	0.54
833.114	0.11
833.284	0.99
833.454	-0.08
833.624	0.22
833.795	0.66
833.965	2.11
834.135	2.45
834.305	-0.89
834.475	-0.25
834.645	0.98
834.815	0.53
834.985	-0.12
835.155	-0.06
835.325	1.59
835.494	1.3
835.664	0.28
835.834	-0.03
836.004	1.36
836.174	1.11
836.344	0.22
836.514	-0.09
836.684	0.29
836.853	0.91
837.023	0.76
837.193	0.24
837.363	1.7
837.532	2.29
837.702	0.57
837.872	-0.18
838.041	1.05
838.211	2.41
838.381	-0.59
838.55	0.47
838.72	3.84
838.89	3.18
839.059	0.11
839.229	0.13
839.398	3.15
839.568	1.5
839.738	0.37
839.907	1.67
840.077	1.3
840.246	0.58
840.416	0.49
840.585	-0.25
840.755	2.67
840.924	2.4
841.093	0.68
841.263	0.41
841.432	1.13
841.602	-0.28
841.771	0.38
841.94	0.76
842.11	3.98
842.279	2.15
842.448	-0.24
842.617	0.18
842.787	2.64
842.956	0.73
843.125	0.46
843.294	0.8
843.464	2.2
843.633	1.58
843.802	-0.48
843.971	0.7
844.14	2.04
844.309	1.52
844.479	-0.55
844.648	-0.25
844.817	1.25
844.986	0.76
845.155	0.67
845.324	1.08
845.493	0.81
845.662	0.64
845.831	1.37
846	1.13
846.169	0.8
846.338	2.73
846.507	0.81
846.676	0.85
846.844	0.76
847.013	2.19
847.182	1.55
847.351	0.14
847.52	0.82
847.689	1.34
847.858	-0.01
848.026	-0.7
848.195	1.83
848.364	0.6
848.533	0.26
848.701	-0.28
848.87	1.57
849.039	2.02
849.207	1.74
849.376	3.07
849.545	3.11
849.713	0.4
849.882	0.48
850.051	0.3
850.219	1.13
850.388	1.89
850.556	0.74
850.725	1.13
850.893	0.92
851.062	0.69
851.23	1.37
851.399	0.19
851.567	0.69
851.736	1.37
851.904	-0.08
852.073	1.62
852.241	1.76
852.41	1.4
852.578	1.48
852.746	0.26
852.915	1.6
853.083	1.04
853.251	-0.61
853.42	0.34
853.588	0.24
853.756	2.43
853.924	0.91
854.093	1.56
854.261	0.58
854.429	-0.97
854.597	1.95
854.765	0.52
854.934	2.58
855.102	3.14
855.27	0.26
855.438	0.96
855.606	3.17
855.774	3.42
855.942	-0.64
856.11	-0.44
856.278	1.78
856.446	1.86
856.614	1.29
856.782	-0.53
856.95	2.35
857.118	1.45
857.286	0.94
857.454	0.25
857.622	3.37
857.79	2.5
857.958	-0.03
858.126	1.26
858.294	-0.73
858.462	0.99
858.629	-0.33
858.797	0.33
858.965	2.39
859.133	1.42
859.301	1.37
859.468	2.35
859.636	0.34
859.804	4.04
859.971	0.72
860.139	0.69
860.307	2.86
860.474	1.29
860.642	0.3
860.81	0.42
860.977	1.29
861.145	3.21
861.313	0.78
861.48	0.25
861.648	1.65
861.815	0.77
861.983	0.38
862.15	0.43
862.318	3.17
862.485	3.55
862.653	-0.69
862.82	0.75
862.988	4.13
863.155	0.75
863.322	0.08
863.49	0.23
863.657	0.83
863.824	5.03
863.992	0.73
864.159	0.82
864.326	3.46
864.494	0.9
864.661	3.59
864.828	0.35
864.996	5.38
865.163	4.39
865.33	-0.1
865.497	-2.07
865.664	0.88
865.832	-1.2
865.999	1.27
866.166	-0.71
866.333	0.78
866.5	1.9
866.667	1.7
866.834	0.69
867.001	3.07
867.168	-1.59
867.335	1.81
867.502	-1.41
867.669	2.63
867.836	6
868.003	1.59
868.17	2.57
868.337	4.31
868.504	4.97
868.671	-1.6
868.838	0.03
869.005	3.29
869.172	2.71
869.339	0.99
869.505	1.69
869.672	1.12
869.839	3.49
870.006	1.61
870.173	-0.05
870.339	2.68
870.506	6.49
870.673	0.82
870.84	3.36
871.006	1
871.173	3.31
871.34	1.81
871.506	-0.38
871.673	2.52
871.839	-1.22
872.006	-0.2
872.173	1.74
872.339	2.28
872.506	5.35
872.672	1.63
872.839	-0.22
873.005	1.77
873.172	4.55
873.338	3.47
873.505	0.81
873.671	3.74
873.838	3.27
874.004	-1.65
874.171	-0.48
874.337	3.91
874.503	3.92
874.67	1.98
874.836	1.92
875.002	6.79
875.169	3.48
875.335	1.4
875.501	1.77
875.668	4.53
875.834	1.74
876	0.75
876.166	1.93
876.332	3.14
876.499	4.95
876.665	1.02
876.831	1.83
876.997	5.02
877.163	3.29
877.329	0.84
877.495	1.79
877.662	3.63
877.828	2.66
877.994	2.21
878.16	-2.4
878.326	2.29
878.492	2.82
878.658	2.11
878.824	0.08
878.99	3.94
879.156	1.32
879.322	4.59
879.487	2.23
879.653	3.03
879.819	2.76
879.985	0.63
880.151	2.74
880.317	2.97
880.483	2.39
880.648	3.05
880.814	-1.19
880.98	1.63
881.146	-1.44
881.312	0.34
881.477	0.64
881.643	2.13
881.809	4.54
881.974	4.44
882.14	-1.67
882.306	2.02
882.471	6.09
882.637	1.07
882.803	1.61
882.968	6.15
883.134	6.28
883.299	2.92
883.465	2.11
883.63	5.15
883.796	2.57
883.961	1.55
884.127	2.85
884.292	-2.65
884.458	-0.85
884.623	-0.85
