Data from Apollo_Calib_20240827__AbsoluteIrradiance__11__23-20-02-650.txt Node

Date: Tue Aug 27 23:20:02 BST 2024
User: biology
Spectrometer: FLMT08252
Trigger mode: 0
Integration Time (sec): 5.000000E-1
Scans to average: 5
Electric dark correction enabled: true
Nonlinearity correction enabled: false
Boxcar width: 0
XAxis mode: Wavelengths
Number of Pixels in Spectrum: 3648
>>>>>Begin Spectral Data<<<<<
179.588	-0
179.809	-0
180.03	-0
180.251	-0
180.473	-0
180.694	0
180.915	0
181.136	-0
181.357	-0
181.578	0
181.799	-0
182.02	-0
182.241	0
182.462	-0
182.683	0
182.904	-0
183.125	-0
183.346	0
183.567	0
183.788	0
184.009	0
184.23	0
184.451	0
184.672	0
184.892	0
185.113	0
185.334	0
185.555	0
185.776	0
185.996	0
186.217	0
186.438	0
186.659	0
186.879	0
187.1	0
187.321	0
187.541	0
187.762	0
187.983	0
188.203	0
188.424	0
188.644	0
188.865	0
189.086	0
189.306	0
189.527	0
189.747	0
189.968	0
190.188	0
190.409	0
190.629	0
190.849	0
191.07	0
191.29	0
191.511	0
191.731	0
191.951	0
192.172	0
192.392	0
192.612	0
192.833	0
193.053	0
193.273	0
193.493	0
193.714	0
193.934	0
194.154	0
194.374	0
194.594	0
194.815	0
195.035	0
195.255	0
195.475	0
195.695	0
195.915	0
196.135	0
196.355	0
196.575	0
196.795	0
197.015	0
197.235	0
197.455	0
197.675	0
197.895	0
198.115	0
198.335	0
198.555	0
198.775	0
198.995	0
199.214	0
199.434	0
199.654	0
199.874	0
200.094	3.37
200.313	2.34
200.533	3.01
200.753	2.02
200.973	3.32
201.192	2.85
201.412	1.8
201.632	2.38
201.851	3.23
202.071	1.98
202.291	2.03
202.51	2.19
202.73	2.76
202.95	2.17
203.169	1.73
203.389	2.19
203.608	2.22
203.828	1.27
204.047	2.18
204.267	2.57
204.486	2.08
204.706	2.03
204.925	1.91
205.145	1.81
205.364	2.19
205.583	2.62
205.803	1.94
206.022	1.52
206.242	1.43
206.461	1.29
206.68	1.31
206.9	1.74
207.119	1.86
207.338	2.15
207.557	1.1
207.777	1.58
207.996	1.42
208.215	1.78
208.434	1.35
208.654	1.3
208.873	1.71
209.092	2.03
209.311	1.32
209.53	1.3
209.749	1.36
209.968	0.94
210.187	1.34
210.407	0.88
210.626	1.27
210.845	1.54
211.064	1.2
211.283	0.91
211.502	1.45
211.721	1.37
211.94	1.02
212.159	1.32
212.377	1.33
212.596	1.42
212.815	1.16
213.034	1.39
213.253	1.52
213.472	1.29
213.691	1.14
213.91	1.06
214.128	1
214.347	1.33
214.566	0.83
214.785	0.78
215.003	1.2
215.222	1.21
215.441	1.1
215.66	0.72
215.878	1.1
216.097	1.06
216.316	0.61
216.534	1.09
216.753	0.88
216.972	0.91
217.19	0.99
217.409	0.67
217.627	0.88
217.846	0.8
218.064	0.85
218.283	0.7
218.501	1.32
218.72	1.11
218.938	0.81
219.157	0.99
219.375	1.18
219.594	0.84
219.812	0.57
220.031	0.77
220.249	1.06
220.467	0.98
220.686	0.77
220.904	0.73
221.122	0.7
221.341	1.13
221.559	0.86
221.777	0.65
221.995	0.75
222.214	0.98
222.432	0.67
222.65	0.9
222.868	0.97
223.086	0.99
223.305	0.88
223.523	0.8
223.741	0.94
223.959	0.7
224.177	0.5
224.395	0.61
224.613	0.71
224.831	0.92
225.049	0.6
225.267	0.73
225.485	0.76
225.703	0.57
225.921	0.68
226.139	0.63
226.357	0.83
226.575	0.83
226.793	0.53
227.011	1.21
227.229	0.71
227.447	0.88
227.665	0.59
227.883	0.51
228.1	0.69
228.318	0.69
228.536	0.48
228.754	0.5
228.972	0.8
229.189	0.89
229.407	0.65
229.625	0.59
229.843	0.78
230.06	0.67
230.278	0.6
230.496	0.6
230.713	0.74
230.931	0.7
231.149	0.57
231.366	0.46
231.584	0.55
231.801	0.89
232.019	0.57
232.236	0.56
232.454	0.49
232.671	0.65
232.889	0.58
233.106	0.54
233.324	0.56
233.541	0.54
233.759	0.7
233.976	0.46
234.194	0.57
234.411	0.57
234.628	0.49
234.846	0.48
235.063	0.59
235.28	0.52
235.498	0.57
235.715	0.56
235.932	0.59
236.149	0.64
236.367	0.41
236.584	0.55
236.801	0.53
237.018	0.54
237.236	0.56
237.453	0.39
237.67	0.63
237.887	0.5
238.104	0.44
238.321	0.39
238.538	0.46
238.755	0.5
238.973	0.47
239.19	0.54
239.407	0.56
239.624	0.6
239.841	0.42
240.058	0.51
240.275	0.63
240.492	0.44
240.709	0.55
240.925	0.47
241.142	0.57
241.359	0.43
241.576	0.42
241.793	0.42
242.01	0.52
242.227	0.56
242.444	0.62
242.66	0.56
242.877	0.52
243.094	0.47
243.311	0.51
243.527	0.46
243.744	0.55
243.961	0.54
244.178	0.45
244.394	0.47
244.611	0.66
244.828	0.55
245.044	0.4
245.261	0.47
245.477	0.55
245.694	0.5
245.911	0.46
246.127	0.47
246.344	0.6
246.56	0.51
246.777	0.39
246.993	0.45
247.21	0.49
247.426	0.55
247.643	0.42
247.859	0.41
248.076	0.47
248.292	0.58
248.508	0.44
248.725	0.47
248.941	0.46
249.157	0.49
249.374	0.39
249.59	0.4
249.806	0.42
250.023	0.52
250.239	0.33
250.455	0.38
250.671	0.46
250.888	0.44
251.104	0.46
251.32	0.34
251.536	0.38
251.752	0.41
251.969	0.46
252.185	0.42
252.401	0.51
252.617	0.27
252.833	0.45
253.049	0.42
253.265	0.39
253.481	0.41
253.697	0.42
253.913	0.43
254.129	0.36
254.345	0.39
254.561	0.4
254.777	0.43
254.993	0.56
255.209	0.49
255.425	0.39
255.641	0.39
255.857	0.51
256.073	0.39
256.288	0.34
256.504	0.36
256.72	0.36
256.936	0.52
257.152	0.37
257.367	0.38
257.583	0.42
257.799	0.5
258.015	0.33
258.23	0.36
258.446	0.5
258.662	0.39
258.877	0.36
259.093	0.36
259.309	0.38
259.524	0.48
259.74	0.4
259.955	0.24
260.171	0.38
260.387	0.37
260.602	0.47
260.818	0.45
261.033	0.27
261.249	0.38
261.464	0.37
261.68	0.29
261.895	0.43
262.11	0.44
262.326	0.35
262.541	0.29
262.757	0.42
262.972	0.47
263.187	0.4
263.403	0.4
263.618	0.48
263.833	0.37
264.049	0.33
264.264	0.39
264.479	0.4
264.694	0.52
264.91	0.3
265.125	0.35
265.34	0.4
265.555	0.51
265.77	0.44
265.986	0.38
266.201	0.42
266.416	0.49
266.631	0.34
266.846	0.37
267.061	0.43
267.276	0.37
267.491	0.22
267.706	0.39
267.921	0.37
268.136	0.39
268.351	0.35
268.566	0.28
268.781	0.45
268.996	0.41
269.211	0.35
269.426	0.28
269.641	0.31
269.856	0.39
270.071	0.29
270.285	0.35
270.5	0.4
270.715	0.37
270.93	0.33
271.145	0.39
271.359	0.36
271.574	0.34
271.789	0.37
272.004	0.37
272.218	0.29
272.433	0.42
272.648	0.34
272.862	0.41
273.077	0.31
273.292	0.36
273.506	0.28
273.721	0.24
273.936	0.41
274.15	0.41
274.365	0.39
274.579	0.38
274.794	0.35
275.008	0.43
275.223	0.26
275.437	0.34
275.652	0.46
275.866	0.38
276.081	0.32
276.295	0.44
276.509	0.33
276.724	0.32
276.938	0.39
277.153	0.37
277.367	0.38
277.581	0.3
277.796	0.27
278.01	0.29
278.224	0.4
278.438	0.38
278.653	0.25
278.867	0.29
279.081	0.2
279.295	0.29
279.51	0.33
279.724	0.26
279.938	0.4
280.152	0.36
280.366	0.27
280.58	0.34
280.794	0.39
281.008	0.32
281.222	0.38
281.437	0.43
281.651	0.3
281.865	0.36
282.079	0.33
282.293	0.27
282.507	0.29
282.721	0.29
282.935	0.32
283.148	0.21
283.362	0.3
283.576	0.23
283.79	0.31
284.004	0.32
284.218	0.33
284.432	0.22
284.646	0.28
284.859	0.33
285.073	0.33
285.287	0.32
285.501	0.3
285.714	0.28
285.928	0.35
286.142	0.31
286.356	0.25
286.569	0.3
286.783	0.36
286.997	0.35
287.21	0.35
287.424	0.35
287.637	0.25
287.851	0.3
288.065	0.33
288.278	0.29
288.492	0.31
288.705	0.32
288.919	0.37
289.132	0.28
289.346	0.38
289.559	0.26
289.773	0.24
289.986	0.31
290.2	0.31
290.413	0.3
290.626	0.26
290.84	0.25
291.053	0.29
291.267	0.34
291.48	0.28
291.693	0.29
291.906	0.26
292.12	0.24
292.333	0.28
292.546	0.29
292.76	0.34
292.973	0.34
293.186	0.32
293.399	0.23
293.612	0.32
293.826	0.3
294.039	0.32
294.252	0.32
294.465	0.28
294.678	0.33
294.891	0.33
295.104	0.22
295.317	0.3
295.53	0.29
295.743	0.25
295.956	0.28
296.169	0.34
296.382	0.34
296.595	0.31
296.808	0.26
297.021	0.28
297.234	0.29
297.447	0.29
297.66	0.28
297.873	0.33
298.086	0.31
298.299	0.26
298.511	0.21
298.724	0.27
298.937	0.24
299.15	0.27
299.363	0.26
299.575	0.29
299.788	0.29
300.001	0.24
300.213	0.25
300.426	0.24
300.639	0.23
300.852	0.21
301.064	0.32
301.277	0.33
301.489	0.29
301.702	0.38
301.915	0.27
302.127	0.22
302.34	0.26
302.552	0.3
302.765	0.24
302.977	0.33
303.19	0.21
303.402	0.24
303.615	0.25
303.827	0.28
304.04	0.25
304.252	0.31
304.464	0.23
304.677	0.32
304.889	0.29
305.102	0.24
305.314	0.28
305.526	0.3
305.739	0.25
305.951	0.22
306.163	0.26
306.375	0.29
306.588	0.23
306.8	0.28
307.012	0.21
307.224	0.25
307.436	0.35
307.649	0.2
307.861	0.25
308.073	0.31
308.285	0.26
308.497	0.23
308.709	0.24
308.921	0.3
309.133	0.31
309.346	0.22
309.558	0.29
309.77	0.28
309.982	0.3
310.194	0.28
310.406	0.21
310.617	0.33
310.829	0.3
311.041	0.29
311.253	0.26
311.465	0.26
311.677	0.28
311.889	0.28
312.101	0.22
312.313	0.25
312.524	0.33
312.736	0.23
312.948	0.31
313.16	0.32
313.372	0.3
313.583	0.31
313.795	0.25
314.007	0.25
314.218	0.3
314.43	0.25
314.642	0.25
314.853	0.23
315.065	0.23
315.277	0.26
315.488	0.27
315.7	0.33
315.912	0.3
316.123	0.23
316.335	0.25
316.546	0.32
316.758	0.25
316.969	0.26
317.181	0.29
317.392	0.26
317.604	0.27
317.815	0.22
318.026	0.19
318.238	0.26
318.449	0.27
318.661	0.24
318.872	0.21
319.083	0.23
319.295	0.33
319.506	0.28
319.717	0.26
319.929	0.28
320.14	0.25
320.351	0.24
320.562	0.22
320.774	0.26
320.985	0.27
321.196	0.22
321.407	0.23
321.618	0.3
321.829	0.29
322.041	0.28
322.252	0.27
322.463	0.26
322.674	0.25
322.885	0.25
323.096	0.25
323.307	0.23
323.518	0.29
323.729	0.24
323.94	0.27
324.151	0.25
324.362	0.25
324.573	0.28
324.784	0.24
324.995	0.26
325.206	0.27
325.417	0.24
325.628	0.29
325.838	0.26
326.049	0.28
326.26	0.27
326.471	0.29
326.682	0.28
326.892	0.24
327.103	0.22
327.314	0.22
327.525	0.36
327.735	0.23
327.946	0.24
328.157	0.27
328.368	0.29
328.578	0.23
328.789	0.32
328.999	0.28
329.21	0.24
329.421	0.29
329.631	0.21
329.842	0.22
330.052	0.3
330.263	0.29
330.473	0.3
330.684	0.24
330.894	0.28
331.105	0.24
331.315	0.29
331.526	0.23
331.736	0.3
331.947	0.26
332.157	0.31
332.367	0.23
332.578	0.28
332.788	0.28
332.999	0.3
333.209	0.22
333.419	0.24
333.629	0.26
333.84	0.33
334.05	0.27
334.26	0.35
334.47	0.29
334.681	0.32
334.891	0.21
335.101	0.28
335.311	0.33
335.521	0.21
335.732	0.21
335.942	0.34
336.152	0.29
336.362	0.24
336.572	0.31
336.782	0.26
336.992	0.23
337.202	0.28
337.412	0.2
337.622	0.24
337.832	0.26
338.042	0.31
338.252	0.22
338.462	0.25
338.672	0.3
338.882	0.24
339.092	0.27
339.302	0.35
339.511	0.29
339.721	0.23
339.931	0.22
340.141	0.26
340.351	0.29
340.561	0.3
340.77	0.27
340.98	0.27
341.19	0.29
341.4	0.2
341.609	0.21
341.819	0.23
342.029	0.25
342.238	0.3
342.448	0.2
342.658	0.25
342.867	0.27
343.077	0.22
343.286	0.27
343.496	0.24
343.706	0.33
343.915	0.25
344.125	0.24
344.334	0.27
344.544	0.25
344.753	0.25
344.963	0.22
345.172	0.21
345.381	0.24
345.591	0.22
345.8	0.23
346.01	0.27
346.219	0.29
346.428	0.14
346.638	0.25
346.847	0.24
347.056	0.33
347.266	0.22
347.475	0.31
347.684	0.26
347.893	0.27
348.103	0.28
348.312	0.25
348.521	0.25
348.73	0.25
348.94	0.26
349.149	0.24
349.358	0.27
349.567	0.22
349.776	0.23
349.985	0.26
350.194	0.28
350.403	0.27
350.612	0.19
350.821	0.24
351.03	0.23
351.239	0.22
351.448	0.27
351.657	0.24
351.866	0.33
352.075	0.18
352.284	0.3
352.493	0.22
352.702	0.28
352.911	0.25
353.12	0.3
353.329	0.21
353.538	0.26
353.746	0.25
353.955	0.25
354.164	0.28
354.373	0.27
354.582	0.27
354.79	0.3
354.999	0.26
355.208	0.2
355.416	0.32
355.625	0.23
355.834	0.21
356.042	0.31
356.251	0.27
356.46	0.22
356.668	0.27
356.877	0.33
357.085	0.29
357.294	0.22
357.503	0.25
357.711	0.23
357.92	0.38
358.128	0.24
358.337	0.24
358.545	0.31
358.754	0.27
358.962	0.27
359.17	0.24
359.379	0.27
359.587	0.26
359.796	0.24
360.004	0.33
360.212	0.28
360.421	0.25
360.629	0.26
360.837	0.23
361.046	0.31
361.254	0.31
361.462	0.23
361.67	0.26
361.879	0.26
362.087	0.3
362.295	0.23
362.503	0.19
362.711	0.22
362.92	0.23
363.128	0.23
363.336	0.22
363.544	0.19
363.752	0.25
363.96	0.26
364.168	0.21
364.376	0.23
364.584	0.24
364.792	0.26
365	0.29
365.208	0.27
365.416	0.27
365.624	0.28
365.832	0.2
366.04	0.27
366.248	0.24
366.456	0.23
366.664	0.24
366.872	0.27
367.079	0.25
367.287	0.24
367.495	0.23
367.703	0.23
367.911	0.23
368.118	0.27
368.326	0.24
368.534	0.18
368.742	0.3
368.949	0.21
369.157	0.23
369.365	0.31
369.572	0.22
369.78	0.2
369.988	0.31
370.195	0.28
370.403	0.27
370.61	0.22
370.818	0.22
371.026	0.33
371.233	0.23
371.441	0.3
371.648	0.24
371.856	0.26
372.063	0.23
372.271	0.25
372.478	0.21
372.685	0.23
372.893	0.32
373.1	0.21
373.308	0.29
373.515	0.35
373.722	0.29
373.93	0.27
374.137	0.31
374.344	0.35
374.552	0.28
374.759	0.29
374.966	0.3
375.173	0.25
375.381	0.29
375.588	0.25
375.795	0.19
376.002	0.23
376.209	0.25
376.417	0.28
376.624	0.31
376.831	0.28
377.038	0.21
377.245	0.18
377.452	0.24
377.659	0.3
377.866	0.26
378.073	0.26
378.28	0.3
378.487	0.27
378.694	0.28
378.901	0.25
379.108	0.23
379.315	0.3
379.522	0.31
379.729	0.32
379.936	0.27
380.143	0.31
380.35	0.27
380.557	0.26
380.763	0.3
380.97	0.26
381.177	0.27
381.384	0.29
381.591	0.26
381.797	0.27
382.004	0.3
382.211	0.35
382.418	0.27
382.624	0.3
382.831	0.31
383.038	0.29
383.244	0.28
383.451	0.27
383.658	0.34
383.864	0.26
384.071	0.26
384.277	0.31
384.484	0.24
384.69	0.31
384.897	0.3
385.103	0.27
385.31	0.29
385.516	0.29
385.723	0.27
385.929	0.29
386.136	0.26
386.342	0.32
386.549	0.26
386.755	0.33
386.961	0.31
387.168	0.29
387.374	0.27
387.58	0.32
387.787	0.3
387.993	0.27
388.199	0.32
388.406	0.27
388.612	0.28
388.818	0.28
389.024	0.28
389.231	0.28
389.437	0.33
389.643	0.34
389.849	0.26
390.055	0.3
390.261	0.33
390.467	0.31
390.674	0.28
390.88	0.26
391.086	0.3
391.292	0.24
391.498	0.34
391.704	0.3
391.91	0.31
392.116	0.3
392.322	0.25
392.528	0.37
392.734	0.29
392.94	0.32
393.146	0.27
393.352	0.3
393.557	0.29
393.763	0.31
393.969	0.37
394.175	0.31
394.381	0.31
394.587	0.24
394.792	0.25
394.998	0.36
395.204	0.32
395.41	0.26
395.615	0.37
395.821	0.34
396.027	0.34
396.233	0.3
396.438	0.34
396.644	0.44
396.85	0.35
397.055	0.33
397.261	0.33
397.466	0.44
397.672	0.4
397.878	0.35
398.083	0.4
398.289	0.33
398.494	0.38
398.7	0.34
398.905	0.27
399.111	0.41
399.316	0.32
399.522	0.36
399.727	0.36
399.932	0.34
400.138	0.34
400.343	0.39
400.549	0.35
400.754	0.35
400.959	0.4
401.165	0.37
401.37	0.41
401.575	0.49
401.78	0.38
401.986	0.34
402.191	0.37
402.396	0.41
402.601	0.39
402.807	0.4
403.012	0.37
403.217	0.45
403.422	0.37
403.627	0.44
403.832	0.41
404.037	0.4
404.243	0.45
404.448	0.4
404.653	0.41
404.858	0.45
405.063	0.44
405.268	0.39
405.473	0.37
405.678	0.4
405.883	0.58
406.088	0.48
406.293	0.38
406.498	0.41
406.703	0.45
406.907	0.51
407.112	0.46
407.317	0.49
407.522	0.56
407.727	0.45
407.932	0.56
408.136	0.6
408.341	0.57
408.546	0.52
408.751	0.59
408.956	0.6
409.16	0.61
409.365	0.62
409.57	0.65
409.774	0.64
409.979	0.73
410.184	0.67
410.388	0.61
410.593	0.74
410.798	0.74
411.002	0.72
411.207	0.81
411.411	0.8
411.616	0.72
411.82	0.8
412.025	0.82
412.229	0.84
412.434	0.91
412.638	0.87
412.843	0.9
413.047	1
413.252	0.93
413.456	1.05
413.66	1.04
413.865	1.05
414.069	1.13
414.273	1.08
414.478	1.1
414.682	1.2
414.886	1.25
415.091	1.2
415.295	1.19
415.499	1.34
415.703	1.32
415.908	1.4
416.112	1.37
416.316	1.5
416.52	1.51
416.724	1.59
416.929	1.58
417.133	1.76
417.337	1.69
417.541	1.77
417.745	1.81
417.949	1.95
418.153	2.01
418.357	1.97
418.561	2.2
418.765	2.19
418.969	2.25
419.173	2.37
419.377	2.35
419.581	2.58
419.785	2.56
419.989	2.57
420.193	2.71
420.397	2.87
420.601	2.9
420.804	3.02
421.008	3
421.212	3.16
421.416	3.18
421.62	3.22
421.823	3.32
422.027	3.43
422.231	3.4
422.435	3.48
422.638	3.49
422.842	3.64
423.046	3.69
423.249	3.81
423.453	3.88
423.657	3.98
423.86	4.11
424.064	4.27
424.268	4.36
424.471	4.44
424.675	4.66
424.878	4.66
425.082	4.86
425.285	5.13
425.489	5.01
425.692	5.21
425.896	5.15
426.099	5.38
426.303	5.51
426.506	5.77
426.71	5.92
426.913	5.95
427.116	6.16
427.32	6.21
427.523	6.34
427.726	6.63
427.93	6.69
428.133	7.04
428.336	7.16
428.54	7.32
428.743	7.46
428.946	7.78
429.149	7.79
429.353	7.82
429.556	7.95
429.759	7.91
429.962	8.07
430.165	8.26
430.368	7.98
430.571	7.97
430.775	8.01
430.978	7.99
431.181	8.03
431.384	8.2
431.587	8.3
431.79	8.66
431.993	8.57
432.196	8.85
432.399	9.28
432.602	9.43
432.805	9.38
433.008	9.93
433.211	9.86
433.414	10.13
433.616	10.2
433.819	10.16
434.022	10.37
434.225	10.49
434.428	10.54
434.631	11.03
434.833	10.67
435.036	11.01
435.239	11.25
435.442	11.41
435.645	11.54
435.847	11.42
436.05	11.83
436.253	12.14
436.455	12.11
436.658	11.98
436.861	12.27
437.063	12.41
437.266	12.41
437.468	12.77
437.671	13.04
437.874	13.05
438.076	12.92
438.279	13.37
438.481	13.35
438.684	14.16
438.886	13.71
439.089	14.21
439.291	14.1
439.494	14.44
439.696	14.65
439.899	15.09
440.101	15.62
440.303	15.75
440.506	16.54
440.708	16.28
440.91	16.31
441.113	16.64
441.315	16.84
441.517	16.74
441.72	17.05
441.922	16.88
442.124	16.71
442.326	17.07
442.529	17.29
442.731	17.39
442.933	17.64
443.135	17.41
443.337	17.39
443.539	18
443.742	17.56
443.944	18.27
444.146	17.92
444.348	18.07
444.55	17.85
444.752	18.14
444.954	17.93
445.156	17.91
445.358	18.54
445.56	18.73
445.762	18.47
445.964	18.86
446.166	18.54
446.368	18.6
446.57	18.43
446.772	18.12
446.974	17.97
447.175	18.33
447.377	17.91
447.579	18.51
447.781	18
447.983	17.74
448.184	17.48
448.386	17.73
448.588	17.28
448.79	17.28
448.991	17.62
449.193	17.73
449.395	17
449.597	16.62
449.798	16.59
450	16.11
450.202	16
450.403	16.03
450.605	15.81
450.806	15.5
451.008	15.39
451.21	15.19
451.411	14.79
451.613	13.95
451.814	14.24
452.016	14.21
452.217	13.43
452.419	13.43
452.62	13.17
452.821	12.88
453.023	12.76
453.224	12.37
453.426	11.98
453.627	11.25
453.828	11.36
454.03	11.53
454.231	11.43
454.432	11.21
454.634	11.06
454.835	10.71
455.036	10.65
455.238	10.09
455.439	9.93
455.64	9.76
455.841	9.55
456.042	9.63
456.244	9.32
456.445	9.12
456.646	8.83
456.847	8.74
457.048	8.62
457.249	8.61
457.45	8.26
457.651	7.87
457.852	7.65
458.054	7.34
458.255	7.32
458.456	7.47
458.657	7.26
458.858	6.84
459.058	6.81
459.259	6.7
459.46	6.56
459.661	6.46
459.862	6.53
460.063	6.46
460.264	6.29
460.465	6.09
460.666	6.17
460.866	5.8
461.067	5.57
461.268	5.64
461.469	5.59
461.67	5.46
461.87	5.31
462.071	5.31
462.272	5.21
462.473	5.19
462.673	5.33
462.874	5.26
463.075	5.2
463.275	5.21
463.476	5.21
463.676	5.18
463.877	5
464.078	5
464.278	5.04
464.479	4.84
464.679	4.89
464.88	4.78
465.08	4.73
465.281	4.61
465.481	4.34
465.682	4.2
465.882	4.23
466.083	4.13
466.283	4.1
466.483	3.93
466.684	3.78
466.884	3.67
467.085	3.77
467.285	3.79
467.485	3.68
467.686	3.55
467.886	3.47
468.086	3.46
468.286	3.39
468.487	3.52
468.687	3.32
468.887	3.26
469.087	3.39
469.287	3.33
469.488	3.13
469.688	3.15
469.888	3.17
470.088	3.12
470.288	3.05
470.488	3.04
470.688	2.91
470.888	2.86
471.088	2.77
471.288	2.84
471.488	2.81
471.688	2.77
471.888	2.74
472.088	2.83
472.288	2.7
472.488	2.63
472.688	2.62
472.888	2.62
473.088	2.59
473.288	2.61
473.488	2.51
473.688	2.63
473.887	2.48
474.087	2.5
474.287	2.55
474.487	2.42
474.687	2.46
474.886	2.38
475.086	2.32
475.286	2.36
475.486	2.27
475.685	2.27
475.885	2.25
476.085	2.28
476.284	2.25
476.484	2.24
476.684	2.26
476.883	2.28
477.083	2.2
477.282	2.2
477.482	2.2
477.681	2.21
477.881	2.06
478.08	2.1
478.28	2.1
478.479	2.12
478.679	2.15
478.878	2.07
479.078	2.01
479.277	2.11
479.477	2.05
479.676	2.08
479.875	2.07
480.075	2
480.274	2.02
480.473	2.06
480.673	2.05
480.872	2.13
481.071	2.08
481.271	2.05
481.47	2.03
481.669	2.06
481.868	1.96
482.067	2.03
482.267	1.93
482.466	1.97
482.665	1.92
482.864	1.98
483.063	1.95
483.262	2
483.461	2.02
483.661	2.1
483.86	2.01
484.059	2.05
484.258	2.02
484.457	2.03
484.656	2.06
484.855	2.07
485.054	1.95
485.253	2
485.452	1.97
485.651	2.09
485.849	2.08
486.048	2.05
486.247	1.99
486.446	2.02
486.645	2.02
486.844	2.09
487.043	2.07
487.241	2.12
487.44	2.07
487.639	2.17
487.838	2.11
488.037	2.14
488.235	2.18
488.434	2.2
488.633	2.04
488.831	2.22
489.03	2.23
489.229	2.21
489.427	2.21
489.626	2.26
489.825	2.25
490.023	2.3
490.222	2.25
490.42	2.29
490.619	2.38
490.817	2.35
491.016	2.31
491.214	2.43
491.413	2.46
491.611	2.37
491.81	2.42
492.008	2.43
492.207	2.5
492.405	2.51
492.604	2.48
492.802	2.56
493	2.57
493.199	2.6
493.397	2.69
493.595	2.68
493.794	2.61
493.992	2.72
494.19	2.76
494.388	2.79
494.587	2.69
494.785	2.78
494.983	2.73
495.181	2.87
495.379	2.89
495.578	3.01
495.776	2.97
495.974	2.92
496.172	2.95
496.37	3.1
496.568	3.1
496.766	3.09
496.964	3.14
497.162	3.14
497.36	3.19
497.558	3.2
497.756	3.33
497.954	3.28
498.152	3.33
498.35	3.47
498.548	3.33
498.746	3.42
498.944	3.4
499.142	3.44
499.34	3.54
499.538	3.63
499.736	3.53
499.933	3.56
500.131	3.64
500.329	3.77
500.527	3.78
500.725	3.84
500.922	3.88
501.12	3.84
501.318	3.95
501.516	3.95
501.713	3.99
501.911	4.01
502.109	3.96
502.306	4.08
502.504	4.03
502.701	4.13
502.899	4.16
503.097	4.32
503.294	4.1
503.492	4.29
503.689	4.34
503.887	4.3
504.084	4.4
504.282	4.43
504.479	4.38
504.677	4.53
504.874	4.51
505.072	4.43
505.269	4.65
505.466	4.71
505.664	4.71
505.861	4.63
506.059	4.76
506.256	4.72
506.453	4.84
506.651	4.92
506.848	4.93
507.045	4.9
507.242	4.92
507.44	5
507.637	5.08
507.834	5.08
508.031	5.2
508.229	5.14
508.426	5.09
508.623	5.25
508.82	5.31
509.017	5.3
509.214	5.27
509.411	5.34
509.608	5.3
509.805	5.45
510.003	5.43
510.2	5.5
510.397	5.6
510.594	5.56
510.791	5.6
510.988	5.65
511.184	5.62
511.381	5.52
511.578	5.66
511.775	5.78
511.972	5.68
512.169	5.77
512.366	5.81
512.563	5.94
512.76	5.98
512.956	6.02
513.153	5.99
513.35	5.93
513.547	5.88
513.744	6.04
513.94	6.01
514.137	6.09
514.334	6.14
514.53	6.14
514.727	6.32
514.924	6.22
515.12	6.25
515.317	6.25
515.514	6.21
515.71	6.15
515.907	6.37
516.103	6.4
516.3	6.34
516.497	6.47
516.693	6.49
516.89	6.47
517.086	6.51
517.283	6.46
517.479	6.36
517.676	6.61
517.872	6.63
518.068	6.6
518.265	6.6
518.461	6.57
518.658	6.69
518.854	6.71
519.05	6.84
519.247	6.77
519.443	6.79
519.639	6.9
519.836	6.7
520.032	6.71
520.228	6.86
520.424	6.82
520.621	6.94
520.817	6.99
521.013	6.85
521.209	7.06
521.405	7.04
521.601	6.99
521.798	7
521.994	7.03
522.19	6.9
522.386	7.01
522.582	7.16
522.778	7.18
522.974	7.07
523.17	7.13
523.366	7.12
523.562	7.12
523.758	7.19
523.954	7.05
524.15	7.19
524.346	7.19
524.542	7.26
524.738	7.28
524.934	7.4
525.129	7.31
525.325	7.18
525.521	7.23
525.717	7.43
525.913	7.29
526.109	7.3
526.304	7.46
526.5	7.45
526.696	7.39
526.892	7.34
527.087	7.63
527.283	7.49
527.479	7.47
527.674	7.3
527.87	7.5
528.066	7.45
528.261	7.49
528.457	7.38
528.653	7.56
528.848	7.6
529.044	7.64
529.239	7.52
529.435	7.53
529.63	7.52
529.826	7.43
530.021	7.51
530.217	7.63
530.412	7.55
530.608	7.62
530.803	7.58
530.999	7.46
531.194	7.62
531.389	7.69
531.585	7.65
531.78	7.78
531.975	7.63
532.171	7.76
532.366	7.72
532.561	7.74
532.757	7.72
532.952	7.88
533.147	7.62
533.342	7.8
533.538	7.69
533.733	7.85
533.928	7.58
534.123	7.76
534.318	7.77
534.513	7.69
534.709	7.87
534.904	7.84
535.099	7.86
535.294	7.82
535.489	7.85
535.684	7.87
535.879	7.85
536.074	7.86
536.269	7.97
536.464	7.92
536.659	7.86
536.854	7.84
537.049	7.91
537.244	7.87
537.439	7.91
537.634	7.85
537.828	7.9
538.023	7.86
538.218	7.88
538.413	7.82
538.608	7.9
538.803	7.89
538.997	7.89
539.192	7.9
539.387	7.87
539.582	7.92
539.776	7.87
539.971	7.89
540.166	8.04
540.36	7.91
540.555	8.03
540.75	7.96
540.944	7.92
541.139	8.06
541.334	7.98
541.528	7.95
541.723	8
541.917	8.05
542.112	7.87
542.306	7.8
542.501	7.91
542.695	7.99
542.89	7.95
543.084	7.94
543.279	8.01
543.473	8.02
543.668	8.1
543.862	7.94
544.056	7.91
544.251	8.06
544.445	8.11
544.64	8.09
544.834	7.81
545.028	7.69
545.222	8.03
545.417	8.17
545.611	8.06
545.805	8.07
546	7.84
546.194	8.07
546.388	8.08
546.582	7.96
546.776	7.99
546.97	8.08
547.165	8.05
547.359	7.98
547.553	7.93
547.747	8
547.941	8.18
548.135	8.02
548.329	8.03
548.523	8.02
548.717	8
548.911	8.03
549.105	8.01
549.299	8.12
549.493	8.15
549.687	7.95
549.881	8.13
550.075	8.12
550.269	7.97
550.463	8.11
550.657	8.07
550.85	8.01
551.044	8.06
551.238	8.12
551.432	8.11
551.626	8.2
551.82	8.09
552.013	7.98
552.207	8.17
552.401	8.15
552.594	8.05
552.788	8.01
552.982	7.97
553.176	7.95
553.369	8.22
553.563	8.18
553.756	8.08
553.95	8.1
554.144	8.11
554.337	8.13
554.531	7.94
554.724	8.09
554.918	8.1
555.111	8.08
555.305	8.1
555.498	7.98
555.692	8.14
555.885	8.13
556.079	8.02
556.272	8.05
556.466	8.09
556.659	7.98
556.852	8.19
557.046	8.03
557.239	7.92
557.432	8.07
557.626	8.11
557.819	8.2
558.012	8.2
558.206	8.22
558.399	8.14
558.592	8.02
558.785	8.09
558.979	8
559.172	8.11
559.365	8.12
559.558	8.04
559.751	7.98
559.944	8.2
560.138	8.07
560.331	8.11
560.524	8.2
560.717	8.06
560.91	8.06
561.103	8.1
561.296	7.94
561.489	8.12
561.682	8.15
561.875	8.17
562.068	8.14
562.261	7.97
562.454	8.23
562.647	8.04
562.84	8.08
563.032	8.15
563.225	8
563.418	8.06
563.611	8.15
563.804	8.14
563.997	7.96
564.19	7.89
564.382	8.21
564.575	8.12
564.768	7.96
564.961	8.14
565.153	7.97
565.346	7.95
565.539	8.15
565.731	8.07
565.924	8.1
566.117	8.26
566.309	8.07
566.502	7.99
566.695	7.99
566.887	8.11
567.08	8.07
567.272	8.11
567.465	8
567.657	8.19
567.85	7.93
568.042	8.03
568.235	8.11
568.427	7.96
568.62	7.98
568.812	8
569.005	8.04
569.197	7.96
569.389	8
569.582	8.01
569.774	8.03
569.966	7.96
570.159	7.91
570.351	7.96
570.543	8
570.736	8.04
570.928	7.92
571.12	8
571.312	7.95
571.505	7.8
571.697	7.99
571.889	8.01
572.081	8
572.273	7.91
572.465	8.05
572.658	7.95
572.85	8.01
573.042	8.04
573.234	7.94
573.426	7.91
573.618	7.9
573.81	7.96
574.002	7.83
574.194	7.96
574.386	7.93
574.578	7.82
574.77	7.92
574.962	7.93
575.154	7.81
575.346	7.84
575.538	7.81
575.729	7.8
575.921	7.95
576.113	7.94
576.305	7.85
576.497	7.97
576.689	7.76
576.88	7.79
577.072	7.9
577.264	7.85
577.456	7.92
577.647	7.79
577.839	7.93
578.031	7.81
578.223	7.79
578.414	7.61
578.606	7.84
578.798	7.83
578.989	7.82
579.181	7.88
579.372	7.83
579.564	7.83
579.755	7.78
579.947	7.75
580.139	7.83
580.33	7.66
580.522	7.74
580.713	7.72
580.905	7.75
581.096	7.82
581.287	7.69
581.479	7.74
581.67	7.75
581.862	7.69
582.053	7.73
582.244	7.58
582.436	7.77
582.627	7.65
582.818	7.65
583.01	7.57
583.201	7.62
583.392	7.57
583.583	7.64
583.775	7.46
583.966	7.55
584.157	7.53
584.348	7.67
584.54	7.5
584.731	7.61
584.922	7.5
585.113	7.48
585.304	7.57
585.495	7.54
585.686	7.62
585.877	7.56
586.068	7.67
586.259	7.56
586.45	7.49
586.641	7.5
586.832	7.65
587.023	7.46
587.214	7.43
587.405	7.56
587.596	7.43
587.787	7.35
587.978	7.42
588.169	7.43
588.36	7.34
588.551	7.38
588.742	7.42
588.932	7.48
589.123	7.23
589.314	7.47
589.505	7.3
589.696	7.38
589.886	7.4
590.077	7.28
590.268	7.21
590.458	7.22
590.649	7.16
590.84	7.25
591.03	7.3
591.221	7.26
591.412	7.14
591.602	7.31
591.793	7.21
591.984	7.27
592.174	7.23
592.365	7.3
592.555	7.07
592.746	7.12
592.936	7.12
593.127	7.16
593.317	7.17
593.508	7.24
593.698	7.02
593.889	7.01
594.079	7.13
594.269	6.98
594.46	7.02
594.65	7.1
594.84	7
595.031	6.9
595.221	7.01
595.411	7.08
595.602	7.01
595.792	6.98
595.982	6.88
596.172	7.01
596.363	6.91
596.553	6.9
596.743	6.94
596.933	6.81
597.123	6.81
597.314	6.73
597.504	6.73
597.694	6.85
597.884	6.76
598.074	6.86
598.264	6.82
598.454	6.79
598.644	6.77
598.834	6.77
599.024	6.71
599.214	6.69
599.404	6.74
599.594	6.69
599.784	6.63
599.974	6.66
600.164	6.59
600.354	6.62
600.544	6.6
600.734	6.67
600.924	6.58
601.114	6.51
601.303	6.63
601.493	6.55
601.683	6.59
601.873	6.54
602.063	6.4
602.252	6.52
602.442	6.42
602.632	6.38
602.821	6.36
603.011	6.51
603.201	6.43
603.39	6.38
603.58	6.31
603.77	6.38
603.959	6.42
604.149	6.36
604.339	6.34
604.528	6.42
604.718	6.38
604.907	6.29
605.097	6.24
605.286	6.25
605.476	6.22
605.665	6.2
605.855	6.14
606.044	6.22
606.234	6.22
606.423	6.17
606.612	6.13
606.802	6.15
606.991	6.17
607.181	6.18
607.37	6.18
607.559	5.89
607.749	6.08
607.938	6.01
608.127	6.07
608.316	6.05
608.506	5.99
608.695	6.05
608.884	6
609.073	6.01
609.263	6.05
609.452	5.96
609.641	5.81
609.83	5.81
610.019	5.95
610.208	5.86
610.397	5.84
610.586	5.78
610.775	5.8
610.965	5.81
611.154	5.71
611.343	5.74
611.532	5.66
611.721	5.77
611.91	5.69
612.099	5.66
612.287	5.63
612.476	5.57
612.665	5.77
612.854	5.53
613.043	5.6
613.232	5.61
613.421	5.58
613.61	5.5
613.798	5.57
613.987	5.6
614.176	5.51
614.365	5.48
614.554	5.52
614.742	5.56
614.931	5.39
615.12	5.58
615.309	5.47
615.497	5.32
615.686	5.3
615.875	5.36
616.063	5.29
616.252	5.33
616.44	5.38
616.629	5.25
616.818	5.33
617.006	5.26
617.195	5.25
617.383	5.24
617.572	5.16
617.76	5.23
617.949	5.22
618.137	5.27
618.326	5.2
618.514	5.03
618.703	5.01
618.891	5.15
619.079	5.07
619.268	5.15
619.456	5.07
619.644	5.1
619.833	5.04
620.021	5.01
620.209	4.97
620.398	5.01
620.586	4.94
620.774	4.95
620.962	4.97
621.151	4.97
621.339	4.86
621.527	4.8
621.715	4.82
621.903	4.82
622.092	4.77
622.28	4.91
622.468	4.71
622.656	4.74
622.844	4.78
623.032	4.82
623.22	4.68
623.408	4.78
623.596	4.72
623.784	4.75
623.972	4.63
624.16	4.67
624.348	4.69
624.536	4.75
624.724	4.59
624.912	4.62
625.1	4.57
625.288	4.59
625.476	4.48
625.664	4.59
625.851	4.52
626.039	4.51
626.227	4.45
626.415	4.51
626.603	4.46
626.79	4.48
626.978	4.46
627.166	4.45
627.354	4.33
627.541	4.34
627.729	4.26
627.917	4.42
628.104	4.36
628.292	4.3
628.48	4.33
628.667	4.25
628.855	4.33
629.042	4.33
629.23	4.21
629.418	4.24
629.605	4.34
629.793	4.2
629.98	4.21
630.168	4.12
630.355	4.19
630.543	4.17
630.73	4.11
630.917	4.08
631.105	4.26
631.292	4.15
631.48	4.12
631.667	4.11
631.854	4.08
632.042	4.04
632.229	4
632.416	4.01
632.604	4.02
632.791	3.82
632.978	4
633.165	3.92
633.353	4.03
633.54	4.06
633.727	3.86
633.914	3.86
634.101	3.8
634.289	3.94
634.476	3.81
634.663	3.83
634.85	3.78
635.037	3.78
635.224	3.72
635.411	3.78
635.598	3.73
635.785	3.69
635.972	3.71
636.159	3.68
636.346	3.68
636.533	3.64
636.72	3.72
636.907	3.7
637.094	3.55
637.281	3.56
637.468	3.58
637.655	3.62
637.842	3.59
638.029	3.55
638.215	3.54
638.402	3.56
638.589	3.49
638.776	3.5
638.963	3.49
639.149	3.53
639.336	3.52
639.523	3.44
639.709	3.43
639.896	3.43
640.083	3.42
640.27	3.52
640.456	3.42
640.643	3.4
640.829	3.29
641.016	3.31
641.203	3.29
641.389	3.37
641.576	3.3
641.762	3.29
641.949	3.22
642.135	3.3
642.322	3.21
642.508	3.17
642.695	3.27
642.881	3.22
643.068	3.13
643.254	3.2
643.441	3.26
643.627	3.25
643.813	3.04
644	3.18
644.186	3.08
644.372	3.16
644.559	3.09
644.745	3.09
644.931	3.09
645.118	3.03
645.304	3.02
645.49	3.01
645.676	3.02
645.862	3.02
646.049	3.02
646.235	2.94
646.421	3.08
646.607	3.06
646.793	2.92
646.979	2.89
647.165	2.92
647.352	2.96
647.538	2.9
647.724	2.92
647.91	2.94
648.096	2.89
648.282	2.91
648.468	2.87
648.654	2.84
648.84	2.8
649.026	2.78
649.212	2.81
649.397	2.76
649.583	2.79
649.769	2.79
649.955	2.79
650.141	2.78
650.327	2.74
650.513	2.78
650.698	2.77
650.884	2.66
651.07	2.74
651.256	2.64
651.442	2.75
651.627	2.62
651.813	2.69
651.999	2.62
652.184	2.66
652.37	2.63
652.556	2.61
652.741	2.66
652.927	2.51
653.113	2.61
653.298	2.63
653.484	2.55
653.669	2.52
653.855	2.57
654.04	2.57
654.226	2.48
654.412	2.61
654.597	2.48
654.782	2.55
654.968	2.48
655.153	2.51
655.339	2.46
655.524	2.46
655.71	2.48
655.895	2.49
656.08	2.48
656.266	2.55
656.451	2.4
656.636	2.42
656.822	2.44
657.007	2.42
657.192	2.38
657.378	2.37
657.563	2.39
657.748	2.41
657.933	2.37
658.118	2.28
658.304	2.33
658.489	2.39
658.674	2.28
658.859	2.28
659.044	2.35
659.229	2.35
659.414	2.26
659.599	2.29
659.785	2.23
659.97	2.27
660.155	2.27
660.34	2.29
660.525	2.21
660.71	2.27
660.895	2.24
661.08	2.22
661.264	2.22
661.449	2.18
661.634	2.15
661.819	2.23
662.004	2.16
662.189	2.1
662.374	2.11
662.559	2.1
662.743	2.1
662.928	2.06
663.113	2.04
663.298	2.05
663.483	2.05
663.667	2.04
663.852	2.11
664.037	2.07
664.221	2.04
664.406	2.02
664.591	2.05
664.775	2.02
664.96	1.95
665.145	1.96
665.329	2.04
665.514	1.87
665.698	1.94
665.883	1.92
666.068	1.95
666.252	1.92
666.437	1.87
666.621	1.88
666.806	1.81
666.99	1.86
667.174	1.8
667.359	1.86
667.543	1.79
667.728	1.79
667.912	1.68
668.096	1.81
668.281	1.77
668.465	1.81
668.649	1.77
668.834	1.68
669.018	1.69
669.202	1.75
669.387	1.73
669.571	1.71
669.755	1.69
669.939	1.75
670.124	1.72
670.308	1.74
670.492	1.71
670.676	1.64
670.86	1.64
671.044	1.62
671.228	1.62
671.413	1.57
671.597	1.65
671.781	1.6
671.965	1.69
672.149	1.64
672.333	1.64
672.517	1.57
672.701	1.63
672.885	1.59
673.069	1.45
673.253	1.56
673.437	1.52
673.621	1.57
673.804	1.51
673.988	1.59
674.172	1.52
674.356	1.45
674.54	1.51
674.724	1.6
674.908	1.48
675.091	1.59
675.275	1.45
675.459	1.54
675.643	1.4
675.826	1.5
676.01	1.48
676.194	1.49
676.377	1.48
676.561	1.53
676.745	1.49
676.928	1.46
677.112	1.42
677.296	1.36
677.479	1.4
677.663	1.42
677.846	1.39
678.03	1.43
678.213	1.36
678.397	1.4
678.58	1.36
678.764	1.36
678.947	1.35
679.131	1.36
679.314	1.36
679.498	1.37
679.681	1.41
679.865	1.37
680.048	1.32
680.231	1.3
680.415	1.28
680.598	1.32
680.781	1.31
680.965	1.31
681.148	1.33
681.331	1.24
681.514	1.27
681.698	1.24
681.881	1.3
682.064	1.29
682.247	1.24
682.43	1.18
682.614	1.22
682.797	1.27
682.98	1.29
683.163	1.22
683.346	1.29
683.529	1.19
683.712	1.16
683.895	1.27
684.078	1.18
684.261	1.18
684.444	1.21
684.627	1.24
684.81	1.11
684.993	1.19
685.176	1.19
685.359	1.17
685.542	1.16
685.725	1.24
685.908	1.08
686.091	1.12
686.274	1.16
686.457	1.19
686.639	1.12
686.822	1.14
687.005	1.16
687.188	1.13
687.371	1.24
687.553	1.19
687.736	1.12
687.919	1.2
688.102	1.15
688.284	1.05
688.467	1.06
688.65	1.07
688.832	1
689.015	1.14
689.197	1.02
689.38	1.22
689.563	1.12
689.745	0.99
689.928	1.08
690.11	1.02
690.293	1.08
690.475	1.02
690.658	1.03
690.84	1.06
691.023	0.96
691.205	1.03
691.388	1.09
691.57	1.07
691.752	1.01
691.935	0.94
692.117	0.97
692.3	1.04
692.482	0.94
692.664	0.98
692.847	0.98
693.029	1.01
693.211	1.08
693.393	0.97
693.576	0.95
693.758	0.93
693.94	0.96
694.122	0.95
694.304	0.87
694.487	0.86
694.669	0.99
694.851	0.94
695.033	0.9
695.215	0.89
695.397	0.84
695.579	1.01
695.761	0.86
695.943	0.82
696.125	0.97
696.308	0.86
696.49	0.81
696.671	1.02
696.853	0.93
697.035	1.05
697.217	0.88
697.399	0.9
697.581	0.91
697.763	0.84
697.945	0.79
698.127	0.9
698.309	0.86
698.491	0.91
698.672	0.88
698.854	0.93
699.036	0.94
699.218	0.87
699.399	0.9
699.581	0.89
699.763	0.84
699.945	0.8
700.126	0.81
700.308	0.84
700.49	0.77
700.671	0.77
700.853	0.81
701.035	0.81
701.216	0.81
701.398	0.82
701.579	0.75
701.761	0.88
701.943	0.73
702.124	0.77
702.306	0.76
702.487	0.94
702.669	0.84
702.85	0.74
703.031	0.72
703.213	0.87
703.394	0.81
703.576	0.8
703.757	0.92
703.938	0.88
704.12	0.82
704.301	0.73
704.483	0.79
704.664	0.81
704.845	0.86
705.026	0.85
705.208	0.77
705.389	0.76
705.57	0.83
705.751	0.74
705.933	0.74
706.114	0.84
706.295	0.65
706.476	0.69
706.657	0.78
706.838	0.84
707.02	0.82
707.201	0.76
707.382	0.77
707.563	0.79
707.744	0.65
707.925	0.72
708.106	0.72
708.287	0.75
708.468	0.8
708.649	0.73
708.83	0.74
709.011	0.7
709.192	0.79
709.373	0.64
709.554	0.74
709.734	0.84
709.915	0.76
710.096	0.68
710.277	0.58
710.458	0.65
710.639	0.66
710.819	0.61
711	0.69
711.181	0.74
711.362	0.68
711.542	0.69
711.723	0.66
711.904	0.82
712.085	0.67
712.265	0.65
712.446	0.66
712.627	0.65
712.807	0.68
712.988	0.66
713.168	0.53
713.349	0.68
713.53	0.59
713.71	0.63
713.891	0.57
714.071	0.65
714.252	0.62
714.432	0.62
714.613	0.56
714.793	0.6
714.974	0.73
715.154	0.77
715.334	0.73
715.515	0.71
715.695	0.52
715.876	0.61
716.056	0.63
716.236	0.57
716.417	0.64
716.597	0.61
716.777	0.81
716.957	0.56
717.138	0.6
717.318	0.65
717.498	0.62
717.678	0.57
717.859	0.66
718.039	0.51
718.219	0.61
718.399	0.67
718.579	0.57
718.759	0.63
718.939	0.67
719.12	0.62
719.3	0.65
719.48	0.54
719.66	0.47
719.84	0.72
720.02	0.59
720.2	0.56
720.38	0.61
720.56	0.68
720.74	0.56
720.92	0.63
721.1	0.78
721.279	0.6
721.459	0.57
721.639	0.47
721.819	0.64
721.999	0.61
722.179	0.6
722.359	0.48
722.538	0.59
722.718	0.58
722.898	0.54
723.078	0.63
723.257	0.6
723.437	0.63
723.617	0.58
723.797	0.56
723.976	0.51
724.156	0.6
724.336	0.68
724.515	0.81
724.695	0.53
724.874	0.56
725.054	0.59
725.234	0.53
725.413	0.56
725.593	0.57
725.772	0.52
725.952	0.61
726.131	0.62
726.311	0.69
726.49	0.59
726.67	0.46
726.849	0.53
727.028	0.63
727.208	0.58
727.387	0.58
727.567	0.48
727.746	0.59
727.925	0.58
728.105	0.51
728.284	0.61
728.463	0.45
728.643	0.65
728.822	0.53
729.001	0.62
729.18	0.64
729.359	0.65
729.539	0.58
729.718	0.54
729.897	0.57
730.076	0.55
730.255	0.49
730.434	0.52
730.614	0.59
730.793	0.6
730.972	0.54
731.151	0.63
731.33	0.61
731.509	0.59
731.688	0.62
731.867	0.57
732.046	0.42
732.225	0.7
732.404	0.5
732.583	0.45
732.762	0.63
732.941	0.61
733.12	0.58
733.298	0.57
733.477	0.72
733.656	0.54
733.835	0.54
734.014	0.71
734.193	0.64
734.371	0.75
734.55	0.63
734.729	0.5
734.908	0.75
735.086	0.71
735.265	0.72
735.444	0.44
735.623	0.53
735.801	0.47
735.98	0.61
736.159	0.66
736.337	0.61
736.516	0.64
736.694	0.64
736.873	0.65
737.052	0.74
737.23	0.68
737.409	0.52
737.587	0.88
737.766	0.38
737.944	0.58
738.123	0.74
738.301	0.64
738.479	0.52
738.658	0.58
738.836	0.45
739.015	0.67
739.193	0.65
739.371	0.46
739.55	0.62
739.728	0.54
739.906	0.74
740.085	0.71
740.263	0.61
740.441	0.42
740.62	0.79
740.798	0.66
740.976	0.41
741.154	0.47
741.332	0.78
741.511	0.54
741.689	0.63
741.867	0.74
742.045	0.5
742.223	0.59
742.401	0.43
742.579	0.58
742.757	0.49
742.935	0.45
743.114	0.45
743.292	0.53
743.47	0.54
743.648	0.49
743.826	0.47
744.004	0.61
744.181	0.55
744.359	0.52
744.537	0.6
744.715	0.61
744.893	0.47
745.071	0.4
745.249	0.52
745.427	0.53
745.605	0.56
745.782	0.48
745.96	0.52
746.138	0.58
746.316	0.61
746.493	0.52
746.671	0.53
746.849	0.43
747.027	0.58
747.204	0.35
747.382	0.54
747.56	0.33
747.737	0.45
747.915	0.4
748.093	0.47
748.27	0.43
748.448	0.39
748.625	0.47
748.803	0.38
748.98	0.34
749.158	0.45
749.335	0.55
749.513	0.53
749.69	0.4
749.868	0.41
750.045	0.41
750.223	0.33
750.4	0.29
750.578	0.61
750.755	0.48
750.932	0.41
751.11	0.51
751.287	0.25
751.464	0.54
751.642	0.43
751.819	0.51
751.996	0.34
752.173	0.4
752.351	0.27
752.528	0.55
752.705	0.45
752.882	0.3
753.06	0.44
753.237	0.45
753.414	0.62
753.591	0.49
753.768	0.34
753.945	0.41
754.122	0.36
754.299	0.4
754.476	0.4
754.654	0.41
754.831	0.43
755.008	0.45
755.185	0.44
755.362	0.22
755.539	0.39
755.716	0.56
755.892	0.37
756.069	0.31
756.246	0.37
756.423	0.44
756.6	0.57
756.777	0.37
756.954	0.66
757.131	0.5
757.307	0.33
757.484	0.36
757.661	0.47
757.838	0.55
758.015	0.22
758.191	0.38
758.368	0.46
758.545	0.53
758.721	0.45
758.898	0.26
759.075	0.47
759.251	0.55
759.428	0.37
759.605	0.26
759.781	0.44
759.958	0.33
760.134	0.49
760.311	0.42
760.488	0.51
760.664	0.63
760.841	0.41
761.017	0.27
761.194	0.37
761.37	0.4
761.547	0.37
761.723	0.34
761.899	0.49
762.076	0.32
762.252	0.21
762.429	0.4
762.605	0.41
762.781	0.44
762.958	0.34
763.134	0.42
763.31	0.39
763.486	0.47
763.663	0.29
763.839	0.36
764.015	0.18
764.191	0.32
764.368	0.39
764.544	0.25
764.72	0.36
764.896	0.48
765.072	0.47
765.248	0.42
765.425	0.36
765.601	0.37
765.777	0.38
765.953	0.19
766.129	0.34
766.305	0.32
766.481	0.49
766.657	0.37
766.833	0.59
767.009	0.28
767.185	0.35
767.361	0.35
767.537	0.29
767.713	0.57
767.889	0.31
768.065	0.39
768.24	0.44
768.416	0.45
768.592	0.28
768.768	0.38
768.944	0.44
769.12	0.43
769.295	0.44
769.471	0.4
769.647	0.42
769.823	0.45
769.998	0.39
770.174	0.28
770.35	0.61
770.525	0.62
770.701	0.41
770.877	0.45
771.052	0.31
771.228	0.51
771.403	0.47
771.579	0.51
771.755	0.59
771.93	0.34
772.106	0.28
772.281	0.28
772.457	0.44
772.632	0.43
772.808	0.2
772.983	0.38
773.159	0.08
773.334	0.42
773.509	0.38
773.685	0.3
773.86	0.72
774.036	0.65
774.211	0.39
774.386	0.34
774.562	0.46
774.737	0.31
774.912	0.39
775.087	0.5
775.263	0.5
775.438	0.45
775.613	0.38
775.788	0.2
775.964	0.39
776.139	0.59
776.314	0.29
776.489	0.35
776.664	0.38
776.839	0.44
777.014	0.39
777.19	0.64
777.365	0.57
777.54	0.55
777.715	0.35
777.89	0.45
778.065	0.2
778.24	0.48
778.415	0.43
778.59	0.23
778.765	0.27
778.94	0.45
779.115	0.39
779.289	0.43
779.464	0.37
779.639	0.67
779.814	0.21
779.989	0.13
780.164	0.54
780.339	0.49
780.513	0.24
780.688	0.38
780.863	0.4
781.038	0.45
781.212	0.19
781.387	0.36
781.562	0.55
781.737	0.55
781.911	0.73
782.086	0.42
782.261	0.54
782.435	0.54
782.61	0.4
782.784	0.35
782.959	0.7
783.134	0.33
783.308	0.31
783.483	0.44
783.657	0.98
783.832	0.77
784.006	0.29
784.181	0.68
784.355	0.57
784.53	0.5
784.704	0.5
784.878	0.93
785.053	0.68
785.227	0.64
785.402	0.84
785.576	0.16
785.75	0.38
785.925	0.34
786.099	0.32
786.273	0.61
786.448	0.44
786.622	0.77
786.796	0.54
786.97	0.41
787.145	0.88
787.319	0.19
787.493	0.38
787.667	0.45
787.841	0.34
788.015	0.73
788.19	0.34
788.364	0.43
788.538	0.68
788.712	0.52
788.886	0.39
789.06	0.66
789.234	0.69
789.408	0.17
789.582	0.42
789.756	0.46
789.93	0.39
790.104	0.4
790.278	0.29
790.452	0.51
790.626	0.68
790.8	0.43
790.973	0.5
791.147	0.64
791.321	0.67
791.495	0.53
791.669	0.4
791.843	0.53
792.016	0.63
792.19	0.92
792.364	0.22
792.538	0.92
792.711	0.68
792.885	0.26
793.059	0.2
793.233	-0.22
793.406	0.64
793.58	0.44
793.754	0.52
793.927	0.47
794.101	0.81
794.274	0.67
794.448	0.72
794.622	0.34
794.795	0.66
794.969	0.26
795.142	0.74
795.316	0.4
795.489	0.29
795.663	0.91
795.836	0.32
796.009	0.24
796.183	0.82
796.356	0.49
796.53	0.57
796.703	0.54
796.876	1.07
797.05	0.24
797.223	0.59
797.396	0.59
797.57	0.77
797.743	0.61
797.916	0.38
798.09	0.47
798.263	0.64
798.436	0.75
798.609	0.47
798.782	0.45
798.956	0.62
799.129	0.26
799.302	0.59
799.475	0.42
799.648	0.47
799.821	0.78
799.994	0.55
800.167	0.4
800.34	0.55
800.514	0.65
800.687	0.47
800.86	0.41
801.033	0.64
801.206	0.79
801.379	0.21
801.551	0.92
801.724	0.58
801.897	0.83
802.07	0.86
802.243	0.18
802.416	0.65
802.589	0.51
802.762	0.8
802.935	0.62
803.107	0.38
803.28	1.08
803.453	0.93
803.626	0.52
803.798	0.41
803.971	0.52
804.144	0.66
804.317	0.45
804.489	0.77
804.662	0.65
804.835	0.6
805.007	0.46
805.18	1.04
805.353	0.56
805.525	0.21
805.698	0.44
805.87	0.82
806.043	0.62
806.215	0.6
806.388	0.46
806.56	0.74
806.733	0.79
806.905	0.96
807.078	0.61
807.25	0.24
807.423	0.76
807.595	0.33
807.768	0.81
807.94	1
808.112	1.09
808.285	0.86
808.457	0.71
808.629	0.51
808.802	0.79
808.974	0.49
809.146	0.76
809.318	0.17
809.491	0.35
809.663	0.88
809.835	0.46
810.007	0.82
810.18	0.45
810.352	0.36
810.524	0.57
810.696	0.56
810.868	0.9
811.04	0.54
811.212	0.6
811.384	0.94
811.556	0.73
811.728	0.79
811.901	1.24
812.073	0.62
812.245	0.99
812.417	0.97
812.589	0.22
812.76	0.74
812.932	0.53
813.104	1.04
813.276	0.66
813.448	1.26
813.62	0.32
813.792	0.89
813.964	0.81
814.136	0.82
814.307	0.25
814.479	0.75
814.651	0.68
814.823	1.5
814.995	0.33
815.166	0.73
815.338	0.13
815.51	0.54
815.681	1.23
815.853	0.73
816.025	0.76
816.196	1.34
816.368	0.81
816.54	-0.08
816.711	0.37
816.883	0.93
817.054	1.7
817.226	0.46
817.398	1.32
817.569	0.37
817.741	0.89
817.912	0.99
818.084	0.61
818.255	1.07
818.426	0.83
818.598	0.51
818.769	0.27
818.941	1.14
819.112	1.2
819.283	1.11
819.455	0.75
819.626	0.6
819.798	1.12
819.969	0.85
820.14	0.72
820.311	0.37
820.483	0.95
820.654	1.03
820.825	0.8
820.996	0.45
821.168	0.44
821.339	0.5
821.51	0.48
821.681	0.44
821.852	0.75
822.023	0.54
822.195	0.61
822.366	0.98
822.537	0.8
822.708	1
822.879	0.69
823.05	1.61
823.221	1.02
823.392	1.3
823.563	1.28
823.734	1.03
823.905	1
824.076	0.83
824.247	0.53
824.418	0.75
824.589	1.07
824.759	1.33
824.93	0.66
825.101	0.69
825.272	1.47
825.443	1.98
825.614	1.5
825.784	-0.35
825.955	1.8
826.126	1.98
826.297	1.02
826.467	1.59
826.638	1.92
826.809	0.39
826.98	1.45
827.15	0.94
827.321	0.85
827.492	1.81
827.662	1.31
827.833	1.55
828.003	0.5
828.174	0.89
828.345	0.29
828.515	1.47
828.686	1.01
828.856	0.75
829.027	0.77
829.197	1.24
829.368	0.81
829.538	1.11
829.709	-0.05
829.879	1.35
830.049	1.16
830.22	0.69
830.39	0.84
830.56	1.55
830.731	0.64
830.901	0.78
831.072	1.39
831.242	0.7
831.412	0.82
831.582	1.36
831.753	0.71
831.923	1.41
832.093	0.68
832.263	0.89
832.434	0.07
832.604	0.95
832.774	1.46
832.944	0.95
833.114	0.15
833.284	1.34
833.454	0.53
833.624	0.85
833.795	1.1
833.965	1.49
834.135	1.35
834.305	0.7
834.475	0.16
834.645	1.2
834.815	0.31
834.985	0.56
835.155	0.95
835.325	1.62
835.494	1.26
835.664	0.58
835.834	0.34
836.004	0.98
836.174	1.21
836.344	0.84
836.514	-0.16
836.684	0.95
836.853	1.17
837.023	0.89
837.193	0.88
837.363	1.18
837.532	1.33
837.702	1.62
837.872	1.04
838.041	1.36
838.211	2.32
838.381	0.72
838.55	1.07
838.72	2.2
838.89	2.1
839.059	1.02
839.229	0.73
839.398	1.75
839.568	0.9
839.738	1.27
839.907	1.85
840.077	1.5
840.246	0.46
840.416	0.35
840.585	0.19
840.755	2.2
840.924	1.68
841.093	0.66
841.263	0.87
841.432	1.74
841.602	0.78
841.771	0.24
841.94	1.11
842.11	2.56
842.279	2.33
842.448	0.29
842.617	0.81
842.787	1.99
842.956	0.1
843.125	2.08
843.294	1.37
843.464	1.95
843.633	0.69
843.802	1.85
843.971	0.59
844.14	2.13
844.309	1.29
844.479	0.47
844.648	0.3
844.817	1.09
844.986	2.17
845.155	1.53
845.324	1.1
845.493	1.48
845.662	-0.22
845.831	1.52
846	1.77
846.169	1.31
846.338	2.76
846.507	0.91
846.676	1.42
846.844	0.46
847.013	2.73
847.182	1.25
847.351	0.52
847.52	0.17
847.689	1.87
847.858	1.7
848.026	1.02
848.195	1.55
848.364	0.87
848.533	1.03
848.701	1.2
848.87	0.14
849.039	2.38
849.207	2
849.376	2.39
849.545	2.29
849.713	1.88
849.882	1.11
850.051	1.43
850.219	1.72
850.388	2.37
850.556	0.54
850.725	1.11
850.893	1.98
851.062	1.44
851.23	1.67
851.399	1.03
851.567	0.25
851.736	1.22
851.904	-0.26
852.073	1.43
852.241	1.92
852.41	2.4
852.578	1.36
852.746	2.05
852.915	2.79
853.083	1.6
853.251	1.27
853.42	0.89
853.588	1.27
853.756	2.82
853.924	1.53
854.093	0.99
854.261	2.12
854.429	1.42
854.597	1.71
854.765	1.24
854.934	1.29
855.102	2.1
855.27	1.12
855.438	1.55
855.606	2.64
855.774	2.87
855.942	0.37
856.11	1.09
856.278	2.13
856.446	2.32
856.614	2.07
856.782	0.51
856.95	2.85
857.118	3.24
857.286	1.63
857.454	0.93
857.622	2.96
857.79	1.64
857.958	1.48
858.126	1.7
858.294	0.99
858.462	1.78
858.629	0.37
858.797	0.83
858.965	1.52
859.133	2.72
859.301	1.48
859.468	1.71
859.636	0.63
859.804	2.66
859.971	2.62
860.139	0.9
860.307	2.29
860.474	1.89
860.642	0.25
860.81	2.03
860.977	1.99
861.145	2.39
861.313	1.86
861.48	2.04
861.648	3.05
861.815	2.23
861.983	1.49
862.15	0.3
862.318	2.41
862.485	3.13
862.653	1.74
862.82	1.32
862.988	3.1
863.155	3.93
863.322	1.33
863.49	0.94
863.657	1.37
863.824	3.72
863.992	2.45
864.159	2.97
864.326	3.72
864.494	0.29
864.661	3.77
864.828	0.86
864.996	2.67
865.163	3.03
865.33	1.83
865.497	-0.85
865.664	0.94
865.832	0.14
865.999	1.27
866.166	0.9
866.333	0.76
866.5	1.79
866.667	2.68
866.834	1.78
867.001	2.99
867.168	0.8
867.335	2.77
867.502	-0.33
867.669	3.08
867.836	4.2
868.003	2.28
868.17	3.76
868.337	-0.06
868.504	3.47
868.671	0.69
868.838	1.74
869.005	2.23
869.172	2.61
869.339	2.05
869.505	1.21
869.672	1.51
869.839	3.94
870.006	2.12
870.173	-0.21
870.339	1.7
870.506	3.63
870.673	3.3
870.84	3.1
871.006	3.13
871.173	0.84
871.34	1.97
871.506	1.45
871.673	2.63
871.839	1.97
872.006	1.83
872.173	3.53
872.339	2.95
872.506	4
872.672	2.22
872.839	1.63
873.005	2.98
873.172	5.6
873.338	3.6
873.505	4.15
873.671	2.86
873.838	1.94
874.004	0.59
874.171	0.08
874.337	2.8
874.503	1.83
874.67	1.44
874.836	2.06
875.002	4.33
875.169	2.34
875.335	3.36
875.501	3.24
875.668	4.17
875.834	2.39
876	1.77
876.166	2.43
876.332	2.99
876.499	4.63
876.665	2.66
876.831	2.15
876.997	6.29
877.163	3.58
877.329	1.64
877.495	2.76
877.662	4.55
877.828	3.31
877.994	2.37
878.16	0.03
878.326	1.38
878.492	1.99
878.658	2.7
878.824	2.35
878.99	4.29
879.156	0.48
879.322	5.18
879.487	1.86
879.653	3.26
879.819	3.11
879.985	2.56
880.151	3.82
880.317	2.85
880.483	2.59
880.648	2.93
880.814	1.34
880.98	1.91
881.146	-1.38
881.312	-0.57
881.477	3.05
881.643	2.25
881.809	4.98
881.974	3.98
882.14	0.5
882.306	3.68
882.471	5.04
882.637	3.02
882.803	3.78
882.968	4.61
883.134	3.86
883.299	2.26
883.465	2.37
883.63	3.8
883.796	2.9
883.961	5.38
884.127	2.69
884.292	-0.27
884.458	0.82
884.623	0.82
