Data from Apollo_Calib_20240827__AbsoluteIrradiance__27__23-36-02-612.txt Node

Date: Tue Aug 27 23:36:02 BST 2024
User: biology
Spectrometer: FLMT08252
Trigger mode: 0
Integration Time (sec): 5.000000E-1
Scans to average: 5
Electric dark correction enabled: true
Nonlinearity correction enabled: false
Boxcar width: 0
XAxis mode: Wavelengths
Number of Pixels in Spectrum: 3648
>>>>>Begin Spectral Data<<<<<
179.588	-0
179.809	-0
180.03	-0
180.251	-0
180.473	-0
180.694	0
180.915	0
181.136	-0
181.357	0
181.578	0
181.799	-0
182.02	-0
182.241	0
182.462	-0
182.683	0
182.904	-0
183.125	0
183.346	0
183.567	0
183.788	0
184.009	0
184.23	0
184.451	0
184.672	0
184.892	0
185.113	0
185.334	0
185.555	0
185.776	0
185.996	0
186.217	0
186.438	0
186.659	0
186.879	0
187.1	0
187.321	0
187.541	0
187.762	0
187.983	0
188.203	0
188.424	0
188.644	0
188.865	0
189.086	0
189.306	0
189.527	0
189.747	0
189.968	0
190.188	0
190.409	0
190.629	0
190.849	0
191.07	0
191.29	0
191.511	0
191.731	0
191.951	0
192.172	0
192.392	0
192.612	0
192.833	0
193.053	0
193.273	0
193.493	0
193.714	0
193.934	0
194.154	0
194.374	0
194.594	0
194.815	0
195.035	0
195.255	0
195.475	0
195.695	0
195.915	0
196.135	0
196.355	0
196.575	0
196.795	0
197.015	0
197.235	0
197.455	0
197.675	0
197.895	0
198.115	0
198.335	0
198.555	0
198.775	0
198.995	0
199.214	0
199.434	0
199.654	0
199.874	0
200.094	3.29
200.313	2.49
200.533	2.34
200.753	1.85
200.973	3.49
201.192	2.99
201.412	1.4
201.632	1.73
201.851	3.49
202.071	1.54
202.291	2
202.51	1.45
202.73	2.41
202.95	1.82
203.169	1.73
203.389	1.84
203.608	2.07
203.828	1.38
204.047	1.72
204.267	2.15
204.486	2.04
204.706	1.83
204.925	1.8
205.145	1.43
205.364	2.02
205.583	2.67
205.803	1.39
206.022	1.19
206.242	1.54
206.461	1.25
206.68	1.3
206.9	1.58
207.119	2.3
207.338	1.99
207.557	1.28
207.777	1.33
207.996	1.18
208.215	1.88
208.434	1.3
208.654	0.91
208.873	1.28
209.092	2.15
209.311	1.32
209.53	1.06
209.749	1.07
209.968	1.07
210.187	1.01
210.407	0.81
210.626	1.18
210.845	1.39
211.064	1.16
211.283	0.83
211.502	1.66
211.721	1.11
211.94	0.96
212.159	1.28
212.377	1.34
212.596	1.33
212.815	1.21
213.034	1.31
213.253	1.27
213.472	1.37
213.691	0.97
213.91	0.76
214.128	0.89
214.347	1.4
214.566	0.74
214.785	0.61
215.003	1.21
215.222	1.05
215.441	0.94
215.66	0.56
215.878	0.85
216.097	1.12
216.316	0.72
216.534	0.75
216.753	0.98
216.972	0.78
217.19	0.76
217.409	0.57
217.627	0.57
217.846	0.81
218.064	0.87
218.283	0.67
218.501	1.29
218.72	1.03
218.938	0.69
219.157	0.59
219.375	1.17
219.594	0.87
219.812	0.49
220.031	0.68
220.249	1.34
220.467	0.97
220.686	0.75
220.904	0.55
221.122	0.68
221.341	1.21
221.559	0.77
221.777	0.57
221.995	0.9
222.214	0.98
222.432	0.59
222.65	0.77
222.868	0.75
223.086	0.75
223.305	0.79
223.523	0.66
223.741	1.15
223.959	0.74
224.177	0.4
224.395	0.57
224.613	0.75
224.831	0.87
225.049	0.41
225.267	0.74
225.485	0.86
225.703	0.76
225.921	0.74
226.139	0.63
226.357	0.86
226.575	0.67
226.793	0.62
227.011	1.39
227.229	0.73
227.447	0.75
227.665	0.45
227.883	0.46
228.1	0.7
228.318	0.85
228.536	0.42
228.754	0.47
228.972	0.82
229.189	0.81
229.407	0.43
229.625	0.63
229.843	0.74
230.06	0.75
230.278	0.5
230.496	0.48
230.713	0.68
230.931	0.68
231.149	0.44
231.366	0.41
231.584	0.52
231.801	1.02
232.019	0.59
232.236	0.38
232.454	0.49
232.671	0.72
232.889	0.56
233.106	0.42
233.324	0.56
233.541	0.49
233.759	0.48
233.976	0.37
234.194	0.51
234.411	0.46
234.628	0.43
234.846	0.49
235.063	0.54
235.28	0.45
235.498	0.48
235.715	0.36
235.932	0.73
236.149	0.5
236.367	0.46
236.584	0.6
236.801	0.46
237.018	0.58
237.236	0.55
237.453	0.34
237.67	0.62
237.887	0.56
238.104	0.49
238.321	0.38
238.538	0.45
238.755	0.66
238.973	0.37
239.19	0.48
239.407	0.57
239.624	0.58
239.841	0.41
240.058	0.44
240.275	0.52
240.492	0.38
240.709	0.42
240.925	0.44
241.142	0.51
241.359	0.33
241.576	0.34
241.793	0.47
242.01	0.44
242.227	0.6
242.444	0.58
242.66	0.68
242.877	0.5
243.094	0.48
243.311	0.49
243.527	0.44
243.744	0.49
243.961	0.44
244.178	0.37
244.394	0.43
244.611	0.61
244.828	0.64
245.044	0.38
245.261	0.47
245.477	0.48
245.694	0.56
245.911	0.38
246.127	0.48
246.344	0.57
246.56	0.54
246.777	0.38
246.993	0.41
247.21	0.41
247.426	0.54
247.643	0.42
247.859	0.3
248.076	0.5
248.292	0.64
248.508	0.36
248.725	0.46
248.941	0.5
249.157	0.58
249.374	0.34
249.59	0.37
249.806	0.37
250.023	0.5
250.239	0.41
250.455	0.38
250.671	0.46
250.888	0.49
251.104	0.46
251.32	0.39
251.536	0.43
251.752	0.45
251.969	0.51
252.185	0.42
252.401	0.61
252.617	0.42
252.833	0.3
253.049	0.36
253.265	0.38
253.481	0.4
253.697	0.35
253.913	0.27
254.129	0.42
254.345	0.42
254.561	0.32
254.777	0.39
254.993	0.41
255.209	0.4
255.425	0.33
255.641	0.35
255.857	0.52
256.073	0.35
256.288	0.31
256.504	0.37
256.72	0.41
256.936	0.53
257.152	0.39
257.367	0.36
257.583	0.36
257.799	0.46
258.015	0.29
258.23	0.32
258.446	0.51
258.662	0.37
258.877	0.31
259.093	0.29
259.309	0.4
259.524	0.5
259.74	0.29
259.955	0.27
260.171	0.36
260.387	0.35
260.602	0.47
260.818	0.43
261.033	0.28
261.249	0.31
261.464	0.35
261.68	0.18
261.895	0.39
262.11	0.46
262.326	0.31
262.541	0.29
262.757	0.42
262.972	0.42
263.187	0.35
263.403	0.43
263.618	0.41
263.833	0.35
264.049	0.27
264.264	0.35
264.479	0.45
264.694	0.46
264.91	0.22
265.125	0.23
265.34	0.38
265.555	0.55
265.77	0.37
265.986	0.34
266.201	0.38
266.416	0.44
266.631	0.33
266.846	0.31
267.061	0.43
267.276	0.39
267.491	0.22
267.706	0.41
267.921	0.38
268.136	0.4
268.351	0.32
268.566	0.23
268.781	0.52
268.996	0.42
269.211	0.32
269.426	0.28
269.641	0.29
269.856	0.44
270.071	0.27
270.285	0.34
270.5	0.43
270.715	0.45
270.93	0.35
271.145	0.36
271.359	0.34
271.574	0.31
271.789	0.36
272.004	0.35
272.218	0.28
272.433	0.39
272.648	0.29
272.862	0.34
273.077	0.35
273.292	0.32
273.506	0.28
273.721	0.36
273.936	0.41
274.15	0.38
274.365	0.28
274.579	0.37
274.794	0.36
275.008	0.35
275.223	0.23
275.437	0.38
275.652	0.49
275.866	0.37
276.081	0.26
276.295	0.4
276.509	0.3
276.724	0.33
276.938	0.3
277.153	0.35
277.367	0.4
277.581	0.26
277.796	0.3
278.01	0.23
278.224	0.37
278.438	0.44
278.653	0.26
278.867	0.33
279.081	0.36
279.295	0.29
279.51	0.34
279.724	0.22
279.938	0.35
280.152	0.34
280.366	0.23
280.58	0.3
280.794	0.37
281.008	0.37
281.222	0.34
281.437	0.46
281.651	0.35
281.865	0.37
282.079	0.22
282.293	0.17
282.507	0.26
282.721	0.28
282.935	0.34
283.148	0.22
283.362	0.26
283.576	0.24
283.79	0.29
284.004	0.26
284.218	0.36
284.432	0.26
284.646	0.26
284.859	0.26
285.073	0.29
285.287	0.3
285.501	0.31
285.714	0.31
285.928	0.28
286.142	0.26
286.356	0.2
286.569	0.23
286.783	0.32
286.997	0.33
287.21	0.31
287.424	0.32
287.637	0.24
287.851	0.21
288.065	0.35
288.278	0.28
288.492	0.31
288.705	0.27
288.919	0.33
289.132	0.24
289.346	0.36
289.559	0.23
289.773	0.21
289.986	0.31
290.2	0.28
290.413	0.34
290.626	0.19
290.84	0.22
291.053	0.34
291.267	0.34
291.48	0.29
291.693	0.31
291.906	0.21
292.12	0.25
292.333	0.24
292.546	0.28
292.76	0.36
292.973	0.31
293.186	0.31
293.399	0.28
293.612	0.31
293.826	0.24
294.039	0.23
294.252	0.27
294.465	0.27
294.678	0.33
294.891	0.32
295.104	0.25
295.317	0.23
295.53	0.31
295.743	0.27
295.956	0.24
296.169	0.33
296.382	0.34
296.595	0.26
296.808	0.26
297.021	0.35
297.234	0.31
297.447	0.3
297.66	0.28
297.873	0.32
298.086	0.26
298.299	0.2
298.511	0.22
298.724	0.31
298.937	0.2
299.15	0.27
299.363	0.27
299.575	0.27
299.788	0.26
300.001	0.24
300.213	0.25
300.426	0.27
300.639	0.22
300.852	0.23
301.064	0.24
301.277	0.32
301.489	0.3
301.702	0.26
301.915	0.23
302.127	0.23
302.34	0.32
302.552	0.27
302.765	0.22
302.977	0.3
303.19	0.25
303.402	0.23
303.615	0.22
303.827	0.21
304.04	0.22
304.252	0.27
304.464	0.22
304.677	0.38
304.889	0.24
305.102	0.23
305.314	0.23
305.526	0.27
305.739	0.3
305.951	0.2
306.163	0.25
306.375	0.3
306.588	0.21
306.8	0.23
307.012	0.23
307.224	0.29
307.436	0.39
307.649	0.17
307.861	0.27
308.073	0.27
308.285	0.24
308.497	0.22
308.709	0.22
308.921	0.24
309.133	0.29
309.346	0.25
309.558	0.25
309.77	0.26
309.982	0.31
310.194	0.29
310.406	0.24
310.617	0.27
310.829	0.28
311.041	0.29
311.253	0.24
311.465	0.22
311.677	0.23
311.889	0.26
312.101	0.21
312.313	0.28
312.524	0.31
312.736	0.22
312.948	0.24
313.16	0.33
313.372	0.32
313.583	0.28
313.795	0.27
314.007	0.23
314.218	0.3
314.43	0.23
314.642	0.22
314.853	0.18
315.065	0.27
315.277	0.22
315.488	0.28
315.7	0.28
315.912	0.27
316.123	0.27
316.335	0.24
316.546	0.31
316.758	0.25
316.969	0.24
317.181	0.26
317.392	0.25
317.604	0.29
317.815	0.2
318.026	0.21
318.238	0.18
318.449	0.31
318.661	0.21
318.872	0.23
319.083	0.2
319.295	0.3
319.506	0.26
319.717	0.27
319.929	0.23
320.14	0.24
320.351	0.25
320.562	0.21
320.774	0.29
320.985	0.27
321.196	0.23
321.407	0.22
321.618	0.31
321.829	0.28
322.041	0.28
322.252	0.26
322.463	0.29
322.674	0.25
322.885	0.2
323.096	0.24
323.307	0.26
323.518	0.27
323.729	0.21
323.94	0.24
324.151	0.18
324.362	0.26
324.573	0.29
324.784	0.25
324.995	0.31
325.206	0.26
325.417	0.22
325.628	0.2
325.838	0.22
326.049	0.24
326.26	0.29
326.471	0.22
326.682	0.29
326.892	0.23
327.103	0.18
327.314	0.2
327.525	0.29
327.735	0.27
327.946	0.24
328.157	0.2
328.368	0.26
328.578	0.24
328.789	0.25
328.999	0.22
329.21	0.26
329.421	0.25
329.631	0.22
329.842	0.22
330.052	0.3
330.263	0.3
330.473	0.29
330.684	0.23
330.894	0.25
331.105	0.31
331.315	0.29
331.526	0.17
331.736	0.31
331.947	0.24
332.157	0.26
332.367	0.23
332.578	0.22
332.788	0.29
332.999	0.29
333.209	0.24
333.419	0.21
333.629	0.26
333.84	0.29
334.05	0.23
334.26	0.35
334.47	0.28
334.681	0.29
334.891	0.22
335.101	0.31
335.311	0.33
335.521	0.29
335.732	0.19
335.942	0.3
336.152	0.23
336.362	0.25
336.572	0.24
336.782	0.25
336.992	0.2
337.202	0.26
337.412	0.22
337.622	0.26
337.832	0.23
338.042	0.29
338.252	0.21
338.462	0.23
338.672	0.24
338.882	0.21
339.092	0.23
339.302	0.35
339.511	0.32
339.721	0.21
339.931	0.18
340.141	0.3
340.351	0.31
340.561	0.31
340.77	0.23
340.98	0.27
341.19	0.26
341.4	0.22
341.609	0.19
341.819	0.22
342.029	0.21
342.238	0.25
342.448	0.21
342.658	0.24
342.867	0.25
343.077	0.26
343.286	0.23
343.496	0.25
343.706	0.29
343.915	0.2
344.125	0.23
344.334	0.29
344.544	0.2
344.753	0.2
344.963	0.24
345.172	0.21
345.381	0.2
345.591	0.19
345.8	0.27
346.01	0.31
346.219	0.28
346.428	0.09
346.638	0.21
346.847	0.25
347.056	0.31
347.266	0.21
347.475	0.27
347.684	0.3
347.893	0.25
348.103	0.28
348.312	0.27
348.521	0.19
348.73	0.25
348.94	0.25
349.149	0.2
349.358	0.24
349.567	0.24
349.776	0.17
349.985	0.24
350.194	0.28
350.403	0.27
350.612	0.19
350.821	0.21
351.03	0.22
351.239	0.18
351.448	0.25
351.657	0.17
351.866	0.31
352.075	0.18
352.284	0.28
352.493	0.18
352.702	0.28
352.911	0.27
353.12	0.2
353.329	0.23
353.538	0.25
353.746	0.27
353.955	0.21
354.164	0.25
354.373	0.26
354.582	0.25
354.79	0.28
354.999	0.25
355.208	0.22
355.416	0.31
355.625	0.19
355.834	0.23
356.042	0.27
356.251	0.23
356.46	0.23
356.668	0.23
356.877	0.31
357.085	0.26
357.294	0.19
357.503	0.23
357.711	0.2
357.92	0.42
358.128	0.26
358.337	0.23
358.545	0.27
358.754	0.21
358.962	0.26
359.17	0.22
359.379	0.24
359.587	0.23
359.796	0.26
360.004	0.29
360.212	0.29
360.421	0.28
360.629	0.25
360.837	0.22
361.046	0.23
361.254	0.37
361.462	0.24
361.67	0.24
361.879	0.25
362.087	0.33
362.295	0.24
362.503	0.23
362.711	0.22
362.92	0.25
363.128	0.21
363.336	0.23
363.544	0.22
363.752	0.22
363.96	0.2
364.168	0.23
364.376	0.26
364.584	0.25
364.792	0.28
365	0.27
365.208	0.26
365.416	0.3
365.624	0.29
365.832	0.22
366.04	0.26
366.248	0.25
366.456	0.25
366.664	0.27
366.872	0.23
367.079	0.23
367.287	0.26
367.495	0.26
367.703	0.23
367.911	0.24
368.118	0.24
368.326	0.24
368.534	0.19
368.742	0.31
368.949	0.19
369.157	0.21
369.365	0.32
369.572	0.28
369.78	0.17
369.988	0.26
370.195	0.27
370.403	0.28
370.61	0.19
370.818	0.25
371.026	0.33
371.233	0.19
371.441	0.24
371.648	0.22
371.856	0.25
372.063	0.25
372.271	0.22
372.478	0.22
372.685	0.22
372.893	0.3
373.1	0.25
373.308	0.29
373.515	0.33
373.722	0.3
373.93	0.26
374.137	0.3
374.344	0.32
374.552	0.32
374.759	0.26
374.966	0.3
375.173	0.24
375.381	0.3
375.588	0.28
375.795	0.21
376.002	0.2
376.209	0.21
376.417	0.26
376.624	0.29
376.831	0.28
377.038	0.24
377.245	0.16
377.452	0.26
377.659	0.21
377.866	0.24
378.073	0.26
378.28	0.25
378.487	0.3
378.694	0.27
378.901	0.24
379.108	0.23
379.315	0.32
379.522	0.3
379.729	0.28
379.936	0.25
380.143	0.29
380.35	0.24
380.557	0.26
380.763	0.29
380.97	0.24
381.177	0.28
381.384	0.27
381.591	0.26
381.797	0.3
382.004	0.26
382.211	0.28
382.418	0.25
382.624	0.26
382.831	0.3
383.038	0.28
383.244	0.3
383.451	0.3
383.658	0.25
383.864	0.28
384.071	0.22
384.277	0.32
384.484	0.29
384.69	0.33
384.897	0.19
385.103	0.3
385.31	0.26
385.516	0.25
385.723	0.26
385.929	0.25
386.136	0.22
386.342	0.25
386.549	0.26
386.755	0.34
386.961	0.3
387.168	0.28
387.374	0.3
387.58	0.34
387.787	0.32
387.993	0.32
388.199	0.27
388.406	0.25
388.612	0.21
388.818	0.28
389.024	0.27
389.231	0.28
389.437	0.37
389.643	0.33
389.849	0.29
390.055	0.3
390.261	0.27
390.467	0.28
390.674	0.3
390.88	0.26
391.086	0.34
391.292	0.28
391.498	0.3
391.704	0.32
391.91	0.26
392.116	0.25
392.322	0.21
392.528	0.32
392.734	0.28
392.94	0.28
393.146	0.25
393.352	0.29
393.557	0.28
393.763	0.27
393.969	0.32
394.175	0.26
394.381	0.3
394.587	0.23
394.792	0.32
394.998	0.36
395.204	0.34
395.41	0.31
395.615	0.32
395.821	0.38
396.027	0.31
396.233	0.29
396.438	0.33
396.644	0.42
396.85	0.36
397.055	0.28
397.261	0.33
397.466	0.43
397.672	0.35
397.878	0.38
398.083	0.34
398.289	0.29
398.494	0.4
398.7	0.38
398.905	0.26
399.111	0.4
399.316	0.27
399.522	0.33
399.727	0.33
399.932	0.36
400.138	0.36
400.343	0.41
400.549	0.35
400.754	0.35
400.959	0.38
401.165	0.36
401.37	0.42
401.575	0.47
401.78	0.39
401.986	0.34
402.191	0.35
402.396	0.39
402.601	0.46
402.807	0.44
403.012	0.41
403.217	0.45
403.422	0.38
403.627	0.43
403.832	0.4
404.037	0.46
404.243	0.4
404.448	0.37
404.653	0.43
404.858	0.45
405.063	0.44
405.268	0.37
405.473	0.41
405.678	0.46
405.883	0.6
406.088	0.5
406.293	0.4
406.498	0.38
406.703	0.5
406.907	0.49
407.112	0.43
407.317	0.51
407.522	0.58
407.727	0.46
407.932	0.52
408.136	0.61
408.341	0.55
408.546	0.56
408.751	0.54
408.956	0.6
409.16	0.61
409.365	0.62
409.57	0.58
409.774	0.64
409.979	0.7
410.184	0.67
410.388	0.62
410.593	0.74
410.798	0.73
411.002	0.73
411.207	0.82
411.411	0.83
411.616	0.73
411.82	0.81
412.025	0.83
412.229	0.78
412.434	0.95
412.638	0.93
412.843	0.91
413.047	0.87
413.252	0.93
413.456	0.97
413.66	0.99
413.865	1.07
414.069	1.09
414.273	1.08
414.478	1.1
414.682	1.17
414.886	1.18
415.091	1.22
415.295	1.21
415.499	1.36
415.703	1.27
415.908	1.47
416.112	1.31
416.316	1.49
416.52	1.56
416.724	1.52
416.929	1.56
417.133	1.81
417.337	1.74
417.541	1.76
417.745	1.82
417.949	1.98
418.153	2.02
418.357	1.97
418.561	2.21
418.765	2.18
418.969	2.32
419.173	2.35
419.377	2.4
419.581	2.63
419.785	2.66
419.989	2.6
420.193	2.77
420.397	2.89
420.601	2.98
420.804	3.07
421.008	3.01
421.212	3.22
421.416	3.17
421.62	3.22
421.823	3.31
422.027	3.46
422.231	3.39
422.435	3.48
422.638	3.61
422.842	3.58
423.046	3.7
423.249	3.94
423.453	3.91
423.657	4.04
423.86	4.19
424.064	4.24
424.268	4.4
424.471	4.43
424.675	4.63
424.878	4.79
425.082	4.8
425.285	5.12
425.489	5.09
425.692	5.19
425.896	5.18
426.099	5.39
426.303	5.57
426.506	5.7
426.71	5.89
426.913	6.1
427.116	6.16
427.32	6.29
427.523	6.43
427.726	6.63
427.93	6.83
428.133	7.07
428.336	7.14
428.54	7.4
428.743	7.5
428.946	7.96
429.149	7.83
429.353	7.86
429.556	7.92
429.759	8.03
429.962	8.06
430.165	8.26
430.368	7.9
430.571	7.98
430.775	7.99
430.978	8.05
431.181	8.16
431.384	8.12
431.587	8.28
431.79	8.69
431.993	8.7
432.196	8.85
432.399	9.22
432.602	9.28
432.805	9.43
433.008	9.97
433.211	9.91
433.414	10.1
433.616	10.24
433.819	10.33
434.022	10.43
434.225	10.48
434.428	10.6
434.631	10.99
434.833	10.74
435.036	11.09
435.239	11.26
435.442	11.31
435.645	11.5
435.847	11.48
436.05	11.78
436.253	12.16
436.455	12.15
436.658	11.92
436.861	12.25
437.063	12.49
437.266	12.35
437.468	12.67
437.671	13.15
437.874	13.05
438.076	12.86
438.279	13.39
438.481	13.3
438.684	14.2
438.886	13.78
439.089	14.06
439.291	14.12
439.494	14.42
439.696	14.69
439.899	15.09
440.101	15.51
440.303	15.79
440.506	16.55
440.708	16.19
440.91	16.54
441.113	16.71
441.315	16.9
441.517	16.59
441.72	17.06
441.922	16.92
442.124	16.76
442.326	17.13
442.529	17.32
442.731	17.34
442.933	17.7
443.135	17.32
443.337	17.48
443.539	18.02
443.742	17.65
443.944	18.28
444.146	18.13
444.348	17.97
444.55	17.97
444.752	18.13
444.954	18.16
445.156	18.01
445.358	18.45
445.56	18.7
445.762	18.61
445.964	18.99
446.166	18.65
446.368	18.59
446.57	18.61
446.772	18.34
446.974	17.94
447.175	18.27
447.377	17.94
447.579	18.53
447.781	18.04
447.983	17.77
448.184	17.33
448.386	17.79
448.588	17.33
448.79	17.16
448.991	17.71
449.193	17.61
449.395	16.85
449.597	16.62
449.798	16.44
450	16
450.202	15.9
450.403	15.94
450.605	15.84
450.806	15.48
451.008	15.2
451.21	15.12
451.411	14.64
451.613	13.97
451.814	14.19
452.016	14.11
452.217	13.25
452.419	13.45
452.62	13
452.821	12.84
453.023	12.76
453.224	12.37
453.426	11.88
453.627	11.15
453.828	11.28
454.03	11.49
454.231	11.44
454.432	11.11
454.634	10.91
454.835	10.63
455.036	10.53
455.238	10.1
455.439	9.83
455.64	9.49
455.841	9.48
456.042	9.6
456.244	9.27
456.445	8.96
456.646	8.68
456.847	8.68
457.048	8.53
457.249	8.47
457.45	8.3
457.651	7.84
457.852	7.63
458.054	7.26
458.255	7.27
458.456	7.35
458.657	7.22
458.858	6.69
459.058	6.75
459.259	6.73
459.46	6.55
459.661	6.4
459.862	6.52
460.063	6.39
460.264	6.23
460.465	6.04
460.666	6.07
460.866	5.79
461.067	5.55
461.268	5.61
461.469	5.48
461.67	5.45
461.87	5.19
462.071	5.32
462.272	5.13
462.473	5.19
462.673	5.29
462.874	5.16
463.075	5.16
463.275	5.09
463.476	5.15
463.676	5.2
463.877	4.95
464.078	5.02
464.278	4.99
464.479	4.94
464.679	4.77
464.88	4.7
465.08	4.62
465.281	4.54
465.481	4.37
465.682	4.19
465.882	4.18
466.083	4.08
466.283	4.02
466.483	3.88
466.684	3.72
466.884	3.65
467.085	3.72
467.285	3.81
467.485	3.65
467.686	3.53
467.886	3.42
468.086	3.38
468.286	3.32
468.487	3.41
468.687	3.33
468.887	3.19
469.087	3.32
469.287	3.31
469.488	3.08
469.688	3.22
469.888	3.17
470.088	3.15
470.288	3
470.488	2.98
470.688	2.88
470.888	2.88
471.088	2.68
471.288	2.8
471.488	2.75
471.688	2.79
471.888	2.69
472.088	2.83
472.288	2.71
472.488	2.64
472.688	2.53
472.888	2.57
473.088	2.57
473.288	2.52
473.488	2.49
473.688	2.59
473.887	2.46
474.087	2.44
474.287	2.49
474.487	2.38
474.687	2.43
474.886	2.4
475.086	2.3
475.286	2.3
475.486	2.32
475.685	2.3
475.885	2.21
476.085	2.29
476.284	2.27
476.484	2.23
476.684	2.21
476.883	2.33
477.083	2.14
477.282	2.18
477.482	2.23
477.681	2.17
477.881	2.05
478.08	2.07
478.28	2.07
478.479	2.09
478.679	2.17
478.878	2.08
479.078	2.02
479.277	2.08
479.477	2.05
479.676	2.01
479.875	2.02
480.075	1.97
480.274	2.04
480.473	2.05
480.673	2.04
480.872	2.12
481.071	2.03
481.271	2.07
481.47	1.95
481.669	2
481.868	1.92
482.067	1.97
482.267	1.97
482.466	1.97
482.665	1.91
482.864	1.95
483.063	1.95
483.262	2
483.461	2.01
483.661	2.06
483.86	1.97
484.059	2.05
484.258	2.01
484.457	2.01
484.656	2.02
484.855	2.02
485.054	1.92
485.253	2
485.452	1.97
485.651	2.04
485.849	2.01
486.048	1.99
486.247	2.03
486.446	2.07
486.645	1.99
486.844	2.05
487.043	2.08
487.241	2.06
487.44	2.05
487.639	2.1
487.838	2.11
488.037	2.09
488.235	2.18
488.434	2.15
488.633	2.07
488.831	2.22
489.03	2.21
489.229	2.21
489.427	2.19
489.626	2.25
489.825	2.24
490.023	2.28
490.222	2.25
490.42	2.28
490.619	2.35
490.817	2.35
491.016	2.33
491.214	2.4
491.413	2.37
491.611	2.34
491.81	2.36
492.008	2.42
492.207	2.48
492.405	2.53
492.604	2.47
492.802	2.53
493	2.57
493.199	2.59
493.397	2.64
493.595	2.65
493.794	2.64
493.992	2.73
494.19	2.73
494.388	2.81
494.587	2.72
494.785	2.76
494.983	2.74
495.181	2.85
495.379	2.88
495.578	2.96
495.776	2.89
495.974	2.91
496.172	2.98
496.37	3.05
496.568	3.1
496.766	3.06
496.964	3.19
497.162	3.14
497.36	3.18
497.558	3.24
497.756	3.29
497.954	3.31
498.152	3.33
498.35	3.42
498.548	3.37
498.746	3.37
498.944	3.36
499.142	3.44
499.34	3.51
499.538	3.64
499.736	3.54
499.933	3.61
500.131	3.61
500.329	3.78
500.527	3.75
500.725	3.85
500.922	3.84
501.12	3.84
501.318	3.91
501.516	3.89
501.713	3.98
501.911	3.99
502.109	3.99
502.306	4.09
502.504	4.01
502.701	4.08
502.899	4.18
503.097	4.32
503.294	4.14
503.492	4.34
503.689	4.39
503.887	4.36
504.084	4.42
504.282	4.41
504.479	4.38
504.677	4.54
504.874	4.5
505.072	4.45
505.269	4.67
505.466	4.66
505.664	4.69
505.861	4.65
506.059	4.77
506.256	4.77
506.453	4.78
506.651	4.91
506.848	4.95
507.045	4.96
507.242	5.01
507.44	4.95
507.637	5.07
507.834	5.06
508.031	5.14
508.229	5.13
508.426	5.04
508.623	5.28
508.82	5.28
509.017	5.21
509.214	5.23
509.411	5.39
509.608	5.34
509.805	5.47
510.003	5.46
510.2	5.54
510.397	5.63
510.594	5.55
510.791	5.64
510.988	5.61
511.184	5.62
511.381	5.5
511.578	5.66
511.775	5.8
511.972	5.69
512.169	5.81
512.366	5.81
512.563	5.89
512.76	5.97
512.956	5.95
513.153	5.91
513.35	5.87
513.547	5.95
513.744	6.07
513.94	6.04
514.137	6.12
514.334	6.08
514.53	6.17
514.727	6.3
514.924	6.2
515.12	6.21
515.317	6.22
515.514	6.22
515.71	6.2
515.907	6.44
516.103	6.43
516.3	6.33
516.497	6.47
516.693	6.45
516.89	6.48
517.086	6.47
517.283	6.53
517.479	6.38
517.676	6.6
517.872	6.64
518.068	6.64
518.265	6.59
518.461	6.59
518.658	6.74
518.854	6.7
519.05	6.77
519.247	6.8
519.443	6.69
519.639	6.89
519.836	6.74
520.032	6.76
520.228	6.86
520.424	6.8
520.621	6.95
520.817	6.89
521.013	6.89
521.209	7.08
521.405	7.06
521.601	7.02
521.798	6.93
521.994	7
522.19	6.95
522.386	7.02
522.582	7.08
522.778	7.24
522.974	7.1
523.17	7.17
523.366	7.13
523.562	7.15
523.758	7.13
523.954	7
524.15	7.17
524.346	7.26
524.542	7.23
524.738	7.24
524.934	7.36
525.129	7.25
525.325	7.26
525.521	7.24
525.717	7.5
525.913	7.33
526.109	7.36
526.304	7.43
526.5	7.46
526.696	7.45
526.892	7.3
527.087	7.58
527.283	7.46
527.479	7.45
527.674	7.25
527.87	7.52
528.066	7.47
528.261	7.51
528.457	7.44
528.653	7.57
528.848	7.58
529.044	7.61
529.239	7.51
529.435	7.53
529.63	7.53
529.826	7.5
530.021	7.58
530.217	7.62
530.412	7.58
530.608	7.59
530.803	7.62
530.999	7.51
531.194	7.61
531.389	7.7
531.585	7.7
531.78	7.8
531.975	7.65
532.171	7.7
532.366	7.72
532.561	7.79
532.757	7.7
532.952	7.87
533.147	7.57
533.342	7.76
533.538	7.71
533.733	7.89
533.928	7.51
534.123	7.79
534.318	7.79
534.513	7.71
534.709	7.9
534.904	7.83
535.099	7.87
535.294	7.85
535.489	7.96
535.684	7.79
535.879	7.85
536.074	7.93
536.269	7.89
536.464	7.93
536.659	7.83
536.854	7.85
537.049	7.95
537.244	7.91
537.439	7.89
537.634	7.9
537.828	7.91
538.023	7.93
538.218	7.86
538.413	7.8
538.608	7.97
538.803	7.91
538.997	7.98
539.192	7.89
539.387	7.9
539.582	7.91
539.776	7.88
539.971	8.01
540.166	8
540.36	7.92
540.555	8.04
540.75	7.96
540.944	7.97
541.139	8.03
541.334	7.95
541.528	7.96
541.723	8.05
541.917	8.03
542.112	7.98
542.306	7.84
542.501	7.89
542.695	7.97
542.89	7.93
543.084	7.98
543.279	8.02
543.473	7.99
543.668	8.06
543.862	7.9
544.056	8.02
544.251	8.03
544.445	8.06
544.64	8.14
544.834	7.82
545.028	7.7
545.222	8.07
545.417	8.23
545.611	8.07
545.805	8.04
546	7.82
546.194	8.03
546.388	8.07
546.582	8.01
546.776	7.99
546.97	8.06
547.165	8.02
547.359	8
547.553	7.97
547.747	8.02
547.941	8.17
548.135	8.05
548.329	8.08
548.523	8.1
548.717	7.97
548.911	7.94
549.105	7.94
549.299	8.09
549.493	8.09
549.687	7.93
549.881	8.11
550.075	8.13
550.269	8
550.463	8.11
550.657	8.08
550.85	8.08
551.044	8.1
551.238	8.12
551.432	8.1
551.626	8.1
551.82	8.15
552.013	8
552.207	8.19
552.401	8.21
552.594	8.03
552.788	7.99
552.982	8.03
553.176	8
553.369	8.23
553.563	8.12
553.756	8.08
553.95	8.13
554.144	8.14
554.337	8.11
554.531	7.91
554.724	8.07
554.918	8.14
555.111	8.08
555.305	8.06
555.498	8.02
555.692	8.21
555.885	8.12
556.079	8.05
556.272	8.12
556.466	8.01
556.659	8.06
556.852	8.15
557.046	7.99
557.239	7.86
557.432	8.03
557.626	8.15
557.819	8.17
558.012	8.15
558.206	8.15
558.399	8.09
558.592	8.04
558.785	8.03
558.979	8.06
559.172	8.06
559.365	8.12
559.558	8.02
559.751	7.96
559.944	8.21
560.138	8.05
560.331	8.11
560.524	8.17
560.717	8.06
560.91	8.08
561.103	8.15
561.296	7.96
561.489	8.16
561.682	8.2
561.875	8.11
562.068	8.2
562.261	7.99
562.454	8.21
562.647	7.99
562.84	8.07
563.032	8.11
563.225	8.01
563.418	8.07
563.611	8.16
563.804	8.1
563.997	7.99
564.19	7.87
564.382	8.23
564.575	8.12
564.768	8.05
564.961	8.05
565.153	8.02
565.346	7.96
565.539	8.13
565.731	8.03
565.924	8.14
566.117	8.2
566.309	8.13
566.502	8.02
566.695	7.97
566.887	8.15
567.08	8.07
567.272	8.14
567.465	8.01
567.657	8.15
567.85	7.95
568.042	8.04
568.235	8.14
568.427	7.89
568.62	7.99
568.812	7.98
569.005	8.08
569.197	8.02
569.389	8.01
569.582	8.03
569.774	8.02
569.966	7.96
570.159	7.93
570.351	7.89
570.543	7.96
570.736	8.06
570.928	7.89
571.12	8.02
571.312	7.96
571.505	7.75
571.697	8.04
571.889	8.02
572.081	7.99
572.273	7.95
572.465	8.01
572.658	8.05
572.85	7.96
573.042	8.05
573.234	7.85
573.426	7.94
573.618	7.9
573.81	7.99
574.002	7.96
574.194	7.9
574.386	7.89
574.578	7.78
574.77	7.88
574.962	7.9
575.154	7.78
575.346	7.82
575.538	7.8
575.729	7.84
575.921	7.95
576.113	7.94
576.305	7.89
576.497	8.01
576.689	7.74
576.88	7.78
577.072	7.91
577.264	7.86
577.456	7.88
577.647	7.86
577.839	7.95
578.031	7.79
578.223	7.77
578.414	7.69
578.606	7.78
578.798	7.84
578.989	7.76
579.181	7.94
579.372	7.84
579.564	7.84
579.755	7.74
579.947	7.68
580.139	7.81
580.33	7.67
580.522	7.76
580.713	7.67
580.905	7.65
581.096	7.85
581.287	7.76
581.479	7.71
581.67	7.72
581.862	7.69
582.053	7.74
582.244	7.49
582.436	7.81
582.627	7.63
582.818	7.69
583.01	7.57
583.201	7.7
583.392	7.6
583.583	7.6
583.775	7.46
583.966	7.58
584.157	7.64
584.348	7.69
584.54	7.54
584.731	7.58
584.922	7.54
585.113	7.47
585.304	7.53
585.495	7.55
585.686	7.62
585.877	7.59
586.068	7.7
586.259	7.57
586.45	7.55
586.641	7.5
586.832	7.58
587.023	7.47
587.214	7.49
587.405	7.46
587.596	7.33
587.787	7.34
587.978	7.44
588.169	7.39
588.36	7.35
588.551	7.44
588.742	7.46
588.932	7.43
589.123	7.2
589.314	7.45
589.505	7.32
589.696	7.38
589.886	7.28
590.077	7.3
590.268	7.26
590.458	7.25
590.649	7.15
590.84	7.31
591.03	7.3
591.221	7.33
591.412	7.14
591.602	7.33
591.793	7.22
591.984	7.24
592.174	7.21
592.365	7.37
592.555	7.13
592.746	7.13
592.936	7.12
593.127	7.18
593.317	7.18
593.508	7.19
593.698	7.06
593.889	7.08
594.079	7.09
594.269	7.03
594.46	7.11
594.65	7.01
594.84	7.03
595.031	6.93
595.221	6.99
595.411	7.05
595.602	7
595.792	6.9
595.982	6.89
596.172	7.02
596.363	6.85
596.553	6.93
596.743	6.9
596.933	6.81
597.123	6.87
597.314	6.7
597.504	6.76
597.694	6.91
597.884	6.77
598.074	6.89
598.264	6.78
598.454	6.79
598.644	6.69
598.834	6.78
599.024	6.72
599.214	6.69
599.404	6.81
599.594	6.68
599.784	6.65
599.974	6.68
600.164	6.66
600.354	6.61
600.544	6.51
600.734	6.63
600.924	6.61
601.114	6.45
601.303	6.5
601.493	6.54
601.683	6.53
601.873	6.54
602.063	6.48
602.252	6.51
602.442	6.42
602.632	6.44
602.821	6.38
603.011	6.43
603.201	6.44
603.39	6.41
603.58	6.28
603.77	6.37
603.959	6.45
604.149	6.31
604.339	6.38
604.528	6.43
604.718	6.33
604.907	6.29
605.097	6.25
605.286	6.21
605.476	6.21
605.665	6.28
605.855	6.19
606.044	6.24
606.234	6.25
606.423	6.19
606.612	6.14
606.802	6.05
606.991	6.16
607.181	6.21
607.37	6.12
607.559	5.92
607.749	6.12
607.938	5.94
608.127	6.06
608.316	6.03
608.506	6
608.695	6.03
608.884	5.92
609.073	5.99
609.263	6.04
609.452	5.96
609.641	5.85
609.83	5.82
610.019	5.94
610.208	5.88
610.397	5.82
610.586	5.84
610.775	5.76
610.965	5.76
611.154	5.7
611.343	5.79
611.532	5.75
611.721	5.85
611.91	5.74
612.099	5.71
612.287	5.69
612.476	5.53
612.665	5.79
612.854	5.59
613.043	5.6
613.232	5.6
613.421	5.51
613.61	5.58
613.798	5.53
613.987	5.6
614.176	5.52
614.365	5.53
614.554	5.51
614.742	5.52
614.931	5.37
615.12	5.53
615.309	5.45
615.497	5.35
615.686	5.3
615.875	5.43
616.063	5.32
616.252	5.34
616.44	5.37
616.629	5.27
616.818	5.28
617.006	5.22
617.195	5.21
617.383	5.32
617.572	5.17
617.76	5.2
617.949	5.21
618.137	5.22
618.326	5.17
618.514	5.01
618.703	4.96
618.891	5.19
619.079	5.05
619.268	5.17
619.456	4.98
619.644	5.13
619.833	5.01
620.021	4.97
620.209	4.9
620.398	4.98
620.586	4.84
620.774	5.03
620.962	4.87
621.151	5
621.339	4.91
621.527	4.88
621.715	4.84
621.903	4.84
622.092	4.78
622.28	4.86
622.468	4.68
622.656	4.75
622.844	4.73
623.032	4.83
623.22	4.63
623.408	4.79
623.596	4.7
623.784	4.79
623.972	4.63
624.16	4.6
624.348	4.71
624.536	4.78
624.724	4.5
624.912	4.65
625.1	4.65
625.288	4.61
625.476	4.47
625.664	4.6
625.851	4.49
626.039	4.58
626.227	4.44
626.415	4.53
626.603	4.39
626.79	4.46
626.978	4.48
627.166	4.48
627.354	4.33
627.541	4.36
627.729	4.23
627.917	4.47
628.104	4.39
628.292	4.28
628.48	4.36
628.667	4.31
628.855	4.36
629.042	4.38
629.23	4.27
629.418	4.22
629.605	4.24
629.793	4.14
629.98	4.25
630.168	4.12
630.355	4.23
630.543	4.14
630.73	4.1
630.917	4.09
631.105	4.2
631.292	4.11
631.48	4.06
631.667	4.14
631.854	4
632.042	4.01
632.229	3.96
632.416	4.03
632.604	4.05
632.791	3.86
632.978	4.03
633.165	3.91
633.353	3.99
633.54	3.99
633.727	3.87
633.914	3.83
634.101	3.79
634.289	3.95
634.476	3.78
634.663	3.78
634.85	3.77
635.037	3.78
635.224	3.71
635.411	3.79
635.598	3.75
635.785	3.73
635.972	3.72
636.159	3.73
636.346	3.66
636.533	3.64
636.72	3.69
636.907	3.65
637.094	3.6
637.281	3.5
637.468	3.65
637.655	3.67
637.842	3.54
638.029	3.51
638.215	3.51
638.402	3.55
638.589	3.43
638.776	3.5
638.963	3.42
639.149	3.55
639.336	3.58
639.523	3.44
639.709	3.46
639.896	3.46
640.083	3.42
640.27	3.49
640.456	3.38
640.643	3.38
640.829	3.25
641.016	3.3
641.203	3.25
641.389	3.33
641.576	3.26
641.762	3.29
641.949	3.21
642.135	3.28
642.322	3.23
642.508	3.17
642.695	3.27
642.881	3.17
643.068	3.16
643.254	3.19
643.441	3.18
643.627	3.14
643.813	3.1
644	3.18
644.186	3.1
644.372	3.16
644.559	3.08
644.745	3.08
644.931	3.03
645.118	3.05
645.304	3.07
645.49	3.06
645.676	2.98
645.862	3
646.049	3.1
646.235	2.99
646.421	3.13
646.607	3.05
646.793	2.93
646.979	2.87
647.165	2.93
647.352	2.93
647.538	2.92
647.724	2.87
647.91	2.9
648.096	2.89
648.282	2.92
648.468	2.85
648.654	2.89
648.84	2.84
649.026	2.81
649.212	2.78
649.397	2.76
649.583	2.75
649.769	2.83
649.955	2.76
650.141	2.78
650.327	2.77
650.513	2.71
650.698	2.8
650.884	2.66
651.07	2.71
651.256	2.66
651.442	2.72
651.627	2.64
651.813	2.7
651.999	2.68
652.184	2.67
652.37	2.67
652.556	2.61
652.741	2.63
652.927	2.53
653.113	2.61
653.298	2.6
653.484	2.54
653.669	2.52
653.855	2.55
654.04	2.62
654.226	2.59
654.412	2.57
654.597	2.45
654.782	2.51
654.968	2.55
655.153	2.56
655.339	2.45
655.524	2.41
655.71	2.51
655.895	2.49
656.08	2.43
656.266	2.49
656.451	2.42
656.636	2.4
656.822	2.48
657.007	2.4
657.192	2.39
657.378	2.36
657.563	2.35
657.748	2.38
657.933	2.36
658.118	2.33
658.304	2.3
658.489	2.37
658.674	2.38
658.859	2.29
659.044	2.36
659.229	2.38
659.414	2.23
659.599	2.26
659.785	2.2
659.97	2.21
660.155	2.27
660.34	2.29
660.525	2.18
660.71	2.21
660.895	2.23
661.08	2.15
661.264	2.16
661.449	2.17
661.634	2.18
661.819	2.18
662.004	2.12
662.189	2.04
662.374	2.08
662.559	2.04
662.743	2.02
662.928	2.05
663.113	1.98
663.298	2
663.483	2
663.667	2.07
663.852	1.97
664.037	2.09
664.221	2.02
664.406	2.06
664.591	2.03
664.775	1.98
664.96	1.9
665.145	1.92
665.329	1.95
665.514	1.87
665.698	1.87
665.883	1.85
666.068	1.93
666.252	1.93
666.437	1.85
666.621	1.85
666.806	1.88
666.99	1.87
667.174	1.72
667.359	1.85
667.543	1.79
667.728	1.79
667.912	1.69
668.096	1.8
668.281	1.74
668.465	1.75
668.649	1.74
668.834	1.69
669.018	1.71
669.202	1.73
669.387	1.64
669.571	1.76
669.755	1.6
669.939	1.72
670.124	1.7
670.308	1.75
670.492	1.68
670.676	1.64
670.86	1.64
671.044	1.63
671.228	1.69
671.413	1.58
671.597	1.59
671.781	1.62
671.965	1.67
672.149	1.62
672.333	1.59
672.517	1.6
672.701	1.57
672.885	1.56
673.069	1.49
673.253	1.57
673.437	1.62
673.621	1.54
673.804	1.53
673.988	1.52
674.172	1.49
674.356	1.47
674.54	1.48
674.724	1.6
674.908	1.5
675.091	1.53
675.275	1.49
675.459	1.57
675.643	1.51
675.826	1.44
676.01	1.46
676.194	1.43
676.377	1.48
676.561	1.42
676.745	1.43
676.928	1.49
677.112	1.5
677.296	1.41
677.479	1.36
677.663	1.38
677.846	1.39
678.03	1.42
678.213	1.37
678.397	1.42
678.58	1.36
678.764	1.35
678.947	1.3
679.131	1.37
679.314	1.35
679.498	1.37
679.681	1.32
679.865	1.42
680.048	1.27
680.231	1.32
680.415	1.32
680.598	1.32
680.781	1.32
680.965	1.29
681.148	1.26
681.331	1.24
681.514	1.24
681.698	1.21
681.881	1.32
682.064	1.23
682.247	1.27
682.43	1.15
682.614	1.3
682.797	1.32
682.98	1.25
683.163	1.18
683.346	1.29
683.529	1.23
683.712	1.18
683.895	1.23
684.078	1.17
684.261	1.17
684.444	1.2
684.627	1.21
684.81	1.14
684.993	1.17
685.176	1.19
685.359	1.13
685.542	1.11
685.725	1.21
685.908	1.17
686.091	1.1
686.274	1.19
686.457	1.15
686.639	1.14
686.822	1.16
687.005	1.14
687.188	1.08
687.371	1.16
687.553	1.19
687.736	1.18
687.919	1.21
688.102	1.12
688.284	1.07
688.467	1.08
688.65	1.07
688.832	1.01
689.015	1.04
689.197	0.97
689.38	1.17
689.563	1.18
689.745	1.02
689.928	0.98
690.11	1.02
690.293	1.07
690.475	0.99
690.658	0.98
690.84	1.02
691.023	0.96
691.205	0.99
691.388	1.06
691.57	0.98
691.752	1.03
691.935	0.86
692.117	0.93
692.3	1.01
692.482	0.93
692.664	0.98
692.847	0.97
693.029	1
693.211	0.98
693.393	0.9
693.576	0.94
693.758	0.95
693.94	0.91
694.122	0.92
694.304	0.93
694.487	0.94
694.669	1
694.851	0.86
695.033	0.93
695.215	0.91
695.397	0.9
695.579	0.91
695.761	0.81
695.943	0.84
696.125	1.02
696.308	0.96
696.49	0.79
696.671	0.98
696.853	0.92
697.035	1.14
697.217	0.88
697.399	0.88
697.581	0.82
697.763	0.86
697.945	0.84
698.127	0.88
698.309	0.94
698.491	0.84
698.672	0.94
698.854	0.83
699.036	0.92
699.218	0.81
699.399	0.89
699.581	0.86
699.763	0.84
699.945	0.8
700.126	0.75
700.308	0.83
700.49	0.78
700.671	0.73
700.853	0.73
701.035	0.82
701.216	0.74
701.398	0.77
701.579	0.75
701.761	0.83
701.943	0.72
702.124	0.75
702.306	0.73
702.487	0.92
702.669	0.74
702.85	0.8
703.031	0.69
703.213	0.88
703.394	0.78
703.576	0.77
703.757	0.89
703.938	0.8
704.12	0.88
704.301	0.8
704.483	0.71
704.664	0.73
704.845	0.82
705.026	0.84
705.208	0.7
705.389	0.81
705.57	0.77
705.751	0.7
705.933	0.72
706.114	0.84
706.295	0.77
706.476	0.73
706.657	0.84
706.838	0.81
707.02	0.78
707.201	0.7
707.382	0.68
707.563	0.72
707.744	0.66
707.925	0.64
708.106	0.61
708.287	0.66
708.468	0.81
708.649	0.65
708.83	0.74
709.011	0.7
709.192	0.73
709.373	0.65
709.554	0.67
709.734	0.79
709.915	0.7
710.096	0.7
710.277	0.61
710.458	0.66
710.639	0.7
710.819	0.62
711	0.72
711.181	0.69
711.362	0.73
711.542	0.68
711.723	0.65
711.904	0.79
712.085	0.71
712.265	0.71
712.446	0.51
712.627	0.58
712.807	0.72
712.988	0.66
713.168	0.58
713.349	0.68
713.53	0.49
713.71	0.55
713.891	0.55
714.071	0.6
714.252	0.59
714.432	0.65
714.613	0.49
714.793	0.6
714.974	0.7
715.154	0.67
715.334	0.7
715.515	0.67
715.695	0.52
715.876	0.58
716.056	0.67
716.236	0.59
716.417	0.63
716.597	0.63
716.777	0.81
716.957	0.62
717.138	0.63
717.318	0.66
717.498	0.5
717.678	0.63
717.859	0.67
718.039	0.48
718.219	0.68
718.399	0.65
718.579	0.54
718.759	0.56
718.939	0.66
719.12	0.62
719.3	0.64
719.48	0.54
719.66	0.47
719.84	0.66
720.02	0.61
720.2	0.61
720.38	0.62
720.56	0.67
720.74	0.51
720.92	0.53
721.1	0.75
721.279	0.66
721.459	0.6
721.639	0.53
721.819	0.56
721.999	0.6
722.179	0.58
722.359	0.45
722.538	0.67
722.718	0.55
722.898	0.63
723.078	0.58
723.257	0.54
723.437	0.63
723.617	0.62
723.797	0.52
723.976	0.57
724.156	0.6
724.336	0.6
724.515	0.77
724.695	0.47
724.874	0.53
725.054	0.66
725.234	0.55
725.413	0.67
725.593	0.57
725.772	0.48
725.952	0.58
726.131	0.5
726.311	0.55
726.49	0.56
726.67	0.52
726.849	0.5
727.028	0.56
727.208	0.53
727.387	0.56
727.567	0.49
727.746	0.53
727.925	0.5
728.105	0.47
728.284	0.58
728.463	0.52
728.643	0.61
728.822	0.51
729.001	0.6
729.18	0.53
729.359	0.6
729.539	0.58
729.718	0.62
729.897	0.69
730.076	0.59
730.255	0.4
730.434	0.58
730.614	0.71
730.793	0.58
730.972	0.56
731.151	0.59
731.33	0.64
731.509	0.66
731.688	0.54
731.867	0.6
732.046	0.5
732.225	0.77
732.404	0.48
732.583	0.51
732.762	0.62
732.941	0.66
733.12	0.64
733.298	0.54
733.477	0.68
733.656	0.57
733.835	0.5
734.014	0.67
734.193	0.52
734.371	0.57
734.55	0.62
734.729	0.42
734.908	0.65
735.086	0.62
735.265	0.7
735.444	0.41
735.623	0.52
735.801	0.52
735.98	0.56
736.159	0.58
736.337	0.54
736.516	0.61
736.694	0.57
736.873	0.55
737.052	0.89
737.23	0.71
737.409	0.58
737.587	0.79
737.766	0.33
737.944	0.56
738.123	0.74
738.301	0.64
738.479	0.57
738.658	0.66
738.836	0.28
739.015	0.59
739.193	0.69
739.371	0.46
739.55	0.45
739.728	0.41
739.906	0.7
740.085	0.82
740.263	0.62
740.441	0.33
740.62	0.82
740.798	0.72
740.976	0.41
741.154	0.48
741.332	0.71
741.511	0.6
741.689	0.62
741.867	0.57
742.045	0.54
742.223	0.45
742.401	0.46
742.579	0.51
742.757	0.5
742.935	0.3
743.114	0.43
743.292	0.41
743.47	0.55
743.648	0.48
743.826	0.31
744.004	0.54
744.181	0.61
744.359	0.45
744.537	0.55
744.715	0.35
744.893	0.51
745.071	0.49
745.249	0.54
745.427	0.42
745.605	0.52
745.782	0.49
745.96	0.44
746.138	0.5
746.316	0.52
746.493	0.29
746.671	0.5
746.849	0.44
747.027	0.55
747.204	0.33
747.382	0.45
747.56	0.42
747.737	0.32
747.915	0.48
748.093	0.54
748.27	0.32
748.448	0.38
748.625	0.3
748.803	0.32
748.98	0.34
749.158	0.46
749.335	0.47
749.513	0.39
749.69	0.41
749.868	0.32
750.045	0.49
750.223	0.41
750.4	0.23
750.578	0.64
750.755	0.38
750.932	0.27
751.11	0.51
751.287	0.37
751.464	0.57
751.642	0.22
751.819	0.41
751.996	0.46
752.173	0.34
752.351	0.37
752.528	0.41
752.705	0.32
752.882	0.38
753.06	0.38
753.237	0.47
753.414	0.58
753.591	0.6
753.768	0.43
753.945	0.35
754.122	0.3
754.299	0.35
754.476	0.3
754.654	0.41
754.831	0.44
755.008	0.41
755.185	0.27
755.362	0.33
755.539	0.37
755.716	0.47
755.892	0.4
756.069	0.37
756.246	0.38
756.423	0.44
756.6	0.54
756.777	0.21
756.954	0.53
757.131	0.37
757.307	0.28
757.484	0.22
757.661	0.34
757.838	0.49
758.015	0.26
758.191	0.49
758.368	0.39
758.545	0.54
758.721	0.49
758.898	0.24
759.075	0.46
759.251	0.38
759.428	0.4
759.605	0.33
759.781	0.4
759.958	0.4
760.134	0.3
760.311	0.19
760.488	0.5
760.664	0.61
760.841	0.47
761.017	0.29
761.194	0.47
761.37	0.48
761.547	0.32
761.723	0.27
761.899	0.45
762.076	0.3
762.252	0.22
762.429	0.2
762.605	0.47
762.781	0.41
762.958	0.38
763.134	0.33
763.31	0.31
763.486	0.32
763.663	0.16
763.839	0.44
764.015	0.21
764.191	0.32
764.368	0.37
764.544	0.33
764.72	0.34
764.896	0.48
765.072	0.3
765.248	0.29
765.425	0.34
765.601	0.49
765.777	0.4
765.953	0.09
766.129	0.32
766.305	0.13
766.481	0.37
766.657	0.39
766.833	0.54
767.009	0.16
767.185	0.28
767.361	0.31
767.537	0.2
767.713	0.57
767.889	0.3
768.065	0.31
768.24	0.36
768.416	0.34
768.592	0.21
768.768	0.32
768.944	0.48
769.12	0.24
769.295	0.3
769.471	0.32
769.647	0.3
769.823	0.57
769.998	0.17
770.174	0.28
770.35	0.77
770.525	0.55
770.701	0.23
770.877	0.19
771.052	0.27
771.228	0.44
771.403	0.42
771.579	0.37
771.755	0.57
771.93	0.38
772.106	0.11
772.281	0.2
772.457	0.47
772.632	0.27
772.808	0.17
772.983	0.23
773.159	0.21
773.334	0.58
773.509	0.3
773.685	0.37
773.86	0.75
774.036	0.51
774.211	0.43
774.386	0.26
774.562	0.42
774.737	0.52
774.912	0.27
775.087	0.45
775.263	0.37
775.438	0.1
775.613	0.21
775.788	0.29
775.964	0.49
776.139	0.74
776.314	0.18
776.489	0.44
776.664	0.31
776.839	0.37
777.014	0.54
777.19	0.45
777.365	0.49
777.54	0.74
777.715	0.32
777.89	0.34
778.065	0.37
778.24	0.33
778.415	0.65
778.59	0.21
778.765	0.21
778.94	0.51
779.115	0.22
779.289	0.33
779.464	0.31
779.639	0.48
779.814	0.1
779.989	0.22
780.164	0.66
780.339	0.5
780.513	0.22
780.688	0.04
780.863	0.35
781.038	0.65
781.212	0.18
781.387	0.34
781.562	0.38
781.737	0.59
781.911	0.41
782.086	0.31
782.261	0.32
782.435	0.64
782.61	0.19
782.784	0.3
782.959	0.42
783.134	0.19
783.308	0.26
783.483	0.31
783.657	0.69
783.832	0.61
784.006	0.24
784.181	0.46
784.355	0.65
784.53	0.54
784.704	0.15
784.878	0.45
785.053	0.47
785.227	0.5
785.402	0.82
785.576	0.13
785.75	0.43
785.925	0.31
786.099	0.43
786.273	0.68
786.448	0.6
786.622	0.58
786.796	0.35
786.97	0.01
787.145	0.81
787.319	0.36
787.493	0.11
787.667	0.15
787.841	0.42
788.015	0.57
788.19	0.38
788.364	0.56
788.538	0.65
788.712	0.44
788.886	0.44
789.06	0.6
789.234	0.71
789.408	0.31
789.582	0.55
789.756	0.5
789.93	0.29
790.104	0.33
790.278	0.25
790.452	0.22
790.626	0.65
790.8	0.28
790.973	0.64
791.147	0.73
791.321	0.51
791.495	0.75
791.669	0.46
791.843	0.62
792.016	0.65
792.19	0.77
792.364	0.24
792.538	0.89
792.711	0.58
792.885	0.27
793.059	0.19
793.233	0.04
793.406	0.51
793.58	0.36
793.754	0.55
793.927	0.45
794.101	0.64
794.274	0.79
794.448	0.56
794.622	0.26
794.795	1.04
794.969	0.28
795.142	0.87
795.316	0.26
795.489	0.13
795.663	0.74
795.836	0.43
796.009	0.28
796.183	0.77
796.356	0.56
796.53	0.54
796.703	0.23
796.876	1
797.05	0.46
797.223	0.47
797.396	0.45
797.57	0.59
797.743	0.92
797.916	0.62
798.09	0.57
798.263	0.56
798.436	0.66
798.609	0.42
798.782	0.38
798.956	0.68
799.129	0.36
799.302	0.26
799.475	0.32
799.648	0.22
799.821	0.41
799.994	0.46
800.167	0.27
800.34	0.62
800.514	0.59
800.687	0.34
800.86	0.16
801.033	0.41
801.206	0.44
801.379	0.22
801.551	0.66
801.724	0.86
801.897	0.83
802.07	0.56
802.243	0.33
802.416	0.47
802.589	0.08
802.762	0.67
802.935	0.39
803.107	0.54
803.28	0.45
803.453	0.8
803.626	0.24
803.798	0.46
803.971	0.49
804.144	0.73
804.317	0.58
804.489	0.73
804.662	0.54
804.835	0.51
805.007	0.2
805.18	1.09
805.353	0.38
805.525	0.27
805.698	0.46
805.87	0.77
806.043	0.56
806.215	0.19
806.388	0.16
806.56	0.77
806.733	1.02
806.905	0.5
807.078	0.26
807.25	0.31
807.423	1.03
807.595	0.4
807.768	0.61
807.94	1.07
808.112	0.62
808.285	0.69
808.457	0.54
808.629	0.38
808.802	0.49
808.974	0.49
809.146	0.49
809.318	0.14
809.491	0.42
809.663	0.89
809.835	0.11
810.007	1.14
810.18	0.42
810.352	-0.06
810.524	-0.1
810.696	0.48
810.868	0.8
811.04	0.47
811.212	0.41
811.384	1.07
811.556	0.65
811.728	0.42
811.901	1.37
812.073	0.61
812.245	1.19
812.417	0.56
812.589	-0.03
812.76	0.4
812.932	0.72
813.104	0.77
813.276	0.73
813.448	1.17
813.62	0.46
813.792	0.71
813.964	0.12
814.136	0.71
814.307	0.65
814.479	0.2
814.651	0.48
814.823	1.13
814.995	0.45
815.166	0.91
815.338	0.61
815.51	0.02
815.681	1.4
815.853	0.78
816.025	0.67
816.196	1.12
816.368	0.87
816.54	0.54
816.711	0.6
816.883	0.71
817.054	1.49
817.226	0.05
817.398	0.75
817.569	0.45
817.741	0.75
817.912	0.39
818.084	0.69
818.255	0.91
818.426	0.38
818.598	0.72
818.769	0.41
818.941	0.78
819.112	0.94
819.283	0.99
819.455	-0.05
819.626	0.37
819.798	0.97
819.969	0.74
820.14	0.72
820.311	0.6
820.483	0.39
820.654	0.91
820.825	0.66
820.996	0.33
821.168	-0.12
821.339	0.9
821.51	-0.05
821.681	0.29
821.852	0.73
822.023	0.37
822.195	0.27
822.366	1.51
822.537	1.17
822.708	0.63
822.879	0.12
823.05	1.26
823.221	0.26
823.392	1.36
823.563	0.29
823.734	1.04
823.905	0.82
824.076	0.61
824.247	-0.24
824.418	0.51
824.589	1.81
824.759	0.47
824.93	0.54
825.101	0.21
825.272	1.56
825.443	1.55
825.614	1.3
825.784	-0.16
825.955	1.55
826.126	1.61
826.297	0.63
826.467	1.35
826.638	1.33
826.809	0.22
826.98	0.94
827.15	1.01
827.321	1.57
827.492	1.16
827.662	0.82
827.833	2.13
828.003	1.16
828.174	0.16
828.345	-0.23
828.515	1.58
828.686	0.81
828.856	0.57
829.027	0.61
829.197	1.23
829.368	0.81
829.538	0.62
829.709	-0.13
829.879	1.17
830.049	0.29
830.22	0.63
830.39	1.01
830.56	1.75
830.731	0.47
830.901	0.38
831.072	0.65
831.242	0.74
831.412	1.28
831.582	0.55
831.753	0.58
831.923	1.11
832.093	0.82
832.263	0.61
832.434	0.3
832.604	0.34
832.774	1.32
832.944	0.36
833.114	0.33
833.284	1.25
833.454	0.27
833.624	0.27
833.795	0.58
833.965	1.05
834.135	1.49
834.305	-0.36
834.475	-0.03
834.645	0.93
834.815	0.37
834.985	0.81
835.155	0.12
835.325	1.27
835.494	1.34
835.664	1.04
835.834	-0.4
836.004	1.38
836.174	1.07
836.344	0.69
836.514	-0.35
836.684	0.54
836.853	1.12
837.023	0.94
837.193	0.59
837.363	1.64
837.532	2.18
837.702	0.72
837.872	-0.25
838.041	1.53
838.211	1.94
838.381	0.04
838.55	0.92
838.72	3.68
838.89	1.8
839.059	0.52
839.229	0.34
839.398	1.57
839.568	0.83
839.738	0.57
839.907	1.79
840.077	1.35
840.246	0.72
840.416	0.33
840.585	-0.32
840.755	2.22
840.924	1.9
841.093	0.27
841.263	0.19
841.432	2.24
841.602	0.79
841.771	0.2
841.94	1.3
842.11	3.27
842.279	2.19
842.448	0.17
842.617	0.54
842.787	1.62
842.956	-0.06
843.125	1.74
843.294	0.99
843.464	1.96
843.633	0.42
843.802	0.62
843.971	1.41
844.14	2.14
844.309	1.57
844.479	-0.17
844.648	0.08
844.817	0.52
844.986	1.61
845.155	0.42
845.324	0.89
845.493	0.63
845.662	1.42
845.831	0.94
846	1.34
846.169	0.65
846.338	1.89
846.507	0.65
846.676	1.05
846.844	0.55
847.013	1.79
847.182	1.44
847.351	1.01
847.52	0.24
847.689	1.25
847.858	0.33
848.026	1.25
848.195	0.55
848.364	0.61
848.533	0.79
848.701	0.72
848.87	1.29
849.039	2.02
849.207	1.87
849.376	2.24
849.545	2.22
849.713	1.1
849.882	0.15
850.051	0.71
850.219	0.86
850.388	1.54
850.556	1.11
850.725	0.55
850.893	1.09
851.062	0.76
851.23	1.88
851.399	-0.91
851.567	0.21
851.736	1.59
851.904	0.45
852.073	0.55
852.241	1.76
852.41	1.83
852.578	-0.11
852.746	-0.15
852.915	2.21
853.083	0.67
853.251	0.45
853.42	1.14
853.588	2.05
853.756	2.94
853.924	1.32
854.093	1.01
854.261	2.17
854.429	0.12
854.597	1.47
854.765	0.09
854.934	2.54
855.102	2.76
855.27	0.68
855.438	1.92
855.606	2.52
855.774	2.9
855.942	0.4
856.11	1.53
856.278	1.26
856.446	2.48
856.614	0.55
856.782	-0.09
856.95	2.29
857.118	2.19
857.286	1.84
857.454	0.43
857.622	2.81
857.79	1.75
857.958	-0.23
858.126	1.18
858.294	0.28
858.462	0.55
858.629	1.07
858.797	0.33
858.965	0.66
859.133	1.6
859.301	0.08
859.468	2.19
859.636	0.87
859.804	3.32
859.971	2.22
860.139	1.03
860.307	1.01
860.474	1.32
860.642	0.95
860.81	1.46
860.977	0.43
861.145	2.77
861.313	1.25
861.48	1.02
861.648	1.94
861.815	1.11
861.983	0.77
862.15	0.49
862.318	2.31
862.485	3.41
862.653	-0.08
862.82	1
862.988	2.96
863.155	1.63
863.322	-0.33
863.49	-0.67
863.657	1.75
863.824	3.72
863.992	2.38
864.159	1.48
864.326	3.65
864.494	1.09
864.661	4.75
864.828	0.11
864.996	2.81
865.163	3.41
865.33	0.41
865.497	-0.63
865.664	0.25
865.832	-0.05
865.999	0.57
866.166	1.08
866.333	1.28
866.5	1.69
866.667	1.15
866.834	1.18
867.001	3.23
867.168	-0.58
867.335	0.89
867.502	0.41
867.669	1.82
867.836	2.8
868.003	2.48
868.17	2.78
868.337	4.06
868.504	3.14
868.671	0.19
868.838	0.23
869.005	2.84
869.172	3.55
869.339	0.42
869.505	3.54
869.672	2.43
869.839	3.61
870.006	1
870.173	0.26
870.339	2.5
870.506	4.2
870.673	-0.05
870.84	2.35
871.006	1.26
871.173	1.02
871.34	2.34
871.506	0.32
871.673	2.22
871.839	0.86
872.006	2.78
872.173	0.95
872.339	1.07
872.506	4.37
872.672	1.79
872.839	0.5
873.005	2.98
873.172	5.1
873.338	2.21
873.505	1.34
873.671	2.49
873.838	2.74
874.004	0.03
874.171	0.73
874.337	2.92
874.503	3
874.67	1.91
874.836	0.79
875.002	4.26
875.169	3.21
875.335	2.54
875.501	-0.27
875.668	3.29
875.834	3.29
876	1.33
876.166	4.2
876.332	2.17
876.499	5.7
876.665	-0.22
876.831	1.4
876.997	4.32
877.163	2.2
877.329	1.55
877.495	0.98
877.662	1.88
877.828	3.88
877.994	2.02
878.16	-0.6
878.326	-0.28
878.492	2.81
878.658	2.01
878.824	1.76
878.99	2.84
879.156	1.54
879.322	3.93
879.487	1.17
879.653	2.26
879.819	2.21
879.985	-0.3
880.151	1.71
880.317	1.79
880.483	1.36
880.648	2.74
880.814	-1.33
880.98	4.4
881.146	0.16
881.312	1.87
881.477	2.89
881.643	2.98
881.809	2.37
881.974	2.97
882.14	-0.4
882.306	3.23
882.471	3.56
882.637	-0.46
882.803	3.84
882.968	5.36
883.134	6.48
883.299	1.96
883.465	1.28
883.63	2.98
883.796	2.94
883.961	3.5
884.127	3.23
884.292	-2.86
884.458	0.51
884.623	0.51
