Data from Apollo_Calib_20240827__AbsoluteIrradiance__24__23-33-00-222.txt Node

Date: Tue Aug 27 23:33:00 BST 2024
User: biology
Spectrometer: FLMT08252
Trigger mode: 0
Integration Time (sec): 5.000000E-1
Scans to average: 5
Electric dark correction enabled: true
Nonlinearity correction enabled: false
Boxcar width: 0
XAxis mode: Wavelengths
Number of Pixels in Spectrum: 3648
>>>>>Begin Spectral Data<<<<<
179.588	-0
179.809	-0
180.03	-0
180.251	-0
180.473	-0
180.694	0
180.915	0
181.136	-0
181.357	0
181.578	-0
181.799	-0
182.02	-0
182.241	-0
182.462	0
182.683	0
182.904	-0
183.125	-0
183.346	0
183.567	0
183.788	0
184.009	0
184.23	0
184.451	0
184.672	0
184.892	0
185.113	0
185.334	0
185.555	0
185.776	0
185.996	0
186.217	0
186.438	0
186.659	0
186.879	0
187.1	0
187.321	0
187.541	0
187.762	0
187.983	0
188.203	0
188.424	0
188.644	0
188.865	0
189.086	0
189.306	0
189.527	0
189.747	0
189.968	0
190.188	0
190.409	0
190.629	0
190.849	0
191.07	0
191.29	0
191.511	0
191.731	0
191.951	0
192.172	0
192.392	0
192.612	0
192.833	0
193.053	0
193.273	0
193.493	0
193.714	0
193.934	0
194.154	0
194.374	0
194.594	0
194.815	0
195.035	0
195.255	0
195.475	0
195.695	0
195.915	0
196.135	0
196.355	0
196.575	0
196.795	0
197.015	0
197.235	0
197.455	0
197.675	0
197.895	0
198.115	0
198.335	0
198.555	0
198.775	0
198.995	0
199.214	0
199.434	0
199.654	0
199.874	0
200.094	3.54
200.313	2.43
200.533	2.16
200.753	1.82
200.973	3.07
201.192	2.52
201.412	1.97
201.632	1.97
201.851	2.85
202.071	2.35
202.291	1.92
202.51	1.69
202.73	2.79
202.95	2
203.169	1.8
203.389	2.19
203.608	2.13
203.828	1.82
204.047	2.01
204.267	2.17
204.486	2.25
204.706	2.22
204.925	1.91
205.145	1.56
205.364	2.36
205.583	2.39
205.803	1.29
206.022	0.96
206.242	1.38
206.461	1.63
206.68	1.41
206.9	1.89
207.119	2.37
207.338	2.13
207.557	1.24
207.777	1.24
207.996	1.47
208.215	2.08
208.434	1.04
208.654	1
208.873	1.31
209.092	1.89
209.311	1.23
209.53	1.48
209.749	1.41
209.968	1.24
210.187	1.17
210.407	0.8
210.626	1.05
210.845	1.63
211.064	1.67
211.283	1.14
211.502	1.32
211.721	1.3
211.94	1.16
212.159	1.59
212.377	1.18
212.596	1.57
212.815	1.47
213.034	1.24
213.253	1.51
213.472	1.39
213.691	0.94
213.91	0.93
214.128	0.96
214.347	1.39
214.566	0.86
214.785	0.86
215.003	1.07
215.222	1.06
215.441	1.12
215.66	0.72
215.878	0.92
216.097	1.32
216.316	0.78
216.534	0.94
216.753	1.04
216.972	1.06
217.19	0.94
217.409	0.64
217.627	0.67
217.846	0.79
218.064	1.04
218.283	0.7
218.501	1.4
218.72	1.17
218.938	0.46
219.157	0.77
219.375	0.96
219.594	0.96
219.812	0.54
220.031	0.64
220.249	1.3
220.467	1.04
220.686	0.8
220.904	0.63
221.122	0.69
221.341	1.1
221.559	0.85
221.777	0.62
221.995	0.61
222.214	0.95
222.432	0.49
222.65	0.93
222.868	0.75
223.086	0.77
223.305	0.9
223.523	0.66
223.741	1.04
223.959	0.68
224.177	0.43
224.395	0.45
224.613	0.72
224.831	0.85
225.049	0.59
225.267	0.63
225.485	0.78
225.703	0.73
225.921	0.73
226.139	0.61
226.357	0.98
226.575	0.73
226.793	0.54
227.011	1.35
227.229	0.64
227.447	0.79
227.665	0.56
227.883	0.33
228.1	0.67
228.318	0.69
228.536	0.4
228.754	0.5
228.972	0.73
229.189	0.75
229.407	0.63
229.625	0.52
229.843	0.75
230.06	0.78
230.278	0.52
230.496	0.61
230.713	0.69
230.931	0.77
231.149	0.51
231.366	0.36
231.584	0.55
231.801	1
232.019	0.46
232.236	0.42
232.454	0.39
232.671	0.68
232.889	0.6
233.106	0.5
233.324	0.54
233.541	0.58
233.759	0.59
233.976	0.45
234.194	0.55
234.411	0.57
234.628	0.48
234.846	0.41
235.063	0.57
235.28	0.58
235.498	0.58
235.715	0.47
235.932	0.67
236.149	0.51
236.367	0.44
236.584	0.54
236.801	0.52
237.018	0.58
237.236	0.49
237.453	0.41
237.67	0.59
237.887	0.52
238.104	0.42
238.321	0.39
238.538	0.39
238.755	0.64
238.973	0.35
239.19	0.49
239.407	0.59
239.624	0.53
239.841	0.28
240.058	0.38
240.275	0.5
240.492	0.46
240.709	0.53
240.925	0.51
241.142	0.48
241.359	0.42
241.576	0.36
241.793	0.36
242.01	0.49
242.227	0.64
242.444	0.55
242.66	0.64
242.877	0.54
243.094	0.46
243.311	0.53
243.527	0.44
243.744	0.57
243.961	0.55
244.178	0.33
244.394	0.55
244.611	0.53
244.828	0.55
245.044	0.46
245.261	0.37
245.477	0.47
245.694	0.55
245.911	0.41
246.127	0.54
246.344	0.56
246.56	0.51
246.777	0.4
246.993	0.57
247.21	0.51
247.426	0.45
247.643	0.44
247.859	0.41
248.076	0.41
248.292	0.66
248.508	0.41
248.725	0.44
248.941	0.42
249.157	0.53
249.374	0.34
249.59	0.48
249.806	0.43
250.023	0.49
250.239	0.4
250.455	0.35
250.671	0.45
250.888	0.49
251.104	0.47
251.32	0.4
251.536	0.46
251.752	0.41
251.969	0.43
252.185	0.43
252.401	0.59
252.617	0.42
252.833	0.33
253.049	0.4
253.265	0.37
253.481	0.41
253.697	0.45
253.913	0.3
254.129	0.46
254.345	0.54
254.561	0.32
254.777	0.37
254.993	0.52
255.209	0.5
255.425	0.37
255.641	0.36
255.857	0.45
256.073	0.41
256.288	0.33
256.504	0.4
256.72	0.38
256.936	0.48
257.152	0.4
257.367	0.35
257.583	0.41
257.799	0.48
258.015	0.27
258.23	0.35
258.446	0.48
258.662	0.38
258.877	0.33
259.093	0.33
259.309	0.42
259.524	0.4
259.74	0.35
259.955	0.31
260.171	0.41
260.387	0.4
260.602	0.41
260.818	0.47
261.033	0.33
261.249	0.34
261.464	0.34
261.68	0.26
261.895	0.39
262.11	0.5
262.326	0.34
262.541	0.26
262.757	0.4
262.972	0.43
263.187	0.34
263.403	0.37
263.618	0.47
263.833	0.4
264.049	0.33
264.264	0.38
264.479	0.46
264.694	0.46
264.91	0.33
265.125	0.38
265.34	0.44
265.555	0.47
265.77	0.44
265.986	0.33
266.201	0.41
266.416	0.39
266.631	0.31
266.846	0.31
267.061	0.43
267.276	0.39
267.491	0.22
267.706	0.42
267.921	0.38
268.136	0.35
268.351	0.41
268.566	0.29
268.781	0.35
268.996	0.39
269.211	0.39
269.426	0.29
269.641	0.41
269.856	0.36
270.071	0.27
270.285	0.29
270.5	0.34
270.715	0.41
270.93	0.31
271.145	0.35
271.359	0.45
271.574	0.28
271.789	0.36
272.004	0.35
272.218	0.34
272.433	0.38
272.648	0.25
272.862	0.42
273.077	0.33
273.292	0.37
273.506	0.33
273.721	0.31
273.936	0.35
274.15	0.39
274.365	0.33
274.579	0.37
274.794	0.37
275.008	0.45
275.223	0.22
275.437	0.3
275.652	0.48
275.866	0.37
276.081	0.34
276.295	0.43
276.509	0.36
276.724	0.28
276.938	0.36
277.153	0.33
277.367	0.43
277.581	0.3
277.796	0.3
278.01	0.28
278.224	0.4
278.438	0.45
278.653	0.29
278.867	0.28
279.081	0.18
279.295	0.33
279.51	0.35
279.724	0.21
279.938	0.41
280.152	0.29
280.366	0.21
280.58	0.32
280.794	0.41
281.008	0.35
281.222	0.33
281.437	0.42
281.651	0.34
281.865	0.38
282.079	0.31
282.293	0.16
282.507	0.28
282.721	0.32
282.935	0.32
283.148	0.23
283.362	0.3
283.576	0.22
283.79	0.28
284.004	0.22
284.218	0.32
284.432	0.26
284.646	0.34
284.859	0.27
285.073	0.28
285.287	0.31
285.501	0.29
285.714	0.29
285.928	0.31
286.142	0.29
286.356	0.26
286.569	0.32
286.783	0.37
286.997	0.38
287.21	0.33
287.424	0.29
287.637	0.28
287.851	0.27
288.065	0.34
288.278	0.28
288.492	0.31
288.705	0.3
288.919	0.35
289.132	0.22
289.346	0.34
289.559	0.16
289.773	0.25
289.986	0.28
290.2	0.27
290.413	0.35
290.626	0.27
290.84	0.26
291.053	0.24
291.267	0.33
291.48	0.28
291.693	0.27
291.906	0.23
292.12	0.3
292.333	0.23
292.546	0.24
292.76	0.35
292.973	0.32
293.186	0.28
293.399	0.26
293.612	0.3
293.826	0.23
294.039	0.3
294.252	0.26
294.465	0.29
294.678	0.3
294.891	0.3
295.104	0.23
295.317	0.27
295.53	0.28
295.743	0.29
295.956	0.25
296.169	0.33
296.382	0.3
296.595	0.25
296.808	0.27
297.021	0.32
297.234	0.28
297.447	0.28
297.66	0.27
297.873	0.33
298.086	0.32
298.299	0.22
298.511	0.2
298.724	0.27
298.937	0.24
299.15	0.24
299.363	0.3
299.575	0.32
299.788	0.27
300.001	0.24
300.213	0.24
300.426	0.27
300.639	0.22
300.852	0.24
301.064	0.28
301.277	0.32
301.489	0.28
301.702	0.3
301.915	0.3
302.127	0.27
302.34	0.3
302.552	0.3
302.765	0.27
302.977	0.31
303.19	0.18
303.402	0.24
303.615	0.26
303.827	0.26
304.04	0.23
304.252	0.33
304.464	0.24
304.677	0.35
304.889	0.26
305.102	0.21
305.314	0.21
305.526	0.32
305.739	0.27
305.951	0.21
306.163	0.21
306.375	0.34
306.588	0.19
306.8	0.25
307.012	0.19
307.224	0.25
307.436	0.34
307.649	0.17
307.861	0.25
308.073	0.32
308.285	0.23
308.497	0.28
308.709	0.22
308.921	0.28
309.133	0.31
309.346	0.27
309.558	0.26
309.77	0.28
309.982	0.32
310.194	0.28
310.406	0.25
310.617	0.36
310.829	0.27
311.041	0.31
311.253	0.25
311.465	0.28
311.677	0.28
311.889	0.27
312.101	0.23
312.313	0.28
312.524	0.33
312.736	0.21
312.948	0.23
313.16	0.36
313.372	0.33
313.583	0.3
313.795	0.22
314.007	0.26
314.218	0.27
314.43	0.25
314.642	0.23
314.853	0.2
315.065	0.32
315.277	0.24
315.488	0.3
315.7	0.3
315.912	0.29
316.123	0.22
316.335	0.24
316.546	0.33
316.758	0.28
316.969	0.2
317.181	0.26
317.392	0.24
317.604	0.34
317.815	0.2
318.026	0.22
318.238	0.21
318.449	0.32
318.661	0.16
318.872	0.21
319.083	0.22
319.295	0.32
319.506	0.26
319.717	0.28
319.929	0.29
320.14	0.27
320.351	0.28
320.562	0.21
320.774	0.27
320.985	0.28
321.196	0.25
321.407	0.19
321.618	0.34
321.829	0.26
322.041	0.29
322.252	0.25
322.463	0.27
322.674	0.3
322.885	0.24
323.096	0.26
323.307	0.28
323.518	0.25
323.729	0.21
323.94	0.26
324.151	0.26
324.362	0.28
324.573	0.24
324.784	0.24
324.995	0.32
325.206	0.29
325.417	0.22
325.628	0.24
325.838	0.24
326.049	0.27
326.26	0.26
326.471	0.25
326.682	0.29
326.892	0.22
327.103	0.22
327.314	0.24
327.525	0.29
327.735	0.25
327.946	0.24
328.157	0.22
328.368	0.27
328.578	0.24
328.789	0.34
328.999	0.31
329.21	0.23
329.421	0.23
329.631	0.18
329.842	0.24
330.052	0.31
330.263	0.27
330.473	0.28
330.684	0.21
330.894	0.22
331.105	0.27
331.315	0.25
331.526	0.17
331.736	0.32
331.947	0.27
332.157	0.27
332.367	0.18
332.578	0.27
332.788	0.32
332.999	0.32
333.209	0.24
333.419	0.21
333.629	0.29
333.84	0.31
334.05	0.26
334.26	0.31
334.47	0.3
334.681	0.29
334.891	0.26
335.101	0.31
335.311	0.38
335.521	0.27
335.732	0.22
335.942	0.34
336.152	0.28
336.362	0.26
336.572	0.3
336.782	0.31
336.992	0.26
337.202	0.21
337.412	0.23
337.622	0.27
337.832	0.25
338.042	0.24
338.252	0.21
338.462	0.23
338.672	0.28
338.882	0.26
339.092	0.2
339.302	0.33
339.511	0.29
339.721	0.25
339.931	0.18
340.141	0.26
340.351	0.3
340.561	0.28
340.77	0.24
340.98	0.27
341.19	0.32
341.4	0.22
341.609	0.18
341.819	0.22
342.029	0.23
342.238	0.27
342.448	0.18
342.658	0.3
342.867	0.26
343.077	0.25
343.286	0.3
343.496	0.27
343.706	0.33
343.915	0.26
344.125	0.23
344.334	0.28
344.544	0.2
344.753	0.23
344.963	0.24
345.172	0.2
345.381	0.21
345.591	0.25
345.8	0.27
346.01	0.29
346.219	0.3
346.428	0.12
346.638	0.26
346.847	0.29
347.056	0.35
347.266	0.19
347.475	0.26
347.684	0.3
347.893	0.3
348.103	0.26
348.312	0.25
348.521	0.22
348.73	0.29
348.94	0.27
349.149	0.19
349.358	0.27
349.567	0.24
349.776	0.21
349.985	0.19
350.194	0.29
350.403	0.3
350.612	0.21
350.821	0.21
351.03	0.22
351.239	0.2
351.448	0.25
351.657	0.19
351.866	0.32
352.075	0.22
352.284	0.34
352.493	0.16
352.702	0.32
352.911	0.27
353.12	0.26
353.329	0.29
353.538	0.22
353.746	0.27
353.955	0.21
354.164	0.28
354.373	0.27
354.582	0.3
354.79	0.26
354.999	0.3
355.208	0.24
355.416	0.31
355.625	0.21
355.834	0.26
356.042	0.26
356.251	0.21
356.46	0.18
356.668	0.23
356.877	0.38
357.085	0.3
357.294	0.21
357.503	0.24
357.711	0.27
357.92	0.39
358.128	0.23
358.337	0.26
358.545	0.22
358.754	0.25
358.962	0.25
359.17	0.21
359.379	0.27
359.587	0.25
359.796	0.26
360.004	0.31
360.212	0.28
360.421	0.3
360.629	0.25
360.837	0.22
361.046	0.23
361.254	0.38
361.462	0.24
361.67	0.23
361.879	0.23
362.087	0.32
362.295	0.24
362.503	0.27
362.711	0.15
362.92	0.26
363.128	0.25
363.336	0.21
363.544	0.21
363.752	0.21
363.96	0.24
364.168	0.22
364.376	0.26
364.584	0.22
364.792	0.32
365	0.28
365.208	0.26
365.416	0.24
365.624	0.3
365.832	0.21
366.04	0.33
366.248	0.29
366.456	0.24
366.664	0.24
366.872	0.23
367.079	0.21
367.287	0.23
367.495	0.25
367.703	0.27
367.911	0.22
368.118	0.27
368.326	0.23
368.534	0.19
368.742	0.31
368.949	0.18
369.157	0.25
369.365	0.25
369.572	0.2
369.78	0.19
369.988	0.29
370.195	0.26
370.403	0.28
370.61	0.21
370.818	0.25
371.026	0.31
371.233	0.21
371.441	0.26
371.648	0.25
371.856	0.28
372.063	0.25
372.271	0.23
372.478	0.23
372.685	0.22
372.893	0.33
373.1	0.2
373.308	0.27
373.515	0.37
373.722	0.28
373.93	0.27
374.137	0.35
374.344	0.32
374.552	0.3
374.759	0.29
374.966	0.24
375.173	0.22
375.381	0.3
375.588	0.25
375.795	0.21
376.002	0.26
376.209	0.22
376.417	0.27
376.624	0.26
376.831	0.25
377.038	0.27
377.245	0.21
377.452	0.24
377.659	0.25
377.866	0.25
378.073	0.22
378.28	0.26
378.487	0.32
378.694	0.24
378.901	0.25
379.108	0.26
379.315	0.32
379.522	0.37
379.729	0.25
379.936	0.27
380.143	0.29
380.35	0.28
380.557	0.28
380.763	0.26
380.97	0.27
381.177	0.29
381.384	0.27
381.591	0.29
381.797	0.25
382.004	0.25
382.211	0.3
382.418	0.27
382.624	0.32
382.831	0.3
383.038	0.3
383.244	0.27
383.451	0.23
383.658	0.27
383.864	0.22
384.071	0.23
384.277	0.35
384.484	0.28
384.69	0.38
384.897	0.24
385.103	0.22
385.31	0.25
385.516	0.28
385.723	0.26
385.929	0.26
386.136	0.28
386.342	0.27
386.549	0.27
386.755	0.3
386.961	0.32
387.168	0.23
387.374	0.3
387.58	0.32
387.787	0.31
387.993	0.32
388.199	0.29
388.406	0.26
388.612	0.26
388.818	0.23
389.024	0.25
389.231	0.32
389.437	0.38
389.643	0.29
389.849	0.25
390.055	0.3
390.261	0.29
390.467	0.31
390.674	0.24
390.88	0.31
391.086	0.32
391.292	0.25
391.498	0.33
391.704	0.31
391.91	0.29
392.116	0.26
392.322	0.21
392.528	0.32
392.734	0.3
392.94	0.26
393.146	0.29
393.352	0.34
393.557	0.28
393.763	0.27
393.969	0.34
394.175	0.3
394.381	0.3
394.587	0.22
394.792	0.27
394.998	0.33
395.204	0.36
395.41	0.25
395.615	0.35
395.821	0.35
396.027	0.33
396.233	0.32
396.438	0.32
396.644	0.41
396.85	0.37
397.055	0.38
397.261	0.37
397.466	0.32
397.672	0.36
397.878	0.39
398.083	0.37
398.289	0.31
398.494	0.39
398.7	0.36
398.905	0.24
399.111	0.4
399.316	0.35
399.522	0.35
399.727	0.33
399.932	0.34
400.138	0.34
400.343	0.37
400.549	0.4
400.754	0.33
400.959	0.36
401.165	0.33
401.37	0.37
401.575	0.46
401.78	0.38
401.986	0.35
402.191	0.32
402.396	0.39
402.601	0.4
402.807	0.37
403.012	0.38
403.217	0.45
403.422	0.4
403.627	0.42
403.832	0.38
404.037	0.45
404.243	0.46
404.448	0.41
404.653	0.43
404.858	0.43
405.063	0.47
405.268	0.41
405.473	0.42
405.678	0.43
405.883	0.6
406.088	0.48
406.293	0.39
406.498	0.4
406.703	0.51
406.907	0.47
407.112	0.43
407.317	0.51
407.522	0.55
407.727	0.47
407.932	0.52
408.136	0.61
408.341	0.55
408.546	0.6
408.751	0.59
408.956	0.57
409.16	0.66
409.365	0.6
409.57	0.63
409.774	0.6
409.979	0.62
410.184	0.68
410.388	0.67
410.593	0.74
410.798	0.74
411.002	0.73
411.207	0.75
411.411	0.79
411.616	0.74
411.82	0.83
412.025	0.84
412.229	0.82
412.434	0.93
412.638	0.9
412.843	0.94
413.047	0.97
413.252	0.9
413.456	0.95
413.66	1.06
413.865	1.05
414.069	1.14
414.273	1.07
414.478	1.13
414.682	1.11
414.886	1.25
415.091	1.2
415.295	1.22
415.499	1.37
415.703	1.3
415.908	1.43
416.112	1.33
416.316	1.58
416.52	1.55
416.724	1.52
416.929	1.57
417.133	1.85
417.337	1.69
417.541	1.8
417.745	1.82
417.949	1.96
418.153	2
418.357	2
418.561	2.21
418.765	2.18
418.969	2.31
419.173	2.4
419.377	2.38
419.581	2.57
419.785	2.57
419.989	2.62
420.193	2.74
420.397	2.87
420.601	2.94
420.804	3.06
421.008	3.02
421.212	3.17
421.416	3.21
421.62	3.27
421.823	3.35
422.027	3.49
422.231	3.44
422.435	3.52
422.638	3.49
422.842	3.6
423.046	3.66
423.249	3.92
423.453	3.81
423.657	4.12
423.86	4.19
424.064	4.31
424.268	4.4
424.471	4.32
424.675	4.62
424.878	4.75
425.082	4.88
425.285	5.14
425.489	5.02
425.692	5.25
425.896	5.21
426.099	5.44
426.303	5.52
426.506	5.68
426.71	5.92
426.913	6.05
427.116	6.32
427.32	6.3
427.523	6.32
427.726	6.56
427.93	6.75
428.133	7.11
428.336	7.15
428.54	7.32
428.743	7.52
428.946	7.85
429.149	7.86
429.353	7.82
429.556	7.9
429.759	8.06
429.962	8.16
430.165	8.33
430.368	7.93
430.571	7.99
430.775	8.02
430.978	8.03
431.181	8.04
431.384	8.11
431.587	8.27
431.79	8.7
431.993	8.49
432.196	8.89
432.399	9.28
432.602	9.33
432.805	9.47
433.008	10.04
433.211	10.01
433.414	10.26
433.616	10.21
433.819	10.29
434.022	10.42
434.225	10.55
434.428	10.65
434.631	10.91
434.833	10.75
435.036	11.11
435.239	11.17
435.442	11.42
435.645	11.43
435.847	11.56
436.05	11.81
436.253	12.08
436.455	12.04
436.658	11.98
436.861	12.24
437.063	12.39
437.266	12.26
437.468	12.67
437.671	13.01
437.874	13.11
438.076	12.78
438.279	13.46
438.481	13.48
438.684	14.13
438.886	13.9
439.089	14.14
439.291	14.13
439.494	14.52
439.696	14.63
439.899	15.15
440.101	15.48
440.303	15.77
440.506	16.37
440.708	16.26
440.91	16.3
441.113	16.6
441.315	16.94
441.517	16.8
441.72	17.14
441.922	16.82
442.124	16.64
442.326	17.05
442.529	17.24
442.731	17.25
442.933	17.76
443.135	17.46
443.337	17.41
443.539	18
443.742	17.62
443.944	18.28
444.146	18.08
444.348	18.06
444.55	17.93
444.752	18.18
444.954	18.19
445.156	18.1
445.358	18.53
445.56	18.65
445.762	18.46
445.964	18.81
446.166	18.62
446.368	18.56
446.57	18.53
446.772	18.24
446.974	18.04
447.175	18.21
447.377	17.9
447.579	18.38
447.781	18.18
447.983	17.85
448.184	17.51
448.386	17.89
448.588	17.44
448.79	17.22
448.991	17.55
449.193	17.54
449.395	16.96
449.597	16.53
449.798	16.42
450	15.95
450.202	15.96
450.403	15.96
450.605	15.77
450.806	15.61
451.008	15.34
451.21	15.06
451.411	14.74
451.613	13.96
451.814	14.27
452.016	14.17
452.217	13.42
452.419	13.43
452.62	13.11
452.821	12.85
453.023	12.75
453.224	12.39
453.426	11.92
453.627	11.23
453.828	11.31
454.03	11.46
454.231	11.38
454.432	11.14
454.634	10.96
454.835	10.73
455.036	10.51
455.238	10.14
455.439	9.92
455.64	9.64
455.841	9.47
456.042	9.65
456.244	9.38
456.445	9.07
456.646	8.71
456.847	8.58
457.048	8.54
457.249	8.58
457.45	8.28
457.651	7.86
457.852	7.67
458.054	7.37
458.255	7.36
458.456	7.4
458.657	7.21
458.858	6.78
459.058	6.68
459.259	6.78
459.46	6.42
459.661	6.46
459.862	6.46
460.063	6.41
460.264	6.23
460.465	6.05
460.666	6.07
460.866	5.8
461.067	5.48
461.268	5.66
461.469	5.55
461.67	5.44
461.87	5.26
462.071	5.24
462.272	5.12
462.473	5.15
462.673	5.35
462.874	5.19
463.075	5.15
463.275	5.18
463.476	5.17
463.676	5.14
463.877	5.04
464.078	5.02
464.278	4.93
464.479	4.9
464.679	4.84
464.88	4.76
465.08	4.7
465.281	4.58
465.481	4.39
465.682	4.15
465.882	4.26
466.083	4.18
466.283	4.1
466.483	3.94
466.684	3.76
466.884	3.62
467.085	3.7
467.285	3.8
467.485	3.75
467.686	3.57
467.886	3.45
468.086	3.47
468.286	3.35
468.487	3.44
468.687	3.28
468.887	3.24
469.087	3.35
469.287	3.31
469.488	3.07
469.688	3.22
469.888	3.21
470.088	3.12
470.288	3.05
470.488	3.07
470.688	2.93
470.888	2.9
471.088	2.74
471.288	2.83
471.488	2.79
471.688	2.76
471.888	2.7
472.088	2.82
472.288	2.73
472.488	2.6
472.688	2.53
472.888	2.62
473.088	2.62
473.288	2.49
473.488	2.46
473.688	2.65
473.887	2.49
474.087	2.47
474.287	2.44
474.487	2.42
474.687	2.42
474.886	2.37
475.086	2.31
475.286	2.26
475.486	2.28
475.685	2.26
475.885	2.2
476.085	2.29
476.284	2.24
476.484	2.31
476.684	2.2
476.883	2.33
477.083	2.19
477.282	2.17
477.482	2.22
477.681	2.14
477.881	2.07
478.08	2.14
478.28	2.04
478.479	2.15
478.679	2.13
478.878	2.08
479.078	2.01
479.277	2.1
479.477	2.07
479.676	2.03
479.875	2.01
480.075	1.98
480.274	1.98
480.473	2.1
480.673	2.06
480.872	2.06
481.071	2.04
481.271	2.05
481.47	2.08
481.669	2.03
481.868	1.97
482.067	1.98
482.267	1.89
482.466	1.99
482.665	1.95
482.864	1.97
483.063	1.96
483.262	2
483.461	2
483.661	2.07
483.86	1.96
484.059	2.02
484.258	2.05
484.457	2.02
484.656	2.01
484.855	2.07
485.054	1.93
485.253	1.99
485.452	1.95
485.651	2.05
485.849	2.03
486.048	2
486.247	2.06
486.446	2.07
486.645	2.04
486.844	2.05
487.043	2.07
487.241	2.09
487.44	2.06
487.639	2.15
487.838	2.12
488.037	2.14
488.235	2.2
488.434	2.2
488.633	2.06
488.831	2.24
489.03	2.2
489.229	2.2
489.427	2.21
489.626	2.25
489.825	2.26
490.023	2.31
490.222	2.26
490.42	2.31
490.619	2.3
490.817	2.34
491.016	2.36
491.214	2.44
491.413	2.44
491.611	2.37
491.81	2.42
492.008	2.45
492.207	2.54
492.405	2.52
492.604	2.47
492.802	2.57
493	2.56
493.199	2.6
493.397	2.62
493.595	2.66
493.794	2.65
493.992	2.79
494.19	2.78
494.388	2.79
494.587	2.72
494.785	2.74
494.983	2.74
495.181	2.86
495.379	2.86
495.578	2.94
495.776	2.97
495.974	2.94
496.172	2.97
496.37	3.09
496.568	3.07
496.766	3.08
496.964	3.17
497.162	3.18
497.36	3.21
497.558	3.23
497.756	3.27
497.954	3.29
498.152	3.33
498.35	3.42
498.548	3.33
498.746	3.35
498.944	3.4
499.142	3.42
499.34	3.51
499.538	3.62
499.736	3.51
499.933	3.64
500.131	3.59
500.329	3.81
500.527	3.73
500.725	3.84
500.922	3.81
501.12	3.85
501.318	3.94
501.516	3.93
501.713	4
501.911	3.95
502.109	3.97
502.306	4.09
502.504	4.01
502.701	4.07
502.899	4.13
503.097	4.34
503.294	4.16
503.492	4.33
503.689	4.35
503.887	4.34
504.084	4.42
504.282	4.39
504.479	4.45
504.677	4.56
504.874	4.49
505.072	4.47
505.269	4.68
505.466	4.7
505.664	4.71
505.861	4.63
506.059	4.79
506.256	4.74
506.453	4.79
506.651	4.98
506.848	4.95
507.045	4.97
507.242	4.97
507.44	4.99
507.637	5.09
507.834	5.04
508.031	5.17
508.229	5.09
508.426	5.08
508.623	5.29
508.82	5.26
509.017	5.24
509.214	5.24
509.411	5.38
509.608	5.31
509.805	5.46
510.003	5.42
510.2	5.49
510.397	5.65
510.594	5.56
510.791	5.6
510.988	5.65
511.184	5.63
511.381	5.49
511.578	5.66
511.775	5.79
511.972	5.76
512.169	5.77
512.366	5.84
512.563	5.9
512.76	5.96
512.956	6.02
513.153	5.9
513.35	5.87
513.547	5.95
513.744	6.02
513.94	6.02
514.137	6.1
514.334	6.08
514.53	6.09
514.727	6.34
514.924	6.24
515.12	6.22
515.317	6.23
515.514	6.13
515.71	6.16
515.907	6.41
516.103	6.39
516.3	6.32
516.497	6.42
516.693	6.42
516.89	6.43
517.086	6.51
517.283	6.54
517.479	6.41
517.676	6.58
517.872	6.67
518.068	6.64
518.265	6.6
518.461	6.57
518.658	6.66
518.854	6.67
519.05	6.77
519.247	6.8
519.443	6.76
519.639	6.88
519.836	6.75
520.032	6.73
520.228	6.88
520.424	6.83
520.621	6.91
520.817	7
521.013	6.87
521.209	7.08
521.405	7.08
521.601	7.01
521.798	7.06
521.994	6.92
522.19	6.96
522.386	6.99
522.582	7.11
522.778	7.22
522.974	7.06
523.17	7.11
523.366	7.11
523.562	7.18
523.758	7.15
523.954	7.01
524.15	7.18
524.346	7.22
524.542	7.23
524.738	7.24
524.934	7.34
525.129	7.34
525.325	7.28
525.521	7.21
525.717	7.43
525.913	7.3
526.109	7.29
526.304	7.38
526.5	7.39
526.696	7.44
526.892	7.33
527.087	7.59
527.283	7.48
527.479	7.44
527.674	7.31
527.87	7.47
528.066	7.47
528.261	7.47
528.457	7.44
528.653	7.61
528.848	7.59
529.044	7.65
529.239	7.46
529.435	7.47
529.63	7.49
529.826	7.54
530.021	7.52
530.217	7.6
530.412	7.57
530.608	7.66
530.803	7.57
530.999	7.51
531.194	7.57
531.389	7.72
531.585	7.68
531.78	7.8
531.975	7.66
532.171	7.7
532.366	7.73
532.561	7.7
532.757	7.66
532.952	7.88
533.147	7.59
533.342	7.77
533.538	7.67
533.733	7.88
533.928	7.62
534.123	7.76
534.318	7.81
534.513	7.75
534.709	7.92
534.904	7.85
535.099	7.84
535.294	7.85
535.489	7.91
535.684	7.77
535.879	7.82
536.074	7.86
536.269	7.89
536.464	7.89
536.659	7.82
536.854	7.89
537.049	7.96
537.244	7.87
537.439	7.85
537.634	7.87
537.828	8.02
538.023	7.95
538.218	7.88
538.413	7.78
538.608	7.94
538.803	7.89
538.997	7.88
539.192	7.92
539.387	7.89
539.582	7.87
539.776	7.81
539.971	7.98
540.166	8.04
540.36	7.88
540.555	8.04
540.75	8.01
540.944	8.04
541.139	8
541.334	7.98
541.528	7.95
541.723	8.04
541.917	8
542.112	7.93
542.306	7.86
542.501	7.93
542.695	7.97
542.89	7.92
543.084	7.98
543.279	8
543.473	8.06
543.668	8.09
543.862	7.91
544.056	7.94
544.251	8.06
544.445	8.07
544.64	8.18
544.834	7.77
545.028	7.7
545.222	8.08
545.417	8.16
545.611	8.1
545.805	8.02
546	7.79
546.194	8.05
546.388	8.05
546.582	7.94
546.776	7.98
546.97	8.02
547.165	8.09
547.359	8.07
547.553	7.95
547.747	8.05
547.941	8.21
548.135	8.03
548.329	8.07
548.523	8.09
548.717	7.98
548.911	7.97
549.105	7.96
549.299	8.11
549.493	8.05
549.687	7.98
549.881	8.11
550.075	8.04
550.269	7.92
550.463	8.12
550.657	8.11
550.85	8.06
551.044	8.08
551.238	8.06
551.432	8.06
551.626	8.11
551.82	8.14
552.013	7.95
552.207	8.13
552.401	8.14
552.594	8.04
552.788	8.02
552.982	8.05
553.176	7.97
553.369	8.23
553.563	8.2
553.756	8.12
553.95	8.13
554.144	8.11
554.337	8.17
554.531	7.91
554.724	8.11
554.918	8.16
555.111	8.03
555.305	8.11
555.498	7.97
555.692	8.15
555.885	8.19
556.079	8.02
556.272	8.05
556.466	8.14
556.659	8.06
556.852	8.15
557.046	8.04
557.239	7.93
557.432	8.05
557.626	8.18
557.819	8.19
558.012	8.12
558.206	8.21
558.399	8.11
558.592	8.07
558.785	8.09
558.979	8.08
559.172	8.07
559.365	8.08
559.558	8.03
559.751	8
559.944	8.23
560.138	8.05
560.331	8.06
560.524	8.14
560.717	8.08
560.91	8.05
561.103	8.15
561.296	7.89
561.489	8.1
561.682	8.17
561.875	8.07
562.068	8.18
562.261	8.02
562.454	8.21
562.647	8.11
562.84	8.12
563.032	8.1
563.225	8.02
563.418	8.05
563.611	8.16
563.804	8.13
563.997	7.96
564.19	7.89
564.382	8.23
564.575	8.1
564.768	8.02
564.961	8.11
565.153	8.05
565.346	8.02
565.539	8.1
565.731	8.04
565.924	8.11
566.117	8.2
566.309	8.07
566.502	8.1
566.695	8.01
566.887	8.1
567.08	8.1
567.272	8.17
567.465	7.97
567.657	8.11
567.85	7.94
568.042	8.13
568.235	8.16
568.427	7.9
568.62	8.04
568.812	8.02
569.005	8.15
569.197	8
569.389	8.09
569.582	8.01
569.774	8.03
569.966	7.96
570.159	7.98
570.351	7.99
570.543	7.98
570.736	8.02
570.928	7.86
571.12	8.02
571.312	7.93
571.505	7.81
571.697	8.05
571.889	7.99
572.081	8.02
572.273	7.91
572.465	7.91
572.658	8.03
572.85	8.02
573.042	8
573.234	7.9
573.426	7.9
573.618	7.84
573.81	7.94
574.002	7.91
574.194	7.97
574.386	7.94
574.578	7.86
574.77	7.92
574.962	7.94
575.154	7.82
575.346	7.8
575.538	7.86
575.729	7.85
575.921	7.9
576.113	7.98
576.305	7.89
576.497	7.99
576.689	7.73
576.88	7.71
577.072	7.94
577.264	7.86
577.456	7.89
577.647	7.79
577.839	7.96
578.031	7.85
578.223	7.73
578.414	7.71
578.606	7.81
578.798	7.83
578.989	7.85
579.181	7.91
579.372	7.8
579.564	7.85
579.755	7.76
579.947	7.72
580.139	7.79
580.33	7.61
580.522	7.77
580.713	7.77
580.905	7.73
581.096	7.8
581.287	7.65
581.479	7.68
581.67	7.82
581.862	7.67
582.053	7.73
582.244	7.62
582.436	7.75
582.627	7.57
582.818	7.62
583.01	7.67
583.201	7.67
583.392	7.65
583.583	7.56
583.775	7.43
583.966	7.54
584.157	7.61
584.348	7.75
584.54	7.55
584.731	7.58
584.922	7.49
585.113	7.42
585.304	7.61
585.495	7.45
585.686	7.61
585.877	7.63
586.068	7.66
586.259	7.61
586.45	7.47
586.641	7.48
586.832	7.66
587.023	7.49
587.214	7.41
587.405	7.57
587.596	7.32
587.787	7.35
587.978	7.42
588.169	7.41
588.36	7.35
588.551	7.42
588.742	7.39
588.932	7.51
589.123	7.28
589.314	7.46
589.505	7.36
589.696	7.39
589.886	7.27
590.077	7.34
590.268	7.22
590.458	7.27
590.649	7.12
590.84	7.27
591.03	7.25
591.221	7.31
591.412	7.13
591.602	7.31
591.793	7.16
591.984	7.26
592.174	7.26
592.365	7.31
592.555	7.11
592.746	7.12
592.936	7.21
593.127	7.19
593.317	7.13
593.508	7.11
593.698	7.04
593.889	7.08
594.079	7.08
594.269	6.98
594.46	7.06
594.65	7.07
594.84	7
595.031	6.98
595.221	6.99
595.411	7.07
595.602	7
595.792	6.94
595.982	6.93
596.172	7.05
596.363	6.87
596.553	6.9
596.743	6.96
596.933	6.88
597.123	6.85
597.314	6.82
597.504	6.8
597.694	6.93
597.884	6.77
598.074	6.89
598.264	6.85
598.454	6.79
598.644	6.74
598.834	6.77
599.024	6.68
599.214	6.7
599.404	6.74
599.594	6.66
599.784	6.67
599.974	6.74
600.164	6.66
600.354	6.63
600.544	6.48
600.734	6.66
600.924	6.6
601.114	6.55
601.303	6.58
601.493	6.57
601.683	6.62
601.873	6.53
602.063	6.39
602.252	6.45
602.442	6.43
602.632	6.45
602.821	6.36
603.011	6.45
603.201	6.45
603.39	6.39
603.58	6.28
603.77	6.38
603.959	6.45
604.149	6.31
604.339	6.33
604.528	6.39
604.718	6.33
604.907	6.33
605.097	6.24
605.286	6.26
605.476	6.21
605.665	6.27
605.855	6.22
606.044	6.21
606.234	6.22
606.423	6.19
606.612	6.18
606.802	6.14
606.991	6.15
607.181	6.17
607.37	6.17
607.559	5.88
607.749	6.1
607.938	5.97
608.127	5.99
608.316	6.07
608.506	5.99
608.695	6.03
608.884	5.94
609.073	6.01
609.263	6.07
609.452	6.04
609.641	5.87
609.83	5.81
610.019	5.93
610.208	5.85
610.397	5.82
610.586	5.82
610.775	5.77
610.965	5.8
611.154	5.69
611.343	5.81
611.532	5.66
611.721	5.8
611.91	5.67
612.099	5.7
612.287	5.67
612.476	5.57
612.665	5.77
612.854	5.6
613.043	5.62
613.232	5.62
613.421	5.52
613.61	5.61
613.798	5.59
613.987	5.6
614.176	5.5
614.365	5.55
614.554	5.53
614.742	5.47
614.931	5.4
615.12	5.52
615.309	5.46
615.497	5.34
615.686	5.29
615.875	5.43
616.063	5.3
616.252	5.36
616.44	5.37
616.629	5.3
616.818	5.3
617.006	5.32
617.195	5.22
617.383	5.21
617.572	5.15
617.76	5.14
617.949	5.22
618.137	5.24
618.326	5.18
618.514	5
618.703	5.01
618.891	5.15
619.079	5.03
619.268	5.16
619.456	5.04
619.644	5.04
619.833	5.04
620.021	5.01
620.209	4.95
620.398	5.01
620.586	4.89
620.774	4.98
620.962	4.98
621.151	4.99
621.339	4.89
621.527	4.85
621.715	4.78
621.903	4.87
622.092	4.81
622.28	4.92
622.468	4.74
622.656	4.78
622.844	4.71
623.032	4.78
623.22	4.65
623.408	4.77
623.596	4.74
623.784	4.72
623.972	4.65
624.16	4.63
624.348	4.78
624.536	4.73
624.724	4.6
624.912	4.62
625.1	4.65
625.288	4.66
625.476	4.49
625.664	4.61
625.851	4.51
626.039	4.51
626.227	4.42
626.415	4.45
626.603	4.43
626.79	4.44
626.978	4.43
627.166	4.54
627.354	4.37
627.541	4.34
627.729	4.3
627.917	4.54
628.104	4.35
628.292	4.27
628.48	4.35
628.667	4.27
628.855	4.39
629.042	4.28
629.23	4.28
629.418	4.31
629.605	4.28
629.793	4.16
629.98	4.23
630.168	4.12
630.355	4.14
630.543	4.11
630.73	4.13
630.917	4.08
631.105	4.19
631.292	4.11
631.48	4.09
631.667	4.16
631.854	4.08
632.042	4.05
632.229	3.95
632.416	3.99
632.604	3.99
632.791	3.89
632.978	4
633.165	3.94
633.353	4.05
633.54	4.04
633.727	3.83
633.914	3.83
634.101	3.83
634.289	3.92
634.476	3.81
634.663	3.81
634.85	3.78
635.037	3.77
635.224	3.75
635.411	3.85
635.598	3.7
635.785	3.69
635.972	3.72
636.159	3.66
636.346	3.7
636.533	3.6
636.72	3.66
636.907	3.65
637.094	3.61
637.281	3.54
637.468	3.66
637.655	3.66
637.842	3.61
638.029	3.54
638.215	3.53
638.402	3.53
638.589	3.44
638.776	3.51
638.963	3.5
639.149	3.48
639.336	3.57
639.523	3.48
639.709	3.43
639.896	3.45
640.083	3.46
640.27	3.42
640.456	3.38
640.643	3.38
640.829	3.31
641.016	3.39
641.203	3.3
641.389	3.33
641.576	3.29
641.762	3.24
641.949	3.21
642.135	3.31
642.322	3.27
642.508	3.19
642.695	3.28
642.881	3.19
643.068	3.14
643.254	3.2
643.441	3.22
643.627	3.17
643.813	3.1
644	3.21
644.186	3.06
644.372	3.13
644.559	3.14
644.745	3.12
644.931	3.07
645.118	3.11
645.304	3.07
645.49	3.03
645.676	3.05
645.862	3.03
646.049	3.04
646.235	3
646.421	3.14
646.607	3.08
646.793	3
646.979	2.92
647.165	2.98
647.352	2.91
647.538	2.89
647.724	2.94
647.91	2.85
648.096	2.94
648.282	2.9
648.468	2.86
648.654	2.86
648.84	2.85
649.026	2.86
649.212	2.81
649.397	2.75
649.583	2.77
649.769	2.8
649.955	2.79
650.141	2.8
650.327	2.76
650.513	2.7
650.698	2.79
650.884	2.69
651.07	2.77
651.256	2.68
651.442	2.72
651.627	2.63
651.813	2.66
651.999	2.6
652.184	2.71
652.37	2.65
652.556	2.64
652.741	2.7
652.927	2.54
653.113	2.61
653.298	2.57
653.484	2.56
653.669	2.54
653.855	2.58
654.04	2.6
654.226	2.65
654.412	2.5
654.597	2.45
654.782	2.58
654.968	2.58
655.153	2.51
655.339	2.49
655.524	2.46
655.71	2.52
655.895	2.47
656.08	2.49
656.266	2.49
656.451	2.45
656.636	2.4
656.822	2.45
657.007	2.38
657.192	2.44
657.378	2.32
657.563	2.36
657.748	2.38
657.933	2.39
658.118	2.32
658.304	2.42
658.489	2.39
658.674	2.37
658.859	2.3
659.044	2.32
659.229	2.37
659.414	2.28
659.599	2.28
659.785	2.25
659.97	2.27
660.155	2.27
660.34	2.22
660.525	2.25
660.71	2.24
660.895	2.27
661.08	2.19
661.264	2.12
661.449	2.25
661.634	2.2
661.819	2.23
662.004	2.16
662.189	2.05
662.374	2.09
662.559	2.07
662.743	2.01
662.928	2.07
663.113	1.99
663.298	2.1
663.483	2
663.667	2.03
663.852	1.97
664.037	2.01
664.221	1.95
664.406	2.01
664.591	2.03
664.775	2.02
664.96	1.96
665.145	1.94
665.329	1.96
665.514	1.9
665.698	1.89
665.883	1.88
666.068	1.96
666.252	1.9
666.437	1.83
666.621	1.86
666.806	1.84
666.99	1.8
667.174	1.76
667.359	1.87
667.543	1.8
667.728	1.81
667.912	1.67
668.096	1.78
668.281	1.76
668.465	1.75
668.649	1.73
668.834	1.69
669.018	1.75
669.202	1.74
669.387	1.64
669.571	1.75
669.755	1.69
669.939	1.65
670.124	1.75
670.308	1.75
670.492	1.7
670.676	1.72
670.86	1.62
671.044	1.59
671.228	1.64
671.413	1.57
671.597	1.63
671.781	1.59
671.965	1.64
672.149	1.59
672.333	1.6
672.517	1.59
672.701	1.6
672.885	1.57
673.069	1.47
673.253	1.6
673.437	1.62
673.621	1.55
673.804	1.55
673.988	1.55
674.172	1.5
674.356	1.46
674.54	1.46
674.724	1.54
674.908	1.5
675.091	1.54
675.275	1.47
675.459	1.55
675.643	1.53
675.826	1.5
676.01	1.46
676.194	1.49
676.377	1.47
676.561	1.52
676.745	1.46
676.928	1.45
677.112	1.48
677.296	1.43
677.479	1.34
677.663	1.38
677.846	1.44
678.03	1.41
678.213	1.31
678.397	1.39
678.58	1.36
678.764	1.4
678.947	1.34
679.131	1.28
679.314	1.36
679.498	1.39
679.681	1.4
679.865	1.41
680.048	1.31
680.231	1.33
680.415	1.23
680.598	1.3
680.781	1.27
680.965	1.26
681.148	1.3
681.331	1.24
681.514	1.31
681.698	1.24
681.881	1.27
682.064	1.3
682.247	1.23
682.43	1.21
682.614	1.25
682.797	1.32
682.98	1.27
683.163	1.18
683.346	1.23
683.529	1.23
683.712	1.22
683.895	1.19
684.078	1.18
684.261	1.13
684.444	1.23
684.627	1.23
684.81	1.21
684.993	1.17
685.176	1.18
685.359	1.16
685.542	1.14
685.725	1.19
685.908	1.18
686.091	1.08
686.274	1.18
686.457	1.16
686.639	1.13
686.822	1.13
687.005	1.14
687.188	1.12
687.371	1.24
687.553	1.14
687.736	1.13
687.919	1.17
688.102	1.13
688.284	1.12
688.467	1.09
688.65	1.06
688.832	1.04
689.015	1.04
689.197	0.98
689.38	1.18
689.563	1.06
689.745	0.98
689.928	1.05
690.11	0.97
690.293	1.05
690.475	1.01
690.658	1.07
690.84	1.02
691.023	0.99
691.205	0.92
691.388	1.01
691.57	1.05
691.752	1.01
691.935	0.91
692.117	0.88
692.3	1.05
692.482	0.99
692.664	0.91
692.847	1.02
693.029	1.01
693.211	0.99
693.393	0.96
693.576	0.93
693.758	0.93
693.94	0.95
694.122	0.93
694.304	0.88
694.487	0.95
694.669	1.02
694.851	0.9
695.033	0.92
695.215	0.91
695.397	0.86
695.579	0.91
695.761	0.86
695.943	0.84
696.125	0.96
696.308	0.9
696.49	0.84
696.671	1.02
696.853	0.91
697.035	1.08
697.217	0.88
697.399	0.93
697.581	0.86
697.763	0.88
697.945	0.86
698.127	0.85
698.309	0.94
698.491	0.89
698.672	0.89
698.854	0.87
699.036	0.96
699.218	0.81
699.399	0.88
699.581	0.88
699.763	0.9
699.945	0.77
700.126	0.73
700.308	0.88
700.49	0.79
700.671	0.72
700.853	0.76
701.035	0.81
701.216	0.84
701.398	0.76
701.579	0.79
701.761	0.89
701.943	0.75
702.124	0.77
702.306	0.75
702.487	0.96
702.669	0.8
702.85	0.76
703.031	0.72
703.213	0.83
703.394	0.82
703.576	0.73
703.757	0.88
703.938	0.84
704.12	0.9
704.301	0.79
704.483	0.78
704.664	0.77
704.845	0.84
705.026	0.87
705.208	0.76
705.389	0.8
705.57	0.73
705.751	0.72
705.933	0.75
706.114	0.88
706.295	0.76
706.476	0.68
706.657	0.86
706.838	0.77
707.02	0.76
707.201	0.7
707.382	0.65
707.563	0.77
707.744	0.76
707.925	0.7
708.106	0.67
708.287	0.7
708.468	0.78
708.649	0.69
708.83	0.71
709.011	0.69
709.192	0.78
709.373	0.6
709.554	0.75
709.734	0.76
709.915	0.8
710.096	0.71
710.277	0.59
710.458	0.69
710.639	0.73
710.819	0.55
711	0.68
711.181	0.78
711.362	0.78
711.542	0.7
711.723	0.72
711.904	0.78
712.085	0.71
712.265	0.67
712.446	0.56
712.627	0.67
712.807	0.71
712.988	0.69
713.168	0.56
713.349	0.62
713.53	0.48
713.71	0.63
713.891	0.6
714.071	0.61
714.252	0.69
714.432	0.68
714.613	0.57
714.793	0.64
714.974	0.75
715.154	0.71
715.334	0.75
715.515	0.65
715.695	0.56
715.876	0.63
716.056	0.61
716.236	0.63
716.417	0.62
716.597	0.56
716.777	0.75
716.957	0.68
717.138	0.62
717.318	0.7
717.498	0.53
717.678	0.62
717.859	0.6
718.039	0.52
718.219	0.6
718.399	0.61
718.579	0.55
718.759	0.54
718.939	0.63
719.12	0.66
719.3	0.6
719.48	0.45
719.66	0.51
719.84	0.64
720.02	0.58
720.2	0.6
720.38	0.68
720.56	0.72
720.74	0.61
720.92	0.59
721.1	0.68
721.279	0.65
721.459	0.6
721.639	0.42
721.819	0.65
721.999	0.64
722.179	0.59
722.359	0.48
722.538	0.67
722.718	0.52
722.898	0.59
723.078	0.62
723.257	0.55
723.437	0.61
723.617	0.65
723.797	0.54
723.976	0.57
724.156	0.68
724.336	0.66
724.515	0.82
724.695	0.45
724.874	0.54
725.054	0.62
725.234	0.53
725.413	0.57
725.593	0.57
725.772	0.59
725.952	0.55
726.131	0.61
726.311	0.66
726.49	0.54
726.67	0.53
726.849	0.49
727.028	0.62
727.208	0.53
727.387	0.72
727.567	0.51
727.746	0.6
727.925	0.54
728.105	0.5
728.284	0.58
728.463	0.55
728.643	0.59
728.822	0.45
729.001	0.53
729.18	0.56
729.359	0.66
729.539	0.52
729.718	0.64
729.897	0.68
730.076	0.57
730.255	0.51
730.434	0.49
730.614	0.62
730.793	0.67
730.972	0.57
731.151	0.6
731.33	0.66
731.509	0.67
731.688	0.62
731.867	0.63
732.046	0.43
732.225	0.73
732.404	0.56
732.583	0.42
732.762	0.63
732.941	0.67
733.12	0.57
733.298	0.59
733.477	0.8
733.656	0.62
733.835	0.52
734.014	0.59
734.193	0.51
734.371	0.67
734.55	0.65
734.729	0.46
734.908	0.65
735.086	0.62
735.265	0.69
735.444	0.49
735.623	0.44
735.801	0.57
735.98	0.61
736.159	0.51
736.337	0.68
736.516	0.67
736.694	0.64
736.873	0.63
737.052	0.71
737.23	0.72
737.409	0.62
737.587	0.87
737.766	0.48
737.944	0.51
738.123	0.69
738.301	0.59
738.479	0.61
738.658	0.68
738.836	0.4
739.015	0.61
739.193	0.73
739.371	0.49
739.55	0.55
739.728	0.45
739.906	0.61
740.085	0.76
740.263	0.58
740.441	0.36
740.62	0.74
740.798	0.64
740.976	0.48
741.154	0.51
741.332	0.73
741.511	0.48
741.689	0.58
741.867	0.59
742.045	0.5
742.223	0.45
742.401	0.41
742.579	0.49
742.757	0.69
742.935	0.38
743.114	0.42
743.292	0.49
743.47	0.56
743.648	0.66
743.826	0.52
744.004	0.64
744.181	0.43
744.359	0.39
744.537	0.62
744.715	0.49
744.893	0.56
745.071	0.47
745.249	0.46
745.427	0.55
745.605	0.58
745.782	0.39
745.96	0.48
746.138	0.46
746.316	0.53
746.493	0.33
746.671	0.43
746.849	0.43
747.027	0.67
747.204	0.37
747.382	0.58
747.56	0.35
747.737	0.24
747.915	0.35
748.093	0.62
748.27	0.3
748.448	0.43
748.625	0.22
748.803	0.38
748.98	0.43
749.158	0.45
749.335	0.53
749.513	0.33
749.69	0.33
749.868	0.44
750.045	0.5
750.223	0.42
750.4	0.27
750.578	0.61
750.755	0.45
750.932	0.23
751.11	0.51
751.287	0.4
751.464	0.56
751.642	0.23
751.819	0.42
751.996	0.5
752.173	0.39
752.351	0.3
752.528	0.53
752.705	0.31
752.882	0.4
753.06	0.48
753.237	0.47
753.414	0.52
753.591	0.58
753.768	0.36
753.945	0.38
754.122	0.31
754.299	0.34
754.476	0.27
754.654	0.33
754.831	0.39
755.008	0.38
755.185	0.36
755.362	0.32
755.539	0.36
755.716	0.54
755.892	0.36
756.069	0.3
756.246	0.42
756.423	0.38
756.6	0.47
756.777	0.38
756.954	0.53
757.131	0.38
757.307	0.3
757.484	0.32
757.661	0.41
757.838	0.49
758.015	0.25
758.191	0.39
758.368	0.38
758.545	0.59
758.721	0.44
758.898	0.26
759.075	0.53
759.251	0.52
759.428	0.37
759.605	0.2
759.781	0.32
759.958	0.41
760.134	0.46
760.311	0.39
760.488	0.52
760.664	0.56
760.841	0.32
761.017	0.31
761.194	0.48
761.37	0.5
761.547	0.28
761.723	0.21
761.899	0.48
762.076	0.3
762.252	0.26
762.429	0.3
762.605	0.44
762.781	0.33
762.958	0.48
763.134	0.46
763.31	0.21
763.486	0.57
763.663	0.18
763.839	0.46
764.015	0.17
764.191	0.23
764.368	0.38
764.544	0.43
764.72	0.32
764.896	0.4
765.072	0.53
765.248	0.42
765.425	0.37
765.601	0.36
765.777	0.37
765.953	0.1
766.129	0.29
766.305	0.26
766.481	0.39
766.657	0.3
766.833	0.53
767.009	0.16
767.185	0.28
767.361	0.28
767.537	0.27
767.713	0.52
767.889	0.25
768.065	0.39
768.24	0.33
768.416	0.39
768.592	0.31
768.768	0.31
768.944	0.43
769.12	0.3
769.295	0.38
769.471	0.29
769.647	0.31
769.823	0.48
769.998	0.3
770.174	0.23
770.35	0.7
770.525	0.57
770.701	0.5
770.877	0.25
771.052	0.3
771.228	0.56
771.403	0.51
771.579	0.38
771.755	0.58
771.93	0.28
772.106	0.18
772.281	0.16
772.457	0.35
772.632	0.39
772.808	0.23
772.983	0.33
773.159	0.21
773.334	0.44
773.509	0.4
773.685	0.27
773.86	0.74
774.036	0.47
774.211	0.33
774.386	0.3
774.562	0.41
774.737	0.53
774.912	0.33
775.087	0.6
775.263	0.24
775.438	0.35
775.613	0.23
775.788	0.42
775.964	0.49
776.139	0.76
776.314	0.17
776.489	0.35
776.664	0.46
776.839	0.37
777.014	0.35
777.19	0.47
777.365	0.42
777.54	0.74
777.715	0.1
777.89	0.56
778.065	0.39
778.24	0.28
778.415	0.52
778.59	0.12
778.765	0.32
778.94	0.46
779.115	0.32
779.289	0.33
779.464	0.49
779.639	0.45
779.814	0.25
779.989	0.07
780.164	0.45
780.339	0.49
780.513	0.15
780.688	0.1
780.863	0.41
781.038	0.65
781.212	0.13
781.387	0.57
781.562	0.43
781.737	0.62
781.911	0.57
782.086	0.32
782.261	0.35
782.435	0.66
782.61	0.44
782.784	0.34
782.959	0.49
783.134	0.4
783.308	0.13
783.483	0.4
783.657	0.67
783.832	0.5
784.006	0.11
784.181	0.62
784.355	0.71
784.53	0.46
784.704	0.21
784.878	0.85
785.053	0.4
785.227	0.63
785.402	0.75
785.576	0.19
785.75	0.48
785.925	0.37
786.099	0.59
786.273	0.56
786.448	0.64
786.622	0.51
786.796	0.35
786.97	0.4
787.145	0.85
787.319	0.39
787.493	0.36
787.667	0.27
787.841	0.25
788.015	0.58
788.19	0.01
788.364	0.67
788.538	0.49
788.712	0.7
788.886	0.32
789.06	0.67
789.234	0.61
789.408	0.18
789.582	0.45
789.756	0.52
789.93	0.28
790.104	0.36
790.278	0.2
790.452	-0.01
790.626	0.66
790.8	0.35
790.973	0.42
791.147	0.86
791.321	0.51
791.495	0.61
791.669	0.5
791.843	0.55
792.016	0.41
792.19	0.78
792.364	0.33
792.538	1.01
792.711	0.78
792.885	0.47
793.059	0.26
793.233	-0.22
793.406	0.69
793.58	0.56
793.754	0.43
793.927	0.51
794.101	0.72
794.274	0.58
794.448	0.6
794.622	0.28
794.795	0.78
794.969	0.47
795.142	0.86
795.316	0.46
795.489	0.41
795.663	0.85
795.836	0.43
796.009	0.02
796.183	0.88
796.356	0.79
796.53	0.53
796.703	0.53
796.876	1.22
797.05	0.37
797.223	0.28
797.396	0.6
797.57	0.4
797.743	1.05
797.916	0.51
798.09	0.38
798.263	0.83
798.436	0.73
798.609	0.33
798.782	0.39
798.956	0.55
799.129	0.49
799.302	0.45
799.475	0.23
799.648	0.26
799.821	0.28
799.994	0.52
800.167	0.23
800.34	0.52
800.514	0.62
800.687	0.37
800.86	0.46
801.033	0.41
801.206	0.52
801.379	0.27
801.551	0.6
801.724	0.63
801.897	0.95
802.07	0.38
802.243	0.2
802.416	0.58
802.589	0.31
802.762	0.75
802.935	0.32
803.107	0.96
803.28	0.92
803.453	0.76
803.626	0.27
803.798	0.59
803.971	0.53
804.144	0.71
804.317	0.99
804.489	0.81
804.662	0.49
804.835	0.72
805.007	0.44
805.18	1.21
805.353	0.6
805.525	0.26
805.698	0.18
805.87	0.81
806.043	0.87
806.215	0.31
806.388	0.33
806.56	0.5
806.733	0.99
806.905	0.59
807.078	0.35
807.25	0.41
807.423	0.43
807.595	0.38
807.768	0.36
807.94	1.13
808.112	0.69
808.285	0.35
808.457	0.52
808.629	0.36
808.802	0.66
808.974	0.54
809.146	0.42
809.318	0.56
809.491	0.4
809.663	1
809.835	0.9
810.007	1.08
810.18	0.64
810.352	0.17
810.524	0.57
810.696	0.76
810.868	1.09
811.04	0.56
811.212	0.44
811.384	1.02
811.556	0.79
811.728	0.61
811.901	1.19
812.073	0.79
812.245	0.87
812.417	0.36
812.589	-0.19
812.76	0.6
812.932	0.86
813.104	0.91
813.276	0.29
813.448	0.82
813.62	0.25
813.792	0.75
813.964	0.47
814.136	0.8
814.307	0.57
814.479	0.45
814.651	0.91
814.823	0.97
814.995	0.35
815.166	0.98
815.338	0.4
815.51	0.38
815.681	1.29
815.853	0.32
816.025	0.84
816.196	1.7
816.368	0.92
816.54	0.13
816.711	0.83
816.883	1.08
817.054	1.71
817.226	0.21
817.398	1.11
817.569	0.44
817.741	0.77
817.912	0.82
818.084	0.62
818.255	0.83
818.426	0.55
818.598	0.4
818.769	0.61
818.941	1.34
819.112	1.32
819.283	0.71
819.455	0.15
819.626	0.64
819.798	0.97
819.969	0.66
820.14	0.46
820.311	0.7
820.483	0.8
820.654	0.79
820.825	0.55
820.996	0.28
821.168	0
821.339	0.35
821.51	0.47
821.681	0.42
821.852	0.43
822.023	0.45
822.195	0.49
822.366	0.9
822.537	0.63
822.708	0.72
822.879	0.64
823.05	1.05
823.221	0.93
823.392	0.83
823.563	1
823.734	0.93
823.905	0.7
824.076	0.8
824.247	0.45
824.418	0.32
824.589	1.56
824.759	0.92
824.93	0.84
825.101	-0.25
825.272	1.29
825.443	1.63
825.614	1.1
825.784	-0.08
825.955	1.45
826.126	1.7
826.297	1.2
826.467	1.59
826.638	2.08
826.809	0.02
826.98	0.63
827.15	1.69
827.321	1.46
827.492	1.68
827.662	0.78
827.833	1.69
828.003	1.04
828.174	0.03
828.345	0.2
828.515	1.38
828.686	0.76
828.856	0.84
829.027	0.76
829.197	1.07
829.368	1.17
829.538	0.62
829.709	0.28
829.879	1.3
830.049	0.65
830.22	0.7
830.39	0.93
830.56	1.35
830.731	0.54
830.901	0.48
831.072	1.29
831.242	0.97
831.412	1.07
831.582	0.88
831.753	0.05
831.923	1.3
832.093	0.57
832.263	0.69
832.434	0.54
832.604	0.51
832.774	0.97
832.944	0.4
833.114	0.12
833.284	1.2
833.454	0.25
833.624	0.86
833.795	0.24
833.965	1.22
834.135	1.5
834.305	-0.17
834.475	0.99
834.645	0.83
834.815	0.85
834.985	0.62
835.155	0.31
835.325	1.64
835.494	1.16
835.664	0.55
835.834	0.31
836.004	0.86
836.174	0.88
836.344	1.26
836.514	-0.2
836.684	1.17
836.853	0.98
837.023	0.76
837.193	0.21
837.363	1.08
837.532	1.64
837.702	0.6
837.872	0.73
838.041	1.68
838.211	2.63
838.381	0.6
838.55	1.08
838.72	2.21
838.89	1.82
839.059	0.48
839.229	0.52
839.398	2.32
839.568	1.32
839.738	1.69
839.907	2.69
840.077	1.68
840.246	0.11
840.416	0.7
840.585	0.41
840.755	2.51
840.924	2.4
841.093	0.8
841.263	-0.09
841.432	0.62
841.602	0.43
841.771	0.37
841.94	0.57
842.11	2.78
842.279	1.44
842.448	0.03
842.617	1.44
842.787	2.06
842.956	-0.12
843.125	0.81
843.294	1.76
843.464	1.73
843.633	0.91
843.802	0.31
843.971	0.81
844.14	0.96
844.309	1.14
844.479	0.26
844.648	0.44
844.817	0.55
844.986	0.62
845.155	0.35
845.324	1.18
845.493	0.67
845.662	1.41
845.831	1.76
846	1.89
846.169	1.37
846.338	2.66
846.507	2.17
846.676	0.96
846.844	0.71
847.013	2.32
847.182	1.42
847.351	1.22
847.52	1.46
847.689	1.4
847.858	1.29
848.026	0.73
848.195	1.11
848.364	1.11
848.533	0.67
848.701	0.33
848.87	1.91
849.039	1.23
849.207	2.59
849.376	2.27
849.545	2.2
849.713	0.91
849.882	1.58
850.051	1
850.219	1.91
850.388	1.95
850.556	0.92
850.725	1.01
850.893	0.5
851.062	0.73
851.23	0.98
851.399	0.47
851.567	0.9
851.736	1.16
851.904	1.15
852.073	1.25
852.241	2.76
852.41	1.25
852.578	1.23
852.746	0.41
852.915	2.17
853.083	1.06
853.251	0.17
853.42	1.64
853.588	2.05
853.756	1.78
853.924	1.38
854.093	0.74
854.261	1.42
854.429	-0.03
854.597	1.78
854.765	0.61
854.934	1.22
855.102	3.14
855.27	0.98
855.438	2.1
855.606	2.59
855.774	3.19
855.942	-0.06
856.11	1.04
856.278	1.52
856.446	1.41
856.614	1.03
856.782	0.94
856.95	2.57
857.118	2.47
857.286	1.99
857.454	1.21
857.622	2.3
857.79	1.88
857.958	1.23
858.126	0.96
858.294	1.43
858.462	1.55
858.629	0.92
858.797	0.97
858.965	0.87
859.133	0
859.301	1.04
859.468	1.47
859.636	0.5
859.804	2.4
859.971	2.73
860.139	0.18
860.307	2.91
860.474	2.07
860.642	0.7
860.81	1.54
860.977	1.56
861.145	2.34
861.313	1.87
861.48	1.66
861.648	2.61
861.815	1.59
861.983	0.34
862.15	0.54
862.318	1.95
862.485	2.21
862.653	0.46
862.82	0.66
862.988	3.95
863.155	1.7
863.322	0.94
863.49	0.35
863.657	0.9
863.824	3.29
863.992	2.87
864.159	2.21
864.326	3.38
864.494	-0.87
864.661	4.47
864.828	-0.04
864.996	2.53
865.163	5.15
865.33	0.85
865.497	-0.63
865.664	1.24
865.832	-0.98
865.999	3.07
866.166	0.81
866.333	1.27
866.5	1.2
866.667	1.61
866.834	2.7
867.001	4.39
867.168	-0.79
867.335	1.53
867.502	-0.34
867.669	2.52
867.836	4.71
868.003	0.79
868.17	1.5
868.337	1.27
868.504	4.08
868.671	0.21
868.838	2.26
869.005	0.97
869.172	1.7
869.339	1.65
869.505	1.45
869.672	2.28
869.839	3.01
870.006	2.1
870.173	1.58
870.339	2.34
870.506	4.41
870.673	0.57
870.84	1.8
871.006	1.22
871.173	2.6
871.34	1.26
871.506	0.76
871.673	3.45
871.839	0.34
872.006	1.1
872.173	0.53
872.339	2.06
872.506	2.67
872.672	0.83
872.839	-0.81
873.005	3.55
873.172	7.29
873.338	2.99
873.505	1.88
873.671	2.11
873.838	3.36
874.004	0.97
874.171	1.71
874.337	2.23
874.503	2.89
874.67	1.96
874.836	1.88
875.002	3.99
875.169	0.77
875.335	2.46
875.501	0.39
875.668	2.15
875.834	3.55
876	2.1
876.166	2.97
876.332	2.41
876.499	6.32
876.665	1.27
876.831	1.74
876.997	6.59
877.163	2.19
877.329	-0.47
877.495	2.07
877.662	4.23
877.828	1.27
877.994	0.74
878.16	0.13
878.326	0.67
878.492	3.32
878.658	0.76
878.824	1.67
878.99	3.09
879.156	1.03
879.322	3.4
879.487	0.51
879.653	3.29
879.819	2.13
879.985	2.23
880.151	2.43
880.317	1.53
880.483	1.85
880.648	2.84
880.814	0.24
880.98	2.16
881.146	0.47
881.312	1.54
881.477	2.46
881.643	2.43
881.809	3.09
881.974	4.72
882.14	-0.84
882.306	1.85
882.471	3.84
882.637	0.58
882.803	5.1
882.968	3.29
883.134	5.44
883.299	2.3
883.465	2.24
883.63	4.5
883.796	3.25
883.961	3.43
884.127	3.89
884.292	-1.48
884.458	-0.39
884.623	-0.39
