Data from Apollo_Calib_20240827__AbsoluteIrradiance__829__12-58-02-872.txt Node

Date: Wed Aug 28 12:58:02 BST 2024
User: biology
Spectrometer: FLMT08252
Trigger mode: 0
Integration Time (sec): 5.000000E-1
Scans to average: 5
Electric dark correction enabled: true
Nonlinearity correction enabled: false
Boxcar width: 0
XAxis mode: Wavelengths
Number of Pixels in Spectrum: 3648
>>>>>Begin Spectral Data<<<<<
179.588	-0
179.809	-0
180.03	-0
180.251	-0
180.473	-0
180.694	0
180.915	0
181.136	-0
181.357	0
181.578	-0
181.799	0
182.02	-0
182.241	-0
182.462	-0
182.683	0
182.904	-0
183.125	-0
183.346	0
183.567	0
183.788	0
184.009	0
184.23	0
184.451	0
184.672	0
184.892	0
185.113	0
185.334	0
185.555	0
185.776	0
185.996	0
186.217	0
186.438	0
186.659	0
186.879	0
187.1	0
187.321	0
187.541	0
187.762	0
187.983	0
188.203	0
188.424	0
188.644	0
188.865	0
189.086	0
189.306	0
189.527	0
189.747	0
189.968	0
190.188	0
190.409	0
190.629	0
190.849	0
191.07	0
191.29	0
191.511	0
191.731	0
191.951	0
192.172	0
192.392	0
192.612	0
192.833	0
193.053	0
193.273	0
193.493	0
193.714	0
193.934	0
194.154	0
194.374	0
194.594	0
194.815	0
195.035	0
195.255	0
195.475	0
195.695	0
195.915	0
196.135	0
196.355	0
196.575	0
196.795	0
197.015	0
197.235	0
197.455	0
197.675	0
197.895	0
198.115	0
198.335	0
198.555	0
198.775	0
198.995	0
199.214	0
199.434	0
199.654	0
199.874	0
200.094	4.4
200.313	2.43
200.533	1.84
200.753	1.38
200.973	3.72
201.192	3.28
201.412	1.18
201.632	1.46
201.851	3.23
202.071	1.86
202.291	1.7
202.51	1.34
202.73	2.88
202.95	1.59
203.169	1.69
203.389	1.57
203.608	1.94
203.828	1.61
204.047	1.46
204.267	2.51
204.486	2.06
204.706	2.25
204.925	1.72
205.145	1.62
205.364	2.22
205.583	2.61
205.803	1.47
206.022	0.78
206.242	1.61
206.461	1.08
206.68	1.25
206.9	1.68
207.119	2.82
207.338	2.27
207.557	1.19
207.777	1.61
207.996	1.71
208.215	2.31
208.434	1.12
208.654	0.86
208.873	1.31
209.092	2.4
209.311	1.08
209.53	1.31
209.749	1.28
209.968	1.07
210.187	0.85
210.407	0.51
210.626	1.24
210.845	1.7
211.064	0.9
211.283	1.1
211.502	1.58
211.721	1.27
211.94	0.97
212.159	1.48
212.377	1.68
212.596	1.59
212.815	1.19
213.034	1.37
213.253	1.2
213.472	1.33
213.691	0.95
213.91	0.71
214.128	0.76
214.347	1.49
214.566	0.41
214.785	0.46
215.003	1.28
215.222	1.07
215.441	0.86
215.66	0.66
215.878	1.02
216.097	1.19
216.316	0.62
216.534	0.79
216.753	0.98
216.972	0.79
217.19	0.79
217.409	0.79
217.627	0.9
217.846	0.75
218.064	0.93
218.283	0.55
218.501	1.31
218.72	1.13
218.938	0.54
219.157	0.76
219.375	1.08
219.594	0.93
219.812	0.46
220.031	0.4
220.249	1.25
220.467	1.17
220.686	0.65
220.904	0.58
221.122	0.73
221.341	1.23
221.559	0.88
221.777	0.49
221.995	0.76
222.214	1.01
222.432	0.64
222.65	0.84
222.868	0.88
223.086	0.77
223.305	1
223.523	0.71
223.741	1.21
223.959	0.74
224.177	0.28
224.395	0.55
224.613	0.82
224.831	0.99
225.049	0.5
225.267	0.54
225.485	0.92
225.703	0.63
225.921	0.61
226.139	0.5
226.357	0.86
226.575	0.77
226.793	0.4
227.011	1.59
227.229	0.78
227.447	0.82
227.665	0.6
227.883	0.42
228.1	0.63
228.318	0.78
228.536	0.23
228.754	0.34
228.972	0.83
229.189	0.69
229.407	0.48
229.625	0.48
229.843	0.84
230.06	0.75
230.278	0.43
230.496	0.61
230.713	0.69
230.931	0.84
231.149	0.52
231.366	0.4
231.584	0.64
231.801	1
232.019	0.46
232.236	0.49
232.454	0.41
232.671	0.57
232.889	0.5
233.106	0.45
233.324	0.53
233.541	0.51
233.759	0.45
233.976	0.49
234.194	0.57
234.411	0.55
234.628	0.26
234.846	0.45
235.063	0.54
235.28	0.47
235.498	0.53
235.715	0.33
235.932	0.68
236.149	0.54
236.367	0.36
236.584	0.58
236.801	0.47
237.018	0.79
237.236	0.42
237.453	0.32
237.67	0.68
237.887	0.5
238.104	0.41
238.321	0.4
238.538	0.31
238.755	0.59
238.973	0.23
239.19	0.51
239.407	0.61
239.624	0.45
239.841	0.25
240.058	0.37
240.275	0.56
240.492	0.55
240.709	0.49
240.925	0.36
241.142	0.41
241.359	0.44
241.576	0.32
241.793	0.43
242.01	0.51
242.227	0.68
242.444	0.58
242.66	0.59
242.877	0.51
243.094	0.39
243.311	0.43
243.527	0.49
243.744	0.48
243.961	0.57
244.178	0.34
244.394	0.37
244.611	0.67
244.828	0.67
245.044	0.32
245.261	0.52
245.477	0.49
245.694	0.58
245.911	0.36
246.127	0.47
246.344	0.6
246.56	0.52
246.777	0.34
246.993	0.41
247.21	0.5
247.426	0.38
247.643	0.31
247.859	0.34
248.076	0.35
248.292	0.68
248.508	0.4
248.725	0.48
248.941	0.5
249.157	0.53
249.374	0.35
249.59	0.41
249.806	0.47
250.023	0.53
250.239	0.35
250.455	0.35
250.671	0.56
250.888	0.43
251.104	0.43
251.32	0.33
251.536	0.39
251.752	0.38
251.969	0.37
252.185	0.42
252.401	0.68
252.617	0.46
252.833	0.3
253.049	0.4
253.265	0.41
253.481	0.46
253.697	0.32
253.913	0.31
254.129	0.49
254.345	0.48
254.561	0.36
254.777	0.27
254.993	0.46
255.209	0.38
255.425	0.29
255.641	0.33
255.857	0.45
256.073	0.46
256.288	0.26
256.504	0.35
256.72	0.43
256.936	0.57
257.152	0.39
257.367	0.32
257.583	0.4
257.799	0.55
258.015	0.33
258.23	0.33
258.446	0.56
258.662	0.39
258.877	0.27
259.093	0.31
259.309	0.43
259.524	0.47
259.74	0.32
259.955	0.18
260.171	0.51
260.387	0.39
260.602	0.42
260.818	0.43
261.033	0.28
261.249	0.43
261.464	0.33
261.68	0.28
261.895	0.42
262.11	0.56
262.326	0.28
262.541	0.24
262.757	0.52
262.972	0.42
263.187	0.39
263.403	0.39
263.618	0.59
263.833	0.44
264.049	0.29
264.264	0.35
264.479	0.43
264.694	0.43
264.91	0.26
265.125	0.37
265.34	0.44
265.555	0.58
265.77	0.35
265.986	0.3
266.201	0.45
266.416	0.45
266.631	0.29
266.846	0.28
267.061	0.43
267.276	0.41
267.491	0.21
267.706	0.37
267.921	0.42
268.136	0.37
268.351	0.32
268.566	0.23
268.781	0.46
268.996	0.46
269.211	0.28
269.426	0.25
269.641	0.26
269.856	0.39
270.071	0.23
270.285	0.2
270.5	0.41
270.715	0.46
270.93	0.3
271.145	0.35
271.359	0.41
271.574	0.32
271.789	0.32
272.004	0.27
272.218	0.29
272.433	0.45
272.648	0.25
272.862	0.41
273.077	0.41
273.292	0.32
273.506	0.23
273.721	0.39
273.936	0.38
274.15	0.41
274.365	0.3
274.579	0.35
274.794	0.42
275.008	0.39
275.223	0.26
275.437	0.34
275.652	0.45
275.866	0.38
276.081	0.26
276.295	0.36
276.509	0.34
276.724	0.4
276.938	0.39
277.153	0.38
277.367	0.39
277.581	0.31
277.796	0.27
278.01	0.2
278.224	0.4
278.438	0.48
278.653	0.31
278.867	0.23
279.081	0.38
279.295	0.32
279.51	0.34
279.724	0.2
279.938	0.39
280.152	0.33
280.366	0.23
280.58	0.34
280.794	0.45
281.008	0.36
281.222	0.34
281.437	0.47
281.651	0.36
281.865	0.44
282.079	0.26
282.293	0.17
282.507	0.27
282.721	0.3
282.935	0.26
283.148	0.25
283.362	0.26
283.576	0.23
283.79	0.26
284.004	0.26
284.218	0.4
284.432	0.31
284.646	0.31
284.859	0.25
285.073	0.26
285.287	0.32
285.501	0.27
285.714	0.25
285.928	0.35
286.142	0.3
286.356	0.27
286.569	0.2
286.783	0.45
286.997	0.37
287.21	0.28
287.424	0.29
287.637	0.28
287.851	0.28
288.065	0.32
288.278	0.29
288.492	0.3
288.705	0.27
288.919	0.34
289.132	0.21
289.346	0.32
289.559	0.19
289.773	0.25
289.986	0.24
290.2	0.25
290.413	0.33
290.626	0.22
290.84	0.22
291.053	0.34
291.267	0.35
291.48	0.24
291.693	0.26
291.906	0.28
292.12	0.31
292.333	0.22
292.546	0.24
292.76	0.38
292.973	0.3
293.186	0.28
293.399	0.25
293.612	0.36
293.826	0.25
294.039	0.3
294.252	0.27
294.465	0.33
294.678	0.35
294.891	0.29
295.104	0.2
295.317	0.28
295.53	0.29
295.743	0.26
295.956	0.27
296.169	0.36
296.382	0.37
296.595	0.26
296.808	0.28
297.021	0.36
297.234	0.32
297.447	0.26
297.66	0.25
297.873	0.35
298.086	0.36
298.299	0.22
298.511	0.2
298.724	0.32
298.937	0.22
299.15	0.19
299.363	0.26
299.575	0.31
299.788	0.35
300.001	0.22
300.213	0.15
300.426	0.22
300.639	0.21
300.852	0.22
301.064	0.3
301.277	0.39
301.489	0.33
301.702	0.28
301.915	0.21
302.127	0.29
302.34	0.3
302.552	0.3
302.765	0.2
302.977	0.33
303.19	0.24
303.402	0.2
303.615	0.23
303.827	0.27
304.04	0.24
304.252	0.31
304.464	0.28
304.677	0.44
304.889	0.32
305.102	0.2
305.314	0.2
305.526	0.28
305.739	0.34
305.951	0.19
306.163	0.22
306.375	0.38
306.588	0.25
306.8	0.25
307.012	0.21
307.224	0.29
307.436	0.35
307.649	0.16
307.861	0.27
308.073	0.29
308.285	0.26
308.497	0.21
308.709	0.23
308.921	0.26
309.133	0.34
309.346	0.22
309.558	0.24
309.77	0.28
309.982	0.36
310.194	0.26
310.406	0.21
310.617	0.37
310.829	0.25
311.041	0.29
311.253	0.22
311.465	0.26
311.677	0.27
311.889	0.26
312.101	0.21
312.313	0.31
312.524	0.37
312.736	0.15
312.948	0.26
313.16	0.37
313.372	0.29
313.583	0.26
313.795	0.25
314.007	0.25
314.218	0.31
314.43	0.26
314.642	0.2
314.853	0.23
315.065	0.32
315.277	0.23
315.488	0.28
315.7	0.34
315.912	0.29
316.123	0.25
316.335	0.26
316.546	0.38
316.758	0.32
316.969	0.24
317.181	0.26
317.392	0.25
317.604	0.35
317.815	0.22
318.026	0.22
318.238	0.26
318.449	0.29
318.661	0.16
318.872	0.17
319.083	0.26
319.295	0.26
319.506	0.2
319.717	0.24
319.929	0.3
320.14	0.27
320.351	0.25
320.562	0.19
320.774	0.34
320.985	0.29
321.196	0.2
321.407	0.2
321.618	0.33
321.829	0.24
322.041	0.27
322.252	0.24
322.463	0.3
322.674	0.3
322.885	0.18
323.096	0.25
323.307	0.26
323.518	0.29
323.729	0.23
323.94	0.21
324.151	0.23
324.362	0.31
324.573	0.3
324.784	0.22
324.995	0.31
325.206	0.3
325.417	0.28
325.628	0.21
325.838	0.26
326.049	0.28
326.26	0.3
326.471	0.2
326.682	0.26
326.892	0.28
327.103	0.16
327.314	0.2
327.525	0.36
327.735	0.26
327.946	0.22
328.157	0.15
328.368	0.27
328.578	0.24
328.789	0.27
328.999	0.26
329.21	0.21
329.421	0.35
329.631	0.21
329.842	0.19
330.052	0.29
330.263	0.29
330.473	0.32
330.684	0.22
330.894	0.23
331.105	0.27
331.315	0.24
331.526	0.16
331.736	0.37
331.947	0.26
332.157	0.27
332.367	0.18
332.578	0.3
332.788	0.37
332.999	0.26
333.209	0.26
333.419	0.2
333.629	0.28
333.84	0.29
334.05	0.21
334.26	0.36
334.47	0.27
334.681	0.31
334.891	0.25
335.101	0.31
335.311	0.36
335.521	0.27
335.732	0.21
335.942	0.31
336.152	0.24
336.362	0.26
336.572	0.22
336.782	0.31
336.992	0.21
337.202	0.22
337.412	0.21
337.622	0.29
337.832	0.22
338.042	0.22
338.252	0.25
338.462	0.23
338.672	0.22
338.882	0.26
339.092	0.28
339.302	0.35
339.511	0.29
339.721	0.26
339.931	0.21
340.141	0.36
340.351	0.33
340.561	0.28
340.77	0.28
340.98	0.31
341.19	0.24
341.4	0.24
341.609	0.24
341.819	0.24
342.029	0.17
342.238	0.26
342.448	0.22
342.658	0.32
342.867	0.22
343.077	0.24
343.286	0.25
343.496	0.27
343.706	0.29
343.915	0.18
344.125	0.25
344.334	0.32
344.544	0.17
344.753	0.2
344.963	0.22
345.172	0.24
345.381	0.19
345.591	0.2
345.8	0.26
346.01	0.31
346.219	0.28
346.428	0.23
346.638	0.28
346.847	0.28
347.056	0.35
347.266	0.24
347.475	0.21
347.684	0.33
347.893	0.29
348.103	0.3
348.312	0.19
348.521	0.27
348.73	0.28
348.94	0.24
349.149	0.19
349.358	0.25
349.567	0.21
349.776	0.18
349.985	0.22
350.194	0.32
350.403	0.31
350.612	0.14
350.821	0.19
351.03	0.27
351.239	0.21
351.448	0.25
351.657	0.2
351.866	0.33
352.075	0.23
352.284	0.3
352.493	0.17
352.702	0.33
352.911	0.23
353.12	0.26
353.329	0.21
353.538	0.29
353.746	0.28
353.955	0.21
354.164	0.25
354.373	0.23
354.582	0.31
354.79	0.25
354.999	0.32
355.208	0.25
355.416	0.37
355.625	0.2
355.834	0.25
356.042	0.31
356.251	0.23
356.46	0.18
356.668	0.26
356.877	0.34
357.085	0.29
357.294	0.18
357.503	0.29
357.711	0.23
357.92	0.42
358.128	0.25
358.337	0.22
358.545	0.31
358.754	0.2
358.962	0.28
359.17	0.22
359.379	0.27
359.587	0.29
359.796	0.25
360.004	0.34
360.212	0.27
360.421	0.31
360.629	0.25
360.837	0.22
361.046	0.28
361.254	0.41
361.462	0.27
361.67	0.26
361.879	0.25
362.087	0.31
362.295	0.26
362.503	0.21
362.711	0.2
362.92	0.23
363.128	0.19
363.336	0.17
363.544	0.17
363.752	0.27
363.96	0.22
364.168	0.25
364.376	0.24
364.584	0.29
364.792	0.31
365	0.25
365.208	0.27
365.416	0.28
365.624	0.32
365.832	0.16
366.04	0.34
366.248	0.26
366.456	0.28
366.664	0.27
366.872	0.24
367.079	0.23
367.287	0.24
367.495	0.28
367.703	0.26
367.911	0.2
368.118	0.26
368.326	0.23
368.534	0.25
368.742	0.33
368.949	0.17
369.157	0.2
369.365	0.29
369.572	0.2
369.78	0.23
369.988	0.27
370.195	0.23
370.403	0.32
370.61	0.25
370.818	0.26
371.026	0.36
371.233	0.22
371.441	0.27
371.648	0.22
371.856	0.25
372.063	0.29
372.271	0.22
372.478	0.22
372.685	0.23
372.893	0.32
373.1	0.27
373.308	0.2
373.515	0.38
373.722	0.34
373.93	0.25
374.137	0.29
374.344	0.35
374.552	0.31
374.759	0.27
374.966	0.26
375.173	0.25
375.381	0.32
375.588	0.23
375.795	0.2
376.002	0.27
376.209	0.24
376.417	0.24
376.624	0.31
376.831	0.28
377.038	0.24
377.245	0.14
377.452	0.25
377.659	0.24
377.866	0.25
378.073	0.26
378.28	0.27
378.487	0.28
378.694	0.27
378.901	0.26
379.108	0.24
379.315	0.31
379.522	0.38
379.729	0.28
379.936	0.24
380.143	0.31
380.35	0.27
380.557	0.24
380.763	0.26
380.97	0.28
381.177	0.29
381.384	0.3
381.591	0.26
381.797	0.33
382.004	0.36
382.211	0.31
382.418	0.2
382.624	0.3
382.831	0.33
383.038	0.26
383.244	0.26
383.451	0.28
383.658	0.35
383.864	0.25
384.071	0.23
384.277	0.37
384.484	0.31
384.69	0.33
384.897	0.2
385.103	0.29
385.31	0.23
385.516	0.29
385.723	0.25
385.929	0.26
386.136	0.21
386.342	0.32
386.549	0.27
386.755	0.38
386.961	0.34
387.168	0.25
387.374	0.27
387.58	0.28
387.787	0.27
387.993	0.32
388.199	0.26
388.406	0.25
388.612	0.29
388.818	0.26
389.024	0.23
389.231	0.28
389.437	0.4
389.643	0.34
389.849	0.28
390.055	0.34
390.261	0.32
390.467	0.33
390.674	0.27
390.88	0.28
391.086	0.34
391.292	0.26
391.498	0.34
391.704	0.32
391.91	0.29
392.116	0.28
392.322	0.18
392.528	0.35
392.734	0.27
392.94	0.31
393.146	0.31
393.352	0.3
393.557	0.31
393.763	0.31
393.969	0.36
394.175	0.29
394.381	0.35
394.587	0.25
394.792	0.27
394.998	0.41
395.204	0.36
395.41	0.29
395.615	0.3
395.821	0.31
396.027	0.37
396.233	0.28
396.438	0.35
396.644	0.34
396.85	0.33
397.055	0.32
397.261	0.37
397.466	0.43
397.672	0.33
397.878	0.37
398.083	0.3
398.289	0.31
398.494	0.44
398.7	0.37
398.905	0.22
399.111	0.42
399.316	0.3
399.522	0.33
399.727	0.36
399.932	0.32
400.138	0.3
400.343	0.37
400.549	0.36
400.754	0.38
400.959	0.37
401.165	0.41
401.37	0.37
401.575	0.5
401.78	0.42
401.986	0.34
402.191	0.36
402.396	0.38
402.601	0.44
402.807	0.42
403.012	0.33
403.217	0.41
403.422	0.4
403.627	0.44
403.832	0.37
404.037	0.47
404.243	0.43
404.448	0.41
404.653	0.39
404.858	0.46
405.063	0.51
405.268	0.48
405.473	0.37
405.678	0.42
405.883	0.64
406.088	0.47
406.293	0.39
406.498	0.46
406.703	0.5
406.907	0.46
407.112	0.41
407.317	0.53
407.522	0.56
407.727	0.49
407.932	0.54
408.136	0.63
408.341	0.55
408.546	0.57
408.751	0.57
408.956	0.58
409.16	0.65
409.365	0.61
409.57	0.57
409.774	0.68
409.979	0.71
410.184	0.7
410.388	0.64
410.593	0.78
410.798	0.72
411.002	0.68
411.207	0.81
411.411	0.79
411.616	0.69
411.82	0.79
412.025	0.84
412.229	0.9
412.434	1.03
412.638	0.88
412.843	0.93
413.047	0.93
413.252	0.91
413.456	0.98
413.66	1.05
413.865	1.04
414.069	1.15
414.273	1.1
414.478	1.14
414.682	1.16
414.886	1.24
415.091	1.2
415.295	1.21
415.499	1.43
415.703	1.32
415.908	1.4
416.112	1.31
416.316	1.53
416.52	1.54
416.724	1.55
416.929	1.57
417.133	1.8
417.337	1.68
417.541	1.77
417.745	1.82
417.949	1.97
418.153	1.98
418.357	1.99
418.561	2.28
418.765	2.18
418.969	2.34
419.173	2.38
419.377	2.35
419.581	2.56
419.785	2.58
419.989	2.66
420.193	2.77
420.397	2.81
420.601	3.01
420.804	3.13
421.008	3.07
421.212	3.25
421.416	3.22
421.62	3.19
421.823	3.33
422.027	3.46
422.231	3.44
422.435	3.43
422.638	3.53
422.842	3.65
423.046	3.7
423.249	3.92
423.453	3.86
423.657	4.08
423.86	4.23
424.064	4.24
424.268	4.43
424.471	4.36
424.675	4.57
424.878	4.74
425.082	4.88
425.285	5.11
425.489	5.04
425.692	5.18
425.896	5.2
426.099	5.4
426.303	5.55
426.506	5.6
426.71	5.87
426.913	6.11
427.116	6.16
427.32	6.28
427.523	6.3
427.726	6.61
427.93	6.75
428.133	6.97
428.336	7.21
428.54	7.35
428.743	7.58
428.946	7.78
429.149	7.82
429.353	7.78
429.556	7.87
429.759	7.97
429.962	8.1
430.165	8.32
430.368	7.88
430.571	7.98
430.775	8.02
430.978	7.99
431.181	8.11
431.384	8.23
431.587	8.36
431.79	8.6
431.993	8.44
432.196	8.91
432.399	9.21
432.602	9.41
432.805	9.48
433.008	10.03
433.211	9.91
433.414	10.16
433.616	10.23
433.819	10.18
434.022	10.35
434.225	10.44
434.428	10.57
434.631	11.09
434.833	10.81
435.036	10.91
435.239	11.24
435.442	11.17
435.645	11.45
435.847	11.41
436.05	11.86
436.253	11.97
436.455	11.97
436.658	11.93
436.861	12.36
437.063	12.39
437.266	12.39
437.468	12.71
437.671	12.99
437.874	13.06
438.076	12.86
438.279	13.34
438.481	13.39
438.684	14.17
438.886	13.88
439.089	13.98
439.291	14.07
439.494	14.44
439.696	14.52
439.899	15.04
440.101	15.62
440.303	15.65
440.506	16.54
440.708	16.08
440.91	16.32
441.113	16.67
441.315	16.75
441.517	16.59
441.72	17.13
441.922	16.85
442.124	16.71
442.326	17.11
442.529	17.48
442.731	17.26
442.933	17.58
443.135	17.45
443.337	17.32
443.539	17.87
443.742	17.56
443.944	18.26
444.146	18.04
444.348	17.98
444.55	17.75
444.752	18
444.954	17.99
445.156	17.89
445.358	18.33
445.56	18.53
445.762	18.56
445.964	18.77
446.166	18.45
446.368	18.57
446.57	18.61
446.772	18.14
446.974	17.89
447.175	18.26
447.377	18
447.579	18.33
447.781	17.88
447.983	17.7
448.184	17.47
448.386	17.77
448.588	17.21
448.79	17.16
448.991	17.6
449.193	17.45
449.395	16.86
449.597	16.43
449.798	16.46
450	16.03
450.202	15.85
450.403	15.85
450.605	15.73
450.806	15.5
451.008	15.28
451.21	15.1
451.411	14.62
451.613	13.83
451.814	14.1
452.016	14.05
452.217	13.28
452.419	13.37
452.62	13.03
452.821	12.75
453.023	12.63
453.224	12.26
453.426	11.87
453.627	11.05
453.828	11.27
454.03	11.18
454.231	11.32
454.432	11.19
454.634	10.83
454.835	10.63
455.036	10.61
455.238	10.09
455.439	9.94
455.64	9.66
455.841	9.51
456.042	9.63
456.244	9.38
456.445	8.94
456.646	8.65
456.847	8.58
457.048	8.56
457.249	8.62
457.45	8.38
457.651	7.71
457.852	7.77
458.054	7.35
458.255	7.27
458.456	7.25
458.657	7.2
458.858	6.68
459.058	6.76
459.259	6.75
459.46	6.57
459.661	6.52
459.862	6.47
460.063	6.38
460.264	6.31
460.465	5.99
460.666	6.14
460.866	5.81
461.067	5.55
461.268	5.62
461.469	5.54
461.67	5.45
461.87	5.25
462.071	5.26
462.272	5.14
462.473	5.16
462.673	5.31
462.874	5.27
463.075	5.16
463.275	5.04
463.476	5.18
463.676	5.14
463.877	4.97
464.078	4.93
464.278	5.02
464.479	4.84
464.679	4.7
464.88	4.77
465.08	4.76
465.281	4.51
465.481	4.38
465.682	4.2
465.882	4.24
466.083	4.1
466.283	4.04
466.483	3.95
466.684	3.7
466.884	3.66
467.085	3.71
467.285	3.76
467.485	3.59
467.686	3.65
467.886	3.47
468.086	3.38
468.286	3.37
468.487	3.51
468.687	3.3
468.887	3.25
469.087	3.41
469.287	3.22
469.488	3.12
469.688	3.31
469.888	3.19
470.088	3.12
470.288	3.09
470.488	3.1
470.688	2.88
470.888	2.85
471.088	2.75
471.288	2.8
471.488	2.79
471.688	2.72
471.888	2.7
472.088	2.86
472.288	2.77
472.488	2.62
472.688	2.56
472.888	2.61
473.088	2.66
473.288	2.52
473.488	2.48
473.688	2.63
473.887	2.48
474.087	2.44
474.287	2.56
474.487	2.43
474.687	2.46
474.886	2.4
475.086	2.31
475.286	2.36
475.486	2.3
475.685	2.27
475.885	2.23
476.085	2.27
476.284	2.3
476.484	2.26
476.684	2.23
476.883	2.33
477.083	2.24
477.282	2.1
477.482	2.2
477.681	2.16
477.881	2.12
478.08	2.09
478.28	2.05
478.479	2.13
478.679	2.18
478.878	2.04
479.078	2.05
479.277	2.11
479.477	2.07
479.676	2.05
479.875	2.01
480.075	2
480.274	2.01
480.473	2.05
480.673	2.01
480.872	2.13
481.071	2.08
481.271	2.03
481.47	2
481.669	2.02
481.868	1.97
482.067	2.03
482.267	1.93
482.466	1.97
482.665	1.94
482.864	1.98
483.063	1.93
483.262	2.02
483.461	2.03
483.661	2.13
483.86	2.02
484.059	2.01
484.258	2.09
484.457	2.01
484.656	2.06
484.855	2.14
485.054	1.96
485.253	1.98
485.452	1.96
485.651	2.08
485.849	2.05
486.048	2
486.247	1.98
486.446	2.09
486.645	2.05
486.844	2.09
487.043	2.09
487.241	2.12
487.44	2.1
487.639	2.14
487.838	2.11
488.037	2.09
488.235	2.25
488.434	2.14
488.633	2.06
488.831	2.27
489.03	2.25
489.229	2.19
489.427	2.23
489.626	2.28
489.825	2.3
490.023	2.28
490.222	2.27
490.42	2.36
490.619	2.32
490.817	2.38
491.016	2.32
491.214	2.47
491.413	2.45
491.611	2.38
491.81	2.38
492.008	2.5
492.207	2.52
492.405	2.55
492.604	2.46
492.802	2.5
493	2.62
493.199	2.62
493.397	2.67
493.595	2.73
493.794	2.69
493.992	2.8
494.19	2.72
494.388	2.85
494.587	2.73
494.785	2.79
494.983	2.72
495.181	2.89
495.379	2.94
495.578	2.97
495.776	2.95
495.974	2.91
496.172	3.01
496.37	3.09
496.568	3.12
496.766	3.07
496.964	3.2
497.162	3.23
497.36	3.23
497.558	3.25
497.756	3.32
497.954	3.32
498.152	3.33
498.35	3.45
498.548	3.35
498.746	3.39
498.944	3.43
499.142	3.45
499.34	3.55
499.538	3.62
499.736	3.49
499.933	3.66
500.131	3.63
500.329	3.78
500.527	3.78
500.725	3.86
500.922	3.88
501.12	3.86
501.318	3.96
501.516	3.91
501.713	4.02
501.911	3.95
502.109	4
502.306	4.08
502.504	4
502.701	4.12
502.899	4.17
503.097	4.37
503.294	4.23
503.492	4.37
503.689	4.37
503.887	4.37
504.084	4.49
504.282	4.44
504.479	4.38
504.677	4.54
504.874	4.54
505.072	4.46
505.269	4.65
505.466	4.69
505.664	4.75
505.861	4.66
506.059	4.75
506.256	4.79
506.453	4.85
506.651	4.98
506.848	4.97
507.045	4.99
507.242	4.95
507.44	5.03
507.637	5.13
507.834	5.07
508.031	5.24
508.229	5.11
508.426	5.15
508.623	5.25
508.82	5.29
509.017	5.21
509.214	5.28
509.411	5.4
509.608	5.36
509.805	5.47
510.003	5.4
510.2	5.52
510.397	5.67
510.594	5.54
510.791	5.63
510.988	5.68
511.184	5.6
511.381	5.48
511.578	5.69
511.775	5.78
511.972	5.74
512.169	5.83
512.366	5.79
512.563	5.99
512.76	6
512.956	5.97
513.153	6
513.35	5.89
513.547	5.94
513.744	6.01
513.94	6
514.137	6.15
514.334	6.11
514.53	6.19
514.727	6.38
514.924	6.27
515.12	6.24
515.317	6.27
515.514	6.18
515.71	6.16
515.907	6.41
516.103	6.46
516.3	6.35
516.497	6.47
516.693	6.5
516.89	6.49
517.086	6.5
517.283	6.55
517.479	6.4
517.676	6.64
517.872	6.65
518.068	6.62
518.265	6.61
518.461	6.61
518.658	6.74
518.854	6.71
519.05	6.78
519.247	6.82
519.443	6.73
519.639	6.91
519.836	6.79
520.032	6.75
520.228	6.93
520.424	6.84
520.621	6.93
520.817	6.95
521.013	6.91
521.209	7.12
521.405	7.09
521.601	6.99
521.798	7.06
521.994	7.04
522.19	7
522.386	6.99
522.582	7.14
522.778	7.21
522.974	7.06
523.17	7.13
523.366	7.11
523.562	7.18
523.758	7.22
523.954	7.01
524.15	7.21
524.346	7.24
524.542	7.17
524.738	7.22
524.934	7.32
525.129	7.26
525.325	7.18
525.521	7.24
525.717	7.47
525.913	7.36
526.109	7.38
526.304	7.41
526.5	7.44
526.696	7.44
526.892	7.39
527.087	7.62
527.283	7.49
527.479	7.49
527.674	7.34
527.87	7.5
528.066	7.51
528.261	7.56
528.457	7.48
528.653	7.6
528.848	7.6
529.044	7.65
529.239	7.49
529.435	7.54
529.63	7.51
529.826	7.57
530.021	7.61
530.217	7.68
530.412	7.56
530.608	7.59
530.803	7.58
530.999	7.5
531.194	7.67
531.389	7.67
531.585	7.7
531.78	7.74
531.975	7.65
532.171	7.82
532.366	7.72
532.561	7.74
532.757	7.71
532.952	7.92
533.147	7.59
533.342	7.8
533.538	7.7
533.733	7.92
533.928	7.57
534.123	7.8
534.318	7.82
534.513	7.83
534.709	7.95
534.904	7.87
535.099	7.9
535.294	7.93
535.489	7.97
535.684	7.83
535.879	7.86
536.074	7.9
536.269	7.89
536.464	7.86
536.659	7.93
536.854	7.89
537.049	7.98
537.244	7.88
537.439	7.94
537.634	7.9
537.828	7.94
538.023	7.89
538.218	7.92
538.413	7.81
538.608	7.91
538.803	7.89
538.997	7.82
539.192	7.94
539.387	7.95
539.582	7.95
539.776	7.84
539.971	7.95
540.166	8.07
540.36	7.88
540.555	8.04
540.75	8
540.944	8.04
541.139	8.01
541.334	7.98
541.528	7.98
541.723	8.06
541.917	8.1
542.112	7.9
542.306	7.85
542.501	7.93
542.695	7.97
542.89	7.95
543.084	8
543.279	8.04
543.473	8.07
543.668	8.11
543.862	7.92
544.056	7.91
544.251	8.07
544.445	8.16
544.64	8.14
544.834	7.82
545.028	7.76
545.222	8.02
545.417	8.23
545.611	8.15
545.805	8.04
546	7.88
546.194	8.08
546.388	8.06
546.582	7.99
546.776	8.04
546.97	8.03
547.165	8.09
547.359	8.07
547.553	8.01
547.747	8.02
547.941	8.26
548.135	8.04
548.329	8.12
548.523	8.1
548.717	8.03
548.911	8.01
549.105	8.04
549.299	8.1
549.493	8.09
549.687	8
549.881	8.16
550.075	8.15
550.269	7.98
550.463	8.16
550.657	8.11
550.85	8.06
551.044	8.07
551.238	8.15
551.432	8.05
551.626	8.13
551.82	8.18
552.013	8.01
552.207	8.12
552.401	8.18
552.594	8.08
552.788	8.04
552.982	8.07
553.176	8.03
553.369	8.28
553.563	8.14
553.756	8.13
553.95	8.14
554.144	8.14
554.337	8.11
554.531	7.97
554.724	8.1
554.918	8.18
555.111	8.08
555.305	8.14
555.498	8.07
555.692	8.21
555.885	8.18
556.079	8.04
556.272	8.11
556.466	8.07
556.659	8.11
556.852	8.12
557.046	8.04
557.239	7.96
557.432	8.07
557.626	8.13
557.819	8.14
558.012	8.16
558.206	8.17
558.399	8.18
558.592	8.08
558.785	8.14
558.979	8.09
559.172	8.07
559.365	8.08
559.558	8.04
559.751	8.05
559.944	8.21
560.138	8.11
560.331	8.08
560.524	8.14
560.717	8.12
560.91	8.04
561.103	8.15
561.296	7.96
561.489	8.21
561.682	8.25
561.875	8.1
562.068	8.2
562.261	8.04
562.454	8.19
562.647	8.09
562.84	8.11
563.032	8.2
563.225	8.11
563.418	8.04
563.611	8.14
563.804	8.16
563.997	7.97
564.19	7.88
564.382	8.21
564.575	8.11
564.768	8.09
564.961	8.19
565.153	8.06
565.346	7.97
565.539	8.18
565.731	8.06
565.924	8.17
566.117	8.26
566.309	8.14
566.502	8.04
566.695	7.97
566.887	8.15
567.08	8.12
567.272	8.12
567.465	8
567.657	8.12
567.85	8.02
568.042	8.08
568.235	8.1
568.427	7.97
568.62	8.1
568.812	7.98
569.005	8.16
569.197	7.97
569.389	8.01
569.582	8.05
569.774	8.12
569.966	7.95
570.159	7.95
570.351	7.93
570.543	7.98
570.736	8.04
570.928	7.93
571.12	8.08
571.312	7.99
571.505	7.75
571.697	8
571.889	8.04
572.081	7.98
572.273	7.92
572.465	7.99
572.658	7.99
572.85	7.98
573.042	7.95
573.234	7.92
573.426	7.93
573.618	7.94
573.81	8.02
574.002	7.9
574.194	8.05
574.386	7.94
574.578	7.84
574.77	7.95
574.962	7.98
575.154	7.8
575.346	7.83
575.538	7.88
575.729	7.83
575.921	7.96
576.113	7.97
576.305	7.85
576.497	7.98
576.689	7.84
576.88	7.79
577.072	7.98
577.264	7.91
577.456	7.88
577.647	7.79
577.839	7.97
578.031	7.86
578.223	7.79
578.414	7.7
578.606	7.81
578.798	7.87
578.989	7.86
579.181	7.92
579.372	7.84
579.564	7.91
579.755	7.75
579.947	7.73
580.139	7.84
580.33	7.67
580.522	7.78
580.713	7.74
580.905	7.79
581.096	7.79
581.287	7.71
581.479	7.7
581.67	7.8
581.862	7.69
582.053	7.72
582.244	7.61
582.436	7.82
582.627	7.67
582.818	7.64
583.01	7.64
583.201	7.67
583.392	7.59
583.583	7.6
583.775	7.48
583.966	7.51
584.157	7.63
584.348	7.71
584.54	7.59
584.731	7.62
584.922	7.51
585.113	7.46
585.304	7.49
585.495	7.56
585.686	7.63
585.877	7.61
586.068	7.68
586.259	7.57
586.45	7.55
586.641	7.48
586.832	7.55
587.023	7.54
587.214	7.44
587.405	7.56
587.596	7.34
587.787	7.38
587.978	7.43
588.169	7.44
588.36	7.33
588.551	7.4
588.742	7.4
588.932	7.52
589.123	7.24
589.314	7.44
589.505	7.3
589.696	7.34
589.886	7.34
590.077	7.36
590.268	7.26
590.458	7.21
590.649	7.13
590.84	7.27
591.03	7.31
591.221	7.19
591.412	7.14
591.602	7.38
591.793	7.27
591.984	7.33
592.174	7.19
592.365	7.38
592.555	7.08
592.746	7.1
592.936	7.11
593.127	7.19
593.317	7.21
593.508	7.08
593.698	7.07
593.889	7.13
594.079	7.02
594.269	7
594.46	7.04
594.65	7.09
594.84	7.07
595.031	6.93
595.221	7.01
595.411	6.98
595.602	7.09
595.792	7
595.982	6.9
596.172	7.13
596.363	6.87
596.553	6.89
596.743	6.99
596.933	6.92
597.123	6.86
597.314	6.77
597.504	6.8
597.694	6.85
597.884	6.81
598.074	6.89
598.264	6.82
598.454	6.78
598.644	6.73
598.834	6.68
599.024	6.62
599.214	6.74
599.404	6.75
599.594	6.7
599.784	6.64
599.974	6.76
600.164	6.74
600.354	6.65
600.544	6.53
600.734	6.65
600.924	6.61
601.114	6.55
601.303	6.58
601.493	6.54
601.683	6.52
601.873	6.52
602.063	6.46
602.252	6.52
602.442	6.38
602.632	6.38
602.821	6.38
603.011	6.54
603.201	6.44
603.39	6.39
603.58	6.25
603.77	6.4
603.959	6.42
604.149	6.37
604.339	6.35
604.528	6.4
604.718	6.35
604.907	6.26
605.097	6.25
605.286	6.25
605.476	6.26
605.665	6.25
605.855	6.2
606.044	6.3
606.234	6.3
606.423	6.22
606.612	6.15
606.802	6.11
606.991	6.14
607.181	6.2
607.37	6.14
607.559	5.95
607.749	6.13
607.938	6
608.127	6.06
608.316	6
608.506	6.03
608.695	6.04
608.884	6.03
609.073	6
609.263	6.07
609.452	6.05
609.641	5.92
609.83	5.81
610.019	5.96
610.208	5.82
610.397	5.91
610.586	5.88
610.775	5.83
610.965	5.77
611.154	5.7
611.343	5.81
611.532	5.78
611.721	5.84
611.91	5.69
612.099	5.67
612.287	5.65
612.476	5.56
612.665	5.75
612.854	5.66
613.043	5.65
613.232	5.63
613.421	5.53
613.61	5.55
613.798	5.6
613.987	5.61
614.176	5.5
614.365	5.56
614.554	5.48
614.742	5.57
614.931	5.37
615.12	5.57
615.309	5.47
615.497	5.36
615.686	5.31
615.875	5.41
616.063	5.29
616.252	5.32
616.44	5.39
616.629	5.32
616.818	5.32
617.006	5.19
617.195	5.26
617.383	5.31
617.572	5.12
617.76	5.18
617.949	5.17
618.137	5.26
618.326	5.25
618.514	5.07
618.703	4.99
618.891	5.19
619.079	5.02
619.268	5.16
619.456	5.05
619.644	5.14
619.833	5.05
620.021	4.98
620.209	4.9
620.398	5.06
620.586	4.92
620.774	4.99
620.962	4.9
621.151	5.06
621.339	4.84
621.527	4.8
621.715	4.85
621.903	4.88
622.092	4.83
622.28	4.86
622.468	4.67
622.656	4.78
622.844	4.79
623.032	4.77
623.22	4.64
623.408	4.82
623.596	4.75
623.784	4.79
623.972	4.65
624.16	4.69
624.348	4.77
624.536	4.71
624.724	4.54
624.912	4.67
625.1	4.62
625.288	4.64
625.476	4.54
625.664	4.54
625.851	4.47
626.039	4.58
626.227	4.48
626.415	4.44
626.603	4.37
626.79	4.45
626.978	4.42
627.166	4.51
627.354	4.37
627.541	4.37
627.729	4.21
627.917	4.53
628.104	4.38
628.292	4.3
628.48	4.36
628.667	4.22
628.855	4.42
629.042	4.4
629.23	4.18
629.418	4.29
629.605	4.24
629.793	4.17
629.98	4.17
630.168	4.16
630.355	4.2
630.543	4.14
630.73	4.09
630.917	4.12
631.105	4.24
631.292	4.15
631.48	4.07
631.667	4.2
631.854	4.01
632.042	3.99
632.229	3.93
632.416	4.04
632.604	3.98
632.791	3.86
632.978	3.99
633.165	3.93
633.353	4.03
633.54	3.97
633.727	3.81
633.914	3.86
634.101	3.81
634.289	3.88
634.476	3.76
634.663	3.77
634.85	3.85
635.037	3.73
635.224	3.71
635.411	3.79
635.598	3.69
635.785	3.65
635.972	3.68
636.159	3.72
636.346	3.64
636.533	3.67
636.72	3.61
636.907	3.65
637.094	3.64
637.281	3.53
637.468	3.58
637.655	3.6
637.842	3.6
638.029	3.5
638.215	3.53
638.402	3.53
638.589	3.44
638.776	3.49
638.963	3.41
639.149	3.54
639.336	3.57
639.523	3.5
639.709	3.47
639.896	3.37
640.083	3.41
640.27	3.42
640.456	3.35
640.643	3.42
640.829	3.28
641.016	3.32
641.203	3.2
641.389	3.31
641.576	3.34
641.762	3.26
641.949	3.2
642.135	3.26
642.322	3.24
642.508	3.1
642.695	3.23
642.881	3.16
643.068	3.14
643.254	3.14
643.441	3.18
643.627	3.23
643.813	3.05
644	3.15
644.186	3.02
644.372	3.16
644.559	3.08
644.745	2.99
644.931	2.99
645.118	3.03
645.304	2.99
645.49	3.01
645.676	2.95
645.862	2.95
646.049	3.06
646.235	2.98
646.421	3.07
646.607	3.06
646.793	2.89
646.979	2.87
647.165	3
647.352	2.9
647.538	2.93
647.724	2.85
647.91	2.81
648.096	2.89
648.282	2.87
648.468	2.76
648.654	2.83
648.84	2.84
649.026	2.76
649.212	2.72
649.397	2.66
649.583	2.73
649.769	2.74
649.955	2.71
650.141	2.69
650.327	2.74
650.513	2.69
650.698	2.69
650.884	2.59
651.07	2.7
651.256	2.58
651.442	2.6
651.627	2.52
651.813	2.64
651.999	2.58
652.184	2.57
652.37	2.58
652.556	2.54
652.741	2.61
652.927	2.39
653.113	2.52
653.298	2.49
653.484	2.47
653.669	2.48
653.855	2.41
654.04	2.52
654.226	2.51
654.412	2.41
654.597	2.33
654.782	2.46
654.968	2.45
655.153	2.39
655.339	2.32
655.524	2.32
655.71	2.39
655.895	2.3
656.08	2.36
656.266	2.45
656.451	2.32
656.636	2.27
656.822	2.34
657.007	2.31
657.192	2.27
657.378	2.27
657.563	2.27
657.748	2.28
657.933	2.26
658.118	2.19
658.304	2.22
658.489	2.33
658.674	2.24
658.859	2.17
659.044	2.15
659.229	2.24
659.414	2.15
659.599	2.18
659.785	2.07
659.97	2.14
660.155	2.18
660.34	2.11
660.525	2.08
660.71	2.04
660.895	2.13
661.08	2.03
661.264	2.02
661.449	2.16
661.634	2.08
661.819	2.08
662.004	1.99
662.189	2
662.374	2
662.559	1.96
662.743	1.95
662.928	2.03
663.113	1.95
663.298	1.87
663.483	1.93
663.667	1.91
663.852	1.93
664.037	1.99
664.221	1.89
664.406	2.03
664.591	1.98
664.775	1.92
664.96	1.79
665.145	1.86
665.329	1.95
665.514	1.81
665.698	1.85
665.883	1.75
666.068	1.93
666.252	1.89
666.437	1.77
666.621	1.86
666.806	1.84
666.99	1.79
667.174	1.75
667.359	1.86
667.543	1.76
667.728	1.84
667.912	1.67
668.096	1.74
668.281	1.7
668.465	1.76
668.649	1.73
668.834	1.68
669.018	1.7
669.202	1.72
669.387	1.71
669.571	1.79
669.755	1.65
669.939	1.69
670.124	1.66
670.308	1.72
670.492	1.7
670.676	1.66
670.86	1.63
671.044	1.59
671.228	1.69
671.413	1.54
671.597	1.54
671.781	1.53
671.965	1.64
672.149	1.59
672.333	1.6
672.517	1.51
672.701	1.58
672.885	1.57
673.069	1.43
673.253	1.65
673.437	1.5
673.621	1.49
673.804	1.56
673.988	1.56
674.172	1.51
674.356	1.43
674.54	1.51
674.724	1.65
674.908	1.49
675.091	1.53
675.275	1.42
675.459	1.53
675.643	1.53
675.826	1.46
676.01	1.42
676.194	1.46
676.377	1.49
676.561	1.47
676.745	1.44
676.928	1.48
677.112	1.51
677.296	1.38
677.479	1.35
677.663	1.37
677.846	1.41
678.03	1.36
678.213	1.32
678.397	1.44
678.58	1.38
678.764	1.34
678.947	1.32
679.131	1.3
679.314	1.45
679.498	1.31
679.681	1.35
679.865	1.45
680.048	1.27
680.231	1.28
680.415	1.31
680.598	1.28
680.781	1.27
680.965	1.24
681.148	1.29
681.331	1.29
681.514	1.34
681.698	1.26
681.881	1.28
682.064	1.33
682.247	1.25
682.43	1.18
682.614	1.27
682.797	1.26
682.98	1.29
683.163	1.18
683.346	1.23
683.529	1.27
683.712	1.19
683.895	1.22
684.078	1.04
684.261	1.19
684.444	1.22
684.627	1.26
684.81	1.16
684.993	1.16
685.176	1.23
685.359	1.13
685.542	1.1
685.725	1.27
685.908	1.14
686.091	1.14
686.274	1.19
686.457	1.18
686.639	1.09
686.822	1.14
687.005	1.1
687.188	1.17
687.371	1.22
687.553	1.19
687.736	1.15
687.919	1.25
688.102	1.21
688.284	1.13
688.467	1.03
688.65	1.1
688.832	1.03
689.015	1.07
689.197	0.97
689.38	1.17
689.563	1.16
689.745	0.96
689.928	0.97
690.11	1
690.293	1.04
690.475	0.93
690.658	1.08
690.84	1.06
691.023	1.02
691.205	0.99
691.388	1
691.57	1.05
691.752	1.08
691.935	0.88
692.117	0.92
692.3	1.05
692.482	0.98
692.664	0.93
692.847	0.96
693.029	1.01
693.211	1.03
693.393	0.94
693.576	0.91
693.758	0.97
693.94	1
694.122	0.91
694.304	0.92
694.487	0.87
694.669	1.01
694.851	0.83
695.033	0.87
695.215	0.88
695.397	0.94
695.579	0.89
695.761	0.81
695.943	0.88
696.125	1.01
696.308	0.88
696.49	0.78
696.671	1.01
696.853	0.89
697.035	1.11
697.217	0.84
697.399	0.94
697.581	0.8
697.763	0.96
697.945	0.89
698.127	0.89
698.309	0.98
698.491	0.89
698.672	0.93
698.854	0.94
699.036	0.94
699.218	0.82
699.399	0.94
699.581	0.86
699.763	0.88
699.945	0.77
700.126	0.79
700.308	0.82
700.49	0.81
700.671	0.71
700.853	0.73
701.035	0.78
701.216	0.8
701.398	0.75
701.579	0.79
701.761	0.88
701.943	0.86
702.124	0.74
702.306	0.77
702.487	0.94
702.669	0.79
702.85	0.69
703.031	0.72
703.213	0.94
703.394	0.84
703.576	0.67
703.757	0.96
703.938	0.8
704.12	0.99
704.301	0.79
704.483	0.76
704.664	0.78
704.845	0.9
705.026	0.79
705.208	0.73
705.389	0.77
705.57	0.76
705.751	0.74
705.933	0.8
706.114	0.82
706.295	0.74
706.476	0.69
706.657	0.82
706.838	0.82
707.02	0.82
707.201	0.72
707.382	0.71
707.563	0.77
707.744	0.64
707.925	0.65
708.106	0.66
708.287	0.68
708.468	0.85
708.649	0.73
708.83	0.77
709.011	0.67
709.192	0.83
709.373	0.59
709.554	0.64
709.734	0.84
709.915	0.79
710.096	0.63
710.277	0.58
710.458	0.58
710.639	0.73
710.819	0.58
711	0.62
711.181	0.75
711.362	0.76
711.542	0.74
711.723	0.59
711.904	0.79
712.085	0.76
712.265	0.61
712.446	0.59
712.627	0.63
712.807	0.63
712.988	0.6
713.168	0.52
713.349	0.72
713.53	0.46
713.71	0.56
713.891	0.53
714.071	0.63
714.252	0.59
714.432	0.58
714.613	0.51
714.793	0.64
714.974	0.68
715.154	0.73
715.334	0.67
715.515	0.79
715.695	0.56
715.876	0.61
716.056	0.57
716.236	0.58
716.417	0.61
716.597	0.54
716.777	0.83
716.957	0.61
717.138	0.64
717.318	0.53
717.498	0.44
717.678	0.62
717.859	0.58
718.039	0.51
718.219	0.5
718.399	0.6
718.579	0.54
718.759	0.52
718.939	0.65
719.12	0.69
719.3	0.66
719.48	0.35
719.66	0.44
719.84	0.63
720.02	0.62
720.2	0.46
720.38	0.58
720.56	0.7
720.74	0.46
720.92	0.52
721.1	0.73
721.279	0.67
721.459	0.49
721.639	0.5
721.819	0.51
721.999	0.51
722.179	0.59
722.359	0.47
722.538	0.5
722.718	0.55
722.898	0.58
723.078	0.57
723.257	0.48
723.437	0.6
723.617	0.6
723.797	0.51
723.976	0.5
724.156	0.65
724.336	0.58
724.515	0.69
724.695	0.4
724.874	0.52
725.054	0.65
725.234	0.52
725.413	0.55
725.593	0.51
725.772	0.5
725.952	0.45
726.131	0.52
726.311	0.45
726.49	0.54
726.67	0.37
726.849	0.44
727.028	0.5
727.208	0.5
727.387	0.58
727.567	0.34
727.746	0.54
727.925	0.46
728.105	0.35
728.284	0.52
728.463	0.47
728.643	0.53
728.822	0.4
729.001	0.48
729.18	0.41
729.359	0.57
729.539	0.49
729.718	0.58
729.897	0.56
730.076	0.43
730.255	0.36
730.434	0.48
730.614	0.61
730.793	0.64
730.972	0.51
731.151	0.44
731.33	0.57
731.509	0.52
731.688	0.52
731.867	0.51
732.046	0.29
732.225	0.67
732.404	0.34
732.583	0.39
732.762	0.52
732.941	0.58
733.12	0.49
733.298	0.44
733.477	0.63
733.656	0.36
733.835	0.4
734.014	0.52
734.193	0.48
734.371	0.59
734.55	0.61
734.729	0.33
734.908	0.58
735.086	0.58
735.265	0.56
735.444	0.3
735.623	0.33
735.801	0.45
735.98	0.46
736.159	0.5
736.337	0.57
736.516	0.61
736.694	0.49
736.873	0.45
737.052	0.83
737.23	0.59
737.409	0.44
737.587	0.66
737.766	0.38
737.944	0.47
738.123	0.54
738.301	0.41
738.479	0.53
738.658	0.55
738.836	0.32
739.015	0.42
739.193	0.64
739.371	0.31
739.55	0.39
739.728	0.3
739.906	0.54
740.085	0.78
740.263	0.61
740.441	0.18
740.62	0.9
740.798	0.57
740.976	0.29
741.154	0.35
741.332	0.71
741.511	0.6
741.689	0.55
741.867	0.64
742.045	0.59
742.223	0.45
742.401	0.33
742.579	0.37
742.757	0.57
742.935	0.32
743.114	0.31
743.292	0.4
743.47	0.55
743.648	0.51
743.826	0.47
744.004	0.63
744.181	0.57
744.359	0.43
744.537	0.56
744.715	0.42
744.893	0.48
745.071	0.45
745.249	0.36
745.427	0.42
745.605	0.49
745.782	0.49
745.96	0.49
746.138	0.61
746.316	0.62
746.493	0.51
746.671	0.45
746.849	0.4
747.027	0.53
747.204	0.4
747.382	0.4
747.56	0.28
747.737	0.5
747.915	0.5
748.093	0.56
748.27	0.36
748.448	0.41
748.625	0.26
748.803	0.3
748.98	0.33
749.158	0.53
749.335	0.36
749.513	0.49
749.69	0.37
749.868	0.39
750.045	0.48
750.223	0.34
750.4	0.11
750.578	0.61
750.755	0.51
750.932	0.33
751.11	0.51
751.287	0.27
751.464	0.59
751.642	0.29
751.819	0.5
751.996	0.52
752.173	0.35
752.351	0.31
752.528	0.36
752.705	0.3
752.882	0.27
753.06	0.29
753.237	0.57
753.414	0.67
753.591	0.61
753.768	0.39
753.945	0.34
754.122	0.34
754.299	0.6
754.476	0.29
754.654	0.38
754.831	0.44
755.008	0.46
755.185	0.33
755.362	0.27
755.539	0.41
755.716	0.34
755.892	0.35
756.069	0.37
756.246	0.47
756.423	0.43
756.6	0.57
756.777	0.28
756.954	0.47
757.131	0.34
757.307	0.27
757.484	0.25
757.661	0.53
757.838	0.47
758.015	0.31
758.191	0.44
758.368	0.39
758.545	0.64
758.721	0.5
758.898	0.25
759.075	0.46
759.251	0.51
759.428	0.49
759.605	0.27
759.781	0.38
759.958	0.53
760.134	0.43
760.311	0.26
760.488	0.57
760.664	0.59
760.841	0.33
761.017	0.18
761.194	0.52
761.37	0.55
761.547	0.43
761.723	0.34
761.899	0.61
762.076	0.25
762.252	0.24
762.429	0.33
762.605	0.45
762.781	0.34
762.958	0.44
763.134	0.32
763.31	0.25
763.486	0.47
763.663	0.11
763.839	0.44
764.015	0.24
764.191	0.28
764.368	0.4
764.544	0.26
764.72	0.36
764.896	0.45
765.072	0.47
765.248	0.37
765.425	0.34
765.601	0.4
765.777	0.35
765.953	0.15
766.129	0.31
766.305	0.29
766.481	0.45
766.657	0.26
766.833	0.59
767.009	0.27
767.185	0.38
767.361	0.35
767.537	0.36
767.713	0.56
767.889	0.4
768.065	0.35
768.24	0.56
768.416	0.45
768.592	0.3
768.768	0.37
768.944	0.49
769.12	0.25
769.295	0.35
769.471	0.45
769.647	0.25
769.823	0.6
769.998	0.23
770.174	0.17
770.35	0.72
770.525	0.77
770.701	0.55
770.877	0.23
771.052	0.39
771.228	0.57
771.403	0.41
771.579	0.4
771.755	0.73
771.93	0.4
772.106	0.16
772.281	0.04
772.457	0.38
772.632	0.58
772.808	0.17
772.983	0.43
773.159	0.22
773.334	0.73
773.509	0.5
773.685	0.2
773.86	0.76
774.036	0.58
774.211	0.47
774.386	0.44
774.562	0.32
774.737	0.81
774.912	0.13
775.087	0.29
775.263	0.37
775.438	0.53
775.613	0.16
775.788	0.36
775.964	0.68
776.139	0.94
776.314	0.15
776.489	0.45
776.664	0.38
776.839	0.16
777.014	0.51
777.19	0.46
777.365	0.65
777.54	0.71
777.715	0.49
777.89	0.42
778.065	0.19
778.24	0.44
778.415	0.56
778.59	0.26
778.765	0.38
778.94	0.65
779.115	0.4
779.289	0.37
779.464	0.37
779.639	0.39
779.814	0.12
779.989	0.26
780.164	0.59
780.339	0.5
780.513	0.37
780.688	0.24
780.863	0.4
781.038	0.63
781.212	0.15
781.387	0.28
781.562	0.82
781.737	0.26
781.911	0.68
782.086	0.23
782.261	0.47
782.435	0.77
782.61	0.26
782.784	0.24
782.959	0.76
783.134	0.41
783.308	0.08
783.483	0.41
783.657	0.89
783.832	0.74
784.006	0.17
784.181	0.41
784.355	0.52
784.53	0.23
784.704	0.29
784.878	0.68
785.053	0.55
785.227	0.49
785.402	0.7
785.576	0.18
785.75	0.51
785.925	0.44
786.099	0.62
786.273	0.52
786.448	0.6
786.622	0.83
786.796	0.45
786.97	0.39
787.145	1.15
787.319	0.18
787.493	0.34
787.667	-0
787.841	0.35
788.015	0.9
788.19	0.36
788.364	0.46
788.538	0.68
788.712	0.45
788.886	0.36
789.06	0.86
789.234	0.74
789.408	0.24
789.582	0.39
789.756	0.39
789.93	0.42
790.104	0.44
790.278	0.22
790.452	0.09
790.626	0.66
790.8	0.4
790.973	0.61
791.147	0.82
791.321	0.69
791.495	0.64
791.669	0.59
791.843	0.5
792.016	0.3
792.19	1.02
792.364	0.16
792.538	1.01
792.711	0.86
792.885	0.4
793.059	0.17
793.233	-0.18
793.406	0.94
793.58	0.59
793.754	0.66
793.927	0.4
794.101	1.02
794.274	0.63
794.448	0.68
794.622	0.16
794.795	1.04
794.969	0.43
795.142	0.85
795.316	0.38
795.489	0.49
795.663	0.96
795.836	0.48
796.009	0.09
796.183	0.84
796.356	0.56
796.53	0.7
796.703	0.31
796.876	1.32
797.05	0.38
797.223	0.5
797.396	0.71
797.57	0.66
797.743	1
797.916	0.52
798.09	0.5
798.263	0.93
798.436	0.96
798.609	0.33
798.782	0.48
798.956	0.54
799.129	0.74
799.302	0.37
799.475	0.31
799.648	0.26
799.821	0.5
799.994	0.31
800.167	-0.09
800.34	0.61
800.514	0.58
800.687	0.34
800.86	0.43
801.033	0.71
801.206	0.56
801.379	0.26
801.551	1.02
801.724	0.75
801.897	1.01
802.07	0.51
802.243	0.11
802.416	0.73
802.589	0.37
802.762	0.62
802.935	0.44
803.107	0.98
803.28	0.88
803.453	0.91
803.626	0.17
803.798	0.64
803.971	0.49
804.144	0.73
804.317	0.24
804.489	0.88
804.662	0.71
804.835	0.26
805.007	0.29
805.18	0.96
805.353	0.66
805.525	0.33
805.698	0.4
805.87	0.9
806.043	0.86
806.215	0.15
806.388	0.32
806.56	0.86
806.733	1.05
806.905	0.41
807.078	0.49
807.25	0.49
807.423	0.95
807.595	0.69
807.768	0.44
807.94	0.93
808.112	0.7
808.285	0.67
808.457	0.48
808.629	0.66
808.802	0.6
808.974	0.41
809.146	0.34
809.318	0.52
809.491	0.79
809.663	0.72
809.835	0.48
810.007	0.94
810.18	0.49
810.352	0.13
810.524	0.19
810.696	1.26
810.868	1.35
811.04	0.53
811.212	0.39
811.384	1.09
811.556	0.76
811.728	0.68
811.901	1.34
812.073	0.64
812.245	1.3
812.417	0.58
812.589	0.14
812.76	0.65
812.932	0.91
813.104	0.8
813.276	0.41
813.448	1.1
813.62	0.81
813.792	0.72
813.964	0.42
814.136	0.65
814.307	0.17
814.479	0.24
814.651	0.06
814.823	1.84
814.995	0.45
815.166	1.18
815.338	0.32
815.51	0.32
815.681	1.21
815.853	0.78
816.025	0.19
816.196	1.37
816.368	1.27
816.54	0.44
816.711	0.5
816.883	1.15
817.054	2.16
817.226	0.28
817.398	1.28
817.569	0.16
817.741	0.96
817.912	0.78
818.084	0.13
818.255	1.57
818.426	0.28
818.598	0.37
818.769	0.14
818.941	1.23
819.112	1.36
819.283	0.52
819.455	0.26
819.626	0.4
819.798	0.82
819.969	0.68
820.14	0.53
820.311	0.75
820.483	1.17
820.654	0.57
820.825	1.05
820.996	0.72
821.168	-0.33
821.339	0.75
821.51	-0.03
821.681	0.57
821.852	0.68
822.023	0.04
822.195	-0.35
822.366	1.2
822.537	0.88
822.708	1.07
822.879	0.27
823.05	1.17
823.221	0.12
823.392	0.87
823.563	0.77
823.734	1.38
823.905	0.66
824.076	0.4
824.247	0.48
824.418	0.28
824.589	1.71
824.759	0.61
824.93	0.34
825.101	0.21
825.272	1.57
825.443	1.03
825.614	0.81
825.784	-0.49
825.955	2.04
826.126	1.24
826.297	1.03
826.467	1.92
826.638	1.89
826.809	-0.04
826.98	0.76
827.15	1.29
827.321	1.37
827.492	1.41
827.662	0.45
827.833	2.4
828.003	1.61
828.174	0.39
828.345	0.35
828.515	2.11
828.686	0.73
828.856	0.87
829.027	0.73
829.197	1.68
829.368	1.26
829.538	0.38
829.709	0.39
829.879	0.89
830.049	0.82
830.22	0.67
830.39	0.68
830.56	1.89
830.731	0.76
830.901	-0.18
831.072	0.95
831.242	1.71
831.412	0.99
831.582	0.79
831.753	-0.29
831.923	1.18
832.093	1.21
832.263	0.78
832.434	0.14
832.604	0.02
832.774	1.07
832.944	0.91
833.114	0.53
833.284	1.81
833.454	0.14
833.624	0.56
833.795	0.56
833.965	1.65
834.135	2.46
834.305	-0.07
834.475	-0.1
834.645	0.8
834.815	0.63
834.985	0.26
835.155	-0.3
835.325	0.88
835.494	1.22
835.664	0.76
835.834	-0.1
836.004	1.71
836.174	1.87
836.344	0.95
836.514	-0.36
836.684	1.07
836.853	0.98
837.023	1.4
837.193	0.53
837.363	2.27
837.532	2.56
837.702	1.06
837.872	1.3
838.041	2.28
838.211	2.78
838.381	-0.09
838.55	0.81
838.72	4.25
838.89	2.63
839.059	0.46
839.229	0.3
839.398	2.7
839.568	1.06
839.738	0.96
839.907	2.03
840.077	1.23
840.246	0.35
840.416	-0.06
840.585	0.64
840.755	2.98
840.924	2.51
841.093	0.46
841.263	-0.11
841.432	0.94
841.602	0.44
841.771	0.87
841.94	1.38
842.11	3.45
842.279	3.23
842.448	-0.52
842.617	-0.28
842.787	2.54
842.956	0.02
843.125	0.7
843.294	1.48
843.464	2.67
843.633	1.78
843.802	0.03
843.971	1
844.14	1.36
844.309	2.23
844.479	0.24
844.648	-0.16
844.817	1.12
844.986	1.66
845.155	0.34
845.324	0.66
845.493	1.15
845.662	1.14
845.831	1.43
846	0.78
846.169	1.33
846.338	2.5
846.507	1.36
846.676	1.21
846.844	1.31
847.013	2.84
847.182	0.69
847.351	0.08
847.52	1.18
847.689	1.63
847.858	1.46
848.026	0.57
848.195	2.16
848.364	0.92
848.533	0.66
848.701	0.47
848.87	1.78
849.039	3.07
849.207	1.74
849.376	2.04
849.545	2.99
849.713	0.76
849.882	0.64
850.051	1.1
850.219	0.97
850.388	1.97
850.556	-0.23
850.725	1.07
850.893	2.74
851.062	0.6
851.23	2.38
851.399	0.38
851.567	1.97
851.736	1.46
851.904	0.16
852.073	1.42
852.241	2.43
852.41	1.05
852.578	0.65
852.746	-0.37
852.915	2.97
853.083	1.05
853.251	0.3
853.42	1.57
853.588	1.46
853.756	2.12
853.924	1.7
854.093	1.14
854.261	1.29
854.429	-0.53
854.597	0.85
854.765	0.25
854.934	1.95
855.102	2.78
855.27	0.25
855.438	3.12
855.606	3.11
855.774	3.64
855.942	-0.65
856.11	-0.14
856.278	2.23
856.446	1.96
856.614	0.85
856.782	-0.06
856.95	3.83
857.118	1.86
857.286	0.86
857.454	0.38
857.622	3.62
857.79	3.04
857.958	0.02
858.126	0.73
858.294	-1.03
858.462	2.37
858.629	0.46
858.797	0.14
858.965	2.4
859.133	2.13
859.301	1.65
859.468	2.13
859.636	1.27
859.804	4.22
859.971	2.55
860.139	0.12
860.307	2.38
860.474	0.99
860.642	1.37
860.81	-0.36
860.977	0.77
861.145	3.37
861.313	1.13
861.48	1.45
861.648	2.66
861.815	1.83
861.983	-0.16
862.15	1.33
862.318	4.03
862.485	3.92
862.653	-0.04
862.82	-0.01
862.988	3.43
863.155	2.86
863.322	0.87
863.49	0.23
863.657	2.02
863.824	4.98
863.992	3.01
864.159	1.99
864.326	4.67
864.494	1.6
864.661	3.91
864.828	1.1
864.996	4.28
865.163	3.61
865.33	0.47
865.497	-1.69
865.664	0.62
865.832	-0.46
865.999	1.33
866.166	-0.69
866.333	1.8
866.5	0.22
866.667	0.69
866.834	1.66
867.001	5.67
867.168	0.19
867.335	2.73
867.502	-1.14
867.669	1.53
867.836	5.54
868.003	1.21
868.17	3.6
868.337	1.06
868.504	5.88
868.671	-1.48
868.838	1.08
869.005	2.72
869.172	2.87
869.339	1.77
869.505	1.59
869.672	1.06
869.839	4.81
870.006	3.1
870.173	0.79
870.339	1.81
870.506	6.38
870.673	0.46
870.84	1.72
871.006	3.63
871.173	1.39
871.34	1.82
871.506	-0.64
871.673	3.01
871.839	0.93
872.006	2.93
872.173	1.69
872.339	2.44
872.506	4.04
872.672	0.58
872.839	-0.93
873.005	1.96
873.172	6.25
873.338	3.79
873.505	2.93
873.671	2.83
873.838	3.13
874.004	-0.56
874.171	1.49
874.337	3.96
874.503	3.78
874.67	1.26
874.836	3.35
875.002	4.72
875.169	3.6
875.335	2.2
875.501	0.16
875.668	3.82
875.834	3.72
876	2.08
876.166	3.84
876.332	4.38
876.499	4.58
876.665	2.39
876.831	0.95
876.997	5.95
877.163	3.77
877.329	0.09
877.495	2.56
877.662	2.42
877.828	2.8
877.994	1.51
878.16	-1.24
878.326	0.78
878.492	4.13
878.658	1.02
878.824	2.97
878.99	3.24
879.156	2.5
879.322	4.22
879.487	1.35
879.653	1.27
879.819	2.57
879.985	0.56
880.151	1.25
880.317	2.86
880.483	3.18
880.648	3.87
880.814	-0.8
880.98	3.92
881.146	-0.54
881.312	0.43
881.477	0.9
881.643	5.11
881.809	3.45
881.974	4.76
882.14	-0.81
882.306	2.03
882.471	5.91
882.637	-0.36
882.803	1.93
882.968	5.68
883.134	6.84
883.299	0.97
883.465	2.5
883.63	4.36
883.796	3.75
883.961	2.58
884.127	2.75
884.292	-4.05
884.458	-0.44
884.623	-0.44
