Data from Apollo_Calib_20240827__AbsoluteIrradiance__43__23-52-02-573.txt Node

Date: Tue Aug 27 23:52:02 BST 2024
User: biology
Spectrometer: FLMT08252
Trigger mode: 0
Integration Time (sec): 5.000000E-1
Scans to average: 5
Electric dark correction enabled: true
Nonlinearity correction enabled: false
Boxcar width: 0
XAxis mode: Wavelengths
Number of Pixels in Spectrum: 3648
>>>>>Begin Spectral Data<<<<<
179.588	-0
179.809	-0
180.03	-0
180.251	-0
180.473	-0
180.694	0
180.915	0
181.136	-0
181.357	0
181.578	-0
181.799	-0
182.02	-0
182.241	0
182.462	-0
182.683	0
182.904	-0
183.125	0
183.346	0
183.567	0
183.788	0
184.009	0
184.23	0
184.451	0
184.672	0
184.892	0
185.113	0
185.334	0
185.555	0
185.776	0
185.996	0
186.217	0
186.438	0
186.659	0
186.879	0
187.1	0
187.321	0
187.541	0
187.762	0
187.983	0
188.203	0
188.424	0
188.644	0
188.865	0
189.086	0
189.306	0
189.527	0
189.747	0
189.968	0
190.188	0
190.409	0
190.629	0
190.849	0
191.07	0
191.29	0
191.511	0
191.731	0
191.951	0
192.172	0
192.392	0
192.612	0
192.833	0
193.053	0
193.273	0
193.493	0
193.714	0
193.934	0
194.154	0
194.374	0
194.594	0
194.815	0
195.035	0
195.255	0
195.475	0
195.695	0
195.915	0
196.135	0
196.355	0
196.575	0
196.795	0
197.015	0
197.235	0
197.455	0
197.675	0
197.895	0
198.115	0
198.335	0
198.555	0
198.775	0
198.995	0
199.214	0
199.434	0
199.654	0
199.874	0
200.094	3.92
200.313	2.52
200.533	1.91
200.753	1.76
200.973	3.25
201.192	2.39
201.412	1.46
201.632	2.2
201.851	3.13
202.071	1.47
202.291	1.67
202.51	1.13
202.73	2.13
202.95	1.52
203.169	1.34
203.389	2.07
203.608	2.04
203.828	1.48
204.047	1.51
204.267	2.35
204.486	1.97
204.706	1.89
204.925	1.75
205.145	1.47
205.364	2.3
205.583	2.05
205.803	1.4
206.022	1.48
206.242	1.42
206.461	1.69
206.68	1.09
206.9	1.36
207.119	2.05
207.338	1.98
207.557	1.13
207.777	0.93
207.996	1.54
208.215	1.94
208.434	1.05
208.654	0.96
208.873	1.45
209.092	1.71
209.311	1.11
209.53	1.41
209.749	1.46
209.968	1.27
210.187	1.17
210.407	0.71
210.626	1.21
210.845	1.41
211.064	1.31
211.283	0.97
211.502	1.49
211.721	1.07
211.94	0.97
212.159	1.27
212.377	1.53
212.596	1.24
212.815	1.33
213.034	1.29
213.253	1.34
213.472	1.39
213.691	1.1
213.91	0.67
214.128	0.89
214.347	1.42
214.566	0.57
214.785	0.59
215.003	1.2
215.222	1.14
215.441	0.93
215.66	0.59
215.878	1.02
216.097	1.1
216.316	0.74
216.534	0.92
216.753	0.84
216.972	0.71
217.19	0.91
217.409	0.66
217.627	0.79
217.846	0.73
218.064	1.05
218.283	0.8
218.501	1.34
218.72	1.17
218.938	0.72
219.157	0.76
219.375	1.15
219.594	1.09
219.812	0.54
220.031	0.66
220.249	1.01
220.467	1.07
220.686	0.68
220.904	0.62
221.122	0.55
221.341	1.2
221.559	0.77
221.777	0.47
221.995	0.73
222.214	0.72
222.432	0.56
222.65	1.07
222.868	0.77
223.086	0.91
223.305	0.9
223.523	0.63
223.741	1.06
223.959	0.61
224.177	0.39
224.395	0.41
224.613	0.79
224.831	0.95
225.049	0.37
225.267	0.59
225.485	0.67
225.703	0.7
225.921	0.65
226.139	0.53
226.357	0.71
226.575	0.76
226.793	0.5
227.011	1.22
227.229	0.69
227.447	0.82
227.665	0.43
227.883	0.35
228.1	0.74
228.318	0.58
228.536	0.36
228.754	0.58
228.972	0.74
229.189	0.62
229.407	0.48
229.625	0.55
229.843	0.8
230.06	0.77
230.278	0.57
230.496	0.58
230.713	0.74
230.931	0.78
231.149	0.61
231.366	0.39
231.584	0.55
231.801	1.01
232.019	0.53
232.236	0.34
232.454	0.4
232.671	0.7
232.889	0.53
233.106	0.34
233.324	0.55
233.541	0.67
233.759	0.61
233.976	0.43
234.194	0.42
234.411	0.61
234.628	0.36
234.846	0.52
235.063	0.62
235.28	0.58
235.498	0.49
235.715	0.4
235.932	0.67
236.149	0.6
236.367	0.42
236.584	0.53
236.801	0.54
237.018	0.6
237.236	0.42
237.453	0.31
237.67	0.61
237.887	0.49
238.104	0.47
238.321	0.42
238.538	0.44
238.755	0.59
238.973	0.36
239.19	0.56
239.407	0.68
239.624	0.58
239.841	0.34
240.058	0.34
240.275	0.6
240.492	0.45
240.709	0.47
240.925	0.42
241.142	0.51
241.359	0.39
241.576	0.39
241.793	0.41
242.01	0.43
242.227	0.44
242.444	0.49
242.66	0.63
242.877	0.49
243.094	0.34
243.311	0.47
243.527	0.47
243.744	0.49
243.961	0.54
244.178	0.42
244.394	0.43
244.611	0.62
244.828	0.65
245.044	0.41
245.261	0.49
245.477	0.48
245.694	0.56
245.911	0.42
246.127	0.39
246.344	0.55
246.56	0.51
246.777	0.31
246.993	0.46
247.21	0.49
247.426	0.44
247.643	0.47
247.859	0.28
248.076	0.38
248.292	0.67
248.508	0.32
248.725	0.48
248.941	0.41
249.157	0.55
249.374	0.29
249.59	0.42
249.806	0.45
250.023	0.43
250.239	0.3
250.455	0.36
250.671	0.45
250.888	0.42
251.104	0.45
251.32	0.35
251.536	0.48
251.752	0.4
251.969	0.48
252.185	0.43
252.401	0.58
252.617	0.46
252.833	0.33
253.049	0.42
253.265	0.39
253.481	0.37
253.697	0.3
253.913	0.28
254.129	0.45
254.345	0.38
254.561	0.37
254.777	0.42
254.993	0.51
255.209	0.43
255.425	0.31
255.641	0.32
255.857	0.43
256.073	0.38
256.288	0.3
256.504	0.34
256.72	0.46
256.936	0.53
257.152	0.29
257.367	0.32
257.583	0.35
257.799	0.46
258.015	0.37
258.23	0.25
258.446	0.54
258.662	0.38
258.877	0.35
259.093	0.31
259.309	0.35
259.524	0.38
259.74	0.28
259.955	0.29
260.171	0.43
260.387	0.35
260.602	0.39
260.818	0.46
261.033	0.3
261.249	0.37
261.464	0.28
261.68	0.31
261.895	0.36
262.11	0.36
262.326	0.37
262.541	0.28
262.757	0.42
262.972	0.37
263.187	0.42
263.403	0.39
263.618	0.45
263.833	0.4
264.049	0.28
264.264	0.37
264.479	0.4
264.694	0.4
264.91	0.24
265.125	0.31
265.34	0.34
265.555	0.59
265.77	0.41
265.986	0.29
266.201	0.43
266.416	0.49
266.631	0.29
266.846	0.37
267.061	0.44
267.276	0.42
267.491	0.2
267.706	0.38
267.921	0.36
268.136	0.38
268.351	0.36
268.566	0.27
268.781	0.48
268.996	0.41
269.211	0.34
269.426	0.24
269.641	0.26
269.856	0.34
270.071	0.28
270.285	0.24
270.5	0.46
270.715	0.45
270.93	0.29
271.145	0.33
271.359	0.41
271.574	0.34
271.789	0.31
272.004	0.32
272.218	0.35
272.433	0.34
272.648	0.26
272.862	0.46
273.077	0.33
273.292	0.34
273.506	0.33
273.721	0.3
273.936	0.35
274.15	0.44
274.365	0.3
274.579	0.37
274.794	0.37
275.008	0.36
275.223	0.27
275.437	0.35
275.652	0.47
275.866	0.3
276.081	0.28
276.295	0.35
276.509	0.36
276.724	0.34
276.938	0.32
277.153	0.29
277.367	0.4
277.581	0.28
277.796	0.26
278.01	0.28
278.224	0.35
278.438	0.45
278.653	0.22
278.867	0.27
279.081	0.23
279.295	0.28
279.51	0.29
279.724	0.27
279.938	0.32
280.152	0.31
280.366	0.21
280.58	0.32
280.794	0.46
281.008	0.39
281.222	0.32
281.437	0.41
281.651	0.36
281.865	0.36
282.079	0.3
282.293	0.25
282.507	0.28
282.721	0.29
282.935	0.3
283.148	0.21
283.362	0.28
283.576	0.28
283.79	0.29
284.004	0.22
284.218	0.38
284.432	0.24
284.646	0.24
284.859	0.21
285.073	0.26
285.287	0.24
285.501	0.31
285.714	0.3
285.928	0.31
286.142	0.31
286.356	0.28
286.569	0.29
286.783	0.42
286.997	0.35
287.21	0.29
287.424	0.3
287.637	0.24
287.851	0.27
288.065	0.31
288.278	0.28
288.492	0.33
288.705	0.28
288.919	0.35
289.132	0.19
289.346	0.3
289.559	0.22
289.773	0.18
289.986	0.25
290.2	0.26
290.413	0.32
290.626	0.21
290.84	0.28
291.053	0.25
291.267	0.3
291.48	0.24
291.693	0.25
291.906	0.28
292.12	0.3
292.333	0.26
292.546	0.23
292.76	0.41
292.973	0.32
293.186	0.3
293.399	0.27
293.612	0.34
293.826	0.28
294.039	0.28
294.252	0.27
294.465	0.26
294.678	0.3
294.891	0.28
295.104	0.2
295.317	0.26
295.53	0.31
295.743	0.27
295.956	0.27
296.169	0.35
296.382	0.29
296.595	0.24
296.808	0.18
297.021	0.34
297.234	0.32
297.447	0.28
297.66	0.27
297.873	0.29
298.086	0.3
298.299	0.26
298.511	0.2
298.724	0.32
298.937	0.2
299.15	0.21
299.363	0.24
299.575	0.32
299.788	0.26
300.001	0.22
300.213	0.21
300.426	0.21
300.639	0.25
300.852	0.2
301.064	0.3
301.277	0.29
301.489	0.32
301.702	0.27
301.915	0.3
302.127	0.29
302.34	0.32
302.552	0.27
302.765	0.24
302.977	0.29
303.19	0.23
303.402	0.23
303.615	0.25
303.827	0.25
304.04	0.3
304.252	0.26
304.464	0.24
304.677	0.32
304.889	0.3
305.102	0.22
305.314	0.21
305.526	0.32
305.739	0.28
305.951	0.18
306.163	0.21
306.375	0.34
306.588	0.22
306.8	0.25
307.012	0.19
307.224	0.24
307.436	0.37
307.649	0.17
307.861	0.23
308.073	0.26
308.285	0.24
308.497	0.21
308.709	0.21
308.921	0.3
309.133	0.34
309.346	0.29
309.558	0.2
309.77	0.3
309.982	0.36
310.194	0.25
310.406	0.23
310.617	0.33
310.829	0.25
311.041	0.3
311.253	0.21
311.465	0.21
311.677	0.27
311.889	0.25
312.101	0.21
312.313	0.31
312.524	0.34
312.736	0.18
312.948	0.24
313.16	0.34
313.372	0.32
313.583	0.27
313.795	0.22
314.007	0.22
314.218	0.27
314.43	0.24
314.642	0.21
314.853	0.2
315.065	0.28
315.277	0.26
315.488	0.21
315.7	0.29
315.912	0.31
316.123	0.21
316.335	0.26
316.546	0.38
316.758	0.25
316.969	0.25
317.181	0.26
317.392	0.23
317.604	0.3
317.815	0.19
318.026	0.18
318.238	0.2
318.449	0.27
318.661	0.18
318.872	0.17
319.083	0.23
319.295	0.31
319.506	0.23
319.717	0.3
319.929	0.28
320.14	0.28
320.351	0.23
320.562	0.2
320.774	0.29
320.985	0.26
321.196	0.2
321.407	0.22
321.618	0.28
321.829	0.32
322.041	0.28
322.252	0.23
322.463	0.27
322.674	0.27
322.885	0.21
323.096	0.22
323.307	0.21
323.518	0.3
323.729	0.2
323.94	0.23
324.151	0.24
324.362	0.31
324.573	0.26
324.784	0.21
324.995	0.23
325.206	0.24
325.417	0.22
325.628	0.18
325.838	0.24
326.049	0.28
326.26	0.28
326.471	0.23
326.682	0.27
326.892	0.27
327.103	0.19
327.314	0.2
327.525	0.25
327.735	0.23
327.946	0.23
328.157	0.24
328.368	0.31
328.578	0.24
328.789	0.29
328.999	0.24
329.21	0.25
329.421	0.25
329.631	0.23
329.842	0.18
330.052	0.3
330.263	0.28
330.473	0.28
330.684	0.23
330.894	0.24
331.105	0.26
331.315	0.24
331.526	0.21
331.736	0.4
331.947	0.26
332.157	0.28
332.367	0.2
332.578	0.28
332.788	0.31
332.999	0.29
333.209	0.26
333.419	0.21
333.629	0.28
333.84	0.27
334.05	0.28
334.26	0.32
334.47	0.3
334.681	0.32
334.891	0.23
335.101	0.28
335.311	0.35
335.521	0.24
335.732	0.2
335.942	0.32
336.152	0.25
336.362	0.27
336.572	0.29
336.782	0.27
336.992	0.23
337.202	0.21
337.412	0.21
337.622	0.26
337.832	0.28
338.042	0.26
338.252	0.22
338.462	0.26
338.672	0.27
338.882	0.16
339.092	0.28
339.302	0.31
339.511	0.27
339.721	0.23
339.931	0.22
340.141	0.3
340.351	0.32
340.561	0.26
340.77	0.24
340.98	0.25
341.19	0.29
341.4	0.23
341.609	0.14
341.819	0.24
342.029	0.2
342.238	0.24
342.448	0.25
342.658	0.27
342.867	0.26
343.077	0.26
343.286	0.25
343.496	0.25
343.706	0.32
343.915	0.16
344.125	0.2
344.334	0.28
344.544	0.17
344.753	0.22
344.963	0.25
345.172	0.22
345.381	0.27
345.591	0.21
345.8	0.22
346.01	0.24
346.219	0.27
346.428	0.1
346.638	0.23
346.847	0.22
347.056	0.28
347.266	0.22
347.475	0.26
347.684	0.26
347.893	0.24
348.103	0.3
348.312	0.21
348.521	0.23
348.73	0.24
348.94	0.28
349.149	0.18
349.358	0.25
349.567	0.21
349.776	0.24
349.985	0.2
350.194	0.28
350.403	0.29
350.612	0.19
350.821	0.19
351.03	0.23
351.239	0.19
351.448	0.25
351.657	0.2
351.866	0.37
352.075	0.24
352.284	0.29
352.493	0.17
352.702	0.3
352.911	0.29
353.12	0.24
353.329	0.24
353.538	0.25
353.746	0.24
353.955	0.22
354.164	0.25
354.373	0.21
354.582	0.26
354.79	0.23
354.999	0.27
355.208	0.26
355.416	0.3
355.625	0.19
355.834	0.2
356.042	0.3
356.251	0.19
356.46	0.21
356.668	0.3
356.877	0.28
357.085	0.26
357.294	0.15
357.503	0.26
357.711	0.25
357.92	0.42
358.128	0.26
358.337	0.23
358.545	0.28
358.754	0.22
358.962	0.31
359.17	0.2
359.379	0.24
359.587	0.25
359.796	0.24
360.004	0.28
360.212	0.3
360.421	0.29
360.629	0.2
360.837	0.17
361.046	0.29
361.254	0.42
361.462	0.22
361.67	0.21
361.879	0.22
362.087	0.28
362.295	0.22
362.503	0.19
362.711	0.19
362.92	0.28
363.128	0.24
363.336	0.21
363.544	0.2
363.752	0.22
363.96	0.21
364.168	0.21
364.376	0.21
364.584	0.26
364.792	0.3
365	0.24
365.208	0.26
365.416	0.27
365.624	0.24
365.832	0.19
366.04	0.28
366.248	0.28
366.456	0.26
366.664	0.24
366.872	0.23
367.079	0.21
367.287	0.25
367.495	0.24
367.703	0.23
367.911	0.25
368.118	0.21
368.326	0.23
368.534	0.22
368.742	0.31
368.949	0.23
369.157	0.21
369.365	0.28
369.572	0.2
369.78	0.22
369.988	0.28
370.195	0.24
370.403	0.27
370.61	0.2
370.818	0.23
371.026	0.33
371.233	0.19
371.441	0.27
371.648	0.22
371.856	0.27
372.063	0.26
372.271	0.23
372.478	0.25
372.685	0.19
372.893	0.23
373.1	0.22
373.308	0.28
373.515	0.35
373.722	0.3
373.93	0.27
374.137	0.28
374.344	0.32
374.552	0.27
374.759	0.29
374.966	0.24
375.173	0.22
375.381	0.3
375.588	0.26
375.795	0.16
376.002	0.25
376.209	0.25
376.417	0.23
376.624	0.31
376.831	0.24
377.038	0.25
377.245	0.19
377.452	0.27
377.659	0.26
377.866	0.21
378.073	0.26
378.28	0.25
378.487	0.29
378.694	0.31
378.901	0.24
379.108	0.27
379.315	0.29
379.522	0.35
379.729	0.26
379.936	0.21
380.143	0.23
380.35	0.3
380.557	0.26
380.763	0.25
380.97	0.26
381.177	0.27
381.384	0.25
381.591	0.22
381.797	0.3
382.004	0.28
382.211	0.28
382.418	0.3
382.624	0.29
382.831	0.32
383.038	0.23
383.244	0.29
383.451	0.25
383.658	0.3
383.864	0.22
384.071	0.2
384.277	0.31
384.484	0.24
384.69	0.38
384.897	0.25
385.103	0.3
385.31	0.25
385.516	0.24
385.723	0.24
385.929	0.27
386.136	0.28
386.342	0.29
386.549	0.24
386.755	0.32
386.961	0.3
387.168	0.3
387.374	0.25
387.58	0.35
387.787	0.26
387.993	0.29
388.199	0.27
388.406	0.27
388.612	0.24
388.818	0.23
389.024	0.26
389.231	0.3
389.437	0.38
389.643	0.35
389.849	0.27
390.055	0.33
390.261	0.26
390.467	0.32
390.674	0.23
390.88	0.24
391.086	0.3
391.292	0.27
391.498	0.34
391.704	0.33
391.91	0.29
392.116	0.27
392.322	0.25
392.528	0.32
392.734	0.27
392.94	0.32
393.146	0.3
393.352	0.32
393.557	0.27
393.763	0.27
393.969	0.32
394.175	0.3
394.381	0.32
394.587	0.32
394.792	0.26
394.998	0.34
395.204	0.36
395.41	0.29
395.615	0.35
395.821	0.32
396.027	0.32
396.233	0.29
396.438	0.35
396.644	0.39
396.85	0.35
397.055	0.33
397.261	0.37
397.466	0.4
397.672	0.32
397.878	0.38
398.083	0.37
398.289	0.29
398.494	0.42
398.7	0.35
398.905	0.26
399.111	0.4
399.316	0.29
399.522	0.4
399.727	0.28
399.932	0.32
400.138	0.35
400.343	0.34
400.549	0.31
400.754	0.36
400.959	0.35
401.165	0.37
401.37	0.35
401.575	0.48
401.78	0.38
401.986	0.32
402.191	0.34
402.396	0.4
402.601	0.42
402.807	0.4
403.012	0.37
403.217	0.43
403.422	0.42
403.627	0.42
403.832	0.43
404.037	0.41
404.243	0.41
404.448	0.37
404.653	0.4
404.858	0.45
405.063	0.45
405.268	0.45
405.473	0.42
405.678	0.41
405.883	0.61
406.088	0.48
406.293	0.42
406.498	0.43
406.703	0.45
406.907	0.47
407.112	0.39
407.317	0.49
407.522	0.57
407.727	0.47
407.932	0.53
408.136	0.69
408.341	0.52
408.546	0.58
408.751	0.56
408.956	0.59
409.16	0.64
409.365	0.62
409.57	0.61
409.774	0.62
409.979	0.67
410.184	0.68
410.388	0.61
410.593	0.69
410.798	0.77
411.002	0.7
411.207	0.78
411.411	0.81
411.616	0.74
411.82	0.84
412.025	0.82
412.229	0.81
412.434	0.89
412.638	0.94
412.843	0.89
413.047	0.96
413.252	0.96
413.456	1.04
413.66	1.07
413.865	1.06
414.069	1.08
414.273	1.11
414.478	1.13
414.682	1.18
414.886	1.22
415.091	1.23
415.295	1.22
415.499	1.4
415.703	1.35
415.908	1.43
416.112	1.36
416.316	1.59
416.52	1.53
416.724	1.53
416.929	1.61
417.133	1.87
417.337	1.67
417.541	1.81
417.745	1.87
417.949	2.01
418.153	2
418.357	2.04
418.561	2.3
418.765	2.2
418.969	2.37
419.173	2.4
419.377	2.44
419.581	2.65
419.785	2.6
419.989	2.66
420.193	2.91
420.397	2.91
420.601	3.01
420.804	3.13
421.008	3.13
421.212	3.25
421.416	3.26
421.62	3.33
421.823	3.41
422.027	3.5
422.231	3.52
422.435	3.5
422.638	3.62
422.842	3.7
423.046	3.84
423.249	3.96
423.453	4.02
423.657	4.18
423.86	4.24
424.064	4.34
424.268	4.5
424.471	4.43
424.675	4.76
424.878	4.85
425.082	4.95
425.285	5.23
425.489	5.17
425.692	5.27
425.896	5.34
426.099	5.52
426.303	5.66
426.506	5.82
426.71	6.04
426.913	6.2
427.116	6.42
427.32	6.37
427.523	6.54
427.726	6.76
427.93	6.86
428.133	7.22
428.336	7.35
428.54	7.45
428.743	7.66
428.946	8
429.149	7.99
429.353	8.05
429.556	8.06
429.759	8.11
429.962	8.26
430.165	8.31
430.368	8.05
430.571	8.1
430.775	8.09
430.978	8.08
431.181	8.28
431.384	8.36
431.587	8.37
431.79	8.78
431.993	8.81
432.196	8.92
432.399	9.39
432.602	9.47
432.805	9.54
433.008	10.21
433.211	9.92
433.414	10.39
433.616	10.36
433.819	10.26
434.022	10.49
434.225	10.75
434.428	10.78
434.631	11.15
434.833	10.79
435.036	11.12
435.239	11.33
435.442	11.4
435.645	11.54
435.847	11.52
436.05	11.98
436.253	12.23
436.455	12.16
436.658	12.15
436.861	12.42
437.063	12.48
437.266	12.54
437.468	12.85
437.671	13.21
437.874	13.25
438.076	12.9
438.279	13.59
438.481	13.54
438.684	14.34
438.886	13.88
439.089	14.14
439.291	14.17
439.494	14.55
439.696	14.73
439.899	15.25
440.101	15.81
440.303	16
440.506	16.72
440.708	16.32
440.91	16.65
441.113	16.71
441.315	17.01
441.517	16.76
441.72	17.36
441.922	16.93
442.124	17.08
442.326	17.39
442.529	17.45
442.731	17.42
442.933	17.81
443.135	17.48
443.337	17.72
443.539	18.11
443.742	17.68
443.944	18.58
444.146	18.2
444.348	18.17
444.55	18.06
444.752	18.31
444.954	18.11
445.156	18.08
445.358	18.53
445.56	18.75
445.762	18.54
445.964	18.83
446.166	18.7
446.368	18.63
446.57	18.61
446.772	18.27
446.974	17.97
447.175	18.46
447.377	18.07
447.579	18.45
447.781	18.06
447.983	17.89
448.184	17.4
448.386	18.04
448.588	17.51
448.79	17.18
448.991	17.47
449.193	17.63
449.395	16.96
449.597	16.42
449.798	16.39
450	15.9
450.202	15.86
450.403	15.94
450.605	15.71
450.806	15.55
451.008	15.27
451.21	15.01
451.411	14.66
451.613	13.76
451.814	14.02
452.016	14.06
452.217	13.23
452.419	13.31
452.62	13
452.821	12.74
453.023	12.72
453.224	12.24
453.426	11.74
453.627	11.06
453.828	11.21
454.03	11.29
454.231	11.33
454.432	11.1
454.634	10.83
454.835	10.49
455.036	10.42
455.238	10.11
455.439	9.71
455.64	9.47
455.841	9.42
456.042	9.51
456.244	9.23
456.445	8.9
456.646	8.62
456.847	8.55
457.048	8.51
457.249	8.41
457.45	8.2
457.651	7.7
457.852	7.51
458.054	7.32
458.255	7.15
458.456	7.3
458.657	7.17
458.858	6.68
459.058	6.76
459.259	6.71
459.46	6.33
459.661	6.34
459.862	6.42
460.063	6.29
460.264	6.25
460.465	5.97
460.666	6.02
460.866	5.79
461.067	5.54
461.268	5.53
461.469	5.45
461.67	5.39
461.87	5.23
462.071	5.19
462.272	5.12
462.473	5.08
462.673	5.17
462.874	5.15
463.075	5.13
463.275	4.99
463.476	5.21
463.676	5.12
463.877	4.93
464.078	4.9
464.278	4.94
464.479	4.85
464.679	4.7
464.88	4.72
465.08	4.59
465.281	4.57
465.481	4.28
465.682	4.11
465.882	4.12
466.083	4.1
466.283	4.04
466.483	3.88
466.684	3.73
466.884	3.58
467.085	3.67
467.285	3.72
467.485	3.63
467.686	3.45
467.886	3.36
468.086	3.38
468.286	3.27
468.487	3.37
468.687	3.28
468.887	3.22
469.087	3.32
469.287	3.25
469.488	3.07
469.688	3.17
469.888	3.16
470.088	3.13
470.288	3.01
470.488	2.96
470.688	2.84
470.888	2.81
471.088	2.7
471.288	2.79
471.488	2.75
471.688	2.77
471.888	2.66
472.088	2.78
472.288	2.7
472.488	2.61
472.688	2.52
472.888	2.55
473.088	2.57
473.288	2.49
473.488	2.41
473.688	2.56
473.887	2.5
474.087	2.4
474.287	2.43
474.487	2.36
474.687	2.4
474.886	2.36
475.086	2.32
475.286	2.31
475.486	2.22
475.685	2.2
475.885	2.19
476.085	2.26
476.284	2.22
476.484	2.22
476.684	2.16
476.883	2.24
477.083	2.19
477.282	2.11
477.482	2.19
477.681	2.16
477.881	2.07
478.08	2.03
478.28	1.99
478.479	2.09
478.679	2.11
478.878	2.05
479.078	2.02
479.277	2.05
479.477	2.02
479.676	2.03
479.875	2
480.075	1.97
480.274	2.06
480.473	2.07
480.673	1.99
480.872	2.08
481.071	2.02
481.271	2.03
481.47	1.95
481.669	2.01
481.868	1.91
482.067	2.01
482.267	1.95
482.466	1.92
482.665	1.91
482.864	1.9
483.063	1.92
483.262	1.95
483.461	2.03
483.661	2.03
483.86	1.96
484.059	2.04
484.258	2.02
484.457	2.04
484.656	1.98
484.855	2.09
485.054	1.92
485.253	1.98
485.452	1.97
485.651	2.03
485.849	2.01
486.048	1.99
486.247	1.96
486.446	2.05
486.645	2.07
486.844	2.05
487.043	2.04
487.241	2.08
487.44	2.07
487.639	2.13
487.838	2.1
488.037	2.12
488.235	2.19
488.434	2.18
488.633	2.06
488.831	2.17
489.03	2.21
489.229	2.18
489.427	2.18
489.626	2.26
489.825	2.26
490.023	2.33
490.222	2.28
490.42	2.28
490.619	2.3
490.817	2.38
491.016	2.32
491.214	2.42
491.413	2.4
491.611	2.37
491.81	2.39
492.008	2.5
492.207	2.53
492.405	2.49
492.604	2.44
492.802	2.56
493	2.6
493.199	2.62
493.397	2.65
493.595	2.7
493.794	2.64
493.992	2.74
494.19	2.73
494.388	2.79
494.587	2.7
494.785	2.77
494.983	2.73
495.181	2.85
495.379	2.94
495.578	2.97
495.776	2.92
495.974	2.93
496.172	2.94
496.37	3.07
496.568	3.07
496.766	3.08
496.964	3.15
497.162	3.17
497.36	3.18
497.558	3.21
497.756	3.3
497.954	3.28
498.152	3.34
498.35	3.44
498.548	3.36
498.746	3.42
498.944	3.43
499.142	3.39
499.34	3.56
499.538	3.6
499.736	3.52
499.933	3.63
500.131	3.61
500.329	3.77
500.527	3.75
500.725	3.84
500.922	3.83
501.12	3.87
501.318	3.93
501.516	3.96
501.713	3.99
501.911	3.95
502.109	3.93
502.306	4.07
502.504	3.99
502.701	4.09
502.899	4.16
503.097	4.34
503.294	4.27
503.492	4.35
503.689	4.43
503.887	4.35
504.084	4.42
504.282	4.42
504.479	4.37
504.677	4.57
504.874	4.57
505.072	4.46
505.269	4.65
505.466	4.67
505.664	4.74
505.861	4.63
506.059	4.78
506.256	4.78
506.453	4.84
506.651	4.97
506.848	4.97
507.045	4.97
507.242	4.94
507.44	5.04
507.637	5.08
507.834	5.05
508.031	5.16
508.229	5.16
508.426	5.11
508.623	5.24
508.82	5.29
509.017	5.27
509.214	5.29
509.411	5.36
509.608	5.34
509.805	5.45
510.003	5.44
510.2	5.45
510.397	5.62
510.594	5.53
510.791	5.62
510.988	5.64
511.184	5.61
511.381	5.52
511.578	5.65
511.775	5.75
511.972	5.7
512.169	5.78
512.366	5.82
512.563	5.88
512.76	6.01
512.956	6.01
513.153	5.91
513.35	5.89
513.547	5.93
513.744	5.98
513.94	5.99
514.137	6.15
514.334	6.12
514.53	6.22
514.727	6.32
514.924	6.23
515.12	6.25
515.317	6.22
515.514	6.19
515.71	6.21
515.907	6.45
516.103	6.43
516.3	6.31
516.497	6.43
516.693	6.47
516.89	6.47
517.086	6.47
517.283	6.51
517.479	6.42
517.676	6.63
517.872	6.61
518.068	6.58
518.265	6.61
518.461	6.59
518.658	6.69
518.854	6.64
519.05	6.77
519.247	6.86
519.443	6.77
519.639	6.88
519.836	6.72
520.032	6.74
520.228	6.89
520.424	6.84
520.621	6.88
520.817	6.97
521.013	6.89
521.209	7.09
521.405	7.05
521.601	7.04
521.798	6.99
521.994	7.02
522.19	6.97
522.386	7.02
522.582	7.16
522.778	7.26
522.974	7.15
523.17	7.12
523.366	7.12
523.562	7.19
523.758	7.18
523.954	6.97
524.15	7.18
524.346	7.29
524.542	7.26
524.738	7.21
524.934	7.36
525.129	7.31
525.325	7.28
525.521	7.18
525.717	7.53
525.913	7.34
526.109	7.34
526.304	7.44
526.5	7.44
526.696	7.52
526.892	7.38
527.087	7.63
527.283	7.44
527.479	7.47
527.674	7.26
527.87	7.48
528.066	7.49
528.261	7.57
528.457	7.43
528.653	7.63
528.848	7.6
529.044	7.69
529.239	7.51
529.435	7.51
529.63	7.53
529.826	7.5
530.021	7.57
530.217	7.57
530.412	7.53
530.608	7.62
530.803	7.59
530.999	7.51
531.194	7.58
531.389	7.67
531.585	7.66
531.78	7.82
531.975	7.65
532.171	7.77
532.366	7.69
532.561	7.79
532.757	7.69
532.952	7.9
533.147	7.67
533.342	7.74
533.538	7.75
533.733	7.92
533.928	7.62
534.123	7.8
534.318	7.81
534.513	7.77
534.709	7.91
534.904	7.79
535.099	7.85
535.294	7.87
535.489	7.84
535.684	7.85
535.879	7.81
536.074	7.88
536.269	7.91
536.464	7.95
536.659	7.9
536.854	7.87
537.049	7.95
537.244	7.93
537.439	7.87
537.634	7.96
537.828	7.98
538.023	7.92
538.218	7.95
538.413	7.83
538.608	7.87
538.803	7.88
538.997	7.9
539.192	7.92
539.387	7.89
539.582	7.96
539.776	7.87
539.971	8.05
540.166	8.05
540.36	7.89
540.555	8.11
540.75	8.01
540.944	8.01
541.139	8
541.334	8.02
541.528	7.98
541.723	8.04
541.917	8.08
542.112	7.96
542.306	7.86
542.501	7.93
542.695	7.98
542.89	7.95
543.084	7.96
543.279	8.03
543.473	7.99
543.668	8.09
543.862	7.96
544.056	7.93
544.251	8.08
544.445	8.13
544.64	8.15
544.834	7.74
545.028	7.7
545.222	8.07
545.417	8.13
545.611	8.17
545.805	8.03
546	7.89
546.194	8.08
546.388	8.13
546.582	7.89
546.776	8.05
546.97	8.04
547.165	8.03
547.359	8.01
547.553	8.07
547.747	8.01
547.941	8.22
548.135	8.01
548.329	8.08
548.523	8.06
548.717	8.01
548.911	8.03
549.105	7.99
549.299	8.13
549.493	8.07
549.687	7.93
549.881	8.18
550.075	8.07
550.269	7.99
550.463	8.11
550.657	8.09
550.85	8.08
551.044	8.08
551.238	8.13
551.432	8.08
551.626	8.14
551.82	8.14
552.013	8.02
552.207	8.11
552.401	8.26
552.594	8.11
552.788	8.03
552.982	8.02
553.176	7.97
553.369	8.28
553.563	8.12
553.756	8.07
553.95	8.13
554.144	8.12
554.337	8.17
554.531	7.92
554.724	8.14
554.918	8.17
555.111	8.11
555.305	8.02
555.498	8.03
555.692	8.23
555.885	8.12
556.079	8.06
556.272	8.07
556.466	8.07
556.659	8.08
556.852	8.17
557.046	7.99
557.239	7.96
557.432	8.06
557.626	8.2
557.819	8.22
558.012	8.14
558.206	8.25
558.399	8.07
558.592	8.06
558.785	8.11
558.979	8.08
559.172	8.09
559.365	8.05
559.558	8.05
559.751	8
559.944	8.18
560.138	8.1
560.331	8.16
560.524	8.16
560.717	8.1
560.91	8.09
561.103	8.14
561.296	7.99
561.489	8.1
561.682	8.2
561.875	8.19
562.068	8.24
562.261	7.98
562.454	8.25
562.647	8
562.84	8.07
563.032	8.21
563.225	7.98
563.418	8.07
563.611	8.16
563.804	8.16
563.997	7.97
564.19	7.84
564.382	8.23
564.575	8.12
564.768	8.06
564.961	8.14
565.153	8.08
565.346	7.92
565.539	8.13
565.731	8.08
565.924	8.14
566.117	8.19
566.309	8.13
566.502	8.04
566.695	8.03
566.887	8.16
567.08	8.06
567.272	8.12
567.465	8.02
567.657	8.18
567.85	8.02
568.042	8.03
568.235	8.17
568.427	7.93
568.62	8.05
568.812	8.02
569.005	8.1
569.197	7.97
569.389	8.01
569.582	8.03
569.774	8.05
569.966	7.94
570.159	7.97
570.351	7.96
570.543	8.05
570.736	8.04
570.928	7.87
571.12	7.99
571.312	7.95
571.505	7.79
571.697	8.07
571.889	8.05
572.081	7.95
572.273	7.91
572.465	8.01
572.658	7.97
572.85	7.96
573.042	8.02
573.234	7.93
573.426	7.92
573.618	7.97
573.81	8
574.002	7.93
574.194	7.95
574.386	7.91
574.578	7.82
574.77	7.9
574.962	7.97
575.154	7.78
575.346	7.87
575.538	7.8
575.729	7.83
575.921	7.94
576.113	7.96
576.305	7.92
576.497	7.98
576.689	7.79
576.88	7.75
577.072	7.98
577.264	7.88
577.456	7.89
577.647	7.83
577.839	7.9
578.031	7.84
578.223	7.84
578.414	7.72
578.606	7.83
578.798	7.83
578.989	7.83
579.181	7.86
579.372	7.8
579.564	7.85
579.755	7.74
579.947	7.69
580.139	7.78
580.33	7.62
580.522	7.75
580.713	7.74
580.905	7.67
581.096	7.82
581.287	7.76
581.479	7.7
581.67	7.76
581.862	7.68
582.053	7.71
582.244	7.59
582.436	7.82
582.627	7.65
582.818	7.61
583.01	7.6
583.201	7.7
583.392	7.55
583.583	7.61
583.775	7.45
583.966	7.56
584.157	7.61
584.348	7.72
584.54	7.58
584.731	7.6
584.922	7.54
585.113	7.47
585.304	7.61
585.495	7.54
585.686	7.59
585.877	7.68
586.068	7.72
586.259	7.6
586.45	7.54
586.641	7.51
586.832	7.66
587.023	7.5
587.214	7.46
587.405	7.58
587.596	7.37
587.787	7.42
587.978	7.47
588.169	7.42
588.36	7.32
588.551	7.45
588.742	7.47
588.932	7.44
589.123	7.25
589.314	7.4
589.505	7.32
589.696	7.32
589.886	7.33
590.077	7.34
590.268	7.23
590.458	7.2
590.649	7.13
590.84	7.26
591.03	7.25
591.221	7.32
591.412	7.06
591.602	7.37
591.793	7.23
591.984	7.22
592.174	7.2
592.365	7.32
592.555	7.14
592.746	7.15
592.936	7.2
593.127	7.23
593.317	7.2
593.508	7.24
593.698	7.11
593.889	7.09
594.079	7.12
594.269	6.95
594.46	7.02
594.65	7.13
594.84	7.01
595.031	6.93
595.221	6.96
595.411	6.99
595.602	7
595.792	6.93
595.982	6.87
596.172	7.06
596.363	6.84
596.553	6.89
596.743	6.9
596.933	6.87
597.123	6.87
597.314	6.69
597.504	6.76
597.694	6.96
597.884	6.84
598.074	6.82
598.264	6.82
598.454	6.81
598.644	6.75
598.834	6.74
599.024	6.7
599.214	6.64
599.404	6.76
599.594	6.77
599.784	6.64
599.974	6.76
600.164	6.73
600.354	6.61
600.544	6.51
600.734	6.63
600.924	6.6
601.114	6.52
601.303	6.58
601.493	6.52
601.683	6.54
601.873	6.56
602.063	6.44
602.252	6.57
602.442	6.44
602.632	6.49
602.821	6.32
603.011	6.51
603.201	6.42
603.39	6.38
603.58	6.26
603.77	6.39
603.959	6.42
604.149	6.36
604.339	6.35
604.528	6.48
604.718	6.36
604.907	6.32
605.097	6.23
605.286	6.17
605.476	6.27
605.665	6.29
605.855	6.19
606.044	6.25
606.234	6.28
606.423	6.18
606.612	6.13
606.802	6.12
606.991	6.16
607.181	6.18
607.37	6.17
607.559	5.94
607.749	6.09
607.938	5.99
608.127	6.04
608.316	6.04
608.506	5.96
608.695	6.07
608.884	5.96
609.073	5.94
609.263	6.07
609.452	6.05
609.641	5.87
609.83	5.82
610.019	5.95
610.208	5.87
610.397	5.88
610.586	5.89
610.775	5.77
610.965	5.86
611.154	5.69
611.343	5.84
611.532	5.67
611.721	5.81
611.91	5.65
612.099	5.78
612.287	5.59
612.476	5.57
612.665	5.79
612.854	5.55
613.043	5.6
613.232	5.61
613.421	5.52
613.61	5.63
613.798	5.58
613.987	5.54
614.176	5.47
614.365	5.57
614.554	5.54
614.742	5.54
614.931	5.39
615.12	5.52
615.309	5.48
615.497	5.37
615.686	5.32
615.875	5.38
616.063	5.31
616.252	5.35
616.44	5.39
616.629	5.28
616.818	5.31
617.006	5.34
617.195	5.24
617.383	5.23
617.572	5.16
617.76	5.16
617.949	5.22
618.137	5.25
618.326	5.23
618.514	5.1
618.703	5.03
618.891	5.1
619.079	5.05
619.268	5.15
619.456	5.06
619.644	5.16
619.833	5.08
620.021	5.07
620.209	4.9
620.398	5.06
620.586	4.88
620.774	4.92
620.962	4.94
621.151	5.01
621.339	4.91
621.527	4.86
621.715	4.87
621.903	4.9
622.092	4.75
622.28	4.94
622.468	4.68
622.656	4.8
622.844	4.74
623.032	4.8
623.22	4.65
623.408	4.79
623.596	4.74
623.784	4.73
623.972	4.66
624.16	4.67
624.348	4.78
624.536	4.74
624.724	4.6
624.912	4.65
625.1	4.64
625.288	4.61
625.476	4.47
625.664	4.63
625.851	4.51
626.039	4.59
626.227	4.54
626.415	4.48
626.603	4.38
626.79	4.5
626.978	4.48
627.166	4.49
627.354	4.34
627.541	4.3
627.729	4.32
627.917	4.44
628.104	4.42
628.292	4.29
628.48	4.27
628.667	4.28
628.855	4.47
629.042	4.33
629.23	4.21
629.418	4.25
629.605	4.29
629.793	4.2
629.98	4.22
630.168	4.11
630.355	4.22
630.543	4.17
630.73	4.05
630.917	4.11
631.105	4.19
631.292	4.13
631.48	4.11
631.667	4.15
631.854	4
632.042	4.03
632.229	4
632.416	4.04
632.604	4
632.791	3.92
632.978	3.96
633.165	3.96
633.353	4.02
633.54	4
633.727	3.88
633.914	3.84
634.101	3.84
634.289	3.94
634.476	3.8
634.663	3.77
634.85	3.85
635.037	3.78
635.224	3.72
635.411	3.81
635.598	3.72
635.785	3.71
635.972	3.72
636.159	3.7
636.346	3.71
636.533	3.62
636.72	3.62
636.907	3.66
637.094	3.61
637.281	3.53
637.468	3.61
637.655	3.72
637.842	3.66
638.029	3.5
638.215	3.55
638.402	3.54
638.589	3.51
638.776	3.52
638.963	3.42
639.149	3.49
639.336	3.52
639.523	3.48
639.709	3.45
639.896	3.44
640.083	3.46
640.27	3.51
640.456	3.39
640.643	3.36
640.829	3.27
641.016	3.33
641.203	3.23
641.389	3.31
641.576	3.32
641.762	3.27
641.949	3.25
642.135	3.34
642.322	3.22
642.508	3.18
642.695	3.18
642.881	3.2
643.068	3.15
643.254	3.19
643.441	3.2
643.627	3.22
643.813	3.04
644	3.22
644.186	3.06
644.372	3.12
644.559	3.18
644.745	3.08
644.931	3.04
645.118	3.04
645.304	3.04
645.49	3.05
645.676	2.99
645.862	3
646.049	3.05
646.235	2.97
646.421	3.13
646.607	3.05
646.793	2.95
646.979	2.95
647.165	2.99
647.352	2.97
647.538	2.95
647.724	2.96
647.91	2.89
648.096	2.97
648.282	2.91
648.468	2.85
648.654	2.85
648.84	2.87
649.026	2.87
649.212	2.78
649.397	2.78
649.583	2.83
649.769	2.8
649.955	2.76
650.141	2.8
650.327	2.78
650.513	2.7
650.698	2.74
650.884	2.69
651.07	2.75
651.256	2.72
651.442	2.7
651.627	2.65
651.813	2.71
651.999	2.64
652.184	2.62
652.37	2.67
652.556	2.63
652.741	2.65
652.927	2.52
653.113	2.61
653.298	2.58
653.484	2.54
653.669	2.57
653.855	2.54
654.04	2.59
654.226	2.61
654.412	2.5
654.597	2.48
654.782	2.57
654.968	2.52
655.153	2.54
655.339	2.46
655.524	2.48
655.71	2.46
655.895	2.42
656.08	2.48
656.266	2.53
656.451	2.42
656.636	2.35
656.822	2.46
657.007	2.41
657.192	2.38
657.378	2.33
657.563	2.28
657.748	2.39
657.933	2.35
658.118	2.27
658.304	2.29
658.489	2.37
658.674	2.33
658.859	2.26
659.044	2.32
659.229	2.34
659.414	2.28
659.599	2.28
659.785	2.25
659.97	2.22
660.155	2.29
660.34	2.31
660.525	2.12
660.71	2.28
660.895	2.2
661.08	2.18
661.264	2.15
661.449	2.23
661.634	2.22
661.819	2.16
662.004	2.13
662.189	2.12
662.374	2.14
662.559	2.05
662.743	2.04
662.928	2.07
663.113	2.06
663.298	2.03
663.483	2.02
663.667	2.05
663.852	1.95
664.037	2.03
664.221	1.98
664.406	2.09
664.591	1.99
664.775	2.01
664.96	1.9
665.145	1.94
665.329	1.94
665.514	1.94
665.698	1.87
665.883	1.83
666.068	1.94
666.252	1.89
666.437	1.83
666.621	1.89
666.806	1.86
666.99	1.83
667.174	1.82
667.359	1.84
667.543	1.79
667.728	1.84
667.912	1.72
668.096	1.78
668.281	1.74
668.465	1.76
668.649	1.76
668.834	1.71
669.018	1.75
669.202	1.75
669.387	1.74
669.571	1.78
669.755	1.61
669.939	1.66
670.124	1.72
670.308	1.74
670.492	1.71
670.676	1.71
670.86	1.65
671.044	1.6
671.228	1.62
671.413	1.6
671.597	1.6
671.781	1.63
671.965	1.59
672.149	1.59
672.333	1.59
672.517	1.54
672.701	1.56
672.885	1.58
673.069	1.48
673.253	1.65
673.437	1.52
673.621	1.57
673.804	1.58
673.988	1.55
674.172	1.47
674.356	1.43
674.54	1.54
674.724	1.62
674.908	1.47
675.091	1.52
675.275	1.47
675.459	1.57
675.643	1.39
675.826	1.48
676.01	1.44
676.194	1.49
676.377	1.51
676.561	1.53
676.745	1.44
676.928	1.42
677.112	1.53
677.296	1.38
677.479	1.37
677.663	1.39
677.846	1.44
678.03	1.37
678.213	1.35
678.397	1.41
678.58	1.33
678.764	1.4
678.947	1.31
679.131	1.36
679.314	1.44
679.498	1.36
679.681	1.35
679.865	1.39
680.048	1.35
680.231	1.25
680.415	1.28
680.598	1.33
680.781	1.28
680.965	1.31
681.148	1.26
681.331	1.26
681.514	1.3
681.698	1.18
681.881	1.3
682.064	1.27
682.247	1.26
682.43	1.21
682.614	1.28
682.797	1.3
682.98	1.26
683.163	1.19
683.346	1.26
683.529	1.18
683.712	1.13
683.895	1.21
684.078	1.16
684.261	1.15
684.444	1.21
684.627	1.19
684.81	1.16
684.993	1.17
685.176	1.21
685.359	1.16
685.542	1.12
685.725	1.21
685.908	1.17
686.091	1.1
686.274	1.2
686.457	1.14
686.639	1.07
686.822	1.19
687.005	1.12
687.188	1.16
687.371	1.24
687.553	1.14
687.736	1.14
687.919	1.17
688.102	1.2
688.284	1.12
688.467	1.07
688.65	1.08
688.832	1.03
689.015	1.1
689.197	0.95
689.38	1.16
689.563	1.11
689.745	0.97
689.928	1.03
690.11	1.06
690.293	1.04
690.475	1
690.658	1.04
690.84	1
691.023	0.99
691.205	0.98
691.388	0.99
691.57	1.06
691.752	1.06
691.935	0.93
692.117	0.91
692.3	1.03
692.482	0.95
692.664	0.86
692.847	0.97
693.029	1.03
693.211	1.03
693.393	0.93
693.576	0.89
693.758	0.93
693.94	0.95
694.122	0.94
694.304	0.95
694.487	0.98
694.669	0.99
694.851	0.83
695.033	0.89
695.215	0.93
695.397	0.86
695.579	0.92
695.761	0.91
695.943	0.85
696.125	0.96
696.308	0.87
696.49	0.79
696.671	0.97
696.853	0.9
697.035	1.14
697.217	0.84
697.399	0.93
697.581	0.81
697.763	0.88
697.945	0.76
698.127	0.91
698.309	0.94
698.491	0.86
698.672	0.91
698.854	0.92
699.036	0.92
699.218	0.84
699.399	0.91
699.581	0.89
699.763	0.83
699.945	0.78
700.126	0.76
700.308	0.83
700.49	0.87
700.671	0.75
700.853	0.81
701.035	0.78
701.216	0.83
701.398	0.75
701.579	0.81
701.761	0.84
701.943	0.74
702.124	0.77
702.306	0.78
702.487	0.96
702.669	0.77
702.85	0.78
703.031	0.67
703.213	0.92
703.394	0.8
703.576	0.77
703.757	0.85
703.938	0.85
704.12	0.93
704.301	0.77
704.483	0.69
704.664	0.81
704.845	0.84
705.026	0.85
705.208	0.72
705.389	0.81
705.57	0.8
705.751	0.75
705.933	0.76
706.114	0.84
706.295	0.75
706.476	0.7
706.657	0.85
706.838	0.78
707.02	0.8
707.201	0.66
707.382	0.68
707.563	0.73
707.744	0.74
707.925	0.61
708.106	0.71
708.287	0.74
708.468	0.76
708.649	0.75
708.83	0.73
709.011	0.66
709.192	0.73
709.373	0.59
709.554	0.64
709.734	0.75
709.915	0.72
710.096	0.69
710.277	0.55
710.458	0.67
710.639	0.68
710.819	0.62
711	0.62
711.181	0.77
711.362	0.68
711.542	0.65
711.723	0.68
711.904	0.78
712.085	0.7
712.265	0.66
712.446	0.59
712.627	0.71
712.807	0.69
712.988	0.73
713.168	0.55
713.349	0.68
713.53	0.45
713.71	0.52
713.891	0.53
714.071	0.62
714.252	0.66
714.432	0.58
714.613	0.57
714.793	0.64
714.974	0.69
715.154	0.73
715.334	0.7
715.515	0.75
715.695	0.52
715.876	0.61
716.056	0.63
716.236	0.56
716.417	0.57
716.597	0.53
716.777	0.81
716.957	0.62
717.138	0.6
717.318	0.58
717.498	0.52
717.678	0.58
717.859	0.64
718.039	0.58
718.219	0.56
718.399	0.62
718.579	0.52
718.759	0.53
718.939	0.71
719.12	0.63
719.3	0.62
719.48	0.51
719.66	0.44
719.84	0.68
720.02	0.55
720.2	0.52
720.38	0.57
720.56	0.78
720.74	0.6
720.92	0.62
721.1	0.72
721.279	0.7
721.459	0.56
721.639	0.49
721.819	0.59
721.999	0.53
722.179	0.65
722.359	0.51
722.538	0.5
722.718	0.55
722.898	0.61
723.078	0.57
723.257	0.54
723.437	0.56
723.617	0.65
723.797	0.45
723.976	0.59
724.156	0.72
724.336	0.67
724.515	0.76
724.695	0.51
724.874	0.58
725.054	0.6
725.234	0.53
725.413	0.64
725.593	0.55
725.772	0.53
725.952	0.51
726.131	0.59
726.311	0.61
726.49	0.49
726.67	0.46
726.849	0.54
727.028	0.58
727.208	0.55
727.387	0.66
727.567	0.49
727.746	0.6
727.925	0.58
728.105	0.4
728.284	0.54
728.463	0.51
728.643	0.63
728.822	0.49
729.001	0.56
729.18	0.54
729.359	0.61
729.539	0.56
729.718	0.52
729.897	0.68
730.076	0.5
730.255	0.37
730.434	0.59
730.614	0.65
730.793	0.59
730.972	0.5
731.151	0.58
731.33	0.56
731.509	0.66
731.688	0.61
731.867	0.56
732.046	0.41
732.225	0.76
732.404	0.48
732.583	0.5
732.762	0.57
732.941	0.66
733.12	0.56
733.298	0.53
733.477	0.7
733.656	0.57
733.835	0.53
734.014	0.67
734.193	0.68
734.371	0.68
734.55	0.59
734.729	0.46
734.908	0.66
735.086	0.6
735.265	0.66
735.444	0.52
735.623	0.41
735.801	0.48
735.98	0.59
736.159	0.52
736.337	0.66
736.516	0.56
736.694	0.59
736.873	0.62
737.052	0.76
737.23	0.68
737.409	0.66
737.587	0.86
737.766	0.49
737.944	0.57
738.123	0.61
738.301	0.64
738.479	0.56
738.658	0.58
738.836	0.41
739.015	0.58
739.193	0.66
739.371	0.52
739.55	0.57
739.728	0.46
739.906	0.66
740.085	0.71
740.263	0.66
740.441	0.26
740.62	0.69
740.798	0.71
740.976	0.44
741.154	0.52
741.332	0.72
741.511	0.36
741.689	0.58
741.867	0.66
742.045	0.52
742.223	0.5
742.401	0.41
742.579	0.49
742.757	0.53
742.935	0.4
743.114	0.53
743.292	0.51
743.47	0.54
743.648	0.57
743.826	0.43
744.004	0.51
744.181	0.62
744.359	0.5
744.537	0.48
744.715	0.54
744.893	0.44
745.071	0.48
745.249	0.45
745.427	0.52
745.605	0.45
745.782	0.49
745.96	0.56
746.138	0.49
746.316	0.65
746.493	0.43
746.671	0.42
746.849	0.47
747.027	0.57
747.204	0.34
747.382	0.49
747.56	0.29
747.737	0.5
747.915	0.39
748.093	0.49
748.27	0.34
748.448	0.43
748.625	0.25
748.803	0.4
748.98	0.35
749.158	0.45
749.335	0.47
749.513	0.41
749.69	0.39
749.868	0.51
750.045	0.45
750.223	0.33
750.4	0.16
750.578	0.66
750.755	0.41
750.932	0.29
751.11	0.44
751.287	0.25
751.464	0.45
751.642	0.26
751.819	0.45
751.996	0.45
752.173	0.43
752.351	0.24
752.528	0.29
752.705	0.46
752.882	0.26
753.06	0.32
753.237	0.5
753.414	0.64
753.591	0.64
753.768	0.41
753.945	0.32
754.122	0.3
754.299	0.43
754.476	0.31
754.654	0.32
754.831	0.48
755.008	0.39
755.185	0.35
755.362	0.28
755.539	0.41
755.716	0.52
755.892	0.34
756.069	0.37
756.246	0.39
756.423	0.37
756.6	0.46
756.777	0.37
756.954	0.61
757.131	0.38
757.307	0.33
757.484	0.26
757.661	0.39
757.838	0.53
758.015	0.3
758.191	0.48
758.368	0.4
758.545	0.49
758.721	0.43
758.898	0.28
759.075	0.43
759.251	0.57
759.428	0.59
759.605	0.28
759.781	0.31
759.958	0.43
760.134	0.34
760.311	0.28
760.488	0.69
760.664	0.52
760.841	0.34
761.017	0.23
761.194	0.36
761.37	0.47
761.547	0.43
761.723	0.3
761.899	0.52
762.076	0.28
762.252	0.34
762.429	0.28
762.605	0.45
762.781	0.33
762.958	0.54
763.134	0.26
763.31	0.31
763.486	0.54
763.663	0.18
763.839	0.4
764.015	0.17
764.191	0.17
764.368	0.27
764.544	0.22
764.72	0.39
764.896	0.39
765.072	0.41
765.248	0.43
765.425	0.38
765.601	0.44
765.777	0.28
765.953	0.05
766.129	0.15
766.305	0.2
766.481	0.49
766.657	0.33
766.833	0.57
767.009	0.29
767.185	0.45
767.361	0.32
767.537	0.27
767.713	0.47
767.889	0.34
768.065	0.35
768.24	0.47
768.416	0.46
768.592	0.36
768.768	0.36
768.944	0.37
769.12	0.21
769.295	0.28
769.471	0.18
769.647	0.36
769.823	0.53
769.998	0.26
770.174	0.21
770.35	0.53
770.525	0.77
770.701	0.36
770.877	0.18
771.052	0.27
771.228	0.41
771.403	0.54
771.579	0.38
771.755	0.6
771.93	0.22
772.106	0.12
772.281	0.18
772.457	0.4
772.632	0.38
772.808	0.15
772.983	0.16
773.159	0.24
773.334	0.46
773.509	0.45
773.685	0.11
773.86	0.64
774.036	0.57
774.211	0.44
774.386	0.41
774.562	0.33
774.737	0.47
774.912	0.3
775.087	0.5
775.263	0.43
775.438	0.5
775.613	0.22
775.788	0.29
775.964	0.54
776.139	0.86
776.314	0.17
776.489	0.55
776.664	0.31
776.839	0.4
777.014	0.43
777.19	0.4
777.365	0.6
777.54	0.43
777.715	0.31
777.89	0.37
778.065	0.3
778.24	0.39
778.415	0.5
778.59	0.25
778.765	0.36
778.94	0.37
779.115	0.28
779.289	0.32
779.464	0.44
779.639	0.37
779.814	0.07
779.989	0.09
780.164	0.5
780.339	0.48
780.513	0.26
780.688	0.19
780.863	0.52
781.038	0.49
781.212	0.15
781.387	0.45
781.562	0.65
781.737	0.5
781.911	0.7
782.086	0.37
782.261	0.54
782.435	0.69
782.61	0.28
782.784	0.29
782.959	0.71
783.134	0.32
783.308	0.06
783.483	0.27
783.657	0.76
783.832	0.66
784.006	0.15
784.181	0.53
784.355	0.47
784.53	0.36
784.704	0.24
784.878	0.65
785.053	0.45
785.227	0.67
785.402	0.92
785.576	0.16
785.75	0.38
785.925	0.22
786.099	0.43
786.273	0.4
786.448	0.55
786.622	0.48
786.796	0.41
786.97	0.36
787.145	1
787.319	0.38
787.493	0.24
787.667	0.15
787.841	0.48
788.015	0.79
788.19	0.23
788.364	0.43
788.538	0.65
788.712	0.54
788.886	0.35
789.06	0.61
789.234	0.65
789.408	0.15
789.582	0.5
789.756	0.46
789.93	0.08
790.104	0.33
790.278	0.4
790.452	0.16
790.626	0.44
790.8	0.11
790.973	0.6
791.147	0.66
791.321	0.78
791.495	0.57
791.669	0.47
791.843	0.53
792.016	0.44
792.19	0.98
792.364	-0.01
792.538	0.94
792.711	0.81
792.885	0.26
793.059	0.08
793.233	0.2
793.406	0.79
793.58	0.41
793.754	0.52
793.927	0.34
794.101	0.62
794.274	0.64
794.448	0.68
794.622	0.15
794.795	0.94
794.969	0.24
795.142	0.62
795.316	0.46
795.489	0.41
795.663	0.85
795.836	0.38
796.009	0.12
796.183	0.78
796.356	0.71
796.53	0.48
796.703	0.4
796.876	0.98
797.05	0.46
797.223	0.37
797.396	0.43
797.57	0.55
797.743	0.84
797.916	0.54
798.09	0.47
798.263	0.41
798.436	0.58
798.609	0.26
798.782	0.32
798.956	0.67
799.129	0.54
799.302	0.35
799.475	0.34
799.648	0.36
799.821	0.54
799.994	0.53
800.167	-0.04
800.34	0.42
800.514	0.42
800.687	0.5
800.86	0.3
801.033	0.56
801.206	0.53
801.379	0.28
801.551	0.64
801.724	0.72
801.897	0.87
802.07	0.51
802.243	0.01
802.416	0.39
802.589	0.57
802.762	0.83
802.935	0.58
803.107	0.55
803.28	0.79
803.453	0.5
803.626	0.07
803.798	0.4
803.971	0.21
804.144	0.77
804.317	0.52
804.489	0.9
804.662	0.4
804.835	0.55
805.007	0.37
805.18	0.69
805.353	0.54
805.525	0.27
805.698	0.36
805.87	0.63
806.043	0.76
806.215	0.1
806.388	0.23
806.56	0.58
806.733	0.97
806.905	0.32
807.078	0.28
807.25	0.43
807.423	0.74
807.595	0.28
807.768	0.29
807.94	0.79
808.112	0.47
808.285	0.76
808.457	0.58
808.629	0.49
808.802	0.61
808.974	0.8
809.146	0.34
809.318	0.05
809.491	0.63
809.663	0.35
809.835	-0.04
810.007	1
810.18	0.43
810.352	0.46
810.524	0.43
810.696	0.5
810.868	0.66
811.04	0.29
811.212	0.39
811.384	0.72
811.556	0.57
811.728	0.34
811.901	1.3
812.073	0.57
812.245	0.72
812.417	0.33
812.589	0.09
812.76	0.57
812.932	0.62
813.104	0.9
813.276	0.28
813.448	0.93
813.62	0.53
813.792	0.49
813.964	0.61
814.136	1.06
814.307	0.49
814.479	0.04
814.651	0.15
814.823	1.42
814.995	0.7
815.166	0.76
815.338	0.26
815.51	0.02
815.681	1.32
815.853	0.65
816.025	0.65
816.196	1.1
816.368	0.61
816.54	0.01
816.711	0.19
816.883	0.85
817.054	1.42
817.226	-0
817.398	1.07
817.569	0.83
817.741	0.52
817.912	0.66
818.084	0.43
818.255	1
818.426	0.36
818.598	0.65
818.769	0.28
818.941	0.93
819.112	1.69
819.283	0.64
819.455	0.27
819.626	0.62
819.798	0.9
819.969	0.8
820.14	0.57
820.311	0.83
820.483	0.81
820.654	0.82
820.825	0.55
820.996	0.48
821.168	0.53
821.339	0.33
821.51	0.09
821.681	0.01
821.852	0.67
822.023	0.64
822.195	-0.05
822.366	0.95
822.537	0.63
822.708	0.32
822.879	0.36
823.05	1.7
823.221	0.49
823.392	0.87
823.563	0.35
823.734	0.43
823.905	0.89
824.076	0.53
824.247	0.06
824.418	0.52
824.589	1.45
824.759	0.41
824.93	0.77
825.101	0.55
825.272	1.98
825.443	1.32
825.614	1.62
825.784	0.3
825.955	1.6
826.126	1.5
826.297	0.99
826.467	1.45
826.638	1.95
826.809	0.34
826.98	0.81
827.15	0.96
827.321	0.36
827.492	1.52
827.662	0.61
827.833	1.98
828.003	1.11
828.174	0.13
828.345	0.3
828.515	1.33
828.686	0.74
828.856	0.15
829.027	0.83
829.197	1.01
829.368	1
829.538	0.14
829.709	1
829.879	1.21
830.049	0.99
830.22	0.65
830.39	0.9
830.56	1.02
830.731	0.51
830.901	0.17
831.072	0.48
831.242	0.85
831.412	1.39
831.582	1.01
831.753	-0.2
831.923	1.08
832.093	0.71
832.263	1.12
832.434	1.01
832.604	0.31
832.774	0.74
832.944	0.66
833.114	0.74
833.284	0.91
833.454	-0.06
833.624	1.07
833.795	0.65
833.965	1.57
834.135	0.93
834.305	-0.19
834.475	0.34
834.645	0.78
834.815	0.91
834.985	0.29
835.155	0.93
835.325	1.24
835.494	1.3
835.664	0.9
835.834	-0.35
836.004	0.51
836.174	1.28
836.344	0.37
836.514	-0.06
836.684	0.41
836.853	1.53
837.023	0.76
837.193	0.97
837.363	1.85
837.532	1.41
837.702	1.71
837.872	0.71
838.041	0.9
838.211	2.46
838.381	0.79
838.55	0.94
838.72	2.78
838.89	2.17
839.059	0.43
839.229	1.31
839.398	3.08
839.568	0.68
839.738	0.67
839.907	1.88
840.077	1.32
840.246	0.7
840.416	-0.09
840.585	0.19
840.755	1.46
840.924	2.35
841.093	0.39
841.263	0.46
841.432	1.56
841.602	0.97
841.771	0.99
841.94	0.88
842.11	1.9
842.279	2.62
842.448	0.09
842.617	0.47
842.787	2.15
842.956	-0.03
843.125	1.7
843.294	1.07
843.464	2.39
843.633	1.73
843.802	0.42
843.971	0.61
844.14	1.83
844.309	1.64
844.479	-0.03
844.648	0.5
844.817	0.88
844.986	0.87
845.155	0.37
845.324	1.26
845.493	0.76
845.662	1.58
845.831	1.35
846	1.05
846.169	1.05
846.338	2.09
846.507	1.31
846.676	0.61
846.844	0.9
847.013	0.94
847.182	1.09
847.351	1.22
847.52	1.58
847.689	1.3
847.858	1.4
848.026	0.2
848.195	1.06
848.364	0.12
848.533	1.58
848.701	0.41
848.87	1.04
849.039	1.6
849.207	1.38
849.376	1.76
849.545	2.49
849.713	0.33
849.882	0.56
850.051	0.52
850.219	1.03
850.388	1.68
850.556	-0.02
850.725	0.46
850.893	0.6
851.062	1.05
851.23	0.97
851.399	0.2
851.567	1.29
851.736	0.38
851.904	0.38
852.073	0.73
852.241	2.33
852.41	2.41
852.578	0.88
852.746	0.45
852.915	2.14
853.083	0.29
853.251	0.05
853.42	0.98
853.588	1.01
853.756	2.82
853.924	0.69
854.093	0.09
854.261	1.5
854.429	0.58
854.597	1.35
854.765	-0.01
854.934	2.34
855.102	2.82
855.27	1.04
855.438	1.91
855.606	2.19
855.774	3.4
855.942	0.03
856.11	-0.16
856.278	0.66
856.446	1.98
856.614	1.16
856.782	0.35
856.95	2.91
857.118	3
857.286	0.56
857.454	0.19
857.622	2.92
857.79	0.99
857.958	0.3
858.126	0.63
858.294	0.03
858.462	2.03
858.629	0.67
858.797	0.1
858.965	2.71
859.133	1.38
859.301	1.52
859.468	1.54
859.636	-0.5
859.804	2.44
859.971	1.8
860.139	1.04
860.307	2.47
860.474	1.65
860.642	0.79
860.81	1.04
860.977	1.85
861.145	1.92
861.313	1.45
861.48	0.97
861.648	1.45
861.815	0.61
861.983	-0.15
862.15	0.33
862.318	3.29
862.485	2.93
862.653	0.48
862.82	-0.76
862.988	3.42
863.155	1.55
863.322	1.35
863.49	0.01
863.657	0.96
863.824	3.97
863.992	2.9
864.159	1.98
864.326	3.91
864.494	0.85
864.661	4.96
864.828	-0.34
864.996	2.2
865.163	3.41
865.33	1.8
865.497	-0.44
865.664	0.7
865.832	0.05
865.999	0.9
866.166	-0.02
866.333	0.19
866.5	2.06
866.667	0.83
866.834	0.91
867.001	2.86
867.168	-0.77
867.335	1.1
867.502	-0.81
867.669	2.25
867.836	4.84
868.003	1.21
868.17	2.6
868.337	0.07
868.504	3.62
868.671	-0.31
868.838	1.35
869.005	2.97
869.172	2.39
869.339	2.99
869.505	-0.56
869.672	1.16
869.839	4.15
870.006	1.11
870.173	-0.26
870.339	1.87
870.506	3.59
870.673	1.29
870.84	2.25
871.006	0.72
871.173	1.17
871.34	2.6
871.506	-0.78
871.673	2.04
871.839	-0.51
872.006	2.51
872.173	-0.02
872.339	1.76
872.506	3.27
872.672	2.29
872.839	0.09
873.005	1.39
873.172	6.03
873.338	1.76
873.505	2.02
873.671	1.98
873.838	2.57
874.004	-0.47
874.171	-0.03
874.337	0.95
874.503	3.36
874.67	1.78
874.836	1.1
875.002	3.62
875.169	3.33
875.335	2.15
875.501	1.01
875.668	4.18
875.834	1.71
876	2.2
876.166	1.92
876.332	3.6
876.499	5.93
876.665	0.39
876.831	2.55
876.997	4.57
877.163	3.54
877.329	2.04
877.495	1.13
877.662	2.99
877.828	3.75
877.994	0.47
878.16	-0.21
878.326	0.53
878.492	2.47
878.658	0.55
878.824	1.55
878.99	3.3
879.156	1.22
879.322	2.64
879.487	2.55
879.653	2.72
879.819	2.67
879.985	-0.42
880.151	2.55
880.317	1.67
880.483	2.74
880.648	3.41
880.814	0.2
880.98	3.14
881.146	-0.38
881.312	-1.08
881.477	2.45
881.643	0.82
881.809	2.01
881.974	3.45
882.14	0.18
882.306	2.08
882.471	6.64
882.637	1.23
882.803	3.4
882.968	4.78
883.134	4.61
883.299	2.42
883.465	1
883.63	3.96
883.796	1.39
883.961	3.23
884.127	2.46
884.292	-2.87
884.458	-0.36
884.623	-0.36
