Data from Apollo_Calib_20240827__AbsoluteIrradiance__793__12-22-02-953.txt Node

Date: Wed Aug 28 12:22:02 BST 2024
User: biology
Spectrometer: FLMT08252
Trigger mode: 0
Integration Time (sec): 5.000000E-1
Scans to average: 5
Electric dark correction enabled: true
Nonlinearity correction enabled: false
Boxcar width: 0
XAxis mode: Wavelengths
Number of Pixels in Spectrum: 3648
>>>>>Begin Spectral Data<<<<<
179.588	-0
179.809	-0
180.03	-0
180.251	-0
180.473	-0
180.694	0
180.915	0
181.136	-0
181.357	0
181.578	-0
181.799	-0
182.02	-0
182.241	0
182.462	-0
182.683	0
182.904	-0
183.125	-0
183.346	0
183.567	0
183.788	0
184.009	0
184.23	0
184.451	0
184.672	0
184.892	0
185.113	0
185.334	0
185.555	0
185.776	0
185.996	0
186.217	0
186.438	0
186.659	0
186.879	0
187.1	0
187.321	0
187.541	0
187.762	0
187.983	0
188.203	0
188.424	0
188.644	0
188.865	0
189.086	0
189.306	0
189.527	0
189.747	0
189.968	0
190.188	0
190.409	0
190.629	0
190.849	0
191.07	0
191.29	0
191.511	0
191.731	0
191.951	0
192.172	0
192.392	0
192.612	0
192.833	0
193.053	0
193.273	0
193.493	0
193.714	0
193.934	0
194.154	0
194.374	0
194.594	0
194.815	0
195.035	0
195.255	0
195.475	0
195.695	0
195.915	0
196.135	0
196.355	0
196.575	0
196.795	0
197.015	0
197.235	0
197.455	0
197.675	0
197.895	0
198.115	0
198.335	0
198.555	0
198.775	0
198.995	0
199.214	0
199.434	0
199.654	0
199.874	0
200.094	4.04
200.313	1.91
200.533	1.94
200.753	1.29
200.973	3.45
201.192	3.06
201.412	1.1
201.632	1.58
201.851	3.55
202.071	1.51
202.291	1.67
202.51	1.24
202.73	2.45
202.95	1.72
203.169	1.02
203.389	1.72
203.608	2.13
203.828	1.52
204.047	1.28
204.267	2.25
204.486	2.01
204.706	1.69
204.925	1.87
205.145	1.45
205.364	2.04
205.583	2.44
205.803	1.6
206.022	0.96
206.242	1.4
206.461	1.45
206.68	1.17
206.9	1.48
207.119	2.62
207.338	2.35
207.557	1.29
207.777	1.28
207.996	1.33
208.215	2.04
208.434	0.68
208.654	1
208.873	1.47
209.092	2.19
209.311	0.97
209.53	1
209.749	1.36
209.968	0.87
210.187	0.72
210.407	0.81
210.626	0.98
210.845	1.48
211.064	1
211.283	0.72
211.502	1.51
211.721	1.23
211.94	0.72
212.159	1.19
212.377	1.45
212.596	1.45
212.815	1.64
213.034	1.12
213.253	1.39
213.472	1.41
213.691	0.72
213.91	0.86
214.128	0.84
214.347	1.31
214.566	0.52
214.785	0.38
215.003	1.16
215.222	0.88
215.441	0.72
215.66	0.59
215.878	0.99
216.097	1.19
216.316	0.39
216.534	0.9
216.753	1.23
216.972	0.8
217.19	0.63
217.409	0.53
217.627	0.71
217.846	0.9
218.064	0.96
218.283	0.66
218.501	1.52
218.72	1.25
218.938	0.59
219.157	0.57
219.375	1.09
219.594	1.03
219.812	0.54
220.031	0.41
220.249	1.28
220.467	1.09
220.686	0.63
220.904	0.4
221.122	0.67
221.341	1.09
221.559	0.6
221.777	0.5
221.995	0.85
222.214	0.99
222.432	0.61
222.65	0.89
222.868	0.71
223.086	0.92
223.305	0.87
223.523	0.72
223.741	1.17
223.959	0.66
224.177	0.43
224.395	0.54
224.613	0.81
224.831	0.87
225.049	0.45
225.267	0.61
225.485	0.68
225.703	0.58
225.921	0.53
226.139	0.54
226.357	0.79
226.575	0.59
226.793	0.53
227.011	1.53
227.229	0.62
227.447	0.86
227.665	0.53
227.883	0.38
228.1	0.76
228.318	0.74
228.536	0.14
228.754	0.54
228.972	0.71
229.189	0.7
229.407	0.52
229.625	0.5
229.843	0.88
230.06	0.87
230.278	0.4
230.496	0.57
230.713	0.59
230.931	0.82
231.149	0.53
231.366	0.34
231.584	0.58
231.801	0.95
232.019	0.55
232.236	0.33
232.454	0.5
232.671	0.68
232.889	0.56
233.106	0.39
233.324	0.58
233.541	0.51
233.759	0.57
233.976	0.4
234.194	0.61
234.411	0.61
234.628	0.43
234.846	0.47
235.063	0.51
235.28	0.64
235.498	0.51
235.715	0.48
235.932	0.85
236.149	0.49
236.367	0.31
236.584	0.57
236.801	0.56
237.018	0.65
237.236	0.59
237.453	0.29
237.67	0.67
237.887	0.6
238.104	0.39
238.321	0.41
238.538	0.41
238.755	0.66
238.973	0.29
239.19	0.49
239.407	0.54
239.624	0.5
239.841	0.32
240.058	0.33
240.275	0.43
240.492	0.48
240.709	0.44
240.925	0.39
241.142	0.55
241.359	0.39
241.576	0.3
241.793	0.4
242.01	0.44
242.227	0.62
242.444	0.61
242.66	0.58
242.877	0.53
243.094	0.4
243.311	0.42
243.527	0.32
243.744	0.48
243.961	0.46
244.178	0.29
244.394	0.42
244.611	0.61
244.828	0.61
245.044	0.3
245.261	0.45
245.477	0.48
245.694	0.53
245.911	0.39
246.127	0.47
246.344	0.6
246.56	0.67
246.777	0.42
246.993	0.37
247.21	0.47
247.426	0.65
247.643	0.35
247.859	0.35
248.076	0.37
248.292	0.68
248.508	0.28
248.725	0.44
248.941	0.46
249.157	0.51
249.374	0.26
249.59	0.36
249.806	0.39
250.023	0.53
250.239	0.3
250.455	0.32
250.671	0.42
250.888	0.54
251.104	0.47
251.32	0.32
251.536	0.39
251.752	0.29
251.969	0.39
252.185	0.36
252.401	0.59
252.617	0.33
252.833	0.26
253.049	0.35
253.265	0.42
253.481	0.49
253.697	0.27
253.913	0.26
254.129	0.48
254.345	0.52
254.561	0.36
254.777	0.37
254.993	0.5
255.209	0.41
255.425	0.41
255.641	0.28
255.857	0.4
256.073	0.45
256.288	0.23
256.504	0.36
256.72	0.44
256.936	0.54
257.152	0.35
257.367	0.29
257.583	0.34
257.799	0.51
258.015	0.3
258.23	0.27
258.446	0.59
258.662	0.34
258.877	0.24
259.093	0.25
259.309	0.4
259.524	0.39
259.74	0.33
259.955	0.26
260.171	0.37
260.387	0.39
260.602	0.48
260.818	0.38
261.033	0.33
261.249	0.35
261.464	0.32
261.68	0.22
261.895	0.48
262.11	0.45
262.326	0.28
262.541	0.22
262.757	0.41
262.972	0.44
263.187	0.35
263.403	0.31
263.618	0.53
263.833	0.37
264.049	0.27
264.264	0.3
264.479	0.42
264.694	0.53
264.91	0.24
265.125	0.27
265.34	0.47
265.555	0.55
265.77	0.37
265.986	0.32
266.201	0.39
266.416	0.51
266.631	0.31
266.846	0.28
267.061	0.4
267.276	0.43
267.491	0.13
267.706	0.35
267.921	0.36
268.136	0.36
268.351	0.36
268.566	0.24
268.781	0.44
268.996	0.45
269.211	0.37
269.426	0.26
269.641	0.3
269.856	0.51
270.071	0.21
270.285	0.25
270.5	0.34
270.715	0.41
270.93	0.37
271.145	0.32
271.359	0.41
271.574	0.28
271.789	0.31
272.004	0.22
272.218	0.33
272.433	0.34
272.648	0.25
272.862	0.38
273.077	0.43
273.292	0.32
273.506	0.24
273.721	0.31
273.936	0.43
274.15	0.38
274.365	0.24
274.579	0.35
274.794	0.41
275.008	0.4
275.223	0.22
275.437	0.26
275.652	0.48
275.866	0.35
276.081	0.32
276.295	0.47
276.509	0.3
276.724	0.36
276.938	0.32
277.153	0.34
277.367	0.35
277.581	0.3
277.796	0.29
278.01	0.17
278.224	0.35
278.438	0.47
278.653	0.32
278.867	0.25
279.081	0.17
279.295	0.36
279.51	0.31
279.724	0.21
279.938	0.4
280.152	0.39
280.366	0.28
280.58	0.34
280.794	0.4
281.008	0.36
281.222	0.35
281.437	0.44
281.651	0.37
281.865	0.34
282.079	0.32
282.293	0.17
282.507	0.25
282.721	0.24
282.935	0.32
283.148	0.19
283.362	0.24
283.576	0.25
283.79	0.28
284.004	0.24
284.218	0.38
284.432	0.31
284.646	0.3
284.859	0.24
285.073	0.27
285.287	0.32
285.501	0.32
285.714	0.26
285.928	0.27
286.142	0.27
286.356	0.22
286.569	0.25
286.783	0.4
286.997	0.32
287.21	0.29
287.424	0.27
287.637	0.29
287.851	0.29
288.065	0.37
288.278	0.27
288.492	0.34
288.705	0.31
288.919	0.34
289.132	0.23
289.346	0.35
289.559	0.21
289.773	0.2
289.986	0.25
290.2	0.29
290.413	0.4
290.626	0.26
290.84	0.27
291.053	0.27
291.267	0.41
291.48	0.25
291.693	0.27
291.906	0.24
292.12	0.32
292.333	0.22
292.546	0.24
292.76	0.39
292.973	0.3
293.186	0.31
293.399	0.25
293.612	0.35
293.826	0.25
294.039	0.24
294.252	0.25
294.465	0.33
294.678	0.27
294.891	0.29
295.104	0.15
295.317	0.21
295.53	0.32
295.743	0.27
295.956	0.24
296.169	0.37
296.382	0.33
296.595	0.23
296.808	0.19
297.021	0.37
297.234	0.35
297.447	0.23
297.66	0.29
297.873	0.32
298.086	0.34
298.299	0.18
298.511	0.17
298.724	0.26
298.937	0.23
299.15	0.2
299.363	0.22
299.575	0.3
299.788	0.29
300.001	0.25
300.213	0.22
300.426	0.27
300.639	0.24
300.852	0.18
301.064	0.3
301.277	0.35
301.489	0.27
301.702	0.29
301.915	0.23
302.127	0.26
302.34	0.27
302.552	0.34
302.765	0.21
302.977	0.32
303.19	0.21
303.402	0.22
303.615	0.26
303.827	0.24
304.04	0.23
304.252	0.34
304.464	0.25
304.677	0.4
304.889	0.27
305.102	0.22
305.314	0.19
305.526	0.32
305.739	0.3
305.951	0.18
306.163	0.21
306.375	0.31
306.588	0.23
306.8	0.23
307.012	0.22
307.224	0.24
307.436	0.34
307.649	0.16
307.861	0.22
308.073	0.27
308.285	0.24
308.497	0.2
308.709	0.25
308.921	0.26
309.133	0.32
309.346	0.23
309.558	0.24
309.77	0.31
309.982	0.35
310.194	0.33
310.406	0.2
310.617	0.33
310.829	0.29
311.041	0.29
311.253	0.22
311.465	0.2
311.677	0.25
311.889	0.24
312.101	0.21
312.313	0.35
312.524	0.36
312.736	0.17
312.948	0.22
313.16	0.32
313.372	0.27
313.583	0.25
313.795	0.26
314.007	0.22
314.218	0.32
314.43	0.25
314.642	0.21
314.853	0.17
315.065	0.32
315.277	0.27
315.488	0.32
315.7	0.31
315.912	0.3
316.123	0.25
316.335	0.2
316.546	0.35
316.758	0.25
316.969	0.19
317.181	0.24
317.392	0.26
317.604	0.32
317.815	0.18
318.026	0.21
318.238	0.24
318.449	0.29
318.661	0.19
318.872	0.17
319.083	0.23
319.295	0.31
319.506	0.2
319.717	0.23
319.929	0.32
320.14	0.29
320.351	0.27
320.562	0.2
320.774	0.28
320.985	0.26
321.196	0.2
321.407	0.18
321.618	0.28
321.829	0.27
322.041	0.25
322.252	0.22
322.463	0.3
322.674	0.3
322.885	0.21
323.096	0.24
323.307	0.28
323.518	0.29
323.729	0.2
323.94	0.22
324.151	0.25
324.362	0.28
324.573	0.24
324.784	0.2
324.995	0.3
325.206	0.26
325.417	0.19
325.628	0.21
325.838	0.25
326.049	0.27
326.26	0.28
326.471	0.2
326.682	0.32
326.892	0.27
327.103	0.18
327.314	0.16
327.525	0.33
327.735	0.24
327.946	0.21
328.157	0.21
328.368	0.31
328.578	0.25
328.789	0.27
328.999	0.23
329.21	0.27
329.421	0.33
329.631	0.22
329.842	0.22
330.052	0.28
330.263	0.29
330.473	0.31
330.684	0.21
330.894	0.27
331.105	0.31
331.315	0.28
331.526	0.18
331.736	0.34
331.947	0.27
332.157	0.24
332.367	0.17
332.578	0.27
332.788	0.35
332.999	0.25
333.209	0.23
333.419	0.18
333.629	0.27
333.84	0.3
334.05	0.25
334.26	0.3
334.47	0.26
334.681	0.31
334.891	0.19
335.101	0.3
335.311	0.3
335.521	0.2
335.732	0.21
335.942	0.32
336.152	0.26
336.362	0.26
336.572	0.26
336.782	0.29
336.992	0.2
337.202	0.23
337.412	0.2
337.622	0.28
337.832	0.2
338.042	0.25
338.252	0.21
338.462	0.24
338.672	0.24
338.882	0.22
339.092	0.29
339.302	0.3
339.511	0.22
339.721	0.25
339.931	0.2
340.141	0.3
340.351	0.35
340.561	0.24
340.77	0.3
340.98	0.25
341.19	0.29
341.4	0.24
341.609	0.21
341.819	0.25
342.029	0.18
342.238	0.24
342.448	0.2
342.658	0.32
342.867	0.18
343.077	0.19
343.286	0.28
343.496	0.27
343.706	0.31
343.915	0.21
344.125	0.24
344.334	0.26
344.544	0.19
344.753	0.23
344.963	0.2
345.172	0.24
345.381	0.22
345.591	0.19
345.8	0.22
346.01	0.34
346.219	0.31
346.428	0.14
346.638	0.2
346.847	0.22
347.056	0.33
347.266	0.18
347.475	0.24
347.684	0.29
347.893	0.27
348.103	0.28
348.312	0.22
348.521	0.26
348.73	0.25
348.94	0.25
349.149	0.23
349.358	0.27
349.567	0.19
349.776	0.2
349.985	0.22
350.194	0.28
350.403	0.3
350.612	0.18
350.821	0.18
351.03	0.27
351.239	0.22
351.448	0.24
351.657	0.2
351.866	0.31
352.075	0.27
352.284	0.21
352.493	0.18
352.702	0.3
352.911	0.29
353.12	0.29
353.329	0.23
353.538	0.29
353.746	0.26
353.955	0.2
354.164	0.29
354.373	0.27
354.582	0.28
354.79	0.24
354.999	0.28
355.208	0.22
355.416	0.35
355.625	0.22
355.834	0.22
356.042	0.28
356.251	0.23
356.46	0.21
356.668	0.26
356.877	0.35
357.085	0.31
357.294	0.15
357.503	0.26
357.711	0.22
357.92	0.42
358.128	0.27
358.337	0.23
358.545	0.27
358.754	0.25
358.962	0.24
359.17	0.22
359.379	0.24
359.587	0.26
359.796	0.21
360.004	0.29
360.212	0.3
360.421	0.34
360.629	0.22
360.837	0.2
361.046	0.31
361.254	0.36
361.462	0.26
361.67	0.21
361.879	0.28
362.087	0.32
362.295	0.24
362.503	0.21
362.711	0.21
362.92	0.24
363.128	0.2
363.336	0.18
363.544	0.23
363.752	0.22
363.96	0.22
364.168	0.2
364.376	0.27
364.584	0.25
364.792	0.28
365	0.29
365.208	0.23
365.416	0.29
365.624	0.28
365.832	0.22
366.04	0.31
366.248	0.26
366.456	0.26
366.664	0.26
366.872	0.23
367.079	0.27
367.287	0.27
367.495	0.25
367.703	0.22
367.911	0.23
368.118	0.23
368.326	0.23
368.534	0.22
368.742	0.31
368.949	0.19
369.157	0.18
369.365	0.29
369.572	0.26
369.78	0.2
369.988	0.3
370.195	0.24
370.403	0.3
370.61	0.23
370.818	0.23
371.026	0.34
371.233	0.21
371.441	0.29
371.648	0.19
371.856	0.28
372.063	0.29
372.271	0.24
372.478	0.17
372.685	0.25
372.893	0.29
373.1	0.25
373.308	0.2
373.515	0.33
373.722	0.32
373.93	0.25
374.137	0.29
374.344	0.33
374.552	0.31
374.759	0.28
374.966	0.26
375.173	0.22
375.381	0.33
375.588	0.27
375.795	0.19
376.002	0.24
376.209	0.21
376.417	0.28
376.624	0.22
376.831	0.27
377.038	0.25
377.245	0.21
377.452	0.2
377.659	0.28
377.866	0.26
378.073	0.27
378.28	0.2
378.487	0.33
378.694	0.26
378.901	0.18
379.108	0.25
379.315	0.31
379.522	0.38
379.729	0.29
379.936	0.26
380.143	0.25
380.35	0.3
380.557	0.24
380.763	0.24
380.97	0.29
381.177	0.31
381.384	0.29
381.591	0.18
381.797	0.27
382.004	0.27
382.211	0.26
382.418	0.2
382.624	0.33
382.831	0.36
383.038	0.23
383.244	0.25
383.451	0.29
383.658	0.28
383.864	0.23
384.071	0.22
384.277	0.37
384.484	0.25
384.69	0.35
384.897	0.27
385.103	0.27
385.31	0.22
385.516	0.24
385.723	0.25
385.929	0.26
386.136	0.28
386.342	0.29
386.549	0.22
386.755	0.35
386.961	0.31
387.168	0.26
387.374	0.29
387.58	0.32
387.787	0.32
387.993	0.29
388.199	0.29
388.406	0.23
388.612	0.27
388.818	0.27
389.024	0.24
389.231	0.26
389.437	0.36
389.643	0.34
389.849	0.28
390.055	0.32
390.261	0.3
390.467	0.31
390.674	0.22
390.88	0.29
391.086	0.33
391.292	0.27
391.498	0.34
391.704	0.29
391.91	0.33
392.116	0.3
392.322	0.24
392.528	0.34
392.734	0.24
392.94	0.3
393.146	0.29
393.352	0.35
393.557	0.28
393.763	0.25
393.969	0.33
394.175	0.32
394.381	0.32
394.587	0.25
394.792	0.34
394.998	0.38
395.204	0.44
395.41	0.29
395.615	0.31
395.821	0.34
396.027	0.36
396.233	0.26
396.438	0.34
396.644	0.42
396.85	0.33
397.055	0.28
397.261	0.33
397.466	0.32
397.672	0.3
397.878	0.43
398.083	0.35
398.289	0.27
398.494	0.4
398.7	0.39
398.905	0.22
399.111	0.45
399.316	0.28
399.522	0.31
399.727	0.33
399.932	0.3
400.138	0.33
400.343	0.37
400.549	0.31
400.754	0.37
400.959	0.38
401.165	0.35
401.37	0.33
401.575	0.48
401.78	0.35
401.986	0.34
402.191	0.39
402.396	0.35
402.601	0.42
402.807	0.44
403.012	0.42
403.217	0.39
403.422	0.38
403.627	0.37
403.832	0.36
404.037	0.47
404.243	0.39
404.448	0.38
404.653	0.38
404.858	0.45
405.063	0.46
405.268	0.39
405.473	0.36
405.678	0.37
405.883	0.59
406.088	0.43
406.293	0.4
406.498	0.44
406.703	0.5
406.907	0.47
407.112	0.43
407.317	0.47
407.522	0.56
407.727	0.42
407.932	0.56
408.136	0.62
408.341	0.54
408.546	0.55
408.751	0.52
408.956	0.56
409.16	0.64
409.365	0.63
409.57	0.57
409.774	0.61
409.979	0.69
410.184	0.67
410.388	0.57
410.593	0.74
410.798	0.72
411.002	0.72
411.207	0.8
411.411	0.71
411.616	0.76
411.82	0.74
412.025	0.83
412.229	0.77
412.434	0.91
412.638	0.89
412.843	0.82
413.047	0.89
413.252	0.89
413.456	0.93
413.66	0.97
413.865	0.98
414.069	1.11
414.273	1.01
414.478	1.07
414.682	1.1
414.886	1.14
415.091	1.11
415.295	1.18
415.499	1.31
415.703	1.25
415.908	1.39
416.112	1.28
416.316	1.48
416.52	1.44
416.724	1.39
416.929	1.47
417.133	1.76
417.337	1.62
417.541	1.67
417.745	1.69
417.949	1.88
418.153	1.88
418.357	1.82
418.561	2.08
418.765	2.02
418.969	2.21
419.173	2.32
419.377	2.24
419.581	2.52
419.785	2.4
419.989	2.53
420.193	2.59
420.397	2.69
420.601	2.82
420.804	2.89
421.008	2.78
421.212	3.04
421.416	3.04
421.62	3.04
421.823	3.08
422.027	3.31
422.231	3.17
422.435	3.22
422.638	3.29
422.842	3.42
423.046	3.47
423.249	3.65
423.453	3.63
423.657	3.78
423.86	3.88
424.064	4.04
424.268	4.16
424.471	4.16
424.675	4.33
424.878	4.34
425.082	4.56
425.285	4.76
425.489	4.65
425.692	4.85
425.896	4.91
426.099	5.11
426.303	5.19
426.506	5.27
426.71	5.52
426.913	5.76
427.116	5.86
427.32	5.81
427.523	5.98
427.726	6.29
427.93	6.32
428.133	6.54
428.336	6.71
428.54	7.02
428.743	7.1
428.946	7.38
429.149	7.28
429.353	7.5
429.556	7.51
429.759	7.5
429.962	7.59
430.165	7.83
430.368	7.55
430.571	7.58
430.775	7.69
430.978	7.68
431.181	7.76
431.384	7.83
431.587	7.91
431.79	8.26
431.993	8.27
432.196	8.5
432.399	8.87
432.602	8.95
432.805	9.05
433.008	9.5
433.211	9.49
433.414	9.8
433.616	9.89
433.819	9.9
434.022	9.92
434.225	10.11
434.428	10.12
434.631	10.48
434.833	10.31
435.036	10.65
435.239	10.85
435.442	10.85
435.645	11.06
435.847	11.17
436.05	11.36
436.253	11.61
436.455	11.64
436.658	11.56
436.861	11.83
437.063	11.98
437.266	11.86
437.468	12.23
437.671	12.69
437.874	12.47
438.076	12.5
438.279	12.88
438.481	12.95
438.684	13.72
438.886	13.22
439.089	13.55
439.291	13.67
439.494	13.98
439.696	14.03
439.899	14.59
440.101	14.93
440.303	15.17
440.506	15.81
440.708	15.61
440.91	15.89
441.113	16.06
441.315	16.38
441.517	16.2
441.72	16.56
441.922	16.16
442.124	16.15
442.326	16.53
442.529	16.98
442.731	16.78
442.933	17.07
443.135	16.78
443.337	16.85
443.539	17.45
443.742	17.07
443.944	17.68
444.146	17.4
444.348	17.56
444.55	17.29
444.752	17.53
444.954	17.53
445.156	17.57
445.358	17.89
445.56	18.21
445.762	18.2
445.964	18.44
446.166	18.04
446.368	18.12
446.57	18.15
446.772	17.71
446.974	17.58
447.175	17.85
447.377	17.64
447.579	18.04
447.781	17.75
447.983	17.59
448.184	17.15
448.386	17.56
448.588	17.03
448.79	17.13
448.991	17.36
449.193	17.43
449.395	16.82
449.597	16.49
449.798	16.36
450	15.86
450.202	15.71
450.403	16
450.605	15.84
450.806	15.55
451.008	15.27
451.21	15.25
451.411	14.68
451.613	13.94
451.814	14.12
452.016	14.14
452.217	13.58
452.419	13.61
452.62	13.24
452.821	13.08
453.023	12.94
453.224	12.53
453.426	12.16
453.627	11.37
453.828	11.57
454.03	11.53
454.231	11.64
454.432	11.37
454.634	11.14
454.835	10.95
455.036	10.84
455.238	10.44
455.439	10.14
455.64	9.87
455.841	9.68
456.042	9.87
456.244	9.57
456.445	9.27
456.646	8.83
456.847	8.84
457.048	8.82
457.249	8.79
457.45	8.62
457.651	8.11
457.852	7.85
458.054	7.6
458.255	7.51
458.456	7.59
458.657	7.44
458.858	6.88
459.058	6.92
459.259	6.96
459.46	6.71
459.661	6.66
459.862	6.71
460.063	6.64
460.264	6.51
460.465	6.16
460.666	6.31
460.866	5.98
461.067	5.78
461.268	5.8
461.469	5.62
461.67	5.52
461.87	5.39
462.071	5.43
462.272	5.32
462.473	5.3
462.673	5.48
462.874	5.29
463.075	5.28
463.275	5.29
463.476	5.42
463.676	5.26
463.877	5.2
464.078	5.07
464.278	5.15
464.479	4.99
464.679	4.93
464.88	4.8
465.08	4.84
465.281	4.7
465.481	4.46
465.682	4.26
465.882	4.32
466.083	4.26
466.283	4.26
466.483	4.06
466.684	3.9
466.884	3.82
467.085	3.85
467.285	3.88
467.485	3.74
467.686	3.7
467.886	3.58
468.086	3.49
468.286	3.44
468.487	3.59
468.687	3.36
468.887	3.32
469.087	3.54
469.287	3.35
469.488	3.17
469.688	3.31
469.888	3.41
470.088	3.25
470.288	3.18
470.488	3.08
470.688	3.06
470.888	2.98
471.088	2.85
471.288	2.99
471.488	2.91
471.688	2.86
471.888	2.82
472.088	2.93
472.288	2.85
472.488	2.72
472.688	2.71
472.888	2.7
473.088	2.72
473.288	2.56
473.488	2.56
473.688	2.72
473.887	2.59
474.087	2.52
474.287	2.53
474.487	2.47
474.687	2.52
474.886	2.44
475.086	2.42
475.286	2.43
475.486	2.38
475.685	2.3
475.885	2.26
476.085	2.35
476.284	2.38
476.484	2.36
476.684	2.33
476.883	2.39
477.083	2.27
477.282	2.23
477.482	2.23
477.681	2.24
477.881	2.14
478.08	2.19
478.28	2.12
478.479	2.14
478.679	2.22
478.878	2.11
479.078	2.09
479.277	2.17
479.477	2.08
479.676	2.09
479.875	2.07
480.075	2
480.274	2.09
480.473	2.08
480.673	2.09
480.872	2.13
481.071	2.16
481.271	2.13
481.47	2.02
481.669	2.09
481.868	2
482.067	2.06
482.267	1.98
482.466	2.02
482.665	2.01
482.864	1.97
483.063	2
483.262	2.06
483.461	2.06
483.661	2.1
483.86	2.05
484.059	2.07
484.258	2.07
484.457	2.05
484.656	2.07
484.855	2.15
485.054	1.92
485.253	2.07
485.452	2.02
485.651	2.08
485.849	2.02
486.048	2.03
486.247	2.07
486.446	2.12
486.645	2.1
486.844	2.13
487.043	2.08
487.241	2.11
487.44	2.14
487.639	2.15
487.838	2.16
488.037	2.14
488.235	2.24
488.434	2.2
488.633	2.06
488.831	2.29
489.03	2.26
489.229	2.25
489.427	2.23
489.626	2.31
489.825	2.32
490.023	2.34
490.222	2.32
490.42	2.37
490.619	2.4
490.817	2.39
491.016	2.37
491.214	2.46
491.413	2.43
491.611	2.4
491.81	2.41
492.008	2.47
492.207	2.54
492.405	2.54
492.604	2.48
492.802	2.58
493	2.65
493.199	2.57
493.397	2.68
493.595	2.68
493.794	2.65
493.992	2.81
494.19	2.72
494.388	2.81
494.587	2.77
494.785	2.78
494.983	2.72
495.181	2.86
495.379	2.94
495.578	2.91
495.776	2.94
495.974	2.93
496.172	2.98
496.37	3.08
496.568	3.1
496.766	3.1
496.964	3.19
497.162	3.16
497.36	3.22
497.558	3.21
497.756	3.29
497.954	3.3
498.152	3.33
498.35	3.47
498.548	3.37
498.746	3.39
498.944	3.37
499.142	3.42
499.34	3.53
499.538	3.62
499.736	3.46
499.933	3.64
500.131	3.63
500.329	3.75
500.527	3.72
500.725	3.84
500.922	3.86
501.12	3.82
501.318	3.9
501.516	3.9
501.713	3.99
501.911	3.98
502.109	3.92
502.306	4.04
502.504	4
502.701	4.06
502.899	4.17
503.097	4.36
503.294	4.13
503.492	4.31
503.689	4.3
503.887	4.34
504.084	4.43
504.282	4.4
504.479	4.35
504.677	4.57
504.874	4.49
505.072	4.41
505.269	4.6
505.466	4.57
505.664	4.66
505.861	4.62
506.059	4.69
506.256	4.7
506.453	4.75
506.651	4.92
506.848	4.93
507.045	4.9
507.242	4.92
507.44	4.98
507.637	5.05
507.834	5.02
508.031	5.14
508.229	5.1
508.426	5.08
508.623	5.2
508.82	5.24
509.017	5.19
509.214	5.17
509.411	5.33
509.608	5.35
509.805	5.44
510.003	5.35
510.2	5.48
510.397	5.61
510.594	5.49
510.791	5.56
510.988	5.55
511.184	5.59
511.381	5.47
511.578	5.63
511.775	5.77
511.972	5.64
512.169	5.73
512.366	5.8
512.563	5.89
512.76	5.9
512.956	5.87
513.153	5.84
513.35	5.83
513.547	5.88
513.744	5.95
513.94	5.92
514.137	6.09
514.334	6.01
514.53	6.06
514.727	6.28
514.924	6.21
515.12	6.19
515.317	6.21
515.514	6.11
515.71	6.13
515.907	6.35
516.103	6.34
516.3	6.26
516.497	6.39
516.693	6.37
516.89	6.38
517.086	6.44
517.283	6.47
517.479	6.37
517.676	6.59
517.872	6.59
518.068	6.54
518.265	6.61
518.461	6.53
518.658	6.64
518.854	6.62
519.05	6.67
519.247	6.82
519.443	6.67
519.639	6.85
519.836	6.68
520.032	6.67
520.228	6.79
520.424	6.84
520.621	6.87
520.817	6.85
521.013	6.83
521.209	7.02
521.405	6.96
521.601	6.97
521.798	6.97
521.994	6.96
522.19	6.85
522.386	6.96
522.582	7.1
522.778	7.17
522.974	6.98
523.17	7
523.366	7
523.562	7.1
523.758	7.14
523.954	6.98
524.15	7.12
524.346	7.18
524.542	7.19
524.738	7.05
524.934	7.29
525.129	7.16
525.325	7.14
525.521	7.2
525.717	7.34
525.913	7.25
526.109	7.28
526.304	7.34
526.5	7.33
526.696	7.42
526.892	7.23
527.087	7.5
527.283	7.41
527.479	7.41
527.674	7.28
527.87	7.43
528.066	7.45
528.261	7.42
528.457	7.39
528.653	7.55
528.848	7.5
529.044	7.63
529.239	7.42
529.435	7.51
529.63	7.35
529.826	7.45
530.021	7.49
530.217	7.55
530.412	7.51
530.608	7.64
530.803	7.54
530.999	7.43
531.194	7.57
531.389	7.6
531.585	7.55
531.78	7.71
531.975	7.64
532.171	7.7
532.366	7.65
532.561	7.73
532.757	7.64
532.952	7.79
533.147	7.63
533.342	7.68
533.538	7.61
533.733	7.83
533.928	7.49
534.123	7.76
534.318	7.75
534.513	7.63
534.709	7.89
534.904	7.78
535.099	7.79
535.294	7.9
535.489	7.84
535.684	7.75
535.879	7.75
536.074	7.81
536.269	7.8
536.464	7.85
536.659	7.84
536.854	7.85
537.049	7.84
537.244	7.84
537.439	7.84
537.634	7.87
537.828	7.9
538.023	7.86
538.218	7.82
538.413	7.75
538.608	7.87
538.803	7.84
538.997	7.83
539.192	7.9
539.387	7.91
539.582	7.84
539.776	7.79
539.971	7.91
540.166	7.93
540.36	7.84
540.555	7.99
540.75	7.94
540.944	7.94
541.139	7.94
541.334	7.89
541.528	7.94
541.723	8.04
541.917	8
542.112	7.89
542.306	7.83
542.501	7.85
542.695	7.91
542.89	7.85
543.084	7.88
543.279	7.95
543.473	7.99
543.668	8.04
543.862	7.84
544.056	7.92
544.251	7.98
544.445	8.08
544.64	8.03
544.834	7.74
545.028	7.67
545.222	7.98
545.417	8.18
545.611	8.03
545.805	8.01
546	7.83
546.194	8
546.388	8.01
546.582	7.94
546.776	7.96
546.97	8.04
547.165	7.98
547.359	7.98
547.553	7.89
547.747	7.91
547.941	8.21
548.135	7.9
548.329	8.06
548.523	8.01
548.717	7.99
548.911	7.97
549.105	7.92
549.299	8.04
549.493	8.08
549.687	7.91
549.881	8.13
550.075	8.06
550.269	7.99
550.463	8.09
550.657	8.04
550.85	8.05
551.044	8.01
551.238	8.06
551.432	7.99
551.626	8.07
551.82	8.12
552.013	7.93
552.207	8.14
552.401	8.08
552.594	7.99
552.788	7.97
552.982	8.01
553.176	7.94
553.369	8.2
553.563	8.03
553.756	8.05
553.95	8.09
554.144	8.06
554.337	8.07
554.531	7.89
554.724	8.06
554.918	8.08
555.111	7.98
555.305	8.07
555.498	8.03
555.692	8.14
555.885	8.07
556.079	8.02
556.272	8.04
556.466	8.02
556.659	7.99
556.852	8.05
557.046	7.96
557.239	7.89
557.432	8.02
557.626	8.08
557.819	8.11
558.012	8.08
558.206	8.1
558.399	8.04
558.592	8.04
558.785	7.95
558.979	8.03
559.172	8.03
559.365	7.99
559.558	8.01
559.751	7.97
559.944	8.16
560.138	8.02
560.331	8.06
560.524	8.14
560.717	8.05
560.91	8.03
561.103	8.03
561.296	7.94
561.489	8.07
561.682	8.19
561.875	8.13
562.068	8.15
562.261	7.92
562.454	8.24
562.647	7.98
562.84	8.08
563.032	8.02
563.225	7.96
563.418	8
563.611	8.05
563.804	8.11
563.997	7.9
564.19	7.81
564.382	8.13
564.575	8.08
564.768	7.98
564.961	8.11
565.153	8.03
565.346	7.94
565.539	8.08
565.731	7.99
565.924	8.06
566.117	8.17
566.309	8.06
566.502	7.97
566.695	7.88
566.887	8.05
567.08	8
567.272	8.07
567.465	7.98
567.657	8.04
567.85	7.87
568.042	8.08
568.235	8.06
568.427	7.87
568.62	8.01
568.812	7.92
569.005	8.03
569.197	7.93
569.389	8.05
569.582	7.98
569.774	8.05
569.966	7.88
570.159	7.9
570.351	7.86
570.543	7.97
570.736	7.99
570.928	7.89
571.12	7.96
571.312	7.89
571.505	7.73
571.697	8
571.889	7.91
572.081	7.89
572.273	7.8
572.465	7.99
572.658	7.91
572.85	7.94
573.042	7.99
573.234	7.82
573.426	7.92
573.618	7.82
573.81	7.94
574.002	7.89
574.194	7.88
574.386	7.92
574.578	7.72
574.77	7.86
574.962	7.94
575.154	7.75
575.346	7.78
575.538	7.77
575.729	7.8
575.921	7.84
576.113	7.9
576.305	7.82
576.497	7.91
576.689	7.74
576.88	7.7
577.072	7.88
577.264	7.84
577.456	7.81
577.647	7.76
577.839	7.95
578.031	7.74
578.223	7.74
578.414	7.65
578.606	7.75
578.798	7.81
578.989	7.69
579.181	7.79
579.372	7.79
579.564	7.72
579.755	7.7
579.947	7.64
580.139	7.77
580.33	7.6
580.522	7.7
580.713	7.62
580.905	7.68
581.096	7.75
581.287	7.62
581.479	7.72
581.67	7.67
581.862	7.69
582.053	7.59
582.244	7.44
582.436	7.72
582.627	7.59
582.818	7.54
583.01	7.53
583.201	7.6
583.392	7.52
583.583	7.51
583.775	7.42
583.966	7.5
584.157	7.55
584.348	7.59
584.54	7.44
584.731	7.57
584.922	7.42
585.113	7.34
585.304	7.49
585.495	7.5
585.686	7.55
585.877	7.47
586.068	7.63
586.259	7.57
586.45	7.43
586.641	7.41
586.832	7.46
587.023	7.42
587.214	7.42
587.405	7.48
587.596	7.29
587.787	7.32
587.978	7.3
588.169	7.34
588.36	7.3
588.551	7.34
588.742	7.4
588.932	7.36
589.123	7.14
589.314	7.42
589.505	7.2
589.696	7.32
589.886	7.26
590.077	7.26
590.268	7.2
590.458	7.18
590.649	7.03
590.84	7.24
591.03	7.17
591.221	7.2
591.412	7.11
591.602	7.28
591.793	7.16
591.984	7.19
592.174	7.11
592.365	7.31
592.555	7.08
592.746	7.07
592.936	7.08
593.127	7.07
593.317	7.15
593.508	7.11
593.698	7.03
593.889	7.01
594.079	7.04
594.269	6.96
594.46	6.96
594.65	7.03
594.84	6.98
595.031	6.88
595.221	6.96
595.411	6.93
595.602	6.93
595.792	6.88
595.982	6.84
596.172	6.95
596.363	6.8
596.553	6.85
596.743	6.88
596.933	6.88
597.123	6.78
597.314	6.59
597.504	6.64
597.694	6.82
597.884	6.77
598.074	6.82
598.264	6.74
598.454	6.7
598.644	6.69
598.834	6.78
599.024	6.64
599.214	6.65
599.404	6.7
599.594	6.69
599.784	6.51
599.974	6.7
600.164	6.63
600.354	6.58
600.544	6.49
600.734	6.56
600.924	6.51
601.114	6.46
601.303	6.37
601.493	6.51
601.683	6.43
601.873	6.48
602.063	6.4
602.252	6.49
602.442	6.37
602.632	6.32
602.821	6.25
603.011	6.41
603.201	6.37
603.39	6.34
603.58	6.24
603.77	6.3
603.959	6.33
604.149	6.3
604.339	6.28
604.528	6.32
604.718	6.27
604.907	6.19
605.097	6.12
605.286	6.22
605.476	6.25
605.665	6.15
605.855	6.17
606.044	6.23
606.234	6.24
606.423	6.09
606.612	6.12
606.802	6.04
606.991	6.17
607.181	6.1
607.37	6.08
607.559	5.84
607.749	6.05
607.938	5.93
608.127	5.98
608.316	5.94
608.506	5.9
608.695	6
608.884	5.93
609.073	5.95
609.263	5.96
609.452	5.95
609.641	5.84
609.83	5.73
610.019	5.82
610.208	5.79
610.397	5.75
610.586	5.86
610.775	5.75
610.965	5.76
611.154	5.64
611.343	5.76
611.532	5.65
611.721	5.77
611.91	5.61
612.099	5.67
612.287	5.59
612.476	5.49
612.665	5.63
612.854	5.47
613.043	5.58
613.232	5.56
613.421	5.49
613.61	5.51
613.798	5.51
613.987	5.51
614.176	5.4
614.365	5.45
614.554	5.49
614.742	5.48
614.931	5.31
615.12	5.51
615.309	5.42
615.497	5.28
615.686	5.26
615.875	5.31
616.063	5.28
616.252	5.22
616.44	5.24
616.629	5.23
616.818	5.21
617.006	5.21
617.195	5.21
617.383	5.2
617.572	5.12
617.76	5.08
617.949	5.18
618.137	5.22
618.326	5.23
618.514	4.95
618.703	4.91
618.891	5.09
619.079	4.99
619.268	5.04
619.456	4.95
619.644	5.03
619.833	4.95
620.021	4.96
620.209	4.84
620.398	4.96
620.586	4.9
620.774	4.89
620.962	4.84
621.151	4.95
621.339	4.85
621.527	4.78
621.715	4.8
621.903	4.78
622.092	4.73
622.28	4.8
622.468	4.65
622.656	4.71
622.844	4.72
623.032	4.76
623.22	4.63
623.408	4.76
623.596	4.67
623.784	4.77
623.972	4.55
624.16	4.59
624.348	4.66
624.536	4.73
624.724	4.51
624.912	4.62
625.1	4.53
625.288	4.54
625.476	4.39
625.664	4.56
625.851	4.52
626.039	4.46
626.227	4.49
626.415	4.48
626.603	4.36
626.79	4.4
626.978	4.43
627.166	4.43
627.354	4.35
627.541	4.28
627.729	4.24
627.917	4.4
628.104	4.4
628.292	4.23
628.48	4.29
628.667	4.23
628.855	4.33
629.042	4.31
629.23	4.17
629.418	4.16
629.605	4.24
629.793	4.11
629.98	4.15
630.168	4.16
630.355	4.17
630.543	4.11
630.73	4.04
630.917	4.05
631.105	4.18
631.292	4.03
631.48	4
631.667	4.12
631.854	4.01
632.042	4
632.229	3.92
632.416	3.97
632.604	3.92
632.791	3.82
632.978	4.03
633.165	3.9
633.353	3.94
633.54	3.92
633.727	3.83
633.914	3.81
634.101	3.74
634.289	3.9
634.476	3.72
634.663	3.78
634.85	3.76
635.037	3.64
635.224	3.65
635.411	3.79
635.598	3.71
635.785	3.66
635.972	3.63
636.159	3.74
636.346	3.61
636.533	3.58
636.72	3.62
636.907	3.61
637.094	3.65
637.281	3.5
637.468	3.57
637.655	3.56
637.842	3.57
638.029	3.49
638.215	3.49
638.402	3.48
638.589	3.42
638.776	3.43
638.963	3.36
639.149	3.5
639.336	3.52
639.523	3.41
639.709	3.42
639.896	3.37
640.083	3.37
640.27	3.37
640.456	3.29
640.643	3.36
640.829	3.28
641.016	3.26
641.203	3.22
641.389	3.28
641.576	3.28
641.762	3.26
641.949	3.22
642.135	3.22
642.322	3.17
642.508	3.12
642.695	3.23
642.881	3.09
643.068	3.11
643.254	3.13
643.441	3.18
643.627	3.21
643.813	3.01
644	3.09
644.186	3
644.372	3.15
644.559	3.03
644.745	3.03
644.931	2.9
645.118	2.99
645.304	3.01
645.49	2.86
645.676	2.92
645.862	2.94
646.049	3.03
646.235	2.89
646.421	3.07
646.607	3
646.793	2.86
646.979	2.8
647.165	2.89
647.352	2.92
647.538	2.88
647.724	2.83
647.91	2.79
648.096	2.85
648.282	2.85
648.468	2.75
648.654	2.82
648.84	2.78
649.026	2.76
649.212	2.69
649.397	2.64
649.583	2.68
649.769	2.74
649.955	2.67
650.141	2.73
650.327	2.68
650.513	2.64
650.698	2.59
650.884	2.55
651.07	2.67
651.256	2.61
651.442	2.59
651.627	2.48
651.813	2.62
651.999	2.58
652.184	2.56
652.37	2.57
652.556	2.5
652.741	2.59
652.927	2.39
653.113	2.48
653.298	2.51
653.484	2.48
653.669	2.37
653.855	2.42
654.04	2.5
654.226	2.43
654.412	2.36
654.597	2.36
654.782	2.41
654.968	2.42
655.153	2.38
655.339	2.36
655.524	2.28
655.71	2.33
655.895	2.31
656.08	2.32
656.266	2.4
656.451	2.24
656.636	2.27
656.822	2.3
657.007	2.24
657.192	2.21
657.378	2.24
657.563	2.19
657.748	2.26
657.933	2.23
658.118	2.22
658.304	2.21
658.489	2.3
658.674	2.23
658.859	2.14
659.044	2.11
659.229	2.21
659.414	2.13
659.599	2.13
659.785	2.07
659.97	2.05
660.155	2.1
660.34	2.16
660.525	2.05
660.71	1.99
660.895	2.15
661.08	2.06
661.264	2
661.449	2.11
661.634	2.03
661.819	2.09
662.004	2.01
662.189	1.98
662.374	1.92
662.559	1.9
662.743	1.87
662.928	1.99
663.113	1.92
663.298	1.93
663.483	1.92
663.667	1.94
663.852	1.88
664.037	1.98
664.221	1.86
664.406	2.01
664.591	1.95
664.775	1.91
664.96	1.8
665.145	1.89
665.329	1.89
665.514	1.82
665.698	1.79
665.883	1.76
666.068	1.96
666.252	1.84
666.437	1.79
666.621	1.81
666.806	1.86
666.99	1.78
667.174	1.75
667.359	1.82
667.543	1.75
667.728	1.76
667.912	1.67
668.096	1.79
668.281	1.7
668.465	1.74
668.649	1.7
668.834	1.68
669.018	1.69
669.202	1.67
669.387	1.71
669.571	1.73
669.755	1.66
669.939	1.67
670.124	1.66
670.308	1.71
670.492	1.65
670.676	1.61
670.86	1.58
671.044	1.56
671.228	1.68
671.413	1.54
671.597	1.54
671.781	1.58
671.965	1.6
672.149	1.63
672.333	1.58
672.517	1.56
672.701	1.66
672.885	1.56
673.069	1.47
673.253	1.64
673.437	1.54
673.621	1.51
673.804	1.55
673.988	1.57
674.172	1.5
674.356	1.43
674.54	1.49
674.724	1.6
674.908	1.48
675.091	1.5
675.275	1.45
675.459	1.52
675.643	1.52
675.826	1.52
676.01	1.48
676.194	1.44
676.377	1.44
676.561	1.47
676.745	1.46
676.928	1.44
677.112	1.47
677.296	1.37
677.479	1.38
677.663	1.39
677.846	1.38
678.03	1.39
678.213	1.29
678.397	1.42
678.58	1.33
678.764	1.36
678.947	1.29
679.131	1.27
679.314	1.45
679.498	1.32
679.681	1.37
679.865	1.36
680.048	1.31
680.231	1.32
680.415	1.34
680.598	1.24
680.781	1.27
680.965	1.26
681.148	1.31
681.331	1.24
681.514	1.29
681.698	1.24
681.881	1.25
682.064	1.25
682.247	1.25
682.43	1.18
682.614	1.22
682.797	1.29
682.98	1.24
683.163	1.11
683.346	1.25
683.529	1.29
683.712	1.18
683.895	1.21
684.078	1.09
684.261	1.14
684.444	1.24
684.627	1.2
684.81	1.14
684.993	1.11
685.176	1.21
685.359	1.12
685.542	1.09
685.725	1.19
685.908	1.13
686.091	1.15
686.274	1.22
686.457	1.18
686.639	1.12
686.822	1.17
687.005	1.08
687.188	1.2
687.371	1.21
687.553	1.16
687.736	1.14
687.919	1.28
688.102	1.15
688.284	1.05
688.467	1.02
688.65	1.05
688.832	1
689.015	1.08
689.197	0.97
689.38	1.15
689.563	1.18
689.745	1.03
689.928	1
690.11	0.99
690.293	1.04
690.475	0.94
690.658	1.04
690.84	1.03
691.023	1.06
691.205	0.95
691.388	1
691.57	1.14
691.752	1.03
691.935	0.89
692.117	0.95
692.3	1.05
692.482	0.98
692.664	0.89
692.847	0.95
693.029	1.07
693.211	1.04
693.393	0.93
693.576	0.91
693.758	0.93
693.94	0.9
694.122	1.01
694.304	0.9
694.487	0.92
694.669	0.99
694.851	0.84
695.033	0.89
695.215	0.9
695.397	0.89
695.579	0.95
695.761	0.82
695.943	0.86
696.125	0.98
696.308	0.93
696.49	0.83
696.671	1.05
696.853	0.86
697.035	1.1
697.217	0.85
697.399	0.95
697.581	0.77
697.763	0.83
697.945	0.8
698.127	0.89
698.309	0.87
698.491	0.87
698.672	0.88
698.854	0.92
699.036	0.95
699.218	0.84
699.399	0.89
699.581	0.93
699.763	0.84
699.945	0.77
700.126	0.75
700.308	0.88
700.49	0.79
700.671	0.73
700.853	0.75
701.035	0.82
701.216	0.89
701.398	0.72
701.579	0.69
701.761	0.86
701.943	0.78
702.124	0.8
702.306	0.75
702.487	0.95
702.669	0.74
702.85	0.76
703.031	0.7
703.213	0.92
703.394	0.89
703.576	0.75
703.757	0.86
703.938	0.85
704.12	0.9
704.301	0.78
704.483	0.72
704.664	0.82
704.845	0.88
705.026	0.78
705.208	0.76
705.389	0.72
705.57	0.81
705.751	0.71
705.933	0.75
706.114	0.74
706.295	0.74
706.476	0.64
706.657	0.84
706.838	0.71
707.02	0.79
707.201	0.64
707.382	0.66
707.563	0.77
707.744	0.68
707.925	0.64
708.106	0.67
708.287	0.72
708.468	0.79
708.649	0.67
708.83	0.79
709.011	0.67
709.192	0.71
709.373	0.61
709.554	0.65
709.734	0.77
709.915	0.71
710.096	0.64
710.277	0.5
710.458	0.66
710.639	0.73
710.819	0.53
711	0.6
711.181	0.76
711.362	0.72
711.542	0.69
711.723	0.69
711.904	0.78
712.085	0.73
712.265	0.59
712.446	0.59
712.627	0.66
712.807	0.62
712.988	0.65
713.168	0.47
713.349	0.66
713.53	0.53
713.71	0.5
713.891	0.58
714.071	0.57
714.252	0.61
714.432	0.57
714.613	0.61
714.793	0.62
714.974	0.77
715.154	0.67
715.334	0.63
715.515	0.7
715.695	0.46
715.876	0.47
716.056	0.51
716.236	0.56
716.417	0.57
716.597	0.57
716.777	0.85
716.957	0.55
717.138	0.64
717.318	0.53
717.498	0.48
717.678	0.61
717.859	0.61
718.039	0.56
718.219	0.54
718.399	0.55
718.579	0.55
718.759	0.52
718.939	0.56
719.12	0.67
719.3	0.61
719.48	0.44
719.66	0.4
719.84	0.68
720.02	0.55
720.2	0.5
720.38	0.49
720.56	0.69
720.74	0.4
720.92	0.58
721.1	0.64
721.279	0.7
721.459	0.67
721.639	0.46
721.819	0.58
721.999	0.5
722.179	0.57
722.359	0.38
722.538	0.54
722.718	0.58
722.898	0.59
723.078	0.46
723.257	0.49
723.437	0.46
723.617	0.54
723.797	0.59
723.976	0.51
724.156	0.58
724.336	0.62
724.515	0.69
724.695	0.37
724.874	0.51
725.054	0.61
725.234	0.38
725.413	0.51
725.593	0.54
725.772	0.55
725.952	0.56
726.131	0.43
726.311	0.42
726.49	0.49
726.67	0.5
726.849	0.47
727.028	0.54
727.208	0.46
727.387	0.56
727.567	0.42
727.746	0.48
727.925	0.44
728.105	0.43
728.284	0.48
728.463	0.37
728.643	0.54
728.822	0.35
729.001	0.49
729.18	0.5
729.359	0.63
729.539	0.5
729.718	0.6
729.897	0.6
730.076	0.51
730.255	0.4
730.434	0.49
730.614	0.52
730.793	0.61
730.972	0.38
731.151	0.5
731.33	0.61
731.509	0.51
731.688	0.46
731.867	0.51
732.046	0.29
732.225	0.63
732.404	0.39
732.583	0.4
732.762	0.5
732.941	0.51
733.12	0.51
733.298	0.47
733.477	0.62
733.656	0.45
733.835	0.34
734.014	0.58
734.193	0.44
734.371	0.69
734.55	0.57
734.729	0.47
734.908	0.45
735.086	0.59
735.265	0.56
735.444	0.34
735.623	0.42
735.801	0.42
735.98	0.47
736.159	0.44
736.337	0.53
736.516	0.58
736.694	0.5
736.873	0.33
737.052	0.78
737.23	0.83
737.409	0.56
737.587	0.68
737.766	0.3
737.944	0.39
738.123	0.44
738.301	0.5
738.479	0.58
738.658	0.49
738.836	0.24
739.015	0.44
739.193	0.58
739.371	0.36
739.55	0.42
739.728	0.4
739.906	0.59
740.085	0.65
740.263	0.51
740.441	0.27
740.62	0.68
740.798	0.61
740.976	0.47
741.154	0.48
741.332	0.62
741.511	0.48
741.689	0.55
741.867	0.47
742.045	0.49
742.223	0.43
742.401	0.26
742.579	0.42
742.757	0.56
742.935	0.38
743.114	0.37
743.292	0.37
743.47	0.55
743.648	0.57
743.826	0.3
744.004	0.49
744.181	0.5
744.359	0.39
744.537	0.48
744.715	0.3
744.893	0.42
745.071	0.55
745.249	0.45
745.427	0.36
745.605	0.52
745.782	0.37
745.96	0.5
746.138	0.56
746.316	0.59
746.493	0.39
746.671	0.46
746.849	0.41
747.027	0.67
747.204	0.32
747.382	0.45
747.56	0.28
747.737	0.37
747.915	0.42
748.093	0.52
748.27	0.32
748.448	0.3
748.625	0.29
748.803	0.39
748.98	0.34
749.158	0.56
749.335	0.56
749.513	0.36
749.69	0.42
749.868	0.37
750.045	0.54
750.223	0.29
750.4	0.22
750.578	0.54
750.755	0.42
750.932	0.25
751.11	0.44
751.287	0.26
751.464	0.67
751.642	0.22
751.819	0.45
751.996	0.4
752.173	0.38
752.351	0.35
752.528	0.49
752.705	0.41
752.882	0.3
753.06	0.39
753.237	0.41
753.414	0.71
753.591	0.63
753.768	0.38
753.945	0.39
754.122	0.38
754.299	0.47
754.476	0.23
754.654	0.39
754.831	0.55
755.008	0.47
755.185	0.26
755.362	0.33
755.539	0.49
755.716	0.34
755.892	0.43
756.069	0.44
756.246	0.45
756.423	0.44
756.6	0.48
756.777	0.4
756.954	0.45
757.131	0.33
757.307	0.26
757.484	0.25
757.661	0.42
757.838	0.33
758.015	0.24
758.191	0.5
758.368	0.43
758.545	0.58
758.721	0.49
758.898	0.27
759.075	0.38
759.251	0.47
759.428	0.41
759.605	0.12
759.781	0.29
759.958	0.4
760.134	0.36
760.311	0.29
760.488	0.47
760.664	0.64
760.841	0.33
761.017	0.22
761.194	0.43
761.37	0.56
761.547	0.43
761.723	0.35
761.899	0.51
762.076	0.26
762.252	0.28
762.429	0.28
762.605	0.52
762.781	0.41
762.958	0.37
763.134	0.25
763.31	0.27
763.486	0.47
763.663	0.13
763.839	0.4
764.015	0.09
764.191	0.33
764.368	0.38
764.544	0.35
764.72	0.45
764.896	0.43
765.072	0.48
765.248	0.28
765.425	0.36
765.601	0.39
765.777	0.38
765.953	0.09
766.129	0.38
766.305	0.32
766.481	0.56
766.657	0.49
766.833	0.54
767.009	0.25
767.185	0.32
767.361	0.28
767.537	0.23
767.713	0.6
767.889	0.35
768.065	0.41
768.24	0.65
768.416	0.51
768.592	0.27
768.768	0.39
768.944	0.51
769.12	0.24
769.295	0.32
769.471	0.26
769.647	0.33
769.823	0.66
769.998	0.18
770.174	0.35
770.35	0.78
770.525	0.71
770.701	0.48
770.877	0.42
771.052	0.14
771.228	0.5
771.403	0.38
771.579	0.47
771.755	0.65
771.93	0.35
772.106	0.15
772.281	0.01
772.457	0.31
772.632	0.39
772.808	0.27
772.983	0.12
773.159	0.1
773.334	0.65
773.509	0.48
773.685	0.18
773.86	0.81
774.036	0.53
774.211	0.4
774.386	0.31
774.562	0.46
774.737	0.57
774.912	0.22
775.087	0.55
775.263	0.45
775.438	0.38
775.613	0.43
775.788	0.18
775.964	0.35
776.139	0.95
776.314	0.09
776.489	0.39
776.664	0.45
776.839	0.16
777.014	0.47
777.19	0.48
777.365	0.77
777.54	0.61
777.715	0.19
777.89	0.45
778.065	0.16
778.24	0.43
778.415	0.51
778.59	0.2
778.765	0.19
778.94	0.47
779.115	0.34
779.289	0.28
779.464	0.46
779.639	0.31
779.814	0.08
779.989	0.13
780.164	0.53
780.339	0.4
780.513	0.37
780.688	0.11
780.863	0.46
781.038	0.5
781.212	0.12
781.387	0.32
781.562	0.86
781.737	0.38
781.911	0.53
782.086	0.16
782.261	0.48
782.435	0.65
782.61	0.3
782.784	0.3
782.959	0.59
783.134	0.58
783.308	-0.04
783.483	0.31
783.657	1.07
783.832	0.62
784.006	-0
784.181	0.33
784.355	0.43
784.53	0.4
784.704	0.21
784.878	0.56
785.053	0.66
785.227	0.7
785.402	0.68
785.576	0.08
785.75	0.53
785.925	0.29
786.099	0.33
786.273	0.6
786.448	0.62
786.622	0.77
786.796	0.3
786.97	0.55
787.145	1.04
787.319	-0.18
787.493	0.38
787.667	0.1
787.841	0.68
788.015	0.8
788.19	0.18
788.364	0.32
788.538	0.66
788.712	0.76
788.886	0.27
789.06	0.53
789.234	0.78
789.408	0.26
789.582	0.28
789.756	0.19
789.93	0.46
790.104	0.3
790.278	0.42
790.452	0.23
790.626	0.5
790.8	0.49
790.973	0.52
791.147	0.87
791.321	0.76
791.495	0.78
791.669	0.41
791.843	0.39
792.016	0.62
792.19	1.04
792.364	0.14
792.538	0.81
792.711	0.79
792.885	0.36
793.059	0.19
793.233	0.04
793.406	0.69
793.58	0.57
793.754	0.65
793.927	0.37
794.101	0.67
794.274	0.54
794.448	0.59
794.622	0.15
794.795	0.92
794.969	0.33
795.142	0.93
795.316	0.16
795.489	0.36
795.663	0.85
795.836	0.77
796.009	0.12
796.183	0.74
796.356	0.76
796.53	0.21
796.703	0.48
796.876	1.24
797.05	0.52
797.223	0.54
797.396	0.55
797.57	0.41
797.743	0.97
797.916	0.54
798.09	0.45
798.263	0.66
798.436	0.66
798.609	0.29
798.782	0.39
798.956	0.76
799.129	0.65
799.302	0.2
799.475	0.34
799.648	0.32
799.821	0.28
799.994	0.71
800.167	0.06
800.34	0.43
800.514	0.41
800.687	0.57
800.86	0.43
801.033	0.55
801.206	0.63
801.379	0.25
801.551	0.81
801.724	0.66
801.897	1.18
802.07	0.33
802.243	-0.16
802.416	0.38
802.589	0.69
802.762	0.94
802.935	0.43
803.107	0.76
803.28	0.99
803.453	0.63
803.626	0.35
803.798	0.8
803.971	0.41
804.144	0.8
804.317	0.5
804.489	1.08
804.662	0.35
804.835	0.4
805.007	0.27
805.18	1.07
805.353	0.62
805.525	0.28
805.698	0.37
805.87	1.11
806.043	0.89
806.215	0.04
806.388	0.46
806.56	0.67
806.733	1.06
806.905	0.55
807.078	0.5
807.25	0.45
807.423	0.74
807.595	0.74
807.768	0.58
807.94	0.6
808.112	1.09
808.285	0.48
808.457	0.52
808.629	0.24
808.802	0.89
808.974	0.56
809.146	0.4
809.318	0.43
809.491	0.77
809.663	0.39
809.835	0.3
810.007	0.97
810.18	0.69
810.352	0.1
810.524	0.48
810.696	0.43
810.868	1.03
811.04	0.62
811.212	0.33
811.384	1.05
811.556	0.83
811.728	0.41
811.901	1.45
812.073	0.63
812.245	1.22
812.417	0.56
812.589	-0.23
812.76	1.06
812.932	0.78
813.104	0.99
813.276	0.47
813.448	0.85
813.62	0.56
813.792	0.74
813.964	0.39
814.136	0.85
814.307	0.24
814.479	0.34
814.651	0.46
814.823	1.8
814.995	0.15
815.166	0.49
815.338	0.53
815.51	0.06
815.681	1.44
815.853	0.81
816.025	0.62
816.196	1.2
816.368	1.18
816.54	0
816.711	-0.11
816.883	1.48
817.054	1.97
817.226	-0.04
817.398	0.81
817.569	0.39
817.741	0.82
817.912	0.72
818.084	0.49
818.255	1.33
818.426	-0.03
818.598	0.42
818.769	0.23
818.941	0.79
819.112	1.25
819.283	0.59
819.455	0.34
819.626	0.36
819.798	1.31
819.969	0.68
820.14	0.51
820.311	0.56
820.483	0.65
820.654	1.23
820.825	0.46
820.996	0.6
821.168	0.32
821.339	0.45
821.51	-0.03
821.681	0.52
821.852	0.6
822.023	-0.11
822.195	-0.23
822.366	1.54
822.537	0.7
822.708	0.28
822.879	0.05
823.05	1.64
823.221	0.63
823.392	0.8
823.563	0.42
823.734	0.83
823.905	0.78
824.076	0.5
824.247	0.47
824.418	0.44
824.589	1.79
824.759	0.72
824.93	0.79
825.101	0.09
825.272	1.75
825.443	1.31
825.614	1.3
825.784	-0.42
825.955	2.27
826.126	0.95
826.297	0.85
826.467	1.92
826.638	1.93
826.809	0.12
826.98	0.31
827.15	1.39
827.321	0.44
827.492	1.99
827.662	0.83
827.833	1.88
828.003	1.31
828.174	-0.05
828.345	0.31
828.515	1.73
828.686	1.04
828.856	0.38
829.027	0.84
829.197	1.21
829.368	1.36
829.538	0.41
829.709	0.27
829.879	1.05
830.049	1.07
830.22	0.71
830.39	0.46
830.56	1.49
830.731	0.4
830.901	0.26
831.072	0.55
831.242	1.23
831.412	1.23
831.582	0.76
831.753	-0.36
831.923	1.16
832.093	1.32
832.263	0.88
832.434	0.44
832.604	0.69
832.774	1.68
832.944	0.18
833.114	-0.3
833.284	1.61
833.454	0.36
833.624	0.69
833.795	0.86
833.965	1.99
834.135	1.63
834.305	-0.57
834.475	-0.05
834.645	1.34
834.815	0.74
834.985	0.51
835.155	0.3
835.325	1.14
835.494	1.38
835.664	0.85
835.834	0.7
836.004	0.84
836.174	1.16
836.344	0.23
836.514	-0.24
836.684	0.76
836.853	1.07
837.023	1.74
837.193	0.59
837.363	1.45
837.532	1.85
837.702	0.42
837.872	0.22
838.041	1.69
838.211	2.7
838.381	-0.09
838.55	0.81
838.72	3.77
838.89	2.5
839.059	0.42
839.229	0.33
839.398	3.08
839.568	1.38
839.738	0.57
839.907	1.74
840.077	1.11
840.246	0.69
840.416	0.44
840.585	0
840.755	2.3
840.924	1.88
841.093	-0.51
841.263	1.01
841.432	0.93
841.602	-0.08
841.771	-0.26
841.94	1.05
842.11	3.36
842.279	2.72
842.448	0.31
842.617	0.25
842.787	2.41
842.956	0.05
843.125	0.79
843.294	0.98
843.464	2.61
843.633	0.87
843.802	0.21
843.971	0.84
844.14	2.06
844.309	1.47
844.479	-0.97
844.648	-0.23
844.817	1.24
844.986	1.44
845.155	0.76
845.324	1.09
845.493	0.82
845.662	1.24
845.831	1.92
846	0.85
846.169	0.96
846.338	2.13
846.507	1.07
846.676	1.16
846.844	0.22
847.013	2.22
847.182	1.27
847.351	0.32
847.52	1.67
847.689	1.63
847.858	1.25
848.026	0.3
848.195	1.72
848.364	0.49
848.533	0.43
848.701	0.21
848.87	1.91
849.039	2.65
849.207	1.76
849.376	2.55
849.545	2.8
849.713	1.02
849.882	0.37
850.051	1.21
850.219	1.33
850.388	1.39
850.556	0.12
850.725	0.29
850.893	0.81
851.062	0.98
851.23	1.87
851.399	0.27
851.567	1.08
851.736	0.74
851.904	0.38
852.073	0.99
852.241	2.79
852.41	1.9
852.578	1.3
852.746	0.07
852.915	2.33
853.083	1.27
853.251	-0.22
853.42	0.32
853.588	0.98
853.756	2.94
853.924	0.35
854.093	0.77
854.261	0.77
854.429	0.22
854.597	1
854.765	0.04
854.934	2.79
855.102	2.84
855.27	0.73
855.438	1.58
855.606	3.09
855.774	4.09
855.942	-0.01
856.11	-0.26
856.278	1.61
856.446	2.89
856.614	0.51
856.782	-0.15
856.95	2.36
857.118	2.02
857.286	1.17
857.454	0.16
857.622	2.69
857.79	2.13
857.958	-0.83
858.126	0.18
858.294	-0.8
858.462	1.98
858.629	0.3
858.797	0.07
858.965	1.87
859.133	1.42
859.301	1.54
859.468	2.48
859.636	0.72
859.804	3.01
859.971	2.17
860.139	0.6
860.307	2.97
860.474	2.82
860.642	0.57
860.81	0.3
860.977	1.76
861.145	3.62
861.313	1.31
861.48	1.59
861.648	2.98
861.815	1.78
861.983	1.05
862.15	1.02
862.318	3.89
862.485	2.38
862.653	-0.9
862.82	0.16
862.988	3.49
863.155	-0.6
863.322	-0.05
863.49	-0.27
863.657	1.04
863.824	3.11
863.992	2.06
864.159	1.61
864.326	4.01
864.494	1.66
864.661	3.75
864.828	-0.22
864.996	3.89
865.163	4.88
865.33	0.6
865.497	-1.59
865.664	1.51
865.832	-0.85
865.999	0.81
866.166	-0.75
866.333	2.09
866.5	2.13
866.667	1.25
866.834	-0.25
867.001	4.49
867.168	0.09
867.335	0.12
867.502	-1.35
867.669	1.75
867.836	5.94
868.003	1.08
868.17	3.51
868.337	5.8
868.504	6.21
868.671	-1.41
868.838	0.61
869.005	4.65
869.172	2.03
869.339	1.41
869.505	2.27
869.672	3.21
869.839	3.79
870.006	2.9
870.173	-0.35
870.339	3.49
870.506	6.82
870.673	0.44
870.84	1.8
871.006	2.82
871.173	2.02
871.34	1.71
871.506	-0.58
871.673	4.31
871.839	-0.93
872.006	1.9
872.173	1.86
872.339	0.83
872.506	5.09
872.672	0.28
872.839	0.97
873.005	1.48
873.172	6.14
873.338	2.1
873.505	0.91
873.671	0.96
873.838	0.95
874.004	-0.32
874.171	0.39
874.337	3.89
874.503	4.33
874.67	1.09
874.836	1.31
875.002	5.19
875.169	5.09
875.335	1.62
875.501	1.7
875.668	4.07
875.834	1.47
876	1.96
876.166	4.15
876.332	3.57
876.499	5.58
876.665	1.51
876.831	1.28
876.997	5.33
877.163	1.18
877.329	2.16
877.495	2.11
877.662	3.11
877.828	2.4
877.994	2.84
878.16	-2.7
878.326	0.46
878.492	3.96
878.658	0.5
878.824	2.62
878.99	5.65
879.156	1.98
879.322	5.25
879.487	0.81
879.653	2.54
879.819	2.01
879.985	-0.13
880.151	2.99
880.317	2.66
880.483	4.37
880.648	2.45
880.814	-1.01
880.98	4.03
881.146	-0.88
881.312	1.3
881.477	0.9
881.643	1.92
881.809	2.81
881.974	4.01
882.14	-3.17
882.306	2.18
882.471	7.33
882.637	1.67
882.803	2.81
882.968	5.48
883.134	6.77
883.299	1.7
883.465	1.53
883.63	4.39
883.796	3.04
883.961	2.43
884.127	3.42
884.292	-1.71
884.458	2.75
884.623	2.75
