Data from Apollo_Calib_20240827__AbsoluteIrradiance__853__13-22-02-818.txt Node

Date: Wed Aug 28 13:22:02 BST 2024
User: biology
Spectrometer: FLMT08252
Trigger mode: 0
Integration Time (sec): 5.000000E-1
Scans to average: 5
Electric dark correction enabled: true
Nonlinearity correction enabled: false
Boxcar width: 0
XAxis mode: Wavelengths
Number of Pixels in Spectrum: 3648
>>>>>Begin Spectral Data<<<<<
179.588	-0
179.809	-0
180.03	-0
180.251	-0
180.473	-0
180.694	0
180.915	0
181.136	-0
181.357	0
181.578	-0
181.799	-0
182.02	-0
182.241	-0
182.462	-0
182.683	0
182.904	-0
183.125	-0
183.346	0
183.567	0
183.788	0
184.009	0
184.23	0
184.451	0
184.672	0
184.892	0
185.113	0
185.334	0
185.555	0
185.776	0
185.996	0
186.217	0
186.438	0
186.659	0
186.879	0
187.1	0
187.321	0
187.541	0
187.762	0
187.983	0
188.203	0
188.424	0
188.644	0
188.865	0
189.086	0
189.306	0
189.527	0
189.747	0
189.968	0
190.188	0
190.409	0
190.629	0
190.849	0
191.07	0
191.29	0
191.511	0
191.731	0
191.951	0
192.172	0
192.392	0
192.612	0
192.833	0
193.053	0
193.273	0
193.493	0
193.714	0
193.934	0
194.154	0
194.374	0
194.594	0
194.815	0
195.035	0
195.255	0
195.475	0
195.695	0
195.915	0
196.135	0
196.355	0
196.575	0
196.795	0
197.015	0
197.235	0
197.455	0
197.675	0
197.895	0
198.115	0
198.335	0
198.555	0
198.775	0
198.995	0
199.214	0
199.434	0
199.654	0
199.874	0
200.094	4.34
200.313	2.28
200.533	1.89
200.753	1.81
200.973	3.94
201.192	3.76
201.412	1.52
201.632	1.99
201.851	3.61
202.071	1.6
202.291	1.67
202.51	1.32
202.73	2.94
202.95	1.92
203.169	1.2
203.389	1.48
203.608	1.81
203.828	1.68
204.047	1.41
204.267	2.43
204.486	1.95
204.706	1.93
204.925	1.7
205.145	1.61
205.364	2.12
205.583	2.83
205.803	1.3
206.022	1.22
206.242	1.66
206.461	1.82
206.68	0.83
206.9	1.78
207.119	2.35
207.338	1.95
207.557	1.08
207.777	1.3
207.996	1.56
208.215	2.2
208.434	1.12
208.654	0.86
208.873	1.62
209.092	2.17
209.311	0.97
209.53	1.08
209.749	1.36
209.968	1.34
210.187	1
210.407	0.56
210.626	1.12
210.845	1.67
211.064	1.23
211.283	1.01
211.502	1.61
211.721	1.28
211.94	0.94
212.159	1.19
212.377	1.43
212.596	1.61
212.815	1.12
213.034	1.22
213.253	1.63
213.472	1.16
213.691	1.1
213.91	0.81
214.128	0.91
214.347	1.6
214.566	0.45
214.785	0.51
215.003	1.21
215.222	1.21
215.441	0.92
215.66	0.47
215.878	0.92
216.097	1.34
216.316	0.73
216.534	0.74
216.753	1.15
216.972	0.81
217.19	0.92
217.409	0.78
217.627	0.76
217.846	0.67
218.064	1.04
218.283	0.54
218.501	1.22
218.72	1.12
218.938	0.47
219.157	0.67
219.375	1.12
219.594	0.94
219.812	0.57
220.031	0.62
220.249	1.29
220.467	1.05
220.686	0.65
220.904	0.54
221.122	0.59
221.341	1.11
221.559	0.6
221.777	0.34
221.995	0.77
222.214	1.04
222.432	0.63
222.65	0.92
222.868	0.7
223.086	0.97
223.305	0.77
223.523	0.62
223.741	1.12
223.959	0.79
224.177	0.38
224.395	0.53
224.613	0.76
224.831	0.94
225.049	0.4
225.267	0.64
225.485	0.79
225.703	0.53
225.921	0.46
226.139	0.51
226.357	0.92
226.575	0.88
226.793	0.5
227.011	1.67
227.229	0.92
227.447	0.92
227.665	0.53
227.883	0.34
228.1	0.77
228.318	0.65
228.536	0.31
228.754	0.49
228.972	0.7
229.189	0.86
229.407	0.48
229.625	0.4
229.843	0.94
230.06	0.75
230.278	0.41
230.496	0.59
230.713	0.6
230.931	0.76
231.149	0.53
231.366	0.33
231.584	0.56
231.801	0.93
232.019	0.45
232.236	0.27
232.454	0.47
232.671	0.76
232.889	0.35
233.106	0.42
233.324	0.61
233.541	0.57
233.759	0.55
233.976	0.5
234.194	0.52
234.411	0.56
234.628	0.33
234.846	0.36
235.063	0.43
235.28	0.66
235.498	0.48
235.715	0.41
235.932	0.79
236.149	0.51
236.367	0.22
236.584	0.55
236.801	0.44
237.018	0.8
237.236	0.49
237.453	0.22
237.67	0.66
237.887	0.47
238.104	0.51
238.321	0.45
238.538	0.44
238.755	0.68
238.973	0.35
239.19	0.51
239.407	0.65
239.624	0.62
239.841	0.39
240.058	0.33
240.275	0.56
240.492	0.57
240.709	0.46
240.925	0.43
241.142	0.5
241.359	0.39
241.576	0.28
241.793	0.35
242.01	0.45
242.227	0.65
242.444	0.6
242.66	0.71
242.877	0.58
243.094	0.37
243.311	0.34
243.527	0.4
243.744	0.47
243.961	0.54
244.178	0.35
244.394	0.43
244.611	0.64
244.828	0.6
245.044	0.34
245.261	0.36
245.477	0.54
245.694	0.49
245.911	0.34
246.127	0.5
246.344	0.7
246.56	0.51
246.777	0.39
246.993	0.42
247.21	0.45
247.426	0.65
247.643	0.37
247.859	0.29
248.076	0.39
248.292	0.73
248.508	0.27
248.725	0.41
248.941	0.51
249.157	0.62
249.374	0.32
249.59	0.34
249.806	0.38
250.023	0.66
250.239	0.24
250.455	0.31
250.671	0.46
250.888	0.49
251.104	0.47
251.32	0.31
251.536	0.44
251.752	0.38
251.969	0.38
252.185	0.35
252.401	0.58
252.617	0.48
252.833	0.3
253.049	0.41
253.265	0.54
253.481	0.46
253.697	0.36
253.913	0.36
254.129	0.47
254.345	0.38
254.561	0.38
254.777	0.3
254.993	0.47
255.209	0.37
255.425	0.34
255.641	0.25
255.857	0.57
256.073	0.47
256.288	0.3
256.504	0.3
256.72	0.43
256.936	0.66
257.152	0.37
257.367	0.32
257.583	0.37
257.799	0.41
258.015	0.33
258.23	0.32
258.446	0.51
258.662	0.4
258.877	0.32
259.093	0.32
259.309	0.47
259.524	0.44
259.74	0.3
259.955	0.23
260.171	0.35
260.387	0.35
260.602	0.44
260.818	0.4
261.033	0.26
261.249	0.36
261.464	0.31
261.68	0.23
261.895	0.46
262.11	0.44
262.326	0.37
262.541	0.3
262.757	0.57
262.972	0.45
263.187	0.39
263.403	0.37
263.618	0.56
263.833	0.33
264.049	0.32
264.264	0.35
264.479	0.38
264.694	0.54
264.91	0.25
265.125	0.31
265.34	0.43
265.555	0.58
265.77	0.28
265.986	0.25
266.201	0.39
266.416	0.52
266.631	0.29
266.846	0.29
267.061	0.46
267.276	0.44
267.491	0.2
267.706	0.4
267.921	0.44
268.136	0.34
268.351	0.35
268.566	0.21
268.781	0.41
268.996	0.43
269.211	0.22
269.426	0.27
269.641	0.33
269.856	0.48
270.071	0.26
270.285	0.19
270.5	0.45
270.715	0.37
270.93	0.3
271.145	0.4
271.359	0.49
271.574	0.26
271.789	0.34
272.004	0.25
272.218	0.36
272.433	0.4
272.648	0.28
272.862	0.36
273.077	0.36
273.292	0.35
273.506	0.26
273.721	0.27
273.936	0.42
274.15	0.43
274.365	0.27
274.579	0.36
274.794	0.36
275.008	0.44
275.223	0.28
275.437	0.22
275.652	0.42
275.866	0.39
276.081	0.29
276.295	0.37
276.509	0.32
276.724	0.4
276.938	0.3
277.153	0.39
277.367	0.36
277.581	0.23
277.796	0.29
278.01	0.24
278.224	0.37
278.438	0.48
278.653	0.26
278.867	0.3
279.081	0.18
279.295	0.28
279.51	0.29
279.724	0.22
279.938	0.42
280.152	0.36
280.366	0.25
280.58	0.31
280.794	0.43
281.008	0.35
281.222	0.35
281.437	0.53
281.651	0.31
281.865	0.45
282.079	0.28
282.293	0.15
282.507	0.27
282.721	0.32
282.935	0.27
283.148	0.17
283.362	0.29
283.576	0.22
283.79	0.32
284.004	0.24
284.218	0.39
284.432	0.31
284.646	0.3
284.859	0.28
285.073	0.28
285.287	0.3
285.501	0.37
285.714	0.28
285.928	0.3
286.142	0.34
286.356	0.23
286.569	0.28
286.783	0.41
286.997	0.39
287.21	0.28
287.424	0.28
287.637	0.3
287.851	0.26
288.065	0.4
288.278	0.21
288.492	0.29
288.705	0.24
288.919	0.33
289.132	0.21
289.346	0.39
289.559	0.18
289.773	0.21
289.986	0.26
290.2	0.28
290.413	0.32
290.626	0.24
290.84	0.24
291.053	0.26
291.267	0.43
291.48	0.31
291.693	0.25
291.906	0.22
292.12	0.25
292.333	0.26
292.546	0.2
292.76	0.37
292.973	0.32
293.186	0.33
293.399	0.31
293.612	0.36
293.826	0.28
294.039	0.25
294.252	0.27
294.465	0.36
294.678	0.32
294.891	0.24
295.104	0.2
295.317	0.24
295.53	0.26
295.743	0.25
295.956	0.29
296.169	0.38
296.382	0.28
296.595	0.25
296.808	0.21
297.021	0.36
297.234	0.35
297.447	0.26
297.66	0.3
297.873	0.35
298.086	0.36
298.299	0.25
298.511	0.18
298.724	0.26
298.937	0.21
299.15	0.2
299.363	0.22
299.575	0.29
299.788	0.32
300.001	0.25
300.213	0.25
300.426	0.26
300.639	0.24
300.852	0.2
301.064	0.32
301.277	0.38
301.489	0.31
301.702	0.27
301.915	0.25
302.127	0.23
302.34	0.31
302.552	0.31
302.765	0.18
302.977	0.39
303.19	0.23
303.402	0.23
303.615	0.27
303.827	0.26
304.04	0.26
304.252	0.28
304.464	0.25
304.677	0.42
304.889	0.3
305.102	0.23
305.314	0.2
305.526	0.27
305.739	0.29
305.951	0.21
306.163	0.25
306.375	0.34
306.588	0.22
306.8	0.28
307.012	0.16
307.224	0.27
307.436	0.32
307.649	0.17
307.861	0.24
308.073	0.31
308.285	0.24
308.497	0.17
308.709	0.22
308.921	0.24
309.133	0.33
309.346	0.22
309.558	0.23
309.77	0.31
309.982	0.35
310.194	0.27
310.406	0.16
310.617	0.4
310.829	0.24
311.041	0.29
311.253	0.24
311.465	0.27
311.677	0.26
311.889	0.23
312.101	0.21
312.313	0.35
312.524	0.36
312.736	0.19
312.948	0.25
313.16	0.37
313.372	0.29
313.583	0.31
313.795	0.22
314.007	0.25
314.218	0.33
314.43	0.23
314.642	0.2
314.853	0.15
315.065	0.3
315.277	0.29
315.488	0.24
315.7	0.29
315.912	0.3
316.123	0.24
316.335	0.25
316.546	0.42
316.758	0.25
316.969	0.22
317.181	0.22
317.392	0.27
317.604	0.32
317.815	0.24
318.026	0.27
318.238	0.23
318.449	0.34
318.661	0.15
318.872	0.17
319.083	0.24
319.295	0.29
319.506	0.22
319.717	0.24
319.929	0.3
320.14	0.26
320.351	0.26
320.562	0.16
320.774	0.26
320.985	0.27
321.196	0.23
321.407	0.18
321.618	0.34
321.829	0.28
322.041	0.3
322.252	0.25
322.463	0.31
322.674	0.31
322.885	0.21
323.096	0.24
323.307	0.24
323.518	0.29
323.729	0.21
323.94	0.21
324.151	0.25
324.362	0.3
324.573	0.18
324.784	0.22
324.995	0.3
325.206	0.29
325.417	0.22
325.628	0.25
325.838	0.24
326.049	0.26
326.26	0.33
326.471	0.22
326.682	0.28
326.892	0.23
327.103	0.18
327.314	0.2
327.525	0.3
327.735	0.3
327.946	0.24
328.157	0.23
328.368	0.3
328.578	0.23
328.789	0.33
328.999	0.28
329.21	0.26
329.421	0.32
329.631	0.24
329.842	0.21
330.052	0.28
330.263	0.26
330.473	0.33
330.684	0.2
330.894	0.27
331.105	0.25
331.315	0.29
331.526	0.17
331.736	0.34
331.947	0.3
332.157	0.25
332.367	0.16
332.578	0.31
332.788	0.32
332.999	0.27
333.209	0.23
333.419	0.2
333.629	0.31
333.84	0.33
334.05	0.25
334.26	0.38
334.47	0.28
334.681	0.29
334.891	0.2
335.101	0.32
335.311	0.37
335.521	0.25
335.732	0.18
335.942	0.33
336.152	0.31
336.362	0.31
336.572	0.25
336.782	0.29
336.992	0.26
337.202	0.22
337.412	0.23
337.622	0.29
337.832	0.25
338.042	0.24
338.252	0.21
338.462	0.26
338.672	0.24
338.882	0.19
339.092	0.24
339.302	0.38
339.511	0.26
339.721	0.26
339.931	0.17
340.141	0.33
340.351	0.31
340.561	0.25
340.77	0.26
340.98	0.29
341.19	0.26
341.4	0.3
341.609	0.21
341.819	0.26
342.029	0.21
342.238	0.25
342.448	0.27
342.658	0.27
342.867	0.26
343.077	0.22
343.286	0.26
343.496	0.27
343.706	0.33
343.915	0.17
344.125	0.27
344.334	0.27
344.544	0.19
344.753	0.23
344.963	0.18
345.172	0.22
345.381	0.21
345.591	0.2
345.8	0.26
346.01	0.34
346.219	0.32
346.428	0.13
346.638	0.26
346.847	0.21
347.056	0.35
347.266	0.21
347.475	0.23
347.684	0.26
347.893	0.27
348.103	0.26
348.312	0.23
348.521	0.24
348.73	0.26
348.94	0.26
349.149	0.22
349.358	0.24
349.567	0.22
349.776	0.2
349.985	0.22
350.194	0.33
350.403	0.3
350.612	0.17
350.821	0.22
351.03	0.26
351.239	0.22
351.448	0.25
351.657	0.25
351.866	0.32
352.075	0.24
352.284	0.33
352.493	0.22
352.702	0.29
352.911	0.28
353.12	0.22
353.329	0.27
353.538	0.26
353.746	0.24
353.955	0.14
354.164	0.27
354.373	0.22
354.582	0.32
354.79	0.27
354.999	0.28
355.208	0.23
355.416	0.37
355.625	0.18
355.834	0.23
356.042	0.31
356.251	0.24
356.46	0.22
356.668	0.24
356.877	0.37
357.085	0.27
357.294	0.15
357.503	0.26
357.711	0.28
357.92	0.43
358.128	0.27
358.337	0.21
358.545	0.29
358.754	0.22
358.962	0.28
359.17	0.22
359.379	0.26
359.587	0.28
359.796	0.23
360.004	0.29
360.212	0.33
360.421	0.35
360.629	0.23
360.837	0.25
361.046	0.33
361.254	0.39
361.462	0.23
361.67	0.25
361.879	0.28
362.087	0.34
362.295	0.28
362.503	0.2
362.711	0.25
362.92	0.23
363.128	0.21
363.336	0.17
363.544	0.19
363.752	0.24
363.96	0.23
364.168	0.22
364.376	0.25
364.584	0.25
364.792	0.28
365	0.28
365.208	0.25
365.416	0.3
365.624	0.29
365.832	0.2
366.04	0.33
366.248	0.27
366.456	0.28
366.664	0.3
366.872	0.25
367.079	0.24
367.287	0.25
367.495	0.28
367.703	0.26
367.911	0.24
368.118	0.25
368.326	0.24
368.534	0.2
368.742	0.32
368.949	0.21
369.157	0.18
369.365	0.31
369.572	0.21
369.78	0.21
369.988	0.29
370.195	0.26
370.403	0.3
370.61	0.22
370.818	0.22
371.026	0.38
371.233	0.23
371.441	0.25
371.648	0.23
371.856	0.27
372.063	0.28
372.271	0.22
372.478	0.19
372.685	0.24
372.893	0.32
373.1	0.25
373.308	0.25
373.515	0.33
373.722	0.31
373.93	0.24
374.137	0.22
374.344	0.35
374.552	0.31
374.759	0.3
374.966	0.25
375.173	0.23
375.381	0.32
375.588	0.22
375.795	0.2
376.002	0.29
376.209	0.22
376.417	0.25
376.624	0.28
376.831	0.3
377.038	0.26
377.245	0.19
377.452	0.28
377.659	0.24
377.866	0.19
378.073	0.25
378.28	0.26
378.487	0.33
378.694	0.31
378.901	0.24
379.108	0.21
379.315	0.31
379.522	0.36
379.729	0.24
379.936	0.24
380.143	0.27
380.35	0.28
380.557	0.3
380.763	0.25
380.97	0.28
381.177	0.32
381.384	0.26
381.591	0.17
381.797	0.31
382.004	0.31
382.211	0.27
382.418	0.19
382.624	0.32
382.831	0.31
383.038	0.24
383.244	0.31
383.451	0.3
383.658	0.33
383.864	0.24
384.071	0.2
384.277	0.33
384.484	0.28
384.69	0.31
384.897	0.25
385.103	0.28
385.31	0.26
385.516	0.24
385.723	0.21
385.929	0.27
386.136	0.25
386.342	0.29
386.549	0.27
386.755	0.37
386.961	0.31
387.168	0.23
387.374	0.26
387.58	0.32
387.787	0.27
387.993	0.31
388.199	0.25
388.406	0.23
388.612	0.27
388.818	0.23
389.024	0.26
389.231	0.32
389.437	0.36
389.643	0.3
389.849	0.27
390.055	0.29
390.261	0.3
390.467	0.3
390.674	0.26
390.88	0.25
391.086	0.37
391.292	0.23
391.498	0.32
391.704	0.34
391.91	0.28
392.116	0.28
392.322	0.18
392.528	0.36
392.734	0.31
392.94	0.3
393.146	0.31
393.352	0.31
393.557	0.27
393.763	0.31
393.969	0.36
394.175	0.32
394.381	0.33
394.587	0.29
394.792	0.33
394.998	0.4
395.204	0.38
395.41	0.3
395.615	0.31
395.821	0.37
396.027	0.36
396.233	0.23
396.438	0.34
396.644	0.34
396.85	0.33
397.055	0.29
397.261	0.37
397.466	0.45
397.672	0.36
397.878	0.39
398.083	0.34
398.289	0.28
398.494	0.38
398.7	0.38
398.905	0.24
399.111	0.45
399.316	0.27
399.522	0.33
399.727	0.33
399.932	0.32
400.138	0.33
400.343	0.39
400.549	0.28
400.754	0.36
400.959	0.38
401.165	0.36
401.37	0.4
401.575	0.35
401.78	0.35
401.986	0.36
402.191	0.34
402.396	0.37
402.601	0.42
402.807	0.41
403.012	0.35
403.217	0.43
403.422	0.45
403.627	0.44
403.832	0.36
404.037	0.47
404.243	0.43
404.448	0.4
404.653	0.39
404.858	0.45
405.063	0.46
405.268	0.39
405.473	0.39
405.678	0.4
405.883	0.65
406.088	0.51
406.293	0.4
406.498	0.46
406.703	0.48
406.907	0.5
407.112	0.45
407.317	0.54
407.522	0.54
407.727	0.46
407.932	0.49
408.136	0.62
408.341	0.56
408.546	0.58
408.751	0.57
408.956	0.56
409.16	0.66
409.365	0.59
409.57	0.62
409.774	0.64
409.979	0.64
410.184	0.63
410.388	0.6
410.593	0.8
410.798	0.74
411.002	0.69
411.207	0.77
411.411	0.76
411.616	0.74
411.82	0.77
412.025	0.78
412.229	0.75
412.434	0.94
412.638	0.88
412.843	0.88
413.047	0.92
413.252	0.91
413.456	0.98
413.66	1.08
413.865	1.01
414.069	1.11
414.273	1.02
414.478	1.1
414.682	1.14
414.886	1.09
415.091	1.11
415.295	1.16
415.499	1.31
415.703	1.28
415.908	1.37
416.112	1.24
416.316	1.47
416.52	1.45
416.724	1.44
416.929	1.51
417.133	1.67
417.337	1.61
417.541	1.71
417.745	1.74
417.949	1.83
418.153	1.87
418.357	1.87
418.561	2.13
418.765	2.12
418.969	2.23
419.173	2.26
419.377	2.21
419.581	2.51
419.785	2.41
419.989	2.45
420.193	2.59
420.397	2.68
420.601	2.89
420.804	2.87
421.008	2.89
421.212	3.01
421.416	3.02
421.62	3.02
421.823	3.11
422.027	3.34
422.231	3.22
422.435	3.16
422.638	3.32
422.842	3.42
423.046	3.39
423.249	3.69
423.453	3.61
423.657	3.83
423.86	3.88
424.064	3.92
424.268	4.19
424.471	4.06
424.675	4.35
424.878	4.4
425.082	4.5
425.285	4.8
425.489	4.7
425.692	4.78
425.896	4.83
426.099	5.12
426.303	5.21
426.506	5.25
426.71	5.48
426.913	5.75
427.116	5.84
427.32	5.88
427.523	5.97
427.726	6.19
427.93	6.41
428.133	6.68
428.336	6.82
428.54	6.97
428.743	7.1
428.946	7.47
429.149	7.36
429.353	7.45
429.556	7.56
429.759	7.5
429.962	7.66
430.165	7.85
430.368	7.5
430.571	7.57
430.775	7.68
430.978	7.65
431.181	7.77
431.384	7.75
431.587	7.92
431.79	8.2
431.993	8.2
432.196	8.52
432.399	8.86
432.602	8.98
432.805	9.09
433.008	9.57
433.211	9.34
433.414	9.81
433.616	9.86
433.819	9.83
434.022	9.94
434.225	10.16
434.428	10.12
434.631	10.54
434.833	10.33
435.036	10.65
435.239	10.88
435.442	10.82
435.645	10.91
435.847	11.1
436.05	11.42
436.253	11.72
436.455	11.64
436.658	11.66
436.861	11.89
437.063	11.95
437.266	11.99
437.468	12.36
437.671	12.59
437.874	12.61
438.076	12.47
438.279	12.93
438.481	13
438.684	13.57
438.886	13.37
439.089	13.59
439.291	13.49
439.494	13.96
439.696	14.05
439.899	14.6
440.101	15.07
440.303	15.28
440.506	15.95
440.708	15.64
440.91	16
441.113	16.06
441.315	16.38
441.517	16.2
441.72	16.58
441.922	16.18
442.124	16.18
442.326	16.63
442.529	16.81
442.731	16.78
442.933	17.13
443.135	16.85
443.337	16.83
443.539	17.37
443.742	17.05
443.944	17.63
444.146	17.43
444.348	17.51
444.55	17.55
444.752	17.52
444.954	17.59
445.156	17.51
445.358	17.95
445.56	18.06
445.762	17.93
445.964	18.43
446.166	18.23
446.368	18.12
446.57	18.21
446.772	17.79
446.974	17.55
447.175	17.88
447.377	17.62
447.579	17.92
447.781	17.8
447.983	17.47
448.184	17.25
448.386	17.51
448.588	16.9
448.79	17.11
448.991	17.34
449.193	17.36
449.395	16.7
449.597	16.43
449.798	16.4
450	15.86
450.202	15.88
450.403	15.76
450.605	15.94
450.806	15.52
451.008	15.4
451.21	15.16
451.411	14.81
451.613	14.1
451.814	14.24
452.016	14.25
452.217	13.59
452.419	13.61
452.62	13.27
452.821	12.96
453.023	12.93
453.224	12.55
453.426	12.11
453.627	11.42
453.828	11.55
454.03	11.66
454.231	11.59
454.432	11.39
454.634	11.27
454.835	10.97
455.036	10.75
455.238	10.35
455.439	10.12
455.64	9.83
455.841	9.77
456.042	9.78
456.244	9.59
456.445	9.18
456.646	8.97
456.847	8.89
457.048	8.86
457.249	8.84
457.45	8.63
457.651	8.11
457.852	7.87
458.054	7.59
458.255	7.47
458.456	7.65
458.657	7.43
458.858	7
459.058	6.88
459.259	6.99
459.46	6.7
459.661	6.63
459.862	6.71
460.063	6.57
460.264	6.52
460.465	6.21
460.666	6.26
460.866	6.07
461.067	5.68
461.268	5.74
461.469	5.74
461.67	5.56
461.87	5.42
462.071	5.36
462.272	5.3
462.473	5.35
462.673	5.44
462.874	5.37
463.075	5.33
463.275	5.28
463.476	5.33
463.676	5.25
463.877	5.13
464.078	5.14
464.278	5.15
464.479	5.03
464.679	4.91
464.88	4.89
465.08	4.95
465.281	4.64
465.481	4.44
465.682	4.31
465.882	4.35
466.083	4.24
466.283	4.19
466.483	4.03
466.684	3.85
466.884	3.76
467.085	3.86
467.285	3.93
467.485	3.73
467.686	3.72
467.886	3.65
468.086	3.48
468.286	3.56
468.487	3.58
468.687	3.33
468.887	3.36
469.087	3.53
469.287	3.39
469.488	3.23
469.688	3.36
469.888	3.42
470.088	3.25
470.288	3.21
470.488	3.24
470.688	3.01
470.888	2.92
471.088	2.77
471.288	2.95
471.488	2.91
471.688	2.88
471.888	2.77
472.088	2.96
472.288	2.84
472.488	2.79
472.688	2.72
472.888	2.7
473.088	2.71
473.288	2.59
473.488	2.53
473.688	2.75
473.887	2.63
474.087	2.51
474.287	2.63
474.487	2.43
474.687	2.55
474.886	2.47
475.086	2.39
475.286	2.43
475.486	2.4
475.685	2.3
475.885	2.29
476.085	2.38
476.284	2.35
476.484	2.35
476.684	2.3
476.883	2.39
477.083	2.24
477.282	2.18
477.482	2.28
477.681	2.25
477.881	2.19
478.08	2.18
478.28	2.12
478.479	2.16
478.679	2.23
478.878	2.11
479.078	2.12
479.277	2.15
479.477	2.16
479.676	2.08
479.875	2.07
480.075	2.02
480.274	2.12
480.473	2.1
480.673	2.05
480.872	2.15
481.071	2.1
481.271	2.1
481.47	2.04
481.669	2.07
481.868	2
482.067	2.05
482.267	1.95
482.466	1.98
482.665	1.94
482.864	2.04
483.063	2.02
483.262	2.1
483.461	2.11
483.661	2.1
483.86	2.03
484.059	2.17
484.258	2.1
484.457	2.06
484.656	2.05
484.855	2.14
485.054	1.99
485.253	2.06
485.452	2.02
485.651	2.1
485.849	2.09
486.048	2.04
486.247	2.06
486.446	2.13
486.645	2.08
486.844	2.1
487.043	2.16
487.241	2.13
487.44	2.14
487.639	2.18
487.838	2.15
488.037	2.16
488.235	2.25
488.434	2.2
488.633	2.08
488.831	2.29
489.03	2.26
489.229	2.27
489.427	2.3
489.626	2.31
489.825	2.36
490.023	2.32
490.222	2.32
490.42	2.35
490.619	2.42
490.817	2.35
491.016	2.39
491.214	2.46
491.413	2.43
491.611	2.42
491.81	2.42
492.008	2.46
492.207	2.58
492.405	2.51
492.604	2.49
492.802	2.58
493	2.65
493.199	2.61
493.397	2.66
493.595	2.72
493.794	2.63
493.992	2.8
494.19	2.77
494.388	2.82
494.587	2.73
494.785	2.76
494.983	2.7
495.181	2.87
495.379	2.94
495.578	2.96
495.776	2.93
495.974	2.93
496.172	2.96
496.37	3.09
496.568	3.08
496.766	3.1
496.964	3.23
497.162	3.15
497.36	3.22
497.558	3.17
497.756	3.34
497.954	3.27
498.152	3.34
498.35	3.39
498.548	3.35
498.746	3.39
498.944	3.41
499.142	3.39
499.34	3.53
499.538	3.67
499.736	3.49
499.933	3.65
500.131	3.62
500.329	3.72
500.527	3.75
500.725	3.84
500.922	3.85
501.12	3.8
501.318	3.89
501.516	3.92
501.713	3.99
501.911	3.95
502.109	3.93
502.306	4.01
502.504	3.98
502.701	4.06
502.899	4.18
503.097	4.34
503.294	4.19
503.492	4.27
503.689	4.33
503.887	4.36
504.084	4.41
504.282	4.39
504.479	4.35
504.677	4.55
504.874	4.51
505.072	4.37
505.269	4.64
505.466	4.6
505.664	4.66
505.861	4.59
506.059	4.7
506.256	4.75
506.453	4.84
506.651	4.96
506.848	4.94
507.045	4.89
507.242	4.88
507.44	4.97
507.637	5.02
507.834	5.02
508.031	5.14
508.229	5.04
508.426	5.03
508.623	5.2
508.82	5.18
509.017	5.17
509.214	5.21
509.411	5.31
509.608	5.3
509.805	5.41
510.003	5.38
510.2	5.44
510.397	5.57
510.594	5.45
510.791	5.56
510.988	5.61
511.184	5.56
511.381	5.46
511.578	5.59
511.775	5.78
511.972	5.66
512.169	5.71
512.366	5.79
512.563	5.91
512.76	5.92
512.956	5.89
513.153	5.8
513.35	5.85
513.547	5.84
513.744	5.89
513.94	5.95
514.137	6.06
514.334	6.02
514.53	6.04
514.727	6.26
514.924	6.21
515.12	6.18
515.317	6.22
515.514	6.13
515.71	6.09
515.907	6.37
516.103	6.4
516.3	6.26
516.497	6.41
516.693	6.46
516.89	6.43
517.086	6.43
517.283	6.43
517.479	6.35
517.676	6.51
517.872	6.57
518.068	6.59
518.265	6.62
518.461	6.5
518.658	6.6
518.854	6.7
519.05	6.76
519.247	6.75
519.443	6.69
519.639	6.79
519.836	6.69
520.032	6.66
520.228	6.81
520.424	6.78
520.621	6.85
520.817	6.89
521.013	6.79
521.209	7.09
521.405	7.03
521.601	6.95
521.798	6.92
521.994	6.99
522.19	6.93
522.386	6.89
522.582	7.09
522.778	7.17
522.974	7.05
523.17	7
523.366	6.97
523.562	7.13
523.758	7.07
523.954	6.95
524.15	7.13
524.346	7.15
524.542	7.15
524.738	7.13
524.934	7.25
525.129	7.26
525.325	7.17
525.521	7.13
525.717	7.38
525.913	7.29
526.109	7.23
526.304	7.38
526.5	7.35
526.696	7.38
526.892	7.27
527.087	7.51
527.283	7.43
527.479	7.4
527.674	7.28
527.87	7.38
528.066	7.4
528.261	7.48
528.457	7.35
528.653	7.49
528.848	7.5
529.044	7.62
529.239	7.47
529.435	7.46
529.63	7.47
529.826	7.54
530.021	7.43
530.217	7.57
530.412	7.53
530.608	7.5
530.803	7.57
530.999	7.48
531.194	7.61
531.389	7.65
531.585	7.59
531.78	7.71
531.975	7.64
532.171	7.73
532.366	7.69
532.561	7.67
532.757	7.61
532.952	7.78
533.147	7.57
533.342	7.68
533.538	7.57
533.733	7.82
533.928	7.47
534.123	7.65
534.318	7.8
534.513	7.7
534.709	7.87
534.904	7.75
535.099	7.79
535.294	7.81
535.489	7.85
535.684	7.77
535.879	7.77
536.074	7.82
536.269	7.85
536.464	7.89
536.659	7.81
536.854	7.79
537.049	7.85
537.244	7.89
537.439	7.77
537.634	7.86
537.828	7.89
538.023	7.92
538.218	7.87
538.413	7.82
538.608	7.87
538.803	7.86
538.997	7.81
539.192	7.89
539.387	7.85
539.582	7.88
539.776	7.77
539.971	7.94
540.166	7.96
540.36	7.85
540.555	8.06
540.75	7.93
540.944	7.89
541.139	7.99
541.334	7.91
541.528	7.93
541.723	8
541.917	8
542.112	7.88
542.306	7.83
542.501	7.84
542.695	7.89
542.89	7.88
543.084	7.89
543.279	7.95
543.473	7.98
543.668	7.99
543.862	7.88
544.056	7.94
544.251	7.99
544.445	8.08
544.64	8.15
544.834	7.74
545.028	7.61
545.222	7.97
545.417	8.2
545.611	8.01
545.805	8.01
546	7.76
546.194	8.01
546.388	8.02
546.582	7.95
546.776	8
546.97	8.02
547.165	8.01
547.359	7.92
547.553	7.91
547.747	8
547.941	8.18
548.135	8.02
548.329	8.04
548.523	8.08
548.717	7.96
548.911	7.97
549.105	7.94
549.299	8.03
549.493	8.02
549.687	7.92
549.881	8.13
550.075	7.98
550.269	7.92
550.463	8.05
550.657	8.11
550.85	8.04
551.044	8
551.238	8.09
551.432	8.04
551.626	8.04
551.82	8.1
552.013	8.01
552.207	8.1
552.401	8.12
552.594	7.96
552.788	7.94
552.982	8.04
553.176	8.02
553.369	8.18
553.563	8.09
553.756	7.95
553.95	8.06
554.144	8.06
554.337	8.08
554.531	7.88
554.724	8.03
554.918	8.15
555.111	8.05
555.305	8.07
555.498	7.96
555.692	8.1
555.885	8.07
556.079	7.96
556.272	8.08
556.466	8.09
556.659	8.01
556.852	8.07
557.046	8.02
557.239	7.91
557.432	7.95
557.626	8.08
557.819	8.14
558.012	8.08
558.206	8.14
558.399	8.12
558.592	8
558.785	7.94
558.979	8.02
559.172	8.11
559.365	8.11
559.558	8.02
559.751	7.98
559.944	8.15
560.138	8
560.331	8.12
560.524	8.11
560.717	8.03
560.91	8.04
561.103	8.08
561.296	7.93
561.489	8.12
561.682	8.12
561.875	8.06
562.068	8.14
562.261	7.99
562.454	8.2
562.647	8.02
562.84	8.07
563.032	8.09
563.225	7.97
563.418	8.03
563.611	8.04
563.804	8.07
563.997	7.95
564.19	7.81
564.382	8.11
564.575	8.03
564.768	7.97
564.961	8.06
565.153	7.99
565.346	7.95
565.539	8.1
565.731	8
565.924	8.13
566.117	8.2
566.309	7.98
566.502	8.01
566.695	7.93
566.887	8.16
567.08	7.97
567.272	8.09
567.465	7.9
567.657	8.02
567.85	7.93
568.042	8
568.235	8.04
568.427	7.89
568.62	8.04
568.812	7.94
569.005	8.05
569.197	7.93
569.389	8
569.582	7.96
569.774	7.99
569.966	7.85
570.159	7.87
570.351	7.91
570.543	7.94
570.736	8.01
570.928	7.75
571.12	8.01
571.312	7.92
571.505	7.72
571.697	8.04
571.889	7.94
572.081	7.93
572.273	7.85
572.465	7.94
572.658	7.94
572.85	7.95
573.042	7.91
573.234	7.91
573.426	7.91
573.618	7.85
573.81	7.98
574.002	7.88
574.194	7.92
574.386	7.79
574.578	7.76
574.77	7.81
574.962	7.88
575.154	7.77
575.346	7.79
575.538	7.82
575.729	7.79
575.921	7.84
576.113	7.87
576.305	7.79
576.497	7.92
576.689	7.7
576.88	7.69
577.072	7.87
577.264	7.77
577.456	7.77
577.647	7.82
577.839	7.94
578.031	7.78
578.223	7.72
578.414	7.72
578.606	7.81
578.798	7.83
578.989	7.73
579.181	7.84
579.372	7.75
579.564	7.82
579.755	7.69
579.947	7.63
580.139	7.77
580.33	7.6
580.522	7.71
580.713	7.6
580.905	7.61
581.096	7.74
581.287	7.67
581.479	7.64
581.67	7.74
581.862	7.63
582.053	7.61
582.244	7.53
582.436	7.75
582.627	7.6
582.818	7.52
583.01	7.59
583.201	7.64
583.392	7.56
583.583	7.47
583.775	7.38
583.966	7.45
584.157	7.6
584.348	7.64
584.54	7.55
584.731	7.55
584.922	7.46
585.113	7.42
585.304	7.52
585.495	7.52
585.686	7.59
585.877	7.5
586.068	7.55
586.259	7.48
586.45	7.45
586.641	7.4
586.832	7.54
587.023	7.44
587.214	7.39
587.405	7.47
587.596	7.36
587.787	7.29
587.978	7.45
588.169	7.29
588.36	7.27
588.551	7.32
588.742	7.45
588.932	7.35
589.123	7.17
589.314	7.42
589.505	7.34
589.696	7.24
589.886	7.35
590.077	7.35
590.268	7.2
590.458	7.11
590.649	7.1
590.84	7.31
591.03	7.19
591.221	7.18
591.412	7.08
591.602	7.34
591.793	7.21
591.984	7.14
592.174	7.09
592.365	7.34
592.555	6.99
592.746	7.01
592.936	7.03
593.127	7.13
593.317	7.16
593.508	7.09
593.698	7.08
593.889	7.01
594.079	7.02
594.269	6.92
594.46	6.98
594.65	7.03
594.84	7
595.031	6.83
595.221	6.89
595.411	6.93
595.602	6.94
595.792	6.87
595.982	6.82
596.172	6.94
596.363	6.84
596.553	6.8
596.743	6.93
596.933	6.83
597.123	6.81
597.314	6.67
597.504	6.75
597.694	6.83
597.884	6.77
598.074	6.76
598.264	6.72
598.454	6.69
598.644	6.66
598.834	6.62
599.024	6.53
599.214	6.61
599.404	6.7
599.594	6.68
599.784	6.57
599.974	6.71
600.164	6.61
600.354	6.57
600.544	6.45
600.734	6.6
600.924	6.57
601.114	6.42
601.303	6.48
601.493	6.51
601.683	6.53
601.873	6.44
602.063	6.42
602.252	6.39
602.442	6.32
602.632	6.3
602.821	6.32
603.011	6.39
603.201	6.42
603.39	6.33
603.58	6.28
603.77	6.38
603.959	6.39
604.149	6.27
604.339	6.32
604.528	6.4
604.718	6.31
604.907	6.18
605.097	6.13
605.286	6.19
605.476	6.18
605.665	6.21
605.855	6.1
606.044	6.24
606.234	6.21
606.423	6.12
606.612	6.14
606.802	6.04
606.991	6.16
607.181	6.15
607.37	6.12
607.559	5.84
607.749	5.98
607.938	5.99
608.127	5.94
608.316	6.01
608.506	5.93
608.695	6.04
608.884	5.9
609.073	5.91
609.263	5.97
609.452	5.97
609.641	5.83
609.83	5.8
610.019	5.89
610.208	5.79
610.397	5.77
610.586	5.82
610.775	5.74
610.965	5.74
611.154	5.58
611.343	5.74
611.532	5.62
611.721	5.79
611.91	5.61
612.099	5.6
612.287	5.61
612.476	5.56
612.665	5.66
612.854	5.63
613.043	5.6
613.232	5.55
613.421	5.48
613.61	5.47
613.798	5.53
613.987	5.51
614.176	5.4
614.365	5.55
614.554	5.42
614.742	5.48
614.931	5.36
615.12	5.48
615.309	5.4
615.497	5.35
615.686	5.26
615.875	5.28
616.063	5.32
616.252	5.24
616.44	5.33
616.629	5.31
616.818	5.32
617.006	5.21
617.195	5.19
617.383	5.22
617.572	5.17
617.76	5.19
617.949	5.15
618.137	5.22
618.326	5.2
618.514	4.87
618.703	4.95
618.891	5.18
619.079	4.99
619.268	5.08
619.456	5.02
619.644	5.07
619.833	5
620.021	4.92
620.209	4.83
620.398	4.95
620.586	4.88
620.774	4.86
620.962	4.9
621.151	5.04
621.339	4.82
621.527	4.75
621.715	4.84
621.903	4.88
622.092	4.79
622.28	4.8
622.468	4.67
622.656	4.71
622.844	4.75
623.032	4.74
623.22	4.61
623.408	4.69
623.596	4.65
623.784	4.72
623.972	4.58
624.16	4.59
624.348	4.66
624.536	4.69
624.724	4.5
624.912	4.52
625.1	4.56
625.288	4.53
625.476	4.45
625.664	4.59
625.851	4.45
626.039	4.51
626.227	4.43
626.415	4.45
626.603	4.37
626.79	4.41
626.978	4.37
627.166	4.43
627.354	4.32
627.541	4.3
627.729	4.26
627.917	4.4
628.104	4.32
628.292	4.28
628.48	4.34
628.667	4.25
628.855	4.32
629.042	4.28
629.23	4.23
629.418	4.28
629.605	4.18
629.793	4.15
629.98	4.17
630.168	4.11
630.355	4.17
630.543	4.09
630.73	4.04
630.917	4.09
631.105	4.17
631.292	4.08
631.48	4.11
631.667	4.16
631.854	3.98
632.042	3.99
632.229	3.95
632.416	3.99
632.604	3.98
632.791	3.85
632.978	4.01
633.165	3.87
633.353	3.99
633.54	3.98
633.727	3.79
633.914	3.81
634.101	3.74
634.289	3.86
634.476	3.7
634.663	3.73
634.85	3.81
635.037	3.71
635.224	3.67
635.411	3.75
635.598	3.72
635.785	3.63
635.972	3.65
636.159	3.68
636.346	3.64
636.533	3.57
636.72	3.6
636.907	3.63
637.094	3.58
637.281	3.52
637.468	3.55
637.655	3.57
637.842	3.6
638.029	3.54
638.215	3.46
638.402	3.51
638.589	3.44
638.776	3.4
638.963	3.39
639.149	3.51
639.336	3.49
639.523	3.38
639.709	3.43
639.896	3.35
640.083	3.39
640.27	3.39
640.456	3.31
640.643	3.32
640.829	3.23
641.016	3.26
641.203	3.21
641.389	3.29
641.576	3.27
641.762	3.22
641.949	3.19
642.135	3.23
642.322	3.17
642.508	3.16
642.695	3.18
642.881	3.12
643.068	3.1
643.254	3.13
643.441	3.08
643.627	3.13
643.813	3.07
644	3.1
644.186	3.03
644.372	3.12
644.559	3.04
644.745	2.98
644.931	2.94
645.118	3.06
645.304	3.06
645.49	2.96
645.676	2.92
645.862	2.97
646.049	3
646.235	2.88
646.421	3.04
646.607	3.01
646.793	2.88
646.979	2.83
647.165	2.91
647.352	2.86
647.538	2.89
647.724	2.8
647.91	2.85
648.096	2.84
648.282	2.85
648.468	2.75
648.654	2.78
648.84	2.81
649.026	2.79
649.212	2.67
649.397	2.66
649.583	2.69
649.769	2.74
649.955	2.7
650.141	2.75
650.327	2.75
650.513	2.63
650.698	2.63
650.884	2.52
651.07	2.66
651.256	2.61
651.442	2.63
651.627	2.43
651.813	2.59
651.999	2.54
652.184	2.52
652.37	2.51
652.556	2.5
652.741	2.54
652.927	2.39
653.113	2.49
653.298	2.52
653.484	2.41
653.669	2.35
653.855	2.45
654.04	2.57
654.226	2.46
654.412	2.42
654.597	2.35
654.782	2.4
654.968	2.43
655.153	2.35
655.339	2.36
655.524	2.32
655.71	2.37
655.895	2.31
656.08	2.29
656.266	2.37
656.451	2.33
656.636	2.25
656.822	2.25
657.007	2.21
657.192	2.24
657.378	2.19
657.563	2.25
657.748	2.25
657.933	2.26
658.118	2.2
658.304	2.17
658.489	2.28
658.674	2.25
658.859	2.07
659.044	2.14
659.229	2.2
659.414	2.15
659.599	2.14
659.785	2.09
659.97	2.14
660.155	2.11
660.34	2.14
660.525	2.06
660.71	2.06
660.895	2.09
661.08	2.02
661.264	2.01
661.449	2.14
661.634	2.05
661.819	2.05
662.004	2.01
662.189	1.96
662.374	1.99
662.559	1.95
662.743	1.91
662.928	1.98
663.113	1.98
663.298	1.92
663.483	1.87
663.667	1.95
663.852	1.91
664.037	1.98
664.221	1.93
664.406	1.94
664.591	1.94
664.775	1.9
664.96	1.81
665.145	1.85
665.329	1.93
665.514	1.86
665.698	1.76
665.883	1.77
666.068	1.93
666.252	1.87
666.437	1.78
666.621	1.82
666.806	1.8
666.99	1.75
667.174	1.75
667.359	1.84
667.543	1.77
667.728	1.73
667.912	1.63
668.096	1.76
668.281	1.65
668.465	1.73
668.649	1.71
668.834	1.63
669.018	1.71
669.202	1.72
669.387	1.66
669.571	1.79
669.755	1.59
669.939	1.65
670.124	1.66
670.308	1.67
670.492	1.7
670.676	1.61
670.86	1.56
671.044	1.54
671.228	1.66
671.413	1.58
671.597	1.55
671.781	1.61
671.965	1.65
672.149	1.56
672.333	1.57
672.517	1.53
672.701	1.6
672.885	1.48
673.069	1.44
673.253	1.58
673.437	1.59
673.621	1.56
673.804	1.5
673.988	1.56
674.172	1.47
674.356	1.44
674.54	1.53
674.724	1.66
674.908	1.43
675.091	1.54
675.275	1.47
675.459	1.54
675.643	1.44
675.826	1.43
676.01	1.41
676.194	1.45
676.377	1.52
676.561	1.49
676.745	1.46
676.928	1.42
677.112	1.5
677.296	1.38
677.479	1.4
677.663	1.37
677.846	1.41
678.03	1.43
678.213	1.3
678.397	1.4
678.58	1.34
678.764	1.33
678.947	1.28
679.131	1.35
679.314	1.39
679.498	1.36
679.681	1.38
679.865	1.37
680.048	1.29
680.231	1.3
680.415	1.25
680.598	1.31
680.781	1.26
680.965	1.3
681.148	1.28
681.331	1.17
681.514	1.28
681.698	1.2
681.881	1.24
682.064	1.28
682.247	1.29
682.43	1.15
682.614	1.21
682.797	1.35
682.98	1.24
683.163	1.16
683.346	1.23
683.529	1.15
683.712	1.14
683.895	1.25
684.078	1.15
684.261	1.15
684.444	1.29
684.627	1.21
684.81	1.15
684.993	1.17
685.176	1.2
685.359	1.1
685.542	1.14
685.725	1.25
685.908	1.18
686.091	1.1
686.274	1.17
686.457	1.21
686.639	1.1
686.822	1.16
687.005	1.13
687.188	1.12
687.371	1.27
687.553	1.22
687.736	1.19
687.919	1.22
688.102	1.2
688.284	1.1
688.467	1.07
688.65	1.09
688.832	1.02
689.015	1.01
689.197	1
689.38	1.22
689.563	1.23
689.745	0.98
689.928	1
690.11	0.99
690.293	1.08
690.475	0.92
690.658	1
690.84	1.04
691.023	1.04
691.205	0.98
691.388	0.99
691.57	1.1
691.752	1.11
691.935	0.89
692.117	0.97
692.3	1.04
692.482	0.97
692.664	0.93
692.847	0.94
693.029	1.05
693.211	1.01
693.393	0.94
693.576	0.88
693.758	1.04
693.94	0.98
694.122	0.93
694.304	0.9
694.487	0.89
694.669	1.01
694.851	0.83
695.033	0.9
695.215	0.82
695.397	0.87
695.579	0.95
695.761	0.87
695.943	0.88
696.125	1.02
696.308	0.95
696.49	0.78
696.671	1.05
696.853	0.8
697.035	1.15
697.217	0.89
697.399	0.96
697.581	0.85
697.763	0.84
697.945	0.77
698.127	0.91
698.309	0.96
698.491	0.85
698.672	0.91
698.854	0.86
699.036	0.95
699.218	0.86
699.399	0.95
699.581	0.9
699.763	0.85
699.945	0.76
700.126	0.69
700.308	0.9
700.49	0.82
700.671	0.71
700.853	0.78
701.035	0.76
701.216	0.85
701.398	0.73
701.579	0.79
701.761	0.84
701.943	0.74
702.124	0.7
702.306	0.79
702.487	1.02
702.669	0.75
702.85	0.73
703.031	0.73
703.213	0.84
703.394	0.85
703.576	0.76
703.757	0.92
703.938	0.8
704.12	0.92
704.301	0.78
704.483	0.68
704.664	0.78
704.845	0.95
705.026	0.8
705.208	0.71
705.389	0.8
705.57	0.82
705.751	0.76
705.933	0.75
706.114	0.79
706.295	0.74
706.476	0.61
706.657	0.81
706.838	0.77
707.02	0.81
707.201	0.64
707.382	0.7
707.563	0.79
707.744	0.66
707.925	0.69
708.106	0.67
708.287	0.74
708.468	0.84
708.649	0.72
708.83	0.83
709.011	0.64
709.192	0.78
709.373	0.63
709.554	0.71
709.734	0.78
709.915	0.77
710.096	0.63
710.277	0.6
710.458	0.75
710.639	0.75
710.819	0.52
711	0.67
711.181	0.77
711.362	0.82
711.542	0.68
711.723	0.6
711.904	0.74
712.085	0.73
712.265	0.71
712.446	0.57
712.627	0.72
712.807	0.59
712.988	0.66
713.168	0.54
713.349	0.75
713.53	0.53
713.71	0.55
713.891	0.54
714.071	0.61
714.252	0.64
714.432	0.65
714.613	0.46
714.793	0.59
714.974	0.72
715.154	0.68
715.334	0.63
715.515	0.75
715.695	0.53
715.876	0.58
716.056	0.62
716.236	0.57
716.417	0.58
716.597	0.56
716.777	0.81
716.957	0.62
717.138	0.68
717.318	0.54
717.498	0.44
717.678	0.63
717.859	0.66
718.039	0.47
718.219	0.55
718.399	0.56
718.579	0.47
718.759	0.51
718.939	0.63
719.12	0.66
719.3	0.61
719.48	0.36
719.66	0.41
719.84	0.72
720.02	0.54
720.2	0.54
720.38	0.55
720.56	0.79
720.74	0.35
720.92	0.58
721.1	0.73
721.279	0.71
721.459	0.61
721.639	0.41
721.819	0.53
721.999	0.53
722.179	0.57
722.359	0.46
722.538	0.47
722.718	0.62
722.898	0.6
723.078	0.51
723.257	0.52
723.437	0.55
723.617	0.59
723.797	0.53
723.976	0.52
724.156	0.65
724.336	0.68
724.515	0.77
724.695	0.41
724.874	0.44
725.054	0.65
725.234	0.46
725.413	0.59
725.593	0.51
725.772	0.54
725.952	0.58
726.131	0.45
726.311	0.45
726.49	0.49
726.67	0.48
726.849	0.42
727.028	0.55
727.208	0.46
727.387	0.48
727.567	0.39
727.746	0.49
727.925	0.56
728.105	0.37
728.284	0.5
728.463	0.4
728.643	0.62
728.822	0.46
729.001	0.52
729.18	0.46
729.359	0.53
729.539	0.53
729.718	0.41
729.897	0.58
730.076	0.48
730.255	0.44
730.434	0.42
730.614	0.59
730.793	0.65
730.972	0.44
731.151	0.48
731.33	0.59
731.509	0.59
731.688	0.5
731.867	0.46
732.046	0.31
732.225	0.74
732.404	0.32
732.583	0.31
732.762	0.48
732.941	0.63
733.12	0.45
733.298	0.44
733.477	0.58
733.656	0.47
733.835	0.4
734.014	0.5
734.193	0.36
734.371	0.62
734.55	0.56
734.729	0.38
734.908	0.63
735.086	0.46
735.265	0.54
735.444	0.24
735.623	0.41
735.801	0.37
735.98	0.43
736.159	0.45
736.337	0.53
736.516	0.47
736.694	0.53
736.873	0.52
737.052	0.64
737.23	0.74
737.409	0.46
737.587	0.76
737.766	0.39
737.944	0.48
738.123	0.64
738.301	0.59
738.479	0.49
738.658	0.6
738.836	0.29
739.015	0.49
739.193	0.57
739.371	0.36
739.55	0.44
739.728	0.35
739.906	0.71
740.085	0.81
740.263	0.32
740.441	0.16
740.62	0.81
740.798	0.62
740.976	0.42
741.154	0.36
741.332	0.73
741.511	0.43
741.689	0.43
741.867	0.51
742.045	0.58
742.223	0.4
742.401	0.33
742.579	0.39
742.757	0.57
742.935	0.35
743.114	0.33
743.292	0.49
743.47	0.48
743.648	0.51
743.826	0.44
744.004	0.52
744.181	0.56
744.359	0.5
744.537	0.49
744.715	0.44
744.893	0.47
745.071	0.5
745.249	0.34
745.427	0.38
745.605	0.55
745.782	0.45
745.96	0.43
746.138	0.51
746.316	0.59
746.493	0.39
746.671	0.41
746.849	0.31
747.027	0.73
747.204	0.38
747.382	0.48
747.56	0.32
747.737	0.38
747.915	0.37
748.093	0.48
748.27	0.24
748.448	0.46
748.625	0.28
748.803	0.25
748.98	0.3
749.158	0.51
749.335	0.64
749.513	0.51
749.69	0.39
749.868	0.45
750.045	0.38
750.223	0.38
750.4	0.24
750.578	0.62
750.755	0.38
750.932	0.28
751.11	0.64
751.287	0.26
751.464	0.65
751.642	0.34
751.819	0.52
751.996	0.57
752.173	0.42
752.351	0.4
752.528	0.34
752.705	0.4
752.882	0.21
753.06	0.37
753.237	0.45
753.414	0.56
753.591	0.71
753.768	0.43
753.945	0.32
754.122	0.38
754.299	0.48
754.476	0.36
754.654	0.39
754.831	0.47
755.008	0.46
755.185	0.31
755.362	0.27
755.539	0.35
755.716	0.37
755.892	0.26
756.069	0.38
756.246	0.39
756.423	0.4
756.6	0.62
756.777	0.34
756.954	0.43
757.131	0.39
757.307	0.31
757.484	0.34
757.661	0.43
757.838	0.53
758.015	0.13
758.191	0.41
758.368	0.39
758.545	0.64
758.721	0.48
758.898	0.18
759.075	0.5
759.251	0.44
759.428	0.43
759.605	0.23
759.781	0.29
759.958	0.54
760.134	0.47
760.311	0.28
760.488	0.7
760.664	0.69
760.841	0.36
761.017	0.28
761.194	0.49
761.37	0.52
761.547	0.39
761.723	0.24
761.899	0.51
762.076	0.21
762.252	0.22
762.429	0.37
762.605	0.53
762.781	0.37
762.958	0.42
763.134	0.26
763.31	0.2
763.486	0.59
763.663	0.14
763.839	0.33
764.015	0.13
764.191	0.31
764.368	0.41
764.544	0.33
764.72	0.35
764.896	0.43
765.072	0.5
765.248	0.34
765.425	0.34
765.601	0.58
765.777	0.45
765.953	-0.01
766.129	0.4
766.305	0.18
766.481	0.57
766.657	0.47
766.833	0.59
767.009	0.23
767.185	0.33
767.361	0.29
767.537	0.34
767.713	0.72
767.889	0.27
768.065	0.42
768.24	0.51
768.416	0.46
768.592	0.3
768.768	0.4
768.944	0.56
769.12	0.29
769.295	0.32
769.471	0.39
769.647	0.42
769.823	0.59
769.998	0.25
770.174	0.08
770.35	0.89
770.525	0.7
770.701	0.41
770.877	0.3
771.052	0.39
771.228	0.53
771.403	0.44
771.579	0.36
771.755	0.7
771.93	0.28
772.106	0.09
772.281	0.06
772.457	0.36
772.632	0.56
772.808	0.17
772.983	0.21
773.159	0.19
773.334	0.66
773.509	0.44
773.685	0.25
773.86	0.76
774.036	0.75
774.211	0.42
774.386	0.42
774.562	0.4
774.737	0.72
774.912	0.24
775.087	0.46
775.263	0.5
775.438	0.53
775.613	0.35
775.788	0.33
775.964	0.59
776.139	0.97
776.314	0.08
776.489	0.58
776.664	0.43
776.839	0.14
777.014	0.36
777.19	0.46
777.365	0.62
777.54	0.85
777.715	0.13
777.89	0.41
778.065	0.25
778.24	0.36
778.415	0.57
778.59	0.24
778.765	0.52
778.94	0.64
779.115	0.39
779.289	0.27
779.464	0.45
779.639	0.23
779.814	0.14
779.989	0.19
780.164	0.63
780.339	0.6
780.513	0.12
780.688	0.14
780.863	0.39
781.038	0.7
781.212	0.24
781.387	0.3
781.562	0.78
781.737	0.22
781.911	0.57
782.086	0.13
782.261	0.4
782.435	0.66
782.61	0.35
782.784	0.45
782.959	0.63
783.134	0.28
783.308	0.22
783.483	0.42
783.657	0.95
783.832	0.67
784.006	-0
784.181	0.38
784.355	0.81
784.53	0.07
784.704	0.3
784.878	0.85
785.053	0.6
785.227	0.61
785.402	0.77
785.576	0.26
785.75	0.58
785.925	0.56
786.099	0.32
786.273	0.56
786.448	0.81
786.622	0.75
786.796	0.23
786.97	0.35
787.145	1.18
787.319	-0.06
787.493	0.29
787.667	0.04
787.841	0.53
788.015	0.81
788.19	0.38
788.364	0.34
788.538	0.84
788.712	0.55
788.886	0.2
789.06	0.75
789.234	0.79
789.408	0.17
789.582	0.27
789.756	0.28
789.93	0.21
790.104	0.52
790.278	0.36
790.452	0.47
790.626	0.71
790.8	0.22
790.973	0.57
791.147	0.78
791.321	0.9
791.495	0.95
791.669	0.52
791.843	0.58
792.016	0.51
792.19	0.67
792.364	0.25
792.538	1.18
792.711	0.65
792.885	0.33
793.059	0.2
793.233	-0.07
793.406	0.78
793.58	0.52
793.754	0.61
793.927	0.4
794.101	0.76
794.274	0.36
794.448	0.73
794.622	0.14
794.795	0.8
794.969	0.48
795.142	0.92
795.316	0.61
795.489	0.14
795.663	1.2
795.836	0.77
796.009	0.24
796.183	0.93
796.356	0.83
796.53	0.62
796.703	0.36
796.876	1.29
797.05	0.31
797.223	0.36
797.396	0.58
797.57	0.51
797.743	1.12
797.916	0.43
798.09	0.56
798.263	0.88
798.436	0.55
798.609	0.29
798.782	0.4
798.956	0.67
799.129	0.31
799.302	0.4
799.475	0.43
799.648	0.26
799.821	0.18
799.994	0.32
800.167	-0.16
800.34	0.54
800.514	0.69
800.687	0.34
800.86	0.11
801.033	0.83
801.206	0.96
801.379	0.08
801.551	0.95
801.724	0.86
801.897	1.15
802.07	0.58
802.243	0.09
802.416	0.53
802.589	0.7
802.762	0.77
802.935	0.56
803.107	1.1
803.28	1.09
803.453	0.66
803.626	0.37
803.798	0.68
803.971	0.33
804.144	0.45
804.317	0.55
804.489	1.12
804.662	0.64
804.835	0.44
805.007	0.25
805.18	1.13
805.353	0.66
805.525	0.31
805.698	0.23
805.87	0.78
806.043	0.92
806.215	0.1
806.388	0.24
806.56	0.63
806.733	1.12
806.905	0.71
807.078	0.51
807.25	0.33
807.423	0.86
807.595	0.38
807.768	0.54
807.94	0.9
808.112	0.73
808.285	0.96
808.457	0.26
808.629	0.62
808.802	1.09
808.974	0.8
809.146	0.33
809.318	0.4
809.491	0.64
809.663	0.96
809.835	0.19
810.007	0.73
810.18	0.69
810.352	0.07
810.524	0.25
810.696	0.88
810.868	1.35
811.04	0.5
811.212	0.56
811.384	1.3
811.556	0.5
811.728	0.4
811.901	1.7
812.073	0.69
812.245	1.12
812.417	0.32
812.589	-0.18
812.76	0.92
812.932	0.99
813.104	1.09
813.276	0.66
813.448	0.63
813.62	0.71
813.792	1.01
813.964	0.33
814.136	0.94
814.307	0.84
814.479	0.52
814.651	0.34
814.823	1.75
814.995	0.59
815.166	0.55
815.338	0.02
815.51	0.19
815.681	1.42
815.853	0.78
816.025	0.49
816.196	1.7
816.368	1.37
816.54	0.2
816.711	0.39
816.883	1.21
817.054	2.28
817.226	-0.19
817.398	0.78
817.569	0.33
817.741	0.79
817.912	0.43
818.084	0.35
818.255	1.3
818.426	0.42
818.598	0.53
818.769	-0.06
818.941	1.07
819.112	1.4
819.283	0.69
819.455	-0.07
819.626	0.92
819.798	1.2
819.969	1.17
820.14	0.61
820.311	0.89
820.483	0.75
820.654	1.01
820.825	0.53
820.996	0.55
821.168	-0.02
821.339	0.39
821.51	0.12
821.681	0.29
821.852	0.66
822.023	0.48
822.195	0.29
822.366	1.39
822.537	0.94
822.708	0.74
822.879	0.76
823.05	1.52
823.221	0.9
823.392	1.1
823.563	0.9
823.734	1.2
823.905	0.67
824.076	0.24
824.247	-0.1
824.418	0.99
824.589	1.36
824.759	0.78
824.93	0.91
825.101	0.03
825.272	1.4
825.443	1.72
825.614	1.42
825.784	0.04
825.955	2.08
826.126	1.24
826.297	1.12
826.467	1.97
826.638	1.87
826.809	0.73
826.98	1.2
827.15	1.42
827.321	1.15
827.492	1.88
827.662	1.43
827.833	2.05
828.003	1.59
828.174	0.61
828.345	0.1
828.515	1.79
828.686	0.94
828.856	0.42
829.027	0.96
829.197	1.5
829.368	0.7
829.538	0.48
829.709	0.39
829.879	1.05
830.049	0.92
830.22	0.8
830.39	0.95
830.56	1.48
830.731	0.64
830.901	0.11
831.072	1.19
831.242	0.86
831.412	0.89
831.582	0.71
831.753	0.22
831.923	1.82
832.093	1.29
832.263	0.75
832.434	0.29
832.604	0.37
832.774	1.67
832.944	0.41
833.114	0.36
833.284	1.48
833.454	1.02
833.624	1.18
833.795	0.46
833.965	1.95
834.135	2.13
834.305	-0.74
834.475	-0.1
834.645	0.72
834.815	1.24
834.985	0.96
835.155	0.24
835.325	1.84
835.494	1.51
835.664	0.39
835.834	-0.47
836.004	1.85
836.174	1.2
836.344	0.47
836.514	-0.11
836.684	0.22
836.853	1.17
837.023	0.97
837.193	0.86
837.363	1.5
837.532	2.29
837.702	0.33
837.872	-0.1
838.041	1.7
838.211	2.74
838.381	-0.26
838.55	0.76
838.72	3.7
838.89	2.33
839.059	0.3
839.229	0.09
839.398	2.95
839.568	1.63
839.738	1.03
839.907	2.58
840.077	1.22
840.246	0.61
840.416	0.79
840.585	0.28
840.755	2.95
840.924	3.14
841.093	-0.04
841.263	0.65
841.432	1.06
841.602	0.76
841.771	-0.05
841.94	0.89
842.11	3.35
842.279	3.35
842.448	0.02
842.617	-0.15
842.787	3.44
842.956	-0.03
843.125	0.89
843.294	1
843.464	2.46
843.633	1.96
843.802	-0.31
843.971	1.03
844.14	1.86
844.309	2.31
844.479	-1.64
844.648	0.56
844.817	1.66
844.986	1.46
845.155	0.78
845.324	0.91
845.493	0.71
845.662	1.03
845.831	1.29
846	1.62
846.169	1.26
846.338	2.7
846.507	1.89
846.676	1.25
846.844	0.34
847.013	2.72
847.182	1.48
847.351	0.2
847.52	1
847.689	1.96
847.858	1.31
848.026	0.1
848.195	1.19
848.364	0.57
848.533	0.72
848.701	-0.28
848.87	2.08
849.039	2.97
849.207	1.77
849.376	2.51
849.545	3.49
849.713	0.74
849.882	1.05
850.051	0.41
850.219	2
850.388	1.62
850.556	0.08
850.725	-0.72
850.893	1.8
851.062	1.21
851.23	1.92
851.399	-0.53
851.567	1.44
851.736	1.46
851.904	-0.18
852.073	1.7
852.241	2.82
852.41	2.11
852.578	1.33
852.746	0.54
852.915	2.4
853.083	3.02
853.251	-0.08
853.42	0.57
853.588	1.13
853.756	2.23
853.924	0.42
854.093	1.72
854.261	0.88
854.429	0.05
854.597	1.31
854.765	-0.03
854.934	1.88
855.102	3.97
855.27	1.56
855.438	2.26
855.606	3.5
855.774	4.41
855.942	0.27
856.11	0.13
856.278	1.67
856.446	2.12
856.614	0.65
856.782	0.26
856.95	2.77
857.118	2.45
857.286	2.25
857.454	1.19
857.622	3.44
857.79	2.41
857.958	0.72
858.126	1.44
858.294	-1.56
858.462	1.73
858.629	-0.12
858.797	0.3
858.965	1.91
859.133	1.67
859.301	1.05
859.468	1.51
859.636	0.76
859.804	4.57
859.971	2.4
860.139	0.62
860.307	2.9
860.474	3.12
860.642	0.2
860.81	1.11
860.977	1.23
861.145	5.03
861.313	0.76
861.48	2.14
861.648	2.78
861.815	1.29
861.983	-0.71
862.15	0.96
862.318	2.07
862.485	2.56
862.653	-1.1
862.82	-0.4
862.988	4.18
863.155	3.21
863.322	0.71
863.49	-0.28
863.657	1.89
863.824	4.45
863.992	2.19
864.159	2.1
864.326	3.53
864.494	2.19
864.661	4.38
864.828	0.85
864.996	3.4
865.163	3.86
865.33	0.61
865.497	-1.22
865.664	1.28
865.832	-0.8
865.999	0.92
866.166	0.61
866.333	2.16
866.5	2.23
866.667	1.83
866.834	2.34
867.001	4.7
867.168	-1.28
867.335	2
867.502	-0.19
867.669	3.2
867.836	6.77
868.003	2.5
868.17	4.4
868.337	4.89
868.504	6.26
868.671	-1.09
868.838	0.35
869.005	6.02
869.172	3.02
869.339	0.39
869.505	2.27
869.672	3.7
869.839	5.07
870.006	2.08
870.173	-1.83
870.339	2.32
870.506	7.12
870.673	0.79
870.84	2.21
871.006	1.47
871.173	1.66
871.34	2.3
871.506	-1.54
871.673	2.73
871.839	0.72
872.006	1.96
872.173	1
872.339	3.37
872.506	4.37
872.672	1.46
872.839	0.37
873.005	2.83
873.172	6.53
873.338	3.4
873.505	1.86
873.671	1.45
873.838	3.63
874.004	-2.3
874.171	0.91
874.337	3.84
874.503	3.01
874.67	2.65
874.836	1.28
875.002	3.98
875.169	4.81
875.335	2.55
875.501	0.84
875.668	4.33
875.834	1.9
876	1.49
876.166	4.43
876.332	4.33
876.499	5.12
876.665	1.96
876.831	0.58
876.997	6.37
877.163	4.1
877.329	2.09
877.495	1.94
877.662	4.21
877.828	2.8
877.994	0.81
878.16	-3.07
878.326	2.24
878.492	3.63
878.658	1.39
878.824	3.29
878.99	1.97
879.156	2.38
879.322	4.05
879.487	1.18
879.653	3.96
879.819	3.95
879.985	-0.45
880.151	1.19
880.317	3.14
880.483	3.31
880.648	2.8
880.814	-0.21
880.98	3.75
881.146	-1.88
881.312	1.11
881.477	3.96
881.643	1.73
881.809	3.69
881.974	4.96
882.14	-0.08
882.306	3.44
882.471	7.08
882.637	1.8
882.803	2.64
882.968	6.32
883.134	5.78
883.299	1.65
883.465	0.62
883.63	5.58
883.796	2.95
883.961	3.01
884.127	2.18
884.292	-1.86
884.458	-0.39
884.623	-0.39
