Data from Apollo_Calib_20240827__AbsoluteIrradiance__767__11-56-01-414.txt Node

Date: Wed Aug 28 11:56:01 BST 2024
User: biology
Spectrometer: FLMT08252
Trigger mode: 0
Integration Time (sec): 5.000000E-1
Scans to average: 5
Electric dark correction enabled: true
Nonlinearity correction enabled: false
Boxcar width: 0
XAxis mode: Wavelengths
Number of Pixels in Spectrum: 3648
>>>>>Begin Spectral Data<<<<<
179.588	-0
179.809	-0
180.03	-0
180.251	-0
180.473	-0
180.694	0
180.915	0
181.136	-0
181.357	0
181.578	-0
181.799	-0
182.02	-0
182.241	0
182.462	-0
182.683	0
182.904	-0
183.125	-0
183.346	0
183.567	0
183.788	0
184.009	0
184.23	0
184.451	0
184.672	0
184.892	0
185.113	0
185.334	0
185.555	0
185.776	0
185.996	0
186.217	0
186.438	0
186.659	0
186.879	0
187.1	0
187.321	0
187.541	0
187.762	0
187.983	0
188.203	0
188.424	0
188.644	0
188.865	0
189.086	0
189.306	0
189.527	0
189.747	0
189.968	0
190.188	0
190.409	0
190.629	0
190.849	0
191.07	0
191.29	0
191.511	0
191.731	0
191.951	0
192.172	0
192.392	0
192.612	0
192.833	0
193.053	0
193.273	0
193.493	0
193.714	0
193.934	0
194.154	0
194.374	0
194.594	0
194.815	0
195.035	0
195.255	0
195.475	0
195.695	0
195.915	0
196.135	0
196.355	0
196.575	0
196.795	0
197.015	0
197.235	0
197.455	0
197.675	0
197.895	0
198.115	0
198.335	0
198.555	0
198.775	0
198.995	0
199.214	0
199.434	0
199.654	0
199.874	0
200.094	3.44
200.313	2.51
200.533	1.93
200.753	1.67
200.973	3.58
201.192	2.76
201.412	1.37
201.632	1.84
201.851	3.12
202.071	1.88
202.291	1.76
202.51	1.69
202.73	2.38
202.95	1.75
203.169	1.09
203.389	1.69
203.608	1.86
203.828	1.71
204.047	1.41
204.267	2.11
204.486	2.33
204.706	2.33
204.925	1.78
205.145	1.21
205.364	2.33
205.583	2.88
205.803	1.41
206.022	1.26
206.242	1.6
206.461	1.55
206.68	1.13
206.9	1.59
207.119	2.3
207.338	2.26
207.557	1.07
207.777	1.39
207.996	1.15
208.215	2.19
208.434	1.35
208.654	0.92
208.873	1.74
209.092	2.1
209.311	0.97
209.53	1.2
209.749	0.83
209.968	0.88
210.187	1.01
210.407	0.74
210.626	1.02
210.845	1.32
211.064	1.44
211.283	0.71
211.502	1.49
211.721	1.02
211.94	1.03
212.159	1.23
212.377	1.47
212.596	1.6
212.815	1.19
213.034	1.18
213.253	1.5
213.472	1.58
213.691	0.89
213.91	0.62
214.128	0.77
214.347	1.61
214.566	0.65
214.785	0.74
215.003	1.41
215.222	1.2
215.441	0.87
215.66	0.58
215.878	0.86
216.097	1.36
216.316	0.7
216.534	0.89
216.753	0.93
216.972	0.79
217.19	0.59
217.409	0.49
217.627	0.86
217.846	0.91
218.064	0.96
218.283	0.66
218.501	1.45
218.72	1.18
218.938	0.59
219.157	0.58
219.375	1.12
219.594	1.1
219.812	0.55
220.031	0.5
220.249	1.21
220.467	0.95
220.686	0.61
220.904	0.48
221.122	0.76
221.341	1.18
221.559	0.79
221.777	0.52
221.995	0.9
222.214	0.89
222.432	0.58
222.65	0.81
222.868	0.76
223.086	0.93
223.305	0.98
223.523	0.64
223.741	1.04
223.959	0.6
224.177	0.37
224.395	0.51
224.613	0.73
224.831	1.05
225.049	0.4
225.267	0.67
225.485	0.84
225.703	0.68
225.921	0.69
226.139	0.65
226.357	0.9
226.575	0.72
226.793	0.65
227.011	1.29
227.229	0.83
227.447	0.92
227.665	0.55
227.883	0.28
228.1	0.63
228.318	0.76
228.536	0.31
228.754	0.37
228.972	0.75
229.189	0.75
229.407	0.46
229.625	0.55
229.843	0.89
230.06	0.78
230.278	0.4
230.496	0.52
230.713	0.67
230.931	0.81
231.149	0.46
231.366	0.39
231.584	0.51
231.801	1.05
232.019	0.57
232.236	0.4
232.454	0.54
232.671	0.63
232.889	0.57
233.106	0.41
233.324	0.56
233.541	0.47
233.759	0.54
233.976	0.59
234.194	0.54
234.411	0.61
234.628	0.38
234.846	0.46
235.063	0.57
235.28	0.57
235.498	0.46
235.715	0.34
235.932	0.8
236.149	0.53
236.367	0.4
236.584	0.57
236.801	0.45
237.018	0.74
237.236	0.48
237.453	0.28
237.67	0.72
237.887	0.51
238.104	0.44
238.321	0.32
238.538	0.46
238.755	0.7
238.973	0.31
239.19	0.5
239.407	0.56
239.624	0.5
239.841	0.36
240.058	0.39
240.275	0.57
240.492	0.48
240.709	0.46
240.925	0.37
241.142	0.49
241.359	0.29
241.576	0.33
241.793	0.37
242.01	0.46
242.227	0.68
242.444	0.63
242.66	0.51
242.877	0.55
243.094	0.39
243.311	0.4
243.527	0.32
243.744	0.53
243.961	0.62
244.178	0.35
244.394	0.32
244.611	0.62
244.828	0.7
245.044	0.34
245.261	0.42
245.477	0.45
245.694	0.49
245.911	0.29
246.127	0.37
246.344	0.64
246.56	0.54
246.777	0.44
246.993	0.46
247.21	0.5
247.426	0.55
247.643	0.34
247.859	0.31
248.076	0.42
248.292	0.63
248.508	0.35
248.725	0.46
248.941	0.46
249.157	0.56
249.374	0.29
249.59	0.36
249.806	0.41
250.023	0.52
250.239	0.36
250.455	0.29
250.671	0.42
250.888	0.56
251.104	0.48
251.32	0.28
251.536	0.33
251.752	0.42
251.969	0.42
252.185	0.39
252.401	0.59
252.617	0.45
252.833	0.32
253.049	0.34
253.265	0.42
253.481	0.4
253.697	0.35
253.913	0.32
254.129	0.41
254.345	0.47
254.561	0.35
254.777	0.33
254.993	0.47
255.209	0.4
255.425	0.35
255.641	0.3
255.857	0.41
256.073	0.43
256.288	0.27
256.504	0.33
256.72	0.41
256.936	0.63
257.152	0.33
257.367	0.29
257.583	0.4
257.799	0.45
258.015	0.31
258.23	0.36
258.446	0.55
258.662	0.37
258.877	0.27
259.093	0.24
259.309	0.36
259.524	0.41
259.74	0.28
259.955	0.21
260.171	0.4
260.387	0.43
260.602	0.37
260.818	0.47
261.033	0.25
261.249	0.37
261.464	0.32
261.68	0.29
261.895	0.44
262.11	0.43
262.326	0.3
262.541	0.23
262.757	0.49
262.972	0.43
263.187	0.35
263.403	0.36
263.618	0.47
263.833	0.35
264.049	0.27
264.264	0.33
264.479	0.44
264.694	0.46
264.91	0.29
265.125	0.37
265.34	0.42
265.555	0.53
265.77	0.31
265.986	0.31
266.201	0.38
266.416	0.49
266.631	0.34
266.846	0.29
267.061	0.39
267.276	0.44
267.491	0.16
267.706	0.38
267.921	0.38
268.136	0.41
268.351	0.3
268.566	0.24
268.781	0.43
268.996	0.46
269.211	0.37
269.426	0.25
269.641	0.25
269.856	0.37
270.071	0.3
270.285	0.22
270.5	0.43
270.715	0.42
270.93	0.28
271.145	0.29
271.359	0.44
271.574	0.31
271.789	0.3
272.004	0.27
272.218	0.33
272.433	0.37
272.648	0.35
272.862	0.38
273.077	0.4
273.292	0.32
273.506	0.29
273.721	0.36
273.936	0.4
274.15	0.44
274.365	0.3
274.579	0.43
274.794	0.45
275.008	0.41
275.223	0.15
275.437	0.25
275.652	0.41
275.866	0.37
276.081	0.34
276.295	0.39
276.509	0.37
276.724	0.32
276.938	0.29
277.153	0.33
277.367	0.36
277.581	0.26
277.796	0.23
278.01	0.22
278.224	0.35
278.438	0.43
278.653	0.26
278.867	0.24
279.081	0.37
279.295	0.33
279.51	0.31
279.724	0.18
279.938	0.33
280.152	0.33
280.366	0.27
280.58	0.28
280.794	0.41
281.008	0.32
281.222	0.31
281.437	0.46
281.651	0.33
281.865	0.4
282.079	0.27
282.293	0.2
282.507	0.26
282.721	0.29
282.935	0.33
283.148	0.26
283.362	0.25
283.576	0.24
283.79	0.32
284.004	0.32
284.218	0.37
284.432	0.23
284.646	0.27
284.859	0.3
285.073	0.29
285.287	0.34
285.501	0.31
285.714	0.31
285.928	0.34
286.142	0.33
286.356	0.24
286.569	0.28
286.783	0.38
286.997	0.32
287.21	0.34
287.424	0.3
287.637	0.28
287.851	0.21
288.065	0.32
288.278	0.29
288.492	0.31
288.705	0.27
288.919	0.29
289.132	0.2
289.346	0.36
289.559	0.23
289.773	0.24
289.986	0.26
290.2	0.23
290.413	0.37
290.626	0.27
290.84	0.22
291.053	0.3
291.267	0.41
291.48	0.23
291.693	0.22
291.906	0.24
292.12	0.3
292.333	0.26
292.546	0.27
292.76	0.33
292.973	0.31
293.186	0.3
293.399	0.23
293.612	0.34
293.826	0.3
294.039	0.29
294.252	0.26
294.465	0.34
294.678	0.29
294.891	0.28
295.104	0.22
295.317	0.26
295.53	0.31
295.743	0.28
295.956	0.23
296.169	0.39
296.382	0.32
296.595	0.24
296.808	0.23
297.021	0.3
297.234	0.33
297.447	0.27
297.66	0.26
297.873	0.32
298.086	0.3
298.299	0.24
298.511	0.17
298.724	0.24
298.937	0.17
299.15	0.21
299.363	0.25
299.575	0.28
299.788	0.26
300.001	0.27
300.213	0.25
300.426	0.27
300.639	0.25
300.852	0.23
301.064	0.29
301.277	0.33
301.489	0.33
301.702	0.31
301.915	0.21
302.127	0.22
302.34	0.28
302.552	0.3
302.765	0.23
302.977	0.31
303.19	0.23
303.402	0.2
303.615	0.21
303.827	0.21
304.04	0.26
304.252	0.33
304.464	0.22
304.677	0.39
304.889	0.35
305.102	0.19
305.314	0.22
305.526	0.29
305.739	0.27
305.951	0.22
306.163	0.21
306.375	0.32
306.588	0.23
306.8	0.19
307.012	0.17
307.224	0.27
307.436	0.34
307.649	0.17
307.861	0.26
308.073	0.31
308.285	0.21
308.497	0.18
308.709	0.25
308.921	0.26
309.133	0.35
309.346	0.24
309.558	0.24
309.77	0.32
309.982	0.34
310.194	0.23
310.406	0.22
310.617	0.37
310.829	0.26
311.041	0.27
311.253	0.18
311.465	0.23
311.677	0.24
311.889	0.25
312.101	0.17
312.313	0.29
312.524	0.34
312.736	0.21
312.948	0.24
313.16	0.34
313.372	0.34
313.583	0.3
313.795	0.23
314.007	0.21
314.218	0.31
314.43	0.25
314.642	0.21
314.853	0.21
315.065	0.28
315.277	0.25
315.488	0.28
315.7	0.32
315.912	0.28
316.123	0.23
316.335	0.26
316.546	0.35
316.758	0.25
316.969	0.25
317.181	0.26
317.392	0.25
317.604	0.28
317.815	0.2
318.026	0.22
318.238	0.23
318.449	0.31
318.661	0.17
318.872	0.19
319.083	0.2
319.295	0.29
319.506	0.2
319.717	0.23
319.929	0.33
320.14	0.27
320.351	0.28
320.562	0.2
320.774	0.23
320.985	0.26
321.196	0.23
321.407	0.17
321.618	0.3
321.829	0.27
322.041	0.29
322.252	0.24
322.463	0.24
322.674	0.26
322.885	0.21
323.096	0.25
323.307	0.26
323.518	0.28
323.729	0.22
323.94	0.23
324.151	0.22
324.362	0.27
324.573	0.24
324.784	0.23
324.995	0.3
325.206	0.28
325.417	0.22
325.628	0.22
325.838	0.23
326.049	0.27
326.26	0.24
326.471	0.22
326.682	0.27
326.892	0.23
327.103	0.18
327.314	0.24
327.525	0.3
327.735	0.29
327.946	0.27
328.157	0.2
328.368	0.34
328.578	0.24
328.789	0.28
328.999	0.25
329.21	0.21
329.421	0.29
329.631	0.25
329.842	0.17
330.052	0.29
330.263	0.26
330.473	0.27
330.684	0.25
330.894	0.27
331.105	0.27
331.315	0.28
331.526	0.16
331.736	0.34
331.947	0.27
332.157	0.28
332.367	0.15
332.578	0.27
332.788	0.3
332.999	0.3
333.209	0.22
333.419	0.21
333.629	0.3
333.84	0.3
334.05	0.25
334.26	0.36
334.47	0.27
334.681	0.3
334.891	0.22
335.101	0.29
335.311	0.31
335.521	0.24
335.732	0.16
335.942	0.28
336.152	0.23
336.362	0.21
336.572	0.27
336.782	0.29
336.992	0.22
337.202	0.25
337.412	0.23
337.622	0.29
337.832	0.23
338.042	0.23
338.252	0.21
338.462	0.24
338.672	0.24
338.882	0.27
339.092	0.25
339.302	0.31
339.511	0.3
339.721	0.2
339.931	0.16
340.141	0.29
340.351	0.32
340.561	0.25
340.77	0.24
340.98	0.25
341.19	0.27
341.4	0.25
341.609	0.22
341.819	0.25
342.029	0.2
342.238	0.24
342.448	0.23
342.658	0.28
342.867	0.24
343.077	0.26
343.286	0.22
343.496	0.27
343.706	0.35
343.915	0.18
344.125	0.27
344.334	0.29
344.544	0.18
344.753	0.21
344.963	0.2
345.172	0.21
345.381	0.23
345.591	0.22
345.8	0.26
346.01	0.33
346.219	0.33
346.428	0.13
346.638	0.26
346.847	0.22
347.056	0.29
347.266	0.17
347.475	0.25
347.684	0.36
347.893	0.24
348.103	0.26
348.312	0.19
348.521	0.24
348.73	0.28
348.94	0.27
349.149	0.19
349.358	0.22
349.567	0.18
349.776	0.19
349.985	0.2
350.194	0.33
350.403	0.27
350.612	0.18
350.821	0.22
351.03	0.26
351.239	0.15
351.448	0.29
351.657	0.2
351.866	0.34
352.075	0.24
352.284	0.24
352.493	0.16
352.702	0.28
352.911	0.26
353.12	0.24
353.329	0.22
353.538	0.24
353.746	0.23
353.955	0.24
354.164	0.28
354.373	0.22
354.582	0.28
354.79	0.27
354.999	0.25
355.208	0.23
355.416	0.3
355.625	0.17
355.834	0.22
356.042	0.29
356.251	0.2
356.46	0.23
356.668	0.22
356.877	0.32
357.085	0.28
357.294	0.17
357.503	0.26
357.711	0.2
357.92	0.43
358.128	0.23
358.337	0.2
358.545	0.3
358.754	0.21
358.962	0.27
359.17	0.25
359.379	0.27
359.587	0.25
359.796	0.21
360.004	0.34
360.212	0.26
360.421	0.33
360.629	0.25
360.837	0.2
361.046	0.31
361.254	0.37
361.462	0.26
361.67	0.22
361.879	0.26
362.087	0.32
362.295	0.26
362.503	0.18
362.711	0.18
362.92	0.2
363.128	0.22
363.336	0.19
363.544	0.18
363.752	0.23
363.96	0.21
364.168	0.16
364.376	0.25
364.584	0.25
364.792	0.32
365	0.28
365.208	0.28
365.416	0.25
365.624	0.3
365.832	0.2
366.04	0.34
366.248	0.23
366.456	0.25
366.664	0.21
366.872	0.26
367.079	0.26
367.287	0.22
367.495	0.27
367.703	0.21
367.911	0.23
368.118	0.23
368.326	0.23
368.534	0.2
368.742	0.32
368.949	0.17
369.157	0.21
369.365	0.27
369.572	0.26
369.78	0.2
369.988	0.3
370.195	0.25
370.403	0.3
370.61	0.21
370.818	0.25
371.026	0.34
371.233	0.21
371.441	0.21
371.648	0.18
371.856	0.24
372.063	0.23
372.271	0.25
372.478	0.2
372.685	0.2
372.893	0.32
373.1	0.28
373.308	0.24
373.515	0.33
373.722	0.31
373.93	0.26
374.137	0.27
374.344	0.36
374.552	0.31
374.759	0.28
374.966	0.25
375.173	0.25
375.381	0.31
375.588	0.25
375.795	0.19
376.002	0.23
376.209	0.24
376.417	0.28
376.624	0.2
376.831	0.3
377.038	0.24
377.245	0.17
377.452	0.2
377.659	0.29
377.866	0.26
378.073	0.22
378.28	0.24
378.487	0.33
378.694	0.29
378.901	0.24
379.108	0.23
379.315	0.31
379.522	0.37
379.729	0.23
379.936	0.23
380.143	0.29
380.35	0.28
380.557	0.28
380.763	0.26
380.97	0.27
381.177	0.28
381.384	0.25
381.591	0.25
381.797	0.27
382.004	0.29
382.211	0.28
382.418	0.21
382.624	0.32
382.831	0.31
383.038	0.27
383.244	0.27
383.451	0.26
383.658	0.29
383.864	0.25
384.071	0.2
384.277	0.36
384.484	0.21
384.69	0.33
384.897	0.24
385.103	0.26
385.31	0.24
385.516	0.29
385.723	0.23
385.929	0.27
386.136	0.25
386.342	0.3
386.549	0.23
386.755	0.4
386.961	0.3
387.168	0.28
387.374	0.26
387.58	0.3
387.787	0.3
387.993	0.28
388.199	0.27
388.406	0.27
388.612	0.27
388.818	0.26
389.024	0.25
389.231	0.28
389.437	0.38
389.643	0.3
389.849	0.24
390.055	0.34
390.261	0.3
390.467	0.28
390.674	0.22
390.88	0.31
391.086	0.3
391.292	0.19
391.498	0.33
391.704	0.3
391.91	0.31
392.116	0.24
392.322	0.2
392.528	0.34
392.734	0.3
392.94	0.3
393.146	0.28
393.352	0.3
393.557	0.24
393.763	0.29
393.969	0.31
394.175	0.28
394.381	0.3
394.587	0.28
394.792	0.3
394.998	0.36
395.204	0.33
395.41	0.24
395.615	0.29
395.821	0.29
396.027	0.33
396.233	0.29
396.438	0.31
396.644	0.35
396.85	0.33
397.055	0.29
397.261	0.33
397.466	0.4
397.672	0.33
397.878	0.42
398.083	0.37
398.289	0.3
398.494	0.4
398.7	0.37
398.905	0.28
399.111	0.42
399.316	0.29
399.522	0.33
399.727	0.33
399.932	0.37
400.138	0.34
400.343	0.35
400.549	0.34
400.754	0.36
400.959	0.37
401.165	0.35
401.37	0.43
401.575	0.41
401.78	0.4
401.986	0.34
402.191	0.38
402.396	0.4
402.601	0.38
402.807	0.35
403.012	0.41
403.217	0.41
403.422	0.39
403.627	0.41
403.832	0.42
404.037	0.42
404.243	0.47
404.448	0.38
404.653	0.38
404.858	0.41
405.063	0.43
405.268	0.4
405.473	0.38
405.678	0.4
405.883	0.61
406.088	0.48
406.293	0.4
406.498	0.41
406.703	0.47
406.907	0.45
407.112	0.43
407.317	0.5
407.522	0.57
407.727	0.45
407.932	0.54
408.136	0.63
408.341	0.54
408.546	0.56
408.751	0.5
408.956	0.54
409.16	0.65
409.365	0.55
409.57	0.59
409.774	0.59
409.979	0.67
410.184	0.61
410.388	0.56
410.593	0.71
410.798	0.72
411.002	0.67
411.207	0.77
411.411	0.74
411.616	0.7
411.82	0.76
412.025	0.79
412.229	0.8
412.434	0.93
412.638	0.85
412.843	0.87
413.047	0.93
413.252	0.92
413.456	0.96
413.66	1.02
413.865	0.99
414.069	1.1
414.273	1.03
414.478	1.03
414.682	1.11
414.886	1.09
415.091	1.14
415.295	1.12
415.499	1.34
415.703	1.28
415.908	1.32
416.112	1.27
416.316	1.45
416.52	1.42
416.724	1.43
416.929	1.5
417.133	1.74
417.337	1.6
417.541	1.59
417.745	1.7
417.949	1.76
418.153	1.86
418.357	1.87
418.561	2.06
418.765	2.01
418.969	2.16
419.173	2.24
419.377	2.2
419.581	2.4
419.785	2.38
419.989	2.46
420.193	2.57
420.397	2.65
420.601	2.8
420.804	2.89
421.008	2.83
421.212	3.03
421.416	2.99
421.62	2.95
421.823	3.06
422.027	3.28
422.231	3.17
422.435	3.16
422.638	3.27
422.842	3.41
423.046	3.42
423.249	3.63
423.453	3.62
423.657	3.81
423.86	3.8
424.064	3.99
424.268	4.1
424.471	4.01
424.675	4.26
424.878	4.38
425.082	4.42
425.285	4.82
425.489	4.66
425.692	4.78
425.896	4.82
426.099	5
426.303	5.16
426.506	5.24
426.71	5.5
426.913	5.7
427.116	5.75
427.32	5.87
427.523	5.95
427.726	6.19
427.93	6.29
428.133	6.55
428.336	6.74
428.54	6.87
428.743	7.05
428.946	7.34
429.149	7.36
429.353	7.43
429.556	7.44
429.759	7.4
429.962	7.59
430.165	7.7
430.368	7.46
430.571	7.49
430.775	7.65
430.978	7.55
431.181	7.63
431.384	7.75
431.587	7.84
431.79	8.21
431.993	8.14
432.196	8.44
432.399	8.74
432.602	8.98
432.805	9.04
433.008	9.44
433.211	9.46
433.414	9.72
433.616	9.86
433.819	9.71
434.022	9.95
434.225	10.05
434.428	10.1
434.631	10.44
434.833	10.28
435.036	10.61
435.239	10.79
435.442	10.75
435.645	11
435.847	11.07
436.05	11.42
436.253	11.49
436.455	11.58
436.658	11.56
436.861	11.79
437.063	11.89
437.266	11.93
437.468	12.25
437.671	12.53
437.874	12.48
438.076	12.45
438.279	12.91
438.481	12.77
438.684	13.66
438.886	13.31
439.089	13.5
439.291	13.49
439.494	13.83
439.696	14.12
439.899	14.58
440.101	14.95
440.303	15.12
440.506	15.88
440.708	15.56
440.91	15.77
441.113	15.97
441.315	16.26
441.517	15.99
441.72	16.43
441.922	16.07
442.124	16.09
442.326	16.45
442.529	16.72
442.731	16.64
442.933	16.92
443.135	16.76
443.337	16.77
443.539	17.35
443.742	17.03
443.944	17.64
444.146	17.53
444.348	17.33
444.55	17.28
444.752	17.53
444.954	17.59
445.156	17.45
445.358	17.81
445.56	18.16
445.762	17.88
445.964	18.34
446.166	18.06
446.368	18.14
446.57	18.16
446.772	17.73
446.974	17.56
447.175	17.81
447.377	17.53
447.579	17.95
447.781	17.7
447.983	17.42
448.184	17.08
448.386	17.61
448.588	17.15
448.79	17.02
448.991	17.23
449.193	17.51
449.395	16.91
449.597	16.43
449.798	16.44
450	15.93
450.202	15.89
450.403	16.01
450.605	15.85
450.806	15.54
451.008	15.43
451.21	15.15
451.411	14.81
451.613	14.02
451.814	14.4
452.016	14.3
452.217	13.62
452.419	13.67
452.62	13.34
452.821	13.13
453.023	12.99
453.224	12.71
453.426	12.16
453.627	11.4
453.828	11.62
454.03	11.72
454.231	11.59
454.432	11.49
454.634	11.3
454.835	10.91
455.036	10.84
455.238	10.43
455.439	10.17
455.64	9.99
455.841	9.85
456.042	10
456.244	9.61
456.445	9.4
456.646	9.12
456.847	9.03
457.048	8.88
457.249	8.86
457.45	8.6
457.651	8.1
457.852	7.95
458.054	7.68
458.255	7.56
458.456	7.67
458.657	7.54
458.858	7.06
459.058	7.07
459.259	7.13
459.46	6.69
459.661	6.74
459.862	6.74
460.063	6.61
460.264	6.61
460.465	6.21
460.666	6.31
460.866	6
461.067	5.81
461.268	5.76
461.469	5.69
461.67	5.56
461.87	5.51
462.071	5.43
462.272	5.38
462.473	5.35
462.673	5.45
462.874	5.41
463.075	5.32
463.275	5.31
463.476	5.25
463.676	5.28
463.877	5.1
464.078	5.16
464.278	5.21
464.479	5.08
464.679	4.99
464.88	4.94
465.08	4.88
465.281	4.76
465.481	4.47
465.682	4.37
465.882	4.42
466.083	4.27
466.283	4.24
466.483	4.11
466.684	3.97
466.884	3.79
467.085	3.82
467.285	3.92
467.485	3.84
467.686	3.7
467.886	3.61
468.086	3.59
468.286	3.51
468.487	3.59
468.687	3.41
468.887	3.39
469.087	3.51
469.287	3.44
469.488	3.21
469.688	3.41
469.888	3.33
470.088	3.34
470.288	3.23
470.488	3.12
470.688	3.01
470.888	2.99
471.088	2.8
471.288	2.96
471.488	2.91
471.688	2.9
471.888	2.83
472.088	2.98
472.288	2.85
472.488	2.78
472.688	2.66
472.888	2.77
473.088	2.74
473.288	2.61
473.488	2.56
473.688	2.76
473.887	2.68
474.087	2.54
474.287	2.56
474.487	2.47
474.687	2.57
474.886	2.47
475.086	2.44
475.286	2.48
475.486	2.32
475.685	2.34
475.885	2.25
476.085	2.39
476.284	2.4
476.484	2.3
476.684	2.34
476.883	2.37
477.083	2.3
477.282	2.22
477.482	2.29
477.681	2.22
477.881	2.19
478.08	2.15
478.28	2.13
478.479	2.25
478.679	2.2
478.878	2.16
479.078	2.07
479.277	2.15
479.477	2.1
479.676	2.11
479.875	2.09
480.075	2.07
480.274	2.07
480.473	2.15
480.673	2.05
480.872	2.16
481.071	2.06
481.271	2.13
481.47	2.03
481.669	2.09
481.868	2.04
482.067	2.01
482.267	2.01
482.466	1.98
482.665	2
482.864	2.03
483.063	2.01
483.262	2.08
483.461	2.1
483.661	2.13
483.86	2.03
484.059	2.09
484.258	2.12
484.457	2.09
484.656	2.07
484.855	2.15
485.054	1.98
485.253	2.04
485.452	2.02
485.651	2.14
485.849	2.1
486.048	2.05
486.247	2.05
486.446	2.1
486.645	2.09
486.844	2.12
487.043	2.11
487.241	2.13
487.44	2.11
487.639	2.19
487.838	2.17
488.037	2.14
488.235	2.24
488.434	2.18
488.633	2.08
488.831	2.28
489.03	2.27
489.229	2.25
489.427	2.25
489.626	2.33
489.825	2.29
490.023	2.35
490.222	2.28
490.42	2.37
490.619	2.37
490.817	2.41
491.016	2.34
491.214	2.45
491.413	2.46
491.611	2.4
491.81	2.38
492.008	2.47
492.207	2.57
492.405	2.54
492.604	2.42
492.802	2.56
493	2.63
493.199	2.63
493.397	2.64
493.595	2.69
493.794	2.65
493.992	2.75
494.19	2.76
494.388	2.82
494.587	2.77
494.785	2.79
494.983	2.73
495.181	2.84
495.379	2.93
495.578	2.99
495.776	2.95
495.974	2.92
496.172	2.93
496.37	3.05
496.568	3.09
496.766	3.11
496.964	3.19
497.162	3.18
497.36	3.17
497.558	3.27
497.756	3.32
497.954	3.3
498.152	3.29
498.35	3.41
498.548	3.38
498.746	3.37
498.944	3.38
499.142	3.42
499.34	3.53
499.538	3.6
499.736	3.47
499.933	3.6
500.131	3.56
500.329	3.77
500.527	3.69
500.725	3.86
500.922	3.85
501.12	3.83
501.318	3.89
501.516	3.89
501.713	3.99
501.911	3.94
502.109	3.94
502.306	4.05
502.504	3.98
502.701	4.03
502.899	4.11
503.097	4.35
503.294	4.16
503.492	4.28
503.689	4.31
503.887	4.32
504.084	4.38
504.282	4.35
504.479	4.29
504.677	4.51
504.874	4.53
505.072	4.43
505.269	4.64
505.466	4.63
505.664	4.74
505.861	4.58
506.059	4.74
506.256	4.74
506.453	4.8
506.651	4.9
506.848	4.97
507.045	4.94
507.242	4.95
507.44	5
507.637	5.05
507.834	4.96
508.031	5.17
508.229	5.05
508.426	5.05
508.623	5.17
508.82	5.23
509.017	5.17
509.214	5.24
509.411	5.34
509.608	5.27
509.805	5.41
510.003	5.36
510.2	5.48
510.397	5.56
510.594	5.49
510.791	5.57
510.988	5.54
511.184	5.56
511.381	5.46
511.578	5.63
511.775	5.75
511.972	5.68
512.169	5.74
512.366	5.72
512.563	5.87
512.76	5.88
512.956	5.9
513.153	5.84
513.35	5.84
513.547	5.85
513.744	5.94
513.94	5.93
514.137	6.05
514.334	6.03
514.53	6.06
514.727	6.28
514.924	6.18
515.12	6.15
515.317	6.17
515.514	6.14
515.71	6.11
515.907	6.34
516.103	6.31
516.3	6.26
516.497	6.38
516.693	6.4
516.89	6.35
517.086	6.39
517.283	6.46
517.479	6.32
517.676	6.54
517.872	6.53
518.068	6.57
518.265	6.5
518.461	6.43
518.658	6.63
518.854	6.58
519.05	6.66
519.247	6.68
519.443	6.66
519.639	6.83
519.836	6.72
520.032	6.65
520.228	6.87
520.424	6.75
520.621	6.85
520.817	6.87
521.013	6.78
521.209	6.98
521.405	7.02
521.601	6.94
521.798	6.9
521.994	6.95
522.19	6.87
522.386	6.91
522.582	7.03
522.778	7.19
522.974	7.03
523.17	7.04
523.366	7.01
523.562	7.08
523.758	7.13
523.954	6.92
524.15	7.18
524.346	7.17
524.542	7.19
524.738	7.09
524.934	7.23
525.129	7.25
525.325	7.17
525.521	7.21
525.717	7.38
525.913	7.22
526.109	7.25
526.304	7.39
526.5	7.3
526.696	7.37
526.892	7.31
527.087	7.48
527.283	7.46
527.479	7.42
527.674	7.19
527.87	7.47
528.066	7.47
528.261	7.44
528.457	7.41
528.653	7.53
528.848	7.52
529.044	7.58
529.239	7.44
529.435	7.44
529.63	7.41
529.826	7.42
530.021	7.48
530.217	7.52
530.412	7.5
530.608	7.56
530.803	7.51
530.999	7.49
531.194	7.53
531.389	7.6
531.585	7.6
531.78	7.7
531.975	7.62
532.171	7.66
532.366	7.67
532.561	7.65
532.757	7.58
532.952	7.77
533.147	7.58
533.342	7.68
533.538	7.59
533.733	7.83
533.928	7.54
534.123	7.69
534.318	7.7
534.513	7.66
534.709	7.78
534.904	7.79
535.099	7.81
535.294	7.78
535.489	7.87
535.684	7.77
535.879	7.74
536.074	7.88
536.269	7.85
536.464	7.85
536.659	7.86
536.854	7.8
537.049	7.87
537.244	7.75
537.439	7.79
537.634	7.88
537.828	7.91
538.023	7.85
538.218	7.83
538.413	7.72
538.608	7.89
538.803	7.8
538.997	7.84
539.192	7.9
539.387	7.87
539.582	7.83
539.776	7.81
539.971	7.92
540.166	8.01
540.36	7.89
540.555	8
540.75	7.96
540.944	7.95
541.139	7.93
541.334	7.87
541.528	7.93
541.723	7.95
541.917	8
542.112	7.89
542.306	7.79
542.501	7.85
542.695	7.84
542.89	7.89
543.084	7.96
543.279	8.01
543.473	7.99
543.668	7.96
543.862	7.84
544.056	7.82
544.251	8.03
544.445	8.07
544.64	8.14
544.834	7.67
545.028	7.57
545.222	7.95
545.417	8.22
545.611	8.06
545.805	8.03
546	7.9
546.194	8.01
546.388	8
546.582	7.97
546.776	7.92
546.97	7.98
547.165	8
547.359	7.92
547.553	7.88
547.747	8
547.941	8.16
548.135	7.92
548.329	7.99
548.523	8
548.717	7.97
548.911	7.97
549.105	7.91
549.299	8.01
549.493	8.03
549.687	7.96
549.881	8.08
550.075	8
550.269	7.91
550.463	8.04
550.657	8.05
550.85	7.99
551.044	8.06
551.238	8.04
551.432	8.01
551.626	8.08
551.82	8.03
552.013	7.97
552.207	8.04
552.401	8.14
552.594	7.98
552.788	7.96
552.982	8
553.176	7.91
553.369	8.19
553.563	8.11
553.756	8
553.95	8.01
554.144	8.1
554.337	8.06
554.531	7.8
554.724	8.07
554.918	8.15
555.111	7.98
555.305	8.04
555.498	7.98
555.692	8.13
555.885	8.09
556.079	7.98
556.272	8.05
556.466	7.99
556.659	8.05
556.852	8.11
557.046	7.97
557.239	7.88
557.432	8.02
557.626	8.11
557.819	8.13
558.012	8.03
558.206	8.13
558.399	8.05
558.592	8.01
558.785	7.99
558.979	8.02
559.172	8.04
559.365	8.04
559.558	8
559.751	8
559.944	8.15
560.138	8.05
560.331	8.06
560.524	8.1
560.717	7.98
560.91	7.97
561.103	8.02
561.296	7.92
561.489	8.03
561.682	8.15
561.875	8.1
562.068	8.08
562.261	7.93
562.454	8.13
562.647	8
562.84	8.05
563.032	8.05
563.225	7.97
563.418	7.98
563.611	8.08
563.804	8.11
563.997	7.9
564.19	7.84
564.382	8.11
564.575	8.05
564.768	7.96
564.961	8.06
565.153	8
565.346	7.91
565.539	8.07
565.731	8.03
565.924	8.03
566.117	8.12
566.309	8.08
566.502	7.99
566.695	7.9
566.887	8.02
567.08	8.02
567.272	8.05
567.465	7.94
567.657	8.04
567.85	7.91
568.042	7.97
568.235	8.04
568.427	7.87
568.62	7.95
568.812	7.99
569.005	8.02
569.197	7.91
569.389	8.04
569.582	8.03
569.774	7.95
569.966	7.86
570.159	7.88
570.351	7.92
570.543	7.89
570.736	7.98
570.928	7.79
571.12	7.94
571.312	7.88
571.505	7.64
571.697	8.01
571.889	7.95
572.081	7.96
572.273	7.9
572.465	7.92
572.658	7.95
572.85	7.94
573.042	7.98
573.234	7.86
573.426	7.88
573.618	7.84
573.81	7.91
574.002	7.86
574.194	7.92
574.386	7.81
574.578	7.76
574.77	7.81
574.962	7.86
575.154	7.73
575.346	7.75
575.538	7.74
575.729	7.75
575.921	7.91
576.113	7.89
576.305	7.87
576.497	7.87
576.689	7.71
576.88	7.67
577.072	7.86
577.264	7.8
577.456	7.82
577.647	7.75
577.839	7.88
578.031	7.77
578.223	7.76
578.414	7.67
578.606	7.7
578.798	7.85
578.989	7.76
579.181	7.86
579.372	7.78
579.564	7.71
579.755	7.76
579.947	7.65
580.139	7.7
580.33	7.61
580.522	7.7
580.713	7.61
580.905	7.64
581.096	7.77
581.287	7.64
581.479	7.64
581.67	7.67
581.862	7.63
582.053	7.65
582.244	7.51
582.436	7.74
582.627	7.52
582.818	7.48
583.01	7.57
583.201	7.7
583.392	7.55
583.583	7.54
583.775	7.34
583.966	7.48
584.157	7.53
584.348	7.65
584.54	7.46
584.731	7.51
584.922	7.42
585.113	7.39
585.304	7.46
585.495	7.52
585.686	7.53
585.877	7.5
586.068	7.61
586.259	7.48
586.45	7.48
586.641	7.39
586.832	7.47
587.023	7.43
587.214	7.33
587.405	7.42
587.596	7.35
587.787	7.34
587.978	7.36
588.169	7.27
588.36	7.21
588.551	7.34
588.742	7.33
588.932	7.34
589.123	7.16
589.314	7.4
589.505	7.25
589.696	7.31
589.886	7.22
590.077	7.26
590.268	7.18
590.458	7.17
590.649	7.09
590.84	7.19
591.03	7.23
591.221	7.19
591.412	7
591.602	7.26
591.793	7.15
591.984	7.21
592.174	7.13
592.365	7.27
592.555	7
592.746	7.04
592.936	7.02
593.127	7.1
593.317	7.15
593.508	7.1
593.698	7
593.889	7.05
594.079	7
594.269	6.92
594.46	7
594.65	7.02
594.84	6.93
595.031	6.91
595.221	6.87
595.411	6.92
595.602	6.9
595.792	6.82
595.982	6.74
596.172	6.98
596.363	6.78
596.553	6.81
596.743	6.84
596.933	6.8
597.123	6.81
597.314	6.64
597.504	6.69
597.694	6.82
597.884	6.74
598.074	6.72
598.264	6.74
598.454	6.68
598.644	6.67
598.834	6.65
599.024	6.54
599.214	6.59
599.404	6.65
599.594	6.63
599.784	6.51
599.974	6.69
600.164	6.61
600.354	6.62
600.544	6.53
600.734	6.58
600.924	6.5
601.114	6.48
601.303	6.47
601.493	6.46
601.683	6.54
601.873	6.47
602.063	6.39
602.252	6.41
602.442	6.35
602.632	6.41
602.821	6.32
603.011	6.29
603.201	6.29
603.39	6.29
603.58	6.21
603.77	6.33
603.959	6.38
604.149	6.22
604.339	6.29
604.528	6.41
604.718	6.26
604.907	6.2
605.097	6.16
605.286	6.15
605.476	6.17
605.665	6.21
605.855	6.17
606.044	6.19
606.234	6.1
606.423	6.1
606.612	6.06
606.802	6.07
606.991	6.09
607.181	6.08
607.37	6.05
607.559	5.81
607.749	6.03
607.938	5.95
608.127	6
608.316	5.95
608.506	5.89
608.695	6.02
608.884	5.89
609.073	5.88
609.263	5.95
609.452	5.89
609.641	5.74
609.83	5.75
610.019	5.83
610.208	5.79
610.397	5.79
610.586	5.78
610.775	5.73
610.965	5.76
611.154	5.62
611.343	5.76
611.532	5.61
611.721	5.71
611.91	5.58
612.099	5.65
612.287	5.56
612.476	5.49
612.665	5.68
612.854	5.48
613.043	5.55
613.232	5.55
613.421	5.41
613.61	5.5
613.798	5.47
613.987	5.55
614.176	5.45
614.365	5.45
614.554	5.44
614.742	5.44
614.931	5.37
615.12	5.47
615.309	5.39
615.497	5.32
615.686	5.29
615.875	5.29
616.063	5.23
616.252	5.23
616.44	5.23
616.629	5.21
616.818	5.27
617.006	5.22
617.195	5.13
617.383	5.19
617.572	5.12
617.76	5.06
617.949	5.1
618.137	5.26
618.326	5.18
618.514	5.01
618.703	5.01
618.891	5.17
619.079	5
619.268	5.06
619.456	4.95
619.644	5.04
619.833	4.97
620.021	4.97
620.209	4.85
620.398	4.94
620.586	4.85
620.774	4.94
620.962	4.86
621.151	4.95
621.339	4.84
621.527	4.81
621.715	4.79
621.903	4.79
622.092	4.74
622.28	4.8
622.468	4.61
622.656	4.76
622.844	4.65
623.032	4.75
623.22	4.62
623.408	4.74
623.596	4.74
623.784	4.71
623.972	4.53
624.16	4.59
624.348	4.65
624.536	4.68
624.724	4.53
624.912	4.53
625.1	4.54
625.288	4.54
625.476	4.41
625.664	4.52
625.851	4.46
626.039	4.5
626.227	4.44
626.415	4.47
626.603	4.37
626.79	4.39
626.978	4.4
627.166	4.4
627.354	4.29
627.541	4.27
627.729	4.19
627.917	4.48
628.104	4.39
628.292	4.25
628.48	4.25
628.667	4.17
628.855	4.28
629.042	4.31
629.23	4.2
629.418	4.2
629.605	4.18
629.793	4.09
629.98	4.13
630.168	4.06
630.355	4.18
630.543	4.1
630.73	4.01
630.917	4.07
631.105	4.12
631.292	4.04
631.48	4.02
631.667	4.16
631.854	4.03
632.042	3.98
632.229	3.9
632.416	4.03
632.604	3.99
632.791	3.83
632.978	3.92
633.165	3.89
633.353	3.92
633.54	3.9
633.727	3.77
633.914	3.83
634.101	3.8
634.289	3.84
634.476	3.74
634.663	3.72
634.85	3.74
635.037	3.72
635.224	3.68
635.411	3.75
635.598	3.67
635.785	3.62
635.972	3.66
636.159	3.68
636.346	3.62
636.533	3.59
636.72	3.59
636.907	3.55
637.094	3.58
637.281	3.46
637.468	3.55
637.655	3.55
637.842	3.52
638.029	3.45
638.215	3.48
638.402	3.48
638.589	3.39
638.776	3.4
638.963	3.38
639.149	3.43
639.336	3.55
639.523	3.39
639.709	3.39
639.896	3.33
640.083	3.38
640.27	3.4
640.456	3.36
640.643	3.36
640.829	3.22
641.016	3.18
641.203	3.16
641.389	3.27
641.576	3.23
641.762	3.15
641.949	3.14
642.135	3.24
642.322	3.2
642.508	3.1
642.695	3.16
642.881	3.14
643.068	3.11
643.254	3.12
643.441	3.14
643.627	3.14
643.813	3.01
644	3.11
644.186	3.03
644.372	3.03
644.559	3.07
644.745	3
644.931	2.95
645.118	2.99
645.304	2.98
645.49	2.97
645.676	2.94
645.862	2.95
646.049	2.98
646.235	2.93
646.421	2.99
646.607	3
646.793	2.88
646.979	2.8
647.165	2.91
647.352	2.84
647.538	2.9
647.724	2.81
647.91	2.81
648.096	2.81
648.282	2.85
648.468	2.77
648.654	2.74
648.84	2.81
649.026	2.78
649.212	2.66
649.397	2.66
649.583	2.73
649.769	2.75
649.955	2.65
650.141	2.72
650.327	2.67
650.513	2.62
650.698	2.63
650.884	2.5
651.07	2.61
651.256	2.58
651.442	2.59
651.627	2.5
651.813	2.58
651.999	2.53
652.184	2.49
652.37	2.51
652.556	2.57
652.741	2.56
652.927	2.37
653.113	2.49
653.298	2.47
653.484	2.48
653.669	2.4
653.855	2.44
654.04	2.42
654.226	2.47
654.412	2.39
654.597	2.39
654.782	2.42
654.968	2.37
655.153	2.36
655.339	2.32
655.524	2.32
655.71	2.37
655.895	2.25
656.08	2.32
656.266	2.41
656.451	2.31
656.636	2.26
656.822	2.27
657.007	2.25
657.192	2.26
657.378	2.22
657.563	2.24
657.748	2.22
657.933	2.25
658.118	2.14
658.304	2.14
658.489	2.23
658.674	2.2
658.859	2.14
659.044	2.16
659.229	2.22
659.414	2.05
659.599	2.12
659.785	2.03
659.97	2.12
660.155	2.13
660.34	2.12
660.525	2.07
660.71	2.05
660.895	2.14
661.08	2.04
661.264	2.02
661.449	2.08
661.634	2.01
661.819	2.08
662.004	2.03
662.189	1.97
662.374	2.02
662.559	1.94
662.743	1.91
662.928	1.99
663.113	1.91
663.298	1.83
663.483	1.85
663.667	1.93
663.852	1.88
664.037	1.98
664.221	1.93
664.406	1.97
664.591	1.9
664.775	1.91
664.96	1.84
665.145	1.92
665.329	1.91
665.514	1.88
665.698	1.76
665.883	1.77
666.068	1.83
666.252	1.87
666.437	1.73
666.621	1.75
666.806	1.83
666.99	1.76
667.174	1.71
667.359	1.85
667.543	1.72
667.728	1.71
667.912	1.65
668.096	1.78
668.281	1.68
668.465	1.72
668.649	1.74
668.834	1.65
669.018	1.72
669.202	1.69
669.387	1.66
669.571	1.72
669.755	1.59
669.939	1.67
670.124	1.61
670.308	1.71
670.492	1.68
670.676	1.63
670.86	1.67
671.044	1.59
671.228	1.71
671.413	1.54
671.597	1.53
671.781	1.54
671.965	1.61
672.149	1.57
672.333	1.55
672.517	1.55
672.701	1.55
672.885	1.56
673.069	1.46
673.253	1.61
673.437	1.51
673.621	1.5
673.804	1.5
673.988	1.54
674.172	1.46
674.356	1.38
674.54	1.45
674.724	1.6
674.908	1.43
675.091	1.49
675.275	1.49
675.459	1.53
675.643	1.57
675.826	1.44
676.01	1.42
676.194	1.47
676.377	1.44
676.561	1.48
676.745	1.42
676.928	1.43
677.112	1.43
677.296	1.37
677.479	1.33
677.663	1.33
677.846	1.44
678.03	1.38
678.213	1.31
678.397	1.4
678.58	1.33
678.764	1.34
678.947	1.28
679.131	1.32
679.314	1.42
679.498	1.32
679.681	1.37
679.865	1.37
680.048	1.31
680.231	1.26
680.415	1.31
680.598	1.29
680.781	1.28
680.965	1.25
681.148	1.3
681.331	1.23
681.514	1.28
681.698	1.22
681.881	1.26
682.064	1.19
682.247	1.29
682.43	1.15
682.614	1.26
682.797	1.25
682.98	1.25
683.163	1.15
683.346	1.18
683.529	1.17
683.712	1.16
683.895	1.21
684.078	1.11
684.261	1.13
684.444	1.19
684.627	1.24
684.81	1.11
684.993	1.16
685.176	1.22
685.359	1.12
685.542	1.12
685.725	1.23
685.908	1.13
686.091	1.12
686.274	1.25
686.457	1.17
686.639	1.17
686.822	1.15
687.005	1.11
687.188	1.16
687.371	1.27
687.553	1.16
687.736	1.08
687.919	1.09
688.102	1.19
688.284	1.07
688.467	1.06
688.65	1.06
688.832	0.97
689.015	1.11
689.197	0.96
689.38	1.2
689.563	1.11
689.745	1.02
689.928	1.01
690.11	1.01
690.293	1.01
690.475	0.96
690.658	0.97
690.84	1.02
691.023	0.95
691.205	0.96
691.388	1.02
691.57	1.05
691.752	1.03
691.935	0.93
692.117	0.92
692.3	0.96
692.482	0.96
692.664	0.92
692.847	0.99
693.029	1.05
693.211	0.99
693.393	0.89
693.576	0.87
693.758	0.98
693.94	0.97
694.122	0.95
694.304	0.93
694.487	0.93
694.669	1.04
694.851	0.83
695.033	0.91
695.215	0.88
695.397	0.91
695.579	0.91
695.761	0.87
695.943	0.86
696.125	0.98
696.308	0.91
696.49	0.76
696.671	0.98
696.853	0.84
697.035	1.05
697.217	0.84
697.399	0.92
697.581	0.82
697.763	0.9
697.945	0.76
698.127	0.92
698.309	0.89
698.491	0.89
698.672	0.88
698.854	0.92
699.036	0.91
699.218	0.83
699.399	0.86
699.581	0.85
699.763	0.83
699.945	0.74
700.126	0.75
700.308	0.85
700.49	0.82
700.671	0.73
700.853	0.75
701.035	0.8
701.216	0.8
701.398	0.74
701.579	0.74
701.761	0.87
701.943	0.79
702.124	0.75
702.306	0.78
702.487	0.91
702.669	0.75
702.85	0.71
703.031	0.73
703.213	0.89
703.394	0.85
703.576	0.67
703.757	0.89
703.938	0.82
704.12	0.95
704.301	0.75
704.483	0.69
704.664	0.79
704.845	0.99
705.026	0.86
705.208	0.67
705.389	0.78
705.57	0.77
705.751	0.69
705.933	0.71
706.114	0.84
706.295	0.73
706.476	0.65
706.657	0.81
706.838	0.8
707.02	0.77
707.201	0.65
707.382	0.76
707.563	0.77
707.744	0.71
707.925	0.62
708.106	0.7
708.287	0.74
708.468	0.8
708.649	0.68
708.83	0.7
709.011	0.67
709.192	0.72
709.373	0.62
709.554	0.68
709.734	0.74
709.915	0.76
710.096	0.59
710.277	0.49
710.458	0.74
710.639	0.66
710.819	0.53
711	0.57
711.181	0.74
711.362	0.82
711.542	0.67
711.723	0.7
711.904	0.74
712.085	0.67
712.265	0.62
712.446	0.57
712.627	0.6
712.807	0.62
712.988	0.66
713.168	0.54
713.349	0.72
713.53	0.5
713.71	0.55
713.891	0.51
714.071	0.58
714.252	0.56
714.432	0.59
714.613	0.53
714.793	0.53
714.974	0.7
715.154	0.63
715.334	0.69
715.515	0.73
715.695	0.57
715.876	0.62
716.056	0.58
716.236	0.57
716.417	0.53
716.597	0.56
716.777	0.83
716.957	0.58
717.138	0.61
717.318	0.58
717.498	0.52
717.678	0.62
717.859	0.59
718.039	0.5
718.219	0.61
718.399	0.63
718.579	0.48
718.759	0.48
718.939	0.63
719.12	0.57
719.3	0.56
719.48	0.41
719.66	0.44
719.84	0.68
720.02	0.49
720.2	0.39
720.38	0.57
720.56	0.63
720.74	0.45
720.92	0.54
721.1	0.68
721.279	0.7
721.459	0.59
721.639	0.38
721.819	0.56
721.999	0.52
722.179	0.58
722.359	0.47
722.538	0.53
722.718	0.56
722.898	0.5
723.078	0.5
723.257	0.46
723.437	0.63
723.617	0.54
723.797	0.51
723.976	0.51
724.156	0.58
724.336	0.6
724.515	0.79
724.695	0.35
724.874	0.45
725.054	0.54
725.234	0.5
725.413	0.54
725.593	0.53
725.772	0.48
725.952	0.48
726.131	0.54
726.311	0.55
726.49	0.49
726.67	0.45
726.849	0.44
727.028	0.53
727.208	0.46
727.387	0.56
727.567	0.36
727.746	0.47
727.925	0.47
728.105	0.35
728.284	0.46
728.463	0.47
728.643	0.45
728.822	0.42
729.001	0.46
729.18	0.5
729.359	0.64
729.539	0.54
729.718	0.49
729.897	0.56
730.076	0.45
730.255	0.34
730.434	0.48
730.614	0.53
730.793	0.63
730.972	0.5
731.151	0.52
731.33	0.54
731.509	0.5
731.688	0.51
731.867	0.46
732.046	0.32
732.225	0.83
732.404	0.37
732.583	0.32
732.762	0.47
732.941	0.53
733.12	0.47
733.298	0.38
733.477	0.61
733.656	0.4
733.835	0.34
734.014	0.53
734.193	0.52
734.371	0.58
734.55	0.5
734.729	0.3
734.908	0.54
735.086	0.5
735.265	0.55
735.444	0.31
735.623	0.32
735.801	0.45
735.98	0.44
736.159	0.4
736.337	0.54
736.516	0.49
736.694	0.46
736.873	0.39
737.052	0.74
737.23	0.67
737.409	0.42
737.587	0.68
737.766	0.36
737.944	0.48
738.123	0.57
738.301	0.48
738.479	0.56
738.658	0.56
738.836	0.21
739.015	0.45
739.193	0.64
739.371	0.41
739.55	0.39
739.728	0.43
739.906	0.56
740.085	0.64
740.263	0.57
740.441	0.2
740.62	0.64
740.798	0.57
740.976	0.28
741.154	0.35
741.332	0.65
741.511	0.53
741.689	0.53
741.867	0.46
742.045	0.46
742.223	0.44
742.401	0.32
742.579	0.36
742.757	0.53
742.935	0.35
743.114	0.46
743.292	0.45
743.47	0.45
743.648	0.51
743.826	0.29
744.004	0.5
744.181	0.57
744.359	0.3
744.537	0.41
744.715	0.46
744.893	0.46
745.071	0.42
745.249	0.51
745.427	0.44
745.605	0.54
745.782	0.37
745.96	0.49
746.138	0.57
746.316	0.51
746.493	0.35
746.671	0.47
746.849	0.36
747.027	0.6
747.204	0.43
747.382	0.53
747.56	0.31
747.737	0.35
747.915	0.29
748.093	0.41
748.27	0.42
748.448	0.46
748.625	0.27
748.803	0.35
748.98	0.35
749.158	0.31
749.335	0.47
749.513	0.32
749.69	0.32
749.868	0.32
750.045	0.36
750.223	0.22
750.4	0.22
750.578	0.61
750.755	0.4
750.932	0.24
751.11	0.58
751.287	0.3
751.464	0.47
751.642	0.21
751.819	0.48
751.996	0.46
752.173	0.49
752.351	0.25
752.528	0.36
752.705	0.42
752.882	0.29
753.06	0.36
753.237	0.43
753.414	0.62
753.591	0.65
753.768	0.38
753.945	0.31
754.122	0.41
754.299	0.4
754.476	0.23
754.654	0.33
754.831	0.47
755.008	0.43
755.185	0.34
755.362	0.34
755.539	0.51
755.716	0.26
755.892	0.32
756.069	0.39
756.246	0.4
756.423	0.28
756.6	0.52
756.777	0.29
756.954	0.53
757.131	0.48
757.307	0.18
757.484	0.24
757.661	0.31
757.838	0.36
758.015	0.25
758.191	0.47
758.368	0.52
758.545	0.58
758.721	0.43
758.898	0.22
759.075	0.5
759.251	0.44
759.428	0.42
759.605	0.25
759.781	0.35
759.958	0.48
760.134	0.49
760.311	0.34
760.488	0.62
760.664	0.47
760.841	0.45
761.017	0.29
761.194	0.44
761.37	0.44
761.547	0.35
761.723	0.39
761.899	0.55
762.076	0.27
762.252	0.27
762.429	0.34
762.605	0.48
762.781	0.38
762.958	0.33
763.134	0.44
763.31	0.35
763.486	0.56
763.663	0.06
763.839	0.37
764.015	0.17
764.191	0.34
764.368	0.27
764.544	0.35
764.72	0.34
764.896	0.49
765.072	0.49
765.248	0.3
765.425	0.34
765.601	0.41
765.777	0.32
765.953	0.12
766.129	0.3
766.305	0.28
766.481	0.5
766.657	0.44
766.833	0.7
767.009	0.27
767.185	0.31
767.361	0.42
767.537	0.18
767.713	0.58
767.889	0.33
768.065	0.41
768.24	0.2
768.416	0.47
768.592	0.25
768.768	0.44
768.944	0.38
769.12	0.3
769.295	0.41
769.471	0.25
769.647	0.17
769.823	0.64
769.998	0.32
770.174	0.23
770.35	0.83
770.525	0.63
770.701	0.41
770.877	0.39
771.052	0.28
771.228	0.56
771.403	0.38
771.579	0.34
771.755	0.8
771.93	0.23
772.106	0.16
772.281	0.1
772.457	0.38
772.632	0.44
772.808	0.31
772.983	0.27
773.159	0.2
773.334	0.55
773.509	0.45
773.685	0.21
773.86	0.72
774.036	0.61
774.211	0.39
774.386	0.25
774.562	0.31
774.737	0.61
774.912	0.32
775.087	0.38
775.263	0.27
775.438	0.35
775.613	0.36
775.788	0.28
775.964	0.45
776.139	0.87
776.314	0.24
776.489	0.33
776.664	0.49
776.839	0.22
777.014	0.62
777.19	0.44
777.365	0.49
777.54	0.73
777.715	0.32
777.89	0.45
778.065	0.32
778.24	0.27
778.415	0.44
778.59	0.2
778.765	0.38
778.94	0.35
779.115	0.21
779.289	0.4
779.464	0.3
779.639	0.39
779.814	-0.02
779.989	0.2
780.164	0.63
780.339	0.54
780.513	0.36
780.688	0.26
780.863	0.46
781.038	0.61
781.212	0.09
781.387	0.38
781.562	0.81
781.737	0.13
781.911	0.66
782.086	0.24
782.261	0.29
782.435	0.7
782.61	0.45
782.784	0.37
782.959	0.62
783.134	0.22
783.308	0.09
783.483	0.28
783.657	1.02
783.832	0.71
784.006	0.1
784.181	0.43
784.355	0.45
784.53	0.37
784.704	0.16
784.878	0.7
785.053	0.6
785.227	0.75
785.402	0.83
785.576	0.4
785.75	0.43
785.925	0.4
786.099	0.39
786.273	0.48
786.448	0.52
786.622	0.63
786.796	0.35
786.97	0.44
787.145	1.02
787.319	0.07
787.493	0.57
787.667	0.06
787.841	0.44
788.015	0.7
788.19	0.42
788.364	0.4
788.538	0.66
788.712	0.72
788.886	0.43
789.06	0.58
789.234	0.62
789.408	0.19
789.582	0.45
789.756	0.32
789.93	0.34
790.104	0.22
790.278	0.49
790.452	0.18
790.626	0.44
790.8	0.3
790.973	0.74
791.147	0.75
791.321	0.64
791.495	0.59
791.669	0.56
791.843	0.52
792.016	0.52
792.19	0.82
792.364	0.21
792.538	1.09
792.711	0.71
792.885	0.22
793.059	0.24
793.233	0.04
793.406	0.71
793.58	0.59
793.754	0.64
793.927	0.19
794.101	0.91
794.274	0.56
794.448	0.65
794.622	0.1
794.795	0.75
794.969	0.21
795.142	0.72
795.316	0.28
795.489	0.34
795.663	0.85
795.836	0.59
796.009	0.13
796.183	0.93
796.356	0.74
796.53	0.54
796.703	0.4
796.876	1.21
797.05	0.57
797.223	0.15
797.396	0.44
797.57	0.65
797.743	0.75
797.916	0.52
798.09	0.25
798.263	0.95
798.436	0.58
798.609	0.18
798.782	0.45
798.956	0.63
799.129	0.28
799.302	0.32
799.475	0.28
799.648	0.43
799.821	0.16
799.994	0.53
800.167	0.11
800.34	0.43
800.514	0.46
800.687	0.54
800.86	0.24
801.033	0.58
801.206	0.71
801.379	0.16
801.551	0.83
801.724	0.47
801.897	1.07
802.07	0.45
802.243	0.19
802.416	0.81
802.589	0.45
802.762	0.51
802.935	0.48
803.107	1.08
803.28	1.03
803.453	0.77
803.626	0.03
803.798	0.88
803.971	0.29
804.144	0.88
804.317	0.59
804.489	0.9
804.662	0.41
804.835	0.78
805.007	0.13
805.18	0.98
805.353	0.54
805.525	0.24
805.698	0.42
805.87	1.23
806.043	0.78
806.215	-0.03
806.388	0.49
806.56	0.57
806.733	1.05
806.905	1.02
807.078	0.59
807.25	0.19
807.423	0.77
807.595	0.46
807.768	0.68
807.94	0.86
808.112	0.7
808.285	0.2
808.457	-0
808.629	0.58
808.802	0.82
808.974	0.44
809.146	0.64
809.318	0.74
809.491	0.61
809.663	0.69
809.835	0.28
810.007	0.63
810.18	0.44
810.352	0.07
810.524	0.47
810.696	0.93
810.868	0.87
811.04	0.15
811.212	0.24
811.384	0.73
811.556	0.87
811.728	0.4
811.901	1.13
812.073	0.86
812.245	1.06
812.417	0.63
812.589	0.19
812.76	0.29
812.932	0.59
813.104	0.74
813.276	0.67
813.448	0.79
813.62	0.71
813.792	0.43
813.964	0.53
814.136	0.59
814.307	0.43
814.479	0.34
814.651	0.36
814.823	1.52
814.995	0.45
815.166	0.85
815.338	0.57
815.51	0.23
815.681	1.36
815.853	0.6
816.025	0.79
816.196	1.27
816.368	0.59
816.54	0.63
816.711	-0.04
816.883	0.98
817.054	1.68
817.226	0.08
817.398	0.69
817.569	0.51
817.741	0.55
817.912	0.47
818.084	0.41
818.255	0.67
818.426	0.37
818.598	0.62
818.769	-0.06
818.941	1.04
819.112	1.77
819.283	1.09
819.455	0.45
819.626	0.88
819.798	1.03
819.969	0.89
820.14	0.33
820.311	0.52
820.483	0.58
820.654	0.68
820.825	0.49
820.996	0.63
821.168	0.11
821.339	0.4
821.51	0.22
821.681	0.49
821.852	0.68
822.023	0.22
822.195	0.2
822.366	0.92
822.537	0.73
822.708	1.23
822.879	0.41
823.05	1.41
823.221	0.12
823.392	0.9
823.563	0.63
823.734	0.92
823.905	0.27
824.076	0.38
824.247	0.55
824.418	-0.07
824.589	1.35
824.759	0.75
824.93	0.72
825.101	0.1
825.272	1.62
825.443	0.81
825.614	1.28
825.784	0.32
825.955	1.96
826.126	1.75
826.297	0.74
826.467	1.55
826.638	1.78
826.809	-0.28
826.98	0.81
827.15	1.35
827.321	1.22
827.492	2.24
827.662	0.98
827.833	2.17
828.003	1.52
828.174	0.38
828.345	0.35
828.515	1.65
828.686	1.13
828.856	1.06
829.027	1.33
829.197	1.43
829.368	1.24
829.538	0.27
829.709	0.54
829.879	0.77
830.049	0.56
830.22	1.01
830.39	0.75
830.56	1.4
830.731	0.87
830.901	0.08
831.072	0.56
831.242	0.92
831.412	0.56
831.582	1.03
831.753	-0.03
831.923	1.09
832.093	1.48
832.263	0.73
832.434	-0.2
832.604	0.93
832.774	1.52
832.944	1.4
833.114	0.46
833.284	1
833.454	0.53
833.624	0.14
833.795	0.52
833.965	1.4
834.135	1.8
834.305	-0.59
834.475	0.24
834.645	0.86
834.815	0.53
834.985	0.27
835.155	0.14
835.325	1.1
835.494	1.61
835.664	0.77
835.834	0.33
836.004	1.42
836.174	1.75
836.344	1.16
836.514	0.31
836.684	0.44
836.853	0.7
837.023	0.44
837.193	0.88
837.363	1.97
837.532	1.4
837.702	0.64
837.872	0.09
838.041	1.36
838.211	2.22
838.381	-0.16
838.55	0.34
838.72	2.95
838.89	2.09
839.059	0.42
839.229	0.49
839.398	3.11
839.568	0.68
839.738	0.67
839.907	2.33
840.077	1.24
840.246	0.7
840.416	0.46
840.585	0.29
840.755	2.07
840.924	2.47
841.093	0.27
841.263	0.17
841.432	1.15
841.602	0.24
841.771	0.62
841.94	0.59
842.11	3.39
842.279	2.78
842.448	0.52
842.617	0.09
842.787	2.77
842.956	0.34
843.125	1.54
843.294	1.39
843.464	1.8
843.633	1.73
843.802	-0.46
843.971	1.2
844.14	1.99
844.309	2.24
844.479	-0.19
844.648	-0.19
844.817	0.47
844.986	1.64
845.155	0.81
845.324	0.41
845.493	0.63
845.662	0.47
845.831	1.99
846	1.68
846.169	0.38
846.338	2.82
846.507	0.56
846.676	0.71
846.844	0.28
847.013	1.81
847.182	1.63
847.351	0.46
847.52	1.14
847.689	1.95
847.858	1.05
848.026	-0.05
848.195	1.36
848.364	0.21
848.533	0.72
848.701	0.11
848.87	1.29
849.039	2.49
849.207	2.15
849.376	3
849.545	2.58
849.713	0.34
849.882	0.48
850.051	0.47
850.219	1.51
850.388	1.89
850.556	0.94
850.725	1.03
850.893	1.11
851.062	0.73
851.23	1.35
851.399	-0.68
851.567	1.33
851.736	1.09
851.904	0.9
852.073	1.38
852.241	2.6
852.41	1.6
852.578	1.43
852.746	0.04
852.915	1.61
853.083	1.89
853.251	-0.7
853.42	0.07
853.588	1.33
853.756	2.28
853.924	0.76
854.093	0.83
854.261	1.31
854.429	0.52
854.597	2.34
854.765	1.1
854.934	1.67
855.102	3.88
855.27	2.24
855.438	1.74
855.606	2.77
855.774	3.62
855.942	-0.19
856.11	-0.9
856.278	0.8
856.446	2.8
856.614	1.01
856.782	-0.35
856.95	1.83
857.118	3.03
857.286	1.7
857.454	0.2
857.622	1.64
857.79	2.36
857.958	0.68
858.126	-0.15
858.294	-1.85
858.462	1.06
858.629	0.39
858.797	0.5
858.965	2.63
859.133	2.59
859.301	2.08
859.468	2.56
859.636	2.03
859.804	3.86
859.971	2.79
860.139	0.35
860.307	2.38
860.474	1.4
860.642	-0.01
860.81	-0.34
860.977	1.55
861.145	3.08
861.313	1.82
861.48	1.06
861.648	3.25
861.815	0.69
861.983	-1.12
862.15	0.27
862.318	2.21
862.485	3.14
862.653	0.11
862.82	1.04
862.988	4.09
863.155	1.73
863.322	0.67
863.49	1.35
863.657	0.95
863.824	4.19
863.992	2.64
864.159	2.89
864.326	2.56
864.494	0.64
864.661	4.48
864.828	-0.55
864.996	4.1
865.163	3.65
865.33	-0.4
865.497	-1.43
865.664	1.32
865.832	0.19
865.999	1.43
866.166	-0.58
866.333	1.13
866.5	2.34
866.667	0.74
866.834	1.32
867.001	4.15
867.168	-1.23
867.335	1.01
867.502	-0.27
867.669	1.9
867.836	5.72
868.003	0.82
868.17	3.6
868.337	1.95
868.504	5.72
868.671	0.24
868.838	1.93
869.005	2.98
869.172	2
869.339	1.66
869.505	1.55
869.672	2.33
869.839	4.22
870.006	2.02
870.173	-1.59
870.339	3.87
870.506	4.75
870.673	0.14
870.84	3.36
871.006	2.17
871.173	1.55
871.34	1.98
871.506	-0.59
871.673	3.7
871.839	1.19
872.006	2.28
872.173	0.76
872.339	1.63
872.506	3.1
872.672	2.79
872.839	-1.55
873.005	3.02
873.172	5.3
873.338	5.54
873.505	1.43
873.671	1.84
873.838	3.31
874.004	-0.99
874.171	1.09
874.337	2.38
874.503	3.7
874.67	0.71
874.836	2.3
875.002	3.98
875.169	3.88
875.335	1.29
875.501	-0.03
875.668	5.09
875.834	2.57
876	1.9
876.166	3.63
876.332	1.56
876.499	5.83
876.665	0.78
876.831	2.39
876.997	5.57
877.163	2.55
877.329	0.95
877.495	1.98
877.662	2.64
877.828	1.39
877.994	1.57
878.16	-0.07
878.326	0.89
878.492	2.43
878.658	4.04
878.824	3.47
878.99	2.12
879.156	0.32
879.322	5.25
879.487	2.36
879.653	1.46
879.819	3
879.985	-0.2
880.151	3.19
880.317	3.91
880.483	2.82
880.648	4.41
880.814	-1.32
880.98	3
881.146	-1.71
881.312	-0.15
881.477	0.43
881.643	1.66
881.809	2.84
881.974	3.07
882.14	0.51
882.306	1.6
882.471	7.61
882.637	0.04
882.803	2.14
882.968	4.58
883.134	7.61
883.299	2.17
883.465	1.51
883.63	3.32
883.796	2.28
883.961	2.35
884.127	4.56
884.292	-2.82
884.458	-0.83
884.623	-0.83
