Data from Apollo_Calib_20240827__AbsoluteIrradiance__827__12-56-01-277.txt Node

Date: Wed Aug 28 12:56:01 BST 2024
User: biology
Spectrometer: FLMT08252
Trigger mode: 0
Integration Time (sec): 5.000000E-1
Scans to average: 5
Electric dark correction enabled: true
Nonlinearity correction enabled: false
Boxcar width: 0
XAxis mode: Wavelengths
Number of Pixels in Spectrum: 3648
>>>>>Begin Spectral Data<<<<<
179.588	-0
179.809	-0
180.03	-0
180.251	-0
180.473	-0
180.694	0
180.915	0
181.136	-0
181.357	0
181.578	-0
181.799	-0
182.02	-0
182.241	-0
182.462	-0
182.683	0
182.904	-0
183.125	-0
183.346	0
183.567	0
183.788	0
184.009	0
184.23	0
184.451	0
184.672	0
184.892	0
185.113	0
185.334	0
185.555	0
185.776	0
185.996	0
186.217	0
186.438	0
186.659	0
186.879	0
187.1	0
187.321	0
187.541	0
187.762	0
187.983	0
188.203	0
188.424	0
188.644	0
188.865	0
189.086	0
189.306	0
189.527	0
189.747	0
189.968	0
190.188	0
190.409	0
190.629	0
190.849	0
191.07	0
191.29	0
191.511	0
191.731	0
191.951	0
192.172	0
192.392	0
192.612	0
192.833	0
193.053	0
193.273	0
193.493	0
193.714	0
193.934	0
194.154	0
194.374	0
194.594	0
194.815	0
195.035	0
195.255	0
195.475	0
195.695	0
195.915	0
196.135	0
196.355	0
196.575	0
196.795	0
197.015	0
197.235	0
197.455	0
197.675	0
197.895	0
198.115	0
198.335	0
198.555	0
198.775	0
198.995	0
199.214	0
199.434	0
199.654	0
199.874	0
200.094	4.72
200.313	2.83
200.533	1.91
200.753	1.8
200.973	3.74
201.192	3.14
201.412	1.45
201.632	1.9
201.851	3.38
202.071	1.95
202.291	1.31
202.51	1.41
202.73	2.55
202.95	1.87
203.169	1.3
203.389	1.87
203.608	2.26
203.828	1.27
204.047	1.39
204.267	1.82
204.486	1.85
204.706	2.6
204.925	1.49
205.145	0.94
205.364	2.43
205.583	2.68
205.803	1.06
206.022	1.08
206.242	1.81
206.461	1.28
206.68	1.27
206.9	1.9
207.119	2.52
207.338	2.2
207.557	1.11
207.777	1.36
207.996	1.24
208.215	2.11
208.434	0.88
208.654	0.8
208.873	1.53
209.092	2.03
209.311	1
209.53	0.97
209.749	0.92
209.968	1.1
210.187	0.9
210.407	0.82
210.626	1.22
210.845	1.63
211.064	1.03
211.283	0.58
211.502	1.35
211.721	1.17
211.94	1.12
212.159	1.17
212.377	1.39
212.596	1.24
212.815	1.16
213.034	1.25
213.253	1.37
213.472	1.26
213.691	1.02
213.91	0.84
214.128	0.66
214.347	1.66
214.566	0.54
214.785	0.53
215.003	1.32
215.222	1.08
215.441	0.84
215.66	0.47
215.878	1.06
216.097	1.17
216.316	0.6
216.534	0.91
216.753	1.02
216.972	0.78
217.19	1.01
217.409	0.63
217.627	0.68
217.846	0.64
218.064	0.85
218.283	0.38
218.501	1.41
218.72	1.34
218.938	0.64
219.157	0.66
219.375	1.12
219.594	1.17
219.812	0.45
220.031	0.46
220.249	1.17
220.467	1.09
220.686	0.62
220.904	0.7
221.122	0.68
221.341	1.08
221.559	0.83
221.777	0.55
221.995	0.75
222.214	0.83
222.432	0.57
222.65	0.86
222.868	0.74
223.086	0.89
223.305	0.76
223.523	0.49
223.741	1.06
223.959	0.84
224.177	0.42
224.395	0.54
224.613	0.8
224.831	0.85
225.049	0.33
225.267	0.52
225.485	0.68
225.703	0.43
225.921	0.58
226.139	0.6
226.357	0.75
226.575	0.69
226.793	0.5
227.011	1.55
227.229	0.64
227.447	0.93
227.665	0.45
227.883	0.46
228.1	0.61
228.318	0.78
228.536	0.26
228.754	0.37
228.972	0.71
229.189	0.77
229.407	0.53
229.625	0.51
229.843	0.85
230.06	0.74
230.278	0.63
230.496	0.68
230.713	0.64
230.931	0.74
231.149	0.54
231.366	0.33
231.584	0.47
231.801	1.03
232.019	0.5
232.236	0.33
232.454	0.53
232.671	0.61
232.889	0.47
233.106	0.36
233.324	0.47
233.541	0.6
233.759	0.5
233.976	0.36
234.194	0.6
234.411	0.54
234.628	0.37
234.846	0.48
235.063	0.57
235.28	0.55
235.498	0.36
235.715	0.33
235.932	0.75
236.149	0.65
236.367	0.35
236.584	0.45
236.801	0.44
237.018	0.8
237.236	0.37
237.453	0.29
237.67	0.53
237.887	0.62
238.104	0.47
238.321	0.32
238.538	0.39
238.755	0.72
238.973	0.33
239.19	0.54
239.407	0.6
239.624	0.53
239.841	0.35
240.058	0.4
240.275	0.51
240.492	0.53
240.709	0.43
240.925	0.45
241.142	0.5
241.359	0.39
241.576	0.35
241.793	0.37
242.01	0.45
242.227	0.65
242.444	0.49
242.66	0.58
242.877	0.62
243.094	0.4
243.311	0.5
243.527	0.4
243.744	0.56
243.961	0.48
244.178	0.34
244.394	0.46
244.611	0.67
244.828	0.77
245.044	0.35
245.261	0.4
245.477	0.49
245.694	0.49
245.911	0.39
246.127	0.54
246.344	0.7
246.56	0.52
246.777	0.36
246.993	0.48
247.21	0.47
247.426	0.6
247.643	0.35
247.859	0.31
248.076	0.35
248.292	0.74
248.508	0.29
248.725	0.46
248.941	0.47
249.157	0.58
249.374	0.28
249.59	0.37
249.806	0.48
250.023	0.48
250.239	0.3
250.455	0.29
250.671	0.45
250.888	0.48
251.104	0.49
251.32	0.28
251.536	0.32
251.752	0.43
251.969	0.41
252.185	0.47
252.401	0.64
252.617	0.49
252.833	0.3
253.049	0.42
253.265	0.49
253.481	0.42
253.697	0.32
253.913	0.38
254.129	0.47
254.345	0.45
254.561	0.45
254.777	0.34
254.993	0.51
255.209	0.42
255.425	0.33
255.641	0.3
255.857	0.47
256.073	0.46
256.288	0.28
256.504	0.26
256.72	0.43
256.936	0.53
257.152	0.36
257.367	0.26
257.583	0.47
257.799	0.44
258.015	0.29
258.23	0.24
258.446	0.62
258.662	0.33
258.877	0.26
259.093	0.24
259.309	0.4
259.524	0.41
259.74	0.29
259.955	0.24
260.171	0.4
260.387	0.38
260.602	0.43
260.818	0.39
261.033	0.26
261.249	0.38
261.464	0.26
261.68	0.23
261.895	0.39
262.11	0.46
262.326	0.36
262.541	0.25
262.757	0.52
262.972	0.44
263.187	0.35
263.403	0.38
263.618	0.46
263.833	0.41
264.049	0.27
264.264	0.36
264.479	0.36
264.694	0.54
264.91	0.24
265.125	0.3
265.34	0.48
265.555	0.57
265.77	0.4
265.986	0.32
266.201	0.38
266.416	0.41
266.631	0.28
266.846	0.29
267.061	0.39
267.276	0.44
267.491	0.16
267.706	0.41
267.921	0.33
268.136	0.31
268.351	0.34
268.566	0.2
268.781	0.5
268.996	0.48
269.211	0.35
269.426	0.3
269.641	0.36
269.856	0.43
270.071	0.27
270.285	0.19
270.5	0.44
270.715	0.38
270.93	0.29
271.145	0.37
271.359	0.45
271.574	0.3
271.789	0.3
272.004	0.26
272.218	0.28
272.433	0.4
272.648	0.25
272.862	0.37
273.077	0.4
273.292	0.31
273.506	0.28
273.721	0.28
273.936	0.38
274.15	0.47
274.365	0.28
274.579	0.37
274.794	0.43
275.008	0.43
275.223	0.21
275.437	0.36
275.652	0.44
275.866	0.34
276.081	0.28
276.295	0.45
276.509	0.29
276.724	0.31
276.938	0.33
277.153	0.38
277.367	0.38
277.581	0.32
277.796	0.27
278.01	0.21
278.224	0.37
278.438	0.47
278.653	0.19
278.867	0.24
279.081	0.17
279.295	0.27
279.51	0.3
279.724	0.17
279.938	0.38
280.152	0.36
280.366	0.24
280.58	0.3
280.794	0.45
281.008	0.35
281.222	0.31
281.437	0.46
281.651	0.38
281.865	0.4
282.079	0.29
282.293	0.11
282.507	0.26
282.721	0.31
282.935	0.24
283.148	0.2
283.362	0.26
283.576	0.25
283.79	0.3
284.004	0.17
284.218	0.4
284.432	0.24
284.646	0.28
284.859	0.24
285.073	0.24
285.287	0.28
285.501	0.31
285.714	0.28
285.928	0.3
286.142	0.35
286.356	0.25
286.569	0.26
286.783	0.4
286.997	0.35
287.21	0.25
287.424	0.27
287.637	0.27
287.851	0.29
288.065	0.34
288.278	0.28
288.492	0.31
288.705	0.27
288.919	0.3
289.132	0.2
289.346	0.36
289.559	0.17
289.773	0.28
289.986	0.24
290.2	0.27
290.413	0.4
290.626	0.21
290.84	0.25
291.053	0.29
291.267	0.36
291.48	0.34
291.693	0.22
291.906	0.24
292.12	0.28
292.333	0.22
292.546	0.24
292.76	0.37
292.973	0.29
293.186	0.29
293.399	0.23
293.612	0.34
293.826	0.26
294.039	0.22
294.252	0.24
294.465	0.33
294.678	0.31
294.891	0.25
295.104	0.2
295.317	0.2
295.53	0.27
295.743	0.26
295.956	0.27
296.169	0.35
296.382	0.32
296.595	0.2
296.808	0.24
297.021	0.37
297.234	0.31
297.447	0.26
297.66	0.26
297.873	0.37
298.086	0.31
298.299	0.2
298.511	0.15
298.724	0.27
298.937	0.21
299.15	0.17
299.363	0.27
299.575	0.35
299.788	0.27
300.001	0.25
300.213	0.16
300.426	0.26
300.639	0.24
300.852	0.22
301.064	0.28
301.277	0.37
301.489	0.34
301.702	0.3
301.915	0.26
302.127	0.22
302.34	0.27
302.552	0.27
302.765	0.18
302.977	0.32
303.19	0.23
303.402	0.25
303.615	0.23
303.827	0.3
304.04	0.28
304.252	0.3
304.464	0.27
304.677	0.42
304.889	0.27
305.102	0.21
305.314	0.15
305.526	0.35
305.739	0.28
305.951	0.23
306.163	0.25
306.375	0.35
306.588	0.25
306.8	0.24
307.012	0.19
307.224	0.3
307.436	0.33
307.649	0.19
307.861	0.24
308.073	0.3
308.285	0.23
308.497	0.19
308.709	0.24
308.921	0.27
309.133	0.32
309.346	0.29
309.558	0.26
309.77	0.26
309.982	0.38
310.194	0.3
310.406	0.19
310.617	0.37
310.829	0.25
311.041	0.26
311.253	0.19
311.465	0.25
311.677	0.22
311.889	0.22
312.101	0.2
312.313	0.35
312.524	0.34
312.736	0.2
312.948	0.23
313.16	0.37
313.372	0.34
313.583	0.2
313.795	0.22
314.007	0.22
314.218	0.32
314.43	0.23
314.642	0.18
314.853	0.17
315.065	0.31
315.277	0.22
315.488	0.25
315.7	0.33
315.912	0.28
316.123	0.25
316.335	0.24
316.546	0.35
316.758	0.25
316.969	0.2
317.181	0.26
317.392	0.25
317.604	0.31
317.815	0.19
318.026	0.22
318.238	0.22
318.449	0.26
318.661	0.17
318.872	0.18
319.083	0.21
319.295	0.32
319.506	0.27
319.717	0.25
319.929	0.32
320.14	0.29
320.351	0.23
320.562	0.22
320.774	0.28
320.985	0.3
321.196	0.22
321.407	0.17
321.618	0.32
321.829	0.27
322.041	0.29
322.252	0.26
322.463	0.34
322.674	0.32
322.885	0.22
323.096	0.24
323.307	0.27
323.518	0.29
323.729	0.22
323.94	0.2
324.151	0.23
324.362	0.31
324.573	0.27
324.784	0.22
324.995	0.31
325.206	0.3
325.417	0.24
325.628	0.17
325.838	0.25
326.049	0.25
326.26	0.31
326.471	0.24
326.682	0.27
326.892	0.21
327.103	0.19
327.314	0.18
327.525	0.29
327.735	0.28
327.946	0.21
328.157	0.2
328.368	0.3
328.578	0.26
328.789	0.27
328.999	0.25
329.21	0.24
329.421	0.27
329.631	0.18
329.842	0.23
330.052	0.24
330.263	0.27
330.473	0.25
330.684	0.22
330.894	0.28
331.105	0.29
331.315	0.24
331.526	0.19
331.736	0.31
331.947	0.33
332.157	0.25
332.367	0.12
332.578	0.3
332.788	0.35
332.999	0.3
333.209	0.23
333.419	0.21
333.629	0.3
333.84	0.32
334.05	0.23
334.26	0.35
334.47	0.28
334.681	0.31
334.891	0.25
335.101	0.26
335.311	0.39
335.521	0.25
335.732	0.21
335.942	0.3
336.152	0.28
336.362	0.27
336.572	0.25
336.782	0.31
336.992	0.21
337.202	0.24
337.412	0.23
337.622	0.3
337.832	0.21
338.042	0.21
338.252	0.19
338.462	0.25
338.672	0.24
338.882	0.26
339.092	0.28
339.302	0.33
339.511	0.26
339.721	0.21
339.931	0.15
340.141	0.33
340.351	0.29
340.561	0.29
340.77	0.21
340.98	0.27
341.19	0.25
341.4	0.28
341.609	0.23
341.819	0.26
342.029	0.16
342.238	0.27
342.448	0.21
342.658	0.33
342.867	0.27
343.077	0.26
343.286	0.27
343.496	0.31
343.706	0.32
343.915	0.16
344.125	0.2
344.334	0.28
344.544	0.22
344.753	0.21
344.963	0.21
345.172	0.23
345.381	0.22
345.591	0.22
345.8	0.22
346.01	0.33
346.219	0.32
346.428	0.22
346.638	0.25
346.847	0.25
347.056	0.3
347.266	0.22
347.475	0.17
347.684	0.28
347.893	0.29
348.103	0.25
348.312	0.18
348.521	0.26
348.73	0.27
348.94	0.24
349.149	0.22
349.358	0.2
349.567	0.23
349.776	0.16
349.985	0.21
350.194	0.31
350.403	0.32
350.612	0.15
350.821	0.18
351.03	0.24
351.239	0.18
351.448	0.26
351.657	0.2
351.866	0.34
352.075	0.25
352.284	0.27
352.493	0.25
352.702	0.28
352.911	0.23
353.12	0.26
353.329	0.24
353.538	0.27
353.746	0.26
353.955	0.17
354.164	0.28
354.373	0.25
354.582	0.3
354.79	0.2
354.999	0.29
355.208	0.23
355.416	0.33
355.625	0.15
355.834	0.22
356.042	0.29
356.251	0.2
356.46	0.23
356.668	0.24
356.877	0.34
357.085	0.3
357.294	0.18
357.503	0.23
357.711	0.2
357.92	0.41
358.128	0.24
358.337	0.19
358.545	0.27
358.754	0.22
358.962	0.26
359.17	0.22
359.379	0.28
359.587	0.25
359.796	0.25
360.004	0.29
360.212	0.26
360.421	0.3
360.629	0.23
360.837	0.21
361.046	0.29
361.254	0.38
361.462	0.27
361.67	0.22
361.879	0.26
362.087	0.3
362.295	0.24
362.503	0.19
362.711	0.18
362.92	0.22
363.128	0.19
363.336	0.17
363.544	0.17
363.752	0.23
363.96	0.25
364.168	0.21
364.376	0.22
364.584	0.25
364.792	0.27
365	0.29
365.208	0.26
365.416	0.26
365.624	0.31
365.832	0.19
366.04	0.37
366.248	0.23
366.456	0.27
366.664	0.25
366.872	0.24
367.079	0.23
367.287	0.22
367.495	0.22
367.703	0.25
367.911	0.23
368.118	0.25
368.326	0.28
368.534	0.2
368.742	0.37
368.949	0.2
369.157	0.19
369.365	0.28
369.572	0.27
369.78	0.2
369.988	0.28
370.195	0.28
370.403	0.31
370.61	0.2
370.818	0.24
371.026	0.34
371.233	0.21
371.441	0.23
371.648	0.24
371.856	0.25
372.063	0.3
372.271	0.22
372.478	0.19
372.685	0.23
372.893	0.32
373.1	0.24
373.308	0.18
373.515	0.37
373.722	0.26
373.93	0.2
374.137	0.27
374.344	0.33
374.552	0.3
374.759	0.29
374.966	0.26
375.173	0.25
375.381	0.3
375.588	0.25
375.795	0.18
376.002	0.25
376.209	0.24
376.417	0.26
376.624	0.34
376.831	0.27
377.038	0.27
377.245	0.2
377.452	0.24
377.659	0.32
377.866	0.26
378.073	0.24
378.28	0.23
378.487	0.36
378.694	0.32
378.901	0.29
379.108	0.24
379.315	0.31
379.522	0.4
379.729	0.31
379.936	0.28
380.143	0.28
380.35	0.3
380.557	0.24
380.763	0.26
380.97	0.29
381.177	0.27
381.384	0.28
381.591	0.25
381.797	0.29
382.004	0.31
382.211	0.3
382.418	0.22
382.624	0.31
382.831	0.36
383.038	0.23
383.244	0.27
383.451	0.3
383.658	0.32
383.864	0.25
384.071	0.24
384.277	0.34
384.484	0.26
384.69	0.31
384.897	0.25
385.103	0.28
385.31	0.23
385.516	0.27
385.723	0.19
385.929	0.29
386.136	0.25
386.342	0.28
386.549	0.23
386.755	0.36
386.961	0.31
387.168	0.26
387.374	0.24
387.58	0.33
387.787	0.28
387.993	0.29
388.199	0.27
388.406	0.26
388.612	0.27
388.818	0.28
389.024	0.25
389.231	0.27
389.437	0.43
389.643	0.32
389.849	0.31
390.055	0.31
390.261	0.29
390.467	0.31
390.674	0.25
390.88	0.27
391.086	0.32
391.292	0.24
391.498	0.34
391.704	0.32
391.91	0.3
392.116	0.23
392.322	0.23
392.528	0.32
392.734	0.29
392.94	0.35
393.146	0.31
393.352	0.27
393.557	0.29
393.763	0.3
393.969	0.35
394.175	0.3
394.381	0.31
394.587	0.25
394.792	0.3
394.998	0.35
395.204	0.37
395.41	0.23
395.615	0.3
395.821	0.33
396.027	0.38
396.233	0.26
396.438	0.34
396.644	0.36
396.85	0.36
397.055	0.3
397.261	0.31
397.466	0.47
397.672	0.34
397.878	0.38
398.083	0.37
398.289	0.27
398.494	0.39
398.7	0.33
398.905	0.25
399.111	0.42
399.316	0.28
399.522	0.34
399.727	0.35
399.932	0.35
400.138	0.32
400.343	0.37
400.549	0.31
400.754	0.35
400.959	0.38
401.165	0.32
401.37	0.36
401.575	0.51
401.78	0.39
401.986	0.37
402.191	0.33
402.396	0.39
402.601	0.43
402.807	0.4
403.012	0.39
403.217	0.46
403.422	0.42
403.627	0.42
403.832	0.36
404.037	0.5
404.243	0.47
404.448	0.4
404.653	0.36
404.858	0.41
405.063	0.47
405.268	0.36
405.473	0.41
405.678	0.41
405.883	0.65
406.088	0.47
406.293	0.39
406.498	0.47
406.703	0.5
406.907	0.45
407.112	0.44
407.317	0.55
407.522	0.58
407.727	0.42
407.932	0.54
408.136	0.66
408.341	0.53
408.546	0.56
408.751	0.54
408.956	0.57
409.16	0.65
409.365	0.59
409.57	0.62
409.774	0.62
409.979	0.66
410.184	0.68
410.388	0.61
410.593	0.73
410.798	0.73
411.002	0.69
411.207	0.8
411.411	0.76
411.616	0.7
411.82	0.79
412.025	0.8
412.229	0.76
412.434	0.97
412.638	0.91
412.843	0.87
413.047	0.91
413.252	0.95
413.456	0.99
413.66	1.04
413.865	0.98
414.069	1.15
414.273	1.05
414.478	1.09
414.682	1.18
414.886	1.22
415.091	1.19
415.295	1.15
415.499	1.32
415.703	1.33
415.908	1.38
416.112	1.34
416.316	1.58
416.52	1.55
416.724	1.54
416.929	1.56
417.133	1.8
417.337	1.71
417.541	1.72
417.745	1.82
417.949	1.93
418.153	1.98
418.357	1.96
418.561	2.17
418.765	2.06
418.969	2.29
419.173	2.34
419.377	2.31
419.581	2.59
419.785	2.58
419.989	2.56
420.193	2.67
420.397	2.73
420.601	2.94
420.804	3.01
421.008	2.97
421.212	3.15
421.416	3.22
421.62	3.16
421.823	3.25
422.027	3.39
422.231	3.32
422.435	3.36
422.638	3.46
422.842	3.57
423.046	3.61
423.249	3.8
423.453	3.79
423.657	3.93
423.86	4.04
424.064	4.17
424.268	4.31
424.471	4.35
424.675	4.55
424.878	4.61
425.082	4.63
425.285	5.08
425.489	4.85
425.692	5.07
425.896	5.07
426.099	5.29
426.303	5.44
426.506	5.5
426.71	5.7
426.913	6.04
427.116	6.14
427.32	6.09
427.523	6.2
427.726	6.47
427.93	6.61
428.133	6.92
428.336	6.92
428.54	7.15
428.743	7.45
428.946	7.69
429.149	7.73
429.353	7.67
429.556	7.88
429.759	7.76
429.962	7.97
430.165	8.03
430.368	7.76
430.571	7.82
430.775	7.95
430.978	7.84
431.181	7.94
431.384	8.13
431.587	8.13
431.79	8.46
431.993	8.47
432.196	8.73
432.399	9.09
432.602	9.23
432.805	9.4
433.008	9.81
433.211	9.74
433.414	10.23
433.616	10.08
433.819	10.19
434.022	10.31
434.225	10.34
434.428	10.45
434.631	10.89
434.833	10.58
435.036	10.85
435.239	11.18
435.442	11.26
435.645	11.4
435.847	11.35
436.05	11.74
436.253	12.06
436.455	12
436.658	11.85
436.861	12.16
437.063	12.3
437.266	12.21
437.468	12.69
437.671	12.82
437.874	12.97
438.076	12.74
438.279	13.25
438.481	13.37
438.684	14.02
438.886	13.61
439.089	13.96
439.291	13.93
439.494	14.18
439.696	14.41
439.899	14.92
440.101	15.43
440.303	15.58
440.506	16.32
440.708	15.98
440.91	16.23
441.113	16.43
441.315	16.8
441.517	16.48
441.72	17.05
441.922	16.61
442.124	16.59
442.326	16.97
442.529	17.04
442.731	17.06
442.933	17.59
443.135	17.25
443.337	17.21
443.539	17.77
443.742	17.62
443.944	18.13
444.146	17.84
444.348	17.88
444.55	17.63
444.752	17.83
444.954	17.97
445.156	17.72
445.358	18.21
445.56	18.51
445.762	18.26
445.964	18.59
446.166	18.33
446.368	18.38
446.57	18.45
446.772	17.91
446.974	17.81
447.175	18.18
447.377	17.74
447.579	18.23
447.781	18
447.983	17.75
448.184	17.23
448.386	17.69
448.588	17.15
448.79	17.14
448.991	17.4
449.193	17.38
449.395	16.82
449.597	16.58
449.798	16.32
450	15.98
450.202	15.83
450.403	15.97
450.605	15.85
450.806	15.47
451.008	15.32
451.21	15.12
451.411	14.75
451.613	13.92
451.814	14.27
452.016	14.2
452.217	13.4
452.419	13.44
452.62	13.08
452.821	12.89
453.023	12.79
453.224	12.36
453.426	11.95
453.627	11.32
453.828	11.41
454.03	11.46
454.231	11.39
454.432	11.25
454.634	11.04
454.835	10.58
455.036	10.62
455.238	10.28
455.439	9.93
455.64	9.69
455.841	9.6
456.042	9.71
456.244	9.35
456.445	9.02
456.646	8.72
456.847	8.77
457.048	8.58
457.249	8.64
457.45	8.37
457.651	7.87
457.852	7.77
458.054	7.48
458.255	7.27
458.456	7.48
458.657	7.37
458.858	6.84
459.058	6.76
459.259	6.85
459.46	6.55
459.661	6.51
459.862	6.54
460.063	6.53
460.264	6.36
460.465	6.11
460.666	6.13
460.866	5.92
461.067	5.6
461.268	5.62
461.469	5.54
461.67	5.49
461.87	5.22
462.071	5.38
462.272	5.32
462.473	5.19
462.673	5.33
462.874	5.34
463.075	5.29
463.275	5.18
463.476	5.29
463.676	5.16
463.877	5.06
464.078	5.02
464.278	5.09
464.479	4.89
464.679	4.89
464.88	4.79
465.08	4.77
465.281	4.56
465.481	4.36
465.682	4.18
465.882	4.27
466.083	4.19
466.283	4.12
466.483	3.92
466.684	3.82
466.884	3.7
467.085	3.8
467.285	3.84
467.485	3.67
467.686	3.66
467.886	3.53
468.086	3.4
468.286	3.42
468.487	3.49
468.687	3.29
468.887	3.29
469.087	3.37
469.287	3.35
469.488	3.13
469.688	3.27
469.888	3.29
470.088	3.21
470.288	3.15
470.488	3.17
470.688	2.92
470.888	2.97
471.088	2.75
471.288	2.94
471.488	2.79
471.688	2.81
471.888	2.73
472.088	2.91
472.288	2.72
472.488	2.68
472.688	2.65
472.888	2.63
473.088	2.66
473.288	2.52
473.488	2.57
473.688	2.73
473.887	2.55
474.087	2.53
474.287	2.46
474.487	2.42
474.687	2.43
474.886	2.47
475.086	2.41
475.286	2.34
475.486	2.33
475.685	2.28
475.885	2.27
476.085	2.32
476.284	2.29
476.484	2.35
476.684	2.27
476.883	2.35
477.083	2.22
477.282	2.23
477.482	2.23
477.681	2.23
477.881	2.12
478.08	2.1
478.28	2.11
478.479	2.14
478.679	2.21
478.878	2.06
479.078	2.06
479.277	2.16
479.477	2.11
479.676	2.04
479.875	2.03
480.075	1.98
480.274	2.06
480.473	2.09
480.673	2.03
480.872	2.15
481.071	2.02
481.271	2.07
481.47	1.97
481.669	2.05
481.868	1.99
482.067	2
482.267	1.95
482.466	1.96
482.665	1.98
482.864	1.97
483.063	1.96
483.262	2.06
483.461	2.1
483.661	2.09
483.86	1.98
484.059	2.08
484.258	2.1
484.457	2.07
484.656	2
484.855	2.14
485.054	1.98
485.253	1.99
485.452	2
485.651	2.08
485.849	2.04
486.048	2.01
486.247	2.08
486.446	2.12
486.645	2.05
486.844	2.1
487.043	2.07
487.241	2.1
487.44	2.09
487.639	2.16
487.838	2.15
488.037	2.11
488.235	2.19
488.434	2.2
488.633	2.05
488.831	2.27
489.03	2.23
489.229	2.29
489.427	2.21
489.626	2.3
489.825	2.29
490.023	2.33
490.222	2.27
490.42	2.34
490.619	2.38
490.817	2.39
491.016	2.39
491.214	2.43
491.413	2.42
491.611	2.37
491.81	2.39
492.008	2.48
492.207	2.52
492.405	2.49
492.604	2.47
492.802	2.57
493	2.62
493.199	2.63
493.397	2.63
493.595	2.72
493.794	2.67
493.992	2.79
494.19	2.73
494.388	2.81
494.587	2.78
494.785	2.79
494.983	2.72
495.181	2.86
495.379	2.9
495.578	2.94
495.776	2.94
495.974	2.93
496.172	3.02
496.37	3.07
496.568	3.1
496.766	3.08
496.964	3.18
497.162	3.18
497.36	3.25
497.558	3.23
497.756	3.34
497.954	3.29
498.152	3.32
498.35	3.43
498.548	3.37
498.746	3.42
498.944	3.41
499.142	3.44
499.34	3.52
499.538	3.64
499.736	3.5
499.933	3.64
500.131	3.63
500.329	3.78
500.527	3.76
500.725	3.8
500.922	3.87
501.12	3.89
501.318	3.95
501.516	3.93
501.713	4.06
501.911	4.01
502.109	3.92
502.306	4.08
502.504	3.98
502.701	4.08
502.899	4.18
503.097	4.36
503.294	4.2
503.492	4.28
503.689	4.38
503.887	4.35
504.084	4.45
504.282	4.41
504.479	4.41
504.677	4.55
504.874	4.52
505.072	4.43
505.269	4.69
505.466	4.67
505.664	4.71
505.861	4.65
506.059	4.78
506.256	4.77
506.453	4.82
506.651	4.95
506.848	4.99
507.045	5
507.242	4.98
507.44	4.99
507.637	5.09
507.834	5
508.031	5.22
508.229	5.11
508.426	5.04
508.623	5.28
508.82	5.27
509.017	5.24
509.214	5.25
509.411	5.39
509.608	5.32
509.805	5.47
510.003	5.44
510.2	5.49
510.397	5.65
510.594	5.51
510.791	5.61
510.988	5.67
511.184	5.54
511.381	5.43
511.578	5.65
511.775	5.85
511.972	5.73
512.169	5.74
512.366	5.78
512.563	5.95
512.76	5.99
512.956	5.89
513.153	5.92
513.35	5.91
513.547	5.91
513.744	6.04
513.94	6.06
514.137	6.14
514.334	6.09
514.53	6.13
514.727	6.36
514.924	6.25
515.12	6.27
515.317	6.25
515.514	6.17
515.71	6.12
515.907	6.4
516.103	6.36
516.3	6.33
516.497	6.39
516.693	6.49
516.89	6.49
517.086	6.52
517.283	6.5
517.479	6.42
517.676	6.62
517.872	6.65
518.068	6.63
518.265	6.63
518.461	6.51
518.658	6.71
518.854	6.67
519.05	6.78
519.247	6.82
519.443	6.72
519.639	6.86
519.836	6.7
520.032	6.73
520.228	6.88
520.424	6.86
520.621	6.92
520.817	6.93
521.013	6.89
521.209	7.09
521.405	7.05
521.601	7.01
521.798	6.97
521.994	7.03
522.19	6.96
522.386	6.99
522.582	7.08
522.778	7.21
522.974	7.1
523.17	7.08
523.366	7.04
523.562	7.13
523.758	7.17
523.954	7.03
524.15	7.15
524.346	7.21
524.542	7.26
524.738	7.19
524.934	7.35
525.129	7.21
525.325	7.23
525.521	7.25
525.717	7.47
525.913	7.34
526.109	7.34
526.304	7.48
526.5	7.39
526.696	7.44
526.892	7.37
527.087	7.53
527.283	7.44
527.479	7.47
527.674	7.26
527.87	7.47
528.066	7.45
528.261	7.51
528.457	7.38
528.653	7.56
528.848	7.58
529.044	7.65
529.239	7.52
529.435	7.53
529.63	7.49
529.826	7.57
530.021	7.51
530.217	7.61
530.412	7.55
530.608	7.61
530.803	7.61
530.999	7.52
531.194	7.57
531.389	7.66
531.585	7.68
531.78	7.83
531.975	7.66
532.171	7.67
532.366	7.66
532.561	7.75
532.757	7.62
532.952	7.84
533.147	7.62
533.342	7.81
533.538	7.69
533.733	7.89
533.928	7.58
534.123	7.74
534.318	7.92
534.513	7.73
534.709	7.89
534.904	7.82
535.099	7.91
535.294	7.9
535.489	7.89
535.684	7.82
535.879	7.82
536.074	7.93
536.269	7.91
536.464	7.95
536.659	7.79
536.854	7.87
537.049	7.96
537.244	7.86
537.439	7.91
537.634	7.9
537.828	7.95
538.023	7.97
538.218	7.89
538.413	7.8
538.608	7.91
538.803	7.91
538.997	7.87
539.192	7.94
539.387	7.87
539.582	7.89
539.776	7.85
539.971	7.98
540.166	8.03
540.36	7.84
540.555	8.04
540.75	7.96
540.944	7.94
541.139	8
541.334	7.99
541.528	8.02
541.723	8.1
541.917	8.05
542.112	7.94
542.306	7.86
542.501	7.98
542.695	8
542.89	7.91
543.084	8.05
543.279	7.99
543.473	8.02
543.668	8.06
543.862	7.88
544.056	7.91
544.251	8.07
544.445	8.11
544.64	8.12
544.834	7.82
545.028	7.69
545.222	8.1
545.417	8.18
545.611	8.09
545.805	8.04
546	7.88
546.194	7.99
546.388	8.09
546.582	7.96
546.776	7.96
546.97	8.11
547.165	8.03
547.359	8.03
547.553	7.99
547.747	7.94
547.941	8.18
548.135	8.05
548.329	8.14
548.523	8.08
548.717	7.95
548.911	8
549.105	8.04
549.299	8.11
549.493	8.1
549.687	7.92
549.881	8.19
550.075	8.09
550.269	7.94
550.463	8.07
550.657	8.1
550.85	8.04
551.044	8.03
551.238	8.1
551.432	8.09
551.626	8.09
551.82	8.14
552.013	7.96
552.207	8.11
552.401	8.2
552.594	8.11
552.788	7.97
552.982	8.06
553.176	7.99
553.369	8.2
553.563	8.11
553.756	8.06
553.95	8.11
554.144	8.17
554.337	8.13
554.531	7.93
554.724	8.08
554.918	8.17
555.111	8.05
555.305	8.11
555.498	8.03
555.692	8.22
555.885	8.14
556.079	8.06
556.272	8.08
556.466	8.11
556.659	8.04
556.852	8.17
557.046	8.02
557.239	7.94
557.432	8.01
557.626	8.12
557.819	8.2
558.012	8.14
558.206	8.19
558.399	8.12
558.592	8.04
558.785	8.06
558.979	8.11
559.172	8.1
559.365	8.06
559.558	8.06
559.751	8.01
559.944	8.21
560.138	8.08
560.331	8.12
560.524	8.13
560.717	8.1
560.91	8.09
561.103	8.2
561.296	7.9
561.489	8.15
561.682	8.12
561.875	8.14
562.068	8.16
562.261	7.98
562.454	8.21
562.647	8.09
562.84	8.13
563.032	8.13
563.225	8.06
563.418	8.1
563.611	8.14
563.804	8.14
563.997	7.93
564.19	7.9
564.382	8.11
564.575	8.12
564.768	8.08
564.961	8.18
565.153	8
565.346	8
565.539	8.16
565.731	8.03
565.924	8.18
566.117	8.22
566.309	8.14
566.502	7.97
566.695	7.97
566.887	8.13
567.08	8.02
567.272	8.13
567.465	7.98
567.657	8.14
567.85	7.91
568.042	8.15
568.235	8.07
568.427	7.88
568.62	8.06
568.812	8.05
569.005	8.1
569.197	8.02
569.389	8.04
569.582	8
569.774	8.08
569.966	7.98
570.159	7.94
570.351	7.95
570.543	7.97
570.736	8
570.928	7.83
571.12	8.06
571.312	7.92
571.505	7.71
571.697	8.02
571.889	8.06
572.081	7.99
572.273	7.89
572.465	8.04
572.658	8.04
572.85	8.02
573.042	7.99
573.234	7.9
573.426	7.96
573.618	7.94
573.81	7.97
574.002	7.92
574.194	7.96
574.386	7.86
574.578	7.79
574.77	7.92
574.962	7.92
575.154	7.86
575.346	7.85
575.538	7.81
575.729	7.83
575.921	7.94
576.113	7.93
576.305	7.98
576.497	7.99
576.689	7.73
576.88	7.77
577.072	7.94
577.264	7.89
577.456	7.86
577.647	7.81
577.839	7.98
578.031	7.84
578.223	7.79
578.414	7.71
578.606	7.75
578.798	7.91
578.989	7.81
579.181	7.87
579.372	7.76
579.564	7.83
579.755	7.76
579.947	7.73
580.139	7.81
580.33	7.67
580.522	7.77
580.713	7.73
580.905	7.65
581.096	7.79
581.287	7.69
581.479	7.67
581.67	7.81
581.862	7.57
582.053	7.72
582.244	7.55
582.436	7.78
582.627	7.62
582.818	7.63
583.01	7.6
583.201	7.63
583.392	7.66
583.583	7.56
583.775	7.46
583.966	7.55
584.157	7.62
584.348	7.7
584.54	7.5
584.731	7.65
584.922	7.54
585.113	7.44
585.304	7.55
585.495	7.6
585.686	7.59
585.877	7.61
586.068	7.66
586.259	7.51
586.45	7.51
586.641	7.43
586.832	7.57
587.023	7.5
587.214	7.47
587.405	7.49
587.596	7.36
587.787	7.36
587.978	7.44
588.169	7.38
588.36	7.31
588.551	7.41
588.742	7.39
588.932	7.4
589.123	7.27
589.314	7.49
589.505	7.33
589.696	7.38
589.886	7.3
590.077	7.3
590.268	7.28
590.458	7.25
590.649	7.2
590.84	7.36
591.03	7.29
591.221	7.25
591.412	7.12
591.602	7.3
591.793	7.22
591.984	7.2
592.174	7.17
592.365	7.29
592.555	7.1
592.746	7.07
592.936	7.14
593.127	7.18
593.317	7.14
593.508	7.13
593.698	7.06
593.889	7.05
594.079	7.07
594.269	7
594.46	7.04
594.65	7.08
594.84	6.98
595.031	6.94
595.221	6.98
595.411	7.01
595.602	7.01
595.792	6.94
595.982	6.89
596.172	7.05
596.363	6.9
596.553	6.89
596.743	6.92
596.933	6.86
597.123	6.8
597.314	6.72
597.504	6.75
597.694	6.91
597.884	6.81
598.074	6.82
598.264	6.79
598.454	6.77
598.644	6.73
598.834	6.78
599.024	6.63
599.214	6.68
599.404	6.8
599.594	6.71
599.784	6.6
599.974	6.75
600.164	6.7
600.354	6.61
600.544	6.49
600.734	6.66
600.924	6.62
601.114	6.46
601.303	6.55
601.493	6.58
601.683	6.52
601.873	6.5
602.063	6.46
602.252	6.47
602.442	6.42
602.632	6.38
602.821	6.36
603.011	6.47
603.201	6.42
603.39	6.4
603.58	6.24
603.77	6.33
603.959	6.47
604.149	6.32
604.339	6.34
604.528	6.44
604.718	6.35
604.907	6.28
605.097	6.24
605.286	6.21
605.476	6.23
605.665	6.25
605.855	6.14
606.044	6.33
606.234	6.22
606.423	6.16
606.612	6.16
606.802	6.12
606.991	6.22
607.181	6.16
607.37	6.09
607.559	5.9
607.749	6.06
607.938	6
608.127	6.02
608.316	6.08
608.506	6.01
608.695	6.08
608.884	5.98
609.073	5.97
609.263	6.1
609.452	6.01
609.641	5.82
609.83	5.81
610.019	5.99
610.208	5.84
610.397	5.79
610.586	5.86
610.775	5.74
610.965	5.78
611.154	5.69
611.343	5.83
611.532	5.63
611.721	5.86
611.91	5.69
612.099	5.67
612.287	5.59
612.476	5.62
612.665	5.67
612.854	5.57
613.043	5.57
613.232	5.63
613.421	5.5
613.61	5.62
613.798	5.56
613.987	5.54
614.176	5.54
614.365	5.55
614.554	5.48
614.742	5.53
614.931	5.35
615.12	5.47
615.309	5.45
615.497	5.41
615.686	5.24
615.875	5.38
616.063	5.32
616.252	5.32
616.44	5.34
616.629	5.31
616.818	5.25
617.006	5.25
617.195	5.24
617.383	5.27
617.572	5.18
617.76	5.13
617.949	5.17
618.137	5.27
618.326	5.22
618.514	5.01
618.703	4.98
618.891	5.12
619.079	5.07
619.268	5.18
619.456	5
619.644	5.16
619.833	4.99
620.021	5
620.209	4.93
620.398	5.02
620.586	4.87
620.774	4.97
620.962	4.89
621.151	5.03
621.339	4.92
621.527	4.76
621.715	4.81
621.903	4.88
622.092	4.75
622.28	4.88
622.468	4.63
622.656	4.75
622.844	4.68
623.032	4.83
623.22	4.68
623.408	4.8
623.596	4.73
623.784	4.75
623.972	4.63
624.16	4.63
624.348	4.73
624.536	4.75
624.724	4.55
624.912	4.58
625.1	4.62
625.288	4.58
625.476	4.5
625.664	4.59
625.851	4.51
626.039	4.54
626.227	4.44
626.415	4.44
626.603	4.43
626.79	4.42
626.978	4.46
627.166	4.43
627.354	4.36
627.541	4.35
627.729	4.28
627.917	4.44
628.104	4.35
628.292	4.26
628.48	4.29
628.667	4.25
628.855	4.41
629.042	4.37
629.23	4.27
629.418	4.26
629.605	4.2
629.793	4.11
629.98	4.25
630.168	4.15
630.355	4.2
630.543	4.14
630.73	4.09
630.917	4.1
631.105	4.24
631.292	4.12
631.48	4.07
631.667	4.25
631.854	4.05
632.042	4.04
632.229	3.98
632.416	4.06
632.604	4
632.791	3.85
632.978	3.96
633.165	3.89
633.353	4
633.54	3.96
633.727	3.85
633.914	3.88
634.101	3.81
634.289	3.91
634.476	3.77
634.663	3.82
634.85	3.8
635.037	3.76
635.224	3.68
635.411	3.84
635.598	3.72
635.785	3.67
635.972	3.69
636.159	3.68
636.346	3.68
636.533	3.64
636.72	3.67
636.907	3.59
637.094	3.57
637.281	3.48
637.468	3.61
637.655	3.54
637.842	3.57
638.029	3.5
638.215	3.55
638.402	3.51
638.589	3.45
638.776	3.43
638.963	3.44
639.149	3.55
639.336	3.51
639.523	3.4
639.709	3.45
639.896	3.37
640.083	3.39
640.27	3.42
640.456	3.36
640.643	3.36
640.829	3.23
641.016	3.28
641.203	3.19
641.389	3.31
641.576	3.3
641.762	3.24
641.949	3.23
642.135	3.27
642.322	3.18
642.508	3.1
642.695	3.17
642.881	3.17
643.068	3.11
643.254	3.09
643.441	3.16
643.627	3.18
643.813	3.07
644	3.15
644.186	3.01
644.372	3.12
644.559	3.09
644.745	3.04
644.931	3.03
645.118	3.04
645.304	3.01
645.49	3.01
645.676	3.01
645.862	2.97
646.049	3.03
646.235	2.96
646.421	3.04
646.607	3.05
646.793	2.89
646.979	2.81
647.165	2.9
647.352	2.94
647.538	2.9
647.724	2.86
647.91	2.83
648.096	2.83
648.282	2.84
648.468	2.79
648.654	2.81
648.84	2.8
649.026	2.81
649.212	2.69
649.397	2.7
649.583	2.7
649.769	2.8
649.955	2.73
650.141	2.69
650.327	2.74
650.513	2.59
650.698	2.74
650.884	2.56
651.07	2.67
651.256	2.62
651.442	2.61
651.627	2.57
651.813	2.64
651.999	2.56
652.184	2.58
652.37	2.55
652.556	2.57
652.741	2.54
652.927	2.41
653.113	2.45
653.298	2.5
653.484	2.49
653.669	2.43
653.855	2.45
654.04	2.54
654.226	2.5
654.412	2.41
654.597	2.32
654.782	2.45
654.968	2.41
655.153	2.38
655.339	2.35
655.524	2.3
655.71	2.38
655.895	2.37
656.08	2.37
656.266	2.38
656.451	2.33
656.636	2.27
656.822	2.28
657.007	2.26
657.192	2.29
657.378	2.17
657.563	2.25
657.748	2.27
657.933	2.3
658.118	2.15
658.304	2.21
658.489	2.31
658.674	2.26
658.859	2.1
659.044	2.18
659.229	2.19
659.414	2.15
659.599	2.14
659.785	2.02
659.97	2.09
660.155	2.15
660.34	2.15
660.525	2.09
660.71	2.03
660.895	2.13
661.08	2.1
661.264	1.99
661.449	2.1
661.634	2.07
661.819	2.08
662.004	1.97
662.189	1.97
662.374	2
662.559	1.93
662.743	1.92
662.928	1.97
663.113	1.9
663.298	1.89
663.483	1.92
663.667	1.95
663.852	1.88
664.037	1.94
664.221	1.87
664.406	1.98
664.591	1.92
664.775	1.92
664.96	1.77
665.145	1.89
665.329	1.91
665.514	1.84
665.698	1.84
665.883	1.71
666.068	1.89
666.252	1.86
666.437	1.78
666.621	1.79
666.806	1.85
666.99	1.74
667.174	1.7
667.359	1.8
667.543	1.78
667.728	1.73
667.912	1.65
668.096	1.77
668.281	1.67
668.465	1.79
668.649	1.66
668.834	1.7
669.018	1.7
669.202	1.71
669.387	1.66
669.571	1.77
669.755	1.69
669.939	1.67
670.124	1.65
670.308	1.71
670.492	1.68
670.676	1.67
670.86	1.6
671.044	1.56
671.228	1.66
671.413	1.6
671.597	1.56
671.781	1.58
671.965	1.64
672.149	1.57
672.333	1.56
672.517	1.52
672.701	1.57
672.885	1.53
673.069	1.46
673.253	1.68
673.437	1.5
673.621	1.53
673.804	1.57
673.988	1.53
674.172	1.48
674.356	1.38
674.54	1.48
674.724	1.57
674.908	1.46
675.091	1.56
675.275	1.43
675.459	1.59
675.643	1.54
675.826	1.48
676.01	1.4
676.194	1.48
676.377	1.51
676.561	1.43
676.745	1.43
676.928	1.43
677.112	1.5
677.296	1.36
677.479	1.38
677.663	1.39
677.846	1.45
678.03	1.35
678.213	1.34
678.397	1.43
678.58	1.38
678.764	1.4
678.947	1.23
679.131	1.36
679.314	1.43
679.498	1.33
679.681	1.4
679.865	1.41
680.048	1.32
680.231	1.31
680.415	1.29
680.598	1.3
680.781	1.23
680.965	1.26
681.148	1.27
681.331	1.22
681.514	1.34
681.698	1.23
681.881	1.28
682.064	1.23
682.247	1.31
682.43	1.24
682.614	1.25
682.797	1.34
682.98	1.27
683.163	1.15
683.346	1.22
683.529	1.19
683.712	1.2
683.895	1.24
684.078	1.09
684.261	1.2
684.444	1.26
684.627	1.23
684.81	1.12
684.993	1.19
685.176	1.2
685.359	1.13
685.542	1.12
685.725	1.23
685.908	1.19
686.091	1.12
686.274	1.21
686.457	1.17
686.639	1.1
686.822	1.14
687.005	1.09
687.188	1.12
687.371	1.25
687.553	1.17
687.736	1.11
687.919	1.24
688.102	1.25
688.284	1.07
688.467	1.06
688.65	1.09
688.832	1.03
689.015	1.08
689.197	0.95
689.38	1.21
689.563	1.15
689.745	1
689.928	1.04
690.11	1.02
690.293	1.07
690.475	0.95
690.658	1.02
690.84	1.02
691.023	0.96
691.205	0.96
691.388	1.02
691.57	1.06
691.752	1.03
691.935	0.89
692.117	0.92
692.3	1.01
692.482	1.05
692.664	0.96
692.847	0.97
693.029	1.08
693.211	1.02
693.393	0.95
693.576	0.93
693.758	1
693.94	0.98
694.122	0.93
694.304	0.91
694.487	0.9
694.669	0.93
694.851	0.86
695.033	0.87
695.215	0.88
695.397	0.85
695.579	0.87
695.761	0.87
695.943	0.82
696.125	0.94
696.308	0.91
696.49	0.74
696.671	1.07
696.853	0.93
697.035	1.14
697.217	0.85
697.399	0.96
697.581	0.84
697.763	0.81
697.945	0.79
698.127	0.82
698.309	0.95
698.491	0.87
698.672	0.88
698.854	0.89
699.036	0.97
699.218	0.85
699.399	0.94
699.581	0.95
699.763	0.8
699.945	0.74
700.126	0.76
700.308	0.84
700.49	0.8
700.671	0.7
700.853	0.76
701.035	0.78
701.216	0.82
701.398	0.8
701.579	0.79
701.761	0.84
701.943	0.78
702.124	0.72
702.306	0.8
702.487	0.92
702.669	0.81
702.85	0.77
703.031	0.71
703.213	0.92
703.394	0.9
703.576	0.77
703.757	0.92
703.938	0.83
704.12	1
704.301	0.72
704.483	0.67
704.664	0.76
704.845	0.82
705.026	0.81
705.208	0.72
705.389	0.81
705.57	0.73
705.751	0.76
705.933	0.71
706.114	0.85
706.295	0.78
706.476	0.61
706.657	0.83
706.838	0.7
707.02	0.79
707.201	0.65
707.382	0.68
707.563	0.74
707.744	0.68
707.925	0.64
708.106	0.66
708.287	0.76
708.468	0.89
708.649	0.73
708.83	0.7
709.011	0.69
709.192	0.83
709.373	0.64
709.554	0.74
709.734	0.77
709.915	0.73
710.096	0.66
710.277	0.54
710.458	0.68
710.639	0.69
710.819	0.56
711	0.6
711.181	0.71
711.362	0.75
711.542	0.64
711.723	0.65
711.904	0.77
712.085	0.71
712.265	0.66
712.446	0.59
712.627	0.65
712.807	0.59
712.988	0.69
713.168	0.5
713.349	0.66
713.53	0.45
713.71	0.6
713.891	0.5
714.071	0.52
714.252	0.62
714.432	0.64
714.613	0.52
714.793	0.6
714.974	0.76
715.154	0.69
715.334	0.59
715.515	0.73
715.695	0.55
715.876	0.6
716.056	0.59
716.236	0.56
716.417	0.57
716.597	0.56
716.777	0.82
716.957	0.65
717.138	0.58
717.318	0.54
717.498	0.44
717.678	0.6
717.859	0.55
718.039	0.48
718.219	0.58
718.399	0.5
718.579	0.45
718.759	0.46
718.939	0.54
719.12	0.66
719.3	0.55
719.48	0.46
719.66	0.43
719.84	0.75
720.02	0.58
720.2	0.46
720.38	0.51
720.56	0.65
720.74	0.5
720.92	0.54
721.1	0.68
721.279	0.65
721.459	0.52
721.639	0.48
721.819	0.6
721.999	0.55
722.179	0.52
722.359	0.46
722.538	0.55
722.718	0.58
722.898	0.47
723.078	0.54
723.257	0.42
723.437	0.59
723.617	0.53
723.797	0.51
723.976	0.52
724.156	0.67
724.336	0.62
724.515	0.7
724.695	0.33
724.874	0.52
725.054	0.62
725.234	0.5
725.413	0.65
725.593	0.6
725.772	0.57
725.952	0.55
726.131	0.55
726.311	0.49
726.49	0.5
726.67	0.43
726.849	0.46
727.028	0.6
727.208	0.48
727.387	0.54
727.567	0.42
727.746	0.53
727.925	0.46
728.105	0.37
728.284	0.45
728.463	0.4
728.643	0.54
728.822	0.46
729.001	0.44
729.18	0.48
729.359	0.55
729.539	0.49
729.718	0.45
729.897	0.65
730.076	0.49
730.255	0.39
730.434	0.41
730.614	0.48
730.793	0.62
730.972	0.44
731.151	0.57
731.33	0.49
731.509	0.51
731.688	0.42
731.867	0.47
732.046	0.25
732.225	0.67
732.404	0.46
732.583	0.29
732.762	0.45
732.941	0.57
733.12	0.46
733.298	0.42
733.477	0.67
733.656	0.35
733.835	0.38
734.014	0.59
734.193	0.48
734.371	0.51
734.55	0.54
734.729	0.36
734.908	0.44
735.086	0.57
735.265	0.56
735.444	0.29
735.623	0.37
735.801	0.45
735.98	0.44
736.159	0.4
736.337	0.54
736.516	0.44
736.694	0.62
736.873	0.5
737.052	0.88
737.23	0.6
737.409	0.36
737.587	0.72
737.766	0.37
737.944	0.51
738.123	0.53
738.301	0.54
738.479	0.47
738.658	0.56
738.836	0.3
739.015	0.45
739.193	0.69
739.371	0.38
739.55	0.45
739.728	0.29
739.906	0.75
740.085	0.69
740.263	0.39
740.441	0.16
740.62	0.71
740.798	0.64
740.976	0.32
741.154	0.3
741.332	0.73
741.511	0.39
741.689	0.49
741.867	0.54
742.045	0.54
742.223	0.39
742.401	0.36
742.579	0.34
742.757	0.73
742.935	0.36
743.114	0.34
743.292	0.42
743.47	0.5
743.648	0.44
743.826	0.26
744.004	0.41
744.181	0.53
744.359	0.5
744.537	0.56
744.715	0.47
744.893	0.48
745.071	0.52
745.249	0.41
745.427	0.36
745.605	0.53
745.782	0.42
745.96	0.45
746.138	0.59
746.316	0.55
746.493	0.36
746.671	0.37
746.849	0.3
747.027	0.66
747.204	0.42
747.382	0.44
747.56	0.2
747.737	0.31
747.915	0.41
748.093	0.51
748.27	0.29
748.448	0.41
748.625	0.3
748.803	0.39
748.98	0.36
749.158	0.54
749.335	0.41
749.513	0.31
749.69	0.37
749.868	0.47
750.045	0.4
750.223	0.27
750.4	0.12
750.578	0.71
750.755	0.44
750.932	0.22
751.11	0.5
751.287	0.26
751.464	0.63
751.642	0.24
751.819	0.43
751.996	0.48
752.173	0.31
752.351	0.17
752.528	0.38
752.705	0.44
752.882	0.31
753.06	0.43
753.237	0.45
753.414	0.65
753.591	0.6
753.768	0.42
753.945	0.38
754.122	0.38
754.299	0.48
754.476	0.28
754.654	0.38
754.831	0.46
755.008	0.5
755.185	0.35
755.362	0.32
755.539	0.43
755.716	0.37
755.892	0.42
756.069	0.39
756.246	0.41
756.423	0.44
756.6	0.5
756.777	0.19
756.954	0.56
757.131	0.36
757.307	0.31
757.484	0.08
757.661	0.41
757.838	0.54
758.015	0.2
758.191	0.33
758.368	0.35
758.545	0.66
758.721	0.35
758.898	0.35
759.075	0.4
759.251	0.5
759.428	0.39
759.605	0.25
759.781	0.33
759.958	0.54
760.134	0.37
760.311	0.17
760.488	0.56
760.664	0.52
760.841	0.46
761.017	0.17
761.194	0.54
761.37	0.53
761.547	0.37
761.723	0.35
761.899	0.54
762.076	0.39
762.252	0.23
762.429	0.36
762.605	0.56
762.781	0.35
762.958	0.41
763.134	0.28
763.31	0.24
763.486	0.61
763.663	0.16
763.839	0.31
764.015	0.1
764.191	0.29
764.368	0.3
764.544	0.16
764.72	0.44
764.896	0.41
765.072	0.28
765.248	0.29
765.425	0.28
765.601	0.49
765.777	0.37
765.953	0.02
766.129	0.31
766.305	0.27
766.481	0.4
766.657	0.31
766.833	0.65
767.009	0.18
767.185	0.38
767.361	0.28
767.537	0.24
767.713	0.54
767.889	0.29
768.065	0.35
768.24	0.49
768.416	0.57
768.592	0.36
768.768	0.36
768.944	0.41
769.12	0.31
769.295	0.25
769.471	0.34
769.647	0.37
769.823	0.63
769.998	0.26
770.174	0.13
770.35	0.77
770.525	0.67
770.701	0.44
770.877	0.28
771.052	0.02
771.228	0.45
771.403	0.38
771.579	0.36
771.755	0.72
771.93	0.3
772.106	0.21
772.281	0.03
772.457	0.33
772.632	0.4
772.808	0.21
772.983	0.19
773.159	0.26
773.334	0.62
773.509	0.5
773.685	0.29
773.86	0.81
774.036	0.7
774.211	0.45
774.386	0.22
774.562	0.55
774.737	0.47
774.912	0.18
775.087	0.39
775.263	0.43
775.438	0.44
775.613	0.09
775.788	0.31
775.964	0.62
776.139	0.76
776.314	0.16
776.489	0.36
776.664	0.46
776.839	0.25
777.014	0.49
777.19	0.55
777.365	0.59
777.54	0.57
777.715	0.15
777.89	0.27
778.065	0.09
778.24	0.4
778.415	0.54
778.59	0.04
778.765	0.48
778.94	0.52
779.115	0.34
779.289	0.27
779.464	0.33
779.639	0.27
779.814	0.12
779.989	0.13
780.164	0.64
780.339	0.59
780.513	0.17
780.688	0.21
780.863	0.49
781.038	0.67
781.212	0.28
781.387	0.37
781.562	0.84
781.737	0.12
781.911	0.61
782.086	0.17
782.261	0.34
782.435	0.76
782.61	0.21
782.784	0.22
782.959	0.54
783.134	0.42
783.308	0.11
783.483	0.14
783.657	0.95
783.832	0.63
784.006	-0.04
784.181	0.4
784.355	0.57
784.53	0.19
784.704	0.35
784.878	0.58
785.053	0.44
785.227	0.83
785.402	0.76
785.576	0.24
785.75	0.38
785.925	0.37
786.099	0.29
786.273	0.54
786.448	0.87
786.622	0.47
786.796	0.3
786.97	0.57
787.145	1.02
787.319	0.17
787.493	0.18
787.667	-0.1
787.841	0.37
788.015	0.63
788.19	0.42
788.364	0.4
788.538	0.82
788.712	0.73
788.886	0.32
789.06	0.54
789.234	0.71
789.408	0
789.582	0.13
789.756	0.42
789.93	0.38
790.104	0.59
790.278	0.32
790.452	0.35
790.626	0.41
790.8	0.26
790.973	0.54
791.147	0.68
791.321	0.96
791.495	0.69
791.669	0.54
791.843	0.68
792.016	0.27
792.19	0.94
792.364	-0.07
792.538	1.01
792.711	0.73
792.885	0.08
793.059	0.06
793.233	-0.15
793.406	0.51
793.58	0.55
793.754	0.58
793.927	0.26
794.101	0.72
794.274	0.32
794.448	0.71
794.622	0.08
794.795	1.1
794.969	0.37
795.142	0.96
795.316	0.29
795.489	0.39
795.663	0.79
795.836	0.44
796.009	0.31
796.183	0.66
796.356	0.79
796.53	0.37
796.703	0.33
796.876	0.97
797.05	0.43
797.223	0.16
797.396	0.55
797.57	0.27
797.743	0.63
797.916	0.64
798.09	0.68
798.263	1.12
798.436	0.64
798.609	0.26
798.782	0.46
798.956	0.94
799.129	0.23
799.302	0.3
799.475	0.35
799.648	0.67
799.821	0.16
799.994	0.29
800.167	0.08
800.34	0.38
800.514	0.48
800.687	0.37
800.86	0.28
801.033	0.61
801.206	0.39
801.379	0.08
801.551	0.89
801.724	0.78
801.897	1.12
802.07	0.33
802.243	-0.15
802.416	0.47
802.589	0.39
802.762	0.51
802.935	0.58
803.107	0.93
803.28	0.94
803.453	0.53
803.626	0.22
803.798	0.66
803.971	0.61
804.144	0.8
804.317	0.29
804.489	0.8
804.662	0.67
804.835	0.28
805.007	0
805.18	1.22
805.353	0.77
805.525	0.25
805.698	0.47
805.87	0.78
806.043	1.07
806.215	0.14
806.388	0.12
806.56	0.7
806.733	1.09
806.905	0.51
807.078	0.34
807.25	0.12
807.423	0.74
807.595	0.26
807.768	0.3
807.94	0.86
808.112	0.89
808.285	0.34
808.457	0.35
808.629	0.63
808.802	0.88
808.974	0.51
809.146	0.05
809.318	0.25
809.491	0.75
809.663	0.63
809.835	0.6
810.007	0.64
810.18	0.63
810.352	0.23
810.524	0.6
810.696	1.09
810.868	0.9
811.04	0.58
811.212	0.38
811.384	1.01
811.556	0.7
811.728	0.51
811.901	1.31
812.073	0.83
812.245	1.06
812.417	0.66
812.589	-0.26
812.76	0.79
812.932	1.09
813.104	0.84
813.276	0.27
813.448	1.09
813.62	0.63
813.792	0.71
813.964	0.33
814.136	0.48
814.307	0.45
814.479	0.04
814.651	0.59
814.823	1.61
814.995	0.63
815.166	0.58
815.338	0.28
815.51	0.16
815.681	1.74
815.853	1.31
816.025	-0.04
816.196	1.52
816.368	1.4
816.54	0.37
816.711	-0.17
816.883	0.71
817.054	2.04
817.226	0.38
817.398	0.81
817.569	0.15
817.741	0.79
817.912	0.56
818.084	0.34
818.255	1.08
818.426	0.11
818.598	-0.02
818.769	0.13
818.941	1.29
819.112	1.32
819.283	0.64
819.455	0.2
819.626	0.56
819.798	0.83
819.969	1.13
820.14	0.31
820.311	0.55
820.483	1.09
820.654	1.01
820.825	0.47
820.996	0.61
821.168	-0.03
821.339	0.14
821.51	-0.13
821.681	0.58
821.852	0.71
822.023	0.22
822.195	-0.01
822.366	1.22
822.537	0.65
822.708	1.02
822.879	0.5
823.05	1.61
823.221	0.55
823.392	0.84
823.563	0.83
823.734	0.67
823.905	0.6
824.076	0.21
824.247	0.28
824.418	0.69
824.589	1.19
824.759	0.23
824.93	0.52
825.101	0.01
825.272	1.41
825.443	1.33
825.614	1.17
825.784	0.22
825.955	2.25
826.126	1.93
826.297	0.69
826.467	1.78
826.638	1.41
826.809	0.04
826.98	1.18
827.15	1.41
827.321	0.81
827.492	1.7
827.662	1.14
827.833	2.23
828.003	1.48
828.174	0.09
828.345	0.09
828.515	1.86
828.686	1
828.856	0.22
829.027	0.89
829.197	1.01
829.368	1.18
829.538	0.63
829.709	0.71
829.879	1.28
830.049	0.99
830.22	0.67
830.39	1.18
830.56	1.49
830.731	0.67
830.901	0.3
831.072	0.53
831.242	1.15
831.412	0.84
831.582	0.61
831.753	0.03
831.923	1.48
832.093	1.42
832.263	0.81
832.434	-0.19
832.604	0.66
832.774	1.5
832.944	0.49
833.114	0.45
833.284	0.51
833.454	0.37
833.624	0.14
833.795	0.87
833.965	1.87
834.135	2.18
834.305	-0.55
834.475	-0.18
834.645	0.95
834.815	0.8
834.985	0.78
835.155	-0.1
835.325	0.87
835.494	1.31
835.664	0.77
835.834	-0.13
836.004	1.11
836.174	1.25
836.344	0.84
836.514	-0.42
836.684	0.14
836.853	0.66
837.023	1.55
837.193	0.7
837.363	2.4
837.532	1.38
837.702	0.74
837.872	0.68
838.041	1.3
838.211	2.37
838.381	-0.49
838.55	1.01
838.72	3.47
838.89	2.95
839.059	0.39
839.229	1.01
839.398	2.71
839.568	1.25
839.738	0.59
839.907	1.81
840.077	1.37
840.246	-0.03
840.416	0.26
840.585	0.21
840.755	2.54
840.924	2.65
841.093	0.24
841.263	0.64
841.432	0.51
841.602	0.42
841.771	0.23
841.94	0.5
842.11	3.51
842.279	2.04
842.448	0.09
842.617	0.62
842.787	2.48
842.956	0.04
843.125	0.39
843.294	-0.15
843.464	2.25
843.633	1.51
843.802	-0.34
843.971	0.82
844.14	1.55
844.309	2.19
844.479	-1.3
844.648	-0.41
844.817	0.68
844.986	1.5
845.155	0.28
845.324	0.19
845.493	1.02
845.662	0.85
845.831	2.06
846	1.56
846.169	0.52
846.338	2.7
846.507	1.14
846.676	1.55
846.844	0.83
847.013	2.04
847.182	1.51
847.351	0.09
847.52	1.04
847.689	1.83
847.858	0.63
848.026	0.43
848.195	1.89
848.364	0.81
848.533	-0.2
848.701	0.92
848.87	0.85
849.039	2.54
849.207	1.65
849.376	2.9
849.545	3.23
849.713	0.91
849.882	0.33
850.051	0.87
850.219	1.69
850.388	1.85
850.556	-0.23
850.725	-0.56
850.893	1.84
851.062	0.37
851.23	1.74
851.399	-0.61
851.567	1.8
851.736	0.61
851.904	-0.71
852.073	1.78
852.241	2.35
852.41	1.98
852.578	0.7
852.746	-0.29
852.915	2.43
853.083	0.59
853.251	-0.29
853.42	2.08
853.588	0.85
853.756	1.95
853.924	0.91
854.093	1.63
854.261	1.04
854.429	-0.65
854.597	0.67
854.765	0.48
854.934	2.32
855.102	1.92
855.27	0.56
855.438	1.81
855.606	2.5
855.774	3.54
855.942	-1.32
856.11	1.3
856.278	2.29
856.446	1.69
856.614	1.45
856.782	0.4
856.95	2.6
857.118	2.91
857.286	2.52
857.454	0.21
857.622	2.6
857.79	2.01
857.958	-1.11
858.126	-0.22
858.294	-1.17
858.462	1.21
858.629	0.81
858.797	0.26
858.965	2.43
859.133	2.29
859.301	0.76
859.468	1.65
859.636	1.45
859.804	4.25
859.971	2.83
860.139	1.75
860.307	2.9
860.474	1.42
860.642	-0.25
860.81	0.13
860.977	2.16
861.145	3.36
861.313	1.32
861.48	0.31
861.648	3.29
861.815	1.79
861.983	-0.99
862.15	0.22
862.318	1.97
862.485	2.53
862.653	-0.61
862.82	-0.11
862.988	3.21
863.155	-0.21
863.322	1.5
863.49	-0.43
863.657	0.85
863.824	4.05
863.992	2.81
864.159	1.27
864.326	4.75
864.494	0.62
864.661	4.24
864.828	0.67
864.996	3.61
865.163	4.39
865.33	0.36
865.497	-1.31
865.664	0.44
865.832	-0.8
865.999	0.14
866.166	1.01
866.333	2.8
866.5	0.77
866.667	0.64
866.834	0.46
867.001	3.16
867.168	0.01
867.335	1.68
867.502	-0.11
867.669	2.62
867.836	3.74
868.003	1.28
868.17	4.08
868.337	2.46
868.504	4.73
868.671	-0.51
868.838	0.1
869.005	4.3
869.172	3.19
869.339	1.26
869.505	1.9
869.672	2.35
869.839	4.59
870.006	2.91
870.173	-0.45
870.339	2.14
870.506	4.52
870.673	0.21
870.84	2.58
871.006	3.5
871.173	2.02
871.34	1.11
871.506	-0.73
871.673	3.57
871.839	-0.46
872.006	1.47
872.173	2.23
872.339	2.47
872.506	3.47
872.672	0.86
872.839	-0.37
873.005	3.39
873.172	6.83
873.338	2.33
873.505	2.46
873.671	3.76
873.838	2.38
874.004	-0.42
874.171	0.2
874.337	1.5
874.503	2.95
874.67	-0.59
874.836	1.6
875.002	3.76
875.169	2.67
875.335	0.36
875.501	1.29
875.668	4.34
875.834	2.86
876	0.13
876.166	3.46
876.332	2.65
876.499	3.82
876.665	1.84
876.831	1.75
876.997	6.8
877.163	2.18
877.329	0.94
877.495	3.49
877.662	3.2
877.828	4.28
877.994	1.67
878.16	-1.78
878.326	-0.04
878.492	3.53
878.658	1.81
878.824	3.85
878.99	3.08
879.156	0.92
879.322	5.01
879.487	1.21
879.653	2.31
879.819	2.73
879.985	1.59
880.151	2.27
880.317	3.02
880.483	3.95
880.648	2.94
880.814	-1.03
880.98	1.72
881.146	-2.05
881.312	-0.05
881.477	-0.08
881.643	4.01
881.809	3.74
881.974	3.6
882.14	-0.83
882.306	1.5
882.471	5.98
882.637	0.46
882.803	2.35
882.968	6.93
883.134	6.59
883.299	1.11
883.465	1.41
883.63	5.72
883.796	4.09
883.961	4.49
884.127	4.23
884.292	-2.68
884.458	0.2
884.623	0.2
