Data from Apollo_Calib_20240827__AbsoluteIrradiance__777__12-06-02-991.txt Node

Date: Wed Aug 28 12:06:02 BST 2024
User: biology
Spectrometer: FLMT08252
Trigger mode: 0
Integration Time (sec): 5.000000E-1
Scans to average: 5
Electric dark correction enabled: true
Nonlinearity correction enabled: false
Boxcar width: 0
XAxis mode: Wavelengths
Number of Pixels in Spectrum: 3648
>>>>>Begin Spectral Data<<<<<
179.588	-0
179.809	-0
180.03	-0
180.251	-0
180.473	-0
180.694	0
180.915	0
181.136	-0
181.357	0
181.578	-0
181.799	-0
182.02	-0
182.241	0
182.462	-0
182.683	0
182.904	-0
183.125	-0
183.346	0
183.567	0
183.788	0
184.009	0
184.23	0
184.451	0
184.672	0
184.892	0
185.113	0
185.334	0
185.555	0
185.776	0
185.996	0
186.217	0
186.438	0
186.659	0
186.879	0
187.1	0
187.321	0
187.541	0
187.762	0
187.983	0
188.203	0
188.424	0
188.644	0
188.865	0
189.086	0
189.306	0
189.527	0
189.747	0
189.968	0
190.188	0
190.409	0
190.629	0
190.849	0
191.07	0
191.29	0
191.511	0
191.731	0
191.951	0
192.172	0
192.392	0
192.612	0
192.833	0
193.053	0
193.273	0
193.493	0
193.714	0
193.934	0
194.154	0
194.374	0
194.594	0
194.815	0
195.035	0
195.255	0
195.475	0
195.695	0
195.915	0
196.135	0
196.355	0
196.575	0
196.795	0
197.015	0
197.235	0
197.455	0
197.675	0
197.895	0
198.115	0
198.335	0
198.555	0
198.775	0
198.995	0
199.214	0
199.434	0
199.654	0
199.874	0
200.094	3.96
200.313	2.65
200.533	1.95
200.753	1.79
200.973	3.92
201.192	3.16
201.412	1.33
201.632	1.45
201.851	3.29
202.071	1.13
202.291	1.42
202.51	1.38
202.73	2.81
202.95	1.76
203.169	1.26
203.389	1.95
203.608	2.34
203.828	1.43
204.047	1.65
204.267	1.98
204.486	1.98
204.706	2.52
204.925	2.03
205.145	1.47
205.364	2
205.583	2.69
205.803	1.43
206.022	0.79
206.242	2.09
206.461	1.49
206.68	1.08
206.9	1.62
207.119	2.4
207.338	2.17
207.557	0.93
207.777	1.17
207.996	1.39
208.215	2.39
208.434	0.87
208.654	0.91
208.873	1.39
209.092	1.81
209.311	0.89
209.53	0.96
209.749	1.16
209.968	1.05
210.187	0.72
210.407	0.77
210.626	1.12
210.845	1.61
211.064	1.53
211.283	0.97
211.502	1.38
211.721	0.89
211.94	0.94
212.159	1.19
212.377	1.43
212.596	1.34
212.815	1.1
213.034	1.06
213.253	1.29
213.472	1.47
213.691	1
213.91	0.47
214.128	0.79
214.347	1.34
214.566	0.58
214.785	0.46
215.003	1.24
215.222	1.14
215.441	0.82
215.66	0.54
215.878	0.81
216.097	1.09
216.316	0.55
216.534	0.85
216.753	1.06
216.972	0.92
217.19	0.96
217.409	0.74
217.627	0.65
217.846	0.61
218.064	1.03
218.283	0.67
218.501	1.36
218.72	1.07
218.938	0.5
219.157	0.67
219.375	1.13
219.594	1.06
219.812	0.54
220.031	0.53
220.249	1.1
220.467	0.92
220.686	0.59
220.904	0.56
221.122	0.58
221.341	1.14
221.559	0.88
221.777	0.6
221.995	0.75
222.214	0.97
222.432	0.45
222.65	0.71
222.868	0.8
223.086	0.74
223.305	0.82
223.523	0.67
223.741	1.21
223.959	0.78
224.177	0.45
224.395	0.67
224.613	0.8
224.831	0.89
225.049	0.35
225.267	0.55
225.485	0.62
225.703	0.48
225.921	0.58
226.139	0.5
226.357	0.82
226.575	0.72
226.793	0.44
227.011	1.43
227.229	0.74
227.447	0.87
227.665	0.52
227.883	0.24
228.1	0.6
228.318	0.81
228.536	0.27
228.754	0.46
228.972	0.78
229.189	0.68
229.407	0.51
229.625	0.54
229.843	0.83
230.06	0.69
230.278	0.55
230.496	0.65
230.713	0.71
230.931	0.88
231.149	0.44
231.366	0.24
231.584	0.54
231.801	0.95
232.019	0.5
232.236	0.37
232.454	0.43
232.671	0.72
232.889	0.49
233.106	0.36
233.324	0.53
233.541	0.52
233.759	0.56
233.976	0.41
234.194	0.58
234.411	0.48
234.628	0.35
234.846	0.42
235.063	0.41
235.28	0.7
235.498	0.53
235.715	0.34
235.932	0.82
236.149	0.49
236.367	0.35
236.584	0.46
236.801	0.48
237.018	0.75
237.236	0.41
237.453	0.21
237.67	0.68
237.887	0.57
238.104	0.49
238.321	0.24
238.538	0.39
238.755	0.69
238.973	0.28
239.19	0.47
239.407	0.57
239.624	0.48
239.841	0.32
240.058	0.32
240.275	0.51
240.492	0.49
240.709	0.44
240.925	0.45
241.142	0.46
241.359	0.37
241.576	0.3
241.793	0.4
242.01	0.48
242.227	0.61
242.444	0.5
242.66	0.58
242.877	0.38
243.094	0.43
243.311	0.53
243.527	0.41
243.744	0.47
243.961	0.45
244.178	0.36
244.394	0.36
244.611	0.53
244.828	0.63
245.044	0.42
245.261	0.36
245.477	0.36
245.694	0.52
245.911	0.38
246.127	0.43
246.344	0.59
246.56	0.5
246.777	0.43
246.993	0.44
247.21	0.49
247.426	0.51
247.643	0.33
247.859	0.32
248.076	0.35
248.292	0.56
248.508	0.38
248.725	0.43
248.941	0.51
249.157	0.54
249.374	0.24
249.59	0.38
249.806	0.42
250.023	0.58
250.239	0.43
250.455	0.27
250.671	0.36
250.888	0.45
251.104	0.49
251.32	0.29
251.536	0.44
251.752	0.26
251.969	0.44
252.185	0.41
252.401	0.62
252.617	0.53
252.833	0.35
253.049	0.36
253.265	0.43
253.481	0.42
253.697	0.31
253.913	0.25
254.129	0.48
254.345	0.38
254.561	0.34
254.777	0.26
254.993	0.52
255.209	0.38
255.425	0.38
255.641	0.27
255.857	0.49
256.073	0.49
256.288	0.24
256.504	0.34
256.72	0.49
256.936	0.55
257.152	0.34
257.367	0.23
257.583	0.41
257.799	0.48
258.015	0.36
258.23	0.28
258.446	0.57
258.662	0.32
258.877	0.24
259.093	0.23
259.309	0.43
259.524	0.52
259.74	0.31
259.955	0.22
260.171	0.29
260.387	0.32
260.602	0.38
260.818	0.41
261.033	0.24
261.249	0.3
261.464	0.32
261.68	0.21
261.895	0.43
262.11	0.41
262.326	0.36
262.541	0.22
262.757	0.47
262.972	0.48
263.187	0.4
263.403	0.4
263.618	0.51
263.833	0.43
264.049	0.2
264.264	0.3
264.479	0.37
264.694	0.48
264.91	0.27
265.125	0.31
265.34	0.4
265.555	0.57
265.77	0.34
265.986	0.24
266.201	0.42
266.416	0.37
266.631	0.32
266.846	0.28
267.061	0.35
267.276	0.38
267.491	0.23
267.706	0.4
267.921	0.4
268.136	0.39
268.351	0.32
268.566	0.2
268.781	0.4
268.996	0.43
269.211	0.27
269.426	0.26
269.641	0.31
269.856	0.41
270.071	0.23
270.285	0.22
270.5	0.46
270.715	0.39
270.93	0.29
271.145	0.39
271.359	0.48
271.574	0.32
271.789	0.29
272.004	0.31
272.218	0.25
272.433	0.42
272.648	0.24
272.862	0.4
273.077	0.35
273.292	0.3
273.506	0.25
273.721	0.27
273.936	0.36
274.15	0.43
274.365	0.3
274.579	0.4
274.794	0.37
275.008	0.46
275.223	0.25
275.437	0.31
275.652	0.41
275.866	0.41
276.081	0.33
276.295	0.37
276.509	0.31
276.724	0.31
276.938	0.32
277.153	0.33
277.367	0.35
277.581	0.27
277.796	0.31
278.01	0.19
278.224	0.39
278.438	0.5
278.653	0.22
278.867	0.25
279.081	0.17
279.295	0.31
279.51	0.33
279.724	0.14
279.938	0.4
280.152	0.31
280.366	0.27
280.58	0.3
280.794	0.46
281.008	0.43
281.222	0.36
281.437	0.49
281.651	0.3
281.865	0.41
282.079	0.24
282.293	0.14
282.507	0.25
282.721	0.26
282.935	0.23
283.148	0.19
283.362	0.25
283.576	0.22
283.79	0.3
284.004	0.28
284.218	0.4
284.432	0.26
284.646	0.27
284.859	0.2
285.073	0.27
285.287	0.32
285.501	0.27
285.714	0.26
285.928	0.32
286.142	0.28
286.356	0.17
286.569	0.27
286.783	0.34
286.997	0.39
287.21	0.32
287.424	0.24
287.637	0.25
287.851	0.19
288.065	0.33
288.278	0.24
288.492	0.3
288.705	0.31
288.919	0.34
289.132	0.15
289.346	0.31
289.559	0.23
289.773	0.2
289.986	0.24
290.2	0.29
290.413	0.3
290.626	0.24
290.84	0.26
291.053	0.29
291.267	0.33
291.48	0.29
291.693	0.28
291.906	0.2
292.12	0.24
292.333	0.2
292.546	0.28
292.76	0.36
292.973	0.3
293.186	0.26
293.399	0.24
293.612	0.34
293.826	0.23
294.039	0.27
294.252	0.21
294.465	0.3
294.678	0.32
294.891	0.27
295.104	0.2
295.317	0.21
295.53	0.33
295.743	0.26
295.956	0.24
296.169	0.37
296.382	0.29
296.595	0.26
296.808	0.2
297.021	0.33
297.234	0.29
297.447	0.26
297.66	0.34
297.873	0.32
298.086	0.32
298.299	0.21
298.511	0.23
298.724	0.28
298.937	0.23
299.15	0.19
299.363	0.22
299.575	0.29
299.788	0.32
300.001	0.21
300.213	0.22
300.426	0.2
300.639	0.23
300.852	0.2
301.064	0.3
301.277	0.33
301.489	0.28
301.702	0.27
301.915	0.21
302.127	0.23
302.34	0.33
302.552	0.28
302.765	0.22
302.977	0.33
303.19	0.24
303.402	0.23
303.615	0.21
303.827	0.24
304.04	0.26
304.252	0.32
304.464	0.23
304.677	0.39
304.889	0.27
305.102	0.21
305.314	0.16
305.526	0.25
305.739	0.3
305.951	0.21
306.163	0.22
306.375	0.37
306.588	0.22
306.8	0.24
307.012	0.19
307.224	0.31
307.436	0.38
307.649	0.15
307.861	0.22
308.073	0.32
308.285	0.2
308.497	0.19
308.709	0.25
308.921	0.26
309.133	0.3
309.346	0.25
309.558	0.24
309.77	0.29
309.982	0.3
310.194	0.28
310.406	0.21
310.617	0.33
310.829	0.27
311.041	0.27
311.253	0.21
311.465	0.25
311.677	0.25
311.889	0.22
312.101	0.19
312.313	0.32
312.524	0.3
312.736	0.19
312.948	0.25
313.16	0.33
313.372	0.27
313.583	0.25
313.795	0.19
314.007	0.22
314.218	0.26
314.43	0.24
314.642	0.23
314.853	0.2
315.065	0.27
315.277	0.23
315.488	0.25
315.7	0.28
315.912	0.28
316.123	0.24
316.335	0.23
316.546	0.34
316.758	0.26
316.969	0.2
317.181	0.28
317.392	0.28
317.604	0.31
317.815	0.16
318.026	0.18
318.238	0.22
318.449	0.34
318.661	0.17
318.872	0.2
319.083	0.24
319.295	0.29
319.506	0.26
319.717	0.24
319.929	0.28
320.14	0.24
320.351	0.3
320.562	0.23
320.774	0.25
320.985	0.28
321.196	0.2
321.407	0.16
321.618	0.28
321.829	0.26
322.041	0.28
322.252	0.24
322.463	0.32
322.674	0.3
322.885	0.19
323.096	0.25
323.307	0.23
323.518	0.26
323.729	0.25
323.94	0.24
324.151	0.27
324.362	0.28
324.573	0.21
324.784	0.29
324.995	0.32
325.206	0.28
325.417	0.16
325.628	0.18
325.838	0.22
326.049	0.29
326.26	0.27
326.471	0.24
326.682	0.26
326.892	0.28
327.103	0.17
327.314	0.19
327.525	0.26
327.735	0.3
327.946	0.23
328.157	0.2
328.368	0.3
328.578	0.24
328.789	0.31
328.999	0.25
329.21	0.25
329.421	0.28
329.631	0.21
329.842	0.2
330.052	0.21
330.263	0.27
330.473	0.28
330.684	0.21
330.894	0.25
331.105	0.24
331.315	0.28
331.526	0.14
331.736	0.32
331.947	0.29
332.157	0.23
332.367	0.13
332.578	0.28
332.788	0.32
332.999	0.33
333.209	0.25
333.419	0.19
333.629	0.29
333.84	0.29
334.05	0.25
334.26	0.3
334.47	0.27
334.681	0.32
334.891	0.19
335.101	0.28
335.311	0.36
335.521	0.24
335.732	0.19
335.942	0.33
336.152	0.27
336.362	0.25
336.572	0.26
336.782	0.28
336.992	0.24
337.202	0.23
337.412	0.19
337.622	0.26
337.832	0.23
338.042	0.27
338.252	0.2
338.462	0.22
338.672	0.26
338.882	0.23
339.092	0.22
339.302	0.36
339.511	0.3
339.721	0.21
339.931	0.21
340.141	0.28
340.351	0.32
340.561	0.26
340.77	0.26
340.98	0.25
341.19	0.31
341.4	0.25
341.609	0.18
341.819	0.22
342.029	0.18
342.238	0.23
342.448	0.19
342.658	0.29
342.867	0.22
343.077	0.28
343.286	0.23
343.496	0.24
343.706	0.29
343.915	0.18
344.125	0.26
344.334	0.28
344.544	0.19
344.753	0.21
344.963	0.17
345.172	0.22
345.381	0.24
345.591	0.22
345.8	0.24
346.01	0.33
346.219	0.31
346.428	0.11
346.638	0.24
346.847	0.24
347.056	0.33
347.266	0.23
347.475	0.24
347.684	0.28
347.893	0.32
348.103	0.25
348.312	0.21
348.521	0.28
348.73	0.27
348.94	0.26
349.149	0.2
349.358	0.21
349.567	0.22
349.776	0.18
349.985	0.23
350.194	0.3
350.403	0.26
350.612	0.14
350.821	0.2
351.03	0.22
351.239	0.15
351.448	0.25
351.657	0.23
351.866	0.32
352.075	0.24
352.284	0.22
352.493	0.19
352.702	0.32
352.911	0.25
353.12	0.26
353.329	0.22
353.538	0.25
353.746	0.24
353.955	0.17
354.164	0.26
354.373	0.18
354.582	0.26
354.79	0.25
354.999	0.26
355.208	0.23
355.416	0.33
355.625	0.2
355.834	0.19
356.042	0.27
356.251	0.19
356.46	0.18
356.668	0.25
356.877	0.37
357.085	0.3
357.294	0.13
357.503	0.23
357.711	0.22
357.92	0.41
358.128	0.28
358.337	0.2
358.545	0.27
358.754	0.21
358.962	0.31
359.17	0.21
359.379	0.23
359.587	0.29
359.796	0.26
360.004	0.33
360.212	0.31
360.421	0.28
360.629	0.22
360.837	0.24
361.046	0.26
361.254	0.37
361.462	0.21
361.67	0.2
361.879	0.29
362.087	0.34
362.295	0.23
362.503	0.19
362.711	0.2
362.92	0.22
363.128	0.2
363.336	0.18
363.544	0.18
363.752	0.21
363.96	0.22
364.168	0.18
364.376	0.23
364.584	0.23
364.792	0.34
365	0.28
365.208	0.27
365.416	0.28
365.624	0.29
365.832	0.17
366.04	0.32
366.248	0.29
366.456	0.19
366.664	0.24
366.872	0.26
367.079	0.22
367.287	0.23
367.495	0.25
367.703	0.25
367.911	0.21
368.118	0.24
368.326	0.25
368.534	0.21
368.742	0.3
368.949	0.2
369.157	0.19
369.365	0.28
369.572	0.21
369.78	0.22
369.988	0.25
370.195	0.25
370.403	0.27
370.61	0.18
370.818	0.26
371.026	0.31
371.233	0.26
371.441	0.23
371.648	0.24
371.856	0.24
372.063	0.21
372.271	0.22
372.478	0.22
372.685	0.21
372.893	0.29
373.1	0.24
373.308	0.25
373.515	0.4
373.722	0.32
373.93	0.24
374.137	0.27
374.344	0.31
374.552	0.28
374.759	0.31
374.966	0.23
375.173	0.23
375.381	0.29
375.588	0.26
375.795	0.11
376.002	0.23
376.209	0.23
376.417	0.23
376.624	0.31
376.831	0.28
377.038	0.26
377.245	0.17
377.452	0.26
377.659	0.21
377.866	0.22
378.073	0.26
378.28	0.22
378.487	0.3
378.694	0.32
378.901	0.24
379.108	0.2
379.315	0.32
379.522	0.35
379.729	0.3
379.936	0.23
380.143	0.27
380.35	0.25
380.557	0.25
380.763	0.23
380.97	0.26
381.177	0.32
381.384	0.25
381.591	0.22
381.797	0.29
382.004	0.34
382.211	0.28
382.418	0.24
382.624	0.27
382.831	0.33
383.038	0.26
383.244	0.25
383.451	0.25
383.658	0.27
383.864	0.21
384.071	0.22
384.277	0.37
384.484	0.24
384.69	0.3
384.897	0.23
385.103	0.26
385.31	0.24
385.516	0.23
385.723	0.22
385.929	0.25
386.136	0.21
386.342	0.29
386.549	0.23
386.755	0.31
386.961	0.31
387.168	0.25
387.374	0.27
387.58	0.33
387.787	0.33
387.993	0.27
388.199	0.29
388.406	0.26
388.612	0.31
388.818	0.25
389.024	0.23
389.231	0.31
389.437	0.38
389.643	0.3
389.849	0.31
390.055	0.29
390.261	0.27
390.467	0.29
390.674	0.26
390.88	0.28
391.086	0.33
391.292	0.22
391.498	0.36
391.704	0.32
391.91	0.27
392.116	0.29
392.322	0.2
392.528	0.35
392.734	0.25
392.94	0.32
393.146	0.27
393.352	0.29
393.557	0.23
393.763	0.26
393.969	0.31
394.175	0.3
394.381	0.35
394.587	0.29
394.792	0.28
394.998	0.38
395.204	0.4
395.41	0.24
395.615	0.34
395.821	0.33
396.027	0.34
396.233	0.25
396.438	0.32
396.644	0.3
396.85	0.29
397.055	0.33
397.261	0.33
397.466	0.42
397.672	0.35
397.878	0.37
398.083	0.32
398.289	0.27
398.494	0.42
398.7	0.32
398.905	0.25
399.111	0.41
399.316	0.33
399.522	0.32
399.727	0.4
399.932	0.31
400.138	0.28
400.343	0.39
400.549	0.33
400.754	0.36
400.959	0.34
401.165	0.39
401.37	0.36
401.575	0.48
401.78	0.33
401.986	0.33
402.191	0.36
402.396	0.36
402.601	0.37
402.807	0.4
403.012	0.36
403.217	0.47
403.422	0.41
403.627	0.39
403.832	0.4
404.037	0.43
404.243	0.44
404.448	0.39
404.653	0.37
404.858	0.45
405.063	0.45
405.268	0.35
405.473	0.35
405.678	0.41
405.883	0.67
406.088	0.47
406.293	0.4
406.498	0.45
406.703	0.52
406.907	0.49
407.112	0.44
407.317	0.51
407.522	0.6
407.727	0.45
407.932	0.47
408.136	0.67
408.341	0.53
408.546	0.56
408.751	0.54
408.956	0.59
409.16	0.68
409.365	0.58
409.57	0.65
409.774	0.62
409.979	0.7
410.184	0.7
410.388	0.65
410.593	0.81
410.798	0.71
411.002	0.73
411.207	0.75
411.411	0.77
411.616	0.75
411.82	0.78
412.025	0.83
412.229	0.85
412.434	0.98
412.638	0.91
412.843	0.9
413.047	0.98
413.252	0.93
413.456	1.01
413.66	1
413.865	1.06
414.069	1.15
414.273	1.11
414.478	1.14
414.682	1.17
414.886	1.24
415.091	1.19
415.295	1.22
415.499	1.4
415.703	1.4
415.908	1.46
416.112	1.38
416.316	1.63
416.52	1.58
416.724	1.59
416.929	1.67
417.133	1.88
417.337	1.71
417.541	1.8
417.745	1.85
417.949	1.93
418.153	2.04
418.357	1.99
418.561	2.25
418.765	2.21
418.969	2.38
419.173	2.45
419.377	2.42
419.581	2.68
419.785	2.69
419.989	2.74
420.193	2.83
420.397	2.92
420.601	3.11
420.804	3.14
421.008	3.14
421.212	3.31
421.416	3.37
421.62	3.32
421.823	3.33
422.027	3.52
422.231	3.53
422.435	3.6
422.638	3.59
422.842	3.68
423.046	3.8
423.249	3.96
423.453	3.98
423.657	4.21
423.86	4.26
424.064	4.39
424.268	4.56
424.471	4.49
424.675	4.72
424.878	4.83
425.082	4.84
425.285	5.17
425.489	5.18
425.692	5.28
425.896	5.35
426.099	5.48
426.303	5.59
426.506	5.8
426.71	6.08
426.913	6.29
427.116	6.43
427.32	6.41
427.523	6.45
427.726	6.85
427.93	6.93
428.133	7.09
428.336	7.26
428.54	7.44
428.743	7.72
428.946	8
429.149	7.93
429.353	8.02
429.556	8.13
429.759	8.14
429.962	8.21
430.165	8.43
430.368	8.09
430.571	8.14
430.775	8.09
430.978	8.14
431.181	8.21
431.384	8.33
431.587	8.39
431.79	8.72
431.993	8.7
432.196	8.92
432.399	9.33
432.602	9.54
432.805	9.6
433.008	10.13
433.211	9.96
433.414	10.29
433.616	10.43
433.819	10.35
434.022	10.47
434.225	10.73
434.428	10.65
434.631	11.08
434.833	10.95
435.036	11.2
435.239	11.32
435.442	11.35
435.645	11.65
435.847	11.64
436.05	11.93
436.253	12.24
436.455	12.17
436.658	11.98
436.861	12.34
437.063	12.51
437.266	12.48
437.468	12.88
437.671	13.02
437.874	13.15
438.076	12.92
438.279	13.44
438.481	13.48
438.684	14.31
438.886	13.95
439.089	14.14
439.291	14.28
439.494	14.59
439.696	14.7
439.899	15.23
440.101	15.67
440.303	15.97
440.506	16.57
440.708	16.36
440.91	16.63
441.113	16.81
441.315	17.14
441.517	16.92
441.72	17.36
441.922	17.11
442.124	16.87
442.326	17.29
442.529	17.5
442.731	17.47
442.933	17.83
443.135	17.63
443.337	17.59
443.539	17.98
443.742	17.81
443.944	18.34
444.146	18.15
444.348	18.16
444.55	18.02
444.752	18.26
444.954	18.15
445.156	18
445.358	18.42
445.56	18.72
445.762	18.5
445.964	18.86
446.166	18.71
446.368	18.62
446.57	18.69
446.772	18.17
446.974	17.95
447.175	18.28
447.377	17.96
447.579	18.38
447.781	18.13
447.983	17.91
448.184	17.4
448.386	17.67
448.588	17.26
448.79	17.15
448.991	17.46
449.193	17.46
449.395	16.83
449.597	16.53
449.798	16.4
450	16.06
450.202	15.85
450.403	15.86
450.605	15.61
450.806	15.37
451.008	15.09
451.21	14.94
451.411	14.48
451.613	13.78
451.814	14.03
452.016	14.03
452.217	13.26
452.419	13.33
452.62	12.97
452.821	12.66
453.023	12.46
453.224	12.15
453.426	11.82
453.627	11.06
453.828	11.13
454.03	11.25
454.231	11.16
454.432	11.04
454.634	10.75
454.835	10.49
455.036	10.38
455.238	9.94
455.439	9.79
455.64	9.42
455.841	9.25
456.042	9.45
456.244	9.11
456.445	8.84
456.646	8.56
456.847	8.54
457.048	8.43
457.249	8.33
457.45	8.15
457.651	7.63
457.852	7.5
458.054	7.16
458.255	7.17
458.456	7.21
458.657	7.16
458.858	6.54
459.058	6.64
459.259	6.69
459.46	6.36
459.661	6.32
459.862	6.43
460.063	6.27
460.264	6.23
460.465	5.92
460.666	6.03
460.866	5.69
461.067	5.39
461.268	5.48
461.469	5.46
461.67	5.28
461.87	5.17
462.071	5.22
462.272	5.03
462.473	5.05
462.673	5.28
462.874	5
463.075	5.11
463.275	4.97
463.476	5.17
463.676	5.01
463.877	4.81
464.078	4.98
464.278	4.92
464.479	4.77
464.679	4.7
464.88	4.61
465.08	4.62
465.281	4.5
465.481	4.32
465.682	4.08
465.882	4.13
466.083	4.07
466.283	3.99
466.483	3.91
466.684	3.66
466.884	3.62
467.085	3.66
467.285	3.7
467.485	3.57
467.686	3.49
467.886	3.41
468.086	3.35
468.286	3.31
468.487	3.44
468.687	3.15
468.887	3.18
469.087	3.34
469.287	3.2
469.488	3.03
469.688	3.15
469.888	3.18
470.088	3.08
470.288	3.01
470.488	2.93
470.688	2.86
470.888	2.8
471.088	2.63
471.288	2.84
471.488	2.7
471.688	2.73
471.888	2.66
472.088	2.81
472.288	2.75
472.488	2.62
472.688	2.5
472.888	2.58
473.088	2.54
473.288	2.48
473.488	2.39
473.688	2.58
473.887	2.45
474.087	2.34
474.287	2.43
474.487	2.42
474.687	2.39
474.886	2.32
475.086	2.29
475.286	2.29
475.486	2.24
475.685	2.24
475.885	2.18
476.085	2.25
476.284	2.24
476.484	2.21
476.684	2.21
476.883	2.33
477.083	2.15
477.282	2.15
477.482	2.15
477.681	2.09
477.881	2.08
478.08	2.09
478.28	2.02
478.479	2.09
478.679	2.15
478.878	2.01
479.078	2.01
479.277	2.09
479.477	2.07
479.676	2.01
479.875	2.02
480.075	1.97
480.274	2.01
480.473	2.06
480.673	2.07
480.872	2.07
481.071	2.02
481.271	2.02
481.47	1.97
481.669	2.02
481.868	1.95
482.067	2.01
482.267	1.91
482.466	1.97
482.665	1.9
482.864	1.96
483.063	1.9
483.262	2.03
483.461	2.02
483.661	2.03
483.86	1.99
484.059	2
484.258	2.03
484.457	1.99
484.656	2.06
484.855	2.09
485.054	1.92
485.253	1.95
485.452	1.93
485.651	2.07
485.849	1.99
486.048	2
486.247	2.01
486.446	2.07
486.645	1.99
486.844	2.07
487.043	2.03
487.241	2.07
487.44	2.06
487.639	2.12
487.838	2.1
488.037	2.08
488.235	2.21
488.434	2.12
488.633	2.05
488.831	2.22
489.03	2.24
489.229	2.22
489.427	2.21
489.626	2.27
489.825	2.3
490.023	2.33
490.222	2.25
490.42	2.33
490.619	2.37
490.817	2.33
491.016	2.34
491.214	2.47
491.413	2.39
491.611	2.36
491.81	2.39
492.008	2.45
492.207	2.54
492.405	2.53
492.604	2.5
492.802	2.53
493	2.58
493.199	2.63
493.397	2.64
493.595	2.69
493.794	2.69
493.992	2.84
494.19	2.72
494.388	2.78
494.587	2.77
494.785	2.79
494.983	2.73
495.181	2.87
495.379	2.88
495.578	2.96
495.776	2.95
495.974	2.96
496.172	2.95
496.37	3.04
496.568	3.12
496.766	3.07
496.964	3.13
497.162	3.18
497.36	3.3
497.558	3.27
497.756	3.32
497.954	3.26
498.152	3.38
498.35	3.44
498.548	3.36
498.746	3.43
498.944	3.42
499.142	3.41
499.34	3.48
499.538	3.64
499.736	3.5
499.933	3.67
500.131	3.69
500.329	3.8
500.527	3.73
500.725	3.89
500.922	3.88
501.12	3.91
501.318	3.97
501.516	3.93
501.713	4.01
501.911	4.03
502.109	3.94
502.306	4.08
502.504	4.01
502.701	4.12
502.899	4.16
503.097	4.34
503.294	4.19
503.492	4.38
503.689	4.39
503.887	4.39
504.084	4.41
504.282	4.42
504.479	4.4
504.677	4.6
504.874	4.55
505.072	4.44
505.269	4.7
505.466	4.72
505.664	4.76
505.861	4.63
506.059	4.78
506.256	4.84
506.453	4.81
506.651	4.92
506.848	5.01
507.045	5
507.242	5.02
507.44	5.04
507.637	5.06
507.834	5.08
508.031	5.23
508.229	5.12
508.426	5.06
508.623	5.27
508.82	5.26
509.017	5.3
509.214	5.28
509.411	5.42
509.608	5.38
509.805	5.52
510.003	5.48
510.2	5.53
510.397	5.7
510.594	5.57
510.791	5.59
510.988	5.64
511.184	5.62
511.381	5.55
511.578	5.68
511.775	5.81
511.972	5.77
512.169	5.84
512.366	5.79
512.563	5.98
512.76	5.97
512.956	6.01
513.153	5.94
513.35	5.93
513.547	5.92
513.744	6.03
513.94	6.05
514.137	6.16
514.334	6.14
514.53	6.2
514.727	6.37
514.924	6.25
515.12	6.25
515.317	6.29
515.514	6.26
515.71	6.24
515.907	6.45
516.103	6.44
516.3	6.31
516.497	6.51
516.693	6.51
516.89	6.49
517.086	6.54
517.283	6.56
517.479	6.43
517.676	6.64
517.872	6.62
518.068	6.67
518.265	6.65
518.461	6.6
518.658	6.71
518.854	6.68
519.05	6.79
519.247	6.79
519.443	6.75
519.639	6.94
519.836	6.84
520.032	6.75
520.228	6.92
520.424	6.92
520.621	6.94
520.817	7
521.013	6.93
521.209	7.14
521.405	7.12
521.601	7.07
521.798	6.97
521.994	7.08
522.19	6.96
522.386	7.05
522.582	7.13
522.778	7.25
522.974	7.1
523.17	7.13
523.366	7.04
523.562	7.2
523.758	7.21
523.954	7.02
524.15	7.27
524.346	7.22
524.542	7.33
524.738	7.21
524.934	7.4
525.129	7.29
525.325	7.29
525.521	7.22
525.717	7.48
525.913	7.33
526.109	7.36
526.304	7.49
526.5	7.44
526.696	7.49
526.892	7.41
527.087	7.59
527.283	7.53
527.479	7.56
527.674	7.36
527.87	7.53
528.066	7.49
528.261	7.56
528.457	7.51
528.653	7.66
528.848	7.61
529.044	7.68
529.239	7.51
529.435	7.51
529.63	7.5
529.826	7.55
530.021	7.56
530.217	7.67
530.412	7.61
530.608	7.63
530.803	7.67
530.999	7.58
531.194	7.64
531.389	7.73
531.585	7.76
531.78	7.87
531.975	7.75
532.171	7.86
532.366	7.73
532.561	7.77
532.757	7.74
532.952	7.89
533.147	7.64
533.342	7.75
533.538	7.72
533.733	7.95
533.928	7.61
534.123	7.81
534.318	7.85
534.513	7.78
534.709	7.98
534.904	7.87
535.099	7.88
535.294	7.9
535.489	7.91
535.684	7.87
535.879	7.89
536.074	7.94
536.269	7.94
536.464	7.98
536.659	7.91
536.854	7.85
537.049	7.96
537.244	7.87
537.439	7.95
537.634	7.95
537.828	7.98
538.023	7.95
538.218	7.96
538.413	7.84
538.608	7.95
538.803	7.96
538.997	7.93
539.192	7.94
539.387	7.91
539.582	7.87
539.776	7.85
539.971	8.02
540.166	8.03
540.36	7.91
540.555	8.11
540.75	8
540.944	8.03
541.139	8.05
541.334	7.99
541.528	8.04
541.723	8.1
541.917	8.07
542.112	7.99
542.306	7.9
542.501	7.94
542.695	7.96
542.89	7.94
543.084	8.09
543.279	8.02
543.473	8.07
543.668	8.14
543.862	7.97
544.056	7.92
544.251	8.05
544.445	8.13
544.64	8.17
544.834	7.86
545.028	7.75
545.222	8.02
545.417	8.22
545.611	8.11
545.805	8.04
546	7.93
546.194	8.13
546.388	8.05
546.582	7.96
546.776	8.01
546.97	8.09
547.165	8.11
547.359	8.04
547.553	8.06
547.747	8.02
547.941	8.23
548.135	8.04
548.329	8.09
548.523	8.07
548.717	8.02
548.911	8.01
549.105	8
549.299	8.15
549.493	8.12
549.687	8.01
549.881	8.18
550.075	8.09
550.269	7.99
550.463	8.11
550.657	8.08
550.85	8.05
551.044	8.04
551.238	8.11
551.432	8.13
551.626	8.17
551.82	8.13
552.013	8
552.207	8.19
552.401	8.18
552.594	8.08
552.788	8.03
552.982	8.03
553.176	7.94
553.369	8.34
553.563	8.13
553.756	8.07
553.95	8.13
554.144	8.22
554.337	8.17
554.531	7.94
554.724	8.13
554.918	8.15
555.111	8.11
555.305	8.12
555.498	8.08
555.692	8.2
555.885	8.14
556.079	8.08
556.272	8.18
556.466	8.15
556.659	8.12
556.852	8.18
557.046	8.07
557.239	7.95
557.432	8.1
557.626	8.21
557.819	8.19
558.012	8.16
558.206	8.27
558.399	8.12
558.592	8.08
558.785	8.03
558.979	8.16
559.172	8.09
559.365	8.2
559.558	8.04
559.751	8.04
559.944	8.28
560.138	8.07
560.331	8.1
560.524	8.18
560.717	8.13
560.91	8.08
561.103	8.18
561.296	7.97
561.489	8.16
561.682	8.23
561.875	8.14
562.068	8.24
562.261	8.02
562.454	8.3
562.647	8.03
562.84	8.15
563.032	8.12
563.225	7.98
563.418	8.05
563.611	8.23
563.804	8.18
563.997	7.94
564.19	7.87
564.382	8.18
564.575	8.08
564.768	8.09
564.961	8.14
565.153	8.05
565.346	8.04
565.539	8.16
565.731	8.13
565.924	8.18
566.117	8.24
566.309	8.14
566.502	8.06
566.695	7.98
566.887	8.15
567.08	8.15
567.272	8.08
567.465	8.04
567.657	8.18
567.85	8.03
568.042	8.12
568.235	8.12
568.427	7.96
568.62	8.11
568.812	8.01
569.005	8.15
569.197	7.98
569.389	8.11
569.582	8.12
569.774	8.07
569.966	8
570.159	7.99
570.351	7.99
570.543	8.01
570.736	8
570.928	7.88
571.12	8.01
571.312	7.94
571.505	7.81
571.697	8.06
571.889	8.02
572.081	8
572.273	7.97
572.465	8.03
572.658	7.96
572.85	8.09
573.042	7.98
573.234	7.95
573.426	8.01
573.618	7.92
573.81	7.99
574.002	7.94
574.194	7.97
574.386	7.96
574.578	7.88
574.77	7.92
574.962	8.01
575.154	7.81
575.346	7.87
575.538	7.89
575.729	7.89
575.921	7.99
576.113	8.07
576.305	7.96
576.497	7.94
576.689	7.8
576.88	7.78
577.072	7.96
577.264	7.85
577.456	7.9
577.647	7.83
577.839	8.01
578.031	7.86
578.223	7.82
578.414	7.71
578.606	7.81
578.798	7.9
578.989	7.92
579.181	7.92
579.372	7.84
579.564	7.85
579.755	7.81
579.947	7.69
580.139	7.86
580.33	7.63
580.522	7.8
580.713	7.75
580.905	7.73
581.096	7.84
581.287	7.74
581.479	7.69
581.67	7.81
581.862	7.75
582.053	7.77
582.244	7.6
582.436	7.75
582.627	7.7
582.818	7.67
583.01	7.62
583.201	7.7
583.392	7.65
583.583	7.62
583.775	7.49
583.966	7.65
584.157	7.6
584.348	7.74
584.54	7.54
584.731	7.59
584.922	7.54
585.113	7.49
585.304	7.6
585.495	7.57
585.686	7.67
585.877	7.6
586.068	7.71
586.259	7.64
586.45	7.59
586.641	7.57
586.832	7.56
587.023	7.51
587.214	7.46
587.405	7.57
587.596	7.47
587.787	7.41
587.978	7.43
588.169	7.4
588.36	7.42
588.551	7.47
588.742	7.4
588.932	7.48
589.123	7.29
589.314	7.49
589.505	7.33
589.696	7.33
589.886	7.37
590.077	7.36
590.268	7.34
590.458	7.3
590.649	7.11
590.84	7.3
591.03	7.31
591.221	7.3
591.412	7.23
591.602	7.33
591.793	7.29
591.984	7.29
592.174	7.25
592.365	7.43
592.555	7.1
592.746	7.15
592.936	7.16
593.127	7.19
593.317	7.19
593.508	7.23
593.698	7.09
593.889	7.11
594.079	7.15
594.269	7.01
594.46	7.06
594.65	7.05
594.84	7.11
595.031	6.93
595.221	7.01
595.411	6.99
595.602	7.08
595.792	6.95
595.982	6.91
596.172	7.02
596.363	6.9
596.553	6.93
596.743	6.97
596.933	6.94
597.123	6.91
597.314	6.77
597.504	6.81
597.694	6.95
597.884	6.81
598.074	6.81
598.264	6.81
598.454	6.8
598.644	6.74
598.834	6.76
599.024	6.66
599.214	6.72
599.404	6.8
599.594	6.77
599.784	6.64
599.974	6.75
600.164	6.72
600.354	6.6
600.544	6.54
600.734	6.65
600.924	6.69
601.114	6.56
601.303	6.63
601.493	6.57
601.683	6.56
601.873	6.53
602.063	6.53
602.252	6.51
602.442	6.4
602.632	6.42
602.821	6.37
603.011	6.49
603.201	6.43
603.39	6.39
603.58	6.3
603.77	6.42
603.959	6.5
604.149	6.44
604.339	6.33
604.528	6.49
604.718	6.39
604.907	6.31
605.097	6.28
605.286	6.22
605.476	6.23
605.665	6.28
605.855	6.27
606.044	6.26
606.234	6.27
606.423	6.21
606.612	6.14
606.802	6.19
606.991	6.28
607.181	6.23
607.37	6.13
607.559	5.95
607.749	6.15
607.938	6
608.127	6.05
608.316	6.06
608.506	6.01
608.695	6.06
608.884	5.98
609.073	6.01
609.263	6.08
609.452	5.97
609.641	5.94
609.83	5.91
610.019	5.93
610.208	5.84
610.397	5.81
610.586	5.84
610.775	5.82
610.965	5.81
611.154	5.72
611.343	5.87
611.532	5.73
611.721	5.82
611.91	5.71
612.099	5.71
612.287	5.68
612.476	5.59
612.665	5.74
612.854	5.66
613.043	5.64
613.232	5.63
613.421	5.56
613.61	5.56
613.798	5.58
613.987	5.58
614.176	5.5
614.365	5.56
614.554	5.49
614.742	5.57
614.931	5.4
615.12	5.51
615.309	5.49
615.497	5.33
615.686	5.3
615.875	5.42
616.063	5.4
616.252	5.32
616.44	5.37
616.629	5.32
616.818	5.31
617.006	5.23
617.195	5.29
617.383	5.33
617.572	5.17
617.76	5.2
617.949	5.2
618.137	5.29
618.326	5.28
618.514	5.09
618.703	5.07
618.891	5.2
619.079	5.06
619.268	5.18
619.456	5.05
619.644	5.13
619.833	4.99
620.021	5.02
620.209	4.96
620.398	5
620.586	4.88
620.774	5.03
620.962	4.98
621.151	5.01
621.339	4.92
621.527	4.88
621.715	4.86
621.903	4.84
622.092	4.75
622.28	4.93
622.468	4.65
622.656	4.8
622.844	4.74
623.032	4.83
623.22	4.66
623.408	4.86
623.596	4.73
623.784	4.73
623.972	4.58
624.16	4.66
624.348	4.77
624.536	4.74
624.724	4.55
624.912	4.6
625.1	4.61
625.288	4.6
625.476	4.52
625.664	4.6
625.851	4.5
626.039	4.55
626.227	4.47
626.415	4.5
626.603	4.45
626.79	4.53
626.978	4.45
627.166	4.49
627.354	4.36
627.541	4.37
627.729	4.21
627.917	4.52
628.104	4.42
628.292	4.36
628.48	4.31
628.667	4.32
628.855	4.36
629.042	4.35
629.23	4.27
629.418	4.27
629.605	4.27
629.793	4.16
629.98	4.24
630.168	4.14
630.355	4.24
630.543	4.1
630.73	4.13
630.917	4.09
631.105	4.24
631.292	4.14
631.48	4.07
631.667	4.17
631.854	4.04
632.042	4
632.229	3.9
632.416	4.07
632.604	3.99
632.791	3.89
632.978	3.94
633.165	3.9
633.353	3.98
633.54	3.99
633.727	3.82
633.914	3.83
634.101	3.77
634.289	3.91
634.476	3.75
634.663	3.8
634.85	3.88
635.037	3.78
635.224	3.64
635.411	3.78
635.598	3.69
635.785	3.7
635.972	3.67
636.159	3.76
636.346	3.69
636.533	3.65
636.72	3.61
636.907	3.63
637.094	3.62
637.281	3.53
637.468	3.62
637.655	3.53
637.842	3.58
638.029	3.53
638.215	3.55
638.402	3.53
638.589	3.48
638.776	3.48
638.963	3.43
639.149	3.53
639.336	3.55
639.523	3.38
639.709	3.5
639.896	3.37
640.083	3.43
640.27	3.45
640.456	3.32
640.643	3.37
640.829	3.28
641.016	3.29
641.203	3.26
641.389	3.28
641.576	3.31
641.762	3.22
641.949	3.19
642.135	3.27
642.322	3.22
642.508	3.19
642.695	3.19
642.881	3.13
643.068	3.18
643.254	3.19
643.441	3.19
643.627	3.21
643.813	3.06
644	3.16
644.186	3.05
644.372	3.13
644.559	3.07
644.745	3.05
644.931	2.97
645.118	3.02
645.304	2.99
645.49	2.97
645.676	2.99
645.862	2.97
646.049	3.02
646.235	2.94
646.421	3.06
646.607	3
646.793	2.93
646.979	2.85
647.165	2.89
647.352	2.89
647.538	2.92
647.724	2.87
647.91	2.78
648.096	2.89
648.282	2.89
648.468	2.79
648.654	2.83
648.84	2.77
649.026	2.8
649.212	2.77
649.397	2.67
649.583	2.7
649.769	2.75
649.955	2.69
650.141	2.67
650.327	2.7
650.513	2.66
650.698	2.66
650.884	2.53
651.07	2.62
651.256	2.66
651.442	2.62
651.627	2.52
651.813	2.66
651.999	2.58
652.184	2.57
652.37	2.58
652.556	2.5
652.741	2.62
652.927	2.38
653.113	2.51
653.298	2.49
653.484	2.46
653.669	2.37
653.855	2.44
654.04	2.49
654.226	2.44
654.412	2.4
654.597	2.36
654.782	2.41
654.968	2.46
655.153	2.42
655.339	2.38
655.524	2.33
655.71	2.4
655.895	2.33
656.08	2.34
656.266	2.39
656.451	2.33
656.636	2.28
656.822	2.29
657.007	2.28
657.192	2.26
657.378	2.22
657.563	2.23
657.748	2.29
657.933	2.24
658.118	2.2
658.304	2.18
658.489	2.3
658.674	2.19
658.859	2.13
659.044	2.15
659.229	2.2
659.414	2.13
659.599	2.12
659.785	2.04
659.97	2.11
660.155	2.19
660.34	2.13
660.525	2.06
660.71	2.08
660.895	2.16
661.08	2.03
661.264	2.02
661.449	2.09
661.634	2.08
661.819	2.07
662.004	2.02
662.189	1.91
662.374	1.99
662.559	1.97
662.743	1.89
662.928	2.04
663.113	1.96
663.298	1.88
663.483	1.91
663.667	1.95
663.852	1.89
664.037	1.95
664.221	1.9
664.406	1.99
664.591	1.92
664.775	1.97
664.96	1.8
665.145	1.87
665.329	1.96
665.514	1.79
665.698	1.83
665.883	1.78
666.068	1.9
666.252	1.82
666.437	1.82
666.621	1.84
666.806	1.81
666.99	1.73
667.174	1.74
667.359	1.92
667.543	1.75
667.728	1.77
667.912	1.66
668.096	1.75
668.281	1.72
668.465	1.75
668.649	1.7
668.834	1.74
669.018	1.7
669.202	1.71
669.387	1.66
669.571	1.79
669.755	1.6
669.939	1.67
670.124	1.67
670.308	1.69
670.492	1.71
670.676	1.67
670.86	1.57
671.044	1.55
671.228	1.66
671.413	1.54
671.597	1.66
671.781	1.63
671.965	1.6
672.149	1.55
672.333	1.52
672.517	1.58
672.701	1.59
672.885	1.54
673.069	1.43
673.253	1.58
673.437	1.51
673.621	1.51
673.804	1.53
673.988	1.59
674.172	1.45
674.356	1.43
674.54	1.5
674.724	1.6
674.908	1.5
675.091	1.51
675.275	1.46
675.459	1.49
675.643	1.4
675.826	1.45
676.01	1.42
676.194	1.44
676.377	1.47
676.561	1.44
676.745	1.44
676.928	1.42
677.112	1.5
677.296	1.38
677.479	1.35
677.663	1.37
677.846	1.39
678.03	1.37
678.213	1.29
678.397	1.39
678.58	1.33
678.764	1.31
678.947	1.3
679.131	1.39
679.314	1.4
679.498	1.32
679.681	1.43
679.865	1.38
680.048	1.28
680.231	1.32
680.415	1.28
680.598	1.31
680.781	1.22
680.965	1.29
681.148	1.23
681.331	1.23
681.514	1.3
681.698	1.19
681.881	1.25
682.064	1.26
682.247	1.27
682.43	1.14
682.614	1.22
682.797	1.3
682.98	1.31
683.163	1.16
683.346	1.27
683.529	1.23
683.712	1.18
683.895	1.25
684.078	1.11
684.261	1.15
684.444	1.22
684.627	1.17
684.81	1.1
684.993	1.14
685.176	1.21
685.359	1.09
685.542	1.1
685.725	1.21
685.908	1.15
686.091	1.13
686.274	1.16
686.457	1.16
686.639	1.14
686.822	1.15
687.005	1.13
687.188	1.18
687.371	1.25
687.553	1.14
687.736	1.14
687.919	1.2
688.102	1.16
688.284	1.08
688.467	1.05
688.65	1.1
688.832	1.02
689.015	1.03
689.197	0.99
689.38	1.16
689.563	1.17
689.745	1.01
689.928	0.96
690.11	1.01
690.293	1.02
690.475	0.96
690.658	1.08
690.84	1.05
691.023	1.03
691.205	0.97
691.388	0.96
691.57	1.11
691.752	0.96
691.935	0.93
692.117	0.98
692.3	1.03
692.482	0.92
692.664	0.91
692.847	0.96
693.029	1.01
693.211	0.98
693.393	0.9
693.576	0.91
693.758	0.92
693.94	0.98
694.122	0.95
694.304	0.91
694.487	0.83
694.669	0.99
694.851	0.85
695.033	0.87
695.215	0.91
695.397	0.87
695.579	0.89
695.761	0.79
695.943	0.82
696.125	0.99
696.308	0.94
696.49	0.8
696.671	1.03
696.853	0.88
697.035	1.09
697.217	0.89
697.399	0.96
697.581	0.81
697.763	0.87
697.945	0.77
698.127	0.89
698.309	0.99
698.491	0.83
698.672	0.88
698.854	0.91
699.036	0.91
699.218	0.83
699.399	0.91
699.581	0.85
699.763	0.77
699.945	0.81
700.126	0.78
700.308	0.83
700.49	0.76
700.671	0.72
700.853	0.78
701.035	0.74
701.216	0.79
701.398	0.72
701.579	0.82
701.761	0.85
701.943	0.76
702.124	0.72
702.306	0.76
702.487	0.92
702.669	0.74
702.85	0.73
703.031	0.73
703.213	0.84
703.394	0.83
703.576	0.72
703.757	0.89
703.938	0.78
704.12	0.94
704.301	0.8
704.483	0.66
704.664	0.8
704.845	0.81
705.026	0.82
705.208	0.73
705.389	0.79
705.57	0.81
705.751	0.78
705.933	0.73
706.114	0.84
706.295	0.71
706.476	0.66
706.657	0.84
706.838	0.75
707.02	0.75
707.201	0.72
707.382	0.74
707.563	0.74
707.744	0.6
707.925	0.6
708.106	0.65
708.287	0.7
708.468	0.83
708.649	0.69
708.83	0.68
709.011	0.65
709.192	0.82
709.373	0.55
709.554	0.69
709.734	0.79
709.915	0.72
710.096	0.67
710.277	0.5
710.458	0.71
710.639	0.72
710.819	0.56
711	0.59
711.181	0.65
711.362	0.78
711.542	0.71
711.723	0.62
711.904	0.78
712.085	0.72
712.265	0.66
712.446	0.54
712.627	0.59
712.807	0.65
712.988	0.62
713.168	0.53
713.349	0.67
713.53	0.48
713.71	0.58
713.891	0.51
714.071	0.63
714.252	0.53
714.432	0.59
714.613	0.44
714.793	0.63
714.974	0.71
715.154	0.65
715.334	0.67
715.515	0.66
715.695	0.5
715.876	0.51
716.056	0.55
716.236	0.55
716.417	0.65
716.597	0.48
716.777	0.83
716.957	0.58
717.138	0.61
717.318	0.58
717.498	0.44
717.678	0.61
717.859	0.56
718.039	0.44
718.219	0.57
718.399	0.64
718.579	0.47
718.759	0.51
718.939	0.51
719.12	0.57
719.3	0.51
719.48	0.45
719.66	0.44
719.84	0.64
720.02	0.58
720.2	0.48
720.38	0.51
720.56	0.63
720.74	0.47
720.92	0.55
721.1	0.73
721.279	0.64
721.459	0.52
721.639	0.44
721.819	0.55
721.999	0.48
722.179	0.65
722.359	0.46
722.538	0.56
722.718	0.52
722.898	0.5
723.078	0.55
723.257	0.45
723.437	0.5
723.617	0.56
723.797	0.49
723.976	0.45
724.156	0.63
724.336	0.63
724.515	0.82
724.695	0.34
724.874	0.52
725.054	0.53
725.234	0.45
725.413	0.51
725.593	0.48
725.772	0.56
725.952	0.5
726.131	0.5
726.311	0.51
726.49	0.51
726.67	0.45
726.849	0.45
727.028	0.51
727.208	0.46
727.387	0.53
727.567	0.41
727.746	0.52
727.925	0.46
728.105	0.41
728.284	0.44
728.463	0.47
728.643	0.61
728.822	0.4
729.001	0.4
729.18	0.44
729.359	0.52
729.539	0.41
729.718	0.52
729.897	0.48
730.076	0.43
730.255	0.38
730.434	0.47
730.614	0.65
730.793	0.61
730.972	0.4
731.151	0.46
731.33	0.53
731.509	0.53
731.688	0.53
731.867	0.4
732.046	0.37
732.225	0.69
732.404	0.46
732.583	0.31
732.762	0.45
732.941	0.49
733.12	0.48
733.298	0.4
733.477	0.55
733.656	0.49
733.835	0.34
734.014	0.6
734.193	0.38
734.371	0.59
734.55	0.55
734.729	0.43
734.908	0.44
735.086	0.53
735.265	0.49
735.444	0.34
735.623	0.38
735.801	0.48
735.98	0.48
736.159	0.47
736.337	0.53
736.516	0.42
736.694	0.52
736.873	0.36
737.052	0.73
737.23	0.65
737.409	0.38
737.587	0.74
737.766	0.47
737.944	0.41
738.123	0.57
738.301	0.57
738.479	0.54
738.658	0.45
738.836	0.32
739.015	0.42
739.193	0.47
739.371	0.25
739.55	0.43
739.728	0.43
739.906	0.58
740.085	0.71
740.263	0.47
740.441	0.25
740.62	0.77
740.798	0.49
740.976	0.34
741.154	0.4
741.332	0.65
741.511	0.41
741.689	0.51
741.867	0.53
742.045	0.51
742.223	0.47
742.401	0.34
742.579	0.32
742.757	0.48
742.935	0.29
743.114	0.35
743.292	0.47
743.47	0.56
743.648	0.41
743.826	0.47
744.004	0.5
744.181	0.66
744.359	0.44
744.537	0.49
744.715	0.31
744.893	0.42
745.071	0.45
745.249	0.36
745.427	0.4
745.605	0.49
745.782	0.52
745.96	0.38
746.138	0.54
746.316	0.53
746.493	0.36
746.671	0.44
746.849	0.38
747.027	0.55
747.204	0.28
747.382	0.39
747.56	0.33
747.737	0.5
747.915	0.36
748.093	0.45
748.27	0.39
748.448	0.38
748.625	0.26
748.803	0.23
748.98	0.23
749.158	0.49
749.335	0.55
749.513	0.38
749.69	0.46
749.868	0.36
750.045	0.45
750.223	0.3
750.4	0.1
750.578	0.51
750.755	0.35
750.932	0.28
751.11	0.47
751.287	0.22
751.464	0.58
751.642	0.31
751.819	0.42
751.996	0.45
752.173	0.41
752.351	0.24
752.528	0.42
752.705	0.41
752.882	0.38
753.06	0.49
753.237	0.44
753.414	0.66
753.591	0.62
753.768	0.41
753.945	0.34
754.122	0.29
754.299	0.37
754.476	0.25
754.654	0.49
754.831	0.49
755.008	0.4
755.185	0.25
755.362	0.26
755.539	0.47
755.716	0.28
755.892	0.31
756.069	0.31
756.246	0.38
756.423	0.35
756.6	0.52
756.777	0.3
756.954	0.48
757.131	0.35
757.307	0.27
757.484	0.21
757.661	0.3
757.838	0.4
758.015	0.11
758.191	0.57
758.368	0.39
758.545	0.62
758.721	0.46
758.898	0.27
759.075	0.34
759.251	0.54
759.428	0.46
759.605	0.21
759.781	0.27
759.958	0.33
760.134	0.46
760.311	0.29
760.488	0.44
760.664	0.56
760.841	0.32
761.017	0.06
761.194	0.4
761.37	0.53
761.547	0.4
761.723	0.3
761.899	0.53
762.076	0.26
762.252	0.18
762.429	0.21
762.605	0.48
762.781	0.32
762.958	0.53
763.134	0.3
763.31	0.34
763.486	0.6
763.663	0.09
763.839	0.41
764.015	0.2
764.191	0.28
764.368	0.29
764.544	0.25
764.72	0.4
764.896	0.52
765.072	0.42
765.248	0.38
765.425	0.27
765.601	0.3
765.777	0.31
765.953	0.06
766.129	0.22
766.305	0.18
766.481	0.42
766.657	0.37
766.833	0.53
767.009	0.28
767.185	0.35
767.361	0.2
767.537	0.26
767.713	0.55
767.889	0.27
768.065	0.3
768.24	0.5
768.416	0.58
768.592	0.24
768.768	0.4
768.944	0.3
769.12	0.3
769.295	0.36
769.471	0.38
769.647	0.29
769.823	0.63
769.998	0.19
770.174	0.16
770.35	0.75
770.525	0.75
770.701	0.32
770.877	0.21
771.052	0.32
771.228	0.58
771.403	0.25
771.579	0.3
771.755	0.7
771.93	0.41
772.106	0.18
772.281	0.12
772.457	0.33
772.632	0.39
772.808	0.09
772.983	0.22
773.159	0.16
773.334	0.65
773.509	0.27
773.685	0.21
773.86	0.82
774.036	0.54
774.211	0.38
774.386	0.22
774.562	0.43
774.737	0.61
774.912	0.25
775.087	0.48
775.263	0.18
775.438	0.47
775.613	0.23
775.788	0.3
775.964	0.45
776.139	0.93
776.314	0.2
776.489	0.48
776.664	0.43
776.839	0.13
777.014	0.32
777.19	0.41
777.365	0.59
777.54	0.81
777.715	0.25
777.89	0.39
778.065	0.35
778.24	0.43
778.415	0.43
778.59	0.14
778.765	0.43
778.94	0.66
779.115	0.32
779.289	0.32
779.464	0.32
779.639	0.36
779.814	0.19
779.989	0.07
780.164	0.75
780.339	0.52
780.513	0.11
780.688	0.14
780.863	0.38
781.038	0.54
781.212	0.27
781.387	0.33
781.562	0.63
781.737	0.2
781.911	0.57
782.086	0.07
782.261	0.31
782.435	0.58
782.61	0.13
782.784	0.33
782.959	0.66
783.134	0.2
783.308	0.27
783.483	0.31
783.657	0.95
783.832	0.61
784.006	0.11
784.181	0.28
784.355	0.62
784.53	0.35
784.704	0.26
784.878	0.64
785.053	0.5
785.227	0.7
785.402	0.5
785.576	0.22
785.75	0.37
785.925	0.47
786.099	0.59
786.273	0.49
786.448	0.58
786.622	0.65
786.796	0.45
786.97	0.41
787.145	1
787.319	0.18
787.493	0.3
787.667	-0.03
787.841	0.38
788.015	0.73
788.19	0.33
788.364	0.38
788.538	0.79
788.712	0.49
788.886	0.34
789.06	0.49
789.234	0.94
789.408	0.09
789.582	0.11
789.756	0.38
789.93	0.25
790.104	0.21
790.278	0.31
790.452	0.07
790.626	0.64
790.8	0.2
790.973	0.54
791.147	0.83
791.321	0.61
791.495	0.7
791.669	0.44
791.843	0.52
792.016	0.45
792.19	0.77
792.364	0.25
792.538	1.06
792.711	0.83
792.885	0.3
793.059	0.1
793.233	-0.36
793.406	0.61
793.58	0.53
793.754	0.41
793.927	0.3
794.101	0.88
794.274	0.65
794.448	0.62
794.622	0.16
794.795	0.94
794.969	0.18
795.142	0.89
795.316	0.32
795.489	0.35
795.663	0.73
795.836	0.45
796.009	0.08
796.183	0.85
796.356	0.56
796.53	0.58
796.703	0.29
796.876	1.16
797.05	0.39
797.223	0.29
797.396	0.65
797.57	0.47
797.743	0.92
797.916	0.51
798.09	0.61
798.263	0.67
798.436	0.35
798.609	0.3
798.782	0.3
798.956	0.6
799.129	0.46
799.302	0.21
799.475	0.36
799.648	0.25
799.821	0.03
799.994	0.57
800.167	0.05
800.34	0.33
800.514	0.54
800.687	0.2
800.86	0.11
801.033	0.6
801.206	0.95
801.379	0.33
801.551	0.65
801.724	1.03
801.897	1.04
802.07	0.4
802.243	0.14
802.416	0.51
802.589	0.28
802.762	0.77
802.935	0.45
803.107	0.89
803.28	0.62
803.453	0.72
803.626	0.16
803.798	0.58
803.971	0.38
804.144	0.47
804.317	0.64
804.489	0.69
804.662	0.54
804.835	0.66
805.007	0.03
805.18	0.95
805.353	0.32
805.525	0.28
805.698	0.27
805.87	0.74
806.043	0.66
806.215	0.4
806.388	0.13
806.56	0.44
806.733	0.98
806.905	0.48
807.078	0.11
807.25	0.39
807.423	0.57
807.595	0.63
807.768	0.39
807.94	0.54
808.112	0.88
808.285	0.8
808.457	-0.09
808.629	0.69
808.802	0.54
808.974	0.58
809.146	0.32
809.318	-0
809.491	0.48
809.663	0.68
809.835	0.1
810.007	0.79
810.18	0.6
810.352	0.03
810.524	0.3
810.696	0.98
810.868	0.92
811.04	0.45
811.212	0.36
811.384	0.84
811.556	0.7
811.728	0.6
811.901	1.56
812.073	0.56
812.245	1.03
812.417	0.6
812.589	0.12
812.76	0.78
812.932	1.12
813.104	0.86
813.276	0.71
813.448	1.03
813.62	0.38
813.792	0.54
813.964	0.49
814.136	0.83
814.307	0.42
814.479	0.49
814.651	0.02
814.823	1.38
814.995	0.65
815.166	0.75
815.338	0.28
815.51	0.18
815.681	1.8
815.853	0.71
816.025	0.23
816.196	1.2
816.368	0.96
816.54	-0.08
816.711	0.35
816.883	1.35
817.054	1.9
817.226	-0.29
817.398	0.73
817.569	0.24
817.741	1.12
817.912	0.16
818.084	0.24
818.255	1.29
818.426	0.71
818.598	0.52
818.769	0.13
818.941	1.26
819.112	1.38
819.283	0.86
819.455	0.34
819.626	0.68
819.798	0.57
819.969	0.74
820.14	0.58
820.311	0.46
820.483	1
820.654	0.74
820.825	0.54
820.996	0.38
821.168	0.16
821.339	0.45
821.51	-0.2
821.681	0.34
821.852	0.64
822.023	0.32
822.195	0.43
822.366	1.21
822.537	0.73
822.708	0.26
822.879	0.26
823.05	1.36
823.221	0.44
823.392	0.92
823.563	0.48
823.734	1.09
823.905	0.68
824.076	0.74
824.247	0.37
824.418	0.72
824.589	1.6
824.759	0.92
824.93	0.49
825.101	-0.08
825.272	1.43
825.443	1.52
825.614	0.99
825.784	-0.05
825.955	2.33
826.126	1.63
826.297	0.86
826.467	1.59
826.638	1.68
826.809	-0.3
826.98	1.38
827.15	0.94
827.321	0.41
827.492	1.71
827.662	0.29
827.833	1.58
828.003	1.29
828.174	0.26
828.345	-0.39
828.515	1.58
828.686	1.19
828.856	0.71
829.027	0.69
829.197	0.95
829.368	0.98
829.538	0.78
829.709	0.15
829.879	0.8
830.049	0.62
830.22	0.73
830.39	1.18
830.56	1.46
830.731	0.6
830.901	0.04
831.072	0.43
831.242	0.74
831.412	1.18
831.582	0.79
831.753	-0.02
831.923	1.19
832.093	1.11
832.263	0.85
832.434	0.1
832.604	0.06
832.774	1.18
832.944	0.68
833.114	0.37
833.284	1.17
833.454	0.53
833.624	0.47
833.795	0.41
833.965	2.21
834.135	1.95
834.305	-0.47
834.475	-0.6
834.645	0.82
834.815	0.59
834.985	0.24
835.155	-0.03
835.325	1.33
835.494	1.15
835.664	1
835.834	-0.17
836.004	0.75
836.174	0.88
836.344	0.47
836.514	-0.24
836.684	0.68
836.853	1.09
837.023	0.72
837.193	-0.37
837.363	1.69
837.532	1.79
837.702	0.47
837.872	0.03
838.041	1.13
838.211	2.45
838.381	-0.05
838.55	1
838.72	3.5
838.89	2.46
839.059	0.81
839.229	-0.24
839.398	3
839.568	0.74
839.738	0.86
839.907	1.66
840.077	1.34
840.246	0.96
840.416	0.19
840.585	-0.38
840.755	2.64
840.924	2.68
841.093	-0.11
841.263	0.72
841.432	1.3
841.602	-0.08
841.771	0.54
841.94	1.93
842.11	3.63
842.279	3
842.448	-0.3
842.617	-0.3
842.787	2.34
842.956	0
843.125	1.61
843.294	0.52
843.464	1.82
843.633	1.61
843.802	-0.45
843.971	0.97
844.14	2.04
844.309	1.6
844.479	-1.1
844.648	-0.04
844.817	1.01
844.986	1.09
845.155	0.42
845.324	0.26
845.493	0.65
845.662	0.03
845.831	0.68
846	1.34
846.169	-0.11
846.338	1.97
846.507	1.26
846.676	0.7
846.844	0.93
847.013	1.5
847.182	1.46
847.351	-0.44
847.52	1.19
847.689	1.82
847.858	1.17
848.026	-0.21
848.195	1.15
848.364	1.09
848.533	0.62
848.701	0.36
848.87	1.16
849.039	2.97
849.207	2.35
849.376	2.25
849.545	2.02
849.713	0.58
849.882	1.08
850.051	1.25
850.219	1.69
850.388	2.21
850.556	0.26
850.725	0.55
850.893	0.67
851.062	0.71
851.23	2.04
851.399	0.11
851.567	1.2
851.736	1.94
851.904	0.07
852.073	0.56
852.241	1.89
852.41	1.18
852.578	0.14
852.746	0.25
852.915	2.25
853.083	1.48
853.251	-0.68
853.42	1.27
853.588	1.03
853.756	0.92
853.924	0.29
854.093	1
854.261	0.86
854.429	-0.18
854.597	1.18
854.765	0.26
854.934	1.47
855.102	2.84
855.27	0.39
855.438	2.52
855.606	2.75
855.774	3.4
855.942	-2
856.11	-0.36
856.278	1.76
856.446	1.77
856.614	0.33
856.782	0.05
856.95	2.25
857.118	2.09
857.286	1.6
857.454	0.87
857.622	2.96
857.79	2.75
857.958	-0.03
858.126	0.46
858.294	-1.42
858.462	0.46
858.629	0.7
858.797	0.2
858.965	1.27
859.133	1.24
859.301	0.59
859.468	2.09
859.636	1.62
859.804	4.02
859.971	2.63
860.139	0.09
860.307	2.3
860.474	1.74
860.642	-0.6
860.81	0
860.977	0.14
861.145	4
861.313	0.69
861.48	0.38
861.648	1.44
861.815	1.07
861.983	-0.97
862.15	1.3
862.318	2.07
862.485	2.35
862.653	0.8
862.82	0.56
862.988	3.78
863.155	3.78
863.322	-0.28
863.49	0.48
863.657	1.71
863.824	2.96
863.992	2.58
864.159	1.52
864.326	3.75
864.494	-0.26
864.661	4.34
864.828	0.98
864.996	3.92
865.163	3.16
865.33	-0.22
865.497	-1.76
865.664	0.35
865.832	0.21
865.999	2.04
866.166	-0.34
866.333	1.2
866.5	2.19
866.667	0.63
866.834	-0.21
867.001	3.31
867.168	-0.32
867.335	0.18
867.502	0.05
867.669	2.39
867.836	6.11
868.003	-0.4
868.17	3.17
868.337	4.68
868.504	4.13
868.671	-1.78
868.838	0.2
869.005	1.81
869.172	3.18
869.339	0.62
869.505	2.57
869.672	1.63
869.839	5.04
870.006	1.91
870.173	-0.72
870.339	2.05
870.506	5.26
870.673	1.66
870.84	2.99
871.006	2.62
871.173	1.79
871.34	2.24
871.506	-1.33
871.673	1.68
871.839	-0.14
872.006	2.23
872.173	0.3
872.339	1.75
872.506	4.39
872.672	0.74
872.839	-1.18
873.005	2.05
873.172	5.86
873.338	4.07
873.505	1.11
873.671	2.75
873.838	1.63
874.004	-1.65
874.171	0.4
874.337	3.36
874.503	2
874.67	2.47
874.836	0.59
875.002	5.6
875.169	2.73
875.335	1.99
875.501	3.06
875.668	3
875.834	2.38
876	0.29
876.166	1.36
876.332	2.03
876.499	7.37
876.665	1.15
876.831	0.66
876.997	6.41
877.163	3.2
877.329	1.45
877.495	3.5
877.662	3.59
877.828	2.15
877.994	1.05
878.16	-2.03
878.326	0.39
878.492	2.69
878.658	0.39
878.824	4.03
878.99	3.15
879.156	1.85
879.322	3.51
879.487	0.7
879.653	2.23
879.819	2.89
879.985	-0.03
880.151	2.19
880.317	1.28
880.483	2.4
880.648	2.04
880.814	-1.53
880.98	2.78
881.146	-2.1
881.312	2.2
881.477	-0.35
881.643	2.05
881.809	3.41
881.974	3.56
882.14	-2.42
882.306	1.36
882.471	7.11
882.637	-0.47
882.803	2.5
882.968	6.44
883.134	6.34
883.299	-0.16
883.465	2.47
883.63	4.29
883.796	2.48
883.961	2.45
884.127	2.37
884.292	-0.9
884.458	-0.12
884.623	-0.12
