Data from Apollo_Calib_20240827__AbsoluteIrradiance__31__23-40-02-602.txt Node

Date: Tue Aug 27 23:40:02 BST 2024
User: biology
Spectrometer: FLMT08252
Trigger mode: 0
Integration Time (sec): 5.000000E-1
Scans to average: 5
Electric dark correction enabled: true
Nonlinearity correction enabled: false
Boxcar width: 0
XAxis mode: Wavelengths
Number of Pixels in Spectrum: 3648
>>>>>Begin Spectral Data<<<<<
179.588	-0
179.809	-0
180.03	-0
180.251	-0
180.473	-0
180.694	0
180.915	0
181.136	-0
181.357	0
181.578	-0
181.799	-0
182.02	-0
182.241	0
182.462	-0
182.683	0
182.904	-0
183.125	-0
183.346	0
183.567	0
183.788	0
184.009	0
184.23	0
184.451	0
184.672	0
184.892	0
185.113	0
185.334	0
185.555	0
185.776	0
185.996	0
186.217	0
186.438	0
186.659	0
186.879	0
187.1	0
187.321	0
187.541	0
187.762	0
187.983	0
188.203	0
188.424	0
188.644	0
188.865	0
189.086	0
189.306	0
189.527	0
189.747	0
189.968	0
190.188	0
190.409	0
190.629	0
190.849	0
191.07	0
191.29	0
191.511	0
191.731	0
191.951	0
192.172	0
192.392	0
192.612	0
192.833	0
193.053	0
193.273	0
193.493	0
193.714	0
193.934	0
194.154	0
194.374	0
194.594	0
194.815	0
195.035	0
195.255	0
195.475	0
195.695	0
195.915	0
196.135	0
196.355	0
196.575	0
196.795	0
197.015	0
197.235	0
197.455	0
197.675	0
197.895	0
198.115	0
198.335	0
198.555	0
198.775	0
198.995	0
199.214	0
199.434	0
199.654	0
199.874	0
200.094	3.97
200.313	2.09
200.533	2.36
200.753	2.11
200.973	3.94
201.192	2.97
201.412	1.53
201.632	1.69
201.851	3.7
202.071	2.13
202.291	1.8
202.51	1.91
202.73	2.78
202.95	1.97
203.169	1.55
203.389	1.89
203.608	2.34
203.828	1.87
204.047	2.09
204.267	2.16
204.486	2.28
204.706	1.96
204.925	1.97
205.145	1.76
205.364	2.22
205.583	2.81
205.803	1.19
206.022	1.33
206.242	1.59
206.461	1.69
206.68	1.53
206.9	1.76
207.119	2.61
207.338	2.27
207.557	1.5
207.777	1.37
207.996	1.35
208.215	2.16
208.434	1.26
208.654	1.12
208.873	1.29
209.092	2.05
209.311	1.34
209.53	1.43
209.749	1.06
209.968	1.17
210.187	1.39
210.407	1.08
210.626	1.22
210.845	1.57
211.064	1.29
211.283	1.07
211.502	1.83
211.721	1.32
211.94	1.09
212.159	1.31
212.377	1.37
212.596	1.34
212.815	1.12
213.034	1.32
213.253	1.24
213.472	1.43
213.691	1.03
213.91	0.84
214.128	1.08
214.347	1.38
214.566	0.76
214.785	0.56
215.003	1.28
215.222	1.25
215.441	0.88
215.66	0.7
215.878	0.95
216.097	1.26
216.316	0.65
216.534	1.05
216.753	0.96
216.972	0.9
217.19	0.92
217.409	0.89
217.627	0.8
217.846	0.92
218.064	1.17
218.283	0.78
218.501	1.29
218.72	1.05
218.938	0.68
219.157	0.77
219.375	1.17
219.594	0.98
219.812	0.67
220.031	0.65
220.249	1.28
220.467	1.19
220.686	0.68
220.904	0.56
221.122	0.75
221.341	1.06
221.559	0.83
221.777	0.68
221.995	0.87
222.214	0.95
222.432	0.71
222.65	0.89
222.868	0.87
223.086	0.86
223.305	0.9
223.523	0.8
223.741	1.18
223.959	0.69
224.177	0.44
224.395	0.53
224.613	1
224.831	0.88
225.049	0.52
225.267	0.72
225.485	0.65
225.703	0.67
225.921	0.7
226.139	0.6
226.357	0.78
226.575	0.83
226.793	0.63
227.011	1.33
227.229	0.75
227.447	0.92
227.665	0.75
227.883	0.32
228.1	0.69
228.318	0.69
228.536	0.45
228.754	0.57
228.972	0.75
229.189	0.65
229.407	0.82
229.625	0.6
229.843	0.94
230.06	0.76
230.278	0.59
230.496	0.54
230.713	0.59
230.931	0.88
231.149	0.6
231.366	0.44
231.584	0.6
231.801	0.92
232.019	0.54
232.236	0.5
232.454	0.61
232.671	0.71
232.889	0.59
233.106	0.45
233.324	0.5
233.541	0.56
233.759	0.62
233.976	0.46
234.194	0.68
234.411	0.59
234.628	0.4
234.846	0.44
235.063	0.62
235.28	0.52
235.498	0.46
235.715	0.42
235.932	0.74
236.149	0.55
236.367	0.49
236.584	0.54
236.801	0.55
237.018	0.59
237.236	0.52
237.453	0.37
237.67	0.61
237.887	0.42
238.104	0.65
238.321	0.46
238.538	0.47
238.755	0.69
238.973	0.3
239.19	0.5
239.407	0.59
239.624	0.66
239.841	0.45
240.058	0.51
240.275	0.53
240.492	0.49
240.709	0.51
240.925	0.51
241.142	0.47
241.359	0.42
241.576	0.38
241.793	0.51
242.01	0.54
242.227	0.42
242.444	0.56
242.66	0.65
242.877	0.47
243.094	0.52
243.311	0.5
243.527	0.41
243.744	0.55
243.961	0.61
244.178	0.42
244.394	0.41
244.611	0.67
244.828	0.68
245.044	0.33
245.261	0.48
245.477	0.55
245.694	0.63
245.911	0.42
246.127	0.55
246.344	0.62
246.56	0.57
246.777	0.39
246.993	0.53
247.21	0.45
247.426	0.59
247.643	0.44
247.859	0.37
248.076	0.42
248.292	0.72
248.508	0.36
248.725	0.46
248.941	0.49
249.157	0.53
249.374	0.35
249.59	0.39
249.806	0.46
250.023	0.52
250.239	0.36
250.455	0.38
250.671	0.49
250.888	0.55
251.104	0.49
251.32	0.47
251.536	0.43
251.752	0.38
251.969	0.44
252.185	0.45
252.401	0.59
252.617	0.42
252.833	0.35
253.049	0.46
253.265	0.42
253.481	0.46
253.697	0.35
253.913	0.32
254.129	0.39
254.345	0.43
254.561	0.34
254.777	0.38
254.993	0.49
255.209	0.41
255.425	0.38
255.641	0.37
255.857	0.57
256.073	0.43
256.288	0.38
256.504	0.35
256.72	0.49
256.936	0.51
257.152	0.41
257.367	0.38
257.583	0.49
257.799	0.4
258.015	0.39
258.23	0.35
258.446	0.52
258.662	0.47
258.877	0.31
259.093	0.3
259.309	0.46
259.524	0.46
259.74	0.31
259.955	0.27
260.171	0.47
260.387	0.37
260.602	0.49
260.818	0.44
261.033	0.33
261.249	0.34
261.464	0.4
261.68	0.3
261.895	0.47
262.11	0.46
262.326	0.33
262.541	0.31
262.757	0.45
262.972	0.42
263.187	0.43
263.403	0.43
263.618	0.42
263.833	0.4
264.049	0.31
264.264	0.35
264.479	0.49
264.694	0.41
264.91	0.36
265.125	0.32
265.34	0.4
265.555	0.57
265.77	0.47
265.986	0.31
266.201	0.48
266.416	0.48
266.631	0.35
266.846	0.35
267.061	0.36
267.276	0.41
267.491	0.23
267.706	0.35
267.921	0.34
268.136	0.37
268.351	0.44
268.566	0.32
268.781	0.45
268.996	0.43
269.211	0.4
269.426	0.25
269.641	0.31
269.856	0.44
270.071	0.29
270.285	0.27
270.5	0.43
270.715	0.42
270.93	0.38
271.145	0.4
271.359	0.44
271.574	0.37
271.789	0.36
272.004	0.33
272.218	0.29
272.433	0.41
272.648	0.26
272.862	0.38
273.077	0.37
273.292	0.29
273.506	0.32
273.721	0.32
273.936	0.38
274.15	0.42
274.365	0.32
274.579	0.43
274.794	0.4
275.008	0.46
275.223	0.27
275.437	0.34
275.652	0.46
275.866	0.41
276.081	0.34
276.295	0.42
276.509	0.33
276.724	0.41
276.938	0.29
277.153	0.35
277.367	0.37
277.581	0.3
277.796	0.28
278.01	0.28
278.224	0.4
278.438	0.49
278.653	0.26
278.867	0.25
279.081	0.36
279.295	0.32
279.51	0.37
279.724	0.27
279.938	0.35
280.152	0.39
280.366	0.27
280.58	0.32
280.794	0.37
281.008	0.37
281.222	0.4
281.437	0.48
281.651	0.37
281.865	0.42
282.079	0.31
282.293	0.24
282.507	0.29
282.721	0.34
282.935	0.3
283.148	0.2
283.362	0.26
283.576	0.26
283.79	0.3
284.004	0.27
284.218	0.37
284.432	0.3
284.646	0.32
284.859	0.23
285.073	0.27
285.287	0.36
285.501	0.28
285.714	0.3
285.928	0.36
286.142	0.34
286.356	0.26
286.569	0.29
286.783	0.38
286.997	0.34
287.21	0.29
287.424	0.33
287.637	0.27
287.851	0.28
288.065	0.4
288.278	0.31
288.492	0.35
288.705	0.34
288.919	0.3
289.132	0.24
289.346	0.31
289.559	0.25
289.773	0.24
289.986	0.33
290.2	0.27
290.413	0.37
290.626	0.31
290.84	0.29
291.053	0.24
291.267	0.37
291.48	0.32
291.693	0.3
291.906	0.24
292.12	0.28
292.333	0.24
292.546	0.24
292.76	0.41
292.973	0.33
293.186	0.32
293.399	0.3
293.612	0.33
293.826	0.28
294.039	0.28
294.252	0.29
294.465	0.31
294.678	0.33
294.891	0.31
295.104	0.25
295.317	0.27
295.53	0.28
295.743	0.29
295.956	0.25
296.169	0.37
296.382	0.33
296.595	0.29
296.808	0.28
297.021	0.36
297.234	0.32
297.447	0.29
297.66	0.31
297.873	0.34
298.086	0.33
298.299	0.25
298.511	0.25
298.724	0.31
298.937	0.24
299.15	0.25
299.363	0.26
299.575	0.31
299.788	0.32
300.001	0.25
300.213	0.24
300.426	0.29
300.639	0.26
300.852	0.26
301.064	0.29
301.277	0.34
301.489	0.3
301.702	0.33
301.915	0.27
302.127	0.26
302.34	0.28
302.552	0.31
302.765	0.25
302.977	0.3
303.19	0.27
303.402	0.25
303.615	0.27
303.827	0.25
304.04	0.25
304.252	0.3
304.464	0.27
304.677	0.38
304.889	0.33
305.102	0.2
305.314	0.21
305.526	0.26
305.739	0.26
305.951	0.26
306.163	0.26
306.375	0.36
306.588	0.28
306.8	0.25
307.012	0.16
307.224	0.25
307.436	0.36
307.649	0.21
307.861	0.32
308.073	0.31
308.285	0.25
308.497	0.2
308.709	0.24
308.921	0.26
309.133	0.33
309.346	0.26
309.558	0.26
309.77	0.28
309.982	0.33
310.194	0.32
310.406	0.2
310.617	0.33
310.829	0.26
311.041	0.31
311.253	0.24
311.465	0.28
311.677	0.29
311.889	0.26
312.101	0.22
312.313	0.31
312.524	0.32
312.736	0.18
312.948	0.25
313.16	0.37
313.372	0.27
313.583	0.29
313.795	0.28
314.007	0.22
314.218	0.29
314.43	0.28
314.642	0.23
314.853	0.21
315.065	0.27
315.277	0.27
315.488	0.31
315.7	0.33
315.912	0.26
316.123	0.27
316.335	0.21
316.546	0.38
316.758	0.24
316.969	0.26
317.181	0.29
317.392	0.25
317.604	0.33
317.815	0.23
318.026	0.2
318.238	0.22
318.449	0.32
318.661	0.19
318.872	0.24
319.083	0.24
319.295	0.27
319.506	0.24
319.717	0.31
319.929	0.27
320.14	0.28
320.351	0.33
320.562	0.25
320.774	0.29
320.985	0.29
321.196	0.19
321.407	0.21
321.618	0.3
321.829	0.33
322.041	0.33
322.252	0.29
322.463	0.27
322.674	0.3
322.885	0.25
323.096	0.29
323.307	0.26
323.518	0.28
323.729	0.25
323.94	0.25
324.151	0.26
324.362	0.34
324.573	0.28
324.784	0.28
324.995	0.32
325.206	0.26
325.417	0.29
325.628	0.25
325.838	0.3
326.049	0.27
326.26	0.32
326.471	0.26
326.682	0.28
326.892	0.27
327.103	0.23
327.314	0.2
327.525	0.34
327.735	0.27
327.946	0.33
328.157	0.24
328.368	0.37
328.578	0.24
328.789	0.31
328.999	0.25
329.21	0.27
329.421	0.35
329.631	0.25
329.842	0.21
330.052	0.26
330.263	0.3
330.473	0.29
330.684	0.23
330.894	0.28
331.105	0.3
331.315	0.28
331.526	0.2
331.736	0.31
331.947	0.31
332.157	0.28
332.367	0.23
332.578	0.3
332.788	0.32
332.999	0.27
333.209	0.24
333.419	0.24
333.629	0.27
333.84	0.25
334.05	0.28
334.26	0.35
334.47	0.35
334.681	0.29
334.891	0.25
335.101	0.31
335.311	0.38
335.521	0.26
335.732	0.24
335.942	0.31
336.152	0.29
336.362	0.29
336.572	0.28
336.782	0.3
336.992	0.27
337.202	0.25
337.412	0.25
337.622	0.3
337.832	0.25
338.042	0.26
338.252	0.24
338.462	0.25
338.672	0.29
338.882	0.31
339.092	0.22
339.302	0.34
339.511	0.28
339.721	0.27
339.931	0.25
340.141	0.28
340.351	0.32
340.561	0.29
340.77	0.29
340.98	0.26
341.19	0.28
341.4	0.25
341.609	0.21
341.819	0.26
342.029	0.29
342.238	0.33
342.448	0.25
342.658	0.3
342.867	0.3
343.077	0.28
343.286	0.25
343.496	0.26
343.706	0.29
343.915	0.25
344.125	0.27
344.334	0.29
344.544	0.18
344.753	0.27
344.963	0.24
345.172	0.22
345.381	0.26
345.591	0.23
345.8	0.27
346.01	0.34
346.219	0.3
346.428	0.13
346.638	0.24
346.847	0.26
347.056	0.32
347.266	0.26
347.475	0.27
347.684	0.29
347.893	0.3
348.103	0.28
348.312	0.23
348.521	0.28
348.73	0.27
348.94	0.26
349.149	0.24
349.358	0.26
349.567	0.23
349.776	0.24
349.985	0.21
350.194	0.29
350.403	0.27
350.612	0.17
350.821	0.25
351.03	0.24
351.239	0.22
351.448	0.24
351.657	0.23
351.866	0.39
352.075	0.21
352.284	0.3
352.493	0.24
352.702	0.28
352.911	0.25
353.12	0.28
353.329	0.24
353.538	0.3
353.746	0.27
353.955	0.23
354.164	0.24
354.373	0.22
354.582	0.28
354.79	0.22
354.999	0.25
355.208	0.27
355.416	0.32
355.625	0.17
355.834	0.22
356.042	0.28
356.251	0.24
356.46	0.21
356.668	0.27
356.877	0.34
357.085	0.35
357.294	0.24
357.503	0.32
357.711	0.25
357.92	0.41
358.128	0.26
358.337	0.24
358.545	0.31
358.754	0.25
358.962	0.3
359.17	0.21
359.379	0.27
359.587	0.31
359.796	0.26
360.004	0.29
360.212	0.3
360.421	0.32
360.629	0.26
360.837	0.23
361.046	0.3
361.254	0.36
361.462	0.25
361.67	0.25
361.879	0.21
362.087	0.31
362.295	0.3
362.503	0.22
362.711	0.21
362.92	0.2
363.128	0.25
363.336	0.21
363.544	0.21
363.752	0.27
363.96	0.24
364.168	0.23
364.376	0.26
364.584	0.26
364.792	0.32
365	0.26
365.208	0.25
365.416	0.28
365.624	0.29
365.832	0.23
366.04	0.27
366.248	0.26
366.456	0.25
366.664	0.28
366.872	0.27
367.079	0.23
367.287	0.24
367.495	0.28
367.703	0.27
367.911	0.21
368.118	0.29
368.326	0.25
368.534	0.26
368.742	0.31
368.949	0.19
369.157	0.22
369.365	0.3
369.572	0.21
369.78	0.24
369.988	0.31
370.195	0.28
370.403	0.31
370.61	0.24
370.818	0.27
371.026	0.33
371.233	0.26
371.441	0.27
371.648	0.23
371.856	0.29
372.063	0.29
372.271	0.24
372.478	0.25
372.685	0.23
372.893	0.32
373.1	0.27
373.308	0.29
373.515	0.35
373.722	0.3
373.93	0.23
374.137	0.27
374.344	0.34
374.552	0.32
374.759	0.29
374.966	0.25
375.173	0.27
375.381	0.3
375.588	0.26
375.795	0.19
376.002	0.23
376.209	0.24
376.417	0.27
376.624	0.3
376.831	0.29
377.038	0.26
377.245	0.2
377.452	0.23
377.659	0.24
377.866	0.26
378.073	0.29
378.28	0.25
378.487	0.31
378.694	0.27
378.901	0.3
379.108	0.27
379.315	0.3
379.522	0.38
379.729	0.28
379.936	0.24
380.143	0.27
380.35	0.28
380.557	0.24
380.763	0.27
380.97	0.28
381.177	0.28
381.384	0.3
381.591	0.29
381.797	0.31
382.004	0.32
382.211	0.34
382.418	0.31
382.624	0.28
382.831	0.33
383.038	0.27
383.244	0.29
383.451	0.3
383.658	0.28
383.864	0.3
384.071	0.24
384.277	0.36
384.484	0.25
384.69	0.34
384.897	0.26
385.103	0.27
385.31	0.26
385.516	0.27
385.723	0.25
385.929	0.3
386.136	0.22
386.342	0.3
386.549	0.28
386.755	0.36
386.961	0.34
387.168	0.27
387.374	0.29
387.58	0.33
387.787	0.29
387.993	0.3
388.199	0.32
388.406	0.3
388.612	0.28
388.818	0.24
389.024	0.28
389.231	0.32
389.437	0.38
389.643	0.31
389.849	0.33
390.055	0.27
390.261	0.33
390.467	0.35
390.674	0.32
390.88	0.33
391.086	0.33
391.292	0.25
391.498	0.37
391.704	0.35
391.91	0.33
392.116	0.28
392.322	0.23
392.528	0.32
392.734	0.31
392.94	0.34
393.146	0.34
393.352	0.31
393.557	0.32
393.763	0.29
393.969	0.34
394.175	0.31
394.381	0.36
394.587	0.27
394.792	0.34
394.998	0.35
395.204	0.37
395.41	0.27
395.615	0.37
395.821	0.36
396.027	0.32
396.233	0.33
396.438	0.37
396.644	0.42
396.85	0.4
397.055	0.34
397.261	0.37
397.466	0.43
397.672	0.34
397.878	0.35
398.083	0.33
398.289	0.32
398.494	0.44
398.7	0.35
398.905	0.26
399.111	0.43
399.316	0.3
399.522	0.38
399.727	0.37
399.932	0.37
400.138	0.35
400.343	0.38
400.549	0.35
400.754	0.37
400.959	0.33
401.165	0.32
401.37	0.41
401.575	0.32
401.78	0.39
401.986	0.37
402.191	0.35
402.396	0.39
402.601	0.44
402.807	0.45
403.012	0.42
403.217	0.46
403.422	0.39
403.627	0.44
403.832	0.4
404.037	0.43
404.243	0.45
404.448	0.38
404.653	0.43
404.858	0.46
405.063	0.47
405.268	0.46
405.473	0.45
405.678	0.45
405.883	0.59
406.088	0.5
406.293	0.43
406.498	0.49
406.703	0.5
406.907	0.5
407.112	0.46
407.317	0.53
407.522	0.52
407.727	0.47
407.932	0.52
408.136	0.7
408.341	0.57
408.546	0.6
408.751	0.59
408.956	0.59
409.16	0.62
409.365	0.62
409.57	0.67
409.774	0.66
409.979	0.68
410.184	0.7
410.388	0.64
410.593	0.74
410.798	0.74
411.002	0.76
411.207	0.85
411.411	0.8
411.616	0.74
411.82	0.8
412.025	0.88
412.229	0.9
412.434	0.97
412.638	0.9
412.843	0.9
413.047	0.98
413.252	0.94
413.456	1.02
413.66	1.09
413.865	1.05
414.069	1.2
414.273	1.14
414.478	1.19
414.682	1.18
414.886	1.27
415.091	1.21
415.295	1.19
415.499	1.37
415.703	1.31
415.908	1.5
416.112	1.31
416.316	1.56
416.52	1.52
416.724	1.57
416.929	1.64
417.133	1.87
417.337	1.72
417.541	1.78
417.745	1.83
417.949	1.95
418.153	2
418.357	2.06
418.561	2.23
418.765	2.2
418.969	2.31
419.173	2.45
419.377	2.36
419.581	2.64
419.785	2.65
419.989	2.68
420.193	2.81
420.397	2.88
420.601	3
420.804	3.1
421.008	3.03
421.212	3.23
421.416	3.29
421.62	3.24
421.823	3.35
422.027	3.59
422.231	3.56
422.435	3.52
422.638	3.54
422.842	3.7
423.046	3.85
423.249	3.92
423.453	3.98
423.657	4.07
423.86	4.16
424.064	4.35
424.268	4.47
424.471	4.42
424.675	4.68
424.878	4.77
425.082	4.9
425.285	5.17
425.489	5.14
425.692	5.19
425.896	5.26
426.099	5.46
426.303	5.56
426.506	5.78
426.71	5.92
426.913	6.17
427.116	6.32
427.32	6.34
427.523	6.38
427.726	6.75
427.93	6.79
428.133	7.07
428.336	7.2
428.54	7.4
428.743	7.6
428.946	7.87
429.149	7.85
429.353	7.9
429.556	8.05
429.759	8.06
429.962	8.25
430.165	8.39
430.368	7.92
430.571	8.06
430.775	8.16
430.978	8.04
431.181	8.19
431.384	8.29
431.587	8.36
431.79	8.68
431.993	8.66
432.196	8.88
432.399	9.33
432.602	9.45
432.805	9.5
433.008	10.11
433.211	9.88
433.414	10.32
433.616	10.2
433.819	10.21
434.022	10.55
434.225	10.66
434.428	10.62
434.631	11.18
434.833	10.89
435.036	11.1
435.239	11.34
435.442	11.39
435.645	11.64
435.847	11.61
436.05	11.93
436.253	12.13
436.455	12.17
436.658	12.01
436.861	12.27
437.063	12.43
437.266	12.39
437.468	12.74
437.671	13.07
437.874	13.11
438.076	12.94
438.279	13.34
438.481	13.48
438.684	14.25
438.886	13.82
439.089	14.24
439.291	14.14
439.494	14.57
439.696	14.78
439.899	15.24
440.101	15.65
440.303	15.97
440.506	16.59
440.708	16.27
440.91	16.47
441.113	16.61
441.315	16.9
441.517	16.84
441.72	17.31
441.922	16.96
442.124	16.91
442.326	17.21
442.529	17.42
442.731	17.39
442.933	17.83
443.135	17.4
443.337	17.46
443.539	17.89
443.742	17.68
443.944	18.39
444.146	17.97
444.348	18.01
444.55	17.94
444.752	18.12
444.954	18.04
445.156	18.04
445.358	18.53
445.56	18.75
445.762	18.47
445.964	18.94
446.166	18.73
446.368	18.7
446.57	18.63
446.772	18.28
446.974	17.97
447.175	18.43
447.377	17.99
447.579	18.37
447.781	18.1
447.983	17.91
448.184	17.54
448.386	17.83
448.588	17.33
448.79	17.28
448.991	17.54
449.193	17.54
449.395	16.99
449.597	16.54
449.798	16.54
450	16.13
450.202	15.94
450.403	15.88
450.605	15.84
450.806	15.54
451.008	15.41
451.21	15.14
451.411	14.62
451.613	13.89
451.814	14.24
452.016	14.01
452.217	13.41
452.419	13.34
452.62	13.01
452.821	12.78
453.023	12.72
453.224	12.29
453.426	11.86
453.627	11.13
453.828	11.26
454.03	11.4
454.231	11.39
454.432	11.13
454.634	10.9
454.835	10.6
455.036	10.5
455.238	10.08
455.439	9.87
455.64	9.54
455.841	9.41
456.042	9.55
456.244	9.3
456.445	8.99
456.646	8.72
456.847	8.63
457.048	8.55
457.249	8.58
457.45	8.27
457.651	7.79
457.852	7.62
458.054	7.23
458.255	7.21
458.456	7.35
458.657	7.1
458.858	6.73
459.058	6.75
459.259	6.78
459.46	6.5
459.661	6.49
459.862	6.46
460.063	6.4
460.264	6.29
460.465	6.04
460.666	6.14
460.866	5.79
461.067	5.55
461.268	5.55
461.469	5.59
461.67	5.39
461.87	5.16
462.071	5.21
462.272	5.18
462.473	5.1
462.673	5.31
462.874	5.11
463.075	5.24
463.275	5.23
463.476	5.19
463.676	5.06
463.877	5.02
464.078	4.93
464.278	5.02
464.479	4.86
464.679	4.8
464.88	4.77
465.08	4.67
465.281	4.53
465.481	4.41
465.682	4.17
465.882	4.21
466.083	4.14
466.283	4.06
466.483	3.98
466.684	3.77
466.884	3.69
467.085	3.71
467.285	3.78
467.485	3.65
467.686	3.61
467.886	3.44
468.086	3.43
468.286	3.39
468.487	3.47
468.687	3.27
468.887	3.27
469.087	3.39
469.287	3.3
469.488	3.15
469.688	3.22
469.888	3.19
470.088	3.15
470.288	3.14
470.488	3.03
470.688	2.86
470.888	2.89
471.088	2.73
471.288	2.8
471.488	2.77
471.688	2.73
471.888	2.66
472.088	2.85
472.288	2.72
472.488	2.61
472.688	2.61
472.888	2.59
473.088	2.55
473.288	2.54
473.488	2.47
473.688	2.62
473.887	2.52
474.087	2.45
474.287	2.5
474.487	2.37
474.687	2.46
474.886	2.37
475.086	2.33
475.286	2.35
475.486	2.38
475.685	2.26
475.885	2.23
476.085	2.28
476.284	2.29
476.484	2.27
476.684	2.25
476.883	2.29
477.083	2.18
477.282	2.14
477.482	2.18
477.681	2.21
477.881	2.08
478.08	2.08
478.28	2.05
478.479	2.09
478.679	2.14
478.878	2.04
479.078	2.06
479.277	2.11
479.477	2.04
479.676	2.04
479.875	2
480.075	1.96
480.274	2.05
480.473	2.04
480.673	2.01
480.872	2.08
481.071	2.07
481.271	2.01
481.47	2.01
481.669	2.04
481.868	1.95
482.067	2.01
482.267	1.96
482.466	1.96
482.665	1.95
482.864	1.94
483.063	1.99
483.262	2.03
483.461	2.02
483.661	2.07
483.86	2.02
484.059	2.07
484.258	2.07
484.457	2.04
484.656	2
484.855	2.06
485.054	1.9
485.253	1.96
485.452	1.99
485.651	2.1
485.849	2.02
486.048	2
486.247	2.04
486.446	2.09
486.645	2.09
486.844	2.11
487.043	2.05
487.241	2.11
487.44	2.1
487.639	2.1
487.838	2.13
488.037	2.11
488.235	2.21
488.434	2.17
488.633	2.06
488.831	2.23
489.03	2.21
489.229	2.23
489.427	2.19
489.626	2.26
489.825	2.27
490.023	2.32
490.222	2.28
490.42	2.34
490.619	2.38
490.817	2.39
491.016	2.37
491.214	2.4
491.413	2.4
491.611	2.33
491.81	2.44
492.008	2.48
492.207	2.54
492.405	2.5
492.604	2.46
492.802	2.56
493	2.59
493.199	2.64
493.397	2.61
493.595	2.68
493.794	2.65
493.992	2.77
494.19	2.77
494.388	2.83
494.587	2.72
494.785	2.84
494.983	2.72
495.181	2.88
495.379	2.9
495.578	2.94
495.776	2.95
495.974	2.96
496.172	2.94
496.37	3.07
496.568	3.08
496.766	3.11
496.964	3.21
497.162	3.13
497.36	3.2
497.558	3.23
497.756	3.25
497.954	3.32
498.152	3.34
498.35	3.42
498.548	3.31
498.746	3.38
498.944	3.42
499.142	3.4
499.34	3.51
499.538	3.61
499.736	3.51
499.933	3.62
500.131	3.64
500.329	3.77
500.527	3.76
500.725	3.82
500.922	3.85
501.12	3.85
501.318	3.94
501.516	3.93
501.713	4.01
501.911	3.95
502.109	3.94
502.306	4.08
502.504	4.02
502.701	4.11
502.899	4.16
503.097	4.34
503.294	4.19
503.492	4.35
503.689	4.39
503.887	4.31
504.084	4.49
504.282	4.39
504.479	4.39
504.677	4.58
504.874	4.56
505.072	4.42
505.269	4.67
505.466	4.64
505.664	4.73
505.861	4.66
506.059	4.8
506.256	4.77
506.453	4.82
506.651	4.97
506.848	4.97
507.045	4.97
507.242	4.99
507.44	5.03
507.637	5.11
507.834	5.06
508.031	5.27
508.229	5.11
508.426	5.07
508.623	5.23
508.82	5.35
509.017	5.28
509.214	5.25
509.411	5.42
509.608	5.38
509.805	5.46
510.003	5.43
510.2	5.47
510.397	5.65
510.594	5.51
510.791	5.67
510.988	5.65
511.184	5.57
511.381	5.5
511.578	5.63
511.775	5.85
511.972	5.73
512.169	5.79
512.366	5.8
512.563	5.95
512.76	5.94
512.956	6.03
513.153	5.93
513.35	5.93
513.547	5.93
513.744	6.02
513.94	6.03
514.137	6.17
514.334	6.13
514.53	6.16
514.727	6.39
514.924	6.22
515.12	6.24
515.317	6.3
515.514	6.25
515.71	6.19
515.907	6.42
516.103	6.41
516.3	6.32
516.497	6.51
516.693	6.46
516.89	6.52
517.086	6.51
517.283	6.53
517.479	6.4
517.676	6.56
517.872	6.64
518.068	6.62
518.265	6.61
518.461	6.5
518.658	6.72
518.854	6.69
519.05	6.79
519.247	6.8
519.443	6.73
519.639	6.9
519.836	6.77
520.032	6.77
520.228	6.87
520.424	6.87
520.621	6.86
520.817	6.98
521.013	6.92
521.209	7.05
521.405	7.1
521.601	6.98
521.798	7.01
521.994	7.05
522.19	6.97
522.386	7.04
522.582	7.13
522.778	7.24
522.974	7.07
523.17	7.14
523.366	7.12
523.562	7.21
523.758	7.15
523.954	7.06
524.15	7.21
524.346	7.3
524.542	7.24
524.738	7.21
524.934	7.36
525.129	7.32
525.325	7.25
525.521	7.22
525.717	7.5
525.913	7.3
526.109	7.36
526.304	7.44
526.5	7.4
526.696	7.46
526.892	7.38
527.087	7.61
527.283	7.47
527.479	7.49
527.674	7.3
527.87	7.5
528.066	7.5
528.261	7.56
528.457	7.45
528.653	7.63
528.848	7.58
529.044	7.65
529.239	7.51
529.435	7.57
529.63	7.49
529.826	7.5
530.021	7.51
530.217	7.64
530.412	7.57
530.608	7.62
530.803	7.6
530.999	7.46
531.194	7.64
531.389	7.65
531.585	7.7
531.78	7.83
531.975	7.7
532.171	7.75
532.366	7.74
532.561	7.76
532.757	7.66
532.952	7.87
533.147	7.61
533.342	7.77
533.538	7.67
533.733	7.9
533.928	7.56
534.123	7.74
534.318	7.86
534.513	7.82
534.709	7.91
534.904	7.88
535.099	7.91
535.294	7.89
535.489	7.94
535.684	7.77
535.879	7.82
536.074	7.87
536.269	7.88
536.464	7.95
536.659	7.88
536.854	7.92
537.049	7.91
537.244	7.85
537.439	7.88
537.634	7.95
537.828	7.94
538.023	7.91
538.218	7.94
538.413	7.83
538.608	7.95
538.803	7.92
538.997	7.92
539.192	8
539.387	7.9
539.582	7.92
539.776	7.88
539.971	8.02
540.166	8
540.36	7.9
540.555	8.04
540.75	8.01
540.944	8
541.139	8.03
541.334	8.03
541.528	7.96
541.723	8.03
541.917	8.09
542.112	7.93
542.306	7.91
542.501	7.91
542.695	8
542.89	7.92
543.084	7.99
543.279	8.03
543.473	8.05
543.668	8.1
543.862	7.89
544.056	7.9
544.251	8.08
544.445	8.12
544.64	8.16
544.834	7.82
545.028	7.67
545.222	8.08
545.417	8.19
545.611	8.13
545.805	8.04
546	7.9
546.194	8.04
546.388	8.07
546.582	7.98
546.776	7.98
546.97	8.05
547.165	7.96
547.359	7.97
547.553	7.92
547.747	8.02
547.941	8.22
548.135	8.02
548.329	8.04
548.523	8.06
548.717	8.01
548.911	8.03
549.105	8.06
549.299	8.11
549.493	8.08
549.687	8
549.881	8.14
550.075	8.06
550.269	7.98
550.463	8.14
550.657	8.1
550.85	8.03
551.044	8.09
551.238	8.16
551.432	8.06
551.626	8.12
551.82	8.16
552.013	8
552.207	8.14
552.401	8.15
552.594	8.05
552.788	8
552.982	8.01
553.176	8.08
553.369	8.18
553.563	8.16
553.756	8.01
553.95	8.2
554.144	8.16
554.337	8.12
554.531	7.89
554.724	8.14
554.918	8.14
555.111	8.06
555.305	8.1
555.498	8.02
555.692	8.19
555.885	8.11
556.079	8.07
556.272	8.09
556.466	8.14
556.659	8.08
556.852	8.19
557.046	8.07
557.239	7.94
557.432	8.03
557.626	8.18
557.819	8.17
558.012	8.11
558.206	8.22
558.399	8.13
558.592	8.03
558.785	8.07
558.979	8.17
559.172	8.11
559.365	8.11
559.558	8.01
559.751	8.02
559.944	8.16
560.138	8.06
560.331	8.08
560.524	8.17
560.717	8.1
560.91	8.09
561.103	8.09
561.296	7.92
561.489	8.11
561.682	8.18
561.875	8.12
562.068	8.13
562.261	8.05
562.454	8.28
562.647	8.1
562.84	8.24
563.032	8.13
563.225	8.03
563.418	8.02
563.611	8.18
563.804	8.11
563.997	7.95
564.19	7.91
564.382	8.24
564.575	8.1
564.768	8.04
564.961	8.09
565.153	8.05
565.346	7.98
565.539	8.13
565.731	8.08
565.924	8.18
566.117	8.25
566.309	8.15
566.502	8.06
566.695	8.02
566.887	8.18
567.08	8.09
567.272	8.1
567.465	8.03
567.657	8.16
567.85	8
568.042	8.09
568.235	8.1
568.427	7.9
568.62	8.04
568.812	7.97
569.005	8.17
569.197	8.01
569.389	8.08
569.582	8.06
569.774	8.04
569.966	8.02
570.159	7.89
570.351	7.94
570.543	7.97
570.736	8.03
570.928	7.89
571.12	8.08
571.312	7.94
571.505	7.77
571.697	8.03
571.889	8
572.081	8.04
572.273	7.94
572.465	8.02
572.658	8
572.85	7.97
573.042	7.99
573.234	7.91
573.426	7.92
573.618	7.93
573.81	7.96
574.002	7.94
574.194	7.94
574.386	7.86
574.578	7.81
574.77	7.88
574.962	7.93
575.154	7.81
575.346	7.84
575.538	7.85
575.729	7.88
575.921	7.99
576.113	7.96
576.305	7.92
576.497	8.04
576.689	7.81
576.88	7.75
577.072	7.95
577.264	7.85
577.456	7.87
577.647	7.79
577.839	7.95
578.031	7.86
578.223	7.81
578.414	7.7
578.606	7.8
578.798	7.88
578.989	7.87
579.181	7.92
579.372	7.75
579.564	7.86
579.755	7.78
579.947	7.72
580.139	7.81
580.33	7.64
580.522	7.85
580.713	7.74
580.905	7.68
581.096	7.8
581.287	7.74
581.479	7.75
581.67	7.76
581.862	7.74
582.053	7.74
582.244	7.6
582.436	7.81
582.627	7.64
582.818	7.62
583.01	7.61
583.201	7.7
583.392	7.67
583.583	7.63
583.775	7.46
583.966	7.56
584.157	7.59
584.348	7.69
584.54	7.56
584.731	7.6
584.922	7.55
585.113	7.42
585.304	7.61
585.495	7.54
585.686	7.62
585.877	7.62
586.068	7.64
586.259	7.61
586.45	7.5
586.641	7.52
586.832	7.63
587.023	7.52
587.214	7.5
587.405	7.57
587.596	7.37
587.787	7.39
587.978	7.5
588.169	7.42
588.36	7.33
588.551	7.39
588.742	7.45
588.932	7.46
589.123	7.25
589.314	7.43
589.505	7.32
589.696	7.39
589.886	7.34
590.077	7.33
590.268	7.23
590.458	7.33
590.649	7.08
590.84	7.27
591.03	7.32
591.221	7.3
591.412	7.07
591.602	7.35
591.793	7.22
591.984	7.24
592.174	7.25
592.365	7.33
592.555	7.13
592.746	7.16
592.936	7.19
593.127	7.18
593.317	7.2
593.508	7.19
593.698	7.05
593.889	7.11
594.079	7.09
594.269	7.05
594.46	7.05
594.65	7.07
594.84	7.06
595.031	6.96
595.221	7.03
595.411	7.02
595.602	6.97
595.792	6.89
595.982	6.87
596.172	6.98
596.363	6.93
596.553	6.97
596.743	6.94
596.933	6.87
597.123	6.88
597.314	6.8
597.504	6.79
597.694	6.85
597.884	6.77
598.074	6.89
598.264	6.82
598.454	6.76
598.644	6.79
598.834	6.73
599.024	6.74
599.214	6.71
599.404	6.79
599.594	6.66
599.784	6.68
599.974	6.7
600.164	6.69
600.354	6.57
600.544	6.59
600.734	6.67
600.924	6.6
601.114	6.55
601.303	6.51
601.493	6.58
601.683	6.57
601.873	6.56
602.063	6.47
602.252	6.57
602.442	6.36
602.632	6.51
602.821	6.36
603.011	6.51
603.201	6.39
603.39	6.37
603.58	6.29
603.77	6.4
603.959	6.47
604.149	6.3
604.339	6.33
604.528	6.5
604.718	6.39
604.907	6.32
605.097	6.2
605.286	6.27
605.476	6.24
605.665	6.3
605.855	6.15
606.044	6.27
606.234	6.25
606.423	6.18
606.612	6.16
606.802	6.19
606.991	6.13
607.181	6.2
607.37	6.16
607.559	5.86
607.749	6.15
607.938	6.03
608.127	6.14
608.316	6.06
608.506	6.01
608.695	6.16
608.884	6
609.073	5.97
609.263	6.04
609.452	6.01
609.641	5.87
609.83	5.84
610.019	5.95
610.208	5.83
610.397	5.83
610.586	5.85
610.775	5.79
610.965	5.82
611.154	5.69
611.343	5.77
611.532	5.72
611.721	5.83
611.91	5.72
612.099	5.69
612.287	5.65
612.476	5.59
612.665	5.73
612.854	5.64
613.043	5.62
613.232	5.58
613.421	5.56
613.61	5.56
613.798	5.6
613.987	5.56
614.176	5.46
614.365	5.56
614.554	5.57
614.742	5.54
614.931	5.41
615.12	5.55
615.309	5.49
615.497	5.38
615.686	5.35
615.875	5.41
616.063	5.33
616.252	5.34
616.44	5.37
616.629	5.27
616.818	5.31
617.006	5.28
617.195	5.21
617.383	5.19
617.572	5.26
617.76	5.15
617.949	5.17
618.137	5.24
618.326	5.22
618.514	5.09
618.703	5.07
618.891	5.18
619.079	5.03
619.268	5.18
619.456	5.02
619.644	5.14
619.833	5.02
620.021	5.04
620.209	4.93
620.398	5.06
620.586	4.93
620.774	4.97
620.962	4.99
621.151	5.04
621.339	4.93
621.527	4.86
621.715	4.87
621.903	4.83
622.092	4.81
622.28	4.99
622.468	4.71
622.656	4.8
622.844	4.76
623.032	4.83
623.22	4.73
623.408	4.87
623.596	4.79
623.784	4.73
623.972	4.62
624.16	4.66
624.348	4.63
624.536	4.74
624.724	4.6
624.912	4.6
625.1	4.61
625.288	4.63
625.476	4.53
625.664	4.6
625.851	4.52
626.039	4.61
626.227	4.44
626.415	4.57
626.603	4.38
626.79	4.53
626.978	4.44
627.166	4.46
627.354	4.39
627.541	4.37
627.729	4.28
627.917	4.46
628.104	4.39
628.292	4.3
628.48	4.39
628.667	4.3
628.855	4.32
629.042	4.39
629.23	4.25
629.418	4.24
629.605	4.25
629.793	4.19
629.98	4.2
630.168	4.13
630.355	4.19
630.543	4.14
630.73	4.01
630.917	4.12
631.105	4.24
631.292	4.13
631.48	4.13
631.667	4.16
631.854	4.07
632.042	4.05
632.229	3.95
632.416	4.01
632.604	3.96
632.791	3.9
632.978	4
633.165	3.94
633.353	4.01
633.54	4.02
633.727	3.86
633.914	3.87
634.101	3.83
634.289	3.97
634.476	3.79
634.663	3.83
634.85	3.85
635.037	3.82
635.224	3.77
635.411	3.79
635.598	3.73
635.785	3.73
635.972	3.73
636.159	3.73
636.346	3.71
636.533	3.62
636.72	3.65
636.907	3.65
637.094	3.65
637.281	3.58
637.468	3.63
637.655	3.62
637.842	3.66
638.029	3.52
638.215	3.54
638.402	3.53
638.589	3.51
638.776	3.46
638.963	3.48
639.149	3.5
639.336	3.51
639.523	3.47
639.709	3.49
639.896	3.44
640.083	3.43
640.27	3.45
640.456	3.37
640.643	3.36
640.829	3.3
641.016	3.38
641.203	3.27
641.389	3.33
641.576	3.26
641.762	3.31
641.949	3.26
642.135	3.27
642.322	3.29
642.508	3.17
642.695	3.26
642.881	3.22
643.068	3.18
643.254	3.24
643.441	3.22
643.627	3.24
643.813	3.05
644	3.21
644.186	3.05
644.372	3.16
644.559	3.14
644.745	3.11
644.931	3.08
645.118	3.1
645.304	3.1
645.49	3.07
645.676	3.04
645.862	3.04
646.049	3.05
646.235	3.03
646.421	3.09
646.607	3.08
646.793	2.9
646.979	2.9
647.165	3.04
647.352	2.97
647.538	2.95
647.724	2.94
647.91	2.92
648.096	2.97
648.282	2.95
648.468	2.92
648.654	2.91
648.84	2.9
649.026	2.9
649.212	2.8
649.397	2.84
649.583	2.79
649.769	2.85
649.955	2.86
650.141	2.81
650.327	2.8
650.513	2.7
650.698	2.77
650.884	2.65
651.07	2.79
651.256	2.71
651.442	2.77
651.627	2.56
651.813	2.72
651.999	2.64
652.184	2.67
652.37	2.61
652.556	2.65
652.741	2.7
652.927	2.51
653.113	2.64
653.298	2.63
653.484	2.58
653.669	2.57
653.855	2.57
654.04	2.67
654.226	2.57
654.412	2.53
654.597	2.5
654.782	2.58
654.968	2.5
655.153	2.51
655.339	2.52
655.524	2.5
655.71	2.52
655.895	2.48
656.08	2.46
656.266	2.6
656.451	2.44
656.636	2.4
656.822	2.44
657.007	2.4
657.192	2.45
657.378	2.35
657.563	2.41
657.748	2.45
657.933	2.41
658.118	2.38
658.304	2.35
658.489	2.4
658.674	2.35
658.859	2.31
659.044	2.32
659.229	2.33
659.414	2.28
659.599	2.27
659.785	2.25
659.97	2.29
660.155	2.26
660.34	2.24
660.525	2.2
660.71	2.18
660.895	2.26
661.08	2.17
661.264	2.16
661.449	2.24
661.634	2.2
661.819	2.21
662.004	2.16
662.189	2.1
662.374	2.13
662.559	2.13
662.743	2.07
662.928	2.13
663.113	2.04
663.298	2.07
663.483	2.01
663.667	2.08
663.852	2.03
664.037	2.05
664.221	2.02
664.406	2.02
664.591	1.99
664.775	2.03
664.96	1.9
665.145	1.91
665.329	1.96
665.514	1.91
665.698	1.94
665.883	1.87
666.068	1.96
666.252	1.88
666.437	1.85
666.621	1.86
666.806	1.92
666.99	1.82
667.174	1.79
667.359	1.89
667.543	1.83
667.728	1.87
667.912	1.73
668.096	1.82
668.281	1.74
668.465	1.77
668.649	1.77
668.834	1.67
669.018	1.81
669.202	1.75
669.387	1.72
669.571	1.83
669.755	1.69
669.939	1.74
670.124	1.69
670.308	1.75
670.492	1.68
670.676	1.7
670.86	1.62
671.044	1.59
671.228	1.72
671.413	1.63
671.597	1.61
671.781	1.61
671.965	1.65
672.149	1.6
672.333	1.59
672.517	1.56
672.701	1.6
672.885	1.59
673.069	1.46
673.253	1.64
673.437	1.56
673.621	1.57
673.804	1.53
673.988	1.57
674.172	1.48
674.356	1.46
674.54	1.52
674.724	1.59
674.908	1.48
675.091	1.49
675.275	1.51
675.459	1.58
675.643	1.56
675.826	1.5
676.01	1.5
676.194	1.5
676.377	1.5
676.561	1.58
676.745	1.44
676.928	1.47
677.112	1.51
677.296	1.37
677.479	1.45
677.663	1.36
677.846	1.46
678.03	1.44
678.213	1.36
678.397	1.44
678.58	1.39
678.764	1.36
678.947	1.37
679.131	1.39
679.314	1.36
679.498	1.35
679.681	1.44
679.865	1.4
680.048	1.32
680.231	1.33
680.415	1.32
680.598	1.3
680.781	1.28
680.965	1.32
681.148	1.36
681.331	1.33
681.514	1.31
681.698	1.25
681.881	1.34
682.064	1.27
682.247	1.23
682.43	1.19
682.614	1.27
682.797	1.32
682.98	1.26
683.163	1.2
683.346	1.23
683.529	1.24
683.712	1.2
683.895	1.25
684.078	1.13
684.261	1.16
684.444	1.21
684.627	1.27
684.81	1.14
684.993	1.22
685.176	1.25
685.359	1.14
685.542	1.13
685.725	1.24
685.908	1.17
686.091	1.12
686.274	1.21
686.457	1.16
686.639	1.17
686.822	1.18
687.005	1.14
687.188	1.15
687.371	1.19
687.553	1.13
687.736	1.16
687.919	1.2
688.102	1.2
688.284	1.1
688.467	1.07
688.65	1.05
688.832	1.01
689.015	1.09
689.197	0.96
689.38	1.17
689.563	1.12
689.745	0.98
689.928	1.02
690.11	1.03
690.293	1.01
690.475	0.97
690.658	1.07
690.84	1.02
691.023	1.04
691.205	0.99
691.388	1
691.57	1.02
691.752	1.02
691.935	1.01
692.117	0.95
692.3	1.06
692.482	0.94
692.664	0.91
692.847	0.97
693.029	0.97
693.211	1.02
693.393	0.92
693.576	0.92
693.758	0.95
693.94	0.98
694.122	0.94
694.304	0.9
694.487	0.94
694.669	1.05
694.851	0.89
695.033	0.94
695.215	0.88
695.397	0.9
695.579	0.94
695.761	0.89
695.943	0.88
696.125	0.97
696.308	0.98
696.49	0.8
696.671	1.07
696.853	0.96
697.035	1.1
697.217	0.9
697.399	0.94
697.581	0.85
697.763	0.89
697.945	0.83
698.127	0.84
698.309	0.95
698.491	0.93
698.672	0.9
698.854	0.92
699.036	0.97
699.218	0.83
699.399	0.93
699.581	0.91
699.763	0.92
699.945	0.81
700.126	0.75
700.308	0.85
700.49	0.83
700.671	0.73
700.853	0.77
701.035	0.85
701.216	0.83
701.398	0.76
701.579	0.8
701.761	0.86
701.943	0.76
702.124	0.81
702.306	0.81
702.487	0.93
702.669	0.81
702.85	0.81
703.031	0.72
703.213	0.93
703.394	0.81
703.576	0.75
703.757	0.93
703.938	0.84
704.12	0.94
704.301	0.83
704.483	0.73
704.664	0.79
704.845	0.87
705.026	0.78
705.208	0.83
705.389	0.82
705.57	0.79
705.751	0.81
705.933	0.78
706.114	0.82
706.295	0.77
706.476	0.71
706.657	0.84
706.838	0.81
707.02	0.81
707.201	0.77
707.382	0.75
707.563	0.75
707.744	0.73
707.925	0.64
708.106	0.67
708.287	0.7
708.468	0.79
708.649	0.75
708.83	0.78
709.011	0.67
709.192	0.75
709.373	0.66
709.554	0.63
709.734	0.82
709.915	0.74
710.096	0.67
710.277	0.6
710.458	0.7
710.639	0.71
710.819	0.59
711	0.69
711.181	0.78
711.362	0.76
711.542	0.76
711.723	0.73
711.904	0.76
712.085	0.68
712.265	0.7
712.446	0.58
712.627	0.63
712.807	0.74
712.988	0.73
713.168	0.59
713.349	0.75
713.53	0.54
713.71	0.58
713.891	0.61
714.071	0.65
714.252	0.69
714.432	0.65
714.613	0.59
714.793	0.67
714.974	0.75
715.154	0.71
715.334	0.66
715.515	0.74
715.695	0.56
715.876	0.65
716.056	0.57
716.236	0.64
716.417	0.64
716.597	0.59
716.777	0.78
716.957	0.63
717.138	0.65
717.318	0.64
717.498	0.53
717.678	0.66
717.859	0.7
718.039	0.5
718.219	0.65
718.399	0.61
718.579	0.53
718.759	0.62
718.939	0.64
719.12	0.72
719.3	0.55
719.48	0.51
719.66	0.49
719.84	0.63
720.02	0.63
720.2	0.56
720.38	0.6
720.56	0.74
720.74	0.57
720.92	0.6
721.1	0.76
721.279	0.67
721.459	0.63
721.639	0.47
721.819	0.65
721.999	0.62
722.179	0.67
722.359	0.49
722.538	0.57
722.718	0.58
722.898	0.6
723.078	0.6
723.257	0.65
723.437	0.64
723.617	0.61
723.797	0.65
723.976	0.56
724.156	0.68
724.336	0.68
724.515	0.8
724.695	0.51
724.874	0.51
725.054	0.7
725.234	0.67
725.413	0.6
725.593	0.6
725.772	0.62
725.952	0.61
726.131	0.5
726.311	0.63
726.49	0.61
726.67	0.57
726.849	0.49
727.028	0.61
727.208	0.52
727.387	0.6
727.567	0.46
727.746	0.62
727.925	0.54
728.105	0.53
728.284	0.56
728.463	0.55
728.643	0.61
728.822	0.53
729.001	0.59
729.18	0.56
729.359	0.72
729.539	0.52
729.718	0.6
729.897	0.58
730.076	0.55
730.255	0.52
730.434	0.62
730.614	0.66
730.793	0.67
730.972	0.54
731.151	0.55
731.33	0.7
731.509	0.68
731.688	0.67
731.867	0.6
732.046	0.47
732.225	0.78
732.404	0.54
732.583	0.39
732.762	0.7
732.941	0.76
733.12	0.63
733.298	0.54
733.477	0.67
733.656	0.53
733.835	0.48
734.014	0.66
734.193	0.58
734.371	0.62
734.55	0.7
734.729	0.55
734.908	0.67
735.086	0.6
735.265	0.66
735.444	0.52
735.623	0.5
735.801	0.55
735.98	0.62
736.159	0.62
736.337	0.78
736.516	0.65
736.694	0.74
736.873	0.61
737.052	0.8
737.23	0.83
737.409	0.53
737.587	0.85
737.766	0.54
737.944	0.65
738.123	0.73
738.301	0.64
738.479	0.62
738.658	0.64
738.836	0.45
739.015	0.61
739.193	0.69
739.371	0.46
739.55	0.65
739.728	0.56
739.906	0.72
740.085	0.81
740.263	0.55
740.441	0.38
740.62	0.84
740.798	0.67
740.976	0.57
741.154	0.54
741.332	0.77
741.511	0.49
741.689	0.66
741.867	0.71
742.045	0.56
742.223	0.59
742.401	0.4
742.579	0.49
742.757	0.65
742.935	0.42
743.114	0.5
743.292	0.53
743.47	0.41
743.648	0.48
743.826	0.62
744.004	0.61
744.181	0.55
744.359	0.51
744.537	0.61
744.715	0.5
744.893	0.56
745.071	0.56
745.249	0.52
745.427	0.54
745.605	0.67
745.782	0.43
745.96	0.6
746.138	0.6
746.316	0.65
746.493	0.48
746.671	0.54
746.849	0.44
747.027	0.67
747.204	0.39
747.382	0.59
747.56	0.33
747.737	0.5
747.915	0.46
748.093	0.42
748.27	0.45
748.448	0.41
748.625	0.32
748.803	0.37
748.98	0.36
749.158	0.54
749.335	0.6
749.513	0.37
749.69	0.47
749.868	0.42
750.045	0.4
750.223	0.44
750.4	0.23
750.578	0.63
750.755	0.37
750.932	0.28
751.11	0.56
751.287	0.4
751.464	0.6
751.642	0.3
751.819	0.48
751.996	0.45
752.173	0.47
752.351	0.37
752.528	0.42
752.705	0.44
752.882	0.4
753.06	0.48
753.237	0.49
753.414	0.77
753.591	0.52
753.768	0.39
753.945	0.38
754.122	0.49
754.299	0.46
754.476	0.3
754.654	0.43
754.831	0.48
755.008	0.45
755.185	0.35
755.362	0.29
755.539	0.39
755.716	0.63
755.892	0.44
756.069	0.38
756.246	0.36
756.423	0.37
756.6	0.57
756.777	0.38
756.954	0.56
757.131	0.45
757.307	0.31
757.484	0.29
757.661	0.48
757.838	0.66
758.015	0.29
758.191	0.49
758.368	0.52
758.545	0.65
758.721	0.5
758.898	0.37
759.075	0.44
759.251	0.53
759.428	0.43
759.605	0.33
759.781	0.38
759.958	0.46
760.134	0.41
760.311	0.4
760.488	0.54
760.664	0.64
760.841	0.4
761.017	0.37
761.194	0.51
761.37	0.6
761.547	0.37
761.723	0.35
761.899	0.64
762.076	0.3
762.252	0.34
762.429	0.4
762.605	0.48
762.781	0.35
762.958	0.57
763.134	0.49
763.31	0.3
763.486	0.44
763.663	0.17
763.839	0.46
764.015	0.2
764.191	0.29
764.368	0.4
764.544	0.34
764.72	0.44
764.896	0.45
765.072	0.43
765.248	0.32
765.425	0.2
765.601	0.48
765.777	0.51
765.953	0.06
766.129	0.35
766.305	0.41
766.481	0.6
766.657	0.51
766.833	0.48
767.009	0.2
767.185	0.4
767.361	0.31
767.537	0.27
767.713	0.5
767.889	0.47
768.065	0.4
768.24	0.5
768.416	0.49
768.592	0.34
768.768	0.4
768.944	0.44
769.12	0.39
769.295	0.33
769.471	0.39
769.647	0.44
769.823	0.64
769.998	0.35
770.174	0.34
770.35	0.7
770.525	0.61
770.701	0.4
770.877	0.41
771.052	0.25
771.228	0.42
771.403	0.41
771.579	0.42
771.755	0.77
771.93	0.36
772.106	0.27
772.281	0.23
772.457	0.31
772.632	0.46
772.808	0.29
772.983	0.38
773.159	0.19
773.334	0.49
773.509	0.4
773.685	0.28
773.86	0.73
774.036	0.67
774.211	0.35
774.386	0.37
774.562	0.39
774.737	0.43
774.912	0.38
775.087	0.5
775.263	0.5
775.438	0.47
775.613	0.34
775.788	0.42
775.964	0.6
776.139	0.78
776.314	0.12
776.489	0.43
776.664	0.46
776.839	0.34
777.014	0.44
777.19	0.45
777.365	0.66
777.54	0.61
777.715	0.24
777.89	0.46
778.065	0.31
778.24	0.33
778.415	0.56
778.59	0.35
778.765	0.48
778.94	0.4
779.115	0.47
779.289	0.38
779.464	0.43
779.639	0.42
779.814	0.2
779.989	0.2
780.164	0.67
780.339	0.48
780.513	0.41
780.688	0.3
780.863	0.52
781.038	0.74
781.212	0.16
781.387	0.45
781.562	0.72
781.737	0.53
781.911	0.6
782.086	0.34
782.261	0.46
782.435	0.68
782.61	0.45
782.784	0.5
782.959	0.66
783.134	0.25
783.308	0.26
783.483	0.46
783.657	0.79
783.832	0.75
784.006	0.06
784.181	0.41
784.355	0.73
784.53	0.52
784.704	0.38
784.878	0.76
785.053	0.62
785.227	0.68
785.402	0.76
785.576	0.27
785.75	0.55
785.925	0.61
786.099	0.61
786.273	0.67
786.448	0.83
786.622	0.81
786.796	0.56
786.97	0.53
787.145	1.05
787.319	0.33
787.493	0.28
787.667	0.34
787.841	0.43
788.015	0.82
788.19	0.39
788.364	0.36
788.538	0.68
788.712	0.57
788.886	0.45
789.06	0.77
789.234	0.9
789.408	0.24
789.582	0.29
789.756	0.46
789.93	0.37
790.104	0.41
790.278	0.34
790.452	0.3
790.626	0.56
790.8	0.37
790.973	0.67
791.147	0.69
791.321	0.76
791.495	0.69
791.669	0.48
791.843	0.64
792.016	0.67
792.19	0.96
792.364	0.21
792.538	1.06
792.711	0.69
792.885	0.44
793.059	0.32
793.233	0.13
793.406	0.75
793.58	0.6
793.754	0.66
793.927	0.49
794.101	1.01
794.274	0.75
794.448	0.61
794.622	0.22
794.795	0.87
794.969	0.34
795.142	0.72
795.316	0.4
795.489	0.3
795.663	0.92
795.836	0.63
796.009	0.22
796.183	0.75
796.356	0.45
796.53	0.51
796.703	0.46
796.876	1.1
797.05	0.33
797.223	0.53
797.396	0.69
797.57	0.65
797.743	0.74
797.916	0.66
798.09	0.56
798.263	0.91
798.436	0.52
798.609	0.59
798.782	0.38
798.956	0.53
799.129	0.6
799.302	0.55
799.475	0.52
799.648	0.25
799.821	0.46
799.994	0.5
800.167	0.25
800.34	0.36
800.514	0.75
800.687	0.81
800.86	0.55
801.033	0.55
801.206	0.67
801.379	0.19
801.551	1
801.724	0.67
801.897	0.86
802.07	0.6
802.243	0.13
802.416	0.54
802.589	0.5
802.762	0.78
802.935	0.46
803.107	0.56
803.28	0.77
803.453	0.78
803.626	0.44
803.798	0.76
803.971	0.25
804.144	0.69
804.317	0.83
804.489	1.31
804.662	0.71
804.835	0.6
805.007	0.25
805.18	1.05
805.353	0.61
805.525	0.27
805.698	0.43
805.87	1.06
806.043	0.76
806.215	0.53
806.388	0.63
806.56	0.75
806.733	0.89
806.905	0.63
807.078	0.25
807.25	0.62
807.423	0.56
807.595	0.5
807.768	0.54
807.94	0.92
808.112	0.68
808.285	0.69
808.457	0.77
808.629	0.76
808.802	1.1
808.974	0.48
809.146	0.42
809.318	0.37
809.491	1.19
809.663	0.82
809.835	0.46
810.007	1
810.18	0.78
810.352	0.27
810.524	0.95
810.696	1.03
810.868	1.15
811.04	0.79
811.212	0.57
811.384	1.17
811.556	0.93
811.728	0.57
811.901	1.6
812.073	0.35
812.245	0.84
812.417	0.39
812.589	-0.23
812.76	0.98
812.932	0.73
813.104	1.28
813.276	0.72
813.448	0.97
813.62	0.8
813.792	0.81
813.964	0.95
814.136	0.95
814.307	0.81
814.479	0.5
814.651	0.43
814.823	1.79
814.995	0.71
815.166	1.04
815.338	0.32
815.51	0.22
815.681	1.53
815.853	0.77
816.025	1.09
816.196	1.9
816.368	0.91
816.54	0.38
816.711	0.26
816.883	1.36
817.054	1.84
817.226	0.12
817.398	1.16
817.569	0.41
817.741	0.84
817.912	0.43
818.084	0.65
818.255	1.32
818.426	0.71
818.598	0.81
818.769	0.6
818.941	0.85
819.112	1.42
819.283	1.19
819.455	0.46
819.626	0.66
819.798	1.49
819.969	0.7
820.14	0.53
820.311	0.69
820.483	1
820.654	0.76
820.825	0.65
820.996	0.64
821.168	0.31
821.339	0.53
821.51	0.52
821.681	0.29
821.852	0.67
822.023	0.47
822.195	0.59
822.366	0.71
822.537	0.68
822.708	0.72
822.879	0.5
823.05	1.47
823.221	0.67
823.392	0.6
823.563	1.02
823.734	0.91
823.905	0.31
824.076	0.87
824.247	0.76
824.418	0.59
824.589	1.76
824.759	1.02
824.93	0.3
825.101	0.71
825.272	1.41
825.443	1.32
825.614	1.42
825.784	0.04
825.955	1.63
826.126	1.34
826.297	1.06
826.467	1.53
826.638	1.35
826.809	0.22
826.98	0.73
827.15	0.92
827.321	0.93
827.492	1.89
827.662	0.45
827.833	2.57
828.003	1.4
828.174	0.49
828.345	0.09
828.515	1.98
828.686	1.3
828.856	0.95
829.027	1.3
829.197	1.41
829.368	1.35
829.538	0.7
829.709	0.89
829.879	1.73
830.049	0.99
830.22	0.64
830.39	0.71
830.56	1.2
830.731	0.9
830.901	0.35
831.072	1.15
831.242	1.25
831.412	0.84
831.582	1.61
831.753	0
831.923	1.43
832.093	1.22
832.263	1.02
832.434	0.58
832.604	0.26
832.774	1.43
832.944	0.67
833.114	0.55
833.284	1.5
833.454	0.68
833.624	0.81
833.795	0.74
833.965	1.59
834.135	2.64
834.305	-0.12
834.475	0.77
834.645	1.06
834.815	0.66
834.985	0.77
835.155	0.94
835.325	1.78
835.494	1.15
835.664	0.99
835.834	0.54
836.004	1.1
836.174	1.45
836.344	0.9
836.514	0.38
836.684	0.93
836.853	1.21
837.023	1.73
837.193	0.95
837.363	1.96
837.532	1.76
837.702	0.96
837.872	0.91
838.041	1.92
838.211	2.04
838.381	0.45
838.55	0.72
838.72	3.45
838.89	2.35
839.059	0.88
839.229	0.51
839.398	2.41
839.568	1
839.738	0.67
839.907	1.77
840.077	1.11
840.246	1.56
840.416	0.51
840.585	0.43
840.755	2.92
840.924	1.85
841.093	0.42
841.263	0.61
841.432	1.52
841.602	0.66
841.771	0.87
841.94	1.39
842.11	2.53
842.279	3.22
842.448	0.22
842.617	1.18
842.787	2.69
842.956	0.28
843.125	2.12
843.294	1.27
843.464	1.91
843.633	2.03
843.802	-0.02
843.971	1.77
844.14	1.68
844.309	1.95
844.479	0.24
844.648	-0.23
844.817	1.48
844.986	1.38
845.155	1.23
845.324	1.62
845.493	1.9
845.662	1.51
845.831	2
846	2.2
846.169	0.45
846.338	2.34
846.507	1.37
846.676	1.38
846.844	0.66
847.013	3
847.182	1.59
847.351	0.77
847.52	1.24
847.689	2.19
847.858	1.63
848.026	0.55
848.195	0.85
848.364	0.98
848.533	0.07
848.701	0.43
848.87	1.18
849.039	2.75
849.207	2.04
849.376	3
849.545	2.63
849.713	0.67
849.882	0.96
850.051	0.96
850.219	1.36
850.388	2.04
850.556	1.27
850.725	0.88
850.893	2.21
851.062	1.18
851.23	1.82
851.399	0.7
851.567	0.26
851.736	0.73
851.904	0.26
852.073	0.84
852.241	2.08
852.41	1.51
852.578	1.48
852.746	1.01
852.915	2.29
853.083	1.73
853.251	1
853.42	1.28
853.588	1.51
853.756	4.18
853.924	1.72
854.093	1.56
854.261	2.25
854.429	1
854.597	1.5
854.765	0.75
854.934	2.26
855.102	2.96
855.27	1.41
855.438	2.48
855.606	2.31
855.774	3.21
855.942	1.46
856.11	0.34
856.278	2.2
856.446	2.5
856.614	1.05
856.782	1.44
856.95	2.62
857.118	1.52
857.286	3.72
857.454	0.91
857.622	2.85
857.79	1.84
857.958	0.62
858.126	2.52
858.294	1.34
858.462	0.56
858.629	1.45
858.797	1.47
858.965	2.29
859.133	1.98
859.301	1.59
859.468	2.09
859.636	0.43
859.804	2.9
859.971	2.14
860.139	1.21
860.307	2.82
860.474	1.62
860.642	0.65
860.81	1.34
860.977	1.32
861.145	3.51
861.313	1.87
861.48	1.15
861.648	2.65
861.815	2.83
861.983	-0.04
862.15	0.79
862.318	3.03
862.485	3.39
862.653	0.51
862.82	0.64
862.988	4.19
863.155	3.53
863.322	1.14
863.49	1.04
863.657	1.4
863.824	3.9
863.992	2.44
864.159	2.89
864.326	4.21
864.494	0.38
864.661	4.63
864.828	1.86
864.996	3.36
865.163	3.03
865.33	1.54
865.497	1.14
865.664	1.42
865.832	1.1
865.999	1.41
866.166	1.5
866.333	1.98
866.5	2.53
866.667	0.94
866.834	1.39
867.001	4.5
867.168	1.29
867.335	1.85
867.502	-0.34
867.669	2.72
867.836	3.52
868.003	2.05
868.17	3.79
868.337	3.76
868.504	3.35
868.671	0.66
868.838	-0.06
869.005	2.89
869.172	3.39
869.339	2.32
869.505	2.25
869.672	2.32
869.839	2.88
870.006	1.49
870.173	-0.63
870.339	1.84
870.506	3.88
870.673	1.31
870.84	3.88
871.006	2.56
871.173	2.62
871.34	2.6
871.506	1.33
871.673	2.85
871.839	0.31
872.006	2.35
872.173	2.92
872.339	2.55
872.506	4.8
872.672	2.49
872.839	0.1
873.005	3.26
873.172	4.7
873.338	5.12
873.505	2.56
873.671	2.08
873.838	3.43
874.004	1.42
874.171	1.62
874.337	2.27
874.503	4.07
874.67	1.34
874.836	1.34
875.002	3.33
875.169	4.15
875.335	2.98
875.501	3.01
875.668	4.73
875.834	2.83
876	1.99
876.166	4.75
876.332	5.49
876.499	4.13
876.665	1.63
876.831	3.06
876.997	3.89
877.163	3.36
877.329	2.67
877.495	2.85
877.662	4.15
877.828	2.36
877.994	2.43
878.16	-0.13
878.326	1.75
878.492	2.01
878.658	-0.45
878.824	3.76
878.99	3.92
879.156	0.09
879.322	5.3
879.487	1.85
879.653	2.57
879.819	1.88
879.985	1.89
880.151	1.25
880.317	2.31
880.483	3.88
880.648	4.03
880.814	0.35
880.98	1.08
881.146	1.07
881.312	1.91
881.477	1.59
881.643	3.72
881.809	5.38
881.974	3.38
882.14	-0.47
882.306	3.36
882.471	5.5
882.637	1.72
882.803	2.6
882.968	4.8
883.134	6.73
883.299	3.27
883.465	1.58
883.63	4.64
883.796	2.7
883.961	5.1
884.127	2.67
884.292	-1.21
884.458	0.12
884.623	0.12
