Data from Apollo_Calib_20240827__AbsoluteIrradiance__9__23-18-01-054.txt Node

Date: Tue Aug 27 23:18:01 BST 2024
User: biology
Spectrometer: FLMT08252
Trigger mode: 0
Integration Time (sec): 5.000000E-1
Scans to average: 5
Electric dark correction enabled: true
Nonlinearity correction enabled: false
Boxcar width: 0
XAxis mode: Wavelengths
Number of Pixels in Spectrum: 3648
>>>>>Begin Spectral Data<<<<<
179.588	-0
179.809	-0
180.03	-0
180.251	-0
180.473	-0
180.694	0
180.915	0
181.136	0
181.357	-0
181.578	0
181.799	-0
182.02	-0
182.241	0
182.462	0
182.683	0
182.904	-0
183.125	-0
183.346	0
183.567	0
183.788	0
184.009	0
184.23	0
184.451	0
184.672	0
184.892	0
185.113	0
185.334	0
185.555	0
185.776	0
185.996	0
186.217	0
186.438	0
186.659	0
186.879	0
187.1	0
187.321	0
187.541	0
187.762	0
187.983	0
188.203	0
188.424	0
188.644	0
188.865	0
189.086	0
189.306	0
189.527	0
189.747	0
189.968	0
190.188	0
190.409	0
190.629	0
190.849	0
191.07	0
191.29	0
191.511	0
191.731	0
191.951	0
192.172	0
192.392	0
192.612	0
192.833	0
193.053	0
193.273	0
193.493	0
193.714	0
193.934	0
194.154	0
194.374	0
194.594	0
194.815	0
195.035	0
195.255	0
195.475	0
195.695	0
195.915	0
196.135	0
196.355	0
196.575	0
196.795	0
197.015	0
197.235	0
197.455	0
197.675	0
197.895	0
198.115	0
198.335	0
198.555	0
198.775	0
198.995	0
199.214	0
199.434	0
199.654	0
199.874	0
200.094	3.01
200.313	2.06
200.533	2.29
200.753	2.16
200.973	3.2
201.192	3.3
201.412	1.81
201.632	2.36
201.851	3.18
202.071	1.55
202.291	2
202.51	1.42
202.73	3.15
202.95	2.01
203.169	1.55
203.389	2.14
203.608	2.71
203.828	1.44
204.047	2.16
204.267	2.17
204.486	2.15
204.706	1.9
204.925	1.65
205.145	1.51
205.364	1.92
205.583	2.2
205.803	1.53
206.022	1.38
206.242	1.69
206.461	1.49
206.68	1.59
206.9	1.64
207.119	2.25
207.338	2.09
207.557	1.25
207.777	1.59
207.996	1.31
208.215	1.62
208.434	1.31
208.654	1.47
208.873	1.59
209.092	1.7
209.311	1.06
209.53	1.32
209.749	1.18
209.968	1.27
210.187	1.3
210.407	1.05
210.626	1.15
210.845	1.55
211.064	1.25
211.283	1.07
211.502	1.44
211.721	1.28
211.94	1.2
212.159	1.51
212.377	1.25
212.596	1.56
212.815	1.38
213.034	1.07
213.253	1.3
213.472	1.37
213.691	1.14
213.91	0.84
214.128	0.9
214.347	1.44
214.566	0.9
214.785	0.88
215.003	0.94
215.222	1
215.441	1.02
215.66	0.89
215.878	0.99
216.097	1.3
216.316	0.92
216.534	0.93
216.753	1
216.972	0.93
217.19	0.98
217.409	0.88
217.627	0.73
217.846	0.83
218.064	1
218.283	0.69
218.501	1.38
218.72	1.17
218.938	0.71
219.157	0.8
219.375	1.06
219.594	1.05
219.812	0.69
220.031	0.74
220.249	1.04
220.467	1.06
220.686	0.76
220.904	0.69
221.122	0.63
221.341	1.08
221.559	0.88
221.777	0.63
221.995	0.88
222.214	0.78
222.432	0.57
222.65	0.91
222.868	0.83
223.086	0.69
223.305	0.95
223.523	0.61
223.741	0.97
223.959	0.63
224.177	0.49
224.395	0.66
224.613	0.84
224.831	0.83
225.049	0.56
225.267	0.66
225.485	0.67
225.703	0.64
225.921	0.62
226.139	0.73
226.357	0.79
226.575	0.78
226.793	0.62
227.011	1.3
227.229	0.62
227.447	0.81
227.665	0.62
227.883	0.48
228.1	0.68
228.318	0.56
228.536	0.47
228.754	0.51
228.972	0.75
229.189	0.77
229.407	0.57
229.625	0.6
229.843	0.64
230.06	0.71
230.278	0.54
230.496	0.85
230.713	0.61
230.931	0.61
231.149	0.63
231.366	0.51
231.584	0.62
231.801	0.79
232.019	0.58
232.236	0.54
232.454	0.59
232.671	0.69
232.889	0.69
233.106	0.63
233.324	0.62
233.541	0.62
233.759	0.51
233.976	0.52
234.194	0.54
234.411	0.57
234.628	0.53
234.846	0.52
235.063	0.49
235.28	0.56
235.498	0.6
235.715	0.49
235.932	0.53
236.149	0.51
236.367	0.55
236.584	0.6
236.801	0.44
237.018	0.62
237.236	0.55
237.453	0.37
237.67	0.65
237.887	0.45
238.104	0.55
238.321	0.47
238.538	0.59
238.755	0.59
238.973	0.37
239.19	0.59
239.407	0.5
239.624	0.55
239.841	0.4
240.058	0.56
240.275	0.63
240.492	0.38
240.709	0.52
240.925	0.45
241.142	0.53
241.359	0.37
241.576	0.49
241.793	0.49
242.01	0.49
242.227	0.65
242.444	0.64
242.66	0.64
242.877	0.49
243.094	0.44
243.311	0.49
243.527	0.48
243.744	0.49
243.961	0.55
244.178	0.44
244.394	0.41
244.611	0.64
244.828	0.63
245.044	0.37
245.261	0.43
245.477	0.6
245.694	0.5
245.911	0.42
246.127	0.46
246.344	0.64
246.56	0.54
246.777	0.51
246.993	0.46
247.21	0.37
247.426	0.55
247.643	0.38
247.859	0.36
248.076	0.36
248.292	0.62
248.508	0.45
248.725	0.56
248.941	0.5
249.157	0.56
249.374	0.47
249.59	0.43
249.806	0.41
250.023	0.47
250.239	0.4
250.455	0.37
250.671	0.42
250.888	0.44
251.104	0.5
251.32	0.4
251.536	0.42
251.752	0.42
251.969	0.51
252.185	0.48
252.401	0.62
252.617	0.46
252.833	0.43
253.049	0.43
253.265	0.45
253.481	0.49
253.697	0.41
253.913	0.41
254.129	0.34
254.345	0.45
254.561	0.34
254.777	0.41
254.993	0.51
255.209	0.38
255.425	0.38
255.641	0.38
255.857	0.49
256.073	0.44
256.288	0.37
256.504	0.36
256.72	0.45
256.936	0.5
257.152	0.38
257.367	0.33
257.583	0.38
257.799	0.42
258.015	0.34
258.23	0.3
258.446	0.53
258.662	0.43
258.877	0.38
259.093	0.45
259.309	0.37
259.524	0.46
259.74	0.35
259.955	0.31
260.171	0.43
260.387	0.33
260.602	0.53
260.818	0.42
261.033	0.32
261.249	0.35
261.464	0.41
261.68	0.34
261.895	0.38
262.11	0.47
262.326	0.32
262.541	0.27
262.757	0.4
262.972	0.41
263.187	0.4
263.403	0.33
263.618	0.44
263.833	0.42
264.049	0.36
264.264	0.29
264.479	0.42
264.694	0.42
264.91	0.3
265.125	0.29
265.34	0.44
265.555	0.51
265.77	0.43
265.986	0.33
266.201	0.44
266.416	0.4
266.631	0.42
266.846	0.39
267.061	0.4
267.276	0.4
267.491	0.27
267.706	0.4
267.921	0.41
268.136	0.43
268.351	0.35
268.566	0.25
268.781	0.46
268.996	0.35
269.211	0.34
269.426	0.26
269.641	0.28
269.856	0.44
270.071	0.32
270.285	0.33
270.5	0.47
270.715	0.44
270.93	0.34
271.145	0.43
271.359	0.39
271.574	0.3
271.789	0.31
272.004	0.39
272.218	0.35
272.433	0.37
272.648	0.26
272.862	0.45
273.077	0.29
273.292	0.36
273.506	0.31
273.721	0.37
273.936	0.33
274.15	0.32
274.365	0.38
274.579	0.39
274.794	0.33
275.008	0.4
275.223	0.27
275.437	0.36
275.652	0.45
275.866	0.29
276.081	0.35
276.295	0.39
276.509	0.27
276.724	0.24
276.938	0.4
277.153	0.41
277.367	0.42
277.581	0.26
277.796	0.26
278.01	0.25
278.224	0.38
278.438	0.4
278.653	0.3
278.867	0.35
279.081	0.16
279.295	0.3
279.51	0.39
279.724	0.25
279.938	0.32
280.152	0.36
280.366	0.21
280.58	0.36
280.794	0.35
281.008	0.3
281.222	0.35
281.437	0.44
281.651	0.34
281.865	0.36
282.079	0.3
282.293	0.29
282.507	0.22
282.721	0.27
282.935	0.35
283.148	0.25
283.362	0.29
283.576	0.23
283.79	0.28
284.004	0.3
284.218	0.31
284.432	0.28
284.646	0.3
284.859	0.23
285.073	0.27
285.287	0.3
285.501	0.33
285.714	0.3
285.928	0.32
286.142	0.3
286.356	0.27
286.569	0.25
286.783	0.38
286.997	0.33
287.21	0.36
287.424	0.3
287.637	0.27
287.851	0.3
288.065	0.31
288.278	0.29
288.492	0.3
288.705	0.26
288.919	0.35
289.132	0.31
289.346	0.34
289.559	0.23
289.773	0.24
289.986	0.27
290.2	0.34
290.413	0.28
290.626	0.25
290.84	0.3
291.053	0.26
291.267	0.34
291.48	0.28
291.693	0.26
291.906	0.23
292.12	0.24
292.333	0.19
292.546	0.3
292.76	0.35
292.973	0.28
293.186	0.35
293.399	0.29
293.612	0.35
293.826	0.32
294.039	0.3
294.252	0.27
294.465	0.28
294.678	0.31
294.891	0.33
295.104	0.24
295.317	0.29
295.53	0.28
295.743	0.26
295.956	0.26
296.169	0.32
296.382	0.29
296.595	0.28
296.808	0.26
297.021	0.34
297.234	0.3
297.447	0.28
297.66	0.31
297.873	0.26
298.086	0.26
298.299	0.26
298.511	0.24
298.724	0.29
298.937	0.26
299.15	0.24
299.363	0.32
299.575	0.3
299.788	0.3
300.001	0.24
300.213	0.24
300.426	0.24
300.639	0.21
300.852	0.23
301.064	0.28
301.277	0.28
301.489	0.29
301.702	0.32
301.915	0.25
302.127	0.26
302.34	0.29
302.552	0.27
302.765	0.21
302.977	0.34
303.19	0.25
303.402	0.27
303.615	0.24
303.827	0.22
304.04	0.27
304.252	0.31
304.464	0.22
304.677	0.33
304.889	0.29
305.102	0.25
305.314	0.26
305.526	0.29
305.739	0.28
305.951	0.26
306.163	0.28
306.375	0.32
306.588	0.21
306.8	0.21
307.012	0.25
307.224	0.3
307.436	0.31
307.649	0.18
307.861	0.32
308.073	0.33
308.285	0.24
308.497	0.24
308.709	0.26
308.921	0.33
309.133	0.31
309.346	0.23
309.558	0.3
309.77	0.3
309.982	0.29
310.194	0.31
310.406	0.21
310.617	0.34
310.829	0.27
311.041	0.26
311.253	0.23
311.465	0.26
311.677	0.27
311.889	0.24
312.101	0.23
312.313	0.27
312.524	0.34
312.736	0.21
312.948	0.26
313.16	0.35
313.372	0.27
313.583	0.31
313.795	0.23
314.007	0.27
314.218	0.28
314.43	0.28
314.642	0.25
314.853	0.21
315.065	0.26
315.277	0.3
315.488	0.29
315.7	0.33
315.912	0.25
316.123	0.3
316.335	0.26
316.546	0.33
316.758	0.26
316.969	0.22
317.181	0.25
317.392	0.25
317.604	0.29
317.815	0.23
318.026	0.22
318.238	0.27
318.449	0.27
318.661	0.24
318.872	0.23
319.083	0.24
319.295	0.33
319.506	0.28
319.717	0.29
319.929	0.25
320.14	0.26
320.351	0.3
320.562	0.26
320.774	0.3
320.985	0.25
321.196	0.23
321.407	0.19
321.618	0.32
321.829	0.26
322.041	0.3
322.252	0.22
322.463	0.27
322.674	0.26
322.885	0.22
323.096	0.24
323.307	0.24
323.518	0.25
323.729	0.26
323.94	0.24
324.151	0.28
324.362	0.28
324.573	0.26
324.784	0.24
324.995	0.28
325.206	0.28
325.417	0.23
325.628	0.24
325.838	0.26
326.049	0.31
326.26	0.31
326.471	0.26
326.682	0.28
326.892	0.25
327.103	0.24
327.314	0.22
327.525	0.24
327.735	0.28
327.946	0.26
328.157	0.25
328.368	0.29
328.578	0.24
328.789	0.31
328.999	0.31
329.21	0.31
329.421	0.26
329.631	0.24
329.842	0.21
330.052	0.29
330.263	0.3
330.473	0.32
330.684	0.27
330.894	0.18
331.105	0.27
331.315	0.25
331.526	0.21
331.736	0.32
331.947	0.3
332.157	0.26
332.367	0.25
332.578	0.32
332.788	0.31
332.999	0.28
333.209	0.26
333.419	0.21
333.629	0.26
333.84	0.3
334.05	0.26
334.26	0.32
334.47	0.27
334.681	0.31
334.891	0.26
335.101	0.33
335.311	0.32
335.521	0.25
335.732	0.21
335.942	0.3
336.152	0.29
336.362	0.27
336.572	0.27
336.782	0.25
336.992	0.28
337.202	0.23
337.412	0.23
337.622	0.29
337.832	0.28
338.042	0.27
338.252	0.25
338.462	0.28
338.672	0.26
338.882	0.29
339.092	0.26
339.302	0.31
339.511	0.3
339.721	0.24
339.931	0.21
340.141	0.28
340.351	0.32
340.561	0.25
340.77	0.27
340.98	0.25
341.19	0.26
341.4	0.23
341.609	0.19
341.819	0.26
342.029	0.25
342.238	0.25
342.448	0.26
342.658	0.31
342.867	0.27
343.077	0.24
343.286	0.22
343.496	0.24
343.706	0.34
343.915	0.24
344.125	0.26
344.334	0.3
344.544	0.19
344.753	0.23
344.963	0.25
345.172	0.26
345.381	0.25
345.591	0.22
345.8	0.26
346.01	0.29
346.219	0.3
346.428	0.13
346.638	0.28
346.847	0.26
347.056	0.28
347.266	0.28
347.475	0.29
347.684	0.31
347.893	0.27
348.103	0.28
348.312	0.25
348.521	0.25
348.73	0.26
348.94	0.31
349.149	0.24
349.358	0.25
349.567	0.24
349.776	0.22
349.985	0.24
350.194	0.27
350.403	0.28
350.612	0.23
350.821	0.24
351.03	0.26
351.239	0.17
351.448	0.24
351.657	0.24
351.866	0.3
352.075	0.26
352.284	0.29
352.493	0.18
352.702	0.29
352.911	0.26
353.12	0.3
353.329	0.28
353.538	0.27
353.746	0.26
353.955	0.26
354.164	0.28
354.373	0.27
354.582	0.29
354.79	0.27
354.999	0.26
355.208	0.22
355.416	0.3
355.625	0.22
355.834	0.2
356.042	0.27
356.251	0.22
356.46	0.21
356.668	0.28
356.877	0.33
357.085	0.3
357.294	0.21
357.503	0.25
357.711	0.25
357.92	0.39
358.128	0.32
358.337	0.25
358.545	0.29
358.754	0.2
358.962	0.28
359.17	0.25
359.379	0.26
359.587	0.29
359.796	0.25
360.004	0.29
360.212	0.22
360.421	0.28
360.629	0.24
360.837	0.27
361.046	0.27
361.254	0.4
361.462	0.24
361.67	0.27
361.879	0.24
362.087	0.3
362.295	0.25
362.503	0.18
362.711	0.23
362.92	0.28
363.128	0.22
363.336	0.21
363.544	0.2
363.752	0.25
363.96	0.24
364.168	0.2
364.376	0.25
364.584	0.24
364.792	0.31
365	0.28
365.208	0.26
365.416	0.25
365.624	0.32
365.832	0.21
366.04	0.28
366.248	0.26
366.456	0.27
366.664	0.26
366.872	0.25
367.079	0.25
367.287	0.26
367.495	0.28
367.703	0.24
367.911	0.22
368.118	0.2
368.326	0.26
368.534	0.19
368.742	0.32
368.949	0.18
369.157	0.24
369.365	0.27
369.572	0.28
369.78	0.23
369.988	0.23
370.195	0.23
370.403	0.28
370.61	0.27
370.818	0.28
371.026	0.31
371.233	0.23
371.441	0.24
371.648	0.24
371.856	0.27
372.063	0.26
372.271	0.27
372.478	0.27
372.685	0.23
372.893	0.33
373.1	0.26
373.308	0.26
373.515	0.3
373.722	0.26
373.93	0.28
374.137	0.28
374.344	0.32
374.552	0.28
374.759	0.32
374.966	0.27
375.173	0.27
375.381	0.31
375.588	0.26
375.795	0.18
376.002	0.3
376.209	0.22
376.417	0.26
376.624	0.28
376.831	0.31
377.038	0.24
377.245	0.18
377.452	0.3
377.659	0.27
377.866	0.24
378.073	0.23
378.28	0.29
378.487	0.28
378.694	0.3
378.901	0.28
379.108	0.21
379.315	0.28
379.522	0.29
379.729	0.28
379.936	0.29
380.143	0.25
380.35	0.29
380.557	0.24
380.763	0.28
380.97	0.26
381.177	0.27
381.384	0.27
381.591	0.24
381.797	0.28
382.004	0.28
382.211	0.25
382.418	0.27
382.624	0.3
382.831	0.29
383.038	0.24
383.244	0.29
383.451	0.27
383.658	0.3
383.864	0.28
384.071	0.22
384.277	0.36
384.484	0.28
384.69	0.33
384.897	0.26
385.103	0.25
385.31	0.23
385.516	0.24
385.723	0.28
385.929	0.22
386.136	0.22
386.342	0.33
386.549	0.26
386.755	0.34
386.961	0.31
387.168	0.27
387.374	0.29
387.58	0.33
387.787	0.3
387.993	0.33
388.199	0.31
388.406	0.25
388.612	0.29
388.818	0.28
389.024	0.33
389.231	0.32
389.437	0.3
389.643	0.33
389.849	0.3
390.055	0.29
390.261	0.31
390.467	0.3
390.674	0.31
390.88	0.28
391.086	0.3
391.292	0.28
391.498	0.32
391.704	0.29
391.91	0.29
392.116	0.26
392.322	0.21
392.528	0.34
392.734	0.32
392.94	0.35
393.146	0.28
393.352	0.31
393.557	0.3
393.763	0.27
393.969	0.35
394.175	0.32
394.381	0.31
394.587	0.31
394.792	0.3
394.998	0.34
395.204	0.39
395.41	0.29
395.615	0.35
395.821	0.38
396.027	0.34
396.233	0.31
396.438	0.39
396.644	0.38
396.85	0.35
397.055	0.35
397.261	0.35
397.466	0.38
397.672	0.37
397.878	0.38
398.083	0.36
398.289	0.35
398.494	0.34
398.7	0.36
398.905	0.27
399.111	0.42
399.316	0.3
399.522	0.42
399.727	0.32
399.932	0.36
400.138	0.35
400.343	0.36
400.549	0.32
400.754	0.34
400.959	0.39
401.165	0.4
401.37	0.38
401.575	0.48
401.78	0.33
401.986	0.34
402.191	0.33
402.396	0.36
402.601	0.41
402.807	0.39
403.012	0.44
403.217	0.43
403.422	0.42
403.627	0.4
403.832	0.39
404.037	0.42
404.243	0.46
404.448	0.38
404.653	0.4
404.858	0.47
405.063	0.46
405.268	0.44
405.473	0.36
405.678	0.44
405.883	0.55
406.088	0.47
406.293	0.42
406.498	0.52
406.703	0.48
406.907	0.48
407.112	0.48
407.317	0.51
407.522	0.58
407.727	0.47
407.932	0.57
408.136	0.62
408.341	0.56
408.546	0.58
408.751	0.61
408.956	0.6
409.16	0.63
409.365	0.66
409.57	0.58
409.774	0.66
409.979	0.64
410.184	0.69
410.388	0.64
410.593	0.69
410.798	0.73
411.002	0.76
411.207	0.75
411.411	0.79
411.616	0.81
411.82	0.8
412.025	0.85
412.229	0.81
412.434	0.95
412.638	0.94
412.843	0.95
413.047	0.98
413.252	0.94
413.456	1.01
413.66	1.06
413.865	1.06
414.069	1.12
414.273	1.08
414.478	1.12
414.682	1.15
414.886	1.2
415.091	1.21
415.295	1.16
415.499	1.37
415.703	1.34
415.908	1.48
416.112	1.38
416.316	1.53
416.52	1.5
416.724	1.55
416.929	1.55
417.133	1.84
417.337	1.69
417.541	1.77
417.745	1.81
417.949	1.96
418.153	1.96
418.357	1.99
418.561	2.24
418.765	2.11
418.969	2.34
419.173	2.45
419.377	2.35
419.581	2.51
419.785	2.53
419.989	2.54
420.193	2.71
420.397	2.84
420.601	2.91
420.804	3.06
421.008	2.99
421.212	3.2
421.416	3.16
421.62	3.18
421.823	3.3
422.027	3.47
422.231	3.46
422.435	3.42
422.638	3.56
422.842	3.59
423.046	3.69
423.249	3.78
423.453	3.84
423.657	3.99
423.86	4.1
424.064	4.18
424.268	4.39
424.471	4.36
424.675	4.68
424.878	4.64
425.082	4.76
425.285	5.05
425.489	5.03
425.692	5.11
425.896	5.14
426.099	5.33
426.303	5.51
426.506	5.7
426.71	5.83
426.913	6
427.116	6.24
427.32	6.29
427.523	6.25
427.726	6.59
427.93	6.66
428.133	7.05
428.336	7.23
428.54	7.28
428.743	7.46
428.946	7.73
429.149	7.81
429.353	7.82
429.556	7.98
429.759	8.03
429.962	8.07
430.165	8.24
430.368	7.8
430.571	7.98
430.775	8.04
430.978	8.04
431.181	8.06
431.384	8.04
431.587	8.34
431.79	8.6
431.993	8.52
432.196	8.96
432.399	9.12
432.602	9.37
432.805	9.35
433.008	9.98
433.211	9.87
433.414	10.22
433.616	10.11
433.819	10.12
434.022	10.38
434.225	10.44
434.428	10.52
434.631	10.93
434.833	10.73
435.036	11.02
435.239	11.25
435.442	11.25
435.645	11.41
435.847	11.47
436.05	11.68
436.253	12.13
436.455	12.02
436.658	11.92
436.861	12.23
437.063	12.27
437.266	12.42
437.468	12.69
437.671	12.87
437.874	13.06
438.076	12.85
438.279	13.37
438.481	13.41
438.684	14.13
438.886	13.74
439.089	14.11
439.291	14.14
439.494	14.34
439.696	14.59
439.899	15.21
440.101	15.48
440.303	15.8
440.506	16.4
440.708	16.24
440.91	16.37
441.113	16.61
441.315	16.67
441.517	16.73
441.72	17.12
441.922	16.72
442.124	16.7
442.326	17.2
442.529	17.27
442.731	17.29
442.933	17.57
443.135	17.33
443.337	17.44
443.539	17.86
443.742	17.55
443.944	18.26
444.146	17.83
444.348	18.04
444.55	17.82
444.752	18.1
444.954	18.13
445.156	17.97
445.358	18.55
445.56	18.79
445.762	18.41
445.964	18.73
446.166	18.59
446.368	18.57
446.57	18.53
446.772	18.19
446.974	17.99
447.175	18.21
447.377	17.91
447.579	18.38
447.781	18.16
447.983	17.86
448.184	17.44
448.386	17.94
448.588	17.29
448.79	17.19
448.991	17.67
449.193	17.62
449.395	17.08
449.597	16.53
449.798	16.56
450	16.14
450.202	15.98
450.403	16.03
450.605	15.75
450.806	15.52
451.008	15.44
451.21	15.08
451.411	14.84
451.613	14.04
451.814	14.34
452.016	14.19
452.217	13.43
452.419	13.63
452.62	13.1
452.821	12.97
453.023	12.77
453.224	12.36
453.426	12.03
453.627	11.35
453.828	11.39
454.03	11.42
454.231	11.57
454.432	11.28
454.634	10.99
454.835	10.67
455.036	10.59
455.238	10.24
455.439	9.96
455.64	9.72
455.841	9.6
456.042	9.66
456.244	9.38
456.445	9.1
456.646	8.79
456.847	8.74
457.048	8.56
457.249	8.6
457.45	8.27
457.651	7.86
457.852	7.62
458.054	7.44
458.255	7.38
458.456	7.36
458.657	7.17
458.858	6.85
459.058	6.79
459.259	6.75
459.46	6.65
459.661	6.55
459.862	6.5
460.063	6.47
460.264	6.3
460.465	6.06
460.666	6.13
460.866	5.92
461.067	5.62
461.268	5.59
461.469	5.62
461.67	5.48
461.87	5.33
462.071	5.34
462.272	5.2
462.473	5.14
462.673	5.37
462.874	5.35
463.075	5.22
463.275	5.14
463.476	5.22
463.676	5.23
463.877	5.09
464.078	5
464.278	4.95
464.479	4.89
464.679	4.86
464.88	4.88
465.08	4.71
465.281	4.59
465.481	4.43
465.682	4.15
465.882	4.19
466.083	4.14
466.283	4.1
466.483	4.03
466.684	3.81
466.884	3.71
467.085	3.75
467.285	3.74
467.485	3.72
467.686	3.61
467.886	3.46
468.086	3.45
468.286	3.34
468.487	3.54
468.687	3.29
468.887	3.31
469.087	3.34
469.287	3.32
469.488	3.11
469.688	3.23
469.888	3.21
470.088	3.16
470.288	3.1
470.488	3.05
470.688	2.93
470.888	2.94
471.088	2.76
471.288	2.86
471.488	2.83
471.688	2.72
471.888	2.68
472.088	2.81
472.288	2.75
472.488	2.6
472.688	2.67
472.888	2.6
473.088	2.59
473.288	2.53
473.488	2.48
473.688	2.66
473.887	2.5
474.087	2.52
474.287	2.53
474.487	2.41
474.687	2.47
474.886	2.43
475.086	2.36
475.286	2.33
475.486	2.33
475.685	2.32
475.885	2.26
476.085	2.32
476.284	2.28
476.484	2.28
476.684	2.27
476.883	2.28
477.083	2.17
477.282	2.19
477.482	2.21
477.681	2.2
477.881	2.07
478.08	2.1
478.28	2.01
478.479	2.09
478.679	2.09
478.878	2.05
479.078	2.14
479.277	2.1
479.477	2.06
479.676	2.01
479.875	2.07
480.075	2.04
480.274	2.04
480.473	2.08
480.673	1.99
480.872	2.03
481.071	2.05
481.271	2.09
481.47	2
481.669	2.02
481.868	1.96
482.067	2.02
482.267	1.97
482.466	1.92
482.665	1.96
482.864	1.98
483.063	1.98
483.262	1.98
483.461	2.05
483.661	2.05
483.86	2.01
484.059	2.07
484.258	2.04
484.457	2.06
484.656	2.06
484.855	2.08
485.054	1.96
485.253	2.01
485.452	1.99
485.651	2.06
485.849	2
486.048	2.06
486.247	2.04
486.446	2.09
486.645	2.06
486.844	2.07
487.043	2.07
487.241	2.1
487.44	2.1
487.639	2.16
487.838	2.12
488.037	2.1
488.235	2.16
488.434	2.2
488.633	2.06
488.831	2.25
489.03	2.19
489.229	2.22
489.427	2.23
489.626	2.25
489.825	2.23
490.023	2.33
490.222	2.28
490.42	2.26
490.619	2.29
490.817	2.38
491.016	2.35
491.214	2.4
491.413	2.42
491.611	2.37
491.81	2.42
492.008	2.43
492.207	2.55
492.405	2.49
492.604	2.45
492.802	2.54
493	2.58
493.199	2.61
493.397	2.66
493.595	2.7
493.794	2.63
493.992	2.8
494.19	2.74
494.388	2.79
494.587	2.72
494.785	2.77
494.983	2.75
495.181	2.87
495.379	2.88
495.578	2.94
495.776	2.95
495.974	2.9
496.172	2.93
496.37	3.09
496.568	3.12
496.766	3.1
496.964	3.13
497.162	3.15
497.36	3.2
497.558	3.22
497.756	3.25
497.954	3.28
498.152	3.35
498.35	3.45
498.548	3.36
498.746	3.36
498.944	3.38
499.142	3.46
499.34	3.52
499.538	3.6
499.736	3.49
499.933	3.6
500.131	3.59
500.329	3.78
500.527	3.74
500.725	3.84
500.922	3.82
501.12	3.85
501.318	3.96
501.516	3.93
501.713	4.03
501.911	3.99
502.109	3.99
502.306	4.08
502.504	3.97
502.701	4.11
502.899	4.17
503.097	4.29
503.294	4.16
503.492	4.34
503.689	4.4
503.887	4.36
504.084	4.41
504.282	4.4
504.479	4.4
504.677	4.52
504.874	4.52
505.072	4.46
505.269	4.7
505.466	4.68
505.664	4.71
505.861	4.66
506.059	4.81
506.256	4.78
506.453	4.77
506.651	4.87
506.848	4.99
507.045	4.93
507.242	4.98
507.44	5
507.637	5.08
507.834	5.07
508.031	5.18
508.229	5.11
508.426	5.03
508.623	5.27
508.82	5.29
509.017	5.24
509.214	5.25
509.411	5.37
509.608	5.34
509.805	5.47
510.003	5.4
510.2	5.47
510.397	5.62
510.594	5.52
510.791	5.68
510.988	5.6
511.184	5.56
511.381	5.5
511.578	5.69
511.775	5.77
511.972	5.75
512.169	5.81
512.366	5.8
512.563	5.91
512.76	5.99
512.956	5.98
513.153	5.89
513.35	5.93
513.547	5.9
513.744	6.03
513.94	6.05
514.137	6.12
514.334	6.1
514.53	6.16
514.727	6.35
514.924	6.19
515.12	6.26
515.317	6.23
515.514	6.18
515.71	6.15
515.907	6.39
516.103	6.38
516.3	6.35
516.497	6.42
516.693	6.45
516.89	6.44
517.086	6.5
517.283	6.51
517.479	6.33
517.676	6.56
517.872	6.67
518.068	6.64
518.265	6.58
518.461	6.54
518.658	6.66
518.854	6.68
519.05	6.76
519.247	6.81
519.443	6.69
519.639	6.75
519.836	6.76
520.032	6.75
520.228	6.83
520.424	6.83
520.621	6.96
520.817	6.95
521.013	6.93
521.209	7.06
521.405	7.05
521.601	7.05
521.798	7.02
521.994	7.01
522.19	6.92
522.386	6.99
522.582	7.1
522.778	7.23
522.974	7.08
523.17	7.07
523.366	7.06
523.562	7.12
523.758	7.13
523.954	7.04
524.15	7.25
524.346	7.24
524.542	7.2
524.738	7.23
524.934	7.36
525.129	7.28
525.325	7.2
525.521	7.16
525.717	7.45
525.913	7.26
526.109	7.34
526.304	7.41
526.5	7.41
526.696	7.44
526.892	7.35
527.087	7.54
527.283	7.5
527.479	7.42
527.674	7.32
527.87	7.44
528.066	7.49
528.261	7.53
528.457	7.41
528.653	7.56
528.848	7.59
529.044	7.64
529.239	7.49
529.435	7.43
529.63	7.5
529.826	7.52
530.021	7.55
530.217	7.57
530.412	7.59
530.608	7.61
530.803	7.59
530.999	7.45
531.194	7.59
531.389	7.69
531.585	7.66
531.78	7.74
531.975	7.6
532.171	7.7
532.366	7.72
532.561	7.71
532.757	7.71
532.952	7.85
533.147	7.56
533.342	7.81
533.538	7.7
533.733	7.82
533.928	7.6
534.123	7.75
534.318	7.76
534.513	7.74
534.709	7.91
534.904	7.79
535.099	7.86
535.294	7.86
535.489	7.84
535.684	7.84
535.879	7.86
536.074	7.94
536.269	7.88
536.464	7.88
536.659	7.82
536.854	7.83
537.049	7.89
537.244	7.89
537.439	7.88
537.634	7.86
537.828	7.94
538.023	7.95
538.218	7.93
538.413	7.83
538.608	7.88
538.803	7.91
538.997	7.9
539.192	7.99
539.387	7.89
539.582	7.9
539.776	7.84
539.971	8.01
540.166	8.05
540.36	7.86
540.555	8.03
540.75	7.95
540.944	8
541.139	8.03
541.334	7.95
541.528	7.99
541.723	8.01
541.917	8.06
542.112	8
542.306	7.88
542.501	7.88
542.695	8.01
542.89	7.87
543.084	7.91
543.279	7.99
543.473	8.01
543.668	8.12
543.862	7.93
544.056	7.89
544.251	8.06
544.445	8.05
544.64	8.13
544.834	7.74
545.028	7.7
545.222	8
545.417	8.22
545.611	8.14
545.805	8.07
546	7.81
546.194	8.04
546.388	8.09
546.582	8
546.776	8
546.97	8.08
547.165	8.03
547.359	7.93
547.553	7.94
547.747	8.03
547.941	8.2
548.135	8.02
548.329	8.12
548.523	8.03
548.717	8.04
548.911	7.98
549.105	8.03
549.299	8.09
549.493	8.1
549.687	8.05
549.881	8.13
550.075	8.09
550.269	8.05
550.463	8.15
550.657	8.08
550.85	8.03
551.044	8.02
551.238	8.12
551.432	8.08
551.626	8.12
551.82	8.1
552.013	7.97
552.207	8.17
552.401	8.13
552.594	8.02
552.788	8.01
552.982	8.03
553.176	7.98
553.369	8.2
553.563	8.06
553.756	8.08
553.95	8.11
554.144	8.16
554.337	8.12
554.531	7.93
554.724	8.11
554.918	8.18
555.111	8.07
555.305	8.06
555.498	8.01
555.692	8.24
555.885	8.1
556.079	8.03
556.272	8.15
556.466	8.06
556.659	8.04
556.852	8.18
557.046	8.02
557.239	7.88
557.432	8.03
557.626	8.13
557.819	8.18
558.012	8.13
558.206	8.2
558.399	8.14
558.592	8.05
558.785	8.05
558.979	8.08
559.172	8.09
559.365	8.16
559.558	8.04
559.751	7.99
559.944	8.23
560.138	8.04
560.331	8.13
560.524	8.19
560.717	8.03
560.91	8
561.103	8.13
561.296	7.94
561.489	8.13
561.682	8.14
561.875	8.09
562.068	8.21
562.261	7.94
562.454	8.19
562.647	8.07
562.84	8.13
563.032	8.1
563.225	7.98
563.418	8.05
563.611	8.11
563.804	8.16
563.997	7.99
564.19	7.84
564.382	8.25
564.575	8.13
564.768	8.03
564.961	8.16
565.153	8.09
565.346	8.01
565.539	8.18
565.731	8.03
565.924	8.11
566.117	8.15
566.309	8.12
566.502	8.03
566.695	8.02
566.887	8.12
567.08	8.05
567.272	8.11
567.465	8
567.657	8.13
567.85	7.92
568.042	8.1
568.235	8.12
568.427	7.93
568.62	7.98
568.812	8.02
569.005	8.06
569.197	7.97
569.389	8.07
569.582	8.02
569.774	8.03
569.966	7.93
570.159	7.92
570.351	7.97
570.543	7.97
570.736	7.96
570.928	7.89
571.12	7.98
571.312	7.92
571.505	7.81
571.697	8.03
571.889	7.94
572.081	8
572.273	7.92
572.465	7.96
572.658	7.96
572.85	7.97
573.042	7.97
573.234	7.83
573.426	7.93
573.618	7.91
573.81	8.02
574.002	7.92
574.194	8
574.386	7.87
574.578	7.8
574.77	7.89
574.962	7.92
575.154	7.79
575.346	7.88
575.538	7.8
575.729	7.86
575.921	7.92
576.113	7.93
576.305	7.93
576.497	7.96
576.689	7.73
576.88	7.8
577.072	7.94
577.264	7.8
577.456	7.96
577.647	7.81
577.839	7.98
578.031	7.81
578.223	7.81
578.414	7.66
578.606	7.82
578.798	7.8
578.989	7.84
579.181	7.89
579.372	7.85
579.564	7.86
579.755	7.7
579.947	7.78
580.139	7.81
580.33	7.6
580.522	7.82
580.713	7.77
580.905	7.7
581.096	7.84
581.287	7.71
581.479	7.71
581.67	7.76
581.862	7.67
582.053	7.71
582.244	7.61
582.436	7.81
582.627	7.65
582.818	7.57
583.01	7.61
583.201	7.65
583.392	7.6
583.583	7.63
583.775	7.51
583.966	7.54
584.157	7.64
584.348	7.76
584.54	7.54
584.731	7.55
584.922	7.51
585.113	7.46
585.304	7.61
585.495	7.51
585.686	7.62
585.877	7.65
586.068	7.61
586.259	7.58
586.45	7.52
586.641	7.51
586.832	7.56
587.023	7.49
587.214	7.44
587.405	7.52
587.596	7.37
587.787	7.25
587.978	7.43
588.169	7.4
588.36	7.34
588.551	7.39
588.742	7.38
588.932	7.48
589.123	7.21
589.314	7.46
589.505	7.34
589.696	7.31
589.886	7.38
590.077	7.33
590.268	7.28
590.458	7.24
590.649	7.18
590.84	7.26
591.03	7.32
591.221	7.25
591.412	7.07
591.602	7.33
591.793	7.22
591.984	7.23
592.174	7.2
592.365	7.33
592.555	7.06
592.746	7.13
592.936	7.13
593.127	7.13
593.317	7.17
593.508	7.22
593.698	7.1
593.889	7.09
594.079	7
594.269	7
594.46	7.05
594.65	7.08
594.84	7.07
595.031	6.97
595.221	6.96
595.411	6.98
595.602	7.01
595.792	6.93
595.982	6.87
596.172	6.98
596.363	6.92
596.553	6.86
596.743	6.98
596.933	6.88
597.123	6.76
597.314	6.73
597.504	6.75
597.694	6.89
597.884	6.72
598.074	6.85
598.264	6.82
598.454	6.76
598.644	6.75
598.834	6.75
599.024	6.77
599.214	6.61
599.404	6.72
599.594	6.74
599.784	6.68
599.974	6.72
600.164	6.69
600.354	6.64
600.544	6.56
600.734	6.62
600.924	6.56
601.114	6.5
601.303	6.57
601.493	6.58
601.683	6.54
601.873	6.52
602.063	6.5
602.252	6.54
602.442	6.43
602.632	6.46
602.821	6.32
603.011	6.47
603.201	6.42
603.39	6.43
603.58	6.27
603.77	6.4
603.959	6.4
604.149	6.36
604.339	6.35
604.528	6.35
604.718	6.4
604.907	6.3
605.097	6.22
605.286	6.24
605.476	6.23
605.665	6.25
605.855	6.16
606.044	6.26
606.234	6.25
606.423	6.17
606.612	6.16
606.802	6.09
606.991	6.14
607.181	6.17
607.37	6.18
607.559	5.87
607.749	6.12
607.938	5.9
608.127	6.05
608.316	6.06
608.506	5.94
608.695	6.08
608.884	6.01
609.073	5.95
609.263	6.07
609.452	6.03
609.641	5.79
609.83	5.8
610.019	5.92
610.208	5.85
610.397	5.85
610.586	5.86
610.775	5.77
610.965	5.84
611.154	5.75
611.343	5.74
611.532	5.72
611.721	5.87
611.91	5.65
612.099	5.73
612.287	5.61
612.476	5.5
612.665	5.73
612.854	5.55
613.043	5.58
613.232	5.64
613.421	5.47
613.61	5.57
613.798	5.55
613.987	5.58
614.176	5.53
614.365	5.49
614.554	5.54
614.742	5.56
614.931	5.34
615.12	5.5
615.309	5.43
615.497	5.33
615.686	5.29
615.875	5.43
616.063	5.27
616.252	5.34
616.44	5.37
616.629	5.28
616.818	5.23
617.006	5.24
617.195	5.27
617.383	5.19
617.572	5.18
617.76	5.15
617.949	5.17
618.137	5.23
618.326	5.24
618.514	5.04
618.703	5.06
618.891	5.19
619.079	5.1
619.268	5.15
619.456	5.02
619.644	5.08
619.833	5.02
620.021	5.01
620.209	4.89
620.398	4.98
620.586	4.9
620.774	4.99
620.962	4.96
621.151	4.98
621.339	4.92
621.527	4.86
621.715	4.76
621.903	4.85
622.092	4.75
622.28	4.86
622.468	4.61
622.656	4.79
622.844	4.72
623.032	4.84
623.22	4.68
623.408	4.81
623.596	4.71
623.784	4.74
623.972	4.63
624.16	4.74
624.348	4.71
624.536	4.73
624.724	4.56
624.912	4.57
625.1	4.64
625.288	4.57
625.476	4.5
625.664	4.6
625.851	4.55
626.039	4.53
626.227	4.46
626.415	4.51
626.603	4.39
626.79	4.48
626.978	4.48
627.166	4.46
627.354	4.37
627.541	4.37
627.729	4.31
627.917	4.44
628.104	4.4
628.292	4.28
628.48	4.33
628.667	4.27
628.855	4.37
629.042	4.38
629.23	4.21
629.418	4.31
629.605	4.24
629.793	4.14
629.98	4.21
630.168	4.15
630.355	4.22
630.543	4.15
630.73	4.12
630.917	4.1
631.105	4.2
631.292	4.11
631.48	4.07
631.667	4.14
631.854	4.03
632.042	4.03
632.229	3.98
632.416	4.08
632.604	4.09
632.791	3.85
632.978	4.01
633.165	3.9
633.353	4.01
633.54	4.03
633.727	3.85
633.914	3.88
634.101	3.81
634.289	3.92
634.476	3.82
634.663	3.75
634.85	3.78
635.037	3.8
635.224	3.71
635.411	3.81
635.598	3.7
635.785	3.68
635.972	3.74
636.159	3.69
636.346	3.67
636.533	3.59
636.72	3.66
636.907	3.66
637.094	3.58
637.281	3.51
637.468	3.6
637.655	3.66
637.842	3.62
638.029	3.53
638.215	3.51
638.402	3.54
638.589	3.5
638.776	3.45
638.963	3.42
639.149	3.48
639.336	3.56
639.523	3.49
639.709	3.42
639.896	3.4
640.083	3.45
640.27	3.51
640.456	3.43
640.643	3.42
640.829	3.25
641.016	3.34
641.203	3.31
641.389	3.31
641.576	3.32
641.762	3.28
641.949	3.27
642.135	3.34
642.322	3.26
642.508	3.18
642.695	3.25
642.881	3.19
643.068	3.14
643.254	3.19
643.441	3.23
643.627	3.17
643.813	3.05
644	3.18
644.186	3.14
644.372	3.13
644.559	3.08
644.745	3.12
644.931	3.03
645.118	3.05
645.304	3.07
645.49	3.06
645.676	3.01
645.862	3.03
646.049	3.01
646.235	3
646.421	3.06
646.607	3.1
646.793	2.97
646.979	2.9
647.165	2.96
647.352	2.93
647.538	2.93
647.724	2.91
647.91	2.86
648.096	2.91
648.282	2.85
648.468	2.82
648.654	2.88
648.84	2.82
649.026	2.77
649.212	2.81
649.397	2.81
649.583	2.75
649.769	2.77
649.955	2.81
650.141	2.82
650.327	2.76
650.513	2.72
650.698	2.77
650.884	2.64
651.07	2.74
651.256	2.69
651.442	2.71
651.627	2.6
651.813	2.73
651.999	2.61
652.184	2.65
652.37	2.66
652.556	2.62
652.741	2.63
652.927	2.54
653.113	2.56
653.298	2.61
653.484	2.54
653.669	2.48
653.855	2.55
654.04	2.6
654.226	2.58
654.412	2.53
654.597	2.41
654.782	2.58
654.968	2.52
655.153	2.59
655.339	2.5
655.524	2.5
655.71	2.46
655.895	2.46
656.08	2.43
656.266	2.49
656.451	2.46
656.636	2.39
656.822	2.42
657.007	2.41
657.192	2.39
657.378	2.35
657.563	2.39
657.748	2.42
657.933	2.4
658.118	2.27
658.304	2.36
658.489	2.36
658.674	2.31
658.859	2.28
659.044	2.34
659.229	2.29
659.414	2.2
659.599	2.31
659.785	2.21
659.97	2.26
660.155	2.3
660.34	2.27
660.525	2.24
660.71	2.2
660.895	2.26
661.08	2.2
661.264	2.15
661.449	2.21
661.634	2.17
661.819	2.22
662.004	2.14
662.189	2.11
662.374	2.14
662.559	2.1
662.743	2.08
662.928	2.09
663.113	2.06
663.298	1.99
663.483	2.01
663.667	2.1
663.852	1.99
664.037	2.12
664.221	2.01
664.406	2.04
664.591	1.99
664.775	1.96
664.96	1.89
665.145	1.9
665.329	1.94
665.514	1.97
665.698	1.9
665.883	1.87
666.068	1.94
666.252	1.93
666.437	1.88
666.621	1.85
666.806	1.84
666.99	1.91
667.174	1.86
667.359	1.86
667.543	1.81
667.728	1.81
667.912	1.72
668.096	1.79
668.281	1.7
668.465	1.78
668.649	1.76
668.834	1.72
669.018	1.73
669.202	1.78
669.387	1.69
669.571	1.78
669.755	1.67
669.939	1.73
670.124	1.71
670.308	1.79
670.492	1.7
670.676	1.68
670.86	1.64
671.044	1.6
671.228	1.67
671.413	1.64
671.597	1.59
671.781	1.63
671.965	1.68
672.149	1.6
672.333	1.61
672.517	1.54
672.701	1.58
672.885	1.56
673.069	1.55
673.253	1.6
673.437	1.56
673.621	1.55
673.804	1.57
673.988	1.51
674.172	1.51
674.356	1.45
674.54	1.53
674.724	1.56
674.908	1.5
675.091	1.53
675.275	1.47
675.459	1.5
675.643	1.56
675.826	1.47
676.01	1.47
676.194	1.46
676.377	1.5
676.561	1.48
676.745	1.44
676.928	1.5
677.112	1.46
677.296	1.45
677.479	1.42
677.663	1.36
677.846	1.44
678.03	1.42
678.213	1.36
678.397	1.4
678.58	1.37
678.764	1.38
678.947	1.3
679.131	1.38
679.314	1.36
679.498	1.33
679.681	1.34
679.865	1.39
680.048	1.35
680.231	1.3
680.415	1.29
680.598	1.33
680.781	1.29
680.965	1.27
681.148	1.32
681.331	1.3
681.514	1.32
681.698	1.2
681.881	1.3
682.064	1.26
682.247	1.23
682.43	1.19
682.614	1.28
682.797	1.31
682.98	1.22
683.163	1.19
683.346	1.28
683.529	1.19
683.712	1.2
683.895	1.26
684.078	1.16
684.261	1.23
684.444	1.17
684.627	1.2
684.81	1.15
684.993	1.18
685.176	1.21
685.359	1.19
685.542	1.13
685.725	1.23
685.908	1.15
686.091	1.13
686.274	1.14
686.457	1.2
686.639	1.09
686.822	1.13
687.005	1.08
687.188	1.19
687.371	1.17
687.553	1.17
687.736	1.15
687.919	1.21
688.102	1.08
688.284	1.11
688.467	1.09
688.65	1.03
688.832	0.99
689.015	1.08
689.197	1.03
689.38	1.15
689.563	1.1
689.745	1.06
689.928	1.04
690.11	1.03
690.293	1.1
690.475	0.98
690.658	1.05
690.84	1.05
691.023	0.99
691.205	0.99
691.388	1.03
691.57	1.04
691.752	1.03
691.935	0.95
692.117	0.96
692.3	0.98
692.482	0.97
692.664	1
692.847	0.96
693.029	1.01
693.211	1.07
693.393	0.93
693.576	0.89
693.758	0.93
693.94	0.96
694.122	0.96
694.304	0.92
694.487	0.97
694.669	0.99
694.851	0.96
695.033	0.94
695.215	0.89
695.397	0.87
695.579	0.95
695.761	0.85
695.943	0.81
696.125	0.95
696.308	0.9
696.49	0.78
696.671	1.03
696.853	0.91
697.035	1.03
697.217	0.84
697.399	0.9
697.581	0.8
697.763	0.92
697.945	0.8
698.127	0.86
698.309	0.9
698.491	0.91
698.672	0.93
698.854	0.9
699.036	0.85
699.218	0.82
699.399	0.92
699.581	0.85
699.763	0.81
699.945	0.84
700.126	0.79
700.308	0.86
700.49	0.79
700.671	0.73
700.853	0.83
701.035	0.79
701.216	0.78
701.398	0.76
701.579	0.81
701.761	0.87
701.943	0.74
702.124	0.84
702.306	0.79
702.487	0.95
702.669	0.83
702.85	0.77
703.031	0.74
703.213	0.85
703.394	0.82
703.576	0.78
703.757	0.88
703.938	0.78
704.12	0.91
704.301	0.8
704.483	0.72
704.664	0.75
704.845	0.87
705.026	0.86
705.208	0.72
705.389	0.8
705.57	0.74
705.751	0.8
705.933	0.8
706.114	0.79
706.295	0.81
706.476	0.7
706.657	0.85
706.838	0.77
707.02	0.79
707.201	0.74
707.382	0.71
707.563	0.77
707.744	0.7
707.925	0.66
708.106	0.73
708.287	0.76
708.468	0.87
708.649	0.74
708.83	0.73
709.011	0.67
709.192	0.67
709.373	0.68
709.554	0.71
709.734	0.78
709.915	0.68
710.096	0.77
710.277	0.65
710.458	0.67
710.639	0.78
710.819	0.58
711	0.67
711.181	0.71
711.362	0.73
711.542	0.75
711.723	0.64
711.904	0.74
712.085	0.73
712.265	0.67
712.446	0.64
712.627	0.74
712.807	0.66
712.988	0.7
713.168	0.64
713.349	0.65
713.53	0.56
713.71	0.65
713.891	0.57
714.071	0.6
714.252	0.69
714.432	0.59
714.613	0.58
714.793	0.63
714.974	0.66
715.154	0.67
715.334	0.65
715.515	0.71
715.695	0.52
715.876	0.64
716.056	0.63
716.236	0.57
716.417	0.67
716.597	0.6
716.777	0.73
716.957	0.64
717.138	0.6
717.318	0.62
717.498	0.59
717.678	0.64
717.859	0.64
718.039	0.55
718.219	0.67
718.399	0.63
718.579	0.49
718.759	0.59
718.939	0.67
719.12	0.65
719.3	0.71
719.48	0.55
719.66	0.54
719.84	0.71
720.02	0.62
720.2	0.55
720.38	0.57
720.56	0.72
720.74	0.61
720.92	0.61
721.1	0.73
721.279	0.61
721.459	0.55
721.639	0.51
721.819	0.6
721.999	0.63
722.179	0.57
722.359	0.44
722.538	0.68
722.718	0.52
722.898	0.49
723.078	0.56
723.257	0.59
723.437	0.6
723.617	0.56
723.797	0.63
723.976	0.64
724.156	0.62
724.336	0.74
724.515	0.68
724.695	0.45
724.874	0.6
725.054	0.57
725.234	0.6
725.413	0.6
725.593	0.63
725.772	0.62
725.952	0.61
726.131	0.55
726.311	0.65
726.49	0.54
726.67	0.45
726.849	0.55
727.028	0.61
727.208	0.56
727.387	0.64
727.567	0.59
727.746	0.54
727.925	0.56
728.105	0.46
728.284	0.55
728.463	0.58
728.643	0.61
728.822	0.5
729.001	0.56
729.18	0.61
729.359	0.61
729.539	0.57
729.718	0.64
729.897	0.57
730.076	0.61
730.255	0.52
730.434	0.57
730.614	0.65
730.793	0.59
730.972	0.65
731.151	0.63
731.33	0.62
731.509	0.56
731.688	0.52
731.867	0.53
732.046	0.42
732.225	0.8
732.404	0.45
732.583	0.47
732.762	0.67
732.941	0.61
733.12	0.58
733.298	0.47
733.477	0.77
733.656	0.51
733.835	0.58
734.014	0.67
734.193	0.55
734.371	0.63
734.55	0.65
734.729	0.53
734.908	0.64
735.086	0.68
735.265	0.65
735.444	0.58
735.623	0.53
735.801	0.46
735.98	0.66
736.159	0.58
736.337	0.6
736.516	0.61
736.694	0.7
736.873	0.61
737.052	0.75
737.23	0.71
737.409	0.54
737.587	0.8
737.766	0.46
737.944	0.48
738.123	0.6
738.301	0.62
738.479	0.62
738.658	0.66
738.836	0.43
739.015	0.69
739.193	0.66
739.371	0.5
739.55	0.62
739.728	0.55
739.906	0.68
740.085	0.78
740.263	0.64
740.441	0.48
740.62	0.74
740.798	0.54
740.976	0.56
741.154	0.52
741.332	0.61
741.511	0.48
741.689	0.68
741.867	0.66
742.045	0.55
742.223	0.55
742.401	0.4
742.579	0.44
742.757	0.58
742.935	0.43
743.114	0.46
743.292	0.5
743.47	0.54
743.648	0.54
743.826	0.63
744.004	0.54
744.181	0.55
744.359	0.52
744.537	0.42
744.715	0.55
744.893	0.53
745.071	0.62
745.249	0.37
745.427	0.47
745.605	0.47
745.782	0.51
745.96	0.55
746.138	0.55
746.316	0.48
746.493	0.41
746.671	0.46
746.849	0.42
747.027	0.5
747.204	0.3
747.382	0.47
747.56	0.37
747.737	0.35
747.915	0.47
748.093	0.5
748.27	0.38
748.448	0.4
748.625	0.28
748.803	0.33
748.98	0.46
749.158	0.43
749.335	0.58
749.513	0.56
749.69	0.44
749.868	0.4
750.045	0.65
750.223	0.39
750.4	0.26
750.578	0.52
750.755	0.44
750.932	0.27
751.11	0.56
751.287	0.37
751.464	0.55
751.642	0.36
751.819	0.43
751.996	0.43
752.173	0.47
752.351	0.39
752.528	0.48
752.705	0.37
752.882	0.42
753.06	0.49
753.237	0.55
753.414	0.55
753.591	0.5
753.768	0.49
753.945	0.38
754.122	0.33
754.299	0.46
754.476	0.3
754.654	0.36
754.831	0.51
755.008	0.43
755.185	0.37
755.362	0.38
755.539	0.45
755.716	0.48
755.892	0.33
756.069	0.45
756.246	0.37
756.423	0.44
756.6	0.53
756.777	0.35
756.954	0.41
757.131	0.33
757.307	0.31
757.484	0.25
757.661	0.39
757.838	0.51
758.015	0.28
758.191	0.46
758.368	0.39
758.545	0.54
758.721	0.49
758.898	0.29
759.075	0.6
759.251	0.55
759.428	0.41
759.605	0.22
759.781	0.47
759.958	0.45
760.134	0.35
760.311	0.46
760.488	0.39
760.664	0.51
760.841	0.34
761.017	0.24
761.194	0.42
761.37	0.47
761.547	0.36
761.723	0.34
761.899	0.46
762.076	0.3
762.252	0.29
762.429	0.26
762.605	0.43
762.781	0.45
762.958	0.53
763.134	0.3
763.31	0.3
763.486	0.6
763.663	0.22
763.839	0.56
764.015	0.16
764.191	0.17
764.368	0.33
764.544	0.37
764.72	0.41
764.896	0.37
765.072	0.37
765.248	0.36
765.425	0.41
765.601	0.26
765.777	0.41
765.953	0.26
766.129	0.38
766.305	0.39
766.481	0.4
766.657	0.42
766.833	0.53
767.009	0.23
767.185	0.37
767.361	0.5
767.537	0.29
767.713	0.56
767.889	0.34
768.065	0.35
768.24	0.37
768.416	0.5
768.592	0.38
768.768	0.3
768.944	0.41
769.12	0.34
769.295	0.27
769.471	0.33
769.647	0.43
769.823	0.45
769.998	0.27
770.174	0.17
770.35	0.65
770.525	0.65
770.701	0.33
770.877	0.37
771.052	0.37
771.228	0.39
771.403	0.31
771.579	0.39
771.755	0.66
771.93	0.37
772.106	0.16
772.281	0.22
772.457	0.27
772.632	0.47
772.808	0.17
772.983	0.32
773.159	0.13
773.334	0.64
773.509	0.27
773.685	0.35
773.86	0.58
774.036	0.53
774.211	0.37
774.386	0.24
774.562	0.51
774.737	0.55
774.912	0.31
775.087	0.43
775.263	0.4
775.438	0.43
775.613	0.42
775.788	0.43
775.964	0.61
776.139	0.75
776.314	0.14
776.489	0.45
776.664	0.47
776.839	0.2
777.014	0.48
777.19	0.51
777.365	0.59
777.54	0.44
777.715	0.22
777.89	0.41
778.065	0.33
778.24	0.49
778.415	0.53
778.59	0.16
778.765	0.36
778.94	0.35
779.115	0.46
779.289	0.24
779.464	0.52
779.639	0.43
779.814	0.17
779.989	0.26
780.164	0.45
780.339	0.34
780.513	0.26
780.688	0.35
780.863	0.38
781.038	0.55
781.212	0.19
781.387	0.52
781.562	0.46
781.737	0.62
781.911	0.57
782.086	0.33
782.261	0.31
782.435	0.66
782.61	0.28
782.784	0.49
782.959	0.74
783.134	0.35
783.308	0.18
783.483	0.18
783.657	0.72
783.832	0.56
784.006	0.16
784.181	0.66
784.355	0.45
784.53	0.45
784.704	0.36
784.878	0.66
785.053	0.53
785.227	0.65
785.402	0.57
785.576	0.46
785.75	0.39
785.925	0.5
786.099	0.4
786.273	0.44
786.448	0.66
786.622	0.67
786.796	0.33
786.97	0.43
787.145	1.03
787.319	0.28
787.493	0.34
787.667	0.34
787.841	0.53
788.015	0.77
788.19	0.42
788.364	0.62
788.538	0.41
788.712	0.59
788.886	0.51
789.06	0.69
789.234	0.58
789.408	0.32
789.582	0.32
789.756	0.39
789.93	0.32
790.104	0.58
790.278	0.42
790.452	0.49
790.626	0.64
790.8	0.32
790.973	0.73
791.147	0.62
791.321	0.55
791.495	0.44
791.669	0.31
791.843	0.51
792.016	0.61
792.19	0.81
792.364	0.34
792.538	0.98
792.711	0.89
792.885	0.5
793.059	0.16
793.233	-0.03
793.406	0.62
793.58	0.45
793.754	0.56
793.927	0.42
794.101	0.62
794.274	0.69
794.448	0.65
794.622	0.32
794.795	0.83
794.969	0.29
795.142	0.79
795.316	0.51
795.489	0.44
795.663	0.76
795.836	0.51
796.009	0.07
796.183	0.66
796.356	0.8
796.53	0.76
796.703	0.47
796.876	1.02
797.05	0.45
797.223	0.34
797.396	0.73
797.57	0.51
797.743	0.8
797.916	0.47
798.09	0.61
798.263	0.77
798.436	0.64
798.609	0.56
798.782	0.63
798.956	0.51
799.129	0.6
799.302	0.48
799.475	0.45
799.648	0.11
799.821	0.62
799.994	0.35
800.167	0.24
800.34	0.48
800.514	0.65
800.687	0.34
800.86	0.32
801.033	0.7
801.206	0.57
801.379	0.36
801.551	0.92
801.724	0.86
801.897	0.6
802.07	0.47
802.243	0
802.416	0.7
802.589	0.41
802.762	0.74
802.935	0.58
803.107	0.55
803.28	0.77
803.453	1
803.626	0.47
803.798	0.5
803.971	0.31
804.144	0.63
804.317	0.86
804.489	0.76
804.662	0.49
804.835	0.72
805.007	0.42
805.18	1.12
805.353	0.61
805.525	0.36
805.698	0.3
805.87	1.14
806.043	0.7
806.215	0.35
806.388	0.12
806.56	0.77
806.733	0.84
806.905	0.73
807.078	0.52
807.25	0.25
807.423	0.93
807.595	0.27
807.768	0.55
807.94	1.18
808.112	1.06
808.285	0.87
808.457	0.43
808.629	0.72
808.802	0.89
808.974	0.72
809.146	0.74
809.318	0.4
809.491	0.77
809.663	0.73
809.835	0.81
810.007	0.98
810.18	0.52
810.352	0.4
810.524	0.65
810.696	0.53
810.868	0.94
811.04	0.84
811.212	0.54
811.384	0.8
811.556	0.59
811.728	0.54
811.901	1.28
812.073	0.43
812.245	1.04
812.417	0.9
812.589	0.19
812.76	0.62
812.932	0.52
813.104	0.64
813.276	0.59
813.448	1.01
813.62	0.53
813.792	0.47
813.964	0.7
814.136	0.93
814.307	0.41
814.479	0.34
814.651	0.98
814.823	1.24
814.995	0.4
815.166	0.91
815.338	0.77
815.51	0.21
815.681	1.21
815.853	0.76
816.025	1.05
816.196	1.03
816.368	0.82
816.54	0.48
816.711	0.42
816.883	0.71
817.054	1.16
817.226	0.08
817.398	1.13
817.569	0.6
817.741	0.82
817.912	0.9
818.084	1.07
818.255	0.58
818.426	0.77
818.598	0.25
818.769	0.56
818.941	1.18
819.112	1.3
819.283	1.04
819.455	0.61
819.626	0.83
819.798	0.41
819.969	0.7
820.14	0.57
820.311	0.65
820.483	1.05
820.654	1.08
820.825	0.94
820.996	0.23
821.168	0.35
821.339	0.63
821.51	0.68
821.681	0.97
821.852	0.78
822.023	0.73
822.195	0.59
822.366	1.07
822.537	0.66
822.708	0.56
822.879	0.75
823.05	1.07
823.221	0.52
823.392	0.99
823.563	0.71
823.734	0.65
823.905	0.96
824.076	0.49
824.247	0.58
824.418	0.5
824.589	1.05
824.759	0.44
824.93	1.2
825.101	0.77
825.272	1.16
825.443	1.84
825.614	1.37
825.784	0.12
825.955	1.7
826.126	1.63
826.297	1.4
826.467	1.16
826.638	0.97
826.809	0.64
826.98	0.7
827.15	1.05
827.321	0.6
827.492	1.34
827.662	1.09
827.833	1.59
828.003	1.28
828.174	0.56
828.345	0.71
828.515	1.11
828.686	1.18
828.856	0.87
829.027	1
829.197	0.94
829.368	1.44
829.538	0.77
829.709	0.24
829.879	1.04
830.049	0.92
830.22	0.11
830.39	1.14
830.56	1.26
830.731	0.91
830.901	0.71
831.072	0.53
831.242	0.83
831.412	0.72
831.582	1.41
831.753	0.48
831.923	1.67
832.093	0.8
832.263	0.72
832.434	0.31
832.604	0.92
832.774	0.72
832.944	0.92
833.114	0.84
833.284	0.84
833.454	-0.31
833.624	0.07
833.795	0.81
833.965	1.57
834.135	1.24
834.305	0.27
834.475	0.59
834.645	1.02
834.815	1.23
834.985	0.28
835.155	0.64
835.325	1.56
835.494	1.21
835.664	0.92
835.834	0.35
836.004	0.97
836.174	1.13
836.344	0.96
836.514	0.5
836.684	0.65
836.853	1.59
837.023	1.26
837.193	0.32
837.363	1.46
837.532	1.46
837.702	0.99
837.872	0.88
838.041	2.03
838.211	2.42
838.381	0.01
838.55	1.53
838.72	2.15
838.89	2.13
839.059	0.6
839.229	0.91
839.398	1.35
839.568	0.68
839.738	1.09
839.907	1.75
840.077	1.71
840.246	0.54
840.416	0.46
840.585	1.01
840.755	2.06
840.924	1.79
841.093	0.08
841.263	1.07
841.432	1.35
841.602	0.1
841.771	0.57
841.94	0.74
842.11	2.27
842.279	1.63
842.448	0.43
842.617	1.24
842.787	1.84
842.956	0.38
843.125	1.37
843.294	1.12
843.464	1.66
843.633	1.29
843.802	1.15
843.971	0.75
844.14	1.78
844.309	1.74
844.479	0.75
844.648	0.57
844.817	0.46
844.986	0.61
845.155	1.1
845.324	0.84
845.493	1.59
845.662	0.54
845.831	1.68
846	1.39
846.169	0.98
846.338	2.35
846.507	1.21
846.676	1.99
846.844	0.81
847.013	1.48
847.182	1.44
847.351	0.89
847.52	1.71
847.689	1.7
847.858	1.35
848.026	1.19
848.195	0.52
848.364	0.77
848.533	1.05
848.701	0.74
848.87	1.18
849.039	2.23
849.207	2.3
849.376	2.11
849.545	2.2
849.713	1.77
849.882	0.85
850.051	1.64
850.219	1.11
850.388	2.36
850.556	1.27
850.725	0.95
850.893	1.6
851.062	1.51
851.23	2.37
851.399	-0.23
851.567	0.79
851.736	1.14
851.904	0.97
852.073	1.67
852.241	1.33
852.41	1.17
852.578	0.6
852.746	1.51
852.915	1.55
853.083	1.69
853.251	0.75
853.42	0.68
853.588	1.12
853.756	2.74
853.924	0.91
854.093	1.06
854.261	0.82
854.429	0.75
854.597	2.1
854.765	0.34
854.934	1.21
855.102	2.83
855.27	2.53
855.438	2.47
855.606	2.95
855.774	2.18
855.942	0.88
856.11	0.72
856.278	2.38
856.446	1.98
856.614	2.78
856.782	0.92
856.95	2.88
857.118	2.85
857.286	1.71
857.454	0.72
857.622	1.45
857.79	2.04
857.958	0.56
858.126	0.71
858.294	0.25
858.462	1.81
858.629	1.17
858.797	0.88
858.965	1.53
859.133	2.03
859.301	1.37
859.468	1.85
859.636	0.88
859.804	3.08
859.971	2.45
860.139	0.54
860.307	2.08
860.474	1.83
860.642	0.66
860.81	0.89
860.977	1.52
861.145	2.04
861.313	2
861.48	1.29
861.648	2.1
861.815	1.25
861.983	-0.12
862.15	1.55
862.318	2.19
862.485	2.1
862.653	0.77
862.82	1.51
862.988	3.51
863.155	1.56
863.322	0.6
863.49	0.43
863.657	1.1
863.824	2.1
863.992	3.5
864.159	2.75
864.326	3.3
864.494	0.79
864.661	4.98
864.828	0.84
864.996	2.23
865.163	2.38
865.33	1.37
865.497	0.12
865.664	1.67
865.832	-0.21
865.999	0.74
866.166	1.01
866.333	1.38
866.5	0.68
866.667	2.08
866.834	0.08
867.001	3.48
867.168	0.31
867.335	2.84
867.502	0.73
867.669	1.68
867.836	3.79
868.003	1.83
868.17	2.16
868.337	-1.08
868.504	3.54
868.671	0.93
868.838	0.88
869.005	0.61
869.172	1.85
869.339	2.31
869.505	3.41
869.672	1.16
869.839	2.98
870.006	3.25
870.173	0.2
870.339	3.4
870.506	4.49
870.673	1.1
870.84	2.33
871.006	2.21
871.173	1.87
871.34	2.24
871.506	-0.07
871.673	3.86
871.839	1.2
872.006	1.33
872.173	2.46
872.339	0.72
872.506	3.7
872.672	3.18
872.839	1.34
873.005	0.66
873.172	6.28
873.338	4.81
873.505	2.91
873.671	0.77
873.838	2.08
874.004	0.37
874.171	2.35
874.337	2.58
874.503	3.57
874.67	2.21
874.836	2.16
875.002	3.53
875.169	1.28
875.335	1.53
875.501	2.36
875.668	4.04
875.834	2.33
876	3.26
876.166	3.53
876.332	4.55
876.499	3.47
876.665	3.11
876.831	2.97
876.997	3.94
877.163	2.27
877.329	1.33
877.495	2
877.662	3.65
877.828	2.88
877.994	1.65
878.16	0.62
878.326	1.04
878.492	2.42
878.658	1.86
878.824	3.31
878.99	3.75
879.156	1.11
879.322	2.49
879.487	0.92
879.653	2.48
879.819	2.34
879.985	1.81
880.151	4.19
880.317	3.17
880.483	1.02
880.648	3.26
880.814	-0.38
880.98	3.55
881.146	0.29
881.312	3.14
881.477	1.25
881.643	2.96
881.809	4.06
881.974	4.37
882.14	2.71
882.306	3.21
882.471	3.34
882.637	2.87
882.803	3.83
882.968	5.17
883.134	4.37
883.299	3.04
883.465	1.93
883.63	3.01
883.796	3.5
883.961	2.32
884.127	2.61
884.292	-1.35
884.458	0.21
884.623	0.21
