Data from Apollo_Calib_20240827__AbsoluteIrradiance__772__12-01-02-203.txt Node

Date: Wed Aug 28 12:01:02 BST 2024
User: biology
Spectrometer: FLMT08252
Trigger mode: 0
Integration Time (sec): 5.000000E-1
Scans to average: 5
Electric dark correction enabled: true
Nonlinearity correction enabled: false
Boxcar width: 0
XAxis mode: Wavelengths
Number of Pixels in Spectrum: 3648
>>>>>Begin Spectral Data<<<<<
179.588	-0
179.809	-0
180.03	-0
180.251	-0
180.473	-0
180.694	0
180.915	0
181.136	-0
181.357	0
181.578	-0
181.799	-0
182.02	-0
182.241	-0
182.462	-0
182.683	0
182.904	-0
183.125	-0
183.346	0
183.567	0
183.788	0
184.009	0
184.23	0
184.451	0
184.672	0
184.892	0
185.113	0
185.334	0
185.555	0
185.776	0
185.996	0
186.217	0
186.438	0
186.659	0
186.879	0
187.1	0
187.321	0
187.541	0
187.762	0
187.983	0
188.203	0
188.424	0
188.644	0
188.865	0
189.086	0
189.306	0
189.527	0
189.747	0
189.968	0
190.188	0
190.409	0
190.629	0
190.849	0
191.07	0
191.29	0
191.511	0
191.731	0
191.951	0
192.172	0
192.392	0
192.612	0
192.833	0
193.053	0
193.273	0
193.493	0
193.714	0
193.934	0
194.154	0
194.374	0
194.594	0
194.815	0
195.035	0
195.255	0
195.475	0
195.695	0
195.915	0
196.135	0
196.355	0
196.575	0
196.795	0
197.015	0
197.235	0
197.455	0
197.675	0
197.895	0
198.115	0
198.335	0
198.555	0
198.775	0
198.995	0
199.214	0
199.434	0
199.654	0
199.874	0
200.094	4.04
200.313	2.15
200.533	1.61
200.753	1.3
200.973	3.66
201.192	3.77
201.412	0.74
201.632	1.83
201.851	3.5
202.071	2.07
202.291	1.89
202.51	1.54
202.73	2.51
202.95	1.74
203.169	1.38
203.389	1.79
203.608	1.86
203.828	1.17
204.047	1.64
204.267	2.13
204.486	1.89
204.706	2.12
204.925	1.6
205.145	1.87
205.364	1.96
205.583	2.65
205.803	1.64
206.022	1.39
206.242	1.69
206.461	1.42
206.68	1.15
206.9	1.49
207.119	2.34
207.338	2.41
207.557	0.92
207.777	1.19
207.996	1.45
208.215	2.09
208.434	1.14
208.654	0.79
208.873	1.52
209.092	2.29
209.311	1.19
209.53	1.02
209.749	1.18
209.968	1.24
210.187	1.05
210.407	0.71
210.626	1.06
210.845	1.54
211.064	1.13
211.283	0.97
211.502	1.35
211.721	1.43
211.94	1.02
212.159	1.04
212.377	1.33
212.596	1.41
212.815	1.13
213.034	1.18
213.253	1.6
213.472	1.35
213.691	0.9
213.91	0.57
214.128	0.89
214.347	1.51
214.566	0.46
214.785	0.42
215.003	1.18
215.222	1.25
215.441	0.71
215.66	0.31
215.878	1.05
216.097	1.26
216.316	0.73
216.534	0.79
216.753	0.99
216.972	0.75
217.19	0.84
217.409	0.56
217.627	0.62
217.846	0.71
218.064	0.89
218.283	0.68
218.501	1.39
218.72	1.15
218.938	0.51
219.157	0.71
219.375	1.21
219.594	0.99
219.812	0.46
220.031	0.49
220.249	1.11
220.467	1.19
220.686	0.56
220.904	0.46
221.122	0.59
221.341	1.18
221.559	0.83
221.777	0.43
221.995	0.93
222.214	0.95
222.432	0.46
222.65	0.87
222.868	0.82
223.086	0.82
223.305	0.86
223.523	0.53
223.741	1.03
223.959	0.55
224.177	0.45
224.395	0.5
224.613	0.71
224.831	0.83
225.049	0.59
225.267	0.58
225.485	0.81
225.703	0.68
225.921	0.61
226.139	0.48
226.357	0.74
226.575	0.79
226.793	0.59
227.011	1.38
227.229	0.82
227.447	0.76
227.665	0.66
227.883	0.35
228.1	0.6
228.318	0.69
228.536	0.34
228.754	0.38
228.972	0.65
229.189	0.81
229.407	0.48
229.625	0.5
229.843	0.78
230.06	0.68
230.278	0.51
230.496	0.58
230.713	0.65
230.931	0.98
231.149	0.49
231.366	0.34
231.584	0.6
231.801	0.99
232.019	0.47
232.236	0.33
232.454	0.55
232.671	0.58
232.889	0.54
233.106	0.39
233.324	0.74
233.541	0.51
233.759	0.47
233.976	0.35
234.194	0.59
234.411	0.51
234.628	0.39
234.846	0.49
235.063	0.41
235.28	0.55
235.498	0.47
235.715	0.42
235.932	0.7
236.149	0.55
236.367	0.33
236.584	0.53
236.801	0.44
237.018	0.63
237.236	0.52
237.453	0.29
237.67	0.73
237.887	0.48
238.104	0.51
238.321	0.3
238.538	0.4
238.755	0.65
238.973	0.33
239.19	0.5
239.407	0.58
239.624	0.61
239.841	0.36
240.058	0.32
240.275	0.49
240.492	0.53
240.709	0.47
240.925	0.42
241.142	0.5
241.359	0.37
241.576	0.4
241.793	0.43
242.01	0.52
242.227	0.61
242.444	0.49
242.66	0.49
242.877	0.49
243.094	0.49
243.311	0.47
243.527	0.45
243.744	0.54
243.961	0.55
244.178	0.36
244.394	0.38
244.611	0.5
244.828	0.64
245.044	0.26
245.261	0.43
245.477	0.43
245.694	0.59
245.911	0.29
246.127	0.44
246.344	0.58
246.56	0.56
246.777	0.36
246.993	0.34
247.21	0.45
247.426	0.51
247.643	0.31
247.859	0.25
248.076	0.38
248.292	0.64
248.508	0.34
248.725	0.38
248.941	0.51
249.157	0.53
249.374	0.33
249.59	0.35
249.806	0.4
250.023	0.57
250.239	0.31
250.455	0.29
250.671	0.42
250.888	0.5
251.104	0.43
251.32	0.36
251.536	0.37
251.752	0.43
251.969	0.37
252.185	0.39
252.401	0.66
252.617	0.47
252.833	0.36
253.049	0.46
253.265	0.43
253.481	0.46
253.697	0.35
253.913	0.32
254.129	0.51
254.345	0.45
254.561	0.32
254.777	0.38
254.993	0.47
255.209	0.39
255.425	0.3
255.641	0.25
255.857	0.45
256.073	0.45
256.288	0.22
256.504	0.31
256.72	0.47
256.936	0.56
257.152	0.38
257.367	0.36
257.583	0.41
257.799	0.46
258.015	0.26
258.23	0.28
258.446	0.55
258.662	0.4
258.877	0.29
259.093	0.22
259.309	0.4
259.524	0.46
259.74	0.29
259.955	0.26
260.171	0.33
260.387	0.29
260.602	0.46
260.818	0.37
261.033	0.25
261.249	0.34
261.464	0.31
261.68	0.28
261.895	0.48
262.11	0.46
262.326	0.3
262.541	0.25
262.757	0.49
262.972	0.45
263.187	0.41
263.403	0.4
263.618	0.42
263.833	0.4
264.049	0.25
264.264	0.32
264.479	0.34
264.694	0.51
264.91	0.16
265.125	0.28
265.34	0.5
265.555	0.54
265.77	0.35
265.986	0.31
266.201	0.43
266.416	0.45
266.631	0.31
266.846	0.29
267.061	0.46
267.276	0.41
267.491	0.16
267.706	0.37
267.921	0.37
268.136	0.35
268.351	0.38
268.566	0.26
268.781	0.45
268.996	0.42
269.211	0.32
269.426	0.27
269.641	0.33
269.856	0.41
270.071	0.23
270.285	0.19
270.5	0.48
270.715	0.4
270.93	0.32
271.145	0.34
271.359	0.4
271.574	0.3
271.789	0.31
272.004	0.27
272.218	0.36
272.433	0.39
272.648	0.27
272.862	0.44
273.077	0.36
273.292	0.33
273.506	0.21
273.721	0.28
273.936	0.35
274.15	0.35
274.365	0.28
274.579	0.31
274.794	0.39
275.008	0.41
275.223	0.17
275.437	0.35
275.652	0.39
275.866	0.37
276.081	0.28
276.295	0.38
276.509	0.31
276.724	0.37
276.938	0.36
277.153	0.35
277.367	0.38
277.581	0.28
277.796	0.23
278.01	0.2
278.224	0.39
278.438	0.4
278.653	0.33
278.867	0.24
279.081	0.17
279.295	0.27
279.51	0.33
279.724	0.18
279.938	0.36
280.152	0.32
280.366	0.29
280.58	0.29
280.794	0.43
281.008	0.33
281.222	0.34
281.437	0.49
281.651	0.35
281.865	0.34
282.079	0.27
282.293	0.18
282.507	0.27
282.721	0.31
282.935	0.28
283.148	0.19
283.362	0.29
283.576	0.25
283.79	0.25
284.004	0.21
284.218	0.41
284.432	0.26
284.646	0.28
284.859	0.29
285.073	0.26
285.287	0.31
285.501	0.26
285.714	0.27
285.928	0.29
286.142	0.3
286.356	0.23
286.569	0.21
286.783	0.39
286.997	0.37
287.21	0.3
287.424	0.26
287.637	0.27
287.851	0.28
288.065	0.37
288.278	0.23
288.492	0.31
288.705	0.31
288.919	0.3
289.132	0.19
289.346	0.35
289.559	0.23
289.773	0.17
289.986	0.25
290.2	0.28
290.413	0.33
290.626	0.25
290.84	0.25
291.053	0.29
291.267	0.35
291.48	0.27
291.693	0.29
291.906	0.29
292.12	0.25
292.333	0.23
292.546	0.22
292.76	0.36
292.973	0.27
293.186	0.32
293.399	0.23
293.612	0.36
293.826	0.24
294.039	0.23
294.252	0.22
294.465	0.3
294.678	0.22
294.891	0.26
295.104	0.19
295.317	0.27
295.53	0.3
295.743	0.23
295.956	0.25
296.169	0.37
296.382	0.31
296.595	0.26
296.808	0.19
297.021	0.29
297.234	0.32
297.447	0.24
297.66	0.31
297.873	0.38
298.086	0.33
298.299	0.21
298.511	0.2
298.724	0.24
298.937	0.23
299.15	0.25
299.363	0.28
299.575	0.35
299.788	0.29
300.001	0.19
300.213	0.26
300.426	0.25
300.639	0.16
300.852	0.21
301.064	0.28
301.277	0.35
301.489	0.32
301.702	0.28
301.915	0.23
302.127	0.26
302.34	0.27
302.552	0.28
302.765	0.18
302.977	0.31
303.19	0.22
303.402	0.25
303.615	0.21
303.827	0.25
304.04	0.29
304.252	0.31
304.464	0.25
304.677	0.37
304.889	0.32
305.102	0.2
305.314	0.22
305.526	0.3
305.739	0.27
305.951	0.19
306.163	0.26
306.375	0.34
306.588	0.29
306.8	0.21
307.012	0.17
307.224	0.33
307.436	0.34
307.649	0.2
307.861	0.28
308.073	0.26
308.285	0.22
308.497	0.21
308.709	0.18
308.921	0.26
309.133	0.34
309.346	0.22
309.558	0.22
309.77	0.31
309.982	0.37
310.194	0.25
310.406	0.21
310.617	0.33
310.829	0.25
311.041	0.3
311.253	0.22
311.465	0.27
311.677	0.29
311.889	0.27
312.101	0.21
312.313	0.32
312.524	0.35
312.736	0.21
312.948	0.23
313.16	0.35
313.372	0.32
313.583	0.29
313.795	0.25
314.007	0.19
314.218	0.29
314.43	0.25
314.642	0.22
314.853	0.2
315.065	0.32
315.277	0.27
315.488	0.25
315.7	0.36
315.912	0.23
316.123	0.27
316.335	0.22
316.546	0.35
316.758	0.27
316.969	0.21
317.181	0.23
317.392	0.26
317.604	0.32
317.815	0.19
318.026	0.2
318.238	0.21
318.449	0.3
318.661	0.19
318.872	0.21
319.083	0.18
319.295	0.26
319.506	0.21
319.717	0.26
319.929	0.29
320.14	0.28
320.351	0.27
320.562	0.19
320.774	0.22
320.985	0.28
321.196	0.21
321.407	0.19
321.618	0.31
321.829	0.24
322.041	0.27
322.252	0.26
322.463	0.3
322.674	0.32
322.885	0.14
323.096	0.21
323.307	0.24
323.518	0.3
323.729	0.21
323.94	0.25
324.151	0.25
324.362	0.28
324.573	0.25
324.784	0.2
324.995	0.29
325.206	0.26
325.417	0.21
325.628	0.22
325.838	0.25
326.049	0.32
326.26	0.24
326.471	0.25
326.682	0.28
326.892	0.26
327.103	0.12
327.314	0.18
327.525	0.35
327.735	0.26
327.946	0.24
328.157	0.18
328.368	0.26
328.578	0.27
328.789	0.28
328.999	0.31
329.21	0.26
329.421	0.34
329.631	0.22
329.842	0.21
330.052	0.28
330.263	0.22
330.473	0.25
330.684	0.22
330.894	0.24
331.105	0.24
331.315	0.27
331.526	0.16
331.736	0.35
331.947	0.26
332.157	0.3
332.367	0.17
332.578	0.28
332.788	0.32
332.999	0.28
333.209	0.27
333.419	0.21
333.629	0.31
333.84	0.3
334.05	0.21
334.26	0.36
334.47	0.26
334.681	0.29
334.891	0.18
335.101	0.31
335.311	0.33
335.521	0.2
335.732	0.21
335.942	0.34
336.152	0.28
336.362	0.3
336.572	0.26
336.782	0.27
336.992	0.23
337.202	0.22
337.412	0.2
337.622	0.3
337.832	0.28
338.042	0.24
338.252	0.22
338.462	0.24
338.672	0.26
338.882	0.27
339.092	0.24
339.302	0.31
339.511	0.28
339.721	0.24
339.931	0.2
340.141	0.32
340.351	0.28
340.561	0.28
340.77	0.27
340.98	0.28
341.19	0.28
341.4	0.25
341.609	0.17
341.819	0.21
342.029	0.18
342.238	0.29
342.448	0.21
342.658	0.32
342.867	0.22
343.077	0.25
343.286	0.27
343.496	0.28
343.706	0.36
343.915	0.17
344.125	0.26
344.334	0.28
344.544	0.17
344.753	0.18
344.963	0.21
345.172	0.19
345.381	0.2
345.591	0.18
345.8	0.24
346.01	0.31
346.219	0.29
346.428	0.1
346.638	0.25
346.847	0.29
347.056	0.29
347.266	0.24
347.475	0.21
347.684	0.3
347.893	0.28
348.103	0.29
348.312	0.2
348.521	0.25
348.73	0.26
348.94	0.23
349.149	0.21
349.358	0.25
349.567	0.2
349.776	0.17
349.985	0.19
350.194	0.33
350.403	0.31
350.612	0.16
350.821	0.19
351.03	0.28
351.239	0.19
351.448	0.25
351.657	0.16
351.866	0.31
352.075	0.25
352.284	0.23
352.493	0.17
352.702	0.28
352.911	0.26
353.12	0.26
353.329	0.23
353.538	0.27
353.746	0.21
353.955	0.21
354.164	0.26
354.373	0.23
354.582	0.31
354.79	0.26
354.999	0.27
355.208	0.25
355.416	0.31
355.625	0.17
355.834	0.17
356.042	0.26
356.251	0.2
356.46	0.19
356.668	0.24
356.877	0.33
357.085	0.32
357.294	0.15
357.503	0.25
357.711	0.23
357.92	0.4
358.128	0.27
358.337	0.22
358.545	0.29
358.754	0.24
358.962	0.27
359.17	0.2
359.379	0.3
359.587	0.22
359.796	0.23
360.004	0.31
360.212	0.31
360.421	0.3
360.629	0.21
360.837	0.24
361.046	0.31
361.254	0.38
361.462	0.24
361.67	0.22
361.879	0.26
362.087	0.33
362.295	0.27
362.503	0.21
362.711	0.21
362.92	0.26
363.128	0.24
363.336	0.2
363.544	0.2
363.752	0.28
363.96	0.23
364.168	0.22
364.376	0.29
364.584	0.24
364.792	0.31
365	0.26
365.208	0.25
365.416	0.31
365.624	0.3
365.832	0.24
366.04	0.33
366.248	0.29
366.456	0.24
366.664	0.26
366.872	0.24
367.079	0.24
367.287	0.22
367.495	0.25
367.703	0.21
367.911	0.22
368.118	0.23
368.326	0.21
368.534	0.15
368.742	0.3
368.949	0.21
369.157	0.17
369.365	0.29
369.572	0.21
369.78	0.18
369.988	0.31
370.195	0.27
370.403	0.28
370.61	0.22
370.818	0.28
371.026	0.33
371.233	0.2
371.441	0.28
371.648	0.25
371.856	0.28
372.063	0.27
372.271	0.2
372.478	0.21
372.685	0.21
372.893	0.3
373.1	0.25
373.308	0.21
373.515	0.35
373.722	0.31
373.93	0.25
374.137	0.27
374.344	0.36
374.552	0.35
374.759	0.29
374.966	0.28
375.173	0.22
375.381	0.35
375.588	0.22
375.795	0.14
376.002	0.27
376.209	0.24
376.417	0.22
376.624	0.27
376.831	0.29
377.038	0.28
377.245	0.19
377.452	0.26
377.659	0.25
377.866	0.21
378.073	0.29
378.28	0.27
378.487	0.27
378.694	0.27
378.901	0.23
379.108	0.18
379.315	0.26
379.522	0.38
379.729	0.28
379.936	0.27
380.143	0.28
380.35	0.32
380.557	0.26
380.763	0.23
380.97	0.3
381.177	0.33
381.384	0.26
381.591	0.24
381.797	0.26
382.004	0.34
382.211	0.31
382.418	0.19
382.624	0.28
382.831	0.3
383.038	0.27
383.244	0.3
383.451	0.25
383.658	0.28
383.864	0.26
384.071	0.19
384.277	0.35
384.484	0.24
384.69	0.31
384.897	0.22
385.103	0.22
385.31	0.23
385.516	0.26
385.723	0.22
385.929	0.27
386.136	0.27
386.342	0.3
386.549	0.25
386.755	0.33
386.961	0.3
387.168	0.23
387.374	0.22
387.58	0.32
387.787	0.26
387.993	0.32
388.199	0.29
388.406	0.27
388.612	0.25
388.818	0.25
389.024	0.19
389.231	0.26
389.437	0.37
389.643	0.33
389.849	0.27
390.055	0.3
390.261	0.33
390.467	0.34
390.674	0.24
390.88	0.32
391.086	0.34
391.292	0.21
391.498	0.34
391.704	0.34
391.91	0.24
392.116	0.33
392.322	0.17
392.528	0.36
392.734	0.29
392.94	0.29
393.146	0.27
393.352	0.32
393.557	0.28
393.763	0.27
393.969	0.32
394.175	0.33
394.381	0.3
394.587	0.23
394.792	0.3
394.998	0.36
395.204	0.39
395.41	0.31
395.615	0.31
395.821	0.33
396.027	0.37
396.233	0.25
396.438	0.37
396.644	0.38
396.85	0.37
397.055	0.36
397.261	0.35
397.466	0.42
397.672	0.34
397.878	0.38
398.083	0.38
398.289	0.3
398.494	0.42
398.7	0.37
398.905	0.25
399.111	0.43
399.316	0.25
399.522	0.35
399.727	0.29
399.932	0.31
400.138	0.29
400.343	0.37
400.549	0.35
400.754	0.37
400.959	0.4
401.165	0.33
401.37	0.33
401.575	0.51
401.78	0.35
401.986	0.32
402.191	0.34
402.396	0.4
402.601	0.41
402.807	0.34
403.012	0.39
403.217	0.46
403.422	0.39
403.627	0.44
403.832	0.37
404.037	0.44
404.243	0.44
404.448	0.36
404.653	0.42
404.858	0.46
405.063	0.44
405.268	0.43
405.473	0.38
405.678	0.42
405.883	0.6
406.088	0.55
406.293	0.37
406.498	0.45
406.703	0.54
406.907	0.48
407.112	0.4
407.317	0.48
407.522	0.55
407.727	0.42
407.932	0.56
408.136	0.63
408.341	0.57
408.546	0.5
408.751	0.55
408.956	0.6
409.16	0.63
409.365	0.58
409.57	0.62
409.774	0.62
409.979	0.67
410.184	0.67
410.388	0.57
410.593	0.74
410.798	0.74
411.002	0.69
411.207	0.82
411.411	0.76
411.616	0.73
411.82	0.82
412.025	0.87
412.229	0.85
412.434	0.89
412.638	0.89
412.843	0.89
413.047	0.95
413.252	0.87
413.456	1
413.66	1.06
413.865	1.02
414.069	1.17
414.273	1.1
414.478	1.08
414.682	1.17
414.886	1.19
415.091	1.2
415.295	1.26
415.499	1.38
415.703	1.37
415.908	1.41
416.112	1.27
416.316	1.57
416.52	1.54
416.724	1.55
416.929	1.58
417.133	1.85
417.337	1.73
417.541	1.77
417.745	1.82
417.949	1.95
418.153	1.98
418.357	1.96
418.561	2.24
418.765	2.17
418.969	2.32
419.173	2.38
419.377	2.37
419.581	2.67
419.785	2.66
419.989	2.55
420.193	2.73
420.397	2.82
420.601	3.01
420.804	3.07
421.008	3.06
421.212	3.16
421.416	3.24
421.62	3.28
421.823	3.25
422.027	3.57
422.231	3.42
422.435	3.45
422.638	3.57
422.842	3.62
423.046	3.64
423.249	3.87
423.453	3.85
423.657	4.09
423.86	4.19
424.064	4.27
424.268	4.45
424.471	4.4
424.675	4.61
424.878	4.71
425.082	4.89
425.285	5.08
425.489	5
425.692	5.16
425.896	5.17
426.099	5.36
426.303	5.56
426.506	5.68
426.71	5.87
426.913	6.13
427.116	6.25
427.32	6.26
427.523	6.26
427.726	6.7
427.93	6.7
428.133	6.99
428.336	7.19
428.54	7.21
428.743	7.49
428.946	7.73
429.149	7.81
429.353	7.83
429.556	7.94
429.759	7.95
429.962	8.16
430.165	8.17
430.368	7.87
430.571	8.02
430.775	8.12
430.978	7.94
431.181	8.04
431.384	8.1
431.587	8.23
431.79	8.57
431.993	8.46
432.196	8.91
432.399	9.24
432.602	9.41
432.805	9.41
433.008	10
433.211	9.83
433.414	10.15
433.616	10.15
433.819	10.2
434.022	10.33
434.225	10.59
434.428	10.56
434.631	11.02
434.833	10.75
435.036	11.04
435.239	11.26
435.442	11.17
435.645	11.42
435.847	11.57
436.05	11.84
436.253	12.02
436.455	12.03
436.658	11.91
436.861	12.31
437.063	12.47
437.266	12.39
437.468	12.75
437.671	13.01
437.874	13.06
438.076	12.93
438.279	13.48
438.481	13.33
438.684	14.21
438.886	13.81
439.089	14.01
439.291	14.06
439.494	14.38
439.696	14.6
439.899	15.19
440.101	15.59
440.303	15.84
440.506	16.4
440.708	16.16
440.91	16.34
441.113	16.58
441.315	16.75
441.517	16.71
441.72	17.02
441.922	16.8
442.124	16.66
442.326	17.08
442.529	17.36
442.731	17.3
442.933	17.6
443.135	17.21
443.337	17.33
443.539	17.87
443.742	17.63
443.944	18.37
444.146	17.89
444.348	17.92
444.55	17.79
444.752	18.03
444.954	18.13
445.156	17.99
445.358	18.44
445.56	18.58
445.762	18.41
445.964	18.8
446.166	18.54
446.368	18.58
446.57	18.52
446.772	18.07
446.974	17.92
447.175	18.28
447.377	17.93
447.579	18.16
447.781	18.11
447.983	17.67
448.184	17.43
448.386	17.61
448.588	17.15
448.79	17.1
448.991	17.37
449.193	17.51
449.395	16.76
449.597	16.57
449.798	16.31
450	15.89
450.202	15.89
450.403	15.89
450.605	15.57
450.806	15.5
451.008	15.23
451.21	15.01
451.411	14.56
451.613	13.83
451.814	14.03
452.016	14.05
452.217	13.45
452.419	13.36
452.62	13.08
452.821	12.85
453.023	12.6
453.224	12.27
453.426	11.86
453.627	11.14
453.828	11.3
454.03	11.28
454.231	11.36
454.432	11.2
454.634	10.84
454.835	10.62
455.036	10.57
455.238	10.07
455.439	9.86
455.64	9.62
455.841	9.43
456.042	9.56
456.244	9.25
456.445	8.99
456.646	8.77
456.847	8.62
457.048	8.63
457.249	8.6
457.45	8.41
457.651	7.75
457.852	7.71
458.054	7.27
458.255	7.24
458.456	7.31
458.657	7.19
458.858	6.8
459.058	6.71
459.259	6.76
459.46	6.47
459.661	6.47
459.862	6.42
460.063	6.4
460.264	6.27
460.465	6
460.666	6.18
460.866	5.82
461.067	5.44
461.268	5.52
461.469	5.52
461.67	5.39
461.87	5.32
462.071	5.25
462.272	5.2
462.473	5.12
462.673	5.34
462.874	5.19
463.075	5.16
463.275	5.18
463.476	5.14
463.676	5.07
463.877	4.92
464.078	4.83
464.278	5.01
464.479	4.9
464.679	4.81
464.88	4.7
465.08	4.75
465.281	4.53
465.481	4.37
465.682	4.18
465.882	4.2
466.083	4.11
466.283	4.13
466.483	3.88
466.684	3.77
466.884	3.64
467.085	3.71
467.285	3.78
467.485	3.68
467.686	3.53
467.886	3.47
468.086	3.39
468.286	3.4
468.487	3.47
468.687	3.27
468.887	3.23
469.087	3.34
469.287	3.31
469.488	3.07
469.688	3.2
469.888	3.17
470.088	3.17
470.288	3.03
470.488	3.01
470.688	2.88
470.888	2.91
471.088	2.73
471.288	2.82
471.488	2.81
471.688	2.72
471.888	2.71
472.088	2.84
472.288	2.72
472.488	2.61
472.688	2.54
472.888	2.64
473.088	2.59
473.288	2.52
473.488	2.52
473.688	2.65
473.887	2.5
474.087	2.41
474.287	2.44
474.487	2.45
474.687	2.48
474.886	2.36
475.086	2.29
475.286	2.32
475.486	2.27
475.685	2.27
475.885	2.21
476.085	2.35
476.284	2.27
476.484	2.33
476.684	2.25
476.883	2.29
477.083	2.17
477.282	2.15
477.482	2.23
477.681	2.2
477.881	2.09
478.08	2.14
478.28	2.04
478.479	2.05
478.679	2.19
478.878	2.08
479.078	2.08
479.277	2.09
479.477	2.05
479.676	2.03
479.875	2.06
480.075	1.98
480.274	2.04
480.473	2.07
480.673	2.03
480.872	2.12
481.071	2.03
481.271	2.08
481.47	2.03
481.669	1.99
481.868	1.98
482.067	2.01
482.267	1.93
482.466	1.93
482.665	1.97
482.864	1.94
483.063	1.96
483.262	2.03
483.461	2.07
483.661	2.05
483.86	1.98
484.059	2.09
484.258	2.08
484.457	2.02
484.656	2.04
484.855	2.08
485.054	1.97
485.253	2.01
485.452	1.97
485.651	2.11
485.849	2.03
486.048	2.02
486.247	2.03
486.446	2.13
486.645	2.02
486.844	2.08
487.043	2.08
487.241	2.08
487.44	2.06
487.639	2.15
487.838	2.12
488.037	2.1
488.235	2.23
488.434	2.18
488.633	2.04
488.831	2.23
489.03	2.24
489.229	2.24
489.427	2.23
489.626	2.28
489.825	2.28
490.023	2.31
490.222	2.28
490.42	2.32
490.619	2.34
490.817	2.33
491.016	2.38
491.214	2.43
491.413	2.41
491.611	2.39
491.81	2.44
492.008	2.48
492.207	2.53
492.405	2.53
492.604	2.44
492.802	2.55
493	2.59
493.199	2.61
493.397	2.64
493.595	2.74
493.794	2.67
493.992	2.81
494.19	2.77
494.388	2.85
494.587	2.77
494.785	2.77
494.983	2.71
495.181	2.85
495.379	2.89
495.578	2.93
495.776	2.95
495.974	2.96
496.172	2.95
496.37	3.06
496.568	3.11
496.766	3.12
496.964	3.21
497.162	3.17
497.36	3.18
497.558	3.24
497.756	3.29
497.954	3.26
498.152	3.3
498.35	3.43
498.548	3.35
498.746	3.4
498.944	3.45
499.142	3.43
499.34	3.49
499.538	3.64
499.736	3.48
499.933	3.59
500.131	3.62
500.329	3.81
500.527	3.75
500.725	3.85
500.922	3.87
501.12	3.87
501.318	3.96
501.516	3.9
501.713	4.01
501.911	4
502.109	3.94
502.306	4.11
502.504	4.02
502.701	4.11
502.899	4.15
503.097	4.36
503.294	4.21
503.492	4.35
503.689	4.36
503.887	4.4
504.084	4.42
504.282	4.44
504.479	4.41
504.677	4.57
504.874	4.5
505.072	4.46
505.269	4.66
505.466	4.7
505.664	4.76
505.861	4.61
506.059	4.74
506.256	4.82
506.453	4.87
506.651	4.96
506.848	5.02
507.045	4.96
507.242	4.93
507.44	5.02
507.637	5.07
507.834	5.1
508.031	5.2
508.229	5.13
508.426	5.14
508.623	5.27
508.82	5.31
509.017	5.29
509.214	5.23
509.411	5.42
509.608	5.29
509.805	5.51
510.003	5.43
510.2	5.51
510.397	5.69
510.594	5.53
510.791	5.65
510.988	5.63
511.184	5.58
511.381	5.51
511.578	5.67
511.775	5.76
511.972	5.73
512.169	5.81
512.366	5.79
512.563	5.95
512.76	5.95
512.956	6
513.153	5.93
513.35	5.86
513.547	5.95
513.744	6
513.94	6.02
514.137	6.12
514.334	6.12
514.53	6.2
514.727	6.38
514.924	6.28
515.12	6.26
515.317	6.26
515.514	6.2
515.71	6.21
515.907	6.43
516.103	6.41
516.3	6.31
516.497	6.51
516.693	6.5
516.89	6.44
517.086	6.49
517.283	6.55
517.479	6.48
517.676	6.61
517.872	6.67
518.068	6.61
518.265	6.66
518.461	6.58
518.658	6.78
518.854	6.72
519.05	6.79
519.247	6.82
519.443	6.72
519.639	6.91
519.836	6.77
520.032	6.71
520.228	6.88
520.424	6.89
520.621	6.9
520.817	7.03
521.013	6.96
521.209	7.09
521.405	7.07
521.601	7.03
521.798	7.01
521.994	7.04
522.19	6.97
522.386	7.03
522.582	7.1
522.778	7.25
522.974	7.1
523.17	7.16
523.366	7.14
523.562	7.14
523.758	7.18
523.954	7
524.15	7.15
524.346	7.3
524.542	7.28
524.738	7.25
524.934	7.34
525.129	7.34
525.325	7.25
525.521	7.22
525.717	7.48
525.913	7.32
526.109	7.34
526.304	7.46
526.5	7.41
526.696	7.55
526.892	7.35
527.087	7.58
527.283	7.47
527.479	7.52
527.674	7.32
527.87	7.47
528.066	7.5
528.261	7.53
528.457	7.45
528.653	7.57
528.848	7.6
529.044	7.65
529.239	7.58
529.435	7.54
529.63	7.52
529.826	7.54
530.021	7.52
530.217	7.61
530.412	7.59
530.608	7.61
530.803	7.61
530.999	7.54
531.194	7.64
531.389	7.7
531.585	7.68
531.78	7.82
531.975	7.74
532.171	7.79
532.366	7.68
532.561	7.74
532.757	7.71
532.952	7.87
533.147	7.66
533.342	7.79
533.538	7.75
533.733	7.93
533.928	7.59
534.123	7.78
534.318	7.83
534.513	7.76
534.709	7.92
534.904	7.86
535.099	7.94
535.294	7.89
535.489	7.91
535.684	7.8
535.879	7.83
536.074	7.9
536.269	7.85
536.464	7.91
536.659	7.85
536.854	7.87
537.049	7.98
537.244	7.88
537.439	7.87
537.634	7.91
537.828	7.96
538.023	7.94
538.218	7.88
538.413	7.88
538.608	7.94
538.803	7.93
538.997	7.89
539.192	7.89
539.387	7.94
539.582	7.87
539.776	7.88
539.971	7.97
540.166	8.01
540.36	7.95
540.555	8.07
540.75	8
540.944	8.01
541.139	7.98
541.334	7.98
541.528	8
541.723	8.09
541.917	8.06
542.112	7.98
542.306	7.89
542.501	7.92
542.695	7.92
542.89	7.98
543.084	7.98
543.279	8.05
543.473	8.08
543.668	8.08
543.862	7.99
544.056	7.92
544.251	8.04
544.445	8.05
544.64	8.12
544.834	7.87
545.028	7.71
545.222	8.06
545.417	8.26
545.611	8.12
545.805	8.11
546	7.88
546.194	8.06
546.388	8.08
546.582	7.98
546.776	7.99
546.97	8
547.165	8.1
547.359	8.01
547.553	8.03
547.747	8.05
547.941	8.27
548.135	8.1
548.329	8.05
548.523	8.08
548.717	7.97
548.911	7.96
549.105	8
549.299	8.13
549.493	8.08
549.687	8.02
549.881	8.14
550.075	8.12
550.269	7.98
550.463	8.18
550.657	8.07
550.85	8.12
551.044	8.05
551.238	8.14
551.432	8.1
551.626	8.11
551.82	8.1
552.013	8.01
552.207	8.13
552.401	8.2
552.594	8.1
552.788	8.04
552.982	8.04
553.176	7.99
553.369	8.22
553.563	8.14
553.756	8.04
553.95	8.12
554.144	8.16
554.337	8.14
554.531	7.97
554.724	8.14
554.918	8.18
555.111	8.06
555.305	8.14
555.498	8.07
555.692	8.17
555.885	8.14
556.079	8.09
556.272	8.07
556.466	8.17
556.659	8.04
556.852	8.15
557.046	8.1
557.239	7.96
557.432	8.1
557.626	8.17
557.819	8.13
558.012	8.1
558.206	8.26
558.399	8.11
558.592	8.08
558.785	8.07
558.979	8.05
559.172	8.17
559.365	8.11
559.558	8.02
559.751	8.06
559.944	8.22
560.138	8.07
560.331	8.1
560.524	8.16
560.717	8.09
560.91	8.05
561.103	8.16
561.296	7.93
561.489	8.13
561.682	8.22
561.875	8.11
562.068	8.17
562.261	8
562.454	8.27
562.647	8.02
562.84	8.08
563.032	8.16
563.225	8.07
563.418	8.06
563.611	8.17
563.804	8.16
563.997	8.02
564.19	7.87
564.382	8.18
564.575	8.08
564.768	8.05
564.961	8.13
565.153	8.06
565.346	8.01
565.539	8.17
565.731	8.11
565.924	8.16
566.117	8.23
566.309	8.14
566.502	8.06
566.695	7.98
566.887	8.1
567.08	8.11
567.272	8.04
567.465	7.99
567.657	8.13
567.85	8
568.042	8.14
568.235	8.14
568.427	7.89
568.62	8.08
568.812	8
569.005	8.09
569.197	8.02
569.389	8.11
569.582	8.09
569.774	8.07
569.966	8.01
570.159	7.95
570.351	7.91
570.543	8
570.736	8.04
570.928	7.9
571.12	8.02
571.312	7.99
571.505	7.81
571.697	8.02
571.889	8.01
572.081	8.04
572.273	7.86
572.465	8.05
572.658	7.97
572.85	8.01
573.042	8.05
573.234	7.92
573.426	7.98
573.618	7.89
573.81	7.95
574.002	7.98
574.194	7.98
574.386	7.92
574.578	7.78
574.77	7.95
574.962	7.99
575.154	7.84
575.346	7.85
575.538	7.77
575.729	7.84
575.921	7.98
576.113	7.96
576.305	7.98
576.497	8.02
576.689	7.82
576.88	7.77
577.072	7.95
577.264	7.88
577.456	7.87
577.647	7.78
577.839	7.95
578.031	7.9
578.223	7.86
578.414	7.72
578.606	7.84
578.798	7.88
578.989	7.85
579.181	7.9
579.372	7.8
579.564	7.84
579.755	7.82
579.947	7.72
580.139	7.81
580.33	7.65
580.522	7.77
580.713	7.72
580.905	7.74
581.096	7.85
581.287	7.72
581.479	7.71
581.67	7.82
581.862	7.67
582.053	7.74
582.244	7.62
582.436	7.84
582.627	7.67
582.818	7.69
583.01	7.67
583.201	7.74
583.392	7.56
583.583	7.65
583.775	7.48
583.966	7.57
584.157	7.64
584.348	7.77
584.54	7.59
584.731	7.56
584.922	7.56
585.113	7.45
585.304	7.58
585.495	7.56
585.686	7.69
585.877	7.65
586.068	7.64
586.259	7.55
586.45	7.57
586.641	7.51
586.832	7.58
587.023	7.52
587.214	7.44
587.405	7.54
587.596	7.43
587.787	7.42
587.978	7.5
588.169	7.45
588.36	7.29
588.551	7.42
588.742	7.38
588.932	7.46
589.123	7.22
589.314	7.51
589.505	7.33
589.696	7.34
589.886	7.28
590.077	7.4
590.268	7.26
590.458	7.21
590.649	7.18
590.84	7.26
591.03	7.3
591.221	7.27
591.412	7.16
591.602	7.4
591.793	7.27
591.984	7.23
592.174	7.31
592.365	7.41
592.555	7.12
592.746	7.12
592.936	7.19
593.127	7.18
593.317	7.24
593.508	7.22
593.698	7.11
593.889	7.09
594.079	7.08
594.269	7
594.46	7.07
594.65	7.03
594.84	7.1
595.031	6.95
595.221	6.98
595.411	7.01
595.602	7.03
595.792	6.91
595.982	6.91
596.172	7.07
596.363	6.96
596.553	6.9
596.743	6.97
596.933	6.94
597.123	6.9
597.314	6.74
597.504	6.77
597.694	6.93
597.884	6.81
598.074	6.9
598.264	6.84
598.454	6.78
598.644	6.75
598.834	6.81
599.024	6.63
599.214	6.73
599.404	6.8
599.594	6.73
599.784	6.68
599.974	6.73
600.164	6.73
600.354	6.59
600.544	6.51
600.734	6.58
600.924	6.62
601.114	6.48
601.303	6.6
601.493	6.58
601.683	6.61
601.873	6.55
602.063	6.44
602.252	6.43
602.442	6.42
602.632	6.46
602.821	6.34
603.011	6.53
603.201	6.38
603.39	6.47
603.58	6.23
603.77	6.4
603.959	6.42
604.149	6.34
604.339	6.32
604.528	6.38
604.718	6.39
604.907	6.33
605.097	6.24
605.286	6.21
605.476	6.25
605.665	6.3
605.855	6.19
606.044	6.25
606.234	6.22
606.423	6.15
606.612	6.14
606.802	6.12
606.991	6.26
607.181	6.17
607.37	6.16
607.559	5.89
607.749	6.09
607.938	5.98
608.127	6.03
608.316	6
608.506	6.04
608.695	6.08
608.884	6
609.073	6
609.263	6.08
609.452	6.01
609.641	5.84
609.83	5.78
610.019	5.94
610.208	5.81
610.397	5.81
610.586	5.9
610.775	5.77
610.965	5.82
611.154	5.76
611.343	5.84
611.532	5.68
611.721	5.85
611.91	5.72
612.099	5.69
612.287	5.69
612.476	5.53
612.665	5.7
612.854	5.59
613.043	5.67
613.232	5.6
613.421	5.54
613.61	5.58
613.798	5.59
613.987	5.56
614.176	5.57
614.365	5.53
614.554	5.51
614.742	5.53
614.931	5.35
615.12	5.53
615.309	5.44
615.497	5.42
615.686	5.33
615.875	5.41
616.063	5.34
616.252	5.33
616.44	5.34
616.629	5.34
616.818	5.27
617.006	5.21
617.195	5.26
617.383	5.19
617.572	5.23
617.76	5.1
617.949	5.21
618.137	5.27
618.326	5.26
618.514	5
618.703	5
618.891	5.19
619.079	5
619.268	5.16
619.456	5.03
619.644	5.11
619.833	5.04
620.021	4.96
620.209	4.94
620.398	5.01
620.586	4.92
620.774	4.98
620.962	4.94
621.151	5.03
621.339	4.9
621.527	4.84
621.715	4.82
621.903	4.9
622.092	4.75
622.28	4.92
622.468	4.68
622.656	4.85
622.844	4.76
623.032	4.79
623.22	4.61
623.408	4.83
623.596	4.71
623.784	4.81
623.972	4.63
624.16	4.67
624.348	4.7
624.536	4.7
624.724	4.59
624.912	4.67
625.1	4.68
625.288	4.61
625.476	4.52
625.664	4.59
625.851	4.49
626.039	4.46
626.227	4.53
626.415	4.54
626.603	4.33
626.79	4.5
626.978	4.42
627.166	4.48
627.354	4.41
627.541	4.36
627.729	4.23
627.917	4.49
628.104	4.47
628.292	4.3
628.48	4.29
628.667	4.24
628.855	4.41
629.042	4.38
629.23	4.23
629.418	4.25
629.605	4.23
629.793	4.14
629.98	4.16
630.168	4.09
630.355	4.18
630.543	4.14
630.73	4.09
630.917	4.09
631.105	4.22
631.292	4.15
631.48	4.03
631.667	4.19
631.854	4.05
632.042	4.01
632.229	3.92
632.416	4.05
632.604	3.94
632.791	3.86
632.978	3.97
633.165	3.93
633.353	4
633.54	3.98
633.727	3.78
633.914	3.84
634.101	3.76
634.289	3.95
634.476	3.79
634.663	3.74
634.85	3.78
635.037	3.7
635.224	3.67
635.411	3.86
635.598	3.78
635.785	3.71
635.972	3.7
636.159	3.68
636.346	3.65
636.533	3.61
636.72	3.68
636.907	3.68
637.094	3.63
637.281	3.5
637.468	3.55
637.655	3.56
637.842	3.55
638.029	3.52
638.215	3.53
638.402	3.51
638.589	3.4
638.776	3.44
638.963	3.44
639.149	3.47
639.336	3.59
639.523	3.42
639.709	3.4
639.896	3.4
640.083	3.4
640.27	3.39
640.456	3.32
640.643	3.4
640.829	3.26
641.016	3.24
641.203	3.22
641.389	3.28
641.576	3.26
641.762	3.3
641.949	3.21
642.135	3.23
642.322	3.18
642.508	3.12
642.695	3.19
642.881	3.12
643.068	3.11
643.254	3.16
643.441	3.16
643.627	3.19
643.813	3
644	3.13
644.186	3.04
644.372	3.13
644.559	3.09
644.745	3.05
644.931	2.97
645.118	3.08
645.304	3.01
645.49	3
645.676	2.95
645.862	2.96
646.049	2.98
646.235	2.93
646.421	3.06
646.607	3.06
646.793	2.87
646.979	2.82
647.165	2.85
647.352	2.96
647.538	2.87
647.724	2.82
647.91	2.78
648.096	2.84
648.282	2.89
648.468	2.81
648.654	2.79
648.84	2.8
649.026	2.81
649.212	2.68
649.397	2.69
649.583	2.75
649.769	2.75
649.955	2.71
650.141	2.69
650.327	2.77
650.513	2.63
650.698	2.66
650.884	2.51
651.07	2.72
651.256	2.59
651.442	2.59
651.627	2.55
651.813	2.58
651.999	2.56
652.184	2.59
652.37	2.52
652.556	2.52
652.741	2.58
652.927	2.43
653.113	2.53
653.298	2.51
653.484	2.48
653.669	2.36
653.855	2.46
654.04	2.49
654.226	2.43
654.412	2.38
654.597	2.34
654.782	2.42
654.968	2.41
655.153	2.38
655.339	2.35
655.524	2.3
655.71	2.37
655.895	2.44
656.08	2.35
656.266	2.39
656.451	2.29
656.636	2.21
656.822	2.3
657.007	2.28
657.192	2.31
657.378	2.22
657.563	2.19
657.748	2.25
657.933	2.29
658.118	2.22
658.304	2.22
658.489	2.26
658.674	2.24
658.859	2.16
659.044	2.18
659.229	2.22
659.414	2.1
659.599	2.18
659.785	2.06
659.97	2.13
660.155	2.14
660.34	2.16
660.525	2.03
660.71	2.06
660.895	2.08
661.08	2.04
661.264	2.03
661.449	2.14
661.634	2.03
661.819	2.06
662.004	2.07
662.189	1.92
662.374	2
662.559	1.92
662.743	1.89
662.928	2
663.113	1.9
663.298	1.95
663.483	1.87
663.667	2
663.852	1.93
664.037	2.01
664.221	1.94
664.406	1.99
664.591	1.96
664.775	1.9
664.96	1.89
665.145	1.88
665.329	1.88
665.514	1.84
665.698	1.82
665.883	1.69
666.068	1.88
666.252	1.9
666.437	1.77
666.621	1.81
666.806	1.84
666.99	1.76
667.174	1.76
667.359	1.79
667.543	1.77
667.728	1.74
667.912	1.68
668.096	1.76
668.281	1.72
668.465	1.8
668.649	1.66
668.834	1.64
669.018	1.71
669.202	1.67
669.387	1.7
669.571	1.72
669.755	1.6
669.939	1.66
670.124	1.66
670.308	1.7
670.492	1.67
670.676	1.63
670.86	1.62
671.044	1.55
671.228	1.65
671.413	1.56
671.597	1.62
671.781	1.59
671.965	1.59
672.149	1.6
672.333	1.64
672.517	1.55
672.701	1.62
672.885	1.53
673.069	1.48
673.253	1.66
673.437	1.55
673.621	1.45
673.804	1.56
673.988	1.54
674.172	1.47
674.356	1.41
674.54	1.53
674.724	1.59
674.908	1.43
675.091	1.52
675.275	1.52
675.459	1.52
675.643	1.44
675.826	1.46
676.01	1.43
676.194	1.51
676.377	1.51
676.561	1.46
676.745	1.4
676.928	1.41
677.112	1.47
677.296	1.36
677.479	1.36
677.663	1.32
677.846	1.43
678.03	1.41
678.213	1.35
678.397	1.37
678.58	1.36
678.764	1.35
678.947	1.31
679.131	1.35
679.314	1.41
679.498	1.29
679.681	1.37
679.865	1.39
680.048	1.28
680.231	1.29
680.415	1.25
680.598	1.27
680.781	1.28
680.965	1.26
681.148	1.3
681.331	1.18
681.514	1.31
681.698	1.24
681.881	1.28
682.064	1.28
682.247	1.29
682.43	1.17
682.614	1.2
682.797	1.32
682.98	1.28
683.163	1.14
683.346	1.2
683.529	1.2
683.712	1.14
683.895	1.24
684.078	1.1
684.261	1.19
684.444	1.19
684.627	1.25
684.81	1.19
684.993	1.16
685.176	1.19
685.359	1.13
685.542	1.06
685.725	1.24
685.908	1.15
686.091	1.11
686.274	1.15
686.457	1.2
686.639	1.13
686.822	1.13
687.005	1.11
687.188	1.2
687.371	1.26
687.553	1.19
687.736	1.11
687.919	1.17
688.102	1.16
688.284	1.1
688.467	1.04
688.65	1.07
688.832	0.97
689.015	1.03
689.197	0.98
689.38	1.1
689.563	1.18
689.745	0.95
689.928	1.01
690.11	1.02
690.293	1.05
690.475	0.93
690.658	1.04
690.84	1.04
691.023	0.95
691.205	0.89
691.388	0.98
691.57	1.04
691.752	1.04
691.935	0.88
692.117	0.99
692.3	1.02
692.482	0.95
692.664	0.94
692.847	0.97
693.029	1.04
693.211	0.98
693.393	0.96
693.576	0.86
693.758	0.92
693.94	0.94
694.122	0.92
694.304	0.89
694.487	0.88
694.669	0.98
694.851	0.85
695.033	0.88
695.215	0.86
695.397	0.9
695.579	0.91
695.761	0.85
695.943	0.8
696.125	0.97
696.308	0.88
696.49	0.76
696.671	1.04
696.853	0.86
697.035	1.14
697.217	0.9
697.399	0.97
697.581	0.84
697.763	0.86
697.945	0.79
698.127	0.9
698.309	0.91
698.491	0.85
698.672	0.92
698.854	0.93
699.036	0.93
699.218	0.81
699.399	0.88
699.581	0.93
699.763	0.8
699.945	0.77
700.126	0.73
700.308	0.84
700.49	0.82
700.671	0.71
700.853	0.77
701.035	0.83
701.216	0.8
701.398	0.72
701.579	0.83
701.761	0.9
701.943	0.75
702.124	0.75
702.306	0.79
702.487	0.92
702.669	0.81
702.85	0.78
703.031	0.71
703.213	0.88
703.394	0.84
703.576	0.72
703.757	0.93
703.938	0.84
704.12	0.87
704.301	0.79
704.483	0.7
704.664	0.81
704.845	0.86
705.026	0.79
705.208	0.67
705.389	0.77
705.57	0.75
705.751	0.71
705.933	0.78
706.114	0.78
706.295	0.69
706.476	0.68
706.657	0.83
706.838	0.7
707.02	0.81
707.201	0.71
707.382	0.68
707.563	0.82
707.744	0.65
707.925	0.62
708.106	0.63
708.287	0.71
708.468	0.85
708.649	0.65
708.83	0.74
709.011	0.62
709.192	0.79
709.373	0.65
709.554	0.63
709.734	0.83
709.915	0.67
710.096	0.6
710.277	0.54
710.458	0.63
710.639	0.74
710.819	0.57
711	0.62
711.181	0.71
711.362	0.71
711.542	0.65
711.723	0.6
711.904	0.71
712.085	0.65
712.265	0.69
712.446	0.5
712.627	0.66
712.807	0.65
712.988	0.66
713.168	0.51
713.349	0.68
713.53	0.48
713.71	0.54
713.891	0.51
714.071	0.56
714.252	0.62
714.432	0.55
714.613	0.52
714.793	0.63
714.974	0.71
715.154	0.68
715.334	0.69
715.515	0.74
715.695	0.43
715.876	0.56
716.056	0.49
716.236	0.55
716.417	0.57
716.597	0.51
716.777	0.87
716.957	0.63
717.138	0.68
717.318	0.6
717.498	0.49
717.678	0.59
717.859	0.67
718.039	0.46
718.219	0.58
718.399	0.62
718.579	0.54
718.759	0.47
718.939	0.67
719.12	0.6
719.3	0.6
719.48	0.42
719.66	0.43
719.84	0.65
720.02	0.54
720.2	0.43
720.38	0.55
720.56	0.75
720.74	0.45
720.92	0.57
721.1	0.73
721.279	0.62
721.459	0.55
721.639	0.41
721.819	0.48
721.999	0.53
722.179	0.58
722.359	0.41
722.538	0.46
722.718	0.56
722.898	0.63
723.078	0.51
723.257	0.53
723.437	0.54
723.617	0.57
723.797	0.49
723.976	0.57
724.156	0.54
724.336	0.55
724.515	0.74
724.695	0.41
724.874	0.55
725.054	0.56
725.234	0.42
725.413	0.51
725.593	0.51
725.772	0.54
725.952	0.46
726.131	0.41
726.311	0.53
726.49	0.51
726.67	0.32
726.849	0.44
727.028	0.46
727.208	0.56
727.387	0.53
727.567	0.37
727.746	0.45
727.925	0.48
728.105	0.4
728.284	0.39
728.463	0.37
728.643	0.45
728.822	0.41
729.001	0.42
729.18	0.44
729.359	0.57
729.539	0.4
729.718	0.47
729.897	0.54
730.076	0.49
730.255	0.39
730.434	0.52
730.614	0.59
730.793	0.44
730.972	0.46
731.151	0.47
731.33	0.59
731.509	0.5
731.688	0.51
731.867	0.5
732.046	0.33
732.225	0.61
732.404	0.4
732.583	0.38
732.762	0.44
732.941	0.52
733.12	0.47
733.298	0.44
733.477	0.64
733.656	0.4
733.835	0.35
734.014	0.55
734.193	0.42
734.371	0.54
734.55	0.57
734.729	0.35
734.908	0.57
735.086	0.59
735.265	0.58
735.444	0.31
735.623	0.4
735.801	0.32
735.98	0.47
736.159	0.41
736.337	0.57
736.516	0.48
736.694	0.4
736.873	0.41
737.052	0.7
737.23	0.48
737.409	0.39
737.587	0.77
737.766	0.23
737.944	0.44
738.123	0.5
738.301	0.51
738.479	0.47
738.658	0.55
738.836	0.29
739.015	0.49
739.193	0.58
739.371	0.37
739.55	0.51
739.728	0.46
739.906	0.7
740.085	0.69
740.263	0.56
740.441	0.3
740.62	0.64
740.798	0.51
740.976	0.42
741.154	0.33
741.332	0.55
741.511	0.3
741.689	0.51
741.867	0.58
742.045	0.59
742.223	0.59
742.401	0.3
742.579	0.39
742.757	0.51
742.935	0.33
743.114	0.29
743.292	0.34
743.47	0.4
743.648	0.5
743.826	0.51
744.004	0.45
744.181	0.49
744.359	0.42
744.537	0.53
744.715	0.39
744.893	0.38
745.071	0.49
745.249	0.36
745.427	0.37
745.605	0.5
745.782	0.45
745.96	0.44
746.138	0.52
746.316	0.48
746.493	0.42
746.671	0.4
746.849	0.32
747.027	0.6
747.204	0.29
747.382	0.48
747.56	0.31
747.737	0.38
747.915	0.47
748.093	0.61
748.27	0.25
748.448	0.39
748.625	0.25
748.803	0.37
748.98	0.3
749.158	0.38
749.335	0.51
749.513	0.41
749.69	0.37
749.868	0.43
750.045	0.42
750.223	0.39
750.4	0.2
750.578	0.59
750.755	0.37
750.932	0.2
751.11	0.49
751.287	0.26
751.464	0.58
751.642	0.25
751.819	0.45
751.996	0.4
752.173	0.31
752.351	0.25
752.528	0.43
752.705	0.32
752.882	0.23
753.06	0.37
753.237	0.49
753.414	0.56
753.591	0.64
753.768	0.47
753.945	0.27
754.122	0.35
754.299	0.46
754.476	0.25
754.654	0.34
754.831	0.57
755.008	0.37
755.185	0.3
755.362	0.14
755.539	0.53
755.716	0.27
755.892	0.41
756.069	0.39
756.246	0.33
756.423	0.44
756.6	0.55
756.777	0.28
756.954	0.38
757.131	0.41
757.307	0.45
757.484	0.23
757.661	0.44
757.838	0.47
758.015	0.18
758.191	0.37
758.368	0.51
758.545	0.6
758.721	0.43
758.898	0.25
759.075	0.42
759.251	0.44
759.428	0.35
759.605	0.19
759.781	0.42
759.958	0.44
760.134	0.52
760.311	0.29
760.488	0.51
760.664	0.61
760.841	0.31
761.017	0.16
761.194	0.41
761.37	0.53
761.547	0.28
761.723	0.35
761.899	0.58
762.076	0.29
762.252	0.25
762.429	0.3
762.605	0.49
762.781	0.31
762.958	0.34
763.134	0.26
763.31	0.25
763.486	0.57
763.663	0.14
763.839	0.44
764.015	0.12
764.191	0.23
764.368	0.36
764.544	0.29
764.72	0.39
764.896	0.48
765.072	0.46
765.248	0.25
765.425	0.43
765.601	0.52
765.777	0.32
765.953	0.04
766.129	0.33
766.305	0.28
766.481	0.54
766.657	0.33
766.833	0.52
767.009	0.28
767.185	0.31
767.361	0.32
767.537	0.18
767.713	0.54
767.889	0.19
768.065	0.29
768.24	0.1
768.416	0.42
768.592	0.33
768.768	0.33
768.944	0.45
769.12	0.16
769.295	0.39
769.471	0.35
769.647	0.39
769.823	0.51
769.998	0.26
770.174	0.28
770.35	0.83
770.525	0.7
770.701	0.42
770.877	0.37
771.052	0.27
771.228	0.38
771.403	0.54
771.579	0.36
771.755	0.65
771.93	0.39
772.106	0.27
772.281	0.11
772.457	0.44
772.632	0.4
772.808	0.22
772.983	0.4
773.159	0.23
773.334	0.58
773.509	0.35
773.685	0.33
773.86	0.71
774.036	0.58
774.211	0.27
774.386	0.35
774.562	0.43
774.737	0.51
774.912	0.3
775.087	0.55
775.263	0.26
775.438	0.49
775.613	0.17
775.788	0.26
775.964	0.53
776.139	0.8
776.314	0.1
776.489	0.38
776.664	0.46
776.839	0.28
777.014	0.56
777.19	0.46
777.365	0.58
777.54	0.69
777.715	0.3
777.89	0.41
778.065	0.23
778.24	0.37
778.415	0.5
778.59	0.07
778.765	0.44
778.94	0.35
779.115	0.17
779.289	0.33
779.464	0.42
779.639	0.44
779.814	0.15
779.989	0.03
780.164	0.57
780.339	0.52
780.513	0.22
780.688	0.13
780.863	0.32
781.038	0.61
781.212	0.28
781.387	0.21
781.562	0.65
781.737	0.38
781.911	0.53
782.086	0.27
782.261	0.33
782.435	0.57
782.61	0.33
782.784	0.37
782.959	0.77
783.134	0.24
783.308	0.26
783.483	0.34
783.657	0.83
783.832	0.62
784.006	0.05
784.181	0.33
784.355	0.54
784.53	0.3
784.704	0.23
784.878	0.76
785.053	0.69
785.227	0.72
785.402	0.71
785.576	0.36
785.75	0.49
785.925	0.27
786.099	0.28
786.273	0.59
786.448	0.68
786.622	0.6
786.796	0.34
786.97	0.26
787.145	1.06
787.319	-0.04
787.493	0.33
787.667	0.04
787.841	0.48
788.015	0.84
788.19	0.15
788.364	0.41
788.538	0.69
788.712	0.63
788.886	0.32
789.06	0.58
789.234	0.82
789.408	0.17
789.582	0.18
789.756	0.28
789.93	0.22
790.104	0.23
790.278	0.34
790.452	0.11
790.626	0.41
790.8	0.26
790.973	0.78
791.147	0.77
791.321	0.81
791.495	0.76
791.669	0.71
791.843	0.65
792.016	0.46
792.19	1.1
792.364	0.36
792.538	1
792.711	0.63
792.885	0.31
793.059	0.1
793.233	-0.2
793.406	0.79
793.58	0.52
793.754	0.63
793.927	0.27
794.101	0.67
794.274	0.35
794.448	0.66
794.622	0.14
794.795	0.78
794.969	0.24
795.142	0.66
795.316	0.31
795.489	0.4
795.663	0.76
795.836	0.52
796.009	0.31
796.183	0.79
796.356	0.43
796.53	0.63
796.703	0.5
796.876	1.27
797.05	0.28
797.223	0.36
797.396	0.41
797.57	0.64
797.743	0.93
797.916	0.25
798.09	0.49
798.263	0.59
798.436	0.78
798.609	0.26
798.782	0.27
798.956	0.85
799.129	0.59
799.302	0.56
799.475	0.23
799.648	0.21
799.821	0.27
799.994	0.54
800.167	0.11
800.34	0.36
800.514	0.47
800.687	0.31
800.86	0.41
801.033	0.95
801.206	0.87
801.379	0.17
801.551	0.91
801.724	0.69
801.897	0.9
802.07	0.35
802.243	0.24
802.416	0.35
802.589	0.58
802.762	0.53
802.935	0.49
803.107	0.93
803.28	0.96
803.453	0.66
803.626	0.48
803.798	0.68
803.971	0.45
804.144	0.72
804.317	0.36
804.489	0.74
804.662	0.4
804.835	0.52
805.007	-0.04
805.18	0.74
805.353	0.45
805.525	0.01
805.698	0.48
805.87	0.72
806.043	0.92
806.215	0.28
806.388	0.36
806.56	0.78
806.733	1.09
806.905	0.47
807.078	0.3
807.25	0.21
807.423	0.55
807.595	0.65
807.768	0.56
807.94	0.94
808.112	0.61
808.285	0.63
808.457	0.17
808.629	0.52
808.802	0.99
808.974	0.79
809.146	0.15
809.318	0.36
809.491	0.93
809.663	0.71
809.835	0.28
810.007	0.66
810.18	0.46
810.352	-0.01
810.524	0.44
810.696	0.8
810.868	1.1
811.04	-0.1
811.212	0.34
811.384	0.7
811.556	0.59
811.728	0.36
811.901	1.29
812.073	0.67
812.245	1.14
812.417	0.42
812.589	-0.22
812.76	0.89
812.932	0.63
813.104	0.75
813.276	0.36
813.448	0.95
813.62	0.28
813.792	0.7
813.964	0.53
814.136	0.71
814.307	0.38
814.479	0.08
814.651	0.43
814.823	1.38
814.995	0.47
815.166	0.67
815.338	0.37
815.51	-0.1
815.681	1.58
815.853	0.47
816.025	0.19
816.196	1.2
816.368	1.29
816.54	0.49
816.711	0.22
816.883	1.34
817.054	1.63
817.226	0
817.398	0.74
817.569	0.29
817.741	0.6
817.912	0.29
818.084	0.4
818.255	0.79
818.426	0.37
818.598	-0.14
818.769	0.33
818.941	0.48
819.112	1.49
819.283	0.39
819.455	0.29
819.626	0.39
819.798	0.73
819.969	0.84
820.14	1.22
820.311	0.71
820.483	1.01
820.654	0.56
820.825	0.2
820.996	0.39
821.168	-0.13
821.339	0.43
821.51	-0.21
821.681	0.22
821.852	0.77
822.023	0.27
822.195	0.46
822.366	1.19
822.537	0.54
822.708	0.67
822.879	0.18
823.05	1.72
823.221	0.55
823.392	0.49
823.563	0.35
823.734	0.57
823.905	0.94
824.076	0.61
824.247	0.32
824.418	0.86
824.589	0.94
824.759	0.66
824.93	0.48
825.101	-0.36
825.272	1.37
825.443	1
825.614	1.47
825.784	-0.41
825.955	1.82
826.126	0.95
826.297	0.46
826.467	1.42
826.638	2.08
826.809	0.31
826.98	0.38
827.15	1.1
827.321	0.86
827.492	2.13
827.662	0.48
827.833	2.02
828.003	1.01
828.174	0.04
828.345	-0.07
828.515	2
828.686	0.58
828.856	0.92
829.027	0.6
829.197	1.4
829.368	0.85
829.538	0.34
829.709	0.46
829.879	1.04
830.049	0.98
830.22	0.84
830.39	0.82
830.56	1.34
830.731	0.78
830.901	0.64
831.072	0.59
831.242	1.19
831.412	1.11
831.582	0.42
831.753	0.36
831.923	1.36
832.093	1.38
832.263	0.27
832.434	0.68
832.604	0.97
832.774	1.64
832.944	0.94
833.114	0.11
833.284	0.91
833.454	0.34
833.624	0.61
833.795	0.63
833.965	1.68
834.135	1.71
834.305	0.18
834.475	-0.1
834.645	0.7
834.815	0.66
834.985	0.13
835.155	0.48
835.325	1.46
835.494	1.96
835.664	0.35
835.834	0.15
836.004	0.5
836.174	1.13
836.344	0.72
836.514	0.63
836.684	0.71
836.853	0.76
837.023	0.97
837.193	0.41
837.363	2.08
837.532	1.78
837.702	0.37
837.872	0.41
838.041	1.69
838.211	2.92
838.381	-0.51
838.55	1.05
838.72	3
838.89	2.17
839.059	0.28
839.229	-0.14
839.398	3.62
839.568	1.03
839.738	0.65
839.907	2.2
840.077	1.51
840.246	0.25
840.416	0.41
840.585	0.1
840.755	2.54
840.924	2.39
841.093	0.09
841.263	-0.07
841.432	1.32
841.602	0.04
841.771	-0.09
841.94	0.47
842.11	2.95
842.279	2.25
842.448	-0.34
842.617	0.75
842.787	2.17
842.956	0.28
843.125	0.87
843.294	0.37
843.464	2.12
843.633	1.27
843.802	-0.19
843.971	0.8
844.14	2.13
844.309	2
844.479	-0.04
844.648	0.44
844.817	0.99
844.986	0.57
845.155	0.56
845.324	0.43
845.493	0.88
845.662	0.32
845.831	0.92
846	1.42
846.169	1.49
846.338	2.01
846.507	1.13
846.676	0.64
846.844	0.46
847.013	2.64
847.182	1.19
847.351	0.13
847.52	1.04
847.689	1.28
847.858	0.19
848.026	-0.02
848.195	1.12
848.364	0.51
848.533	-0.2
848.701	0.08
848.87	1.37
849.039	2.49
849.207	1.96
849.376	3.61
849.545	2.77
849.713	0.67
849.882	1.31
850.051	0.19
850.219	1.45
850.388	1.9
850.556	0.59
850.725	-0.13
850.893	0.78
851.062	0.94
851.23	1.56
851.399	-0.46
851.567	1.49
851.736	0.3
851.904	0.23
852.073	0.91
852.241	2.04
852.41	1.11
852.578	0.29
852.746	0.71
852.915	1.49
853.083	1.87
853.251	0.2
853.42	1.02
853.588	1.63
853.756	2.43
853.924	1.35
854.093	1.04
854.261	0.17
854.429	-1.14
854.597	2
854.765	0.72
854.934	2.52
855.102	2.37
855.27	1.21
855.438	2.16
855.606	3.66
855.774	3.73
855.942	-0.02
856.11	-0.06
856.278	2.48
856.446	2.42
856.614	0.76
856.782	0.09
856.95	2.16
857.118	2.02
857.286	1.39
857.454	0.37
857.622	2.94
857.79	2.26
857.958	-0.32
858.126	0.77
858.294	-0.69
858.462	1.11
858.629	1.36
858.797	-0.47
858.965	1.83
859.133	2.64
859.301	0.88
859.468	1.58
859.636	0.86
859.804	4.23
859.971	3.2
860.139	0.53
860.307	1.95
860.474	1.42
860.642	0.53
860.81	0.7
860.977	1.59
861.145	2.96
861.313	1.61
861.48	1.83
861.648	1.97
861.815	0.57
861.983	0.13
862.15	1.45
862.318	3.5
862.485	2.97
862.653	-0.62
862.82	-0.4
862.988	3.63
863.155	2.76
863.322	2.15
863.49	-1.3
863.657	0.99
863.824	4.21
863.992	2.63
864.159	0.82
864.326	4.18
864.494	2.48
864.661	4.83
864.828	-0.17
864.996	3.75
865.163	4.49
865.33	0.05
865.497	1.12
865.664	-0.08
865.832	-0.66
865.999	0.9
866.166	1.25
866.333	1.04
866.5	1.34
866.667	0.77
866.834	0.61
867.001	2.84
867.168	-0.71
867.335	1.25
867.502	-0.45
867.669	1.39
867.836	4.91
868.003	0.39
868.17	3.3
868.337	3.84
868.504	6.31
868.671	-1.29
868.838	0.79
869.005	3.19
869.172	1.86
869.339	1.86
869.505	0.69
869.672	1.8
869.839	3.28
870.006	1.38
870.173	0.51
870.339	2.58
870.506	4.89
870.673	-0.13
870.84	2.39
871.006	2.99
871.173	2.19
871.34	2.29
871.506	0.83
871.673	3.5
871.839	-1
872.006	2.78
872.173	0.29
872.339	3.79
872.506	3.27
872.672	2.15
872.839	0.39
873.005	3.42
873.172	6.19
873.338	2.08
873.505	2.66
873.671	3.38
873.838	3.86
874.004	-1.74
874.171	0.49
874.337	3.93
874.503	3.86
874.67	1.09
874.836	0.08
875.002	4.85
875.169	3.81
875.335	2.98
875.501	1.54
875.668	4.1
875.834	2.07
876	0.38
876.166	2.55
876.332	3.6
876.499	6.33
876.665	0.63
876.831	2.35
876.997	4.71
877.163	3.92
877.329	2.52
877.495	1.53
877.662	4.46
877.828	3.97
877.994	2.11
878.16	-1.49
878.326	1.95
878.492	2.33
878.658	0.68
878.824	3.24
878.99	3.47
879.156	1.07
879.322	4.44
879.487	1.84
879.653	2.1
879.819	2.69
879.985	1.09
880.151	2.72
880.317	3.38
880.483	2.55
880.648	2.53
880.814	-2.02
880.98	1.9
881.146	-0.59
881.312	0.01
881.477	0.44
881.643	1.31
881.809	4.49
881.974	2.36
882.14	-0.87
882.306	3.72
882.471	7.53
882.637	1.27
882.803	0.44
882.968	4.26
883.134	6.07
883.299	1.41
883.465	1.37
883.63	2.66
883.796	4.17
883.961	3.1
884.127	2.61
884.292	-2.62
884.458	0.95
884.623	0.95
