Data from Apollo_Calib_20240827__AbsoluteIrradiance__811__12-40-01-313.txt Node

Date: Wed Aug 28 12:40:01 BST 2024
User: biology
Spectrometer: FLMT08252
Trigger mode: 0
Integration Time (sec): 5.000000E-1
Scans to average: 5
Electric dark correction enabled: true
Nonlinearity correction enabled: false
Boxcar width: 0
XAxis mode: Wavelengths
Number of Pixels in Spectrum: 3648
>>>>>Begin Spectral Data<<<<<
179.588	-0
179.809	-0
180.03	-0
180.251	-0
180.473	-0
180.694	0
180.915	0
181.136	-0
181.357	0
181.578	-0
181.799	-0
182.02	-0
182.241	-0
182.462	-0
182.683	0
182.904	-0
183.125	-0
183.346	0
183.567	0
183.788	0
184.009	0
184.23	0
184.451	0
184.672	0
184.892	0
185.113	0
185.334	0
185.555	0
185.776	0
185.996	0
186.217	0
186.438	0
186.659	0
186.879	0
187.1	0
187.321	0
187.541	0
187.762	0
187.983	0
188.203	0
188.424	0
188.644	0
188.865	0
189.086	0
189.306	0
189.527	0
189.747	0
189.968	0
190.188	0
190.409	0
190.629	0
190.849	0
191.07	0
191.29	0
191.511	0
191.731	0
191.951	0
192.172	0
192.392	0
192.612	0
192.833	0
193.053	0
193.273	0
193.493	0
193.714	0
193.934	0
194.154	0
194.374	0
194.594	0
194.815	0
195.035	0
195.255	0
195.475	0
195.695	0
195.915	0
196.135	0
196.355	0
196.575	0
196.795	0
197.015	0
197.235	0
197.455	0
197.675	0
197.895	0
198.115	0
198.335	0
198.555	0
198.775	0
198.995	0
199.214	0
199.434	0
199.654	0
199.874	0
200.094	4.02
200.313	2.33
200.533	1.99
200.753	1.57
200.973	3.4
201.192	3.2
201.412	0.71
201.632	1.36
201.851	3.52
202.071	2.12
202.291	1.54
202.51	1.35
202.73	3.04
202.95	2.07
203.169	1.31
203.389	1.54
203.608	2.21
203.828	1.37
204.047	1.19
204.267	2.08
204.486	2.15
204.706	2.19
204.925	1.28
205.145	1.48
205.364	2.39
205.583	2.36
205.803	1.39
206.022	0.97
206.242	2.21
206.461	2.01
206.68	1.32
206.9	1.37
207.119	2.09
207.338	2.26
207.557	1.2
207.777	1.11
207.996	1.38
208.215	2.32
208.434	1.13
208.654	0.95
208.873	1.7
209.092	2.18
209.311	1.09
209.53	1.24
209.749	1.11
209.968	1.11
210.187	1.3
210.407	0.98
210.626	1.17
210.845	1.72
211.064	1.24
211.283	0.82
211.502	1.54
211.721	0.98
211.94	0.93
212.159	1.51
212.377	1.57
212.596	1.49
212.815	1.11
213.034	1.27
213.253	1.38
213.472	1.42
213.691	1.11
213.91	0.68
214.128	0.66
214.347	1.48
214.566	0.61
214.785	0.57
215.003	1.27
215.222	1.28
215.441	0.89
215.66	0.56
215.878	1.07
216.097	1.12
216.316	0.73
216.534	0.85
216.753	1.09
216.972	0.92
217.19	1
217.409	0.68
217.627	0.77
217.846	0.85
218.064	0.9
218.283	0.64
218.501	1.31
218.72	1.16
218.938	0.56
219.157	0.7
219.375	0.97
219.594	1.09
219.812	0.48
220.031	0.53
220.249	1.27
220.467	1.24
220.686	0.63
220.904	0.62
221.122	0.83
221.341	0.95
221.559	0.81
221.777	0.5
221.995	0.95
222.214	0.89
222.432	0.58
222.65	0.98
222.868	0.78
223.086	0.78
223.305	0.93
223.523	0.67
223.741	1.34
223.959	0.75
224.177	0.41
224.395	0.56
224.613	0.81
224.831	0.9
225.049	0.46
225.267	0.71
225.485	0.8
225.703	0.54
225.921	0.63
226.139	0.62
226.357	0.79
226.575	0.86
226.793	0.51
227.011	1.52
227.229	0.67
227.447	0.84
227.665	0.57
227.883	0.38
228.1	0.49
228.318	0.76
228.536	0.32
228.754	0.51
228.972	0.64
229.189	0.77
229.407	0.52
229.625	0.55
229.843	0.87
230.06	0.67
230.278	0.61
230.496	0.66
230.713	0.83
230.931	0.85
231.149	0.36
231.366	0.36
231.584	0.57
231.801	1.01
232.019	0.41
232.236	0.48
232.454	0.59
232.671	0.68
232.889	0.49
233.106	0.41
233.324	0.52
233.541	0.56
233.759	0.49
233.976	0.36
234.194	0.63
234.411	0.51
234.628	0.31
234.846	0.48
235.063	0.57
235.28	0.64
235.498	0.45
235.715	0.36
235.932	0.9
236.149	0.49
236.367	0.4
236.584	0.6
236.801	0.55
237.018	0.73
237.236	0.46
237.453	0.25
237.67	0.78
237.887	0.42
238.104	0.44
238.321	0.39
238.538	0.42
238.755	0.72
238.973	0.29
239.19	0.41
239.407	0.66
239.624	0.62
239.841	0.29
240.058	0.34
240.275	0.52
240.492	0.52
240.709	0.4
240.925	0.4
241.142	0.42
241.359	0.34
241.576	0.36
241.793	0.34
242.01	0.39
242.227	0.53
242.444	0.55
242.66	0.6
242.877	0.47
243.094	0.49
243.311	0.49
243.527	0.4
243.744	0.56
243.961	0.63
244.178	0.34
244.394	0.39
244.611	0.58
244.828	0.75
245.044	0.32
245.261	0.39
245.477	0.48
245.694	0.55
245.911	0.37
246.127	0.42
246.344	0.62
246.56	0.59
246.777	0.46
246.993	0.49
247.21	0.49
247.426	0.57
247.643	0.4
247.859	0.29
248.076	0.41
248.292	0.59
248.508	0.35
248.725	0.43
248.941	0.54
249.157	0.5
249.374	0.36
249.59	0.37
249.806	0.42
250.023	0.45
250.239	0.29
250.455	0.33
250.671	0.39
250.888	0.51
251.104	0.4
251.32	0.3
251.536	0.42
251.752	0.39
251.969	0.46
252.185	0.4
252.401	0.61
252.617	0.57
252.833	0.32
253.049	0.37
253.265	0.4
253.481	0.44
253.697	0.33
253.913	0.29
254.129	0.54
254.345	0.44
254.561	0.28
254.777	0.4
254.993	0.47
255.209	0.42
255.425	0.4
255.641	0.26
255.857	0.51
256.073	0.43
256.288	0.26
256.504	0.32
256.72	0.43
256.936	0.62
257.152	0.33
257.367	0.29
257.583	0.4
257.799	0.53
258.015	0.28
258.23	0.31
258.446	0.59
258.662	0.32
258.877	0.31
259.093	0.27
259.309	0.39
259.524	0.4
259.74	0.38
259.955	0.29
260.171	0.41
260.387	0.4
260.602	0.43
260.818	0.39
261.033	0.29
261.249	0.38
261.464	0.36
261.68	0.25
261.895	0.4
262.11	0.47
262.326	0.35
262.541	0.22
262.757	0.5
262.972	0.48
263.187	0.42
263.403	0.35
263.618	0.5
263.833	0.43
264.049	0.31
264.264	0.35
264.479	0.38
264.694	0.52
264.91	0.22
265.125	0.31
265.34	0.44
265.555	0.63
265.77	0.34
265.986	0.31
266.201	0.41
266.416	0.48
266.631	0.32
266.846	0.34
267.061	0.41
267.276	0.42
267.491	0.15
267.706	0.43
267.921	0.42
268.136	0.42
268.351	0.39
268.566	0.24
268.781	0.45
268.996	0.46
269.211	0.3
269.426	0.26
269.641	0.33
269.856	0.45
270.071	0.25
270.285	0.27
270.5	0.48
270.715	0.43
270.93	0.32
271.145	0.33
271.359	0.49
271.574	0.31
271.789	0.29
272.004	0.28
272.218	0.29
272.433	0.39
272.648	0.23
272.862	0.35
273.077	0.4
273.292	0.31
273.506	0.24
273.721	0.24
273.936	0.35
274.15	0.44
274.365	0.25
274.579	0.4
274.794	0.39
275.008	0.46
275.223	0.19
275.437	0.31
275.652	0.4
275.866	0.4
276.081	0.35
276.295	0.36
276.509	0.37
276.724	0.34
276.938	0.34
277.153	0.37
277.367	0.32
277.581	0.28
277.796	0.31
278.01	0.23
278.224	0.39
278.438	0.48
278.653	0.22
278.867	0.23
279.081	0.44
279.295	0.29
279.51	0.3
279.724	0.16
279.938	0.38
280.152	0.32
280.366	0.28
280.58	0.35
280.794	0.4
281.008	0.38
281.222	0.37
281.437	0.5
281.651	0.36
281.865	0.43
282.079	0.27
282.293	0.2
282.507	0.26
282.721	0.33
282.935	0.32
283.148	0.17
283.362	0.29
283.576	0.22
283.79	0.32
284.004	0.25
284.218	0.39
284.432	0.31
284.646	0.32
284.859	0.24
285.073	0.27
285.287	0.3
285.501	0.32
285.714	0.28
285.928	0.29
286.142	0.34
286.356	0.2
286.569	0.22
286.783	0.37
286.997	0.33
287.21	0.33
287.424	0.35
287.637	0.26
287.851	0.29
288.065	0.34
288.278	0.24
288.492	0.3
288.705	0.27
288.919	0.26
289.132	0.15
289.346	0.37
289.559	0.19
289.773	0.23
289.986	0.28
290.2	0.27
290.413	0.36
290.626	0.29
290.84	0.24
291.053	0.34
291.267	0.33
291.48	0.25
291.693	0.28
291.906	0.26
292.12	0.26
292.333	0.25
292.546	0.22
292.76	0.36
292.973	0.29
293.186	0.29
293.399	0.21
293.612	0.34
293.826	0.27
294.039	0.3
294.252	0.23
294.465	0.32
294.678	0.29
294.891	0.27
295.104	0.17
295.317	0.24
295.53	0.3
295.743	0.31
295.956	0.24
296.169	0.4
296.382	0.3
296.595	0.21
296.808	0.24
297.021	0.35
297.234	0.33
297.447	0.27
297.66	0.27
297.873	0.37
298.086	0.34
298.299	0.19
298.511	0.14
298.724	0.26
298.937	0.21
299.15	0.19
299.363	0.26
299.575	0.32
299.788	0.26
300.001	0.22
300.213	0.19
300.426	0.26
300.639	0.23
300.852	0.22
301.064	0.3
301.277	0.39
301.489	0.33
301.702	0.29
301.915	0.3
302.127	0.3
302.34	0.3
302.552	0.29
302.765	0.19
302.977	0.31
303.19	0.27
303.402	0.24
303.615	0.22
303.827	0.25
304.04	0.32
304.252	0.29
304.464	0.24
304.677	0.43
304.889	0.28
305.102	0.26
305.314	0.25
305.526	0.35
305.739	0.29
305.951	0.19
306.163	0.23
306.375	0.34
306.588	0.24
306.8	0.25
307.012	0.2
307.224	0.27
307.436	0.36
307.649	0.19
307.861	0.29
308.073	0.28
308.285	0.22
308.497	0.19
308.709	0.24
308.921	0.25
309.133	0.32
309.346	0.27
309.558	0.22
309.77	0.3
309.982	0.37
310.194	0.28
310.406	0.23
310.617	0.35
310.829	0.25
311.041	0.26
311.253	0.21
311.465	0.22
311.677	0.26
311.889	0.23
312.101	0.2
312.313	0.3
312.524	0.38
312.736	0.16
312.948	0.22
313.16	0.39
313.372	0.28
313.583	0.25
313.795	0.24
314.007	0.23
314.218	0.31
314.43	0.24
314.642	0.24
314.853	0.21
315.065	0.32
315.277	0.23
315.488	0.25
315.7	0.31
315.912	0.28
316.123	0.26
316.335	0.26
316.546	0.37
316.758	0.25
316.969	0.21
317.181	0.22
317.392	0.26
317.604	0.33
317.815	0.21
318.026	0.21
318.238	0.24
318.449	0.3
318.661	0.21
318.872	0.2
319.083	0.18
319.295	0.34
319.506	0.23
319.717	0.23
319.929	0.3
320.14	0.28
320.351	0.21
320.562	0.2
320.774	0.26
320.985	0.3
321.196	0.22
321.407	0.21
321.618	0.3
321.829	0.25
322.041	0.29
322.252	0.25
322.463	0.31
322.674	0.28
322.885	0.19
323.096	0.27
323.307	0.31
323.518	0.3
323.729	0.21
323.94	0.21
324.151	0.21
324.362	0.28
324.573	0.27
324.784	0.25
324.995	0.33
325.206	0.28
325.417	0.23
325.628	0.18
325.838	0.25
326.049	0.26
326.26	0.29
326.471	0.19
326.682	0.33
326.892	0.27
327.103	0.2
327.314	0.2
327.525	0.31
327.735	0.27
327.946	0.24
328.157	0.19
328.368	0.34
328.578	0.22
328.789	0.35
328.999	0.26
329.21	0.23
329.421	0.33
329.631	0.22
329.842	0.22
330.052	0.26
330.263	0.33
330.473	0.29
330.684	0.24
330.894	0.25
331.105	0.33
331.315	0.23
331.526	0.18
331.736	0.33
331.947	0.28
332.157	0.25
332.367	0.14
332.578	0.3
332.788	0.34
332.999	0.29
333.209	0.26
333.419	0.21
333.629	0.27
333.84	0.3
334.05	0.2
334.26	0.36
334.47	0.24
334.681	0.32
334.891	0.2
335.101	0.28
335.311	0.36
335.521	0.26
335.732	0.17
335.942	0.32
336.152	0.27
336.362	0.28
336.572	0.27
336.782	0.31
336.992	0.23
337.202	0.18
337.412	0.28
337.622	0.3
337.832	0.25
338.042	0.27
338.252	0.24
338.462	0.26
338.672	0.26
338.882	0.25
339.092	0.22
339.302	0.38
339.511	0.28
339.721	0.23
339.931	0.23
340.141	0.35
340.351	0.33
340.561	0.3
340.77	0.25
340.98	0.28
341.19	0.3
341.4	0.3
341.609	0.21
341.819	0.26
342.029	0.19
342.238	0.28
342.448	0.22
342.658	0.32
342.867	0.25
343.077	0.18
343.286	0.25
343.496	0.28
343.706	0.34
343.915	0.22
344.125	0.22
344.334	0.27
344.544	0.19
344.753	0.2
344.963	0.2
345.172	0.25
345.381	0.21
345.591	0.24
345.8	0.27
346.01	0.31
346.219	0.25
346.428	0.12
346.638	0.25
346.847	0.26
347.056	0.33
347.266	0.19
347.475	0.23
347.684	0.31
347.893	0.28
348.103	0.25
348.312	0.26
348.521	0.26
348.73	0.27
348.94	0.28
349.149	0.16
349.358	0.24
349.567	0.21
349.776	0.15
349.985	0.21
350.194	0.32
350.403	0.32
350.612	0.17
350.821	0.19
351.03	0.27
351.239	0.18
351.448	0.29
351.657	0.25
351.866	0.35
352.075	0.26
352.284	0.27
352.493	0.19
352.702	0.36
352.911	0.25
353.12	0.26
353.329	0.26
353.538	0.27
353.746	0.26
353.955	0.18
354.164	0.27
354.373	0.24
354.582	0.29
354.79	0.25
354.999	0.25
355.208	0.24
355.416	0.34
355.625	0.19
355.834	0.23
356.042	0.26
356.251	0.22
356.46	0.19
356.668	0.26
356.877	0.32
357.085	0.3
357.294	0.17
357.503	0.26
357.711	0.25
357.92	0.41
358.128	0.26
358.337	0.22
358.545	0.3
358.754	0.25
358.962	0.29
359.17	0.25
359.379	0.25
359.587	0.25
359.796	0.25
360.004	0.29
360.212	0.25
360.421	0.32
360.629	0.23
360.837	0.26
361.046	0.27
361.254	0.44
361.462	0.26
361.67	0.28
361.879	0.27
362.087	0.35
362.295	0.24
362.503	0.21
362.711	0.25
362.92	0.22
363.128	0.2
363.336	0.18
363.544	0.19
363.752	0.25
363.96	0.25
364.168	0.22
364.376	0.27
364.584	0.3
364.792	0.32
365	0.26
365.208	0.26
365.416	0.32
365.624	0.32
365.832	0.22
366.04	0.34
366.248	0.26
366.456	0.24
366.664	0.27
366.872	0.25
367.079	0.23
367.287	0.22
367.495	0.27
367.703	0.23
367.911	0.22
368.118	0.24
368.326	0.24
368.534	0.18
368.742	0.31
368.949	0.21
369.157	0.19
369.365	0.28
369.572	0.22
369.78	0.19
369.988	0.24
370.195	0.25
370.403	0.31
370.61	0.21
370.818	0.26
371.026	0.33
371.233	0.22
371.441	0.27
371.648	0.22
371.856	0.27
372.063	0.26
372.271	0.22
372.478	0.22
372.685	0.23
372.893	0.29
373.1	0.21
373.308	0.23
373.515	0.37
373.722	0.32
373.93	0.28
374.137	0.28
374.344	0.33
374.552	0.31
374.759	0.31
374.966	0.3
375.173	0.25
375.381	0.32
375.588	0.25
375.795	0.17
376.002	0.24
376.209	0.22
376.417	0.24
376.624	0.29
376.831	0.34
377.038	0.22
377.245	0.17
377.452	0.21
377.659	0.26
377.866	0.26
378.073	0.24
378.28	0.23
378.487	0.34
378.694	0.31
378.901	0.23
379.108	0.28
379.315	0.35
379.522	0.36
379.729	0.25
379.936	0.27
380.143	0.3
380.35	0.28
380.557	0.24
380.763	0.23
380.97	0.26
381.177	0.32
381.384	0.27
381.591	0.24
381.797	0.3
382.004	0.28
382.211	0.31
382.418	0.25
382.624	0.34
382.831	0.37
383.038	0.26
383.244	0.26
383.451	0.31
383.658	0.32
383.864	0.23
384.071	0.25
384.277	0.38
384.484	0.26
384.69	0.32
384.897	0.27
385.103	0.26
385.31	0.24
385.516	0.27
385.723	0.15
385.929	0.28
386.136	0.25
386.342	0.34
386.549	0.23
386.755	0.3
386.961	0.34
387.168	0.29
387.374	0.32
387.58	0.34
387.787	0.28
387.993	0.31
388.199	0.28
388.406	0.3
388.612	0.25
388.818	0.2
389.024	0.2
389.231	0.33
389.437	0.37
389.643	0.29
389.849	0.26
390.055	0.26
390.261	0.3
390.467	0.3
390.674	0.25
390.88	0.23
391.086	0.39
391.292	0.28
391.498	0.32
391.704	0.31
391.91	0.28
392.116	0.3
392.322	0.21
392.528	0.37
392.734	0.28
392.94	0.3
393.146	0.3
393.352	0.33
393.557	0.29
393.763	0.29
393.969	0.33
394.175	0.29
394.381	0.32
394.587	0.29
394.792	0.27
394.998	0.4
395.204	0.39
395.41	0.29
395.615	0.29
395.821	0.32
396.027	0.33
396.233	0.3
396.438	0.34
396.644	0.37
396.85	0.37
397.055	0.29
397.261	0.35
397.466	0.45
397.672	0.32
397.878	0.39
398.083	0.37
398.289	0.29
398.494	0.42
398.7	0.39
398.905	0.24
399.111	0.43
399.316	0.28
399.522	0.36
399.727	0.3
399.932	0.33
400.138	0.34
400.343	0.39
400.549	0.31
400.754	0.32
400.959	0.41
401.165	0.36
401.37	0.36
401.575	0.34
401.78	0.39
401.986	0.32
402.191	0.32
402.396	0.4
402.601	0.44
402.807	0.4
403.012	0.36
403.217	0.45
403.422	0.43
403.627	0.41
403.832	0.41
404.037	0.47
404.243	0.44
404.448	0.4
404.653	0.43
404.858	0.45
405.063	0.46
405.268	0.43
405.473	0.37
405.678	0.41
405.883	0.68
406.088	0.53
406.293	0.41
406.498	0.5
406.703	0.54
406.907	0.5
407.112	0.45
407.317	0.5
407.522	0.58
407.727	0.48
407.932	0.52
408.136	0.66
408.341	0.53
408.546	0.6
408.751	0.55
408.956	0.6
409.16	0.64
409.365	0.61
409.57	0.62
409.774	0.6
409.979	0.68
410.184	0.7
410.388	0.57
410.593	0.77
410.798	0.73
411.002	0.74
411.207	0.8
411.411	0.85
411.616	0.72
411.82	0.81
412.025	0.87
412.229	0.86
412.434	0.99
412.638	0.94
412.843	0.93
413.047	1
413.252	0.98
413.456	1.03
413.66	1.07
413.865	1.12
414.069	1.21
414.273	1.13
414.478	1.12
414.682	1.16
414.886	1.22
415.091	1.2
415.295	1.22
415.499	1.43
415.703	1.33
415.908	1.41
416.112	1.4
416.316	1.58
416.52	1.63
416.724	1.6
416.929	1.68
417.133	1.87
417.337	1.74
417.541	1.82
417.745	1.84
417.949	2
418.153	2.08
418.357	2.05
418.561	2.34
418.765	2.31
418.969	2.42
419.173	2.43
419.377	2.52
419.581	2.74
419.785	2.66
419.989	2.69
420.193	2.85
420.397	2.97
420.601	3.11
420.804	3.22
421.008	3.08
421.212	3.36
421.416	3.35
421.62	3.38
421.823	3.43
422.027	3.66
422.231	3.59
422.435	3.59
422.638	3.62
422.842	3.81
423.046	3.81
423.249	4.1
423.453	4.09
423.657	4.25
423.86	4.34
424.064	4.38
424.268	4.6
424.471	4.6
424.675	4.77
424.878	4.96
425.082	5.02
425.285	5.27
425.489	5.21
425.692	5.34
425.896	5.32
426.099	5.61
426.303	5.72
426.506	5.83
426.71	6.03
426.913	6.43
427.116	6.47
427.32	6.53
427.523	6.56
427.726	6.84
427.93	7.01
428.133	7.21
428.336	7.44
428.54	7.5
428.743	7.79
428.946	8.08
429.149	7.97
429.353	8.02
429.556	8.16
429.759	8.27
429.962	8.41
430.165	8.47
430.368	8.1
430.571	8.24
430.775	8.34
430.978	8.31
431.181	8.3
431.384	8.36
431.587	8.58
431.79	8.82
431.993	8.82
432.196	9.15
432.399	9.44
432.602	9.66
432.805	9.62
433.008	10.15
433.211	10.03
433.414	10.44
433.616	10.45
433.819	10.33
434.022	10.64
434.225	10.73
434.428	10.71
434.631	11.27
434.833	10.99
435.036	11.31
435.239	11.43
435.442	11.48
435.645	11.61
435.847	11.75
436.05	12.13
436.253	12.21
436.455	12.21
436.658	12.15
436.861	12.48
437.063	12.55
437.266	12.53
437.468	12.88
437.671	13.27
437.874	13.09
438.076	13.08
438.279	13.63
438.481	13.67
438.684	14.45
438.886	14
439.089	14.26
439.291	14.39
439.494	14.64
439.696	14.85
439.899	15.39
440.101	15.83
440.303	16.03
440.506	16.71
440.708	16.48
440.91	16.76
441.113	16.86
441.315	17.08
441.517	16.88
441.72	17.52
441.922	16.92
442.124	16.92
442.326	17.39
442.529	17.6
442.731	17.51
442.933	17.91
443.135	17.65
443.337	17.62
443.539	18.28
443.742	17.81
443.944	18.39
444.146	18.29
444.348	18.12
444.55	17.95
444.752	18.19
444.954	18.4
445.156	18.13
445.358	18.63
445.56	18.93
445.762	18.64
445.964	18.91
446.166	18.69
446.368	18.56
446.57	18.67
446.772	18.24
446.974	18.04
447.175	18.31
447.377	17.93
447.579	18.42
447.781	17.97
447.983	17.85
448.184	17.33
448.386	17.84
448.588	17.16
448.79	17.14
448.991	17.4
449.193	17.53
449.395	16.89
449.597	16.44
449.798	16.36
450	15.82
450.202	15.84
450.403	15.75
450.605	15.68
450.806	15.22
451.008	15.17
451.21	14.95
451.411	14.4
451.613	13.71
451.814	13.81
452.016	13.94
452.217	13.29
452.419	13.12
452.62	12.84
452.821	12.64
453.023	12.62
453.224	12.19
453.426	11.74
453.627	10.89
453.828	11.04
454.03	11.21
454.231	11.12
454.432	10.9
454.634	10.67
454.835	10.37
455.036	10.31
455.238	9.91
455.439	9.73
455.64	9.29
455.841	9.26
456.042	9.41
456.244	9.09
456.445	8.81
456.646	8.49
456.847	8.52
457.048	8.35
457.249	8.28
457.45	8.13
457.651	7.61
457.852	7.46
458.054	7.13
458.255	7.11
458.456	7.22
458.657	6.99
458.858	6.62
459.058	6.52
459.259	6.7
459.46	6.44
459.661	6.4
459.862	6.42
460.063	6.26
460.264	6.17
460.465	5.95
460.666	6.01
460.866	5.61
461.067	5.43
461.268	5.52
461.469	5.41
461.67	5.22
461.87	5.2
462.071	5.23
462.272	5.05
462.473	4.99
462.673	5.21
462.874	5.14
463.075	5.1
463.275	5.09
463.476	5.11
463.676	5.04
463.877	4.92
464.078	4.96
464.278	4.94
464.479	4.84
464.679	4.75
464.88	4.66
465.08	4.66
465.281	4.45
465.481	4.21
465.682	4.05
465.882	4.18
466.083	4.07
466.283	3.97
466.483	3.87
466.684	3.65
466.884	3.58
467.085	3.61
467.285	3.69
467.485	3.51
467.686	3.47
467.886	3.44
468.086	3.39
468.286	3.35
468.487	3.38
468.687	3.16
468.887	3.21
469.087	3.31
469.287	3.16
469.488	2.97
469.688	3.15
469.888	3.15
470.088	3.03
470.288	2.97
470.488	2.98
470.688	2.87
470.888	2.84
471.088	2.69
471.288	2.79
471.488	2.74
471.688	2.68
471.888	2.63
472.088	2.8
472.288	2.68
472.488	2.58
472.688	2.57
472.888	2.58
473.088	2.57
473.288	2.44
473.488	2.46
473.688	2.58
473.887	2.45
474.087	2.36
474.287	2.41
474.487	2.33
474.687	2.4
474.886	2.35
475.086	2.28
475.286	2.33
475.486	2.26
475.685	2.24
475.885	2.15
476.085	2.28
476.284	2.28
476.484	2.29
476.684	2.2
476.883	2.32
477.083	2.22
477.282	2.08
477.482	2.18
477.681	2.17
477.881	2.08
478.08	2.04
478.28	2
478.479	2.06
478.679	2.14
478.878	2.04
479.078	1.99
479.277	2.1
479.477	2.04
479.676	2.04
479.875	2
480.075	1.9
480.274	2.02
480.473	2.04
480.673	1.99
480.872	2.09
481.071	2.08
481.271	2.04
481.47	1.97
481.669	2
481.868	1.96
482.067	1.95
482.267	1.89
482.466	1.94
482.665	1.89
482.864	1.94
483.063	1.92
483.262	2.05
483.461	2.03
483.661	2.07
483.86	2.02
484.059	2.04
484.258	1.99
484.457	1.98
484.656	1.99
484.855	2.07
485.054	1.89
485.253	1.94
485.452	1.93
485.651	2.03
485.849	1.99
486.048	2
486.247	2
486.446	2.11
486.645	2
486.844	2.07
487.043	2
487.241	2.08
487.44	2.13
487.639	2.11
487.838	2.1
488.037	2.08
488.235	2.21
488.434	2.14
488.633	2.05
488.831	2.21
489.03	2.22
489.229	2.2
489.427	2.19
489.626	2.28
489.825	2.27
490.023	2.33
490.222	2.27
490.42	2.32
490.619	2.39
490.817	2.38
491.016	2.34
491.214	2.39
491.413	2.43
491.611	2.42
491.81	2.37
492.008	2.47
492.207	2.56
492.405	2.55
492.604	2.49
492.802	2.5
493	2.58
493.199	2.65
493.397	2.64
493.595	2.67
493.794	2.67
493.992	2.76
494.19	2.72
494.388	2.86
494.587	2.7
494.785	2.78
494.983	2.75
495.181	2.86
495.379	2.91
495.578	2.97
495.776	2.99
495.974	2.97
496.172	2.93
496.37	3.1
496.568	3.1
496.766	3.11
496.964	3.16
497.162	3.19
497.36	3.19
497.558	3.21
497.756	3.31
497.954	3.27
498.152	3.31
498.35	3.45
498.548	3.37
498.746	3.41
498.944	3.43
499.142	3.43
499.34	3.5
499.538	3.63
499.736	3.51
499.933	3.64
500.131	3.61
500.329	3.77
500.527	3.77
500.725	3.92
500.922	3.88
501.12	3.87
501.318	3.96
501.516	3.93
501.713	4.02
501.911	3.97
502.109	3.97
502.306	4.09
502.504	4.02
502.701	4.09
502.899	4.19
503.097	4.4
503.294	4.24
503.492	4.34
503.689	4.36
503.887	4.38
504.084	4.48
504.282	4.4
504.479	4.39
504.677	4.56
504.874	4.58
505.072	4.51
505.269	4.64
505.466	4.68
505.664	4.74
505.861	4.66
506.059	4.71
506.256	4.82
506.453	4.79
506.651	5.04
506.848	5.05
507.045	4.95
507.242	5
507.44	5.03
507.637	5.11
507.834	5.11
508.031	5.22
508.229	5.16
508.426	5.08
508.623	5.32
508.82	5.33
509.017	5.3
509.214	5.3
509.411	5.43
509.608	5.33
509.805	5.54
510.003	5.49
510.2	5.54
510.397	5.73
510.594	5.53
510.791	5.64
510.988	5.65
511.184	5.61
511.381	5.54
511.578	5.69
511.775	5.9
511.972	5.74
512.169	5.77
512.366	5.83
512.563	6.01
512.76	6.05
512.956	6.07
513.153	5.94
513.35	5.96
513.547	5.99
513.744	6.04
513.94	6.06
514.137	6.17
514.334	6.19
514.53	6.2
514.727	6.39
514.924	6.35
515.12	6.29
515.317	6.3
515.514	6.3
515.71	6.21
515.907	6.46
516.103	6.46
516.3	6.39
516.497	6.52
516.693	6.49
516.89	6.55
517.086	6.58
517.283	6.57
517.479	6.39
517.676	6.63
517.872	6.66
518.068	6.67
518.265	6.68
518.461	6.57
518.658	6.76
518.854	6.76
519.05	6.78
519.247	6.78
519.443	6.77
519.639	6.88
519.836	6.8
520.032	6.73
520.228	6.95
520.424	6.91
520.621	6.94
520.817	6.99
521.013	6.94
521.209	7.16
521.405	7.14
521.601	7.11
521.798	7
521.994	7.08
522.19	7.03
522.386	7.02
522.582	7.16
522.778	7.28
522.974	7.17
523.17	7.14
523.366	7.11
523.562	7.24
523.758	7.26
523.954	7.04
524.15	7.3
524.346	7.28
524.542	7.3
524.738	7.25
524.934	7.4
525.129	7.25
525.325	7.29
525.521	7.26
525.717	7.54
525.913	7.37
526.109	7.38
526.304	7.48
526.5	7.42
526.696	7.47
526.892	7.38
527.087	7.64
527.283	7.57
527.479	7.5
527.674	7.4
527.87	7.51
528.066	7.51
528.261	7.51
528.457	7.49
528.653	7.63
528.848	7.61
529.044	7.7
529.239	7.47
529.435	7.57
529.63	7.53
529.826	7.55
530.021	7.61
530.217	7.65
530.412	7.64
530.608	7.7
530.803	7.7
530.999	7.53
531.194	7.66
531.389	7.76
531.585	7.71
531.78	7.84
531.975	7.73
532.171	7.74
532.366	7.77
532.561	7.79
532.757	7.77
532.952	7.87
533.147	7.69
533.342	7.8
533.538	7.74
533.733	7.95
533.928	7.64
534.123	7.82
534.318	7.89
534.513	7.76
534.709	7.95
534.904	7.85
535.099	8
535.294	7.89
535.489	7.93
535.684	7.86
535.879	7.86
536.074	7.95
536.269	7.97
536.464	7.95
536.659	7.9
536.854	7.96
537.049	7.99
537.244	7.91
537.439	7.96
537.634	7.91
537.828	8.02
538.023	7.94
538.218	7.94
538.413	7.84
538.608	7.96
538.803	8.01
538.997	7.93
539.192	8.01
539.387	7.99
539.582	7.9
539.776	7.91
539.971	7.99
540.166	8.1
540.36	7.87
540.555	8.08
540.75	8.01
540.944	8.01
541.139	8.04
541.334	8
541.528	7.98
541.723	8.09
541.917	8.13
542.112	7.98
542.306	7.88
542.501	7.94
542.695	8.02
542.89	7.99
543.084	8.05
543.279	8.04
543.473	8.1
543.668	8.11
543.862	7.96
544.056	7.93
544.251	8.06
544.445	8.15
544.64	8.16
544.834	7.9
545.028	7.69
545.222	8.03
545.417	8.22
545.611	8.16
545.805	8.1
546	7.89
546.194	8.11
546.388	8.12
546.582	8.01
546.776	8.04
546.97	8.05
547.165	8.09
547.359	8.03
547.553	7.99
547.747	8.03
547.941	8.31
548.135	8.08
548.329	8.09
548.523	8.16
548.717	8.03
548.911	8
549.105	7.97
549.299	8.13
549.493	8.09
549.687	8.05
549.881	8.13
550.075	8.12
550.269	7.96
550.463	8.07
550.657	8.11
550.85	8.09
551.044	8.07
551.238	8.17
551.432	8.08
551.626	8.11
551.82	8.16
552.013	8.01
552.207	8.22
552.401	8.21
552.594	8.07
552.788	8.01
552.982	8.05
553.176	8.02
553.369	8.31
553.563	8.21
553.756	8.06
553.95	8.14
554.144	8.13
554.337	8.15
554.531	7.96
554.724	8.16
554.918	8.21
555.111	8.09
555.305	8.07
555.498	8.05
555.692	8.23
555.885	8.15
556.079	8.15
556.272	8.13
556.466	8.05
556.659	8.07
556.852	8.17
557.046	8.05
557.239	7.95
557.432	8.06
557.626	8.16
557.819	8.21
558.012	8.16
558.206	8.26
558.399	8.17
558.592	8.08
558.785	8.06
558.979	8.12
559.172	8.11
559.365	8.16
559.558	8.1
559.751	8.07
559.944	8.22
560.138	8.14
560.331	8.15
560.524	8.14
560.717	8.08
560.91	8.12
561.103	8.2
561.296	7.99
561.489	8.12
561.682	8.19
561.875	8.18
562.068	8.2
562.261	8.06
562.454	8.24
562.647	8.1
562.84	8.1
563.032	8.11
563.225	8.1
563.418	8.12
563.611	8.2
563.804	8.21
563.997	7.99
564.19	7.93
564.382	8.23
564.575	8.15
564.768	8.07
564.961	8.13
565.153	8.08
565.346	7.98
565.539	8.2
565.731	8.18
565.924	8.19
566.117	8.26
566.309	8.16
566.502	8.11
566.695	8.07
566.887	8.22
567.08	8.1
567.272	8.09
567.465	8.01
567.657	8.22
567.85	8
568.042	8.14
568.235	8.16
568.427	8.04
568.62	8.08
568.812	8.06
569.005	8.08
569.197	7.96
569.389	8.11
569.582	8.09
569.774	8.09
569.966	8.01
570.159	7.96
570.351	7.96
570.543	8.05
570.736	8.07
570.928	7.84
571.12	8.01
571.312	7.92
571.505	7.84
571.697	8.08
571.889	8.06
572.081	8.05
572.273	7.86
572.465	8.06
572.658	8.05
572.85	8
573.042	8.05
573.234	7.96
573.426	8.02
573.618	7.91
573.81	8.01
574.002	7.94
574.194	7.98
574.386	7.87
574.578	7.84
574.77	7.94
574.962	7.97
575.154	7.8
575.346	7.86
575.538	7.87
575.729	7.81
575.921	8
576.113	7.98
576.305	7.95
576.497	8.01
576.689	7.75
576.88	7.79
577.072	8
577.264	7.88
577.456	7.87
577.647	7.83
577.839	8.01
578.031	7.87
578.223	7.84
578.414	7.74
578.606	7.89
578.798	7.93
578.989	7.86
579.181	7.89
579.372	7.92
579.564	7.86
579.755	7.77
579.947	7.72
580.139	7.81
580.33	7.71
580.522	7.77
580.713	7.76
580.905	7.8
581.096	7.88
581.287	7.71
581.479	7.73
581.67	7.79
581.862	7.68
582.053	7.79
582.244	7.64
582.436	7.84
582.627	7.67
582.818	7.71
583.01	7.64
583.201	7.7
583.392	7.62
583.583	7.6
583.775	7.51
583.966	7.66
584.157	7.66
584.348	7.71
584.54	7.56
584.731	7.67
584.922	7.52
585.113	7.51
585.304	7.62
585.495	7.53
585.686	7.63
585.877	7.64
586.068	7.69
586.259	7.62
586.45	7.56
586.641	7.55
586.832	7.62
587.023	7.51
587.214	7.5
587.405	7.57
587.596	7.39
587.787	7.44
587.978	7.49
588.169	7.47
588.36	7.37
588.551	7.51
588.742	7.45
588.932	7.49
589.123	7.27
589.314	7.5
589.505	7.4
589.696	7.39
589.886	7.38
590.077	7.38
590.268	7.33
590.458	7.29
590.649	7.16
590.84	7.33
591.03	7.3
591.221	7.29
591.412	7.16
591.602	7.35
591.793	7.27
591.984	7.27
592.174	7.21
592.365	7.36
592.555	7.12
592.746	7.15
592.936	7.19
593.127	7.26
593.317	7.21
593.508	7.25
593.698	7.11
593.889	7.14
594.079	7.14
594.269	7.05
594.46	7.11
594.65	7.09
594.84	7.09
595.031	6.93
595.221	7.04
595.411	7.06
595.602	7.05
595.792	6.97
595.982	6.96
596.172	7.1
596.363	6.9
596.553	6.92
596.743	6.94
596.933	6.94
597.123	6.96
597.314	6.82
597.504	6.7
597.694	6.9
597.884	6.83
598.074	6.91
598.264	6.85
598.454	6.8
598.644	6.83
598.834	6.8
599.024	6.69
599.214	6.68
599.404	6.77
599.594	6.78
599.784	6.61
599.974	6.79
600.164	6.75
600.354	6.68
600.544	6.58
600.734	6.72
600.924	6.64
601.114	6.56
601.303	6.59
601.493	6.62
601.683	6.59
601.873	6.58
602.063	6.5
602.252	6.53
602.442	6.44
602.632	6.44
602.821	6.38
603.011	6.55
603.201	6.47
603.39	6.49
603.58	6.34
603.77	6.48
603.959	6.48
604.149	6.38
604.339	6.38
604.528	6.47
604.718	6.36
604.907	6.3
605.097	6.23
605.286	6.28
605.476	6.29
605.665	6.32
605.855	6.19
606.044	6.32
606.234	6.27
606.423	6.22
606.612	6.29
606.802	6.15
606.991	6.2
607.181	6.18
607.37	6.18
607.559	5.96
607.749	6.1
607.938	6.1
608.127	6.09
608.316	6.03
608.506	6.03
608.695	6.13
608.884	5.99
609.073	6
609.263	6.09
609.452	6.01
609.641	5.81
609.83	5.85
610.019	5.98
610.208	5.91
610.397	5.83
610.586	5.89
610.775	5.81
610.965	5.87
611.154	5.71
611.343	5.8
611.532	5.69
611.721	5.83
611.91	5.72
612.099	5.71
612.287	5.69
612.476	5.61
612.665	5.76
612.854	5.59
613.043	5.64
613.232	5.62
613.421	5.55
613.61	5.6
613.798	5.6
613.987	5.61
614.176	5.52
614.365	5.54
614.554	5.49
614.742	5.58
614.931	5.39
615.12	5.63
615.309	5.51
615.497	5.37
615.686	5.31
615.875	5.41
616.063	5.38
616.252	5.33
616.44	5.39
616.629	5.27
616.818	5.35
617.006	5.27
617.195	5.26
617.383	5.3
617.572	5.24
617.76	5.18
617.949	5.17
618.137	5.27
618.326	5.2
618.514	4.99
618.703	5.01
618.891	5.22
619.079	5.1
619.268	5.16
619.456	5.02
619.644	5.18
619.833	5.01
620.021	5.01
620.209	4.87
620.398	5.07
620.586	4.89
620.774	4.99
620.962	4.99
621.151	5.06
621.339	4.93
621.527	4.85
621.715	4.8
621.903	4.94
622.092	4.81
622.28	4.87
622.468	4.7
622.656	4.81
622.844	4.81
623.032	4.82
623.22	4.69
623.408	4.83
623.596	4.76
623.784	4.76
623.972	4.66
624.16	4.64
624.348	4.69
624.536	4.81
624.724	4.56
624.912	4.67
625.1	4.69
625.288	4.62
625.476	4.53
625.664	4.66
625.851	4.55
626.039	4.55
626.227	4.55
626.415	4.49
626.603	4.42
626.79	4.51
626.978	4.49
627.166	4.56
627.354	4.41
627.541	4.41
627.729	4.27
627.917	4.52
628.104	4.44
628.292	4.37
628.48	4.37
628.667	4.29
628.855	4.39
629.042	4.37
629.23	4.21
629.418	4.26
629.605	4.21
629.793	4.16
629.98	4.21
630.168	4.17
630.355	4.24
630.543	4.14
630.73	4.11
630.917	4.12
631.105	4.2
631.292	4.15
631.48	4.08
631.667	4.2
631.854	4.12
632.042	4.08
632.229	3.98
632.416	4.04
632.604	4.03
632.791	3.85
632.978	3.99
633.165	3.99
633.353	3.98
633.54	4
633.727	3.78
633.914	3.85
634.101	3.8
634.289	3.93
634.476	3.8
634.663	3.77
634.85	3.84
635.037	3.79
635.224	3.73
635.411	3.9
635.598	3.81
635.785	3.76
635.972	3.69
636.159	3.73
636.346	3.69
636.533	3.64
636.72	3.7
636.907	3.64
637.094	3.66
637.281	3.52
637.468	3.63
637.655	3.6
637.842	3.6
638.029	3.51
638.215	3.53
638.402	3.56
638.589	3.47
638.776	3.47
638.963	3.41
639.149	3.51
639.336	3.53
639.523	3.38
639.709	3.39
639.896	3.41
640.083	3.37
640.27	3.43
640.456	3.36
640.643	3.37
640.829	3.25
641.016	3.32
641.203	3.21
641.389	3.33
641.576	3.24
641.762	3.28
641.949	3.24
642.135	3.26
642.322	3.29
642.508	3.17
642.695	3.23
642.881	3.11
643.068	3.12
643.254	3.15
643.441	3.15
643.627	3.2
643.813	3
644	3.17
644.186	3.02
644.372	3.15
644.559	3.13
644.745	3.09
644.931	2.94
645.118	3.05
645.304	3.04
645.49	2.98
645.676	2.97
645.862	2.98
646.049	3.05
646.235	2.92
646.421	3.05
646.607	3
646.793	2.93
646.979	2.81
647.165	2.93
647.352	2.95
647.538	2.91
647.724	2.86
647.91	2.8
648.096	2.85
648.282	2.93
648.468	2.78
648.654	2.86
648.84	2.83
649.026	2.78
649.212	2.74
649.397	2.72
649.583	2.7
649.769	2.75
649.955	2.71
650.141	2.69
650.327	2.68
650.513	2.62
650.698	2.65
650.884	2.54
651.07	2.67
651.256	2.69
651.442	2.62
651.627	2.53
651.813	2.6
651.999	2.59
652.184	2.55
652.37	2.55
652.556	2.5
652.741	2.54
652.927	2.41
653.113	2.49
653.298	2.49
653.484	2.55
653.669	2.43
653.855	2.41
654.04	2.47
654.226	2.45
654.412	2.38
654.597	2.36
654.782	2.42
654.968	2.44
655.153	2.37
655.339	2.39
655.524	2.37
655.71	2.42
655.895	2.36
656.08	2.33
656.266	2.41
656.451	2.29
656.636	2.28
656.822	2.33
657.007	2.3
657.192	2.25
657.378	2.24
657.563	2.27
657.748	2.27
657.933	2.28
658.118	2.18
658.304	2.24
658.489	2.29
658.674	2.23
658.859	2.14
659.044	2.17
659.229	2.21
659.414	2.15
659.599	2.18
659.785	2.09
659.97	2.13
660.155	2.11
660.34	2.14
660.525	2.03
660.71	2.11
660.895	2.1
661.08	2.1
661.264	2.06
661.449	2.15
661.634	2.1
661.819	2.09
662.004	2.03
662.189	1.94
662.374	2
662.559	1.95
662.743	1.9
662.928	1.97
663.113	1.96
663.298	1.94
663.483	1.93
663.667	1.97
663.852	1.87
664.037	1.99
664.221	1.89
664.406	2.02
664.591	1.96
664.775	1.93
664.96	1.8
665.145	1.86
665.329	1.9
665.514	1.84
665.698	1.85
665.883	1.76
666.068	1.93
666.252	1.82
666.437	1.77
666.621	1.82
666.806	1.83
666.99	1.8
667.174	1.78
667.359	1.9
667.543	1.76
667.728	1.76
667.912	1.67
668.096	1.75
668.281	1.76
668.465	1.8
668.649	1.71
668.834	1.68
669.018	1.73
669.202	1.65
669.387	1.69
669.571	1.81
669.755	1.63
669.939	1.64
670.124	1.64
670.308	1.7
670.492	1.69
670.676	1.62
670.86	1.62
671.044	1.6
671.228	1.66
671.413	1.53
671.597	1.58
671.781	1.54
671.965	1.64
672.149	1.58
672.333	1.58
672.517	1.54
672.701	1.6
672.885	1.55
673.069	1.48
673.253	1.64
673.437	1.51
673.621	1.5
673.804	1.6
673.988	1.53
674.172	1.52
674.356	1.46
674.54	1.53
674.724	1.6
674.908	1.49
675.091	1.52
675.275	1.46
675.459	1.48
675.643	1.39
675.826	1.43
676.01	1.5
676.194	1.46
676.377	1.47
676.561	1.53
676.745	1.45
676.928	1.44
677.112	1.45
677.296	1.43
677.479	1.36
677.663	1.39
677.846	1.45
678.03	1.39
678.213	1.35
678.397	1.42
678.58	1.37
678.764	1.36
678.947	1.21
679.131	1.34
679.314	1.39
679.498	1.36
679.681	1.36
679.865	1.38
680.048	1.3
680.231	1.33
680.415	1.26
680.598	1.35
680.781	1.23
680.965	1.26
681.148	1.31
681.331	1.23
681.514	1.32
681.698	1.22
681.881	1.25
682.064	1.31
682.247	1.26
682.43	1.2
682.614	1.29
682.797	1.31
682.98	1.27
683.163	1.2
683.346	1.21
683.529	1.16
683.712	1.19
683.895	1.26
684.078	1.09
684.261	1.16
684.444	1.27
684.627	1.24
684.81	1.17
684.993	1.16
685.176	1.23
685.359	1.08
685.542	1.13
685.725	1.26
685.908	1.14
686.091	1.09
686.274	1.22
686.457	1.23
686.639	1.09
686.822	1.19
687.005	1.15
687.188	1.19
687.371	1.29
687.553	1.15
687.736	1.18
687.919	1.2
688.102	1.19
688.284	1.09
688.467	1.05
688.65	1.12
688.832	1.02
689.015	1.05
689.197	0.96
689.38	1.14
689.563	1.15
689.745	0.97
689.928	0.96
690.11	1.02
690.293	1.08
690.475	0.97
690.658	1.05
690.84	1.06
691.023	1.03
691.205	0.98
691.388	1.05
691.57	1.09
691.752	1.05
691.935	0.91
692.117	0.92
692.3	0.99
692.482	1.01
692.664	0.86
692.847	0.97
693.029	0.98
693.211	1.02
693.393	0.93
693.576	0.9
693.758	0.95
693.94	0.94
694.122	0.88
694.304	0.95
694.487	0.94
694.669	0.98
694.851	0.89
695.033	0.86
695.215	0.87
695.397	0.87
695.579	0.93
695.761	0.84
695.943	0.84
696.125	0.93
696.308	0.9
696.49	0.8
696.671	1.02
696.853	0.88
697.035	1.11
697.217	0.82
697.399	0.95
697.581	0.86
697.763	0.87
697.945	0.77
698.127	0.84
698.309	0.91
698.491	0.85
698.672	0.94
698.854	1.01
699.036	0.98
699.218	0.84
699.399	0.82
699.581	0.89
699.763	0.83
699.945	0.83
700.126	0.76
700.308	0.85
700.49	0.78
700.671	0.71
700.853	0.74
701.035	0.78
701.216	0.87
701.398	0.71
701.579	0.75
701.761	0.92
701.943	0.77
702.124	0.7
702.306	0.75
702.487	0.98
702.669	0.78
702.85	0.72
703.031	0.6
703.213	0.88
703.394	0.85
703.576	0.74
703.757	0.87
703.938	0.86
704.12	0.91
704.301	0.75
704.483	0.71
704.664	0.79
704.845	0.87
705.026	0.83
705.208	0.72
705.389	0.75
705.57	0.73
705.751	0.7
705.933	0.75
706.114	0.79
706.295	0.75
706.476	0.6
706.657	0.88
706.838	0.78
707.02	0.82
707.201	0.68
707.382	0.71
707.563	0.73
707.744	0.66
707.925	0.74
708.106	0.7
708.287	0.8
708.468	0.81
708.649	0.73
708.83	0.75
709.011	0.66
709.192	0.81
709.373	0.6
709.554	0.67
709.734	0.8
709.915	0.79
710.096	0.71
710.277	0.55
710.458	0.75
710.639	0.71
710.819	0.54
711	0.63
711.181	0.74
711.362	0.68
711.542	0.65
711.723	0.65
711.904	0.73
712.085	0.73
712.265	0.71
712.446	0.54
712.627	0.65
712.807	0.59
712.988	0.67
713.168	0.5
713.349	0.67
713.53	0.45
713.71	0.53
713.891	0.49
714.071	0.61
714.252	0.53
714.432	0.55
714.613	0.54
714.793	0.63
714.974	0.74
715.154	0.62
715.334	0.6
715.515	0.69
715.695	0.5
715.876	0.59
716.056	0.58
716.236	0.58
716.417	0.52
716.597	0.52
716.777	0.81
716.957	0.53
717.138	0.61
717.318	0.55
717.498	0.44
717.678	0.6
717.859	0.62
718.039	0.54
718.219	0.61
718.399	0.54
718.579	0.54
718.759	0.5
718.939	0.6
719.12	0.61
719.3	0.52
719.48	0.4
719.66	0.43
719.84	0.75
720.02	0.54
720.2	0.45
720.38	0.58
720.56	0.8
720.74	0.52
720.92	0.53
721.1	0.7
721.279	0.62
721.459	0.53
721.639	0.44
721.819	0.55
721.999	0.5
722.179	0.6
722.359	0.43
722.538	0.49
722.718	0.6
722.898	0.52
723.078	0.55
723.257	0.51
723.437	0.62
723.617	0.58
723.797	0.57
723.976	0.53
724.156	0.57
724.336	0.69
724.515	0.64
724.695	0.48
724.874	0.51
725.054	0.61
725.234	0.5
725.413	0.55
725.593	0.51
725.772	0.58
725.952	0.41
726.131	0.46
726.311	0.56
726.49	0.45
726.67	0.42
726.849	0.4
727.028	0.6
727.208	0.5
727.387	0.51
727.567	0.41
727.746	0.48
727.925	0.4
728.105	0.33
728.284	0.44
728.463	0.4
728.643	0.51
728.822	0.42
729.001	0.47
729.18	0.53
729.359	0.64
729.539	0.53
729.718	0.47
729.897	0.58
730.076	0.46
730.255	0.41
730.434	0.49
730.614	0.59
730.793	0.76
730.972	0.43
731.151	0.41
731.33	0.58
731.509	0.52
731.688	0.44
731.867	0.45
732.046	0.32
732.225	0.7
732.404	0.4
732.583	0.37
732.762	0.46
732.941	0.5
733.12	0.54
733.298	0.45
733.477	0.62
733.656	0.46
733.835	0.47
734.014	0.64
734.193	0.61
734.371	0.52
734.55	0.54
734.729	0.3
734.908	0.52
735.086	0.51
735.265	0.56
735.444	0.28
735.623	0.33
735.801	0.34
735.98	0.51
736.159	0.41
736.337	0.58
736.516	0.53
736.694	0.58
736.873	0.45
737.052	0.75
737.23	0.65
737.409	0.4
737.587	0.67
737.766	0.3
737.944	0.57
738.123	0.54
738.301	0.52
738.479	0.6
738.658	0.5
738.836	0.22
739.015	0.51
739.193	0.58
739.371	0.32
739.55	0.44
739.728	0.5
739.906	0.66
740.085	0.7
740.263	0.5
740.441	0.25
740.62	0.71
740.798	0.65
740.976	0.33
741.154	0.34
741.332	0.67
741.511	0.38
741.689	0.55
741.867	0.43
742.045	0.4
742.223	0.51
742.401	0.35
742.579	0.4
742.757	0.61
742.935	0.35
743.114	0.42
743.292	0.31
743.47	0.53
743.648	0.42
743.826	0.41
744.004	0.44
744.181	0.66
744.359	0.5
744.537	0.44
744.715	0.38
744.893	0.38
745.071	0.42
745.249	0.41
745.427	0.39
745.605	0.46
745.782	0.57
745.96	0.51
746.138	0.44
746.316	0.59
746.493	0.39
746.671	0.44
746.849	0.4
747.027	0.68
747.204	0.35
747.382	0.5
747.56	0.23
747.737	0.33
747.915	0.41
748.093	0.46
748.27	0.35
748.448	0.5
748.625	0.28
748.803	0.37
748.98	0.27
749.158	0.46
749.335	0.47
749.513	0.25
749.69	0.35
749.868	0.45
750.045	0.46
750.223	0.41
750.4	0.13
750.578	0.58
750.755	0.44
750.932	0.3
751.11	0.56
751.287	0.35
751.464	0.52
751.642	0.17
751.819	0.45
751.996	0.47
752.173	0.33
752.351	0.34
752.528	0.33
752.705	0.4
752.882	0.32
753.06	0.41
753.237	0.49
753.414	0.59
753.591	0.59
753.768	0.46
753.945	0.38
754.122	0.31
754.299	0.57
754.476	0.26
754.654	0.49
754.831	0.52
755.008	0.42
755.185	0.36
755.362	0.27
755.539	0.47
755.716	0.41
755.892	0.33
756.069	0.33
756.246	0.48
756.423	0.35
756.6	0.56
756.777	0.26
756.954	0.58
757.131	0.45
757.307	0.22
757.484	0.17
757.661	0.38
757.838	0.49
758.015	0.16
758.191	0.43
758.368	0.41
758.545	0.6
758.721	0.48
758.898	0.29
759.075	0.49
759.251	0.53
759.428	0.47
759.605	0.18
759.781	0.22
759.958	0.54
760.134	0.43
760.311	0.35
760.488	0.52
760.664	0.56
760.841	0.37
761.017	0.34
761.194	0.56
761.37	0.56
761.547	0.46
761.723	0.23
761.899	0.68
762.076	0.32
762.252	0.33
762.429	0.25
762.605	0.46
762.781	0.3
762.958	0.51
763.134	0.26
763.31	0.22
763.486	0.64
763.663	0.19
763.839	0.34
764.015	0.22
764.191	0.31
764.368	0.29
764.544	0.21
764.72	0.49
764.896	0.35
765.072	0.4
765.248	0.41
765.425	0.32
765.601	0.48
765.777	0.36
765.953	0.12
766.129	0.3
766.305	0.23
766.481	0.42
766.657	0.4
766.833	0.47
767.009	0.31
767.185	0.33
767.361	0.25
767.537	0.2
767.713	0.51
767.889	0.25
768.065	0.43
768.24	0.2
768.416	0.42
768.592	0.18
768.768	0.49
768.944	0.45
769.12	0.32
769.295	0.31
769.471	0.26
769.647	0.36
769.823	0.47
769.998	0.22
770.174	0.23
770.35	0.77
770.525	0.84
770.701	0.45
770.877	0.4
771.052	0.33
771.228	0.52
771.403	0.55
771.579	0.35
771.755	0.65
771.93	0.23
772.106	0.23
772.281	0.18
772.457	0.51
772.632	0.35
772.808	0.16
772.983	0.2
773.159	0.15
773.334	0.63
773.509	0.43
773.685	0.16
773.86	0.83
774.036	0.67
774.211	0.45
774.386	0.24
774.562	0.39
774.737	0.49
774.912	0.3
775.087	0.44
775.263	0.24
775.438	0.54
775.613	0.28
775.788	0.28
775.964	0.53
776.139	0.76
776.314	0.23
776.489	0.37
776.664	0.29
776.839	0.35
777.014	0.68
777.19	0.49
777.365	0.69
777.54	0.62
777.715	0.36
777.89	0.42
778.065	0.2
778.24	0.47
778.415	0.48
778.59	0.15
778.765	0.31
778.94	0.53
779.115	0.24
779.289	0.32
779.464	0.44
779.639	0.31
779.814	0.17
779.989	0.14
780.164	0.51
780.339	0.55
780.513	0.26
780.688	0.19
780.863	0.52
781.038	0.58
781.212	0.34
781.387	0.52
781.562	0.81
781.737	0.22
781.911	0.59
782.086	0.21
782.261	0.17
782.435	0.86
782.61	0.39
782.784	0.23
782.959	0.64
783.134	0.35
783.308	0.21
783.483	0.31
783.657	0.96
783.832	0.82
784.006	0.22
784.181	0.46
784.355	0.87
784.53	0.16
784.704	0.23
784.878	0.59
785.053	0.55
785.227	0.79
785.402	0.79
785.576	0.07
785.75	0.55
785.925	0.28
786.099	0.38
786.273	0.44
786.448	0.68
786.622	0.76
786.796	0.47
786.97	0.4
787.145	1.07
787.319	0.16
787.493	0.28
787.667	-0.06
787.841	0.58
788.015	0.91
788.19	0.19
788.364	0.32
788.538	0.8
788.712	0.53
788.886	0.5
789.06	0.57
789.234	0.68
789.408	0.06
789.582	0.18
789.756	0.55
789.93	0.16
790.104	0.46
790.278	0.37
790.452	0.07
790.626	0.71
790.8	0.44
790.973	0.54
791.147	0.87
791.321	0.83
791.495	0.58
791.669	0.44
791.843	0.71
792.016	0.27
792.19	0.86
792.364	0.27
792.538	1.01
792.711	0.58
792.885	0.35
793.059	0.17
793.233	-0.04
793.406	0.64
793.58	0.49
793.754	0.43
793.927	0.32
794.101	0.96
794.274	0.65
794.448	0.47
794.622	-0.09
794.795	1.09
794.969	0.42
795.142	0.97
795.316	0.28
795.489	0.4
795.663	1.02
795.836	0.26
796.009	0.15
796.183	1.08
796.356	0.67
796.53	0.46
796.703	0.36
796.876	1.31
797.05	0.39
797.223	0.44
797.396	0.66
797.57	0.3
797.743	0.91
797.916	0.51
798.09	0.42
798.263	0.88
798.436	0.59
798.609	0.1
798.782	0.4
798.956	0.82
799.129	0.55
799.302	0.22
799.475	0.26
799.648	0.42
799.821	0.37
799.994	0.23
800.167	0.15
800.34	0.39
800.514	0.62
800.687	0.08
800.86	0.4
801.033	0.71
801.206	0.72
801.379	0.07
801.551	0.82
801.724	0.57
801.897	1.12
802.07	0.24
802.243	0.09
802.416	0.81
802.589	0.4
802.762	0.73
802.935	0.44
803.107	0.87
803.28	1.01
803.453	0.7
803.626	0.5
803.798	0.8
803.971	0.22
804.144	0.74
804.317	0.78
804.489	0.8
804.662	0.45
804.835	0.41
805.007	-0.07
805.18	1.07
805.353	0.49
805.525	0.46
805.698	0.27
805.87	1.06
806.043	0.77
806.215	-0.03
806.388	0.35
806.56	0.77
806.733	1.04
806.905	0.64
807.078	0.52
807.25	0.22
807.423	0.71
807.595	0.55
807.768	0.6
807.94	1.08
808.112	1.07
808.285	0.61
808.457	0.16
808.629	0.6
808.802	0.7
808.974	0.68
809.146	0.31
809.318	0.02
809.491	0.73
809.663	0.94
809.835	0.16
810.007	0.66
810.18	1.09
810.352	0.23
810.524	0.66
810.696	0.9
810.868	1.11
811.04	0.29
811.212	0.37
811.384	0.83
811.556	0.78
811.728	0.36
811.901	1.51
812.073	0.64
812.245	0.94
812.417	0.71
812.589	0.49
812.76	0.92
812.932	0.74
813.104	1.06
813.276	0.67
813.448	1.29
813.62	0.81
813.792	0.72
813.964	0.38
814.136	0.77
814.307	0.51
814.479	0.13
814.651	-0
814.823	1.73
814.995	0.61
815.166	0.7
815.338	0.24
815.51	-0.01
815.681	1.75
815.853	0.59
816.025	0.8
816.196	1.08
816.368	1.06
816.54	0.07
816.711	0.48
816.883	1.49
817.054	2.1
817.226	0.3
817.398	1
817.569	0.15
817.741	1.05
817.912	0.67
818.084	0.14
818.255	1.28
818.426	0.42
818.598	1
818.769	-0.09
818.941	0.9
819.112	1.37
819.283	0.97
819.455	0.41
819.626	0.66
819.798	1.29
819.969	0.88
820.14	0.48
820.311	0.72
820.483	0.59
820.654	0.69
820.825	0.86
820.996	0.55
821.168	0.05
821.339	0.72
821.51	-0.09
821.681	-0.01
821.852	0.47
822.023	0.15
822.195	0.44
822.366	1.36
822.537	0.58
822.708	0.71
822.879	0.57
823.05	1.23
823.221	0.83
823.392	0.94
823.563	0.75
823.734	0.9
823.905	0.97
824.076	0.52
824.247	0.43
824.418	0.47
824.589	1.69
824.759	0.82
824.93	0.49
825.101	0.04
825.272	1.58
825.443	1.61
825.614	1.79
825.784	-0.12
825.955	1.86
826.126	1.52
826.297	1
826.467	1.55
826.638	2.31
826.809	0.08
826.98	0.68
827.15	1.71
827.321	1.35
827.492	1.6
827.662	0.57
827.833	2.19
828.003	1.22
828.174	0.26
828.345	0.02
828.515	1.92
828.686	0.98
828.856	0.99
829.027	0.47
829.197	0.75
829.368	0.72
829.538	0.58
829.709	0.78
829.879	1.12
830.049	0.9
830.22	0.85
830.39	0.18
830.56	1.31
830.731	0.91
830.901	0.11
831.072	1.25
831.242	1.03
831.412	1.29
831.582	0.2
831.753	-0.18
831.923	1.33
832.093	1.17
832.263	0.46
832.434	0.08
832.604	0.98
832.774	1.76
832.944	0.57
833.114	0.17
833.284	1.35
833.454	0.16
833.624	0.4
833.795	0.75
833.965	1.66
834.135	2.22
834.305	-0.13
834.475	0.28
834.645	1.34
834.815	0.78
834.985	0.58
835.155	0.22
835.325	1.24
835.494	1.7
835.664	0.33
835.834	-0.03
836.004	1
836.174	1.69
836.344	0.42
836.514	-0.16
836.684	0.48
836.853	1.12
837.023	1.72
837.193	0.41
837.363	1.53
837.532	1.74
837.702	0.86
837.872	0.36
838.041	2.03
838.211	2.26
838.381	-0.28
838.55	0.64
838.72	3.22
838.89	2.29
839.059	0.28
839.229	0.01
839.398	2.64
839.568	0.9
839.738	1.15
839.907	2.04
840.077	2.03
840.246	0.28
840.416	0.64
840.585	0.51
840.755	2.9
840.924	1.76
841.093	0.25
841.263	0.71
841.432	0.27
841.602	0.41
841.771	0.3
841.94	1.46
842.11	3.8
842.279	2.38
842.448	0.4
842.617	0.07
842.787	2.73
842.956	0.08
843.125	0.71
843.294	0.88
843.464	2.24
843.633	1.51
843.802	-0.61
843.971	1.33
844.14	2.1
844.309	2.89
844.479	-0.42
844.648	-0.28
844.817	1.15
844.986	0.73
845.155	0.65
845.324	0.48
845.493	0.62
845.662	0.35
845.831	1.82
846	1.63
846.169	0.86
846.338	2.81
846.507	1.17
846.676	1.67
846.844	0.22
847.013	1.27
847.182	0.83
847.351	0.7
847.52	2
847.689	1.37
847.858	1.19
848.026	0.39
848.195	1.22
848.364	1.11
848.533	0.16
848.701	1.05
848.87	1.42
849.039	2.95
849.207	1.94
849.376	2.58
849.545	2.61
849.713	0.52
849.882	0.79
850.051	0.43
850.219	1.7
850.388	1.59
850.556	0.64
850.725	-0.26
850.893	0.91
851.062	0.89
851.23	1.21
851.399	-0.78
851.567	1.46
851.736	1.41
851.904	-0.49
852.073	0.72
852.241	2.59
852.41	0.99
852.578	-0.02
852.746	0.16
852.915	2.38
853.083	1.6
853.251	-0.15
853.42	0.75
853.588	0.86
853.756	2.45
853.924	0.41
854.093	1.1
854.261	0.98
854.429	-0.19
854.597	1.72
854.765	-0.47
854.934	2.64
855.102	1.75
855.27	0.04
855.438	1.92
855.606	4.31
855.774	4.05
855.942	0.57
856.11	0.08
856.278	1.18
856.446	2.28
856.614	0.77
856.782	0.03
856.95	2.67
857.118	2.25
857.286	1.58
857.454	0.26
857.622	3.8
857.79	2.64
857.958	0.63
858.126	1.32
858.294	-1.14
858.462	0.96
858.629	-0.2
858.797	0.23
858.965	1.97
859.133	1.88
859.301	0.43
859.468	2.03
859.636	1.76
859.804	3.92
859.971	1.87
860.139	0.23
860.307	4.12
860.474	2.41
860.642	0.18
860.81	-0.41
860.977	1.56
861.145	3.79
861.313	1.91
861.48	0.11
861.648	1.94
861.815	2.38
861.983	-1.07
862.15	-0.13
862.318	3.76
862.485	4.02
862.653	-0.12
862.82	-0.62
862.988	4.21
863.155	1.98
863.322	0.55
863.49	0.04
863.657	2.21
863.824	5.44
863.992	2.58
864.159	2.54
864.326	3.1
864.494	1.63
864.661	4.71
864.828	0.8
864.996	3.45
865.163	5.26
865.33	1.5
865.497	0.13
865.664	-0.28
865.832	-0.48
865.999	2.4
866.166	0.85
866.333	1.44
866.5	2.58
866.667	1.63
866.834	2.2
867.001	2.77
867.168	-0.92
867.335	2.16
867.502	0.28
867.669	1.9
867.836	4.36
868.003	2.07
868.17	2.84
868.337	0.94
868.504	5.93
868.671	-2.05
868.838	2.14
869.005	2.9
869.172	3.36
869.339	2.35
869.505	2.35
869.672	3.93
869.839	4.2
870.006	2.42
870.173	-0.54
870.339	3.64
870.506	5.4
870.673	1.1
870.84	3.23
871.006	2.42
871.173	1.26
871.34	1.85
871.506	-0.48
871.673	3.46
871.839	-0.08
872.006	3.61
872.173	-0.53
872.339	2.6
872.506	4.78
872.672	0.7
872.839	-1.35
873.005	1.2
873.172	6.82
873.338	2.22
873.505	1.89
873.671	2.77
873.838	2.15
874.004	-0.45
874.171	0.44
874.337	1.98
874.503	1.89
874.67	3.15
874.836	1.05
875.002	4.85
875.169	5.02
875.335	1.92
875.501	1.59
875.668	3.64
875.834	0.48
876	1.62
876.166	3.68
876.332	4.45
876.499	7.2
876.665	3.21
876.831	1.48
876.997	6.4
877.163	2.88
877.329	2.16
877.495	3.03
877.662	2.76
877.828	4.08
877.994	2.96
878.16	-1.26
878.326	1.72
878.492	4.87
878.658	1.72
878.824	1.33
878.99	5.3
879.156	1.97
879.322	3.54
879.487	2.74
879.653	3.25
879.819	2.36
879.985	-0.1
880.151	1.3
880.317	2.26
880.483	0.76
880.648	3.56
880.814	-1.61
880.98	1.25
881.146	-0.34
881.312	0.45
881.477	0.54
881.643	1.67
881.809	4.23
881.974	4.4
882.14	-1.21
882.306	1.71
882.471	6.42
882.637	0.79
882.803	2.83
882.968	5.49
883.134	7.7
883.299	1.42
883.465	1.66
883.63	5.48
883.796	4.21
883.961	3.87
884.127	2.04
884.292	-2.77
884.458	0.68
884.623	0.68
