Data from Apollo_Calib_20240827__AbsoluteIrradiance__859__13-28-01-204.txt Node

Date: Wed Aug 28 13:28:01 BST 2024
User: biology
Spectrometer: FLMT08252
Trigger mode: 0
Integration Time (sec): 5.000000E-1
Scans to average: 5
Electric dark correction enabled: true
Nonlinearity correction enabled: false
Boxcar width: 0
XAxis mode: Wavelengths
Number of Pixels in Spectrum: 3648
>>>>>Begin Spectral Data<<<<<
179.588	-0
179.809	-0
180.03	-0
180.251	-0
180.473	-0
180.694	0
180.915	0
181.136	-0
181.357	0
181.578	-0
181.799	0
182.02	-0
182.241	-0
182.462	-0
182.683	0
182.904	-0
183.125	-0
183.346	0
183.567	0
183.788	0
184.009	0
184.23	0
184.451	0
184.672	0
184.892	0
185.113	0
185.334	0
185.555	0
185.776	0
185.996	0
186.217	0
186.438	0
186.659	0
186.879	0
187.1	0
187.321	0
187.541	0
187.762	0
187.983	0
188.203	0
188.424	0
188.644	0
188.865	0
189.086	0
189.306	0
189.527	0
189.747	0
189.968	0
190.188	0
190.409	0
190.629	0
190.849	0
191.07	0
191.29	0
191.511	0
191.731	0
191.951	0
192.172	0
192.392	0
192.612	0
192.833	0
193.053	0
193.273	0
193.493	0
193.714	0
193.934	0
194.154	0
194.374	0
194.594	0
194.815	0
195.035	0
195.255	0
195.475	0
195.695	0
195.915	0
196.135	0
196.355	0
196.575	0
196.795	0
197.015	0
197.235	0
197.455	0
197.675	0
197.895	0
198.115	0
198.335	0
198.555	0
198.775	0
198.995	0
199.214	0
199.434	0
199.654	0
199.874	0
200.094	3.96
200.313	2.22
200.533	1.89
200.753	0.9
200.973	3.57
201.192	3.36
201.412	0.98
201.632	1.1
201.851	3.53
202.071	1.76
202.291	1.85
202.51	0.83
202.73	2.26
202.95	1.76
203.169	1.25
203.389	1.67
203.608	1.78
203.828	1.66
204.047	1.2
204.267	1.98
204.486	2.08
204.706	2.07
204.925	1.5
205.145	1.5
205.364	2.36
205.583	2.52
205.803	1.29
206.022	0.92
206.242	1.51
206.461	1.68
206.68	1.07
206.9	1.84
207.119	2.71
207.338	1.94
207.557	1.01
207.777	1.18
207.996	1.59
208.215	1.85
208.434	1.08
208.654	0.79
208.873	1.43
209.092	1.91
209.311	0.93
209.53	1.11
209.749	0.98
209.968	1.24
210.187	1.17
210.407	0.68
210.626	1.17
210.845	1.68
211.064	1.12
211.283	0.86
211.502	1.5
211.721	0.9
211.94	1.14
212.159	1.42
212.377	1.54
212.596	1.33
212.815	1.22
213.034	1.09
213.253	1.44
213.472	1.22
213.691	0.73
213.91	0.66
214.128	0.44
214.347	1.73
214.566	0.48
214.785	0.83
215.003	1.23
215.222	0.97
215.441	0.83
215.66	0.42
215.878	0.93
216.097	1.11
216.316	0.63
216.534	0.83
216.753	1.07
216.972	0.97
217.19	0.69
217.409	0.53
217.627	0.83
217.846	0.85
218.064	0.88
218.283	0.55
218.501	1.33
218.72	1.11
218.938	0.59
219.157	0.72
219.375	1.06
219.594	1.06
219.812	0.5
220.031	0.5
220.249	1.11
220.467	1.03
220.686	0.69
220.904	0.37
221.122	0.7
221.341	1.21
221.559	0.79
221.777	0.44
221.995	0.73
222.214	0.93
222.432	0.51
222.65	0.87
222.868	0.78
223.086	0.85
223.305	0.82
223.523	0.56
223.741	1.14
223.959	0.54
224.177	0.32
224.395	0.58
224.613	0.68
224.831	0.89
225.049	0.47
225.267	0.55
225.485	0.81
225.703	0.6
225.921	0.62
226.139	0.51
226.357	0.88
226.575	0.86
226.793	0.43
227.011	1.53
227.229	0.79
227.447	0.94
227.665	0.52
227.883	0.43
228.1	0.59
228.318	0.71
228.536	0.28
228.754	0.38
228.972	0.74
229.189	0.79
229.407	0.49
229.625	0.59
229.843	0.88
230.06	0.7
230.278	0.56
230.496	0.6
230.713	0.59
230.931	0.87
231.149	0.36
231.366	0.22
231.584	0.59
231.801	0.88
232.019	0.47
232.236	0.24
232.454	0.38
232.671	0.76
232.889	0.47
233.106	0.35
233.324	0.69
233.541	0.57
233.759	0.53
233.976	0.39
234.194	0.59
234.411	0.62
234.628	0.33
234.846	0.41
235.063	0.59
235.28	0.58
235.498	0.41
235.715	0.32
235.932	0.73
236.149	0.45
236.367	0.34
236.584	0.56
236.801	0.48
237.018	0.63
237.236	0.43
237.453	0.23
237.67	0.67
237.887	0.51
238.104	0.36
238.321	0.34
238.538	0.37
238.755	0.7
238.973	0.25
239.19	0.46
239.407	0.65
239.624	0.7
239.841	0.36
240.058	0.32
240.275	0.6
240.492	0.48
240.709	0.42
240.925	0.43
241.142	0.42
241.359	0.33
241.576	0.26
241.793	0.34
242.01	0.45
242.227	0.55
242.444	0.52
242.66	0.67
242.877	0.61
243.094	0.4
243.311	0.47
243.527	0.45
243.744	0.52
243.961	0.56
244.178	0.31
244.394	0.32
244.611	0.55
244.828	0.68
245.044	0.2
245.261	0.35
245.477	0.44
245.694	0.53
245.911	0.39
246.127	0.54
246.344	0.63
246.56	0.53
246.777	0.36
246.993	0.43
247.21	0.5
247.426	0.54
247.643	0.35
247.859	0.29
248.076	0.31
248.292	0.66
248.508	0.26
248.725	0.42
248.941	0.47
249.157	0.58
249.374	0.27
249.59	0.34
249.806	0.4
250.023	0.59
250.239	0.23
250.455	0.23
250.671	0.38
250.888	0.48
251.104	0.46
251.32	0.36
251.536	0.43
251.752	0.41
251.969	0.35
252.185	0.37
252.401	0.62
252.617	0.44
252.833	0.33
253.049	0.41
253.265	0.44
253.481	0.37
253.697	0.31
253.913	0.36
254.129	0.39
254.345	0.42
254.561	0.34
254.777	0.32
254.993	0.44
255.209	0.38
255.425	0.3
255.641	0.3
255.857	0.44
256.073	0.41
256.288	0.22
256.504	0.3
256.72	0.45
256.936	0.5
257.152	0.35
257.367	0.3
257.583	0.44
257.799	0.48
258.015	0.3
258.23	0.29
258.446	0.59
258.662	0.31
258.877	0.29
259.093	0.25
259.309	0.44
259.524	0.42
259.74	0.26
259.955	0.18
260.171	0.39
260.387	0.42
260.602	0.39
260.818	0.37
261.033	0.31
261.249	0.35
261.464	0.3
261.68	0.23
261.895	0.43
262.11	0.41
262.326	0.27
262.541	0.24
262.757	0.46
262.972	0.45
263.187	0.4
263.403	0.34
263.618	0.45
263.833	0.36
264.049	0.25
264.264	0.33
264.479	0.33
264.694	0.57
264.91	0.25
265.125	0.23
265.34	0.46
265.555	0.59
265.77	0.33
265.986	0.19
266.201	0.4
266.416	0.52
266.631	0.31
266.846	0.29
267.061	0.43
267.276	0.44
267.491	0.15
267.706	0.41
267.921	0.42
268.136	0.35
268.351	0.31
268.566	0.21
268.781	0.41
268.996	0.5
269.211	0.33
269.426	0.19
269.641	0.31
269.856	0.43
270.071	0.24
270.285	0.2
270.5	0.48
270.715	0.4
270.93	0.32
271.145	0.32
271.359	0.46
271.574	0.31
271.789	0.33
272.004	0.27
272.218	0.32
272.433	0.39
272.648	0.32
272.862	0.36
273.077	0.37
273.292	0.33
273.506	0.25
273.721	0.28
273.936	0.38
274.15	0.4
274.365	0.28
274.579	0.38
274.794	0.39
275.008	0.46
275.223	0.25
275.437	0.29
275.652	0.41
275.866	0.44
276.081	0.27
276.295	0.39
276.509	0.33
276.724	0.3
276.938	0.31
277.153	0.3
277.367	0.37
277.581	0.31
277.796	0.27
278.01	0.2
278.224	0.4
278.438	0.42
278.653	0.21
278.867	0.28
279.081	0.2
279.295	0.31
279.51	0.3
279.724	0.16
279.938	0.34
280.152	0.37
280.366	0.28
280.58	0.28
280.794	0.39
281.008	0.37
281.222	0.35
281.437	0.48
281.651	0.34
281.865	0.43
282.079	0.3
282.293	0.16
282.507	0.22
282.721	0.31
282.935	0.25
283.148	0.23
283.362	0.29
283.576	0.18
283.79	0.28
284.004	0.27
284.218	0.39
284.432	0.24
284.646	0.29
284.859	0.2
285.073	0.27
285.287	0.28
285.501	0.27
285.714	0.29
285.928	0.32
286.142	0.32
286.356	0.28
286.569	0.23
286.783	0.39
286.997	0.37
287.21	0.25
287.424	0.25
287.637	0.22
287.851	0.28
288.065	0.35
288.278	0.26
288.492	0.3
288.705	0.23
288.919	0.28
289.132	0.16
289.346	0.35
289.559	0.17
289.773	0.2
289.986	0.3
290.2	0.28
290.413	0.37
290.626	0.25
290.84	0.19
291.053	0.29
291.267	0.39
291.48	0.3
291.693	0.28
291.906	0.23
292.12	0.29
292.333	0.23
292.546	0.28
292.76	0.36
292.973	0.32
293.186	0.33
293.399	0.24
293.612	0.31
293.826	0.24
294.039	0.27
294.252	0.22
294.465	0.34
294.678	0.26
294.891	0.24
295.104	0.2
295.317	0.27
295.53	0.26
295.743	0.26
295.956	0.22
296.169	0.36
296.382	0.31
296.595	0.25
296.808	0.18
297.021	0.35
297.234	0.34
297.447	0.22
297.66	0.3
297.873	0.35
298.086	0.33
298.299	0.24
298.511	0.12
298.724	0.27
298.937	0.22
299.15	0.21
299.363	0.24
299.575	0.28
299.788	0.32
300.001	0.22
300.213	0.25
300.426	0.26
300.639	0.2
300.852	0.18
301.064	0.3
301.277	0.35
301.489	0.31
301.702	0.28
301.915	0.25
302.127	0.25
302.34	0.28
302.552	0.3
302.765	0.19
302.977	0.33
303.19	0.18
303.402	0.19
303.615	0.2
303.827	0.24
304.04	0.28
304.252	0.32
304.464	0.26
304.677	0.41
304.889	0.26
305.102	0.18
305.314	0.2
305.526	0.25
305.739	0.28
305.951	0.16
306.163	0.21
306.375	0.37
306.588	0.22
306.8	0.21
307.012	0.23
307.224	0.26
307.436	0.31
307.649	0.16
307.861	0.25
308.073	0.27
308.285	0.22
308.497	0.18
308.709	0.2
308.921	0.25
309.133	0.31
309.346	0.26
309.558	0.24
309.77	0.32
309.982	0.35
310.194	0.3
310.406	0.2
310.617	0.38
310.829	0.26
311.041	0.25
311.253	0.2
311.465	0.25
311.677	0.26
311.889	0.23
312.101	0.19
312.313	0.34
312.524	0.3
312.736	0.12
312.948	0.22
313.16	0.34
313.372	0.25
313.583	0.25
313.795	0.22
314.007	0.21
314.218	0.34
314.43	0.22
314.642	0.2
314.853	0.21
315.065	0.27
315.277	0.21
315.488	0.23
315.7	0.29
315.912	0.3
316.123	0.24
316.335	0.24
316.546	0.41
316.758	0.22
316.969	0.23
317.181	0.24
317.392	0.25
317.604	0.35
317.815	0.21
318.026	0.21
318.238	0.24
318.449	0.29
318.661	0.15
318.872	0.17
319.083	0.21
319.295	0.27
319.506	0.24
319.717	0.21
319.929	0.28
320.14	0.3
320.351	0.25
320.562	0.19
320.774	0.32
320.985	0.23
321.196	0.17
321.407	0.16
321.618	0.32
321.829	0.27
322.041	0.26
322.252	0.23
322.463	0.27
322.674	0.33
322.885	0.19
323.096	0.23
323.307	0.23
323.518	0.29
323.729	0.21
323.94	0.23
324.151	0.23
324.362	0.26
324.573	0.27
324.784	0.21
324.995	0.31
325.206	0.29
325.417	0.23
325.628	0.19
325.838	0.24
326.049	0.27
326.26	0.3
326.471	0.17
326.682	0.33
326.892	0.28
327.103	0.14
327.314	0.2
327.525	0.31
327.735	0.28
327.946	0.22
328.157	0.18
328.368	0.28
328.578	0.2
328.789	0.29
328.999	0.23
329.21	0.23
329.421	0.33
329.631	0.23
329.842	0.15
330.052	0.29
330.263	0.24
330.473	0.26
330.684	0.2
330.894	0.26
331.105	0.27
331.315	0.27
331.526	0.19
331.736	0.38
331.947	0.27
332.157	0.27
332.367	0.17
332.578	0.29
332.788	0.34
332.999	0.31
333.209	0.25
333.419	0.18
333.629	0.3
333.84	0.34
334.05	0.22
334.26	0.33
334.47	0.28
334.681	0.27
334.891	0.18
335.101	0.29
335.311	0.38
335.521	0.25
335.732	0.18
335.942	0.34
336.152	0.23
336.362	0.19
336.572	0.24
336.782	0.32
336.992	0.26
337.202	0.21
337.412	0.24
337.622	0.32
337.832	0.25
338.042	0.21
338.252	0.18
338.462	0.25
338.672	0.22
338.882	0.2
339.092	0.23
339.302	0.37
339.511	0.31
339.721	0.23
339.931	0.17
340.141	0.33
340.351	0.32
340.561	0.24
340.77	0.29
340.98	0.28
341.19	0.27
341.4	0.22
341.609	0.18
341.819	0.24
342.029	0.17
342.238	0.25
342.448	0.23
342.658	0.32
342.867	0.19
343.077	0.23
343.286	0.25
343.496	0.26
343.706	0.33
343.915	0.2
344.125	0.21
344.334	0.3
344.544	0.19
344.753	0.19
344.963	0.18
345.172	0.21
345.381	0.25
345.591	0.18
345.8	0.29
346.01	0.31
346.219	0.34
346.428	0.11
346.638	0.21
346.847	0.26
347.056	0.29
347.266	0.22
347.475	0.18
347.684	0.27
347.893	0.28
348.103	0.26
348.312	0.24
348.521	0.22
348.73	0.24
348.94	0.25
349.149	0.23
349.358	0.23
349.567	0.22
349.776	0.18
349.985	0.23
350.194	0.27
350.403	0.31
350.612	0.2
350.821	0.18
351.03	0.24
351.239	0.2
351.448	0.27
351.657	0.23
351.866	0.38
352.075	0.26
352.284	0.25
352.493	0.21
352.702	0.33
352.911	0.25
353.12	0.25
353.329	0.22
353.538	0.25
353.746	0.21
353.955	0.2
354.164	0.25
354.373	0.23
354.582	0.29
354.79	0.25
354.999	0.25
355.208	0.21
355.416	0.31
355.625	0.17
355.834	0.21
356.042	0.31
356.251	0.2
356.46	0.19
356.668	0.26
356.877	0.34
357.085	0.27
357.294	0.13
357.503	0.25
357.711	0.22
357.92	0.41
358.128	0.24
358.337	0.24
358.545	0.26
358.754	0.25
358.962	0.3
359.17	0.2
359.379	0.27
359.587	0.22
359.796	0.21
360.004	0.27
360.212	0.3
360.421	0.32
360.629	0.22
360.837	0.23
361.046	0.3
361.254	0.4
361.462	0.21
361.67	0.21
361.879	0.27
362.087	0.34
362.295	0.25
362.503	0.17
362.711	0.17
362.92	0.23
363.128	0.16
363.336	0.19
363.544	0.16
363.752	0.22
363.96	0.22
364.168	0.21
364.376	0.23
364.584	0.27
364.792	0.3
365	0.21
365.208	0.24
365.416	0.27
365.624	0.28
365.832	0.22
366.04	0.34
366.248	0.23
366.456	0.26
366.664	0.23
366.872	0.22
367.079	0.25
367.287	0.24
367.495	0.25
367.703	0.27
367.911	0.25
368.118	0.26
368.326	0.26
368.534	0.2
368.742	0.29
368.949	0.16
369.157	0.24
369.365	0.24
369.572	0.2
369.78	0.18
369.988	0.27
370.195	0.25
370.403	0.3
370.61	0.23
370.818	0.23
371.026	0.36
371.233	0.24
371.441	0.26
371.648	0.24
371.856	0.24
372.063	0.29
372.271	0.17
372.478	0.17
372.685	0.2
372.893	0.36
373.1	0.24
373.308	0.23
373.515	0.33
373.722	0.34
373.93	0.21
374.137	0.26
374.344	0.36
374.552	0.31
374.759	0.29
374.966	0.25
375.173	0.23
375.381	0.35
375.588	0.29
375.795	0.23
376.002	0.26
376.209	0.21
376.417	0.28
376.624	0.32
376.831	0.31
377.038	0.23
377.245	0.21
377.452	0.22
377.659	0.26
377.866	0.23
378.073	0.24
378.28	0.26
378.487	0.32
378.694	0.3
378.901	0.27
379.108	0.23
379.315	0.31
379.522	0.34
379.729	0.26
379.936	0.24
380.143	0.26
380.35	0.27
380.557	0.2
380.763	0.24
380.97	0.29
381.177	0.31
381.384	0.26
381.591	0.18
381.797	0.29
382.004	0.32
382.211	0.28
382.418	0.2
382.624	0.32
382.831	0.36
383.038	0.2
383.244	0.26
383.451	0.27
383.658	0.27
383.864	0.23
384.071	0.23
384.277	0.36
384.484	0.25
384.69	0.34
384.897	0.26
385.103	0.25
385.31	0.23
385.516	0.23
385.723	0.24
385.929	0.28
386.136	0.26
386.342	0.28
386.549	0.21
386.755	0.34
386.961	0.28
387.168	0.24
387.374	0.27
387.58	0.31
387.787	0.27
387.993	0.33
388.199	0.26
388.406	0.27
388.612	0.29
388.818	0.22
389.024	0.21
389.231	0.27
389.437	0.41
389.643	0.32
389.849	0.28
390.055	0.29
390.261	0.28
390.467	0.31
390.674	0.23
390.88	0.26
391.086	0.38
391.292	0.24
391.498	0.3
391.704	0.34
391.91	0.28
392.116	0.23
392.322	0.22
392.528	0.31
392.734	0.32
392.94	0.29
393.146	0.26
393.352	0.3
393.557	0.31
393.763	0.31
393.969	0.34
394.175	0.3
394.381	0.3
394.587	0.28
394.792	0.27
394.998	0.42
395.204	0.33
395.41	0.28
395.615	0.27
395.821	0.34
396.027	0.34
396.233	0.26
396.438	0.32
396.644	0.34
396.85	0.34
397.055	0.28
397.261	0.33
397.466	0.34
397.672	0.36
397.878	0.38
398.083	0.35
398.289	0.29
398.494	0.38
398.7	0.33
398.905	0.22
399.111	0.46
399.316	0.25
399.522	0.34
399.727	0.32
399.932	0.34
400.138	0.32
400.343	0.37
400.549	0.36
400.754	0.41
400.959	0.4
401.165	0.3
401.37	0.34
401.575	0.49
401.78	0.37
401.986	0.39
402.191	0.35
402.396	0.4
402.601	0.42
402.807	0.38
403.012	0.38
403.217	0.43
403.422	0.41
403.627	0.37
403.832	0.34
404.037	0.46
404.243	0.39
404.448	0.37
404.653	0.39
404.858	0.48
405.063	0.46
405.268	0.41
405.473	0.38
405.678	0.36
405.883	0.62
406.088	0.49
406.293	0.41
406.498	0.44
406.703	0.54
406.907	0.45
407.112	0.38
407.317	0.51
407.522	0.59
407.727	0.44
407.932	0.49
408.136	0.66
408.341	0.5
408.546	0.59
408.751	0.54
408.956	0.54
409.16	0.67
409.365	0.63
409.57	0.62
409.774	0.62
409.979	0.7
410.184	0.7
410.388	0.61
410.593	0.71
410.798	0.73
411.002	0.73
411.207	0.8
411.411	0.8
411.616	0.69
411.82	0.74
412.025	0.78
412.229	0.85
412.434	1
412.638	0.84
412.843	0.89
413.047	0.94
413.252	0.9
413.456	1.02
413.66	1.03
413.865	1.02
414.069	1.15
414.273	1.09
414.478	1.12
414.682	1.19
414.886	1.16
415.091	1.15
415.295	1.18
415.499	1.33
415.703	1.31
415.908	1.47
416.112	1.31
416.316	1.58
416.52	1.51
416.724	1.56
416.929	1.56
417.133	1.81
417.337	1.65
417.541	1.78
417.745	1.78
417.949	1.89
418.153	1.95
418.357	2
418.561	2.28
418.765	2.15
418.969	2.26
419.173	2.38
419.377	2.36
419.581	2.64
419.785	2.57
419.989	2.57
420.193	2.79
420.397	2.91
420.601	2.92
420.804	3.02
421.008	2.99
421.212	3.14
421.416	3.21
421.62	3.21
421.823	3.27
422.027	3.5
422.231	3.41
422.435	3.44
422.638	3.58
422.842	3.54
423.046	3.6
423.249	3.91
423.453	3.86
423.657	4.05
423.86	4.16
424.064	4.24
424.268	4.45
424.471	4.42
424.675	4.63
424.878	4.66
425.082	4.73
425.285	5.08
425.489	5.01
425.692	5.21
425.896	5.12
426.099	5.35
426.303	5.53
426.506	5.57
426.71	5.91
426.913	6.01
427.116	6.34
427.32	6.21
427.523	6.35
427.726	6.58
427.93	6.69
428.133	7
428.336	7.2
428.54	7.23
428.743	7.49
428.946	7.8
429.149	7.8
429.353	7.83
429.556	7.98
429.759	7.97
429.962	8.04
430.165	8.27
430.368	7.81
430.571	7.95
430.775	7.96
430.978	7.92
431.181	8.01
431.384	8.08
431.587	8.28
431.79	8.59
431.993	8.52
432.196	8.74
432.399	9.16
432.602	9.42
432.805	9.39
433.008	10
433.211	9.79
433.414	10.16
433.616	10.2
433.819	10.12
434.022	10.4
434.225	10.49
434.428	10.51
434.631	10.95
434.833	10.72
435.036	11.02
435.239	11.22
435.442	11.22
435.645	11.38
435.847	11.54
436.05	11.84
436.253	11.99
436.455	12
436.658	11.88
436.861	12.13
437.063	12.36
437.266	12.34
437.468	12.73
437.671	12.97
437.874	12.95
438.076	12.78
438.279	13.31
438.481	13.41
438.684	14.08
438.886	13.83
439.089	14.04
439.291	14.13
439.494	14.41
439.696	14.54
439.899	15.16
440.101	15.61
440.303	15.6
440.506	16.36
440.708	16.2
440.91	16.28
441.113	16.6
441.315	16.73
441.517	16.62
441.72	17.19
441.922	16.69
442.124	16.77
442.326	17.05
442.529	17.33
442.731	17.29
442.933	17.56
443.135	17.36
443.337	17.29
443.539	17.82
443.742	17.48
443.944	18.19
444.146	17.89
444.348	17.98
444.55	17.78
444.752	18.08
444.954	18.13
445.156	17.83
445.358	18.21
445.56	18.53
445.762	18.4
445.964	18.69
446.166	18.39
446.368	18.54
446.57	18.49
446.772	17.99
446.974	17.85
447.175	18.19
447.377	17.87
447.579	18.22
447.781	17.97
447.983	17.87
448.184	17.4
448.386	17.76
448.588	17.23
448.79	17.2
448.991	17.46
449.193	17.37
449.395	16.79
449.597	16.44
449.798	16.37
450	16.03
450.202	15.85
450.403	15.87
450.605	15.79
450.806	15.31
451.008	15.21
451.21	14.96
451.411	14.63
451.613	13.89
451.814	14.07
452.016	14.2
452.217	13.21
452.419	13.3
452.62	13.09
452.821	12.79
453.023	12.66
453.224	12.28
453.426	11.93
453.627	11.14
453.828	11.3
454.03	11.39
454.231	11.37
454.432	11.13
454.634	10.93
454.835	10.65
455.036	10.49
455.238	10.11
455.439	9.76
455.64	9.62
455.841	9.51
456.042	9.67
456.244	9.22
456.445	8.97
456.646	8.66
456.847	8.63
457.048	8.52
457.249	8.56
457.45	8.32
457.651	7.81
457.852	7.71
458.054	7.29
458.255	7.22
458.456	7.42
458.657	7.32
458.858	6.79
459.058	6.7
459.259	6.76
459.46	6.41
459.661	6.47
459.862	6.5
460.063	6.34
460.264	6.29
460.465	6.12
460.666	6.1
460.866	5.76
461.067	5.58
461.268	5.63
461.469	5.61
461.67	5.42
461.87	5.26
462.071	5.28
462.272	5.23
462.473	5.09
462.673	5.36
462.874	5.15
463.075	5.19
463.275	5.11
463.476	5.2
463.676	5.1
463.877	4.87
464.078	4.92
464.278	5.16
464.479	4.92
464.679	4.83
464.88	4.73
465.08	4.78
465.281	4.57
465.481	4.33
465.682	4.2
465.882	4.27
466.083	4.13
466.283	4.1
466.483	3.95
466.684	3.75
466.884	3.6
467.085	3.76
467.285	3.78
467.485	3.57
467.686	3.55
467.886	3.42
468.086	3.45
468.286	3.38
468.487	3.41
468.687	3.29
468.887	3.26
469.087	3.41
469.287	3.3
469.488	3.08
469.688	3.19
469.888	3.27
470.088	3.2
470.288	3.07
470.488	3.09
470.688	2.9
470.888	2.9
471.088	2.75
471.288	2.87
471.488	2.84
471.688	2.79
471.888	2.71
472.088	2.88
472.288	2.71
472.488	2.61
472.688	2.55
472.888	2.64
473.088	2.62
473.288	2.46
473.488	2.51
473.688	2.69
473.887	2.5
474.087	2.43
474.287	2.4
474.487	2.4
474.687	2.46
474.886	2.41
475.086	2.31
475.286	2.37
475.486	2.34
475.685	2.26
475.885	2.26
476.085	2.35
476.284	2.3
476.484	2.27
476.684	2.24
476.883	2.32
477.083	2.22
477.282	2.16
477.482	2.22
477.681	2.18
477.881	2.08
478.08	2.07
478.28	2.02
478.479	2.13
478.679	2.14
478.878	2.05
479.078	2
479.277	2.08
479.477	2.06
479.676	2.04
479.875	2.07
480.075	1.98
480.274	2.07
480.473	2.08
480.673	2.01
480.872	2.09
481.071	2.1
481.271	2.07
481.47	2.02
481.669	1.99
481.868	1.99
482.067	2.01
482.267	1.93
482.466	1.92
482.665	1.95
482.864	1.95
483.063	1.96
483.262	2.04
483.461	2.07
483.661	2.12
483.86	2.05
484.059	2.08
484.258	2.06
484.457	2.02
484.656	2.06
484.855	2.11
485.054	1.94
485.253	1.99
485.452	1.95
485.651	2.05
485.849	2.08
486.048	2.02
486.247	2.02
486.446	2.06
486.645	2.04
486.844	2.11
487.043	2.03
487.241	2.14
487.44	2.09
487.639	2.16
487.838	2.17
488.037	2.11
488.235	2.21
488.434	2.17
488.633	2.09
488.831	2.25
489.03	2.24
489.229	2.22
489.427	2.21
489.626	2.3
489.825	2.28
490.023	2.32
490.222	2.28
490.42	2.34
490.619	2.39
490.817	2.38
491.016	2.37
491.214	2.41
491.413	2.41
491.611	2.37
491.81	2.37
492.008	2.48
492.207	2.57
492.405	2.56
492.604	2.42
492.802	2.53
493	2.62
493.199	2.6
493.397	2.63
493.595	2.7
493.794	2.64
493.992	2.77
494.19	2.72
494.388	2.84
494.587	2.75
494.785	2.77
494.983	2.7
495.181	2.85
495.379	2.95
495.578	2.94
495.776	2.92
495.974	2.92
496.172	2.98
496.37	3.12
496.568	3.08
496.766	3.11
496.964	3.18
497.162	3.21
497.36	3.22
497.558	3.22
497.756	3.34
497.954	3.24
498.152	3.35
498.35	3.42
498.548	3.39
498.746	3.39
498.944	3.42
499.142	3.44
499.34	3.53
499.538	3.66
499.736	3.53
499.933	3.64
500.131	3.67
500.329	3.79
500.527	3.73
500.725	3.83
500.922	3.89
501.12	3.84
501.318	3.9
501.516	3.93
501.713	4.03
501.911	4.04
502.109	3.93
502.306	4.09
502.504	4
502.701	4.08
502.899	4.18
503.097	4.38
503.294	4.24
503.492	4.34
503.689	4.37
503.887	4.33
504.084	4.47
504.282	4.41
504.479	4.39
504.677	4.6
504.874	4.52
505.072	4.46
505.269	4.71
505.466	4.7
505.664	4.77
505.861	4.67
506.059	4.77
506.256	4.78
506.453	4.83
506.651	4.95
506.848	4.98
507.045	4.96
507.242	4.97
507.44	4.97
507.637	5.08
507.834	5
508.031	5.19
508.229	5.1
508.426	5.07
508.623	5.26
508.82	5.28
509.017	5.24
509.214	5.27
509.411	5.41
509.608	5.29
509.805	5.46
510.003	5.45
510.2	5.49
510.397	5.67
510.594	5.53
510.791	5.65
510.988	5.63
511.184	5.65
511.381	5.51
511.578	5.71
511.775	5.79
511.972	5.76
512.169	5.76
512.366	5.8
512.563	5.94
512.76	5.96
512.956	5.99
513.153	5.96
513.35	5.92
513.547	5.85
513.744	6
513.94	6.01
514.137	6.14
514.334	6.08
514.53	6.14
514.727	6.35
514.924	6.24
515.12	6.22
515.317	6.25
515.514	6.2
515.71	6.17
515.907	6.44
516.103	6.44
516.3	6.3
516.497	6.53
516.693	6.5
516.89	6.46
517.086	6.53
517.283	6.57
517.479	6.45
517.676	6.63
517.872	6.67
518.068	6.64
518.265	6.59
518.461	6.54
518.658	6.67
518.854	6.69
519.05	6.77
519.247	6.8
519.443	6.77
519.639	6.9
519.836	6.79
520.032	6.71
520.228	6.93
520.424	6.86
520.621	6.89
520.817	6.99
521.013	6.89
521.209	7.09
521.405	7.1
521.601	7.04
521.798	6.96
521.994	7.09
522.19	6.94
522.386	7.04
522.582	7.05
522.778	7.24
522.974	7.09
523.17	7.13
523.366	7.09
523.562	7.18
523.758	7.16
523.954	7.04
524.15	7.21
524.346	7.31
524.542	7.26
524.738	7.19
524.934	7.34
525.129	7.34
525.325	7.23
525.521	7.21
525.717	7.46
525.913	7.32
526.109	7.36
526.304	7.45
526.5	7.44
526.696	7.45
526.892	7.34
527.087	7.59
527.283	7.44
527.479	7.52
527.674	7.35
527.87	7.49
528.066	7.45
528.261	7.52
528.457	7.41
528.653	7.6
528.848	7.57
529.044	7.62
529.239	7.52
529.435	7.54
529.63	7.48
529.826	7.54
530.021	7.56
530.217	7.6
530.412	7.6
530.608	7.61
530.803	7.62
530.999	7.54
531.194	7.59
531.389	7.74
531.585	7.67
531.78	7.78
531.975	7.68
532.171	7.72
532.366	7.71
532.561	7.7
532.757	7.69
532.952	7.89
533.147	7.56
533.342	7.77
533.538	7.67
533.733	7.92
533.928	7.6
534.123	7.81
534.318	7.79
534.513	7.71
534.709	7.89
534.904	7.8
535.099	7.87
535.294	7.87
535.489	7.9
535.684	7.8
535.879	7.82
536.074	7.91
536.269	7.91
536.464	7.97
536.659	7.85
536.854	7.82
537.049	7.96
537.244	7.88
537.439	7.94
537.634	7.88
537.828	8.03
538.023	7.9
538.218	7.88
538.413	7.81
538.608	7.94
538.803	7.9
538.997	7.87
539.192	8
539.387	7.92
539.582	7.92
539.776	7.88
539.971	7.98
540.166	8.02
540.36	7.9
540.555	8.09
540.75	7.97
540.944	8.03
541.139	7.99
541.334	7.96
541.528	8.03
541.723	8.08
541.917	8.04
542.112	7.97
542.306	7.82
542.501	7.89
542.695	7.93
542.89	7.89
543.084	8.01
543.279	8.04
543.473	8.03
543.668	8.07
543.862	7.89
544.056	7.93
544.251	8.06
544.445	8.15
544.64	8.15
544.834	7.79
545.028	7.64
545.222	8.03
545.417	8.19
545.611	8.11
545.805	8.05
546	7.88
546.194	8.07
546.388	8.1
546.582	8
546.776	8.02
546.97	8.1
547.165	8.06
547.359	8.03
547.553	8.02
547.747	8.01
547.941	8.23
548.135	8
548.329	8.13
548.523	8.1
548.717	7.98
548.911	7.98
549.105	7.99
549.299	8.15
549.493	8.08
549.687	7.99
549.881	8.1
550.075	8.11
550.269	7.96
550.463	8.12
550.657	8.11
550.85	8.06
551.044	8.02
551.238	8.17
551.432	8.01
551.626	8.11
551.82	8.06
552.013	8.04
552.207	8.19
552.401	8.24
552.594	8.15
552.788	7.97
552.982	8.07
553.176	8.05
553.369	8.22
553.563	8.12
553.756	8.06
553.95	8.12
554.144	8.19
554.337	8.13
554.531	7.94
554.724	8.17
554.918	8.18
555.111	8.06
555.305	8.15
555.498	8.1
555.692	8.17
555.885	8.14
556.079	8.05
556.272	8.06
556.466	8.1
556.659	8.1
556.852	8.19
557.046	7.99
557.239	7.95
557.432	8.03
557.626	8.17
557.819	8.14
558.012	8.14
558.206	8.16
558.399	8.15
558.592	8.12
558.785	8.05
558.979	8.14
559.172	8.12
559.365	8.12
559.558	8.01
559.751	8.01
559.944	8.16
560.138	8.03
560.331	8.11
560.524	8.14
560.717	8.07
560.91	8.08
561.103	8.12
561.296	7.95
561.489	8.08
561.682	8.11
561.875	8.09
562.068	8.23
562.261	8.01
562.454	8.26
562.647	8.09
562.84	8.16
563.032	8.17
563.225	8.01
563.418	8.08
563.611	8.12
563.804	8.2
563.997	7.96
564.19	7.94
564.382	8.21
564.575	8.08
564.768	8.15
564.961	8.13
565.153	8
565.346	8.02
565.539	8.16
565.731	8.07
565.924	8.13
566.117	8.27
566.309	8.14
566.502	8.05
566.695	7.96
566.887	8.14
567.08	8.12
567.272	8.09
567.465	8
567.657	8.15
567.85	7.93
568.042	8.1
568.235	8.11
568.427	7.94
568.62	8.03
568.812	8.02
569.005	8.14
569.197	7.91
569.389	8.04
569.582	8.05
569.774	8.05
569.966	7.94
570.159	7.96
570.351	7.95
570.543	7.98
570.736	8.05
570.928	7.87
571.12	8.01
571.312	7.94
571.505	7.74
571.697	7.99
571.889	7.99
572.081	8
572.273	7.97
572.465	7.94
572.658	8
572.85	8
573.042	7.98
573.234	7.89
573.426	7.95
573.618	7.93
573.81	7.99
574.002	7.97
574.194	8.02
574.386	7.88
574.578	7.8
574.77	7.91
574.962	7.94
575.154	7.79
575.346	7.87
575.538	7.83
575.729	7.76
575.921	7.96
576.113	7.94
576.305	7.92
576.497	7.97
576.689	7.76
576.88	7.79
577.072	7.92
577.264	7.92
577.456	7.87
577.647	7.83
577.839	7.95
578.031	7.88
578.223	7.78
578.414	7.71
578.606	7.85
578.798	7.92
578.989	7.79
579.181	7.86
579.372	7.81
579.564	7.86
579.755	7.77
579.947	7.72
580.139	7.83
580.33	7.62
580.522	7.77
580.713	7.68
580.905	7.77
581.096	7.83
581.287	7.67
581.479	7.7
581.67	7.82
581.862	7.7
582.053	7.69
582.244	7.54
582.436	7.76
582.627	7.55
582.818	7.58
583.01	7.59
583.201	7.63
583.392	7.63
583.583	7.64
583.775	7.46
583.966	7.6
584.157	7.64
584.348	7.68
584.54	7.51
584.731	7.62
584.922	7.52
585.113	7.39
585.304	7.55
585.495	7.48
585.686	7.61
585.877	7.6
586.068	7.65
586.259	7.58
586.45	7.52
586.641	7.48
586.832	7.61
587.023	7.42
587.214	7.44
587.405	7.55
587.596	7.37
587.787	7.43
587.978	7.44
588.169	7.34
588.36	7.29
588.551	7.4
588.742	7.45
588.932	7.45
589.123	7.22
589.314	7.49
589.505	7.36
589.696	7.27
589.886	7.36
590.077	7.4
590.268	7.29
590.458	7.25
590.649	7.15
590.84	7.3
591.03	7.3
591.221	7.21
591.412	7.16
591.602	7.27
591.793	7.29
591.984	7.29
592.174	7.18
592.365	7.36
592.555	7.1
592.746	7.18
592.936	7.17
593.127	7.17
593.317	7.21
593.508	7.14
593.698	7.1
593.889	7.08
594.079	7.09
594.269	7.02
594.46	7.05
594.65	7.07
594.84	7.05
595.031	6.91
595.221	6.97
595.411	6.98
595.602	7.02
595.792	6.94
595.982	6.85
596.172	7.05
596.363	6.9
596.553	6.91
596.743	6.9
596.933	6.95
597.123	6.95
597.314	6.75
597.504	6.71
597.694	6.86
597.884	6.84
598.074	6.79
598.264	6.82
598.454	6.79
598.644	6.74
598.834	6.74
599.024	6.63
599.214	6.69
599.404	6.76
599.594	6.7
599.784	6.68
599.974	6.8
600.164	6.68
600.354	6.56
600.544	6.56
600.734	6.67
600.924	6.61
601.114	6.5
601.303	6.54
601.493	6.58
601.683	6.56
601.873	6.51
602.063	6.38
602.252	6.54
602.442	6.47
602.632	6.41
602.821	6.36
603.011	6.43
603.201	6.42
603.39	6.36
603.58	6.22
603.77	6.38
603.959	6.5
604.149	6.36
604.339	6.31
604.528	6.4
604.718	6.37
604.907	6.3
605.097	6.29
605.286	6.2
605.476	6.26
605.665	6.26
605.855	6.18
606.044	6.2
606.234	6.2
606.423	6.17
606.612	6.1
606.802	6.07
606.991	6.19
607.181	6.26
607.37	6.14
607.559	5.91
607.749	6.09
607.938	5.98
608.127	5.97
608.316	6.05
608.506	6.02
608.695	6.03
608.884	5.97
609.073	6.01
609.263	6.02
609.452	5.99
609.641	5.86
609.83	5.84
610.019	5.93
610.208	5.86
610.397	5.83
610.586	5.91
610.775	5.83
610.965	5.79
611.154	5.69
611.343	5.8
611.532	5.75
611.721	5.78
611.91	5.72
612.099	5.65
612.287	5.62
612.476	5.54
612.665	5.72
612.854	5.58
613.043	5.6
613.232	5.56
613.421	5.53
613.61	5.54
613.798	5.54
613.987	5.54
614.176	5.57
614.365	5.57
614.554	5.49
614.742	5.49
614.931	5.32
615.12	5.52
615.309	5.43
615.497	5.29
615.686	5.27
615.875	5.35
616.063	5.31
616.252	5.28
616.44	5.38
616.629	5.3
616.818	5.37
617.006	5.26
617.195	5.19
617.383	5.27
617.572	5.19
617.76	5.18
617.949	5.21
618.137	5.29
618.326	5.23
618.514	4.93
618.703	4.94
618.891	5.16
619.079	5.06
619.268	5.11
619.456	5.02
619.644	5.14
619.833	5.02
620.021	5.02
620.209	4.91
620.398	5.05
620.586	4.87
620.774	5.03
620.962	4.97
621.151	4.96
621.339	4.9
621.527	4.83
621.715	4.81
621.903	4.85
622.092	4.8
622.28	4.92
622.468	4.7
622.656	4.78
622.844	4.78
623.032	4.74
623.22	4.68
623.408	4.82
623.596	4.68
623.784	4.75
623.972	4.55
624.16	4.62
624.348	4.73
624.536	4.73
624.724	4.57
624.912	4.61
625.1	4.58
625.288	4.62
625.476	4.47
625.664	4.58
625.851	4.46
626.039	4.56
626.227	4.5
626.415	4.47
626.603	4.39
626.79	4.52
626.978	4.41
627.166	4.48
627.354	4.42
627.541	4.38
627.729	4.25
627.917	4.51
628.104	4.42
628.292	4.26
628.48	4.31
628.667	4.28
628.855	4.31
629.042	4.34
629.23	4.2
629.418	4.2
629.605	4.26
629.793	4.19
629.98	4.13
630.168	4.12
630.355	4.24
630.543	4.13
630.73	4.08
630.917	4.08
631.105	4.25
631.292	4.11
631.48	4.11
631.667	4.17
631.854	4.01
632.042	4.05
632.229	3.96
632.416	4.02
632.604	3.97
632.791	3.88
632.978	3.99
633.165	3.93
633.353	4.02
633.54	3.94
633.727	3.81
633.914	3.81
634.101	3.73
634.289	3.88
634.476	3.75
634.663	3.79
634.85	3.79
635.037	3.72
635.224	3.66
635.411	3.8
635.598	3.73
635.785	3.66
635.972	3.69
636.159	3.71
636.346	3.69
636.533	3.66
636.72	3.62
636.907	3.64
637.094	3.61
637.281	3.44
637.468	3.57
637.655	3.54
637.842	3.54
638.029	3.55
638.215	3.47
638.402	3.51
638.589	3.43
638.776	3.43
638.963	3.41
639.149	3.6
639.336	3.58
639.523	3.43
639.709	3.41
639.896	3.39
640.083	3.38
640.27	3.38
640.456	3.33
640.643	3.35
640.829	3.23
641.016	3.31
641.203	3.21
641.389	3.34
641.576	3.27
641.762	3.21
641.949	3.23
642.135	3.23
642.322	3.19
642.508	3.07
642.695	3.15
642.881	3.14
643.068	3.09
643.254	3.14
643.441	3.16
643.627	3.18
643.813	3.06
644	3.12
644.186	3
644.372	3.15
644.559	3.09
644.745	3.06
644.931	2.93
645.118	3.02
645.304	3.01
645.49	2.98
645.676	2.94
645.862	2.95
646.049	3.04
646.235	2.97
646.421	3.07
646.607	3.1
646.793	2.9
646.979	2.84
647.165	2.86
647.352	2.87
647.538	2.82
647.724	2.8
647.91	2.8
648.096	2.86
648.282	2.85
648.468	2.8
648.654	2.73
648.84	2.83
649.026	2.77
649.212	2.72
649.397	2.65
649.583	2.74
649.769	2.77
649.955	2.7
650.141	2.73
650.327	2.72
650.513	2.65
650.698	2.67
650.884	2.55
651.07	2.69
651.256	2.68
651.442	2.65
651.627	2.58
651.813	2.65
651.999	2.52
652.184	2.59
652.37	2.51
652.556	2.54
652.741	2.57
652.927	2.42
653.113	2.45
653.298	2.52
653.484	2.46
653.669	2.38
653.855	2.43
654.04	2.51
654.226	2.48
654.412	2.42
654.597	2.33
654.782	2.42
654.968	2.4
655.153	2.42
655.339	2.38
655.524	2.34
655.71	2.44
655.895	2.33
656.08	2.36
656.266	2.46
656.451	2.31
656.636	2.26
656.822	2.29
657.007	2.27
657.192	2.28
657.378	2.25
657.563	2.23
657.748	2.24
657.933	2.27
658.118	2.17
658.304	2.14
658.489	2.27
658.674	2.19
658.859	2.11
659.044	2.18
659.229	2.17
659.414	2.08
659.599	2.15
659.785	2.08
659.97	2.11
660.155	2.15
660.34	2.09
660.525	2.04
660.71	2.01
660.895	2.11
661.08	2.07
661.264	2.02
661.449	2.16
661.634	2.11
661.819	2.07
662.004	2
662.189	1.94
662.374	2
662.559	1.93
662.743	1.92
662.928	1.92
663.113	1.99
663.298	1.92
663.483	1.91
663.667	1.92
663.852	1.88
664.037	1.92
664.221	1.9
664.406	2
664.591	1.96
664.775	1.91
664.96	1.88
665.145	1.87
665.329	1.97
665.514	1.82
665.698	1.76
665.883	1.79
666.068	1.93
666.252	1.82
666.437	1.79
666.621	1.8
666.806	1.81
666.99	1.8
667.174	1.73
667.359	1.82
667.543	1.71
667.728	1.75
667.912	1.67
668.096	1.77
668.281	1.72
668.465	1.76
668.649	1.67
668.834	1.7
669.018	1.72
669.202	1.69
669.387	1.68
669.571	1.74
669.755	1.64
669.939	1.67
670.124	1.62
670.308	1.65
670.492	1.71
670.676	1.64
670.86	1.63
671.044	1.59
671.228	1.67
671.413	1.57
671.597	1.51
671.781	1.59
671.965	1.65
672.149	1.56
672.333	1.56
672.517	1.57
672.701	1.63
672.885	1.54
673.069	1.44
673.253	1.61
673.437	1.56
673.621	1.53
673.804	1.5
673.988	1.54
674.172	1.47
674.356	1.43
674.54	1.52
674.724	1.58
674.908	1.46
675.091	1.57
675.275	1.46
675.459	1.56
675.643	1.41
675.826	1.46
676.01	1.43
676.194	1.46
676.377	1.46
676.561	1.44
676.745	1.42
676.928	1.45
677.112	1.49
677.296	1.38
677.479	1.32
677.663	1.37
677.846	1.37
678.03	1.39
678.213	1.29
678.397	1.39
678.58	1.36
678.764	1.37
678.947	1.3
679.131	1.3
679.314	1.38
679.498	1.34
679.681	1.37
679.865	1.45
680.048	1.27
680.231	1.3
680.415	1.27
680.598	1.26
680.781	1.28
680.965	1.28
681.148	1.29
681.331	1.29
681.514	1.32
681.698	1.24
681.881	1.29
682.064	1.26
682.247	1.25
682.43	1.13
682.614	1.27
682.797	1.28
682.98	1.24
683.163	1.16
683.346	1.15
683.529	1.18
683.712	1.11
683.895	1.22
684.078	1.06
684.261	1.17
684.444	1.22
684.627	1.24
684.81	1.11
684.993	1.19
685.176	1.21
685.359	1.12
685.542	1.11
685.725	1.21
685.908	1.11
686.091	1.15
686.274	1.15
686.457	1.17
686.639	1.15
686.822	1.11
687.005	1.12
687.188	1.17
687.371	1.2
687.553	1.13
687.736	1.12
687.919	1.23
688.102	1.21
688.284	1.07
688.467	1.05
688.65	1.12
688.832	1.05
689.015	1.09
689.197	0.96
689.38	1.16
689.563	1.09
689.745	0.96
689.928	1.01
690.11	1.01
690.293	1.05
690.475	0.97
690.658	1.01
690.84	1.05
691.023	1.01
691.205	0.97
691.388	1
691.57	1.03
691.752	1.08
691.935	0.86
692.117	0.93
692.3	1
692.482	0.96
692.664	0.94
692.847	0.92
693.029	1.11
693.211	1.04
693.393	0.91
693.576	0.94
693.758	0.99
693.94	0.94
694.122	0.94
694.304	0.89
694.487	0.87
694.669	1
694.851	0.88
695.033	0.9
695.215	0.91
695.397	0.85
695.579	0.89
695.761	0.85
695.943	0.79
696.125	1.01
696.308	0.9
696.49	0.75
696.671	1.05
696.853	0.85
697.035	1.08
697.217	0.83
697.399	0.94
697.581	0.84
697.763	0.89
697.945	0.79
698.127	0.93
698.309	0.96
698.491	0.91
698.672	0.87
698.854	0.94
699.036	0.89
699.218	0.84
699.399	0.9
699.581	0.92
699.763	0.78
699.945	0.77
700.126	0.78
700.308	0.85
700.49	0.81
700.671	0.69
700.853	0.8
701.035	0.81
701.216	0.8
701.398	0.75
701.579	0.78
701.761	0.89
701.943	0.73
702.124	0.68
702.306	0.76
702.487	0.97
702.669	0.76
702.85	0.75
703.031	0.65
703.213	0.9
703.394	0.83
703.576	0.74
703.757	0.87
703.938	0.84
704.12	0.96
704.301	0.78
704.483	0.74
704.664	0.77
704.845	0.92
705.026	0.81
705.208	0.7
705.389	0.76
705.57	0.8
705.751	0.66
705.933	0.73
706.114	0.81
706.295	0.73
706.476	0.67
706.657	0.83
706.838	0.76
707.02	0.84
707.201	0.69
707.382	0.69
707.563	0.77
707.744	0.69
707.925	0.62
708.106	0.65
708.287	0.74
708.468	0.86
708.649	0.68
708.83	0.74
709.011	0.62
709.192	0.7
709.373	0.6
709.554	0.7
709.734	0.79
709.915	0.73
710.096	0.69
710.277	0.5
710.458	0.64
710.639	0.72
710.819	0.51
711	0.66
711.181	0.71
711.362	0.8
711.542	0.61
711.723	0.62
711.904	0.77
712.085	0.71
712.265	0.65
712.446	0.56
712.627	0.68
712.807	0.6
712.988	0.62
713.168	0.44
713.349	0.66
713.53	0.49
713.71	0.56
713.891	0.53
714.071	0.59
714.252	0.57
714.432	0.58
714.613	0.47
714.793	0.62
714.974	0.82
715.154	0.68
715.334	0.72
715.515	0.74
715.695	0.52
715.876	0.53
716.056	0.54
716.236	0.49
716.417	0.55
716.597	0.47
716.777	0.86
716.957	0.53
717.138	0.57
717.318	0.64
717.498	0.47
717.678	0.61
717.859	0.66
718.039	0.53
718.219	0.62
718.399	0.55
718.579	0.51
718.759	0.39
718.939	0.6
719.12	0.59
719.3	0.55
719.48	0.38
719.66	0.38
719.84	0.61
720.02	0.56
720.2	0.51
720.38	0.5
720.56	0.64
720.74	0.44
720.92	0.55
721.1	0.65
721.279	0.62
721.459	0.56
721.639	0.41
721.819	0.58
721.999	0.43
722.179	0.56
722.359	0.44
722.538	0.59
722.718	0.55
722.898	0.51
723.078	0.51
723.257	0.49
723.437	0.57
723.617	0.6
723.797	0.56
723.976	0.6
724.156	0.6
724.336	0.61
724.515	0.69
724.695	0.37
724.874	0.5
725.054	0.65
725.234	0.4
725.413	0.5
725.593	0.54
725.772	0.49
725.952	0.47
726.131	0.46
726.311	0.52
726.49	0.46
726.67	0.45
726.849	0.48
727.028	0.48
727.208	0.51
727.387	0.49
727.567	0.35
727.746	0.5
727.925	0.52
728.105	0.31
728.284	0.46
728.463	0.38
728.643	0.56
728.822	0.37
729.001	0.45
729.18	0.49
729.359	0.66
729.539	0.47
729.718	0.45
729.897	0.58
730.076	0.41
730.255	0.34
730.434	0.45
730.614	0.51
730.793	0.51
730.972	0.41
731.151	0.52
731.33	0.59
731.509	0.52
731.688	0.5
731.867	0.41
732.046	0.2
732.225	0.76
732.404	0.41
732.583	0.36
732.762	0.41
732.941	0.47
733.12	0.52
733.298	0.4
733.477	0.61
733.656	0.45
733.835	0.4
734.014	0.51
734.193	0.44
734.371	0.5
734.55	0.57
734.729	0.31
734.908	0.48
735.086	0.45
735.265	0.71
735.444	0.3
735.623	0.35
735.801	0.41
735.98	0.43
736.159	0.42
736.337	0.46
736.516	0.47
736.694	0.43
736.873	0.36
737.052	0.74
737.23	0.76
737.409	0.38
737.587	0.75
737.766	0.26
737.944	0.56
738.123	0.64
738.301	0.52
738.479	0.47
738.658	0.57
738.836	0.24
739.015	0.48
739.193	0.61
739.371	0.29
739.55	0.44
739.728	0.36
739.906	0.56
740.085	0.69
740.263	0.58
740.441	0.19
740.62	0.72
740.798	0.55
740.976	0.34
741.154	0.37
741.332	0.66
741.511	0.44
741.689	0.54
741.867	0.56
742.045	0.56
742.223	0.47
742.401	0.32
742.579	0.37
742.757	0.51
742.935	0.33
743.114	0.33
743.292	0.51
743.47	0.53
743.648	0.47
743.826	0.23
744.004	0.5
744.181	0.57
744.359	0.37
744.537	0.45
744.715	0.47
744.893	0.45
745.071	0.52
745.249	0.3
745.427	0.38
745.605	0.59
745.782	0.47
745.96	0.49
746.138	0.51
746.316	0.59
746.493	0.34
746.671	0.38
746.849	0.43
747.027	0.71
747.204	0.3
747.382	0.5
747.56	0.25
747.737	0.35
747.915	0.31
748.093	0.57
748.27	0.27
748.448	0.43
748.625	0.16
748.803	0.37
748.98	0.31
749.158	0.42
749.335	0.48
749.513	0.34
749.69	0.27
749.868	0.43
750.045	0.43
750.223	0.22
750.4	0.12
750.578	0.61
750.755	0.34
750.932	0.3
751.11	0.34
751.287	0.25
751.464	0.52
751.642	0.2
751.819	0.46
751.996	0.38
752.173	0.37
752.351	0.23
752.528	0.39
752.705	0.55
752.882	0.27
753.06	0.34
753.237	0.47
753.414	0.67
753.591	0.69
753.768	0.35
753.945	0.34
754.122	0.41
754.299	0.46
754.476	0.24
754.654	0.37
754.831	0.39
755.008	0.44
755.185	0.2
755.362	0.31
755.539	0.46
755.716	0.31
755.892	0.48
756.069	0.26
756.246	0.37
756.423	0.54
756.6	0.39
756.777	0.21
756.954	0.5
757.131	0.28
757.307	0.26
757.484	0.22
757.661	0.47
757.838	0.44
758.015	0.27
758.191	0.38
758.368	0.37
758.545	0.7
758.721	0.4
758.898	0.18
759.075	0.49
759.251	0.48
759.428	0.3
759.605	0.22
759.781	0.47
759.958	0.46
760.134	0.37
760.311	0.28
760.488	0.55
760.664	0.53
760.841	0.32
761.017	0.19
761.194	0.54
761.37	0.4
761.547	0.34
761.723	0.24
761.899	0.56
762.076	0.23
762.252	0.29
762.429	0.25
762.605	0.44
762.781	0.28
762.958	0.47
763.134	0.17
763.31	0.23
763.486	0.52
763.663	0.14
763.839	0.38
764.015	0.11
764.191	0.32
764.368	0.37
764.544	0.18
764.72	0.36
764.896	0.5
765.072	0.34
765.248	0.3
765.425	0.41
765.601	0.42
765.777	0.32
765.953	0.1
766.129	0.15
766.305	0.29
766.481	0.48
766.657	0.4
766.833	0.48
767.009	0.24
767.185	0.29
767.361	0.25
767.537	0.17
767.713	0.58
767.889	0.26
768.065	0.28
768.24	0.55
768.416	0.46
768.592	0.25
768.768	0.31
768.944	0.45
769.12	0.18
769.295	0.19
769.471	0.27
769.647	0.33
769.823	0.51
769.998	0.38
770.174	0.15
770.35	0.71
770.525	0.56
770.701	0.42
770.877	0.22
771.052	0.27
771.228	0.56
771.403	0.47
771.579	0.34
771.755	0.77
771.93	0.28
772.106	0.21
772.281	-0.02
772.457	0.39
772.632	0.46
772.808	0.16
772.983	0.18
773.159	0.13
773.334	0.56
773.509	0.45
773.685	0.2
773.86	0.75
774.036	0.56
774.211	0.37
774.386	0.31
774.562	0.33
774.737	0.49
774.912	0.13
775.087	0.42
775.263	0.31
775.438	0.29
775.613	0.15
775.788	0.25
775.964	0.65
776.139	0.88
776.314	0.09
776.489	0.43
776.664	0.42
776.839	0.26
777.014	0.43
777.19	0.5
777.365	0.76
777.54	0.46
777.715	0.28
777.89	0.3
778.065	0.16
778.24	0.46
778.415	0.37
778.59	0.21
778.765	0.31
778.94	0.38
779.115	0.24
779.289	0.28
779.464	0.44
779.639	0.16
779.814	0.21
779.989	0.1
780.164	0.53
780.339	0.52
780.513	0.18
780.688	0.1
780.863	0.31
781.038	0.62
781.212	0.14
781.387	0.18
781.562	0.57
781.737	0.17
781.911	0.59
782.086	0.2
782.261	0.23
782.435	0.93
782.61	0.24
782.784	0.37
782.959	0.75
783.134	0.34
783.308	0.08
783.483	0.35
783.657	0.85
783.832	0.62
784.006	-0.03
784.181	0.34
784.355	0.6
784.53	0.3
784.704	0.28
784.878	0.5
785.053	0.35
785.227	0.66
785.402	0.71
785.576	0.25
785.75	0.2
785.925	0.28
786.099	0.43
786.273	0.43
786.448	0.58
786.622	0.52
786.796	0.3
786.97	0.51
787.145	1.05
787.319	-0.14
787.493	0.15
787.667	-0.01
787.841	0.34
788.015	0.69
788.19	0.18
788.364	0.43
788.538	0.73
788.712	0.64
788.886	0.26
789.06	0.57
789.234	0.68
789.408	0.25
789.582	0.3
789.756	0.31
789.93	0.33
790.104	0.2
790.278	0.33
790.452	0.07
790.626	0.49
790.8	0.23
790.973	0.6
791.147	0.86
791.321	0.93
791.495	0.84
791.669	0.44
791.843	0.63
792.016	0.3
792.19	0.87
792.364	0.16
792.538	1.12
792.711	0.57
792.885	0.25
793.059	0.12
793.233	-0.21
793.406	0.88
793.58	0.47
793.754	0.51
793.927	0.38
794.101	0.84
794.274	0.34
794.448	0.55
794.622	-0.05
794.795	0.9
794.969	0.33
795.142	0.82
795.316	0.53
795.489	0.33
795.663	1.04
795.836	0.23
796.009	0.21
796.183	0.71
796.356	0.56
796.53	0.49
796.703	0.32
796.876	1.09
797.05	0.27
797.223	0.41
797.396	0.49
797.57	0.49
797.743	0.87
797.916	0.57
798.09	0.26
798.263	0.67
798.436	0.58
798.609	0.28
798.782	0.5
798.956	0.41
799.129	0.26
799.302	0.13
799.475	0.21
799.648	0.02
799.821	0.21
799.994	0.41
800.167	-0.29
800.34	0.59
800.514	0.34
800.687	0.29
800.86	0.12
801.033	0.62
801.206	0.8
801.379	0.01
801.551	0.87
801.724	0.7
801.897	1.26
802.07	0.24
802.243	-0.14
802.416	0.15
802.589	0.2
802.762	0.8
802.935	0.29
803.107	0.56
803.28	0.84
803.453	0.67
803.626	0.12
803.798	0.17
803.971	0.16
804.144	0.38
804.317	0.49
804.489	1.06
804.662	0.54
804.835	0.39
805.007	-0.16
805.18	1.17
805.353	0.56
805.525	0.15
805.698	0.31
805.87	1.08
806.043	1.03
806.215	-0.12
806.388	0.27
806.56	0.94
806.733	0.89
806.905	0.57
807.078	0.38
807.25	0.19
807.423	0.6
807.595	0.5
807.768	0.2
807.94	0.75
808.112	0.36
808.285	0.56
808.457	0.26
808.629	0.73
808.802	0.81
808.974	0.37
809.146	0.52
809.318	0.48
809.491	0.8
809.663	0.6
809.835	0.04
810.007	0.85
810.18	0.73
810.352	-0.23
810.524	0.26
810.696	0.32
810.868	1
811.04	0.24
811.212	0.47
811.384	0.71
811.556	1.05
811.728	0.54
811.901	1.56
812.073	0.68
812.245	1.2
812.417	0.58
812.589	-0.13
812.76	0.68
812.932	0.73
813.104	1.01
813.276	0.02
813.448	0.99
813.62	0.9
813.792	0.51
813.964	0.48
814.136	0.77
814.307	0.4
814.479	0.14
814.651	0.27
814.823	1.46
814.995	0.42
815.166	0.47
815.338	0.7
815.51	0.35
815.681	1.53
815.853	0.83
816.025	0.62
816.196	1.6
816.368	1.4
816.54	-0.03
816.711	0.14
816.883	1.27
817.054	1.8
817.226	-0.04
817.398	0.72
817.569	0.67
817.741	0.65
817.912	0.38
818.084	0.16
818.255	0.75
818.426	0.04
818.598	-0.03
818.769	0.27
818.941	1.05
819.112	1.27
819.283	0.91
819.455	0.42
819.626	0.47
819.798	1.32
819.969	0.85
820.14	0.35
820.311	0.53
820.483	1.1
820.654	0.72
820.825	0.78
820.996	0.4
821.168	0.2
821.339	0.46
821.51	-0.06
821.681	0.59
821.852	0.7
822.023	0.34
822.195	0.41
822.366	1.27
822.537	0.49
822.708	0.8
822.879	0.27
823.05	1.38
823.221	0.37
823.392	0.66
823.563	0.44
823.734	0.97
823.905	0.69
824.076	0.4
824.247	-0.1
824.418	0.32
824.589	1.24
824.759	0.38
824.93	0.69
825.101	-0.1
825.272	1.11
825.443	1.18
825.614	0.99
825.784	-0.32
825.955	2.17
826.126	1.66
826.297	0.4
826.467	2.41
826.638	2.05
826.809	0
826.98	0.7
827.15	1.88
827.321	0.69
827.492	1.44
827.662	0.08
827.833	2.13
828.003	1.05
828.174	0.68
828.345	0.02
828.515	1.72
828.686	0.43
828.856	0.4
829.027	0.66
829.197	0.5
829.368	1.36
829.538	0.06
829.709	0.26
829.879	0.14
830.049	0.86
830.22	0.32
830.39	0.86
830.56	1.26
830.731	0.71
830.901	0.19
831.072	0.51
831.242	0.71
831.412	0.97
831.582	0.47
831.753	0.06
831.923	1.68
832.093	1.14
832.263	0.62
832.434	-0.32
832.604	0.25
832.774	1.17
832.944	0.44
833.114	0.6
833.284	1.62
833.454	0.15
833.624	0.67
833.795	0.41
833.965	1.35
834.135	2.27
834.305	-0.78
834.475	-0.25
834.645	0.78
834.815	1
834.985	0
835.155	0.31
835.325	1.67
835.494	0.8
835.664	-0.34
835.834	-0.33
836.004	0.99
836.174	1.09
836.344	-0.14
836.514	0.08
836.684	0.44
836.853	0.6
837.023	1.07
837.193	0.01
837.363	1.33
837.532	1.38
837.702	0.92
837.872	-0.12
838.041	1.27
838.211	2.15
838.381	-0.26
838.55	0.65
838.72	3.4
838.89	3.12
839.059	0.23
839.229	-0.7
839.398	3.02
839.568	1.77
839.738	0.45
839.907	1.94
840.077	0.6
840.246	0.49
840.416	0.31
840.585	-0.49
840.755	2.9
840.924	2.58
841.093	-0.19
841.263	0.14
841.432	0.85
841.602	0.36
841.771	0.72
841.94	0.75
842.11	2.86
842.279	2.86
842.448	0.73
842.617	0.43
842.787	1.92
842.956	0.22
843.125	0.58
843.294	0.25
843.464	2.66
843.633	0.84
843.802	-0.39
843.971	0.54
844.14	1.93
844.309	1.4
844.479	-0.83
844.648	-1.06
844.817	0.81
844.986	1.56
845.155	0.9
845.324	0.07
845.493	0.92
845.662	0.14
845.831	1.41
846	1.98
846.169	0.35
846.338	2.88
846.507	1.31
846.676	1.46
846.844	0.47
847.013	2.59
847.182	0.93
847.351	0.25
847.52	0.87
847.689	1.08
847.858	0.89
848.026	0.14
848.195	1.28
848.364	0.48
848.533	0.02
848.701	0.19
848.87	1.47
849.039	1.87
849.207	1.79
849.376	1.81
849.545	2.67
849.713	0.9
849.882	0.18
850.051	0.59
850.219	1.51
850.388	1.13
850.556	0.31
850.725	-0.73
850.893	2.12
851.062	1.44
851.23	0.14
851.399	-0.81
851.567	1.12
851.736	0.99
851.904	-0.18
852.073	0.7
852.241	2.15
852.41	1.51
852.578	1.72
852.746	0.77
852.915	1.53
853.083	1.04
853.251	-0.18
853.42	-0.4
853.588	1.7
853.756	3.37
853.924	0.62
854.093	1.61
854.261	1.33
854.429	0.55
854.597	1.14
854.765	0.24
854.934	2.26
855.102	2.92
855.27	1.8
855.438	2.28
855.606	3.11
855.774	2.37
855.942	-0.75
856.11	-0.25
856.278	1.72
856.446	2.42
856.614	0.97
856.782	-0.61
856.95	2.93
857.118	2.82
857.286	0.97
857.454	1.46
857.622	2.38
857.79	1.81
857.958	-0.18
858.126	0.79
858.294	-1.91
858.462	2.03
858.629	0.76
858.797	0.07
858.965	2.08
859.133	1.44
859.301	-0.44
859.468	1.44
859.636	0.49
859.804	3.13
859.971	1.7
860.139	0.56
860.307	2.98
860.474	1.98
860.642	0.48
860.81	0.65
860.977	1.52
861.145	3.29
861.313	0.3
861.48	1.28
861.648	3.3
861.815	0.99
861.983	-0.35
862.15	0.26
862.318	2.51
862.485	2.63
862.653	0.01
862.82	0.27
862.988	2.61
863.155	0.17
863.322	0.27
863.49	-0.46
863.657	1.25
863.824	5.07
863.992	2.19
864.159	1.09
864.326	3.27
864.494	0.37
864.661	4.85
864.828	-1.11
864.996	3.51
865.163	3.72
865.33	0.38
865.497	-1.56
865.664	-0.35
865.832	-0.83
865.999	1.18
866.166	0.23
866.333	-0.03
866.5	2.29
866.667	1.59
866.834	1.58
867.001	4.46
867.168	-0.08
867.335	0.81
867.502	0.22
867.669	0.78
867.836	4.55
868.003	0.8
868.17	3.8
868.337	1.4
868.504	6.3
868.671	-2.46
868.838	-0.57
869.005	3.6
869.172	3.55
869.339	2.1
869.505	1.04
869.672	2.62
869.839	4.43
870.006	0.55
870.173	0.63
870.339	1.48
870.506	5.02
870.673	1.64
870.84	1.78
871.006	1.15
871.173	1.94
871.34	0.67
871.506	0.06
871.673	2.68
871.839	-0.9
872.006	2.86
872.173	-0.19
872.339	1.28
872.506	3.32
872.672	0.76
872.839	-1.67
873.005	2.18
873.172	6.45
873.338	2.83
873.505	1.64
873.671	2.1
873.838	2.88
874.004	-2.28
874.171	0.15
874.337	2.84
874.503	3.52
874.67	1.36
874.836	0.62
875.002	3.75
875.169	3.45
875.335	1.62
875.501	1.03
875.668	1.25
875.834	1.17
876	0.23
876.166	1.71
876.332	3.96
876.499	6.71
876.665	0.32
876.831	1.22
876.997	5.6
877.163	1.45
877.329	0.87
877.495	1.39
877.662	5.2
877.828	3.11
877.994	1.62
878.16	-2.76
878.326	2.14
878.492	3
878.658	2.48
878.824	2.48
878.99	2.28
879.156	1.86
879.322	4.77
879.487	-0.51
879.653	0.93
879.819	2.77
879.985	-0.47
880.151	2.66
880.317	2.01
880.483	2.83
880.648	2.09
880.814	0.87
880.98	2.11
881.146	-2.56
881.312	0.88
881.477	1.27
881.643	0.86
881.809	3.82
881.974	3.3
882.14	-1.73
882.306	3.63
882.471	7.42
882.637	0.47
882.803	1.79
882.968	5.9
883.134	4.52
883.299	2.69
883.465	2.44
883.63	4.14
883.796	4.75
883.961	3.29
884.127	2.66
884.292	-3.14
884.458	-0.98
884.623	-0.98
