Data from Apollo_Calib_20240827__AbsoluteIrradiance__890__13-59-00-334.txt Node

Date: Wed Aug 28 13:59:00 BST 2024
User: biology
Spectrometer: FLMT08252
Trigger mode: 0
Integration Time (sec): 5.000000E-1
Scans to average: 5
Electric dark correction enabled: true
Nonlinearity correction enabled: false
Boxcar width: 0
XAxis mode: Wavelengths
Number of Pixels in Spectrum: 3648
>>>>>Begin Spectral Data<<<<<
179.588	-0
179.809	-0
180.03	-0
180.251	-0
180.473	-0
180.694	0
180.915	0
181.136	-0
181.357	-0
181.578	-0
181.799	0
182.02	-0
182.241	0
182.462	-0
182.683	0
182.904	-0
183.125	-0
183.346	0
183.567	0
183.788	0
184.009	0
184.23	0
184.451	0
184.672	0
184.892	0
185.113	0
185.334	0
185.555	0
185.776	0
185.996	0
186.217	0
186.438	0
186.659	0
186.879	0
187.1	0
187.321	0
187.541	0
187.762	0
187.983	0
188.203	0
188.424	0
188.644	0
188.865	0
189.086	0
189.306	0
189.527	0
189.747	0
189.968	0
190.188	0
190.409	0
190.629	0
190.849	0
191.07	0
191.29	0
191.511	0
191.731	0
191.951	0
192.172	0
192.392	0
192.612	0
192.833	0
193.053	0
193.273	0
193.493	0
193.714	0
193.934	0
194.154	0
194.374	0
194.594	0
194.815	0
195.035	0
195.255	0
195.475	0
195.695	0
195.915	0
196.135	0
196.355	0
196.575	0
196.795	0
197.015	0
197.235	0
197.455	0
197.675	0
197.895	0
198.115	0
198.335	0
198.555	0
198.775	0
198.995	0
199.214	0
199.434	0
199.654	0
199.874	0
200.094	4.17
200.313	2.21
200.533	2.09
200.753	1.57
200.973	3.29
201.192	3.45
201.412	1.24
201.632	1.55
201.851	3.19
202.071	1.8
202.291	1.44
202.51	1.08
202.73	3.09
202.95	1.74
203.169	1.51
203.389	1.7
203.608	1.85
203.828	1.49
204.047	1.43
204.267	1.74
204.486	2.33
204.706	2.4
204.925	2.2
205.145	1.52
205.364	2.31
205.583	2.74
205.803	1.36
206.022	1.13
206.242	1.63
206.461	1.65
206.68	1.32
206.9	1.64
207.119	2.83
207.338	2.45
207.557	1.2
207.777	1.1
207.996	1.35
208.215	2.23
208.434	1.21
208.654	0.74
208.873	1.48
209.092	1.89
209.311	1.16
209.53	1.11
209.749	1.18
209.968	0.93
210.187	1.1
210.407	0.51
210.626	1.1
210.845	1.95
211.064	1
211.283	0.75
211.502	1.75
211.721	1.26
211.94	0.85
212.159	1.27
212.377	1.5
212.596	1.69
212.815	1.34
213.034	1.22
213.253	1.46
213.472	1.1
213.691	0.9
213.91	0.68
214.128	0.71
214.347	1.35
214.566	0.5
214.785	0.39
215.003	1.16
215.222	1.25
215.441	0.89
215.66	0.61
215.878	0.83
216.097	1.12
216.316	0.63
216.534	0.83
216.753	1.19
216.972	0.93
217.19	0.79
217.409	0.65
217.627	0.89
217.846	0.87
218.064	0.93
218.283	0.75
218.501	1.53
218.72	1.18
218.938	0.4
219.157	0.53
219.375	1
219.594	1.03
219.812	0.44
220.031	0.41
220.249	1.23
220.467	1.23
220.686	0.54
220.904	0.53
221.122	0.62
221.341	1.24
221.559	0.79
221.777	0.59
221.995	0.77
222.214	0.98
222.432	0.7
222.65	0.89
222.868	0.76
223.086	0.88
223.305	0.88
223.523	0.67
223.741	1.21
223.959	0.87
224.177	0.47
224.395	0.48
224.613	0.92
224.831	1
225.049	0.47
225.267	0.55
225.485	0.84
225.703	0.63
225.921	0.57
226.139	0.45
226.357	0.99
226.575	0.91
226.793	0.38
227.011	1.65
227.229	0.82
227.447	0.85
227.665	0.56
227.883	0.46
228.1	0.64
228.318	0.78
228.536	0.24
228.754	0.46
228.972	0.88
229.189	0.63
229.407	0.5
229.625	0.62
229.843	0.88
230.06	0.76
230.278	0.5
230.496	0.61
230.713	0.76
230.931	0.87
231.149	0.43
231.366	0.35
231.584	0.63
231.801	1.01
232.019	0.5
232.236	0.29
232.454	0.41
232.671	0.81
232.889	0.48
233.106	0.32
233.324	0.49
233.541	0.5
233.759	0.46
233.976	0.4
234.194	0.48
234.411	0.54
234.628	0.36
234.846	0.44
235.063	0.49
235.28	0.6
235.498	0.52
235.715	0.25
235.932	0.85
236.149	0.52
236.367	0.42
236.584	0.5
236.801	0.4
237.018	0.62
237.236	0.52
237.453	0.27
237.67	0.69
237.887	0.52
238.104	0.53
238.321	0.34
238.538	0.33
238.755	0.69
238.973	0.26
239.19	0.45
239.407	0.47
239.624	0.53
239.841	0.35
240.058	0.4
240.275	0.54
240.492	0.47
240.709	0.44
240.925	0.4
241.142	0.55
241.359	0.39
241.576	0.29
241.793	0.31
242.01	0.45
242.227	0.72
242.444	0.53
242.66	0.57
242.877	0.6
243.094	0.44
243.311	0.42
243.527	0.41
243.744	0.49
243.961	0.53
244.178	0.38
244.394	0.47
244.611	0.59
244.828	0.79
245.044	0.29
245.261	0.35
245.477	0.48
245.694	0.51
245.911	0.32
246.127	0.41
246.344	0.77
246.56	0.52
246.777	0.35
246.993	0.43
247.21	0.55
247.426	0.49
247.643	0.31
247.859	0.36
248.076	0.35
248.292	0.68
248.508	0.44
248.725	0.5
248.941	0.47
249.157	0.69
249.374	0.34
249.59	0.39
249.806	0.43
250.023	0.57
250.239	0.37
250.455	0.39
250.671	0.37
250.888	0.46
251.104	0.49
251.32	0.33
251.536	0.38
251.752	0.39
251.969	0.43
252.185	0.41
252.401	0.72
252.617	0.3
252.833	0.3
253.049	0.39
253.265	0.48
253.481	0.42
253.697	0.25
253.913	0.3
254.129	0.49
254.345	0.41
254.561	0.3
254.777	0.38
254.993	0.47
255.209	0.41
255.425	0.39
255.641	0.23
255.857	0.5
256.073	0.51
256.288	0.27
256.504	0.27
256.72	0.47
256.936	0.57
257.152	0.4
257.367	0.33
257.583	0.37
257.799	0.61
258.015	0.27
258.23	0.31
258.446	0.55
258.662	0.4
258.877	0.29
259.093	0.29
259.309	0.41
259.524	0.45
259.74	0.32
259.955	0.25
260.171	0.4
260.387	0.35
260.602	0.4
260.818	0.39
261.033	0.29
261.249	0.45
261.464	0.29
261.68	0.23
261.895	0.5
262.11	0.42
262.326	0.31
262.541	0.22
262.757	0.45
262.972	0.46
263.187	0.39
263.403	0.3
263.618	0.47
263.833	0.4
264.049	0.21
264.264	0.37
264.479	0.34
264.694	0.47
264.91	0.19
265.125	0.39
265.34	0.44
265.555	0.62
265.77	0.37
265.986	0.29
266.201	0.41
266.416	0.49
266.631	0.32
266.846	0.33
267.061	0.51
267.276	0.38
267.491	0.19
267.706	0.3
267.921	0.42
268.136	0.37
268.351	0.34
268.566	0.2
268.781	0.46
268.996	0.49
269.211	0.27
269.426	0.32
269.641	0.31
269.856	0.42
270.071	0.24
270.285	0.16
270.5	0.44
270.715	0.48
270.93	0.34
271.145	0.39
271.359	0.48
271.574	0.34
271.789	0.2
272.004	0.23
272.218	0.31
272.433	0.4
272.648	0.28
272.862	0.45
273.077	0.36
273.292	0.35
273.506	0.25
273.721	0.28
273.936	0.51
274.15	0.39
274.365	0.27
274.579	0.37
274.794	0.44
275.008	0.37
275.223	0.2
275.437	0.34
275.652	0.41
275.866	0.34
276.081	0.31
276.295	0.36
276.509	0.37
276.724	0.4
276.938	0.32
277.153	0.33
277.367	0.41
277.581	0.25
277.796	0.26
278.01	0.24
278.224	0.34
278.438	0.48
278.653	0.26
278.867	0.25
279.081	0.16
279.295	0.26
279.51	0.3
279.724	0.2
279.938	0.37
280.152	0.37
280.366	0.29
280.58	0.29
280.794	0.49
281.008	0.36
281.222	0.35
281.437	0.49
281.651	0.36
281.865	0.42
282.079	0.31
282.293	0.17
282.507	0.26
282.721	0.32
282.935	0.29
283.148	0.17
283.362	0.28
283.576	0.21
283.79	0.25
284.004	0.23
284.218	0.36
284.432	0.27
284.646	0.32
284.859	0.28
285.073	0.29
285.287	0.31
285.501	0.3
285.714	0.3
285.928	0.27
286.142	0.28
286.356	0.23
286.569	0.23
286.783	0.44
286.997	0.38
287.21	0.28
287.424	0.34
287.637	0.29
287.851	0.24
288.065	0.31
288.278	0.25
288.492	0.33
288.705	0.31
288.919	0.31
289.132	0.2
289.346	0.38
289.559	0.19
289.773	0.2
289.986	0.23
290.2	0.28
290.413	0.38
290.626	0.28
290.84	0.26
291.053	0.29
291.267	0.38
291.48	0.24
291.693	0.21
291.906	0.24
292.12	0.31
292.333	0.21
292.546	0.27
292.76	0.39
292.973	0.35
293.186	0.34
293.399	0.24
293.612	0.37
293.826	0.3
294.039	0.3
294.252	0.27
294.465	0.35
294.678	0.31
294.891	0.26
295.104	0.22
295.317	0.26
295.53	0.31
295.743	0.27
295.956	0.29
296.169	0.38
296.382	0.31
296.595	0.27
296.808	0.25
297.021	0.37
297.234	0.34
297.447	0.29
297.66	0.31
297.873	0.37
298.086	0.35
298.299	0.22
298.511	0.17
298.724	0.27
298.937	0.22
299.15	0.23
299.363	0.22
299.575	0.3
299.788	0.27
300.001	0.21
300.213	0.2
300.426	0.28
300.639	0.22
300.852	0.21
301.064	0.26
301.277	0.39
301.489	0.29
301.702	0.29
301.915	0.27
302.127	0.23
302.34	0.28
302.552	0.28
302.765	0.14
302.977	0.3
303.19	0.22
303.402	0.21
303.615	0.23
303.827	0.28
304.04	0.26
304.252	0.3
304.464	0.27
304.677	0.41
304.889	0.35
305.102	0.24
305.314	0.21
305.526	0.27
305.739	0.32
305.951	0.23
306.163	0.22
306.375	0.38
306.588	0.26
306.8	0.19
307.012	0.18
307.224	0.26
307.436	0.33
307.649	0.18
307.861	0.24
308.073	0.32
308.285	0.25
308.497	0.18
308.709	0.2
308.921	0.27
309.133	0.3
309.346	0.21
309.558	0.2
309.77	0.32
309.982	0.37
310.194	0.25
310.406	0.2
310.617	0.39
310.829	0.28
311.041	0.33
311.253	0.2
311.465	0.25
311.677	0.27
311.889	0.29
312.101	0.23
312.313	0.31
312.524	0.36
312.736	0.17
312.948	0.22
313.16	0.36
313.372	0.28
313.583	0.3
313.795	0.23
314.007	0.22
314.218	0.32
314.43	0.27
314.642	0.23
314.853	0.19
315.065	0.31
315.277	0.25
315.488	0.25
315.7	0.35
315.912	0.34
316.123	0.24
316.335	0.24
316.546	0.38
316.758	0.24
316.969	0.2
317.181	0.24
317.392	0.25
317.604	0.34
317.815	0.2
318.026	0.19
318.238	0.25
318.449	0.25
318.661	0.13
318.872	0.16
319.083	0.22
319.295	0.31
319.506	0.2
319.717	0.28
319.929	0.33
320.14	0.28
320.351	0.24
320.562	0.17
320.774	0.28
320.985	0.23
321.196	0.23
321.407	0.17
321.618	0.28
321.829	0.33
322.041	0.27
322.252	0.26
322.463	0.3
322.674	0.31
322.885	0.22
323.096	0.22
323.307	0.26
323.518	0.28
323.729	0.2
323.94	0.27
324.151	0.27
324.362	0.29
324.573	0.28
324.784	0.22
324.995	0.31
325.206	0.3
325.417	0.23
325.628	0.23
325.838	0.27
326.049	0.26
326.26	0.32
326.471	0.22
326.682	0.25
326.892	0.24
327.103	0.19
327.314	0.19
327.525	0.35
327.735	0.29
327.946	0.26
328.157	0.18
328.368	0.33
328.578	0.3
328.789	0.32
328.999	0.29
329.21	0.24
329.421	0.33
329.631	0.24
329.842	0.2
330.052	0.24
330.263	0.34
330.473	0.29
330.684	0.23
330.894	0.29
331.105	0.31
331.315	0.28
331.526	0.15
331.736	0.37
331.947	0.28
332.157	0.26
332.367	0.2
332.578	0.32
332.788	0.31
332.999	0.28
333.209	0.29
333.419	0.19
333.629	0.31
333.84	0.31
334.05	0.27
334.26	0.38
334.47	0.27
334.681	0.3
334.891	0.23
335.101	0.3
335.311	0.38
335.521	0.21
335.732	0.22
335.942	0.34
336.152	0.3
336.362	0.24
336.572	0.27
336.782	0.31
336.992	0.24
337.202	0.26
337.412	0.24
337.622	0.27
337.832	0.28
338.042	0.22
338.252	0.24
338.462	0.21
338.672	0.26
338.882	0.29
339.092	0.23
339.302	0.37
339.511	0.3
339.721	0.23
339.931	0.16
340.141	0.33
340.351	0.3
340.561	0.29
340.77	0.24
340.98	0.28
341.19	0.26
341.4	0.29
341.609	0.13
341.819	0.22
342.029	0.21
342.238	0.22
342.448	0.21
342.658	0.3
342.867	0.22
343.077	0.3
343.286	0.25
343.496	0.28
343.706	0.32
343.915	0.16
344.125	0.27
344.334	0.29
344.544	0.19
344.753	0.21
344.963	0.25
345.172	0.22
345.381	0.23
345.591	0.2
345.8	0.19
346.01	0.34
346.219	0.34
346.428	0.24
346.638	0.22
346.847	0.24
347.056	0.34
347.266	0.22
347.475	0.23
347.684	0.28
347.893	0.3
348.103	0.31
348.312	0.21
348.521	0.27
348.73	0.29
348.94	0.26
349.149	0.22
349.358	0.21
349.567	0.24
349.776	0.14
349.985	0.24
350.194	0.33
350.403	0.35
350.612	0.13
350.821	0.17
351.03	0.24
351.239	0.2
351.448	0.29
351.657	0.22
351.866	0.3
352.075	0.25
352.284	0.34
352.493	0.2
352.702	0.28
352.911	0.3
353.12	0.27
353.329	0.25
353.538	0.28
353.746	0.28
353.955	0.19
354.164	0.28
354.373	0.25
354.582	0.31
354.79	0.25
354.999	0.26
355.208	0.26
355.416	0.33
355.625	0.18
355.834	0.19
356.042	0.29
356.251	0.22
356.46	0.19
356.668	0.25
356.877	0.36
357.085	0.3
357.294	0.17
357.503	0.26
357.711	0.25
357.92	0.43
358.128	0.28
358.337	0.19
358.545	0.26
358.754	0.21
358.962	0.3
359.17	0.23
359.379	0.23
359.587	0.29
359.796	0.25
360.004	0.27
360.212	0.27
360.421	0.3
360.629	0.24
360.837	0.25
361.046	0.32
361.254	0.39
361.462	0.22
361.67	0.24
361.879	0.29
362.087	0.33
362.295	0.24
362.503	0.22
362.711	0.22
362.92	0.23
363.128	0.21
363.336	0.2
363.544	0.2
363.752	0.21
363.96	0.22
364.168	0.23
364.376	0.26
364.584	0.25
364.792	0.34
365	0.31
365.208	0.27
365.416	0.33
365.624	0.27
365.832	0.23
366.04	0.32
366.248	0.26
366.456	0.26
366.664	0.26
366.872	0.27
367.079	0.26
367.287	0.24
367.495	0.24
367.703	0.26
367.911	0.21
368.118	0.24
368.326	0.24
368.534	0.18
368.742	0.35
368.949	0.19
369.157	0.22
369.365	0.28
369.572	0.22
369.78	0.19
369.988	0.26
370.195	0.29
370.403	0.31
370.61	0.22
370.818	0.26
371.026	0.38
371.233	0.22
371.441	0.23
371.648	0.23
371.856	0.3
372.063	0.3
372.271	0.24
372.478	0.23
372.685	0.22
372.893	0.3
373.1	0.23
373.308	0.23
373.515	0.37
373.722	0.34
373.93	0.26
374.137	0.29
374.344	0.35
374.552	0.3
374.759	0.29
374.966	0.24
375.173	0.26
375.381	0.34
375.588	0.22
375.795	0.18
376.002	0.28
376.209	0.24
376.417	0.24
376.624	0.26
376.831	0.32
377.038	0.29
377.245	0.17
377.452	0.23
377.659	0.3
377.866	0.25
378.073	0.25
378.28	0.28
378.487	0.33
378.694	0.34
378.901	0.25
379.108	0.25
379.315	0.32
379.522	0.35
379.729	0.26
379.936	0.27
380.143	0.26
380.35	0.26
380.557	0.26
380.763	0.25
380.97	0.26
381.177	0.34
381.384	0.29
381.591	0.23
381.797	0.32
382.004	0.33
382.211	0.31
382.418	0.23
382.624	0.33
382.831	0.35
383.038	0.24
383.244	0.29
383.451	0.26
383.658	0.31
383.864	0.27
384.071	0.23
384.277	0.36
384.484	0.24
384.69	0.32
384.897	0.25
385.103	0.28
385.31	0.21
385.516	0.22
385.723	0.24
385.929	0.26
386.136	0.27
386.342	0.33
386.549	0.27
386.755	0.33
386.961	0.33
387.168	0.24
387.374	0.3
387.58	0.31
387.787	0.24
387.993	0.3
388.199	0.23
388.406	0.23
388.612	0.3
388.818	0.29
389.024	0.27
389.231	0.29
389.437	0.39
389.643	0.3
389.849	0.27
390.055	0.3
390.261	0.29
390.467	0.33
390.674	0.22
390.88	0.31
391.086	0.32
391.292	0.28
391.498	0.39
391.704	0.37
391.91	0.27
392.116	0.26
392.322	0.24
392.528	0.36
392.734	0.3
392.94	0.35
393.146	0.3
393.352	0.34
393.557	0.25
393.763	0.26
393.969	0.38
394.175	0.32
394.381	0.31
394.587	0.26
394.792	0.35
394.998	0.35
395.204	0.39
395.41	0.28
395.615	0.33
395.821	0.35
396.027	0.32
396.233	0.26
396.438	0.38
396.644	0.38
396.85	0.39
397.055	0.3
397.261	0.28
397.466	0.32
397.672	0.3
397.878	0.4
398.083	0.35
398.289	0.35
398.494	0.37
398.7	0.42
398.905	0.24
399.111	0.47
399.316	0.3
399.522	0.34
399.727	0.3
399.932	0.35
400.138	0.33
400.343	0.36
400.549	0.33
400.754	0.31
400.959	0.36
401.165	0.35
401.37	0.39
401.575	0.34
401.78	0.34
401.986	0.36
402.191	0.37
402.396	0.37
402.601	0.42
402.807	0.41
403.012	0.37
403.217	0.5
403.422	0.43
403.627	0.44
403.832	0.4
404.037	0.49
404.243	0.45
404.448	0.4
404.653	0.39
404.858	0.48
405.063	0.49
405.268	0.46
405.473	0.41
405.678	0.45
405.883	0.66
406.088	0.5
406.293	0.41
406.498	0.41
406.703	0.53
406.907	0.47
407.112	0.44
407.317	0.52
407.522	0.53
407.727	0.44
407.932	0.57
408.136	0.7
408.341	0.54
408.546	0.61
408.751	0.58
408.956	0.58
409.16	0.67
409.365	0.63
409.57	0.57
409.774	0.58
409.979	0.7
410.184	0.67
410.388	0.59
410.593	0.81
410.798	0.7
411.002	0.71
411.207	0.79
411.411	0.77
411.616	0.81
411.82	0.8
412.025	0.82
412.229	0.81
412.434	0.97
412.638	0.92
412.843	0.85
413.047	0.97
413.252	0.89
413.456	0.96
413.66	1.04
413.865	1.04
414.069	1.21
414.273	1.1
414.478	1.11
414.682	1.15
414.886	1.25
415.091	1.14
415.295	1.2
415.499	1.46
415.703	1.33
415.908	1.46
416.112	1.34
416.316	1.54
416.52	1.54
416.724	1.54
416.929	1.63
417.133	1.82
417.337	1.72
417.541	1.8
417.745	1.79
417.949	1.91
418.153	2.03
418.357	1.97
418.561	2.22
418.765	2.21
418.969	2.34
419.173	2.41
419.377	2.38
419.581	2.59
419.785	2.56
419.989	2.63
420.193	2.76
420.397	2.92
420.601	2.97
420.804	3.09
421.008	3.03
421.212	3.24
421.416	3.29
421.62	3.17
421.823	3.27
422.027	3.53
422.231	3.46
422.435	3.41
422.638	3.46
422.842	3.62
423.046	3.7
423.249	3.92
423.453	3.91
423.657	4.03
423.86	4.13
424.064	4.26
424.268	4.43
424.471	4.42
424.675	4.59
424.878	4.67
425.082	4.76
425.285	5.09
425.489	5.05
425.692	5.17
425.896	5.21
426.099	5.38
426.303	5.5
426.506	5.57
426.71	5.92
426.913	6.19
427.116	6.26
427.32	6.23
427.523	6.4
427.726	6.71
427.93	6.68
428.133	6.97
428.336	7.14
428.54	7.24
428.743	7.67
428.946	7.74
429.149	7.78
429.353	7.74
429.556	7.82
429.759	7.96
429.962	8.08
430.165	8.34
430.368	7.88
430.571	7.98
430.775	8.02
430.978	7.89
431.181	8.05
431.384	8.16
431.587	8.24
431.79	8.65
431.993	8.55
432.196	8.94
432.399	9.18
432.602	9.4
432.805	9.41
433.008	9.97
433.211	9.91
433.414	10.21
433.616	10.2
433.819	10.13
434.022	10.4
434.225	10.52
434.428	10.54
434.631	10.99
434.833	10.67
435.036	10.96
435.239	11.31
435.442	11.37
435.645	11.36
435.847	11.39
436.05	11.84
436.253	12.01
436.455	12.13
436.658	11.96
436.861	12.22
437.063	12.35
437.266	12.3
437.468	12.73
437.671	13
437.874	12.99
438.076	12.72
438.279	13.38
438.481	13.47
438.684	14.17
438.886	13.67
439.089	14.1
439.291	14.05
439.494	14.45
439.696	14.67
439.899	15.08
440.101	15.59
440.303	15.67
440.506	16.5
440.708	16.1
440.91	16.36
441.113	16.6
441.315	16.82
441.517	16.66
441.72	17.19
441.922	16.71
442.124	16.74
442.326	17.06
442.529	17.35
442.731	17.25
442.933	17.73
443.135	17.31
443.337	17.31
443.539	18.02
443.742	17.56
443.944	18.18
444.146	17.99
444.348	18.01
444.55	17.85
444.752	17.95
444.954	18.09
445.156	17.88
445.358	18.32
445.56	18.54
445.762	18.34
445.964	18.67
446.166	18.63
446.368	18.48
446.57	18.54
446.772	18.08
446.974	18.04
447.175	18.26
447.377	18.05
447.579	18.44
447.781	17.98
447.983	17.8
448.184	17.25
448.386	17.65
448.588	17.23
448.79	17.18
448.991	17.47
449.193	17.46
449.395	16.77
449.597	16.23
449.798	16.28
450	15.87
450.202	15.88
450.403	15.85
450.605	15.73
450.806	15.48
451.008	15.34
451.21	15.09
451.411	14.67
451.613	13.86
451.814	14.11
452.016	14.01
452.217	13.49
452.419	13.35
452.62	12.97
452.821	12.68
453.023	12.63
453.224	12.35
453.426	11.83
453.627	11.22
453.828	11.28
454.03	11.41
454.231	11.35
454.432	11.1
454.634	11.01
454.835	10.5
455.036	10.5
455.238	10.13
455.439	9.91
455.64	9.65
455.841	9.41
456.042	9.61
456.244	9.3
456.445	8.98
456.646	8.72
456.847	8.63
457.048	8.6
457.249	8.62
457.45	8.38
457.651	7.8
457.852	7.71
458.054	7.24
458.255	7.35
458.456	7.34
458.657	7.26
458.858	6.73
459.058	6.73
459.259	6.89
459.46	6.47
459.661	6.5
459.862	6.55
460.063	6.33
460.264	6.36
460.465	6
460.666	6.04
460.866	5.82
461.067	5.62
461.268	5.63
461.469	5.54
461.67	5.49
461.87	5.22
462.071	5.35
462.272	5.18
462.473	5.12
462.673	5.35
462.874	5.14
463.075	5.23
463.275	5.14
463.476	5.17
463.676	5.14
463.877	5
464.078	5.08
464.278	5.05
464.479	4.94
464.679	4.81
464.88	4.78
465.08	4.79
465.281	4.53
465.481	4.38
465.682	4.15
465.882	4.28
466.083	4.11
466.283	4.05
466.483	3.91
466.684	3.75
466.884	3.65
467.085	3.75
467.285	3.84
467.485	3.62
467.686	3.63
467.886	3.42
468.086	3.48
468.286	3.43
468.487	3.45
468.687	3.23
468.887	3.35
469.087	3.42
469.287	3.28
469.488	3.12
469.688	3.27
469.888	3.21
470.088	3.16
470.288	3.08
470.488	3.06
470.688	2.91
470.888	2.86
471.088	2.69
471.288	2.88
471.488	2.83
471.688	2.79
471.888	2.7
472.088	2.9
472.288	2.74
472.488	2.62
472.688	2.6
472.888	2.63
473.088	2.63
473.288	2.47
473.488	2.44
473.688	2.64
473.887	2.5
474.087	2.43
474.287	2.48
474.487	2.43
474.687	2.43
474.886	2.35
475.086	2.34
475.286	2.36
475.486	2.32
475.685	2.28
475.885	2.22
476.085	2.33
476.284	2.36
476.484	2.25
476.684	2.27
476.883	2.33
477.083	2.22
477.282	2.12
477.482	2.24
477.681	2.16
477.881	2.11
478.08	2.09
478.28	2.06
478.479	2.13
478.679	2.15
478.878	2.07
479.078	2.05
479.277	2.13
479.477	2.07
479.676	2.08
479.875	2.06
480.075	1.97
480.274	2.05
480.473	2.07
480.673	2.04
480.872	2.09
481.071	2.09
481.271	2.07
481.47	2
481.669	2.05
481.868	1.98
482.067	2.03
482.267	1.95
482.466	1.95
482.665	1.98
482.864	1.92
483.063	1.93
483.262	2.04
483.461	2.05
483.661	2.06
483.86	2.05
484.059	2.09
484.258	2.03
484.457	2.03
484.656	2.04
484.855	2.15
485.054	1.91
485.253	2.01
485.452	1.97
485.651	2.06
485.849	2.02
486.048	2.03
486.247	2.02
486.446	2.09
486.645	2.06
486.844	2.1
487.043	2.05
487.241	2.1
487.44	2.05
487.639	2.14
487.838	2.17
488.037	2.12
488.235	2.25
488.434	2.15
488.633	2.04
488.831	2.23
489.03	2.23
489.229	2.24
489.427	2.2
489.626	2.3
489.825	2.28
490.023	2.32
490.222	2.24
490.42	2.37
490.619	2.4
490.817	2.36
491.016	2.36
491.214	2.44
491.413	2.47
491.611	2.38
491.81	2.41
492.008	2.45
492.207	2.56
492.405	2.55
492.604	2.52
492.802	2.58
493	2.61
493.199	2.62
493.397	2.66
493.595	2.72
493.794	2.69
493.992	2.74
494.19	2.74
494.388	2.84
494.587	2.78
494.785	2.82
494.983	2.7
495.181	2.9
495.379	2.91
495.578	2.97
495.776	2.91
495.974	2.9
496.172	3
496.37	3.08
496.568	3.05
496.766	3.08
496.964	3.2
497.162	3.21
497.36	3.2
497.558	3.28
497.756	3.32
497.954	3.29
498.152	3.38
498.35	3.45
498.548	3.39
498.746	3.39
498.944	3.42
499.142	3.45
499.34	3.57
499.538	3.64
499.736	3.49
499.933	3.66
500.131	3.65
500.329	3.77
500.527	3.75
500.725	3.88
500.922	3.91
501.12	3.89
501.318	3.96
501.516	3.93
501.713	4.05
501.911	4
502.109	3.97
502.306	4.12
502.504	4.02
502.701	4.08
502.899	4.16
503.097	4.36
503.294	4.19
503.492	4.36
503.689	4.39
503.887	4.36
504.084	4.46
504.282	4.45
504.479	4.38
504.677	4.63
504.874	4.55
505.072	4.47
505.269	4.64
505.466	4.71
505.664	4.75
505.861	4.66
506.059	4.75
506.256	4.8
506.453	4.83
506.651	4.99
506.848	4.99
507.045	4.92
507.242	4.99
507.44	5.02
507.637	5.07
507.834	5.07
508.031	5.21
508.229	5.15
508.426	5.07
508.623	5.23
508.82	5.28
509.017	5.25
509.214	5.26
509.411	5.38
509.608	5.35
509.805	5.51
510.003	5.44
510.2	5.48
510.397	5.67
510.594	5.53
510.791	5.69
510.988	5.59
511.184	5.61
511.381	5.49
511.578	5.7
511.775	5.81
511.972	5.73
512.169	5.83
512.366	5.82
512.563	5.93
512.76	5.96
512.956	6
513.153	5.94
513.35	5.91
513.547	5.95
513.744	6.01
513.94	6
514.137	6.14
514.334	6.14
514.53	6.12
514.727	6.37
514.924	6.27
515.12	6.28
515.317	6.27
515.514	6.24
515.71	6.16
515.907	6.43
516.103	6.46
516.3	6.35
516.497	6.48
516.693	6.5
516.89	6.44
517.086	6.54
517.283	6.58
517.479	6.4
517.676	6.63
517.872	6.67
518.068	6.63
518.265	6.63
518.461	6.53
518.658	6.71
518.854	6.68
519.05	6.8
519.247	6.81
519.443	6.78
519.639	6.89
519.836	6.75
520.032	6.74
520.228	6.94
520.424	6.9
520.621	6.95
520.817	6.92
521.013	6.88
521.209	7.09
521.405	7.06
521.601	7.03
521.798	6.97
521.994	7.09
522.19	6.97
522.386	6.96
522.582	7.09
522.778	7.22
522.974	7.12
523.17	7.1
523.366	7.06
523.562	7.19
523.758	7.2
523.954	7.04
524.15	7.19
524.346	7.27
524.542	7.3
524.738	7.23
524.934	7.35
525.129	7.32
525.325	7.22
525.521	7.23
525.717	7.42
525.913	7.34
526.109	7.33
526.304	7.4
526.5	7.42
526.696	7.44
526.892	7.4
527.087	7.65
527.283	7.48
527.479	7.53
527.674	7.32
527.87	7.49
528.066	7.46
528.261	7.53
528.457	7.44
528.653	7.65
528.848	7.62
529.044	7.7
529.239	7.49
529.435	7.53
529.63	7.5
529.826	7.56
530.021	7.6
530.217	7.57
530.412	7.59
530.608	7.63
530.803	7.65
530.999	7.54
531.194	7.66
531.389	7.7
531.585	7.67
531.78	7.84
531.975	7.73
532.171	7.8
532.366	7.75
532.561	7.74
532.757	7.69
532.952	7.88
533.147	7.65
533.342	7.79
533.538	7.69
533.733	7.93
533.928	7.57
534.123	7.72
534.318	7.84
534.513	7.72
534.709	7.9
534.904	7.82
535.099	7.89
535.294	7.94
535.489	7.9
535.684	7.8
535.879	7.9
536.074	7.92
536.269	7.96
536.464	7.93
536.659	7.83
536.854	7.9
537.049	7.9
537.244	7.86
537.439	7.85
537.634	7.86
537.828	7.99
538.023	7.99
538.218	7.97
538.413	7.84
538.608	7.92
538.803	7.91
538.997	7.85
539.192	7.97
539.387	7.96
539.582	7.9
539.776	7.85
539.971	8.01
540.166	8
540.36	7.92
540.555	8.09
540.75	8
540.944	8.02
541.139	7.99
541.334	8.01
541.528	7.99
541.723	8.1
541.917	8.11
542.112	7.89
542.306	7.9
542.501	7.94
542.695	7.95
542.89	7.93
543.084	8
543.279	8.08
543.473	8.08
543.668	8.08
543.862	7.88
544.056	7.95
544.251	8.07
544.445	8.11
544.64	8.15
544.834	7.77
545.028	7.67
545.222	8.01
545.417	8.2
545.611	8.13
545.805	8.04
546	7.9
546.194	8.09
546.388	8.07
546.582	7.96
546.776	7.98
546.97	8.08
547.165	8.09
547.359	7.99
547.553	8.05
547.747	8.06
547.941	8.24
548.135	7.97
548.329	8.13
548.523	8.15
548.717	8.06
548.911	7.95
549.105	7.98
549.299	8.1
549.493	8.07
549.687	8.05
549.881	8.2
550.075	8.12
550.269	7.93
550.463	8.17
550.657	8.13
550.85	8.05
551.044	8.05
551.238	8.15
551.432	8.11
551.626	8.12
551.82	8.11
552.013	7.99
552.207	8.15
552.401	8.18
552.594	8.1
552.788	8
552.982	8.01
553.176	8
553.369	8.2
553.563	8.18
553.756	8.12
553.95	8.12
554.144	8.17
554.337	8.14
554.531	7.96
554.724	8.08
554.918	8.2
555.111	8.08
555.305	8.11
555.498	8.06
555.692	8.22
555.885	8.16
556.079	8.12
556.272	8.05
556.466	8.11
556.659	8.04
556.852	8.19
557.046	8.06
557.239	8.01
557.432	8.03
557.626	8.15
557.819	8.15
558.012	8.19
558.206	8.21
558.399	8.14
558.592	8.1
558.785	8.04
558.979	8.09
559.172	8.1
559.365	8.13
559.558	8.09
559.751	7.99
559.944	8.25
560.138	8.07
560.331	8.08
560.524	8.13
560.717	8.15
560.91	8.09
561.103	8.14
561.296	8.01
561.489	8.11
561.682	8.21
561.875	8.14
562.068	8.18
562.261	8.01
562.454	8.25
562.647	8.07
562.84	8.09
563.032	8.15
563.225	8.06
563.418	8.06
563.611	8.22
563.804	8.17
563.997	7.93
564.19	7.87
564.382	8.16
564.575	8.16
564.768	8.04
564.961	8.19
565.153	8.01
565.346	8.02
565.539	8.17
565.731	8.09
565.924	8.17
566.117	8.32
566.309	8.17
566.502	7.98
566.695	8.06
566.887	8.14
567.08	8.11
567.272	8.07
567.465	8.02
567.657	8.15
567.85	8.03
568.042	8.08
568.235	8.13
568.427	7.92
568.62	8.12
568.812	8.06
569.005	8.14
569.197	7.91
569.389	8.09
569.582	8.09
569.774	8.04
569.966	7.98
570.159	8
570.351	7.98
570.543	8
570.736	8.01
570.928	7.81
571.12	8.13
571.312	7.97
571.505	7.82
571.697	8.08
571.889	8.06
572.081	7.96
572.273	7.92
572.465	7.97
572.658	8.02
572.85	7.98
573.042	8.03
573.234	7.92
573.426	7.97
573.618	7.94
573.81	7.94
574.002	7.97
574.194	7.99
574.386	7.91
574.578	7.79
574.77	7.86
574.962	7.93
575.154	7.81
575.346	7.81
575.538	7.84
575.729	7.79
575.921	8.01
576.113	7.94
576.305	7.96
576.497	7.98
576.689	7.78
576.88	7.81
577.072	7.95
577.264	7.91
577.456	7.85
577.647	7.76
577.839	7.99
578.031	7.87
578.223	7.8
578.414	7.8
578.606	7.83
578.798	7.95
578.989	7.81
579.181	7.89
579.372	7.86
579.564	7.82
579.755	7.75
579.947	7.74
580.139	7.8
580.33	7.66
580.522	7.81
580.713	7.67
580.905	7.75
581.096	7.86
581.287	7.68
581.479	7.74
581.67	7.77
581.862	7.72
582.053	7.68
582.244	7.6
582.436	7.73
582.627	7.66
582.818	7.57
583.01	7.66
583.201	7.7
583.392	7.62
583.583	7.64
583.775	7.43
583.966	7.53
584.157	7.7
584.348	7.69
584.54	7.53
584.731	7.65
584.922	7.52
585.113	7.39
585.304	7.65
585.495	7.58
585.686	7.68
585.877	7.59
586.068	7.59
586.259	7.57
586.45	7.55
586.641	7.49
586.832	7.63
587.023	7.42
587.214	7.5
587.405	7.49
587.596	7.39
587.787	7.4
587.978	7.45
588.169	7.4
588.36	7.3
588.551	7.39
588.742	7.45
588.932	7.44
589.123	7.24
589.314	7.51
589.505	7.34
589.696	7.4
589.886	7.3
590.077	7.37
590.268	7.29
590.458	7.23
590.649	7.16
590.84	7.38
591.03	7.28
591.221	7.25
591.412	7.14
591.602	7.4
591.793	7.28
591.984	7.29
592.174	7.17
592.365	7.32
592.555	7.09
592.746	7.15
592.936	7.18
593.127	7.27
593.317	7.23
593.508	7.19
593.698	7.04
593.889	7.14
594.079	7.1
594.269	6.98
594.46	7.03
594.65	7.11
594.84	7
595.031	6.96
595.221	6.96
595.411	7.02
595.602	6.97
595.792	6.91
595.982	6.89
596.172	7.03
596.363	6.89
596.553	6.9
596.743	6.95
596.933	6.86
597.123	6.92
597.314	6.71
597.504	6.76
597.694	6.91
597.884	6.82
598.074	6.81
598.264	6.82
598.454	6.85
598.644	6.83
598.834	6.75
599.024	6.64
599.214	6.71
599.404	6.78
599.594	6.69
599.784	6.63
599.974	6.71
600.164	6.7
600.354	6.55
600.544	6.57
600.734	6.61
600.924	6.66
601.114	6.51
601.303	6.49
601.493	6.53
601.683	6.57
601.873	6.51
602.063	6.42
602.252	6.51
602.442	6.4
602.632	6.44
602.821	6.4
603.011	6.51
603.201	6.42
603.39	6.41
603.58	6.27
603.77	6.39
603.959	6.4
604.149	6.33
604.339	6.36
604.528	6.39
604.718	6.39
604.907	6.3
605.097	6.22
605.286	6.28
605.476	6.27
605.665	6.3
605.855	6.08
606.044	6.29
606.234	6.27
606.423	6.14
606.612	6.19
606.802	6.12
606.991	6.18
607.181	6.21
607.37	6.12
607.559	5.95
607.749	6.13
607.938	6.03
608.127	6.04
608.316	6.03
608.506	6.01
608.695	6.1
608.884	5.99
609.073	6
609.263	6.02
609.452	5.99
609.641	5.84
609.83	5.84
610.019	5.92
610.208	5.86
610.397	5.74
610.586	5.88
610.775	5.82
610.965	5.76
611.154	5.69
611.343	5.81
611.532	5.68
611.721	5.8
611.91	5.7
612.099	5.7
612.287	5.63
612.476	5.54
612.665	5.73
612.854	5.6
613.043	5.66
613.232	5.62
613.421	5.57
613.61	5.54
613.798	5.52
613.987	5.57
614.176	5.54
614.365	5.58
614.554	5.52
614.742	5.56
614.931	5.35
615.12	5.54
615.309	5.46
615.497	5.4
615.686	5.31
615.875	5.41
616.063	5.37
616.252	5.41
616.44	5.33
616.629	5.31
616.818	5.28
617.006	5.23
617.195	5.22
617.383	5.26
617.572	5.13
617.76	5.16
617.949	5.26
618.137	5.26
618.326	5.22
618.514	5.03
618.703	5.03
618.891	5.18
619.079	5.07
619.268	5.12
619.456	4.98
619.644	5.13
619.833	5
620.021	5.03
620.209	4.9
620.398	4.99
620.586	4.94
620.774	5.01
620.962	4.94
621.151	5.02
621.339	4.9
621.527	4.85
621.715	4.83
621.903	4.87
622.092	4.79
622.28	4.91
622.468	4.71
622.656	4.72
622.844	4.75
623.032	4.8
623.22	4.65
623.408	4.81
623.596	4.7
623.784	4.73
623.972	4.62
624.16	4.69
624.348	4.8
624.536	4.73
624.724	4.57
624.912	4.65
625.1	4.63
625.288	4.57
625.476	4.52
625.664	4.6
625.851	4.54
626.039	4.5
626.227	4.47
626.415	4.47
626.603	4.4
626.79	4.46
626.978	4.42
627.166	4.5
627.354	4.37
627.541	4.33
627.729	4.23
627.917	4.51
628.104	4.5
628.292	4.33
628.48	4.37
628.667	4.27
628.855	4.4
629.042	4.39
629.23	4.21
629.418	4.25
629.605	4.24
629.793	4.18
629.98	4.22
630.168	4.19
630.355	4.17
630.543	4.14
630.73	4.03
630.917	4.06
631.105	4.21
631.292	4.1
631.48	4.08
631.667	4.21
631.854	4.04
632.042	4.03
632.229	3.97
632.416	4.05
632.604	3.95
632.791	3.87
632.978	4
633.165	3.96
633.353	3.93
633.54	3.99
633.727	3.83
633.914	3.84
634.101	3.93
634.289	3.95
634.476	3.78
634.663	3.74
634.85	3.8
635.037	3.69
635.224	3.72
635.411	3.84
635.598	3.73
635.785	3.66
635.972	3.67
636.159	3.71
636.346	3.67
636.533	3.63
636.72	3.65
636.907	3.61
637.094	3.61
637.281	3.53
637.468	3.63
637.655	3.57
637.842	3.61
638.029	3.53
638.215	3.56
638.402	3.54
638.589	3.46
638.776	3.48
638.963	3.42
639.149	3.56
639.336	3.52
639.523	3.49
639.709	3.37
639.896	3.39
640.083	3.42
640.27	3.42
640.456	3.3
640.643	3.36
640.829	3.28
641.016	3.31
641.203	3.21
641.389	3.36
641.576	3.34
641.762	3.25
641.949	3.23
642.135	3.33
642.322	3.21
642.508	3.12
642.695	3.23
642.881	3.16
643.068	3.18
643.254	3.19
643.441	3.13
643.627	3.16
643.813	3.06
644	3.16
644.186	3
644.372	3.07
644.559	3.06
644.745	3.07
644.931	2.93
645.118	3.04
645.304	3.03
645.49	3.05
645.676	2.96
645.862	3
646.049	3.05
646.235	2.97
646.421	3.07
646.607	3.05
646.793	2.91
646.979	2.82
647.165	2.94
647.352	2.89
647.538	2.92
647.724	2.87
647.91	2.83
648.096	2.85
648.282	2.86
648.468	2.77
648.654	2.75
648.84	2.82
649.026	2.76
649.212	2.72
649.397	2.68
649.583	2.73
649.769	2.73
649.955	2.66
650.141	2.74
650.327	2.74
650.513	2.62
650.698	2.69
650.884	2.57
651.07	2.66
651.256	2.66
651.442	2.59
651.627	2.51
651.813	2.62
651.999	2.53
652.184	2.58
652.37	2.58
652.556	2.51
652.741	2.58
652.927	2.39
653.113	2.48
653.298	2.52
653.484	2.5
653.669	2.42
653.855	2.44
654.04	2.49
654.226	2.49
654.412	2.42
654.597	2.3
654.782	2.45
654.968	2.42
655.153	2.38
655.339	2.38
655.524	2.32
655.71	2.39
655.895	2.38
656.08	2.31
656.266	2.4
656.451	2.33
656.636	2.25
656.822	2.31
657.007	2.27
657.192	2.29
657.378	2.23
657.563	2.25
657.748	2.27
657.933	2.3
658.118	2.18
658.304	2.2
658.489	2.29
658.674	2.23
658.859	2.12
659.044	2.19
659.229	2.23
659.414	2.11
659.599	2.14
659.785	2.07
659.97	2.1
660.155	2.19
660.34	2.1
660.525	2.1
660.71	2.07
660.895	2.13
661.08	2.04
661.264	2.02
661.449	2.16
661.634	2.04
661.819	2.12
662.004	2
662.189	1.94
662.374	1.97
662.559	1.98
662.743	1.92
662.928	2.05
663.113	1.9
663.298	1.92
663.483	1.95
663.667	1.93
663.852	1.91
664.037	1.95
664.221	1.9
664.406	2
664.591	1.95
664.775	1.99
664.96	1.88
665.145	1.88
665.329	1.95
665.514	1.84
665.698	1.81
665.883	1.77
666.068	1.93
666.252	1.87
666.437	1.76
666.621	1.8
666.806	1.84
666.99	1.79
667.174	1.76
667.359	1.87
667.543	1.77
667.728	1.79
667.912	1.68
668.096	1.75
668.281	1.67
668.465	1.77
668.649	1.76
668.834	1.64
669.018	1.73
669.202	1.69
669.387	1.71
669.571	1.79
669.755	1.68
669.939	1.63
670.124	1.7
670.308	1.71
670.492	1.69
670.676	1.62
670.86	1.61
671.044	1.64
671.228	1.63
671.413	1.55
671.597	1.47
671.781	1.61
671.965	1.66
672.149	1.55
672.333	1.58
672.517	1.53
672.701	1.66
672.885	1.56
673.069	1.44
673.253	1.65
673.437	1.56
673.621	1.48
673.804	1.52
673.988	1.56
674.172	1.53
674.356	1.42
674.54	1.48
674.724	1.61
674.908	1.48
675.091	1.51
675.275	1.51
675.459	1.57
675.643	1.53
675.826	1.48
676.01	1.47
676.194	1.45
676.377	1.5
676.561	1.45
676.745	1.46
676.928	1.45
677.112	1.49
677.296	1.38
677.479	1.41
677.663	1.38
677.846	1.46
678.03	1.35
678.213	1.3
678.397	1.41
678.58	1.38
678.764	1.4
678.947	1.31
679.131	1.42
679.314	1.43
679.498	1.35
679.681	1.32
679.865	1.45
680.048	1.32
680.231	1.28
680.415	1.27
680.598	1.3
680.781	1.24
680.965	1.32
681.148	1.29
681.331	1.24
681.514	1.35
681.698	1.25
681.881	1.25
682.064	1.31
682.247	1.31
682.43	1.18
682.614	1.28
682.797	1.26
682.98	1.31
683.163	1.15
683.346	1.22
683.529	1.22
683.712	1.16
683.895	1.19
684.078	1.08
684.261	1.15
684.444	1.21
684.627	1.29
684.81	1.22
684.993	1.16
685.176	1.22
685.359	1.1
685.542	1.14
685.725	1.25
685.908	1.17
686.091	1.14
686.274	1.18
686.457	1.19
686.639	1.11
686.822	1.17
687.005	1.13
687.188	1.19
687.371	1.25
687.553	1.2
687.736	1.13
687.919	1.2
688.102	1.17
688.284	1.1
688.467	1.03
688.65	1.15
688.832	1
689.015	1.05
689.197	0.92
689.38	1.23
689.563	1.21
689.745	0.88
689.928	0.93
690.11	0.99
690.293	1.05
690.475	0.95
690.658	1.02
690.84	1.04
691.023	1.02
691.205	0.99
691.388	0.99
691.57	1.13
691.752	1.06
691.935	0.92
692.117	0.94
692.3	1.04
692.482	0.96
692.664	0.93
692.847	0.95
693.029	1.08
693.211	1.01
693.393	0.91
693.576	0.96
693.758	0.92
693.94	0.96
694.122	0.95
694.304	0.9
694.487	0.89
694.669	1.03
694.851	0.83
695.033	0.87
695.215	0.88
695.397	0.86
695.579	0.87
695.761	0.83
695.943	0.84
696.125	0.98
696.308	0.94
696.49	0.74
696.671	1.09
696.853	0.88
697.035	1.12
697.217	0.91
697.399	1
697.581	0.85
697.763	0.9
697.945	0.81
698.127	0.88
698.309	0.99
698.491	0.82
698.672	0.93
698.854	0.86
699.036	0.94
699.218	0.81
699.399	0.91
699.581	0.91
699.763	0.82
699.945	0.78
700.126	0.79
700.308	0.84
700.49	0.82
700.671	0.73
700.853	0.73
701.035	0.74
701.216	0.78
701.398	0.76
701.579	0.76
701.761	0.82
701.943	0.71
702.124	0.73
702.306	0.8
702.487	1.02
702.669	0.79
702.85	0.72
703.031	0.72
703.213	0.88
703.394	0.92
703.576	0.72
703.757	0.91
703.938	0.85
704.12	0.99
704.301	0.78
704.483	0.71
704.664	0.73
704.845	0.88
705.026	0.78
705.208	0.74
705.389	0.76
705.57	0.84
705.751	0.74
705.933	0.69
706.114	0.88
706.295	0.79
706.476	0.68
706.657	0.91
706.838	0.78
707.02	0.85
707.201	0.67
707.382	0.68
707.563	0.81
707.744	0.75
707.925	0.68
708.106	0.73
708.287	0.7
708.468	0.81
708.649	0.71
708.83	0.84
709.011	0.69
709.192	0.81
709.373	0.58
709.554	0.64
709.734	0.81
709.915	0.76
710.096	0.72
710.277	0.5
710.458	0.65
710.639	0.73
710.819	0.61
711	0.64
711.181	0.74
711.362	0.77
711.542	0.68
711.723	0.65
711.904	0.75
712.085	0.71
712.265	0.64
712.446	0.53
712.627	0.68
712.807	0.64
712.988	0.63
713.168	0.54
713.349	0.73
713.53	0.49
713.71	0.62
713.891	0.48
714.071	0.63
714.252	0.63
714.432	0.54
714.613	0.5
714.793	0.58
714.974	0.74
715.154	0.68
715.334	0.73
715.515	0.76
715.695	0.51
715.876	0.54
716.056	0.61
716.236	0.55
716.417	0.53
716.597	0.51
716.777	0.83
716.957	0.63
717.138	0.61
717.318	0.54
717.498	0.46
717.678	0.63
717.859	0.63
718.039	0.4
718.219	0.61
718.399	0.55
718.579	0.49
718.759	0.45
718.939	0.58
719.12	0.6
719.3	0.59
719.48	0.44
719.66	0.39
719.84	0.76
720.02	0.56
720.2	0.52
720.38	0.56
720.56	0.68
720.74	0.43
720.92	0.54
721.1	0.71
721.279	0.63
721.459	0.55
721.639	0.52
721.819	0.52
721.999	0.5
722.179	0.67
722.359	0.4
722.538	0.48
722.718	0.53
722.898	0.55
723.078	0.46
723.257	0.41
723.437	0.56
723.617	0.54
723.797	0.57
723.976	0.54
724.156	0.66
724.336	0.67
724.515	0.76
724.695	0.4
724.874	0.52
725.054	0.57
725.234	0.53
725.413	0.53
725.593	0.49
725.772	0.52
725.952	0.5
726.131	0.47
726.311	0.54
726.49	0.53
726.67	0.38
726.849	0.42
727.028	0.55
727.208	0.51
727.387	0.56
727.567	0.37
727.746	0.45
727.925	0.49
728.105	0.31
728.284	0.49
728.463	0.44
728.643	0.51
728.822	0.44
729.001	0.42
729.18	0.46
729.359	0.61
729.539	0.46
729.718	0.46
729.897	0.67
730.076	0.51
730.255	0.31
730.434	0.47
730.614	0.55
730.793	0.71
730.972	0.47
731.151	0.46
731.33	0.55
731.509	0.57
731.688	0.54
731.867	0.44
732.046	0.36
732.225	0.69
732.404	0.37
732.583	0.36
732.762	0.47
732.941	0.5
733.12	0.58
733.298	0.54
733.477	0.67
733.656	0.46
733.835	0.33
734.014	0.59
734.193	0.5
734.371	0.56
734.55	0.53
734.729	0.36
734.908	0.46
735.086	0.63
735.265	0.58
735.444	0.28
735.623	0.36
735.801	0.4
735.98	0.5
736.159	0.47
736.337	0.53
736.516	0.59
736.694	0.5
736.873	0.4
737.052	0.86
737.23	0.68
737.409	0.44
737.587	0.78
737.766	0.36
737.944	0.43
738.123	0.56
738.301	0.6
738.479	0.53
738.658	0.48
738.836	0.25
739.015	0.48
739.193	0.62
739.371	0.31
739.55	0.52
739.728	0.35
739.906	0.68
740.085	0.71
740.263	0.48
740.441	0.25
740.62	0.73
740.798	0.6
740.976	0.44
741.154	0.36
741.332	0.64
741.511	0.43
741.689	0.47
741.867	0.48
742.045	0.61
742.223	0.39
742.401	0.38
742.579	0.31
742.757	0.57
742.935	0.34
743.114	0.39
743.292	0.37
743.47	0.55
743.648	0.53
743.826	0.5
744.004	0.52
744.181	0.6
744.359	0.4
744.537	0.53
744.715	0.4
744.893	0.42
745.071	0.47
745.249	0.49
745.427	0.55
745.605	0.64
745.782	0.39
745.96	0.43
746.138	0.46
746.316	0.49
746.493	0.4
746.671	0.46
746.849	0.45
747.027	0.71
747.204	0.35
747.382	0.48
747.56	0.27
747.737	0.37
747.915	0.49
748.093	0.49
748.27	0.21
748.448	0.41
748.625	0.29
748.803	0.37
748.98	0.35
749.158	0.63
749.335	0.52
749.513	0.36
749.69	0.3
749.868	0.3
750.045	0.44
750.223	0.27
750.4	0.18
750.578	0.61
750.755	0.41
750.932	0.25
751.11	0.65
751.287	0.37
751.464	0.49
751.642	0.31
751.819	0.49
751.996	0.46
752.173	0.37
752.351	0.33
752.528	0.38
752.705	0.38
752.882	0.37
753.06	0.39
753.237	0.55
753.414	0.72
753.591	0.7
753.768	0.43
753.945	0.35
754.122	0.49
754.299	0.56
754.476	0.29
754.654	0.38
754.831	0.49
755.008	0.42
755.185	0.23
755.362	0.3
755.539	0.43
755.716	0.42
755.892	0.29
756.069	0.41
756.246	0.48
756.423	0.33
756.6	0.52
756.777	0.26
756.954	0.51
757.131	0.54
757.307	0.34
757.484	0.28
757.661	0.49
757.838	0.55
758.015	0.28
758.191	0.41
758.368	0.36
758.545	0.62
758.721	0.36
758.898	0.21
759.075	0.52
759.251	0.56
759.428	0.47
759.605	0.22
759.781	0.35
759.958	0.42
760.134	0.44
760.311	0.26
760.488	0.61
760.664	0.52
760.841	0.44
761.017	0.24
761.194	0.37
761.37	0.64
761.547	0.35
761.723	0.31
761.899	0.67
762.076	0.3
762.252	0.25
762.429	0.35
762.605	0.46
762.781	0.31
762.958	0.53
763.134	0.39
763.31	0.25
763.486	0.68
763.663	0.12
763.839	0.34
764.015	0.04
764.191	0.4
764.368	0.33
764.544	0.22
764.72	0.53
764.896	0.3
765.072	0.35
765.248	0.38
765.425	0.27
765.601	0.49
765.777	0.33
765.953	0.13
766.129	0.44
766.305	0.23
766.481	0.47
766.657	0.34
766.833	0.69
767.009	0.22
767.185	0.43
767.361	0.26
767.537	0.36
767.713	0.59
767.889	0.28
768.065	0.41
768.24	0.27
768.416	0.51
768.592	0.29
768.768	0.14
768.944	0.51
769.12	0.29
769.295	0.18
769.471	0.32
769.647	0.37
769.823	0.48
769.998	0.08
770.174	0.21
770.35	0.81
770.525	0.75
770.701	0.37
770.877	0.33
771.052	0.18
771.228	0.51
771.403	0.37
771.579	0.34
771.755	0.71
771.93	0.37
772.106	0.23
772.281	0.26
772.457	0.43
772.632	0.48
772.808	0.3
772.983	0.27
773.159	0.25
773.334	0.54
773.509	0.51
773.685	0.11
773.86	0.98
774.036	0.69
774.211	0.35
774.386	0.34
774.562	0.29
774.737	0.55
774.912	0.44
775.087	0.51
775.263	0.32
775.438	0.5
775.613	0.34
775.788	0.29
775.964	0.71
776.139	0.97
776.314	0.24
776.489	0.49
776.664	0.37
776.839	0.34
777.014	0.53
777.19	0.45
777.365	0.78
777.54	0.59
777.715	0.25
777.89	0.37
778.065	0.23
778.24	0.39
778.415	0.57
778.59	0.02
778.765	0.42
778.94	0.57
779.115	0.42
779.289	0.2
779.464	0.59
779.639	0.2
779.814	0.21
779.989	0.16
780.164	0.64
780.339	0.54
780.513	0.26
780.688	0.2
780.863	0.44
781.038	0.6
781.212	0.24
781.387	0.39
781.562	0.8
781.737	0.21
781.911	0.62
782.086	0.08
782.261	0.5
782.435	0.78
782.61	0.49
782.784	0.24
782.959	0.69
783.134	0.24
783.308	0.02
783.483	0.26
783.657	1.07
783.832	0.72
784.006	0.02
784.181	0.45
784.355	0.88
784.53	0.51
784.704	0.04
784.878	0.74
785.053	0.47
785.227	0.65
785.402	0.65
785.576	0.34
785.75	0.55
785.925	0.31
786.099	0.43
786.273	0.46
786.448	0.79
786.622	0.53
786.796	0.35
786.97	0.43
787.145	1.15
787.319	0.33
787.493	0.42
787.667	0.08
787.841	0.29
788.015	0.78
788.19	0.08
788.364	0.39
788.538	0.9
788.712	0.99
788.886	0.26
789.06	0.57
789.234	0.63
789.408	0.18
789.582	0.4
789.756	0.22
789.93	0.29
790.104	0.58
790.278	0.49
790.452	0.28
790.626	0.64
790.8	0.28
790.973	0.58
791.147	0.82
791.321	1.02
791.495	0.94
791.669	0.46
791.843	0.65
792.016	0.58
792.19	1.02
792.364	-0.01
792.538	1.11
792.711	0.86
792.885	0.28
793.059	0.11
793.233	-0.24
793.406	0.81
793.58	0.39
793.754	0.7
793.927	0.43
794.101	0.74
794.274	0.47
794.448	0.69
794.622	0.08
794.795	0.81
794.969	0.44
795.142	0.87
795.316	0.15
795.489	0.26
795.663	0.98
795.836	0.58
796.009	0.18
796.183	0.66
796.356	0.74
796.53	0.37
796.703	0.51
796.876	1.31
797.05	0.46
797.223	0.28
797.396	0.52
797.57	0.66
797.743	1.03
797.916	0.48
798.09	0.38
798.263	0.88
798.436	0.83
798.609	0.11
798.782	0.31
798.956	0.68
799.129	0.34
799.302	0.42
799.475	0.21
799.648	0.31
799.821	0.34
799.994	0.51
800.167	-0.04
800.34	0.52
800.514	0.58
800.687	0.24
800.86	0.3
801.033	0.75
801.206	0.75
801.379	0.26
801.551	0.72
801.724	0.57
801.897	1.4
802.07	0.34
802.243	-0.19
802.416	0.6
802.589	0.25
802.762	0.68
802.935	0.3
803.107	0.88
803.28	1.17
803.453	0.68
803.626	0.42
803.798	0.56
803.971	0.36
804.144	0.47
804.317	0.74
804.489	1.16
804.662	0.68
804.835	0.13
805.007	0.15
805.18	1.42
805.353	0.78
805.525	0.14
805.698	0.28
805.87	0.77
806.043	0.84
806.215	-0.32
806.388	0.39
806.56	0.68
806.733	0.99
806.905	0.64
807.078	0.53
807.25	0.58
807.423	1.03
807.595	0.61
807.768	0.58
807.94	1.27
808.112	0.85
808.285	0.65
808.457	0.24
808.629	0.82
808.802	0.96
808.974	0.54
809.146	0.39
809.318	0.53
809.491	1
809.663	0.63
809.835	0.45
810.007	0.44
810.18	0.74
810.352	-0.14
810.524	0.33
810.696	0.82
810.868	1.06
811.04	0.61
811.212	0.36
811.384	0.94
811.556	0.9
811.728	0.26
811.901	1.95
812.073	0.87
812.245	0.91
812.417	0.57
812.589	-0.02
812.76	1.1
812.932	1.23
813.104	1.14
813.276	0.44
813.448	1.32
813.62	0.45
813.792	1.09
813.964	0.57
814.136	0.85
814.307	0.24
814.479	0.26
814.651	0.16
814.823	1.94
814.995	0.58
815.166	0.76
815.338	0.22
815.51	0.13
815.681	1.72
815.853	0.35
816.025	0.52
816.196	1.74
816.368	1.42
816.54	-0.03
816.711	0.25
816.883	1.44
817.054	1.78
817.226	-0.09
817.398	1.01
817.569	0.89
817.741	0.43
817.912	0.52
818.084	0.67
818.255	1.22
818.426	1
818.598	0.73
818.769	0.29
818.941	0.93
819.112	1.63
819.283	0.87
819.455	-0.18
819.626	0.62
819.798	1.23
819.969	1.09
820.14	0.47
820.311	0.88
820.483	0.68
820.654	0.36
820.825	0.66
820.996	0.51
821.168	-0.05
821.339	0.3
821.51	-0.01
821.681	0.5
821.852	1.08
822.023	0.51
822.195	-0.22
822.366	1.24
822.537	1.28
822.708	0.55
822.879	1
823.05	1.72
823.221	0.62
823.392	0.56
823.563	0.86
823.734	0.68
823.905	0.37
824.076	0.52
824.247	0.54
824.418	0.76
824.589	1.86
824.759	0.78
824.93	0.41
825.101	0.39
825.272	1.65
825.443	1.54
825.614	1.52
825.784	0.54
825.955	1.63
826.126	1.35
826.297	0.77
826.467	1.77
826.638	2.18
826.809	0.09
826.98	0.61
827.15	1.34
827.321	0.89
827.492	1.64
827.662	0.86
827.833	1.36
828.003	1.68
828.174	0.31
828.345	-0.13
828.515	1.91
828.686	1.23
828.856	0.76
829.027	0.72
829.197	1.51
829.368	1
829.538	0.41
829.709	0.28
829.879	1.34
830.049	0.97
830.22	0.79
830.39	0.54
830.56	1.66
830.731	0.86
830.901	0.24
831.072	0.52
831.242	1.6
831.412	1.36
831.582	0.93
831.753	-0.01
831.923	1.19
832.093	1.99
832.263	0.84
832.434	0.08
832.604	0.47
832.774	1.22
832.944	0.69
833.114	0.19
833.284	1.04
833.454	0.86
833.624	0.11
833.795	0.15
833.965	1.25
834.135	2.21
834.305	-0.27
834.475	-0.35
834.645	1.45
834.815	0.76
834.985	0.55
835.155	0.29
835.325	1.9
835.494	1.37
835.664	0.51
835.834	0.79
836.004	0.87
836.174	1.59
836.344	0.95
836.514	0.29
836.684	0.78
836.853	0.94
837.023	1.33
837.193	-0.44
837.363	1.21
837.532	1.64
837.702	0.86
837.872	0.51
838.041	1.57
838.211	2.75
838.381	0.11
838.55	0.64
838.72	4.13
838.89	2.42
839.059	0.85
839.229	0.18
839.398	3.34
839.568	1.35
839.738	0.45
839.907	1.91
840.077	0.67
840.246	0.52
840.416	0.52
840.585	0.25
840.755	2.85
840.924	2.65
841.093	0.43
841.263	0.99
841.432	0.96
841.602	0.15
841.771	0.06
841.94	1.15
842.11	3.69
842.279	2.43
842.448	-0.05
842.617	0.18
842.787	3.03
842.956	0.49
843.125	-0.04
843.294	0.73
843.464	2.27
843.633	1.34
843.802	-0.2
843.971	0.43
844.14	1.65
844.309	1.83
844.479	-0.55
844.648	0.79
844.817	1.01
844.986	1.03
845.155	0.71
845.324	0.74
845.493	1.33
845.662	0.38
845.831	1.61
846	1.99
846.169	1.7
846.338	2.87
846.507	1.62
846.676	0.99
846.844	0.21
847.013	2.22
847.182	1.2
847.351	-0.03
847.52	0.13
847.689	2.34
847.858	0.52
848.026	0.18
848.195	2.13
848.364	0.15
848.533	0.79
848.701	0.61
848.87	1.64
849.039	2.84
849.207	1.88
849.376	2.69
849.545	2.88
849.713	0.62
849.882	0.46
850.051	0.76
850.219	1.4
850.388	2.06
850.556	0.42
850.725	0.34
850.893	1.66
851.062	1.22
851.23	2.26
851.399	-0.21
851.567	1.67
851.736	0.99
851.904	-0.41
852.073	0.85
852.241	3.22
852.41	1.98
852.578	0.53
852.746	0
852.915	1.64
853.083	1.97
853.251	-0.03
853.42	0.64
853.588	1.59
853.756	2.64
853.924	1.34
854.093	0.85
854.261	1.17
854.429	-0.93
854.597	1.27
854.765	1.23
854.934	1.97
855.102	4.07
855.27	1.51
855.438	2.54
855.606	2.98
855.774	4.79
855.942	-0.07
856.11	0.67
856.278	2.37
856.446	2.67
856.614	1.7
856.782	0.66
856.95	2.23
857.118	3.09
857.286	1.11
857.454	0.44
857.622	2.94
857.79	3.43
857.958	-0.01
858.126	0.73
858.294	-1.59
858.462	1.13
858.629	-0.27
858.797	0.06
858.965	1.57
859.133	1.5
859.301	1.11
859.468	1.32
859.636	0.07
859.804	5.08
859.971	1.97
860.139	0.22
860.307	3.18
860.474	3.53
860.642	1.24
860.81	0.67
860.977	1.61
861.145	4.03
861.313	1.59
861.48	0.7
861.648	2.76
861.815	0.21
861.983	-0.23
862.15	0.65
862.318	3.89
862.485	3.69
862.653	0.13
862.82	-0.62
862.988	4.05
863.155	3.41
863.322	0.81
863.49	-0.7
863.657	1.91
863.824	4.92
863.992	2.18
864.159	1.18
864.326	3.08
864.494	1.41
864.661	3.68
864.828	1.15
864.996	4.67
865.163	4.37
865.33	0.2
865.497	-1.99
865.664	1.18
865.832	-0.22
865.999	1.17
866.166	-0.41
866.333	0.76
866.5	1.47
866.667	0.2
866.834	2.08
867.001	4.58
867.168	0.31
867.335	1.41
867.502	0.86
867.669	3.56
867.836	4.99
868.003	1.73
868.17	3.54
868.337	5.4
868.504	5.9
868.671	-1.06
868.838	1.96
869.005	4
869.172	4.72
869.339	3.2
869.505	2.03
869.672	2.58
869.839	5.66
870.006	2.33
870.173	-0.76
870.339	2.22
870.506	6.79
870.673	-0.02
870.84	4.29
871.006	1.49
871.173	1.04
871.34	1.77
871.506	-0.26
871.673	3.59
871.839	-0.26
872.006	2.06
872.173	-0.21
872.339	2.24
872.506	3.36
872.672	0.55
872.839	-0.08
873.005	2.53
873.172	5.8
873.338	3.77
873.505	0.07
873.671	3.11
873.838	4.46
874.004	-1.31
874.171	0
874.337	2.65
874.503	3.83
874.67	1.58
874.836	1.76
875.002	5.31
875.169	4.73
875.335	0.66
875.501	0.61
875.668	3.59
875.834	1.35
876	2.42
876.166	3.56
876.332	3.37
876.499	4.06
876.665	1.29
876.831	1.73
876.997	7.63
877.163	4.26
877.329	0.35
877.495	1.19
877.662	2.4
877.828	2.58
877.994	1.66
878.16	-0.92
878.326	1.29
878.492	5.02
878.658	2.04
878.824	1.86
878.99	4.65
879.156	2.12
879.322	4.85
879.487	2.09
879.653	2.07
879.819	1.73
879.985	-0.45
880.151	3.08
880.317	4.6
880.483	4.31
880.648	3.36
880.814	-0.91
880.98	1.2
881.146	-1.54
881.312	-0.51
881.477	1.88
881.643	2.8
881.809	2.54
881.974	3.55
882.14	-1
882.306	1.24
882.471	7.08
882.637	1.6
882.803	3.75
882.968	7.41
883.134	8.6
883.299	1.44
883.465	3.49
883.63	6.75
883.796	5.33
883.961	4.27
884.127	3.4
884.292	-2.25
884.458	-0.17
884.623	-0.17
