Data from Apollo_Calib_20240827__AbsoluteIrradiance__823__12-52-01-308.txt Node

Date: Wed Aug 28 12:52:01 BST 2024
User: biology
Spectrometer: FLMT08252
Trigger mode: 0
Integration Time (sec): 5.000000E-1
Scans to average: 5
Electric dark correction enabled: true
Nonlinearity correction enabled: false
Boxcar width: 0
XAxis mode: Wavelengths
Number of Pixels in Spectrum: 3648
>>>>>Begin Spectral Data<<<<<
179.588	-0
179.809	-0
180.03	-0
180.251	-0
180.473	-0
180.694	0
180.915	0
181.136	-0
181.357	0
181.578	-0
181.799	0
182.02	-0
182.241	-0
182.462	-0
182.683	0
182.904	-0
183.125	-0
183.346	0
183.567	0
183.788	0
184.009	0
184.23	0
184.451	0
184.672	0
184.892	0
185.113	0
185.334	0
185.555	0
185.776	0
185.996	0
186.217	0
186.438	0
186.659	0
186.879	0
187.1	0
187.321	0
187.541	0
187.762	0
187.983	0
188.203	0
188.424	0
188.644	0
188.865	0
189.086	0
189.306	0
189.527	0
189.747	0
189.968	0
190.188	0
190.409	0
190.629	0
190.849	0
191.07	0
191.29	0
191.511	0
191.731	0
191.951	0
192.172	0
192.392	0
192.612	0
192.833	0
193.053	0
193.273	0
193.493	0
193.714	0
193.934	0
194.154	0
194.374	0
194.594	0
194.815	0
195.035	0
195.255	0
195.475	0
195.695	0
195.915	0
196.135	0
196.355	0
196.575	0
196.795	0
197.015	0
197.235	0
197.455	0
197.675	0
197.895	0
198.115	0
198.335	0
198.555	0
198.775	0
198.995	0
199.214	0
199.434	0
199.654	0
199.874	0
200.094	4.09
200.313	2.07
200.533	1.81
200.753	1.31
200.973	4.02
201.192	2.89
201.412	1.11
201.632	1.94
201.851	3.27
202.071	1.91
202.291	1.48
202.51	1.39
202.73	2.73
202.95	2.01
203.169	1.36
203.389	1.94
203.608	2.25
203.828	1.73
204.047	1.35
204.267	1.88
204.486	2.17
204.706	2.32
204.925	1.66
205.145	1.39
205.364	2.35
205.583	2.83
205.803	1.64
206.022	1.24
206.242	1.71
206.461	1.61
206.68	1.28
206.9	1.45
207.119	2.6
207.338	2.24
207.557	1
207.777	1.06
207.996	1.14
208.215	2.27
208.434	1.03
208.654	0.82
208.873	1.47
209.092	2.2
209.311	1.23
209.53	1.32
209.749	1.28
209.968	1.29
210.187	0.97
210.407	0.7
210.626	1.12
210.845	1.56
211.064	0.89
211.283	0.87
211.502	1.61
211.721	1.11
211.94	1
212.159	1.31
212.377	1.39
212.596	1.49
212.815	1.24
213.034	1.29
213.253	1.29
213.472	1.22
213.691	1.11
213.91	0.76
214.128	0.79
214.347	1.71
214.566	0.45
214.785	0.38
215.003	1.22
215.222	1.37
215.441	0.91
215.66	0.55
215.878	1.21
216.097	1.21
216.316	0.61
216.534	0.89
216.753	1.03
216.972	0.92
217.19	0.84
217.409	0.58
217.627	0.72
217.846	0.85
218.064	1.06
218.283	0.54
218.501	1.39
218.72	1.12
218.938	0.71
219.157	0.78
219.375	1.07
219.594	1.14
219.812	0.59
220.031	0.42
220.249	1.16
220.467	1.21
220.686	0.58
220.904	0.45
221.122	0.71
221.341	1.13
221.559	0.6
221.777	0.47
221.995	0.68
222.214	0.91
222.432	0.63
222.65	0.95
222.868	0.68
223.086	0.82
223.305	0.82
223.523	0.64
223.741	1.09
223.959	0.56
224.177	0.39
224.395	0.56
224.613	0.79
224.831	0.94
225.049	0.51
225.267	0.54
225.485	0.77
225.703	0.62
225.921	0.55
226.139	0.46
226.357	0.95
226.575	0.87
226.793	0.5
227.011	1.65
227.229	0.73
227.447	0.88
227.665	0.4
227.883	0.43
228.1	0.63
228.318	0.86
228.536	0.26
228.754	0.44
228.972	0.71
229.189	0.76
229.407	0.62
229.625	0.48
229.843	0.83
230.06	0.81
230.278	0.49
230.496	0.54
230.713	0.73
230.931	0.72
231.149	0.47
231.366	0.37
231.584	0.66
231.801	1.13
232.019	0.5
232.236	0.47
232.454	0.46
232.671	0.57
232.889	0.42
233.106	0.34
233.324	0.63
233.541	0.53
233.759	0.56
233.976	0.4
234.194	0.66
234.411	0.47
234.628	0.47
234.846	0.54
235.063	0.55
235.28	0.53
235.498	0.48
235.715	0.42
235.932	0.79
236.149	0.57
236.367	0.37
236.584	0.51
236.801	0.46
237.018	0.79
237.236	0.43
237.453	0.3
237.67	0.71
237.887	0.65
238.104	0.47
238.321	0.36
238.538	0.31
238.755	0.69
238.973	0.29
239.19	0.55
239.407	0.7
239.624	0.59
239.841	0.44
240.058	0.28
240.275	0.47
240.492	0.57
240.709	0.38
240.925	0.36
241.142	0.46
241.359	0.42
241.576	0.35
241.793	0.31
242.01	0.47
242.227	0.73
242.444	0.56
242.66	0.66
242.877	0.48
243.094	0.47
243.311	0.48
243.527	0.38
243.744	0.55
243.961	0.5
244.178	0.31
244.394	0.37
244.611	0.59
244.828	0.68
245.044	0.34
245.261	0.33
245.477	0.52
245.694	0.57
245.911	0.37
246.127	0.38
246.344	0.58
246.56	0.65
246.777	0.32
246.993	0.38
247.21	0.48
247.426	0.61
247.643	0.34
247.859	0.32
248.076	0.28
248.292	0.63
248.508	0.35
248.725	0.48
248.941	0.54
249.157	0.61
249.374	0.26
249.59	0.34
249.806	0.43
250.023	0.46
250.239	0.33
250.455	0.31
250.671	0.43
250.888	0.5
251.104	0.45
251.32	0.38
251.536	0.38
251.752	0.42
251.969	0.34
252.185	0.37
252.401	0.7
252.617	0.5
252.833	0.35
253.049	0.37
253.265	0.5
253.481	0.48
253.697	0.4
253.913	0.35
254.129	0.41
254.345	0.52
254.561	0.38
254.777	0.38
254.993	0.44
255.209	0.42
255.425	0.36
255.641	0.34
255.857	0.48
256.073	0.45
256.288	0.26
256.504	0.29
256.72	0.5
256.936	0.65
257.152	0.34
257.367	0.28
257.583	0.35
257.799	0.53
258.015	0.32
258.23	0.28
258.446	0.61
258.662	0.29
258.877	0.35
259.093	0.24
259.309	0.45
259.524	0.43
259.74	0.34
259.955	0.2
260.171	0.42
260.387	0.42
260.602	0.39
260.818	0.42
261.033	0.31
261.249	0.42
261.464	0.32
261.68	0.25
261.895	0.44
262.11	0.47
262.326	0.31
262.541	0.27
262.757	0.44
262.972	0.44
263.187	0.32
263.403	0.39
263.618	0.45
263.833	0.43
264.049	0.29
264.264	0.35
264.479	0.39
264.694	0.52
264.91	0.24
265.125	0.32
265.34	0.47
265.555	0.52
265.77	0.34
265.986	0.3
266.201	0.42
266.416	0.48
266.631	0.34
266.846	0.28
267.061	0.48
267.276	0.43
267.491	0.21
267.706	0.38
267.921	0.39
268.136	0.37
268.351	0.33
268.566	0.23
268.781	0.46
268.996	0.43
269.211	0.32
269.426	0.26
269.641	0.32
269.856	0.44
270.071	0.26
270.285	0.25
270.5	0.43
270.715	0.41
270.93	0.29
271.145	0.43
271.359	0.47
271.574	0.31
271.789	0.32
272.004	0.25
272.218	0.24
272.433	0.42
272.648	0.3
272.862	0.35
273.077	0.36
273.292	0.37
273.506	0.37
273.721	0.32
273.936	0.4
274.15	0.47
274.365	0.27
274.579	0.29
274.794	0.38
275.008	0.43
275.223	0.2
275.437	0.29
275.652	0.39
275.866	0.4
276.081	0.32
276.295	0.35
276.509	0.37
276.724	0.35
276.938	0.35
277.153	0.38
277.367	0.39
277.581	0.26
277.796	0.24
278.01	0.25
278.224	0.4
278.438	0.5
278.653	0.28
278.867	0.25
279.081	0.35
279.295	0.29
279.51	0.36
279.724	0.19
279.938	0.36
280.152	0.39
280.366	0.34
280.58	0.35
280.794	0.5
281.008	0.31
281.222	0.37
281.437	0.46
281.651	0.32
281.865	0.45
282.079	0.34
282.293	0.21
282.507	0.26
282.721	0.3
282.935	0.28
283.148	0.17
283.362	0.28
283.576	0.23
283.79	0.3
284.004	0.25
284.218	0.42
284.432	0.24
284.646	0.29
284.859	0.23
285.073	0.25
285.287	0.28
285.501	0.3
285.714	0.29
285.928	0.26
286.142	0.32
286.356	0.28
286.569	0.26
286.783	0.37
286.997	0.34
287.21	0.33
287.424	0.28
287.637	0.31
287.851	0.25
288.065	0.38
288.278	0.22
288.492	0.3
288.705	0.28
288.919	0.34
289.132	0.19
289.346	0.32
289.559	0.17
289.773	0.24
289.986	0.26
290.2	0.27
290.413	0.33
290.626	0.24
290.84	0.23
291.053	0.27
291.267	0.45
291.48	0.22
291.693	0.26
291.906	0.28
292.12	0.3
292.333	0.25
292.546	0.28
292.76	0.33
292.973	0.33
293.186	0.29
293.399	0.21
293.612	0.37
293.826	0.26
294.039	0.28
294.252	0.27
294.465	0.33
294.678	0.29
294.891	0.27
295.104	0.23
295.317	0.24
295.53	0.29
295.743	0.27
295.956	0.26
296.169	0.35
296.382	0.33
296.595	0.24
296.808	0.21
297.021	0.36
297.234	0.34
297.447	0.26
297.66	0.28
297.873	0.34
298.086	0.34
298.299	0.22
298.511	0.13
298.724	0.26
298.937	0.23
299.15	0.23
299.363	0.26
299.575	0.35
299.788	0.3
300.001	0.28
300.213	0.2
300.426	0.25
300.639	0.19
300.852	0.21
301.064	0.29
301.277	0.35
301.489	0.33
301.702	0.26
301.915	0.28
302.127	0.27
302.34	0.3
302.552	0.33
302.765	0.22
302.977	0.37
303.19	0.19
303.402	0.24
303.615	0.24
303.827	0.27
304.04	0.29
304.252	0.27
304.464	0.22
304.677	0.39
304.889	0.28
305.102	0.21
305.314	0.2
305.526	0.26
305.739	0.31
305.951	0.21
306.163	0.24
306.375	0.37
306.588	0.23
306.8	0.24
307.012	0.24
307.224	0.26
307.436	0.31
307.649	0.16
307.861	0.24
308.073	0.34
308.285	0.23
308.497	0.18
308.709	0.26
308.921	0.25
309.133	0.31
309.346	0.22
309.558	0.22
309.77	0.32
309.982	0.34
310.194	0.31
310.406	0.19
310.617	0.41
310.829	0.31
311.041	0.29
311.253	0.19
311.465	0.3
311.677	0.22
311.889	0.27
312.101	0.22
312.313	0.31
312.524	0.36
312.736	0.14
312.948	0.28
313.16	0.37
313.372	0.33
313.583	0.28
313.795	0.24
314.007	0.22
314.218	0.3
314.43	0.23
314.642	0.24
314.853	0.18
315.065	0.32
315.277	0.24
315.488	0.24
315.7	0.3
315.912	0.27
316.123	0.22
316.335	0.26
316.546	0.42
316.758	0.29
316.969	0.26
317.181	0.21
317.392	0.29
317.604	0.32
317.815	0.2
318.026	0.2
318.238	0.26
318.449	0.34
318.661	0.19
318.872	0.2
319.083	0.26
319.295	0.31
319.506	0.23
319.717	0.25
319.929	0.36
320.14	0.29
320.351	0.25
320.562	0.25
320.774	0.26
320.985	0.27
321.196	0.23
321.407	0.17
321.618	0.32
321.829	0.27
322.041	0.27
322.252	0.27
322.463	0.33
322.674	0.32
322.885	0.22
323.096	0.22
323.307	0.21
323.518	0.3
323.729	0.24
323.94	0.21
324.151	0.23
324.362	0.32
324.573	0.26
324.784	0.25
324.995	0.31
325.206	0.27
325.417	0.21
325.628	0.26
325.838	0.26
326.049	0.3
326.26	0.28
326.471	0.21
326.682	0.29
326.892	0.25
327.103	0.18
327.314	0.23
327.525	0.32
327.735	0.3
327.946	0.23
328.157	0.2
328.368	0.27
328.578	0.24
328.789	0.31
328.999	0.22
329.21	0.21
329.421	0.34
329.631	0.24
329.842	0.19
330.052	0.3
330.263	0.3
330.473	0.26
330.684	0.25
330.894	0.27
331.105	0.31
331.315	0.29
331.526	0.21
331.736	0.37
331.947	0.28
332.157	0.26
332.367	0.2
332.578	0.27
332.788	0.33
332.999	0.28
333.209	0.22
333.419	0.2
333.629	0.3
333.84	0.27
334.05	0.23
334.26	0.38
334.47	0.3
334.681	0.31
334.891	0.25
335.101	0.26
335.311	0.38
335.521	0.24
335.732	0.16
335.942	0.35
336.152	0.28
336.362	0.22
336.572	0.21
336.782	0.3
336.992	0.25
337.202	0.28
337.412	0.27
337.622	0.33
337.832	0.26
338.042	0.24
338.252	0.22
338.462	0.24
338.672	0.28
338.882	0.18
339.092	0.26
339.302	0.37
339.511	0.28
339.721	0.24
339.931	0.21
340.141	0.34
340.351	0.33
340.561	0.28
340.77	0.27
340.98	0.3
341.19	0.29
341.4	0.27
341.609	0.18
341.819	0.26
342.029	0.22
342.238	0.25
342.448	0.2
342.658	0.31
342.867	0.29
343.077	0.25
343.286	0.23
343.496	0.32
343.706	0.34
343.915	0.18
344.125	0.24
344.334	0.31
344.544	0.17
344.753	0.16
344.963	0.2
345.172	0.24
345.381	0.23
345.591	0.21
345.8	0.24
346.01	0.32
346.219	0.31
346.428	0.22
346.638	0.24
346.847	0.24
347.056	0.31
347.266	0.22
347.475	0.22
347.684	0.3
347.893	0.3
348.103	0.27
348.312	0.22
348.521	0.2
348.73	0.29
348.94	0.27
349.149	0.21
349.358	0.23
349.567	0.23
349.776	0.21
349.985	0.19
350.194	0.3
350.403	0.32
350.612	0.2
350.821	0.21
351.03	0.23
351.239	0.2
351.448	0.25
351.657	0.21
351.866	0.38
352.075	0.26
352.284	0.19
352.493	0.2
352.702	0.3
352.911	0.25
353.12	0.18
353.329	0.18
353.538	0.33
353.746	0.27
353.955	0.2
354.164	0.27
354.373	0.23
354.582	0.29
354.79	0.25
354.999	0.32
355.208	0.24
355.416	0.33
355.625	0.18
355.834	0.2
356.042	0.29
356.251	0.22
356.46	0.21
356.668	0.24
356.877	0.37
357.085	0.3
357.294	0.14
357.503	0.22
357.711	0.21
357.92	0.41
358.128	0.26
358.337	0.19
358.545	0.28
358.754	0.22
358.962	0.26
359.17	0.25
359.379	0.3
359.587	0.28
359.796	0.24
360.004	0.31
360.212	0.28
360.421	0.35
360.629	0.19
360.837	0.23
361.046	0.31
361.254	0.38
361.462	0.23
361.67	0.21
361.879	0.25
362.087	0.34
362.295	0.23
362.503	0.25
362.711	0.22
362.92	0.24
363.128	0.2
363.336	0.22
363.544	0.21
363.752	0.22
363.96	0.2
364.168	0.24
364.376	0.28
364.584	0.29
364.792	0.32
365	0.24
365.208	0.27
365.416	0.3
365.624	0.32
365.832	0.22
366.04	0.35
366.248	0.28
366.456	0.27
366.664	0.24
366.872	0.24
367.079	0.24
367.287	0.24
367.495	0.29
367.703	0.23
367.911	0.23
368.118	0.24
368.326	0.26
368.534	0.21
368.742	0.35
368.949	0.21
369.157	0.22
369.365	0.3
369.572	0.24
369.78	0.26
369.988	0.29
370.195	0.26
370.403	0.31
370.61	0.21
370.818	0.26
371.026	0.31
371.233	0.25
371.441	0.28
371.648	0.21
371.856	0.27
372.063	0.27
372.271	0.25
372.478	0.24
372.685	0.22
372.893	0.27
373.1	0.23
373.308	0.21
373.515	0.35
373.722	0.32
373.93	0.22
374.137	0.26
374.344	0.34
374.552	0.31
374.759	0.3
374.966	0.24
375.173	0.25
375.381	0.32
375.588	0.28
375.795	0.19
376.002	0.21
376.209	0.24
376.417	0.25
376.624	0.3
376.831	0.31
377.038	0.22
377.245	0.18
377.452	0.22
377.659	0.31
377.866	0.22
378.073	0.28
378.28	0.25
378.487	0.38
378.694	0.33
378.901	0.23
379.108	0.22
379.315	0.36
379.522	0.37
379.729	0.31
379.936	0.26
380.143	0.28
380.35	0.31
380.557	0.27
380.763	0.26
380.97	0.32
381.177	0.24
381.384	0.25
381.591	0.19
381.797	0.28
382.004	0.33
382.211	0.27
382.418	0.23
382.624	0.28
382.831	0.35
383.038	0.25
383.244	0.29
383.451	0.25
383.658	0.31
383.864	0.24
384.071	0.23
384.277	0.38
384.484	0.26
384.69	0.33
384.897	0.2
385.103	0.23
385.31	0.23
385.516	0.25
385.723	0.21
385.929	0.29
386.136	0.28
386.342	0.32
386.549	0.21
386.755	0.39
386.961	0.33
387.168	0.26
387.374	0.3
387.58	0.34
387.787	0.3
387.993	0.34
388.199	0.27
388.406	0.27
388.612	0.26
388.818	0.27
389.024	0.23
389.231	0.29
389.437	0.39
389.643	0.29
389.849	0.33
390.055	0.31
390.261	0.29
390.467	0.34
390.674	0.25
390.88	0.29
391.086	0.37
391.292	0.22
391.498	0.35
391.704	0.3
391.91	0.29
392.116	0.29
392.322	0.13
392.528	0.35
392.734	0.27
392.94	0.29
393.146	0.31
393.352	0.37
393.557	0.33
393.763	0.32
393.969	0.37
394.175	0.3
394.381	0.31
394.587	0.26
394.792	0.3
394.998	0.34
395.204	0.37
395.41	0.29
395.615	0.35
395.821	0.33
396.027	0.34
396.233	0.29
396.438	0.28
396.644	0.38
396.85	0.36
397.055	0.34
397.261	0.33
397.466	0.34
397.672	0.36
397.878	0.36
398.083	0.36
398.289	0.29
398.494	0.41
398.7	0.35
398.905	0.21
399.111	0.46
399.316	0.23
399.522	0.34
399.727	0.34
399.932	0.35
400.138	0.32
400.343	0.37
400.549	0.38
400.754	0.38
400.959	0.39
401.165	0.32
401.37	0.38
401.575	0.47
401.78	0.35
401.986	0.36
402.191	0.34
402.396	0.4
402.601	0.39
402.807	0.39
403.012	0.38
403.217	0.42
403.422	0.41
403.627	0.37
403.832	0.41
404.037	0.43
404.243	0.41
404.448	0.34
404.653	0.4
404.858	0.44
405.063	0.46
405.268	0.37
405.473	0.4
405.678	0.45
405.883	0.7
406.088	0.41
406.293	0.38
406.498	0.42
406.703	0.5
406.907	0.46
407.112	0.44
407.317	0.52
407.522	0.59
407.727	0.47
407.932	0.54
408.136	0.69
408.341	0.55
408.546	0.55
408.751	0.54
408.956	0.55
409.16	0.65
409.365	0.62
409.57	0.6
409.774	0.59
409.979	0.69
410.184	0.65
410.388	0.61
410.593	0.77
410.798	0.71
411.002	0.71
411.207	0.75
411.411	0.75
411.616	0.7
411.82	0.8
412.025	0.77
412.229	0.75
412.434	0.92
412.638	0.91
412.843	0.86
413.047	0.93
413.252	0.86
413.456	0.94
413.66	1.06
413.865	0.96
414.069	1.08
414.273	1.03
414.478	0.99
414.682	1.09
414.886	1.16
415.091	1.16
415.295	1.18
415.499	1.3
415.703	1.24
415.908	1.35
416.112	1.28
416.316	1.46
416.52	1.49
416.724	1.44
416.929	1.45
417.133	1.76
417.337	1.57
417.541	1.7
417.745	1.72
417.949	1.81
418.153	1.85
418.357	1.85
418.561	2.11
418.765	1.97
418.969	2.2
419.173	2.25
419.377	2.17
419.581	2.43
419.785	2.44
419.989	2.43
420.193	2.61
420.397	2.66
420.601	2.78
420.804	2.89
421.008	2.83
421.212	3.01
421.416	3.03
421.62	2.97
421.823	3.08
422.027	3.23
422.231	3.21
422.435	3.17
422.638	3.3
422.842	3.45
423.046	3.43
423.249	3.64
423.453	3.64
423.657	3.75
423.86	3.87
424.064	4
424.268	4.12
424.471	4.09
424.675	4.36
424.878	4.39
425.082	4.44
425.285	4.74
425.489	4.71
425.692	4.71
425.896	4.8
426.099	5.07
426.303	5.2
426.506	5.26
426.71	5.49
426.913	5.73
427.116	5.87
427.32	5.89
427.523	5.92
427.726	6.2
427.93	6.39
428.133	6.68
428.336	6.72
428.54	6.89
428.743	7.06
428.946	7.26
429.149	7.39
429.353	7.5
429.556	7.48
429.759	7.48
429.962	7.63
430.165	7.75
430.368	7.45
430.571	7.54
430.775	7.56
430.978	7.61
431.181	7.64
431.384	7.78
431.587	7.94
431.79	8.28
431.993	8.26
432.196	8.43
432.399	8.81
432.602	8.9
432.805	9.16
433.008	9.48
433.211	9.45
433.414	9.78
433.616	9.8
433.819	9.84
434.022	10
434.225	10.1
434.428	10.11
434.631	10.53
434.833	10.45
435.036	10.64
435.239	10.78
435.442	10.75
435.645	11
435.847	11.13
436.05	11.39
436.253	11.62
436.455	11.56
436.658	11.54
436.861	11.82
437.063	11.9
437.266	11.9
437.468	12.16
437.671	12.66
437.874	12.57
438.076	12.24
438.279	12.92
438.481	12.88
438.684	13.64
438.886	13.22
439.089	13.53
439.291	13.64
439.494	14.06
439.696	14.01
439.899	14.59
440.101	14.99
440.303	15.14
440.506	15.78
440.708	15.54
440.91	15.91
441.113	16.08
441.315	16.19
441.517	16.03
441.72	16.51
441.922	16.18
442.124	16.11
442.326	16.5
442.529	16.81
442.731	16.72
442.933	17.03
443.135	16.75
443.337	16.71
443.539	17.27
443.742	16.96
443.944	17.67
444.146	17.37
444.348	17.55
444.55	17.38
444.752	17.65
444.954	17.58
445.156	17.43
445.358	17.88
445.56	18.15
445.762	18.03
445.964	18.44
446.166	17.92
446.368	18.16
446.57	18.23
446.772	17.77
446.974	17.61
447.175	17.88
447.377	17.65
447.579	17.98
447.781	17.7
447.983	17.59
448.184	17.14
448.386	17.56
448.588	16.97
448.79	17.08
448.991	17.45
449.193	17.38
449.395	16.82
449.597	16.48
449.798	16.43
450	15.99
450.202	15.87
450.403	15.95
450.605	15.8
450.806	15.49
451.008	15.41
451.21	15.16
451.411	14.78
451.613	14.02
451.814	14.24
452.016	14.2
452.217	13.53
452.419	13.6
452.62	13.27
452.821	12.99
453.023	12.91
453.224	12.54
453.426	12.24
453.627	11.46
453.828	11.52
454.03	11.59
454.231	11.71
454.432	11.42
454.634	11.14
454.835	10.86
455.036	10.95
455.238	10.43
455.439	10.2
455.64	10.04
455.841	9.85
456.042	9.93
456.244	9.52
456.445	9.34
456.646	9.03
456.847	8.87
457.048	8.84
457.249	8.85
457.45	8.63
457.651	8.04
457.852	7.95
458.054	7.6
458.255	7.55
458.456	7.54
458.657	7.47
458.858	7.05
459.058	7
459.259	7.04
459.46	6.63
459.661	6.69
459.862	6.71
460.063	6.62
460.264	6.57
460.465	6.27
460.666	6.36
460.866	5.92
461.067	5.8
461.268	5.87
461.469	5.73
461.67	5.59
461.87	5.41
462.071	5.38
462.272	5.41
462.473	5.33
462.673	5.54
462.874	5.28
463.075	5.36
463.275	5.32
463.476	5.37
463.676	5.33
463.877	5.11
464.078	5.13
464.278	5.2
464.479	5.03
464.679	4.94
464.88	4.94
465.08	4.97
465.281	4.7
465.481	4.48
465.682	4.31
465.882	4.33
466.083	4.28
466.283	4.26
466.483	4.1
466.684	3.89
466.884	3.82
467.085	3.84
467.285	3.93
467.485	3.8
467.686	3.69
467.886	3.57
468.086	3.49
468.286	3.48
468.487	3.62
468.687	3.39
468.887	3.42
469.087	3.54
469.287	3.4
469.488	3.25
469.688	3.37
469.888	3.4
470.088	3.29
470.288	3.21
470.488	3.19
470.688	2.95
470.888	3
471.088	2.84
471.288	2.97
471.488	2.91
471.688	2.88
471.888	2.78
472.088	2.9
472.288	2.84
472.488	2.75
472.688	2.69
472.888	2.74
473.088	2.66
473.288	2.61
473.488	2.54
473.688	2.72
473.887	2.59
474.087	2.54
474.287	2.57
474.487	2.53
474.687	2.54
474.886	2.49
475.086	2.38
475.286	2.45
475.486	2.36
475.685	2.35
475.885	2.31
476.085	2.36
476.284	2.35
476.484	2.35
476.684	2.29
476.883	2.41
477.083	2.22
477.282	2.24
477.482	2.32
477.681	2.25
477.881	2.14
478.08	2.16
478.28	2.18
478.479	2.19
478.679	2.31
478.878	2.1
479.078	2.11
479.277	2.22
479.477	2.12
479.676	2.14
479.875	2.13
480.075	2.03
480.274	2.07
480.473	2.13
480.673	2.06
480.872	2.15
481.071	2.12
481.271	2.13
481.47	2.07
481.669	2.07
481.868	2.01
482.067	2.02
482.267	1.96
482.466	2.01
482.665	2.03
482.864	2
483.063	1.97
483.262	2.13
483.461	2.13
483.661	2.14
483.86	2.09
484.059	2.11
484.258	2.04
484.457	2.09
484.656	2.05
484.855	2.16
485.054	1.97
485.253	2.01
485.452	2.06
485.651	2.11
485.849	2.08
486.048	2.03
486.247	2.04
486.446	2.15
486.645	2.08
486.844	2.14
487.043	2.1
487.241	2.13
487.44	2.13
487.639	2.18
487.838	2.17
488.037	2.14
488.235	2.27
488.434	2.18
488.633	2.12
488.831	2.24
489.03	2.28
489.229	2.25
489.427	2.25
489.626	2.31
489.825	2.32
490.023	2.34
490.222	2.3
490.42	2.36
490.619	2.39
490.817	2.39
491.016	2.39
491.214	2.44
491.413	2.42
491.611	2.39
491.81	2.43
492.008	2.51
492.207	2.56
492.405	2.54
492.604	2.51
492.802	2.56
493	2.57
493.199	2.65
493.397	2.63
493.595	2.7
493.794	2.67
493.992	2.78
494.19	2.76
494.388	2.83
494.587	2.78
494.785	2.8
494.983	2.7
495.181	2.84
495.379	2.93
495.578	2.95
495.776	2.95
495.974	2.95
496.172	2.96
496.37	3.08
496.568	3.06
496.766	3.06
496.964	3.16
497.162	3.2
497.36	3.17
497.558	3.24
497.756	3.28
497.954	3.28
498.152	3.36
498.35	3.41
498.548	3.34
498.746	3.43
498.944	3.41
499.142	3.41
499.34	3.48
499.538	3.63
499.736	3.52
499.933	3.6
500.131	3.62
500.329	3.76
500.527	3.72
500.725	3.87
500.922	3.84
501.12	3.85
501.318	3.93
501.516	3.88
501.713	4
501.911	3.95
502.109	3.91
502.306	4.09
502.504	3.99
502.701	4.07
502.899	4.1
503.097	4.28
503.294	4.15
503.492	4.31
503.689	4.33
503.887	4.31
504.084	4.44
504.282	4.37
504.479	4.36
504.677	4.53
504.874	4.5
505.072	4.44
505.269	4.62
505.466	4.68
505.664	4.69
505.861	4.61
506.059	4.73
506.256	4.77
506.453	4.8
506.651	4.93
506.848	4.91
507.045	4.88
507.242	4.9
507.44	4.97
507.637	5.04
507.834	4.97
508.031	5.18
508.229	5.09
508.426	5.08
508.623	5.23
508.82	5.22
509.017	5.23
509.214	5.21
509.411	5.34
509.608	5.27
509.805	5.43
510.003	5.38
510.2	5.44
510.397	5.62
510.594	5.47
510.791	5.6
510.988	5.51
511.184	5.59
511.381	5.45
511.578	5.61
511.775	5.78
511.972	5.7
512.169	5.73
512.366	5.74
512.563	5.87
512.76	5.91
512.956	5.94
513.153	5.82
513.35	5.84
513.547	5.84
513.744	5.97
513.94	5.94
514.137	6.08
514.334	6.08
514.53	6.11
514.727	6.25
514.924	6.21
515.12	6.15
515.317	6.14
515.514	6.14
515.71	6.11
515.907	6.31
516.103	6.35
516.3	6.25
516.497	6.39
516.693	6.42
516.89	6.35
517.086	6.37
517.283	6.45
517.479	6.35
517.676	6.54
517.872	6.56
518.068	6.55
518.265	6.51
518.461	6.48
518.658	6.65
518.854	6.62
519.05	6.75
519.247	6.77
519.443	6.67
519.639	6.83
519.836	6.71
520.032	6.67
520.228	6.85
520.424	6.83
520.621	6.81
520.817	6.87
521.013	6.79
521.209	7.03
521.405	6.99
521.601	6.94
521.798	6.87
521.994	6.94
522.19	6.88
522.386	6.91
522.582	7.02
522.778	7.18
522.974	7.06
523.17	7.04
523.366	7
523.562	7.09
523.758	7.1
523.954	6.98
524.15	7.1
524.346	7.17
524.542	7.13
524.738	7.2
524.934	7.3
525.129	7.19
525.325	7.14
525.521	7.19
525.717	7.4
525.913	7.24
526.109	7.27
526.304	7.38
526.5	7.41
526.696	7.39
526.892	7.3
527.087	7.52
527.283	7.43
527.479	7.41
527.674	7.2
527.87	7.45
528.066	7.39
528.261	7.46
528.457	7.37
528.653	7.49
528.848	7.48
529.044	7.59
529.239	7.48
529.435	7.47
529.63	7.42
529.826	7.42
530.021	7.52
530.217	7.51
530.412	7.46
530.608	7.56
530.803	7.57
530.999	7.39
531.194	7.51
531.389	7.6
531.585	7.59
531.78	7.72
531.975	7.63
532.171	7.69
532.366	7.63
532.561	7.67
532.757	7.65
532.952	7.79
533.147	7.55
533.342	7.65
533.538	7.61
533.733	7.84
533.928	7.49
534.123	7.73
534.318	7.78
534.513	7.69
534.709	7.83
534.904	7.73
535.099	7.82
535.294	7.81
535.489	7.87
535.684	7.75
535.879	7.72
536.074	7.85
536.269	7.85
536.464	7.91
536.659	7.79
536.854	7.83
537.049	7.93
537.244	7.82
537.439	7.77
537.634	7.85
537.828	7.9
538.023	7.79
538.218	7.84
538.413	7.73
538.608	7.81
538.803	7.87
538.997	7.81
539.192	7.89
539.387	7.81
539.582	7.89
539.776	7.77
539.971	7.95
540.166	7.99
540.36	7.85
540.555	8.05
540.75	7.94
540.944	7.9
541.139	7.95
541.334	7.88
541.528	7.96
541.723	8.01
541.917	7.98
542.112	7.86
542.306	7.8
542.501	7.85
542.695	7.91
542.89	7.9
543.084	7.94
543.279	7.92
543.473	7.99
543.668	8.04
543.862	7.82
544.056	7.83
544.251	7.99
544.445	8.04
544.64	8.01
544.834	7.78
545.028	7.6
545.222	7.94
545.417	8.12
545.611	8.08
545.805	7.96
546	7.84
546.194	8.03
546.388	8.05
546.582	7.93
546.776	7.94
546.97	7.97
547.165	8.02
547.359	7.98
547.553	7.9
547.747	7.94
547.941	8.19
548.135	7.98
548.329	8.07
548.523	8.01
548.717	7.95
548.911	7.92
549.105	7.95
549.299	8.06
549.493	7.99
549.687	7.96
549.881	8.06
550.075	8.06
550.269	7.93
550.463	8.07
550.657	8.04
550.85	8.01
551.044	8
551.238	8.09
551.432	8
551.626	8.06
551.82	8.12
552.013	7.93
552.207	8.09
552.401	8.08
552.594	8.04
552.788	7.9
552.982	8.01
553.176	7.95
553.369	8.17
553.563	8.11
553.756	7.92
553.95	8.1
554.144	8.12
554.337	8.07
554.531	7.89
554.724	8.03
554.918	8.13
555.111	8.02
555.305	8.02
555.498	8.04
555.692	8.13
555.885	8.11
556.079	7.99
556.272	8.06
556.466	8.05
556.659	8.01
556.852	8.13
557.046	7.95
557.239	7.9
557.432	8.02
557.626	8.08
557.819	8.15
558.012	8.07
558.206	8.13
558.399	8.1
558.592	7.96
558.785	7.98
558.979	8.06
559.172	8.06
559.365	8.08
559.558	7.96
559.751	7.98
559.944	8.05
560.138	8.01
560.331	8.06
560.524	8.04
560.717	8.04
560.91	8.07
561.103	8.09
561.296	7.9
561.489	8.07
561.682	8.08
561.875	8.1
562.068	8.13
562.261	7.93
562.454	8.24
562.647	8.03
562.84	8.02
563.032	8.07
563.225	7.96
563.418	7.98
563.611	8.11
563.804	8.08
563.997	7.91
564.19	7.83
564.382	8.09
564.575	8.03
564.768	8.04
564.961	8.07
565.153	7.9
565.346	7.93
565.539	8.08
565.731	8.05
565.924	8.12
566.117	8.19
566.309	8.08
566.502	8.03
566.695	8
566.887	8.05
567.08	8.02
567.272	8.09
567.465	7.97
567.657	8.09
567.85	7.96
568.042	8.02
568.235	8.02
568.427	7.82
568.62	8.03
568.812	7.96
569.005	8
569.197	7.93
569.389	8.06
569.582	7.95
569.774	7.98
569.966	7.93
570.159	7.92
570.351	7.91
570.543	7.97
570.736	7.97
570.928	7.8
571.12	7.98
571.312	7.94
571.505	7.64
571.697	7.95
571.889	7.97
572.081	8
572.273	7.83
572.465	7.92
572.658	7.93
572.85	7.88
573.042	7.97
573.234	7.83
573.426	7.88
573.618	7.84
573.81	7.88
574.002	7.86
574.194	7.92
574.386	7.79
574.578	7.74
574.77	7.84
574.962	7.87
575.154	7.77
575.346	7.76
575.538	7.8
575.729	7.75
575.921	7.89
576.113	7.91
576.305	7.82
576.497	7.94
576.689	7.71
576.88	7.68
577.072	7.93
577.264	7.77
577.456	7.77
577.647	7.76
577.839	7.87
578.031	7.77
578.223	7.76
578.414	7.63
578.606	7.73
578.798	7.85
578.989	7.69
579.181	7.81
579.372	7.76
579.564	7.77
579.755	7.69
579.947	7.65
580.139	7.79
580.33	7.6
580.522	7.71
580.713	7.7
580.905	7.67
581.096	7.79
581.287	7.64
581.479	7.62
581.67	7.65
581.862	7.63
582.053	7.64
582.244	7.52
582.436	7.74
582.627	7.6
582.818	7.51
583.01	7.54
583.201	7.64
583.392	7.58
583.583	7.49
583.775	7.42
583.966	7.45
584.157	7.55
584.348	7.6
584.54	7.47
584.731	7.48
584.922	7.44
585.113	7.32
585.304	7.46
585.495	7.42
585.686	7.54
585.877	7.53
586.068	7.56
586.259	7.52
586.45	7.48
586.641	7.43
586.832	7.53
587.023	7.37
587.214	7.35
587.405	7.49
587.596	7.29
587.787	7.24
587.978	7.35
588.169	7.27
588.36	7.31
588.551	7.38
588.742	7.34
588.932	7.36
589.123	7.15
589.314	7.44
589.505	7.3
589.696	7.3
589.886	7.28
590.077	7.3
590.268	7.23
590.458	7.18
590.649	7.03
590.84	7.2
591.03	7.21
591.221	7.21
591.412	7.05
591.602	7.29
591.793	7.18
591.984	7.19
592.174	7.13
592.365	7.32
592.555	7.04
592.746	7.02
592.936	7.06
593.127	7.09
593.317	7.16
593.508	7.13
593.698	7
593.889	7.02
594.079	7.03
594.269	6.93
594.46	6.9
594.65	7.01
594.84	6.95
595.031	6.87
595.221	6.88
595.411	6.89
595.602	6.97
595.792	6.89
595.982	6.83
596.172	7.01
596.363	6.84
596.553	6.84
596.743	6.82
596.933	6.8
597.123	6.8
597.314	6.72
597.504	6.77
597.694	6.81
597.884	6.77
598.074	6.83
598.264	6.72
598.454	6.69
598.644	6.71
598.834	6.67
599.024	6.51
599.214	6.62
599.404	6.72
599.594	6.59
599.784	6.52
599.974	6.64
600.164	6.64
600.354	6.56
600.544	6.53
600.734	6.59
600.924	6.59
601.114	6.47
601.303	6.47
601.493	6.52
601.683	6.48
601.873	6.47
602.063	6.44
602.252	6.48
602.442	6.37
602.632	6.35
602.821	6.28
603.011	6.38
603.201	6.37
603.39	6.38
603.58	6.22
603.77	6.32
603.959	6.34
604.149	6.27
604.339	6.35
604.528	6.35
604.718	6.31
604.907	6.23
605.097	6.19
605.286	6.17
605.476	6.15
605.665	6.18
605.855	6.09
606.044	6.2
606.234	6.17
606.423	6.07
606.612	6.08
606.802	6.06
606.991	6.14
607.181	6.16
607.37	6.09
607.559	5.88
607.749	6.04
607.938	5.91
608.127	6
608.316	5.97
608.506	5.91
608.695	5.95
608.884	5.91
609.073	5.92
609.263	6
609.452	5.91
609.641	5.78
609.83	5.78
610.019	5.88
610.208	5.73
610.397	5.83
610.586	5.83
610.775	5.7
610.965	5.75
611.154	5.62
611.343	5.78
611.532	5.64
611.721	5.73
611.91	5.64
612.099	5.68
612.287	5.55
612.476	5.54
612.665	5.68
612.854	5.54
613.043	5.58
613.232	5.55
613.421	5.46
613.61	5.58
613.798	5.46
613.987	5.54
614.176	5.42
614.365	5.48
614.554	5.46
614.742	5.47
614.931	5.31
615.12	5.46
615.309	5.41
615.497	5.28
615.686	5.21
615.875	5.32
616.063	5.27
616.252	5.26
616.44	5.28
616.629	5.19
616.818	5.26
617.006	5.24
617.195	5.19
617.383	5.18
617.572	5.13
617.76	5.15
617.949	5.21
618.137	5.21
618.326	5.19
618.514	4.92
618.703	4.98
618.891	5.11
619.079	5.03
619.268	5.12
619.456	4.9
619.644	5.06
619.833	4.95
620.021	4.98
620.209	4.82
620.398	4.99
620.586	4.84
620.774	4.89
620.962	4.83
621.151	4.94
621.339	4.88
621.527	4.79
621.715	4.77
621.903	4.79
622.092	4.74
622.28	4.85
622.468	4.61
622.656	4.73
622.844	4.71
623.032	4.79
623.22	4.62
623.408	4.76
623.596	4.69
623.784	4.72
623.972	4.58
624.16	4.62
624.348	4.69
624.536	4.6
624.724	4.53
624.912	4.63
625.1	4.57
625.288	4.55
625.476	4.42
625.664	4.56
625.851	4.47
626.039	4.46
626.227	4.47
626.415	4.4
626.603	4.4
626.79	4.44
626.978	4.39
627.166	4.43
627.354	4.36
627.541	4.33
627.729	4.21
627.917	4.51
628.104	4.42
628.292	4.27
628.48	4.26
628.667	4.33
628.855	4.36
629.042	4.28
629.23	4.2
629.418	4.17
629.605	4.19
629.793	4.11
629.98	4.13
630.168	4.11
630.355	4.15
630.543	4.11
630.73	3.99
630.917	4.1
631.105	4.17
631.292	4.08
631.48	3.99
631.667	4.13
631.854	4.05
632.042	3.95
632.229	3.88
632.416	4
632.604	4.01
632.791	3.83
632.978	3.95
633.165	3.87
633.353	3.98
633.54	3.92
633.727	3.81
633.914	3.82
634.101	3.82
634.289	3.89
634.476	3.73
634.663	3.74
634.85	3.76
635.037	3.72
635.224	3.61
635.411	3.77
635.598	3.71
635.785	3.68
635.972	3.68
636.159	3.67
636.346	3.58
636.533	3.63
636.72	3.61
636.907	3.54
637.094	3.61
637.281	3.53
637.468	3.6
637.655	3.57
637.842	3.56
638.029	3.52
638.215	3.48
638.402	3.46
638.589	3.43
638.776	3.42
638.963	3.37
639.149	3.46
639.336	3.51
639.523	3.42
639.709	3.45
639.896	3.37
640.083	3.35
640.27	3.4
640.456	3.33
640.643	3.38
640.829	3.21
641.016	3.32
641.203	3.21
641.389	3.3
641.576	3.25
641.762	3.21
641.949	3.18
642.135	3.25
642.322	3.19
642.508	3.11
642.695	3.15
642.881	3.08
643.068	3.11
643.254	3.1
643.441	3.09
643.627	3.16
643.813	3.01
644	3.13
644.186	2.96
644.372	3.11
644.559	3.07
644.745	2.99
644.931	2.96
645.118	2.99
645.304	2.97
645.49	2.89
645.676	2.95
645.862	2.93
646.049	3.02
646.235	2.93
646.421	3.03
646.607	2.99
646.793	2.9
646.979	2.8
647.165	2.88
647.352	2.88
647.538	2.87
647.724	2.77
647.91	2.78
648.096	2.81
648.282	2.84
648.468	2.73
648.654	2.82
648.84	2.81
649.026	2.78
649.212	2.72
649.397	2.64
649.583	2.72
649.769	2.69
649.955	2.69
650.141	2.68
650.327	2.65
650.513	2.59
650.698	2.69
650.884	2.55
651.07	2.7
651.256	2.65
651.442	2.56
651.627	2.5
651.813	2.62
651.999	2.57
652.184	2.5
652.37	2.51
652.556	2.52
652.741	2.58
652.927	2.4
653.113	2.52
653.298	2.47
653.484	2.41
653.669	2.4
653.855	2.4
654.04	2.48
654.226	2.48
654.412	2.39
654.597	2.33
654.782	2.48
654.968	2.42
655.153	2.36
655.339	2.34
655.524	2.29
655.71	2.38
655.895	2.36
656.08	2.32
656.266	2.37
656.451	2.31
656.636	2.25
656.822	2.25
657.007	2.27
657.192	2.25
657.378	2.18
657.563	2.22
657.748	2.29
657.933	2.23
658.118	2.17
658.304	2.13
658.489	2.28
658.674	2.19
658.859	2.13
659.044	2.16
659.229	2.19
659.414	2.12
659.599	2.14
659.785	2.04
659.97	2.13
660.155	2.16
660.34	2.17
660.525	2.05
660.71	2.04
660.895	2.12
661.08	2
661.264	2
661.449	2.15
661.634	2.06
661.819	2.05
662.004	2.01
662.189	1.93
662.374	1.99
662.559	1.91
662.743	1.87
662.928	1.96
663.113	1.96
663.298	1.93
663.483	1.89
663.667	1.96
663.852	1.85
664.037	1.97
664.221	1.9
664.406	1.95
664.591	1.94
664.775	1.96
664.96	1.84
665.145	1.87
665.329	1.95
665.514	1.85
665.698	1.85
665.883	1.74
666.068	1.93
666.252	1.85
666.437	1.74
666.621	1.81
666.806	1.85
666.99	1.78
667.174	1.73
667.359	1.85
667.543	1.7
667.728	1.81
667.912	1.63
668.096	1.75
668.281	1.71
668.465	1.76
668.649	1.71
668.834	1.68
669.018	1.75
669.202	1.67
669.387	1.65
669.571	1.71
669.755	1.61
669.939	1.65
670.124	1.68
670.308	1.72
670.492	1.69
670.676	1.61
670.86	1.6
671.044	1.59
671.228	1.63
671.413	1.61
671.597	1.55
671.781	1.53
671.965	1.64
672.149	1.53
672.333	1.58
672.517	1.5
672.701	1.63
672.885	1.55
673.069	1.43
673.253	1.61
673.437	1.58
673.621	1.51
673.804	1.47
673.988	1.52
674.172	1.53
674.356	1.4
674.54	1.47
674.724	1.63
674.908	1.5
675.091	1.48
675.275	1.44
675.459	1.49
675.643	1.47
675.826	1.45
676.01	1.45
676.194	1.46
676.377	1.53
676.561	1.45
676.745	1.45
676.928	1.48
677.112	1.49
677.296	1.34
677.479	1.38
677.663	1.38
677.846	1.46
678.03	1.37
678.213	1.32
678.397	1.39
678.58	1.36
678.764	1.35
678.947	1.29
679.131	1.38
679.314	1.39
679.498	1.33
679.681	1.36
679.865	1.44
680.048	1.3
680.231	1.27
680.415	1.29
680.598	1.3
680.781	1.27
680.965	1.29
681.148	1.27
681.331	1.25
681.514	1.32
681.698	1.25
681.881	1.23
682.064	1.29
682.247	1.31
682.43	1.17
682.614	1.24
682.797	1.33
682.98	1.26
683.163	1.13
683.346	1.23
683.529	1.19
683.712	1.17
683.895	1.21
684.078	1.14
684.261	1.2
684.444	1.26
684.627	1.27
684.81	1.15
684.993	1.22
685.176	1.2
685.359	1.1
685.542	1.09
685.725	1.25
685.908	1.15
686.091	1.14
686.274	1.17
686.457	1.21
686.639	1.12
686.822	1.15
687.005	1.08
687.188	1.12
687.371	1.21
687.553	1.19
687.736	1.16
687.919	1.25
688.102	1.17
688.284	1.05
688.467	1.09
688.65	1.05
688.832	1.03
689.015	1.08
689.197	0.91
689.38	1.15
689.563	1.15
689.745	0.97
689.928	0.96
690.11	0.96
690.293	1.03
690.475	0.92
690.658	1.07
690.84	1.04
691.023	1.03
691.205	0.99
691.388	0.99
691.57	1.06
691.752	0.96
691.935	0.9
692.117	0.91
692.3	1
692.482	0.99
692.664	0.95
692.847	0.98
693.029	1.06
693.211	1.02
693.393	0.92
693.576	0.94
693.758	1.02
693.94	0.96
694.122	0.98
694.304	0.9
694.487	0.87
694.669	1.02
694.851	0.85
695.033	0.93
695.215	0.9
695.397	0.87
695.579	0.85
695.761	0.85
695.943	0.83
696.125	0.99
696.308	0.96
696.49	0.78
696.671	1.06
696.853	0.92
697.035	1.1
697.217	0.85
697.399	0.98
697.581	0.87
697.763	0.84
697.945	0.83
698.127	0.85
698.309	0.94
698.491	0.89
698.672	0.95
698.854	0.88
699.036	0.89
699.218	0.87
699.399	0.87
699.581	0.88
699.763	0.84
699.945	0.77
700.126	0.75
700.308	0.83
700.49	0.87
700.671	0.7
700.853	0.74
701.035	0.77
701.216	0.73
701.398	0.72
701.579	0.8
701.761	0.82
701.943	0.77
702.124	0.76
702.306	0.79
702.487	0.94
702.669	0.77
702.85	0.75
703.031	0.78
703.213	0.89
703.394	0.9
703.576	0.76
703.757	0.9
703.938	0.83
704.12	0.98
704.301	0.75
704.483	0.67
704.664	0.74
704.845	0.88
705.026	0.85
705.208	0.71
705.389	0.8
705.57	0.82
705.751	0.76
705.933	0.76
706.114	0.85
706.295	0.82
706.476	0.64
706.657	0.84
706.838	0.78
707.02	0.75
707.201	0.72
707.382	0.75
707.563	0.84
707.744	0.7
707.925	0.61
708.106	0.69
708.287	0.74
708.468	0.87
708.649	0.72
708.83	0.75
709.011	0.62
709.192	0.75
709.373	0.61
709.554	0.71
709.734	0.77
709.915	0.75
710.096	0.63
710.277	0.59
710.458	0.71
710.639	0.76
710.819	0.54
711	0.59
711.181	0.71
711.362	0.73
711.542	0.71
711.723	0.68
711.904	0.75
712.085	0.74
712.265	0.72
712.446	0.59
712.627	0.62
712.807	0.64
712.988	0.68
713.168	0.53
713.349	0.69
713.53	0.58
713.71	0.59
713.891	0.53
714.071	0.67
714.252	0.6
714.432	0.67
714.613	0.52
714.793	0.59
714.974	0.71
715.154	0.7
715.334	0.69
715.515	0.8
715.695	0.56
715.876	0.55
716.056	0.54
716.236	0.52
716.417	0.65
716.597	0.58
716.777	0.8
716.957	0.64
717.138	0.67
717.318	0.58
717.498	0.49
717.678	0.66
717.859	0.66
718.039	0.43
718.219	0.58
718.399	0.61
718.579	0.46
718.759	0.41
718.939	0.57
719.12	0.62
719.3	0.63
719.48	0.37
719.66	0.45
719.84	0.74
720.02	0.59
720.2	0.56
720.38	0.5
720.56	0.74
720.74	0.41
720.92	0.66
721.1	0.7
721.279	0.68
721.459	0.56
721.639	0.44
721.819	0.53
721.999	0.51
722.179	0.6
722.359	0.4
722.538	0.58
722.718	0.59
722.898	0.47
723.078	0.51
723.257	0.5
723.437	0.54
723.617	0.61
723.797	0.51
723.976	0.48
724.156	0.68
724.336	0.68
724.515	0.8
724.695	0.4
724.874	0.52
725.054	0.61
725.234	0.46
725.413	0.53
725.593	0.49
725.772	0.57
725.952	0.48
726.131	0.37
726.311	0.51
726.49	0.58
726.67	0.42
726.849	0.4
727.028	0.49
727.208	0.61
727.387	0.61
727.567	0.4
727.746	0.48
727.925	0.52
728.105	0.36
728.284	0.42
728.463	0.47
728.643	0.63
728.822	0.43
729.001	0.6
729.18	0.51
729.359	0.58
729.539	0.39
729.718	0.48
729.897	0.59
730.076	0.51
730.255	0.42
730.434	0.48
730.614	0.57
730.793	0.69
730.972	0.37
731.151	0.47
731.33	0.56
731.509	0.58
731.688	0.52
731.867	0.53
732.046	0.31
732.225	0.78
732.404	0.48
732.583	0.41
732.762	0.54
732.941	0.62
733.12	0.55
733.298	0.46
733.477	0.65
733.656	0.43
733.835	0.44
734.014	0.61
734.193	0.49
734.371	0.52
734.55	0.61
734.729	0.33
734.908	0.48
735.086	0.57
735.265	0.72
735.444	0.33
735.623	0.34
735.801	0.47
735.98	0.52
736.159	0.52
736.337	0.5
736.516	0.56
736.694	0.61
736.873	0.36
737.052	0.71
737.23	0.67
737.409	0.39
737.587	0.68
737.766	0.41
737.944	0.49
738.123	0.38
738.301	0.59
738.479	0.45
738.658	0.59
738.836	0.29
739.015	0.46
739.193	0.72
739.371	0.35
739.55	0.44
739.728	0.42
739.906	0.67
740.085	0.69
740.263	0.58
740.441	0.2
740.62	0.72
740.798	0.66
740.976	0.48
741.154	0.29
741.332	0.63
741.511	0.4
741.689	0.49
741.867	0.53
742.045	0.61
742.223	0.43
742.401	0.32
742.579	0.38
742.757	0.52
742.935	0.29
743.114	0.42
743.292	0.46
743.47	0.51
743.648	0.52
743.826	0.42
744.004	0.53
744.181	0.59
744.359	0.36
744.537	0.48
744.715	0.41
744.893	0.41
745.071	0.49
745.249	0.41
745.427	0.42
745.605	0.57
745.782	0.46
745.96	0.47
746.138	0.47
746.316	0.52
746.493	0.52
746.671	0.37
746.849	0.46
747.027	0.65
747.204	0.4
747.382	0.39
747.56	0.33
747.737	0.43
747.915	0.43
748.093	0.43
748.27	0.28
748.448	0.4
748.625	0.28
748.803	0.3
748.98	0.32
749.158	0.45
749.335	0.53
749.513	0.37
749.69	0.31
749.868	0.41
750.045	0.42
750.223	0.35
750.4	0.14
750.578	0.56
750.755	0.47
750.932	0.26
751.11	0.48
751.287	0.31
751.464	0.65
751.642	0.29
751.819	0.54
751.996	0.42
752.173	0.3
752.351	0.29
752.528	0.34
752.705	0.52
752.882	0.32
753.06	0.51
753.237	0.56
753.414	0.61
753.591	0.74
753.768	0.39
753.945	0.35
754.122	0.4
754.299	0.5
754.476	0.32
754.654	0.43
754.831	0.47
755.008	0.54
755.185	0.22
755.362	0.26
755.539	0.46
755.716	0.33
755.892	0.35
756.069	0.3
756.246	0.38
756.423	0.44
756.6	0.43
756.777	0.36
756.954	0.54
757.131	0.37
757.307	0.32
757.484	0.24
757.661	0.48
757.838	0.44
758.015	0.31
758.191	0.43
758.368	0.53
758.545	0.7
758.721	0.52
758.898	0.17
759.075	0.48
759.251	0.46
759.428	0.43
759.605	0.18
759.781	0.38
759.958	0.36
760.134	0.38
760.311	0.44
760.488	0.55
760.664	0.59
760.841	0.34
761.017	0.19
761.194	0.44
761.37	0.6
761.547	0.3
761.723	0.25
761.899	0.54
762.076	0.29
762.252	0.26
762.429	0.31
762.605	0.5
762.781	0.36
762.958	0.5
763.134	0.37
763.31	0.23
763.486	0.55
763.663	0.01
763.839	0.41
764.015	0.18
764.191	0.41
764.368	0.39
764.544	0.18
764.72	0.45
764.896	0.44
765.072	0.3
765.248	0.39
765.425	0.39
765.601	0.43
765.777	0.35
765.953	0.04
766.129	0.32
766.305	0.33
766.481	0.52
766.657	0.35
766.833	0.65
767.009	0.29
767.185	0.3
767.361	0.3
767.537	0.28
767.713	0.6
767.889	0.28
768.065	0.24
768.24	0.6
768.416	0.51
768.592	0.39
768.768	0.39
768.944	0.46
769.12	0.24
769.295	0.3
769.471	0.35
769.647	0.42
769.823	0.56
769.998	0.32
770.174	0.19
770.35	0.78
770.525	0.77
770.701	0.46
770.877	0.33
771.052	0.31
771.228	0.67
771.403	0.44
771.579	0.49
771.755	0.67
771.93	0.33
772.106	0.23
772.281	0.19
772.457	0.36
772.632	0.49
772.808	0.16
772.983	0.22
773.159	0.3
773.334	0.63
773.509	0.49
773.685	0.23
773.86	0.9
774.036	0.54
774.211	0.47
774.386	0.3
774.562	0.55
774.737	0.7
774.912	0.3
775.087	0.46
775.263	0.38
775.438	0.43
775.613	0.21
775.788	0.28
775.964	0.6
776.139	0.99
776.314	0.3
776.489	0.5
776.664	0.64
776.839	0.21
777.014	0.57
777.19	0.58
777.365	0.87
777.54	0.66
777.715	0.23
777.89	0.43
778.065	0.29
778.24	0.43
778.415	0.55
778.59	0.05
778.765	0.28
778.94	0.66
779.115	0.25
779.289	0.34
779.464	0.4
779.639	0.32
779.814	0.21
779.989	0.09
780.164	0.64
780.339	0.49
780.513	0.29
780.688	0.19
780.863	0.57
781.038	0.58
781.212	0.4
781.387	0.34
781.562	0.76
781.737	0.43
781.911	0.64
782.086	0.1
782.261	0.45
782.435	0.82
782.61	0.38
782.784	0.46
782.959	0.91
783.134	0.19
783.308	0.23
783.483	0.25
783.657	0.92
783.832	0.73
784.006	-0.02
784.181	0.68
784.355	0.63
784.53	0.1
784.704	0.33
784.878	0.49
785.053	0.66
785.227	0.59
785.402	0.75
785.576	0.32
785.75	0.57
785.925	0.49
786.099	0.34
786.273	0.66
786.448	0.75
786.622	0.85
786.796	0.48
786.97	0.4
787.145	1.28
787.319	0.09
787.493	0.39
787.667	-0.23
787.841	0.58
788.015	0.74
788.19	0.45
788.364	0.48
788.538	0.7
788.712	0.55
788.886	0.14
789.06	0.56
789.234	0.8
789.408	0.18
789.582	0.39
789.756	0.24
789.93	0.24
790.104	0.47
790.278	0.05
790.452	0.34
790.626	0.5
790.8	0.34
790.973	0.82
791.147	0.8
791.321	0.85
791.495	0.84
791.669	0.66
791.843	0.58
792.016	0.41
792.19	1.19
792.364	0.34
792.538	1.13
792.711	0.9
792.885	0.28
793.059	0.23
793.233	-0.13
793.406	0.72
793.58	0.62
793.754	0.48
793.927	0.29
794.101	0.89
794.274	0.27
794.448	0.81
794.622	0.12
794.795	0.95
794.969	0.48
795.142	0.84
795.316	0.25
795.489	0.32
795.663	1.12
795.836	0.6
796.009	0.38
796.183	0.87
796.356	0.59
796.53	0.4
796.703	0.42
796.876	1.26
797.05	0.61
797.223	0.33
797.396	0.57
797.57	0.71
797.743	1.26
797.916	0.51
798.09	0.43
798.263	0.91
798.436	0.87
798.609	0.43
798.782	0.17
798.956	0.81
799.129	0.82
799.302	0.12
799.475	0.43
799.648	0.32
799.821	0.22
799.994	0.52
800.167	0.05
800.34	0.45
800.514	0.42
800.687	0.26
800.86	0.21
801.033	0.59
801.206	0.84
801.379	0.3
801.551	0.96
801.724	0.77
801.897	1.25
802.07	0.7
802.243	-0.05
802.416	0.65
802.589	0.48
802.762	0.85
802.935	0.42
803.107	0.86
803.28	0.91
803.453	0.63
803.626	0.07
803.798	0.69
803.971	0.48
804.144	0.61
804.317	0.7
804.489	1.07
804.662	0.31
804.835	0.5
805.007	0.44
805.18	1.42
805.353	0.45
805.525	-0.03
805.698	0.51
805.87	1.02
806.043	1.28
806.215	-0.03
806.388	0.02
806.56	0.89
806.733	1.09
806.905	0.55
807.078	0.33
807.25	0.34
807.423	0.77
807.595	0.68
807.768	0.49
807.94	0.76
808.112	1.01
808.285	0.57
808.457	0.38
808.629	0.68
808.802	0.69
808.974	0.88
809.146	0.2
809.318	0.73
809.491	0.47
809.663	0.87
809.835	0.74
810.007	0.48
810.18	0.45
810.352	0.31
810.524	0.55
810.696	0.71
810.868	1.15
811.04	0.43
811.212	0.22
811.384	0.85
811.556	0.91
811.728	0.6
811.901	1.48
812.073	0.68
812.245	1.34
812.417	0.55
812.589	-0.04
812.76	0.71
812.932	0.9
813.104	1.15
813.276	0.45
813.448	1.18
813.62	1.12
813.792	0.43
813.964	0.64
814.136	1.17
814.307	0.58
814.479	0.61
814.651	0.54
814.823	1.64
814.995	0.4
815.166	0.89
815.338	0.52
815.51	0.18
815.681	1.49
815.853	0.85
816.025	0.78
816.196	1.44
816.368	1.17
816.54	0.25
816.711	0.13
816.883	0.85
817.054	2.07
817.226	0.38
817.398	0.77
817.569	0.45
817.741	0.6
817.912	0.7
818.084	0.84
818.255	1.49
818.426	0.06
818.598	0.81
818.769	0.49
818.941	1.14
819.112	1.78
819.283	1.12
819.455	0.62
819.626	0.38
819.798	1.21
819.969	0.67
820.14	0.58
820.311	0.51
820.483	0.52
820.654	0.97
820.825	0.39
820.996	0.77
821.168	0.48
821.339	0.69
821.51	0.21
821.681	0.3
821.852	0.84
822.023	0.1
822.195	0.67
822.366	1.05
822.537	0.73
822.708	0.97
822.879	0.59
823.05	1.27
823.221	0.28
823.392	0.94
823.563	0.88
823.734	0.75
823.905	0.22
824.076	0.34
824.247	0.38
824.418	0.46
824.589	1.85
824.759	0.19
824.93	0.6
825.101	0.52
825.272	1.59
825.443	1.58
825.614	1.24
825.784	0.43
825.955	2.5
826.126	1.73
826.297	0.28
826.467	2
826.638	1.89
826.809	-0.43
826.98	0.45
827.15	0.93
827.321	1.29
827.492	1.52
827.662	0.93
827.833	1.86
828.003	1.24
828.174	-0.16
828.345	0.13
828.515	1.88
828.686	0.82
828.856	0.84
829.027	0.39
829.197	1.33
829.368	1.56
829.538	0.3
829.709	0.29
829.879	1.09
830.049	0.71
830.22	1.26
830.39	0.7
830.56	1.81
830.731	0.88
830.901	0.41
831.072	0.75
831.242	1.48
831.412	1.21
831.582	1.05
831.753	-0.23
831.923	1.4
832.093	0.95
832.263	0.88
832.434	0.6
832.604	0.43
832.774	1.53
832.944	0.51
833.114	0.49
833.284	1.6
833.454	0.86
833.624	0.34
833.795	0.45
833.965	2.31
834.135	1.95
834.305	-0.29
834.475	0.16
834.645	1.42
834.815	0.85
834.985	0.14
835.155	-0.39
835.325	1.3
835.494	1.89
835.664	1.1
835.834	-0.08
836.004	1.25
836.174	1.43
836.344	0.75
836.514	0.16
836.684	0.8
836.853	1.26
837.023	1.15
837.193	0.61
837.363	1.9
837.532	1.95
837.702	1.16
837.872	0.43
838.041	2.09
838.211	2.73
838.381	0.16
838.55	0.45
838.72	3.89
838.89	3.01
839.059	0.77
839.229	0.41
839.398	3.07
839.568	1.59
839.738	1.12
839.907	3.07
840.077	1.41
840.246	0.82
840.416	0.02
840.585	0.54
840.755	2.89
840.924	2.03
841.093	0.05
841.263	0.48
841.432	1.3
841.602	0.5
841.771	0.17
841.94	0.7
842.11	3.28
842.279	2.91
842.448	0.57
842.617	-0.17
842.787	3.1
842.956	0.33
843.125	0.95
843.294	0.54
843.464	2.67
843.633	1.95
843.802	-0.01
843.971	0.44
844.14	1.58
844.309	2.53
844.479	-0.73
844.648	1.06
844.817	1.07
844.986	1.05
845.155	0.13
845.324	0.48
845.493	1.08
845.662	0.32
845.831	1.16
846	1.21
846.169	1.26
846.338	2.65
846.507	1.27
846.676	1.51
846.844	1.64
847.013	2.26
847.182	1.22
847.351	0.89
847.52	1.34
847.689	1.36
847.858	1.23
848.026	1.14
848.195	1.99
848.364	1.59
848.533	0.43
848.701	0.63
848.87	1.52
849.039	2.85
849.207	1.41
849.376	2.12
849.545	2.68
849.713	1.21
849.882	1.03
850.051	1.42
850.219	0.97
850.388	1.8
850.556	0.28
850.725	0
850.893	1.95
851.062	0.42
851.23	1.09
851.399	0.37
851.567	1.33
851.736	2.03
851.904	0.39
852.073	1.44
852.241	2.88
852.41	2.32
852.578	1.28
852.746	1.12
852.915	1.91
853.083	0.91
853.251	-0.01
853.42	1.54
853.588	1.89
853.756	3.28
853.924	1.44
854.093	1.59
854.261	0.52
854.429	0.94
854.597	1.58
854.765	0.21
854.934	1.64
855.102	3.67
855.27	1.21
855.438	2.37
855.606	3
855.774	2.95
855.942	-0.11
856.11	-0.13
856.278	1.75
856.446	2.03
856.614	1.83
856.782	0.15
856.95	2.73
857.118	1.87
857.286	2.12
857.454	0.95
857.622	2.93
857.79	3.32
857.958	-0.06
858.126	1.46
858.294	-1.95
858.462	1.15
858.629	0.13
858.797	0.14
858.965	2.28
859.133	0.67
859.301	1.02
859.468	1.48
859.636	0.75
859.804	4.3
859.971	2.98
860.139	-0.13
860.307	3.18
860.474	0.9
860.642	0.37
860.81	0.62
860.977	1.65
861.145	2.33
861.313	0.94
861.48	1.12
861.648	2.94
861.815	2.08
861.983	-1.44
862.15	0.08
862.318	3.12
862.485	2.87
862.653	0.93
862.82	0.35
862.988	4.12
863.155	1.57
863.322	1.12
863.49	-0.17
863.657	0
863.824	2.85
863.992	1.59
864.159	1.1
864.326	4.53
864.494	0.58
864.661	3.76
864.828	0.38
864.996	4.33
865.163	2.74
865.33	0.98
865.497	-1.83
865.664	0.45
865.832	-0.81
865.999	0.44
866.166	-0.51
866.333	0.5
866.5	0.83
866.667	1.04
866.834	1.2
867.001	4.73
867.168	-0.01
867.335	1.77
867.502	-0.35
867.669	2.94
867.836	6.27
868.003	1.04
868.17	2.79
868.337	1.96
868.504	6.99
868.671	-0.28
868.838	0.22
869.005	3.47
869.172	3.42
869.339	1.96
869.505	0.08
869.672	3.83
869.839	5.1
870.006	2.16
870.173	0.84
870.339	2.47
870.506	5.93
870.673	0.92
870.84	3.13
871.006	2.43
871.173	1.3
871.34	1.81
871.506	-0.12
871.673	4.1
871.839	1.13
872.006	3.15
872.173	0.73
872.339	3.07
872.506	4.06
872.672	2
872.839	0.9
873.005	1.99
873.172	7.02
873.338	3.59
873.505	0.59
873.671	2.87
873.838	4.8
874.004	-1.29
874.171	-0.61
874.337	2.39
874.503	4.34
874.67	1.42
874.836	1.2
875.002	5.59
875.169	4.33
875.335	2.19
875.501	1.83
875.668	2.68
875.834	1.64
876	2.05
876.166	3.35
876.332	3.24
876.499	4.7
876.665	2.73
876.831	2.84
876.997	8.55
877.163	3.35
877.329	0.13
877.495	1.21
877.662	3.87
877.828	3.74
877.994	0.85
878.16	-1.84
878.326	2.74
878.492	0.86
878.658	0.8
878.824	3.48
878.99	1.31
879.156	5.35
879.322	5.4
879.487	1.74
879.653	3.13
879.819	3.16
879.985	0.53
880.151	2.15
880.317	3.05
880.483	3.42
880.648	2.64
880.814	-0.03
880.98	4.21
881.146	-1.25
881.312	0.74
881.477	3.33
881.643	1.06
881.809	3.53
881.974	3.05
882.14	0.72
882.306	1.31
882.471	7.3
882.637	0.72
882.803	3.45
882.968	5.65
883.134	5.9
883.299	1.05
883.465	1.69
883.63	5.21
883.796	4.48
883.961	3.77
884.127	3.6
884.292	-2.18
884.458	-1.01
884.623	-1.01
