Data from Apollo_Calib_20240827__AbsoluteIrradiance__16__23-25-00-237.txt Node

Date: Tue Aug 27 23:25:00 BST 2024
User: biology
Spectrometer: FLMT08252
Trigger mode: 0
Integration Time (sec): 5.000000E-1
Scans to average: 5
Electric dark correction enabled: true
Nonlinearity correction enabled: false
Boxcar width: 0
XAxis mode: Wavelengths
Number of Pixels in Spectrum: 3648
>>>>>Begin Spectral Data<<<<<
179.588	-0
179.809	-0
180.03	-0
180.251	-0
180.473	-0
180.694	0
180.915	0
181.136	-0
181.357	-0
181.578	-0
181.799	-0
182.02	-0
182.241	0
182.462	-0
182.683	0
182.904	-0
183.125	0
183.346	0
183.567	0
183.788	0
184.009	0
184.23	0
184.451	0
184.672	0
184.892	0
185.113	0
185.334	0
185.555	0
185.776	0
185.996	0
186.217	0
186.438	0
186.659	0
186.879	0
187.1	0
187.321	0
187.541	0
187.762	0
187.983	0
188.203	0
188.424	0
188.644	0
188.865	0
189.086	0
189.306	0
189.527	0
189.747	0
189.968	0
190.188	0
190.409	0
190.629	0
190.849	0
191.07	0
191.29	0
191.511	0
191.731	0
191.951	0
192.172	0
192.392	0
192.612	0
192.833	0
193.053	0
193.273	0
193.493	0
193.714	0
193.934	0
194.154	0
194.374	0
194.594	0
194.815	0
195.035	0
195.255	0
195.475	0
195.695	0
195.915	0
196.135	0
196.355	0
196.575	0
196.795	0
197.015	0
197.235	0
197.455	0
197.675	0
197.895	0
198.115	0
198.335	0
198.555	0
198.775	0
198.995	0
199.214	0
199.434	0
199.654	0
199.874	0
200.094	3.72
200.313	2.28
200.533	1.95
200.753	1.7
200.973	3.1
201.192	2.99
201.412	1.68
201.632	1.85
201.851	3.36
202.071	1.91
202.291	1.89
202.51	1.76
202.73	2.83
202.95	2.09
203.169	1.79
203.389	1.71
203.608	2.17
203.828	1.16
204.047	2.06
204.267	2.05
204.486	1.72
204.706	2.07
204.925	1.5
205.145	1.26
205.364	2.28
205.583	2.49
205.803	1.35
206.022	1.34
206.242	1.84
206.461	1.69
206.68	1.8
206.9	1.87
207.119	2.14
207.338	1.99
207.557	1.5
207.777	1.53
207.996	1.25
208.215	2.1
208.434	1.49
208.654	1.35
208.873	1.09
209.092	2.06
209.311	1.16
209.53	1.36
209.749	1.16
209.968	1.1
210.187	1.31
210.407	1.16
210.626	0.93
210.845	1.74
211.064	1.32
211.283	1.04
211.502	1.74
211.721	1.2
211.94	1.14
212.159	1.41
212.377	1.27
212.596	1.37
212.815	1.33
213.034	1.08
213.253	1.33
213.472	1.4
213.691	1.14
213.91	0.87
214.128	0.85
214.347	1.31
214.566	0.69
214.785	0.64
215.003	1.21
215.222	1.01
215.441	1.04
215.66	0.82
215.878	0.84
216.097	1.13
216.316	0.69
216.534	0.96
216.753	0.96
216.972	0.93
217.19	0.73
217.409	0.75
217.627	0.72
217.846	0.76
218.064	0.86
218.283	0.69
218.501	1.26
218.72	1.24
218.938	0.61
219.157	0.72
219.375	1.04
219.594	0.89
219.812	0.5
220.031	0.62
220.249	1.28
220.467	1.05
220.686	0.8
220.904	0.53
221.122	0.76
221.341	1.06
221.559	0.88
221.777	0.49
221.995	0.88
222.214	0.72
222.432	0.71
222.65	0.84
222.868	0.95
223.086	0.8
223.305	0.82
223.523	0.77
223.741	1.03
223.959	0.58
224.177	0.47
224.395	0.65
224.613	0.89
224.831	0.78
225.049	0.54
225.267	0.61
225.485	0.83
225.703	0.76
225.921	0.6
226.139	0.6
226.357	0.72
226.575	0.66
226.793	0.66
227.011	1.16
227.229	0.77
227.447	0.9
227.665	0.51
227.883	0.53
228.1	0.69
228.318	0.72
228.536	0.42
228.754	0.5
228.972	0.64
229.189	0.64
229.407	0.49
229.625	0.68
229.843	0.69
230.06	0.67
230.278	0.65
230.496	0.58
230.713	0.61
230.931	0.62
231.149	0.53
231.366	0.37
231.584	0.57
231.801	0.85
232.019	0.45
232.236	0.51
232.454	0.4
232.671	0.53
232.889	0.59
233.106	0.56
233.324	0.57
233.541	0.54
233.759	0.54
233.976	0.5
234.194	0.52
234.411	0.52
234.628	0.51
234.846	0.53
235.063	0.5
235.28	0.59
235.498	0.51
235.715	0.38
235.932	0.73
236.149	0.49
236.367	0.44
236.584	0.57
236.801	0.43
237.018	0.64
237.236	0.58
237.453	0.33
237.67	0.63
237.887	0.55
238.104	0.49
238.321	0.5
238.538	0.36
238.755	0.67
238.973	0.38
239.19	0.49
239.407	0.57
239.624	0.59
239.841	0.41
240.058	0.4
240.275	0.58
240.492	0.5
240.709	0.49
240.925	0.44
241.142	0.47
241.359	0.42
241.576	0.36
241.793	0.42
242.01	0.46
242.227	0.56
242.444	0.48
242.66	0.64
242.877	0.56
243.094	0.52
243.311	0.51
243.527	0.45
243.744	0.5
243.961	0.59
244.178	0.41
244.394	0.47
244.611	0.57
244.828	0.59
245.044	0.33
245.261	0.4
245.477	0.49
245.694	0.6
245.911	0.42
246.127	0.48
246.344	0.54
246.56	0.48
246.777	0.43
246.993	0.49
247.21	0.48
247.426	0.48
247.643	0.43
247.859	0.32
248.076	0.37
248.292	0.56
248.508	0.36
248.725	0.51
248.941	0.46
249.157	0.55
249.374	0.43
249.59	0.46
249.806	0.45
250.023	0.49
250.239	0.4
250.455	0.36
250.671	0.41
250.888	0.37
251.104	0.43
251.32	0.39
251.536	0.35
251.752	0.35
251.969	0.4
252.185	0.47
252.401	0.5
252.617	0.4
252.833	0.4
253.049	0.43
253.265	0.37
253.481	0.41
253.697	0.41
253.913	0.35
254.129	0.39
254.345	0.39
254.561	0.37
254.777	0.4
254.993	0.38
255.209	0.42
255.425	0.37
255.641	0.38
255.857	0.39
256.073	0.36
256.288	0.31
256.504	0.32
256.72	0.47
256.936	0.56
257.152	0.4
257.367	0.37
257.583	0.41
257.799	0.42
258.015	0.41
258.23	0.43
258.446	0.6
258.662	0.4
258.877	0.36
259.093	0.37
259.309	0.36
259.524	0.43
259.74	0.38
259.955	0.31
260.171	0.4
260.387	0.4
260.602	0.48
260.818	0.47
261.033	0.3
261.249	0.42
261.464	0.31
261.68	0.28
261.895	0.46
262.11	0.48
262.326	0.35
262.541	0.29
262.757	0.4
262.972	0.36
263.187	0.35
263.403	0.33
263.618	0.44
263.833	0.37
264.049	0.27
264.264	0.39
264.479	0.35
264.694	0.41
264.91	0.23
265.125	0.34
265.34	0.4
265.555	0.54
265.77	0.43
265.986	0.35
266.201	0.42
266.416	0.48
266.631	0.39
266.846	0.35
267.061	0.44
267.276	0.37
267.491	0.23
267.706	0.36
267.921	0.37
268.136	0.37
268.351	0.36
268.566	0.26
268.781	0.44
268.996	0.41
269.211	0.4
269.426	0.27
269.641	0.3
269.856	0.34
270.071	0.29
270.285	0.25
270.5	0.41
270.715	0.38
270.93	0.33
271.145	0.41
271.359	0.39
271.574	0.26
271.789	0.36
272.004	0.33
272.218	0.3
272.433	0.38
272.648	0.26
272.862	0.4
273.077	0.36
273.292	0.41
273.506	0.29
273.721	0.25
273.936	0.44
274.15	0.36
274.365	0.33
274.579	0.47
274.794	0.32
275.008	0.41
275.223	0.25
275.437	0.26
275.652	0.49
275.866	0.38
276.081	0.31
276.295	0.41
276.509	0.33
276.724	0.34
276.938	0.31
277.153	0.29
277.367	0.38
277.581	0.36
277.796	0.31
278.01	0.23
278.224	0.39
278.438	0.34
278.653	0.21
278.867	0.27
279.081	0.19
279.295	0.33
279.51	0.3
279.724	0.21
279.938	0.37
280.152	0.36
280.366	0.32
280.58	0.28
280.794	0.39
281.008	0.3
281.222	0.4
281.437	0.44
281.651	0.37
281.865	0.36
282.079	0.27
282.293	0.23
282.507	0.26
282.721	0.28
282.935	0.29
283.148	0.22
283.362	0.27
283.576	0.26
283.79	0.3
284.004	0.31
284.218	0.32
284.432	0.28
284.646	0.29
284.859	0.26
285.073	0.29
285.287	0.32
285.501	0.31
285.714	0.29
285.928	0.31
286.142	0.29
286.356	0.32
286.569	0.28
286.783	0.4
286.997	0.36
287.21	0.31
287.424	0.31
287.637	0.34
287.851	0.31
288.065	0.31
288.278	0.26
288.492	0.33
288.705	0.33
288.919	0.26
289.132	0.26
289.346	0.31
289.559	0.21
289.773	0.25
289.986	0.3
290.2	0.29
290.413	0.31
290.626	0.3
290.84	0.27
291.053	0.3
291.267	0.41
291.48	0.27
291.693	0.3
291.906	0.21
292.12	0.26
292.333	0.25
292.546	0.27
292.76	0.33
292.973	0.33
293.186	0.29
293.399	0.27
293.612	0.33
293.826	0.27
294.039	0.23
294.252	0.28
294.465	0.28
294.678	0.27
294.891	0.3
295.104	0.26
295.317	0.27
295.53	0.27
295.743	0.24
295.956	0.26
296.169	0.32
296.382	0.27
296.595	0.25
296.808	0.21
297.021	0.35
297.234	0.27
297.447	0.25
297.66	0.29
297.873	0.34
298.086	0.3
298.299	0.25
298.511	0.21
298.724	0.26
298.937	0.2
299.15	0.23
299.363	0.33
299.575	0.31
299.788	0.34
300.001	0.24
300.213	0.24
300.426	0.23
300.639	0.21
300.852	0.24
301.064	0.32
301.277	0.32
301.489	0.33
301.702	0.3
301.915	0.31
302.127	0.3
302.34	0.26
302.552	0.28
302.765	0.25
302.977	0.31
303.19	0.21
303.402	0.27
303.615	0.24
303.827	0.23
304.04	0.24
304.252	0.29
304.464	0.26
304.677	0.35
304.889	0.28
305.102	0.26
305.314	0.2
305.526	0.28
305.739	0.28
305.951	0.26
306.163	0.25
306.375	0.3
306.588	0.27
306.8	0.26
307.012	0.2
307.224	0.22
307.436	0.31
307.649	0.21
307.861	0.28
308.073	0.3
308.285	0.29
308.497	0.19
308.709	0.21
308.921	0.29
309.133	0.28
309.346	0.25
309.558	0.29
309.77	0.34
309.982	0.31
310.194	0.3
310.406	0.21
310.617	0.32
310.829	0.29
311.041	0.3
311.253	0.25
311.465	0.26
311.677	0.26
311.889	0.27
312.101	0.26
312.313	0.28
312.524	0.27
312.736	0.24
312.948	0.21
313.16	0.32
313.372	0.27
313.583	0.26
313.795	0.23
314.007	0.23
314.218	0.27
314.43	0.22
314.642	0.21
314.853	0.19
315.065	0.32
315.277	0.22
315.488	0.28
315.7	0.3
315.912	0.28
316.123	0.24
316.335	0.24
316.546	0.33
316.758	0.21
316.969	0.23
317.181	0.26
317.392	0.24
317.604	0.27
317.815	0.19
318.026	0.24
318.238	0.22
318.449	0.27
318.661	0.21
318.872	0.21
319.083	0.24
319.295	0.29
319.506	0.21
319.717	0.26
319.929	0.3
320.14	0.28
320.351	0.27
320.562	0.22
320.774	0.27
320.985	0.26
321.196	0.21
321.407	0.22
321.618	0.33
321.829	0.26
322.041	0.3
322.252	0.28
322.463	0.26
322.674	0.23
322.885	0.23
323.096	0.23
323.307	0.24
323.518	0.21
323.729	0.23
323.94	0.27
324.151	0.21
324.362	0.27
324.573	0.26
324.784	0.18
324.995	0.29
325.206	0.31
325.417	0.26
325.628	0.22
325.838	0.24
326.049	0.24
326.26	0.32
326.471	0.26
326.682	0.26
326.892	0.29
327.103	0.15
327.314	0.19
327.525	0.35
327.735	0.28
327.946	0.29
328.157	0.22
328.368	0.3
328.578	0.26
328.789	0.26
328.999	0.25
329.21	0.27
329.421	0.25
329.631	0.23
329.842	0.21
330.052	0.22
330.263	0.32
330.473	0.25
330.684	0.24
330.894	0.24
331.105	0.27
331.315	0.24
331.526	0.19
331.736	0.37
331.947	0.26
332.157	0.25
332.367	0.19
332.578	0.25
332.788	0.31
332.999	0.3
333.209	0.29
333.419	0.22
333.629	0.24
333.84	0.28
334.05	0.25
334.26	0.32
334.47	0.37
334.681	0.28
334.891	0.23
335.101	0.26
335.311	0.31
335.521	0.22
335.732	0.2
335.942	0.33
336.152	0.26
336.362	0.3
336.572	0.28
336.782	0.29
336.992	0.24
337.202	0.22
337.412	0.26
337.622	0.3
337.832	0.23
338.042	0.26
338.252	0.22
338.462	0.25
338.672	0.27
338.882	0.3
339.092	0.26
339.302	0.33
339.511	0.31
339.721	0.25
339.931	0.25
340.141	0.34
340.351	0.35
340.561	0.26
340.77	0.25
340.98	0.24
341.19	0.29
341.4	0.24
341.609	0.23
341.819	0.26
342.029	0.23
342.238	0.27
342.448	0.22
342.658	0.29
342.867	0.26
343.077	0.27
343.286	0.25
343.496	0.25
343.706	0.27
343.915	0.22
344.125	0.24
344.334	0.28
344.544	0.19
344.753	0.19
344.963	0.24
345.172	0.26
345.381	0.21
345.591	0.23
345.8	0.23
346.01	0.33
346.219	0.3
346.428	0.13
346.638	0.26
346.847	0.26
347.056	0.29
347.266	0.2
347.475	0.28
347.684	0.26
347.893	0.26
348.103	0.23
348.312	0.21
348.521	0.22
348.73	0.25
348.94	0.25
349.149	0.27
349.358	0.23
349.567	0.22
349.776	0.18
349.985	0.25
350.194	0.27
350.403	0.24
350.612	0.17
350.821	0.25
351.03	0.21
351.239	0.2
351.448	0.23
351.657	0.22
351.866	0.31
352.075	0.24
352.284	0.33
352.493	0.2
352.702	0.24
352.911	0.26
353.12	0.23
353.329	0.24
353.538	0.29
353.746	0.27
353.955	0.25
354.164	0.26
354.373	0.23
354.582	0.26
354.79	0.24
354.999	0.29
355.208	0.28
355.416	0.31
355.625	0.2
355.834	0.25
356.042	0.26
356.251	0.23
356.46	0.23
356.668	0.25
356.877	0.31
357.085	0.27
357.294	0.2
357.503	0.24
357.711	0.22
357.92	0.38
358.128	0.21
358.337	0.24
358.545	0.29
358.754	0.23
358.962	0.31
359.17	0.27
359.379	0.27
359.587	0.26
359.796	0.25
360.004	0.3
360.212	0.27
360.421	0.3
360.629	0.23
360.837	0.19
361.046	0.23
361.254	0.38
361.462	0.27
361.67	0.24
361.879	0.31
362.087	0.3
362.295	0.28
362.503	0.23
362.711	0.24
362.92	0.24
363.128	0.18
363.336	0.18
363.544	0.18
363.752	0.25
363.96	0.25
364.168	0.22
364.376	0.25
364.584	0.24
364.792	0.29
365	0.26
365.208	0.23
365.416	0.29
365.624	0.27
365.832	0.23
366.04	0.29
366.248	0.24
366.456	0.25
366.664	0.27
366.872	0.27
367.079	0.21
367.287	0.25
367.495	0.3
367.703	0.25
367.911	0.24
368.118	0.19
368.326	0.24
368.534	0.23
368.742	0.3
368.949	0.21
369.157	0.22
369.365	0.28
369.572	0.27
369.78	0.2
369.988	0.28
370.195	0.26
370.403	0.25
370.61	0.23
370.818	0.29
371.026	0.34
371.233	0.24
371.441	0.27
371.648	0.24
371.856	0.27
372.063	0.25
372.271	0.24
372.478	0.26
372.685	0.22
372.893	0.27
373.1	0.25
373.308	0.27
373.515	0.3
373.722	0.31
373.93	0.23
374.137	0.29
374.344	0.33
374.552	0.28
374.759	0.25
374.966	0.25
375.173	0.23
375.381	0.3
375.588	0.25
375.795	0.22
376.002	0.24
376.209	0.28
376.417	0.28
376.624	0.29
376.831	0.29
377.038	0.24
377.245	0.18
377.452	0.28
377.659	0.29
377.866	0.22
378.073	0.28
378.28	0.24
378.487	0.28
378.694	0.28
378.901	0.27
379.108	0.24
379.315	0.32
379.522	0.31
379.729	0.26
379.936	0.22
380.143	0.29
380.35	0.32
380.557	0.24
380.763	0.27
380.97	0.23
381.177	0.25
381.384	0.29
381.591	0.28
381.797	0.27
382.004	0.31
382.211	0.32
382.418	0.31
382.624	0.3
382.831	0.3
383.038	0.25
383.244	0.31
383.451	0.26
383.658	0.3
383.864	0.26
384.071	0.24
384.277	0.3
384.484	0.22
384.69	0.33
384.897	0.26
385.103	0.24
385.31	0.24
385.516	0.24
385.723	0.21
385.929	0.21
386.136	0.27
386.342	0.29
386.549	0.25
386.755	0.38
386.961	0.33
387.168	0.29
387.374	0.3
387.58	0.27
387.787	0.27
387.993	0.3
388.199	0.27
388.406	0.25
388.612	0.28
388.818	0.28
389.024	0.27
389.231	0.28
389.437	0.4
389.643	0.31
389.849	0.31
390.055	0.26
390.261	0.32
390.467	0.29
390.674	0.26
390.88	0.31
391.086	0.27
391.292	0.28
391.498	0.36
391.704	0.32
391.91	0.29
392.116	0.27
392.322	0.26
392.528	0.36
392.734	0.25
392.94	0.3
393.146	0.25
393.352	0.29
393.557	0.27
393.763	0.27
393.969	0.3
394.175	0.26
394.381	0.36
394.587	0.27
394.792	0.24
394.998	0.35
395.204	0.36
395.41	0.29
395.615	0.29
395.821	0.27
396.027	0.35
396.233	0.28
396.438	0.32
396.644	0.41
396.85	0.37
397.055	0.31
397.261	0.37
397.466	0.41
397.672	0.34
397.878	0.34
398.083	0.34
398.289	0.31
398.494	0.4
398.7	0.38
398.905	0.3
399.111	0.39
399.316	0.32
399.522	0.38
399.727	0.36
399.932	0.35
400.138	0.34
400.343	0.37
400.549	0.37
400.754	0.37
400.959	0.34
401.165	0.35
401.37	0.36
401.575	0.44
401.78	0.35
401.986	0.37
402.191	0.35
402.396	0.36
402.601	0.42
402.807	0.38
403.012	0.41
403.217	0.39
403.422	0.38
403.627	0.44
403.832	0.37
404.037	0.46
404.243	0.46
404.448	0.38
404.653	0.43
404.858	0.44
405.063	0.45
405.268	0.44
405.473	0.39
405.678	0.42
405.883	0.62
406.088	0.51
406.293	0.41
406.498	0.48
406.703	0.5
406.907	0.45
407.112	0.46
407.317	0.51
407.522	0.55
407.727	0.54
407.932	0.56
408.136	0.61
408.341	0.56
408.546	0.58
408.751	0.56
408.956	0.6
409.16	0.67
409.365	0.6
409.57	0.62
409.774	0.62
409.979	0.71
410.184	0.66
410.388	0.65
410.593	0.75
410.798	0.72
411.002	0.74
411.207	0.87
411.411	0.8
411.616	0.78
411.82	0.84
412.025	0.85
412.229	0.89
412.434	0.93
412.638	0.94
412.843	0.86
413.047	0.91
413.252	0.93
413.456	1.01
413.66	1.08
413.865	1.05
414.069	1.18
414.273	1.14
414.478	1.13
414.682	1.15
414.886	1.22
415.091	1.14
415.295	1.21
415.499	1.38
415.703	1.3
415.908	1.43
416.112	1.38
416.316	1.56
416.52	1.53
416.724	1.57
416.929	1.61
417.133	1.8
417.337	1.69
417.541	1.75
417.745	1.79
417.949	1.99
418.153	1.98
418.357	1.99
418.561	2.19
418.765	2.14
418.969	2.3
419.173	2.44
419.377	2.41
419.581	2.56
419.785	2.6
419.989	2.64
420.193	2.76
420.397	2.92
420.601	3
420.804	3.03
421.008	3.1
421.212	3.18
421.416	3.2
421.62	3.23
421.823	3.36
422.027	3.52
422.231	3.43
422.435	3.43
422.638	3.56
422.842	3.65
423.046	3.66
423.249	3.88
423.453	3.87
423.657	4.16
423.86	4.17
424.064	4.28
424.268	4.41
424.471	4.41
424.675	4.68
424.878	4.69
425.082	4.86
425.285	5.12
425.489	5.1
425.692	5.28
425.896	5.24
426.099	5.37
426.303	5.57
426.506	5.79
426.71	5.95
426.913	6.08
427.116	6.24
427.32	6.26
427.523	6.35
427.726	6.61
427.93	6.75
428.133	7.04
428.336	7.17
428.54	7.34
428.743	7.61
428.946	7.78
429.149	7.81
429.353	7.87
429.556	8.04
429.759	8.05
429.962	8.15
430.165	8.25
430.368	8.02
430.571	7.99
430.775	8.09
430.978	8
431.181	8.07
431.384	8.2
431.587	8.26
431.79	8.57
431.993	8.69
432.196	8.89
432.399	9.35
432.602	9.31
432.805	9.49
433.008	10.14
433.211	9.95
433.414	10.11
433.616	10.23
433.819	10.19
434.022	10.46
434.225	10.51
434.428	10.64
434.631	10.98
434.833	10.8
435.036	11.04
435.239	11.2
435.442	11.35
435.645	11.44
435.847	11.53
436.05	11.85
436.253	12.01
436.455	12.1
436.658	11.96
436.861	12.22
437.063	12.48
437.266	12.51
437.468	12.67
437.671	13.03
437.874	13.06
438.076	13.02
438.279	13.46
438.481	13.36
438.684	14.23
438.886	13.79
439.089	14.17
439.291	14.09
439.494	14.53
439.696	14.63
439.899	15.11
440.101	15.47
440.303	15.82
440.506	16.56
440.708	16.22
440.91	16.26
441.113	16.69
441.315	16.88
441.517	16.73
441.72	17.17
441.922	16.83
442.124	16.72
442.326	17.15
442.529	17.41
442.731	17.46
442.933	17.63
443.135	17.49
443.337	17.47
443.539	17.95
443.742	17.68
443.944	18.26
444.146	17.96
444.348	17.96
444.55	18
444.752	18.07
444.954	18.2
445.156	18.01
445.358	18.61
445.56	18.66
445.762	18.38
445.964	18.86
446.166	18.53
446.368	18.6
446.57	18.55
446.772	18.28
446.974	17.9
447.175	18.22
447.377	18.05
447.579	18.4
447.781	17.92
447.983	17.87
448.184	17.42
448.386	17.78
448.588	17.22
448.79	17.28
448.991	17.55
449.193	17.66
449.395	16.92
449.597	16.58
449.798	16.43
450	16.11
450.202	15.94
450.403	15.98
450.605	15.79
450.806	15.44
451.008	15.44
451.21	15.18
451.411	14.65
451.613	13.93
451.814	14.09
452.016	14.22
452.217	13.36
452.419	13.45
452.62	13.23
452.821	12.85
453.023	12.73
453.224	12.39
453.426	11.83
453.627	11.29
453.828	11.28
454.03	11.42
454.231	11.39
454.432	11.24
454.634	10.99
454.835	10.64
455.036	10.48
455.238	10.22
455.439	9.92
455.64	9.7
455.841	9.5
456.042	9.59
456.244	9.27
456.445	9
456.646	8.7
456.847	8.68
457.048	8.57
457.249	8.59
457.45	8.23
457.651	7.81
457.852	7.7
458.054	7.39
458.255	7.24
458.456	7.34
458.657	7.3
458.858	6.82
459.058	6.73
459.259	6.68
459.46	6.52
459.661	6.48
459.862	6.47
460.063	6.36
460.264	6.26
460.465	6.06
460.666	6.06
460.866	5.77
461.067	5.48
461.268	5.6
461.469	5.6
461.67	5.38
461.87	5.23
462.071	5.25
462.272	5.23
462.473	5.17
462.673	5.24
462.874	5.19
463.075	5.17
463.275	5.17
463.476	5.2
463.676	5.1
463.877	5
464.078	4.92
464.278	4.91
464.479	4.87
464.679	4.79
464.88	4.71
465.08	4.65
465.281	4.55
465.481	4.41
465.682	4.22
465.882	4.11
466.083	4.1
466.283	4.06
466.483	3.95
466.684	3.87
466.884	3.68
467.085	3.74
467.285	3.73
467.485	3.71
467.686	3.56
467.886	3.5
468.086	3.44
468.286	3.3
468.487	3.43
468.687	3.31
468.887	3.24
469.087	3.31
469.287	3.28
469.488	3.02
469.688	3.26
469.888	3.17
470.088	3.11
470.288	3.08
470.488	3.03
470.688	2.87
470.888	2.91
471.088	2.76
471.288	2.79
471.488	2.76
471.688	2.75
471.888	2.72
472.088	2.85
472.288	2.7
472.488	2.68
472.688	2.55
472.888	2.64
473.088	2.6
473.288	2.51
473.488	2.45
473.688	2.55
473.887	2.49
474.087	2.48
474.287	2.44
474.487	2.33
474.687	2.49
474.886	2.36
475.086	2.33
475.286	2.33
475.486	2.28
475.685	2.25
475.885	2.24
476.085	2.23
476.284	2.26
476.484	2.22
476.684	2.21
476.883	2.28
477.083	2.18
477.282	2.13
477.482	2.16
477.681	2.17
477.881	2.04
478.08	2.13
478.28	2.06
478.479	2.06
478.679	2.1
478.878	2.03
479.078	2.03
479.277	2.08
479.477	2.06
479.676	2.05
479.875	1.99
480.075	1.99
480.274	2.02
480.473	2.04
480.673	2.02
480.872	2.08
481.071	2
481.271	2.08
481.47	1.98
481.669	1.97
481.868	1.96
482.067	1.98
482.267	1.94
482.466	1.97
482.665	1.96
482.864	1.99
483.063	1.94
483.262	1.97
483.461	2.07
483.661	2.04
483.86	2.02
484.059	2.04
484.258	2.08
484.457	2.03
484.656	2
484.855	2.07
485.054	1.95
485.253	1.96
485.452	1.99
485.651	2.04
485.849	2.01
486.048	1.96
486.247	2.02
486.446	2.07
486.645	2.05
486.844	2.08
487.043	2.02
487.241	2.05
487.44	2.1
487.639	2.11
487.838	2.12
488.037	2.07
488.235	2.18
488.434	2.15
488.633	2.04
488.831	2.24
489.03	2.23
489.229	2.23
489.427	2.19
489.626	2.27
489.825	2.28
490.023	2.29
490.222	2.27
490.42	2.3
490.619	2.35
490.817	2.34
491.016	2.36
491.214	2.4
491.413	2.39
491.611	2.39
491.81	2.41
492.008	2.45
492.207	2.52
492.405	2.48
492.604	2.46
492.802	2.52
493	2.58
493.199	2.59
493.397	2.64
493.595	2.63
493.794	2.66
493.992	2.78
494.19	2.71
494.388	2.81
494.587	2.71
494.785	2.8
494.983	2.75
495.181	2.85
495.379	2.9
495.578	2.93
495.776	2.94
495.974	2.9
496.172	2.98
496.37	3.07
496.568	3.11
496.766	3.01
496.964	3.18
497.162	3.19
497.36	3.22
497.558	3.21
497.756	3.25
497.954	3.29
498.152	3.36
498.35	3.43
498.548	3.33
498.746	3.39
498.944	3.4
499.142	3.41
499.34	3.51
499.538	3.63
499.736	3.49
499.933	3.62
500.131	3.6
500.329	3.8
500.527	3.72
500.725	3.76
500.922	3.82
501.12	3.83
501.318	3.93
501.516	3.89
501.713	3.96
501.911	4
502.109	3.97
502.306	4.09
502.504	3.98
502.701	4.12
502.899	4.15
503.097	4.31
503.294	4.17
503.492	4.34
503.689	4.37
503.887	4.31
504.084	4.44
504.282	4.4
504.479	4.4
504.677	4.56
504.874	4.54
505.072	4.44
505.269	4.67
505.466	4.62
505.664	4.71
505.861	4.62
506.059	4.77
506.256	4.75
506.453	4.85
506.651	4.92
506.848	5.01
507.045	4.95
507.242	4.93
507.44	5
507.637	5.08
507.834	5.06
508.031	5.21
508.229	5.07
508.426	5.09
508.623	5.24
508.82	5.31
509.017	5.27
509.214	5.26
509.411	5.38
509.608	5.31
509.805	5.48
510.003	5.46
510.2	5.49
510.397	5.64
510.594	5.57
510.791	5.63
510.988	5.59
511.184	5.57
511.381	5.56
511.578	5.69
511.775	5.81
511.972	5.73
512.169	5.77
512.366	5.77
512.563	5.95
512.76	5.95
512.956	6.02
513.153	5.93
513.35	5.86
513.547	5.92
513.744	6.07
513.94	6.06
514.137	6.11
514.334	6.07
514.53	6.13
514.727	6.37
514.924	6.21
515.12	6.2
515.317	6.25
515.514	6.18
515.71	6.18
515.907	6.41
516.103	6.39
516.3	6.3
516.497	6.44
516.693	6.45
516.89	6.4
517.086	6.49
517.283	6.51
517.479	6.41
517.676	6.59
517.872	6.64
518.068	6.59
518.265	6.59
518.461	6.6
518.658	6.68
518.854	6.67
519.05	6.8
519.247	6.83
519.443	6.65
519.639	6.92
519.836	6.74
520.032	6.73
520.228	6.95
520.424	6.83
520.621	6.97
520.817	6.97
521.013	6.86
521.209	7.1
521.405	7.06
521.601	7.03
521.798	6.98
521.994	7.06
522.19	6.99
522.386	6.99
522.582	7.11
522.778	7.33
522.974	7.09
523.17	7.09
523.366	7.11
523.562	7.17
523.758	7.16
523.954	6.99
524.15	7.19
524.346	7.21
524.542	7.29
524.738	7.2
524.934	7.38
525.129	7.3
525.325	7.22
525.521	7.23
525.717	7.51
525.913	7.28
526.109	7.31
526.304	7.42
526.5	7.4
526.696	7.42
526.892	7.34
527.087	7.6
527.283	7.49
527.479	7.46
527.674	7.3
527.87	7.45
528.066	7.51
528.261	7.49
528.457	7.38
528.653	7.56
528.848	7.56
529.044	7.62
529.239	7.49
529.435	7.55
529.63	7.49
529.826	7.48
530.021	7.56
530.217	7.59
530.412	7.57
530.608	7.55
530.803	7.6
530.999	7.53
531.194	7.64
531.389	7.66
531.585	7.73
531.78	7.8
531.975	7.67
532.171	7.74
532.366	7.72
532.561	7.72
532.757	7.69
532.952	7.86
533.147	7.65
533.342	7.77
533.538	7.69
533.733	7.85
533.928	7.56
534.123	7.77
534.318	7.84
534.513	7.73
534.709	7.85
534.904	7.83
535.099	7.88
535.294	7.86
535.489	7.88
535.684	7.82
535.879	7.8
536.074	7.83
536.269	7.89
536.464	7.91
536.659	7.88
536.854	7.84
537.049	7.93
537.244	7.86
537.439	7.89
537.634	7.87
537.828	7.94
538.023	7.93
538.218	7.93
538.413	7.81
538.608	7.91
538.803	7.92
538.997	7.91
539.192	7.87
539.387	7.85
539.582	7.97
539.776	7.82
539.971	7.94
540.166	8
540.36	7.94
540.555	8.08
540.75	7.99
540.944	7.97
541.139	8
541.334	7.99
541.528	7.99
541.723	7.98
541.917	8.03
542.112	7.95
542.306	7.85
542.501	7.87
542.695	7.93
542.89	7.93
543.084	7.98
543.279	8.04
543.473	8.05
543.668	8.1
543.862	7.89
544.056	7.99
544.251	8.07
544.445	8.11
544.64	8.1
544.834	7.77
545.028	7.65
545.222	8.05
545.417	8.3
545.611	8.09
545.805	8.08
546	7.87
546.194	8.06
546.388	8.09
546.582	7.98
546.776	8.04
546.97	8.08
547.165	8.07
547.359	7.98
547.553	8.03
547.747	7.98
547.941	8.2
548.135	8.02
548.329	8.09
548.523	8.06
548.717	7.99
548.911	7.96
549.105	8.05
549.299	8.1
549.493	8.1
549.687	7.93
549.881	8.1
550.075	8.09
550.269	7.92
550.463	8.02
550.657	8.05
550.85	8.1
551.044	8.06
551.238	8.11
551.432	8.03
551.626	8.08
551.82	8.16
552.013	7.93
552.207	8.24
552.401	8.17
552.594	8.11
552.788	8.01
552.982	8.02
553.176	8.03
553.369	8.19
553.563	8.11
553.756	8.07
553.95	8.14
554.144	8.13
554.337	8.05
554.531	7.87
554.724	8.1
554.918	8.15
555.111	8.01
555.305	8.15
555.498	8
555.692	8.14
555.885	8.11
556.079	8
556.272	8.06
556.466	8.04
556.659	8.06
556.852	8.15
557.046	8.04
557.239	7.93
557.432	8.09
557.626	8.17
557.819	8.21
558.012	8.13
558.206	8.15
558.399	8.15
558.592	8.09
558.785	8.07
558.979	8.1
559.172	8.11
559.365	8.09
559.558	8.07
559.751	8
559.944	8.14
560.138	8.07
560.331	8.09
560.524	8.19
560.717	8.13
560.91	8.05
561.103	8.12
561.296	8.01
561.489	8.16
561.682	8.23
561.875	8.07
562.068	8.23
562.261	7.94
562.454	8.19
562.647	8.08
562.84	8.12
563.032	8.14
563.225	8.01
563.418	8.07
563.611	8.12
563.804	8.06
563.997	7.98
564.19	7.89
564.382	8.22
564.575	8.08
564.768	8.05
564.961	8.09
565.153	8.02
565.346	7.98
565.539	8.13
565.731	8
565.924	8.16
566.117	8.2
566.309	8.11
566.502	8.03
566.695	8.09
566.887	8.1
567.08	8.1
567.272	8.13
567.465	8.03
567.657	8.09
567.85	7.97
568.042	8.11
568.235	8.11
568.427	7.9
568.62	7.99
568.812	8.01
569.005	8.12
569.197	7.99
569.389	8.01
569.582	8
569.774	8
569.966	7.97
570.159	7.89
570.351	7.94
570.543	8.07
570.736	8.06
570.928	7.8
571.12	8.05
571.312	7.92
571.505	7.69
571.697	8.03
571.889	7.99
572.081	8.01
572.273	7.9
572.465	7.97
572.658	8.01
572.85	7.99
573.042	8.03
573.234	7.89
573.426	7.89
573.618	7.9
573.81	7.97
574.002	7.9
574.194	7.96
574.386	7.93
574.578	7.84
574.77	7.91
574.962	7.91
575.154	7.76
575.346	7.88
575.538	7.85
575.729	7.83
575.921	7.91
576.113	7.94
576.305	7.85
576.497	7.97
576.689	7.78
576.88	7.77
577.072	7.93
577.264	7.87
577.456	7.82
577.647	7.84
577.839	7.94
578.031	7.83
578.223	7.76
578.414	7.71
578.606	7.83
578.798	7.84
578.989	7.91
579.181	7.89
579.372	7.88
579.564	7.78
579.755	7.77
579.947	7.71
580.139	7.76
580.33	7.66
580.522	7.81
580.713	7.74
580.905	7.7
581.096	7.78
581.287	7.67
581.479	7.68
581.67	7.72
581.862	7.65
582.053	7.77
582.244	7.59
582.436	7.74
582.627	7.62
582.818	7.63
583.01	7.61
583.201	7.71
583.392	7.59
583.583	7.58
583.775	7.45
583.966	7.52
584.157	7.62
584.348	7.7
584.54	7.58
584.731	7.55
584.922	7.53
585.113	7.41
585.304	7.54
585.495	7.54
585.686	7.63
585.877	7.66
586.068	7.65
586.259	7.54
586.45	7.49
586.641	7.46
586.832	7.61
587.023	7.49
587.214	7.43
587.405	7.52
587.596	7.38
587.787	7.42
587.978	7.44
588.169	7.4
588.36	7.36
588.551	7.4
588.742	7.39
588.932	7.47
589.123	7.24
589.314	7.48
589.505	7.31
589.696	7.45
589.886	7.26
590.077	7.32
590.268	7.23
590.458	7.21
590.649	7.11
590.84	7.33
591.03	7.23
591.221	7.29
591.412	7.07
591.602	7.33
591.793	7.21
591.984	7.25
592.174	7.23
592.365	7.31
592.555	7.04
592.746	7.12
592.936	7.17
593.127	7.19
593.317	7.17
593.508	7.16
593.698	7.09
593.889	7.07
594.079	7
594.269	7.01
594.46	7.02
594.65	7.09
594.84	7.09
595.031	6.96
595.221	6.97
595.411	6.97
595.602	6.94
595.792	6.94
595.982	6.82
596.172	7.03
596.363	6.81
596.553	6.97
596.743	6.95
596.933	6.87
597.123	6.88
597.314	6.75
597.504	6.76
597.694	6.92
597.884	6.76
598.074	6.91
598.264	6.79
598.454	6.76
598.644	6.71
598.834	6.75
599.024	6.73
599.214	6.63
599.404	6.78
599.594	6.65
599.784	6.6
599.974	6.73
600.164	6.65
600.354	6.67
600.544	6.63
600.734	6.58
600.924	6.56
601.114	6.56
601.303	6.59
601.493	6.61
601.683	6.55
601.873	6.54
602.063	6.51
602.252	6.49
602.442	6.39
602.632	6.46
602.821	6.36
603.011	6.46
603.201	6.45
603.39	6.39
603.58	6.28
603.77	6.37
603.959	6.44
604.149	6.36
604.339	6.35
604.528	6.41
604.718	6.39
604.907	6.35
605.097	6.23
605.286	6.27
605.476	6.21
605.665	6.21
605.855	6.29
606.044	6.25
606.234	6.23
606.423	6.15
606.612	6.14
606.802	6.09
606.991	6.13
607.181	6.18
607.37	6.18
607.559	5.87
607.749	6.1
607.938	6.07
608.127	6.01
608.316	6.03
608.506	5.97
608.695	6.07
608.884	5.95
609.073	6
609.263	6.04
609.452	6.02
609.641	5.87
609.83	5.86
610.019	5.91
610.208	5.84
610.397	5.83
610.586	5.84
610.775	5.8
610.965	5.8
611.154	5.67
611.343	5.78
611.532	5.7
611.721	5.77
611.91	5.72
612.099	5.69
612.287	5.56
612.476	5.59
612.665	5.71
612.854	5.57
613.043	5.57
613.232	5.63
613.421	5.53
613.61	5.54
613.798	5.62
613.987	5.58
614.176	5.48
614.365	5.55
614.554	5.51
614.742	5.52
614.931	5.38
615.12	5.47
615.309	5.44
615.497	5.35
615.686	5.29
615.875	5.39
616.063	5.3
616.252	5.35
616.44	5.33
616.629	5.31
616.818	5.27
617.006	5.31
617.195	5.25
617.383	5.24
617.572	5.18
617.76	5.22
617.949	5.19
618.137	5.31
618.326	5.18
618.514	5.03
618.703	4.95
618.891	5.19
619.079	5.04
619.268	5.17
619.456	5.04
619.644	5.07
619.833	4.93
620.021	5.06
620.209	4.88
620.398	4.95
620.586	4.89
620.774	4.98
620.962	4.97
621.151	5.05
621.339	4.92
621.527	4.78
621.715	4.81
621.903	4.9
622.092	4.78
622.28	4.88
622.468	4.69
622.656	4.81
622.844	4.77
623.032	4.81
623.22	4.69
623.408	4.8
623.596	4.76
623.784	4.75
623.972	4.66
624.16	4.69
624.348	4.71
624.536	4.74
624.724	4.57
624.912	4.66
625.1	4.58
625.288	4.6
625.476	4.54
625.664	4.58
625.851	4.55
626.039	4.54
626.227	4.45
626.415	4.52
626.603	4.42
626.79	4.45
626.978	4.42
627.166	4.5
627.354	4.39
627.541	4.39
627.729	4.25
627.917	4.49
628.104	4.42
628.292	4.32
628.48	4.39
628.667	4.24
628.855	4.34
629.042	4.36
629.23	4.27
629.418	4.27
629.605	4.28
629.793	4.19
629.98	4.19
630.168	4.11
630.355	4.18
630.543	4.12
630.73	4.1
630.917	4.06
631.105	4.15
631.292	4.09
631.48	4.1
631.667	4.12
631.854	4.1
632.042	4.07
632.229	4
632.416	4.04
632.604	4.03
632.791	3.93
632.978	4
633.165	3.93
633.353	4.01
633.54	4.03
633.727	3.81
633.914	3.84
634.101	3.74
634.289	3.9
634.476	3.8
634.663	3.77
634.85	3.81
635.037	3.77
635.224	3.72
635.411	3.8
635.598	3.77
635.785	3.72
635.972	3.7
636.159	3.75
636.346	3.72
636.533	3.64
636.72	3.66
636.907	3.63
637.094	3.62
637.281	3.51
637.468	3.6
637.655	3.67
637.842	3.56
638.029	3.57
638.215	3.53
638.402	3.54
638.589	3.46
638.776	3.5
638.963	3.49
639.149	3.55
639.336	3.54
639.523	3.46
639.709	3.47
639.896	3.46
640.083	3.38
640.27	3.47
640.456	3.4
640.643	3.34
640.829	3.3
641.016	3.32
641.203	3.32
641.389	3.35
641.576	3.31
641.762	3.23
641.949	3.27
642.135	3.25
642.322	3.27
642.508	3.19
642.695	3.2
642.881	3.18
643.068	3.16
643.254	3.14
643.441	3.16
643.627	3.2
643.813	3.09
644	3.19
644.186	3.05
644.372	3.1
644.559	3.16
644.745	3.07
644.931	3.06
645.118	3.1
645.304	3.01
645.49	3.05
645.676	3.01
645.862	3.01
646.049	3.09
646.235	3.03
646.421	3.04
646.607	3.06
646.793	2.93
646.979	2.9
647.165	2.98
647.352	2.97
647.538	2.91
647.724	2.83
647.91	2.88
648.096	2.91
648.282	2.86
648.468	2.87
648.654	2.88
648.84	2.86
649.026	2.85
649.212	2.81
649.397	2.8
649.583	2.76
649.769	2.82
649.955	2.78
650.141	2.76
650.327	2.79
650.513	2.69
650.698	2.79
650.884	2.66
651.07	2.73
651.256	2.69
651.442	2.73
651.627	2.65
651.813	2.65
651.999	2.61
652.184	2.61
652.37	2.65
652.556	2.57
652.741	2.66
652.927	2.52
653.113	2.56
653.298	2.61
653.484	2.61
653.669	2.52
653.855	2.55
654.04	2.54
654.226	2.51
654.412	2.53
654.597	2.42
654.782	2.52
654.968	2.55
655.153	2.5
655.339	2.47
655.524	2.48
655.71	2.5
655.895	2.46
656.08	2.44
656.266	2.48
656.451	2.41
656.636	2.39
656.822	2.45
657.007	2.4
657.192	2.4
657.378	2.35
657.563	2.36
657.748	2.32
657.933	2.38
658.118	2.28
658.304	2.39
658.489	2.42
658.674	2.35
658.859	2.26
659.044	2.34
659.229	2.29
659.414	2.22
659.599	2.3
659.785	2.26
659.97	2.27
660.155	2.23
660.34	2.3
660.525	2.21
660.71	2.19
660.895	2.26
661.08	2.2
661.264	2.15
661.449	2.21
661.634	2.17
661.819	2.24
662.004	2.16
662.189	2.06
662.374	2.11
662.559	2.09
662.743	1.99
662.928	2.07
663.113	2.04
663.298	2.06
663.483	2.04
663.667	2.05
663.852	1.99
664.037	2.07
664.221	1.97
664.406	2.01
664.591	2
664.775	2.02
664.96	1.9
665.145	1.92
665.329	1.94
665.514	1.94
665.698	1.91
665.883	1.89
666.068	1.95
666.252	1.92
666.437	1.85
666.621	1.9
666.806	1.84
666.99	1.85
667.174	1.84
667.359	1.88
667.543	1.78
667.728	1.8
667.912	1.73
668.096	1.79
668.281	1.73
668.465	1.78
668.649	1.79
668.834	1.7
669.018	1.76
669.202	1.77
669.387	1.75
669.571	1.78
669.755	1.69
669.939	1.67
670.124	1.71
670.308	1.68
670.492	1.71
670.676	1.72
670.86	1.69
671.044	1.62
671.228	1.66
671.413	1.61
671.597	1.59
671.781	1.6
671.965	1.64
672.149	1.59
672.333	1.66
672.517	1.57
672.701	1.62
672.885	1.6
673.069	1.51
673.253	1.62
673.437	1.58
673.621	1.53
673.804	1.56
673.988	1.52
674.172	1.53
674.356	1.45
674.54	1.49
674.724	1.59
674.908	1.53
675.091	1.54
675.275	1.55
675.459	1.53
675.643	1.44
675.826	1.48
676.01	1.49
676.194	1.41
676.377	1.5
676.561	1.54
676.745	1.43
676.928	1.5
677.112	1.47
677.296	1.44
677.479	1.38
677.663	1.39
677.846	1.41
678.03	1.4
678.213	1.37
678.397	1.39
678.58	1.33
678.764	1.37
678.947	1.31
679.131	1.39
679.314	1.34
679.498	1.39
679.681	1.34
679.865	1.41
680.048	1.28
680.231	1.36
680.415	1.28
680.598	1.27
680.781	1.28
680.965	1.31
681.148	1.26
681.331	1.24
681.514	1.31
681.698	1.2
681.881	1.31
682.064	1.25
682.247	1.27
682.43	1.15
682.614	1.25
682.797	1.27
682.98	1.25
683.163	1.23
683.346	1.28
683.529	1.25
683.712	1.18
683.895	1.23
684.078	1.2
684.261	1.16
684.444	1.21
684.627	1.24
684.81	1.15
684.993	1.14
685.176	1.17
685.359	1.15
685.542	1.14
685.725	1.17
685.908	1.15
686.091	1.12
686.274	1.22
686.457	1.16
686.639	1.13
686.822	1.18
687.005	1.13
687.188	1.16
687.371	1.14
687.553	1.2
687.736	1.16
687.919	1.19
688.102	1.12
688.284	1.14
688.467	1.02
688.65	1.05
688.832	1.01
689.015	1.06
689.197	1.02
689.38	1.16
689.563	1.06
689.745	1.02
689.928	1.06
690.11	1.06
690.293	1.04
690.475	0.98
690.658	1.1
690.84	1.04
691.023	1.01
691.205	1.06
691.388	1.06
691.57	1
691.752	1.01
691.935	0.96
692.117	0.92
692.3	0.95
692.482	0.92
692.664	0.97
692.847	0.92
693.029	0.99
693.211	1
693.393	0.91
693.576	0.91
693.758	0.93
693.94	1
694.122	0.93
694.304	0.97
694.487	0.9
694.669	1.01
694.851	0.84
695.033	0.95
695.215	0.86
695.397	0.92
695.579	0.96
695.761	0.8
695.943	0.81
696.125	0.98
696.308	0.93
696.49	0.83
696.671	1
696.853	0.86
697.035	0.99
697.217	0.88
697.399	0.92
697.581	0.82
697.763	0.86
697.945	0.77
698.127	0.8
698.309	0.79
698.491	0.86
698.672	0.9
698.854	0.86
699.036	0.9
699.218	0.86
699.399	0.9
699.581	0.85
699.763	0.79
699.945	0.83
700.126	0.74
700.308	0.83
700.49	0.83
700.671	0.76
700.853	0.79
701.035	0.78
701.216	0.86
701.398	0.74
701.579	0.85
701.761	0.82
701.943	0.81
702.124	0.74
702.306	0.8
702.487	0.87
702.669	0.77
702.85	0.73
703.031	0.73
703.213	0.86
703.394	0.78
703.576	0.73
703.757	0.88
703.938	0.8
704.12	0.9
704.301	0.72
704.483	0.74
704.664	0.76
704.845	0.86
705.026	0.87
705.208	0.75
705.389	0.75
705.57	0.81
705.751	0.72
705.933	0.83
706.114	0.79
706.295	0.78
706.476	0.58
706.657	0.75
706.838	0.77
707.02	0.76
707.201	0.65
707.382	0.67
707.563	0.71
707.744	0.71
707.925	0.69
708.106	0.72
708.287	0.78
708.468	0.75
708.649	0.7
708.83	0.72
709.011	0.69
709.192	0.73
709.373	0.68
709.554	0.7
709.734	0.7
709.915	0.82
710.096	0.67
710.277	0.56
710.458	0.67
710.639	0.73
710.819	0.63
711	0.7
711.181	0.77
711.362	0.67
711.542	0.71
711.723	0.68
711.904	0.76
712.085	0.65
712.265	0.64
712.446	0.6
712.627	0.64
712.807	0.68
712.988	0.66
713.168	0.59
713.349	0.64
713.53	0.46
713.71	0.55
713.891	0.54
714.071	0.62
714.252	0.64
714.432	0.66
714.613	0.53
714.793	0.62
714.974	0.76
715.154	0.74
715.334	0.68
715.515	0.69
715.695	0.5
715.876	0.66
716.056	0.58
716.236	0.62
716.417	0.57
716.597	0.54
716.777	0.74
716.957	0.62
717.138	0.63
717.318	0.62
717.498	0.55
717.678	0.61
717.859	0.6
718.039	0.53
718.219	0.62
718.399	0.66
718.579	0.57
718.759	0.53
718.939	0.63
719.12	0.62
719.3	0.63
719.48	0.46
719.66	0.47
719.84	0.7
720.02	0.52
720.2	0.51
720.38	0.62
720.56	0.67
720.74	0.55
720.92	0.62
721.1	0.77
721.279	0.65
721.459	0.59
721.639	0.54
721.819	0.68
721.999	0.57
722.179	0.62
722.359	0.51
722.538	0.63
722.718	0.55
722.898	0.5
723.078	0.55
723.257	0.6
723.437	0.59
723.617	0.57
723.797	0.6
723.976	0.51
724.156	0.6
724.336	0.59
724.515	0.83
724.695	0.51
724.874	0.53
725.054	0.64
725.234	0.53
725.413	0.54
725.593	0.61
725.772	0.49
725.952	0.59
726.131	0.6
726.311	0.59
726.49	0.6
726.67	0.56
726.849	0.49
727.028	0.57
727.208	0.55
727.387	0.63
727.567	0.53
727.746	0.58
727.925	0.46
728.105	0.56
728.284	0.56
728.463	0.56
728.643	0.61
728.822	0.52
729.001	0.58
729.18	0.56
729.359	0.73
729.539	0.6
729.718	0.59
729.897	0.63
730.076	0.53
730.255	0.53
730.434	0.63
730.614	0.63
730.793	0.66
730.972	0.53
731.151	0.6
731.33	0.7
731.509	0.62
731.688	0.52
731.867	0.57
732.046	0.4
732.225	0.72
732.404	0.49
732.583	0.5
732.762	0.61
732.941	0.65
733.12	0.59
733.298	0.58
733.477	0.63
733.656	0.51
733.835	0.48
734.014	0.57
734.193	0.67
734.371	0.67
734.55	0.64
734.729	0.52
734.908	0.59
735.086	0.59
735.265	0.65
735.444	0.45
735.623	0.57
735.801	0.51
735.98	0.61
736.159	0.65
736.337	0.57
736.516	0.64
736.694	0.59
736.873	0.55
737.052	0.75
737.23	0.68
737.409	0.56
737.587	0.8
737.766	0.47
737.944	0.61
738.123	0.64
738.301	0.63
738.479	0.5
738.658	0.65
738.836	0.36
739.015	0.65
739.193	0.72
739.371	0.5
739.55	0.54
739.728	0.43
739.906	0.73
740.085	0.7
740.263	0.52
740.441	0.47
740.62	0.76
740.798	0.75
740.976	0.35
741.154	0.54
741.332	0.82
741.511	0.59
741.689	0.6
741.867	0.57
742.045	0.47
742.223	0.55
742.401	0.52
742.579	0.56
742.757	0.55
742.935	0.44
743.114	0.49
743.292	0.4
743.47	0.45
743.648	0.54
743.826	0.28
744.004	0.63
744.181	0.51
744.359	0.44
744.537	0.54
744.715	0.53
744.893	0.52
745.071	0.56
745.249	0.47
745.427	0.54
745.605	0.56
745.782	0.44
745.96	0.46
746.138	0.44
746.316	0.45
746.493	0.33
746.671	0.5
746.849	0.46
747.027	0.62
747.204	0.33
747.382	0.52
747.56	0.29
747.737	0.39
747.915	0.31
748.093	0.58
748.27	0.46
748.448	0.45
748.625	0.28
748.803	0.42
748.98	0.37
749.158	0.42
749.335	0.53
749.513	0.4
749.69	0.4
749.868	0.42
750.045	0.48
750.223	0.4
750.4	0.14
750.578	0.61
750.755	0.47
750.932	0.2
751.11	0.52
751.287	0.28
751.464	0.54
751.642	0.33
751.819	0.45
751.996	0.49
752.173	0.44
752.351	0.31
752.528	0.47
752.705	0.46
752.882	0.4
753.06	0.42
753.237	0.46
753.414	0.49
753.591	0.54
753.768	0.42
753.945	0.4
754.122	0.34
754.299	0.4
754.476	0.29
754.654	0.35
754.831	0.44
755.008	0.44
755.185	0.25
755.362	0.3
755.539	0.37
755.716	0.6
755.892	0.38
756.069	0.43
756.246	0.42
756.423	0.45
756.6	0.61
756.777	0.4
756.954	0.49
757.131	0.43
757.307	0.26
757.484	0.27
757.661	0.4
757.838	0.5
758.015	0.4
758.191	0.47
758.368	0.35
758.545	0.53
758.721	0.43
758.898	0.24
759.075	0.43
759.251	0.55
759.428	0.41
759.605	0.28
759.781	0.3
759.958	0.43
760.134	0.49
760.311	0.28
760.488	0.54
760.664	0.39
760.841	0.33
761.017	0.36
761.194	0.43
761.37	0.34
761.547	0.35
761.723	0.29
761.899	0.39
762.076	0.24
762.252	0.32
762.429	0.4
762.605	0.36
762.781	0.4
762.958	0.51
763.134	0.31
763.31	0.35
763.486	0.48
763.663	0.17
763.839	0.31
764.015	0.25
764.191	0.12
764.368	0.37
764.544	0.27
764.72	0.37
764.896	0.57
765.072	0.4
765.248	0.32
765.425	0.43
765.601	0.33
765.777	0.4
765.953	0.16
766.129	0.32
766.305	0.36
766.481	0.39
766.657	0.43
766.833	0.5
767.009	0.21
767.185	0.37
767.361	0.33
767.537	0.34
767.713	0.34
767.889	0.2
768.065	0.33
768.24	0.38
768.416	0.41
768.592	0.39
768.768	0.41
768.944	0.5
769.12	0.21
769.295	0.4
769.471	0.48
769.647	0.3
769.823	0.46
769.998	0.26
770.174	0.31
770.35	0.66
770.525	0.7
770.701	0.52
770.877	0.45
771.052	0.31
771.228	0.38
771.403	0.39
771.579	0.49
771.755	0.6
771.93	0.18
772.106	0.3
772.281	0.23
772.457	0.47
772.632	0.53
772.808	0.29
772.983	0.29
773.159	0.19
773.334	0.56
773.509	0.32
773.685	0.29
773.86	0.51
774.036	0.68
774.211	0.45
774.386	0.21
774.562	0.36
774.737	0.53
774.912	0.35
775.087	0.38
775.263	0.49
775.438	0.41
775.613	0.06
775.788	0.3
775.964	0.51
776.139	0.67
776.314	0.29
776.489	0.42
776.664	0.48
776.839	0.25
777.014	0.46
777.19	0.52
777.365	0.55
777.54	0.49
777.715	0.31
777.89	0.3
778.065	0.26
778.24	0.33
778.415	0.54
778.59	0.15
778.765	0.2
778.94	0.45
779.115	0.3
779.289	0.38
779.464	0.34
779.639	0.26
779.814	0.12
779.989	0.16
780.164	0.54
780.339	0.47
780.513	0.13
780.688	0.19
780.863	0.37
781.038	0.5
781.212	0.29
781.387	0.4
781.562	0.72
781.737	0.45
781.911	0.53
782.086	0.28
782.261	0.46
782.435	0.53
782.61	0.19
782.784	0.32
782.959	0.55
783.134	0.23
783.308	0.43
783.483	0.25
783.657	0.95
783.832	0.51
784.006	0.22
784.181	0.72
784.355	0.54
784.53	0.54
784.704	0.38
784.878	0.63
785.053	0.35
785.227	0.58
785.402	0.66
785.576	0.12
785.75	0.39
785.925	0.44
786.099	0.41
786.273	0.54
786.448	0.7
786.622	0.59
786.796	0.63
786.97	0.32
787.145	0.83
787.319	0.32
787.493	0.44
787.667	0.12
787.841	0.38
788.015	0.49
788.19	0.37
788.364	0.4
788.538	0.59
788.712	0.7
788.886	0.45
789.06	0.51
789.234	0.58
789.408	0.05
789.582	0.38
789.756	0.54
789.93	0.24
790.104	0.51
790.278	0.27
790.452	0.27
790.626	0.61
790.8	0.31
790.973	0.39
791.147	0.77
791.321	0.38
791.495	0.5
791.669	0.53
791.843	0.38
792.016	0.58
792.19	0.86
792.364	0.24
792.538	0.85
792.711	0.57
792.885	0.29
793.059	0.17
793.233	0.06
793.406	0.54
793.58	0.45
793.754	0.35
793.927	0.49
794.101	0.45
794.274	0.68
794.448	0.54
794.622	0.39
794.795	0.66
794.969	0.34
795.142	0.71
795.316	0.5
795.489	0.51
795.663	0.81
795.836	0.47
796.009	0.4
796.183	0.96
796.356	0.57
796.53	0.57
796.703	0.44
796.876	0.85
797.05	0.37
797.223	0.39
797.396	0.58
797.57	0.59
797.743	0.78
797.916	0.55
798.09	0.21
798.263	0.9
798.436	0.61
798.609	0.45
798.782	0.52
798.956	0.69
799.129	0.31
799.302	0.51
799.475	0.49
799.648	0.2
799.821	0.62
799.994	0.59
800.167	0.06
800.34	0.58
800.514	0.6
800.687	0.27
800.86	0.6
801.033	0.57
801.206	0.51
801.379	0.2
801.551	0.79
801.724	0.68
801.897	1.11
802.07	0.62
802.243	0.24
802.416	0.53
802.589	0.51
802.762	0.75
802.935	0.65
803.107	0.98
803.28	0.92
803.453	0.67
803.626	0.08
803.798	0.46
803.971	0.2
804.144	0.69
804.317	0.58
804.489	0.7
804.662	0.51
804.835	0.43
805.007	0.42
805.18	0.96
805.353	0.55
805.525	0.54
805.698	0.26
805.87	0.82
806.043	0.67
806.215	0.54
806.388	-0.09
806.56	0.55
806.733	0.65
806.905	0.93
807.078	0.15
807.25	0.24
807.423	0.66
807.595	0.58
807.768	0.82
807.94	1.09
808.112	0.8
808.285	0.7
808.457	0.51
808.629	0.69
808.802	0.54
808.974	0.48
809.146	0.47
809.318	0.35
809.491	0.72
809.663	0.88
809.835	0.74
810.007	0.58
810.18	0.92
810.352	0.26
810.524	0.57
810.696	0.97
810.868	0.6
811.04	0.6
811.212	0.7
811.384	0.81
811.556	0.48
811.728	0.88
811.901	0.98
812.073	0.42
812.245	1.04
812.417	0.78
812.589	0.32
812.76	0.6
812.932	1.05
813.104	0.67
813.276	0.33
813.448	0.9
813.62	0.36
813.792	0.73
813.964	0.57
814.136	0.88
814.307	0.33
814.479	0.42
814.651	0.13
814.823	1.44
814.995	0.62
815.166	1.17
815.338	0.52
815.51	0.51
815.681	1.61
815.853	0.69
816.025	0.73
816.196	1.1
816.368	0.71
816.54	0.37
816.711	0.59
816.883	0.58
817.054	0.86
817.226	-0.24
817.398	0.85
817.569	0.49
817.741	0.61
817.912	0.65
818.084	0.42
818.255	1
818.426	0.93
818.598	0.89
818.769	0.75
818.941	1.04
819.112	1.05
819.283	0.74
819.455	0.41
819.626	0.94
819.798	0.91
819.969	1.03
820.14	0.37
820.311	0.29
820.483	0.77
820.654	0.8
820.825	0.84
820.996	0.32
821.168	0.5
821.339	0.51
821.51	0.07
821.681	0.33
821.852	1.05
822.023	0.04
822.195	0.41
822.366	1.25
822.537	0.73
822.708	0.94
822.879	0.27
823.05	1.15
823.221	0.86
823.392	1.25
823.563	0.63
823.734	0.84
823.905	0.62
824.076	0.53
824.247	0.55
824.418	0.71
824.589	1.11
824.759	0.37
824.93	0.44
825.101	0.5
825.272	1.12
825.443	1.59
825.614	1.41
825.784	-0.07
825.955	1.9
826.126	1.37
826.297	0.67
826.467	1.36
826.638	1.48
826.809	0.69
826.98	0.71
827.15	0.57
827.321	1.19
827.492	1.12
827.662	1.04
827.833	1.56
828.003	1.43
828.174	0.54
828.345	0.33
828.515	1.24
828.686	0.7
828.856	0.53
829.027	0.83
829.197	0.74
829.368	1.05
829.538	0.75
829.709	0.27
829.879	0.88
830.049	0.93
830.22	1.05
830.39	1.1
830.56	1.54
830.731	1.01
830.901	0.99
831.072	0.7
831.242	1.25
831.412	0.9
831.582	1.1
831.753	0.35
831.923	1.37
832.093	0.59
832.263	0.59
832.434	0.38
832.604	0.87
832.774	1.42
832.944	0.73
833.114	0.91
833.284	0.67
833.454	0.05
833.624	0.05
833.795	0.21
833.965	1.26
834.135	0.85
834.305	0.1
834.475	0.49
834.645	0.41
834.815	0.46
834.985	0.11
835.155	0.75
835.325	1.24
835.494	0.96
835.664	0.57
835.834	-0.03
836.004	1.87
836.174	1.46
836.344	0.87
836.514	0.2
836.684	0.72
836.853	1.09
837.023	1.15
837.193	0.36
837.363	1.63
837.532	1.54
837.702	0.52
837.872	0.66
838.041	1.62
838.211	1.66
838.381	0.4
838.55	0.69
838.72	2.12
838.89	1.94
839.059	-0.05
839.229	0.81
839.398	2.29
839.568	0.72
839.738	1.29
839.907	2.12
840.077	0.97
840.246	0.07
840.416	0.6
840.585	0.12
840.755	2.34
840.924	1.64
841.093	0.87
841.263	0.17
841.432	1.77
841.602	-0.11
841.771	0.79
841.94	1.22
842.11	2.47
842.279	2.33
842.448	0.15
842.617	0.85
842.787	2.12
842.956	0.72
843.125	1.45
843.294	1.12
843.464	2.15
843.633	1.69
843.802	1.13
843.971	0.42
844.14	1.64
844.309	2.41
844.479	0.41
844.648	0.43
844.817	0.49
844.986	0.96
845.155	1.65
845.324	0.54
845.493	1.1
845.662	0.35
845.831	2.06
846	2.01
846.169	0.32
846.338	2.26
846.507	1.69
846.676	1.12
846.844	1.03
847.013	1.58
847.182	1.12
847.351	0.79
847.52	1.26
847.689	1.35
847.858	-0.02
848.026	0.63
848.195	1.41
848.364	0.67
848.533	1.2
848.701	0.46
848.87	1.29
849.039	1.68
849.207	2.21
849.376	2.42
849.545	1.33
849.713	1.33
849.882	1.22
850.051	0.71
850.219	2.14
850.388	1.67
850.556	0.95
850.725	0.95
850.893	0.96
851.062	1.48
851.23	1.63
851.399	0.02
851.567	0.46
851.736	1.38
851.904	0.22
852.073	1.68
852.241	1.03
852.41	1.28
852.578	1.77
852.746	0.71
852.915	1.15
853.083	1.72
853.251	-0.03
853.42	1.12
853.588	1.68
853.756	2.85
853.924	1.51
854.093	1.32
854.261	1.81
854.429	0.56
854.597	1.87
854.765	0.62
854.934	2.41
855.102	2.25
855.27	0.91
855.438	3.06
855.606	2.67
855.774	2.87
855.942	0.31
856.11	0.41
856.278	1.96
856.446	2.56
856.614	1.14
856.782	1.22
856.95	2.21
857.118	2.56
857.286	2.42
857.454	0.89
857.622	2.8
857.79	2.07
857.958	-0.25
858.126	0.83
858.294	0.37
858.462	1.87
858.629	0.36
858.797	0.69
858.965	0.99
859.133	3.26
859.301	0.7
859.468	1.91
859.636	1
859.804	3.05
859.971	2.58
860.139	1.6
860.307	3.22
860.474	1.3
860.642	1.71
860.81	0.46
860.977	1.7
861.145	2.66
861.313	0.2
861.48	2.92
861.648	3.15
861.815	1.4
861.983	1.23
862.15	1.95
862.318	1.67
862.485	3.89
862.653	1.59
862.82	0.5
862.988	3.78
863.155	2.12
863.322	-0.05
863.49	1.18
863.657	1.3
863.824	2.78
863.992	3.11
864.159	0.74
864.326	3.49
864.494	1.47
864.661	4.14
864.828	0.21
864.996	1.39
865.163	3.18
865.33	-0.92
865.497	-0.3
865.664	1.48
865.832	-0.89
865.999	0.66
866.166	0.59
866.333	0.48
866.5	0.03
866.667	1.4
866.834	1.28
867.001	2.27
867.168	0.38
867.335	2.27
867.502	0.24
867.669	2.2
867.836	4.45
868.003	1.07
868.17	2.7
868.337	2.96
868.504	4.71
868.671	0.96
868.838	1.75
869.005	2.63
869.172	3.37
869.339	1.19
869.505	2
869.672	1.55
869.839	3.17
870.006	2.62
870.173	-0.01
870.339	2.48
870.506	4.06
870.673	0.23
870.84	2.47
871.006	2.16
871.173	1.92
871.34	0.02
871.506	0.92
871.673	2.67
871.839	-0.18
872.006	3.11
872.173	1.27
872.339	1.95
872.506	3.61
872.672	2.32
872.839	-1.04
873.005	1.47
873.172	5.26
873.338	3.64
873.505	3.04
873.671	-0.52
873.838	3.61
874.004	0.99
874.171	1.29
874.337	2.38
874.503	1.95
874.67	0.61
874.836	1.76
875.002	4.55
875.169	2.28
875.335	3.18
875.501	1.97
875.668	3.44
875.834	1.76
876	2.33
876.166	2.26
876.332	3.88
876.499	3.85
876.665	0.55
876.831	1.14
876.997	4.93
877.163	1.42
877.329	1.4
877.495	3.72
877.662	3.36
877.828	2.09
877.994	1.51
878.16	-1.86
878.326	2.26
878.492	2.87
878.658	2.04
878.824	4.31
878.99	3.65
879.156	0.32
879.322	4.52
879.487	2.34
879.653	0.21
879.819	0.28
879.985	0.92
880.151	1.53
880.317	3.78
880.483	3.37
880.648	3.66
880.814	-1.06
880.98	2.74
881.146	1.24
881.312	1.05
881.477	1.88
881.643	1.87
881.809	3.09
881.974	4.86
882.14	-1.7
882.306	2.4
882.471	4.34
882.637	1.64
882.803	2.83
882.968	3.26
883.134	5.37
883.299	0.86
883.465	2.75
883.63	2.47
883.796	3.79
883.961	1.08
884.127	4.34
884.292	-3.08
884.458	0.43
884.623	0.43
