Data from Apollo_Calib_20240827__AbsoluteIrradiance__834__13-03-00-461.txt Node

Date: Wed Aug 28 13:03:00 BST 2024
User: biology
Spectrometer: FLMT08252
Trigger mode: 0
Integration Time (sec): 5.000000E-1
Scans to average: 5
Electric dark correction enabled: true
Nonlinearity correction enabled: false
Boxcar width: 0
XAxis mode: Wavelengths
Number of Pixels in Spectrum: 3648
>>>>>Begin Spectral Data<<<<<
179.588	-0
179.809	-0
180.03	-0
180.251	-0
180.473	-0
180.694	0
180.915	0
181.136	-0
181.357	0
181.578	-0
181.799	-0
182.02	0
182.241	-0
182.462	-0
182.683	0
182.904	-0
183.125	-0
183.346	0
183.567	0
183.788	0
184.009	0
184.23	0
184.451	0
184.672	0
184.892	0
185.113	0
185.334	0
185.555	0
185.776	0
185.996	0
186.217	0
186.438	0
186.659	0
186.879	0
187.1	0
187.321	0
187.541	0
187.762	0
187.983	0
188.203	0
188.424	0
188.644	0
188.865	0
189.086	0
189.306	0
189.527	0
189.747	0
189.968	0
190.188	0
190.409	0
190.629	0
190.849	0
191.07	0
191.29	0
191.511	0
191.731	0
191.951	0
192.172	0
192.392	0
192.612	0
192.833	0
193.053	0
193.273	0
193.493	0
193.714	0
193.934	0
194.154	0
194.374	0
194.594	0
194.815	0
195.035	0
195.255	0
195.475	0
195.695	0
195.915	0
196.135	0
196.355	0
196.575	0
196.795	0
197.015	0
197.235	0
197.455	0
197.675	0
197.895	0
198.115	0
198.335	0
198.555	0
198.775	0
198.995	0
199.214	0
199.434	0
199.654	0
199.874	0
200.094	3.88
200.313	2.28
200.533	1.51
200.753	1.63
200.973	3.52
201.192	3.5
201.412	1.72
201.632	1.56
201.851	3.26
202.071	2.03
202.291	1.47
202.51	1.52
202.73	2.5
202.95	1.58
203.169	1.55
203.389	1.59
203.608	2.04
203.828	1.56
204.047	1.47
204.267	2.34
204.486	2.32
204.706	2.21
204.925	1.85
205.145	1.5
205.364	2.2
205.583	2.65
205.803	1.16
206.022	1.16
206.242	1.58
206.461	1.77
206.68	1.28
206.9	1.42
207.119	2.5
207.338	2.16
207.557	1.04
207.777	1.24
207.996	1.54
208.215	2.23
208.434	1.33
208.654	1.08
208.873	1.53
209.092	2.12
209.311	1.23
209.53	1.02
209.749	1.23
209.968	1.37
210.187	0.93
210.407	0.85
210.626	1.1
210.845	1.52
211.064	0.95
211.283	0.83
211.502	1.56
211.721	1.23
211.94	0.9
212.159	1.5
212.377	1.63
212.596	1.77
212.815	1.21
213.034	1.27
213.253	1.38
213.472	1.53
213.691	1.01
213.91	0.74
214.128	0.79
214.347	1.54
214.566	0.63
214.785	0.49
215.003	1.36
215.222	1.18
215.441	0.87
215.66	0.65
215.878	1.18
216.097	1.39
216.316	0.61
216.534	1.04
216.753	1.01
216.972	0.75
217.19	0.85
217.409	0.77
217.627	0.58
217.846	0.75
218.064	0.96
218.283	0.57
218.501	1.34
218.72	1.27
218.938	0.53
219.157	0.72
219.375	1.09
219.594	1.06
219.812	0.57
220.031	0.49
220.249	1.17
220.467	1.03
220.686	0.52
220.904	0.42
221.122	0.72
221.341	1.18
221.559	0.95
221.777	0.57
221.995	0.91
222.214	0.93
222.432	0.52
222.65	0.84
222.868	0.79
223.086	0.79
223.305	0.93
223.523	0.58
223.741	1.09
223.959	0.97
224.177	0.35
224.395	0.66
224.613	0.76
224.831	0.86
225.049	0.41
225.267	0.57
225.485	0.85
225.703	0.56
225.921	0.63
226.139	0.66
226.357	0.87
226.575	0.77
226.793	0.62
227.011	1.56
227.229	0.78
227.447	0.82
227.665	0.5
227.883	0.51
228.1	0.58
228.318	0.8
228.536	0.33
228.754	0.41
228.972	0.68
229.189	0.79
229.407	0.53
229.625	0.66
229.843	0.83
230.06	0.93
230.278	0.6
230.496	0.5
230.713	0.67
230.931	0.85
231.149	0.52
231.366	0.33
231.584	0.51
231.801	1.05
232.019	0.48
232.236	0.37
232.454	0.53
232.671	0.58
232.889	0.45
233.106	0.39
233.324	0.72
233.541	0.58
233.759	0.6
233.976	0.37
234.194	0.58
234.411	0.67
234.628	0.34
234.846	0.55
235.063	0.56
235.28	0.77
235.498	0.5
235.715	0.25
235.932	0.81
236.149	0.52
236.367	0.34
236.584	0.58
236.801	0.47
237.018	0.61
237.236	0.54
237.453	0.35
237.67	0.67
237.887	0.56
238.104	0.44
238.321	0.34
238.538	0.46
238.755	0.77
238.973	0.3
239.19	0.46
239.407	0.61
239.624	0.51
239.841	0.24
240.058	0.37
240.275	0.54
240.492	0.48
240.709	0.42
240.925	0.49
241.142	0.55
241.359	0.44
241.576	0.27
241.793	0.36
242.01	0.4
242.227	0.65
242.444	0.55
242.66	0.66
242.877	0.49
243.094	0.51
243.311	0.47
243.527	0.44
243.744	0.54
243.961	0.49
244.178	0.4
244.394	0.41
244.611	0.6
244.828	0.62
245.044	0.38
245.261	0.4
245.477	0.49
245.694	0.48
245.911	0.33
246.127	0.48
246.344	0.66
246.56	0.59
246.777	0.39
246.993	0.4
247.21	0.46
247.426	0.54
247.643	0.3
247.859	0.32
248.076	0.3
248.292	0.68
248.508	0.41
248.725	0.47
248.941	0.48
249.157	0.64
249.374	0.33
249.59	0.42
249.806	0.47
250.023	0.5
250.239	0.4
250.455	0.3
250.671	0.4
250.888	0.49
251.104	0.49
251.32	0.32
251.536	0.39
251.752	0.38
251.969	0.42
252.185	0.3
252.401	0.68
252.617	0.47
252.833	0.33
253.049	0.39
253.265	0.42
253.481	0.46
253.697	0.35
253.913	0.27
254.129	0.5
254.345	0.43
254.561	0.31
254.777	0.28
254.993	0.47
255.209	0.54
255.425	0.4
255.641	0.31
255.857	0.52
256.073	0.53
256.288	0.28
256.504	0.28
256.72	0.53
256.936	0.68
257.152	0.36
257.367	0.3
257.583	0.39
257.799	0.48
258.015	0.36
258.23	0.3
258.446	0.59
258.662	0.41
258.877	0.22
259.093	0.3
259.309	0.45
259.524	0.42
259.74	0.35
259.955	0.3
260.171	0.39
260.387	0.4
260.602	0.46
260.818	0.39
261.033	0.28
261.249	0.37
261.464	0.26
261.68	0.28
261.895	0.47
262.11	0.48
262.326	0.36
262.541	0.26
262.757	0.51
262.972	0.5
263.187	0.38
263.403	0.42
263.618	0.47
263.833	0.38
264.049	0.29
264.264	0.37
264.479	0.39
264.694	0.54
264.91	0.26
265.125	0.37
265.34	0.55
265.555	0.57
265.77	0.36
265.986	0.34
266.201	0.39
266.416	0.51
266.631	0.33
266.846	0.34
267.061	0.49
267.276	0.46
267.491	0.22
267.706	0.33
267.921	0.45
268.136	0.42
268.351	0.32
268.566	0.15
268.781	0.46
268.996	0.46
269.211	0.31
269.426	0.25
269.641	0.32
269.856	0.46
270.071	0.28
270.285	0.21
270.5	0.49
270.715	0.44
270.93	0.31
271.145	0.4
271.359	0.44
271.574	0.3
271.789	0.35
272.004	0.25
272.218	0.31
272.433	0.4
272.648	0.32
272.862	0.42
273.077	0.41
273.292	0.34
273.506	0.25
273.721	0.3
273.936	0.39
274.15	0.44
274.365	0.32
274.579	0.35
274.794	0.42
275.008	0.42
275.223	0.2
275.437	0.32
275.652	0.43
275.866	0.39
276.081	0.32
276.295	0.41
276.509	0.36
276.724	0.36
276.938	0.33
277.153	0.4
277.367	0.43
277.581	0.27
277.796	0.27
278.01	0.23
278.224	0.39
278.438	0.45
278.653	0.25
278.867	0.23
279.081	0.18
279.295	0.35
279.51	0.33
279.724	0.22
279.938	0.38
280.152	0.32
280.366	0.24
280.58	0.33
280.794	0.47
281.008	0.36
281.222	0.29
281.437	0.48
281.651	0.36
281.865	0.42
282.079	0.3
282.293	0.16
282.507	0.3
282.721	0.28
282.935	0.29
283.148	0.18
283.362	0.28
283.576	0.23
283.79	0.32
284.004	0.26
284.218	0.4
284.432	0.25
284.646	0.3
284.859	0.25
285.073	0.29
285.287	0.31
285.501	0.29
285.714	0.3
285.928	0.33
286.142	0.34
286.356	0.25
286.569	0.25
286.783	0.46
286.997	0.41
287.21	0.3
287.424	0.27
287.637	0.29
287.851	0.26
288.065	0.37
288.278	0.27
288.492	0.28
288.705	0.28
288.919	0.36
289.132	0.22
289.346	0.37
289.559	0.23
289.773	0.22
289.986	0.31
290.2	0.27
290.413	0.39
290.626	0.25
290.84	0.27
291.053	0.29
291.267	0.36
291.48	0.26
291.693	0.25
291.906	0.29
292.12	0.3
292.333	0.23
292.546	0.27
292.76	0.34
292.973	0.33
293.186	0.31
293.399	0.22
293.612	0.38
293.826	0.27
294.039	0.3
294.252	0.26
294.465	0.34
294.678	0.26
294.891	0.33
295.104	0.22
295.317	0.24
295.53	0.27
295.743	0.28
295.956	0.23
296.169	0.39
296.382	0.36
296.595	0.24
296.808	0.23
297.021	0.39
297.234	0.36
297.447	0.27
297.66	0.29
297.873	0.39
298.086	0.38
298.299	0.19
298.511	0.15
298.724	0.32
298.937	0.23
299.15	0.21
299.363	0.23
299.575	0.33
299.788	0.31
300.001	0.23
300.213	0.22
300.426	0.26
300.639	0.19
300.852	0.23
301.064	0.31
301.277	0.34
301.489	0.28
301.702	0.27
301.915	0.28
302.127	0.28
302.34	0.29
302.552	0.28
302.765	0.21
302.977	0.35
303.19	0.21
303.402	0.21
303.615	0.23
303.827	0.26
304.04	0.27
304.252	0.3
304.464	0.23
304.677	0.4
304.889	0.29
305.102	0.21
305.314	0.21
305.526	0.31
305.739	0.28
305.951	0.2
306.163	0.23
306.375	0.37
306.588	0.26
306.8	0.21
307.012	0.23
307.224	0.27
307.436	0.31
307.649	0.2
307.861	0.25
308.073	0.32
308.285	0.26
308.497	0.24
308.709	0.23
308.921	0.27
309.133	0.34
309.346	0.28
309.558	0.21
309.77	0.3
309.982	0.42
310.194	0.32
310.406	0.19
310.617	0.34
310.829	0.27
311.041	0.29
311.253	0.22
311.465	0.23
311.677	0.25
311.889	0.25
312.101	0.25
312.313	0.3
312.524	0.36
312.736	0.2
312.948	0.21
313.16	0.37
313.372	0.3
313.583	0.28
313.795	0.27
314.007	0.22
314.218	0.28
314.43	0.24
314.642	0.23
314.853	0.18
315.065	0.34
315.277	0.24
315.488	0.24
315.7	0.28
315.912	0.3
316.123	0.23
316.335	0.27
316.546	0.42
316.758	0.29
316.969	0.22
317.181	0.27
317.392	0.27
317.604	0.36
317.815	0.19
318.026	0.25
318.238	0.25
318.449	0.31
318.661	0.14
318.872	0.17
319.083	0.23
319.295	0.31
319.506	0.27
319.717	0.25
319.929	0.31
320.14	0.26
320.351	0.23
320.562	0.24
320.774	0.27
320.985	0.25
321.196	0.22
321.407	0.17
321.618	0.31
321.829	0.33
322.041	0.27
322.252	0.3
322.463	0.3
322.674	0.29
322.885	0.18
323.096	0.28
323.307	0.29
323.518	0.29
323.729	0.22
323.94	0.21
324.151	0.24
324.362	0.3
324.573	0.28
324.784	0.24
324.995	0.33
325.206	0.31
325.417	0.26
325.628	0.24
325.838	0.23
326.049	0.28
326.26	0.25
326.471	0.23
326.682	0.3
326.892	0.26
327.103	0.18
327.314	0.21
327.525	0.34
327.735	0.28
327.946	0.25
328.157	0.2
328.368	0.34
328.578	0.27
328.789	0.31
328.999	0.24
329.21	0.26
329.421	0.32
329.631	0.23
329.842	0.2
330.052	0.3
330.263	0.31
330.473	0.3
330.684	0.22
330.894	0.29
331.105	0.3
331.315	0.31
331.526	0.18
331.736	0.36
331.947	0.28
332.157	0.26
332.367	0.17
332.578	0.32
332.788	0.33
332.999	0.29
333.209	0.26
333.419	0.18
333.629	0.33
333.84	0.28
334.05	0.31
334.26	0.38
334.47	0.29
334.681	0.29
334.891	0.2
335.101	0.37
335.311	0.35
335.521	0.24
335.732	0.23
335.942	0.32
336.152	0.33
336.362	0.3
336.572	0.27
336.782	0.31
336.992	0.25
337.202	0.22
337.412	0.23
337.622	0.33
337.832	0.28
338.042	0.24
338.252	0.22
338.462	0.23
338.672	0.29
338.882	0.27
339.092	0.27
339.302	0.35
339.511	0.31
339.721	0.24
339.931	0.22
340.141	0.36
340.351	0.34
340.561	0.32
340.77	0.27
340.98	0.28
341.19	0.28
341.4	0.28
341.609	0.24
341.819	0.23
342.029	0.16
342.238	0.26
342.448	0.22
342.658	0.28
342.867	0.23
343.077	0.27
343.286	0.29
343.496	0.31
343.706	0.34
343.915	0.19
344.125	0.24
344.334	0.28
344.544	0.18
344.753	0.29
344.963	0.19
345.172	0.24
345.381	0.23
345.591	0.23
345.8	0.24
346.01	0.32
346.219	0.33
346.428	0.1
346.638	0.26
346.847	0.26
347.056	0.34
347.266	0.24
347.475	0.22
347.684	0.31
347.893	0.2
348.103	0.26
348.312	0.2
348.521	0.29
348.73	0.24
348.94	0.26
349.149	0.21
349.358	0.24
349.567	0.2
349.776	0.22
349.985	0.2
350.194	0.3
350.403	0.33
350.612	0.17
350.821	0.2
351.03	0.25
351.239	0.24
351.448	0.24
351.657	0.2
351.866	0.35
352.075	0.26
352.284	0.31
352.493	0.24
352.702	0.34
352.911	0.27
353.12	0.27
353.329	0.26
353.538	0.29
353.746	0.26
353.955	0.17
354.164	0.29
354.373	0.22
354.582	0.33
354.79	0.27
354.999	0.29
355.208	0.23
355.416	0.34
355.625	0.18
355.834	0.22
356.042	0.29
356.251	0.25
356.46	0.18
356.668	0.3
356.877	0.35
357.085	0.31
357.294	0.15
357.503	0.26
357.711	0.27
357.92	0.48
358.128	0.26
358.337	0.17
358.545	0.28
358.754	0.25
358.962	0.26
359.17	0.22
359.379	0.25
359.587	0.25
359.796	0.21
360.004	0.29
360.212	0.3
360.421	0.34
360.629	0.25
360.837	0.28
361.046	0.35
361.254	0.4
361.462	0.23
361.67	0.3
361.879	0.29
362.087	0.3
362.295	0.22
362.503	0.27
362.711	0.2
362.92	0.2
363.128	0.21
363.336	0.2
363.544	0.18
363.752	0.27
363.96	0.17
364.168	0.22
364.376	0.25
364.584	0.25
364.792	0.36
365	0.31
365.208	0.28
365.416	0.33
365.624	0.33
365.832	0.19
366.04	0.37
366.248	0.27
366.456	0.26
366.664	0.25
366.872	0.23
367.079	0.26
367.287	0.25
367.495	0.26
367.703	0.28
367.911	0.25
368.118	0.24
368.326	0.23
368.534	0.21
368.742	0.34
368.949	0.17
369.157	0.21
369.365	0.27
369.572	0.2
369.78	0.2
369.988	0.28
370.195	0.29
370.403	0.32
370.61	0.23
370.818	0.21
371.026	0.32
371.233	0.27
371.441	0.26
371.648	0.24
371.856	0.27
372.063	0.27
372.271	0.22
372.478	0.24
372.685	0.21
372.893	0.33
373.1	0.22
373.308	0.26
373.515	0.38
373.722	0.37
373.93	0.24
374.137	0.29
374.344	0.32
374.552	0.33
374.759	0.29
374.966	0.2
375.173	0.25
375.381	0.35
375.588	0.23
375.795	0.17
376.002	0.23
376.209	0.21
376.417	0.26
376.624	0.28
376.831	0.3
377.038	0.31
377.245	0.2
377.452	0.24
377.659	0.25
377.866	0.26
378.073	0.26
378.28	0.3
378.487	0.29
378.694	0.33
378.901	0.21
379.108	0.23
379.315	0.31
379.522	0.38
379.729	0.3
379.936	0.23
380.143	0.3
380.35	0.29
380.557	0.25
380.763	0.28
380.97	0.27
381.177	0.33
381.384	0.27
381.591	0.19
381.797	0.27
382.004	0.34
382.211	0.31
382.418	0.22
382.624	0.34
382.831	0.36
383.038	0.31
383.244	0.3
383.451	0.25
383.658	0.33
383.864	0.26
384.071	0.21
384.277	0.36
384.484	0.24
384.69	0.35
384.897	0.24
385.103	0.29
385.31	0.25
385.516	0.26
385.723	0.19
385.929	0.29
386.136	0.28
386.342	0.3
386.549	0.27
386.755	0.38
386.961	0.35
387.168	0.26
387.374	0.27
387.58	0.35
387.787	0.29
387.993	0.32
388.199	0.3
388.406	0.26
388.612	0.3
388.818	0.27
389.024	0.23
389.231	0.29
389.437	0.4
389.643	0.31
389.849	0.29
390.055	0.3
390.261	0.29
390.467	0.33
390.674	0.26
390.88	0.27
391.086	0.34
391.292	0.26
391.498	0.31
391.704	0.33
391.91	0.32
392.116	0.29
392.322	0.22
392.528	0.32
392.734	0.31
392.94	0.33
393.146	0.31
393.352	0.35
393.557	0.29
393.763	0.27
393.969	0.33
394.175	0.32
394.381	0.34
394.587	0.29
394.792	0.35
394.998	0.39
395.204	0.36
395.41	0.31
395.615	0.36
395.821	0.34
396.027	0.38
396.233	0.3
396.438	0.36
396.644	0.4
396.85	0.29
397.055	0.31
397.261	0.35
397.466	0.43
397.672	0.41
397.878	0.35
398.083	0.37
398.289	0.31
398.494	0.39
398.7	0.35
398.905	0.24
399.111	0.45
399.316	0.27
399.522	0.38
399.727	0.32
399.932	0.33
400.138	0.37
400.343	0.39
400.549	0.32
400.754	0.37
400.959	0.37
401.165	0.38
401.37	0.37
401.575	0.48
401.78	0.38
401.986	0.34
402.191	0.36
402.396	0.39
402.601	0.4
402.807	0.42
403.012	0.4
403.217	0.45
403.422	0.41
403.627	0.43
403.832	0.4
404.037	0.49
404.243	0.44
404.448	0.41
404.653	0.35
404.858	0.43
405.063	0.45
405.268	0.39
405.473	0.35
405.678	0.43
405.883	0.68
406.088	0.52
406.293	0.43
406.498	0.47
406.703	0.47
406.907	0.48
407.112	0.44
407.317	0.58
407.522	0.62
407.727	0.49
407.932	0.56
408.136	0.68
408.341	0.51
408.546	0.58
408.751	0.6
408.956	0.6
409.16	0.67
409.365	0.59
409.57	0.59
409.774	0.67
409.979	0.73
410.184	0.69
410.388	0.6
410.593	0.79
410.798	0.71
411.002	0.72
411.207	0.83
411.411	0.83
411.616	0.83
411.82	0.84
412.025	0.84
412.229	0.88
412.434	0.97
412.638	0.94
412.843	0.91
413.047	0.99
413.252	0.95
413.456	1.05
413.66	1.07
413.865	1.03
414.069	1.16
414.273	1.09
414.478	1.07
414.682	1.25
414.886	1.23
415.091	1.16
415.295	1.25
415.499	1.4
415.703	1.35
415.908	1.45
416.112	1.4
416.316	1.64
416.52	1.61
416.724	1.53
416.929	1.64
417.133	1.85
417.337	1.73
417.541	1.78
417.745	1.92
417.949	1.98
418.153	2.01
418.357	2.02
418.561	2.25
418.765	2.3
418.969	2.37
419.173	2.47
419.377	2.47
419.581	2.72
419.785	2.64
419.989	2.64
420.193	2.78
420.397	2.92
420.601	3.11
420.804	3.21
421.008	3.17
421.212	3.31
421.416	3.33
421.62	3.28
421.823	3.42
422.027	3.56
422.231	3.56
422.435	3.53
422.638	3.56
422.842	3.73
423.046	3.77
423.249	3.91
423.453	4.01
423.657	4.23
423.86	4.25
424.064	4.45
424.268	4.6
424.471	4.52
424.675	4.75
424.878	4.83
425.082	4.96
425.285	5.27
425.489	5.17
425.692	5.31
425.896	5.32
426.099	5.49
426.303	5.72
426.506	5.73
426.71	6.1
426.913	6.28
427.116	6.43
427.32	6.36
427.523	6.56
427.726	6.78
427.93	6.94
428.133	7.21
428.336	7.31
428.54	7.45
428.743	7.75
428.946	8.03
429.149	7.93
429.353	7.96
429.556	8.05
429.759	8.16
429.962	8.28
430.165	8.47
430.368	8.05
430.571	8.05
430.775	8.12
430.978	8.27
431.181	8.16
431.384	8.27
431.587	8.4
431.79	8.79
431.993	8.64
432.196	9.06
432.399	9.29
432.602	9.61
432.805	9.5
433.008	10.16
433.211	9.98
433.414	10.33
433.616	10.43
433.819	10.28
434.022	10.44
434.225	10.7
434.428	10.7
434.631	11.16
434.833	10.84
435.036	11.15
435.239	11.37
435.442	11.39
435.645	11.52
435.847	11.73
436.05	12
436.253	12.16
436.455	12.21
436.658	12.06
436.861	12.35
437.063	12.56
437.266	12.57
437.468	12.97
437.671	13.18
437.874	13.26
438.076	13.03
438.279	13.5
438.481	13.58
438.684	14.33
438.886	13.9
439.089	14.14
439.291	14.31
439.494	14.52
439.696	14.79
439.899	15.34
440.101	15.68
440.303	15.93
440.506	16.67
440.708	16.39
440.91	16.56
441.113	16.81
441.315	17.03
441.517	16.93
441.72	17.29
441.922	16.98
442.124	16.88
442.326	17.34
442.529	17.49
442.731	17.41
442.933	17.71
443.135	17.6
443.337	17.47
443.539	18.11
443.742	17.64
443.944	18.63
444.146	18.02
444.348	18.1
444.55	18.07
444.752	18.14
444.954	18.24
445.156	18.07
445.358	18.5
445.56	18.67
445.762	18.41
445.964	18.76
446.166	18.6
446.368	18.66
446.57	18.68
446.772	18.18
446.974	17.98
447.175	18.48
447.377	17.92
447.579	18.3
447.781	17.87
447.983	17.82
448.184	17.46
448.386	17.76
448.588	17.16
448.79	17.1
448.991	17.52
449.193	17.47
449.395	16.72
449.597	16.44
449.798	16.48
450	15.95
450.202	15.8
450.403	15.97
450.605	15.71
450.806	15.33
451.008	15.12
451.21	14.96
451.411	14.55
451.613	13.74
451.814	14.06
452.016	14.05
452.217	13.26
452.419	13.39
452.62	12.98
452.821	12.76
453.023	12.53
453.224	12.22
453.426	11.84
453.627	11.03
453.828	11.11
454.03	11.15
454.231	11.21
454.432	11.06
454.634	10.76
454.835	10.5
455.036	10.29
455.238	10.12
455.439	9.72
455.64	9.45
455.841	9.39
456.042	9.61
456.244	9.14
456.445	8.88
456.646	8.52
456.847	8.54
457.048	8.38
457.249	8.45
457.45	8.35
457.651	7.73
457.852	7.62
458.054	7.23
458.255	7.23
458.456	7.15
458.657	7.12
458.858	6.77
459.058	6.68
459.259	6.64
459.46	6.43
459.661	6.38
459.862	6.42
460.063	6.25
460.264	6.18
460.465	5.94
460.666	6
460.866	5.81
461.067	5.48
461.268	5.52
461.469	5.47
461.67	5.34
461.87	5.15
462.071	5.26
462.272	5.15
462.473	5.13
462.673	5.25
462.874	5.14
463.075	5.09
463.275	5.09
463.476	5.1
463.676	5.08
463.877	4.89
464.078	4.96
464.278	5
464.479	4.82
464.679	4.73
464.88	4.67
465.08	4.67
465.281	4.48
465.481	4.27
465.682	4.14
465.882	4.08
466.083	4.1
466.283	4.08
466.483	3.98
466.684	3.7
466.884	3.64
467.085	3.71
467.285	3.73
467.485	3.55
467.686	3.53
467.886	3.37
468.086	3.39
468.286	3.34
468.487	3.39
468.687	3.29
468.887	3.15
469.087	3.37
469.287	3.3
469.488	3.05
469.688	3.2
469.888	3.16
470.088	3.09
470.288	3.05
470.488	3.04
470.688	2.91
470.888	2.8
471.088	2.71
471.288	2.81
471.488	2.75
471.688	2.7
471.888	2.69
472.088	2.8
472.288	2.71
472.488	2.6
472.688	2.52
472.888	2.62
473.088	2.57
473.288	2.48
473.488	2.43
473.688	2.62
473.887	2.5
474.087	2.33
474.287	2.44
474.487	2.44
474.687	2.42
474.886	2.34
475.086	2.3
475.286	2.35
475.486	2.3
475.685	2.23
475.885	2.18
476.085	2.31
476.284	2.29
476.484	2.25
476.684	2.22
476.883	2.31
477.083	2.17
477.282	2.15
477.482	2.17
477.681	2.07
477.881	2.07
478.08	2.1
478.28	2.08
478.479	2.11
478.679	2.13
478.878	2.05
479.078	2.03
479.277	2.08
479.477	2.1
479.676	2.07
479.875	2
480.075	1.99
480.274	2.03
480.473	2.08
480.673	1.99
480.872	2.05
481.071	2.09
481.271	2.02
481.47	1.98
481.669	2.01
481.868	1.97
482.067	2
482.267	1.91
482.466	1.94
482.665	1.94
482.864	1.93
483.063	1.93
483.262	2.02
483.461	2.08
483.661	2.08
483.86	2.02
484.059	2.08
484.258	2.02
484.457	1.98
484.656	2.04
484.855	2.14
485.054	1.89
485.253	1.94
485.452	1.93
485.651	2.05
485.849	2.01
486.048	1.98
486.247	2.05
486.446	2.1
486.645	2
486.844	2.07
487.043	2.08
487.241	2.11
487.44	2.06
487.639	2.13
487.838	2.12
488.037	2.1
488.235	2.24
488.434	2.18
488.633	2.06
488.831	2.25
489.03	2.25
489.229	2.2
489.427	2.21
489.626	2.29
489.825	2.32
490.023	2.3
490.222	2.28
490.42	2.32
490.619	2.34
490.817	2.35
491.016	2.39
491.214	2.42
491.413	2.4
491.611	2.41
491.81	2.38
492.008	2.49
492.207	2.54
492.405	2.54
492.604	2.46
492.802	2.6
493	2.58
493.199	2.63
493.397	2.63
493.595	2.69
493.794	2.66
493.992	2.78
494.19	2.76
494.388	2.82
494.587	2.76
494.785	2.78
494.983	2.71
495.181	2.85
495.379	2.9
495.578	2.99
495.776	2.99
495.974	2.9
496.172	2.98
496.37	3.12
496.568	3.1
496.766	3.11
496.964	3.18
497.162	3.22
497.36	3.21
497.558	3.23
497.756	3.31
497.954	3.31
498.152	3.4
498.35	3.43
498.548	3.37
498.746	3.42
498.944	3.42
499.142	3.42
499.34	3.53
499.538	3.61
499.736	3.48
499.933	3.66
500.131	3.69
500.329	3.76
500.527	3.77
500.725	3.9
500.922	3.9
501.12	3.88
501.318	3.94
501.516	3.91
501.713	4.03
501.911	4.03
502.109	3.96
502.306	4.09
502.504	4.01
502.701	4.07
502.899	4.2
503.097	4.38
503.294	4.21
503.492	4.36
503.689	4.39
503.887	4.41
504.084	4.52
504.282	4.44
504.479	4.39
504.677	4.61
504.874	4.55
505.072	4.47
505.269	4.72
505.466	4.77
505.664	4.77
505.861	4.65
506.059	4.79
506.256	4.8
506.453	4.83
506.651	4.99
506.848	5.01
507.045	4.96
507.242	5.01
507.44	5.03
507.637	5.08
507.834	5.05
508.031	5.23
508.229	5.11
508.426	5.15
508.623	5.29
508.82	5.26
509.017	5.27
509.214	5.31
509.411	5.4
509.608	5.33
509.805	5.5
510.003	5.48
510.2	5.5
510.397	5.68
510.594	5.54
510.791	5.65
510.988	5.63
511.184	5.62
511.381	5.58
511.578	5.68
511.775	5.83
511.972	5.77
512.169	5.84
512.366	5.83
512.563	5.97
512.76	6
512.956	6.02
513.153	5.99
513.35	5.93
513.547	5.94
513.744	6.11
513.94	6.01
514.137	6.18
514.334	6.12
514.53	6.16
514.727	6.38
514.924	6.28
515.12	6.2
515.317	6.3
515.514	6.21
515.71	6.2
515.907	6.5
516.103	6.44
516.3	6.34
516.497	6.46
516.693	6.51
516.89	6.56
517.086	6.54
517.283	6.53
517.479	6.46
517.676	6.65
517.872	6.68
518.068	6.67
518.265	6.56
518.461	6.55
518.658	6.71
518.854	6.72
519.05	6.83
519.247	6.87
519.443	6.76
519.639	6.91
519.836	6.83
520.032	6.74
520.228	6.94
520.424	6.89
520.621	6.91
520.817	6.99
521.013	6.89
521.209	7.1
521.405	7.1
521.601	7.03
521.798	7.02
521.994	7.1
522.19	6.97
522.386	7.04
522.582	7.12
522.778	7.29
522.974	7.16
523.17	7.19
523.366	7.12
523.562	7.17
523.758	7.19
523.954	7.08
524.15	7.25
524.346	7.29
524.542	7.26
524.738	7.22
524.934	7.43
525.129	7.27
525.325	7.2
525.521	7.3
525.717	7.48
525.913	7.32
526.109	7.38
526.304	7.43
526.5	7.41
526.696	7.46
526.892	7.38
527.087	7.64
527.283	7.55
527.479	7.49
527.674	7.32
527.87	7.53
528.066	7.47
528.261	7.59
528.457	7.44
528.653	7.68
528.848	7.59
529.044	7.74
529.239	7.56
529.435	7.59
529.63	7.51
529.826	7.56
530.021	7.61
530.217	7.6
530.412	7.61
530.608	7.64
530.803	7.65
530.999	7.52
531.194	7.65
531.389	7.71
531.585	7.66
531.78	7.82
531.975	7.68
532.171	7.78
532.366	7.77
532.561	7.78
532.757	7.68
532.952	7.88
533.147	7.65
533.342	7.78
533.538	7.67
533.733	7.93
533.928	7.61
534.123	7.81
534.318	7.83
534.513	7.76
534.709	7.92
534.904	7.92
535.099	7.91
535.294	7.88
535.489	7.96
535.684	7.87
535.879	7.82
536.074	7.98
536.269	7.96
536.464	7.99
536.659	7.89
536.854	7.94
537.049	7.98
537.244	7.9
537.439	7.91
537.634	7.97
537.828	8.04
538.023	7.93
538.218	7.93
538.413	7.82
538.608	7.95
538.803	7.96
538.997	7.91
539.192	7.93
539.387	7.91
539.582	7.92
539.776	7.94
539.971	8
540.166	8.07
540.36	7.94
540.555	8.15
540.75	8
540.944	8.09
541.139	8
541.334	7.99
541.528	8.03
541.723	8.08
541.917	8.09
542.112	7.96
542.306	7.88
542.501	7.94
542.695	7.95
542.89	7.9
543.084	7.96
543.279	8.12
543.473	8.06
543.668	8.17
543.862	7.95
544.056	7.96
544.251	8.03
544.445	8.14
544.64	8.1
544.834	7.77
545.028	7.74
545.222	8.06
545.417	8.22
545.611	8.11
545.805	8.11
546	7.87
546.194	8.16
546.388	8.11
546.582	7.96
546.776	8.01
546.97	8.05
547.165	8.06
547.359	8.05
547.553	7.98
547.747	8.1
547.941	8.25
548.135	8.07
548.329	8.18
548.523	8.06
548.717	7.98
548.911	8.04
549.105	8.03
549.299	8.13
549.493	8.11
549.687	8
549.881	8.23
550.075	8.09
550.269	8.01
550.463	8.14
550.657	8.1
550.85	8.04
551.044	8.08
551.238	8.09
551.432	8.09
551.626	8.16
551.82	8.19
552.013	8.03
552.207	8.24
552.401	8.22
552.594	8.12
552.788	8.08
552.982	8.08
553.176	8
553.369	8.26
553.563	8.17
553.756	8.07
553.95	8.17
554.144	8.13
554.337	8.18
554.531	7.93
554.724	8.18
554.918	8.22
555.111	8.13
555.305	8.17
555.498	8.12
555.692	8.21
555.885	8.22
556.079	8.07
556.272	8.12
556.466	8.06
556.659	8.06
556.852	8.18
557.046	8.02
557.239	7.98
557.432	8.08
557.626	8.13
557.819	8.18
558.012	8.14
558.206	8.31
558.399	8.17
558.592	8.04
558.785	8.05
558.979	8.09
559.172	8.13
559.365	8.14
559.558	8.04
559.751	7.98
559.944	8.24
560.138	8.12
560.331	8.17
560.524	8.16
560.717	8.14
560.91	8.13
561.103	8.15
561.296	7.95
561.489	8.13
561.682	8.13
561.875	8.21
562.068	8.21
562.261	7.99
562.454	8.32
562.647	8.14
562.84	8.2
563.032	8.19
563.225	8.03
563.418	8.04
563.611	8.16
563.804	8.18
563.997	7.99
564.19	7.93
564.382	8.23
564.575	8.16
564.768	8.1
564.961	8.15
565.153	8.02
565.346	7.99
565.539	8.17
565.731	8.1
565.924	8.2
566.117	8.3
566.309	8.13
566.502	8.09
566.695	8.05
566.887	8.22
567.08	8.11
567.272	8.13
567.465	7.97
567.657	8.19
567.85	8.01
568.042	8.08
568.235	8.12
568.427	7.9
568.62	8.05
568.812	8.06
569.005	8.17
569.197	8
569.389	8.06
569.582	8.1
569.774	8.05
569.966	7.94
570.159	7.97
570.351	7.97
570.543	8.07
570.736	8.09
570.928	7.89
571.12	8.06
571.312	7.96
571.505	7.8
571.697	8.09
571.889	8.04
572.081	8.01
572.273	7.91
572.465	8.05
572.658	8.07
572.85	8.02
573.042	8.04
573.234	7.94
573.426	7.94
573.618	7.95
573.81	8.04
574.002	7.99
574.194	7.99
574.386	7.91
574.578	7.85
574.77	7.94
574.962	7.98
575.154	7.83
575.346	7.87
575.538	7.82
575.729	7.9
575.921	7.97
576.113	7.98
576.305	7.89
576.497	8.05
576.689	7.79
576.88	7.74
577.072	7.93
577.264	7.9
577.456	7.86
577.647	7.81
577.839	8
578.031	7.78
578.223	7.82
578.414	7.74
578.606	7.87
578.798	7.88
578.989	7.85
579.181	7.92
579.372	7.8
579.564	7.86
579.755	7.75
579.947	7.68
580.139	7.84
580.33	7.71
580.522	7.83
580.713	7.73
580.905	7.77
581.096	7.81
581.287	7.74
581.479	7.72
581.67	7.83
581.862	7.71
582.053	7.74
582.244	7.6
582.436	7.79
582.627	7.69
582.818	7.69
583.01	7.67
583.201	7.73
583.392	7.7
583.583	7.63
583.775	7.49
583.966	7.58
584.157	7.65
584.348	7.73
584.54	7.54
584.731	7.65
584.922	7.54
585.113	7.49
585.304	7.62
585.495	7.6
585.686	7.72
585.877	7.6
586.068	7.67
586.259	7.55
586.45	7.59
586.641	7.51
586.832	7.58
587.023	7.43
587.214	7.49
587.405	7.55
587.596	7.42
587.787	7.44
587.978	7.43
588.169	7.48
588.36	7.41
588.551	7.45
588.742	7.43
588.932	7.43
589.123	7.31
589.314	7.53
589.505	7.4
589.696	7.39
589.886	7.34
590.077	7.33
590.268	7.24
590.458	7.21
590.649	7.13
590.84	7.32
591.03	7.32
591.221	7.3
591.412	7.17
591.602	7.32
591.793	7.27
591.984	7.25
592.174	7.29
592.365	7.4
592.555	7.18
592.746	7.11
592.936	7.15
593.127	7.24
593.317	7.25
593.508	7.25
593.698	7.12
593.889	7.13
594.079	7.12
594.269	7.05
594.46	7.1
594.65	7.14
594.84	7.06
595.031	6.96
595.221	7
595.411	7.05
595.602	7.11
595.792	6.98
595.982	6.96
596.172	7.07
596.363	6.96
596.553	6.99
596.743	6.99
596.933	6.95
597.123	6.94
597.314	6.78
597.504	6.77
597.694	7.01
597.884	6.81
598.074	6.85
598.264	6.77
598.454	6.82
598.644	6.7
598.834	6.76
599.024	6.69
599.214	6.7
599.404	6.8
599.594	6.7
599.784	6.75
599.974	6.79
600.164	6.69
600.354	6.64
600.544	6.63
600.734	6.69
600.924	6.57
601.114	6.55
601.303	6.54
601.493	6.55
601.683	6.55
601.873	6.5
602.063	6.45
602.252	6.52
602.442	6.45
602.632	6.47
602.821	6.4
603.011	6.51
603.201	6.48
603.39	6.38
603.58	6.34
603.77	6.41
603.959	6.48
604.149	6.39
604.339	6.43
604.528	6.47
604.718	6.32
604.907	6.25
605.097	6.26
605.286	6.25
605.476	6.22
605.665	6.31
605.855	6.24
606.044	6.28
606.234	6.22
606.423	6.15
606.612	6.18
606.802	6.12
606.991	6.14
607.181	6.2
607.37	6.13
607.559	5.91
607.749	6.12
607.938	5.98
608.127	5.95
608.316	6.08
608.506	6.02
608.695	6.07
608.884	5.98
609.073	5.97
609.263	6.09
609.452	6.04
609.641	5.91
609.83	5.84
610.019	5.93
610.208	5.83
610.397	5.94
610.586	5.95
610.775	5.81
610.965	5.88
611.154	5.78
611.343	5.84
611.532	5.7
611.721	5.84
611.91	5.68
612.099	5.73
612.287	5.65
612.476	5.56
612.665	5.74
612.854	5.57
613.043	5.71
613.232	5.64
613.421	5.58
613.61	5.63
613.798	5.51
613.987	5.57
614.176	5.51
614.365	5.52
614.554	5.52
614.742	5.55
614.931	5.35
615.12	5.55
615.309	5.48
615.497	5.45
615.686	5.3
615.875	5.37
616.063	5.36
616.252	5.37
616.44	5.4
616.629	5.31
616.818	5.34
617.006	5.34
617.195	5.27
617.383	5.29
617.572	5.19
617.76	5.19
617.949	5.21
618.137	5.31
618.326	5.3
618.514	5.05
618.703	5.06
618.891	5.13
619.079	5.06
619.268	5.16
619.456	4.95
619.644	5.16
619.833	5.06
620.021	5.01
620.209	4.96
620.398	5.09
620.586	4.94
620.774	5.04
620.962	4.92
621.151	5.04
621.339	4.86
621.527	4.88
621.715	4.82
621.903	4.87
622.092	4.79
622.28	4.94
622.468	4.65
622.656	4.82
622.844	4.79
623.032	4.87
623.22	4.71
623.408	4.88
623.596	4.79
623.784	4.78
623.972	4.64
624.16	4.68
624.348	4.71
624.536	4.76
624.724	4.62
624.912	4.67
625.1	4.63
625.288	4.61
625.476	4.5
625.664	4.63
625.851	4.5
626.039	4.55
626.227	4.53
626.415	4.55
626.603	4.45
626.79	4.5
626.978	4.44
627.166	4.47
627.354	4.35
627.541	4.42
627.729	4.3
627.917	4.54
628.104	4.44
628.292	4.32
628.48	4.36
628.667	4.3
628.855	4.38
629.042	4.35
629.23	4.25
629.418	4.2
629.605	4.29
629.793	4.19
629.98	4.17
630.168	4.15
630.355	4.19
630.543	4.21
630.73	4.1
630.917	4.16
631.105	4.22
631.292	4.12
631.48	4.11
631.667	4.23
631.854	4.04
632.042	4.03
632.229	3.99
632.416	4.09
632.604	3.99
632.791	3.86
632.978	4.06
633.165	3.95
633.353	4.02
633.54	3.96
633.727	3.84
633.914	3.83
634.101	3.75
634.289	3.94
634.476	3.81
634.663	3.75
634.85	3.83
635.037	3.74
635.224	3.67
635.411	3.81
635.598	3.72
635.785	3.73
635.972	3.76
636.159	3.75
636.346	3.63
636.533	3.64
636.72	3.66
636.907	3.65
637.094	3.63
637.281	3.46
637.468	3.58
637.655	3.57
637.842	3.58
638.029	3.54
638.215	3.53
638.402	3.53
638.589	3.44
638.776	3.49
638.963	3.47
639.149	3.56
639.336	3.59
639.523	3.44
639.709	3.44
639.896	3.44
640.083	3.42
640.27	3.42
640.456	3.42
640.643	3.38
640.829	3.24
641.016	3.3
641.203	3.24
641.389	3.32
641.576	3.35
641.762	3.24
641.949	3.23
642.135	3.3
642.322	3.23
642.508	3.16
642.695	3.24
642.881	3.13
643.068	3.11
643.254	3.16
643.441	3.21
643.627	3.23
643.813	3.04
644	3.13
644.186	2.98
644.372	3.04
644.559	3.1
644.745	3
644.931	2.99
645.118	3.04
645.304	2.95
645.49	2.99
645.676	2.95
645.862	3
646.049	3.06
646.235	2.94
646.421	3.08
646.607	3.04
646.793	2.86
646.979	2.85
647.165	2.92
647.352	2.96
647.538	2.87
647.724	2.86
647.91	2.82
648.096	2.92
648.282	2.88
648.468	2.76
648.654	2.82
648.84	2.78
649.026	2.75
649.212	2.74
649.397	2.65
649.583	2.75
649.769	2.8
649.955	2.72
650.141	2.75
650.327	2.71
650.513	2.66
650.698	2.71
650.884	2.57
651.07	2.65
651.256	2.66
651.442	2.6
651.627	2.52
651.813	2.61
651.999	2.57
652.184	2.54
652.37	2.52
652.556	2.56
652.741	2.63
652.927	2.42
653.113	2.48
653.298	2.58
653.484	2.41
653.669	2.44
653.855	2.43
654.04	2.52
654.226	2.5
654.412	2.45
654.597	2.42
654.782	2.44
654.968	2.49
655.153	2.45
655.339	2.37
655.524	2.38
655.71	2.47
655.895	2.41
656.08	2.32
656.266	2.42
656.451	2.35
656.636	2.28
656.822	2.31
657.007	2.3
657.192	2.28
657.378	2.23
657.563	2.27
657.748	2.27
657.933	2.25
658.118	2.17
658.304	2.2
658.489	2.27
658.674	2.19
658.859	2.11
659.044	2.18
659.229	2.26
659.414	2.11
659.599	2.24
659.785	2.09
659.97	2.15
660.155	2.18
660.34	2.16
660.525	2.06
660.71	2.06
660.895	2.18
661.08	2
661.264	2.07
661.449	2.11
661.634	2.1
661.819	2.05
662.004	2.09
662.189	2.03
662.374	2.04
662.559	1.93
662.743	1.89
662.928	2.01
663.113	1.98
663.298	1.92
663.483	1.94
663.667	1.95
663.852	1.92
664.037	1.95
664.221	1.94
664.406	1.99
664.591	2
664.775	1.99
664.96	1.84
665.145	1.87
665.329	1.92
665.514	1.89
665.698	1.82
665.883	1.75
666.068	1.92
666.252	1.78
666.437	1.76
666.621	1.84
666.806	1.82
666.99	1.81
667.174	1.76
667.359	1.83
667.543	1.77
667.728	1.75
667.912	1.66
668.096	1.79
668.281	1.71
668.465	1.74
668.649	1.73
668.834	1.67
669.018	1.73
669.202	1.71
669.387	1.66
669.571	1.76
669.755	1.62
669.939	1.69
670.124	1.71
670.308	1.7
670.492	1.67
670.676	1.67
670.86	1.62
671.044	1.59
671.228	1.67
671.413	1.55
671.597	1.56
671.781	1.58
671.965	1.67
672.149	1.63
672.333	1.54
672.517	1.56
672.701	1.63
672.885	1.55
673.069	1.45
673.253	1.61
673.437	1.54
673.621	1.52
673.804	1.49
673.988	1.51
674.172	1.48
674.356	1.39
674.54	1.49
674.724	1.67
674.908	1.47
675.091	1.53
675.275	1.49
675.459	1.51
675.643	1.45
675.826	1.39
676.01	1.44
676.194	1.47
676.377	1.47
676.561	1.46
676.745	1.45
676.928	1.51
677.112	1.53
677.296	1.4
677.479	1.43
677.663	1.33
677.846	1.44
678.03	1.4
678.213	1.31
678.397	1.41
678.58	1.38
678.764	1.36
678.947	1.34
679.131	1.37
679.314	1.44
679.498	1.34
679.681	1.35
679.865	1.47
680.048	1.26
680.231	1.36
680.415	1.29
680.598	1.34
680.781	1.27
680.965	1.32
681.148	1.32
681.331	1.23
681.514	1.33
681.698	1.24
681.881	1.29
682.064	1.26
682.247	1.29
682.43	1.19
682.614	1.27
682.797	1.32
682.98	1.26
683.163	1.19
683.346	1.22
683.529	1.2
683.712	1.2
683.895	1.23
684.078	1.12
684.261	1.16
684.444	1.19
684.627	1.2
684.81	1.17
684.993	1.22
685.176	1.25
685.359	1.05
685.542	1.16
685.725	1.24
685.908	1.15
686.091	1.15
686.274	1.19
686.457	1.22
686.639	1.15
686.822	1.22
687.005	1.13
687.188	1.2
687.371	1.29
687.553	1.18
687.736	1.13
687.919	1.23
688.102	1.19
688.284	1.1
688.467	1.04
688.65	1.12
688.832	1.05
689.015	1.08
689.197	0.97
689.38	1.2
689.563	1.12
689.745	1.03
689.928	0.97
690.11	1.03
690.293	1.07
690.475	0.94
690.658	1.02
690.84	1.04
691.023	1.01
691.205	0.98
691.388	1.01
691.57	1.13
691.752	1.05
691.935	0.99
692.117	0.97
692.3	1
692.482	1.02
692.664	1.02
692.847	0.97
693.029	1.08
693.211	1.04
693.393	0.91
693.576	0.91
693.758	0.96
693.94	0.95
694.122	0.99
694.304	0.89
694.487	0.91
694.669	1.05
694.851	0.87
695.033	0.92
695.215	0.92
695.397	0.89
695.579	0.91
695.761	0.85
695.943	0.88
696.125	1.01
696.308	0.96
696.49	0.81
696.671	1.08
696.853	0.89
697.035	1.17
697.217	0.87
697.399	0.97
697.581	0.85
697.763	0.89
697.945	0.86
698.127	0.89
698.309	0.95
698.491	0.85
698.672	0.9
698.854	0.96
699.036	0.92
699.218	0.81
699.399	0.94
699.581	0.88
699.763	0.89
699.945	0.83
700.126	0.75
700.308	0.83
700.49	0.84
700.671	0.67
700.853	0.74
701.035	0.74
701.216	0.8
701.398	0.7
701.579	0.81
701.761	0.91
701.943	0.8
702.124	0.75
702.306	0.79
702.487	0.92
702.669	0.8
702.85	0.71
703.031	0.73
703.213	0.9
703.394	0.87
703.576	0.78
703.757	0.91
703.938	0.86
704.12	1.04
704.301	0.79
704.483	0.68
704.664	0.82
704.845	0.85
705.026	0.81
705.208	0.71
705.389	0.84
705.57	0.77
705.751	0.72
705.933	0.74
706.114	0.81
706.295	0.74
706.476	0.72
706.657	0.9
706.838	0.8
707.02	0.86
707.201	0.75
707.382	0.74
707.563	0.76
707.744	0.74
707.925	0.64
708.106	0.62
708.287	0.81
708.468	0.8
708.649	0.67
708.83	0.72
709.011	0.67
709.192	0.79
709.373	0.61
709.554	0.66
709.734	0.84
709.915	0.77
710.096	0.66
710.277	0.51
710.458	0.75
710.639	0.73
710.819	0.54
711	0.65
711.181	0.71
711.362	0.83
711.542	0.7
711.723	0.61
711.904	0.71
712.085	0.74
712.265	0.68
712.446	0.52
712.627	0.7
712.807	0.68
712.988	0.59
713.168	0.53
713.349	0.7
713.53	0.48
713.71	0.59
713.891	0.51
714.071	0.6
714.252	0.61
714.432	0.64
714.613	0.49
714.793	0.67
714.974	0.74
715.154	0.6
715.334	0.7
715.515	0.77
715.695	0.57
715.876	0.53
716.056	0.58
716.236	0.58
716.417	0.52
716.597	0.58
716.777	0.83
716.957	0.7
717.138	0.64
717.318	0.59
717.498	0.47
717.678	0.63
717.859	0.59
718.039	0.45
718.219	0.68
718.399	0.61
718.579	0.5
718.759	0.39
718.939	0.53
719.12	0.55
719.3	0.53
719.48	0.43
719.66	0.44
719.84	0.69
720.02	0.53
720.2	0.48
720.38	0.54
720.56	0.69
720.74	0.48
720.92	0.54
721.1	0.71
721.279	0.64
721.459	0.5
721.639	0.35
721.819	0.51
721.999	0.55
722.179	0.6
722.359	0.41
722.538	0.52
722.718	0.57
722.898	0.57
723.078	0.5
723.257	0.52
723.437	0.61
723.617	0.56
723.797	0.51
723.976	0.57
724.156	0.65
724.336	0.67
724.515	0.72
724.695	0.38
724.874	0.56
725.054	0.56
725.234	0.48
725.413	0.59
725.593	0.49
725.772	0.63
725.952	0.47
726.131	0.45
726.311	0.61
726.49	0.51
726.67	0.26
726.849	0.45
727.028	0.66
727.208	0.44
727.387	0.44
727.567	0.44
727.746	0.5
727.925	0.51
728.105	0.33
728.284	0.54
728.463	0.45
728.643	0.53
728.822	0.43
729.001	0.55
729.18	0.6
729.359	0.63
729.539	0.44
729.718	0.53
729.897	0.52
730.076	0.51
730.255	0.36
730.434	0.5
730.614	0.57
730.793	0.67
730.972	0.5
731.151	0.56
731.33	0.58
731.509	0.57
731.688	0.46
731.867	0.51
732.046	0.31
732.225	0.76
732.404	0.37
732.583	0.37
732.762	0.45
732.941	0.59
733.12	0.48
733.298	0.39
733.477	0.65
733.656	0.41
733.835	0.37
734.014	0.58
734.193	0.5
734.371	0.57
734.55	0.58
734.729	0.38
734.908	0.56
735.086	0.58
735.265	0.49
735.444	0.28
735.623	0.36
735.801	0.33
735.98	0.42
736.159	0.4
736.337	0.58
736.516	0.52
736.694	0.58
736.873	0.46
737.052	0.84
737.23	0.7
737.409	0.49
737.587	0.81
737.766	0.32
737.944	0.46
738.123	0.56
738.301	0.64
738.479	0.49
738.658	0.44
738.836	0.36
739.015	0.5
739.193	0.69
739.371	0.33
739.55	0.42
739.728	0.47
739.906	0.75
740.085	0.72
740.263	0.42
740.441	0.22
740.62	0.86
740.798	0.57
740.976	0.39
741.154	0.38
741.332	0.78
741.511	0.51
741.689	0.42
741.867	0.59
742.045	0.59
742.223	0.4
742.401	0.34
742.579	0.43
742.757	0.63
742.935	0.33
743.114	0.39
743.292	0.49
743.47	0.5
743.648	0.47
743.826	0.4
744.004	0.55
744.181	0.55
744.359	0.46
744.537	0.49
744.715	0.41
744.893	0.4
745.071	0.52
745.249	0.5
745.427	0.54
745.605	0.53
745.782	0.5
745.96	0.47
746.138	0.51
746.316	0.45
746.493	0.45
746.671	0.48
746.849	0.41
747.027	0.65
747.204	0.43
747.382	0.43
747.56	0.28
747.737	0.47
747.915	0.39
748.093	0.52
748.27	0.29
748.448	0.36
748.625	0.38
748.803	0.47
748.98	0.31
749.158	0.52
749.335	0.6
749.513	0.42
749.69	0.29
749.868	0.44
750.045	0.52
750.223	0.36
750.4	0.15
750.578	0.66
750.755	0.42
750.932	0.29
751.11	0.48
751.287	0.35
751.464	0.65
751.642	0.34
751.819	0.47
751.996	0.42
752.173	0.39
752.351	0.24
752.528	0.42
752.705	0.46
752.882	0.36
753.06	0.33
753.237	0.46
753.414	0.71
753.591	0.85
753.768	0.4
753.945	0.26
754.122	0.42
754.299	0.57
754.476	0.37
754.654	0.37
754.831	0.53
755.008	0.49
755.185	0.38
755.362	0.35
755.539	0.45
755.716	0.42
755.892	0.43
756.069	0.42
756.246	0.42
756.423	0.44
756.6	0.55
756.777	0.31
756.954	0.45
757.131	0.36
757.307	0.38
757.484	0.23
757.661	0.41
757.838	0.49
758.015	0.36
758.191	0.37
758.368	0.46
758.545	0.67
758.721	0.51
758.898	0.28
759.075	0.41
759.251	0.46
759.428	0.43
759.605	0.26
759.781	0.42
759.958	0.5
760.134	0.4
760.311	0.27
760.488	0.61
760.664	0.6
760.841	0.37
761.017	0.18
761.194	0.53
761.37	0.55
761.547	0.32
761.723	0.22
761.899	0.59
762.076	0.23
762.252	0.18
762.429	0.35
762.605	0.47
762.781	0.31
762.958	0.46
763.134	0.17
763.31	0.22
763.486	0.56
763.663	0.15
763.839	0.41
764.015	0.11
764.191	0.35
764.368	0.38
764.544	0.3
764.72	0.47
764.896	0.46
765.072	0.35
765.248	0.28
765.425	0.39
765.601	0.52
765.777	0.36
765.953	0.1
766.129	0.29
766.305	0.28
766.481	0.6
766.657	0.44
766.833	0.64
767.009	0.24
767.185	0.28
767.361	0.38
767.537	0.27
767.713	0.62
767.889	0.28
768.065	0.35
768.24	0.37
768.416	0.52
768.592	0.28
768.768	0.38
768.944	0.59
769.12	0.36
769.295	0.33
769.471	0.27
769.647	0.41
769.823	0.69
769.998	0.27
770.174	0.24
770.35	0.68
770.525	0.68
770.701	0.34
770.877	0.35
771.052	0.14
771.228	0.7
771.403	0.53
771.579	0.53
771.755	0.82
771.93	0.28
772.106	0.25
772.281	0.15
772.457	0.33
772.632	0.29
772.808	0.11
772.983	0.33
773.159	0.15
773.334	0.59
773.509	0.48
773.685	0.2
773.86	0.92
774.036	0.59
774.211	0.54
774.386	0.35
774.562	0.36
774.737	0.54
774.912	0.32
775.087	0.62
775.263	0.31
775.438	0.38
775.613	0.36
775.788	0.39
775.964	0.41
776.139	1.01
776.314	0.2
776.489	0.48
776.664	0.51
776.839	0.21
777.014	0.59
777.19	0.46
777.365	0.78
777.54	0.71
777.715	0.21
777.89	0.3
778.065	0.17
778.24	0.39
778.415	0.64
778.59	0.07
778.765	0.42
778.94	0.57
779.115	0.45
779.289	0.31
779.464	0.33
779.639	0.43
779.814	0.22
779.989	0.27
780.164	0.53
780.339	0.42
780.513	0.32
780.688	0.18
780.863	0.38
781.038	0.62
781.212	0.23
781.387	0.43
781.562	0.76
781.737	0.38
781.911	0.42
782.086	0.24
782.261	0.52
782.435	0.76
782.61	0.25
782.784	0.3
782.959	0.8
783.134	0.5
783.308	0.18
783.483	0.08
783.657	0.85
783.832	0.89
784.006	-0
784.181	0.33
784.355	0.58
784.53	0.39
784.704	0.36
784.878	0.5
785.053	0.69
785.227	0.78
785.402	0.86
785.576	0.19
785.75	0.44
785.925	0.41
786.099	0.46
786.273	0.64
786.448	0.93
786.622	0.6
786.796	0.43
786.97	0.57
787.145	1.15
787.319	0.24
787.493	0.47
787.667	-0.02
787.841	0.41
788.015	0.75
788.19	0.32
788.364	0.27
788.538	0.71
788.712	0.55
788.886	0.48
789.06	0.48
789.234	0.68
789.408	0.26
789.582	0.36
789.756	0.32
789.93	0.26
790.104	0.46
790.278	0.56
790.452	0.24
790.626	0.72
790.8	0.36
790.973	0.62
791.147	0.94
791.321	0.92
791.495	0.85
791.669	0.43
791.843	0.47
792.016	0.66
792.19	1.05
792.364	0.4
792.538	1.16
792.711	0.76
792.885	0.37
793.059	0.25
793.233	-0.2
793.406	0.73
793.58	0.44
793.754	0.84
793.927	0.33
794.101	0.82
794.274	0.44
794.448	0.82
794.622	0.35
794.795	0.91
794.969	0.2
795.142	0.94
795.316	0.22
795.489	0.28
795.663	1.03
795.836	0.43
796.009	0.05
796.183	0.71
796.356	0.63
796.53	0.56
796.703	0.81
796.876	1.25
797.05	0.53
797.223	0.49
797.396	0.44
797.57	0.48
797.743	0.86
797.916	0.7
798.09	0.48
798.263	0.84
798.436	0.85
798.609	0.37
798.782	0.25
798.956	0.68
799.129	0.48
799.302	0.44
799.475	0.26
799.648	0.44
799.821	0.25
799.994	0.61
800.167	0.07
800.34	0.54
800.514	0.68
800.687	0.36
800.86	0.43
801.033	0.83
801.206	0.63
801.379	0.18
801.551	0.98
801.724	0.75
801.897	1.17
802.07	0.48
802.243	0.11
802.416	0.42
802.589	0.6
802.762	1.07
802.935	0.33
803.107	1.01
803.28	0.94
803.453	0.94
803.626	0.36
803.798	0.69
803.971	0.49
804.144	0.52
804.317	0.46
804.489	1.28
804.662	0.49
804.835	0.1
805.007	0.07
805.18	1.28
805.353	0.5
805.525	0.16
805.698	0.35
805.87	0.89
806.043	1
806.215	0.15
806.388	0.18
806.56	0.65
806.733	0.94
806.905	0.5
807.078	0.25
807.25	0.65
807.423	0.78
807.595	0.47
807.768	0.49
807.94	0.95
808.112	0.95
808.285	0.56
808.457	0.26
808.629	0.3
808.802	1
808.974	0.62
809.146	0.1
809.318	0.26
809.491	0.74
809.663	0.84
809.835	0.25
810.007	0.83
810.18	0.54
810.352	-0.21
810.524	0.29
810.696	0.84
810.868	1.36
811.04	0.49
811.212	0.56
811.384	1.07
811.556	1.19
811.728	0.11
811.901	1.63
812.073	0.52
812.245	1.06
812.417	0.23
812.589	0.15
812.76	0.52
812.932	0.87
813.104	1.04
813.276	0.68
813.448	1.04
813.62	0.67
813.792	0.81
813.964	0.64
814.136	0.86
814.307	0.46
814.479	0.53
814.651	0.24
814.823	1.66
814.995	0.83
815.166	0.88
815.338	0.32
815.51	0.27
815.681	1.78
815.853	0.92
816.025	0.5
816.196	1.61
816.368	1.24
816.54	0.03
816.711	0.21
816.883	1.35
817.054	2.15
817.226	0.39
817.398	1.14
817.569	0.72
817.741	0.72
817.912	0.5
818.084	0.58
818.255	1.47
818.426	0.59
818.598	0.49
818.769	0.34
818.941	0.82
819.112	1.5
819.283	0.71
819.455	-0.07
819.626	0.62
819.798	1.13
819.969	0.89
820.14	0.37
820.311	0.68
820.483	0.74
820.654	0.92
820.825	0.6
820.996	0.79
821.168	-0.18
821.339	0.85
821.51	0.09
821.681	0.58
821.852	0.9
822.023	0.24
822.195	-0.41
822.366	1.45
822.537	0.84
822.708	0.43
822.879	0.18
823.05	1.81
823.221	0.84
823.392	1.1
823.563	0.82
823.734	1.12
823.905	0.4
824.076	0.87
824.247	0.36
824.418	0.43
824.589	1.38
824.759	0.84
824.93	0.38
825.101	0.08
825.272	1.74
825.443	1.34
825.614	1.84
825.784	-0.03
825.955	1.92
826.126	1.12
826.297	1.06
826.467	1.16
826.638	2.04
826.809	0.41
826.98	0.79
827.15	1.85
827.321	1.11
827.492	1.6
827.662	0.98
827.833	2.35
828.003	1.31
828.174	0.23
828.345	0.24
828.515	1.61
828.686	1.07
828.856	0.56
829.027	0.94
829.197	1.57
829.368	1.41
829.538	0.61
829.709	0.88
829.879	1.38
830.049	0.84
830.22	0.86
830.39	0.82
830.56	1.25
830.731	0.82
830.901	0.3
831.072	0.56
831.242	1.48
831.412	1.6
831.582	0.43
831.753	0.43
831.923	1.57
832.093	1.68
832.263	0.83
832.434	0.25
832.604	0.52
832.774	1.68
832.944	0.71
833.114	0.55
833.284	1.43
833.454	0.18
833.624	0.73
833.795	0.6
833.965	1.52
834.135	2.32
834.305	-0.28
834.475	0.18
834.645	1.44
834.815	1.06
834.985	0.89
835.155	0.36
835.325	1.81
835.494	1.82
835.664	1.04
835.834	0.28
836.004	1.05
836.174	1.13
836.344	1.28
836.514	0.29
836.684	0.72
836.853	1.3
837.023	1.56
837.193	-0.26
837.363	2.34
837.532	2.09
837.702	1.03
837.872	-0.04
838.041	1.45
838.211	3
838.381	0.2
838.55	0.93
838.72	3.66
838.89	2.43
839.059	0.08
839.229	-0.23
839.398	3.32
839.568	1.53
839.738	0.67
839.907	1.9
840.077	1.49
840.246	0.83
840.416	-0.04
840.585	0.2
840.755	2.5
840.924	2.07
841.093	0.56
841.263	0.23
841.432	1.03
841.602	0.84
841.771	-0.07
841.94	0.9
842.11	3.14
842.279	2.18
842.448	0.97
842.617	0.41
842.787	1.79
842.956	0.19
843.125	0.68
843.294	1.05
843.464	2.38
843.633	1.76
843.802	0.32
843.971	1.4
844.14	1.74
844.309	2.46
844.479	-0.86
844.648	0.54
844.817	1.27
844.986	2.09
845.155	0.41
845.324	1.06
845.493	1.09
845.662	0.58
845.831	1.53
846	1.71
846.169	1.15
846.338	3.29
846.507	1.69
846.676	2.1
846.844	0.91
847.013	2.59
847.182	1.09
847.351	1.56
847.52	1.22
847.689	1.93
847.858	0.53
848.026	1.01
848.195	1.23
848.364	0.99
848.533	0.43
848.701	0.89
848.87	1.36
849.039	3.44
849.207	1.5
849.376	2.07
849.545	2.29
849.713	-0.09
849.882	1.16
850.051	0.73
850.219	1.23
850.388	3.27
850.556	0.04
850.725	0.77
850.893	2.02
851.062	1.07
851.23	2.87
851.399	-0.86
851.567	1.72
851.736	1.69
851.904	0.82
852.073	1.35
852.241	2.39
852.41	2.29
852.578	1.5
852.746	0.84
852.915	2.84
853.083	1.67
853.251	0.3
853.42	1.15
853.588	1.1
853.756	2.67
853.924	1.71
854.093	1.98
854.261	1.25
854.429	0.61
854.597	1.72
854.765	0.48
854.934	2.43
855.102	2.52
855.27	0.72
855.438	2.87
855.606	3.23
855.774	3.83
855.942	-0.04
856.11	0.66
856.278	1.17
856.446	2.79
856.614	1.33
856.782	0.26
856.95	3.62
857.118	3.08
857.286	2.83
857.454	0.35
857.622	3.23
857.79	2.18
857.958	0.58
858.126	1.17
858.294	-1.07
858.462	1.67
858.629	0.3
858.797	1.06
858.965	2.13
859.133	1.46
859.301	1.13
859.468	1.92
859.636	0.9
859.804	4.17
859.971	2.81
860.139	0.73
860.307	3.28
860.474	1.84
860.642	0.62
860.81	0.32
860.977	2.17
861.145	2.57
861.313	2.19
861.48	2.09
861.648	2.36
861.815	0.75
861.983	0.14
862.15	0.31
862.318	2.99
862.485	4.69
862.653	0.77
862.82	-0.76
862.988	3.73
863.155	2.72
863.322	0.96
863.49	0.61
863.657	0.97
863.824	5.51
863.992	2.28
864.159	1.77
864.326	4.59
864.494	0.42
864.661	4.96
864.828	0.27
864.996	3.59
865.163	4.57
865.33	-0.18
865.497	-1.24
865.664	0.89
865.832	-1.62
865.999	1.29
866.166	0.92
866.333	2.73
866.5	1.4
866.667	1.53
866.834	2.61
867.001	3.93
867.168	-0.41
867.335	2.23
867.502	-0.35
867.669	1.49
867.836	5.29
868.003	0.64
868.17	2.1
868.337	5.67
868.504	4.41
868.671	-0.33
868.838	0.72
869.005	2.78
869.172	2.01
869.339	1.22
869.505	2.16
869.672	2.86
869.839	4.22
870.006	1.97
870.173	1.09
870.339	3.57
870.506	6.4
870.673	-0.22
870.84	3
871.006	1.75
871.173	2.54
871.34	1.86
871.506	-0.01
871.673	2.07
871.839	0.12
872.006	1.44
872.173	0.76
872.339	3.29
872.506	3.05
872.672	1.55
872.839	-0.81
873.005	2.85
873.172	6.42
873.338	2.27
873.505	1.01
873.671	3.81
873.838	4.24
874.004	-1.15
874.171	1.03
874.337	3.21
874.503	3.71
874.67	2.71
874.836	1.02
875.002	3.39
875.169	2.97
875.335	1.92
875.501	2.02
875.668	3.97
875.834	1.62
876	0.71
876.166	3.36
876.332	3.32
876.499	5.96
876.665	2.31
876.831	2.45
876.997	6.54
877.163	2.19
877.329	1.41
877.495	2.34
877.662	4.54
877.828	2.24
877.994	2.23
878.16	-1.29
878.326	1.54
878.492	3.11
878.658	-0.11
878.824	3.01
878.99	2.77
879.156	-0.09
879.322	4.71
879.487	0.55
879.653	4.21
879.819	2.71
879.985	0.52
880.151	2.76
880.317	2.08
880.483	2.67
880.648	4.02
880.814	-0.48
880.98	3.21
881.146	-1.44
881.312	0.25
881.477	1.9
881.643	3.1
881.809	4.26
881.974	3.44
882.14	-1.18
882.306	2.64
882.471	7.86
882.637	0.74
882.803	1.22
882.968	4.9
883.134	6.36
883.299	0.34
883.465	3.08
883.63	3.53
883.796	4.83
883.961	3.02
884.127	2.74
884.292	-2.17
884.458	-1.57
884.623	-1.56
