Data from Apollo_Calib_20240827__AbsoluteIrradiance__40__23-49-00-180.txt Node

Date: Tue Aug 27 23:49:00 BST 2024
User: biology
Spectrometer: FLMT08252
Trigger mode: 0
Integration Time (sec): 5.000000E-1
Scans to average: 5
Electric dark correction enabled: true
Nonlinearity correction enabled: false
Boxcar width: 0
XAxis mode: Wavelengths
Number of Pixels in Spectrum: 3648
>>>>>Begin Spectral Data<<<<<
179.588	-0
179.809	-0
180.03	-0
180.251	-0
180.473	-0
180.694	0
180.915	0
181.136	-0
181.357	0
181.578	-0
181.799	0
182.02	-0
182.241	0
182.462	-0
182.683	0
182.904	-0
183.125	-0
183.346	0
183.567	0
183.788	0
184.009	0
184.23	0
184.451	0
184.672	0
184.892	0
185.113	0
185.334	0
185.555	0
185.776	0
185.996	0
186.217	0
186.438	0
186.659	0
186.879	0
187.1	0
187.321	0
187.541	0
187.762	0
187.983	0
188.203	0
188.424	0
188.644	0
188.865	0
189.086	0
189.306	0
189.527	0
189.747	0
189.968	0
190.188	0
190.409	0
190.629	0
190.849	0
191.07	0
191.29	0
191.511	0
191.731	0
191.951	0
192.172	0
192.392	0
192.612	0
192.833	0
193.053	0
193.273	0
193.493	0
193.714	0
193.934	0
194.154	0
194.374	0
194.594	0
194.815	0
195.035	0
195.255	0
195.475	0
195.695	0
195.915	0
196.135	0
196.355	0
196.575	0
196.795	0
197.015	0
197.235	0
197.455	0
197.675	0
197.895	0
198.115	0
198.335	0
198.555	0
198.775	0
198.995	0
199.214	0
199.434	0
199.654	0
199.874	0
200.094	3.38
200.313	2.33
200.533	2.65
200.753	2.07
200.973	3.81
201.192	3.51
201.412	1.29
201.632	2.01
201.851	2.84
202.071	1.47
202.291	1.72
202.51	1.61
202.73	2.63
202.95	2.16
203.169	1.49
203.389	1.89
203.608	1.68
203.828	1.86
204.047	1.4
204.267	2.24
204.486	2.32
204.706	2.72
204.925	1.81
205.145	1.5
205.364	1.94
205.583	2.43
205.803	1.58
206.022	1
206.242	1.42
206.461	1.65
206.68	1.33
206.9	1.72
207.119	2.39
207.338	2.47
207.557	1.06
207.777	1.35
207.996	1.28
208.215	1.93
208.434	1.19
208.654	1.04
208.873	1.2
209.092	1.98
209.311	1.13
209.53	1.35
209.749	1.08
209.968	0.97
210.187	1.19
210.407	0.78
210.626	1.02
210.845	1.49
211.064	1.42
211.283	1.05
211.502	1.69
211.721	1.3
211.94	1.02
212.159	1.31
212.377	1.21
212.596	1.4
212.815	1.32
213.034	0.99
213.253	1.35
213.472	1.46
213.691	1.04
213.91	0.66
214.128	1
214.347	1.35
214.566	0.57
214.785	0.7
215.003	1.19
215.222	0.93
215.441	1.22
215.66	0.5
215.878	0.98
216.097	1.17
216.316	0.65
216.534	1.05
216.753	1.11
216.972	0.87
217.19	0.94
217.409	0.67
217.627	0.82
217.846	0.73
218.064	0.92
218.283	0.74
218.501	1.26
218.72	1.07
218.938	0.64
219.157	0.6
219.375	1.19
219.594	0.99
219.812	0.63
220.031	0.65
220.249	0.98
220.467	1.02
220.686	0.71
220.904	0.56
221.122	0.77
221.341	1.03
221.559	0.8
221.777	0.56
221.995	0.8
222.214	0.89
222.432	0.63
222.65	0.88
222.868	0.73
223.086	0.98
223.305	0.86
223.523	0.62
223.741	1.09
223.959	0.72
224.177	0.45
224.395	0.63
224.613	0.79
224.831	0.92
225.049	0.52
225.267	0.64
225.485	0.78
225.703	0.71
225.921	0.56
226.139	0.63
226.357	0.75
226.575	0.77
226.793	0.52
227.011	1.4
227.229	0.75
227.447	0.97
227.665	0.54
227.883	0.35
228.1	0.71
228.318	0.68
228.536	0.45
228.754	0.42
228.972	0.68
229.189	0.71
229.407	0.57
229.625	0.52
229.843	0.77
230.06	0.76
230.278	0.58
230.496	0.63
230.713	0.62
230.931	0.74
231.149	0.61
231.366	0.31
231.584	0.56
231.801	1.06
232.019	0.55
232.236	0.35
232.454	0.46
232.671	0.7
232.889	0.54
233.106	0.43
233.324	0.51
233.541	0.59
233.759	0.57
233.976	0.44
234.194	0.51
234.411	0.46
234.628	0.32
234.846	0.51
235.063	0.49
235.28	0.48
235.498	0.62
235.715	0.43
235.932	0.64
236.149	0.55
236.367	0.42
236.584	0.61
236.801	0.42
237.018	0.5
237.236	0.58
237.453	0.31
237.67	0.65
237.887	0.49
238.104	0.48
238.321	0.39
238.538	0.39
238.755	0.61
238.973	0.3
239.19	0.51
239.407	0.57
239.624	0.6
239.841	0.29
240.058	0.41
240.275	0.52
240.492	0.46
240.709	0.42
240.925	0.48
241.142	0.5
241.359	0.42
241.576	0.33
241.793	0.41
242.01	0.47
242.227	0.6
242.444	0.63
242.66	0.6
242.877	0.48
243.094	0.45
243.311	0.54
243.527	0.44
243.744	0.49
243.961	0.58
244.178	0.43
244.394	0.44
244.611	0.63
244.828	0.67
245.044	0.39
245.261	0.45
245.477	0.47
245.694	0.56
245.911	0.37
246.127	0.41
246.344	0.59
246.56	0.58
246.777	0.39
246.993	0.45
247.21	0.5
247.426	0.49
247.643	0.34
247.859	0.32
248.076	0.44
248.292	0.66
248.508	0.39
248.725	0.45
248.941	0.53
249.157	0.57
249.374	0.4
249.59	0.4
249.806	0.45
250.023	0.39
250.239	0.41
250.455	0.36
250.671	0.41
250.888	0.43
251.104	0.46
251.32	0.43
251.536	0.43
251.752	0.38
251.969	0.45
252.185	0.45
252.401	0.6
252.617	0.46
252.833	0.29
253.049	0.39
253.265	0.43
253.481	0.5
253.697	0.36
253.913	0.24
254.129	0.44
254.345	0.42
254.561	0.4
254.777	0.41
254.993	0.47
255.209	0.37
255.425	0.39
255.641	0.33
255.857	0.39
256.073	0.4
256.288	0.34
256.504	0.33
256.72	0.43
256.936	0.44
257.152	0.41
257.367	0.31
257.583	0.41
257.799	0.49
258.015	0.35
258.23	0.35
258.446	0.61
258.662	0.43
258.877	0.33
259.093	0.34
259.309	0.43
259.524	0.34
259.74	0.36
259.955	0.27
260.171	0.38
260.387	0.33
260.602	0.5
260.818	0.49
261.033	0.32
261.249	0.37
261.464	0.29
261.68	0.27
261.895	0.41
262.11	0.53
262.326	0.28
262.541	0.31
262.757	0.52
262.972	0.47
263.187	0.41
263.403	0.38
263.618	0.49
263.833	0.41
264.049	0.36
264.264	0.41
264.479	0.43
264.694	0.52
264.91	0.25
265.125	0.36
265.34	0.47
265.555	0.5
265.77	0.38
265.986	0.33
266.201	0.38
266.416	0.43
266.631	0.33
266.846	0.3
267.061	0.4
267.276	0.45
267.491	0.2
267.706	0.41
267.921	0.42
268.136	0.41
268.351	0.32
268.566	0.28
268.781	0.49
268.996	0.45
269.211	0.34
269.426	0.29
269.641	0.26
269.856	0.42
270.071	0.27
270.285	0.24
270.5	0.43
270.715	0.47
270.93	0.25
271.145	0.35
271.359	0.4
271.574	0.27
271.789	0.39
272.004	0.37
272.218	0.32
272.433	0.45
272.648	0.31
272.862	0.46
273.077	0.35
273.292	0.38
273.506	0.34
273.721	0.35
273.936	0.35
274.15	0.4
274.365	0.26
274.579	0.38
274.794	0.34
275.008	0.44
275.223	0.26
275.437	0.34
275.652	0.49
275.866	0.35
276.081	0.28
276.295	0.37
276.509	0.33
276.724	0.33
276.938	0.33
277.153	0.32
277.367	0.41
277.581	0.28
277.796	0.27
278.01	0.26
278.224	0.4
278.438	0.4
278.653	0.28
278.867	0.24
279.081	0.38
279.295	0.3
279.51	0.36
279.724	0.22
279.938	0.38
280.152	0.36
280.366	0.28
280.58	0.34
280.794	0.4
281.008	0.38
281.222	0.38
281.437	0.45
281.651	0.39
281.865	0.39
282.079	0.32
282.293	0.19
282.507	0.27
282.721	0.27
282.935	0.32
283.148	0.24
283.362	0.26
283.576	0.22
283.79	0.27
284.004	0.22
284.218	0.36
284.432	0.29
284.646	0.28
284.859	0.29
285.073	0.31
285.287	0.31
285.501	0.28
285.714	0.29
285.928	0.32
286.142	0.32
286.356	0.21
286.569	0.29
286.783	0.41
286.997	0.27
287.21	0.31
287.424	0.28
287.637	0.32
287.851	0.28
288.065	0.31
288.278	0.3
288.492	0.28
288.705	0.24
288.919	0.28
289.132	0.21
289.346	0.34
289.559	0.2
289.773	0.25
289.986	0.28
290.2	0.28
290.413	0.38
290.626	0.29
290.84	0.27
291.053	0.33
291.267	0.36
291.48	0.28
291.693	0.3
291.906	0.23
292.12	0.27
292.333	0.24
292.546	0.26
292.76	0.33
292.973	0.28
293.186	0.34
293.399	0.24
293.612	0.35
293.826	0.25
294.039	0.25
294.252	0.25
294.465	0.28
294.678	0.27
294.891	0.26
295.104	0.21
295.317	0.29
295.53	0.3
295.743	0.24
295.956	0.26
296.169	0.37
296.382	0.31
296.595	0.27
296.808	0.2
297.021	0.29
297.234	0.33
297.447	0.25
297.66	0.31
297.873	0.34
298.086	0.26
298.299	0.26
298.511	0.22
298.724	0.31
298.937	0.2
299.15	0.21
299.363	0.23
299.575	0.33
299.788	0.26
300.001	0.3
300.213	0.26
300.426	0.26
300.639	0.26
300.852	0.24
301.064	0.33
301.277	0.32
301.489	0.28
301.702	0.26
301.915	0.21
302.127	0.26
302.34	0.33
302.552	0.29
302.765	0.22
302.977	0.3
303.19	0.21
303.402	0.3
303.615	0.24
303.827	0.26
304.04	0.25
304.252	0.28
304.464	0.24
304.677	0.39
304.889	0.26
305.102	0.22
305.314	0.24
305.526	0.29
305.739	0.29
305.951	0.21
306.163	0.24
306.375	0.32
306.588	0.23
306.8	0.2
307.012	0.2
307.224	0.29
307.436	0.32
307.649	0.19
307.861	0.23
308.073	0.3
308.285	0.22
308.497	0.22
308.709	0.23
308.921	0.31
309.133	0.36
309.346	0.25
309.558	0.26
309.77	0.3
309.982	0.36
310.194	0.29
310.406	0.22
310.617	0.32
310.829	0.27
311.041	0.29
311.253	0.22
311.465	0.25
311.677	0.28
311.889	0.24
312.101	0.22
312.313	0.3
312.524	0.32
312.736	0.17
312.948	0.24
313.16	0.3
313.372	0.28
313.583	0.26
313.795	0.26
314.007	0.23
314.218	0.31
314.43	0.25
314.642	0.24
314.853	0.2
315.065	0.28
315.277	0.25
315.488	0.3
315.7	0.32
315.912	0.28
316.123	0.23
316.335	0.21
316.546	0.34
316.758	0.24
316.969	0.22
317.181	0.26
317.392	0.22
317.604	0.33
317.815	0.2
318.026	0.19
318.238	0.25
318.449	0.27
318.661	0.21
318.872	0.23
319.083	0.22
319.295	0.23
319.506	0.25
319.717	0.27
319.929	0.33
320.14	0.29
320.351	0.28
320.562	0.25
320.774	0.36
320.985	0.25
321.196	0.22
321.407	0.17
321.618	0.29
321.829	0.27
322.041	0.29
322.252	0.19
322.463	0.32
322.674	0.27
322.885	0.19
323.096	0.26
323.307	0.25
323.518	0.25
323.729	0.2
323.94	0.23
324.151	0.26
324.362	0.26
324.573	0.25
324.784	0.21
324.995	0.27
325.206	0.26
325.417	0.23
325.628	0.22
325.838	0.27
326.049	0.29
326.26	0.3
326.471	0.24
326.682	0.26
326.892	0.3
327.103	0.22
327.314	0.24
327.525	0.37
327.735	0.25
327.946	0.25
328.157	0.24
328.368	0.3
328.578	0.23
328.789	0.31
328.999	0.26
329.21	0.28
329.421	0.3
329.631	0.23
329.842	0.18
330.052	0.29
330.263	0.29
330.473	0.31
330.684	0.23
330.894	0.27
331.105	0.28
331.315	0.27
331.526	0.19
331.736	0.36
331.947	0.29
332.157	0.26
332.367	0.18
332.578	0.28
332.788	0.29
332.999	0.28
333.209	0.28
333.419	0.2
333.629	0.25
333.84	0.3
334.05	0.23
334.26	0.32
334.47	0.25
334.681	0.31
334.891	0.24
335.101	0.29
335.311	0.34
335.521	0.24
335.732	0.19
335.942	0.37
336.152	0.29
336.362	0.21
336.572	0.27
336.782	0.3
336.992	0.23
337.202	0.23
337.412	0.25
337.622	0.26
337.832	0.25
338.042	0.21
338.252	0.22
338.462	0.22
338.672	0.25
338.882	0.22
339.092	0.26
339.302	0.31
339.511	0.26
339.721	0.22
339.931	0.26
340.141	0.32
340.351	0.28
340.561	0.31
340.77	0.26
340.98	0.26
341.19	0.29
341.4	0.24
341.609	0.24
341.819	0.27
342.029	0.16
342.238	0.29
342.448	0.23
342.658	0.29
342.867	0.28
343.077	0.26
343.286	0.28
343.496	0.21
343.706	0.31
343.915	0.19
344.125	0.25
344.334	0.29
344.544	0.19
344.753	0.24
344.963	0.22
345.172	0.24
345.381	0.26
345.591	0.23
345.8	0.27
346.01	0.31
346.219	0.29
346.428	0.15
346.638	0.25
346.847	0.27
347.056	0.35
347.266	0.24
347.475	0.29
347.684	0.28
347.893	0.3
348.103	0.24
348.312	0.23
348.521	0.27
348.73	0.24
348.94	0.26
349.149	0.23
349.358	0.24
349.567	0.17
349.776	0.19
349.985	0.21
350.194	0.31
350.403	0.29
350.612	0.19
350.821	0.21
351.03	0.24
351.239	0.21
351.448	0.3
351.657	0.21
351.866	0.3
352.075	0.27
352.284	0.28
352.493	0.17
352.702	0.29
352.911	0.28
353.12	0.26
353.329	0.23
353.538	0.29
353.746	0.21
353.955	0.2
354.164	0.3
354.373	0.25
354.582	0.3
354.79	0.25
354.999	0.3
355.208	0.21
355.416	0.29
355.625	0.22
355.834	0.24
356.042	0.27
356.251	0.24
356.46	0.2
356.668	0.26
356.877	0.34
357.085	0.32
357.294	0.17
357.503	0.26
357.711	0.27
357.92	0.4
358.128	0.28
358.337	0.23
358.545	0.29
358.754	0.25
358.962	0.3
359.17	0.26
359.379	0.25
359.587	0.28
359.796	0.23
360.004	0.31
360.212	0.26
360.421	0.33
360.629	0.26
360.837	0.23
361.046	0.29
361.254	0.39
361.462	0.25
361.67	0.21
361.879	0.24
362.087	0.3
362.295	0.23
362.503	0.22
362.711	0.22
362.92	0.25
363.128	0.24
363.336	0.2
363.544	0.18
363.752	0.26
363.96	0.24
364.168	0.2
364.376	0.27
364.584	0.25
364.792	0.27
365	0.23
365.208	0.21
365.416	0.25
365.624	0.3
365.832	0.2
366.04	0.32
366.248	0.27
366.456	0.25
366.664	0.26
366.872	0.21
367.079	0.22
367.287	0.25
367.495	0.25
367.703	0.24
367.911	0.22
368.118	0.23
368.326	0.26
368.534	0.23
368.742	0.25
368.949	0.23
369.157	0.23
369.365	0.27
369.572	0.27
369.78	0.19
369.988	0.3
370.195	0.25
370.403	0.26
370.61	0.21
370.818	0.26
371.026	0.31
371.233	0.18
371.441	0.21
371.648	0.26
371.856	0.26
372.063	0.26
372.271	0.23
372.478	0.23
372.685	0.21
372.893	0.28
373.1	0.23
373.308	0.28
373.515	0.35
373.722	0.29
373.93	0.22
374.137	0.29
374.344	0.34
374.552	0.28
374.759	0.28
374.966	0.31
375.173	0.22
375.381	0.31
375.588	0.22
375.795	0.21
376.002	0.24
376.209	0.22
376.417	0.29
376.624	0.31
376.831	0.27
377.038	0.23
377.245	0.18
377.452	0.28
377.659	0.31
377.866	0.24
378.073	0.26
378.28	0.24
378.487	0.31
378.694	0.28
378.901	0.22
379.108	0.22
379.315	0.31
379.522	0.35
379.729	0.26
379.936	0.25
380.143	0.3
380.35	0.29
380.557	0.25
380.763	0.3
380.97	0.28
381.177	0.28
381.384	0.28
381.591	0.24
381.797	0.29
382.004	0.29
382.211	0.3
382.418	0.28
382.624	0.28
382.831	0.3
383.038	0.29
383.244	0.27
383.451	0.32
383.658	0.27
383.864	0.25
384.071	0.22
384.277	0.32
384.484	0.23
384.69	0.33
384.897	0.22
385.103	0.26
385.31	0.24
385.516	0.22
385.723	0.26
385.929	0.29
386.136	0.23
386.342	0.28
386.549	0.24
386.755	0.34
386.961	0.29
387.168	0.28
387.374	0.33
387.58	0.34
387.787	0.27
387.993	0.3
388.199	0.3
388.406	0.26
388.612	0.25
388.818	0.29
389.024	0.29
389.231	0.29
389.437	0.42
389.643	0.32
389.849	0.25
390.055	0.28
390.261	0.29
390.467	0.32
390.674	0.29
390.88	0.26
391.086	0.31
391.292	0.24
391.498	0.31
391.704	0.33
391.91	0.31
392.116	0.31
392.322	0.2
392.528	0.33
392.734	0.28
392.94	0.3
393.146	0.31
393.352	0.29
393.557	0.28
393.763	0.31
393.969	0.32
394.175	0.33
394.381	0.31
394.587	0.26
394.792	0.29
394.998	0.38
395.204	0.35
395.41	0.32
395.615	0.35
395.821	0.31
396.027	0.35
396.233	0.31
396.438	0.35
396.644	0.43
396.85	0.33
397.055	0.29
397.261	0.35
397.466	0.33
397.672	0.34
397.878	0.31
398.083	0.37
398.289	0.31
398.494	0.38
398.7	0.36
398.905	0.26
399.111	0.4
399.316	0.31
399.522	0.42
399.727	0.34
399.932	0.35
400.138	0.31
400.343	0.41
400.549	0.35
400.754	0.38
400.959	0.38
401.165	0.38
401.37	0.4
401.575	0.31
401.78	0.36
401.986	0.35
402.191	0.39
402.396	0.4
402.601	0.4
402.807	0.39
403.012	0.39
403.217	0.46
403.422	0.46
403.627	0.43
403.832	0.4
404.037	0.44
404.243	0.43
404.448	0.33
404.653	0.39
404.858	0.44
405.063	0.47
405.268	0.44
405.473	0.37
405.678	0.44
405.883	0.6
406.088	0.47
406.293	0.4
406.498	0.47
406.703	0.47
406.907	0.52
407.112	0.47
407.317	0.49
407.522	0.61
407.727	0.5
407.932	0.55
408.136	0.66
408.341	0.56
408.546	0.6
408.751	0.59
408.956	0.55
409.16	0.62
409.365	0.58
409.57	0.59
409.774	0.64
409.979	0.73
410.184	0.67
410.388	0.62
410.593	0.75
410.798	0.74
411.002	0.73
411.207	0.82
411.411	0.81
411.616	0.78
411.82	0.8
412.025	0.84
412.229	0.82
412.434	1.02
412.638	0.94
412.843	0.95
413.047	0.94
413.252	0.96
413.456	1
413.66	1.06
413.865	1.02
414.069	1.15
414.273	1.14
414.478	1.18
414.682	1.22
414.886	1.26
415.091	1.21
415.295	1.27
415.499	1.39
415.703	1.35
415.908	1.44
416.112	1.46
416.316	1.6
416.52	1.59
416.724	1.59
416.929	1.61
417.133	1.82
417.337	1.76
417.541	1.86
417.745	1.94
417.949	1.95
418.153	2.12
418.357	2.05
418.561	2.24
418.765	2.24
418.969	2.39
419.173	2.43
419.377	2.47
419.581	2.63
419.785	2.63
419.989	2.68
420.193	2.82
420.397	2.97
420.601	3.03
420.804	3.1
421.008	3.13
421.212	3.27
421.416	3.32
421.62	3.32
421.823	3.33
422.027	3.57
422.231	3.49
422.435	3.56
422.638	3.62
422.842	3.69
423.046	3.79
423.249	3.96
423.453	3.98
423.657	4.19
423.86	4.2
424.064	4.37
424.268	4.53
424.471	4.48
424.675	4.7
424.878	4.76
425.082	4.93
425.285	5.24
425.489	5.06
425.692	5.29
425.896	5.32
426.099	5.5
426.303	5.64
426.506	5.89
426.71	6.01
426.913	6.21
427.116	6.38
427.32	6.3
427.523	6.43
427.726	6.7
427.93	6.87
428.133	7.15
428.336	7.24
428.54	7.43
428.743	7.63
428.946	7.89
429.149	7.82
429.353	8.02
429.556	8.01
429.759	8.13
429.962	8.16
430.165	8.41
430.368	8
430.571	8.11
430.775	8.11
430.978	8.18
431.181	8.14
431.384	8.35
431.587	8.39
431.79	8.75
431.993	8.66
432.196	8.97
432.399	9.32
432.602	9.49
432.805	9.56
433.008	10.07
433.211	9.95
433.414	10.28
433.616	10.29
433.819	10.26
434.022	10.48
434.225	10.63
434.428	10.65
434.631	11.08
434.833	10.8
435.036	11.15
435.239	11.36
435.442	11.36
435.645	11.55
435.847	11.6
436.05	11.94
436.253	12.12
436.455	12.19
436.658	12.15
436.861	12.43
437.063	12.53
437.266	12.41
437.468	12.74
437.671	13.05
437.874	13.17
438.076	13.02
438.279	13.59
438.481	13.58
438.684	14.31
438.886	13.95
439.089	14.3
439.291	14.08
439.494	14.59
439.696	14.83
439.899	15.38
440.101	15.77
440.303	15.89
440.506	16.56
440.708	16.26
440.91	16.57
441.113	16.8
441.315	16.99
441.517	16.94
441.72	17.31
441.922	17.04
442.124	16.96
442.326	17.38
442.529	17.48
442.731	17.4
442.933	17.83
443.135	17.41
443.337	17.6
443.539	18.13
443.742	17.84
443.944	18.4
444.146	18.11
444.348	18.24
444.55	18.11
444.752	18.3
444.954	18.37
445.156	18.05
445.358	18.59
445.56	18.92
445.762	18.67
445.964	18.87
446.166	18.73
446.368	18.6
446.57	18.67
446.772	18.32
446.974	17.89
447.175	18.48
447.377	18.04
447.579	18.36
447.781	18.22
447.983	17.76
448.184	17.5
448.386	17.77
448.588	17.33
448.79	17.42
448.991	17.76
449.193	17.48
449.395	16.96
449.597	16.61
449.798	16.47
450	15.97
450.202	15.89
450.403	15.84
450.605	15.8
450.806	15.38
451.008	15.33
451.21	15.01
451.411	14.62
451.613	13.8
451.814	14.19
452.016	14.06
452.217	13.43
452.419	13.31
452.62	13.03
452.821	12.67
453.023	12.65
453.224	12.26
453.426	11.78
453.627	11.07
453.828	11.18
454.03	11.31
454.231	11.26
454.432	11.08
454.634	10.77
454.835	10.51
455.036	10.41
455.238	10.04
455.439	9.78
455.64	9.48
455.841	9.41
456.042	9.54
456.244	9.23
456.445	8.88
456.646	8.61
456.847	8.49
457.048	8.43
457.249	8.47
457.45	8.2
457.651	7.59
457.852	7.67
458.054	7.29
458.255	7.27
458.456	7.35
458.657	7.06
458.858	6.78
459.058	6.68
459.259	6.72
459.46	6.49
459.661	6.39
459.862	6.44
460.063	6.36
460.264	6.14
460.465	6
460.666	6.04
460.866	5.71
461.067	5.48
461.268	5.6
461.469	5.47
461.67	5.35
461.87	5.29
462.071	5.32
462.272	5.15
462.473	5.12
462.673	5.31
462.874	5.23
463.075	5.14
463.275	5.1
463.476	5.09
463.676	5.23
463.877	4.92
464.078	4.89
464.278	5
464.479	4.88
464.679	4.71
464.88	4.76
465.08	4.7
465.281	4.48
465.481	4.3
465.682	4.1
465.882	4.15
466.083	4.06
466.283	4.04
466.483	3.92
466.684	3.74
466.884	3.61
467.085	3.67
467.285	3.73
467.485	3.64
467.686	3.55
467.886	3.4
468.086	3.32
468.286	3.34
468.487	3.42
468.687	3.25
468.887	3.17
469.087	3.36
469.287	3.26
469.488	3.07
469.688	3.16
469.888	3.16
470.088	3.15
470.288	3
470.488	3.04
470.688	2.89
470.888	2.86
471.088	2.67
471.288	2.74
471.488	2.72
471.688	2.73
471.888	2.65
472.088	2.82
472.288	2.69
472.488	2.6
472.688	2.53
472.888	2.57
473.088	2.56
473.288	2.55
473.488	2.44
473.688	2.62
473.887	2.48
474.087	2.43
474.287	2.46
474.487	2.4
474.687	2.41
474.886	2.33
475.086	2.29
475.286	2.3
475.486	2.28
475.685	2.19
475.885	2.21
476.085	2.21
476.284	2.23
476.484	2.24
476.684	2.23
476.883	2.34
477.083	2.16
477.282	2.13
477.482	2.18
477.681	2.12
477.881	2.02
478.08	2.08
478.28	2.04
478.479	2.04
478.679	2.12
478.878	1.99
479.078	1.99
479.277	2.05
479.477	2.01
479.676	2.04
479.875	2.01
480.075	1.95
480.274	2.02
480.473	2.02
480.673	1.96
480.872	2.07
481.071	2.04
481.271	2.03
481.47	1.94
481.669	2
481.868	1.94
482.067	2
482.267	1.92
482.466	1.94
482.665	1.9
482.864	1.94
483.063	1.89
483.262	1.97
483.461	2.06
483.661	2.07
483.86	1.95
484.059	2.05
484.258	2.02
484.457	2.03
484.656	2.04
484.855	2.1
485.054	1.91
485.253	1.97
485.452	1.99
485.651	2.04
485.849	2.01
486.048	1.98
486.247	2.05
486.446	2.09
486.645	2.01
486.844	2.05
487.043	2.04
487.241	2.08
487.44	2.09
487.639	2.09
487.838	2.11
488.037	2.1
488.235	2.2
488.434	2.17
488.633	2.03
488.831	2.19
489.03	2.26
489.229	2.2
489.427	2.21
489.626	2.22
489.825	2.28
490.023	2.32
490.222	2.26
490.42	2.28
490.619	2.33
490.817	2.32
491.016	2.36
491.214	2.41
491.413	2.41
491.611	2.41
491.81	2.37
492.008	2.4
492.207	2.53
492.405	2.52
492.604	2.44
492.802	2.58
493	2.59
493.199	2.59
493.397	2.67
493.595	2.71
493.794	2.62
493.992	2.8
494.19	2.72
494.388	2.83
494.587	2.71
494.785	2.84
494.983	2.73
495.181	2.82
495.379	2.89
495.578	2.92
495.776	2.94
495.974	2.9
496.172	2.93
496.37	3.09
496.568	3.08
496.766	3.1
496.964	3.18
497.162	3.16
497.36	3.17
497.558	3.23
497.756	3.31
497.954	3.26
498.152	3.31
498.35	3.41
498.548	3.33
498.746	3.34
498.944	3.37
499.142	3.43
499.34	3.5
499.538	3.6
499.736	3.54
499.933	3.59
500.131	3.6
500.329	3.73
500.527	3.73
500.725	3.82
500.922	3.84
501.12	3.87
501.318	3.94
501.516	3.94
501.713	3.99
501.911	3.99
502.109	3.94
502.306	4.11
502.504	4.04
502.701	4.1
502.899	4.12
503.097	4.33
503.294	4.2
503.492	4.32
503.689	4.32
503.887	4.36
504.084	4.41
504.282	4.4
504.479	4.39
504.677	4.58
504.874	4.54
505.072	4.4
505.269	4.62
505.466	4.61
505.664	4.71
505.861	4.63
506.059	4.74
506.256	4.75
506.453	4.81
506.651	4.98
506.848	5.02
507.045	4.92
507.242	4.99
507.44	5.04
507.637	5.08
507.834	5.01
508.031	5.2
508.229	5.16
508.426	5.1
508.623	5.29
508.82	5.29
509.017	5.25
509.214	5.28
509.411	5.37
509.608	5.34
509.805	5.47
510.003	5.43
510.2	5.48
510.397	5.64
510.594	5.54
510.791	5.68
510.988	5.61
511.184	5.6
511.381	5.55
511.578	5.69
511.775	5.85
511.972	5.71
512.169	5.82
512.366	5.85
512.563	5.96
512.76	5.95
512.956	6.01
513.153	5.94
513.35	5.92
513.547	5.91
513.744	6.02
513.94	6.05
514.137	6.15
514.334	6.16
514.53	6.2
514.727	6.39
514.924	6.24
515.12	6.22
515.317	6.27
515.514	6.2
515.71	6.13
515.907	6.45
516.103	6.4
516.3	6.33
516.497	6.44
516.693	6.44
516.89	6.51
517.086	6.45
517.283	6.54
517.479	6.43
517.676	6.61
517.872	6.65
518.068	6.64
518.265	6.58
518.461	6.55
518.658	6.71
518.854	6.68
519.05	6.8
519.247	6.82
519.443	6.74
519.639	6.88
519.836	6.75
520.032	6.7
520.228	6.93
520.424	6.83
520.621	6.95
520.817	6.97
521.013	6.93
521.209	7.13
521.405	7.03
521.601	7.02
521.798	6.99
521.994	7.01
522.19	6.96
522.386	7.05
522.582	7.14
522.778	7.27
522.974	7.05
523.17	7.13
523.366	7.07
523.562	7.19
523.758	7.16
523.954	7.01
524.15	7.24
524.346	7.25
524.542	7.27
524.738	7.26
524.934	7.37
525.129	7.36
525.325	7.23
525.521	7.22
525.717	7.43
525.913	7.3
526.109	7.34
526.304	7.45
526.5	7.41
526.696	7.4
526.892	7.36
527.087	7.62
527.283	7.5
527.479	7.49
527.674	7.33
527.87	7.49
528.066	7.48
528.261	7.55
528.457	7.48
528.653	7.66
528.848	7.53
529.044	7.66
529.239	7.44
529.435	7.46
529.63	7.54
529.826	7.55
530.021	7.56
530.217	7.64
530.412	7.57
530.608	7.63
530.803	7.64
530.999	7.53
531.194	7.63
531.389	7.74
531.585	7.65
531.78	7.82
531.975	7.68
532.171	7.75
532.366	7.78
532.561	7.74
532.757	7.68
532.952	7.87
533.147	7.62
533.342	7.77
533.538	7.72
533.733	7.93
533.928	7.6
534.123	7.74
534.318	7.78
534.513	7.73
534.709	7.91
534.904	7.8
535.099	7.95
535.294	7.86
535.489	7.91
535.684	7.82
535.879	7.86
536.074	7.92
536.269	7.9
536.464	7.96
536.659	7.83
536.854	7.91
537.049	7.92
537.244	7.96
537.439	7.9
537.634	7.87
537.828	8.02
538.023	7.93
538.218	7.92
538.413	7.84
538.608	7.9
538.803	7.9
538.997	7.88
539.192	7.96
539.387	7.87
539.582	7.92
539.776	7.88
539.971	7.99
540.166	8.01
540.36	7.93
540.555	8.04
540.75	7.97
540.944	8.01
541.139	8
541.334	7.97
541.528	7.98
541.723	8.05
541.917	8.05
542.112	7.91
542.306	7.86
542.501	7.87
542.695	7.99
542.89	7.95
543.084	7.99
543.279	8.04
543.473	8.11
543.668	8.11
543.862	7.94
544.056	7.85
544.251	8.03
544.445	8.12
544.64	8.08
544.834	7.81
545.028	7.67
545.222	8.07
545.417	8.2
545.611	8.11
545.805	8.01
546	7.84
546.194	8.11
546.388	8.12
546.582	7.98
546.776	8.04
546.97	8.06
547.165	8.03
547.359	8.06
547.553	7.92
547.747	8.08
547.941	8.22
548.135	8.04
548.329	8.14
548.523	8.08
548.717	8
548.911	7.99
549.105	8.02
549.299	8.1
549.493	8.09
549.687	8.04
549.881	8.14
550.075	8.15
550.269	7.98
550.463	8.16
550.657	8.1
550.85	8.05
551.044	8.08
551.238	8.17
551.432	8.12
551.626	8.15
551.82	8.15
552.013	8.01
552.207	8.17
552.401	8.14
552.594	8.03
552.788	8.03
552.982	8.01
553.176	8.02
553.369	8.22
553.563	8.12
553.756	8.1
553.95	8.19
554.144	8.14
554.337	8.1
554.531	7.9
554.724	8.12
554.918	8.17
555.111	8.05
555.305	8.08
555.498	8.04
555.692	8.18
555.885	8.08
556.079	8.08
556.272	8.09
556.466	8.07
556.659	8.02
556.852	8.18
557.046	8.01
557.239	7.91
557.432	8.07
557.626	8.15
557.819	8.19
558.012	8.19
558.206	8.21
558.399	8.07
558.592	8.09
558.785	8.05
558.979	8.1
559.172	8.09
559.365	8.08
559.558	8.04
559.751	8.03
559.944	8.14
560.138	8.1
560.331	8.15
560.524	8.24
560.717	8.09
560.91	8.09
561.103	8.13
561.296	8.04
561.489	8.13
561.682	8.21
561.875	8.09
562.068	8.26
562.261	8.03
562.454	8.26
562.647	8.09
562.84	8.15
563.032	8.12
563.225	8.02
563.418	8.06
563.611	8.17
563.804	8.2
563.997	7.99
564.19	7.89
564.382	8.19
564.575	8.04
564.768	7.99
564.961	8.19
565.153	8.04
565.346	7.97
565.539	8.21
565.731	8.08
565.924	8.17
566.117	8.29
566.309	8.11
566.502	8.03
566.695	8.08
566.887	8.16
567.08	8.06
567.272	8.1
567.465	7.95
567.657	8.17
567.85	8
568.042	8.02
568.235	8.12
568.427	7.95
568.62	8.11
568.812	8.02
569.005	8.11
569.197	7.98
569.389	8.12
569.582	8.01
569.774	8.05
569.966	8.02
570.159	7.99
570.351	7.92
570.543	8.05
570.736	7.97
570.928	7.86
571.12	8.04
571.312	7.94
571.505	7.73
571.697	7.99
571.889	7.99
572.081	8.02
572.273	7.96
572.465	7.98
572.658	7.99
572.85	8
573.042	8.04
573.234	7.89
573.426	7.91
573.618	7.9
573.81	7.96
574.002	7.94
574.194	7.98
574.386	7.94
574.578	7.83
574.77	7.88
574.962	7.94
575.154	7.82
575.346	7.82
575.538	7.79
575.729	7.85
575.921	7.92
576.113	7.97
576.305	7.87
576.497	7.9
576.689	7.8
576.88	7.82
577.072	7.9
577.264	7.82
577.456	7.94
577.647	7.79
577.839	7.97
578.031	7.82
578.223	7.77
578.414	7.7
578.606	7.81
578.798	7.87
578.989	7.82
579.181	7.86
579.372	7.84
579.564	7.87
579.755	7.78
579.947	7.74
580.139	7.81
580.33	7.65
580.522	7.75
580.713	7.69
580.905	7.71
581.096	7.86
581.287	7.76
581.479	7.76
581.67	7.75
581.862	7.65
582.053	7.7
582.244	7.57
582.436	7.82
582.627	7.57
582.818	7.64
583.01	7.59
583.201	7.69
583.392	7.58
583.583	7.59
583.775	7.49
583.966	7.57
584.157	7.58
584.348	7.78
584.54	7.58
584.731	7.62
584.922	7.53
585.113	7.42
585.304	7.63
585.495	7.57
585.686	7.7
585.877	7.62
586.068	7.65
586.259	7.56
586.45	7.54
586.641	7.48
586.832	7.54
587.023	7.58
587.214	7.47
587.405	7.51
587.596	7.45
587.787	7.39
587.978	7.52
588.169	7.38
588.36	7.37
588.551	7.41
588.742	7.41
588.932	7.46
589.123	7.27
589.314	7.45
589.505	7.35
589.696	7.33
589.886	7.26
590.077	7.31
590.268	7.3
590.458	7.24
590.649	7.09
590.84	7.23
591.03	7.29
591.221	7.26
591.412	7.13
591.602	7.31
591.793	7.16
591.984	7.27
592.174	7.18
592.365	7.33
592.555	7.13
592.746	7.16
592.936	7.21
593.127	7.19
593.317	7.19
593.508	7.19
593.698	7.06
593.889	7.06
594.079	7.06
594.269	7.03
594.46	7.06
594.65	7.11
594.84	7.05
595.031	6.96
595.221	7.06
595.411	7.01
595.602	6.97
595.792	6.89
595.982	6.9
596.172	6.98
596.363	6.93
596.553	6.99
596.743	6.99
596.933	6.96
597.123	6.92
597.314	6.77
597.504	6.81
597.694	6.99
597.884	6.8
598.074	6.84
598.264	6.81
598.454	6.75
598.644	6.76
598.834	6.74
599.024	6.75
599.214	6.73
599.404	6.81
599.594	6.65
599.784	6.65
599.974	6.81
600.164	6.68
600.354	6.58
600.544	6.61
600.734	6.69
600.924	6.58
601.114	6.54
601.303	6.54
601.493	6.57
601.683	6.51
601.873	6.53
602.063	6.43
602.252	6.51
602.442	6.39
602.632	6.44
602.821	6.39
603.011	6.43
603.201	6.42
603.39	6.42
603.58	6.29
603.77	6.39
603.959	6.44
604.149	6.4
604.339	6.29
604.528	6.51
604.718	6.38
604.907	6.3
605.097	6.23
605.286	6.23
605.476	6.22
605.665	6.27
605.855	6.14
606.044	6.31
606.234	6.29
606.423	6.19
606.612	6.14
606.802	6.09
606.991	6.17
607.181	6.23
607.37	6.1
607.559	5.85
607.749	6.1
607.938	6.02
608.127	6.01
608.316	6.09
608.506	6.03
608.695	6.11
608.884	5.93
609.073	5.98
609.263	6.06
609.452	5.97
609.641	5.83
609.83	5.77
610.019	5.95
610.208	5.87
610.397	5.87
610.586	5.81
610.775	5.79
610.965	5.85
611.154	5.71
611.343	5.76
611.532	5.72
611.721	5.8
611.91	5.69
612.099	5.71
612.287	5.65
612.476	5.59
612.665	5.78
612.854	5.6
613.043	5.66
613.232	5.64
613.421	5.54
613.61	5.6
613.798	5.59
613.987	5.63
614.176	5.48
614.365	5.57
614.554	5.51
614.742	5.51
614.931	5.4
615.12	5.49
615.309	5.48
615.497	5.33
615.686	5.25
615.875	5.39
616.063	5.33
616.252	5.29
616.44	5.41
616.629	5.34
616.818	5.32
617.006	5.23
617.195	5.2
617.383	5.21
617.572	5.19
617.76	5.16
617.949	5.24
618.137	5.27
618.326	5.23
618.514	5.08
618.703	5.04
618.891	5.15
619.079	5.05
619.268	5.12
619.456	4.99
619.644	5.09
619.833	5
620.021	5
620.209	4.94
620.398	5.01
620.586	4.86
620.774	4.97
620.962	4.94
621.151	5.05
621.339	4.92
621.527	4.81
621.715	4.86
621.903	4.85
622.092	4.81
622.28	4.87
622.468	4.65
622.656	4.78
622.844	4.78
623.032	4.84
623.22	4.66
623.408	4.79
623.596	4.75
623.784	4.76
623.972	4.65
624.16	4.67
624.348	4.65
624.536	4.73
624.724	4.64
624.912	4.6
625.1	4.61
625.288	4.63
625.476	4.55
625.664	4.61
625.851	4.52
626.039	4.52
626.227	4.53
626.415	4.5
626.603	4.45
626.79	4.41
626.978	4.45
627.166	4.5
627.354	4.36
627.541	4.37
627.729	4.31
627.917	4.48
628.104	4.44
628.292	4.31
628.48	4.36
628.667	4.28
628.855	4.35
629.042	4.38
629.23	4.2
629.418	4.24
629.605	4.29
629.793	4.15
629.98	4.19
630.168	4.17
630.355	4.18
630.543	4.21
630.73	4.06
630.917	4.12
631.105	4.17
631.292	4.13
631.48	4.09
631.667	4.11
631.854	4.06
632.042	4.03
632.229	3.99
632.416	4.03
632.604	4.03
632.791	3.96
632.978	3.99
633.165	3.99
633.353	3.99
633.54	4.01
633.727	3.86
633.914	3.85
634.101	3.76
634.289	3.97
634.476	3.81
634.663	3.82
634.85	3.86
635.037	3.83
635.224	3.66
635.411	3.83
635.598	3.74
635.785	3.75
635.972	3.71
636.159	3.74
636.346	3.72
636.533	3.67
636.72	3.69
636.907	3.65
637.094	3.6
637.281	3.56
637.468	3.61
637.655	3.65
637.842	3.62
638.029	3.57
638.215	3.55
638.402	3.56
638.589	3.49
638.776	3.5
638.963	3.41
639.149	3.53
639.336	3.58
639.523	3.49
639.709	3.4
639.896	3.48
640.083	3.4
640.27	3.47
640.456	3.42
640.643	3.41
640.829	3.32
641.016	3.34
641.203	3.28
641.389	3.35
641.576	3.31
641.762	3.3
641.949	3.22
642.135	3.29
642.322	3.3
642.508	3.17
642.695	3.24
642.881	3.17
643.068	3.16
643.254	3.18
643.441	3.21
643.627	3.23
643.813	3.12
644	3.14
644.186	3.11
644.372	3.2
644.559	3.19
644.745	3.11
644.931	3.03
645.118	3.07
645.304	3.05
645.49	3.08
645.676	3.05
645.862	3.02
646.049	3.11
646.235	2.97
646.421	3.12
646.607	3.05
646.793	2.95
646.979	2.92
647.165	2.99
647.352	2.95
647.538	2.91
647.724	2.9
647.91	2.9
648.096	2.91
648.282	2.92
648.468	2.85
648.654	2.88
648.84	2.88
649.026	2.83
649.212	2.81
649.397	2.84
649.583	2.77
649.769	2.85
649.955	2.79
650.141	2.84
650.327	2.75
650.513	2.7
650.698	2.76
650.884	2.66
651.07	2.8
651.256	2.67
651.442	2.69
651.627	2.6
651.813	2.72
651.999	2.69
652.184	2.65
652.37	2.62
652.556	2.6
652.741	2.69
652.927	2.54
653.113	2.6
653.298	2.61
653.484	2.54
653.669	2.5
653.855	2.54
654.04	2.63
654.226	2.54
654.412	2.54
654.597	2.48
654.782	2.49
654.968	2.48
655.153	2.49
655.339	2.48
655.524	2.46
655.71	2.49
655.895	2.43
656.08	2.47
656.266	2.55
656.451	2.43
656.636	2.38
656.822	2.39
657.007	2.39
657.192	2.42
657.378	2.37
657.563	2.39
657.748	2.41
657.933	2.45
658.118	2.31
658.304	2.31
658.489	2.4
658.674	2.35
658.859	2.27
659.044	2.31
659.229	2.33
659.414	2.26
659.599	2.28
659.785	2.2
659.97	2.29
660.155	2.22
660.34	2.29
660.525	2.24
660.71	2.22
660.895	2.25
661.08	2.2
661.264	2.16
661.449	2.26
661.634	2.16
661.819	2.24
662.004	2.16
662.189	2.1
662.374	2.13
662.559	2.13
662.743	2.01
662.928	2.08
663.113	2.06
663.298	2
663.483	2.04
663.667	2.03
663.852	1.99
664.037	2.09
664.221	1.94
664.406	2.05
664.591	2
664.775	2.04
664.96	1.92
665.145	1.94
665.329	2
665.514	1.9
665.698	1.89
665.883	1.82
666.068	1.91
666.252	1.91
666.437	1.88
666.621	1.9
666.806	1.9
666.99	1.76
667.174	1.83
667.359	1.9
667.543	1.79
667.728	1.85
667.912	1.74
668.096	1.81
668.281	1.73
668.465	1.8
668.649	1.76
668.834	1.73
669.018	1.71
669.202	1.75
669.387	1.7
669.571	1.8
669.755	1.68
669.939	1.62
670.124	1.69
670.308	1.72
670.492	1.73
670.676	1.67
670.86	1.7
671.044	1.62
671.228	1.66
671.413	1.62
671.597	1.64
671.781	1.57
671.965	1.69
672.149	1.59
672.333	1.6
672.517	1.6
672.701	1.58
672.885	1.59
673.069	1.47
673.253	1.65
673.437	1.54
673.621	1.51
673.804	1.58
673.988	1.53
674.172	1.54
674.356	1.41
674.54	1.54
674.724	1.55
674.908	1.49
675.091	1.52
675.275	1.49
675.459	1.53
675.643	1.47
675.826	1.5
676.01	1.46
676.194	1.42
676.377	1.5
676.561	1.49
676.745	1.51
676.928	1.42
677.112	1.47
677.296	1.4
677.479	1.43
677.663	1.36
677.846	1.41
678.03	1.41
678.213	1.37
678.397	1.41
678.58	1.34
678.764	1.4
678.947	1.31
679.131	1.31
679.314	1.39
679.498	1.4
679.681	1.36
679.865	1.45
680.048	1.31
680.231	1.32
680.415	1.31
680.598	1.36
680.781	1.27
680.965	1.3
681.148	1.29
681.331	1.27
681.514	1.33
681.698	1.22
681.881	1.29
682.064	1.3
682.247	1.29
682.43	1.19
682.614	1.29
682.797	1.29
682.98	1.31
683.163	1.15
683.346	1.22
683.529	1.19
683.712	1.17
683.895	1.21
684.078	1.15
684.261	1.17
684.444	1.26
684.627	1.24
684.81	1.19
684.993	1.16
685.176	1.26
685.359	1.15
685.542	1.12
685.725	1.23
685.908	1.18
686.091	1.14
686.274	1.2
686.457	1.13
686.639	1.16
686.822	1.16
687.005	1.11
687.188	1.16
687.371	1.23
687.553	1.15
687.736	1.11
687.919	1.19
688.102	1.14
688.284	1.12
688.467	1.06
688.65	1.08
688.832	1.02
689.015	1.02
689.197	1.01
689.38	1.12
689.563	1.11
689.745	1.04
689.928	1.05
690.11	1.07
690.293	1.02
690.475	0.97
690.658	1.03
690.84	1.07
691.023	0.99
691.205	1.03
691.388	1.05
691.57	1.08
691.752	1.06
691.935	0.88
692.117	0.97
692.3	1.03
692.482	1
692.664	0.99
692.847	0.94
693.029	1.02
693.211	1.01
693.393	0.95
693.576	0.88
693.758	0.95
693.94	0.99
694.122	0.88
694.304	0.96
694.487	0.93
694.669	1.02
694.851	0.88
695.033	0.92
695.215	0.93
695.397	0.81
695.579	0.95
695.761	0.87
695.943	0.82
696.125	1.01
696.308	0.92
696.49	0.81
696.671	1.04
696.853	0.86
697.035	1.13
697.217	0.87
697.399	0.89
697.581	0.8
697.763	0.88
697.945	0.82
698.127	0.88
698.309	0.94
698.491	0.91
698.672	0.89
698.854	0.9
699.036	0.96
699.218	0.86
699.399	0.95
699.581	0.87
699.763	0.81
699.945	0.8
700.126	0.78
700.308	0.79
700.49	0.85
700.671	0.75
700.853	0.84
701.035	0.79
701.216	0.79
701.398	0.75
701.579	0.8
701.761	0.78
701.943	0.75
702.124	0.74
702.306	0.84
702.487	0.94
702.669	0.78
702.85	0.78
703.031	0.75
703.213	0.91
703.394	0.88
703.576	0.77
703.757	0.85
703.938	0.84
704.12	0.94
704.301	0.75
704.483	0.75
704.664	0.8
704.845	0.82
705.026	0.81
705.208	0.71
705.389	0.85
705.57	0.81
705.751	0.72
705.933	0.75
706.114	0.77
706.295	0.77
706.476	0.65
706.657	0.85
706.838	0.72
707.02	0.81
707.201	0.71
707.382	0.69
707.563	0.82
707.744	0.73
707.925	0.64
708.106	0.68
708.287	0.69
708.468	0.87
708.649	0.74
708.83	0.76
709.011	0.66
709.192	0.74
709.373	0.68
709.554	0.67
709.734	0.78
709.915	0.75
710.096	0.69
710.277	0.59
710.458	0.71
710.639	0.7
710.819	0.65
711	0.6
711.181	0.69
711.362	0.67
711.542	0.67
711.723	0.71
711.904	0.83
712.085	0.7
712.265	0.75
712.446	0.55
712.627	0.66
712.807	0.73
712.988	0.62
713.168	0.57
713.349	0.68
713.53	0.56
713.71	0.58
713.891	0.52
714.071	0.65
714.252	0.63
714.432	0.63
714.613	0.51
714.793	0.68
714.974	0.73
715.154	0.72
715.334	0.68
715.515	0.77
715.695	0.52
715.876	0.64
716.056	0.6
716.236	0.59
716.417	0.57
716.597	0.53
716.777	0.79
716.957	0.62
717.138	0.69
717.318	0.62
717.498	0.46
717.678	0.65
717.859	0.69
718.039	0.55
718.219	0.63
718.399	0.62
718.579	0.53
718.759	0.47
718.939	0.71
719.12	0.62
719.3	0.67
719.48	0.44
719.66	0.44
719.84	0.65
720.02	0.57
720.2	0.57
720.38	0.61
720.56	0.67
720.74	0.58
720.92	0.63
721.1	0.74
721.279	0.73
721.459	0.59
721.639	0.55
721.819	0.64
721.999	0.6
722.179	0.6
722.359	0.46
722.538	0.65
722.718	0.59
722.898	0.58
723.078	0.6
723.257	0.58
723.437	0.63
723.617	0.58
723.797	0.54
723.976	0.55
724.156	0.67
724.336	0.7
724.515	0.7
724.695	0.52
724.874	0.59
725.054	0.58
725.234	0.52
725.413	0.63
725.593	0.56
725.772	0.61
725.952	0.52
726.131	0.58
726.311	0.58
726.49	0.62
726.67	0.49
726.849	0.56
727.028	0.55
727.208	0.52
727.387	0.6
727.567	0.45
727.746	0.58
727.925	0.55
728.105	0.5
728.284	0.49
728.463	0.58
728.643	0.65
728.822	0.49
729.001	0.55
729.18	0.59
729.359	0.58
729.539	0.52
729.718	0.6
729.897	0.66
730.076	0.55
730.255	0.51
730.434	0.64
730.614	0.64
730.793	0.59
730.972	0.62
731.151	0.69
731.33	0.7
731.509	0.62
731.688	0.57
731.867	0.51
732.046	0.4
732.225	0.74
732.404	0.51
732.583	0.47
732.762	0.51
732.941	0.62
733.12	0.61
733.298	0.57
733.477	0.67
733.656	0.46
733.835	0.54
734.014	0.62
734.193	0.55
734.371	0.55
734.55	0.73
734.729	0.44
734.908	0.63
735.086	0.63
735.265	0.58
735.444	0.47
735.623	0.45
735.801	0.51
735.98	0.47
736.159	0.58
736.337	0.56
736.516	0.59
736.694	0.62
736.873	0.48
737.052	0.92
737.23	0.74
737.409	0.6
737.587	0.8
737.766	0.36
737.944	0.57
738.123	0.61
738.301	0.69
738.479	0.69
738.658	0.64
738.836	0.39
739.015	0.61
739.193	0.72
739.371	0.42
739.55	0.57
739.728	0.51
739.906	0.77
740.085	0.83
740.263	0.6
740.441	0.42
740.62	0.8
740.798	0.55
740.976	0.44
741.154	0.44
741.332	0.72
741.511	0.63
741.689	0.55
741.867	0.63
742.045	0.6
742.223	0.54
742.401	0.46
742.579	0.48
742.757	0.54
742.935	0.43
743.114	0.48
743.292	0.52
743.47	0.56
743.648	0.58
743.826	0.45
744.004	0.59
744.181	0.58
744.359	0.48
744.537	0.48
744.715	0.51
744.893	0.49
745.071	0.45
745.249	0.42
745.427	0.46
745.605	0.48
745.782	0.46
745.96	0.57
746.138	0.54
746.316	0.69
746.493	0.36
746.671	0.49
746.849	0.45
747.027	0.64
747.204	0.47
747.382	0.45
747.56	0.32
747.737	0.4
747.915	0.39
748.093	0.49
748.27	0.4
748.448	0.46
748.625	0.27
748.803	0.48
748.98	0.32
749.158	0.44
749.335	0.6
749.513	0.35
749.69	0.38
749.868	0.34
750.045	0.5
750.223	0.32
750.4	0.21
750.578	0.75
750.755	0.41
750.932	0.23
751.11	0.38
751.287	0.41
751.464	0.59
751.642	0.4
751.819	0.42
751.996	0.47
752.173	0.38
752.351	0.27
752.528	0.48
752.705	0.47
752.882	0.4
753.06	0.5
753.237	0.53
753.414	0.66
753.591	0.69
753.768	0.43
753.945	0.32
754.122	0.44
754.299	0.48
754.476	0.33
754.654	0.44
754.831	0.48
755.008	0.45
755.185	0.3
755.362	0.36
755.539	0.37
755.716	0.45
755.892	0.43
756.069	0.34
756.246	0.35
756.423	0.31
756.6	0.49
756.777	0.29
756.954	0.58
757.131	0.41
757.307	0.27
757.484	0.26
757.661	0.4
757.838	0.55
758.015	0.26
758.191	0.48
758.368	0.35
758.545	0.48
758.721	0.5
758.898	0.3
759.075	0.55
759.251	0.45
759.428	0.47
759.605	0.33
759.781	0.45
759.958	0.48
760.134	0.53
760.311	0.24
760.488	0.47
760.664	0.5
760.841	0.33
761.017	0.27
761.194	0.4
761.37	0.29
761.547	0.25
761.723	0.37
761.899	0.47
762.076	0.3
762.252	0.28
762.429	0.36
762.605	0.54
762.781	0.31
762.958	0.39
763.134	0.35
763.31	0.28
763.486	0.52
763.663	0.2
763.839	0.41
764.015	0.16
764.191	0.24
764.368	0.43
764.544	0.23
764.72	0.41
764.896	0.33
765.072	0.4
765.248	0.3
765.425	0.49
765.601	0.46
765.777	0.28
765.953	0.14
766.129	0.28
766.305	0.37
766.481	0.43
766.657	0.38
766.833	0.53
767.009	0.2
767.185	0.28
767.361	0.46
767.537	0.26
767.713	0.45
767.889	0.35
768.065	0.38
768.24	0.44
768.416	0.52
768.592	0.38
768.768	0.34
768.944	0.45
769.12	0.22
769.295	0.28
769.471	0.43
769.647	0.38
769.823	0.47
769.998	0.3
770.174	0.34
770.35	0.73
770.525	0.69
770.701	0.34
770.877	0.43
771.052	0.27
771.228	0.37
771.403	0.37
771.579	0.43
771.755	0.61
771.93	0.31
772.106	0.19
772.281	0.1
772.457	0.3
772.632	0.35
772.808	0.29
772.983	0.4
773.159	0.18
773.334	0.58
773.509	0.35
773.685	0.29
773.86	0.66
774.036	0.58
774.211	0.35
774.386	0.23
774.562	0.29
774.737	0.56
774.912	0.33
775.087	0.5
775.263	0.42
775.438	0.39
775.613	0.34
775.788	0.36
775.964	0.6
776.139	0.8
776.314	0.25
776.489	0.41
776.664	0.43
776.839	0.23
777.014	0.47
777.19	0.43
777.365	0.62
777.54	0.82
777.715	0.26
777.89	0.34
778.065	0.33
778.24	0.48
778.415	0.55
778.59	0.12
778.765	0.31
778.94	0.45
779.115	0.46
779.289	0.28
779.464	0.4
779.639	0.4
779.814	0.1
779.989	0.25
780.164	0.61
780.339	0.48
780.513	0.45
780.688	0.25
780.863	0.45
781.038	0.6
781.212	0.3
781.387	0.48
781.562	0.53
781.737	0.38
781.911	0.55
782.086	0.25
782.261	0.26
782.435	0.55
782.61	0.15
782.784	0.23
782.959	0.59
783.134	0.39
783.308	0.36
783.483	0.21
783.657	0.79
783.832	0.48
784.006	0.13
784.181	0.32
784.355	0.65
784.53	0.52
784.704	0.24
784.878	0.73
785.053	0.67
785.227	0.63
785.402	0.65
785.576	0.03
785.75	0.36
785.925	0.4
786.099	0.51
786.273	0.4
786.448	0.6
786.622	0.77
786.796	0.48
786.97	0.45
787.145	0.96
787.319	0.12
787.493	0.46
787.667	0.21
787.841	0.48
788.015	0.6
788.19	0.23
788.364	0.55
788.538	0.56
788.712	0.7
788.886	0.25
789.06	0.64
789.234	0.57
789.408	0.15
789.582	0.26
789.756	0.38
789.93	0.44
790.104	0.44
790.278	0.16
790.452	0.09
790.626	0.64
790.8	0.21
790.973	0.57
791.147	0.73
791.321	0.65
791.495	0.52
791.669	0.78
791.843	0.59
792.016	0.51
792.19	0.94
792.364	0.35
792.538	1.06
792.711	0.71
792.885	0.4
793.059	0.2
793.233	-0.08
793.406	0.55
793.58	0.38
793.754	0.51
793.927	0.4
794.101	0.8
794.274	0.52
794.448	0.73
794.622	0.14
794.795	0.62
794.969	0.21
795.142	0.79
795.316	0.38
795.489	0.22
795.663	0.89
795.836	0.29
796.009	0.14
796.183	1.01
796.356	0.59
796.53	0.62
796.703	0.41
796.876	1.12
797.05	0.46
797.223	0.44
797.396	0.48
797.57	0.56
797.743	1.01
797.916	0.49
798.09	0.17
798.263	0.61
798.436	0.39
798.609	0.24
798.782	0.36
798.956	0.69
799.129	0.59
799.302	0.61
799.475	0.18
799.648	0.38
799.821	0.24
799.994	0.5
800.167	0.09
800.34	0.61
800.514	0.41
800.687	0.39
800.86	0.33
801.033	0.6
801.206	0.84
801.379	0.37
801.551	0.65
801.724	0.39
801.897	1.1
802.07	0.22
802.243	-0.03
802.416	0.66
802.589	0.31
802.762	0.27
802.935	0.58
803.107	0.55
803.28	0.87
803.453	1
803.626	0.29
803.798	0.57
803.971	0.37
804.144	0.71
804.317	0.33
804.489	0.62
804.662	0.62
804.835	0.48
805.007	0.3
805.18	0.78
805.353	0.8
805.525	0.46
805.698	0.33
805.87	0.86
806.043	1
806.215	-0.02
806.388	0.42
806.56	0.39
806.733	0.79
806.905	0.74
807.078	0.44
807.25	0.63
807.423	1.06
807.595	0.69
807.768	0.51
807.94	0.98
808.112	0.82
808.285	0.45
808.457	0.57
808.629	0.52
808.802	0.99
808.974	0.64
809.146	0.31
809.318	0.03
809.491	0.57
809.663	0.63
809.835	0.4
810.007	0.64
810.18	0.76
810.352	0
810.524	0.6
810.696	0.55
810.868	0.79
811.04	0.52
811.212	0.39
811.384	0.68
811.556	0.8
811.728	0.64
811.901	1.3
812.073	0.54
812.245	0.47
812.417	0.32
812.589	-0.12
812.76	0.51
812.932	0.62
813.104	0.79
813.276	0.33
813.448	0.66
813.62	0.69
813.792	0.72
813.964	0.71
814.136	0.88
814.307	0.52
814.479	0.52
814.651	0.54
814.823	1.51
814.995	0.61
815.166	0.81
815.338	0.28
815.51	0.24
815.681	1.71
815.853	0.98
816.025	0.86
816.196	1.01
816.368	0.65
816.54	0.54
816.711	0.36
816.883	0.74
817.054	1.54
817.226	-0.07
817.398	1.15
817.569	0.59
817.741	0.69
817.912	0.77
818.084	0.52
818.255	1.23
818.426	0.41
818.598	0.68
818.769	0.65
818.941	1.17
819.112	1.37
819.283	1.01
819.455	0.21
819.626	0.43
819.798	0.77
819.969	0.7
820.14	0.76
820.311	0.83
820.483	1.22
820.654	0.64
820.825	0.76
820.996	0.59
821.168	0.53
821.339	0.71
821.51	0.08
821.681	0.3
821.852	0.62
822.023	0.07
822.195	0.25
822.366	1.53
822.537	0.68
822.708	0.72
822.879	0.54
823.05	1.18
823.221	0.27
823.392	0.99
823.563	0.48
823.734	0.75
823.905	0.51
824.076	0.45
824.247	0.25
824.418	0.57
824.589	1.59
824.759	1.08
824.93	0.63
825.101	0.35
825.272	0.86
825.443	0.93
825.614	1.22
825.784	0.12
825.955	1.67
826.126	1.25
826.297	0.8
826.467	1.85
826.638	2.02
826.809	0.26
826.98	0.45
827.15	1.32
827.321	0.9
827.492	1.74
827.662	0.32
827.833	1.83
828.003	1.55
828.174	0.4
828.345	-0.09
828.515	1.29
828.686	1.44
828.856	0.39
829.027	0.81
829.197	1.25
829.368	0.95
829.538	0.6
829.709	0.63
829.879	1.2
830.049	0.35
830.22	0.53
830.39	0.7
830.56	1.91
830.731	0.86
830.901	0.25
831.072	0.61
831.242	1.1
831.412	1.18
831.582	1.29
831.753	-0.43
831.923	1.55
832.093	1.56
832.263	0.68
832.434	0.8
832.604	0.79
832.774	1.45
832.944	0.35
833.114	0.83
833.284	1.34
833.454	0.9
833.624	0.83
833.795	0.8
833.965	1.44
834.135	1.63
834.305	0.37
834.475	-0.08
834.645	1.16
834.815	0.72
834.985	0.78
835.155	0.29
835.325	1.47
835.494	1.13
835.664	1.25
835.834	0
836.004	0.69
836.174	0.96
836.344	0.97
836.514	0.24
836.684	0.59
836.853	0.98
837.023	1.36
837.193	0.89
837.363	1.23
837.532	1.81
837.702	1.33
837.872	0.33
838.041	1.19
838.211	2.29
838.381	0.03
838.55	0.94
838.72	2.91
838.89	2.43
839.059	0.96
839.229	-0.03
839.398	2.67
839.568	1.16
839.738	0.77
839.907	1.42
840.077	1.32
840.246	0.14
840.416	0.01
840.585	0.55
840.755	2.97
840.924	2.05
841.093	0.4
841.263	0.64
841.432	1.34
841.602	0.2
841.771	0.26
841.94	1.07
842.11	3.4
842.279	2.13
842.448	-0.16
842.617	1.12
842.787	2.18
842.956	-0.11
843.125	1.37
843.294	1.14
843.464	1.3
843.633	1.26
843.802	0.1
843.971	0.96
844.14	1.54
844.309	1.26
844.479	0.47
844.648	0.32
844.817	0.53
844.986	1.66
845.155	0.93
845.324	0.64
845.493	1.33
845.662	1.43
845.831	1.78
846	1.69
846.169	0.71
846.338	2.68
846.507	1.24
846.676	1.41
846.844	-0.07
847.013	1.9
847.182	0.77
847.351	0.1
847.52	1.52
847.689	1.23
847.858	1.66
848.026	0.75
848.195	1.68
848.364	0.78
848.533	0.15
848.701	1.66
848.87	1.44
849.039	3.36
849.207	2.74
849.376	2.37
849.545	1.64
849.713	0.96
849.882	0.56
850.051	0.86
850.219	0.91
850.388	2.31
850.556	0.68
850.725	0.21
850.893	2.09
851.062	0.6
851.23	1.84
851.399	0.77
851.567	0.42
851.736	0.59
851.904	0.2
852.073	1.68
852.241	1.96
852.41	1.31
852.578	1.07
852.746	1.51
852.915	2.06
853.083	0.72
853.251	0.82
853.42	0.75
853.588	1.46
853.756	2.5
853.924	1.37
854.093	0.91
854.261	1.5
854.429	0.08
854.597	2.21
854.765	0.78
854.934	2.94
855.102	2.86
855.27	1.17
855.438	1.93
855.606	3.06
855.774	2
855.942	0.37
856.11	0.68
856.278	2.39
856.446	1.29
856.614	1.42
856.782	0.59
856.95	2.38
857.118	2.31
857.286	2.19
857.454	1
857.622	2.66
857.79	2.44
857.958	0.31
858.126	1.09
858.294	1.26
858.462	2.06
858.629	0.67
858.797	0.34
858.965	2.13
859.133	2.8
859.301	-0.08
859.468	1.95
859.636	0.99
859.804	3.4
859.971	2.77
860.139	0.26
860.307	3.88
860.474	2.2
860.642	1.09
860.81	1.59
860.977	1.66
861.145	3.33
861.313	0.81
861.48	2.8
861.648	2.95
861.815	1.12
861.983	-0.54
862.15	0.07
862.318	2.45
862.485	2.16
862.653	0.58
862.82	0.41
862.988	3.47
863.155	2.34
863.322	0.63
863.49	0.85
863.657	1.72
863.824	5.09
863.992	3.55
864.159	1.87
864.326	2.95
864.494	0.07
864.661	3.6
864.828	-0.16
864.996	3.77
865.163	3.65
865.33	1.14
865.497	-0.67
865.664	-0.74
865.832	0.22
865.999	0.89
866.166	0.77
866.333	0.63
866.5	0.65
866.667	1.44
866.834	2.1
867.001	3.45
867.168	-0.46
867.335	1.69
867.502	0.45
867.669	1.53
867.836	5.04
868.003	2.31
868.17	1.56
868.337	1.32
868.504	3.34
868.671	0.87
868.838	0.95
869.005	2.27
869.172	2.64
869.339	1.29
869.505	0.29
869.672	1.47
869.839	3.45
870.006	2.14
870.173	-0.14
870.339	1.97
870.506	4.06
870.673	1.82
870.84	2.09
871.006	2.37
871.173	1.44
871.34	1.78
871.506	-0.05
871.673	2.42
871.839	0.25
872.006	1.85
872.173	1.96
872.339	1.21
872.506	3.8
872.672	2.53
872.839	2.18
873.005	2.65
873.172	5.87
873.338	3.89
873.505	2.99
873.671	4.63
873.838	3.31
874.004	-1.07
874.171	0.52
874.337	2.52
874.503	4.3
874.67	1.78
874.836	0.76
875.002	3.94
875.169	1.97
875.335	1.22
875.501	1.98
875.668	4.21
875.834	3.25
876	1.16
876.166	2.92
876.332	3.7
876.499	4.86
876.665	1.76
876.831	2.21
876.997	5.95
877.163	2.46
877.329	2.16
877.495	2.91
877.662	3.41
877.828	3.89
877.994	1.49
878.16	0.37
878.326	3.07
878.492	1.71
878.658	1.87
878.824	2.18
878.99	2.14
879.156	0.56
879.322	4.5
879.487	2.36
879.653	2.83
879.819	2.07
879.985	2.27
880.151	3.04
880.317	1.59
880.483	2.8
880.648	3.08
880.814	-0.37
880.98	3.34
881.146	-1.48
881.312	1.11
881.477	2.46
881.643	1.68
881.809	3.49
881.974	3.86
882.14	-1.09
882.306	4.71
882.471	4.98
882.637	0.83
882.803	2.89
882.968	4.92
883.134	6.62
883.299	1.2
883.465	0.73
883.63	3.3
883.796	4.87
883.961	4.46
884.127	2.89
884.292	-3.13
884.458	-0.48
884.623	-0.48
