Data from Apollo_Calib_20240827__AbsoluteIrradiance__46__23-55-01-767.txt Node

Date: Tue Aug 27 23:55:01 BST 2024
User: biology
Spectrometer: FLMT08252
Trigger mode: 0
Integration Time (sec): 5.000000E-1
Scans to average: 5
Electric dark correction enabled: true
Nonlinearity correction enabled: false
Boxcar width: 0
XAxis mode: Wavelengths
Number of Pixels in Spectrum: 3648
>>>>>Begin Spectral Data<<<<<
179.588	-0
179.809	-0
180.03	-0
180.251	-0
180.473	-0
180.694	0
180.915	0
181.136	-0
181.357	0
181.578	0
181.799	0
182.02	-0
182.241	0
182.462	0
182.683	0
182.904	-0
183.125	-0
183.346	0
183.567	0
183.788	0
184.009	0
184.23	0
184.451	0
184.672	0
184.892	0
185.113	0
185.334	0
185.555	0
185.776	0
185.996	0
186.217	0
186.438	0
186.659	0
186.879	0
187.1	0
187.321	0
187.541	0
187.762	0
187.983	0
188.203	0
188.424	0
188.644	0
188.865	0
189.086	0
189.306	0
189.527	0
189.747	0
189.968	0
190.188	0
190.409	0
190.629	0
190.849	0
191.07	0
191.29	0
191.511	0
191.731	0
191.951	0
192.172	0
192.392	0
192.612	0
192.833	0
193.053	0
193.273	0
193.493	0
193.714	0
193.934	0
194.154	0
194.374	0
194.594	0
194.815	0
195.035	0
195.255	0
195.475	0
195.695	0
195.915	0
196.135	0
196.355	0
196.575	0
196.795	0
197.015	0
197.235	0
197.455	0
197.675	0
197.895	0
198.115	0
198.335	0
198.555	0
198.775	0
198.995	0
199.214	0
199.434	0
199.654	0
199.874	0
200.094	3.62
200.313	2.25
200.533	2.31
200.753	1.55
200.973	3.72
201.192	2.82
201.412	1.13
201.632	2.12
201.851	3.05
202.071	2.31
202.291	1.86
202.51	1.61
202.73	2.59
202.95	1.93
203.169	1.82
203.389	1.76
203.608	1.77
203.828	1.81
204.047	1.69
204.267	2.47
204.486	1.63
204.706	2.29
204.925	1.97
205.145	1.41
205.364	2.11
205.583	2.58
205.803	1.51
206.022	1.19
206.242	1.79
206.461	1.87
206.68	1.38
206.9	1.71
207.119	2.3
207.338	2.17
207.557	1.52
207.777	1.16
207.996	1.16
208.215	2.46
208.434	1.09
208.654	0.95
208.873	1.52
209.092	1.79
209.311	1.2
209.53	1.13
209.749	1.06
209.968	0.91
210.187	1.31
210.407	0.85
210.626	1.14
210.845	1.44
211.064	1.09
211.283	1.02
211.502	1.61
211.721	1.28
211.94	1.29
212.159	1.23
212.377	1.39
212.596	1.66
212.815	1.13
213.034	1.33
213.253	1.43
213.472	1.35
213.691	1.06
213.91	0.74
214.128	0.92
214.347	1.5
214.566	0.82
214.785	0.7
215.003	1.17
215.222	1.13
215.441	0.94
215.66	0.6
215.878	1.07
216.097	1.22
216.316	0.85
216.534	1.07
216.753	1.07
216.972	0.79
217.19	0.9
217.409	0.81
217.627	0.81
217.846	0.76
218.064	0.94
218.283	0.55
218.501	1.4
218.72	1.02
218.938	0.79
219.157	0.72
219.375	0.94
219.594	0.81
219.812	0.6
220.031	0.58
220.249	1.21
220.467	1.11
220.686	0.75
220.904	0.53
221.122	0.64
221.341	0.98
221.559	0.74
221.777	0.43
221.995	0.87
222.214	0.73
222.432	0.77
222.65	0.87
222.868	0.67
223.086	0.81
223.305	1.07
223.523	0.65
223.741	1.03
223.959	0.51
224.177	0.47
224.395	0.62
224.613	0.63
224.831	0.85
225.049	0.5
225.267	0.79
225.485	0.81
225.703	0.79
225.921	0.56
226.139	0.65
226.357	0.77
226.575	0.73
226.793	0.63
227.011	1.48
227.229	0.74
227.447	0.89
227.665	0.37
227.883	0.38
228.1	0.73
228.318	0.73
228.536	0.31
228.754	0.53
228.972	0.73
229.189	0.68
229.407	0.64
229.625	0.62
229.843	0.86
230.06	0.68
230.278	0.53
230.496	0.49
230.713	0.74
230.931	0.8
231.149	0.58
231.366	0.47
231.584	0.59
231.801	0.94
232.019	0.53
232.236	0.45
232.454	0.51
232.671	0.68
232.889	0.56
233.106	0.5
233.324	0.52
233.541	0.57
233.759	0.48
233.976	0.48
234.194	0.53
234.411	0.46
234.628	0.4
234.846	0.45
235.063	0.51
235.28	0.56
235.498	0.5
235.715	0.47
235.932	0.76
236.149	0.61
236.367	0.45
236.584	0.51
236.801	0.5
237.018	0.55
237.236	0.49
237.453	0.31
237.67	0.6
237.887	0.47
238.104	0.42
238.321	0.37
238.538	0.35
238.755	0.68
238.973	0.36
239.19	0.51
239.407	0.56
239.624	0.58
239.841	0.41
240.058	0.38
240.275	0.57
240.492	0.48
240.709	0.53
240.925	0.55
241.142	0.47
241.359	0.35
241.576	0.37
241.793	0.38
242.01	0.53
242.227	0.61
242.444	0.57
242.66	0.49
242.877	0.49
243.094	0.37
243.311	0.43
243.527	0.46
243.744	0.46
243.961	0.55
244.178	0.42
244.394	0.36
244.611	0.64
244.828	0.68
245.044	0.34
245.261	0.45
245.477	0.57
245.694	0.48
245.911	0.37
246.127	0.45
246.344	0.59
246.56	0.49
246.777	0.37
246.993	0.46
247.21	0.48
247.426	0.49
247.643	0.41
247.859	0.29
248.076	0.42
248.292	0.68
248.508	0.37
248.725	0.41
248.941	0.52
249.157	0.56
249.374	0.33
249.59	0.39
249.806	0.41
250.023	0.5
250.239	0.3
250.455	0.42
250.671	0.47
250.888	0.48
251.104	0.47
251.32	0.35
251.536	0.43
251.752	0.43
251.969	0.43
252.185	0.39
252.401	0.57
252.617	0.41
252.833	0.4
253.049	0.37
253.265	0.44
253.481	0.48
253.697	0.34
253.913	0.35
254.129	0.46
254.345	0.43
254.561	0.33
254.777	0.36
254.993	0.55
255.209	0.47
255.425	0.41
255.641	0.36
255.857	0.42
256.073	0.43
256.288	0.34
256.504	0.37
256.72	0.47
256.936	0.58
257.152	0.39
257.367	0.26
257.583	0.4
257.799	0.45
258.015	0.34
258.23	0.3
258.446	0.49
258.662	0.36
258.877	0.33
259.093	0.3
259.309	0.39
259.524	0.46
259.74	0.39
259.955	0.31
260.171	0.45
260.387	0.36
260.602	0.42
260.818	0.41
261.033	0.27
261.249	0.32
261.464	0.34
261.68	0.3
261.895	0.33
262.11	0.46
262.326	0.36
262.541	0.23
262.757	0.42
262.972	0.38
263.187	0.35
263.403	0.37
263.618	0.46
263.833	0.31
264.049	0.32
264.264	0.35
264.479	0.46
264.694	0.48
264.91	0.3
265.125	0.34
265.34	0.47
265.555	0.6
265.77	0.37
265.986	0.38
266.201	0.41
266.416	0.39
266.631	0.35
266.846	0.32
267.061	0.41
267.276	0.4
267.491	0.13
267.706	0.34
267.921	0.42
268.136	0.31
268.351	0.37
268.566	0.25
268.781	0.45
268.996	0.46
269.211	0.38
269.426	0.28
269.641	0.29
269.856	0.41
270.071	0.31
270.285	0.26
270.5	0.41
270.715	0.41
270.93	0.38
271.145	0.35
271.359	0.43
271.574	0.33
271.789	0.32
272.004	0.37
272.218	0.32
272.433	0.37
272.648	0.24
272.862	0.37
273.077	0.29
273.292	0.34
273.506	0.27
273.721	0.32
273.936	0.35
274.15	0.41
274.365	0.29
274.579	0.38
274.794	0.41
275.008	0.33
275.223	0.25
275.437	0.32
275.652	0.47
275.866	0.37
276.081	0.34
276.295	0.44
276.509	0.3
276.724	0.35
276.938	0.32
277.153	0.29
277.367	0.37
277.581	0.29
277.796	0.33
278.01	0.25
278.224	0.4
278.438	0.51
278.653	0.31
278.867	0.29
279.081	0.4
279.295	0.29
279.51	0.31
279.724	0.21
279.938	0.32
280.152	0.34
280.366	0.28
280.58	0.29
280.794	0.4
281.008	0.31
281.222	0.34
281.437	0.43
281.651	0.33
281.865	0.41
282.079	0.24
282.293	0.21
282.507	0.29
282.721	0.32
282.935	0.3
283.148	0.25
283.362	0.28
283.576	0.23
283.79	0.28
284.004	0.27
284.218	0.39
284.432	0.23
284.646	0.32
284.859	0.27
285.073	0.32
285.287	0.29
285.501	0.3
285.714	0.3
285.928	0.31
286.142	0.33
286.356	0.28
286.569	0.27
286.783	0.41
286.997	0.34
287.21	0.35
287.424	0.33
287.637	0.32
287.851	0.3
288.065	0.34
288.278	0.31
288.492	0.26
288.705	0.23
288.919	0.32
289.132	0.24
289.346	0.29
289.559	0.2
289.773	0.21
289.986	0.25
290.2	0.28
290.413	0.37
290.626	0.26
290.84	0.31
291.053	0.32
291.267	0.3
291.48	0.27
291.693	0.28
291.906	0.23
292.12	0.27
292.333	0.28
292.546	0.26
292.76	0.37
292.973	0.27
293.186	0.29
293.399	0.25
293.612	0.31
293.826	0.28
294.039	0.28
294.252	0.26
294.465	0.31
294.678	0.27
294.891	0.27
295.104	0.24
295.317	0.26
295.53	0.29
295.743	0.24
295.956	0.25
296.169	0.32
296.382	0.3
296.595	0.25
296.808	0.2
297.021	0.35
297.234	0.33
297.447	0.27
297.66	0.3
297.873	0.34
298.086	0.26
298.299	0.17
298.511	0.19
298.724	0.28
298.937	0.21
299.15	0.22
299.363	0.26
299.575	0.34
299.788	0.3
300.001	0.24
300.213	0.28
300.426	0.2
300.639	0.18
300.852	0.22
301.064	0.34
301.277	0.35
301.489	0.3
301.702	0.27
301.915	0.28
302.127	0.28
302.34	0.28
302.552	0.32
302.765	0.19
302.977	0.31
303.19	0.2
303.402	0.27
303.615	0.24
303.827	0.22
304.04	0.23
304.252	0.3
304.464	0.23
304.677	0.4
304.889	0.28
305.102	0.23
305.314	0.24
305.526	0.3
305.739	0.27
305.951	0.2
306.163	0.21
306.375	0.34
306.588	0.26
306.8	0.2
307.012	0.2
307.224	0.3
307.436	0.34
307.649	0.21
307.861	0.23
308.073	0.28
308.285	0.26
308.497	0.23
308.709	0.22
308.921	0.32
309.133	0.3
309.346	0.25
309.558	0.27
309.77	0.25
309.982	0.3
310.194	0.26
310.406	0.24
310.617	0.3
310.829	0.32
311.041	0.26
311.253	0.23
311.465	0.26
311.677	0.24
311.889	0.25
312.101	0.23
312.313	0.27
312.524	0.28
312.736	0.27
312.948	0.26
313.16	0.35
313.372	0.28
313.583	0.27
313.795	0.25
314.007	0.24
314.218	0.3
314.43	0.29
314.642	0.24
314.853	0.19
315.065	0.28
315.277	0.27
315.488	0.27
315.7	0.34
315.912	0.26
316.123	0.23
316.335	0.24
316.546	0.31
316.758	0.26
316.969	0.22
317.181	0.28
317.392	0.25
317.604	0.31
317.815	0.23
318.026	0.19
318.238	0.23
318.449	0.27
318.661	0.19
318.872	0.2
319.083	0.23
319.295	0.29
319.506	0.21
319.717	0.25
319.929	0.26
320.14	0.24
320.351	0.31
320.562	0.22
320.774	0.27
320.985	0.27
321.196	0.17
321.407	0.2
321.618	0.3
321.829	0.29
322.041	0.26
322.252	0.23
322.463	0.27
322.674	0.28
322.885	0.21
323.096	0.24
323.307	0.24
323.518	0.28
323.729	0.25
323.94	0.27
324.151	0.21
324.362	0.23
324.573	0.24
324.784	0.23
324.995	0.32
325.206	0.31
325.417	0.27
325.628	0.24
325.838	0.28
326.049	0.28
326.26	0.25
326.471	0.19
326.682	0.29
326.892	0.3
327.103	0.16
327.314	0.21
327.525	0.34
327.735	0.29
327.946	0.22
328.157	0.23
328.368	0.28
328.578	0.19
328.789	0.35
328.999	0.27
329.21	0.25
329.421	0.33
329.631	0.23
329.842	0.22
330.052	0.26
330.263	0.28
330.473	0.3
330.684	0.21
330.894	0.25
331.105	0.29
331.315	0.25
331.526	0.17
331.736	0.36
331.947	0.26
332.157	0.29
332.367	0.18
332.578	0.25
332.788	0.29
332.999	0.26
333.209	0.28
333.419	0.2
333.629	0.3
333.84	0.29
334.05	0.27
334.26	0.31
334.47	0.31
334.681	0.29
334.891	0.26
335.101	0.33
335.311	0.37
335.521	0.27
335.732	0.2
335.942	0.3
336.152	0.26
336.362	0.26
336.572	0.27
336.782	0.27
336.992	0.27
337.202	0.18
337.412	0.21
337.622	0.27
337.832	0.26
338.042	0.27
338.252	0.2
338.462	0.23
338.672	0.29
338.882	0.23
339.092	0.26
339.302	0.33
339.511	0.3
339.721	0.26
339.931	0.2
340.141	0.34
340.351	0.31
340.561	0.25
340.77	0.24
340.98	0.22
341.19	0.26
341.4	0.23
341.609	0.23
341.819	0.24
342.029	0.21
342.238	0.28
342.448	0.24
342.658	0.29
342.867	0.29
343.077	0.25
343.286	0.24
343.496	0.26
343.706	0.28
343.915	0.19
344.125	0.25
344.334	0.29
344.544	0.2
344.753	0.25
344.963	0.24
345.172	0.2
345.381	0.22
345.591	0.22
345.8	0.23
346.01	0.35
346.219	0.27
346.428	0.11
346.638	0.24
346.847	0.24
347.056	0.34
347.266	0.19
347.475	0.28
347.684	0.27
347.893	0.25
348.103	0.26
348.312	0.25
348.521	0.23
348.73	0.28
348.94	0.26
349.149	0.26
349.358	0.22
349.567	0.23
349.776	0.17
349.985	0.2
350.194	0.35
350.403	0.29
350.612	0.16
350.821	0.18
351.03	0.27
351.239	0.2
351.448	0.24
351.657	0.23
351.866	0.32
352.075	0.21
352.284	0.32
352.493	0.22
352.702	0.31
352.911	0.27
353.12	0.24
353.329	0.24
353.538	0.24
353.746	0.25
353.955	0.26
354.164	0.27
354.373	0.21
354.582	0.23
354.79	0.24
354.999	0.24
355.208	0.29
355.416	0.29
355.625	0.18
355.834	0.23
356.042	0.27
356.251	0.26
356.46	0.22
356.668	0.23
356.877	0.32
357.085	0.26
357.294	0.15
357.503	0.28
357.711	0.21
357.92	0.39
358.128	0.25
358.337	0.21
358.545	0.28
358.754	0.25
358.962	0.28
359.17	0.24
359.379	0.26
359.587	0.31
359.796	0.26
360.004	0.33
360.212	0.27
360.421	0.33
360.629	0.25
360.837	0.26
361.046	0.26
361.254	0.37
361.462	0.28
361.67	0.26
361.879	0.29
362.087	0.31
362.295	0.26
362.503	0.25
362.711	0.17
362.92	0.23
363.128	0.23
363.336	0.21
363.544	0.21
363.752	0.24
363.96	0.23
364.168	0.19
364.376	0.28
364.584	0.26
364.792	0.26
365	0.26
365.208	0.26
365.416	0.28
365.624	0.29
365.832	0.2
366.04	0.33
366.248	0.24
366.456	0.26
366.664	0.26
366.872	0.27
367.079	0.23
367.287	0.27
367.495	0.28
367.703	0.23
367.911	0.25
368.118	0.24
368.326	0.25
368.534	0.22
368.742	0.33
368.949	0.16
369.157	0.24
369.365	0.28
369.572	0.19
369.78	0.19
369.988	0.31
370.195	0.26
370.403	0.28
370.61	0.19
370.818	0.25
371.026	0.32
371.233	0.22
371.441	0.25
371.648	0.26
371.856	0.25
372.063	0.27
372.271	0.24
372.478	0.25
372.685	0.22
372.893	0.27
373.1	0.26
373.308	0.25
373.515	0.33
373.722	0.31
373.93	0.25
374.137	0.29
374.344	0.31
374.552	0.3
374.759	0.31
374.966	0.21
375.173	0.27
375.381	0.33
375.588	0.17
375.795	0.17
376.002	0.25
376.209	0.21
376.417	0.27
376.624	0.25
376.831	0.28
377.038	0.24
377.245	0.18
377.452	0.23
377.659	0.28
377.866	0.2
378.073	0.23
378.28	0.25
378.487	0.26
378.694	0.28
378.901	0.25
379.108	0.27
379.315	0.31
379.522	0.36
379.729	0.28
379.936	0.25
380.143	0.27
380.35	0.32
380.557	0.29
380.763	0.24
380.97	0.3
381.177	0.31
381.384	0.31
381.591	0.21
381.797	0.29
382.004	0.3
382.211	0.27
382.418	0.26
382.624	0.32
382.831	0.31
383.038	0.25
383.244	0.24
383.451	0.27
383.658	0.3
383.864	0.23
384.071	0.23
384.277	0.35
384.484	0.26
384.69	0.35
384.897	0.22
385.103	0.25
385.31	0.24
385.516	0.24
385.723	0.22
385.929	0.31
386.136	0.26
386.342	0.29
386.549	0.26
386.755	0.35
386.961	0.34
387.168	0.24
387.374	0.32
387.58	0.35
387.787	0.3
387.993	0.35
388.199	0.29
388.406	0.26
388.612	0.28
388.818	0.23
389.024	0.26
389.231	0.27
389.437	0.38
389.643	0.3
389.849	0.27
390.055	0.26
390.261	0.3
390.467	0.34
390.674	0.25
390.88	0.31
391.086	0.36
391.292	0.28
391.498	0.35
391.704	0.34
391.91	0.3
392.116	0.29
392.322	0.24
392.528	0.32
392.734	0.27
392.94	0.28
393.146	0.28
393.352	0.31
393.557	0.27
393.763	0.3
393.969	0.34
394.175	0.27
394.381	0.33
394.587	0.3
394.792	0.3
394.998	0.36
395.204	0.37
395.41	0.32
395.615	0.32
395.821	0.34
396.027	0.32
396.233	0.29
396.438	0.35
396.644	0.39
396.85	0.37
397.055	0.33
397.261	0.34
397.466	0.31
397.672	0.34
397.878	0.36
398.083	0.4
398.289	0.29
398.494	0.4
398.7	0.37
398.905	0.27
399.111	0.39
399.316	0.3
399.522	0.38
399.727	0.36
399.932	0.36
400.138	0.4
400.343	0.35
400.549	0.31
400.754	0.39
400.959	0.37
401.165	0.34
401.37	0.36
401.575	0.34
401.78	0.38
401.986	0.38
402.191	0.36
402.396	0.39
402.601	0.43
402.807	0.4
403.012	0.36
403.217	0.43
403.422	0.41
403.627	0.4
403.832	0.37
404.037	0.47
404.243	0.43
404.448	0.37
404.653	0.4
404.858	0.44
405.063	0.45
405.268	0.42
405.473	0.44
405.678	0.4
405.883	0.62
406.088	0.54
406.293	0.4
406.498	0.46
406.703	0.54
406.907	0.48
407.112	0.43
407.317	0.51
407.522	0.55
407.727	0.51
407.932	0.55
408.136	0.63
408.341	0.57
408.546	0.63
408.751	0.53
408.956	0.59
409.16	0.62
409.365	0.6
409.57	0.63
409.774	0.64
409.979	0.68
410.184	0.66
410.388	0.62
410.593	0.78
410.798	0.73
411.002	0.75
411.207	0.82
411.411	0.79
411.616	0.72
411.82	0.85
412.025	0.88
412.229	0.85
412.434	0.99
412.638	0.9
412.843	0.91
413.047	0.96
413.252	0.92
413.456	1.02
413.66	1.08
413.865	1.04
414.069	1.18
414.273	1.11
414.478	1.14
414.682	1.17
414.886	1.21
415.091	1.19
415.295	1.22
415.499	1.4
415.703	1.41
415.908	1.51
416.112	1.36
416.316	1.59
416.52	1.57
416.724	1.59
416.929	1.66
417.133	1.87
417.337	1.7
417.541	1.81
417.745	1.92
417.949	1.98
418.153	2.07
418.357	2.09
418.561	2.3
418.765	2.24
418.969	2.38
419.173	2.44
419.377	2.45
419.581	2.62
419.785	2.7
419.989	2.59
420.193	2.82
420.397	2.87
420.601	3.05
420.804	3.14
421.008	3.18
421.212	3.33
421.416	3.26
421.62	3.35
421.823	3.41
422.027	3.59
422.231	3.53
422.435	3.51
422.638	3.6
422.842	3.75
423.046	3.84
423.249	3.99
423.453	4.02
423.657	4.17
423.86	4.3
424.064	4.38
424.268	4.57
424.471	4.53
424.675	4.76
424.878	4.85
425.082	4.95
425.285	5.27
425.489	5.15
425.692	5.37
425.896	5.27
426.099	5.5
426.303	5.65
426.506	5.86
426.71	5.92
426.913	6.25
427.116	6.35
427.32	6.37
427.523	6.46
427.726	6.76
427.93	6.88
428.133	7.24
428.336	7.33
428.54	7.47
428.743	7.66
428.946	8
429.149	8.01
429.353	7.92
429.556	7.99
429.759	8.08
429.962	8.41
430.165	8.42
430.368	8.13
430.571	8.17
430.775	8.21
430.978	8.24
431.181	8.22
431.384	8.31
431.587	8.45
431.79	8.8
431.993	8.66
432.196	9.05
432.399	9.35
432.602	9.48
432.805	9.74
433.008	9.99
433.211	10.1
433.414	10.3
433.616	10.38
433.819	10.33
434.022	10.57
434.225	10.7
434.428	10.66
434.631	11.13
434.833	10.92
435.036	11.13
435.239	11.35
435.442	11.4
435.645	11.58
435.847	11.69
436.05	11.98
436.253	12.16
436.455	12.17
436.658	12.03
436.861	12.31
437.063	12.56
437.266	12.5
437.468	12.8
437.671	13.26
437.874	13.2
438.076	13.06
438.279	13.52
438.481	13.58
438.684	14.33
438.886	13.97
439.089	14.25
439.291	14.11
439.494	14.62
439.696	14.79
439.899	15.25
440.101	15.83
440.303	15.91
440.506	16.59
440.708	16.36
440.91	16.53
441.113	16.82
441.315	17.21
441.517	16.96
441.72	17.37
441.922	16.99
442.124	16.89
442.326	17.3
442.529	17.59
442.731	17.53
442.933	17.79
443.135	17.35
443.337	17.51
443.539	18.2
443.742	17.69
443.944	18.6
444.146	18.28
444.348	18.19
444.55	18
444.752	18.22
444.954	18.36
445.156	18.25
445.358	18.57
445.56	18.86
445.762	18.55
445.964	19.01
446.166	18.63
446.368	18.75
446.57	18.76
446.772	18.34
446.974	18.09
447.175	18.36
447.377	18
447.579	18.63
447.781	18.17
447.983	17.8
448.184	17.45
448.386	17.96
448.588	17.35
448.79	17.22
448.991	17.57
449.193	17.52
449.395	16.92
449.597	16.45
449.798	16.41
450	15.98
450.202	15.8
450.403	15.87
450.605	15.83
450.806	15.31
451.008	15.23
451.21	15.03
451.411	14.64
451.613	13.9
451.814	14.15
452.016	13.92
452.217	13.33
452.419	13.27
452.62	13.06
452.821	12.69
453.023	12.66
453.224	12.22
453.426	11.95
453.627	11.02
453.828	11.23
454.03	11.28
454.231	11.34
454.432	11.15
454.634	10.83
454.835	10.52
455.036	10.44
455.238	9.99
455.439	9.82
455.64	9.54
455.841	9.37
456.042	9.56
456.244	9.24
456.445	8.91
456.646	8.59
456.847	8.54
457.048	8.43
457.249	8.56
457.45	8.17
457.651	7.76
457.852	7.47
458.054	7.23
458.255	7.18
458.456	7.26
458.657	7.09
458.858	6.66
459.058	6.59
459.259	6.67
459.46	6.38
459.661	6.33
459.862	6.39
460.063	6.35
460.264	6.25
460.465	6.03
460.666	6.01
460.866	5.71
461.067	5.45
461.268	5.55
461.469	5.49
461.67	5.39
461.87	5.29
462.071	5.28
462.272	5.07
462.473	5.02
462.673	5.23
462.874	5.11
463.075	5.1
463.275	5.1
463.476	5.09
463.676	5.07
463.877	4.9
464.078	4.86
464.278	4.85
464.479	4.82
464.679	4.67
464.88	4.68
465.08	4.6
465.281	4.56
465.481	4.31
465.682	4.07
465.882	4.09
466.083	4.08
466.283	3.96
466.483	3.86
466.684	3.71
466.884	3.61
467.085	3.67
467.285	3.79
467.485	3.54
467.686	3.49
467.886	3.37
468.086	3.41
468.286	3.31
468.487	3.46
468.687	3.27
468.887	3.2
469.087	3.39
469.287	3.22
469.488	3.02
469.688	3.13
469.888	3.21
470.088	3.12
470.288	3.1
470.488	3.02
470.688	2.79
470.888	2.8
471.088	2.68
471.288	2.78
471.488	2.75
471.688	2.73
471.888	2.68
472.088	2.83
472.288	2.69
472.488	2.57
472.688	2.52
472.888	2.6
473.088	2.5
473.288	2.42
473.488	2.43
473.688	2.63
473.887	2.45
474.087	2.46
474.287	2.46
474.487	2.33
474.687	2.4
474.886	2.35
475.086	2.33
475.286	2.3
475.486	2.23
475.685	2.26
475.885	2.23
476.085	2.27
476.284	2.21
476.484	2.25
476.684	2.17
476.883	2.26
477.083	2.19
477.282	2.09
477.482	2.13
477.681	2.11
477.881	2.04
478.08	2.1
478.28	2.05
478.479	2.1
478.679	2.09
478.878	2.03
479.078	2.01
479.277	2.1
479.477	2.04
479.676	1.95
479.875	1.97
480.075	2
480.274	2.03
480.473	2.04
480.673	2
480.872	2.03
481.071	2
481.271	2.03
481.47	1.98
481.669	1.99
481.868	1.98
482.067	2.02
482.267	1.91
482.466	1.9
482.665	1.94
482.864	1.93
483.063	1.95
483.262	1.96
483.461	2.04
483.661	2.06
483.86	2
484.059	2.07
484.258	2
484.457	2
484.656	1.99
484.855	2.07
485.054	1.91
485.253	1.93
485.452	1.97
485.651	2.02
485.849	2
486.048	2.03
486.247	2.02
486.446	2.11
486.645	2.03
486.844	2.06
487.043	2.1
487.241	2.08
487.44	2.08
487.639	2.14
487.838	2.09
488.037	2.1
488.235	2.16
488.434	2.16
488.633	2.06
488.831	2.24
489.03	2.23
489.229	2.18
489.427	2.19
489.626	2.26
489.825	2.22
490.023	2.31
490.222	2.25
490.42	2.33
490.619	2.35
490.817	2.35
491.016	2.36
491.214	2.4
491.413	2.43
491.611	2.39
491.81	2.36
492.008	2.44
492.207	2.55
492.405	2.51
492.604	2.46
492.802	2.53
493	2.6
493.199	2.59
493.397	2.63
493.595	2.7
493.794	2.66
493.992	2.77
494.19	2.75
494.388	2.77
494.587	2.74
494.785	2.75
494.983	2.75
495.181	2.85
495.379	2.88
495.578	2.9
495.776	2.95
495.974	2.9
496.172	2.94
496.37	3.07
496.568	3.1
496.766	3.05
496.964	3.16
497.162	3.18
497.36	3.22
497.558	3.21
497.756	3.32
497.954	3.28
498.152	3.35
498.35	3.42
498.548	3.35
498.746	3.4
498.944	3.4
499.142	3.42
499.34	3.49
499.538	3.61
499.736	3.47
499.933	3.61
500.131	3.61
500.329	3.78
500.527	3.72
500.725	3.85
500.922	3.9
501.12	3.84
501.318	3.97
501.516	3.93
501.713	4.04
501.911	3.98
502.109	3.93
502.306	4.09
502.504	4.02
502.701	4.08
502.899	4.17
503.097	4.39
503.294	4.17
503.492	4.33
503.689	4.37
503.887	4.38
504.084	4.42
504.282	4.41
504.479	4.4
504.677	4.52
504.874	4.51
505.072	4.48
505.269	4.64
505.466	4.68
505.664	4.72
505.861	4.67
506.059	4.78
506.256	4.77
506.453	4.8
506.651	4.98
506.848	4.98
507.045	4.96
507.242	4.93
507.44	4.98
507.637	5.08
507.834	5.04
508.031	5.22
508.229	5.13
508.426	5.07
508.623	5.28
508.82	5.3
509.017	5.23
509.214	5.29
509.411	5.45
509.608	5.34
509.805	5.45
510.003	5.49
510.2	5.5
510.397	5.67
510.594	5.55
510.791	5.66
510.988	5.64
511.184	5.65
511.381	5.49
511.578	5.67
511.775	5.82
511.972	5.72
512.169	5.77
512.366	5.79
512.563	5.93
512.76	6.03
512.956	6
513.153	6.01
513.35	5.9
513.547	6
513.744	6.05
513.94	6.06
514.137	6.11
514.334	6.09
514.53	6.19
514.727	6.39
514.924	6.23
515.12	6.27
515.317	6.28
515.514	6.19
515.71	6.17
515.907	6.41
516.103	6.45
516.3	6.34
516.497	6.47
516.693	6.43
516.89	6.57
517.086	6.53
517.283	6.51
517.479	6.4
517.676	6.65
517.872	6.61
518.068	6.61
518.265	6.61
518.461	6.55
518.658	6.69
518.854	6.66
519.05	6.8
519.247	6.8
519.443	6.77
519.639	6.94
519.836	6.83
520.032	6.72
520.228	6.89
520.424	6.9
520.621	6.96
520.817	6.96
521.013	6.91
521.209	7.1
521.405	7.08
521.601	7.04
521.798	7.01
521.994	7.06
522.19	6.93
522.386	7.03
522.582	7.09
522.778	7.23
522.974	7.13
523.17	7.1
523.366	7.09
523.562	7.18
523.758	7.16
523.954	7.03
524.15	7.23
524.346	7.24
524.542	7.33
524.738	7.26
524.934	7.36
525.129	7.35
525.325	7.2
525.521	7.27
525.717	7.47
525.913	7.29
526.109	7.3
526.304	7.43
526.5	7.42
526.696	7.47
526.892	7.34
527.087	7.6
527.283	7.53
527.479	7.45
527.674	7.32
527.87	7.53
528.066	7.55
528.261	7.53
528.457	7.41
528.653	7.65
528.848	7.61
529.044	7.67
529.239	7.53
529.435	7.59
529.63	7.51
529.826	7.53
530.021	7.57
530.217	7.63
530.412	7.57
530.608	7.66
530.803	7.66
530.999	7.51
531.194	7.61
531.389	7.7
531.585	7.71
531.78	7.85
531.975	7.69
532.171	7.72
532.366	7.74
532.561	7.73
532.757	7.69
532.952	7.91
533.147	7.65
533.342	7.79
533.538	7.7
533.733	7.86
533.928	7.52
534.123	7.8
534.318	7.86
534.513	7.74
534.709	7.92
534.904	7.83
535.099	7.93
535.294	7.88
535.489	7.89
535.684	7.8
535.879	7.82
536.074	7.9
536.269	7.88
536.464	7.88
536.659	7.89
536.854	7.89
537.049	7.98
537.244	7.95
537.439	7.9
537.634	7.86
537.828	7.95
538.023	7.94
538.218	7.9
538.413	7.84
538.608	7.96
538.803	7.94
538.997	7.91
539.192	7.96
539.387	7.89
539.582	7.94
539.776	7.89
539.971	7.95
540.166	8.04
540.36	7.9
540.555	8
540.75	8.03
540.944	8.02
541.139	7.96
541.334	8.02
541.528	7.99
541.723	8.04
541.917	8.09
542.112	7.95
542.306	7.85
542.501	7.93
542.695	7.95
542.89	7.99
543.084	7.99
543.279	8.06
543.473	8.04
543.668	8.13
543.862	7.9
544.056	7.94
544.251	8.11
544.445	8.14
544.64	8.15
544.834	7.79
545.028	7.72
545.222	8.01
545.417	8.19
545.611	8.11
545.805	8.1
546	7.82
546.194	8.07
546.388	8.05
546.582	7.97
546.776	8.03
546.97	8.04
547.165	8.1
547.359	8.01
547.553	7.97
547.747	7.93
547.941	8.21
548.135	8.07
548.329	8.1
548.523	8.07
548.717	7.97
548.911	7.99
549.105	8
549.299	8.09
549.493	8.12
549.687	8.04
549.881	8.11
550.075	8.11
550.269	7.97
550.463	8.07
550.657	8.09
550.85	8.09
551.044	8.04
551.238	8.11
551.432	8.08
551.626	8.12
551.82	8.16
552.013	7.98
552.207	8.15
552.401	8.14
552.594	8.06
552.788	8
552.982	8.04
553.176	7.99
553.369	8.23
553.563	8.12
553.756	8.03
553.95	8.11
554.144	8.11
554.337	8.11
554.531	7.88
554.724	8.14
554.918	8.11
555.111	8.03
555.305	8.13
555.498	8.05
555.692	8.24
555.885	8.17
556.079	8.03
556.272	8.07
556.466	8.08
556.659	8.11
556.852	8.18
557.046	8.04
557.239	7.95
557.432	8.04
557.626	8.15
557.819	8.18
558.012	8.17
558.206	8.22
558.399	8.06
558.592	8.07
558.785	8.06
558.979	8.11
559.172	8.1
559.365	8.13
559.558	8.04
559.751	8
559.944	8.15
560.138	8.12
560.331	8.08
560.524	8.16
560.717	8.06
560.91	8.08
561.103	8.1
561.296	7.89
561.489	8.1
561.682	8.16
561.875	8.11
562.068	8.18
562.261	8.01
562.454	8.25
562.647	8.03
562.84	8.17
563.032	8.18
563.225	8.05
563.418	8.03
563.611	8.16
563.804	8.19
563.997	7.91
564.19	7.9
564.382	8.26
564.575	8.08
564.768	8.07
564.961	8.11
565.153	8.08
565.346	8.03
565.539	8.13
565.731	8.08
565.924	8.19
566.117	8.21
566.309	8.16
566.502	8.11
566.695	8.05
566.887	8.1
567.08	8.13
567.272	8.15
567.465	8.04
567.657	8.09
567.85	7.96
568.042	8.1
568.235	8.13
568.427	7.95
568.62	8.05
568.812	8.02
569.005	8.15
569.197	8.01
569.389	8.01
569.582	8.11
569.774	8.08
569.966	7.97
570.159	7.9
570.351	7.96
570.543	8.01
570.736	8.05
570.928	7.84
571.12	8.04
571.312	7.95
571.505	7.82
571.697	8.04
571.889	7.99
572.081	8
572.273	7.9
572.465	8.02
572.658	7.97
572.85	8.03
573.042	8.06
573.234	7.91
573.426	7.92
573.618	7.92
573.81	7.97
574.002	7.91
574.194	7.99
574.386	7.96
574.578	7.85
574.77	7.95
574.962	7.93
575.154	7.8
575.346	7.83
575.538	7.84
575.729	7.8
575.921	7.92
576.113	7.99
576.305	7.91
576.497	7.97
576.689	7.76
576.88	7.68
577.072	7.93
577.264	7.82
577.456	7.89
577.647	7.8
577.839	7.98
578.031	7.85
578.223	7.82
578.414	7.69
578.606	7.86
578.798	7.85
578.989	7.85
579.181	7.88
579.372	7.86
579.564	7.84
579.755	7.81
579.947	7.75
580.139	7.78
580.33	7.6
580.522	7.81
580.713	7.69
580.905	7.7
581.096	7.84
581.287	7.72
581.479	7.7
581.67	7.76
581.862	7.66
582.053	7.74
582.244	7.65
582.436	7.82
582.627	7.64
582.818	7.67
583.01	7.62
583.201	7.67
583.392	7.6
583.583	7.63
583.775	7.5
583.966	7.61
584.157	7.66
584.348	7.73
584.54	7.61
584.731	7.56
584.922	7.5
585.113	7.49
585.304	7.61
585.495	7.53
585.686	7.65
585.877	7.56
586.068	7.72
586.259	7.56
586.45	7.54
586.641	7.49
586.832	7.58
587.023	7.47
587.214	7.42
587.405	7.52
587.596	7.43
587.787	7.35
587.978	7.49
588.169	7.41
588.36	7.36
588.551	7.45
588.742	7.41
588.932	7.4
589.123	7.24
589.314	7.52
589.505	7.32
589.696	7.34
589.886	7.31
590.077	7.33
590.268	7.24
590.458	7.15
590.649	7.15
590.84	7.32
591.03	7.23
591.221	7.28
591.412	7.1
591.602	7.29
591.793	7.26
591.984	7.27
592.174	7.22
592.365	7.36
592.555	7.09
592.746	7.2
592.936	7.18
593.127	7.14
593.317	7.17
593.508	7.22
593.698	7.1
593.889	7.11
594.079	7.05
594.269	6.97
594.46	7.06
594.65	7.09
594.84	7.03
595.031	6.98
595.221	6.96
595.411	7.05
595.602	7.02
595.792	6.95
595.982	6.92
596.172	6.99
596.363	6.92
596.553	6.89
596.743	6.99
596.933	6.98
597.123	6.87
597.314	6.73
597.504	6.73
597.694	6.95
597.884	6.82
598.074	6.81
598.264	6.87
598.454	6.79
598.644	6.75
598.834	6.76
599.024	6.78
599.214	6.77
599.404	6.82
599.594	6.64
599.784	6.66
599.974	6.73
600.164	6.73
600.354	6.64
600.544	6.52
600.734	6.67
600.924	6.64
601.114	6.51
601.303	6.54
601.493	6.54
601.683	6.55
601.873	6.56
602.063	6.49
602.252	6.55
602.442	6.41
602.632	6.46
602.821	6.41
603.011	6.4
603.201	6.45
603.39	6.42
603.58	6.3
603.77	6.41
603.959	6.41
604.149	6.33
604.339	6.31
604.528	6.45
604.718	6.44
604.907	6.31
605.097	6.25
605.286	6.27
605.476	6.19
605.665	6.26
605.855	6.21
606.044	6.32
606.234	6.21
606.423	6.16
606.612	6.17
606.802	6.11
606.991	6.14
607.181	6.21
607.37	6.14
607.559	5.93
607.749	6.09
607.938	6.04
608.127	6.04
608.316	6.03
608.506	6.02
608.695	6.1
608.884	6.04
609.073	5.98
609.263	6.05
609.452	6.01
609.641	5.87
609.83	5.84
610.019	5.99
610.208	5.83
610.397	5.78
610.586	5.87
610.775	5.85
610.965	5.84
611.154	5.68
611.343	5.75
611.532	5.76
611.721	5.83
611.91	5.75
612.099	5.68
612.287	5.63
612.476	5.55
612.665	5.76
612.854	5.61
613.043	5.64
613.232	5.59
613.421	5.55
613.61	5.64
613.798	5.58
613.987	5.57
614.176	5.57
614.365	5.53
614.554	5.52
614.742	5.53
614.931	5.33
615.12	5.56
615.309	5.47
615.497	5.34
615.686	5.34
615.875	5.38
616.063	5.37
616.252	5.35
616.44	5.39
616.629	5.36
616.818	5.35
617.006	5.27
617.195	5.22
617.383	5.23
617.572	5.2
617.76	5.14
617.949	5.15
618.137	5.29
618.326	5.26
618.514	5.09
618.703	5
618.891	5.16
619.079	5.06
619.268	5.16
619.456	5.05
619.644	5.09
619.833	5
620.021	4.97
620.209	4.89
620.398	5
620.586	4.95
620.774	5.03
620.962	4.95
621.151	5.01
621.339	4.95
621.527	4.81
621.715	4.82
621.903	4.91
622.092	4.84
622.28	4.93
622.468	4.68
622.656	4.77
622.844	4.76
623.032	4.86
623.22	4.69
623.408	4.81
623.596	4.71
623.784	4.78
623.972	4.68
624.16	4.65
624.348	4.68
624.536	4.73
624.724	4.57
624.912	4.59
625.1	4.6
625.288	4.61
625.476	4.5
625.664	4.57
625.851	4.54
626.039	4.6
626.227	4.44
626.415	4.45
626.603	4.39
626.79	4.49
626.978	4.42
627.166	4.48
627.354	4.39
627.541	4.42
627.729	4.26
627.917	4.49
628.104	4.4
628.292	4.36
628.48	4.4
628.667	4.28
628.855	4.37
629.042	4.37
629.23	4.25
629.418	4.28
629.605	4.3
629.793	4.18
629.98	4.25
630.168	4.12
630.355	4.19
630.543	4.14
630.73	4.1
630.917	4.13
631.105	4.22
631.292	4.16
631.48	4.16
631.667	4.2
631.854	4.09
632.042	4.06
632.229	3.95
632.416	4.01
632.604	4.02
632.791	3.88
632.978	4.01
633.165	3.95
633.353	3.95
633.54	3.99
633.727	3.86
633.914	3.84
634.101	3.79
634.289	3.91
634.476	3.82
634.663	3.82
634.85	3.79
635.037	3.73
635.224	3.69
635.411	3.75
635.598	3.74
635.785	3.78
635.972	3.71
636.159	3.71
636.346	3.76
636.533	3.63
636.72	3.72
636.907	3.67
637.094	3.58
637.281	3.53
637.468	3.61
637.655	3.61
637.842	3.6
638.029	3.54
638.215	3.59
638.402	3.6
638.589	3.5
638.776	3.47
638.963	3.42
639.149	3.56
639.336	3.54
639.523	3.49
639.709	3.47
639.896	3.46
640.083	3.42
640.27	3.47
640.456	3.46
640.643	3.43
640.829	3.29
641.016	3.34
641.203	3.34
641.389	3.37
641.576	3.32
641.762	3.32
641.949	3.24
642.135	3.27
642.322	3.29
642.508	3.17
642.695	3.24
642.881	3.15
643.068	3.13
643.254	3.2
643.441	3.19
643.627	3.15
643.813	3.08
644	3.17
644.186	3.09
644.372	3.13
644.559	3.15
644.745	3.07
644.931	3.02
645.118	3.06
645.304	3.06
645.49	3.01
645.676	3.04
645.862	3.01
646.049	3.08
646.235	2.95
646.421	3.07
646.607	3.03
646.793	2.95
646.979	2.91
647.165	2.92
647.352	2.94
647.538	2.99
647.724	2.88
647.91	2.89
648.096	2.96
648.282	2.92
648.468	2.87
648.654	2.9
648.84	2.88
649.026	2.85
649.212	2.72
649.397	2.8
649.583	2.77
649.769	2.74
649.955	2.77
650.141	2.81
650.327	2.74
650.513	2.72
650.698	2.77
650.884	2.64
651.07	2.78
651.256	2.65
651.442	2.69
651.627	2.64
651.813	2.7
651.999	2.68
652.184	2.65
652.37	2.61
652.556	2.64
652.741	2.66
652.927	2.49
653.113	2.59
653.298	2.6
653.484	2.53
653.669	2.52
653.855	2.55
654.04	2.53
654.226	2.57
654.412	2.52
654.597	2.48
654.782	2.53
654.968	2.48
655.153	2.51
655.339	2.43
655.524	2.45
655.71	2.51
655.895	2.49
656.08	2.45
656.266	2.49
656.451	2.46
656.636	2.36
656.822	2.42
657.007	2.41
657.192	2.38
657.378	2.31
657.563	2.37
657.748	2.39
657.933	2.41
658.118	2.36
658.304	2.33
658.489	2.36
658.674	2.32
658.859	2.27
659.044	2.31
659.229	2.37
659.414	2.28
659.599	2.28
659.785	2.22
659.97	2.27
660.155	2.28
660.34	2.29
660.525	2.23
660.71	2.23
660.895	2.21
661.08	2.18
661.264	2.14
661.449	2.22
661.634	2.18
661.819	2.22
662.004	2.13
662.189	2.05
662.374	2.14
662.559	2.05
662.743	2.01
662.928	2.09
663.113	2.06
663.298	2.02
663.483	2.06
663.667	2.06
663.852	2.02
664.037	2.05
664.221	1.99
664.406	2.05
664.591	2.02
664.775	2.02
664.96	1.97
665.145	1.95
665.329	1.9
665.514	1.94
665.698	1.9
665.883	1.89
666.068	1.97
666.252	1.9
666.437	1.87
666.621	1.9
666.806	1.91
666.99	1.88
667.174	1.8
667.359	1.88
667.543	1.76
667.728	1.79
667.912	1.72
668.096	1.78
668.281	1.8
668.465	1.76
668.649	1.8
668.834	1.73
669.018	1.8
669.202	1.73
669.387	1.71
669.571	1.75
669.755	1.71
669.939	1.69
670.124	1.69
670.308	1.78
670.492	1.71
670.676	1.67
670.86	1.65
671.044	1.6
671.228	1.7
671.413	1.6
671.597	1.63
671.781	1.63
671.965	1.65
672.149	1.61
672.333	1.59
672.517	1.58
672.701	1.67
672.885	1.56
673.069	1.48
673.253	1.55
673.437	1.6
673.621	1.52
673.804	1.53
673.988	1.56
674.172	1.54
674.356	1.45
674.54	1.5
674.724	1.61
674.908	1.48
675.091	1.51
675.275	1.5
675.459	1.51
675.643	1.41
675.826	1.46
676.01	1.47
676.194	1.47
676.377	1.45
676.561	1.51
676.745	1.48
676.928	1.46
677.112	1.45
677.296	1.45
677.479	1.38
677.663	1.32
677.846	1.46
678.03	1.4
678.213	1.34
678.397	1.41
678.58	1.35
678.764	1.38
678.947	1.32
679.131	1.36
679.314	1.37
679.498	1.33
679.681	1.38
679.865	1.36
680.048	1.33
680.231	1.27
680.415	1.26
680.598	1.26
680.781	1.23
680.965	1.31
681.148	1.31
681.331	1.27
681.514	1.31
681.698	1.25
681.881	1.3
682.064	1.24
682.247	1.28
682.43	1.2
682.614	1.26
682.797	1.33
682.98	1.27
683.163	1.2
683.346	1.28
683.529	1.2
683.712	1.17
683.895	1.23
684.078	1.12
684.261	1.18
684.444	1.23
684.627	1.26
684.81	1.13
684.993	1.18
685.176	1.18
685.359	1.11
685.542	1.12
685.725	1.17
685.908	1.14
686.091	1.15
686.274	1.16
686.457	1.16
686.639	1.13
686.822	1.16
687.005	1.11
687.188	1.1
687.371	1.22
687.553	1.16
687.736	1.14
687.919	1.18
688.102	1.15
688.284	1.03
688.467	1.06
688.65	1.04
688.832	0.97
689.015	1.05
689.197	0.97
689.38	1.2
689.563	1.16
689.745	1
689.928	1.01
690.11	1.03
690.293	1.06
690.475	0.96
690.658	1.03
690.84	1.02
691.023	1.04
691.205	0.99
691.388	1.02
691.57	1.07
691.752	1.06
691.935	0.96
692.117	0.95
692.3	0.98
692.482	1
692.664	0.93
692.847	0.99
693.029	1.04
693.211	1.03
693.393	0.97
693.576	0.95
693.758	0.94
693.94	0.96
694.122	0.9
694.304	0.88
694.487	0.96
694.669	0.99
694.851	0.89
695.033	0.86
695.215	0.88
695.397	0.87
695.579	0.97
695.761	0.82
695.943	0.86
696.125	0.93
696.308	0.94
696.49	0.81
696.671	1.06
696.853	0.97
697.035	1.13
697.217	0.84
697.399	0.94
697.581	0.88
697.763	0.9
697.945	0.8
698.127	0.9
698.309	0.93
698.491	0.85
698.672	0.87
698.854	0.9
699.036	0.91
699.218	0.85
699.399	0.87
699.581	0.94
699.763	0.81
699.945	0.81
700.126	0.78
700.308	0.85
700.49	0.81
700.671	0.72
700.853	0.84
701.035	0.83
701.216	0.76
701.398	0.83
701.579	0.77
701.761	0.9
701.943	0.75
702.124	0.73
702.306	0.81
702.487	0.99
702.669	0.8
702.85	0.72
703.031	0.75
703.213	0.88
703.394	0.86
703.576	0.77
703.757	0.91
703.938	0.82
704.12	0.91
704.301	0.7
704.483	0.7
704.664	0.77
704.845	0.82
705.026	0.8
705.208	0.74
705.389	0.79
705.57	0.72
705.751	0.73
705.933	0.81
706.114	0.8
706.295	0.74
706.476	0.7
706.657	0.87
706.838	0.79
707.02	0.8
707.201	0.73
707.382	0.71
707.563	0.7
707.744	0.69
707.925	0.64
708.106	0.68
708.287	0.75
708.468	0.81
708.649	0.69
708.83	0.75
709.011	0.69
709.192	0.8
709.373	0.64
709.554	0.68
709.734	0.83
709.915	0.69
710.096	0.69
710.277	0.52
710.458	0.74
710.639	0.78
710.819	0.6
711	0.66
711.181	0.77
711.362	0.75
711.542	0.72
711.723	0.67
711.904	0.78
712.085	0.7
712.265	0.69
712.446	0.57
712.627	0.65
712.807	0.65
712.988	0.66
713.168	0.57
713.349	0.69
713.53	0.53
713.71	0.55
713.891	0.56
714.071	0.66
714.252	0.59
714.432	0.59
714.613	0.48
714.793	0.66
714.974	0.72
715.154	0.73
715.334	0.68
715.515	0.74
715.695	0.52
715.876	0.64
716.056	0.58
716.236	0.57
716.417	0.61
716.597	0.65
716.777	0.86
716.957	0.61
717.138	0.62
717.318	0.57
717.498	0.54
717.678	0.61
717.859	0.65
718.039	0.53
718.219	0.68
718.399	0.61
718.579	0.59
718.759	0.55
718.939	0.64
719.12	0.61
719.3	0.6
719.48	0.39
719.66	0.48
719.84	0.63
720.02	0.59
720.2	0.53
720.38	0.59
720.56	0.74
720.74	0.55
720.92	0.61
721.1	0.72
721.279	0.67
721.459	0.53
721.639	0.52
721.819	0.58
721.999	0.54
722.179	0.58
722.359	0.5
722.538	0.68
722.718	0.62
722.898	0.56
723.078	0.56
723.257	0.56
723.437	0.59
723.617	0.63
723.797	0.7
723.976	0.58
724.156	0.63
724.336	0.65
724.515	0.76
724.695	0.51
724.874	0.61
725.054	0.65
725.234	0.55
725.413	0.57
725.593	0.58
725.772	0.53
725.952	0.58
726.131	0.51
726.311	0.59
726.49	0.58
726.67	0.47
726.849	0.54
727.028	0.61
727.208	0.6
727.387	0.65
727.567	0.53
727.746	0.58
727.925	0.67
728.105	0.49
728.284	0.55
728.463	0.49
728.643	0.59
728.822	0.48
729.001	0.6
729.18	0.65
729.359	0.64
729.539	0.55
729.718	0.55
729.897	0.69
730.076	0.49
730.255	0.49
730.434	0.56
730.614	0.72
730.793	0.61
730.972	0.49
731.151	0.54
731.33	0.72
731.509	0.63
731.688	0.55
731.867	0.61
732.046	0.44
732.225	0.75
732.404	0.49
732.583	0.5
732.762	0.58
732.941	0.72
733.12	0.59
733.298	0.57
733.477	0.62
733.656	0.5
733.835	0.48
734.014	0.57
734.193	0.61
734.371	0.7
734.55	0.71
734.729	0.56
734.908	0.55
735.086	0.58
735.265	0.65
735.444	0.43
735.623	0.53
735.801	0.48
735.98	0.58
736.159	0.67
736.337	0.66
736.516	0.65
736.694	0.56
736.873	0.56
737.052	0.85
737.23	0.7
737.409	0.58
737.587	0.75
737.766	0.47
737.944	0.63
738.123	0.66
738.301	0.69
738.479	0.54
738.658	0.6
738.836	0.39
739.015	0.62
739.193	0.75
739.371	0.45
739.55	0.73
739.728	0.46
739.906	0.66
740.085	0.75
740.263	0.54
740.441	0.39
740.62	0.79
740.798	0.73
740.976	0.51
741.154	0.38
741.332	0.84
741.511	0.53
741.689	0.53
741.867	0.59
742.045	0.52
742.223	0.59
742.401	0.5
742.579	0.42
742.757	0.53
742.935	0.31
743.114	0.47
743.292	0.45
743.47	0.61
743.648	0.54
743.826	0.35
744.004	0.56
744.181	0.61
744.359	0.29
744.537	0.54
744.715	0.4
744.893	0.45
745.071	0.62
745.249	0.49
745.427	0.49
745.605	0.55
745.782	0.57
745.96	0.52
746.138	0.47
746.316	0.47
746.493	0.4
746.671	0.52
746.849	0.49
747.027	0.52
747.204	0.47
747.382	0.43
747.56	0.31
747.737	0.34
747.915	0.43
748.093	0.47
748.27	0.36
748.448	0.3
748.625	0.31
748.803	0.4
748.98	0.36
749.158	0.56
749.335	0.58
749.513	0.34
749.69	0.37
749.868	0.37
750.045	0.52
750.223	0.4
750.4	0.22
750.578	0.68
750.755	0.35
750.932	0.33
751.11	0.59
751.287	0.29
751.464	0.47
751.642	0.26
751.819	0.5
751.996	0.53
752.173	0.34
752.351	0.2
752.528	0.42
752.705	0.44
752.882	0.35
753.06	0.43
753.237	0.54
753.414	0.53
753.591	0.64
753.768	0.42
753.945	0.31
754.122	0.38
754.299	0.4
754.476	0.34
754.654	0.38
754.831	0.48
755.008	0.47
755.185	0.25
755.362	0.25
755.539	0.43
755.716	0.53
755.892	0.42
756.069	0.35
756.246	0.35
756.423	0.38
756.6	0.51
756.777	0.31
756.954	0.56
757.131	0.4
757.307	0.23
757.484	0.19
757.661	0.33
757.838	0.52
758.015	0.2
758.191	0.4
758.368	0.49
758.545	0.63
758.721	0.38
758.898	0.34
759.075	0.45
759.251	0.52
759.428	0.38
759.605	0.26
759.781	0.39
759.958	0.41
760.134	0.37
760.311	0.23
760.488	0.58
760.664	0.55
760.841	0.37
761.017	0.37
761.194	0.41
761.37	0.48
761.547	0.35
761.723	0.38
761.899	0.51
762.076	0.23
762.252	0.42
762.429	0.43
762.605	0.53
762.781	0.32
762.958	0.48
763.134	0.41
763.31	0.34
763.486	0.49
763.663	0.13
763.839	0.36
764.015	0.22
764.191	0.3
764.368	0.3
764.544	0.28
764.72	0.4
764.896	0.41
765.072	0.39
765.248	0.37
765.425	0.28
765.601	0.32
765.777	0.41
765.953	0.14
766.129	0.38
766.305	0.28
766.481	0.4
766.657	0.29
766.833	0.42
767.009	0.25
767.185	0.48
767.361	0.41
767.537	0.24
767.713	0.49
767.889	0.27
768.065	0.43
768.24	0.48
768.416	0.45
768.592	0.29
768.768	0.23
768.944	0.48
769.12	0.13
769.295	0.31
769.471	0.32
769.647	0.36
769.823	0.61
769.998	0.29
770.174	0.3
770.35	0.59
770.525	0.61
770.701	0.28
770.877	0.33
771.052	0.25
771.228	0.56
771.403	0.37
771.579	0.47
771.755	0.58
771.93	0.29
772.106	0.14
772.281	0.25
772.457	0.35
772.632	0.47
772.808	0.28
772.983	0.28
773.159	0.18
773.334	0.55
773.509	0.4
773.685	0.32
773.86	0.72
774.036	0.71
774.211	0.33
774.386	0.38
774.562	0.42
774.737	0.61
774.912	0.23
775.087	0.47
775.263	0.31
775.438	0.55
775.613	0.39
775.788	0.26
775.964	0.54
776.139	0.79
776.314	0.34
776.489	0.34
776.664	0.39
776.839	0.24
777.014	0.6
777.19	0.42
777.365	0.63
777.54	0.61
777.715	0.23
777.89	0.35
778.065	0.34
778.24	0.36
778.415	0.59
778.59	0.23
778.765	0.45
778.94	0.41
779.115	0.35
779.289	0.32
779.464	0.29
779.639	0.45
779.814	0.25
779.989	0.18
780.164	0.52
780.339	0.59
780.513	0.39
780.688	0.2
780.863	0.33
781.038	0.67
781.212	0.34
781.387	0.49
781.562	0.8
781.737	0.48
781.911	0.57
782.086	0.36
782.261	0.34
782.435	0.55
782.61	0.35
782.784	0.28
782.959	0.61
783.134	0.37
783.308	0.09
783.483	0.47
783.657	0.83
783.832	0.62
784.006	0.27
784.181	0.54
784.355	0.64
784.53	0.58
784.704	0.25
784.878	0.74
785.053	0.65
785.227	0.67
785.402	0.64
785.576	0.31
785.75	0.6
785.925	0.36
786.099	0.55
786.273	0.72
786.448	0.67
786.622	0.73
786.796	0.39
786.97	0.45
787.145	0.97
787.319	0.17
787.493	0.44
787.667	0.13
787.841	0.36
788.015	0.62
788.19	0.27
788.364	0.45
788.538	0.59
788.712	0.52
788.886	0.41
789.06	0.68
789.234	0.48
789.408	0.23
789.582	0.34
789.756	0.32
789.93	0.09
790.104	0.44
790.278	0.26
790.452	0.24
790.626	0.46
790.8	0.31
790.973	0.46
791.147	0.7
791.321	0.72
791.495	0.48
791.669	0.53
791.843	0.41
792.016	0.39
792.19	0.84
792.364	0.24
792.538	1.04
792.711	0.66
792.885	0.23
793.059	0.36
793.233	-0.05
793.406	0.62
793.58	0.39
793.754	0.55
793.927	0.44
794.101	0.58
794.274	0.69
794.448	0.78
794.622	0.29
794.795	0.73
794.969	0.35
795.142	0.76
795.316	0.41
795.489	0.35
795.663	0.75
795.836	0.55
796.009	0.34
796.183	0.65
796.356	0.63
796.53	0.47
796.703	0.49
796.876	1.11
797.05	0.59
797.223	0.27
797.396	0.65
797.57	0.55
797.743	0.78
797.916	0.79
798.09	0.45
798.263	0.7
798.436	0.58
798.609	0.36
798.782	0.32
798.956	0.6
799.129	0.49
799.302	0.45
799.475	0.42
799.648	0.44
799.821	0.45
799.994	0.25
800.167	0.36
800.34	0.47
800.514	0.9
800.687	0.38
800.86	0.25
801.033	0.59
801.206	0.53
801.379	0.37
801.551	0.63
801.724	0.56
801.897	0.75
802.07	0.13
802.243	0.05
802.416	0.5
802.589	0.51
802.762	0.47
802.935	0.51
803.107	0.8
803.28	0.88
803.453	0.82
803.626	0.44
803.798	0.73
803.971	0.16
804.144	0.8
804.317	0.94
804.489	0.82
804.662	0.75
804.835	0.44
805.007	0.27
805.18	0.79
805.353	0.81
805.525	0.56
805.698	0.25
805.87	0.96
806.043	0.6
806.215	0.18
806.388	0.34
806.56	0.78
806.733	0.52
806.905	0.55
807.078	0.51
807.25	0.57
807.423	0.52
807.595	0.5
807.768	0.44
807.94	0.85
808.112	0.58
808.285	0.52
808.457	0.46
808.629	0.35
808.802	0.95
808.974	0.57
809.146	0.75
809.318	0.11
809.491	0.86
809.663	0.9
809.835	0.27
810.007	0.89
810.18	0.48
810.352	0.21
810.524	0.42
810.696	0.87
810.868	1.15
811.04	0.44
811.212	0.41
811.384	0.87
811.556	0.49
811.728	0.79
811.901	1.28
812.073	0.15
812.245	0.81
812.417	0.38
812.589	-0.2
812.76	0.62
812.932	1.01
813.104	1.18
813.276	0.11
813.448	1.2
813.62	0.66
813.792	0.94
813.964	0.71
814.136	0.81
814.307	0.62
814.479	0.11
814.651	0.4
814.823	1.38
814.995	0.81
815.166	1.02
815.338	0.16
815.51	0.04
815.681	1.54
815.853	1.05
816.025	0.43
816.196	1.1
816.368	0.71
816.54	-0.16
816.711	0.48
816.883	0.52
817.054	1.64
817.226	-0.28
817.398	0.53
817.569	0.5
817.741	0.92
817.912	0.63
818.084	0.5
818.255	0.73
818.426	0.58
818.598	0.97
818.769	0.5
818.941	0.56
819.112	1.33
819.283	0.66
819.455	0.47
819.626	0.78
819.798	1.14
819.969	1.02
820.14	0.5
820.311	0.32
820.483	0.59
820.654	0.57
820.825	0.68
820.996	0.49
821.168	0.36
821.339	0.18
821.51	0.11
821.681	0.55
821.852	0.66
822.023	0.28
822.195	-0.06
822.366	1.05
822.537	0.83
822.708	0.97
822.879	0.63
823.05	1.05
823.221	0.58
823.392	1.08
823.563	0.94
823.734	1.03
823.905	0.93
824.076	0.62
824.247	0.73
824.418	0.57
824.589	1.6
824.759	1.27
824.93	0.46
825.101	0.72
825.272	1.55
825.443	1.24
825.614	1.12
825.784	0.21
825.955	1.76
826.126	1.66
826.297	0.79
826.467	1.53
826.638	1.49
826.809	0.63
826.98	0.65
827.15	1.11
827.321	1.14
827.492	1.2
827.662	0.71
827.833	1.58
828.003	1.16
828.174	0.57
828.345	0.16
828.515	1.97
828.686	1.08
828.856	0.69
829.027	1.13
829.197	1.49
829.368	1.22
829.538	0.21
829.709	0.45
829.879	1.4
830.049	1.31
830.22	0.73
830.39	0.92
830.56	1.91
830.731	0.77
830.901	0.39
831.072	0.71
831.242	1.02
831.412	1.6
831.582	0.99
831.753	0.1
831.923	1.4
832.093	1.26
832.263	0.75
832.434	0.33
832.604	0.76
832.774	1.36
832.944	1
833.114	0.8
833.284	1.65
833.454	-0.16
833.624	0.53
833.795	0.05
833.965	1.42
834.135	1.33
834.305	0.2
834.475	-0.17
834.645	0.89
834.815	0.65
834.985	0.35
835.155	0.04
835.325	1.14
835.494	1.47
835.664	0.5
835.834	-0.39
836.004	0.72
836.174	1.61
836.344	1.08
836.514	-0.11
836.684	0.38
836.853	1.56
837.023	1.03
837.193	1.06
837.363	1.6
837.532	1.49
837.702	0.59
837.872	0.58
838.041	1.85
838.211	2.2
838.381	0.31
838.55	1.08
838.72	3.15
838.89	1.46
839.059	0.06
839.229	0.17
839.398	2.83
839.568	1.53
839.738	0.89
839.907	1.55
840.077	1.4
840.246	0.31
840.416	0.4
840.585	0.28
840.755	1.84
840.924	2.14
841.093	0.3
841.263	0.68
841.432	1.77
841.602	0.6
841.771	0.22
841.94	1.75
842.11	3.3
842.279	2.73
842.448	0.05
842.617	0.63
842.787	2.22
842.956	0.05
843.125	1.98
843.294	1.1
843.464	1.93
843.633	0.98
843.802	0.15
843.971	0.38
844.14	0.8
844.309	2
844.479	0.51
844.648	0.39
844.817	1.3
844.986	1.37
845.155	1.45
845.324	0.54
845.493	1.04
845.662	1.61
845.831	1.41
846	1.54
846.169	0.54
846.338	2.08
846.507	1.77
846.676	1.21
846.844	0.67
847.013	2.55
847.182	0.95
847.351	0.22
847.52	0.8
847.689	1.88
847.858	2.04
848.026	0.29
848.195	1.1
848.364	0.7
848.533	-0.12
848.701	0.42
848.87	1.09
849.039	1.31
849.207	1.99
849.376	2.41
849.545	1.85
849.713	1.12
849.882	1.81
850.051	0.68
850.219	1.8
850.388	2.09
850.556	0.35
850.725	-0.42
850.893	2.1
851.062	1.81
851.23	1.37
851.399	0.04
851.567	0.94
851.736	0.7
851.904	0.48
852.073	0.58
852.241	2.26
852.41	1.47
852.578	0.58
852.746	1.02
852.915	1.8
853.083	1.51
853.251	-0.31
853.42	1.23
853.588	2.34
853.756	2.63
853.924	0.76
854.093	1
854.261	0.74
854.429	-0.15
854.597	1.78
854.765	0.32
854.934	2.31
855.102	2.53
855.27	1.23
855.438	1.94
855.606	2.28
855.774	2.85
855.942	-0.34
856.11	0.89
856.278	1.5
856.446	3.12
856.614	1.74
856.782	-0.07
856.95	2.89
857.118	3.17
857.286	0.5
857.454	0.97
857.622	2.61
857.79	1.36
857.958	-0.09
858.126	-0.2
858.294	1.27
858.462	1.01
858.629	1.05
858.797	0.59
858.965	2.08
859.133	1.61
859.301	1.42
859.468	1.76
859.636	0.13
859.804	4.09
859.971	3.1
860.139	0.68
860.307	3.02
860.474	2.32
860.642	0.82
860.81	1.32
860.977	1.15
861.145	2.06
861.313	1.1
861.48	1.09
861.648	1.57
861.815	1.67
861.983	-0.81
862.15	1.19
862.318	3.01
862.485	2.53
862.653	1.3
862.82	1.52
862.988	2.45
863.155	1.76
863.322	0.72
863.49	0.64
863.657	1.35
863.824	2.81
863.992	1.49
864.159	1.74
864.326	3.68
864.494	0.26
864.661	2.97
864.828	-0.05
864.996	1.99
865.163	4.64
865.33	0.6
865.497	-0.58
865.664	1.24
865.832	0.1
865.999	0.05
866.166	0.39
866.333	1.96
866.5	0.45
866.667	1.41
866.834	1.16
867.001	2.61
867.168	-0.12
867.335	1.41
867.502	-0.2
867.669	2.37
867.836	3.41
868.003	1.17
868.17	3.9
868.337	1.95
868.504	3.78
868.671	-0.97
868.838	1.15
869.005	4
869.172	4.33
869.339	1.41
869.505	1.99
869.672	1.16
869.839	4.27
870.006	2.73
870.173	0.66
870.339	2.67
870.506	4.38
870.673	1.74
870.84	2.07
871.006	3.82
871.173	0.19
871.34	3.02
871.506	0.2
871.673	3.71
871.839	-0.67
872.006	1.56
872.173	1.7
872.339	2.43
872.506	3.71
872.672	2.18
872.839	0.39
873.005	1.17
873.172	3.74
873.338	2.94
873.505	3.69
873.671	1.11
873.838	2.51
874.004	0.6
874.171	2.21
874.337	3.27
874.503	3.25
874.67	1.09
874.836	2.33
875.002	4.17
875.169	2.78
875.335	2.36
875.501	2.51
875.668	3.6
875.834	3.02
876	1.02
876.166	3.44
876.332	2.79
876.499	6.59
876.665	0.53
876.831	2.01
876.997	5.82
877.163	2.34
877.329	0.28
877.495	2.95
877.662	3.7
877.828	3.19
877.994	2.32
878.16	-1.27
878.326	0.13
878.492	1.8
878.658	-0.2
878.824	2.34
878.99	1.51
879.156	4.23
879.322	4.39
879.487	1.54
879.653	3.42
879.819	4.05
879.985	1.3
880.151	3.34
880.317	2.99
880.483	3.48
880.648	3.92
880.814	-1.4
880.98	2.29
881.146	-0.67
881.312	0.94
881.477	0.87
881.643	1.43
881.809	2.41
881.974	4.18
882.14	-0.15
882.306	1.94
882.471	4.45
882.637	0.62
882.803	3.69
882.968	5.05
883.134	7
883.299	0.92
883.465	3.31
883.63	3.45
883.796	5.35
883.961	4.37
884.127	2.77
884.292	-0.96
884.458	-0.29
884.623	-0.29
