Data from Apollo_Calib_20240827__AbsoluteIrradiance__828__12-57-02-075.txt Node

Date: Wed Aug 28 12:57:02 BST 2024
User: biology
Spectrometer: FLMT08252
Trigger mode: 0
Integration Time (sec): 5.000000E-1
Scans to average: 5
Electric dark correction enabled: true
Nonlinearity correction enabled: false
Boxcar width: 0
XAxis mode: Wavelengths
Number of Pixels in Spectrum: 3648
>>>>>Begin Spectral Data<<<<<
179.588	-0
179.809	-0
180.03	-0
180.251	-0
180.473	-0
180.694	0
180.915	0
181.136	-0
181.357	0
181.578	-0
181.799	-0
182.02	-0
182.241	-0
182.462	-0
182.683	0
182.904	-0
183.125	-0
183.346	0
183.567	0
183.788	0
184.009	0
184.23	0
184.451	0
184.672	0
184.892	0
185.113	0
185.334	0
185.555	0
185.776	0
185.996	0
186.217	0
186.438	0
186.659	0
186.879	0
187.1	0
187.321	0
187.541	0
187.762	0
187.983	0
188.203	0
188.424	0
188.644	0
188.865	0
189.086	0
189.306	0
189.527	0
189.747	0
189.968	0
190.188	0
190.409	0
190.629	0
190.849	0
191.07	0
191.29	0
191.511	0
191.731	0
191.951	0
192.172	0
192.392	0
192.612	0
192.833	0
193.053	0
193.273	0
193.493	0
193.714	0
193.934	0
194.154	0
194.374	0
194.594	0
194.815	0
195.035	0
195.255	0
195.475	0
195.695	0
195.915	0
196.135	0
196.355	0
196.575	0
196.795	0
197.015	0
197.235	0
197.455	0
197.675	0
197.895	0
198.115	0
198.335	0
198.555	0
198.775	0
198.995	0
199.214	0
199.434	0
199.654	0
199.874	0
200.094	4.22
200.313	2.79
200.533	1.61
200.753	1.3
200.973	3.93
201.192	3.46
201.412	1.53
201.632	1.77
201.851	3.85
202.071	1.94
202.291	1.7
202.51	1.45
202.73	2.96
202.95	1.65
203.169	1.29
203.389	1.93
203.608	2.41
203.828	1.39
204.047	1.64
204.267	1.62
204.486	2.16
204.706	2.56
204.925	1.63
205.145	1.07
205.364	2.07
205.583	2.47
205.803	1.14
206.022	0.91
206.242	1.82
206.461	1.53
206.68	1.12
206.9	1.86
207.119	2.63
207.338	2.31
207.557	1.05
207.777	1.39
207.996	1.37
208.215	2.26
208.434	0.92
208.654	0.68
208.873	1.57
209.092	2.3
209.311	1.12
209.53	1.03
209.749	1.33
209.968	1.04
210.187	1.19
210.407	0.77
210.626	1.2
210.845	1.6
211.064	1.27
211.283	0.78
211.502	1.59
211.721	1.42
211.94	0.84
212.159	0.97
212.377	1.35
212.596	1.68
212.815	1.08
213.034	1.18
213.253	1.21
213.472	1.36
213.691	0.94
213.91	0.73
214.128	0.89
214.347	1.46
214.566	0.55
214.785	0.62
215.003	1.16
215.222	1.25
215.441	0.92
215.66	0.45
215.878	0.9
216.097	1.19
216.316	0.67
216.534	0.89
216.753	1.08
216.972	0.86
217.19	0.85
217.409	0.62
217.627	0.95
217.846	0.94
218.064	0.95
218.283	0.57
218.501	1.31
218.72	1.12
218.938	0.46
219.157	0.68
219.375	0.98
219.594	1.16
219.812	0.35
220.031	0.34
220.249	1.2
220.467	1.19
220.686	0.49
220.904	0.49
221.122	0.77
221.341	1.31
221.559	0.74
221.777	0.44
221.995	0.81
222.214	0.89
222.432	0.61
222.65	0.89
222.868	0.76
223.086	0.76
223.305	0.83
223.523	0.58
223.741	1.05
223.959	0.7
224.177	0.36
224.395	0.63
224.613	0.93
224.831	0.94
225.049	0.49
225.267	0.59
225.485	0.76
225.703	0.62
225.921	0.55
226.139	0.49
226.357	0.83
226.575	0.81
226.793	0.52
227.011	1.46
227.229	0.61
227.447	0.96
227.665	0.57
227.883	0.44
228.1	0.67
228.318	0.76
228.536	0.32
228.754	0.37
228.972	0.64
229.189	0.78
229.407	0.57
229.625	0.56
229.843	0.85
230.06	0.85
230.278	0.62
230.496	0.6
230.713	0.67
230.931	0.82
231.149	0.55
231.366	0.43
231.584	0.47
231.801	1.01
232.019	0.49
232.236	0.42
232.454	0.49
232.671	0.69
232.889	0.51
233.106	0.3
233.324	0.6
233.541	0.54
233.759	0.56
233.976	0.33
234.194	0.55
234.411	0.54
234.628	0.4
234.846	0.37
235.063	0.59
235.28	0.54
235.498	0.43
235.715	0.39
235.932	0.82
236.149	0.49
236.367	0.33
236.584	0.47
236.801	0.57
237.018	0.62
237.236	0.53
237.453	0.31
237.67	0.77
237.887	0.55
238.104	0.42
238.321	0.4
238.538	0.37
238.755	0.68
238.973	0.19
239.19	0.51
239.407	0.6
239.624	0.57
239.841	0.38
240.058	0.36
240.275	0.56
240.492	0.5
240.709	0.38
240.925	0.35
241.142	0.56
241.359	0.31
241.576	0.31
241.793	0.32
242.01	0.54
242.227	0.66
242.444	0.49
242.66	0.62
242.877	0.52
243.094	0.38
243.311	0.43
243.527	0.45
243.744	0.57
243.961	0.49
244.178	0.34
244.394	0.47
244.611	0.62
244.828	0.66
245.044	0.36
245.261	0.31
245.477	0.47
245.694	0.58
245.911	0.3
246.127	0.37
246.344	0.6
246.56	0.6
246.777	0.34
246.993	0.43
247.21	0.49
247.426	0.48
247.643	0.37
247.859	0.28
248.076	0.36
248.292	0.67
248.508	0.3
248.725	0.5
248.941	0.41
249.157	0.56
249.374	0.26
249.59	0.47
249.806	0.49
250.023	0.45
250.239	0.35
250.455	0.34
250.671	0.44
250.888	0.5
251.104	0.54
251.32	0.42
251.536	0.52
251.752	0.34
251.969	0.41
252.185	0.41
252.401	0.63
252.617	0.45
252.833	0.37
253.049	0.33
253.265	0.34
253.481	0.47
253.697	0.38
253.913	0.26
254.129	0.51
254.345	0.42
254.561	0.35
254.777	0.36
254.993	0.5
255.209	0.44
255.425	0.3
255.641	0.28
255.857	0.53
256.073	0.4
256.288	0.27
256.504	0.39
256.72	0.39
256.936	0.55
257.152	0.43
257.367	0.28
257.583	0.43
257.799	0.49
258.015	0.43
258.23	0.3
258.446	0.53
258.662	0.4
258.877	0.32
259.093	0.29
259.309	0.38
259.524	0.44
259.74	0.27
259.955	0.29
260.171	0.46
260.387	0.43
260.602	0.39
260.818	0.43
261.033	0.32
261.249	0.38
261.464	0.35
261.68	0.23
261.895	0.43
262.11	0.43
262.326	0.25
262.541	0.28
262.757	0.43
262.972	0.47
263.187	0.38
263.403	0.36
263.618	0.48
263.833	0.32
264.049	0.27
264.264	0.32
264.479	0.42
264.694	0.54
264.91	0.25
265.125	0.34
265.34	0.46
265.555	0.51
265.77	0.38
265.986	0.23
266.201	0.46
266.416	0.48
266.631	0.3
266.846	0.3
267.061	0.47
267.276	0.45
267.491	0.23
267.706	0.42
267.921	0.41
268.136	0.39
268.351	0.35
268.566	0.27
268.781	0.47
268.996	0.4
269.211	0.28
269.426	0.32
269.641	0.28
269.856	0.52
270.071	0.3
270.285	0.25
270.5	0.38
270.715	0.45
270.93	0.25
271.145	0.36
271.359	0.4
271.574	0.27
271.789	0.32
272.004	0.29
272.218	0.3
272.433	0.33
272.648	0.22
272.862	0.42
273.077	0.37
273.292	0.37
273.506	0.3
273.721	0.29
273.936	0.43
274.15	0.41
274.365	0.25
274.579	0.38
274.794	0.39
275.008	0.45
275.223	0.26
275.437	0.32
275.652	0.42
275.866	0.41
276.081	0.32
276.295	0.36
276.509	0.32
276.724	0.35
276.938	0.31
277.153	0.36
277.367	0.41
277.581	0.3
277.796	0.27
278.01	0.28
278.224	0.38
278.438	0.48
278.653	0.2
278.867	0.22
279.081	0.16
279.295	0.26
279.51	0.33
279.724	0.15
279.938	0.35
280.152	0.31
280.366	0.26
280.58	0.33
280.794	0.45
281.008	0.4
281.222	0.35
281.437	0.46
281.651	0.34
281.865	0.4
282.079	0.25
282.293	0.23
282.507	0.3
282.721	0.28
282.935	0.32
283.148	0.22
283.362	0.29
283.576	0.19
283.79	0.34
284.004	0.25
284.218	0.4
284.432	0.28
284.646	0.29
284.859	0.3
285.073	0.29
285.287	0.35
285.501	0.3
285.714	0.31
285.928	0.32
286.142	0.37
286.356	0.26
286.569	0.25
286.783	0.48
286.997	0.33
287.21	0.28
287.424	0.28
287.637	0.28
287.851	0.24
288.065	0.39
288.278	0.29
288.492	0.29
288.705	0.23
288.919	0.26
289.132	0.15
289.346	0.36
289.559	0.2
289.773	0.26
289.986	0.31
290.2	0.27
290.413	0.38
290.626	0.23
290.84	0.24
291.053	0.26
291.267	0.37
291.48	0.31
291.693	0.24
291.906	0.28
292.12	0.29
292.333	0.25
292.546	0.25
292.76	0.33
292.973	0.29
293.186	0.33
293.399	0.21
293.612	0.34
293.826	0.16
294.039	0.27
294.252	0.21
294.465	0.36
294.678	0.32
294.891	0.29
295.104	0.23
295.317	0.22
295.53	0.25
295.743	0.24
295.956	0.26
296.169	0.39
296.382	0.36
296.595	0.22
296.808	0.25
297.021	0.35
297.234	0.33
297.447	0.27
297.66	0.28
297.873	0.33
298.086	0.35
298.299	0.21
298.511	0.16
298.724	0.26
298.937	0.19
299.15	0.22
299.363	0.25
299.575	0.34
299.788	0.33
300.001	0.25
300.213	0.18
300.426	0.26
300.639	0.24
300.852	0.24
301.064	0.27
301.277	0.35
301.489	0.35
301.702	0.28
301.915	0.26
302.127	0.25
302.34	0.27
302.552	0.25
302.765	0.25
302.977	0.34
303.19	0.2
303.402	0.23
303.615	0.24
303.827	0.26
304.04	0.23
304.252	0.29
304.464	0.26
304.677	0.36
304.889	0.29
305.102	0.24
305.314	0.21
305.526	0.33
305.739	0.34
305.951	0.18
306.163	0.21
306.375	0.33
306.588	0.22
306.8	0.23
307.012	0.16
307.224	0.25
307.436	0.35
307.649	0.18
307.861	0.23
308.073	0.31
308.285	0.25
308.497	0.2
308.709	0.25
308.921	0.25
309.133	0.34
309.346	0.22
309.558	0.23
309.77	0.34
309.982	0.32
310.194	0.33
310.406	0.19
310.617	0.36
310.829	0.27
311.041	0.3
311.253	0.24
311.465	0.28
311.677	0.26
311.889	0.24
312.101	0.24
312.313	0.35
312.524	0.37
312.736	0.22
312.948	0.24
313.16	0.37
313.372	0.29
313.583	0.29
313.795	0.2
314.007	0.26
314.218	0.31
314.43	0.27
314.642	0.18
314.853	0.14
315.065	0.37
315.277	0.23
315.488	0.25
315.7	0.25
315.912	0.31
316.123	0.25
316.335	0.22
316.546	0.37
316.758	0.29
316.969	0.23
317.181	0.21
317.392	0.28
317.604	0.36
317.815	0.21
318.026	0.22
318.238	0.24
318.449	0.29
318.661	0.17
318.872	0.19
319.083	0.24
319.295	0.31
319.506	0.19
319.717	0.26
319.929	0.31
320.14	0.24
320.351	0.21
320.562	0.22
320.774	0.23
320.985	0.26
321.196	0.22
321.407	0.17
321.618	0.3
321.829	0.27
322.041	0.28
322.252	0.24
322.463	0.28
322.674	0.31
322.885	0.15
323.096	0.27
323.307	0.26
323.518	0.28
323.729	0.19
323.94	0.22
324.151	0.28
324.362	0.3
324.573	0.3
324.784	0.25
324.995	0.28
325.206	0.32
325.417	0.27
325.628	0.15
325.838	0.28
326.049	0.32
326.26	0.33
326.471	0.19
326.682	0.28
326.892	0.3
327.103	0.21
327.314	0.2
327.525	0.37
327.735	0.32
327.946	0.23
328.157	0.17
328.368	0.31
328.578	0.29
328.789	0.27
328.999	0.24
329.21	0.25
329.421	0.31
329.631	0.23
329.842	0.21
330.052	0.31
330.263	0.25
330.473	0.26
330.684	0.18
330.894	0.26
331.105	0.32
331.315	0.24
331.526	0.2
331.736	0.36
331.947	0.31
332.157	0.3
332.367	0.15
332.578	0.29
332.788	0.35
332.999	0.29
333.209	0.23
333.419	0.2
333.629	0.27
333.84	0.27
334.05	0.25
334.26	0.36
334.47	0.29
334.681	0.27
334.891	0.27
335.101	0.3
335.311	0.38
335.521	0.22
335.732	0.2
335.942	0.33
336.152	0.28
336.362	0.29
336.572	0.3
336.782	0.32
336.992	0.21
337.202	0.25
337.412	0.22
337.622	0.26
337.832	0.25
338.042	0.26
338.252	0.19
338.462	0.22
338.672	0.25
338.882	0.22
339.092	0.27
339.302	0.32
339.511	0.29
339.721	0.24
339.931	0.17
340.141	0.28
340.351	0.34
340.561	0.28
340.77	0.28
340.98	0.27
341.19	0.26
341.4	0.24
341.609	0.22
341.819	0.23
342.029	0.24
342.238	0.23
342.448	0.24
342.658	0.31
342.867	0.25
343.077	0.26
343.286	0.21
343.496	0.25
343.706	0.35
343.915	0.18
344.125	0.24
344.334	0.27
344.544	0.21
344.753	0.22
344.963	0.21
345.172	0.22
345.381	0.24
345.591	0.23
345.8	0.24
346.01	0.33
346.219	0.35
346.428	0.25
346.638	0.22
346.847	0.25
347.056	0.35
347.266	0.26
347.475	0.24
347.684	0.3
347.893	0.26
348.103	0.28
348.312	0.22
348.521	0.22
348.73	0.24
348.94	0.26
349.149	0.23
349.358	0.24
349.567	0.21
349.776	0.18
349.985	0.22
350.194	0.29
350.403	0.32
350.612	0.14
350.821	0.22
351.03	0.26
351.239	0.18
351.448	0.25
351.657	0.2
351.866	0.34
352.075	0.26
352.284	0.27
352.493	0.21
352.702	0.31
352.911	0.29
353.12	0.24
353.329	0.24
353.538	0.27
353.746	0.26
353.955	0.19
354.164	0.27
354.373	0.2
354.582	0.27
354.79	0.22
354.999	0.3
355.208	0.24
355.416	0.34
355.625	0.17
355.834	0.18
356.042	0.28
356.251	0.21
356.46	0.17
356.668	0.29
356.877	0.32
357.085	0.31
357.294	0.16
357.503	0.26
357.711	0.25
357.92	0.42
358.128	0.27
358.337	0.2
358.545	0.24
358.754	0.25
358.962	0.25
359.17	0.24
359.379	0.27
359.587	0.32
359.796	0.18
360.004	0.33
360.212	0.31
360.421	0.32
360.629	0.18
360.837	0.2
361.046	0.31
361.254	0.46
361.462	0.24
361.67	0.22
361.879	0.31
362.087	0.32
362.295	0.25
362.503	0.21
362.711	0.18
362.92	0.22
363.128	0.22
363.336	0.17
363.544	0.18
363.752	0.23
363.96	0.19
364.168	0.21
364.376	0.23
364.584	0.27
364.792	0.29
365	0.27
365.208	0.26
365.416	0.32
365.624	0.29
365.832	0.19
366.04	0.34
366.248	0.29
366.456	0.26
366.664	0.27
366.872	0.23
367.079	0.24
367.287	0.22
367.495	0.22
367.703	0.21
367.911	0.26
368.118	0.22
368.326	0.26
368.534	0.2
368.742	0.34
368.949	0.19
369.157	0.22
369.365	0.25
369.572	0.25
369.78	0.2
369.988	0.29
370.195	0.26
370.403	0.3
370.61	0.23
370.818	0.26
371.026	0.35
371.233	0.26
371.441	0.25
371.648	0.23
371.856	0.3
372.063	0.3
372.271	0.19
372.478	0.22
372.685	0.23
372.893	0.31
373.1	0.26
373.308	0.2
373.515	0.42
373.722	0.33
373.93	0.23
374.137	0.31
374.344	0.32
374.552	0.32
374.759	0.29
374.966	0.26
375.173	0.26
375.381	0.37
375.588	0.24
375.795	0.2
376.002	0.25
376.209	0.23
376.417	0.22
376.624	0.27
376.831	0.27
377.038	0.25
377.245	0.12
377.452	0.24
377.659	0.27
377.866	0.21
378.073	0.26
378.28	0.2
378.487	0.3
378.694	0.3
378.901	0.25
379.108	0.27
379.315	0.31
379.522	0.39
379.729	0.3
379.936	0.26
380.143	0.28
380.35	0.33
380.557	0.3
380.763	0.23
380.97	0.3
381.177	0.3
381.384	0.25
381.591	0.21
381.797	0.31
382.004	0.32
382.211	0.31
382.418	0.21
382.624	0.32
382.831	0.31
383.038	0.24
383.244	0.29
383.451	0.28
383.658	0.33
383.864	0.24
384.071	0.23
384.277	0.4
384.484	0.24
384.69	0.33
384.897	0.28
385.103	0.28
385.31	0.26
385.516	0.28
385.723	0.24
385.929	0.27
386.136	0.27
386.342	0.31
386.549	0.27
386.755	0.33
386.961	0.34
387.168	0.27
387.374	0.25
387.58	0.35
387.787	0.3
387.993	0.3
388.199	0.29
388.406	0.25
388.612	0.26
388.818	0.26
389.024	0.25
389.231	0.32
389.437	0.39
389.643	0.31
389.849	0.26
390.055	0.33
390.261	0.3
390.467	0.36
390.674	0.23
390.88	0.29
391.086	0.34
391.292	0.24
391.498	0.32
391.704	0.33
391.91	0.25
392.116	0.27
392.322	0.23
392.528	0.38
392.734	0.32
392.94	0.28
393.146	0.29
393.352	0.37
393.557	0.28
393.763	0.3
393.969	0.33
394.175	0.28
394.381	0.32
394.587	0.26
394.792	0.33
394.998	0.36
395.204	0.36
395.41	0.27
395.615	0.32
395.821	0.37
396.027	0.32
396.233	0.29
396.438	0.33
396.644	0.38
396.85	0.36
397.055	0.34
397.261	0.35
397.466	0.38
397.672	0.4
397.878	0.36
398.083	0.38
398.289	0.29
398.494	0.43
398.7	0.35
398.905	0.23
399.111	0.43
399.316	0.3
399.522	0.37
399.727	0.38
399.932	0.37
400.138	0.31
400.343	0.41
400.549	0.31
400.754	0.42
400.959	0.37
401.165	0.31
401.37	0.4
401.575	0.44
401.78	0.41
401.986	0.39
402.191	0.33
402.396	0.39
402.601	0.41
402.807	0.43
403.012	0.4
403.217	0.47
403.422	0.42
403.627	0.39
403.832	0.36
404.037	0.41
404.243	0.44
404.448	0.36
404.653	0.4
404.858	0.5
405.063	0.49
405.268	0.4
405.473	0.36
405.678	0.43
405.883	0.65
406.088	0.52
406.293	0.43
406.498	0.38
406.703	0.53
406.907	0.46
407.112	0.44
407.317	0.53
407.522	0.59
407.727	0.45
407.932	0.51
408.136	0.63
408.341	0.54
408.546	0.57
408.751	0.59
408.956	0.61
409.16	0.65
409.365	0.6
409.57	0.63
409.774	0.56
409.979	0.69
410.184	0.69
410.388	0.6
410.593	0.75
410.798	0.72
411.002	0.69
411.207	0.79
411.411	0.8
411.616	0.8
411.82	0.76
412.025	0.86
412.229	0.79
412.434	0.95
412.638	0.95
412.843	0.84
413.047	0.94
413.252	0.94
413.456	0.98
413.66	1.04
413.865	1.05
414.069	1.14
414.273	1.08
414.478	1.16
414.682	1.14
414.886	1.16
415.091	1.21
415.295	1.15
415.499	1.38
415.703	1.26
415.908	1.46
416.112	1.34
416.316	1.54
416.52	1.57
416.724	1.54
416.929	1.56
417.133	1.86
417.337	1.67
417.541	1.73
417.745	1.81
417.949	1.86
418.153	1.99
418.357	1.96
418.561	2.29
418.765	2.17
418.969	2.37
419.173	2.35
419.377	2.36
419.581	2.55
419.785	2.59
419.989	2.53
420.193	2.76
420.397	2.87
420.601	2.93
420.804	3.02
421.008	3.03
421.212	3.23
421.416	3.18
421.62	3.19
421.823	3.26
422.027	3.46
422.231	3.38
422.435	3.4
422.638	3.5
422.842	3.62
423.046	3.56
423.249	3.89
423.453	3.89
423.657	4.02
423.86	4.15
424.064	4.25
424.268	4.38
424.471	4.37
424.675	4.6
424.878	4.7
425.082	4.74
425.285	5.07
425.489	5.03
425.692	5.1
425.896	5.12
426.099	5.39
426.303	5.46
426.506	5.59
426.71	5.84
426.913	6.1
427.116	6.22
427.32	6.21
427.523	6.32
427.726	6.58
427.93	6.71
428.133	6.93
428.336	7.12
428.54	7.3
428.743	7.51
428.946	7.81
429.149	7.71
429.353	7.73
429.556	7.8
429.759	7.98
429.962	8
430.165	8.2
430.368	7.84
430.571	7.97
430.775	7.88
430.978	7.91
431.181	7.99
431.384	8.05
431.587	8.34
431.79	8.45
431.993	8.61
432.196	8.78
432.399	9.14
432.602	9.33
432.805	9.46
433.008	9.91
433.211	9.86
433.414	10.07
433.616	10.2
433.819	10.12
434.022	10.32
434.225	10.54
434.428	10.37
434.631	10.88
434.833	10.76
435.036	11.07
435.239	11.13
435.442	11.24
435.645	11.22
435.847	11.44
436.05	11.73
436.253	11.96
436.455	12.05
436.658	11.86
436.861	12.18
437.063	12.29
437.266	12.29
437.468	12.62
437.671	12.95
437.874	12.91
438.076	12.77
438.279	13.34
438.481	13.28
438.684	14.01
438.886	13.73
439.089	14.03
439.291	14.02
439.494	14.47
439.696	14.5
439.899	15.11
440.101	15.39
440.303	15.59
440.506	16.38
440.708	16.05
440.91	16.36
441.113	16.55
441.315	16.86
441.517	16.5
441.72	17.07
441.922	16.67
442.124	16.57
442.326	17.09
442.529	17.31
442.731	17.2
442.933	17.77
443.135	17.29
443.337	17.34
443.539	17.83
443.742	17.62
443.944	18.29
444.146	18.02
444.348	18.02
444.55	17.6
444.752	18
444.954	18.14
445.156	17.99
445.358	18.25
445.56	18.54
445.762	18.37
445.964	18.56
446.166	18.55
446.368	18.43
446.57	18.41
446.772	18.11
446.974	17.97
447.175	18.18
447.377	17.77
447.579	18.27
447.781	17.95
447.983	17.82
448.184	17.38
448.386	17.69
448.588	17.2
448.79	17.16
448.991	17.44
449.193	17.43
449.395	16.81
449.597	16.54
449.798	16.49
450	15.88
450.202	15.79
450.403	15.93
450.605	15.8
450.806	15.29
451.008	15.29
451.21	14.91
451.411	14.5
451.613	13.9
451.814	14.19
452.016	14.17
452.217	13.39
452.419	13.45
452.62	12.98
452.821	12.81
453.023	12.78
453.224	12.31
453.426	11.93
453.627	11.12
453.828	11.28
454.03	11.41
454.231	11.37
454.432	11.13
454.634	10.97
454.835	10.59
455.036	10.49
455.238	10.17
455.439	9.95
455.64	9.75
455.841	9.49
456.042	9.59
456.244	9.31
456.445	8.96
456.646	8.76
456.847	8.64
457.048	8.53
457.249	8.62
457.45	8.4
457.651	7.79
457.852	7.74
458.054	7.41
458.255	7.37
458.456	7.47
458.657	7.34
458.858	6.8
459.058	6.65
459.259	6.86
459.46	6.51
459.661	6.51
459.862	6.56
460.063	6.47
460.264	6.35
460.465	6.02
460.666	6.11
460.866	5.83
461.067	5.65
461.268	5.63
461.469	5.59
461.67	5.44
461.87	5.2
462.071	5.3
462.272	5.19
462.473	5.19
462.673	5.41
462.874	5.17
463.075	5.23
463.275	5.16
463.476	5.31
463.676	5.21
463.877	4.95
464.078	5.02
464.278	5.04
464.479	4.9
464.679	4.77
464.88	4.73
465.08	4.7
465.281	4.55
465.481	4.4
465.682	4.18
465.882	4.19
466.083	4.05
466.283	4.04
466.483	3.99
466.684	3.8
466.884	3.66
467.085	3.68
467.285	3.83
467.485	3.64
467.686	3.63
467.886	3.54
468.086	3.43
468.286	3.46
468.487	3.5
468.687	3.31
468.887	3.27
469.087	3.45
469.287	3.32
469.488	3.17
469.688	3.23
469.888	3.22
470.088	3.19
470.288	3.12
470.488	3.11
470.688	2.93
470.888	2.9
471.088	2.74
471.288	2.86
471.488	2.84
471.688	2.83
471.888	2.7
472.088	2.93
472.288	2.79
472.488	2.61
472.688	2.59
472.888	2.69
473.088	2.64
473.288	2.51
473.488	2.47
473.688	2.65
473.887	2.5
474.087	2.44
474.287	2.49
474.487	2.41
474.687	2.45
474.886	2.42
475.086	2.31
475.286	2.34
475.486	2.29
475.685	2.27
475.885	2.26
476.085	2.3
476.284	2.28
476.484	2.3
476.684	2.23
476.883	2.32
477.083	2.19
477.282	2.16
477.482	2.19
477.681	2.14
477.881	2.11
478.08	2.13
478.28	2.1
478.479	2.13
478.679	2.2
478.878	2.06
479.078	2.05
479.277	2.09
479.477	2.1
479.676	2.04
479.875	2.06
480.075	1.98
480.274	2.03
480.473	2.09
480.673	2.07
480.872	2.14
481.071	2.09
481.271	2.09
481.47	2.03
481.669	2.01
481.868	2.01
482.067	1.98
482.267	1.95
482.466	1.95
482.665	1.96
482.864	1.93
483.063	1.94
483.262	2.08
483.461	2.11
483.661	2.09
483.86	1.99
484.059	2.1
484.258	2.1
484.457	2.03
484.656	2.01
484.855	2.14
485.054	1.94
485.253	2
485.452	1.97
485.651	2.05
485.849	2.04
486.048	2.04
486.247	2.06
486.446	2.12
486.645	2.02
486.844	2.07
487.043	2.06
487.241	2.12
487.44	2.09
487.639	2.14
487.838	2.11
488.037	2.13
488.235	2.25
488.434	2.18
488.633	2.04
488.831	2.25
489.03	2.26
489.229	2.24
489.427	2.26
489.626	2.28
489.825	2.33
490.023	2.36
490.222	2.26
490.42	2.36
490.619	2.35
490.817	2.37
491.016	2.33
491.214	2.43
491.413	2.45
491.611	2.39
491.81	2.4
492.008	2.49
492.207	2.56
492.405	2.53
492.604	2.51
492.802	2.51
493	2.63
493.199	2.61
493.397	2.63
493.595	2.71
493.794	2.69
493.992	2.8
494.19	2.72
494.388	2.83
494.587	2.75
494.785	2.8
494.983	2.71
495.181	2.82
495.379	2.91
495.578	2.96
495.776	2.97
495.974	2.98
496.172	2.96
496.37	3.09
496.568	3.11
496.766	3.09
496.964	3.2
497.162	3.2
497.36	3.2
497.558	3.26
497.756	3.27
497.954	3.31
498.152	3.33
498.35	3.45
498.548	3.39
498.746	3.4
498.944	3.44
499.142	3.45
499.34	3.52
499.538	3.6
499.736	3.49
499.933	3.65
500.131	3.64
500.329	3.74
500.527	3.75
500.725	3.87
500.922	3.86
501.12	3.86
501.318	3.95
501.516	3.94
501.713	4.03
501.911	4
502.109	3.96
502.306	4.1
502.504	4.01
502.701	4.06
502.899	4.12
503.097	4.35
503.294	4.19
503.492	4.35
503.689	4.37
503.887	4.36
504.084	4.48
504.282	4.42
504.479	4.41
504.677	4.6
504.874	4.48
505.072	4.49
505.269	4.63
505.466	4.68
505.664	4.74
505.861	4.63
506.059	4.74
506.256	4.77
506.453	4.83
506.651	4.94
506.848	4.98
507.045	4.95
507.242	4.96
507.44	5.02
507.637	5.09
507.834	5.05
508.031	5.2
508.229	5.16
508.426	5.09
508.623	5.27
508.82	5.33
509.017	5.24
509.214	5.27
509.411	5.34
509.608	5.38
509.805	5.46
510.003	5.44
510.2	5.46
510.397	5.67
510.594	5.55
510.791	5.64
510.988	5.62
511.184	5.63
511.381	5.55
511.578	5.69
511.775	5.79
511.972	5.72
512.169	5.81
512.366	5.8
512.563	6
512.76	5.98
512.956	5.99
513.153	5.83
513.35	5.9
513.547	5.88
513.744	6
513.94	6.01
514.137	6.11
514.334	6.14
514.53	6.15
514.727	6.31
514.924	6.27
515.12	6.24
515.317	6.28
515.514	6.23
515.71	6.19
515.907	6.42
516.103	6.44
516.3	6.24
516.497	6.46
516.693	6.5
516.89	6.52
517.086	6.46
517.283	6.53
517.479	6.43
517.676	6.6
517.872	6.66
518.068	6.61
518.265	6.61
518.461	6.6
518.658	6.75
518.854	6.68
519.05	6.79
519.247	6.8
519.443	6.77
519.639	6.87
519.836	6.73
520.032	6.71
520.228	6.88
520.424	6.88
520.621	6.91
520.817	6.93
521.013	6.9
521.209	7.11
521.405	7.07
521.601	7
521.798	6.97
521.994	7.05
522.19	7
522.386	7.01
522.582	7.12
522.778	7.27
522.974	7.08
523.17	7.15
523.366	7.05
523.562	7.18
523.758	7.22
523.954	7.06
524.15	7.19
524.346	7.27
524.542	7.27
524.738	7.21
524.934	7.4
525.129	7.23
525.325	7.21
525.521	7.25
525.717	7.46
525.913	7.26
526.109	7.36
526.304	7.43
526.5	7.4
526.696	7.45
526.892	7.34
527.087	7.58
527.283	7.47
527.479	7.49
527.674	7.31
527.87	7.53
528.066	7.5
528.261	7.53
528.457	7.46
528.653	7.62
528.848	7.55
529.044	7.7
529.239	7.52
529.435	7.51
529.63	7.49
529.826	7.5
530.021	7.54
530.217	7.59
530.412	7.56
530.608	7.59
530.803	7.6
530.999	7.49
531.194	7.6
531.389	7.65
531.585	7.63
531.78	7.83
531.975	7.68
532.171	7.76
532.366	7.72
532.561	7.7
532.757	7.67
532.952	7.9
533.147	7.59
533.342	7.74
533.538	7.69
533.733	7.97
533.928	7.56
534.123	7.77
534.318	7.83
534.513	7.7
534.709	7.9
534.904	7.85
535.099	7.9
535.294	7.96
535.489	7.93
535.684	7.81
535.879	7.86
536.074	7.88
536.269	7.88
536.464	7.88
536.659	7.87
536.854	7.85
537.049	7.95
537.244	7.89
537.439	7.92
537.634	7.91
537.828	7.95
538.023	7.92
538.218	7.93
538.413	7.82
538.608	7.93
538.803	7.93
538.997	7.87
539.192	7.93
539.387	7.91
539.582	7.98
539.776	7.86
539.971	7.94
540.166	8.03
540.36	7.97
540.555	8.08
540.75	7.97
540.944	8.02
541.139	8.05
541.334	7.92
541.528	7.97
541.723	8.11
541.917	8.06
542.112	7.94
542.306	7.88
542.501	7.95
542.695	8.02
542.89	7.9
543.084	8
543.279	7.97
543.473	8.06
543.668	8.11
543.862	7.9
544.056	7.96
544.251	8.06
544.445	8.1
544.64	8.17
544.834	7.83
545.028	7.66
545.222	8.07
545.417	8.22
545.611	8.12
545.805	8.06
546	7.86
546.194	8.08
546.388	8.05
546.582	8.02
546.776	8
546.97	8.09
547.165	8.05
547.359	8.07
547.553	7.97
547.747	8.05
547.941	8.22
548.135	8.09
548.329	8.04
548.523	8.09
548.717	7.98
548.911	8.03
549.105	7.99
549.299	8.13
549.493	8.1
549.687	8.03
549.881	8.17
550.075	8.11
550.269	7.92
550.463	8.11
550.657	8.09
550.85	8.07
551.044	8.06
551.238	8.11
551.432	8.11
551.626	8.15
551.82	8.13
552.013	7.95
552.207	8.18
552.401	8.13
552.594	8.12
552.788	8
552.982	8.04
553.176	8.02
553.369	8.24
553.563	8.12
553.756	8.12
553.95	8.13
554.144	8.14
554.337	8.22
554.531	8.02
554.724	8.12
554.918	8.19
555.111	8.05
555.305	8.13
555.498	8.08
555.692	8.21
555.885	8.14
556.079	8.03
556.272	8.13
556.466	8.07
556.659	8.12
556.852	8.22
557.046	8.04
557.239	7.97
557.432	8.06
557.626	8.17
557.819	8.19
558.012	8.13
558.206	8.19
558.399	8.11
558.592	8.01
558.785	8.02
558.979	8.09
559.172	8.13
559.365	8.14
559.558	8.07
559.751	8.05
559.944	8.16
560.138	8.08
560.331	8.08
560.524	8.09
560.717	8.06
560.91	8.12
561.103	8.14
561.296	7.93
561.489	8.21
561.682	8.22
561.875	8.14
562.068	8.21
562.261	8.02
562.454	8.25
562.647	8.1
562.84	8.12
563.032	8.15
563.225	8.04
563.418	8.09
563.611	8.14
563.804	8.14
563.997	7.93
564.19	7.9
564.382	8.17
564.575	8.09
564.768	8.01
564.961	8.15
565.153	8.03
565.346	8.02
565.539	8.1
565.731	8.11
565.924	8.15
566.117	8.25
566.309	8.08
566.502	8.11
566.695	8.04
566.887	8.13
567.08	8.05
567.272	8.15
567.465	7.94
567.657	8.11
567.85	8.03
568.042	8.08
568.235	8.11
568.427	7.99
568.62	8.02
568.812	8.03
569.005	8.15
569.197	7.98
569.389	8.02
569.582	8.06
569.774	8.04
569.966	7.9
570.159	7.94
570.351	7.93
570.543	8.02
570.736	8
570.928	7.9
571.12	8.01
571.312	7.96
571.505	7.71
571.697	8.02
571.889	8.01
572.081	7.95
572.273	7.97
572.465	8.01
572.658	7.99
572.85	8
573.042	8
573.234	7.9
573.426	7.93
573.618	7.91
573.81	7.97
574.002	7.94
574.194	8.04
574.386	7.93
574.578	7.84
574.77	7.86
574.962	7.96
575.154	7.77
575.346	7.85
575.538	7.85
575.729	7.83
575.921	7.87
576.113	7.99
576.305	7.86
576.497	8.04
576.689	7.73
576.88	7.73
577.072	7.89
577.264	7.87
577.456	7.81
577.647	7.8
577.839	7.98
578.031	7.83
578.223	7.78
578.414	7.71
578.606	7.8
578.798	7.88
578.989	7.79
579.181	7.87
579.372	7.8
579.564	7.88
579.755	7.74
579.947	7.69
580.139	7.76
580.33	7.57
580.522	7.81
580.713	7.74
580.905	7.67
581.096	7.84
581.287	7.72
581.479	7.7
581.67	7.78
581.862	7.65
582.053	7.69
582.244	7.57
582.436	7.76
582.627	7.59
582.818	7.59
583.01	7.59
583.201	7.71
583.392	7.62
583.583	7.64
583.775	7.48
583.966	7.57
584.157	7.61
584.348	7.71
584.54	7.59
584.731	7.65
584.922	7.6
585.113	7.45
585.304	7.52
585.495	7.57
585.686	7.6
585.877	7.6
586.068	7.64
586.259	7.63
586.45	7.58
586.641	7.45
586.832	7.59
587.023	7.55
587.214	7.48
587.405	7.53
587.596	7.42
587.787	7.37
587.978	7.48
588.169	7.35
588.36	7.36
588.551	7.42
588.742	7.44
588.932	7.49
589.123	7.22
589.314	7.48
589.505	7.32
589.696	7.37
589.886	7.31
590.077	7.32
590.268	7.23
590.458	7.23
590.649	7.07
590.84	7.27
591.03	7.29
591.221	7.24
591.412	7.17
591.602	7.34
591.793	7.24
591.984	7.28
592.174	7.24
592.365	7.4
592.555	7.09
592.746	7.14
592.936	7.13
593.127	7.17
593.317	7.24
593.508	7.21
593.698	7.08
593.889	7.1
594.079	7.06
594.269	7.06
594.46	7
594.65	7.12
594.84	7.02
595.031	6.98
595.221	6.96
595.411	7.03
595.602	7.03
595.792	6.94
595.982	6.83
596.172	7.01
596.363	6.83
596.553	6.87
596.743	6.86
596.933	6.85
597.123	6.84
597.314	6.76
597.504	6.8
597.694	6.86
597.884	6.83
598.074	6.83
598.264	6.78
598.454	6.81
598.644	6.81
598.834	6.74
599.024	6.68
599.214	6.69
599.404	6.76
599.594	6.7
599.784	6.66
599.974	6.78
600.164	6.67
600.354	6.64
600.544	6.54
600.734	6.67
600.924	6.59
601.114	6.52
601.303	6.55
601.493	6.57
601.683	6.52
601.873	6.51
602.063	6.47
602.252	6.54
602.442	6.36
602.632	6.43
602.821	6.37
603.011	6.47
603.201	6.42
603.39	6.36
603.58	6.24
603.77	6.36
603.959	6.42
604.149	6.33
604.339	6.36
604.528	6.43
604.718	6.33
604.907	6.29
605.097	6.23
605.286	6.22
605.476	6.26
605.665	6.28
605.855	6.15
606.044	6.29
606.234	6.27
606.423	6.05
606.612	6.16
606.802	6.14
606.991	6.2
607.181	6.22
607.37	6.18
607.559	5.94
607.749	6.08
607.938	5.94
608.127	6.03
608.316	6.01
608.506	6.01
608.695	6.05
608.884	5.94
609.073	6.01
609.263	6.02
609.452	6
609.641	5.85
609.83	5.81
610.019	5.95
610.208	5.83
610.397	5.84
610.586	5.86
610.775	5.78
610.965	5.84
611.154	5.72
611.343	5.8
611.532	5.72
611.721	5.79
611.91	5.65
612.099	5.65
612.287	5.6
612.476	5.52
612.665	5.76
612.854	5.63
613.043	5.62
613.232	5.61
613.421	5.49
613.61	5.6
613.798	5.59
613.987	5.54
614.176	5.51
614.365	5.53
614.554	5.46
614.742	5.53
614.931	5.4
615.12	5.49
615.309	5.45
615.497	5.36
615.686	5.23
615.875	5.4
616.063	5.35
616.252	5.31
616.44	5.34
616.629	5.28
616.818	5.31
617.006	5.25
617.195	5.18
617.383	5.3
617.572	5.23
617.76	5.19
617.949	5.18
618.137	5.26
618.326	5.19
618.514	5.01
618.703	5.03
618.891	5.13
619.079	5.08
619.268	5.13
619.456	4.95
619.644	5.11
619.833	5.05
620.021	5
620.209	4.89
620.398	5.01
620.586	4.88
620.774	4.97
620.962	4.94
621.151	5.02
621.339	4.88
621.527	4.85
621.715	4.81
621.903	4.82
622.092	4.79
622.28	4.93
622.468	4.65
622.656	4.82
622.844	4.74
623.032	4.82
623.22	4.65
623.408	4.82
623.596	4.71
623.784	4.79
623.972	4.63
624.16	4.64
624.348	4.71
624.536	4.7
624.724	4.55
624.912	4.6
625.1	4.65
625.288	4.59
625.476	4.54
625.664	4.59
625.851	4.52
626.039	4.54
626.227	4.48
626.415	4.49
626.603	4.37
626.79	4.47
626.978	4.48
627.166	4.49
627.354	4.35
627.541	4.39
627.729	4.25
627.917	4.49
628.104	4.42
628.292	4.29
628.48	4.29
628.667	4.29
628.855	4.39
629.042	4.3
629.23	4.26
629.418	4.24
629.605	4.2
629.793	4.12
629.98	4.19
630.168	4.14
630.355	4.21
630.543	4.15
630.73	4.08
630.917	4.06
631.105	4.28
631.292	4.15
631.48	4.04
631.667	4.18
631.854	4.03
632.042	4.03
632.229	3.96
632.416	4.07
632.604	3.97
632.791	3.86
632.978	3.99
633.165	3.94
633.353	3.99
633.54	3.96
633.727	3.75
633.914	3.85
634.101	3.84
634.289	3.92
634.476	3.77
634.663	3.77
634.85	3.77
635.037	3.72
635.224	3.67
635.411	3.84
635.598	3.75
635.785	3.71
635.972	3.66
636.159	3.75
636.346	3.65
636.533	3.66
636.72	3.64
636.907	3.61
637.094	3.63
637.281	3.5
637.468	3.58
637.655	3.6
637.842	3.62
638.029	3.53
638.215	3.54
638.402	3.5
638.589	3.44
638.776	3.43
638.963	3.44
639.149	3.52
639.336	3.56
639.523	3.44
639.709	3.39
639.896	3.35
640.083	3.43
640.27	3.42
640.456	3.36
640.643	3.36
640.829	3.22
641.016	3.35
641.203	3.21
641.389	3.33
641.576	3.32
641.762	3.22
641.949	3.2
642.135	3.24
642.322	3.23
642.508	3.12
642.695	3.23
642.881	3.13
643.068	3.12
643.254	3.17
643.441	3.1
643.627	3.2
643.813	3.04
644	3.17
644.186	3.01
644.372	3.11
644.559	3.07
644.745	3.08
644.931	2.97
645.118	3
645.304	3.03
645.49	2.97
645.676	2.92
645.862	2.98
646.049	3.03
646.235	2.96
646.421	3.02
646.607	3.03
646.793	2.92
646.979	2.83
647.165	2.96
647.352	2.87
647.538	2.9
647.724	2.82
647.91	2.82
648.096	2.84
648.282	2.85
648.468	2.81
648.654	2.84
648.84	2.82
649.026	2.7
649.212	2.72
649.397	2.66
649.583	2.69
649.769	2.72
649.955	2.73
650.141	2.74
650.327	2.75
650.513	2.63
650.698	2.72
650.884	2.58
651.07	2.7
651.256	2.61
651.442	2.61
651.627	2.54
651.813	2.62
651.999	2.59
652.184	2.57
652.37	2.54
652.556	2.51
652.741	2.62
652.927	2.39
653.113	2.52
653.298	2.49
653.484	2.45
653.669	2.43
653.855	2.46
654.04	2.53
654.226	2.46
654.412	2.4
654.597	2.35
654.782	2.39
654.968	2.48
655.153	2.38
655.339	2.36
655.524	2.33
655.71	2.41
655.895	2.29
656.08	2.38
656.266	2.44
656.451	2.37
656.636	2.27
656.822	2.31
657.007	2.27
657.192	2.26
657.378	2.21
657.563	2.27
657.748	2.29
657.933	2.29
658.118	2.22
658.304	2.2
658.489	2.29
658.674	2.23
658.859	2.1
659.044	2.15
659.229	2.24
659.414	2.16
659.599	2.08
659.785	2.05
659.97	2.08
660.155	2.15
660.34	2.16
660.525	2.13
660.71	2.1
660.895	2.07
661.08	2.04
661.264	2
661.449	2.14
661.634	2.06
661.819	2.05
662.004	2.01
662.189	1.96
662.374	2.01
662.559	1.97
662.743	1.95
662.928	2.02
663.113	1.96
663.298	1.89
663.483	1.93
663.667	1.95
663.852	1.88
664.037	1.96
664.221	1.88
664.406	1.97
664.591	1.94
664.775	1.9
664.96	1.83
665.145	1.87
665.329	1.9
665.514	1.87
665.698	1.79
665.883	1.74
666.068	1.88
666.252	1.83
666.437	1.8
666.621	1.8
666.806	1.85
666.99	1.79
667.174	1.75
667.359	1.84
667.543	1.74
667.728	1.68
667.912	1.7
668.096	1.76
668.281	1.73
668.465	1.78
668.649	1.66
668.834	1.64
669.018	1.76
669.202	1.69
669.387	1.66
669.571	1.77
669.755	1.66
669.939	1.69
670.124	1.65
670.308	1.71
670.492	1.73
670.676	1.62
670.86	1.64
671.044	1.58
671.228	1.68
671.413	1.54
671.597	1.61
671.781	1.61
671.965	1.65
672.149	1.58
672.333	1.58
672.517	1.57
672.701	1.57
672.885	1.57
673.069	1.45
673.253	1.63
673.437	1.51
673.621	1.52
673.804	1.54
673.988	1.52
674.172	1.49
674.356	1.43
674.54	1.52
674.724	1.64
674.908	1.46
675.091	1.5
675.275	1.48
675.459	1.56
675.643	1.4
675.826	1.45
676.01	1.49
676.194	1.5
676.377	1.45
676.561	1.49
676.745	1.46
676.928	1.45
677.112	1.52
677.296	1.36
677.479	1.36
677.663	1.38
677.846	1.42
678.03	1.36
678.213	1.3
678.397	1.44
678.58	1.4
678.764	1.31
678.947	1.28
679.131	1.36
679.314	1.33
679.498	1.34
679.681	1.38
679.865	1.38
680.048	1.34
680.231	1.31
680.415	1.23
680.598	1.3
680.781	1.26
680.965	1.23
681.148	1.29
681.331	1.3
681.514	1.33
681.698	1.2
681.881	1.3
682.064	1.27
682.247	1.25
682.43	1.17
682.614	1.27
682.797	1.32
682.98	1.25
683.163	1.17
683.346	1.25
683.529	1.19
683.712	1.17
683.895	1.21
684.078	1.09
684.261	1.16
684.444	1.22
684.627	1.22
684.81	1.11
684.993	1.15
685.176	1.23
685.359	1.09
685.542	1.09
685.725	1.24
685.908	1.14
686.091	1.13
686.274	1.16
686.457	1.18
686.639	1.15
686.822	1.07
687.005	1.16
687.188	1.21
687.371	1.28
687.553	1.18
687.736	1.17
687.919	1.21
688.102	1.15
688.284	1.02
688.467	1.02
688.65	1.1
688.832	0.99
689.015	1.05
689.197	0.97
689.38	1.19
689.563	1.21
689.745	1
689.928	0.99
690.11	1
690.293	1.05
690.475	1
690.658	1.04
690.84	1.05
691.023	1
691.205	0.97
691.388	1.02
691.57	1.09
691.752	1.09
691.935	0.91
692.117	0.92
692.3	1.03
692.482	0.97
692.664	0.98
692.847	0.95
693.029	1.08
693.211	1.04
693.393	0.94
693.576	0.92
693.758	0.95
693.94	0.93
694.122	0.92
694.304	0.95
694.487	0.89
694.669	0.96
694.851	0.89
695.033	0.91
695.215	0.9
695.397	0.94
695.579	0.95
695.761	0.84
695.943	0.84
696.125	1.06
696.308	0.94
696.49	0.75
696.671	1.05
696.853	0.91
697.035	1.18
697.217	0.88
697.399	1
697.581	0.82
697.763	0.89
697.945	0.82
698.127	0.9
698.309	0.96
698.491	0.89
698.672	0.89
698.854	0.94
699.036	0.89
699.218	0.84
699.399	0.95
699.581	0.97
699.763	0.83
699.945	0.8
700.126	0.7
700.308	0.85
700.49	0.77
700.671	0.69
700.853	0.76
701.035	0.77
701.216	0.84
701.398	0.72
701.579	0.8
701.761	0.84
701.943	0.72
702.124	0.7
702.306	0.79
702.487	0.96
702.669	0.8
702.85	0.77
703.031	0.69
703.213	0.86
703.394	0.86
703.576	0.75
703.757	0.91
703.938	0.81
704.12	0.9
704.301	0.74
704.483	0.75
704.664	0.77
704.845	0.91
705.026	0.78
705.208	0.76
705.389	0.77
705.57	0.73
705.751	0.73
705.933	0.77
706.114	0.87
706.295	0.75
706.476	0.67
706.657	0.82
706.838	0.72
707.02	0.82
707.201	0.68
707.382	0.66
707.563	0.76
707.744	0.62
707.925	0.65
708.106	0.67
708.287	0.7
708.468	0.85
708.649	0.73
708.83	0.76
709.011	0.72
709.192	0.77
709.373	0.62
709.554	0.68
709.734	0.83
709.915	0.72
710.096	0.63
710.277	0.55
710.458	0.67
710.639	0.8
710.819	0.55
711	0.64
711.181	0.71
711.362	0.71
711.542	0.75
711.723	0.6
711.904	0.79
712.085	0.76
712.265	0.74
712.446	0.57
712.627	0.59
712.807	0.57
712.988	0.62
713.168	0.53
713.349	0.67
713.53	0.54
713.71	0.5
713.891	0.56
714.071	0.65
714.252	0.51
714.432	0.48
714.613	0.48
714.793	0.62
714.974	0.75
715.154	0.66
715.334	0.69
715.515	0.8
715.695	0.63
715.876	0.62
716.056	0.54
716.236	0.51
716.417	0.56
716.597	0.54
716.777	0.81
716.957	0.59
717.138	0.58
717.318	0.54
717.498	0.52
717.678	0.6
717.859	0.65
718.039	0.52
718.219	0.63
718.399	0.6
718.579	0.43
718.759	0.5
718.939	0.56
719.12	0.62
719.3	0.55
719.48	0.47
719.66	0.42
719.84	0.7
720.02	0.53
720.2	0.53
720.38	0.54
720.56	0.72
720.74	0.47
720.92	0.55
721.1	0.56
721.279	0.64
721.459	0.56
721.639	0.45
721.819	0.5
721.999	0.59
722.179	0.58
722.359	0.42
722.538	0.53
722.718	0.54
722.898	0.5
723.078	0.53
723.257	0.46
723.437	0.62
723.617	0.62
723.797	0.48
723.976	0.53
724.156	0.61
724.336	0.66
724.515	0.74
724.695	0.38
724.874	0.56
725.054	0.63
725.234	0.51
725.413	0.53
725.593	0.46
725.772	0.48
725.952	0.47
726.131	0.48
726.311	0.44
726.49	0.51
726.67	0.44
726.849	0.49
727.028	0.61
727.208	0.49
727.387	0.54
727.567	0.42
727.746	0.49
727.925	0.49
728.105	0.46
728.284	0.46
728.463	0.47
728.643	0.52
728.822	0.38
729.001	0.44
729.18	0.5
729.359	0.72
729.539	0.46
729.718	0.46
729.897	0.6
730.076	0.49
730.255	0.38
730.434	0.51
730.614	0.52
730.793	0.76
730.972	0.44
731.151	0.44
731.33	0.55
731.509	0.66
731.688	0.54
731.867	0.49
732.046	0.3
732.225	0.8
732.404	0.38
732.583	0.3
732.762	0.59
732.941	0.56
733.12	0.55
733.298	0.5
733.477	0.64
733.656	0.45
733.835	0.31
734.014	0.52
734.193	0.41
734.371	0.5
734.55	0.59
734.729	0.45
734.908	0.48
735.086	0.6
735.265	0.63
735.444	0.34
735.623	0.35
735.801	0.34
735.98	0.5
736.159	0.44
736.337	0.51
736.516	0.57
736.694	0.44
736.873	0.4
737.052	0.68
737.23	0.74
737.409	0.53
737.587	0.73
737.766	0.31
737.944	0.48
738.123	0.64
738.301	0.47
738.479	0.52
738.658	0.61
738.836	0.32
739.015	0.49
739.193	0.68
739.371	0.28
739.55	0.49
739.728	0.4
739.906	0.62
740.085	0.75
740.263	0.44
740.441	0.34
740.62	0.81
740.798	0.6
740.976	0.43
741.154	0.33
741.332	0.67
741.511	0.53
741.689	0.53
741.867	0.62
742.045	0.56
742.223	0.44
742.401	0.36
742.579	0.43
742.757	0.49
742.935	0.35
743.114	0.39
743.292	0.41
743.47	0.56
743.648	0.47
743.826	0.49
744.004	0.45
744.181	0.66
744.359	0.51
744.537	0.47
744.715	0.5
744.893	0.51
745.071	0.59
745.249	0.28
745.427	0.4
745.605	0.53
745.782	0.48
745.96	0.43
746.138	0.47
746.316	0.63
746.493	0.48
746.671	0.38
746.849	0.34
747.027	0.66
747.204	0.36
747.382	0.51
747.56	0.28
747.737	0.48
747.915	0.42
748.093	0.52
748.27	0.37
748.448	0.38
748.625	0.26
748.803	0.28
748.98	0.29
749.158	0.42
749.335	0.58
749.513	0.35
749.69	0.33
749.868	0.38
750.045	0.52
750.223	0.41
750.4	0.21
750.578	0.57
750.755	0.42
750.932	0.3
751.11	0.52
751.287	0.29
751.464	0.5
751.642	0.3
751.819	0.5
751.996	0.46
752.173	0.28
752.351	0.28
752.528	0.34
752.705	0.36
752.882	0.22
753.06	0.37
753.237	0.53
753.414	0.55
753.591	0.64
753.768	0.46
753.945	0.34
754.122	0.32
754.299	0.55
754.476	0.33
754.654	0.38
754.831	0.47
755.008	0.49
755.185	0.39
755.362	0.32
755.539	0.45
755.716	0.39
755.892	0.33
756.069	0.39
756.246	0.53
756.423	0.47
756.6	0.62
756.777	0.25
756.954	0.58
757.131	0.4
757.307	0.31
757.484	0.27
757.661	0.54
757.838	0.44
758.015	0.3
758.191	0.4
758.368	0.38
758.545	0.72
758.721	0.48
758.898	0.16
759.075	0.46
759.251	0.45
759.428	0.5
759.605	0.23
759.781	0.41
759.958	0.38
760.134	0.44
760.311	0.3
760.488	0.46
760.664	0.63
760.841	0.41
761.017	0.26
761.194	0.54
761.37	0.52
761.547	0.42
761.723	0.21
761.899	0.56
762.076	0.23
762.252	0.35
762.429	0.34
762.605	0.55
762.781	0.41
762.958	0.53
763.134	0.27
763.31	0.27
763.486	0.49
763.663	0.15
763.839	0.42
764.015	0.1
764.191	0.28
764.368	0.23
764.544	0.22
764.72	0.51
764.896	0.51
765.072	0.27
765.248	0.38
765.425	0.32
765.601	0.49
765.777	0.39
765.953	0.11
766.129	0.31
766.305	0.32
766.481	0.52
766.657	0.25
766.833	0.66
767.009	0.1
767.185	0.36
767.361	0.45
767.537	0.27
767.713	0.59
767.889	0.46
768.065	0.39
768.24	0.49
768.416	0.58
768.592	0.28
768.768	0.36
768.944	0.44
769.12	0.41
769.295	0.37
769.471	0.35
769.647	0.36
769.823	0.56
769.998	0.27
770.174	0.31
770.35	0.74
770.525	0.7
770.701	0.33
770.877	0.4
771.052	0.15
771.228	0.51
771.403	0.54
771.579	0.26
771.755	0.81
771.93	0.28
772.106	0.25
772.281	0.14
772.457	0.54
772.632	0.44
772.808	0.13
772.983	0.38
773.159	0.14
773.334	0.67
773.509	0.58
773.685	0.34
773.86	0.8
774.036	0.6
774.211	0.38
774.386	0.25
774.562	0.3
774.737	0.78
774.912	0.23
775.087	0.28
775.263	0.3
775.438	0.36
775.613	0.22
775.788	0.4
775.964	0.5
776.139	0.99
776.314	0.15
776.489	0.34
776.664	0.53
776.839	0.26
777.014	0.5
777.19	0.54
777.365	0.7
777.54	0.81
777.715	0.26
777.89	0.43
778.065	0.21
778.24	0.46
778.415	0.64
778.59	0.15
778.765	0.32
778.94	0.55
779.115	0.19
779.289	0.31
779.464	0.37
779.639	0.3
779.814	0.14
779.989	0.13
780.164	0.6
780.339	0.5
780.513	0.25
780.688	0.22
780.863	0.5
781.038	0.52
781.212	0.24
781.387	0.36
781.562	0.77
781.737	0.31
781.911	0.51
782.086	0.16
782.261	0.41
782.435	0.78
782.61	0.28
782.784	0.34
782.959	0.76
783.134	0.38
783.308	0.12
783.483	0.29
783.657	0.97
783.832	0.57
784.006	-0.11
784.181	0.5
784.355	0.66
784.53	0.13
784.704	0.16
784.878	0.57
785.053	0.55
785.227	0.77
785.402	0.87
785.576	0.23
785.75	0.44
785.925	0.27
786.099	0.5
786.273	0.72
786.448	0.76
786.622	0.69
786.796	0.28
786.97	0.54
787.145	1.08
787.319	0.22
787.493	0.26
787.667	0.04
787.841	0.54
788.015	1.02
788.19	0.33
788.364	0.47
788.538	0.74
788.712	0.62
788.886	0.48
789.06	0.62
789.234	0.7
789.408	0.01
789.582	0.4
789.756	0.44
789.93	0.23
790.104	0.16
790.278	0.48
790.452	0.06
790.626	0.57
790.8	0.19
790.973	0.61
791.147	0.59
791.321	0.96
791.495	0.67
791.669	0.6
791.843	0.53
792.016	0.43
792.19	0.87
792.364	0.41
792.538	1.21
792.711	0.94
792.885	0.47
793.059	0
793.233	-0.23
793.406	0.63
793.58	0.42
793.754	0.48
793.927	0.34
794.101	0.69
794.274	0.49
794.448	0.61
794.622	0.21
794.795	1.03
794.969	0.1
795.142	0.94
795.316	0.25
795.489	0.39
795.663	0.94
795.836	0.64
796.009	-0.03
796.183	0.71
796.356	0.59
796.53	0.42
796.703	0.64
796.876	1.27
797.05	0.41
797.223	0.58
797.396	0.55
797.57	0.63
797.743	0.87
797.916	0.7
798.09	0.46
798.263	0.92
798.436	0.81
798.609	0.52
798.782	0.53
798.956	0.69
799.129	0.48
799.302	0.37
799.475	0.38
799.648	0.57
799.821	0.07
799.994	0.52
800.167	0.11
800.34	0.38
800.514	0.49
800.687	0.31
800.86	0.19
801.033	0.85
801.206	0.77
801.379	0.37
801.551	0.92
801.724	0.75
801.897	1.18
802.07	0.6
802.243	0.12
802.416	0.45
802.589	0.76
802.762	0.98
802.935	0.6
803.107	0.87
803.28	1.01
803.453	0.64
803.626	0.48
803.798	0.56
803.971	0.63
804.144	0.65
804.317	0.62
804.489	0.91
804.662	0.72
804.835	0.56
805.007	0.3
805.18	1.4
805.353	0.54
805.525	-0.18
805.698	0.18
805.87	0.92
806.043	0.98
806.215	0.4
806.388	0.25
806.56	0.76
806.733	1.05
806.905	0.65
807.078	0.41
807.25	0.52
807.423	0.89
807.595	0.56
807.768	0.3
807.94	0.89
808.112	0.47
808.285	0.58
808.457	0.09
808.629	1
808.802	1.04
808.974	0.69
809.146	0.13
809.318	0.35
809.491	0.87
809.663	0.92
809.835	0.3
810.007	0.93
810.18	0.61
810.352	0.11
810.524	0.24
810.696	0.97
810.868	1.34
811.04	0.6
811.212	0.22
811.384	0.93
811.556	1.07
811.728	0.54
811.901	1.26
812.073	0.76
812.245	0.72
812.417	0.63
812.589	-0.24
812.76	0.85
812.932	0.9
813.104	1.08
813.276	0.39
813.448	1.16
813.62	0.98
813.792	0.8
813.964	0.49
814.136	0.85
814.307	0.56
814.479	0.16
814.651	0.18
814.823	1.82
814.995	0.88
815.166	0.51
815.338	0.37
815.51	0.48
815.681	1.53
815.853	0.91
816.025	0.73
816.196	1.53
816.368	1.06
816.54	0.19
816.711	0.04
816.883	0.87
817.054	2.03
817.226	-0.56
817.398	0.78
817.569	0.5
817.741	0.32
817.912	0.35
818.084	0.46
818.255	1.37
818.426	0.37
818.598	0.64
818.769	-0.18
818.941	0.79
819.112	1.57
819.283	0.87
819.455	0.3
819.626	0.66
819.798	1.47
819.969	0.88
820.14	0.6
820.311	0.75
820.483	0.9
820.654	1.25
820.825	0.42
820.996	0.21
821.168	0.56
821.339	0.59
821.51	-0.15
821.681	0.5
821.852	0.7
822.023	0.19
822.195	-0.12
822.366	1.65
822.537	0.81
822.708	0.8
822.879	0.4
823.05	1.63
823.221	0.78
823.392	0.96
823.563	0.91
823.734	1.01
823.905	1.12
824.076	0.34
824.247	0.53
824.418	1.08
824.589	1.44
824.759	0.67
824.93	1.03
825.101	0.19
825.272	1.67
825.443	1.04
825.614	1.58
825.784	-0.16
825.955	2.4
826.126	1.52
826.297	0.49
826.467	1.73
826.638	1.82
826.809	0.03
826.98	0.91
827.15	1.63
827.321	0.56
827.492	1.57
827.662	0.92
827.833	2.4
828.003	1.56
828.174	0.08
828.345	0.44
828.515	2.51
828.686	1.02
828.856	0.31
829.027	0.33
829.197	1.43
829.368	1.11
829.538	0.68
829.709	0.8
829.879	0.94
830.049	0.81
830.22	0.55
830.39	0.67
830.56	2.26
830.731	0.84
830.901	-0.2
831.072	0.91
831.242	1.3
831.412	1.49
831.582	0.91
831.753	-0.07
831.923	1.55
832.093	1.24
832.263	0.78
832.434	0.22
832.604	0.73
832.774	1.43
832.944	0.24
833.114	0.5
833.284	1.49
833.454	1.1
833.624	0.56
833.795	0.26
833.965	1.67
834.135	2.43
834.305	-0.65
834.475	-0
834.645	0.84
834.815	1.23
834.985	0.63
835.155	0.33
835.325	1.41
835.494	1.96
835.664	0.92
835.834	0.32
836.004	1.33
836.174	0.84
836.344	0.31
836.514	0.13
836.684	0.89
836.853	1.63
837.023	1.24
837.193	0.01
837.363	2.26
837.532	2
837.702	0.84
837.872	0.49
838.041	1.56
838.211	3.09
838.381	-0.34
838.55	0.48
838.72	3.32
838.89	2.8
839.059	0.79
839.229	0.24
839.398	2.68
839.568	1.1
839.738	0.48
839.907	1.79
840.077	1.58
840.246	0.13
840.416	0.29
840.585	0.25
840.755	2.87
840.924	2.04
841.093	0.36
841.263	0.49
841.432	0.94
841.602	0.39
841.771	0.33
841.94	1.23
842.11	3.54
842.279	2.8
842.448	0.52
842.617	-0.32
842.787	2.87
842.956	0.32
843.125	0.91
843.294	0.98
843.464	2.53
843.633	1.94
843.802	0.44
843.971	1.24
844.14	1.1
844.309	2.05
844.479	-0.81
844.648	0.53
844.817	1.15
844.986	1.44
845.155	0.47
845.324	0.44
845.493	1.14
845.662	0.97
845.831	1.85
846	1.06
846.169	1.7
846.338	3.67
846.507	0.61
846.676	1.17
846.844	0.91
847.013	1.38
847.182	0.7
847.351	0.97
847.52	1.11
847.689	1.7
847.858	0.09
848.026	0.52
848.195	1.89
848.364	0.83
848.533	1.03
848.701	1.03
848.87	1.41
849.039	2.22
849.207	2.36
849.376	1.43
849.545	2.09
849.713	0.31
849.882	1.24
850.051	0.66
850.219	0.92
850.388	1.9
850.556	0.39
850.725	0.35
850.893	2.02
851.062	1.19
851.23	1.65
851.399	-0.01
851.567	0.38
851.736	0.57
851.904	0.26
852.073	0.51
852.241	2.2
852.41	1.31
852.578	1.09
852.746	0.3
852.915	2.42
853.083	1.74
853.251	0.13
853.42	1.57
853.588	1.07
853.756	2.74
853.924	0.84
854.093	2.43
854.261	1.24
854.429	0.4
854.597	1.67
854.765	-0.14
854.934	2.57
855.102	3.78
855.27	1.85
855.438	2.46
855.606	3.56
855.774	3.97
855.942	-0.16
856.11	0.2
856.278	1.67
856.446	2.36
856.614	1.23
856.782	0.37
856.95	3.02
857.118	1.73
857.286	2.71
857.454	0.45
857.622	3.41
857.79	2.81
857.958	0.3
858.126	0.22
858.294	-1.22
858.462	1.55
858.629	0.83
858.797	0.8
858.965	3.31
859.133	2.46
859.301	1.25
859.468	1.52
859.636	1.57
859.804	4.56
859.971	2.58
860.139	1.48
860.307	2.41
860.474	2.31
860.642	0.16
860.81	0.36
860.977	-0
861.145	4.19
861.313	1.52
861.48	0.82
861.648	2.64
861.815	1.27
861.983	-0.66
862.15	0.28
862.318	1.37
862.485	3.27
862.653	0.37
862.82	0.36
862.988	3.12
863.155	-0.28
863.322	0.11
863.49	1.39
863.657	0.53
863.824	3.92
863.992	2.1
864.159	2.64
864.326	2.97
864.494	1.43
864.661	3.07
864.828	0.39
864.996	4.58
865.163	3.95
865.33	0.77
865.497	-1.22
865.664	2.15
865.832	0.71
865.999	0.85
866.166	0.12
866.333	0.39
866.5	0.15
866.667	0.88
866.834	0.34
867.001	4.34
867.168	-0.09
867.335	1.96
867.502	0.34
867.669	2.3
867.836	6.67
868.003	1.72
868.17	2.35
868.337	6.32
868.504	6.72
868.671	-1.14
868.838	1.25
869.005	3.34
869.172	3.64
869.339	2.13
869.505	1.75
869.672	2.45
869.839	6.54
870.006	2.63
870.173	0.38
870.339	1.37
870.506	6.99
870.673	0.46
870.84	4.09
871.006	1.92
871.173	1.5
871.34	1.29
871.506	0.26
871.673	2.71
871.839	0.64
872.006	1.1
872.173	0.15
872.339	3.97
872.506	4.45
872.672	1.71
872.839	-0.72
873.005	2.5
873.172	6.75
873.338	4.12
873.505	2.88
873.671	2.59
873.838	4.01
874.004	-0.22
874.171	-0.34
874.337	4.16
874.503	3.61
874.67	1.82
874.836	1.53
875.002	4.46
875.169	4.43
875.335	1.8
875.501	2.14
875.668	4.7
875.834	0.53
876	1.42
876.166	3.61
876.332	4.81
876.499	6.42
876.665	2.12
876.831	1.35
876.997	7.83
877.163	2.94
877.329	0.2
877.495	1.43
877.662	4.89
877.828	3.51
877.994	1.99
878.16	-2.35
878.326	2.33
878.492	4.96
878.658	1.18
878.824	1.8
878.99	3.83
879.156	0.26
879.322	6.2
879.487	0.95
879.653	3.7
879.819	2.4
879.985	0.48
880.151	1.83
880.317	4.24
880.483	1.83
880.648	4.29
880.814	-0.36
880.98	2.87
881.146	-1.09
881.312	0.28
881.477	1.67
881.643	1.28
881.809	3.2
881.974	2.97
882.14	-1.62
882.306	2.54
882.471	5.44
882.637	2.14
882.803	2.62
882.968	6.86
883.134	5.14
883.299	0.56
883.465	1.77
883.63	4.31
883.796	2.72
883.961	2.67
884.127	2.45
884.292	-2.75
884.458	0.22
884.623	0.22
