Data from Apollo_Calib_20240827__AbsoluteIrradiance__50__23-59-01-757.txt Node

Date: Tue Aug 27 23:59:01 BST 2024
User: biology
Spectrometer: FLMT08252
Trigger mode: 0
Integration Time (sec): 5.000000E-1
Scans to average: 5
Electric dark correction enabled: true
Nonlinearity correction enabled: false
Boxcar width: 0
XAxis mode: Wavelengths
Number of Pixels in Spectrum: 3648
>>>>>Begin Spectral Data<<<<<
179.588	-0
179.809	-0
180.03	-0
180.251	-0
180.473	-0
180.694	0
180.915	0
181.136	-0
181.357	0
181.578	-0
181.799	0
182.02	-0
182.241	-0
182.462	-0
182.683	0
182.904	-0
183.125	-0
183.346	0
183.567	0
183.788	0
184.009	0
184.23	0
184.451	0
184.672	0
184.892	0
185.113	0
185.334	0
185.555	0
185.776	0
185.996	0
186.217	0
186.438	0
186.659	0
186.879	0
187.1	0
187.321	0
187.541	0
187.762	0
187.983	0
188.203	0
188.424	0
188.644	0
188.865	0
189.086	0
189.306	0
189.527	0
189.747	0
189.968	0
190.188	0
190.409	0
190.629	0
190.849	0
191.07	0
191.29	0
191.511	0
191.731	0
191.951	0
192.172	0
192.392	0
192.612	0
192.833	0
193.053	0
193.273	0
193.493	0
193.714	0
193.934	0
194.154	0
194.374	0
194.594	0
194.815	0
195.035	0
195.255	0
195.475	0
195.695	0
195.915	0
196.135	0
196.355	0
196.575	0
196.795	0
197.015	0
197.235	0
197.455	0
197.675	0
197.895	0
198.115	0
198.335	0
198.555	0
198.775	0
198.995	0
199.214	0
199.434	0
199.654	0
199.874	0
200.094	4.29
200.313	2.81
200.533	2.52
200.753	2.21
200.973	3.95
201.192	3.61
201.412	1.51
201.632	1.98
201.851	3.52
202.071	1.91
202.291	2.15
202.51	2.03
202.73	2.98
202.95	1.66
203.169	1.43
203.389	2.06
203.608	2.33
203.828	1.75
204.047	2
204.267	2.7
204.486	2.19
204.706	2.36
204.925	2.02
205.145	2.04
205.364	2.37
205.583	2.82
205.803	1.85
206.022	1.11
206.242	1.89
206.461	1.98
206.68	1.44
206.9	1.83
207.119	2.27
207.338	2.09
207.557	1.37
207.777	1.3
207.996	1.57
208.215	2.2
208.434	1.35
208.654	0.73
208.873	1.63
209.092	1.87
209.311	1.36
209.53	1.36
209.749	1.21
209.968	1.53
210.187	1.07
210.407	0.75
210.626	1.16
210.845	1.67
211.064	1.41
211.283	0.95
211.502	1.56
211.721	1.27
211.94	1.09
212.159	1.36
212.377	1.38
212.596	1.7
212.815	1.24
213.034	1.3
213.253	1.36
213.472	1.43
213.691	0.92
213.91	0.69
214.128	0.93
214.347	1.61
214.566	0.81
214.785	0.84
215.003	1.33
215.222	1.25
215.441	0.92
215.66	0.76
215.878	0.99
216.097	1.28
216.316	0.89
216.534	0.85
216.753	1.15
216.972	0.95
217.19	0.77
217.409	0.77
217.627	1
217.846	0.86
218.064	0.98
218.283	0.75
218.501	1.54
218.72	0.96
218.938	0.77
219.157	0.87
219.375	1.15
219.594	1.03
219.812	0.8
220.031	0.7
220.249	1.21
220.467	1.09
220.686	0.71
220.904	0.75
221.122	0.81
221.341	1.22
221.559	0.87
221.777	0.59
221.995	0.81
222.214	0.96
222.432	0.75
222.65	0.95
222.868	0.91
223.086	0.9
223.305	0.94
223.523	0.64
223.741	1.1
223.959	0.7
224.177	0.54
224.395	0.71
224.613	0.82
224.831	0.99
225.049	0.64
225.267	0.72
225.485	0.86
225.703	0.7
225.921	0.57
226.139	0.66
226.357	0.92
226.575	0.8
226.793	0.54
227.011	1.33
227.229	0.68
227.447	0.88
227.665	0.55
227.883	0.45
228.1	0.75
228.318	0.73
228.536	0.45
228.754	0.52
228.972	0.82
229.189	0.78
229.407	0.55
229.625	0.5
229.843	0.99
230.06	0.74
230.278	0.51
230.496	0.63
230.713	0.59
230.931	0.86
231.149	0.67
231.366	0.44
231.584	0.54
231.801	1.07
232.019	0.63
232.236	0.44
232.454	0.53
232.671	0.67
232.889	0.58
233.106	0.42
233.324	0.6
233.541	0.63
233.759	0.59
233.976	0.5
234.194	0.57
234.411	0.7
234.628	0.44
234.846	0.58
235.063	0.57
235.28	0.53
235.498	0.59
235.715	0.48
235.932	0.79
236.149	0.65
236.367	0.5
236.584	0.62
236.801	0.53
237.018	0.66
237.236	0.57
237.453	0.37
237.67	0.71
237.887	0.46
238.104	0.5
238.321	0.38
238.538	0.39
238.755	0.71
238.973	0.43
239.19	0.44
239.407	0.59
239.624	0.51
239.841	0.4
240.058	0.43
240.275	0.48
240.492	0.5
240.709	0.52
240.925	0.55
241.142	0.55
241.359	0.32
241.576	0.41
241.793	0.44
242.01	0.47
242.227	0.58
242.444	0.52
242.66	0.73
242.877	0.52
243.094	0.45
243.311	0.48
243.527	0.46
243.744	0.62
243.961	0.58
244.178	0.44
244.394	0.52
244.611	0.56
244.828	0.68
245.044	0.36
245.261	0.39
245.477	0.54
245.694	0.5
245.911	0.39
246.127	0.52
246.344	0.55
246.56	0.57
246.777	0.4
246.993	0.5
247.21	0.5
247.426	0.63
247.643	0.38
247.859	0.39
248.076	0.41
248.292	0.67
248.508	0.41
248.725	0.48
248.941	0.42
249.157	0.5
249.374	0.48
249.59	0.46
249.806	0.48
250.023	0.52
250.239	0.41
250.455	0.36
250.671	0.46
250.888	0.57
251.104	0.5
251.32	0.45
251.536	0.43
251.752	0.41
251.969	0.35
252.185	0.44
252.401	0.7
252.617	0.49
252.833	0.4
253.049	0.45
253.265	0.46
253.481	0.48
253.697	0.36
253.913	0.4
254.129	0.47
254.345	0.45
254.561	0.38
254.777	0.4
254.993	0.51
255.209	0.4
255.425	0.37
255.641	0.4
255.857	0.44
256.073	0.42
256.288	0.33
256.504	0.42
256.72	0.47
256.936	0.53
257.152	0.36
257.367	0.37
257.583	0.39
257.799	0.41
258.015	0.43
258.23	0.38
258.446	0.57
258.662	0.45
258.877	0.32
259.093	0.34
259.309	0.39
259.524	0.41
259.74	0.36
259.955	0.31
260.171	0.43
260.387	0.32
260.602	0.48
260.818	0.48
261.033	0.28
261.249	0.37
261.464	0.29
261.68	0.31
261.895	0.47
262.11	0.46
262.326	0.3
262.541	0.27
262.757	0.49
262.972	0.39
263.187	0.41
263.403	0.43
263.618	0.45
263.833	0.42
264.049	0.33
264.264	0.38
264.479	0.32
264.694	0.48
264.91	0.32
265.125	0.35
265.34	0.45
265.555	0.57
265.77	0.41
265.986	0.39
266.201	0.43
266.416	0.51
266.631	0.27
266.846	0.37
267.061	0.44
267.276	0.47
267.491	0.23
267.706	0.37
267.921	0.42
268.136	0.38
268.351	0.35
268.566	0.31
268.781	0.45
268.996	0.5
269.211	0.36
269.426	0.32
269.641	0.28
269.856	0.4
270.071	0.33
270.285	0.29
270.5	0.47
270.715	0.45
270.93	0.31
271.145	0.32
271.359	0.44
271.574	0.35
271.789	0.36
272.004	0.34
272.218	0.28
272.433	0.42
272.648	0.29
272.862	0.45
273.077	0.38
273.292	0.39
273.506	0.24
273.721	0.33
273.936	0.38
274.15	0.42
274.365	0.36
274.579	0.41
274.794	0.44
275.008	0.42
275.223	0.28
275.437	0.34
275.652	0.35
275.866	0.37
276.081	0.31
276.295	0.44
276.509	0.31
276.724	0.38
276.938	0.39
277.153	0.36
277.367	0.42
277.581	0.32
277.796	0.33
278.01	0.27
278.224	0.38
278.438	0.45
278.653	0.28
278.867	0.23
279.081	0.19
279.295	0.34
279.51	0.36
279.724	0.28
279.938	0.39
280.152	0.39
280.366	0.29
280.58	0.36
280.794	0.42
281.008	0.37
281.222	0.42
281.437	0.44
281.651	0.38
281.865	0.39
282.079	0.28
282.293	0.24
282.507	0.3
282.721	0.36
282.935	0.35
283.148	0.21
283.362	0.33
283.576	0.23
283.79	0.31
284.004	0.28
284.218	0.42
284.432	0.24
284.646	0.34
284.859	0.25
285.073	0.32
285.287	0.32
285.501	0.32
285.714	0.26
285.928	0.32
286.142	0.3
286.356	0.32
286.569	0.26
286.783	0.39
286.997	0.41
287.21	0.35
287.424	0.28
287.637	0.31
287.851	0.32
288.065	0.34
288.278	0.29
288.492	0.32
288.705	0.29
288.919	0.37
289.132	0.22
289.346	0.36
289.559	0.18
289.773	0.24
289.986	0.33
290.2	0.29
290.413	0.38
290.626	0.23
290.84	0.26
291.053	0.33
291.267	0.39
291.48	0.25
291.693	0.3
291.906	0.26
292.12	0.22
292.333	0.29
292.546	0.25
292.76	0.39
292.973	0.29
293.186	0.36
293.399	0.27
293.612	0.36
293.826	0.29
294.039	0.29
294.252	0.29
294.465	0.34
294.678	0.34
294.891	0.31
295.104	0.26
295.317	0.27
295.53	0.3
295.743	0.31
295.956	0.29
296.169	0.36
296.382	0.33
296.595	0.28
296.808	0.22
297.021	0.34
297.234	0.33
297.447	0.24
297.66	0.28
297.873	0.37
298.086	0.35
298.299	0.28
298.511	0.21
298.724	0.32
298.937	0.21
299.15	0.23
299.363	0.25
299.575	0.28
299.788	0.28
300.001	0.28
300.213	0.24
300.426	0.24
300.639	0.25
300.852	0.27
301.064	0.35
301.277	0.39
301.489	0.32
301.702	0.32
301.915	0.26
302.127	0.29
302.34	0.29
302.552	0.36
302.765	0.27
302.977	0.33
303.19	0.23
303.402	0.24
303.615	0.25
303.827	0.27
304.04	0.27
304.252	0.3
304.464	0.24
304.677	0.33
304.889	0.3
305.102	0.25
305.314	0.25
305.526	0.31
305.739	0.3
305.951	0.22
306.163	0.28
306.375	0.33
306.588	0.28
306.8	0.24
307.012	0.21
307.224	0.26
307.436	0.32
307.649	0.25
307.861	0.26
308.073	0.32
308.285	0.28
308.497	0.24
308.709	0.25
308.921	0.3
309.133	0.27
309.346	0.26
309.558	0.25
309.77	0.33
309.982	0.31
310.194	0.3
310.406	0.27
310.617	0.35
310.829	0.28
311.041	0.3
311.253	0.25
311.465	0.26
311.677	0.25
311.889	0.3
312.101	0.23
312.313	0.34
312.524	0.33
312.736	0.23
312.948	0.24
313.16	0.33
313.372	0.31
313.583	0.28
313.795	0.25
314.007	0.29
314.218	0.31
314.43	0.25
314.642	0.26
314.853	0.22
315.065	0.29
315.277	0.28
315.488	0.27
315.7	0.31
315.912	0.28
316.123	0.28
316.335	0.27
316.546	0.37
316.758	0.26
316.969	0.24
317.181	0.28
317.392	0.26
317.604	0.34
317.815	0.23
318.026	0.23
318.238	0.26
318.449	0.31
318.661	0.17
318.872	0.22
319.083	0.22
319.295	0.3
319.506	0.25
319.717	0.29
319.929	0.29
320.14	0.29
320.351	0.33
320.562	0.25
320.774	0.27
320.985	0.26
321.196	0.27
321.407	0.16
321.618	0.33
321.829	0.27
322.041	0.32
322.252	0.23
322.463	0.3
322.674	0.28
322.885	0.24
323.096	0.28
323.307	0.27
323.518	0.3
323.729	0.23
323.94	0.28
324.151	0.3
324.362	0.28
324.573	0.3
324.784	0.29
324.995	0.38
325.206	0.28
325.417	0.25
325.628	0.27
325.838	0.23
326.049	0.27
326.26	0.29
326.471	0.23
326.682	0.29
326.892	0.27
327.103	0.23
327.314	0.21
327.525	0.34
327.735	0.27
327.946	0.26
328.157	0.25
328.368	0.32
328.578	0.19
328.789	0.29
328.999	0.25
329.21	0.24
329.421	0.29
329.631	0.23
329.842	0.23
330.052	0.29
330.263	0.28
330.473	0.33
330.684	0.23
330.894	0.29
331.105	0.28
331.315	0.29
331.526	0.18
331.736	0.38
331.947	0.29
332.157	0.28
332.367	0.19
332.578	0.32
332.788	0.29
332.999	0.3
333.209	0.27
333.419	0.21
333.629	0.31
333.84	0.3
334.05	0.25
334.26	0.31
334.47	0.29
334.681	0.32
334.891	0.23
335.101	0.28
335.311	0.36
335.521	0.24
335.732	0.24
335.942	0.34
336.152	0.27
336.362	0.26
336.572	0.24
336.782	0.3
336.992	0.27
337.202	0.27
337.412	0.29
337.622	0.33
337.832	0.27
338.042	0.24
338.252	0.28
338.462	0.26
338.672	0.29
338.882	0.27
339.092	0.3
339.302	0.32
339.511	0.29
339.721	0.25
339.931	0.26
340.141	0.32
340.351	0.3
340.561	0.29
340.77	0.27
340.98	0.26
341.19	0.29
341.4	0.24
341.609	0.22
341.819	0.23
342.029	0.21
342.238	0.22
342.448	0.24
342.658	0.31
342.867	0.28
343.077	0.25
343.286	0.27
343.496	0.26
343.706	0.33
343.915	0.22
344.125	0.29
344.334	0.33
344.544	0.2
344.753	0.22
344.963	0.26
345.172	0.22
345.381	0.22
345.591	0.25
345.8	0.22
346.01	0.31
346.219	0.27
346.428	0.18
346.638	0.26
346.847	0.27
347.056	0.33
347.266	0.17
347.475	0.26
347.684	0.34
347.893	0.28
348.103	0.28
348.312	0.23
348.521	0.22
348.73	0.25
348.94	0.27
349.149	0.26
349.358	0.24
349.567	0.24
349.776	0.21
349.985	0.26
350.194	0.27
350.403	0.29
350.612	0.2
350.821	0.25
351.03	0.3
351.239	0.17
351.448	0.26
351.657	0.23
351.866	0.37
352.075	0.27
352.284	0.31
352.493	0.23
352.702	0.33
352.911	0.32
353.12	0.29
353.329	0.23
353.538	0.26
353.746	0.26
353.955	0.2
354.164	0.28
354.373	0.29
354.582	0.3
354.79	0.26
354.999	0.28
355.208	0.29
355.416	0.28
355.625	0.2
355.834	0.26
356.042	0.27
356.251	0.25
356.46	0.25
356.668	0.3
356.877	0.33
357.085	0.31
357.294	0.2
357.503	0.25
357.711	0.25
357.92	0.42
358.128	0.31
358.337	0.26
358.545	0.28
358.754	0.25
358.962	0.29
359.17	0.24
359.379	0.27
359.587	0.28
359.796	0.21
360.004	0.35
360.212	0.31
360.421	0.33
360.629	0.24
360.837	0.27
361.046	0.28
361.254	0.41
361.462	0.27
361.67	0.25
361.879	0.3
362.087	0.33
362.295	0.26
362.503	0.23
362.711	0.21
362.92	0.27
363.128	0.26
363.336	0.21
363.544	0.21
363.752	0.27
363.96	0.25
364.168	0.24
364.376	0.24
364.584	0.28
364.792	0.3
365	0.3
365.208	0.28
365.416	0.3
365.624	0.27
365.832	0.23
366.04	0.3
366.248	0.27
366.456	0.28
366.664	0.27
366.872	0.21
367.079	0.25
367.287	0.26
367.495	0.27
367.703	0.24
367.911	0.23
368.118	0.25
368.326	0.29
368.534	0.23
368.742	0.33
368.949	0.24
369.157	0.22
369.365	0.32
369.572	0.22
369.78	0.26
369.988	0.31
370.195	0.26
370.403	0.33
370.61	0.22
370.818	0.23
371.026	0.34
371.233	0.24
371.441	0.23
371.648	0.23
371.856	0.28
372.063	0.26
372.271	0.27
372.478	0.27
372.685	0.27
372.893	0.33
373.1	0.21
373.308	0.19
373.515	0.37
373.722	0.32
373.93	0.24
374.137	0.29
374.344	0.36
374.552	0.32
374.759	0.3
374.966	0.24
375.173	0.25
375.381	0.33
375.588	0.28
375.795	0.19
376.002	0.22
376.209	0.24
376.417	0.28
376.624	0.27
376.831	0.31
377.038	0.22
377.245	0.18
377.452	0.29
377.659	0.25
377.866	0.26
378.073	0.25
378.28	0.28
378.487	0.33
378.694	0.32
378.901	0.26
379.108	0.26
379.315	0.32
379.522	0.33
379.729	0.27
379.936	0.26
380.143	0.29
380.35	0.3
380.557	0.28
380.763	0.31
380.97	0.31
381.177	0.33
381.384	0.25
381.591	0.25
381.797	0.22
382.004	0.32
382.211	0.31
382.418	0.24
382.624	0.33
382.831	0.36
383.038	0.23
383.244	0.32
383.451	0.26
383.658	0.33
383.864	0.27
384.071	0.24
384.277	0.39
384.484	0.3
384.69	0.35
384.897	0.28
385.103	0.29
385.31	0.26
385.516	0.3
385.723	0.23
385.929	0.28
386.136	0.27
386.342	0.34
386.549	0.25
386.755	0.36
386.961	0.33
387.168	0.27
387.374	0.37
387.58	0.4
387.787	0.28
387.993	0.35
388.199	0.34
388.406	0.29
388.612	0.3
388.818	0.25
389.024	0.27
389.231	0.34
389.437	0.39
389.643	0.32
389.849	0.31
390.055	0.29
390.261	0.36
390.467	0.32
390.674	0.31
390.88	0.28
391.086	0.33
391.292	0.26
391.498	0.39
391.704	0.31
391.91	0.29
392.116	0.27
392.322	0.26
392.528	0.32
392.734	0.26
392.94	0.3
393.146	0.34
393.352	0.34
393.557	0.32
393.763	0.32
393.969	0.31
394.175	0.26
394.381	0.35
394.587	0.24
394.792	0.32
394.998	0.38
395.204	0.39
395.41	0.33
395.615	0.3
395.821	0.38
396.027	0.36
396.233	0.33
396.438	0.29
396.644	0.39
396.85	0.39
397.055	0.36
397.261	0.34
397.466	0.45
397.672	0.37
397.878	0.4
398.083	0.4
398.289	0.35
398.494	0.41
398.7	0.39
398.905	0.29
399.111	0.47
399.316	0.34
399.522	0.35
399.727	0.34
399.932	0.3
400.138	0.33
400.343	0.43
400.549	0.34
400.754	0.39
400.959	0.37
401.165	0.37
401.37	0.33
401.575	0.48
401.78	0.38
401.986	0.38
402.191	0.39
402.396	0.43
402.601	0.39
402.807	0.43
403.012	0.4
403.217	0.45
403.422	0.41
403.627	0.38
403.832	0.38
404.037	0.52
404.243	0.47
404.448	0.47
404.653	0.44
404.858	0.51
405.063	0.49
405.268	0.42
405.473	0.43
405.678	0.43
405.883	0.62
406.088	0.53
406.293	0.46
406.498	0.39
406.703	0.5
406.907	0.5
407.112	0.48
407.317	0.57
407.522	0.58
407.727	0.48
407.932	0.58
408.136	0.66
408.341	0.57
408.546	0.64
408.751	0.58
408.956	0.64
409.16	0.65
409.365	0.67
409.57	0.63
409.774	0.67
409.979	0.71
410.184	0.67
410.388	0.69
410.593	0.79
410.798	0.74
411.002	0.76
411.207	0.85
411.411	0.83
411.616	0.75
411.82	0.86
412.025	0.94
412.229	0.85
412.434	0.95
412.638	0.97
412.843	0.92
413.047	1.01
413.252	0.97
413.456	1.03
413.66	1.1
413.865	1.08
414.069	1.22
414.273	1.12
414.478	1.17
414.682	1.22
414.886	1.27
415.091	1.23
415.295	1.26
415.499	1.42
415.703	1.34
415.908	1.52
416.112	1.4
416.316	1.63
416.52	1.62
416.724	1.62
416.929	1.63
417.133	1.89
417.337	1.77
417.541	1.85
417.745	1.89
417.949	1.99
418.153	2.03
418.357	2.13
418.561	2.32
418.765	2.24
418.969	2.42
419.173	2.5
419.377	2.5
419.581	2.67
419.785	2.64
419.989	2.71
420.193	2.87
420.397	2.96
420.601	3.06
420.804	3.15
421.008	3.16
421.212	3.32
421.416	3.28
421.62	3.39
421.823	3.44
422.027	3.59
422.231	3.58
422.435	3.58
422.638	3.62
422.842	3.79
423.046	3.82
423.249	3.98
423.453	4
423.657	4.17
423.86	4.29
424.064	4.35
424.268	4.54
424.471	4.56
424.675	4.74
424.878	4.89
425.082	4.95
425.285	5.32
425.489	5.2
425.692	5.27
425.896	5.28
426.099	5.63
426.303	5.7
426.506	5.88
426.71	6.14
426.913	6.26
427.116	6.46
427.32	6.41
427.523	6.49
427.726	6.85
427.93	6.91
428.133	7.17
428.336	7.46
428.54	7.56
428.743	7.76
428.946	7.96
429.149	8.06
429.353	8.01
429.556	8.05
429.759	8.13
429.962	8.24
430.165	8.42
430.368	8.03
430.571	8.23
430.775	8.17
430.978	8.13
431.181	8.18
431.384	8.3
431.587	8.41
431.79	8.85
431.993	8.86
432.196	9.01
432.399	9.36
432.602	9.53
432.805	9.6
433.008	10.13
433.211	10.06
433.414	10.46
433.616	10.4
433.819	10.37
434.022	10.53
434.225	10.7
434.428	10.67
434.631	11.11
434.833	10.88
435.036	11.26
435.239	11.46
435.442	11.46
435.645	11.61
435.847	11.69
436.05	12.05
436.253	12.16
436.455	12.27
436.658	12.1
436.861	12.52
437.063	12.68
437.266	12.54
437.468	12.89
437.671	13.12
437.874	13.21
438.076	13.08
438.279	13.68
438.481	13.51
438.684	14.28
438.886	13.98
439.089	14.3
439.291	14.27
439.494	14.66
439.696	14.79
439.899	15.34
440.101	15.77
440.303	15.79
440.506	16.74
440.708	16.43
440.91	16.71
441.113	16.7
441.315	17.02
441.517	16.92
441.72	17.37
441.922	17
442.124	17.04
442.326	17.21
442.529	17.57
442.731	17.48
442.933	17.93
443.135	17.52
443.337	17.7
443.539	18.17
443.742	17.78
443.944	18.49
444.146	18.21
444.348	18.13
444.55	18.05
444.752	18.2
444.954	18.25
445.156	18.15
445.358	18.65
445.56	18.84
445.762	18.71
445.964	18.96
446.166	18.71
446.368	18.73
446.57	18.69
446.772	18.24
446.974	18.12
447.175	18.4
447.377	18.13
447.579	18.43
447.781	18.15
447.983	17.98
448.184	17.5
448.386	17.87
448.588	17.53
448.79	17.27
448.991	17.51
449.193	17.52
449.395	16.96
449.597	16.45
449.798	16.36
450	16.08
450.202	15.75
450.403	15.93
450.605	15.74
450.806	15.5
451.008	15.24
451.21	14.98
451.411	14.68
451.613	13.85
451.814	14
452.016	14.13
452.217	13.32
452.419	13.36
452.62	13
452.821	12.68
453.023	12.57
453.224	12.25
453.426	11.85
453.627	11.19
453.828	11.27
454.03	11.39
454.231	11.41
454.432	11.11
454.634	10.85
454.835	10.49
455.036	10.41
455.238	10.01
455.439	9.82
455.64	9.55
455.841	9.34
456.042	9.53
456.244	9.21
456.445	8.86
456.646	8.66
456.847	8.6
457.048	8.4
457.249	8.41
457.45	8.22
457.651	7.74
457.852	7.55
458.054	7.24
458.255	7.23
458.456	7.17
458.657	7.15
458.858	6.68
459.058	6.69
459.259	6.79
459.46	6.38
459.661	6.37
459.862	6.48
460.063	6.32
460.264	6.3
460.465	6.02
460.666	6.05
460.866	5.74
461.067	5.42
461.268	5.6
461.469	5.52
461.67	5.33
461.87	5.26
462.071	5.31
462.272	5.11
462.473	5.08
462.673	5.36
462.874	5.2
463.075	5.1
463.275	5.13
463.476	5.07
463.676	5.1
463.877	4.93
464.078	4.89
464.278	4.94
464.479	4.86
464.679	4.68
464.88	4.71
465.08	4.68
465.281	4.51
465.481	4.36
465.682	4.2
465.882	4.24
466.083	4.09
466.283	3.99
466.483	3.89
466.684	3.72
466.884	3.67
467.085	3.71
467.285	3.71
467.485	3.64
467.686	3.51
467.886	3.4
468.086	3.32
468.286	3.4
468.487	3.45
468.687	3.26
468.887	3.23
469.087	3.35
469.287	3.2
469.488	3.05
469.688	3.21
469.888	3.18
470.088	3.19
470.288	3.08
470.488	3
470.688	2.89
470.888	2.84
471.088	2.75
471.288	2.83
471.488	2.77
471.688	2.69
471.888	2.65
472.088	2.82
472.288	2.71
472.488	2.61
472.688	2.53
472.888	2.55
473.088	2.62
473.288	2.48
473.488	2.43
473.688	2.6
473.887	2.43
474.087	2.42
474.287	2.41
474.487	2.4
474.687	2.43
474.886	2.36
475.086	2.31
475.286	2.35
475.486	2.29
475.685	2.26
475.885	2.21
476.085	2.27
476.284	2.25
476.484	2.3
476.684	2.2
476.883	2.24
477.083	2.24
477.282	2.1
477.482	2.23
477.681	2.14
477.881	2.04
478.08	2.08
478.28	2.03
478.479	2.1
478.679	2.13
478.878	2.06
479.078	2.05
479.277	2.07
479.477	2.06
479.676	2.01
479.875	2
480.075	2
480.274	1.99
480.473	2.07
480.673	2.05
480.872	2.05
481.071	2.04
481.271	2.03
481.47	2
481.669	1.98
481.868	1.95
482.067	1.98
482.267	1.93
482.466	1.97
482.665	1.93
482.864	1.95
483.063	1.92
483.262	2.01
483.461	2.03
483.661	2.08
483.86	2.01
484.059	2.09
484.258	2.04
484.457	2
484.656	2.01
484.855	2.09
485.054	1.92
485.253	1.97
485.452	1.93
485.651	2.09
485.849	2.09
486.048	2
486.247	2.03
486.446	2.04
486.645	2.06
486.844	2.08
487.043	2.05
487.241	2.09
487.44	2.04
487.639	2.1
487.838	2.09
488.037	2.08
488.235	2.18
488.434	2.17
488.633	2.04
488.831	2.22
489.03	2.23
489.229	2.21
489.427	2.25
489.626	2.25
489.825	2.25
490.023	2.31
490.222	2.25
490.42	2.31
490.619	2.35
490.817	2.33
491.016	2.34
491.214	2.44
491.413	2.38
491.611	2.33
491.81	2.43
492.008	2.44
492.207	2.54
492.405	2.55
492.604	2.48
492.802	2.53
493	2.6
493.199	2.64
493.397	2.69
493.595	2.66
493.794	2.63
493.992	2.82
494.19	2.74
494.388	2.8
494.587	2.67
494.785	2.78
494.983	2.69
495.181	2.87
495.379	2.9
495.578	2.96
495.776	2.94
495.974	2.94
496.172	2.94
496.37	3.1
496.568	3.15
496.766	3.1
496.964	3.13
497.162	3.16
497.36	3.2
497.558	3.24
497.756	3.27
497.954	3.31
498.152	3.38
498.35	3.43
498.548	3.35
498.746	3.36
498.944	3.43
499.142	3.43
499.34	3.56
499.538	3.65
499.736	3.48
499.933	3.67
500.131	3.62
500.329	3.78
500.527	3.74
500.725	3.83
500.922	3.82
501.12	3.89
501.318	3.95
501.516	3.97
501.713	4.05
501.911	3.98
502.109	3.95
502.306	4.1
502.504	3.99
502.701	4.1
502.899	4.16
503.097	4.39
503.294	4.16
503.492	4.35
503.689	4.35
503.887	4.32
504.084	4.47
504.282	4.45
504.479	4.4
504.677	4.59
504.874	4.5
505.072	4.45
505.269	4.64
505.466	4.69
505.664	4.76
505.861	4.65
506.059	4.78
506.256	4.78
506.453	4.84
506.651	4.99
506.848	4.99
507.045	4.97
507.242	4.97
507.44	5.02
507.637	5.09
507.834	5.04
508.031	5.21
508.229	5.16
508.426	5.08
508.623	5.29
508.82	5.31
509.017	5.23
509.214	5.3
509.411	5.43
509.608	5.36
509.805	5.51
510.003	5.43
510.2	5.49
510.397	5.67
510.594	5.58
510.791	5.67
510.988	5.57
511.184	5.61
511.381	5.51
511.578	5.64
511.775	5.85
511.972	5.71
512.169	5.83
512.366	5.87
512.563	5.93
512.76	5.96
512.956	6
513.153	5.99
513.35	5.87
513.547	5.92
513.744	6.05
513.94	6.07
514.137	6.14
514.334	6.09
514.53	6.17
514.727	6.37
514.924	6.22
515.12	6.28
515.317	6.27
515.514	6.2
515.71	6.15
515.907	6.41
516.103	6.48
516.3	6.37
516.497	6.48
516.693	6.51
516.89	6.48
517.086	6.51
517.283	6.59
517.479	6.38
517.676	6.6
517.872	6.67
518.068	6.66
518.265	6.67
518.461	6.53
518.658	6.7
518.854	6.76
519.05	6.81
519.247	6.81
519.443	6.77
519.639	6.92
519.836	6.76
520.032	6.76
520.228	6.96
520.424	6.87
520.621	6.93
520.817	6.99
521.013	6.91
521.209	7.13
521.405	7.08
521.601	7.01
521.798	7
521.994	7.06
522.19	6.97
522.386	7.09
522.582	7.17
522.778	7.21
522.974	7.12
523.17	7.14
523.366	7.16
523.562	7.18
523.758	7.22
523.954	6.97
524.15	7.21
524.346	7.26
524.542	7.3
524.738	7.26
524.934	7.38
525.129	7.34
525.325	7.26
525.521	7.23
525.717	7.49
525.913	7.32
526.109	7.31
526.304	7.45
526.5	7.46
526.696	7.51
526.892	7.38
527.087	7.61
527.283	7.47
527.479	7.52
527.674	7.34
527.87	7.46
528.066	7.49
528.261	7.47
528.457	7.45
528.653	7.64
528.848	7.59
529.044	7.7
529.239	7.51
529.435	7.53
529.63	7.49
529.826	7.55
530.021	7.55
530.217	7.58
530.412	7.66
530.608	7.65
530.803	7.65
530.999	7.5
531.194	7.64
531.389	7.75
531.585	7.67
531.78	7.85
531.975	7.71
532.171	7.77
532.366	7.74
532.561	7.78
532.757	7.74
532.952	7.88
533.147	7.65
533.342	7.78
533.538	7.7
533.733	7.88
533.928	7.6
534.123	7.81
534.318	7.85
534.513	7.73
534.709	7.95
534.904	7.86
535.099	7.93
535.294	7.9
535.489	7.93
535.684	7.89
535.879	7.87
536.074	7.91
536.269	7.91
536.464	7.94
536.659	7.87
536.854	7.91
537.049	8.03
537.244	7.88
537.439	7.9
537.634	7.89
537.828	7.97
538.023	7.92
538.218	7.92
538.413	7.84
538.608	7.95
538.803	7.93
538.997	7.94
539.192	7.94
539.387	7.9
539.582	7.88
539.776	7.89
539.971	8.01
540.166	8.01
540.36	7.93
540.555	8.04
540.75	7.99
540.944	7.97
541.139	7.97
541.334	8.05
541.528	7.99
541.723	8.09
541.917	8.12
542.112	7.91
542.306	7.85
542.501	7.93
542.695	8.02
542.89	7.89
543.084	7.99
543.279	8.07
543.473	8.05
543.668	8.12
543.862	7.95
544.056	7.9
544.251	8.07
544.445	8.16
544.64	8.13
544.834	7.8
545.028	7.72
545.222	8.03
545.417	8.21
545.611	8.11
545.805	8.1
546	7.85
546.194	8.06
546.388	8.09
546.582	7.95
546.776	8
546.97	8.08
547.165	8.06
547.359	7.96
547.553	7.98
547.747	7.97
547.941	8.21
548.135	8.07
548.329	8.14
548.523	8.08
548.717	7.98
548.911	8
549.105	7.98
549.299	8.07
549.493	8.13
549.687	8
549.881	8.13
550.075	8.08
550.269	8.03
550.463	8.14
550.657	8.06
550.85	8.04
551.044	8.09
551.238	8.17
551.432	8.04
551.626	8.11
551.82	8.16
552.013	8.04
552.207	8.16
552.401	8.15
552.594	8.05
552.788	8.04
552.982	8.09
553.176	8
553.369	8.22
553.563	8.13
553.756	8.06
553.95	8.19
554.144	8.14
554.337	8.17
554.531	7.96
554.724	8.15
554.918	8.23
555.111	8.05
555.305	8.06
555.498	8.05
555.692	8.23
555.885	8.14
556.079	8.08
556.272	8.06
556.466	8.12
556.659	8.09
556.852	8.16
557.046	8.02
557.239	7.98
557.432	8.03
557.626	8.19
557.819	8.2
558.012	8.13
558.206	8.18
558.399	8.14
558.592	8.16
558.785	8.06
558.979	8.06
559.172	8.12
559.365	8.11
559.558	8.09
559.751	8
559.944	8.19
560.138	8.11
560.331	8.14
560.524	8.2
560.717	8.11
560.91	8.17
561.103	8.15
561.296	7.98
561.489	8.09
561.682	8.19
561.875	8.14
562.068	8.26
562.261	8.01
562.454	8.25
562.647	8.06
562.84	8.09
563.032	8.16
563.225	8.11
563.418	8.05
563.611	8.15
563.804	8.14
563.997	8
564.19	7.91
564.382	8.18
564.575	8.1
564.768	7.97
564.961	8.2
565.153	8.01
565.346	7.97
565.539	8.16
565.731	8.04
565.924	8.17
566.117	8.32
566.309	8.12
566.502	8.07
566.695	8.05
566.887	8.15
567.08	8.1
567.272	8.14
567.465	7.98
567.657	8.1
567.85	7.98
568.042	8.15
568.235	8.12
568.427	7.92
568.62	8.03
568.812	8.08
569.005	8.17
569.197	8.04
569.389	8.05
569.582	8.04
569.774	8.12
569.966	8.04
570.159	7.95
570.351	7.94
570.543	7.99
570.736	8.08
570.928	7.9
571.12	8.07
571.312	7.95
571.505	7.82
571.697	8.01
571.889	8.03
572.081	8
572.273	7.96
572.465	8.09
572.658	8.04
572.85	8.03
573.042	8
573.234	7.87
573.426	7.91
573.618	7.94
573.81	8.04
574.002	7.95
574.194	8
574.386	7.97
574.578	7.77
574.77	7.94
574.962	7.96
575.154	7.85
575.346	7.84
575.538	7.79
575.729	7.85
575.921	7.95
576.113	7.97
576.305	7.91
576.497	8.01
576.689	7.8
576.88	7.77
577.072	7.94
577.264	7.89
577.456	7.9
577.647	7.82
577.839	8.02
578.031	7.84
578.223	7.81
578.414	7.75
578.606	7.81
578.798	7.9
578.989	7.81
579.181	7.92
579.372	7.9
579.564	7.84
579.755	7.79
579.947	7.72
580.139	7.85
580.33	7.66
580.522	7.83
580.713	7.69
580.905	7.75
581.096	7.88
581.287	7.7
581.479	7.7
581.67	7.83
581.862	7.66
582.053	7.78
582.244	7.63
582.436	7.84
582.627	7.66
582.818	7.63
583.01	7.69
583.201	7.69
583.392	7.64
583.583	7.64
583.775	7.51
583.966	7.61
584.157	7.67
584.348	7.73
584.54	7.59
584.731	7.6
584.922	7.56
585.113	7.43
585.304	7.61
585.495	7.6
585.686	7.65
585.877	7.59
586.068	7.67
586.259	7.59
586.45	7.55
586.641	7.55
586.832	7.57
587.023	7.53
587.214	7.52
587.405	7.53
587.596	7.41
587.787	7.35
587.978	7.45
588.169	7.44
588.36	7.37
588.551	7.41
588.742	7.48
588.932	7.47
589.123	7.27
589.314	7.48
589.505	7.42
589.696	7.38
589.886	7.36
590.077	7.31
590.268	7.33
590.458	7.22
590.649	7.14
590.84	7.3
591.03	7.27
591.221	7.27
591.412	7.12
591.602	7.37
591.793	7.25
591.984	7.29
592.174	7.27
592.365	7.36
592.555	7.1
592.746	7.16
592.936	7.17
593.127	7.2
593.317	7.19
593.508	7.2
593.698	7.07
593.889	7.13
594.079	7.13
594.269	7.06
594.46	7.08
594.65	7.11
594.84	6.98
595.031	6.97
595.221	7.03
595.411	6.99
595.602	7.08
595.792	6.95
595.982	6.9
596.172	7.04
596.363	6.89
596.553	6.91
596.743	7.01
596.933	6.89
597.123	6.83
597.314	6.76
597.504	6.77
597.694	6.95
597.884	6.9
598.074	6.89
598.264	6.8
598.454	6.82
598.644	6.81
598.834	6.79
599.024	6.72
599.214	6.71
599.404	6.75
599.594	6.75
599.784	6.62
599.974	6.78
600.164	6.69
600.354	6.65
600.544	6.6
600.734	6.73
600.924	6.65
601.114	6.55
601.303	6.58
601.493	6.64
601.683	6.58
601.873	6.52
602.063	6.46
602.252	6.57
602.442	6.44
602.632	6.45
602.821	6.38
603.011	6.44
603.201	6.38
603.39	6.42
603.58	6.3
603.77	6.44
603.959	6.47
604.149	6.36
604.339	6.39
604.528	6.39
604.718	6.41
604.907	6.3
605.097	6.3
605.286	6.27
605.476	6.26
605.665	6.26
605.855	6.21
606.044	6.32
606.234	6.28
606.423	6.15
606.612	6.16
606.802	6.12
606.991	6.16
607.181	6.22
607.37	6.24
607.559	5.92
607.749	6.16
607.938	6.03
608.127	6.03
608.316	6.05
608.506	5.98
608.695	6.07
608.884	6.04
609.073	6
609.263	6.06
609.452	6
609.641	5.9
609.83	5.83
610.019	5.94
610.208	5.86
610.397	5.9
610.586	5.85
610.775	5.8
610.965	5.84
611.154	5.76
611.343	5.85
611.532	5.76
611.721	5.8
611.91	5.74
612.099	5.73
612.287	5.64
612.476	5.62
612.665	5.76
612.854	5.63
613.043	5.66
613.232	5.62
613.421	5.58
613.61	5.55
613.798	5.59
613.987	5.62
614.176	5.52
614.365	5.53
614.554	5.49
614.742	5.58
614.931	5.4
615.12	5.58
615.309	5.47
615.497	5.43
615.686	5.35
615.875	5.39
616.063	5.39
616.252	5.35
616.44	5.38
616.629	5.3
616.818	5.3
617.006	5.29
617.195	5.27
617.383	5.26
617.572	5.14
617.76	5.2
617.949	5.22
618.137	5.28
618.326	5.27
618.514	5.02
618.703	5.03
618.891	5.14
619.079	5.04
619.268	5.17
619.456	5.07
619.644	5.18
619.833	5.02
620.021	4.98
620.209	4.93
620.398	5.03
620.586	4.9
620.774	5.05
620.962	4.97
621.151	5.03
621.339	4.93
621.527	4.87
621.715	4.82
621.903	4.88
622.092	4.8
622.28	5.01
622.468	4.69
622.656	4.79
622.844	4.75
623.032	4.83
623.22	4.7
623.408	4.82
623.596	4.74
623.784	4.79
623.972	4.62
624.16	4.61
624.348	4.73
624.536	4.73
624.724	4.62
624.912	4.67
625.1	4.61
625.288	4.66
625.476	4.53
625.664	4.64
625.851	4.56
626.039	4.58
626.227	4.45
626.415	4.47
626.603	4.41
626.79	4.49
626.978	4.45
627.166	4.51
627.354	4.45
627.541	4.43
627.729	4.34
627.917	4.45
628.104	4.42
628.292	4.36
628.48	4.4
628.667	4.33
628.855	4.39
629.042	4.36
629.23	4.3
629.418	4.17
629.605	4.3
629.793	4.15
629.98	4.18
630.168	4.18
630.355	4.25
630.543	4.17
630.73	4.11
630.917	4.11
631.105	4.24
631.292	4.12
631.48	4.08
631.667	4.22
631.854	4.11
632.042	4.04
632.229	3.99
632.416	4.05
632.604	4.09
632.791	3.96
632.978	3.95
633.165	3.97
633.353	4
633.54	4
633.727	3.88
633.914	3.85
634.101	3.84
634.289	3.95
634.476	3.86
634.663	3.83
634.85	3.77
635.037	3.8
635.224	3.72
635.411	3.83
635.598	3.77
635.785	3.7
635.972	3.71
636.159	3.79
636.346	3.73
636.533	3.69
636.72	3.7
636.907	3.65
637.094	3.69
637.281	3.56
637.468	3.65
637.655	3.61
637.842	3.64
638.029	3.56
638.215	3.56
638.402	3.56
638.589	3.51
638.776	3.46
638.963	3.48
639.149	3.56
639.336	3.6
639.523	3.5
639.709	3.49
639.896	3.4
640.083	3.43
640.27	3.45
640.456	3.41
640.643	3.45
640.829	3.33
641.016	3.37
641.203	3.31
641.389	3.36
641.576	3.39
641.762	3.29
641.949	3.25
642.135	3.4
642.322	3.27
642.508	3.17
642.695	3.27
642.881	3.17
643.068	3.18
643.254	3.19
643.441	3.24
643.627	3.27
643.813	3.1
644	3.18
644.186	3.09
644.372	3.19
644.559	3.15
644.745	3.11
644.931	3.02
645.118	3.11
645.304	3.08
645.49	3.04
645.676	3.02
645.862	3
646.049	3.05
646.235	2.98
646.421	3.09
646.607	3.09
646.793	2.99
646.979	2.89
647.165	2.97
647.352	3
647.538	2.93
647.724	2.88
647.91	2.91
648.096	2.95
648.282	2.94
648.468	2.87
648.654	2.85
648.84	2.84
649.026	2.8
649.212	2.77
649.397	2.8
649.583	2.84
649.769	2.8
649.955	2.79
650.141	2.84
650.327	2.84
650.513	2.74
650.698	2.8
650.884	2.65
651.07	2.74
651.256	2.66
651.442	2.73
651.627	2.63
651.813	2.67
651.999	2.61
652.184	2.67
652.37	2.62
652.556	2.65
652.741	2.62
652.927	2.48
653.113	2.61
653.298	2.6
653.484	2.54
653.669	2.52
653.855	2.55
654.04	2.58
654.226	2.57
654.412	2.54
654.597	2.48
654.782	2.55
654.968	2.49
655.153	2.53
655.339	2.52
655.524	2.49
655.71	2.49
655.895	2.48
656.08	2.48
656.266	2.5
656.451	2.46
656.636	2.39
656.822	2.43
657.007	2.43
657.192	2.45
657.378	2.41
657.563	2.34
657.748	2.4
657.933	2.38
658.118	2.34
658.304	2.36
658.489	2.41
658.674	2.36
658.859	2.27
659.044	2.27
659.229	2.33
659.414	2.3
659.599	2.27
659.785	2.23
659.97	2.28
660.155	2.27
660.34	2.32
660.525	2.23
660.71	2.18
660.895	2.26
661.08	2.24
661.264	2.22
661.449	2.27
661.634	2.17
661.819	2.24
662.004	2.11
662.189	2.08
662.374	2.11
662.559	2.13
662.743	2.06
662.928	2.12
663.113	2.08
663.298	2.07
663.483	2.03
663.667	2.1
663.852	2.03
664.037	2.11
664.221	2
664.406	2.04
664.591	2.08
664.775	1.99
664.96	1.95
665.145	1.95
665.329	2.02
665.514	1.95
665.698	1.94
665.883	1.88
666.068	1.93
666.252	1.95
666.437	1.85
666.621	1.89
666.806	1.88
666.99	1.85
667.174	1.79
667.359	1.92
667.543	1.84
667.728	1.79
667.912	1.76
668.096	1.82
668.281	1.73
668.465	1.84
668.649	1.78
668.834	1.74
669.018	1.74
669.202	1.77
669.387	1.73
669.571	1.85
669.755	1.69
669.939	1.69
670.124	1.68
670.308	1.76
670.492	1.74
670.676	1.66
670.86	1.63
671.044	1.6
671.228	1.69
671.413	1.65
671.597	1.62
671.781	1.62
671.965	1.63
672.149	1.61
672.333	1.62
672.517	1.57
672.701	1.62
672.885	1.59
673.069	1.47
673.253	1.63
673.437	1.55
673.621	1.58
673.804	1.59
673.988	1.58
674.172	1.57
674.356	1.45
674.54	1.52
674.724	1.63
674.908	1.53
675.091	1.53
675.275	1.49
675.459	1.57
675.643	1.46
675.826	1.52
676.01	1.47
676.194	1.48
676.377	1.47
676.561	1.46
676.745	1.47
676.928	1.39
677.112	1.45
677.296	1.4
677.479	1.39
677.663	1.33
677.846	1.4
678.03	1.36
678.213	1.37
678.397	1.41
678.58	1.38
678.764	1.41
678.947	1.3
679.131	1.39
679.314	1.39
679.498	1.36
679.681	1.39
679.865	1.41
680.048	1.34
680.231	1.31
680.415	1.27
680.598	1.28
680.781	1.28
680.965	1.34
681.148	1.28
681.331	1.27
681.514	1.32
681.698	1.26
681.881	1.26
682.064	1.32
682.247	1.3
682.43	1.19
682.614	1.28
682.797	1.3
682.98	1.26
683.163	1.17
683.346	1.26
683.529	1.24
683.712	1.16
683.895	1.25
684.078	1.14
684.261	1.19
684.444	1.21
684.627	1.22
684.81	1.13
684.993	1.18
685.176	1.26
685.359	1.13
685.542	1.18
685.725	1.25
685.908	1.17
686.091	1.14
686.274	1.24
686.457	1.15
686.639	1.17
686.822	1.16
687.005	1.16
687.188	1.18
687.371	1.18
687.553	1.17
687.736	1.18
687.919	1.25
688.102	1.13
688.284	1.07
688.467	1.07
688.65	1.1
688.832	1.05
689.015	1.07
689.197	1.02
689.38	1.11
689.563	1.12
689.745	1
689.928	1.03
690.11	1
690.293	1.05
690.475	0.94
690.658	1.06
690.84	1.04
691.023	1
691.205	0.97
691.388	1.09
691.57	1.03
691.752	1.01
691.935	0.94
692.117	0.99
692.3	1.03
692.482	0.99
692.664	0.97
692.847	0.98
693.029	1.02
693.211	1.02
693.393	0.94
693.576	0.95
693.758	1.04
693.94	0.9
694.122	0.99
694.304	0.93
694.487	0.94
694.669	0.95
694.851	0.9
695.033	0.97
695.215	0.89
695.397	0.91
695.579	0.93
695.761	0.87
695.943	0.88
696.125	0.94
696.308	0.98
696.49	0.83
696.671	1.05
696.853	0.87
697.035	1.09
697.217	0.84
697.399	0.96
697.581	0.91
697.763	0.92
697.945	0.77
698.127	0.87
698.309	0.98
698.491	0.93
698.672	0.98
698.854	0.9
699.036	0.95
699.218	0.89
699.399	0.96
699.581	0.88
699.763	0.84
699.945	0.76
700.126	0.83
700.308	0.89
700.49	0.8
700.671	0.75
700.853	0.8
701.035	0.81
701.216	0.91
701.398	0.77
701.579	0.84
701.761	0.9
701.943	0.82
702.124	0.77
702.306	0.83
702.487	0.95
702.669	0.88
702.85	0.78
703.031	0.73
703.213	0.94
703.394	0.83
703.576	0.72
703.757	0.91
703.938	0.87
704.12	0.95
704.301	0.78
704.483	0.71
704.664	0.85
704.845	0.86
705.026	0.8
705.208	0.75
705.389	0.83
705.57	0.84
705.751	0.73
705.933	0.76
706.114	0.85
706.295	0.75
706.476	0.7
706.657	0.88
706.838	0.83
707.02	0.82
707.201	0.63
707.382	0.71
707.563	0.8
707.744	0.71
707.925	0.68
708.106	0.71
708.287	0.71
708.468	0.82
708.649	0.81
708.83	0.79
709.011	0.68
709.192	0.85
709.373	0.67
709.554	0.72
709.734	0.84
709.915	0.75
710.096	0.66
710.277	0.61
710.458	0.71
710.639	0.76
710.819	0.6
711	0.77
711.181	0.78
711.362	0.76
711.542	0.68
711.723	0.66
711.904	0.79
712.085	0.76
712.265	0.72
712.446	0.66
712.627	0.63
712.807	0.67
712.988	0.74
713.168	0.58
713.349	0.74
713.53	0.49
713.71	0.57
713.891	0.59
714.071	0.67
714.252	0.67
714.432	0.67
714.613	0.56
714.793	0.66
714.974	0.74
715.154	0.75
715.334	0.75
715.515	0.8
715.695	0.53
715.876	0.67
716.056	0.6
716.236	0.6
716.417	0.67
716.597	0.62
716.777	0.89
716.957	0.66
717.138	0.68
717.318	0.62
717.498	0.57
717.678	0.71
717.859	0.67
718.039	0.57
718.219	0.72
718.399	0.67
718.579	0.53
718.759	0.5
718.939	0.68
719.12	0.64
719.3	0.65
719.48	0.53
719.66	0.48
719.84	0.73
720.02	0.63
720.2	0.62
720.38	0.6
720.56	0.78
720.74	0.63
720.92	0.56
721.1	0.76
721.279	0.66
721.459	0.6
721.639	0.56
721.819	0.65
721.999	0.61
722.179	0.67
722.359	0.49
722.538	0.65
722.718	0.64
722.898	0.59
723.078	0.56
723.257	0.6
723.437	0.58
723.617	0.61
723.797	0.61
723.976	0.66
724.156	0.64
724.336	0.73
724.515	0.77
724.695	0.51
724.874	0.61
725.054	0.71
725.234	0.52
725.413	0.69
725.593	0.53
725.772	0.55
725.952	0.51
726.131	0.56
726.311	0.64
726.49	0.54
726.67	0.5
726.849	0.53
727.028	0.72
727.208	0.6
727.387	0.69
727.567	0.54
727.746	0.57
727.925	0.6
728.105	0.48
728.284	0.52
728.463	0.58
728.643	0.64
728.822	0.44
729.001	0.62
729.18	0.64
729.359	0.72
729.539	0.57
729.718	0.64
729.897	0.64
730.076	0.63
730.255	0.45
730.434	0.59
730.614	0.65
730.793	0.73
730.972	0.64
731.151	0.69
731.33	0.8
731.509	0.74
731.688	0.64
731.867	0.55
732.046	0.44
732.225	0.85
732.404	0.49
732.583	0.56
732.762	0.6
732.941	0.67
733.12	0.63
733.298	0.62
733.477	0.68
733.656	0.55
733.835	0.55
734.014	0.78
734.193	0.61
734.371	0.68
734.55	0.67
734.729	0.52
734.908	0.61
735.086	0.73
735.265	0.68
735.444	0.42
735.623	0.54
735.801	0.55
735.98	0.67
736.159	0.58
736.337	0.66
736.516	0.67
736.694	0.64
736.873	0.63
737.052	0.86
737.23	0.69
737.409	0.51
737.587	0.78
737.766	0.5
737.944	0.65
738.123	0.67
738.301	0.68
738.479	0.65
738.658	0.65
738.836	0.51
739.015	0.7
739.193	0.71
739.371	0.53
739.55	0.59
739.728	0.37
739.906	0.71
740.085	0.87
740.263	0.69
740.441	0.47
740.62	0.85
740.798	0.69
740.976	0.42
741.154	0.47
741.332	0.8
741.511	0.61
741.689	0.68
741.867	0.7
742.045	0.5
742.223	0.48
742.401	0.52
742.579	0.58
742.757	0.64
742.935	0.35
743.114	0.47
743.292	0.46
743.47	0.6
743.648	0.45
743.826	0.31
744.004	0.59
744.181	0.67
744.359	0.49
744.537	0.64
744.715	0.45
744.893	0.55
745.071	0.55
745.249	0.37
745.427	0.42
745.605	0.62
745.782	0.56
745.96	0.68
746.138	0.58
746.316	0.6
746.493	0.54
746.671	0.46
746.849	0.5
747.027	0.6
747.204	0.43
747.382	0.56
747.56	0.39
747.737	0.45
747.915	0.39
748.093	0.56
748.27	0.34
748.448	0.45
748.625	0.31
748.803	0.41
748.98	0.42
749.158	0.57
749.335	0.58
749.513	0.49
749.69	0.46
749.868	0.44
750.045	0.5
750.223	0.48
750.4	0.24
750.578	0.58
750.755	0.5
750.932	0.35
751.11	0.47
751.287	0.23
751.464	0.53
751.642	0.3
751.819	0.46
751.996	0.49
752.173	0.4
752.351	0.33
752.528	0.56
752.705	0.4
752.882	0.43
753.06	0.46
753.237	0.45
753.414	0.63
753.591	0.69
753.768	0.46
753.945	0.4
754.122	0.36
754.299	0.49
754.476	0.37
754.654	0.46
754.831	0.63
755.008	0.4
755.185	0.33
755.362	0.31
755.539	0.46
755.716	0.72
755.892	0.55
756.069	0.46
756.246	0.4
756.423	0.42
756.6	0.49
756.777	0.38
756.954	0.62
757.131	0.4
757.307	0.27
757.484	0.21
757.661	0.47
757.838	0.41
758.015	0.23
758.191	0.47
758.368	0.51
758.545	0.52
758.721	0.5
758.898	0.36
759.075	0.49
759.251	0.32
759.428	0.53
759.605	0.33
759.781	0.44
759.958	0.53
760.134	0.43
760.311	0.38
760.488	0.46
760.664	0.51
760.841	0.44
761.017	0.31
761.194	0.52
761.37	0.47
761.547	0.43
761.723	0.33
761.899	0.61
762.076	0.34
762.252	0.29
762.429	0.39
762.605	0.49
762.781	0.27
762.958	0.56
763.134	0.45
763.31	0.28
763.486	0.6
763.663	0.21
763.839	0.53
764.015	0.28
764.191	0.37
764.368	0.45
764.544	0.34
764.72	0.42
764.896	0.51
765.072	0.5
765.248	0.35
765.425	0.4
765.601	0.43
765.777	0.38
765.953	0.19
766.129	0.33
766.305	0.28
766.481	0.39
766.657	0.38
766.833	0.51
767.009	0.21
767.185	0.39
767.361	0.29
767.537	0.3
767.713	0.51
767.889	0.3
768.065	0.4
768.24	0.23
768.416	0.57
768.592	0.28
768.768	0.36
768.944	0.42
769.12	0.22
769.295	0.47
769.471	0.35
769.647	0.38
769.823	0.48
769.998	0.22
770.174	0.35
770.35	0.53
770.525	0.64
770.701	0.44
770.877	0.39
771.052	0.21
771.228	0.48
771.403	0.45
771.579	0.52
771.755	0.62
771.93	0.29
772.106	0.22
772.281	0.27
772.457	0.23
772.632	0.43
772.808	0.26
772.983	0.29
773.159	0.17
773.334	0.53
773.509	0.49
773.685	0.19
773.86	0.77
774.036	0.73
774.211	0.33
774.386	0.45
774.562	0.31
774.737	0.56
774.912	0.4
775.087	0.5
775.263	0.29
775.438	0.57
775.613	0.33
775.788	0.33
775.964	0.48
776.139	0.84
776.314	0.37
776.489	0.46
776.664	0.4
776.839	0.32
777.014	0.66
777.19	0.63
777.365	0.67
777.54	0.65
777.715	0.43
777.89	0.44
778.065	0.16
778.24	0.37
778.415	0.54
778.59	0.26
778.765	0.38
778.94	0.53
779.115	0.34
779.289	0.38
779.464	0.55
779.639	0.47
779.814	0.21
779.989	0.25
780.164	0.57
780.339	0.74
780.513	0.37
780.688	0.26
780.863	0.51
781.038	0.62
781.212	0.32
781.387	0.5
781.562	0.58
781.737	0.49
781.911	0.5
782.086	0.3
782.261	0.48
782.435	0.81
782.61	0.43
782.784	0.42
782.959	0.63
783.134	0.25
783.308	0.17
783.483	0.47
783.657	0.87
783.832	0.7
784.006	0.19
784.181	0.51
784.355	0.53
784.53	0.57
784.704	0.21
784.878	0.83
785.053	0.66
785.227	0.6
785.402	0.8
785.576	0.38
785.75	0.42
785.925	0.29
786.099	0.61
786.273	0.65
786.448	0.71
786.622	0.65
786.796	0.43
786.97	0.46
787.145	1.03
787.319	0.42
787.493	0.22
787.667	0.26
787.841	0.42
788.015	0.76
788.19	0.39
788.364	0.62
788.538	0.79
788.712	0.6
788.886	0.44
789.06	0.69
789.234	0.85
789.408	0.47
789.582	0.45
789.756	0.36
789.93	0.13
790.104	0.39
790.278	0.48
790.452	0.17
790.626	0.58
790.8	0.45
790.973	0.7
791.147	0.64
791.321	0.84
791.495	0.88
791.669	0.53
791.843	0.83
792.016	0.52
792.19	0.94
792.364	0.12
792.538	1.01
792.711	0.74
792.885	0.38
793.059	0.18
793.233	-0.03
793.406	0.92
793.58	0.54
793.754	0.56
793.927	0.51
794.101	0.72
794.274	0.6
794.448	0.72
794.622	0.44
794.795	0.81
794.969	0.62
795.142	0.82
795.316	0.56
795.489	0.46
795.663	1.14
795.836	0.4
796.009	0.43
796.183	0.83
796.356	0.57
796.53	0.6
796.703	0.46
796.876	1.2
797.05	0.39
797.223	0.27
797.396	0.84
797.57	0.74
797.743	0.96
797.916	0.63
798.09	0.48
798.263	0.96
798.436	0.68
798.609	0.67
798.782	0.37
798.956	0.71
799.129	0.65
799.302	0.47
799.475	0.52
799.648	0.25
799.821	0.43
799.994	0.6
800.167	0.12
800.34	0.46
800.514	0.41
800.687	0.58
800.86	0.38
801.033	0.66
801.206	0.73
801.379	0.29
801.551	0.69
801.724	0.79
801.897	1.24
802.07	0.85
802.243	0.33
802.416	0.62
802.589	0.36
802.762	0.54
802.935	0.52
803.107	1.1
803.28	1.11
803.453	0.86
803.626	0.37
803.798	0.73
803.971	0.42
804.144	0.63
804.317	0.69
804.489	0.98
804.662	0.68
804.835	0.64
805.007	0.43
805.18	0.89
805.353	0.98
805.525	0.46
805.698	0.39
805.87	1.22
806.043	0.81
806.215	0.19
806.388	0.19
806.56	0.74
806.733	0.9
806.905	0.7
807.078	0.53
807.25	0.49
807.423	0.91
807.595	0.54
807.768	0.39
807.94	1.03
808.112	0.9
808.285	0.61
808.457	0.7
808.629	1.1
808.802	1.12
808.974	0.79
809.146	0.2
809.318	0.18
809.491	0.53
809.663	0.82
809.835	0.4
810.007	0.91
810.18	0.43
810.352	-0.09
810.524	0.65
810.696	0.79
810.868	1.4
811.04	0.71
811.212	0.48
811.384	0.98
811.556	0.95
811.728	0.8
811.901	1.42
812.073	0.58
812.245	0.94
812.417	0.67
812.589	-0.14
812.76	0.71
812.932	1.03
813.104	0.94
813.276	0.5
813.448	1.34
813.62	0.46
813.792	0.26
813.964	0.64
814.136	1.08
814.307	0.66
814.479	0.31
814.651	0.28
814.823	1.46
814.995	0.83
815.166	0.97
815.338	0.64
815.51	0.43
815.681	1.99
815.853	0.9
816.025	0.5
816.196	1.73
816.368	0.97
816.54	0.2
816.711	0.77
816.883	0.94
817.054	1.82
817.226	0.1
817.398	0.92
817.569	0.64
817.741	0.85
817.912	1.11
818.084	0.65
818.255	1.18
818.426	0.61
818.598	0.84
818.769	0.62
818.941	1.12
819.112	1.35
819.283	1.07
819.455	0.49
819.626	0.48
819.798	0.7
819.969	1.2
820.14	1.01
820.311	0.83
820.483	1.12
820.654	1.05
820.825	0.66
820.996	0.27
821.168	0.57
821.339	0.57
821.51	0.44
821.681	0.97
821.852	1.02
822.023	0.42
822.195	-0.38
822.366	1.41
822.537	0.9
822.708	0.41
822.879	0.34
823.05	1.62
823.221	0.79
823.392	0.95
823.563	0.9
823.734	0.79
823.905	1.22
824.076	0.5
824.247	0.94
824.418	1.09
824.589	1.52
824.759	0.75
824.93	1.22
825.101	0.68
825.272	1.86
825.443	1.79
825.614	0.89
825.784	0.27
825.955	1.65
826.126	1.98
826.297	0.99
826.467	2.11
826.638	1.93
826.809	0.84
826.98	1.07
827.15	1.87
827.321	1.12
827.492	1.64
827.662	0.95
827.833	2.08
828.003	1.46
828.174	0.33
828.345	0.75
828.515	1.81
828.686	0.94
828.856	0.92
829.027	0.72
829.197	0.6
829.368	0.9
829.538	0.37
829.709	1.25
829.879	0.94
830.049	1.29
830.22	1.1
830.39	1.47
830.56	1.35
830.731	1.23
830.901	0.85
831.072	1.2
831.242	1.24
831.412	1.71
831.582	1.11
831.753	0.64
831.923	1.58
832.093	0.78
832.263	0.71
832.434	0.58
832.604	0.9
832.774	1.25
832.944	0.77
833.114	0.47
833.284	1.51
833.454	0.76
833.624	0.27
833.795	0.77
833.965	1.63
834.135	2.1
834.305	-0.14
834.475	0.6
834.645	0.88
834.815	0.66
834.985	0.58
835.155	0.79
835.325	1
835.494	1.68
835.664	0.71
835.834	-0.11
836.004	0.52
836.174	1.54
836.344	1.41
836.514	1.1
836.684	0.97
836.853	1.27
837.023	1.29
837.193	0.69
837.363	1.61
837.532	2.23
837.702	1.45
837.872	0.66
838.041	2.04
838.211	2.64
838.381	0.57
838.55	1.13
838.72	3.31
838.89	2.1
839.059	0.35
839.229	0.26
839.398	2.61
839.568	1.11
839.738	1.03
839.907	2.11
840.077	1.03
840.246	0.63
840.416	0.91
840.585	0.89
840.755	2.51
840.924	2.4
841.093	0.44
841.263	0.78
841.432	1.23
841.602	0.68
841.771	0.15
841.94	1.66
842.11	3.12
842.279	2.78
842.448	1
842.617	0.87
842.787	2.42
842.956	1.1
843.125	0.8
843.294	0.98
843.464	2.41
843.633	1.17
843.802	0.5
843.971	1.4
844.14	2.27
844.309	1.8
844.479	0.48
844.648	0.89
844.817	0.21
844.986	1.38
845.155	0.88
845.324	0.74
845.493	0.88
845.662	1.42
845.831	1.62
846	2.74
846.169	0.59
846.338	2.5
846.507	1.35
846.676	1.75
846.844	0.93
847.013	1.87
847.182	1.14
847.351	0.63
847.52	2.34
847.689	2.53
847.858	1.47
848.026	0.74
848.195	1.61
848.364	0.73
848.533	0.09
848.701	1.28
848.87	1.57
849.039	2.43
849.207	1.73
849.376	2.46
849.545	2.78
849.713	1.36
849.882	0.34
850.051	1.61
850.219	1.79
850.388	2.82
850.556	-0
850.725	0.98
850.893	2.3
851.062	1.7
851.23	1.81
851.399	-0.34
851.567	1.05
851.736	2.1
851.904	0.77
852.073	0.91
852.241	2.14
852.41	0.62
852.578	1.63
852.746	0.57
852.915	1.66
853.083	2.11
853.251	0.56
853.42	1.09
853.588	1.38
853.756	3.26
853.924	1.7
854.093	1.96
854.261	1.88
854.429	1.2
854.597	1.77
854.765	1.45
854.934	1.9
855.102	3.31
855.27	1.65
855.438	2.17
855.606	2.84
855.774	3.21
855.942	-0.62
856.11	0.81
856.278	2.36
856.446	3.05
856.614	1.9
856.782	0.87
856.95	2.2
857.118	1.49
857.286	2.7
857.454	1.31
857.622	2.21
857.79	2.03
857.958	1.32
858.126	1.35
858.294	0.94
858.462	2.07
858.629	1.71
858.797	0.9
858.965	1.84
859.133	1.98
859.301	1.22
859.468	2.44
859.636	1.06
859.804	3.27
859.971	3.18
860.139	2.09
860.307	1.96
860.474	2.57
860.642	0.66
860.81	1.5
860.977	1.72
861.145	3.36
861.313	1.3
861.48	2.43
861.648	2.9
861.815	1.22
861.983	0.84
862.15	1.32
862.318	2.64
862.485	2.84
862.653	1.21
862.82	1.02
862.988	3.58
863.155	2.52
863.322	1.93
863.49	0.96
863.657	2.34
863.824	4.16
863.992	2.67
864.159	2.69
864.326	3.42
864.494	1.08
864.661	3.85
864.828	0.98
864.996	3.09
865.163	4.68
865.33	1.34
865.497	0.34
865.664	1.4
865.832	-1.37
865.999	2.03
866.166	2.27
866.333	2.69
866.5	1.94
866.667	1.63
866.834	0.8
867.001	3.69
867.168	0.1
867.335	1.67
867.502	0.81
867.669	2.65
867.836	3.36
868.003	1.87
868.17	4.41
868.337	4.48
868.504	5.64
868.671	0.21
868.838	0.25
869.005	2.68
869.172	2.66
869.339	3.25
869.505	1.24
869.672	2.79
869.839	3.14
870.006	2.75
870.173	-0.02
870.339	2.56
870.506	6.01
870.673	1.92
870.84	2.8
871.006	1.88
871.173	3.04
871.34	2.84
871.506	1.31
871.673	4.02
871.839	-0.27
872.006	3.09
872.173	1.97
872.339	3.94
872.506	3.52
872.672	1.97
872.839	0.91
873.005	3.31
873.172	4.41
873.338	4.5
873.505	2.61
873.671	3.7
873.838	2.81
874.004	1.95
874.171	1.67
874.337	2.41
874.503	3.65
874.67	0.85
874.836	1.29
875.002	5.18
875.169	5.36
875.335	2.87
875.501	2.24
875.668	4.34
875.834	4.07
876	3.14
876.166	3.07
876.332	4.43
876.499	5.59
876.665	3.22
876.831	1.64
876.997	7.08
877.163	4.16
877.329	0.67
877.495	1.97
877.662	3.53
877.828	4.06
877.994	4.91
878.16	0.03
878.326	1.77
878.492	2.4
878.658	0.86
878.824	3.84
878.99	2.63
879.156	2.45
879.322	5.41
879.487	1.47
879.653	3.26
879.819	2.99
879.985	1.09
880.151	2.62
880.317	3.92
880.483	4.08
880.648	4.98
880.814	-0.14
880.98	2.9
881.146	-0.96
881.312	0.1
881.477	3.39
881.643	2.57
881.809	3.89
881.974	5.41
882.14	1.59
882.306	6.52
882.471	5.96
882.637	0.86
882.803	3.38
882.968	4.76
883.134	5.77
883.299	2.29
883.465	2.48
883.63	3.83
883.796	3.94
883.961	4.3
884.127	2.71
884.292	-1.12
884.458	1.6
884.623	1.6
