Data from Apollo_Calib_20240827__AbsoluteIrradiance__32__23-41-00-202.txt Node

Date: Tue Aug 27 23:41:00 BST 2024
User: biology
Spectrometer: FLMT08252
Trigger mode: 0
Integration Time (sec): 5.000000E-1
Scans to average: 5
Electric dark correction enabled: true
Nonlinearity correction enabled: false
Boxcar width: 0
XAxis mode: Wavelengths
Number of Pixels in Spectrum: 3648
>>>>>Begin Spectral Data<<<<<
179.588	-0
179.809	-0
180.03	-0
180.251	-0
180.473	-0
180.694	0
180.915	0
181.136	-0
181.357	0
181.578	-0
181.799	-0
182.02	-0
182.241	0
182.462	-0
182.683	0
182.904	-0
183.125	-0
183.346	0
183.567	0
183.788	0
184.009	0
184.23	0
184.451	0
184.672	0
184.892	0
185.113	0
185.334	0
185.555	0
185.776	0
185.996	0
186.217	0
186.438	0
186.659	0
186.879	0
187.1	0
187.321	0
187.541	0
187.762	0
187.983	0
188.203	0
188.424	0
188.644	0
188.865	0
189.086	0
189.306	0
189.527	0
189.747	0
189.968	0
190.188	0
190.409	0
190.629	0
190.849	0
191.07	0
191.29	0
191.511	0
191.731	0
191.951	0
192.172	0
192.392	0
192.612	0
192.833	0
193.053	0
193.273	0
193.493	0
193.714	0
193.934	0
194.154	0
194.374	0
194.594	0
194.815	0
195.035	0
195.255	0
195.475	0
195.695	0
195.915	0
196.135	0
196.355	0
196.575	0
196.795	0
197.015	0
197.235	0
197.455	0
197.675	0
197.895	0
198.115	0
198.335	0
198.555	0
198.775	0
198.995	0
199.214	0
199.434	0
199.654	0
199.874	0
200.094	3.4
200.313	2.71
200.533	2.29
200.753	1.67
200.973	3.17
201.192	3.21
201.412	1.51
201.632	1.72
201.851	3.37
202.071	2.05
202.291	1.76
202.51	2.06
202.73	2.44
202.95	1.78
203.169	1.07
203.389	1.6
203.608	2.24
203.828	1.52
204.047	1.35
204.267	2.53
204.486	2.1
204.706	2.19
204.925	1.92
205.145	1.71
205.364	2.43
205.583	2.79
205.803	1.25
206.022	1.42
206.242	1.69
206.461	1.73
206.68	1.22
206.9	2.03
207.119	2.4
207.338	1.85
207.557	1.06
207.777	1.34
207.996	1.29
208.215	1.95
208.434	1.28
208.654	1.01
208.873	1.54
209.092	1.85
209.311	1.17
209.53	1.41
209.749	0.97
209.968	1.22
210.187	1.24
210.407	0.77
210.626	1.33
210.845	1.32
211.064	1.03
211.283	0.89
211.502	1.55
211.721	0.99
211.94	1.23
212.159	1.38
212.377	1.5
212.596	1.3
212.815	1.41
213.034	1.08
213.253	1.31
213.472	1.04
213.691	0.98
213.91	0.55
214.128	0.87
214.347	1.26
214.566	0.7
214.785	0.66
215.003	1.15
215.222	1.18
215.441	1.04
215.66	0.58
215.878	0.92
216.097	0.87
216.316	0.59
216.534	0.76
216.753	1.24
216.972	0.81
217.19	0.88
217.409	0.73
217.627	0.56
217.846	0.83
218.064	0.83
218.283	0.6
218.501	1.19
218.72	1.11
218.938	0.65
219.157	0.74
219.375	0.93
219.594	0.99
219.812	0.57
220.031	0.58
220.249	1.1
220.467	1.19
220.686	0.7
220.904	0.68
221.122	0.77
221.341	1.1
221.559	0.83
221.777	0.72
221.995	0.89
222.214	0.94
222.432	0.62
222.65	0.84
222.868	0.76
223.086	0.93
223.305	0.76
223.523	0.61
223.741	1.19
223.959	0.56
224.177	0.51
224.395	0.65
224.613	0.88
224.831	1
225.049	0.53
225.267	0.63
225.485	0.75
225.703	0.71
225.921	0.74
226.139	0.73
226.357	0.79
226.575	0.78
226.793	0.59
227.011	1.27
227.229	0.69
227.447	0.78
227.665	0.54
227.883	0.34
228.1	0.73
228.318	0.79
228.536	0.37
228.754	0.46
228.972	0.71
229.189	0.77
229.407	0.77
229.625	0.55
229.843	0.71
230.06	0.77
230.278	0.47
230.496	0.67
230.713	0.71
230.931	0.68
231.149	0.56
231.366	0.4
231.584	0.52
231.801	0.95
232.019	0.54
232.236	0.38
232.454	0.46
232.671	0.61
232.889	0.49
233.106	0.47
233.324	0.56
233.541	0.55
233.759	0.53
233.976	0.51
234.194	0.6
234.411	0.46
234.628	0.32
234.846	0.53
235.063	0.56
235.28	0.48
235.498	0.57
235.715	0.42
235.932	0.69
236.149	0.52
236.367	0.41
236.584	0.57
236.801	0.53
237.018	0.69
237.236	0.55
237.453	0.35
237.67	0.65
237.887	0.42
238.104	0.46
238.321	0.47
238.538	0.44
238.755	0.63
238.973	0.37
239.19	0.54
239.407	0.56
239.624	0.56
239.841	0.34
240.058	0.35
240.275	0.58
240.492	0.49
240.709	0.57
240.925	0.35
241.142	0.43
241.359	0.35
241.576	0.33
241.793	0.44
242.01	0.49
242.227	0.5
242.444	0.51
242.66	0.6
242.877	0.46
243.094	0.45
243.311	0.48
243.527	0.44
243.744	0.53
243.961	0.5
244.178	0.39
244.394	0.35
244.611	0.59
244.828	0.66
245.044	0.34
245.261	0.5
245.477	0.49
245.694	0.56
245.911	0.36
246.127	0.53
246.344	0.65
246.56	0.53
246.777	0.35
246.993	0.51
247.21	0.5
247.426	0.56
247.643	0.29
247.859	0.31
248.076	0.29
248.292	0.65
248.508	0.41
248.725	0.47
248.941	0.4
249.157	0.56
249.374	0.44
249.59	0.36
249.806	0.44
250.023	0.52
250.239	0.35
250.455	0.43
250.671	0.36
250.888	0.43
251.104	0.47
251.32	0.37
251.536	0.37
251.752	0.44
251.969	0.53
252.185	0.4
252.401	0.63
252.617	0.42
252.833	0.31
253.049	0.44
253.265	0.4
253.481	0.5
253.697	0.41
253.913	0.35
254.129	0.42
254.345	0.41
254.561	0.38
254.777	0.38
254.993	0.51
255.209	0.39
255.425	0.31
255.641	0.38
255.857	0.49
256.073	0.41
256.288	0.32
256.504	0.34
256.72	0.4
256.936	0.57
257.152	0.37
257.367	0.31
257.583	0.39
257.799	0.37
258.015	0.35
258.23	0.34
258.446	0.52
258.662	0.37
258.877	0.32
259.093	0.35
259.309	0.38
259.524	0.4
259.74	0.37
259.955	0.24
260.171	0.35
260.387	0.29
260.602	0.46
260.818	0.47
261.033	0.24
261.249	0.3
261.464	0.34
261.68	0.29
261.895	0.49
262.11	0.46
262.326	0.29
262.541	0.25
262.757	0.45
262.972	0.41
263.187	0.43
263.403	0.39
263.618	0.51
263.833	0.38
264.049	0.35
264.264	0.32
264.479	0.39
264.694	0.46
264.91	0.25
265.125	0.28
265.34	0.36
265.555	0.55
265.77	0.43
265.986	0.25
266.201	0.38
266.416	0.51
266.631	0.33
266.846	0.37
267.061	0.41
267.276	0.36
267.491	0.25
267.706	0.34
267.921	0.38
268.136	0.42
268.351	0.34
268.566	0.3
268.781	0.42
268.996	0.44
269.211	0.41
269.426	0.26
269.641	0.28
269.856	0.32
270.071	0.22
270.285	0.3
270.5	0.41
270.715	0.38
270.93	0.38
271.145	0.33
271.359	0.37
271.574	0.26
271.789	0.3
272.004	0.36
272.218	0.31
272.433	0.39
272.648	0.27
272.862	0.42
273.077	0.35
273.292	0.36
273.506	0.32
273.721	0.24
273.936	0.37
274.15	0.41
274.365	0.27
274.579	0.31
274.794	0.38
275.008	0.43
275.223	0.28
275.437	0.31
275.652	0.53
275.866	0.35
276.081	0.34
276.295	0.37
276.509	0.3
276.724	0.3
276.938	0.29
277.153	0.34
277.367	0.34
277.581	0.31
277.796	0.25
278.01	0.26
278.224	0.37
278.438	0.43
278.653	0.27
278.867	0.28
279.081	0.16
279.295	0.29
279.51	0.35
279.724	0.22
279.938	0.34
280.152	0.33
280.366	0.29
280.58	0.33
280.794	0.35
281.008	0.32
281.222	0.39
281.437	0.5
281.651	0.29
281.865	0.43
282.079	0.28
282.293	0.19
282.507	0.28
282.721	0.32
282.935	0.28
283.148	0.21
283.362	0.29
283.576	0.27
283.79	0.26
284.004	0.27
284.218	0.37
284.432	0.28
284.646	0.29
284.859	0.25
285.073	0.24
285.287	0.29
285.501	0.33
285.714	0.31
285.928	0.33
286.142	0.23
286.356	0.24
286.569	0.25
286.783	0.36
286.997	0.29
287.21	0.29
287.424	0.3
287.637	0.29
287.851	0.24
288.065	0.33
288.278	0.32
288.492	0.31
288.705	0.33
288.919	0.29
289.132	0.2
289.346	0.31
289.559	0.18
289.773	0.25
289.986	0.26
290.2	0.29
290.413	0.34
290.626	0.23
290.84	0.22
291.053	0.24
291.267	0.35
291.48	0.28
291.693	0.27
291.906	0.25
292.12	0.27
292.333	0.23
292.546	0.25
292.76	0.36
292.973	0.29
293.186	0.31
293.399	0.23
293.612	0.32
293.826	0.3
294.039	0.3
294.252	0.24
294.465	0.27
294.678	0.31
294.891	0.23
295.104	0.24
295.317	0.25
295.53	0.3
295.743	0.26
295.956	0.24
296.169	0.35
296.382	0.31
296.595	0.26
296.808	0.2
297.021	0.34
297.234	0.32
297.447	0.24
297.66	0.32
297.873	0.32
298.086	0.31
298.299	0.26
298.511	0.23
298.724	0.25
298.937	0.22
299.15	0.21
299.363	0.23
299.575	0.29
299.788	0.27
300.001	0.25
300.213	0.21
300.426	0.25
300.639	0.23
300.852	0.23
301.064	0.28
301.277	0.34
301.489	0.29
301.702	0.27
301.915	0.28
302.127	0.27
302.34	0.26
302.552	0.24
302.765	0.24
302.977	0.35
303.19	0.24
303.402	0.25
303.615	0.22
303.827	0.24
304.04	0.26
304.252	0.31
304.464	0.27
304.677	0.35
304.889	0.26
305.102	0.24
305.314	0.2
305.526	0.33
305.739	0.29
305.951	0.25
306.163	0.2
306.375	0.31
306.588	0.22
306.8	0.23
307.012	0.25
307.224	0.28
307.436	0.35
307.649	0.19
307.861	0.32
308.073	0.3
308.285	0.26
308.497	0.2
308.709	0.22
308.921	0.27
309.133	0.32
309.346	0.26
309.558	0.25
309.77	0.3
309.982	0.34
310.194	0.28
310.406	0.25
310.617	0.27
310.829	0.26
311.041	0.3
311.253	0.16
311.465	0.25
311.677	0.25
311.889	0.24
312.101	0.23
312.313	0.32
312.524	0.3
312.736	0.2
312.948	0.21
313.16	0.37
313.372	0.28
313.583	0.27
313.795	0.25
314.007	0.22
314.218	0.3
314.43	0.25
314.642	0.23
314.853	0.19
315.065	0.27
315.277	0.27
315.488	0.24
315.7	0.32
315.912	0.28
316.123	0.24
316.335	0.25
316.546	0.37
316.758	0.25
316.969	0.2
317.181	0.24
317.392	0.27
317.604	0.28
317.815	0.23
318.026	0.22
318.238	0.24
318.449	0.29
318.661	0.2
318.872	0.2
319.083	0.21
319.295	0.27
319.506	0.23
319.717	0.3
319.929	0.27
320.14	0.25
320.351	0.27
320.562	0.22
320.774	0.27
320.985	0.3
321.196	0.23
321.407	0.18
321.618	0.28
321.829	0.26
322.041	0.28
322.252	0.24
322.463	0.24
322.674	0.29
322.885	0.24
323.096	0.26
323.307	0.24
323.518	0.26
323.729	0.21
323.94	0.27
324.151	0.18
324.362	0.28
324.573	0.27
324.784	0.23
324.995	0.31
325.206	0.26
325.417	0.24
325.628	0.27
325.838	0.23
326.049	0.26
326.26	0.28
326.471	0.24
326.682	0.3
326.892	0.26
327.103	0.23
327.314	0.22
327.525	0.3
327.735	0.23
327.946	0.24
328.157	0.23
328.368	0.33
328.578	0.26
328.789	0.33
328.999	0.28
329.21	0.24
329.421	0.27
329.631	0.21
329.842	0.19
330.052	0.22
330.263	0.27
330.473	0.26
330.684	0.21
330.894	0.25
331.105	0.29
331.315	0.25
331.526	0.19
331.736	0.32
331.947	0.27
332.157	0.3
332.367	0.24
332.578	0.29
332.788	0.31
332.999	0.27
333.209	0.25
333.419	0.23
333.629	0.26
333.84	0.29
334.05	0.28
334.26	0.31
334.47	0.31
334.681	0.28
334.891	0.23
335.101	0.3
335.311	0.31
335.521	0.26
335.732	0.25
335.942	0.28
336.152	0.3
336.362	0.29
336.572	0.29
336.782	0.3
336.992	0.25
337.202	0.27
337.412	0.2
337.622	0.25
337.832	0.24
338.042	0.23
338.252	0.23
338.462	0.21
338.672	0.26
338.882	0.27
339.092	0.21
339.302	0.31
339.511	0.28
339.721	0.26
339.931	0.23
340.141	0.3
340.351	0.31
340.561	0.27
340.77	0.25
340.98	0.24
341.19	0.32
341.4	0.24
341.609	0.15
341.819	0.25
342.029	0.25
342.238	0.27
342.448	0.24
342.658	0.25
342.867	0.23
343.077	0.25
343.286	0.23
343.496	0.24
343.706	0.37
343.915	0.21
344.125	0.25
344.334	0.23
344.544	0.2
344.753	0.24
344.963	0.25
345.172	0.21
345.381	0.24
345.591	0.21
345.8	0.22
346.01	0.27
346.219	0.31
346.428	0.13
346.638	0.24
346.847	0.26
347.056	0.31
347.266	0.2
347.475	0.31
347.684	0.27
347.893	0.22
348.103	0.28
348.312	0.24
348.521	0.24
348.73	0.2
348.94	0.24
349.149	0.22
349.358	0.21
349.567	0.22
349.776	0.18
349.985	0.24
350.194	0.29
350.403	0.27
350.612	0.17
350.821	0.2
351.03	0.27
351.239	0.2
351.448	0.23
351.657	0.22
351.866	0.35
352.075	0.24
352.284	0.29
352.493	0.21
352.702	0.29
352.911	0.28
353.12	0.24
353.329	0.26
353.538	0.26
353.746	0.23
353.955	0.21
354.164	0.26
354.373	0.25
354.582	0.27
354.79	0.23
354.999	0.29
355.208	0.2
355.416	0.29
355.625	0.19
355.834	0.24
356.042	0.26
356.251	0.21
356.46	0.26
356.668	0.27
356.877	0.3
357.085	0.28
357.294	0.27
357.503	0.24
357.711	0.23
357.92	0.44
358.128	0.28
358.337	0.24
358.545	0.24
358.754	0.2
358.962	0.29
359.17	0.24
359.379	0.28
359.587	0.25
359.796	0.28
360.004	0.28
360.212	0.26
360.421	0.29
360.629	0.22
360.837	0.18
361.046	0.29
361.254	0.37
361.462	0.24
361.67	0.22
361.879	0.25
362.087	0.32
362.295	0.28
362.503	0.21
362.711	0.19
362.92	0.28
363.128	0.17
363.336	0.23
363.544	0.18
363.752	0.22
363.96	0.22
364.168	0.25
364.376	0.24
364.584	0.25
364.792	0.29
365	0.27
365.208	0.28
365.416	0.24
365.624	0.31
365.832	0.22
366.04	0.3
366.248	0.22
366.456	0.25
366.664	0.24
366.872	0.25
367.079	0.23
367.287	0.24
367.495	0.23
367.703	0.22
367.911	0.21
368.118	0.24
368.326	0.22
368.534	0.22
368.742	0.3
368.949	0.2
369.157	0.25
369.365	0.27
369.572	0.22
369.78	0.21
369.988	0.25
370.195	0.29
370.403	0.26
370.61	0.21
370.818	0.3
371.026	0.32
371.233	0.23
371.441	0.28
371.648	0.23
371.856	0.24
372.063	0.25
372.271	0.27
372.478	0.21
372.685	0.22
372.893	0.32
373.1	0.29
373.308	0.25
373.515	0.28
373.722	0.26
373.93	0.27
374.137	0.26
374.344	0.31
374.552	0.28
374.759	0.28
374.966	0.23
375.173	0.2
375.381	0.33
375.588	0.23
375.795	0.22
376.002	0.23
376.209	0.23
376.417	0.26
376.624	0.31
376.831	0.27
377.038	0.2
377.245	0.19
377.452	0.24
377.659	0.26
377.866	0.24
378.073	0.24
378.28	0.21
378.487	0.3
378.694	0.31
378.901	0.27
379.108	0.29
379.315	0.3
379.522	0.34
379.729	0.29
379.936	0.22
380.143	0.25
380.35	0.31
380.557	0.27
380.763	0.28
380.97	0.28
381.177	0.23
381.384	0.25
381.591	0.27
381.797	0.26
382.004	0.3
382.211	0.29
382.418	0.26
382.624	0.33
382.831	0.32
383.038	0.27
383.244	0.26
383.451	0.27
383.658	0.33
383.864	0.28
384.071	0.23
384.277	0.34
384.484	0.26
384.69	0.3
384.897	0.29
385.103	0.25
385.31	0.24
385.516	0.24
385.723	0.24
385.929	0.23
386.136	0.28
386.342	0.25
386.549	0.25
386.755	0.33
386.961	0.31
387.168	0.28
387.374	0.25
387.58	0.3
387.787	0.25
387.993	0.26
388.199	0.28
388.406	0.28
388.612	0.33
388.818	0.24
389.024	0.24
389.231	0.31
389.437	0.36
389.643	0.31
389.849	0.31
390.055	0.33
390.261	0.29
390.467	0.34
390.674	0.26
390.88	0.3
391.086	0.3
391.292	0.27
391.498	0.32
391.704	0.33
391.91	0.32
392.116	0.28
392.322	0.16
392.528	0.31
392.734	0.29
392.94	0.29
393.146	0.31
393.352	0.31
393.557	0.27
393.763	0.25
393.969	0.33
394.175	0.31
394.381	0.32
394.587	0.24
394.792	0.32
394.998	0.34
395.204	0.35
395.41	0.28
395.615	0.36
395.821	0.33
396.027	0.34
396.233	0.29
396.438	0.36
396.644	0.44
396.85	0.38
397.055	0.32
397.261	0.31
397.466	0.3
397.672	0.34
397.878	0.37
398.083	0.39
398.289	0.33
398.494	0.35
398.7	0.4
398.905	0.28
399.111	0.42
399.316	0.29
399.522	0.42
399.727	0.31
399.932	0.32
400.138	0.31
400.343	0.37
400.549	0.29
400.754	0.38
400.959	0.42
401.165	0.35
401.37	0.38
401.575	0.3
401.78	0.36
401.986	0.38
402.191	0.38
402.396	0.38
402.601	0.42
402.807	0.42
403.012	0.37
403.217	0.42
403.422	0.42
403.627	0.39
403.832	0.4
404.037	0.47
404.243	0.41
404.448	0.39
404.653	0.4
404.858	0.38
405.063	0.45
405.268	0.45
405.473	0.4
405.678	0.41
405.883	0.59
406.088	0.46
406.293	0.41
406.498	0.46
406.703	0.48
406.907	0.51
407.112	0.41
407.317	0.51
407.522	0.56
407.727	0.5
407.932	0.52
408.136	0.62
408.341	0.52
408.546	0.6
408.751	0.59
408.956	0.58
409.16	0.66
409.365	0.63
409.57	0.6
409.774	0.59
409.979	0.66
410.184	0.68
410.388	0.63
410.593	0.72
410.798	0.76
411.002	0.73
411.207	0.85
411.411	0.8
411.616	0.72
411.82	0.86
412.025	0.85
412.229	0.82
412.434	0.9
412.638	0.91
412.843	0.97
413.047	0.97
413.252	0.93
413.456	0.98
413.66	1.03
413.865	1.06
414.069	1.12
414.273	1.11
414.478	1.07
414.682	1.15
414.886	1.21
415.091	1.23
415.295	1.19
415.499	1.33
415.703	1.29
415.908	1.39
416.112	1.35
416.316	1.57
416.52	1.54
416.724	1.53
416.929	1.66
417.133	1.81
417.337	1.72
417.541	1.75
417.745	1.86
417.949	2.01
418.153	1.94
418.357	2.04
418.561	2.19
418.765	2.24
418.969	2.32
419.173	2.44
419.377	2.4
419.581	2.65
419.785	2.52
419.989	2.65
420.193	2.74
420.397	2.91
420.601	2.96
420.804	3.08
421.008	3.08
421.212	3.23
421.416	3.2
421.62	3.31
421.823	3.39
422.027	3.51
422.231	3.52
422.435	3.47
422.638	3.53
422.842	3.66
423.046	3.76
423.249	3.93
423.453	3.93
423.657	4.15
423.86	4.13
424.064	4.29
424.268	4.48
424.471	4.47
424.675	4.67
424.878	4.78
425.082	4.82
425.285	5.16
425.489	5.12
425.692	5.23
425.896	5.19
426.099	5.48
426.303	5.6
426.506	5.79
426.71	5.96
426.913	6.14
427.116	6.3
427.32	6.26
427.523	6.44
427.726	6.73
427.93	6.75
428.133	7.11
428.336	7.22
428.54	7.31
428.743	7.57
428.946	7.92
429.149	7.81
429.353	7.99
429.556	8.01
429.759	8.05
429.962	8.15
430.165	8.25
430.368	7.94
430.571	8.04
430.775	8.14
430.978	8.06
431.181	8.02
431.384	8.16
431.587	8.34
431.79	8.76
431.993	8.63
432.196	8.97
432.399	9.26
432.602	9.4
432.805	9.52
433.008	9.96
433.211	9.85
433.414	10.39
433.616	10.41
433.819	10.19
434.022	10.47
434.225	10.58
434.428	10.61
434.631	11.2
434.833	10.84
435.036	11.11
435.239	11.38
435.442	11.41
435.645	11.5
435.847	11.54
436.05	11.91
436.253	12.12
436.455	12.22
436.658	12.1
436.861	12.34
437.063	12.6
437.266	12.48
437.468	12.81
437.671	13.07
437.874	13.14
438.076	12.97
438.279	13.54
438.481	13.52
438.684	14.27
438.886	13.79
439.089	14.23
439.291	14.25
439.494	14.48
439.696	14.62
439.899	15.12
440.101	15.67
440.303	15.75
440.506	16.59
440.708	16.34
440.91	16.5
441.113	16.73
441.315	16.89
441.517	16.69
441.72	17.25
441.922	16.85
442.124	16.79
442.326	17.15
442.529	17.41
442.731	17.36
442.933	17.63
443.135	17.51
443.337	17.47
443.539	18
443.742	17.63
443.944	18.37
444.146	18.05
444.348	18.16
444.55	17.89
444.752	18.1
444.954	18.07
445.156	18.03
445.358	18.56
445.56	18.72
445.762	18.52
445.964	18.86
446.166	18.76
446.368	18.61
446.57	18.66
446.772	18.18
446.974	17.84
447.175	18.38
447.377	18.02
447.579	18.43
447.781	18.11
447.983	17.88
448.184	17.44
448.386	17.63
448.588	17.38
448.79	17.25
448.991	17.54
449.193	17.5
449.395	16.88
449.597	16.42
449.798	16.5
450	15.9
450.202	15.83
450.403	15.89
450.605	15.86
450.806	15.52
451.008	15.33
451.21	15.02
451.411	14.59
451.613	13.94
451.814	14.1
452.016	14.03
452.217	13.38
452.419	13.34
452.62	13.2
452.821	12.79
453.023	12.62
453.224	12.29
453.426	11.98
453.627	11.15
453.828	11.17
454.03	11.39
454.231	11.29
454.432	11.07
454.634	10.73
454.835	10.55
455.036	10.45
455.238	10.06
455.439	9.89
455.64	9.68
455.841	9.42
456.042	9.52
456.244	9.2
456.445	8.91
456.646	8.59
456.847	8.6
457.048	8.45
457.249	8.52
457.45	8.23
457.651	7.79
457.852	7.62
458.054	7.35
458.255	7.26
458.456	7.25
458.657	7.14
458.858	6.79
459.058	6.69
459.259	6.78
459.46	6.45
459.661	6.4
459.862	6.35
460.063	6.34
460.264	6.27
460.465	6.08
460.666	6.12
460.866	5.79
461.067	5.59
461.268	5.6
461.469	5.5
461.67	5.35
461.87	5.26
462.071	5.24
462.272	5.06
462.473	5.08
462.673	5.27
462.874	5.15
463.075	5.11
463.275	5.16
463.476	5.23
463.676	5.06
463.877	4.93
464.078	4.92
464.278	4.98
464.479	4.91
464.679	4.77
464.88	4.66
465.08	4.72
465.281	4.52
465.481	4.33
465.682	4.15
465.882	4.17
466.083	4.09
466.283	4
466.483	3.92
466.684	3.8
466.884	3.63
467.085	3.68
467.285	3.76
467.485	3.63
467.686	3.56
467.886	3.47
468.086	3.46
468.286	3.38
468.487	3.41
468.687	3.22
468.887	3.19
469.087	3.33
469.287	3.31
469.488	3.09
469.688	3.22
469.888	3.22
470.088	3.1
470.288	3.05
470.488	3
470.688	2.87
470.888	2.81
471.088	2.72
471.288	2.85
471.488	2.75
471.688	2.74
471.888	2.69
472.088	2.76
472.288	2.68
472.488	2.56
472.688	2.55
472.888	2.57
473.088	2.57
473.288	2.5
473.488	2.51
473.688	2.62
473.887	2.53
474.087	2.44
474.287	2.45
474.487	2.37
474.687	2.37
474.886	2.38
475.086	2.3
475.286	2.34
475.486	2.27
475.685	2.23
475.885	2.21
476.085	2.33
476.284	2.22
476.484	2.26
476.684	2.19
476.883	2.28
477.083	2.13
477.282	2.12
477.482	2.18
477.681	2.11
477.881	2.07
478.08	2.06
478.28	2.02
478.479	2.12
478.679	2.14
478.878	2.05
479.078	2.05
479.277	2.09
479.477	2.08
479.676	2.07
479.875	2.06
480.075	1.91
480.274	2
480.473	2.06
480.673	2.05
480.872	2.05
481.071	2.07
481.271	2.02
481.47	2.02
481.669	2.02
481.868	2.01
482.067	1.99
482.267	1.94
482.466	1.95
482.665	1.92
482.864	1.96
483.063	1.98
483.262	2
483.461	2.05
483.661	2.08
483.86	1.98
484.059	2.04
484.258	2.02
484.457	2.08
484.656	2.04
484.855	2.11
485.054	1.95
485.253	1.96
485.452	1.92
485.651	2.06
485.849	2.01
486.048	1.99
486.247	2.01
486.446	2.09
486.645	2.03
486.844	2.08
487.043	2.02
487.241	2.1
487.44	2.05
487.639	2.13
487.838	2.13
488.037	2.08
488.235	2.19
488.434	2.15
488.633	2.05
488.831	2.2
489.03	2.21
489.229	2.19
489.427	2.21
489.626	2.29
489.825	2.27
490.023	2.32
490.222	2.27
490.42	2.34
490.619	2.34
490.817	2.36
491.016	2.36
491.214	2.4
491.413	2.4
491.611	2.32
491.81	2.38
492.008	2.39
492.207	2.54
492.405	2.51
492.604	2.43
492.802	2.55
493	2.6
493.199	2.59
493.397	2.65
493.595	2.7
493.794	2.66
493.992	2.8
494.19	2.71
494.388	2.79
494.587	2.71
494.785	2.77
494.983	2.74
495.181	2.85
495.379	2.89
495.578	2.93
495.776	2.91
495.974	2.88
496.172	2.95
496.37	3.06
496.568	3.08
496.766	3.07
496.964	3.11
497.162	3.13
497.36	3.23
497.558	3.2
497.756	3.28
497.954	3.24
498.152	3.32
498.35	3.42
498.548	3.39
498.746	3.37
498.944	3.41
499.142	3.41
499.34	3.48
499.538	3.6
499.736	3.51
499.933	3.63
500.131	3.59
500.329	3.77
500.527	3.71
500.725	3.89
500.922	3.86
501.12	3.85
501.318	3.95
501.516	3.92
501.713	4.01
501.911	3.98
502.109	3.98
502.306	4.08
502.504	3.98
502.701	4.07
502.899	4.12
503.097	4.33
503.294	4.21
503.492	4.36
503.689	4.37
503.887	4.39
504.084	4.43
504.282	4.39
504.479	4.37
504.677	4.55
504.874	4.53
505.072	4.44
505.269	4.61
505.466	4.65
505.664	4.71
505.861	4.65
506.059	4.77
506.256	4.75
506.453	4.85
506.651	4.97
506.848	4.97
507.045	4.95
507.242	4.93
507.44	5.03
507.637	5.05
507.834	5.06
508.031	5.18
508.229	5.13
508.426	5.09
508.623	5.25
508.82	5.27
509.017	5.26
509.214	5.24
509.411	5.4
509.608	5.34
509.805	5.43
510.003	5.41
510.2	5.47
510.397	5.66
510.594	5.53
510.791	5.64
510.988	5.64
511.184	5.63
511.381	5.47
511.578	5.68
511.775	5.8
511.972	5.66
512.169	5.77
512.366	5.84
512.563	5.92
512.76	5.95
512.956	5.99
513.153	5.9
513.35	5.86
513.547	5.9
513.744	6.04
513.94	6.05
514.137	6.16
514.334	6.07
514.53	6.15
514.727	6.32
514.924	6.18
515.12	6.24
515.317	6.28
515.514	6.2
515.71	6.2
515.907	6.42
516.103	6.38
516.3	6.27
516.497	6.46
516.693	6.42
516.89	6.45
517.086	6.53
517.283	6.55
517.479	6.44
517.676	6.61
517.872	6.62
518.068	6.64
518.265	6.56
518.461	6.57
518.658	6.71
518.854	6.69
519.05	6.81
519.247	6.85
519.443	6.71
519.639	6.82
519.836	6.77
520.032	6.75
520.228	6.85
520.424	6.84
520.621	6.89
520.817	6.94
521.013	6.87
521.209	7.11
521.405	7.08
521.601	7.03
521.798	6.97
521.994	7.01
522.19	6.99
522.386	7.04
522.582	7.09
522.778	7.27
522.974	7.14
523.17	7.11
523.366	7.05
523.562	7.11
523.758	7.2
523.954	7
524.15	7.2
524.346	7.29
524.542	7.24
524.738	7.26
524.934	7.38
525.129	7.32
525.325	7.22
525.521	7.23
525.717	7.44
525.913	7.34
526.109	7.3
526.304	7.35
526.5	7.43
526.696	7.41
526.892	7.39
527.087	7.56
527.283	7.56
527.479	7.53
527.674	7.26
527.87	7.5
528.066	7.45
528.261	7.52
528.457	7.43
528.653	7.58
528.848	7.56
529.044	7.69
529.239	7.46
529.435	7.51
529.63	7.51
529.826	7.52
530.021	7.59
530.217	7.61
530.412	7.64
530.608	7.53
530.803	7.65
530.999	7.57
531.194	7.64
531.389	7.69
531.585	7.72
531.78	7.8
531.975	7.69
532.171	7.79
532.366	7.72
532.561	7.73
532.757	7.75
532.952	7.9
533.147	7.58
533.342	7.75
533.538	7.63
533.733	7.87
533.928	7.56
534.123	7.75
534.318	7.84
534.513	7.71
534.709	7.93
534.904	7.83
535.099	7.93
535.294	7.83
535.489	7.93
535.684	7.81
535.879	7.85
536.074	7.9
536.269	7.88
536.464	7.92
536.659	7.85
536.854	7.83
537.049	7.94
537.244	7.91
537.439	7.9
537.634	7.87
537.828	8
538.023	7.94
538.218	7.96
538.413	7.76
538.608	7.97
538.803	7.94
538.997	7.88
539.192	7.92
539.387	7.89
539.582	7.89
539.776	7.84
539.971	8.03
540.166	7.96
540.36	7.9
540.555	8.11
540.75	7.94
540.944	8.01
541.139	7.96
541.334	7.98
541.528	7.98
541.723	8.1
541.917	8.07
542.112	7.94
542.306	7.86
542.501	7.9
542.695	7.99
542.89	7.86
543.084	7.94
543.279	7.97
543.473	8.08
543.668	8.07
543.862	7.87
544.056	7.96
544.251	8.07
544.445	8.09
544.64	8.2
544.834	7.78
545.028	7.74
545.222	8.03
545.417	8.28
545.611	8.1
545.805	8.05
546	7.87
546.194	8.13
546.388	8.08
546.582	8.02
546.776	8.02
546.97	8.05
547.165	8.02
547.359	8.03
547.553	7.94
547.747	7.99
547.941	8.22
548.135	8.01
548.329	8.06
548.523	8.06
548.717	8.01
548.911	8.05
549.105	7.98
549.299	8.13
549.493	8.08
549.687	7.97
549.881	8.17
550.075	8.09
550.269	7.95
550.463	8.11
550.657	8.09
550.85	8.04
551.044	8.04
551.238	8.13
551.432	8.08
551.626	8.16
551.82	8.09
552.013	7.99
552.207	8.15
552.401	8.15
552.594	8.11
552.788	8.04
552.982	8.01
553.176	7.95
553.369	8.2
553.563	8.15
553.756	8.08
553.95	8.13
554.144	8.08
554.337	8.14
554.531	7.94
554.724	8.15
554.918	8.16
555.111	8.07
555.305	8.08
555.498	8.06
555.692	8.24
555.885	8.08
556.079	8.03
556.272	8.12
556.466	8.09
556.659	8.06
556.852	8.18
557.046	8.02
557.239	7.9
557.432	8.06
557.626	8.14
557.819	8.14
558.012	8.12
558.206	8.25
558.399	8.08
558.592	8.07
558.785	8.06
558.979	8.11
559.172	8.14
559.365	8.05
559.558	8.03
559.751	8
559.944	8.15
560.138	8.06
560.331	8.1
560.524	8.07
560.717	8.08
560.91	8.05
561.103	8.13
561.296	7.96
561.489	8.12
561.682	8.16
561.875	8.14
562.068	8.21
562.261	8.01
562.454	8.23
562.647	7.99
562.84	8.11
563.032	8.18
563.225	8.01
563.418	8.05
563.611	8.09
563.804	8.07
563.997	8.01
564.19	7.95
564.382	8.23
564.575	8.07
564.768	8.08
564.961	8.16
565.153	7.93
565.346	8
565.539	8.18
565.731	8.05
565.924	8.12
566.117	8.2
566.309	8.12
566.502	8.06
566.695	8.05
566.887	8.15
567.08	8.03
567.272	8.11
567.465	8.01
567.657	8.09
567.85	7.96
568.042	8.09
568.235	8.13
568.427	7.93
568.62	8.04
568.812	8.03
569.005	8.15
569.197	7.93
569.389	8.02
569.582	8.01
569.774	8.05
569.966	7.96
570.159	7.89
570.351	7.96
570.543	8.01
570.736	8
570.928	7.86
571.12	8
571.312	7.95
571.505	7.77
571.697	8.02
571.889	8
572.081	7.96
572.273	8.01
572.465	8.03
572.658	7.96
572.85	8
573.042	8.01
573.234	7.91
573.426	7.96
573.618	7.96
573.81	7.98
574.002	7.93
574.194	7.93
574.386	7.92
574.578	7.81
574.77	7.86
574.962	7.95
575.154	7.78
575.346	7.87
575.538	7.86
575.729	7.91
575.921	7.89
576.113	7.96
576.305	7.91
576.497	8
576.689	7.74
576.88	7.76
577.072	7.96
577.264	7.84
577.456	7.86
577.647	7.84
577.839	7.91
578.031	7.84
578.223	7.83
578.414	7.73
578.606	7.88
578.798	7.92
578.989	7.89
579.181	7.92
579.372	7.85
579.564	7.77
579.755	7.8
579.947	7.7
580.139	7.8
580.33	7.63
580.522	7.8
580.713	7.71
580.905	7.74
581.096	7.72
581.287	7.72
581.479	7.75
581.67	7.71
581.862	7.67
582.053	7.7
582.244	7.55
582.436	7.82
582.627	7.61
582.818	7.6
583.01	7.59
583.201	7.69
583.392	7.58
583.583	7.62
583.775	7.46
583.966	7.54
584.157	7.59
584.348	7.73
584.54	7.53
584.731	7.65
584.922	7.6
585.113	7.39
585.304	7.56
585.495	7.48
585.686	7.62
585.877	7.52
586.068	7.71
586.259	7.57
586.45	7.5
586.641	7.52
586.832	7.59
587.023	7.49
587.214	7.44
587.405	7.52
587.596	7.45
587.787	7.32
587.978	7.48
588.169	7.4
588.36	7.37
588.551	7.37
588.742	7.43
588.932	7.5
589.123	7.3
589.314	7.48
589.505	7.33
589.696	7.37
589.886	7.31
590.077	7.31
590.268	7.27
590.458	7.25
590.649	7.12
590.84	7.3
591.03	7.33
591.221	7.28
591.412	7.09
591.602	7.39
591.793	7.23
591.984	7.2
592.174	7.19
592.365	7.3
592.555	7.15
592.746	7.1
592.936	7.17
593.127	7.17
593.317	7.18
593.508	7.18
593.698	7.1
593.889	7.1
594.079	7.01
594.269	6.99
594.46	7.07
594.65	7.07
594.84	7.04
595.031	6.95
595.221	6.95
595.411	7
595.602	7
595.792	6.92
595.982	6.86
596.172	7.02
596.363	6.94
596.553	6.87
596.743	6.94
596.933	6.88
597.123	6.81
597.314	6.74
597.504	6.78
597.694	6.84
597.884	6.74
598.074	6.85
598.264	6.85
598.454	6.78
598.644	6.78
598.834	6.78
599.024	6.74
599.214	6.66
599.404	6.79
599.594	6.68
599.784	6.66
599.974	6.72
600.164	6.67
600.354	6.62
600.544	6.55
600.734	6.62
600.924	6.59
601.114	6.44
601.303	6.52
601.493	6.52
601.683	6.55
601.873	6.53
602.063	6.46
602.252	6.5
602.442	6.4
602.632	6.42
602.821	6.37
603.011	6.46
603.201	6.4
603.39	6.37
603.58	6.33
603.77	6.37
603.959	6.48
604.149	6.35
604.339	6.32
604.528	6.39
604.718	6.39
604.907	6.28
605.097	6.22
605.286	6.28
605.476	6.2
605.665	6.27
605.855	6.16
606.044	6.27
606.234	6.21
606.423	6.2
606.612	6.15
606.802	6.07
606.991	6.23
607.181	6.21
607.37	6.13
607.559	5.9
607.749	6.1
607.938	5.99
608.127	6.01
608.316	6.06
608.506	5.94
608.695	6.07
608.884	5.97
609.073	6.01
609.263	6
609.452	6.02
609.641	5.8
609.83	5.82
610.019	5.93
610.208	5.88
610.397	5.82
610.586	5.81
610.775	5.73
610.965	5.83
611.154	5.73
611.343	5.78
611.532	5.7
611.721	5.82
611.91	5.74
612.099	5.65
612.287	5.63
612.476	5.58
612.665	5.73
612.854	5.55
613.043	5.65
613.232	5.61
613.421	5.54
613.61	5.54
613.798	5.53
613.987	5.56
614.176	5.53
614.365	5.54
614.554	5.52
614.742	5.53
614.931	5.41
615.12	5.52
615.309	5.46
615.497	5.3
615.686	5.31
615.875	5.37
616.063	5.29
616.252	5.42
616.44	5.34
616.629	5.28
616.818	5.33
617.006	5.24
617.195	5.18
617.383	5.26
617.572	5.15
617.76	5.17
617.949	5.17
618.137	5.25
618.326	5.32
618.514	5.04
618.703	5.03
618.891	5.14
619.079	5
619.268	5.21
619.456	5
619.644	5.08
619.833	4.99
620.021	4.94
620.209	4.91
620.398	4.92
620.586	4.94
620.774	4.97
620.962	4.93
621.151	5
621.339	4.9
621.527	4.82
621.715	4.83
621.903	4.86
622.092	4.78
622.28	4.88
622.468	4.76
622.656	4.79
622.844	4.74
623.032	4.84
623.22	4.65
623.408	4.81
623.596	4.73
623.784	4.79
623.972	4.65
624.16	4.68
624.348	4.71
624.536	4.72
624.724	4.59
624.912	4.64
625.1	4.6
625.288	4.59
625.476	4.54
625.664	4.59
625.851	4.53
626.039	4.54
626.227	4.48
626.415	4.49
626.603	4.41
626.79	4.42
626.978	4.45
627.166	4.49
627.354	4.32
627.541	4.38
627.729	4.27
627.917	4.54
628.104	4.42
628.292	4.36
628.48	4.38
628.667	4.28
628.855	4.39
629.042	4.29
629.23	4.2
629.418	4.21
629.605	4.26
629.793	4.13
629.98	4.2
630.168	4.12
630.355	4.26
630.543	4.18
630.73	4.08
630.917	4.1
631.105	4.22
631.292	4.12
631.48	4.06
631.667	4.21
631.854	4.06
632.042	4.04
632.229	3.96
632.416	4.06
632.604	4.01
632.791	3.84
632.978	3.96
633.165	3.94
633.353	4
633.54	3.95
633.727	3.86
633.914	3.87
634.101	3.87
634.289	3.89
634.476	3.79
634.663	3.84
634.85	3.82
635.037	3.74
635.224	3.77
635.411	3.83
635.598	3.72
635.785	3.73
635.972	3.7
636.159	3.76
636.346	3.69
636.533	3.68
636.72	3.69
636.907	3.64
637.094	3.6
637.281	3.58
637.468	3.57
637.655	3.65
637.842	3.58
638.029	3.52
638.215	3.56
638.402	3.56
638.589	3.52
638.776	3.49
638.963	3.46
639.149	3.54
639.336	3.54
639.523	3.51
639.709	3.47
639.896	3.37
640.083	3.43
640.27	3.45
640.456	3.4
640.643	3.35
640.829	3.31
641.016	3.31
641.203	3.26
641.389	3.35
641.576	3.28
641.762	3.32
641.949	3.26
642.135	3.25
642.322	3.25
642.508	3.14
642.695	3.22
642.881	3.21
643.068	3.16
643.254	3.19
643.441	3.16
643.627	3.17
643.813	3.07
644	3.18
644.186	3.04
644.372	3.14
644.559	3.2
644.745	3.08
644.931	3
645.118	3.07
645.304	3.02
645.49	3.02
645.676	3
645.862	3.03
646.049	3.09
646.235	3.01
646.421	3.12
646.607	3.06
646.793	2.98
646.979	2.91
647.165	2.97
647.352	2.96
647.538	2.93
647.724	2.9
647.91	2.88
648.096	2.92
648.282	2.9
648.468	2.88
648.654	2.91
648.84	2.85
649.026	2.82
649.212	2.77
649.397	2.81
649.583	2.76
649.769	2.85
649.955	2.77
650.141	2.81
650.327	2.81
650.513	2.73
650.698	2.83
650.884	2.65
651.07	2.73
651.256	2.72
651.442	2.7
651.627	2.58
651.813	2.66
651.999	2.65
652.184	2.66
652.37	2.63
652.556	2.62
652.741	2.67
652.927	2.49
653.113	2.62
653.298	2.6
653.484	2.55
653.669	2.56
653.855	2.61
654.04	2.59
654.226	2.57
654.412	2.53
654.597	2.47
654.782	2.53
654.968	2.47
655.153	2.56
655.339	2.52
655.524	2.44
655.71	2.49
655.895	2.43
656.08	2.46
656.266	2.57
656.451	2.47
656.636	2.43
656.822	2.44
657.007	2.44
657.192	2.44
657.378	2.39
657.563	2.38
657.748	2.47
657.933	2.42
658.118	2.32
658.304	2.33
658.489	2.38
658.674	2.35
658.859	2.29
659.044	2.3
659.229	2.35
659.414	2.34
659.599	2.27
659.785	2.23
659.97	2.26
660.155	2.28
660.34	2.3
660.525	2.2
660.71	2.16
660.895	2.23
661.08	2.23
661.264	2.1
661.449	2.2
661.634	2.21
661.819	2.19
662.004	2.13
662.189	2.07
662.374	2.09
662.559	2.07
662.743	2.03
662.928	2.11
663.113	2.02
663.298	2.01
663.483	2.01
663.667	2.09
663.852	2.01
664.037	2.04
664.221	1.97
664.406	2.06
664.591	2.03
664.775	1.98
664.96	1.93
665.145	1.92
665.329	2.01
665.514	1.92
665.698	1.85
665.883	1.88
666.068	1.93
666.252	1.86
666.437	1.82
666.621	1.89
666.806	1.89
666.99	1.82
667.174	1.78
667.359	1.87
667.543	1.77
667.728	1.81
667.912	1.71
668.096	1.79
668.281	1.68
668.465	1.8
668.649	1.77
668.834	1.72
669.018	1.73
669.202	1.74
669.387	1.68
669.571	1.74
669.755	1.64
669.939	1.64
670.124	1.68
670.308	1.71
670.492	1.67
670.676	1.64
670.86	1.59
671.044	1.57
671.228	1.68
671.413	1.55
671.597	1.59
671.781	1.61
671.965	1.67
672.149	1.61
672.333	1.58
672.517	1.53
672.701	1.59
672.885	1.56
673.069	1.49
673.253	1.59
673.437	1.54
673.621	1.49
673.804	1.55
673.988	1.58
674.172	1.45
674.356	1.45
674.54	1.53
674.724	1.61
674.908	1.47
675.091	1.55
675.275	1.51
675.459	1.56
675.643	1.55
675.826	1.44
676.01	1.45
676.194	1.5
676.377	1.5
676.561	1.5
676.745	1.45
676.928	1.46
677.112	1.45
677.296	1.48
677.479	1.38
677.663	1.35
677.846	1.39
678.03	1.4
678.213	1.37
678.397	1.4
678.58	1.35
678.764	1.39
678.947	1.32
679.131	1.39
679.314	1.32
679.498	1.31
679.681	1.32
679.865	1.39
680.048	1.32
680.231	1.26
680.415	1.28
680.598	1.3
680.781	1.3
680.965	1.23
681.148	1.28
681.331	1.2
681.514	1.33
681.698	1.23
681.881	1.26
682.064	1.32
682.247	1.25
682.43	1.21
682.614	1.22
682.797	1.31
682.98	1.23
683.163	1.2
683.346	1.3
683.529	1.21
683.712	1.22
683.895	1.27
684.078	1.12
684.261	1.14
684.444	1.24
684.627	1.24
684.81	1.16
684.993	1.17
685.176	1.24
685.359	1.15
685.542	1.11
685.725	1.22
685.908	1.14
686.091	1.13
686.274	1.18
686.457	1.14
686.639	1.12
686.822	1.15
687.005	1.13
687.188	1.09
687.371	1.19
687.553	1.12
687.736	1.12
687.919	1.21
688.102	1.21
688.284	1.11
688.467	1.06
688.65	1.07
688.832	1.04
689.015	1.02
689.197	1.01
689.38	1.17
689.563	1.08
689.745	1.05
689.928	1
690.11	1.03
690.293	1.02
690.475	1.01
690.658	1.05
690.84	1.01
691.023	1.02
691.205	0.97
691.388	1.09
691.57	1.05
691.752	0.99
691.935	0.89
692.117	0.98
692.3	1
692.482	0.97
692.664	0.94
692.847	0.97
693.029	1.04
693.211	1.01
693.393	0.92
693.576	0.9
693.758	0.95
693.94	0.98
694.122	0.93
694.304	0.9
694.487	0.92
694.669	1
694.851	0.91
695.033	0.95
695.215	0.92
695.397	0.85
695.579	0.96
695.761	0.82
695.943	0.84
696.125	0.94
696.308	0.97
696.49	0.8
696.671	1.05
696.853	0.89
697.035	1.11
697.217	0.85
697.399	0.94
697.581	0.83
697.763	0.93
697.945	0.81
698.127	0.94
698.309	0.76
698.491	0.92
698.672	0.88
698.854	0.91
699.036	0.93
699.218	0.88
699.399	0.87
699.581	0.8
699.763	0.8
699.945	0.75
700.126	0.81
700.308	0.91
700.49	0.83
700.671	0.73
700.853	0.77
701.035	0.78
701.216	0.89
701.398	0.75
701.579	0.76
701.761	0.88
701.943	0.78
702.124	0.68
702.306	0.78
702.487	0.91
702.669	0.78
702.85	0.76
703.031	0.68
703.213	0.84
703.394	0.77
703.576	0.74
703.757	0.84
703.938	0.8
704.12	0.96
704.301	0.8
704.483	0.75
704.664	0.78
704.845	0.82
705.026	0.78
705.208	0.76
705.389	0.74
705.57	0.77
705.751	0.77
705.933	0.75
706.114	0.83
706.295	0.74
706.476	0.66
706.657	0.85
706.838	0.73
707.02	0.75
707.201	0.72
707.382	0.7
707.563	0.76
707.744	0.72
707.925	0.67
708.106	0.71
708.287	0.8
708.468	0.84
708.649	0.76
708.83	0.72
709.011	0.65
709.192	0.72
709.373	0.62
709.554	0.66
709.734	0.83
709.915	0.76
710.096	0.73
710.277	0.61
710.458	0.73
710.639	0.71
710.819	0.59
711	0.63
711.181	0.75
711.362	0.68
711.542	0.7
711.723	0.66
711.904	0.73
712.085	0.7
712.265	0.67
712.446	0.57
712.627	0.63
712.807	0.65
712.988	0.66
713.168	0.65
713.349	0.69
713.53	0.49
713.71	0.55
713.891	0.58
714.071	0.67
714.252	0.55
714.432	0.6
714.613	0.58
714.793	0.6
714.974	0.72
715.154	0.72
715.334	0.59
715.515	0.67
715.695	0.59
715.876	0.66
716.056	0.61
716.236	0.57
716.417	0.65
716.597	0.57
716.777	0.8
716.957	0.6
717.138	0.65
717.318	0.58
717.498	0.57
717.678	0.63
717.859	0.64
718.039	0.51
718.219	0.65
718.399	0.57
718.579	0.52
718.759	0.58
718.939	0.7
719.12	0.64
719.3	0.59
719.48	0.48
719.66	0.43
719.84	0.75
720.02	0.59
720.2	0.55
720.38	0.61
720.56	0.68
720.74	0.49
720.92	0.61
721.1	0.76
721.279	0.68
721.459	0.64
721.639	0.46
721.819	0.7
721.999	0.55
722.179	0.68
722.359	0.46
722.538	0.56
722.718	0.57
722.898	0.52
723.078	0.52
723.257	0.57
723.437	0.66
723.617	0.61
723.797	0.64
723.976	0.64
724.156	0.66
724.336	0.71
724.515	0.84
724.695	0.44
724.874	0.59
725.054	0.57
725.234	0.52
725.413	0.63
725.593	0.49
725.772	0.56
725.952	0.54
726.131	0.59
726.311	0.64
726.49	0.55
726.67	0.46
726.849	0.55
727.028	0.63
727.208	0.56
727.387	0.67
727.567	0.46
727.746	0.53
727.925	0.58
728.105	0.52
728.284	0.56
728.463	0.45
728.643	0.65
728.822	0.4
729.001	0.55
729.18	0.54
729.359	0.64
729.539	0.54
729.718	0.57
729.897	0.67
730.076	0.51
730.255	0.54
730.434	0.55
730.614	0.76
730.793	0.72
730.972	0.54
731.151	0.59
731.33	0.64
731.509	0.65
731.688	0.54
731.867	0.63
732.046	0.42
732.225	0.72
732.404	0.49
732.583	0.48
732.762	0.52
732.941	0.65
733.12	0.58
733.298	0.49
733.477	0.61
733.656	0.55
733.835	0.49
734.014	0.67
734.193	0.64
734.371	0.63
734.55	0.71
734.729	0.54
734.908	0.66
735.086	0.61
735.265	0.74
735.444	0.33
735.623	0.43
735.801	0.45
735.98	0.51
736.159	0.58
736.337	0.55
736.516	0.57
736.694	0.59
736.873	0.57
737.052	0.75
737.23	0.67
737.409	0.58
737.587	0.69
737.766	0.37
737.944	0.56
738.123	0.63
738.301	0.6
738.479	0.5
738.658	0.58
738.836	0.39
739.015	0.48
739.193	0.63
739.371	0.52
739.55	0.53
739.728	0.47
739.906	0.62
740.085	0.78
740.263	0.72
740.441	0.37
740.62	0.75
740.798	0.6
740.976	0.52
741.154	0.43
741.332	0.72
741.511	0.58
741.689	0.53
741.867	0.71
742.045	0.49
742.223	0.56
742.401	0.44
742.579	0.52
742.757	0.66
742.935	0.33
743.114	0.42
743.292	0.45
743.47	0.54
743.648	0.42
743.826	0.47
744.004	0.57
744.181	0.58
744.359	0.48
744.537	0.49
744.715	0.43
744.893	0.47
745.071	0.5
745.249	0.48
745.427	0.39
745.605	0.6
745.782	0.43
745.96	0.58
746.138	0.54
746.316	0.5
746.493	0.5
746.671	0.48
746.849	0.4
747.027	0.49
747.204	0.21
747.382	0.45
747.56	0.25
747.737	0.39
747.915	0.4
748.093	0.45
748.27	0.4
748.448	0.4
748.625	0.3
748.803	0.3
748.98	0.24
749.158	0.49
749.335	0.54
749.513	0.38
749.69	0.47
749.868	0.48
750.045	0.47
750.223	0.45
750.4	0.27
750.578	0.52
750.755	0.4
750.932	0.27
751.11	0.54
751.287	0.22
751.464	0.6
751.642	0.41
751.819	0.35
751.996	0.41
752.173	0.46
752.351	0.25
752.528	0.4
752.705	0.34
752.882	0.33
753.06	0.44
753.237	0.37
753.414	0.6
753.591	0.58
753.768	0.4
753.945	0.32
754.122	0.43
754.299	0.49
754.476	0.27
754.654	0.39
754.831	0.45
755.008	0.51
755.185	0.3
755.362	0.27
755.539	0.46
755.716	0.52
755.892	0.44
756.069	0.37
756.246	0.32
756.423	0.37
756.6	0.51
756.777	0.42
756.954	0.58
757.131	0.35
757.307	0.23
757.484	0.29
757.661	0.42
757.838	0.59
758.015	0.24
758.191	0.38
758.368	0.39
758.545	0.55
758.721	0.45
758.898	0.19
759.075	0.4
759.251	0.54
759.428	0.46
759.605	0.3
759.781	0.38
759.958	0.41
760.134	0.41
760.311	0.31
760.488	0.45
760.664	0.5
760.841	0.49
761.017	0.26
761.194	0.47
761.37	0.5
761.547	0.4
761.723	0.31
761.899	0.57
762.076	0.19
762.252	0.21
762.429	0.25
762.605	0.47
762.781	0.38
762.958	0.36
763.134	0.24
763.31	0.25
763.486	0.5
763.663	0.22
763.839	0.34
764.015	0.17
764.191	0.19
764.368	0.33
764.544	0.39
764.72	0.41
764.896	0.45
765.072	0.33
765.248	0.5
765.425	0.37
765.601	0.38
765.777	0.37
765.953	0.14
766.129	0.25
766.305	0.25
766.481	0.37
766.657	0.37
766.833	0.49
767.009	0.26
767.185	0.28
767.361	0.43
767.537	0.23
767.713	0.45
767.889	0.29
768.065	0.46
768.24	0.42
768.416	0.36
768.592	0.3
768.768	0.28
768.944	0.3
769.12	0.29
769.295	0.38
769.471	0.29
769.647	0.38
769.823	0.59
769.998	0.37
770.174	0.16
770.35	0.53
770.525	0.61
770.701	0.41
770.877	0.33
771.052	0.24
771.228	0.46
771.403	0.37
771.579	0.49
771.755	0.65
771.93	0.29
772.106	0.28
772.281	0.13
772.457	0.4
772.632	0.35
772.808	0.25
772.983	0.21
773.159	0.29
773.334	0.57
773.509	0.52
773.685	0.41
773.86	0.66
774.036	0.49
774.211	0.36
774.386	0.34
774.562	0.29
774.737	0.24
774.912	0.15
775.087	0.32
775.263	0.33
775.438	0.38
775.613	0.27
775.788	0.41
775.964	0.51
776.139	0.78
776.314	0.39
776.489	0.44
776.664	0.35
776.839	0.33
777.014	0.56
777.19	0.53
777.365	0.59
777.54	0.67
777.715	0.35
777.89	0.36
778.065	0.13
778.24	0.29
778.415	0.63
778.59	0.32
778.765	0.51
778.94	0.41
779.115	0.36
779.289	0.24
779.464	0.44
779.639	0.37
779.814	0.09
779.989	0.19
780.164	0.49
780.339	0.34
780.513	0.26
780.688	0.38
780.863	0.41
781.038	0.49
781.212	0.3
781.387	0.4
781.562	0.52
781.737	0.53
781.911	0.48
782.086	0.25
782.261	0.41
782.435	0.53
782.61	0.39
782.784	0.38
782.959	0.59
783.134	0.25
783.308	0.07
783.483	0.27
783.657	0.84
783.832	0.59
784.006	0.24
784.181	0.61
784.355	0.8
784.53	0.57
784.704	0.3
784.878	0.69
785.053	0.54
785.227	0.56
785.402	0.89
785.576	0.07
785.75	0.46
785.925	0.18
786.099	0.57
786.273	0.65
786.448	0.58
786.622	0.58
786.796	0.67
786.97	0.59
787.145	0.98
787.319	0.19
787.493	0.31
787.667	0.3
787.841	0.3
788.015	0.68
788.19	0.33
788.364	0.39
788.538	0.69
788.712	0.61
788.886	0.48
789.06	0.62
789.234	0.5
789.408	0.15
789.582	0.49
789.756	0.16
789.93	0.28
790.104	0.53
790.278	0.43
790.452	0.13
790.626	0.58
790.8	0.34
790.973	0.39
791.147	0.84
791.321	0.85
791.495	0.6
791.669	0.4
791.843	0.56
792.016	0.41
792.19	0.74
792.364	0.2
792.538	0.87
792.711	0.72
792.885	0.16
793.059	0.27
793.233	-0.22
793.406	0.61
793.58	0.32
793.754	0.59
793.927	0.34
794.101	0.56
794.274	0.72
794.448	0.68
794.622	0.28
794.795	0.77
794.969	0.15
795.142	0.81
795.316	0.25
795.489	0.33
795.663	0.93
795.836	0.35
796.009	0.29
796.183	0.86
796.356	0.41
796.53	0.48
796.703	0.5
796.876	0.9
797.05	0.39
797.223	0.29
797.396	0.7
797.57	0.64
797.743	0.67
797.916	0.71
798.09	0.28
798.263	0.65
798.436	0.72
798.609	0.43
798.782	0.13
798.956	0.6
799.129	0.54
799.302	0.29
799.475	0.38
799.648	0.39
799.821	0.24
799.994	0.42
800.167	0.34
800.34	0.44
800.514	0.7
800.687	0.49
800.86	0.29
801.033	0.48
801.206	0.64
801.379	0.15
801.551	0.69
801.724	0.74
801.897	0.9
802.07	0.29
802.243	0.1
802.416	0.45
802.589	0.6
802.762	0.69
802.935	0.62
803.107	0.46
803.28	0.86
803.453	0.84
803.626	0.4
803.798	0.44
803.971	0.09
804.144	0.47
804.317	0.45
804.489	0.67
804.662	0.36
804.835	0.6
805.007	0.38
805.18	1.11
805.353	0.86
805.525	0.17
805.698	0.61
805.87	0.62
806.043	0.89
806.215	0.1
806.388	-0.08
806.56	0.65
806.733	0.99
806.905	0.56
807.078	0.36
807.25	0.29
807.423	0.55
807.595	0.75
807.768	0.71
807.94	0.86
808.112	0.61
808.285	0.48
808.457	0.43
808.629	0.56
808.802	0.78
808.974	0.91
809.146	0.65
809.318	0.11
809.491	0.75
809.663	0.91
809.835	0.21
810.007	0.7
810.18	0.62
810.352	-0.24
810.524	0.4
810.696	0.85
810.868	0.93
811.04	0.61
811.212	0.24
811.384	0.88
811.556	0.71
811.728	0.7
811.901	1.39
812.073	0.29
812.245	0.79
812.417	0.76
812.589	-0.06
812.76	0.63
812.932	0.7
813.104	0.72
813.276	0.35
813.448	0.57
813.62	0.7
813.792	0.53
813.964	0.55
814.136	0.83
814.307	0.43
814.479	0.55
814.651	0.48
814.823	1.2
814.995	0.55
815.166	0.77
815.338	0.18
815.51	0.2
815.681	1.84
815.853	0.71
816.025	0.56
816.196	1.05
816.368	0.83
816.54	0.31
816.711	0.32
816.883	0.72
817.054	1.67
817.226	0.06
817.398	0.83
817.569	0.45
817.741	0.85
817.912	0.64
818.084	0.4
818.255	0.73
818.426	0.53
818.598	0.24
818.769	0.23
818.941	1.24
819.112	1.08
819.283	0.78
819.455	0.24
819.626	0.8
819.798	0.68
819.969	0.66
820.14	0.51
820.311	0.64
820.483	0.98
820.654	1.56
820.825	0.29
820.996	0.24
821.168	0.02
821.339	0.47
821.51	0.38
821.681	0.52
821.852	0.97
822.023	0.2
822.195	0.29
822.366	1.12
822.537	0.19
822.708	0.75
822.879	0.15
823.05	1.43
823.221	0.61
823.392	0.77
823.563	0.93
823.734	0.67
823.905	1.02
824.076	0.3
824.247	0.59
824.418	0.3
824.589	1.98
824.759	0.94
824.93	0.47
825.101	0.41
825.272	1.45
825.443	1.77
825.614	1.78
825.784	0.18
825.955	2.04
826.126	1.46
826.297	0.79
826.467	1.41
826.638	1.39
826.809	0.44
826.98	0.24
827.15	1.28
827.321	0.81
827.492	1.69
827.662	1.22
827.833	1.46
828.003	1.38
828.174	0.56
828.345	0.22
828.515	1.6
828.686	1.1
828.856	0.43
829.027	0.88
829.197	1.2
829.368	0.8
829.538	0.16
829.709	0.06
829.879	0.35
830.049	0.99
830.22	1.08
830.39	0.8
830.56	1.48
830.731	0.67
830.901	0.57
831.072	0.86
831.242	0.81
831.412	0.95
831.582	0.91
831.753	-0.19
831.923	1.49
832.093	0.76
832.263	0.87
832.434	0.67
832.604	0.95
832.774	1.36
832.944	1.33
833.114	0.38
833.284	1.22
833.454	-0
833.624	0.17
833.795	0.51
833.965	1.19
834.135	1.6
834.305	-0.13
834.475	0.36
834.645	0.87
834.815	0.7
834.985	-0.09
835.155	0.87
835.325	1.16
835.494	1.28
835.664	1.03
835.834	0.12
836.004	0.86
836.174	0.98
836.344	0.83
836.514	0.72
836.684	0.72
836.853	0.67
837.023	0.37
837.193	0.11
837.363	1.22
837.532	2.08
837.702	0.82
837.872	0.12
838.041	1.29
838.211	2.48
838.381	0.01
838.55	0.81
838.72	2.7
838.89	1.67
839.059	0.58
839.229	0.75
839.398	2.37
839.568	0.88
839.738	1.09
839.907	2.13
840.077	0.95
840.246	-0.24
840.416	0.34
840.585	0.25
840.755	1.92
840.924	2.02
841.093	0.16
841.263	0.61
841.432	0.88
841.602	0.26
841.771	0.4
841.94	0.69
842.11	3.12
842.279	2.18
842.448	0.78
842.617	0.73
842.787	2.16
842.956	0.02
843.125	1.92
843.294	0.72
843.464	1.47
843.633	1.72
843.802	-0.57
843.971	1.18
844.14	1.79
844.309	1.23
844.479	1.06
844.648	0.61
844.817	-0.15
844.986	1.74
845.155	1.26
845.324	1.26
845.493	0.52
845.662	1.87
845.831	0.86
846	1.09
846.169	0.25
846.338	2.29
846.507	0.98
846.676	0.95
846.844	0.51
847.013	2.16
847.182	1.12
847.351	0.13
847.52	1.41
847.689	1.57
847.858	0.83
848.026	0.22
848.195	0.71
848.364	0.53
848.533	-0.34
848.701	0.86
848.87	1.1
849.039	1.76
849.207	1.73
849.376	2.11
849.545	2.92
849.713	1.06
849.882	1.59
850.051	0.49
850.219	1.17
850.388	1.01
850.556	0.72
850.725	0.67
850.893	1.54
851.062	1.22
851.23	1.51
851.399	-0.26
851.567	0.62
851.736	0.48
851.904	-0.37
852.073	1.36
852.241	2.98
852.41	1.54
852.578	0.86
852.746	1.11
852.915	1.75
853.083	1.09
853.251	0.17
853.42	0.77
853.588	0.81
853.756	1.72
853.924	1.27
854.093	0.66
854.261	0.84
854.429	0.24
854.597	1.63
854.765	-0.51
854.934	2.08
855.102	2.71
855.27	1.08
855.438	2.16
855.606	2.51
855.774	2.96
855.942	0.08
856.11	0.12
856.278	1.26
856.446	2.05
856.614	1.69
856.782	0.9
856.95	1.35
857.118	1.94
857.286	1.01
857.454	0.67
857.622	2.74
857.79	2.01
857.958	0.33
858.126	0.28
858.294	0.56
858.462	1.3
858.629	2.62
858.797	0.15
858.965	1.8
859.133	2.28
859.301	0.36
859.468	2.47
859.636	0.56
859.804	2.23
859.971	2.69
860.139	0.24
860.307	1.5
860.474	2.49
860.642	0.82
860.81	1.07
860.977	1.78
861.145	2.06
861.313	0.42
861.48	0.82
861.648	3.77
861.815	1.36
861.983	-0.83
862.15	0.33
862.318	2.85
862.485	2.67
862.653	1.22
862.82	0.22
862.988	2.63
863.155	2.75
863.322	1.28
863.49	0.43
863.657	2.23
863.824	2.07
863.992	2.54
864.159	1.45
864.326	2.28
864.494	0.52
864.661	3.91
864.828	-0.07
864.996	1.78
865.163	1.94
865.33	0.27
865.497	-0.26
865.664	0.7
865.832	-0.16
865.999	2.42
866.166	-0.76
866.333	0.67
866.5	-0.14
866.667	1.95
866.834	1.72
867.001	2.44
867.168	0.12
867.335	3.05
867.502	0.32
867.669	2.76
867.836	3.75
868.003	2.25
868.17	2.02
868.337	-0.12
868.504	3.64
868.671	0.5
868.838	0.35
869.005	2.78
869.172	2.35
869.339	2.05
869.505	2.64
869.672	1.83
869.839	2.55
870.006	3.21
870.173	0.58
870.339	2.6
870.506	3.6
870.673	1.4
870.84	2.93
871.006	2.3
871.173	1.91
871.34	1.82
871.506	0.33
871.673	2.92
871.839	-0.75
872.006	0.14
872.173	0.69
872.339	2.22
872.506	3.26
872.672	2.69
872.839	-0.57
873.005	2.03
873.172	4.87
873.338	3.92
873.505	3.5
873.671	2.82
873.838	2.66
874.004	2.19
874.171	0.2
874.337	2.5
874.503	4.04
874.67	2.56
874.836	2.84
875.002	4.11
875.169	2.29
875.335	1.39
875.501	2.38
875.668	3.7
875.834	2.34
876	2.01
876.166	3.97
876.332	4.05
876.499	3.7
876.665	1.25
876.831	3.1
876.997	6.2
877.163	2.51
877.329	0.69
877.495	2.59
877.662	3.33
877.828	2.08
877.994	0.16
878.16	-0.71
878.326	1.31
878.492	2.98
878.658	2.5
878.824	2.1
878.99	2.58
879.156	-0.93
879.322	2.65
879.487	1.3
879.653	1.51
879.819	2.01
879.985	-0.56
880.151	2.05
880.317	3.49
880.483	3.02
880.648	2.98
880.814	-2.13
880.98	3
881.146	-0.02
881.312	-0.25
881.477	4.5
881.643	1.52
881.809	5.19
881.974	5.99
882.14	-1.02
882.306	3.44
882.471	4.22
882.637	1.31
882.803	4.77
882.968	3.61
883.134	6.82
883.299	2.37
883.465	1.86
883.63	2.35
883.796	3.59
883.961	3.97
884.127	2.15
884.292	-4.16
884.458	-0.83
884.623	-0.83
