Data from Apollo_Calib_20240827__AbsoluteIrradiance__8__23-17-00-256.txt Node

Date: Tue Aug 27 23:17:00 BST 2024
User: biology
Spectrometer: FLMT08252
Trigger mode: 0
Integration Time (sec): 5.000000E-1
Scans to average: 5
Electric dark correction enabled: true
Nonlinearity correction enabled: false
Boxcar width: 0
XAxis mode: Wavelengths
Number of Pixels in Spectrum: 3648
>>>>>Begin Spectral Data<<<<<
179.588	-0
179.809	-0
180.03	-0
180.251	-0
180.473	-0
180.694	0
180.915	0
181.136	-0
181.357	-0
181.578	0
181.799	-0
182.02	-0
182.241	0
182.462	-0
182.683	0
182.904	-0
183.125	-0
183.346	0
183.567	0
183.788	0
184.009	0
184.23	0
184.451	0
184.672	0
184.892	0
185.113	0
185.334	0
185.555	0
185.776	0
185.996	0
186.217	0
186.438	0
186.659	0
186.879	0
187.1	0
187.321	0
187.541	0
187.762	0
187.983	0
188.203	0
188.424	0
188.644	0
188.865	0
189.086	0
189.306	0
189.527	0
189.747	0
189.968	0
190.188	0
190.409	0
190.629	0
190.849	0
191.07	0
191.29	0
191.511	0
191.731	0
191.951	0
192.172	0
192.392	0
192.612	0
192.833	0
193.053	0
193.273	0
193.493	0
193.714	0
193.934	0
194.154	0
194.374	0
194.594	0
194.815	0
195.035	0
195.255	0
195.475	0
195.695	0
195.915	0
196.135	0
196.355	0
196.575	0
196.795	0
197.015	0
197.235	0
197.455	0
197.675	0
197.895	0
198.115	0
198.335	0
198.555	0
198.775	0
198.995	0
199.214	0
199.434	0
199.654	0
199.874	0
200.094	2.94
200.313	1.75
200.533	2.04
200.753	1.84
200.973	3.2
201.192	3.06
201.412	1.71
201.632	2.41
201.851	3.33
202.071	1.81
202.291	2.22
202.51	1.69
202.73	2.99
202.95	1.85
203.169	1.88
203.389	1.82
203.608	2.12
203.828	1.72
204.047	2.47
204.267	2.12
204.486	1.92
204.706	1.91
204.925	2.06
205.145	2.03
205.364	1.99
205.583	2.03
205.803	1.27
206.022	1.41
206.242	1.85
206.461	1.87
206.68	1.34
206.9	1.62
207.119	1.94
207.338	2.18
207.557	1.33
207.777	1.65
207.996	1.52
208.215	1.57
208.434	1.4
208.654	1.63
208.873	1.61
209.092	1.64
209.311	1.56
209.53	1.36
209.749	1.11
209.968	1.14
210.187	1.06
210.407	1.03
210.626	1.42
210.845	1.45
211.064	1.38
211.283	0.96
211.502	1.68
211.721	1
211.94	1.32
212.159	1.43
212.377	1.24
212.596	1.38
212.815	1.14
213.034	0.93
213.253	1.28
213.472	1.18
213.691	1.05
213.91	0.67
214.128	1.11
214.347	1.29
214.566	0.87
214.785	0.75
215.003	1.16
215.222	1.11
215.441	0.99
215.66	0.84
215.878	0.79
216.097	1.21
216.316	0.8
216.534	1
216.753	0.94
216.972	0.97
217.19	1
217.409	0.72
217.627	0.71
217.846	0.94
218.064	0.83
218.283	0.8
218.501	1.45
218.72	1.14
218.938	0.51
219.157	0.58
219.375	0.91
219.594	0.81
219.812	0.81
220.031	0.67
220.249	1.09
220.467	1.06
220.686	0.72
220.904	0.57
221.122	0.6
221.341	1.19
221.559	1.06
221.777	0.61
221.995	0.82
222.214	0.93
222.432	0.77
222.65	0.84
222.868	0.88
223.086	0.96
223.305	0.85
223.523	0.79
223.741	0.93
223.959	0.38
224.177	0.64
224.395	0.79
224.613	0.81
224.831	0.85
225.049	0.69
225.267	0.69
225.485	0.86
225.703	0.58
225.921	0.72
226.139	0.7
226.357	0.83
226.575	0.71
226.793	0.68
227.011	1.07
227.229	0.65
227.447	0.86
227.665	0.52
227.883	0.4
228.1	0.74
228.318	0.69
228.536	0.45
228.754	0.5
228.972	0.73
229.189	0.76
229.407	0.66
229.625	0.59
229.843	0.89
230.06	0.75
230.278	0.61
230.496	0.69
230.713	0.56
230.931	0.66
231.149	0.6
231.366	0.56
231.584	0.51
231.801	0.8
232.019	0.6
232.236	0.54
232.454	0.54
232.671	0.73
232.889	0.51
233.106	0.41
233.324	0.47
233.541	0.55
233.759	0.59
233.976	0.54
234.194	0.57
234.411	0.68
234.628	0.57
234.846	0.46
235.063	0.51
235.28	0.56
235.498	0.75
235.715	0.47
235.932	0.64
236.149	0.58
236.367	0.43
236.584	0.55
236.801	0.57
237.018	0.53
237.236	0.54
237.453	0.4
237.67	0.6
237.887	0.45
238.104	0.53
238.321	0.5
238.538	0.51
238.755	0.61
238.973	0.41
239.19	0.58
239.407	0.59
239.624	0.52
239.841	0.39
240.058	0.46
240.275	0.57
240.492	0.52
240.709	0.57
240.925	0.45
241.142	0.56
241.359	0.42
241.576	0.41
241.793	0.45
242.01	0.46
242.227	0.59
242.444	0.58
242.66	0.55
242.877	0.58
243.094	0.5
243.311	0.52
243.527	0.49
243.744	0.6
243.961	0.6
244.178	0.44
244.394	0.53
244.611	0.59
244.828	0.56
245.044	0.35
245.261	0.49
245.477	0.47
245.694	0.48
245.911	0.38
246.127	0.53
246.344	0.58
246.56	0.4
246.777	0.5
246.993	0.44
247.21	0.42
247.426	0.34
247.643	0.44
247.859	0.38
248.076	0.37
248.292	0.6
248.508	0.41
248.725	0.48
248.941	0.52
249.157	0.55
249.374	0.38
249.59	0.46
249.806	0.38
250.023	0.51
250.239	0.44
250.455	0.4
250.671	0.42
250.888	0.5
251.104	0.46
251.32	0.41
251.536	0.4
251.752	0.44
251.969	0.45
252.185	0.46
252.401	0.54
252.617	0.46
252.833	0.42
253.049	0.43
253.265	0.48
253.481	0.48
253.697	0.41
253.913	0.35
254.129	0.38
254.345	0.42
254.561	0.43
254.777	0.43
254.993	0.44
255.209	0.49
255.425	0.46
255.641	0.41
255.857	0.44
256.073	0.39
256.288	0.34
256.504	0.33
256.72	0.45
256.936	0.47
257.152	0.42
257.367	0.34
257.583	0.38
257.799	0.4
258.015	0.32
258.23	0.47
258.446	0.46
258.662	0.4
258.877	0.33
259.093	0.36
259.309	0.44
259.524	0.41
259.74	0.31
259.955	0.24
260.171	0.43
260.387	0.41
260.602	0.48
260.818	0.43
261.033	0.39
261.249	0.43
261.464	0.28
261.68	0.31
261.895	0.4
262.11	0.44
262.326	0.37
262.541	0.23
262.757	0.42
262.972	0.44
263.187	0.49
263.403	0.35
263.618	0.49
263.833	0.37
264.049	0.32
264.264	0.42
264.479	0.51
264.694	0.39
264.91	0.3
265.125	0.42
265.34	0.45
265.555	0.5
265.77	0.35
265.986	0.33
266.201	0.45
266.416	0.46
266.631	0.32
266.846	0.37
267.061	0.4
267.276	0.4
267.491	0.3
267.706	0.45
267.921	0.44
268.136	0.38
268.351	0.31
268.566	0.29
268.781	0.47
268.996	0.39
269.211	0.4
269.426	0.33
269.641	0.3
269.856	0.41
270.071	0.34
270.285	0.32
270.5	0.45
270.715	0.37
270.93	0.37
271.145	0.4
271.359	0.4
271.574	0.35
271.789	0.35
272.004	0.37
272.218	0.37
272.433	0.42
272.648	0.25
272.862	0.44
273.077	0.3
273.292	0.38
273.506	0.27
273.721	0.34
273.936	0.33
274.15	0.38
274.365	0.28
274.579	0.36
274.794	0.38
275.008	0.37
275.223	0.24
275.437	0.33
275.652	0.46
275.866	0.37
276.081	0.34
276.295	0.4
276.509	0.33
276.724	0.3
276.938	0.33
277.153	0.34
277.367	0.37
277.581	0.29
277.796	0.28
278.01	0.3
278.224	0.4
278.438	0.45
278.653	0.34
278.867	0.28
279.081	0.17
279.295	0.28
279.51	0.4
279.724	0.23
279.938	0.35
280.152	0.33
280.366	0.28
280.58	0.3
280.794	0.35
281.008	0.31
281.222	0.35
281.437	0.42
281.651	0.32
281.865	0.37
282.079	0.33
282.293	0.23
282.507	0.3
282.721	0.3
282.935	0.26
283.148	0.28
283.362	0.28
283.576	0.3
283.79	0.29
284.004	0.22
284.218	0.33
284.432	0.28
284.646	0.3
284.859	0.24
285.073	0.3
285.287	0.3
285.501	0.32
285.714	0.29
285.928	0.28
286.142	0.27
286.356	0.26
286.569	0.29
286.783	0.32
286.997	0.36
287.21	0.3
287.424	0.34
287.637	0.25
287.851	0.27
288.065	0.36
288.278	0.28
288.492	0.31
288.705	0.34
288.919	0.32
289.132	0.25
289.346	0.37
289.559	0.24
289.773	0.28
289.986	0.32
290.2	0.33
290.413	0.32
290.626	0.27
290.84	0.32
291.053	0.3
291.267	0.32
291.48	0.31
291.693	0.31
291.906	0.26
292.12	0.25
292.333	0.27
292.546	0.31
292.76	0.29
292.973	0.33
293.186	0.26
293.399	0.25
293.612	0.29
293.826	0.25
294.039	0.3
294.252	0.3
294.465	0.3
294.678	0.3
294.891	0.3
295.104	0.23
295.317	0.27
295.53	0.25
295.743	0.23
295.956	0.25
296.169	0.3
296.382	0.29
296.595	0.27
296.808	0.2
297.021	0.31
297.234	0.24
297.447	0.28
297.66	0.27
297.873	0.28
298.086	0.26
298.299	0.23
298.511	0.21
298.724	0.25
298.937	0.22
299.15	0.27
299.363	0.26
299.575	0.31
299.788	0.29
300.001	0.26
300.213	0.22
300.426	0.26
300.639	0.26
300.852	0.23
301.064	0.29
301.277	0.32
301.489	0.28
301.702	0.31
301.915	0.25
302.127	0.24
302.34	0.31
302.552	0.28
302.765	0.21
302.977	0.31
303.19	0.23
303.402	0.26
303.615	0.26
303.827	0.25
304.04	0.22
304.252	0.3
304.464	0.27
304.677	0.32
304.889	0.3
305.102	0.23
305.314	0.26
305.526	0.31
305.739	0.26
305.951	0.26
306.163	0.23
306.375	0.32
306.588	0.26
306.8	0.23
307.012	0.24
307.224	0.3
307.436	0.31
307.649	0.21
307.861	0.28
308.073	0.25
308.285	0.29
308.497	0.25
308.709	0.25
308.921	0.3
309.133	0.31
309.346	0.26
309.558	0.25
309.77	0.32
309.982	0.29
310.194	0.28
310.406	0.23
310.617	0.32
310.829	0.28
311.041	0.31
311.253	0.25
311.465	0.26
311.677	0.24
311.889	0.31
312.101	0.26
312.313	0.31
312.524	0.32
312.736	0.26
312.948	0.24
313.16	0.34
313.372	0.3
313.583	0.29
313.795	0.28
314.007	0.22
314.218	0.28
314.43	0.27
314.642	0.24
314.853	0.25
315.065	0.3
315.277	0.27
315.488	0.23
315.7	0.31
315.912	0.24
316.123	0.26
316.335	0.25
316.546	0.3
316.758	0.23
316.969	0.22
317.181	0.25
317.392	0.24
317.604	0.28
317.815	0.22
318.026	0.22
318.238	0.26
318.449	0.28
318.661	0.22
318.872	0.21
319.083	0.2
319.295	0.26
319.506	0.25
319.717	0.29
319.929	0.29
320.14	0.28
320.351	0.29
320.562	0.26
320.774	0.23
320.985	0.28
321.196	0.22
321.407	0.18
321.618	0.33
321.829	0.29
322.041	0.31
322.252	0.28
322.463	0.28
322.674	0.26
322.885	0.25
323.096	0.23
323.307	0.27
323.518	0.23
323.729	0.27
323.94	0.28
324.151	0.25
324.362	0.3
324.573	0.29
324.784	0.23
324.995	0.25
325.206	0.29
325.417	0.25
325.628	0.26
325.838	0.27
326.049	0.27
326.26	0.31
326.471	0.24
326.682	0.3
326.892	0.25
327.103	0.21
327.314	0.23
327.525	0.26
327.735	0.23
327.946	0.26
328.157	0.25
328.368	0.28
328.578	0.21
328.789	0.24
328.999	0.3
329.21	0.25
329.421	0.29
329.631	0.22
329.842	0.27
330.052	0.3
330.263	0.3
330.473	0.31
330.684	0.22
330.894	0.24
331.105	0.27
331.315	0.25
331.526	0.2
331.736	0.3
331.947	0.25
332.157	0.3
332.367	0.23
332.578	0.26
332.788	0.28
332.999	0.24
333.209	0.25
333.419	0.25
333.629	0.27
333.84	0.27
334.05	0.25
334.26	0.33
334.47	0.26
334.681	0.36
334.891	0.26
335.101	0.29
335.311	0.29
335.521	0.24
335.732	0.22
335.942	0.29
336.152	0.24
336.362	0.32
336.572	0.28
336.782	0.26
336.992	0.23
337.202	0.25
337.412	0.2
337.622	0.3
337.832	0.28
338.042	0.29
338.252	0.25
338.462	0.2
338.672	0.26
338.882	0.28
339.092	0.28
339.302	0.33
339.511	0.25
339.721	0.22
339.931	0.23
340.141	0.31
340.351	0.29
340.561	0.28
340.77	0.29
340.98	0.26
341.19	0.32
341.4	0.23
341.609	0.19
341.819	0.23
342.029	0.29
342.238	0.25
342.448	0.21
342.658	0.25
342.867	0.28
343.077	0.28
343.286	0.29
343.496	0.28
343.706	0.3
343.915	0.22
344.125	0.29
344.334	0.29
344.544	0.21
344.753	0.23
344.963	0.27
345.172	0.21
345.381	0.21
345.591	0.23
345.8	0.27
346.01	0.26
346.219	0.32
346.428	0.16
346.638	0.26
346.847	0.24
347.056	0.28
347.266	0.23
347.475	0.27
347.684	0.26
347.893	0.24
348.103	0.29
348.312	0.24
348.521	0.27
348.73	0.29
348.94	0.3
349.149	0.26
349.358	0.23
349.567	0.21
349.776	0.21
349.985	0.28
350.194	0.27
350.403	0.31
350.612	0.24
350.821	0.25
351.03	0.25
351.239	0.2
351.448	0.26
351.657	0.19
351.866	0.27
352.075	0.25
352.284	0.33
352.493	0.21
352.702	0.28
352.911	0.27
353.12	0.28
353.329	0.24
353.538	0.29
353.746	0.26
353.955	0.23
354.164	0.25
354.373	0.25
354.582	0.28
354.79	0.29
354.999	0.27
355.208	0.25
355.416	0.27
355.625	0.21
355.834	0.26
356.042	0.28
356.251	0.26
356.46	0.23
356.668	0.27
356.877	0.33
357.085	0.3
357.294	0.24
357.503	0.26
357.711	0.25
357.92	0.38
358.128	0.28
358.337	0.28
358.545	0.26
358.754	0.22
358.962	0.29
359.17	0.25
359.379	0.25
359.587	0.28
359.796	0.25
360.004	0.29
360.212	0.29
360.421	0.31
360.629	0.24
360.837	0.21
361.046	0.27
361.254	0.34
361.462	0.25
361.67	0.23
361.879	0.25
362.087	0.31
362.295	0.26
362.503	0.26
362.711	0.17
362.92	0.3
363.128	0.22
363.336	0.17
363.544	0.2
363.752	0.29
363.96	0.2
364.168	0.22
364.376	0.26
364.584	0.22
364.792	0.3
365	0.28
365.208	0.23
365.416	0.25
365.624	0.25
365.832	0.22
366.04	0.31
366.248	0.23
366.456	0.23
366.664	0.28
366.872	0.22
367.079	0.23
367.287	0.25
367.495	0.28
367.703	0.27
367.911	0.19
368.118	0.22
368.326	0.22
368.534	0.22
368.742	0.32
368.949	0.18
369.157	0.24
369.365	0.27
369.572	0.26
369.78	0.24
369.988	0.29
370.195	0.24
370.403	0.26
370.61	0.24
370.818	0.28
371.026	0.31
371.233	0.21
371.441	0.29
371.648	0.23
371.856	0.24
372.063	0.27
372.271	0.26
372.478	0.24
372.685	0.21
372.893	0.29
373.1	0.24
373.308	0.25
373.515	0.33
373.722	0.24
373.93	0.25
374.137	0.3
374.344	0.35
374.552	0.31
374.759	0.28
374.966	0.23
375.173	0.25
375.381	0.28
375.588	0.24
375.795	0.25
376.002	0.2
376.209	0.24
376.417	0.24
376.624	0.27
376.831	0.27
377.038	0.26
377.245	0.17
377.452	0.27
377.659	0.25
377.866	0.25
378.073	0.23
378.28	0.24
378.487	0.3
378.694	0.28
378.901	0.29
379.108	0.28
379.315	0.29
379.522	0.3
379.729	0.25
379.936	0.27
380.143	0.31
380.35	0.3
380.557	0.29
380.763	0.25
380.97	0.28
381.177	0.32
381.384	0.31
381.591	0.25
381.797	0.28
382.004	0.34
382.211	0.31
382.418	0.3
382.624	0.31
382.831	0.25
383.038	0.26
383.244	0.3
383.451	0.33
383.658	0.29
383.864	0.26
384.071	0.21
384.277	0.35
384.484	0.26
384.69	0.28
384.897	0.33
385.103	0.27
385.31	0.27
385.516	0.28
385.723	0.28
385.929	0.28
386.136	0.24
386.342	0.35
386.549	0.27
386.755	0.35
386.961	0.28
387.168	0.3
387.374	0.27
387.58	0.32
387.787	0.3
387.993	0.29
388.199	0.3
388.406	0.3
388.612	0.27
388.818	0.3
389.024	0.27
389.231	0.32
389.437	0.41
389.643	0.32
389.849	0.3
390.055	0.28
390.261	0.33
390.467	0.37
390.674	0.26
390.88	0.28
391.086	0.34
391.292	0.28
391.498	0.32
391.704	0.32
391.91	0.31
392.116	0.28
392.322	0.22
392.528	0.32
392.734	0.27
392.94	0.27
393.146	0.33
393.352	0.28
393.557	0.27
393.763	0.3
393.969	0.32
394.175	0.3
394.381	0.33
394.587	0.25
394.792	0.3
394.998	0.29
395.204	0.38
395.41	0.29
395.615	0.3
395.821	0.33
396.027	0.36
396.233	0.28
396.438	0.34
396.644	0.38
396.85	0.36
397.055	0.33
397.261	0.36
397.466	0.43
397.672	0.33
397.878	0.41
398.083	0.36
398.289	0.33
398.494	0.37
398.7	0.36
398.905	0.3
399.111	0.38
399.316	0.32
399.522	0.39
399.727	0.3
399.932	0.34
400.138	0.34
400.343	0.41
400.549	0.37
400.754	0.38
400.959	0.34
401.165	0.37
401.37	0.37
401.575	0.41
401.78	0.35
401.986	0.37
402.191	0.31
402.396	0.37
402.601	0.46
402.807	0.39
403.012	0.4
403.217	0.46
403.422	0.4
403.627	0.44
403.832	0.43
404.037	0.43
404.243	0.44
404.448	0.45
404.653	0.4
404.858	0.4
405.063	0.44
405.268	0.42
405.473	0.4
405.678	0.43
405.883	0.57
406.088	0.49
406.293	0.47
406.498	0.47
406.703	0.48
406.907	0.45
407.112	0.44
407.317	0.5
407.522	0.53
407.727	0.49
407.932	0.52
408.136	0.67
408.341	0.55
408.546	0.56
408.751	0.62
408.956	0.59
409.16	0.6
409.365	0.64
409.57	0.62
409.774	0.61
409.979	0.61
410.184	0.65
410.388	0.65
410.593	0.77
410.798	0.7
411.002	0.68
411.207	0.78
411.411	0.78
411.616	0.8
411.82	0.8
412.025	0.82
412.229	0.88
412.434	0.87
412.638	0.91
412.843	0.95
413.047	0.96
413.252	0.97
413.456	1
413.66	1.03
413.865	1.06
414.069	1.12
414.273	1.09
414.478	1.12
414.682	1.13
414.886	1.15
415.091	1.16
415.295	1.25
415.499	1.38
415.703	1.35
415.908	1.42
416.112	1.37
416.316	1.53
416.52	1.55
416.724	1.57
416.929	1.57
417.133	1.86
417.337	1.68
417.541	1.75
417.745	1.85
417.949	1.98
418.153	1.97
418.357	2.05
418.561	2.11
418.765	2.12
418.969	2.32
419.173	2.35
419.377	2.44
419.581	2.53
419.785	2.51
419.989	2.52
420.193	2.64
420.397	2.79
420.601	2.98
420.804	3.04
421.008	3.05
421.212	3.14
421.416	3.15
421.62	3.16
421.823	3.3
422.027	3.46
422.231	3.33
422.435	3.37
422.638	3.46
422.842	3.58
423.046	3.67
423.249	3.84
423.453	3.88
423.657	4.02
423.86	4.06
424.064	4.27
424.268	4.34
424.471	4.39
424.675	4.61
424.878	4.65
425.082	4.83
425.285	5.07
425.489	4.96
425.692	5.17
425.896	5.19
426.099	5.34
426.303	5.59
426.506	5.64
426.71	5.89
426.913	6.03
427.116	6.22
427.32	6.15
427.523	6.31
427.726	6.55
427.93	6.64
428.133	6.97
428.336	7.13
428.54	7.27
428.743	7.41
428.946	7.74
429.149	7.74
429.353	7.77
429.556	7.9
429.759	7.86
429.962	8.04
430.165	8.29
430.368	7.77
430.571	7.87
430.775	7.94
430.978	8
431.181	8.01
431.384	8.09
431.587	8.18
431.79	8.64
431.993	8.49
432.196	8.86
432.399	9.15
432.602	9.34
432.805	9.4
433.008	9.97
433.211	9.84
433.414	10.07
433.616	10.12
433.819	10.11
434.022	10.32
434.225	10.53
434.428	10.58
434.631	10.87
434.833	10.72
435.036	11.03
435.239	11.24
435.442	11.18
435.645	11.45
435.847	11.47
436.05	11.69
436.253	11.92
436.455	12.08
436.658	11.88
436.861	12.27
437.063	12.43
437.266	12.31
437.468	12.52
437.671	12.96
437.874	13.06
438.076	12.82
438.279	13.45
438.481	13.48
438.684	14.04
438.886	13.55
439.089	13.99
439.291	13.95
439.494	14.31
439.696	14.61
439.899	15.15
440.101	15.45
440.303	15.76
440.506	16.47
440.708	16.17
440.91	16.23
441.113	16.58
441.315	16.89
441.517	16.69
441.72	16.9
441.922	16.75
442.124	16.68
442.326	17.13
442.529	17.12
442.731	17.17
442.933	17.61
443.135	17.34
443.337	17.21
443.539	17.75
443.742	17.56
443.944	18.17
444.146	18.08
444.348	17.91
444.55	17.86
444.752	18.01
444.954	18.02
445.156	18.1
445.358	18.41
445.56	18.68
445.762	18.52
445.964	18.85
446.166	18.57
446.368	18.64
446.57	18.63
446.772	18.17
446.974	18.09
447.175	18.32
447.377	17.88
447.579	18.45
447.781	18.07
447.983	17.87
448.184	17.45
448.386	17.95
448.588	17.43
448.79	17.33
448.991	17.57
449.193	17.62
449.395	17.02
449.597	16.47
449.798	16.58
450	16.06
450.202	16.01
450.403	16.05
450.605	15.77
450.806	15.5
451.008	15.46
451.21	15.05
451.411	14.83
451.613	14.08
451.814	14.19
452.016	14.18
452.217	13.53
452.419	13.54
452.62	13.23
452.821	13.08
453.023	12.82
453.224	12.44
453.426	12.06
453.627	11.29
453.828	11.38
454.03	11.4
454.231	11.61
454.432	11.17
454.634	10.91
454.835	10.73
455.036	10.71
455.238	10.22
455.439	9.96
455.64	9.75
455.841	9.52
456.042	9.6
456.244	9.39
456.445	9.05
456.646	8.71
456.847	8.68
457.048	8.65
457.249	8.67
457.45	8.39
457.651	7.89
457.852	7.68
458.054	7.37
458.255	7.36
458.456	7.35
458.657	7.25
458.858	6.95
459.058	6.74
459.259	6.84
459.46	6.58
459.661	6.5
459.862	6.49
460.063	6.48
460.264	6.32
460.465	6.13
460.666	6.11
460.866	5.89
461.067	5.56
461.268	5.74
461.469	5.56
461.67	5.47
461.87	5.29
462.071	5.32
462.272	5.19
462.473	5.17
462.673	5.32
462.874	5.23
463.075	5.23
463.275	5.17
463.476	5.15
463.676	5.2
463.877	4.96
464.078	5.09
464.278	5.01
464.479	4.97
464.679	4.8
464.88	4.73
465.08	4.67
465.281	4.57
465.481	4.39
465.682	4.15
465.882	4.19
466.083	4.13
466.283	4.19
466.483	3.93
466.684	3.83
466.884	3.7
467.085	3.77
467.285	3.78
467.485	3.66
467.686	3.62
467.886	3.51
468.086	3.45
468.286	3.47
468.487	3.45
468.687	3.3
468.887	3.26
469.087	3.34
469.287	3.29
469.488	3.1
469.688	3.17
469.888	3.16
470.088	3.18
470.288	3.07
470.488	3.02
470.688	2.9
470.888	2.92
471.088	2.74
471.288	2.82
471.488	2.83
471.688	2.84
471.888	2.73
472.088	2.85
472.288	2.78
472.488	2.66
472.688	2.55
472.888	2.59
473.088	2.54
473.288	2.54
473.488	2.47
473.688	2.65
473.887	2.48
474.087	2.51
474.287	2.49
474.487	2.4
474.687	2.47
474.886	2.42
475.086	2.26
475.286	2.36
475.486	2.28
475.685	2.31
475.885	2.22
476.085	2.34
476.284	2.25
476.484	2.31
476.684	2.26
476.883	2.32
477.083	2.21
477.282	2.16
477.482	2.2
477.681	2.19
477.881	2.1
478.08	2.11
478.28	2.06
478.479	2.2
478.679	2.12
478.878	2.1
479.078	2.06
479.277	2.1
479.477	2.08
479.676	2.05
479.875	2.03
480.075	2.01
480.274	2.05
480.473	2.12
480.673	2.07
480.872	2.08
481.071	2.08
481.271	2.06
481.47	1.96
481.669	2.02
481.868	1.94
482.067	2.01
482.267	1.96
482.466	1.97
482.665	1.97
482.864	1.99
483.063	1.96
483.262	1.97
483.461	2.02
483.661	2.1
483.86	2.02
484.059	2.07
484.258	2.06
484.457	2.04
484.656	2
484.855	2.1
485.054	1.94
485.253	2
485.452	2
485.651	2.09
485.849	2.01
486.048	2.02
486.247	2.06
486.446	2.11
486.645	2.08
486.844	2.09
487.043	2.08
487.241	2.09
487.44	2.09
487.639	2.12
487.838	2.11
488.037	2.11
488.235	2.16
488.434	2.2
488.633	2.05
488.831	2.25
489.03	2.22
489.229	2.2
489.427	2.21
489.626	2.24
489.825	2.23
490.023	2.33
490.222	2.25
490.42	2.26
490.619	2.34
490.817	2.38
491.016	2.35
491.214	2.43
491.413	2.42
491.611	2.34
491.81	2.4
492.008	2.42
492.207	2.52
492.405	2.53
492.604	2.49
492.802	2.54
493	2.58
493.199	2.59
493.397	2.66
493.595	2.68
493.794	2.65
493.992	2.73
494.19	2.78
494.388	2.8
494.587	2.72
494.785	2.8
494.983	2.77
495.181	2.83
495.379	2.93
495.578	2.94
495.776	2.97
495.974	2.9
496.172	2.97
496.37	3.06
496.568	3.1
496.766	3.1
496.964	3.16
497.162	3.13
497.36	3.19
497.558	3.2
497.756	3.27
497.954	3.31
498.152	3.33
498.35	3.47
498.548	3.34
498.746	3.41
498.944	3.41
499.142	3.41
499.34	3.52
499.538	3.59
499.736	3.51
499.933	3.65
500.131	3.58
500.329	3.79
500.527	3.72
500.725	3.8
500.922	3.86
501.12	3.84
501.318	3.92
501.516	3.92
501.713	3.99
501.911	3.96
502.109	3.94
502.306	4.09
502.504	3.99
502.701	4.06
502.899	4.15
503.097	4.31
503.294	4.17
503.492	4.29
503.689	4.37
503.887	4.34
504.084	4.42
504.282	4.4
504.479	4.45
504.677	4.55
504.874	4.57
505.072	4.43
505.269	4.65
505.466	4.62
505.664	4.69
505.861	4.62
506.059	4.77
506.256	4.75
506.453	4.81
506.651	4.91
506.848	4.95
507.045	4.94
507.242	4.94
507.44	4.98
507.637	5.09
507.834	5
508.031	5.17
508.229	5.11
508.426	5.11
508.623	5.23
508.82	5.24
509.017	5.23
509.214	5.28
509.411	5.41
509.608	5.34
509.805	5.4
510.003	5.44
510.2	5.51
510.397	5.59
510.594	5.5
510.791	5.64
510.988	5.66
511.184	5.52
511.381	5.49
511.578	5.71
511.775	5.81
511.972	5.72
512.169	5.79
512.366	5.76
512.563	5.9
512.76	5.98
512.956	5.97
513.153	5.89
513.35	5.86
513.547	5.9
513.744	6.01
513.94	5.99
514.137	6.16
514.334	6.04
514.53	6.15
514.727	6.33
514.924	6.17
515.12	6.2
515.317	6.26
515.514	6.21
515.71	6.15
515.907	6.42
516.103	6.39
516.3	6.34
516.497	6.47
516.693	6.45
516.89	6.49
517.086	6.47
517.283	6.52
517.479	6.42
517.676	6.65
517.872	6.61
518.068	6.67
518.265	6.58
518.461	6.59
518.658	6.73
518.854	6.68
519.05	6.75
519.247	6.82
519.443	6.78
519.639	6.85
519.836	6.73
520.032	6.75
520.228	6.9
520.424	6.82
520.621	6.93
520.817	6.92
521.013	6.89
521.209	7.05
521.405	7.04
521.601	7.03
521.798	7
521.994	7.01
522.19	6.94
522.386	7.01
522.582	7.08
522.778	7.21
522.974	7.06
523.17	7.1
523.366	7.11
523.562	7.15
523.758	7.15
523.954	7.05
524.15	7.2
524.346	7.19
524.542	7.24
524.738	7.22
524.934	7.38
525.129	7.34
525.325	7.22
525.521	7.2
525.717	7.48
525.913	7.27
526.109	7.29
526.304	7.45
526.5	7.48
526.696	7.38
526.892	7.37
527.087	7.6
527.283	7.46
527.479	7.41
527.674	7.28
527.87	7.47
528.066	7.46
528.261	7.54
528.457	7.38
528.653	7.56
528.848	7.55
529.044	7.64
529.239	7.54
529.435	7.49
529.63	7.49
529.826	7.49
530.021	7.52
530.217	7.64
530.412	7.56
530.608	7.6
530.803	7.57
530.999	7.53
531.194	7.63
531.389	7.62
531.585	7.64
531.78	7.74
531.975	7.69
532.171	7.7
532.366	7.68
532.561	7.66
532.757	7.69
532.952	7.88
533.147	7.6
533.342	7.78
533.538	7.71
533.733	7.89
533.928	7.6
534.123	7.78
534.318	7.81
534.513	7.75
534.709	7.88
534.904	7.78
535.099	7.87
535.294	7.91
535.489	7.89
535.684	7.79
535.879	7.88
536.074	7.89
536.269	7.88
536.464	7.92
536.659	7.88
536.854	7.86
537.049	7.95
537.244	7.9
537.439	7.83
537.634	7.8
537.828	7.92
538.023	7.9
538.218	7.93
538.413	7.81
538.608	7.89
538.803	7.89
538.997	7.85
539.192	7.92
539.387	7.87
539.582	7.91
539.776	7.82
539.971	7.93
540.166	8.03
540.36	7.89
540.555	8.11
540.75	7.99
540.944	7.97
541.139	8.05
541.334	7.96
541.528	8
541.723	8.06
541.917	8.05
542.112	7.95
542.306	7.9
542.501	7.93
542.695	8
542.89	7.86
543.084	7.96
543.279	8.03
543.473	8.08
543.668	8.13
543.862	7.94
544.056	7.93
544.251	8.05
544.445	8.12
544.64	8.11
544.834	7.77
545.028	7.71
545.222	7.99
545.417	8.17
545.611	8.1
545.805	8.03
546	7.8
546.194	8.05
546.388	7.97
546.582	7.95
546.776	7.97
546.97	8.03
547.165	7.96
547.359	7.97
547.553	7.99
547.747	7.94
547.941	8.22
548.135	8.03
548.329	8.08
548.523	8.07
548.717	7.99
548.911	7.99
549.105	7.99
549.299	8.06
549.493	8.1
549.687	7.99
549.881	8.14
550.075	8.06
550.269	8.03
550.463	8.1
550.657	8.12
550.85	8.09
551.044	8.08
551.238	8.12
551.432	8.1
551.626	8.13
551.82	8.15
552.013	7.95
552.207	8.16
552.401	8.11
552.594	8.06
552.788	8.02
552.982	8.03
553.176	7.99
553.369	8.25
553.563	8.08
553.756	8.09
553.95	8.11
554.144	8.11
554.337	8.1
554.531	7.93
554.724	8.07
554.918	8.12
555.111	8.04
555.305	8.03
555.498	7.96
555.692	8.15
555.885	8.17
556.079	8.04
556.272	8.04
556.466	8.07
556.659	7.96
556.852	8.16
557.046	8.04
557.239	7.92
557.432	8.08
557.626	8.13
557.819	8.13
558.012	8.1
558.206	8.22
558.399	8.14
558.592	8.09
558.785	8.01
558.979	8.09
559.172	8.13
559.365	8.14
559.558	7.99
559.751	7.98
559.944	8.21
560.138	8.08
560.331	8.12
560.524	8.16
560.717	8.08
560.91	8.07
561.103	8.1
561.296	7.97
561.489	8.16
561.682	8.16
561.875	8.06
562.068	8.19
562.261	8.02
562.454	8.28
562.647	8
562.84	8.13
563.032	8.14
563.225	7.99
563.418	8.09
563.611	8.12
563.804	8.1
563.997	7.99
564.19	7.85
564.382	8.22
564.575	8.06
564.768	8.08
564.961	8.09
565.153	8.03
565.346	7.98
565.539	8.12
565.731	8.06
565.924	8.18
566.117	8.2
566.309	8.07
566.502	8.1
566.695	8.04
566.887	8.14
567.08	8.06
567.272	8.1
567.465	8.03
567.657	8.12
567.85	7.93
568.042	8.05
568.235	8.16
568.427	7.9
568.62	8.04
568.812	8.02
569.005	8.13
569.197	7.98
569.389	8.04
569.582	8.09
569.774	7.99
569.966	8
570.159	7.87
570.351	7.97
570.543	8.05
570.736	8.04
570.928	7.86
571.12	8.02
571.312	7.98
571.505	7.76
571.697	7.95
571.889	7.96
572.081	7.99
572.273	7.92
572.465	7.91
572.658	7.96
572.85	8
573.042	8.01
573.234	7.87
573.426	7.9
573.618	7.94
573.81	8
574.002	7.89
574.194	7.95
574.386	7.93
574.578	7.84
574.77	7.9
574.962	7.96
575.154	7.8
575.346	7.88
575.538	7.83
575.729	7.78
575.921	7.87
576.113	7.95
576.305	7.86
576.497	7.91
576.689	7.8
576.88	7.8
577.072	7.95
577.264	7.86
577.456	7.85
577.647	7.78
577.839	8.04
578.031	7.82
578.223	7.77
578.414	7.72
578.606	7.85
578.798	7.84
578.989	7.84
579.181	7.96
579.372	7.81
579.564	7.84
579.755	7.73
579.947	7.74
580.139	7.78
580.33	7.59
580.522	7.73
580.713	7.72
580.905	7.69
581.096	7.8
581.287	7.69
581.479	7.7
581.67	7.78
581.862	7.69
582.053	7.72
582.244	7.57
582.436	7.79
582.627	7.61
582.818	7.61
583.01	7.57
583.201	7.66
583.392	7.58
583.583	7.57
583.775	7.51
583.966	7.55
584.157	7.64
584.348	7.68
584.54	7.53
584.731	7.61
584.922	7.59
585.113	7.49
585.304	7.56
585.495	7.51
585.686	7.58
585.877	7.58
586.068	7.69
586.259	7.54
586.45	7.49
586.641	7.48
586.832	7.61
587.023	7.51
587.214	7.43
587.405	7.54
587.596	7.37
587.787	7.31
587.978	7.41
588.169	7.43
588.36	7.35
588.551	7.43
588.742	7.41
588.932	7.41
589.123	7.22
589.314	7.41
589.505	7.31
589.696	7.39
589.886	7.38
590.077	7.28
590.268	7.23
590.458	7.2
590.649	7.11
590.84	7.23
591.03	7.23
591.221	7.27
591.412	7.11
591.602	7.34
591.793	7.17
591.984	7.3
592.174	7.22
592.365	7.31
592.555	7.12
592.746	7.16
592.936	7.12
593.127	7.12
593.317	7.18
593.508	7.16
593.698	7.07
593.889	7.08
594.079	7.06
594.269	6.99
594.46	7
594.65	7.1
594.84	7.11
595.031	6.93
595.221	7.01
595.411	6.99
595.602	6.97
595.792	6.91
595.982	6.85
596.172	6.98
596.363	6.82
596.553	6.87
596.743	6.95
596.933	6.9
597.123	6.79
597.314	6.73
597.504	6.78
597.694	6.87
597.884	6.78
598.074	6.84
598.264	6.81
598.454	6.8
598.644	6.77
598.834	6.69
599.024	6.69
599.214	6.71
599.404	6.77
599.594	6.71
599.784	6.62
599.974	6.65
600.164	6.62
600.354	6.61
600.544	6.58
600.734	6.59
600.924	6.58
601.114	6.49
601.303	6.55
601.493	6.55
601.683	6.6
601.873	6.57
602.063	6.48
602.252	6.48
602.442	6.41
602.632	6.43
602.821	6.35
603.011	6.47
603.201	6.35
603.39	6.39
603.58	6.2
603.77	6.38
603.959	6.38
604.149	6.35
604.339	6.4
604.528	6.41
604.718	6.37
604.907	6.28
605.097	6.24
605.286	6.21
605.476	6.23
605.665	6.26
605.855	6.2
606.044	6.25
606.234	6.19
606.423	6.16
606.612	6.2
606.802	6.15
606.991	6.21
607.181	6.24
607.37	6.18
607.559	5.86
607.749	6.11
607.938	6.01
608.127	6
608.316	6.01
608.506	6
608.695	6.04
608.884	5.96
609.073	5.96
609.263	6.01
609.452	6
609.641	5.89
609.83	5.83
610.019	5.86
610.208	5.88
610.397	5.83
610.586	5.78
610.775	5.74
610.965	5.81
611.154	5.71
611.343	5.78
611.532	5.67
611.721	5.8
611.91	5.7
612.099	5.67
612.287	5.65
612.476	5.6
612.665	5.74
612.854	5.59
613.043	5.66
613.232	5.59
613.421	5.56
613.61	5.53
613.798	5.64
613.987	5.58
614.176	5.45
614.365	5.49
614.554	5.51
614.742	5.47
614.931	5.42
615.12	5.5
615.309	5.48
615.497	5.36
615.686	5.31
615.875	5.41
616.063	5.27
616.252	5.28
616.44	5.34
616.629	5.28
616.818	5.3
617.006	5.25
617.195	5.25
617.383	5.19
617.572	5.19
617.76	5.23
617.949	5.21
618.137	5.24
618.326	5.17
618.514	5.09
618.703	5.05
618.891	5.19
619.079	5.06
619.268	5.12
619.456	5.02
619.644	5.07
619.833	5.05
620.021	5.01
620.209	4.91
620.398	4.99
620.586	4.91
620.774	4.94
620.962	4.94
621.151	5.02
621.339	4.92
621.527	4.88
621.715	4.87
621.903	4.88
622.092	4.77
622.28	4.9
622.468	4.69
622.656	4.77
622.844	4.71
623.032	4.84
623.22	4.66
623.408	4.78
623.596	4.73
623.784	4.71
623.972	4.6
624.16	4.72
624.348	4.68
624.536	4.71
624.724	4.52
624.912	4.62
625.1	4.63
625.288	4.61
625.476	4.47
625.664	4.64
625.851	4.56
626.039	4.51
626.227	4.45
626.415	4.46
626.603	4.39
626.79	4.45
626.978	4.47
627.166	4.46
627.354	4.35
627.541	4.32
627.729	4.36
627.917	4.43
628.104	4.37
628.292	4.33
628.48	4.35
628.667	4.25
628.855	4.35
629.042	4.38
629.23	4.3
629.418	4.31
629.605	4.31
629.793	4.17
629.98	4.19
630.168	4.09
630.355	4.23
630.543	4.2
630.73	4.08
630.917	4.13
631.105	4.22
631.292	4.11
631.48	4.08
631.667	4.11
631.854	4.05
632.042	4.01
632.229	3.96
632.416	4.05
632.604	3.99
632.791	3.92
632.978	4.06
633.165	3.93
633.353	3.93
633.54	4.03
633.727	3.87
633.914	3.84
634.101	3.81
634.289	3.9
634.476	3.88
634.663	3.83
634.85	3.86
635.037	3.72
635.224	3.73
635.411	3.82
635.598	3.65
635.785	3.72
635.972	3.69
636.159	3.74
636.346	3.64
636.533	3.7
636.72	3.72
636.907	3.62
637.094	3.57
637.281	3.56
637.468	3.68
637.655	3.67
637.842	3.61
638.029	3.57
638.215	3.57
638.402	3.52
638.589	3.48
638.776	3.52
638.963	3.46
639.149	3.49
639.336	3.5
639.523	3.54
639.709	3.42
639.896	3.45
640.083	3.42
640.27	3.46
640.456	3.4
640.643	3.41
640.829	3.25
641.016	3.28
641.203	3.24
641.389	3.33
641.576	3.33
641.762	3.23
641.949	3.23
642.135	3.25
642.322	3.22
642.508	3.17
642.695	3.28
642.881	3.2
643.068	3.18
643.254	3.19
643.441	3.24
643.627	3.19
643.813	3.09
644	3.17
644.186	3.09
644.372	3.13
644.559	3.12
644.745	3.05
644.931	3.04
645.118	3.08
645.304	3
645.49	3.1
645.676	3.01
645.862	3.06
646.049	3.04
646.235	3
646.421	3.1
646.607	3.07
646.793	2.96
646.979	2.87
647.165	2.97
647.352	2.97
647.538	2.88
647.724	2.84
647.91	2.85
648.096	2.93
648.282	2.94
648.468	2.87
648.654	2.94
648.84	2.86
649.026	2.82
649.212	2.84
649.397	2.82
649.583	2.77
649.769	2.79
649.955	2.76
650.141	2.81
650.327	2.75
650.513	2.74
650.698	2.71
650.884	2.67
651.07	2.7
651.256	2.72
651.442	2.71
651.627	2.61
651.813	2.72
651.999	2.69
652.184	2.67
652.37	2.64
652.556	2.59
652.741	2.66
652.927	2.46
653.113	2.61
653.298	2.64
653.484	2.57
653.669	2.53
653.855	2.53
654.04	2.59
654.226	2.55
654.412	2.51
654.597	2.51
654.782	2.53
654.968	2.51
655.153	2.49
655.339	2.46
655.524	2.48
655.71	2.52
655.895	2.48
656.08	2.49
656.266	2.5
656.451	2.45
656.636	2.4
656.822	2.43
657.007	2.39
657.192	2.44
657.378	2.35
657.563	2.39
657.748	2.4
657.933	2.4
658.118	2.31
658.304	2.31
658.489	2.41
658.674	2.34
658.859	2.29
659.044	2.36
659.229	2.33
659.414	2.3
659.599	2.26
659.785	2.24
659.97	2.25
660.155	2.26
660.34	2.27
660.525	2.24
660.71	2.21
660.895	2.24
661.08	2.19
661.264	2.2
661.449	2.21
661.634	2.18
661.819	2.23
662.004	2.17
662.189	2.1
662.374	2.05
662.559	2.09
662.743	2.03
662.928	2.1
663.113	2.04
663.298	2.01
663.483	2
663.667	2.02
663.852	2.02
664.037	2.06
664.221	1.98
664.406	2.05
664.591	2.02
664.775	1.98
664.96	2.05
665.145	1.98
665.329	1.96
665.514	1.94
665.698	1.89
665.883	1.87
666.068	1.97
666.252	1.9
666.437	1.84
666.621	1.87
666.806	1.9
666.99	1.85
667.174	1.81
667.359	1.88
667.543	1.78
667.728	1.83
667.912	1.73
668.096	1.86
668.281	1.7
668.465	1.78
668.649	1.79
668.834	1.68
669.018	1.73
669.202	1.77
669.387	1.67
669.571	1.74
669.755	1.64
669.939	1.69
670.124	1.65
670.308	1.71
670.492	1.68
670.676	1.66
670.86	1.62
671.044	1.6
671.228	1.68
671.413	1.64
671.597	1.58
671.781	1.59
671.965	1.66
672.149	1.6
672.333	1.57
672.517	1.6
672.701	1.6
672.885	1.6
673.069	1.5
673.253	1.62
673.437	1.55
673.621	1.55
673.804	1.57
673.988	1.56
674.172	1.5
674.356	1.47
674.54	1.52
674.724	1.54
674.908	1.53
675.091	1.57
675.275	1.49
675.459	1.5
675.643	1.45
675.826	1.46
676.01	1.48
676.194	1.48
676.377	1.46
676.561	1.52
676.745	1.45
676.928	1.44
677.112	1.52
677.296	1.39
677.479	1.39
677.663	1.34
677.846	1.38
678.03	1.4
678.213	1.36
678.397	1.43
678.58	1.32
678.764	1.38
678.947	1.29
679.131	1.38
679.314	1.38
679.498	1.35
679.681	1.37
679.865	1.38
680.048	1.3
680.231	1.32
680.415	1.27
680.598	1.34
680.781	1.27
680.965	1.29
681.148	1.36
681.331	1.26
681.514	1.3
681.698	1.25
681.881	1.27
682.064	1.29
682.247	1.29
682.43	1.17
682.614	1.28
682.797	1.21
682.98	1.22
683.163	1.19
683.346	1.26
683.529	1.19
683.712	1.17
683.895	1.28
684.078	1.22
684.261	1.16
684.444	1.26
684.627	1.18
684.81	1.19
684.993	1.22
685.176	1.17
685.359	1.21
685.542	1.15
685.725	1.29
685.908	1.18
686.091	1.09
686.274	1.12
686.457	1.14
686.639	1.14
686.822	1.15
687.005	1.1
687.188	1.13
687.371	1.21
687.553	1.15
687.736	1.16
687.919	1.19
688.102	1.17
688.284	1.1
688.467	1.11
688.65	1.03
688.832	1.07
689.015	1.09
689.197	1.02
689.38	1.11
689.563	1.09
689.745	1.04
689.928	0.99
690.11	1.03
690.293	1.06
690.475	0.97
690.658	1.03
690.84	0.99
691.023	1.05
691.205	1.02
691.388	1.1
691.57	1.08
691.752	0.99
691.935	0.96
692.117	0.97
692.3	1.01
692.482	0.95
692.664	0.96
692.847	0.98
693.029	1
693.211	1.01
693.393	0.99
693.576	0.92
693.758	0.95
693.94	1.01
694.122	0.94
694.304	0.88
694.487	0.91
694.669	0.96
694.851	0.95
695.033	0.89
695.215	0.96
695.397	0.86
695.579	0.89
695.761	0.88
695.943	0.84
696.125	0.99
696.308	0.95
696.49	0.83
696.671	1
696.853	0.88
697.035	1.06
697.217	0.85
697.399	0.91
697.581	0.88
697.763	0.88
697.945	0.84
698.127	0.91
698.309	0.91
698.491	0.88
698.672	0.89
698.854	0.87
699.036	0.93
699.218	0.82
699.399	0.94
699.581	0.89
699.763	0.82
699.945	0.78
700.126	0.8
700.308	0.84
700.49	0.72
700.671	0.76
700.853	0.76
701.035	0.83
701.216	0.8
701.398	0.73
701.579	0.74
701.761	0.87
701.943	0.73
702.124	0.81
702.306	0.78
702.487	0.87
702.669	0.85
702.85	0.77
703.031	0.74
703.213	0.87
703.394	0.69
703.576	0.8
703.757	0.89
703.938	0.84
704.12	0.87
704.301	0.83
704.483	0.75
704.664	0.78
704.845	0.83
705.026	0.75
705.208	0.73
705.389	0.74
705.57	0.8
705.751	0.75
705.933	0.73
706.114	0.84
706.295	0.77
706.476	0.65
706.657	0.88
706.838	0.78
707.02	0.84
707.201	0.71
707.382	0.73
707.563	0.8
707.744	0.74
707.925	0.69
708.106	0.71
708.287	0.75
708.468	0.7
708.649	0.83
708.83	0.84
709.011	0.72
709.192	0.72
709.373	0.64
709.554	0.68
709.734	0.75
709.915	0.71
710.096	0.77
710.277	0.61
710.458	0.65
710.639	0.72
710.819	0.66
711	0.72
711.181	0.71
711.362	0.73
711.542	0.7
711.723	0.68
711.904	0.76
712.085	0.68
712.265	0.68
712.446	0.53
712.627	0.61
712.807	0.68
712.988	0.68
713.168	0.64
713.349	0.66
713.53	0.56
713.71	0.63
713.891	0.62
714.071	0.64
714.252	0.58
714.432	0.59
714.613	0.57
714.793	0.68
714.974	0.69
715.154	0.69
715.334	0.71
715.515	0.7
715.695	0.57
715.876	0.64
716.056	0.66
716.236	0.55
716.417	0.6
716.597	0.58
716.777	0.75
716.957	0.64
717.138	0.62
717.318	0.68
717.498	0.53
717.678	0.66
717.859	0.55
718.039	0.58
718.219	0.65
718.399	0.68
718.579	0.54
718.759	0.52
718.939	0.63
719.12	0.68
719.3	0.65
719.48	0.59
719.66	0.52
719.84	0.68
720.02	0.6
720.2	0.52
720.38	0.62
720.56	0.69
720.74	0.57
720.92	0.58
721.1	0.57
721.279	0.62
721.459	0.61
721.639	0.49
721.819	0.54
721.999	0.57
722.179	0.62
722.359	0.52
722.538	0.62
722.718	0.59
722.898	0.63
723.078	0.6
723.257	0.61
723.437	0.63
723.617	0.63
723.797	0.68
723.976	0.62
724.156	0.57
724.336	0.58
724.515	0.77
724.695	0.48
724.874	0.6
725.054	0.65
725.234	0.53
725.413	0.65
725.593	0.65
725.772	0.6
725.952	0.67
726.131	0.57
726.311	0.58
726.49	0.54
726.67	0.49
726.849	0.5
727.028	0.6
727.208	0.48
727.387	0.62
727.567	0.53
727.746	0.6
727.925	0.5
728.105	0.64
728.284	0.55
728.463	0.51
728.643	0.61
728.822	0.49
729.001	0.59
729.18	0.69
729.359	0.66
729.539	0.57
729.718	0.53
729.897	0.67
730.076	0.58
730.255	0.5
730.434	0.59
730.614	0.6
730.793	0.65
730.972	0.54
731.151	0.56
731.33	0.7
731.509	0.59
731.688	0.64
731.867	0.58
732.046	0.53
732.225	0.68
732.404	0.44
732.583	0.46
732.762	0.56
732.941	0.7
733.12	0.58
733.298	0.56
733.477	0.61
733.656	0.58
733.835	0.53
734.014	0.66
734.193	0.6
734.371	0.64
734.55	0.67
734.729	0.56
734.908	0.65
735.086	0.55
735.265	0.7
735.444	0.42
735.623	0.48
735.801	0.5
735.98	0.6
736.159	0.63
736.337	0.62
736.516	0.62
736.694	0.51
736.873	0.53
737.052	0.69
737.23	0.75
737.409	0.55
737.587	0.77
737.766	0.32
737.944	0.61
738.123	0.64
738.301	0.7
738.479	0.67
738.658	0.7
738.836	0.44
739.015	0.71
739.193	0.66
739.371	0.56
739.55	0.64
739.728	0.49
739.906	0.63
740.085	0.74
740.263	0.55
740.441	0.42
740.62	0.69
740.798	0.6
740.976	0.47
741.154	0.51
741.332	0.71
741.511	0.53
741.689	0.66
741.867	0.75
742.045	0.45
742.223	0.5
742.401	0.56
742.579	0.5
742.757	0.63
742.935	0.44
743.114	0.54
743.292	0.51
743.47	0.52
743.648	0.42
743.826	0.33
744.004	0.61
744.181	0.61
744.359	0.55
744.537	0.59
744.715	0.55
744.893	0.56
745.071	0.47
745.249	0.46
745.427	0.41
745.605	0.49
745.782	0.4
745.96	0.54
746.138	0.47
746.316	0.5
746.493	0.49
746.671	0.48
746.849	0.44
747.027	0.52
747.204	0.4
747.382	0.54
747.56	0.35
747.737	0.41
747.915	0.37
748.093	0.51
748.27	0.39
748.448	0.52
748.625	0.38
748.803	0.5
748.98	0.4
749.158	0.48
749.335	0.5
749.513	0.34
749.69	0.48
749.868	0.41
750.045	0.49
750.223	0.33
750.4	0.35
750.578	0.64
750.755	0.36
750.932	0.26
751.11	0.44
751.287	0.3
751.464	0.62
751.642	0.42
751.819	0.51
751.996	0.41
752.173	0.38
752.351	0.46
752.528	0.44
752.705	0.42
752.882	0.31
753.06	0.55
753.237	0.51
753.414	0.52
753.591	0.56
753.768	0.45
753.945	0.42
754.122	0.39
754.299	0.4
754.476	0.23
754.654	0.53
754.831	0.51
755.008	0.48
755.185	0.36
755.362	0.31
755.539	0.32
755.716	0.51
755.892	0.39
756.069	0.34
756.246	0.48
756.423	0.3
756.6	0.55
756.777	0.35
756.954	0.54
757.131	0.6
757.307	0.26
757.484	0.28
757.661	0.5
757.838	0.52
758.015	0.29
758.191	0.51
758.368	0.36
758.545	0.5
758.721	0.49
758.898	0.24
759.075	0.47
759.251	0.45
759.428	0.5
759.605	0.3
759.781	0.41
759.958	0.31
760.134	0.32
760.311	0.38
760.488	0.41
760.664	0.49
760.841	0.33
761.017	0.31
761.194	0.33
761.37	0.42
761.547	0.44
761.723	0.35
761.899	0.4
762.076	0.28
762.252	0.22
762.429	0.36
762.605	0.4
762.781	0.28
762.958	0.42
763.134	0.31
763.31	0.26
763.486	0.51
763.663	0.19
763.839	0.52
764.015	0.2
764.191	0.41
764.368	0.35
764.544	0.3
764.72	0.47
764.896	0.39
765.072	0.47
765.248	0.33
765.425	0.34
765.601	0.38
765.777	0.4
765.953	0.22
766.129	0.32
766.305	0.38
766.481	0.4
766.657	0.39
766.833	0.64
767.009	0.25
767.185	0.32
767.361	0.35
767.537	0.23
767.713	0.46
767.889	0.31
768.065	0.32
768.24	0.44
768.416	0.52
768.592	0.29
768.768	0.39
768.944	0.46
769.12	0.26
769.295	0.47
769.471	0.36
769.647	0.38
769.823	0.62
769.998	0.37
770.174	0.35
770.35	0.65
770.525	0.69
770.701	0.45
770.877	0.44
771.052	0.41
771.228	0.57
771.403	0.36
771.579	0.46
771.755	0.7
771.93	0.37
772.106	0.2
772.281	0.21
772.457	0.31
772.632	0.41
772.808	0.34
772.983	0.37
773.159	0.29
773.334	0.52
773.509	0.34
773.685	0.44
773.86	0.63
774.036	0.52
774.211	0.43
774.386	0.4
774.562	0.4
774.737	0.56
774.912	0.37
775.087	0.48
775.263	0.34
775.438	0.42
775.613	0.32
775.788	0.4
775.964	0.51
776.139	0.69
776.314	0.29
776.489	0.34
776.664	0.48
776.839	0.4
777.014	0.53
777.19	0.53
777.365	0.58
777.54	0.63
777.715	0.27
777.89	0.46
778.065	0.31
778.24	0.41
778.415	0.36
778.59	0.29
778.765	0.26
778.94	0.39
779.115	0.38
779.289	0.27
779.464	0.43
779.639	0.55
779.814	0.19
779.989	0.35
780.164	0.52
780.339	0.53
780.513	0.29
780.688	0.38
780.863	0.28
781.038	0.54
781.212	0.34
781.387	0.38
781.562	0.42
781.737	0.59
781.911	0.63
782.086	0.23
782.261	0.38
782.435	0.66
782.61	0.44
782.784	0.47
782.959	0.6
783.134	0.32
783.308	0.18
783.483	0.3
783.657	0.78
783.832	0.66
784.006	0.17
784.181	0.68
784.355	0.55
784.53	0.43
784.704	0.24
784.878	0.64
785.053	0.68
785.227	0.39
785.402	0.84
785.576	0.22
785.75	0.58
785.925	0.67
786.099	0.57
786.273	0.39
786.448	0.53
786.622	0.59
786.796	0.53
786.97	0.4
787.145	0.94
787.319	0.34
787.493	0.53
787.667	0.35
787.841	0.4
788.015	0.8
788.19	0.21
788.364	0.46
788.538	0.48
788.712	0.45
788.886	0.44
789.06	0.63
789.234	0.6
789.408	0.13
789.582	0.28
789.756	0.43
789.93	0.28
790.104	0.54
790.278	0.47
790.452	0.44
790.626	0.38
790.8	0.55
790.973	0.71
791.147	0.64
791.321	0.55
791.495	0.48
791.669	0.55
791.843	0.55
792.016	0.66
792.19	0.69
792.364	0.19
792.538	1.06
792.711	0.64
792.885	0.23
793.059	0.07
793.233	-0
793.406	0.57
793.58	0.4
793.754	0.48
793.927	0.42
794.101	0.69
794.274	0.66
794.448	0.78
794.622	0.31
794.795	0.6
794.969	0.33
795.142	0.75
795.316	0.27
795.489	0.45
795.663	0.79
795.836	0.66
796.009	0.35
796.183	0.94
796.356	0.7
796.53	0.7
796.703	0.52
796.876	0.93
797.05	0.36
797.223	0.46
797.396	0.55
797.57	0.55
797.743	0.64
797.916	0.59
798.09	0.52
798.263	0.62
798.436	0.49
798.609	0.46
798.782	0.57
798.956	0.68
799.129	0.36
799.302	0.43
799.475	0.43
799.648	0.21
799.821	0.31
799.994	0.49
800.167	0.44
800.34	0.41
800.514	0.45
800.687	0.62
800.86	0.34
801.033	0.46
801.206	0.55
801.379	0.36
801.551	1.07
801.724	1
801.897	0.98
802.07	0.64
802.243	0.19
802.416	0.84
802.589	0.29
802.762	0.6
802.935	0.67
803.107	0.68
803.28	0.88
803.453	0.93
803.626	0.22
803.798	0.7
803.971	0.16
804.144	0.71
804.317	0.69
804.489	0.51
804.662	0.6
804.835	0.89
805.007	0.39
805.18	0.8
805.353	0.51
805.525	0.18
805.698	0.48
805.87	0.81
806.043	0.89
806.215	0.61
806.388	0.06
806.56	0.84
806.733	0.97
806.905	0.79
807.078	0.64
807.25	0.31
807.423	0.53
807.595	0.5
807.768	0.5
807.94	0.95
808.112	0.49
808.285	0.39
808.457	0.36
808.629	0.78
808.802	1
808.974	0.65
809.146	0.46
809.318	0.27
809.491	0.61
809.663	0.73
809.835	0.63
810.007	1.1
810.18	0.67
810.352	0.33
810.524	0.41
810.696	0.58
810.868	0.95
811.04	0.54
811.212	0.85
811.384	0.98
811.556	0.59
811.728	0.42
811.901	1.1
812.073	0.16
812.245	0.82
812.417	0.54
812.589	0.3
812.76	0.82
812.932	0.85
813.104	0.94
813.276	0.51
813.448	0.9
813.62	0.8
813.792	0.89
813.964	0.78
814.136	0.72
814.307	0.57
814.479	0.23
814.651	0.59
814.823	1.2
814.995	1.1
815.166	0.29
815.338	0.56
815.51	0.3
815.681	1.4
815.853	0.74
816.025	1.02
816.196	1.28
816.368	0.45
816.54	0.73
816.711	0.7
816.883	1.19
817.054	1.76
817.226	0.33
817.398	1.09
817.569	0.62
817.741	1.2
817.912	0.39
818.084	0.66
818.255	1.02
818.426	0.36
818.598	0.68
818.769	0.78
818.941	1.06
819.112	0.97
819.283	1.08
819.455	0.45
819.626	0.47
819.798	0.91
819.969	0.95
820.14	0.44
820.311	0.5
820.483	0.92
820.654	0.68
820.825	0.59
820.996	0.59
821.168	0.11
821.339	0.87
821.51	0.3
821.681	0.66
821.852	0.72
822.023	0.76
822.195	0.21
822.366	1.13
822.537	0.87
822.708	1.03
822.879	0.36
823.05	1.08
823.221	0.46
823.392	1.31
823.563	0.76
823.734	0.92
823.905	0.89
824.076	0.57
824.247	0.76
824.418	0.87
824.589	1.52
824.759	0.83
824.93	0.77
825.101	0.49
825.272	1.25
825.443	1.91
825.614	1.01
825.784	-0.4
825.955	1.46
826.126	1.53
826.297	1.32
826.467	1.72
826.638	1.15
826.809	0.23
826.98	1.14
827.15	1.11
827.321	0.96
827.492	1.72
827.662	1.02
827.833	1.84
828.003	1.33
828.174	0.3
828.345	0.59
828.515	1.72
828.686	0.34
828.856	0.57
829.027	0.99
829.197	1.02
829.368	1.45
829.538	0.92
829.709	0.41
829.879	0.72
830.049	0.99
830.22	0.03
830.39	0.87
830.56	1.15
830.731	0.91
830.901	0.47
831.072	1.21
831.242	0.89
831.412	0.44
831.582	1.27
831.753	0.7
831.923	1.47
832.093	0.88
832.263	0.59
832.434	0.64
832.604	0.68
832.774	0.98
832.944	0.64
833.114	0.84
833.284	1.34
833.454	0.67
833.624	1.05
833.795	0.92
833.965	1.51
834.135	1.71
834.305	0.44
834.475	0.75
834.645	1.19
834.815	0.92
834.985	0.55
835.155	0.87
835.325	1.17
835.494	1.26
835.664	0.42
835.834	0.35
836.004	1.06
836.174	1.23
836.344	1.51
836.514	-0.17
836.684	0.8
836.853	1.16
837.023	1.1
837.193	1.11
837.363	1.28
837.532	1.38
837.702	1.21
837.872	0.72
838.041	1.63
838.211	1.52
838.381	0.81
838.55	0.72
838.72	2.11
838.89	1.72
839.059	1.16
839.229	0.62
839.398	1.66
839.568	0.38
839.738	1.42
839.907	1.67
840.077	1.29
840.246	0.39
840.416	0.1
840.585	0.74
840.755	2.25
840.924	1.68
841.093	0.67
841.263	1.16
841.432	1.78
841.602	0.55
841.771	1.13
841.94	1.83
842.11	2.41
842.279	2.2
842.448	1.3
842.617	0.94
842.787	2.01
842.956	0.45
843.125	1.79
843.294	1.56
843.464	1.45
843.633	0.97
843.802	1.56
843.971	0.56
844.14	1.47
844.309	1.5
844.479	0.86
844.648	0.96
844.817	0.46
844.986	1.54
845.155	0.53
845.324	0.53
845.493	1.81
845.662	1.26
845.831	1.2
846	1.44
846.169	0.75
846.338	1.1
846.507	1.28
846.676	1.32
846.844	1.06
847.013	1.38
847.182	1.6
847.351	0.71
847.52	1.49
847.689	2.29
847.858	1.04
848.026	1.32
848.195	0.84
848.364	0.99
848.533	1.28
848.701	0.6
848.87	1.23
849.039	0.86
849.207	2.84
849.376	2.69
849.545	1.94
849.713	0.79
849.882	1.16
850.051	1.19
850.219	1.86
850.388	1.31
850.556	0.84
850.725	0.44
850.893	1.95
851.062	0.54
851.23	2.43
851.399	0.39
851.567	1.06
851.736	1.48
851.904	0.4
852.073	1.43
852.241	2.47
852.41	1.96
852.578	1.12
852.746	0.53
852.915	2.12
853.083	1.61
853.251	1.31
853.42	2.11
853.588	1.8
853.756	2.95
853.924	1.65
854.093	1.6
854.261	0.62
854.429	0.5
854.597	1.81
854.765	1.27
854.934	2.14
855.102	2.43
855.27	1.48
855.438	3.15
855.606	1.79
855.774	0.92
855.942	0.42
856.11	1.64
856.278	1.02
856.446	1.39
856.614	0.92
856.782	0.96
856.95	2.36
857.118	1.92
857.286	1.49
857.454	1.15
857.622	1.31
857.79	2.06
857.958	1.28
858.126	0.59
858.294	0.82
858.462	1.88
858.629	1.66
858.797	0.7
858.965	1.57
859.133	1.77
859.301	1.59
859.468	2.31
859.636	0.71
859.804	2.54
859.971	2.12
860.139	1.73
860.307	3.74
860.474	2.88
860.642	0.58
860.81	2.08
860.977	1.53
861.145	2.73
861.313	0.01
861.48	2.66
861.648	3.04
861.815	2.7
861.983	1.24
862.15	2.38
862.318	2.52
862.485	2.26
862.653	0.65
862.82	1.65
862.988	2.91
863.155	1.04
863.322	1.56
863.49	0.69
863.657	2
863.824	3.04
863.992	2.18
864.159	2.21
864.326	2.23
864.494	1.01
864.661	3.97
864.828	1.18
864.996	4.14
865.163	3.59
865.33	1.69
865.497	0.13
865.664	0.59
865.832	1.3
865.999	1.84
866.166	1.06
866.333	0.76
866.5	1.33
866.667	2.9
866.834	0.96
867.001	3.68
867.168	1.84
867.335	1.76
867.502	0.04
867.669	2.45
867.836	3.3
868.003	1.54
868.17	2.72
868.337	3.66
868.504	4.15
868.671	1.71
868.838	2.78
869.005	1.2
869.172	2.76
869.339	0.25
869.505	1.84
869.672	1.63
869.839	3.79
870.006	3.35
870.173	0.96
870.339	3.29
870.506	3.46
870.673	1.61
870.84	3.33
871.006	3.57
871.173	1.56
871.34	3.02
871.506	2.25
871.673	3.2
871.839	1.34
872.006	2.19
872.173	-0
872.339	3.53
872.506	3.99
872.672	0.96
872.839	1.33
873.005	1
873.172	6.15
873.338	4.54
873.505	2.97
873.671	1.51
873.838	2.54
874.004	0.71
874.171	1.78
874.337	2.79
874.503	2.99
874.67	1.65
874.836	2.41
875.002	4.53
875.169	2.17
875.335	3.61
875.501	1.91
875.668	3.03
875.834	1.43
876	2.88
876.166	3.06
876.332	3.95
876.499	5.38
876.665	1.58
876.831	3.19
876.997	4.24
877.163	4.17
877.329	1.19
877.495	1.1
877.662	2.62
877.828	2.34
877.994	2.41
878.16	-0.52
878.326	3.21
878.492	4.42
878.658	2.59
878.824	3.69
878.99	3.03
879.156	0.8
879.322	6.78
879.487	2.65
879.653	1.51
879.819	2.22
879.985	1.24
880.151	3.84
880.317	0.48
880.483	2
880.648	4.18
880.814	0.26
880.98	4.61
881.146	0.86
881.312	0.94
881.477	1.74
881.643	1.45
881.809	6.23
881.974	4.55
882.14	1.31
882.306	2.14
882.471	4.76
882.637	1.24
882.803	2.26
882.968	4.67
883.134	6.49
883.299	1.64
883.465	1.16
883.63	3.9
883.796	3.45
883.961	3.37
884.127	3.94
884.292	-1.19
884.458	-0.81
884.623	-0.81
