Data from Apollo_Calib_20240827__AbsoluteIrradiance__876__13-45-01-966.txt Node

Date: Wed Aug 28 13:45:01 BST 2024
User: biology
Spectrometer: FLMT08252
Trigger mode: 0
Integration Time (sec): 5.000000E-1
Scans to average: 5
Electric dark correction enabled: true
Nonlinearity correction enabled: false
Boxcar width: 0
XAxis mode: Wavelengths
Number of Pixels in Spectrum: 3648
>>>>>Begin Spectral Data<<<<<
179.588	-0
179.809	-0
180.03	-0
180.251	-0
180.473	-0
180.694	0
180.915	0
181.136	-0
181.357	0
181.578	-0
181.799	-0
182.02	-0
182.241	-0
182.462	-0
182.683	0
182.904	-0
183.125	-0
183.346	0
183.567	0
183.788	0
184.009	0
184.23	0
184.451	0
184.672	0
184.892	0
185.113	0
185.334	0
185.555	0
185.776	0
185.996	0
186.217	0
186.438	0
186.659	0
186.879	0
187.1	0
187.321	0
187.541	0
187.762	0
187.983	0
188.203	0
188.424	0
188.644	0
188.865	0
189.086	0
189.306	0
189.527	0
189.747	0
189.968	0
190.188	0
190.409	0
190.629	0
190.849	0
191.07	0
191.29	0
191.511	0
191.731	0
191.951	0
192.172	0
192.392	0
192.612	0
192.833	0
193.053	0
193.273	0
193.493	0
193.714	0
193.934	0
194.154	0
194.374	0
194.594	0
194.815	0
195.035	0
195.255	0
195.475	0
195.695	0
195.915	0
196.135	0
196.355	0
196.575	0
196.795	0
197.015	0
197.235	0
197.455	0
197.675	0
197.895	0
198.115	0
198.335	0
198.555	0
198.775	0
198.995	0
199.214	0
199.434	0
199.654	0
199.874	0
200.094	4.16
200.313	2.34
200.533	2.25
200.753	1.25
200.973	3.82
201.192	3.25
201.412	0.9
201.632	1.92
201.851	3.42
202.071	2.29
202.291	1.66
202.51	1.5
202.73	2.76
202.95	1.53
203.169	0.88
203.389	1.8
203.608	2.17
203.828	2.06
204.047	1.35
204.267	2.1
204.486	2.27
204.706	2.13
204.925	1.67
205.145	1.3
205.364	2.77
205.583	2.62
205.803	1.43
206.022	0.88
206.242	1.75
206.461	1.83
206.68	1.12
206.9	1.55
207.119	2.62
207.338	2.31
207.557	1.38
207.777	1.48
207.996	1.56
208.215	2.11
208.434	0.99
208.654	1
208.873	1.52
209.092	2.12
209.311	1.03
209.53	1.19
209.749	1.23
209.968	0.83
210.187	1.05
210.407	0.49
210.626	1.22
210.845	1.68
211.064	0.98
211.283	0.75
211.502	1.48
211.721	1.13
211.94	0.87
212.159	1.34
212.377	1.38
212.596	1.46
212.815	1.22
213.034	1
213.253	1.37
213.472	1.39
213.691	1.02
213.91	0.84
214.128	0.8
214.347	1.6
214.566	0.51
214.785	0.33
215.003	1.31
215.222	1.3
215.441	0.9
215.66	0.43
215.878	0.98
216.097	1.28
216.316	0.85
216.534	0.79
216.753	1.11
216.972	0.78
217.19	0.73
217.409	0.59
217.627	0.87
217.846	0.89
218.064	1.11
218.283	0.52
218.501	1.29
218.72	1.17
218.938	0.61
219.157	0.63
219.375	1.28
219.594	1.22
219.812	0.55
220.031	0.49
220.249	1.22
220.467	1.33
220.686	0.47
220.904	0.65
221.122	0.65
221.341	1.37
221.559	0.72
221.777	0.47
221.995	0.99
222.214	1.06
222.432	0.71
222.65	0.83
222.868	0.72
223.086	0.88
223.305	0.91
223.523	0.5
223.741	1.33
223.959	0.77
224.177	0.35
224.395	0.56
224.613	0.9
224.831	1.09
225.049	0.4
225.267	0.59
225.485	0.74
225.703	0.48
225.921	0.58
226.139	0.5
226.357	0.97
226.575	0.9
226.793	0.4
227.011	1.62
227.229	0.85
227.447	0.92
227.665	0.52
227.883	0.36
228.1	0.68
228.318	0.75
228.536	0.28
228.754	0.46
228.972	0.7
229.189	0.8
229.407	0.5
229.625	0.54
229.843	1.07
230.06	0.85
230.278	0.49
230.496	0.57
230.713	0.7
230.931	0.88
231.149	0.46
231.366	0.21
231.584	0.57
231.801	1.08
232.019	0.47
232.236	0.32
232.454	0.44
232.671	0.74
232.889	0.38
233.106	0.39
233.324	0.63
233.541	0.48
233.759	0.58
233.976	0.33
234.194	0.64
234.411	0.51
234.628	0.44
234.846	0.48
235.063	0.55
235.28	0.6
235.498	0.45
235.715	0.34
235.932	0.71
236.149	0.54
236.367	0.43
236.584	0.56
236.801	0.48
237.018	0.74
237.236	0.64
237.453	0.36
237.67	0.73
237.887	0.57
238.104	0.46
238.321	0.31
238.538	0.35
238.755	0.72
238.973	0.28
239.19	0.46
239.407	0.6
239.624	0.59
239.841	0.32
240.058	0.37
240.275	0.43
240.492	0.56
240.709	0.51
240.925	0.42
241.142	0.53
241.359	0.4
241.576	0.42
241.793	0.37
242.01	0.6
242.227	0.65
242.444	0.56
242.66	0.66
242.877	0.48
243.094	0.43
243.311	0.45
243.527	0.4
243.744	0.59
243.961	0.55
244.178	0.36
244.394	0.35
244.611	0.59
244.828	0.68
245.044	0.28
245.261	0.42
245.477	0.47
245.694	0.52
245.911	0.33
246.127	0.48
246.344	0.66
246.56	0.56
246.777	0.34
246.993	0.43
247.21	0.57
247.426	0.52
247.643	0.44
247.859	0.38
248.076	0.39
248.292	0.69
248.508	0.37
248.725	0.43
248.941	0.51
249.157	0.66
249.374	0.29
249.59	0.4
249.806	0.48
250.023	0.58
250.239	0.33
250.455	0.37
250.671	0.44
250.888	0.47
251.104	0.44
251.32	0.31
251.536	0.4
251.752	0.34
251.969	0.45
252.185	0.43
252.401	0.66
252.617	0.52
252.833	0.39
253.049	0.36
253.265	0.39
253.481	0.38
253.697	0.35
253.913	0.33
254.129	0.57
254.345	0.5
254.561	0.35
254.777	0.28
254.993	0.54
255.209	0.39
255.425	0.37
255.641	0.3
255.857	0.46
256.073	0.54
256.288	0.26
256.504	0.33
256.72	0.4
256.936	0.61
257.152	0.37
257.367	0.36
257.583	0.39
257.799	0.5
258.015	0.29
258.23	0.31
258.446	0.63
258.662	0.31
258.877	0.38
259.093	0.23
259.309	0.38
259.524	0.49
259.74	0.38
259.955	0.21
260.171	0.38
260.387	0.39
260.602	0.37
260.818	0.39
261.033	0.33
261.249	0.41
261.464	0.32
261.68	0.22
261.895	0.46
262.11	0.48
262.326	0.37
262.541	0.19
262.757	0.5
262.972	0.49
263.187	0.37
263.403	0.41
263.618	0.5
263.833	0.42
264.049	0.31
264.264	0.36
264.479	0.45
264.694	0.53
264.91	0.25
265.125	0.34
265.34	0.46
265.555	0.62
265.77	0.38
265.986	0.32
266.201	0.43
266.416	0.5
266.631	0.31
266.846	0.28
267.061	0.53
267.276	0.52
267.491	0.21
267.706	0.36
267.921	0.41
268.136	0.4
268.351	0.38
268.566	0.26
268.781	0.46
268.996	0.44
269.211	0.3
269.426	0.3
269.641	0.31
269.856	0.41
270.071	0.3
270.285	0.18
270.5	0.42
270.715	0.43
270.93	0.33
271.145	0.41
271.359	0.47
271.574	0.28
271.789	0.36
272.004	0.26
272.218	0.25
272.433	0.43
272.648	0.3
272.862	0.43
273.077	0.38
273.292	0.4
273.506	0.26
273.721	0.25
273.936	0.39
274.15	0.51
274.365	0.25
274.579	0.3
274.794	0.41
275.008	0.48
275.223	0.26
275.437	0.29
275.652	0.42
275.866	0.36
276.081	0.32
276.295	0.35
276.509	0.36
276.724	0.35
276.938	0.31
277.153	0.37
277.367	0.38
277.581	0.32
277.796	0.24
278.01	0.19
278.224	0.39
278.438	0.48
278.653	0.25
278.867	0.27
279.081	0.42
279.295	0.3
279.51	0.32
279.724	0.19
279.938	0.37
280.152	0.36
280.366	0.29
280.58	0.36
280.794	0.47
281.008	0.34
281.222	0.39
281.437	0.53
281.651	0.39
281.865	0.45
282.079	0.28
282.293	0.16
282.507	0.3
282.721	0.33
282.935	0.3
283.148	0.21
283.362	0.29
283.576	0.23
283.79	0.3
284.004	0.22
284.218	0.38
284.432	0.25
284.646	0.34
284.859	0.26
285.073	0.28
285.287	0.32
285.501	0.24
285.714	0.29
285.928	0.37
286.142	0.33
286.356	0.24
286.569	0.21
286.783	0.43
286.997	0.41
287.21	0.32
287.424	0.3
287.637	0.3
287.851	0.24
288.065	0.33
288.278	0.26
288.492	0.32
288.705	0.3
288.919	0.33
289.132	0.15
289.346	0.32
289.559	0.2
289.773	0.18
289.986	0.27
290.2	0.33
290.413	0.37
290.626	0.27
290.84	0.27
291.053	0.33
291.267	0.4
291.48	0.28
291.693	0.23
291.906	0.23
292.12	0.29
292.333	0.27
292.546	0.25
292.76	0.44
292.973	0.33
293.186	0.34
293.399	0.25
293.612	0.32
293.826	0.29
294.039	0.28
294.252	0.24
294.465	0.34
294.678	0.31
294.891	0.26
295.104	0.21
295.317	0.24
295.53	0.34
295.743	0.27
295.956	0.26
296.169	0.36
296.382	0.33
296.595	0.28
296.808	0.21
297.021	0.36
297.234	0.34
297.447	0.27
297.66	0.27
297.873	0.37
298.086	0.31
298.299	0.18
298.511	0.16
298.724	0.32
298.937	0.22
299.15	0.2
299.363	0.25
299.575	0.32
299.788	0.35
300.001	0.25
300.213	0.25
300.426	0.26
300.639	0.24
300.852	0.18
301.064	0.33
301.277	0.36
301.489	0.32
301.702	0.28
301.915	0.25
302.127	0.26
302.34	0.32
302.552	0.28
302.765	0.17
302.977	0.33
303.19	0.22
303.402	0.25
303.615	0.25
303.827	0.27
304.04	0.28
304.252	0.29
304.464	0.27
304.677	0.37
304.889	0.35
305.102	0.23
305.314	0.24
305.526	0.32
305.739	0.31
305.951	0.23
306.163	0.26
306.375	0.38
306.588	0.26
306.8	0.25
307.012	0.2
307.224	0.25
307.436	0.35
307.649	0.16
307.861	0.24
308.073	0.34
308.285	0.27
308.497	0.19
308.709	0.24
308.921	0.28
309.133	0.32
309.346	0.25
309.558	0.22
309.77	0.28
309.982	0.34
310.194	0.28
310.406	0.21
310.617	0.41
310.829	0.31
311.041	0.3
311.253	0.16
311.465	0.27
311.677	0.24
311.889	0.25
312.101	0.23
312.313	0.36
312.524	0.33
312.736	0.19
312.948	0.18
313.16	0.37
313.372	0.29
313.583	0.28
313.795	0.21
314.007	0.25
314.218	0.38
314.43	0.29
314.642	0.23
314.853	0.2
315.065	0.32
315.277	0.26
315.488	0.28
315.7	0.38
315.912	0.29
316.123	0.24
316.335	0.25
316.546	0.36
316.758	0.27
316.969	0.26
317.181	0.25
317.392	0.23
317.604	0.36
317.815	0.17
318.026	0.23
318.238	0.25
318.449	0.26
318.661	0.21
318.872	0.18
319.083	0.25
319.295	0.32
319.506	0.22
319.717	0.24
319.929	0.3
320.14	0.24
320.351	0.26
320.562	0.19
320.774	0.31
320.985	0.27
321.196	0.23
321.407	0.17
321.618	0.33
321.829	0.28
322.041	0.32
322.252	0.26
322.463	0.32
322.674	0.31
322.885	0.21
323.096	0.27
323.307	0.28
323.518	0.31
323.729	0.26
323.94	0.25
324.151	0.25
324.362	0.29
324.573	0.28
324.784	0.2
324.995	0.29
325.206	0.3
325.417	0.24
325.628	0.23
325.838	0.26
326.049	0.31
326.26	0.32
326.471	0.2
326.682	0.3
326.892	0.26
327.103	0.22
327.314	0.24
327.525	0.35
327.735	0.31
327.946	0.28
328.157	0.18
328.368	0.3
328.578	0.26
328.789	0.27
328.999	0.26
329.21	0.2
329.421	0.33
329.631	0.26
329.842	0.22
330.052	0.28
330.263	0.29
330.473	0.27
330.684	0.21
330.894	0.28
331.105	0.28
331.315	0.23
331.526	0.19
331.736	0.37
331.947	0.26
332.157	0.24
332.367	0.15
332.578	0.32
332.788	0.38
332.999	0.32
333.209	0.23
333.419	0.2
333.629	0.29
333.84	0.26
334.05	0.25
334.26	0.35
334.47	0.3
334.681	0.28
334.891	0.25
335.101	0.29
335.311	0.39
335.521	0.26
335.732	0.23
335.942	0.31
336.152	0.27
336.362	0.23
336.572	0.27
336.782	0.31
336.992	0.26
337.202	0.22
337.412	0.25
337.622	0.31
337.832	0.22
338.042	0.24
338.252	0.18
338.462	0.21
338.672	0.28
338.882	0.26
339.092	0.23
339.302	0.39
339.511	0.3
339.721	0.22
339.931	0.15
340.141	0.34
340.351	0.31
340.561	0.32
340.77	0.3
340.98	0.31
341.19	0.28
341.4	0.24
341.609	0.19
341.819	0.23
342.029	0.18
342.238	0.26
342.448	0.24
342.658	0.32
342.867	0.27
343.077	0.22
343.286	0.24
343.496	0.28
343.706	0.32
343.915	0.18
344.125	0.27
344.334	0.27
344.544	0.19
344.753	0.21
344.963	0.21
345.172	0.23
345.381	0.21
345.591	0.21
345.8	0.23
346.01	0.36
346.219	0.33
346.428	0.12
346.638	0.21
346.847	0.22
347.056	0.35
347.266	0.22
347.475	0.26
347.684	0.33
347.893	0.34
348.103	0.29
348.312	0.24
348.521	0.26
348.73	0.25
348.94	0.29
349.149	0.23
349.358	0.23
349.567	0.24
349.776	0.2
349.985	0.24
350.194	0.29
350.403	0.32
350.612	0.15
350.821	0.22
351.03	0.26
351.239	0.13
351.448	0.25
351.657	0.21
351.866	0.38
352.075	0.26
352.284	0.24
352.493	0.21
352.702	0.33
352.911	0.28
353.12	0.21
353.329	0.23
353.538	0.29
353.746	0.28
353.955	0.22
354.164	0.25
354.373	0.22
354.582	0.3
354.79	0.27
354.999	0.25
355.208	0.28
355.416	0.36
355.625	0.18
355.834	0.25
356.042	0.26
356.251	0.22
356.46	0.19
356.668	0.28
356.877	0.39
357.085	0.31
357.294	0.16
357.503	0.25
357.711	0.23
357.92	0.41
358.128	0.21
358.337	0.22
358.545	0.26
358.754	0.24
358.962	0.29
359.17	0.23
359.379	0.28
359.587	0.25
359.796	0.2
360.004	0.29
360.212	0.27
360.421	0.36
360.629	0.22
360.837	0.24
361.046	0.34
361.254	0.34
361.462	0.25
361.67	0.18
361.879	0.26
362.087	0.33
362.295	0.29
362.503	0.22
362.711	0.2
362.92	0.24
363.128	0.22
363.336	0.22
363.544	0.14
363.752	0.25
363.96	0.25
364.168	0.22
364.376	0.27
364.584	0.29
364.792	0.32
365	0.27
365.208	0.26
365.416	0.29
365.624	0.29
365.832	0.2
366.04	0.32
366.248	0.27
366.456	0.28
366.664	0.26
366.872	0.3
367.079	0.22
367.287	0.26
367.495	0.28
367.703	0.25
367.911	0.23
368.118	0.25
368.326	0.28
368.534	0.18
368.742	0.33
368.949	0.18
369.157	0.24
369.365	0.31
369.572	0.21
369.78	0.2
369.988	0.35
370.195	0.26
370.403	0.3
370.61	0.2
370.818	0.25
371.026	0.39
371.233	0.2
371.441	0.25
371.648	0.27
371.856	0.28
372.063	0.27
372.271	0.2
372.478	0.21
372.685	0.24
372.893	0.29
373.1	0.22
373.308	0.21
373.515	0.37
373.722	0.37
373.93	0.23
374.137	0.32
374.344	0.35
374.552	0.34
374.759	0.29
374.966	0.28
375.173	0.27
375.381	0.34
375.588	0.28
375.795	0.21
376.002	0.27
376.209	0.23
376.417	0.24
376.624	0.32
376.831	0.27
377.038	0.23
377.245	0.18
377.452	0.22
377.659	0.29
377.866	0.23
378.073	0.27
378.28	0.22
378.487	0.34
378.694	0.33
378.901	0.24
379.108	0.21
379.315	0.36
379.522	0.4
379.729	0.29
379.936	0.25
380.143	0.27
380.35	0.31
380.557	0.28
380.763	0.29
380.97	0.27
381.177	0.29
381.384	0.3
381.591	0.29
381.797	0.28
382.004	0.33
382.211	0.32
382.418	0.23
382.624	0.35
382.831	0.33
383.038	0.28
383.244	0.26
383.451	0.3
383.658	0.32
383.864	0.27
384.071	0.21
384.277	0.33
384.484	0.24
384.69	0.33
384.897	0.25
385.103	0.27
385.31	0.24
385.516	0.27
385.723	0.24
385.929	0.3
386.136	0.28
386.342	0.3
386.549	0.23
386.755	0.35
386.961	0.34
387.168	0.23
387.374	0.26
387.58	0.36
387.787	0.29
387.993	0.32
388.199	0.25
388.406	0.28
388.612	0.25
388.818	0.28
389.024	0.23
389.231	0.32
389.437	0.4
389.643	0.29
389.849	0.27
390.055	0.32
390.261	0.32
390.467	0.36
390.674	0.27
390.88	0.27
391.086	0.31
391.292	0.24
391.498	0.34
391.704	0.32
391.91	0.32
392.116	0.32
392.322	0.22
392.528	0.35
392.734	0.31
392.94	0.28
393.146	0.27
393.352	0.32
393.557	0.29
393.763	0.33
393.969	0.37
394.175	0.29
394.381	0.34
394.587	0.28
394.792	0.35
394.998	0.36
395.204	0.37
395.41	0.27
395.615	0.31
395.821	0.38
396.027	0.39
396.233	0.26
396.438	0.35
396.644	0.39
396.85	0.35
397.055	0.32
397.261	0.37
397.466	0.35
397.672	0.33
397.878	0.4
398.083	0.35
398.289	0.35
398.494	0.4
398.7	0.36
398.905	0.26
399.111	0.49
399.316	0.31
399.522	0.32
399.727	0.33
399.932	0.39
400.138	0.36
400.343	0.4
400.549	0.34
400.754	0.38
400.959	0.39
401.165	0.35
401.37	0.41
401.575	0.49
401.78	0.4
401.986	0.33
402.191	0.33
402.396	0.37
402.601	0.42
402.807	0.41
403.012	0.37
403.217	0.47
403.422	0.43
403.627	0.47
403.832	0.4
404.037	0.45
404.243	0.5
404.448	0.39
404.653	0.39
404.858	0.5
405.063	0.52
405.268	0.4
405.473	0.4
405.678	0.43
405.883	0.66
406.088	0.53
406.293	0.4
406.498	0.44
406.703	0.52
406.907	0.47
407.112	0.45
407.317	0.53
407.522	0.6
407.727	0.48
407.932	0.53
408.136	0.69
408.341	0.55
408.546	0.61
408.751	0.57
408.956	0.62
409.16	0.7
409.365	0.6
409.57	0.63
409.774	0.63
409.979	0.68
410.184	0.69
410.388	0.56
410.593	0.73
410.798	0.76
411.002	0.71
411.207	0.83
411.411	0.79
411.616	0.76
411.82	0.82
412.025	0.86
412.229	0.85
412.434	0.97
412.638	0.91
412.843	0.92
413.047	0.92
413.252	0.95
413.456	1
413.66	1.09
413.865	1.08
414.069	1.15
414.273	1.08
414.478	1.12
414.682	1.18
414.886	1.27
415.091	1.13
415.295	1.26
415.499	1.38
415.703	1.39
415.908	1.46
416.112	1.31
416.316	1.61
416.52	1.54
416.724	1.54
416.929	1.63
417.133	1.91
417.337	1.67
417.541	1.75
417.745	1.82
417.949	1.95
418.153	1.97
418.357	1.97
418.561	2.27
418.765	2.22
418.969	2.32
419.173	2.41
419.377	2.38
419.581	2.61
419.785	2.63
419.989	2.64
420.193	2.83
420.397	2.87
420.601	3.03
420.804	3.12
421.008	3.09
421.212	3.29
421.416	3.26
421.62	3.23
421.823	3.4
422.027	3.53
422.231	3.5
422.435	3.5
422.638	3.56
422.842	3.67
423.046	3.68
423.249	3.92
423.453	3.91
423.657	4.07
423.86	4.17
424.064	4.3
424.268	4.45
424.471	4.38
424.675	4.63
424.878	4.81
425.082	4.81
425.285	5.11
425.489	5.15
425.692	5.31
425.896	5.21
426.099	5.43
426.303	5.52
426.506	5.68
426.71	5.9
426.913	6.1
427.116	6.34
427.32	6.31
427.523	6.29
427.726	6.66
427.93	6.7
428.133	7.08
428.336	7.16
428.54	7.35
428.743	7.56
428.946	7.78
429.149	7.75
429.353	7.92
429.556	7.98
429.759	8
429.962	8.13
430.165	8.31
430.368	7.93
430.571	8.07
430.775	8.08
430.978	8.05
431.181	8.07
431.384	8.21
431.587	8.28
431.79	8.6
431.993	8.44
432.196	8.95
432.399	9.27
432.602	9.38
432.805	9.46
433.008	10.02
433.211	9.93
433.414	10.31
433.616	10.33
433.819	10.2
434.022	10.36
434.225	10.62
434.428	10.55
434.631	11.05
434.833	10.81
435.036	10.98
435.239	11.22
435.442	11.25
435.645	11.5
435.847	11.51
436.05	11.78
436.253	11.99
436.455	12.02
436.658	11.92
436.861	12.41
437.063	12.45
437.266	12.3
437.468	12.74
437.671	13.05
437.874	13.06
438.076	12.88
438.279	13.34
438.481	13.42
438.684	14.21
438.886	13.77
439.089	14.08
439.291	14.17
439.494	14.36
439.696	14.57
439.899	15.1
440.101	15.63
440.303	15.79
440.506	16.49
440.708	16.27
440.91	16.47
441.113	16.48
441.315	16.85
441.517	16.6
441.72	17.03
441.922	16.77
442.124	16.65
442.326	17.11
442.529	17.37
442.731	17.28
442.933	17.59
443.135	17.33
443.337	17.27
443.539	17.91
443.742	17.62
443.944	18.33
444.146	17.86
444.348	17.87
444.55	17.86
444.752	17.99
444.954	18.12
445.156	17.95
445.358	18.46
445.56	18.65
445.762	18.43
445.964	18.71
446.166	18.47
446.368	18.48
446.57	18.55
446.772	18.07
446.974	17.88
447.175	18.28
447.377	17.93
447.579	18.24
447.781	17.91
447.983	17.73
448.184	17.39
448.386	17.74
448.588	17.04
448.79	17.24
448.991	17.51
449.193	17.47
449.395	16.69
449.597	16.45
449.798	16.38
450	15.95
450.202	15.78
450.403	15.87
450.605	15.71
450.806	15.29
451.008	15.15
451.21	14.91
451.411	14.5
451.613	13.83
451.814	14.06
452.016	14.06
452.217	13.29
452.419	13.28
452.62	12.89
452.821	12.59
453.023	12.5
453.224	12.35
453.426	11.9
453.627	11.15
453.828	11.03
454.03	11.14
454.231	11.3
454.432	11.09
454.634	10.77
454.835	10.43
455.036	10.35
455.238	10.04
455.439	9.91
455.64	9.57
455.841	9.32
456.042	9.57
456.244	9.24
456.445	8.85
456.646	8.52
456.847	8.56
457.048	8.45
457.249	8.46
457.45	8.28
457.651	7.68
457.852	7.64
458.054	7.27
458.255	7.26
458.456	7.28
458.657	7.18
458.858	6.86
459.058	6.7
459.259	6.72
459.46	6.38
459.661	6.39
459.862	6.45
460.063	6.38
460.264	6.37
460.465	5.99
460.666	6.07
460.866	5.71
461.067	5.52
461.268	5.49
461.469	5.45
461.67	5.34
461.87	5.27
462.071	5.22
462.272	5.1
462.473	5.01
462.673	5.3
462.874	5.17
463.075	5.17
463.275	5.17
463.476	5.17
463.676	5.13
463.877	4.87
464.078	4.94
464.278	4.94
464.479	4.86
464.679	4.77
464.88	4.73
465.08	4.65
465.281	4.53
465.481	4.26
465.682	4.11
465.882	4.22
466.083	4.11
466.283	4
466.483	4.03
466.684	3.79
466.884	3.69
467.085	3.66
467.285	3.76
467.485	3.58
467.686	3.51
467.886	3.42
468.086	3.4
468.286	3.41
468.487	3.42
468.687	3.33
468.887	3.2
469.087	3.4
469.287	3.26
469.488	3.01
469.688	3.24
469.888	3.2
470.088	3.11
470.288	3.05
470.488	3.09
470.688	2.9
470.888	2.93
471.088	2.69
471.288	2.81
471.488	2.79
471.688	2.73
471.888	2.7
472.088	2.86
472.288	2.72
472.488	2.66
472.688	2.59
472.888	2.58
473.088	2.68
473.288	2.51
473.488	2.48
473.688	2.57
473.887	2.51
474.087	2.41
474.287	2.44
474.487	2.38
474.687	2.44
474.886	2.36
475.086	2.29
475.286	2.37
475.486	2.32
475.685	2.22
475.885	2.19
476.085	2.25
476.284	2.29
476.484	2.24
476.684	2.23
476.883	2.34
477.083	2.21
477.282	2.18
477.482	2.18
477.681	2.16
477.881	2.1
478.08	2.13
478.28	2.06
478.479	2.11
478.679	2.16
478.878	2.02
479.078	2.01
479.277	2.09
479.477	2.08
479.676	2.03
479.875	1.96
480.075	1.97
480.274	2.05
480.473	2.06
480.673	2.02
480.872	2.12
481.071	2.06
481.271	2.02
481.47	1.99
481.669	2
481.868	1.99
482.067	2.02
482.267	1.92
482.466	1.94
482.665	1.94
482.864	1.94
483.063	1.95
483.262	2.02
483.461	2.09
483.661	2.05
483.86	2
484.059	2.08
484.258	2.06
484.457	1.98
484.656	2.01
484.855	2.07
485.054	1.92
485.253	1.95
485.452	1.95
485.651	2.08
485.849	2.02
486.048	2.02
486.247	2.04
486.446	2.09
486.645	2.02
486.844	2.03
487.043	2.03
487.241	2.1
487.44	2.07
487.639	2.13
487.838	2.15
488.037	2.08
488.235	2.22
488.434	2.13
488.633	2.06
488.831	2.23
489.03	2.24
489.229	2.22
489.427	2.22
489.626	2.29
489.825	2.27
490.023	2.32
490.222	2.26
490.42	2.29
490.619	2.37
490.817	2.36
491.016	2.33
491.214	2.42
491.413	2.43
491.611	2.37
491.81	2.37
492.008	2.45
492.207	2.58
492.405	2.53
492.604	2.5
492.802	2.57
493	2.6
493.199	2.59
493.397	2.64
493.595	2.68
493.794	2.66
493.992	2.8
494.19	2.75
494.388	2.84
494.587	2.77
494.785	2.79
494.983	2.72
495.181	2.91
495.379	2.9
495.578	2.91
495.776	2.93
495.974	2.93
496.172	2.94
496.37	3.11
496.568	3.11
496.766	3.04
496.964	3.19
497.162	3.16
497.36	3.22
497.558	3.23
497.756	3.32
497.954	3.3
498.152	3.39
498.35	3.44
498.548	3.4
498.746	3.36
498.944	3.45
499.142	3.44
499.34	3.51
499.538	3.62
499.736	3.55
499.933	3.64
500.131	3.66
500.329	3.77
500.527	3.73
500.725	3.86
500.922	3.89
501.12	3.88
501.318	3.98
501.516	3.93
501.713	3.97
501.911	3.96
502.109	3.94
502.306	4.08
502.504	4.02
502.701	4.09
502.899	4.17
503.097	4.34
503.294	4.24
503.492	4.35
503.689	4.32
503.887	4.36
504.084	4.44
504.282	4.42
504.479	4.38
504.677	4.6
504.874	4.54
505.072	4.48
505.269	4.63
505.466	4.69
505.664	4.73
505.861	4.59
506.059	4.74
506.256	4.8
506.453	4.84
506.651	4.96
506.848	4.94
507.045	4.93
507.242	4.98
507.44	5.01
507.637	5.08
507.834	5.03
508.031	5.22
508.229	5.09
508.426	5.13
508.623	5.24
508.82	5.3
509.017	5.25
509.214	5.25
509.411	5.38
509.608	5.36
509.805	5.46
510.003	5.44
510.2	5.52
510.397	5.65
510.594	5.51
510.791	5.61
510.988	5.58
511.184	5.66
511.381	5.49
511.578	5.67
511.775	5.81
511.972	5.68
512.169	5.8
512.366	5.79
512.563	5.94
512.76	5.98
512.956	5.96
513.153	5.93
513.35	5.91
513.547	5.85
513.744	6.05
513.94	6.06
514.137	6.15
514.334	6.09
514.53	6.09
514.727	6.34
514.924	6.29
515.12	6.18
515.317	6.22
515.514	6.21
515.71	6.16
515.907	6.41
516.103	6.38
516.3	6.37
516.497	6.44
516.693	6.5
516.89	6.43
517.086	6.54
517.283	6.55
517.479	6.39
517.676	6.59
517.872	6.61
518.068	6.63
518.265	6.59
518.461	6.57
518.658	6.67
518.854	6.68
519.05	6.76
519.247	6.82
519.443	6.75
519.639	6.9
519.836	6.75
520.032	6.76
520.228	6.91
520.424	6.91
520.621	6.89
520.817	7.01
521.013	6.84
521.209	7.07
521.405	7.05
521.601	7.06
521.798	6.94
521.994	7.03
522.19	6.94
522.386	6.97
522.582	7.09
522.778	7.23
522.974	7.09
523.17	7.11
523.366	7.06
523.562	7.15
523.758	7.15
523.954	7.05
524.15	7.19
524.346	7.28
524.542	7.23
524.738	7.24
524.934	7.34
525.129	7.37
525.325	7.24
525.521	7.26
525.717	7.48
525.913	7.3
526.109	7.33
526.304	7.42
526.5	7.48
526.696	7.42
526.892	7.33
527.087	7.56
527.283	7.48
527.479	7.49
527.674	7.27
527.87	7.51
528.066	7.46
528.261	7.55
528.457	7.42
528.653	7.6
528.848	7.62
529.044	7.64
529.239	7.53
529.435	7.49
529.63	7.52
529.826	7.54
530.021	7.59
530.217	7.64
530.412	7.58
530.608	7.59
530.803	7.62
530.999	7.55
531.194	7.65
531.389	7.71
531.585	7.63
531.78	7.77
531.975	7.66
532.171	7.78
532.366	7.68
532.561	7.72
532.757	7.67
532.952	7.92
533.147	7.64
533.342	7.74
533.538	7.68
533.733	7.9
533.928	7.61
534.123	7.75
534.318	7.82
534.513	7.73
534.709	7.94
534.904	7.85
535.099	7.92
535.294	7.92
535.489	7.96
535.684	7.75
535.879	7.75
536.074	7.85
536.269	7.9
536.464	7.93
536.659	7.82
536.854	7.88
537.049	7.95
537.244	7.9
537.439	7.93
537.634	7.92
537.828	7.95
538.023	7.93
538.218	7.93
538.413	7.82
538.608	7.91
538.803	7.95
538.997	7.83
539.192	8
539.387	7.89
539.582	7.97
539.776	7.85
539.971	8.01
540.166	8.01
540.36	7.87
540.555	8.05
540.75	7.97
540.944	8.06
541.139	8
541.334	7.99
541.528	8.03
541.723	8.08
541.917	8.08
542.112	7.98
542.306	7.88
542.501	7.91
542.695	8
542.89	7.92
543.084	7.98
543.279	7.98
543.473	8.04
543.668	8.12
543.862	7.9
544.056	7.98
544.251	8.08
544.445	8.12
544.64	8.12
544.834	7.79
545.028	7.65
545.222	8.03
545.417	8.22
545.611	8.05
545.805	8.02
546	7.91
546.194	8.02
546.388	8.02
546.582	7.99
546.776	8.06
546.97	8.06
547.165	8.03
547.359	8.02
547.553	7.99
547.747	8.01
547.941	8.24
548.135	7.99
548.329	8.1
548.523	8.06
548.717	7.96
548.911	8.01
549.105	8.01
549.299	8.12
549.493	8.03
549.687	7.99
549.881	8.14
550.075	8.1
550.269	7.96
550.463	8.05
550.657	8.11
550.85	8.09
551.044	8.05
551.238	8.16
551.432	8.06
551.626	8.1
551.82	8.09
552.013	7.98
552.207	8.13
552.401	8.14
552.594	8.09
552.788	8.01
552.982	8.07
553.176	7.96
553.369	8.18
553.563	8.13
553.756	8.03
553.95	8.15
554.144	8.18
554.337	8.1
554.531	7.95
554.724	8.15
554.918	8.18
555.111	8.05
555.305	8.06
555.498	8.08
555.692	8.21
555.885	8.11
556.079	8.06
556.272	8.09
556.466	8.07
556.659	8.07
556.852	8.2
557.046	7.96
557.239	7.96
557.432	8.04
557.626	8.11
557.819	8.14
558.012	8.14
558.206	8.18
558.399	8.11
558.592	8.06
558.785	8.01
558.979	8.07
559.172	8.12
559.365	8.07
559.558	8.05
559.751	8.04
559.944	8.2
560.138	8.11
560.331	8.08
560.524	8.18
560.717	8.09
560.91	8.13
561.103	8.06
561.296	7.99
561.489	8.1
561.682	8.21
561.875	8.16
562.068	8.15
562.261	7.97
562.454	8.21
562.647	8.11
562.84	8.11
563.032	8.11
563.225	8.04
563.418	8.1
563.611	8.12
563.804	8.12
563.997	7.96
564.19	7.9
564.382	8.17
564.575	8.01
564.768	7.98
564.961	8.1
565.153	8.05
565.346	7.94
565.539	8.12
565.731	8.12
565.924	8.14
566.117	8.18
566.309	8.01
566.502	8.11
566.695	7.97
566.887	8.1
567.08	8.09
567.272	8.1
567.465	7.99
567.657	8.13
567.85	7.94
568.042	8.06
568.235	8.14
568.427	7.93
568.62	8.06
568.812	7.96
569.005	8.09
569.197	8
569.389	8.07
569.582	8.02
569.774	8.1
569.966	7.94
570.159	7.95
570.351	7.89
570.543	7.98
570.736	8.04
570.928	7.87
571.12	8.06
571.312	7.92
571.505	7.75
571.697	8.05
571.889	7.97
572.081	7.95
572.273	7.87
572.465	7.98
572.658	8.08
572.85	8
573.042	8.03
573.234	7.92
573.426	7.97
573.618	7.92
573.81	8
574.002	7.86
574.194	8.04
574.386	7.85
574.578	7.83
574.77	7.86
574.962	7.94
575.154	7.75
575.346	7.88
575.538	7.76
575.729	7.8
575.921	7.94
576.113	7.9
576.305	7.88
576.497	7.93
576.689	7.78
576.88	7.73
577.072	7.92
577.264	7.86
577.456	7.84
577.647	7.8
577.839	7.98
578.031	7.88
578.223	7.82
578.414	7.73
578.606	7.83
578.798	7.9
578.989	7.76
579.181	7.85
579.372	7.72
579.564	7.83
579.755	7.75
579.947	7.71
580.139	7.78
580.33	7.6
580.522	7.75
580.713	7.68
580.905	7.73
581.096	7.84
581.287	7.73
581.479	7.71
581.67	7.88
581.862	7.68
582.053	7.71
582.244	7.61
582.436	7.85
582.627	7.68
582.818	7.57
583.01	7.6
583.201	7.69
583.392	7.66
583.583	7.58
583.775	7.49
583.966	7.56
584.157	7.64
584.348	7.67
584.54	7.59
584.731	7.59
584.922	7.52
585.113	7.4
585.304	7.53
585.495	7.49
585.686	7.65
585.877	7.62
586.068	7.6
586.259	7.57
586.45	7.53
586.641	7.51
586.832	7.56
587.023	7.47
587.214	7.43
587.405	7.5
587.596	7.45
587.787	7.35
587.978	7.46
588.169	7.37
588.36	7.31
588.551	7.44
588.742	7.48
588.932	7.44
589.123	7.27
589.314	7.44
589.505	7.32
589.696	7.38
589.886	7.25
590.077	7.33
590.268	7.25
590.458	7.24
590.649	7.1
590.84	7.23
591.03	7.26
591.221	7.25
591.412	7.13
591.602	7.36
591.793	7.2
591.984	7.21
592.174	7.18
592.365	7.39
592.555	7.12
592.746	7.15
592.936	7.12
593.127	7.17
593.317	7.2
593.508	7.19
593.698	7.08
593.889	7.1
594.079	7.12
594.269	7.01
594.46	6.94
594.65	7.07
594.84	7.02
595.031	6.93
595.221	6.93
595.411	6.97
595.602	7.01
595.792	6.92
595.982	6.85
596.172	7.04
596.363	6.87
596.553	6.85
596.743	6.94
596.933	6.91
597.123	6.89
597.314	6.69
597.504	6.79
597.694	6.88
597.884	6.81
598.074	6.83
598.264	6.83
598.454	6.8
598.644	6.74
598.834	6.77
599.024	6.64
599.214	6.71
599.404	6.81
599.594	6.69
599.784	6.59
599.974	6.7
600.164	6.69
600.354	6.58
600.544	6.59
600.734	6.68
600.924	6.57
601.114	6.49
601.303	6.45
601.493	6.59
601.683	6.55
601.873	6.5
602.063	6.45
602.252	6.52
602.442	6.44
602.632	6.4
602.821	6.36
603.011	6.49
603.201	6.44
603.39	6.34
603.58	6.29
603.77	6.41
603.959	6.47
604.149	6.32
604.339	6.36
604.528	6.42
604.718	6.35
604.907	6.27
605.097	6.21
605.286	6.23
605.476	6.23
605.665	6.35
605.855	6.16
606.044	6.27
606.234	6.21
606.423	6.18
606.612	6.16
606.802	6.09
606.991	6.21
607.181	6.22
607.37	6.15
607.559	5.92
607.749	6.09
607.938	5.94
608.127	6
608.316	6.03
608.506	6
608.695	6.08
608.884	6.03
609.073	5.98
609.263	6.07
609.452	5.97
609.641	5.83
609.83	5.85
610.019	5.93
610.208	5.8
610.397	5.88
610.586	5.87
610.775	5.78
610.965	5.77
611.154	5.7
611.343	5.78
611.532	5.67
611.721	5.73
611.91	5.71
612.099	5.69
612.287	5.6
612.476	5.56
612.665	5.77
612.854	5.53
613.043	5.6
613.232	5.65
613.421	5.54
613.61	5.52
613.798	5.59
613.987	5.62
614.176	5.48
614.365	5.54
614.554	5.49
614.742	5.53
614.931	5.34
615.12	5.58
615.309	5.44
615.497	5.38
615.686	5.23
615.875	5.36
616.063	5.36
616.252	5.3
616.44	5.34
616.629	5.27
616.818	5.39
617.006	5.3
617.195	5.25
617.383	5.24
617.572	5.13
617.76	5.19
617.949	5.14
618.137	5.23
618.326	5.23
618.514	4.99
618.703	5
618.891	5.15
619.079	4.99
619.268	5.12
619.456	4.97
619.644	5.15
619.833	5.02
620.021	4.98
620.209	4.82
620.398	5.04
620.586	4.9
620.774	4.96
620.962	4.9
621.151	5.07
621.339	4.87
621.527	4.8
621.715	4.81
621.903	4.87
622.092	4.75
622.28	4.9
622.468	4.65
622.656	4.83
622.844	4.75
623.032	4.76
623.22	4.71
623.408	4.77
623.596	4.75
623.784	4.79
623.972	4.59
624.16	4.64
624.348	4.67
624.536	4.69
624.724	4.53
624.912	4.63
625.1	4.64
625.288	4.6
625.476	4.54
625.664	4.61
625.851	4.52
626.039	4.56
626.227	4.43
626.415	4.47
626.603	4.37
626.79	4.48
626.978	4.42
627.166	4.46
627.354	4.34
627.541	4.32
627.729	4.18
627.917	4.51
628.104	4.42
628.292	4.26
628.48	4.3
628.667	4.27
628.855	4.37
629.042	4.38
629.23	4.21
629.418	4.22
629.605	4.27
629.793	4.13
629.98	4.16
630.168	4.11
630.355	4.17
630.543	4.11
630.73	4.1
630.917	4.08
631.105	4.22
631.292	4.08
631.48	4.07
631.667	4.14
631.854	4.06
632.042	4.06
632.229	3.92
632.416	4.06
632.604	4
632.791	3.82
632.978	4
633.165	3.93
633.353	3.99
633.54	3.99
633.727	3.83
633.914	3.81
634.101	3.81
634.289	3.9
634.476	3.81
634.663	3.72
634.85	3.82
635.037	3.74
635.224	3.68
635.411	3.76
635.598	3.7
635.785	3.68
635.972	3.67
636.159	3.78
636.346	3.63
636.533	3.58
636.72	3.58
636.907	3.62
637.094	3.63
637.281	3.57
637.468	3.56
637.655	3.64
637.842	3.61
638.029	3.51
638.215	3.51
638.402	3.54
638.589	3.44
638.776	3.44
638.963	3.45
639.149	3.54
639.336	3.55
639.523	3.43
639.709	3.41
639.896	3.36
640.083	3.37
640.27	3.46
640.456	3.32
640.643	3.4
640.829	3.26
641.016	3.31
641.203	3.23
641.389	3.27
641.576	3.3
641.762	3.26
641.949	3.21
642.135	3.22
642.322	3.23
642.508	3.15
642.695	3.19
642.881	3.12
643.068	3.14
643.254	3.16
643.441	3.17
643.627	3.17
643.813	3.02
644	3.13
644.186	2.99
644.372	3.06
644.559	3.11
644.745	3.05
644.931	2.98
645.118	3.09
645.304	3.04
645.49	2.96
645.676	2.95
645.862	2.92
646.049	3.1
646.235	2.94
646.421	3.07
646.607	3.01
646.793	2.88
646.979	2.82
647.165	2.9
647.352	2.93
647.538	2.94
647.724	2.84
647.91	2.82
648.096	2.83
648.282	2.83
648.468	2.76
648.654	2.82
648.84	2.82
649.026	2.77
649.212	2.72
649.397	2.71
649.583	2.71
649.769	2.72
649.955	2.76
650.141	2.71
650.327	2.76
650.513	2.6
650.698	2.66
650.884	2.55
651.07	2.71
651.256	2.59
651.442	2.67
651.627	2.52
651.813	2.62
651.999	2.56
652.184	2.56
652.37	2.55
652.556	2.53
652.741	2.58
652.927	2.44
653.113	2.52
653.298	2.51
653.484	2.49
653.669	2.43
653.855	2.51
654.04	2.53
654.226	2.5
654.412	2.4
654.597	2.31
654.782	2.44
654.968	2.44
655.153	2.4
655.339	2.36
655.524	2.32
655.71	2.39
655.895	2.33
656.08	2.34
656.266	2.39
656.451	2.32
656.636	2.25
656.822	2.31
657.007	2.34
657.192	2.29
657.378	2.23
657.563	2.2
657.748	2.29
657.933	2.3
658.118	2.19
658.304	2.21
658.489	2.3
658.674	2.2
658.859	2.12
659.044	2.19
659.229	2.23
659.414	2.17
659.599	2.14
659.785	2.05
659.97	2.14
660.155	2.16
660.34	2.11
660.525	2.1
660.71	2.06
660.895	2.07
661.08	2.05
661.264	1.98
661.449	2.16
661.634	2.04
661.819	2.1
662.004	2.03
662.189	1.96
662.374	1.98
662.559	1.94
662.743	1.84
662.928	1.95
663.113	1.95
663.298	1.91
663.483	1.93
663.667	1.97
663.852	1.9
664.037	2
664.221	1.89
664.406	1.97
664.591	1.91
664.775	1.92
664.96	1.8
665.145	1.87
665.329	1.93
665.514	1.86
665.698	1.8
665.883	1.75
666.068	1.86
666.252	1.84
666.437	1.77
666.621	1.82
666.806	1.85
666.99	1.78
667.174	1.78
667.359	1.86
667.543	1.76
667.728	1.77
667.912	1.64
668.096	1.76
668.281	1.71
668.465	1.79
668.649	1.73
668.834	1.63
669.018	1.76
669.202	1.72
669.387	1.66
669.571	1.69
669.755	1.6
669.939	1.67
670.124	1.67
670.308	1.71
670.492	1.69
670.676	1.64
670.86	1.64
671.044	1.59
671.228	1.67
671.413	1.58
671.597	1.57
671.781	1.6
671.965	1.61
672.149	1.59
672.333	1.59
672.517	1.52
672.701	1.6
672.885	1.55
673.069	1.47
673.253	1.67
673.437	1.51
673.621	1.51
673.804	1.5
673.988	1.55
674.172	1.51
674.356	1.42
674.54	1.48
674.724	1.62
674.908	1.55
675.091	1.58
675.275	1.5
675.459	1.51
675.643	1.57
675.826	1.47
676.01	1.46
676.194	1.47
676.377	1.53
676.561	1.45
676.745	1.39
676.928	1.45
677.112	1.55
677.296	1.43
677.479	1.38
677.663	1.38
677.846	1.5
678.03	1.4
678.213	1.34
678.397	1.41
678.58	1.37
678.764	1.39
678.947	1.33
679.131	1.42
679.314	1.41
679.498	1.38
679.681	1.38
679.865	1.41
680.048	1.37
680.231	1.28
680.415	1.26
680.598	1.32
680.781	1.27
680.965	1.26
681.148	1.28
681.331	1.27
681.514	1.3
681.698	1.26
681.881	1.25
682.064	1.29
682.247	1.32
682.43	1.16
682.614	1.27
682.797	1.28
682.98	1.26
683.163	1.12
683.346	1.2
683.529	1.19
683.712	1.14
683.895	1.25
684.078	1.08
684.261	1.18
684.444	1.22
684.627	1.24
684.81	1.16
684.993	1.17
685.176	1.24
685.359	1.14
685.542	1.1
685.725	1.26
685.908	1.18
686.091	1.06
686.274	1.22
686.457	1.18
686.639	1.16
686.822	1.19
687.005	1.16
687.188	1.18
687.371	1.28
687.553	1.17
687.736	1.17
687.919	1.24
688.102	1.22
688.284	1.13
688.467	1.09
688.65	1.1
688.832	1.03
689.015	1.07
689.197	0.97
689.38	1.15
689.563	1.16
689.745	0.97
689.928	0.96
690.11	1.06
690.293	1.05
690.475	0.95
690.658	1.04
690.84	1.05
691.023	1.04
691.205	0.97
691.388	1.09
691.57	1.11
691.752	1.05
691.935	0.89
692.117	0.94
692.3	1.02
692.482	0.95
692.664	0.9
692.847	0.94
693.029	1.05
693.211	0.98
693.393	0.91
693.576	1
693.758	0.97
693.94	1.01
694.122	0.93
694.304	0.94
694.487	0.85
694.669	0.98
694.851	0.85
695.033	0.87
695.215	0.91
695.397	0.91
695.579	0.89
695.761	0.78
695.943	0.87
696.125	1.01
696.308	0.96
696.49	0.76
696.671	1.06
696.853	0.9
697.035	1.14
697.217	0.87
697.399	1.03
697.581	0.83
697.763	0.88
697.945	0.82
698.127	0.89
698.309	0.96
698.491	0.9
698.672	0.9
698.854	0.99
699.036	0.92
699.218	0.8
699.399	0.91
699.581	0.93
699.763	0.89
699.945	0.75
700.126	0.71
700.308	0.89
700.49	0.86
700.671	0.7
700.853	0.73
701.035	0.8
701.216	0.82
701.398	0.75
701.579	0.8
701.761	0.85
701.943	0.75
702.124	0.74
702.306	0.77
702.487	0.99
702.669	0.8
702.85	0.77
703.031	0.71
703.213	0.87
703.394	0.9
703.576	0.8
703.757	0.91
703.938	0.85
704.12	1.03
704.301	0.71
704.483	0.73
704.664	0.77
704.845	0.9
705.026	0.88
705.208	0.71
705.389	0.79
705.57	0.79
705.751	0.75
705.933	0.78
706.114	0.88
706.295	0.8
706.476	0.65
706.657	0.86
706.838	0.8
707.02	0.75
707.201	0.73
707.382	0.71
707.563	0.82
707.744	0.67
707.925	0.66
708.106	0.63
708.287	0.69
708.468	0.8
708.649	0.68
708.83	0.75
709.011	0.64
709.192	0.79
709.373	0.59
709.554	0.67
709.734	0.74
709.915	0.84
710.096	0.69
710.277	0.54
710.458	0.61
710.639	0.8
710.819	0.53
711	0.62
711.181	0.75
711.362	0.74
711.542	0.7
711.723	0.68
711.904	0.73
712.085	0.75
712.265	0.68
712.446	0.55
712.627	0.59
712.807	0.68
712.988	0.6
713.168	0.47
713.349	0.73
713.53	0.5
713.71	0.57
713.891	0.53
714.071	0.58
714.252	0.64
714.432	0.6
714.613	0.44
714.793	0.59
714.974	0.7
715.154	0.74
715.334	0.6
715.515	0.76
715.695	0.54
715.876	0.52
716.056	0.52
716.236	0.56
716.417	0.59
716.597	0.52
716.777	0.87
716.957	0.56
717.138	0.63
717.318	0.55
717.498	0.53
717.678	0.6
717.859	0.66
718.039	0.55
718.219	0.51
718.399	0.59
718.579	0.55
718.759	0.45
718.939	0.62
719.12	0.61
719.3	0.58
719.48	0.45
719.66	0.38
719.84	0.7
720.02	0.58
720.2	0.55
720.38	0.55
720.56	0.75
720.74	0.5
720.92	0.61
721.1	0.7
721.279	0.67
721.459	0.55
721.639	0.45
721.819	0.59
721.999	0.54
722.179	0.66
722.359	0.49
722.538	0.57
722.718	0.51
722.898	0.5
723.078	0.51
723.257	0.48
723.437	0.58
723.617	0.55
723.797	0.58
723.976	0.53
724.156	0.62
724.336	0.75
724.515	0.7
724.695	0.41
724.874	0.64
725.054	0.53
725.234	0.54
725.413	0.49
725.593	0.53
725.772	0.5
725.952	0.46
726.131	0.48
726.311	0.56
726.49	0.54
726.67	0.44
726.849	0.55
727.028	0.57
727.208	0.52
727.387	0.44
727.567	0.43
727.746	0.51
727.925	0.48
728.105	0.39
728.284	0.38
728.463	0.45
728.643	0.6
728.822	0.44
729.001	0.42
729.18	0.54
729.359	0.65
729.539	0.44
729.718	0.46
729.897	0.64
730.076	0.48
730.255	0.37
730.434	0.48
730.614	0.64
730.793	0.63
730.972	0.51
731.151	0.52
731.33	0.66
731.509	0.58
731.688	0.45
731.867	0.53
732.046	0.36
732.225	0.78
732.404	0.4
732.583	0.35
732.762	0.54
732.941	0.65
733.12	0.56
733.298	0.49
733.477	0.6
733.656	0.48
733.835	0.38
734.014	0.54
734.193	0.57
734.371	0.53
734.55	0.58
734.729	0.39
734.908	0.53
735.086	0.59
735.265	0.58
735.444	0.29
735.623	0.44
735.801	0.42
735.98	0.46
736.159	0.48
736.337	0.61
736.516	0.6
736.694	0.58
736.873	0.47
737.052	0.8
737.23	0.72
737.409	0.43
737.587	0.8
737.766	0.45
737.944	0.54
738.123	0.57
738.301	0.58
738.479	0.59
738.658	0.43
738.836	0.35
739.015	0.52
739.193	0.6
739.371	0.34
739.55	0.46
739.728	0.35
739.906	0.69
740.085	0.76
740.263	0.55
740.441	0.24
740.62	0.88
740.798	0.64
740.976	0.41
741.154	0.32
741.332	0.73
741.511	0.47
741.689	0.45
741.867	0.52
742.045	0.66
742.223	0.51
742.401	0.36
742.579	0.53
742.757	0.6
742.935	0.33
743.114	0.5
743.292	0.49
743.47	0.52
743.648	0.57
743.826	0.52
744.004	0.62
744.181	0.7
744.359	0.5
744.537	0.55
744.715	0.48
744.893	0.49
745.071	0.56
745.249	0.38
745.427	0.32
745.605	0.63
745.782	0.5
745.96	0.47
746.138	0.42
746.316	0.65
746.493	0.49
746.671	0.41
746.849	0.43
747.027	0.63
747.204	0.3
747.382	0.54
747.56	0.28
747.737	0.42
747.915	0.41
748.093	0.5
748.27	0.42
748.448	0.4
748.625	0.18
748.803	0.34
748.98	0.33
749.158	0.53
749.335	0.57
749.513	0.37
749.69	0.45
749.868	0.42
750.045	0.47
750.223	0.44
750.4	0.16
750.578	0.61
750.755	0.48
750.932	0.29
751.11	0.59
751.287	0.21
751.464	0.56
751.642	0.25
751.819	0.43
751.996	0.57
752.173	0.38
752.351	0.25
752.528	0.44
752.705	0.37
752.882	0.4
753.06	0.41
753.237	0.41
753.414	0.69
753.591	0.7
753.768	0.45
753.945	0.33
754.122	0.35
754.299	0.5
754.476	0.27
754.654	0.41
754.831	0.55
755.008	0.53
755.185	0.36
755.362	0.21
755.539	0.47
755.716	0.26
755.892	0.27
756.069	0.31
756.246	0.4
756.423	0.4
756.6	0.62
756.777	0.28
756.954	0.6
757.131	0.35
757.307	0.32
757.484	0.22
757.661	0.39
757.838	0.56
758.015	0.3
758.191	0.51
758.368	0.41
758.545	0.44
758.721	0.39
758.898	0.19
759.075	0.5
759.251	0.41
759.428	0.32
759.605	0.3
759.781	0.37
759.958	0.47
760.134	0.41
760.311	0.22
760.488	0.62
760.664	0.55
760.841	0.39
761.017	0.3
761.194	0.48
761.37	0.57
761.547	0.42
761.723	0.29
761.899	0.59
762.076	0.26
762.252	0.22
762.429	0.3
762.605	0.63
762.781	0.43
762.958	0.56
763.134	0.33
763.31	0.26
763.486	0.57
763.663	0.18
763.839	0.47
764.015	0.14
764.191	0.34
764.368	0.33
764.544	0.27
764.72	0.25
764.896	0.43
765.072	0.37
765.248	0.26
765.425	0.33
765.601	0.43
765.777	0.29
765.953	0.16
766.129	0.26
766.305	0.34
766.481	0.33
766.657	0.49
766.833	0.57
767.009	0.26
767.185	0.29
767.361	0.3
767.537	0.27
767.713	0.45
767.889	0.33
768.065	0.42
768.24	0.26
768.416	0.45
768.592	0.15
768.768	0.26
768.944	0.42
769.12	0.28
769.295	0.37
769.471	0.39
769.647	0.32
769.823	0.49
769.998	0.19
770.174	0.27
770.35	0.74
770.525	0.82
770.701	0.5
770.877	0.23
771.052	0.25
771.228	0.67
771.403	0.47
771.579	0.35
771.755	0.75
771.93	0.34
772.106	0.35
772.281	0.09
772.457	0.49
772.632	0.5
772.808	0.18
772.983	0.24
773.159	0.21
773.334	0.59
773.509	0.46
773.685	0.21
773.86	0.89
774.036	0.64
774.211	0.44
774.386	0.32
774.562	0.33
774.737	0.63
774.912	0.17
775.087	0.49
775.263	0.26
775.438	0.31
775.613	0.36
775.788	0.31
775.964	0.62
776.139	0.79
776.314	0.29
776.489	0.47
776.664	0.59
776.839	0.4
777.014	0.69
777.19	0.56
777.365	0.51
777.54	0.77
777.715	0.33
777.89	0.38
778.065	0.27
778.24	0.31
778.415	0.59
778.59	0.09
778.765	0.52
778.94	0.55
779.115	0.32
779.289	0.29
779.464	0.44
779.639	0.31
779.814	0.09
779.989	0.2
780.164	0.77
780.339	0.42
780.513	0.2
780.688	0.09
780.863	0.54
781.038	0.65
781.212	0.43
781.387	0.36
781.562	0.72
781.737	0.11
781.911	0.59
782.086	0.28
782.261	0.39
782.435	0.72
782.61	0.19
782.784	0.34
782.959	0.71
783.134	0.14
783.308	0.22
783.483	0.32
783.657	0.97
783.832	0.65
784.006	0.19
784.181	0.54
784.355	0.61
784.53	0.27
784.704	0.2
784.878	0.68
785.053	0.73
785.227	0.9
785.402	0.93
785.576	0.38
785.75	0.55
785.925	0.3
786.099	0.5
786.273	0.39
786.448	0.78
786.622	0.61
786.796	0.42
786.97	0.34
787.145	1.38
787.319	0.17
787.493	0.29
787.667	0.05
787.841	0.59
788.015	0.86
788.19	0.34
788.364	0.39
788.538	0.74
788.712	0.58
788.886	0.33
789.06	0.48
789.234	0.75
789.408	0.34
789.582	0.34
789.756	0.14
789.93	0.35
790.104	0.35
790.278	0.38
790.452	0.24
790.626	0.41
790.8	0.23
790.973	0.72
791.147	0.91
791.321	0.76
791.495	0.87
791.669	0.4
791.843	0.55
792.016	0.45
792.19	1.03
792.364	0.28
792.538	1.26
792.711	0.83
792.885	0.31
793.059	0.19
793.233	-0.18
793.406	0.94
793.58	0.47
793.754	0.59
793.927	0.19
794.101	0.88
794.274	0.53
794.448	0.75
794.622	-0.01
794.795	0.99
794.969	0.5
795.142	0.82
795.316	0.55
795.489	0.4
795.663	0.93
795.836	0.44
796.009	0.15
796.183	0.98
796.356	0.62
796.53	0.6
796.703	0.42
796.876	1.29
797.05	0.56
797.223	0.43
797.396	0.57
797.57	0.51
797.743	1.07
797.916	0.18
798.09	0.49
798.263	0.95
798.436	0.72
798.609	0.41
798.782	0.73
798.956	0.69
799.129	0.62
799.302	0.31
799.475	0.36
799.648	0.43
799.821	0.13
799.994	0.41
800.167	0.01
800.34	0.57
800.514	0.71
800.687	0.34
800.86	0.22
801.033	0.67
801.206	0.76
801.379	0.32
801.551	0.86
801.724	1.05
801.897	1.11
802.07	0.48
802.243	-0.02
802.416	0.61
802.589	0.34
802.762	0.85
802.935	0.54
803.107	0.77
803.28	0.96
803.453	0.54
803.626	0.6
803.798	0.99
803.971	0.72
804.144	0.61
804.317	0.76
804.489	1.03
804.662	0.28
804.835	0.51
805.007	0.49
805.18	1.42
805.353	0.55
805.525	0.18
805.698	0.39
805.87	0.85
806.043	0.86
806.215	-0.03
806.388	0.2
806.56	0.74
806.733	1.02
806.905	0.55
807.078	0.41
807.25	0.21
807.423	1.12
807.595	0.52
807.768	0.68
807.94	0.89
808.112	0.49
808.285	0.26
808.457	0.35
808.629	0.68
808.802	1.22
808.974	0.6
809.146	0.48
809.318	0.36
809.491	0.92
809.663	0.71
809.835	0.02
810.007	0.46
810.18	0.76
810.352	0.11
810.524	0.25
810.696	1.25
810.868	1.49
811.04	0.28
811.212	0.68
811.384	0.87
811.556	0.81
811.728	0.28
811.901	1.57
812.073	0.46
812.245	1.03
812.417	0.72
812.589	-0.21
812.76	0.76
812.932	0.99
813.104	0.95
813.276	0.58
813.448	0.97
813.62	0.78
813.792	0.46
813.964	0.5
814.136	0.76
814.307	0.8
814.479	0.42
814.651	0.65
814.823	1.65
814.995	0.74
815.166	0.9
815.338	0.36
815.51	0.07
815.681	1.75
815.853	1.22
816.025	0.5
816.196	1.66
816.368	1.42
816.54	0.16
816.711	0.2
816.883	1.4
817.054	1.93
817.226	-0.11
817.398	0.93
817.569	0.89
817.741	0.78
817.912	0.81
818.084	0.31
818.255	1.36
818.426	0.45
818.598	0.68
818.769	0.3
818.941	0.79
819.112	1.81
819.283	0.64
819.455	0.04
819.626	0.73
819.798	1.42
819.969	0.64
820.14	0.4
820.311	0.64
820.483	0.92
820.654	0.9
820.825	0.78
820.996	0.84
821.168	0.35
821.339	0.49
821.51	-0.29
821.681	0.38
821.852	1.11
822.023	0.32
822.195	-0.1
822.366	1.68
822.537	0.61
822.708	1.11
822.879	0.79
823.05	1.39
823.221	1.01
823.392	1.22
823.563	0.93
823.734	0.88
823.905	1.22
824.076	0.14
824.247	0.62
824.418	0.91
824.589	1.28
824.759	0.61
824.93	0.79
825.101	0.51
825.272	1.83
825.443	1.35
825.614	1.98
825.784	0.13
825.955	2.69
826.126	1.42
826.297	1.04
826.467	2.52
826.638	2.16
826.809	0.01
826.98	0.37
827.15	1.08
827.321	0.89
827.492	1.49
827.662	0.53
827.833	2.1
828.003	1.8
828.174	0.12
828.345	-0.17
828.515	1.92
828.686	1.21
828.856	0.82
829.027	1.23
829.197	1.44
829.368	1.29
829.538	0.36
829.709	0.61
829.879	0.46
830.049	1.28
830.22	0.58
830.39	0.41
830.56	1.49
830.731	1.3
830.901	0.57
831.072	0.33
831.242	1.44
831.412	1.25
831.582	0.6
831.753	0.01
831.923	1.85
832.093	1.72
832.263	1.44
832.434	0.31
832.604	0.63
832.774	2.21
832.944	0.67
833.114	0.04
833.284	2.18
833.454	0.52
833.624	0.5
833.795	0.85
833.965	1.89
834.135	2.56
834.305	-0.41
834.475	-0.32
834.645	1.21
834.815	1.11
834.985	0.55
835.155	0.46
835.325	1.27
835.494	1.17
835.664	-0.18
835.834	0.88
836.004	1.08
836.174	0.88
836.344	0.81
836.514	-0.09
836.684	0.73
836.853	1.15
837.023	1.4
837.193	0.3
837.363	1.86
837.532	1.92
837.702	1.16
837.872	0.24
838.041	2.29
838.211	3.19
838.381	0.02
838.55	1.22
838.72	4.21
838.89	2.69
839.059	0.18
839.229	1.01
839.398	3.05
839.568	1.04
839.738	0.66
839.907	2.55
840.077	1.32
840.246	0.53
840.416	0.12
840.585	0.35
840.755	2.68
840.924	2.13
841.093	0.34
841.263	0.41
841.432	1.48
841.602	0.52
841.771	0.79
841.94	0.66
842.11	4.24
842.279	2.7
842.448	0.24
842.617	0.65
842.787	2.33
842.956	0.63
843.125	1.04
843.294	0.74
843.464	2.89
843.633	1.88
843.802	-0.23
843.971	0.65
844.14	1.84
844.309	2.19
844.479	-1.74
844.648	0.02
844.817	1.97
844.986	1.12
845.155	0.95
845.324	0.42
845.493	1.22
845.662	1
845.831	2.84
846	2.86
846.169	0.81
846.338	2.12
846.507	1.38
846.676	0.32
846.844	0.8
847.013	2.39
847.182	1.3
847.351	0.45
847.52	1.09
847.689	2.29
847.858	1.21
848.026	0.33
848.195	1.55
848.364	0.77
848.533	0.52
848.701	-0.06
848.87	1.33
849.039	3.45
849.207	2.33
849.376	3.38
849.545	3.09
849.713	1.3
849.882	0.6
850.051	1.11
850.219	1.52
850.388	2.96
850.556	0.08
850.725	1.09
850.893	1.77
851.062	0.97
851.23	2.73
851.399	-0.35
851.567	1.34
851.736	0.97
851.904	-0.13
852.073	1.2
852.241	2.61
852.41	1.86
852.578	1.21
852.746	-0.22
852.915	2.49
853.083	1.44
853.251	-0.61
853.42	1.39
853.588	2.62
853.756	2.4
853.924	1.12
854.093	2.3
854.261	1.7
854.429	-0.16
854.597	0.74
854.765	0.02
854.934	3.12
855.102	2.84
855.27	1.63
855.438	3
855.606	4.43
855.774	3.19
855.942	-0.53
856.11	-0.63
856.278	1.17
856.446	2.68
856.614	1.9
856.782	0.43
856.95	2.72
857.118	2.73
857.286	3.06
857.454	0.74
857.622	2.74
857.79	1.93
857.958	0.38
858.126	0.85
858.294	-0.56
858.462	1.52
858.629	-0.01
858.797	0.13
858.965	3.02
859.133	2.24
859.301	1.43
859.468	1.25
859.636	1.82
859.804	5.97
859.971	1.45
860.139	0.66
860.307	3.16
860.474	0.94
860.642	1.61
860.81	1.05
860.977	2.01
861.145	3.45
861.313	0.7
861.48	1.94
861.648	2.53
861.815	1.08
861.983	-0.89
862.15	0.99
862.318	4.29
862.485	3.25
862.653	0.16
862.82	0.24
862.988	4.06
863.155	3.22
863.322	0.9
863.49	1.1
863.657	1.59
863.824	4.76
863.992	2.94
864.159	1.84
864.326	4.27
864.494	1.52
864.661	3.69
864.828	0.01
864.996	3.35
865.163	4.92
865.33	0.4
865.497	-0.86
865.664	-0.59
865.832	-0.81
865.999	1.67
866.166	-0.18
866.333	0.63
866.5	1.5
866.667	2.04
866.834	2.92
867.001	3.74
867.168	-1.18
867.335	1.1
867.502	-0.52
867.669	1.33
867.836	6.08
868.003	1.29
868.17	5.28
868.337	2.39
868.504	6.29
868.671	-1.68
868.838	1.71
869.005	3.72
869.172	4.35
869.339	1.22
869.505	1.42
869.672	1.83
869.839	5.68
870.006	2.93
870.173	-0.09
870.339	2.33
870.506	6.33
870.673	0.24
870.84	3.27
871.006	2.58
871.173	2.23
871.34	1.01
871.506	0.29
871.673	3.8
871.839	-0.31
872.006	2.65
872.173	0.74
872.339	3.56
872.506	2.55
872.672	1.78
872.839	0.53
873.005	3.1
873.172	5.22
873.338	3.59
873.505	0.55
873.671	3.5
873.838	3.46
874.004	-0.7
874.171	0.91
874.337	3
874.503	4.31
874.67	1.65
874.836	2.22
875.002	5.46
875.169	3.67
875.335	3.24
875.501	0.98
875.668	3.52
875.834	1.47
876	1.94
876.166	4.33
876.332	3.66
876.499	7.11
876.665	1.16
876.831	1.35
876.997	6.9
877.163	4.02
877.329	0.9
877.495	2.29
877.662	4.07
877.828	3.61
877.994	2.01
878.16	-0.04
878.326	2.12
878.492	3.96
878.658	0.72
878.824	2.62
878.99	3.66
879.156	2.27
879.322	4.05
879.487	2.45
879.653	2.82
879.819	2.42
879.985	1.91
880.151	2.37
880.317	2.95
880.483	1.53
880.648	3.64
880.814	-0.06
880.98	4.07
881.146	-1.69
881.312	0.36
881.477	2.55
881.643	2.03
881.809	3.43
881.974	4.78
882.14	-2.54
882.306	3.11
882.471	7.16
882.637	0.73
882.803	4.33
882.968	5.16
883.134	6.25
883.299	1.66
883.465	2.11
883.63	4.33
883.796	3.8
883.961	2.41
884.127	2.62
884.292	-2.19
884.458	1.46
884.623	1.46
