Data from Apollo_Calib_20240827__AbsoluteIrradiance__847__13-16-01-231.txt Node

Date: Wed Aug 28 13:16:01 BST 2024
User: biology
Spectrometer: FLMT08252
Trigger mode: 0
Integration Time (sec): 5.000000E-1
Scans to average: 5
Electric dark correction enabled: true
Nonlinearity correction enabled: false
Boxcar width: 0
XAxis mode: Wavelengths
Number of Pixels in Spectrum: 3648
>>>>>Begin Spectral Data<<<<<
179.588	-0
179.809	-0
180.03	-0
180.251	-0
180.473	-0
180.694	0
180.915	0
181.136	-0
181.357	0
181.578	-0
181.799	0
182.02	-0
182.241	0
182.462	-0
182.683	0
182.904	-0
183.125	-0
183.346	0
183.567	0
183.788	0
184.009	0
184.23	0
184.451	0
184.672	0
184.892	0
185.113	0
185.334	0
185.555	0
185.776	0
185.996	0
186.217	0
186.438	0
186.659	0
186.879	0
187.1	0
187.321	0
187.541	0
187.762	0
187.983	0
188.203	0
188.424	0
188.644	0
188.865	0
189.086	0
189.306	0
189.527	0
189.747	0
189.968	0
190.188	0
190.409	0
190.629	0
190.849	0
191.07	0
191.29	0
191.511	0
191.731	0
191.951	0
192.172	0
192.392	0
192.612	0
192.833	0
193.053	0
193.273	0
193.493	0
193.714	0
193.934	0
194.154	0
194.374	0
194.594	0
194.815	0
195.035	0
195.255	0
195.475	0
195.695	0
195.915	0
196.135	0
196.355	0
196.575	0
196.795	0
197.015	0
197.235	0
197.455	0
197.675	0
197.895	0
198.115	0
198.335	0
198.555	0
198.775	0
198.995	0
199.214	0
199.434	0
199.654	0
199.874	0
200.094	4.25
200.313	2.08
200.533	1.27
200.753	1.49
200.973	3.84
201.192	3
201.412	1.19
201.632	1.11
201.851	3.77
202.071	1.53
202.291	1.24
202.51	1.44
202.73	3.28
202.95	1.39
203.169	0.95
203.389	1.92
203.608	1.94
203.828	1.97
204.047	1.17
204.267	2.26
204.486	2.34
204.706	2.18
204.925	1.38
205.145	1.32
205.364	1.92
205.583	2.57
205.803	1.32
206.022	1.19
206.242	1.81
206.461	1.72
206.68	1.22
206.9	1.29
207.119	2.28
207.338	1.87
207.557	0.98
207.777	1.12
207.996	1.54
208.215	2.13
208.434	1.06
208.654	0.92
208.873	1.66
209.092	2.12
209.311	1.03
209.53	0.92
209.749	1.14
209.968	0.95
210.187	0.81
210.407	0.48
210.626	1.27
210.845	1.43
211.064	1.14
211.283	0.7
211.502	1.47
211.721	1.05
211.94	0.94
212.159	1.19
212.377	1.51
212.596	1.55
212.815	1.25
213.034	1.13
213.253	1.36
213.472	1.4
213.691	0.99
213.91	0.72
214.128	0.57
214.347	1.53
214.566	0.32
214.785	0.39
215.003	1.31
215.222	1.35
215.441	0.84
215.66	0.44
215.878	1
216.097	1.27
216.316	0.76
216.534	0.72
216.753	1
216.972	0.93
217.19	0.73
217.409	0.56
217.627	0.71
217.846	0.88
218.064	0.83
218.283	0.46
218.501	1.36
218.72	1.2
218.938	0.38
219.157	0.64
219.375	1.05
219.594	1.11
219.812	0.5
220.031	0.48
220.249	1.26
220.467	1.16
220.686	0.48
220.904	0.49
221.122	0.78
221.341	1.38
221.559	0.78
221.777	0.37
221.995	0.67
222.214	0.95
222.432	0.7
222.65	0.97
222.868	0.76
223.086	0.85
223.305	0.81
223.523	0.6
223.741	1.21
223.959	0.57
224.177	0.31
224.395	0.58
224.613	0.91
224.831	0.84
225.049	0.45
225.267	0.63
225.485	0.78
225.703	0.42
225.921	0.63
226.139	0.42
226.357	0.73
226.575	1.02
226.793	0.53
227.011	1.58
227.229	0.83
227.447	0.93
227.665	0.39
227.883	0.3
228.1	0.69
228.318	0.76
228.536	0.29
228.754	0.38
228.972	0.69
229.189	0.77
229.407	0.46
229.625	0.54
229.843	0.87
230.06	0.71
230.278	0.43
230.496	0.6
230.713	0.68
230.931	0.87
231.149	0.46
231.366	0.38
231.584	0.66
231.801	1.02
232.019	0.39
232.236	0.29
232.454	0.46
232.671	0.53
232.889	0.53
233.106	0.3
233.324	0.49
233.541	0.51
233.759	0.51
233.976	0.41
234.194	0.56
234.411	0.64
234.628	0.29
234.846	0.49
235.063	0.66
235.28	0.57
235.498	0.47
235.715	0.29
235.932	0.6
236.149	0.58
236.367	0.48
236.584	0.51
236.801	0.53
237.018	0.73
237.236	0.42
237.453	0.29
237.67	0.65
237.887	0.42
238.104	0.47
238.321	0.4
238.538	0.39
238.755	0.7
238.973	0.34
239.19	0.48
239.407	0.6
239.624	0.45
239.841	0.43
240.058	0.31
240.275	0.49
240.492	0.52
240.709	0.37
240.925	0.27
241.142	0.45
241.359	0.32
241.576	0.25
241.793	0.29
242.01	0.4
242.227	0.62
242.444	0.51
242.66	0.61
242.877	0.46
243.094	0.45
243.311	0.45
243.527	0.4
243.744	0.53
243.961	0.58
244.178	0.33
244.394	0.41
244.611	0.46
244.828	0.71
245.044	0.35
245.261	0.34
245.477	0.47
245.694	0.58
245.911	0.31
246.127	0.45
246.344	0.65
246.56	0.59
246.777	0.32
246.993	0.38
247.21	0.5
247.426	0.48
247.643	0.32
247.859	0.26
248.076	0.32
248.292	0.69
248.508	0.35
248.725	0.44
248.941	0.49
249.157	0.63
249.374	0.4
249.59	0.38
249.806	0.36
250.023	0.62
250.239	0.33
250.455	0.33
250.671	0.43
250.888	0.44
251.104	0.51
251.32	0.25
251.536	0.39
251.752	0.37
251.969	0.33
252.185	0.34
252.401	0.63
252.617	0.33
252.833	0.34
253.049	0.42
253.265	0.45
253.481	0.52
253.697	0.33
253.913	0.29
254.129	0.44
254.345	0.37
254.561	0.27
254.777	0.37
254.993	0.49
255.209	0.43
255.425	0.3
255.641	0.32
255.857	0.46
256.073	0.47
256.288	0.25
256.504	0.23
256.72	0.43
256.936	0.57
257.152	0.33
257.367	0.23
257.583	0.4
257.799	0.39
258.015	0.35
258.23	0.34
258.446	0.55
258.662	0.3
258.877	0.3
259.093	0.24
259.309	0.42
259.524	0.39
259.74	0.32
259.955	0.18
260.171	0.41
260.387	0.43
260.602	0.37
260.818	0.35
261.033	0.25
261.249	0.38
261.464	0.27
261.68	0.29
261.895	0.4
262.11	0.51
262.326	0.33
262.541	0.29
262.757	0.49
262.972	0.43
263.187	0.37
263.403	0.33
263.618	0.53
263.833	0.42
264.049	0.29
264.264	0.31
264.479	0.37
264.694	0.56
264.91	0.21
265.125	0.31
265.34	0.4
265.555	0.61
265.77	0.43
265.986	0.28
266.201	0.38
266.416	0.44
266.631	0.33
266.846	0.32
267.061	0.44
267.276	0.47
267.491	0.16
267.706	0.38
267.921	0.37
268.136	0.34
268.351	0.35
268.566	0.21
268.781	0.43
268.996	0.42
269.211	0.33
269.426	0.26
269.641	0.36
269.856	0.44
270.071	0.21
270.285	0.21
270.5	0.41
270.715	0.37
270.93	0.32
271.145	0.31
271.359	0.48
271.574	0.36
271.789	0.38
272.004	0.27
272.218	0.26
272.433	0.41
272.648	0.32
272.862	0.38
273.077	0.35
273.292	0.34
273.506	0.24
273.721	0.26
273.936	0.33
274.15	0.43
274.365	0.24
274.579	0.3
274.794	0.38
275.008	0.41
275.223	0.21
275.437	0.34
275.652	0.41
275.866	0.48
276.081	0.29
276.295	0.39
276.509	0.34
276.724	0.3
276.938	0.36
277.153	0.29
277.367	0.36
277.581	0.26
277.796	0.27
278.01	0.23
278.224	0.4
278.438	0.47
278.653	0.24
278.867	0.2
279.081	0.22
279.295	0.27
279.51	0.28
279.724	0.18
279.938	0.43
280.152	0.31
280.366	0.29
280.58	0.33
280.794	0.44
281.008	0.34
281.222	0.33
281.437	0.41
281.651	0.29
281.865	0.45
282.079	0.27
282.293	0.16
282.507	0.22
282.721	0.29
282.935	0.24
283.148	0.21
283.362	0.21
283.576	0.25
283.79	0.27
284.004	0.21
284.218	0.4
284.432	0.26
284.646	0.26
284.859	0.25
285.073	0.28
285.287	0.37
285.501	0.24
285.714	0.25
285.928	0.33
286.142	0.33
286.356	0.22
286.569	0.25
286.783	0.42
286.997	0.36
287.21	0.34
287.424	0.2
287.637	0.32
287.851	0.24
288.065	0.38
288.278	0.25
288.492	0.3
288.705	0.25
288.919	0.3
289.132	0.22
289.346	0.36
289.559	0.26
289.773	0.21
289.986	0.25
290.2	0.28
290.413	0.34
290.626	0.19
290.84	0.23
291.053	0.29
291.267	0.38
291.48	0.26
291.693	0.31
291.906	0.22
292.12	0.29
292.333	0.21
292.546	0.25
292.76	0.37
292.973	0.29
293.186	0.28
293.399	0.18
293.612	0.3
293.826	0.27
294.039	0.29
294.252	0.24
294.465	0.37
294.678	0.26
294.891	0.25
295.104	0.17
295.317	0.24
295.53	0.34
295.743	0.3
295.956	0.18
296.169	0.37
296.382	0.27
296.595	0.23
296.808	0.17
297.021	0.39
297.234	0.32
297.447	0.26
297.66	0.27
297.873	0.33
298.086	0.3
298.299	0.18
298.511	0.16
298.724	0.23
298.937	0.23
299.15	0.2
299.363	0.23
299.575	0.32
299.788	0.31
300.001	0.25
300.213	0.2
300.426	0.26
300.639	0.24
300.852	0.18
301.064	0.31
301.277	0.37
301.489	0.3
301.702	0.29
301.915	0.25
302.127	0.29
302.34	0.28
302.552	0.3
302.765	0.23
302.977	0.27
303.19	0.17
303.402	0.23
303.615	0.24
303.827	0.24
304.04	0.24
304.252	0.33
304.464	0.2
304.677	0.38
304.889	0.31
305.102	0.26
305.314	0.21
305.526	0.28
305.739	0.28
305.951	0.21
306.163	0.21
306.375	0.34
306.588	0.25
306.8	0.18
307.012	0.2
307.224	0.29
307.436	0.34
307.649	0.13
307.861	0.27
308.073	0.28
308.285	0.24
308.497	0.16
308.709	0.21
308.921	0.29
309.133	0.32
309.346	0.24
309.558	0.25
309.77	0.29
309.982	0.31
310.194	0.25
310.406	0.17
310.617	0.37
310.829	0.27
311.041	0.31
311.253	0.19
311.465	0.26
311.677	0.29
311.889	0.3
312.101	0.15
312.313	0.31
312.524	0.31
312.736	0.22
312.948	0.21
313.16	0.34
313.372	0.31
313.583	0.29
313.795	0.21
314.007	0.19
314.218	0.32
314.43	0.25
314.642	0.22
314.853	0.2
315.065	0.3
315.277	0.24
315.488	0.26
315.7	0.34
315.912	0.35
316.123	0.26
316.335	0.21
316.546	0.38
316.758	0.22
316.969	0.19
317.181	0.23
317.392	0.23
317.604	0.32
317.815	0.21
318.026	0.2
318.238	0.24
318.449	0.32
318.661	0.2
318.872	0.21
319.083	0.22
319.295	0.32
319.506	0.25
319.717	0.25
319.929	0.28
320.14	0.28
320.351	0.28
320.562	0.17
320.774	0.29
320.985	0.27
321.196	0.19
321.407	0.14
321.618	0.37
321.829	0.28
322.041	0.28
322.252	0.2
322.463	0.29
322.674	0.27
322.885	0.2
323.096	0.22
323.307	0.29
323.518	0.24
323.729	0.23
323.94	0.19
324.151	0.22
324.362	0.26
324.573	0.25
324.784	0.24
324.995	0.32
325.206	0.28
325.417	0.22
325.628	0.21
325.838	0.24
326.049	0.25
326.26	0.29
326.471	0.18
326.682	0.29
326.892	0.25
327.103	0.16
327.314	0.23
327.525	0.32
327.735	0.27
327.946	0.23
328.157	0.22
328.368	0.28
328.578	0.21
328.789	0.3
328.999	0.24
329.21	0.24
329.421	0.32
329.631	0.2
329.842	0.16
330.052	0.28
330.263	0.31
330.473	0.23
330.684	0.2
330.894	0.25
331.105	0.27
331.315	0.26
331.526	0.18
331.736	0.35
331.947	0.29
332.157	0.25
332.367	0.18
332.578	0.29
332.788	0.38
332.999	0.29
333.209	0.25
333.419	0.15
333.629	0.25
333.84	0.26
334.05	0.26
334.26	0.32
334.47	0.24
334.681	0.28
334.891	0.23
335.101	0.29
335.311	0.41
335.521	0.23
335.732	0.22
335.942	0.33
336.152	0.25
336.362	0.29
336.572	0.27
336.782	0.31
336.992	0.22
337.202	0.21
337.412	0.25
337.622	0.26
337.832	0.22
338.042	0.25
338.252	0.19
338.462	0.25
338.672	0.3
338.882	0.22
339.092	0.24
339.302	0.36
339.511	0.24
339.721	0.24
339.931	0.16
340.141	0.32
340.351	0.29
340.561	0.28
340.77	0.27
340.98	0.25
341.19	0.27
341.4	0.25
341.609	0.21
341.819	0.22
342.029	0.17
342.238	0.31
342.448	0.19
342.658	0.31
342.867	0.24
343.077	0.27
343.286	0.24
343.496	0.27
343.706	0.31
343.915	0.21
344.125	0.25
344.334	0.27
344.544	0.2
344.753	0.21
344.963	0.21
345.172	0.21
345.381	0.2
345.591	0.16
345.8	0.27
346.01	0.31
346.219	0.3
346.428	0.14
346.638	0.23
346.847	0.24
347.056	0.35
347.266	0.22
347.475	0.23
347.684	0.28
347.893	0.27
348.103	0.31
348.312	0.25
348.521	0.29
348.73	0.28
348.94	0.23
349.149	0.21
349.358	0.26
349.567	0.22
349.776	0.17
349.985	0.18
350.194	0.28
350.403	0.24
350.612	0.14
350.821	0.22
351.03	0.26
351.239	0.22
351.448	0.28
351.657	0.2
351.866	0.34
352.075	0.26
352.284	0.24
352.493	0.19
352.702	0.3
352.911	0.28
353.12	0.22
353.329	0.22
353.538	0.26
353.746	0.26
353.955	0.19
354.164	0.25
354.373	0.21
354.582	0.27
354.79	0.2
354.999	0.28
355.208	0.24
355.416	0.34
355.625	0.18
355.834	0.19
356.042	0.26
356.251	0.23
356.46	0.21
356.668	0.25
356.877	0.38
357.085	0.3
357.294	0.15
357.503	0.3
357.711	0.22
357.92	0.4
358.128	0.28
358.337	0.21
358.545	0.26
358.754	0.22
358.962	0.27
359.17	0.19
359.379	0.22
359.587	0.28
359.796	0.24
360.004	0.3
360.212	0.28
360.421	0.3
360.629	0.25
360.837	0.23
361.046	0.32
361.254	0.4
361.462	0.24
361.67	0.2
361.879	0.28
362.087	0.3
362.295	0.24
362.503	0.24
362.711	0.19
362.92	0.19
363.128	0.19
363.336	0.18
363.544	0.16
363.752	0.24
363.96	0.21
364.168	0.19
364.376	0.28
364.584	0.25
364.792	0.31
365	0.24
365.208	0.25
365.416	0.29
365.624	0.27
365.832	0.21
366.04	0.33
366.248	0.3
366.456	0.28
366.664	0.23
366.872	0.23
367.079	0.27
367.287	0.27
367.495	0.27
367.703	0.24
367.911	0.21
368.118	0.27
368.326	0.24
368.534	0.21
368.742	0.32
368.949	0.22
369.157	0.2
369.365	0.28
369.572	0.19
369.78	0.19
369.988	0.3
370.195	0.27
370.403	0.33
370.61	0.22
370.818	0.26
371.026	0.35
371.233	0.2
371.441	0.26
371.648	0.2
371.856	0.23
372.063	0.25
372.271	0.24
372.478	0.24
372.685	0.21
372.893	0.3
373.1	0.24
373.308	0.24
373.515	0.38
373.722	0.33
373.93	0.21
374.137	0.27
374.344	0.35
374.552	0.31
374.759	0.27
374.966	0.23
375.173	0.21
375.381	0.32
375.588	0.23
375.795	0.16
376.002	0.25
376.209	0.23
376.417	0.23
376.624	0.25
376.831	0.29
377.038	0.24
377.245	0.17
377.452	0.21
377.659	0.25
377.866	0.25
378.073	0.26
378.28	0.26
378.487	0.33
378.694	0.33
378.901	0.24
379.108	0.26
379.315	0.3
379.522	0.38
379.729	0.3
379.936	0.22
380.143	0.22
380.35	0.26
380.557	0.28
380.763	0.24
380.97	0.26
381.177	0.26
381.384	0.29
381.591	0.22
381.797	0.28
382.004	0.31
382.211	0.33
382.418	0.22
382.624	0.32
382.831	0.34
383.038	0.27
383.244	0.31
383.451	0.26
383.658	0.27
383.864	0.25
384.071	0.23
384.277	0.31
384.484	0.24
384.69	0.36
384.897	0.23
385.103	0.25
385.31	0.21
385.516	0.23
385.723	0.22
385.929	0.28
386.136	0.26
386.342	0.3
386.549	0.25
386.755	0.34
386.961	0.29
387.168	0.28
387.374	0.27
387.58	0.3
387.787	0.26
387.993	0.27
388.199	0.31
388.406	0.24
388.612	0.27
388.818	0.25
389.024	0.18
389.231	0.26
389.437	0.35
389.643	0.26
389.849	0.29
390.055	0.31
390.261	0.31
390.467	0.34
390.674	0.24
390.88	0.29
391.086	0.37
391.292	0.25
391.498	0.3
391.704	0.36
391.91	0.28
392.116	0.28
392.322	0.22
392.528	0.3
392.734	0.27
392.94	0.29
393.146	0.29
393.352	0.31
393.557	0.28
393.763	0.29
393.969	0.33
394.175	0.28
394.381	0.3
394.587	0.24
394.792	0.29
394.998	0.35
395.204	0.36
395.41	0.28
395.615	0.3
395.821	0.35
396.027	0.38
396.233	0.28
396.438	0.32
396.644	0.38
396.85	0.34
397.055	0.32
397.261	0.35
397.466	0.43
397.672	0.36
397.878	0.37
398.083	0.35
398.289	0.29
398.494	0.38
398.7	0.36
398.905	0.21
399.111	0.44
399.316	0.29
399.522	0.35
399.727	0.35
399.932	0.32
400.138	0.28
400.343	0.36
400.549	0.3
400.754	0.33
400.959	0.37
401.165	0.35
401.37	0.37
401.575	0.45
401.78	0.36
401.986	0.29
402.191	0.34
402.396	0.36
402.601	0.38
402.807	0.39
403.012	0.37
403.217	0.46
403.422	0.44
403.627	0.45
403.832	0.4
404.037	0.48
404.243	0.43
404.448	0.41
404.653	0.37
404.858	0.39
405.063	0.44
405.268	0.33
405.473	0.41
405.678	0.41
405.883	0.66
406.088	0.51
406.293	0.41
406.498	0.43
406.703	0.53
406.907	0.48
407.112	0.39
407.317	0.55
407.522	0.58
407.727	0.48
407.932	0.52
408.136	0.65
408.341	0.49
408.546	0.62
408.751	0.57
408.956	0.52
409.16	0.66
409.365	0.62
409.57	0.6
409.774	0.63
409.979	0.65
410.184	0.67
410.388	0.62
410.593	0.71
410.798	0.73
411.002	0.7
411.207	0.84
411.411	0.78
411.616	0.75
411.82	0.83
412.025	0.82
412.229	0.82
412.434	0.97
412.638	0.87
412.843	0.88
413.047	0.97
413.252	0.96
413.456	0.95
413.66	0.99
413.865	1.01
414.069	1.16
414.273	1.03
414.478	1.06
414.682	1.16
414.886	1.19
415.091	1.14
415.295	1.15
415.499	1.33
415.703	1.37
415.908	1.44
416.112	1.35
416.316	1.54
416.52	1.5
416.724	1.52
416.929	1.56
417.133	1.82
417.337	1.66
417.541	1.72
417.745	1.8
417.949	1.96
418.153	1.96
418.357	1.97
418.561	2.19
418.765	2.13
418.969	2.36
419.173	2.3
419.377	2.35
419.581	2.64
419.785	2.59
419.989	2.51
420.193	2.76
420.397	2.85
420.601	2.95
420.804	3.03
421.008	2.95
421.212	3.19
421.416	3.13
421.62	3.17
421.823	3.25
422.027	3.46
422.231	3.4
422.435	3.42
422.638	3.53
422.842	3.59
423.046	3.63
423.249	3.86
423.453	3.89
423.657	3.98
423.86	4.06
424.064	4.19
424.268	4.33
424.471	4.37
424.675	4.6
424.878	4.64
425.082	4.73
425.285	5.05
425.489	4.94
425.692	5.14
425.896	5.04
426.099	5.27
426.303	5.42
426.506	5.5
426.71	5.88
426.913	6.07
427.116	6.12
427.32	6.14
427.523	6.24
427.726	6.5
427.93	6.63
428.133	6.97
428.336	7.06
428.54	7.26
428.743	7.44
428.946	7.63
429.149	7.75
429.353	7.75
429.556	7.86
429.759	8.02
429.962	7.86
430.165	8.23
430.368	7.78
430.571	7.8
430.775	7.96
430.978	7.88
431.181	7.99
431.384	8.12
431.587	8.18
431.79	8.55
431.993	8.53
432.196	8.74
432.399	9.15
432.602	9.28
432.805	9.4
433.008	9.94
433.211	9.74
433.414	10.03
433.616	10.15
433.819	10.13
434.022	10.31
434.225	10.39
434.428	10.54
434.631	10.91
434.833	10.67
435.036	10.95
435.239	11.2
435.442	11.09
435.645	11.29
435.847	11.45
436.05	11.71
436.253	11.91
436.455	12
436.658	11.95
436.861	12.12
437.063	12.32
437.266	12.32
437.468	12.56
437.671	12.92
437.874	13.03
438.076	12.76
438.279	13.21
438.481	13.33
438.684	13.97
438.886	13.64
439.089	13.9
439.291	13.95
439.494	14.38
439.696	14.49
439.899	15.11
440.101	15.3
440.303	15.61
440.506	16.39
440.708	15.9
440.91	16.28
441.113	16.48
441.315	16.78
441.517	16.64
441.72	17.01
441.922	16.59
442.124	16.5
442.326	16.92
442.529	17.23
442.731	17.21
442.933	17.6
443.135	17.24
443.337	17.19
443.539	17.77
443.742	17.58
443.944	18.11
444.146	17.78
444.348	17.75
444.55	17.67
444.752	17.95
444.954	17.81
445.156	17.85
445.358	18.26
445.56	18.54
445.762	18.38
445.964	18.65
446.166	18.41
446.368	18.43
446.57	18.53
446.772	18.1
446.974	17.87
447.175	18.05
447.377	17.88
447.579	18.25
447.781	17.91
447.983	17.66
448.184	17.22
448.386	17.7
448.588	17.12
448.79	17.1
448.991	17.29
449.193	17.5
449.395	16.76
449.597	16.48
449.798	16.46
450	16.02
450.202	15.74
450.403	15.74
450.605	15.64
450.806	15.33
451.008	15.24
451.21	15.03
451.411	14.56
451.613	13.73
451.814	14.17
452.016	14.02
452.217	13.4
452.419	13.39
452.62	12.92
452.821	12.7
453.023	12.64
453.224	12.24
453.426	12.02
453.627	11.06
453.828	11.32
454.03	11.44
454.231	11.37
454.432	11.12
454.634	10.94
454.835	10.56
455.036	10.51
455.238	10.18
455.439	9.91
455.64	9.55
455.841	9.45
456.042	9.61
456.244	9.3
456.445	9.05
456.646	8.69
456.847	8.62
457.048	8.47
457.249	8.53
457.45	8.26
457.651	7.78
457.852	7.63
458.054	7.3
458.255	7.27
458.456	7.34
458.657	7.3
458.858	6.79
459.058	6.74
459.259	6.85
459.46	6.49
459.661	6.44
459.862	6.47
460.063	6.43
460.264	6.36
460.465	6
460.666	6.16
460.866	5.84
461.067	5.63
461.268	5.61
461.469	5.53
461.67	5.44
461.87	5.28
462.071	5.23
462.272	5.22
462.473	5.12
462.673	5.29
462.874	5.16
463.075	5.08
463.275	5.16
463.476	5.2
463.676	5.18
463.877	4.99
464.078	4.98
464.278	5.03
464.479	4.93
464.679	4.8
464.88	4.75
465.08	4.78
465.281	4.52
465.481	4.3
465.682	4.21
465.882	4.24
466.083	4.17
466.283	4.1
466.483	3.95
466.684	3.73
466.884	3.65
467.085	3.67
467.285	3.76
467.485	3.61
467.686	3.51
467.886	3.48
468.086	3.42
468.286	3.33
468.487	3.45
468.687	3.26
468.887	3.27
469.087	3.35
469.287	3.19
469.488	3.11
469.688	3.29
469.888	3.28
470.088	3.18
470.288	3.1
470.488	3.14
470.688	2.9
470.888	2.91
471.088	2.74
471.288	2.88
471.488	2.85
471.688	2.75
471.888	2.65
472.088	2.88
472.288	2.74
472.488	2.69
472.688	2.62
472.888	2.65
473.088	2.63
473.288	2.54
473.488	2.47
473.688	2.66
473.887	2.45
474.087	2.45
474.287	2.45
474.487	2.39
474.687	2.41
474.886	2.37
475.086	2.33
475.286	2.35
475.486	2.29
475.685	2.3
475.885	2.23
476.085	2.28
476.284	2.31
476.484	2.27
476.684	2.23
476.883	2.35
477.083	2.17
477.282	2.14
477.482	2.17
477.681	2.18
477.881	2.08
478.08	2.09
478.28	2.04
478.479	2.15
478.679	2.15
478.878	2.08
479.078	2.04
479.277	2.14
479.477	2.06
479.676	2.04
479.875	2.04
480.075	1.94
480.274	2.03
480.473	2.08
480.673	2.04
480.872	2.11
481.071	2.09
481.271	2.03
481.47	2.01
481.669	2
481.868	1.96
482.067	2.01
482.267	1.9
482.466	1.97
482.665	1.96
482.864	1.99
483.063	1.89
483.262	2.04
483.461	2.08
483.661	2.07
483.86	1.99
484.059	2.11
484.258	2.08
484.457	2.01
484.656	2.04
484.855	2.14
485.054	1.92
485.253	1.99
485.452	1.96
485.651	2.04
485.849	2.01
486.048	2.01
486.247	2.02
486.446	2.13
486.645	2.01
486.844	2.08
487.043	2.04
487.241	2.12
487.44	2.07
487.639	2.12
487.838	2.12
488.037	2.15
488.235	2.25
488.434	2.16
488.633	2.07
488.831	2.21
489.03	2.19
489.229	2.18
489.427	2.16
489.626	2.33
489.825	2.29
490.023	2.29
490.222	2.24
490.42	2.32
490.619	2.38
490.817	2.39
491.016	2.32
491.214	2.42
491.413	2.42
491.611	2.39
491.81	2.4
492.008	2.46
492.207	2.55
492.405	2.52
492.604	2.47
492.802	2.55
493	2.59
493.199	2.6
493.397	2.63
493.595	2.7
493.794	2.65
493.992	2.78
494.19	2.7
494.388	2.79
494.587	2.73
494.785	2.79
494.983	2.71
495.181	2.87
495.379	2.88
495.578	2.97
495.776	2.97
495.974	2.91
496.172	3
496.37	3.09
496.568	3.12
496.766	3.05
496.964	3.19
497.162	3.18
497.36	3.22
497.558	3.22
497.756	3.29
497.954	3.27
498.152	3.38
498.35	3.44
498.548	3.34
498.746	3.37
498.944	3.37
499.142	3.45
499.34	3.48
499.538	3.62
499.736	3.53
499.933	3.61
500.131	3.64
500.329	3.81
500.527	3.73
500.725	3.9
500.922	3.84
501.12	3.89
501.318	3.92
501.516	3.92
501.713	4.04
501.911	3.96
502.109	3.96
502.306	4.07
502.504	3.95
502.701	4.13
502.899	4.2
503.097	4.33
503.294	4.16
503.492	4.37
503.689	4.31
503.887	4.38
504.084	4.42
504.282	4.4
504.479	4.4
504.677	4.53
504.874	4.48
505.072	4.41
505.269	4.61
505.466	4.6
505.664	4.71
505.861	4.67
506.059	4.73
506.256	4.76
506.453	4.84
506.651	4.96
506.848	4.98
507.045	4.93
507.242	4.95
507.44	5.02
507.637	5.06
507.834	4.98
508.031	5.2
508.229	5.1
508.426	5.05
508.623	5.2
508.82	5.23
509.017	5.28
509.214	5.23
509.411	5.34
509.608	5.29
509.805	5.45
510.003	5.44
510.2	5.48
510.397	5.67
510.594	5.56
510.791	5.61
510.988	5.59
511.184	5.58
511.381	5.49
511.578	5.62
511.775	5.83
511.972	5.69
512.169	5.77
512.366	5.75
512.563	5.95
512.76	5.95
512.956	5.99
513.153	5.93
513.35	5.84
513.547	5.91
513.744	6.05
513.94	6
514.137	6.08
514.334	6.08
514.53	6.13
514.727	6.31
514.924	6.22
515.12	6.23
515.317	6.31
515.514	6.2
515.71	6.14
515.907	6.37
516.103	6.44
516.3	6.28
516.497	6.48
516.693	6.43
516.89	6.38
517.086	6.48
517.283	6.47
517.479	6.41
517.676	6.61
517.872	6.64
518.068	6.61
518.265	6.59
518.461	6.51
518.658	6.7
518.854	6.66
519.05	6.76
519.247	6.75
519.443	6.74
519.639	6.8
519.836	6.75
520.032	6.77
520.228	6.88
520.424	6.86
520.621	6.86
520.817	6.95
521.013	6.86
521.209	7.12
521.405	7.05
521.601	6.97
521.798	6.93
521.994	7
522.19	6.91
522.386	6.97
522.582	7.07
522.778	7.24
522.974	7.09
523.17	7.12
523.366	7.05
523.562	7.18
523.758	7.17
523.954	6.97
524.15	7.21
524.346	7.26
524.542	7.28
524.738	7.21
524.934	7.26
525.129	7.22
525.325	7.19
525.521	7.22
525.717	7.42
525.913	7.28
526.109	7.28
526.304	7.43
526.5	7.37
526.696	7.44
526.892	7.32
527.087	7.66
527.283	7.48
527.479	7.44
527.674	7.24
527.87	7.5
528.066	7.45
528.261	7.46
528.457	7.44
528.653	7.64
528.848	7.53
529.044	7.65
529.239	7.46
529.435	7.48
529.63	7.49
529.826	7.52
530.021	7.51
530.217	7.59
530.412	7.54
530.608	7.64
530.803	7.56
530.999	7.49
531.194	7.63
531.389	7.63
531.585	7.64
531.78	7.76
531.975	7.64
532.171	7.73
532.366	7.77
532.561	7.73
532.757	7.68
532.952	7.82
533.147	7.62
533.342	7.72
533.538	7.68
533.733	7.87
533.928	7.55
534.123	7.77
534.318	7.82
534.513	7.73
534.709	7.83
534.904	7.82
535.099	7.9
535.294	7.85
535.489	7.83
535.684	7.79
535.879	7.81
536.074	7.89
536.269	7.88
536.464	7.89
536.659	7.84
536.854	7.9
537.049	7.93
537.244	7.96
537.439	7.88
537.634	7.93
537.828	7.93
538.023	7.94
538.218	7.9
538.413	7.8
538.608	7.86
538.803	7.92
538.997	7.85
539.192	7.89
539.387	7.83
539.582	7.87
539.776	7.83
539.971	7.95
540.166	8.04
540.36	7.91
540.555	8.03
540.75	7.93
540.944	8.01
541.139	7.98
541.334	7.91
541.528	7.96
541.723	8.02
541.917	8.06
542.112	7.94
542.306	7.85
542.501	7.88
542.695	7.95
542.89	7.88
543.084	7.96
543.279	7.99
543.473	8.08
543.668	8.06
543.862	7.93
544.056	7.88
544.251	8.07
544.445	8.07
544.64	8.1
544.834	7.75
545.028	7.65
545.222	8.04
545.417	8.22
545.611	8.08
545.805	8.06
546	7.82
546.194	8.08
546.388	8.08
546.582	7.9
546.776	8.01
546.97	8.05
547.165	7.99
547.359	8.07
547.553	7.97
547.747	8.06
547.941	8.23
548.135	8.05
548.329	8.05
548.523	8.09
548.717	8.03
548.911	8.04
549.105	7.98
549.299	8.11
549.493	8.08
549.687	7.96
549.881	8.14
550.075	8.05
550.269	7.94
550.463	8.06
550.657	8.13
550.85	8.03
551.044	8.01
551.238	8.1
551.432	8.05
551.626	8.1
551.82	8.1
552.013	7.94
552.207	8.13
552.401	8.15
552.594	8.02
552.788	7.99
552.982	8.01
553.176	8.02
553.369	8.25
553.563	8.17
553.756	8
553.95	8.11
554.144	8.12
554.337	8.15
554.531	7.89
554.724	8.08
554.918	8.17
555.111	8.06
555.305	8.08
555.498	7.98
555.692	8.21
555.885	8.14
556.079	8.05
556.272	8.06
556.466	8.11
556.659	8.03
556.852	8.12
557.046	7.99
557.239	7.9
557.432	8.12
557.626	8.12
557.819	8.13
558.012	8.07
558.206	8.21
558.399	8.04
558.592	7.98
558.785	8.01
558.979	8.04
559.172	8.08
559.365	8.09
559.558	8.03
559.751	8.02
559.944	8.14
560.138	8.09
560.331	8.1
560.524	8.1
560.717	8.05
560.91	7.98
561.103	8.09
561.296	7.97
561.489	8.12
561.682	8.15
561.875	8.12
562.068	8.18
562.261	8.02
562.454	8.21
562.647	8
562.84	8.1
563.032	8.11
563.225	7.99
563.418	8.01
563.611	8.16
563.804	8.05
563.997	7.89
564.19	7.86
564.382	8.13
564.575	8.06
564.768	8.05
564.961	8.17
565.153	7.91
565.346	7.95
565.539	8.14
565.731	7.98
565.924	8.15
566.117	8.18
566.309	8.11
566.502	8.04
566.695	8
566.887	8.15
567.08	8.05
567.272	8.05
567.465	8.01
567.657	8.04
567.85	7.97
568.042	8.05
568.235	8.07
568.427	7.92
568.62	8.01
568.812	7.97
569.005	8.08
569.197	7.89
569.389	8.06
569.582	8.03
569.774	8.06
569.966	7.93
570.159	7.9
570.351	7.96
570.543	8
570.736	8.01
570.928	7.89
571.12	8.02
571.312	7.92
571.505	7.71
571.697	8
571.889	8.01
572.081	7.98
572.273	7.87
572.465	7.95
572.658	8.01
572.85	7.97
573.042	7.98
573.234	7.83
573.426	7.96
573.618	7.87
573.81	7.92
574.002	7.88
574.194	7.92
574.386	7.85
574.578	7.77
574.77	7.89
574.962	7.99
575.154	7.78
575.346	7.81
575.538	7.81
575.729	7.84
575.921	7.92
576.113	7.97
576.305	7.87
576.497	7.94
576.689	7.78
576.88	7.71
577.072	7.87
577.264	7.85
577.456	7.85
577.647	7.73
577.839	7.92
578.031	7.76
578.223	7.77
578.414	7.69
578.606	7.83
578.798	7.89
578.989	7.77
579.181	7.83
579.372	7.84
579.564	7.84
579.755	7.75
579.947	7.69
580.139	7.79
580.33	7.59
580.522	7.77
580.713	7.68
580.905	7.73
581.096	7.81
581.287	7.71
581.479	7.7
581.67	7.73
581.862	7.73
582.053	7.72
582.244	7.56
582.436	7.76
582.627	7.59
582.818	7.57
583.01	7.59
583.201	7.6
583.392	7.54
583.583	7.56
583.775	7.47
583.966	7.61
584.157	7.57
584.348	7.67
584.54	7.51
584.731	7.57
584.922	7.52
585.113	7.49
585.304	7.57
585.495	7.55
585.686	7.64
585.877	7.58
586.068	7.58
586.259	7.63
586.45	7.57
586.641	7.52
586.832	7.54
587.023	7.46
587.214	7.4
587.405	7.54
587.596	7.38
587.787	7.37
587.978	7.4
588.169	7.36
588.36	7.36
588.551	7.39
588.742	7.43
588.932	7.45
589.123	7.25
589.314	7.43
589.505	7.33
589.696	7.36
589.886	7.32
590.077	7.34
590.268	7.23
590.458	7.19
590.649	7.12
590.84	7.28
591.03	7.29
591.221	7.2
591.412	7.1
591.602	7.37
591.793	7.26
591.984	7.24
592.174	7.17
592.365	7.33
592.555	7.11
592.746	7.11
592.936	7.09
593.127	7.15
593.317	7.22
593.508	7.14
593.698	7.11
593.889	7.04
594.079	7.06
594.269	6.94
594.46	7.06
594.65	7
594.84	7.02
595.031	6.98
595.221	6.97
595.411	6.95
595.602	7.01
595.792	6.88
595.982	6.81
596.172	6.99
596.363	6.84
596.553	6.89
596.743	6.92
596.933	6.91
597.123	6.82
597.314	6.68
597.504	6.74
597.694	6.95
597.884	6.75
598.074	6.81
598.264	6.78
598.454	6.85
598.644	6.74
598.834	6.76
599.024	6.58
599.214	6.63
599.404	6.78
599.594	6.7
599.784	6.64
599.974	6.74
600.164	6.65
600.354	6.58
600.544	6.49
600.734	6.58
600.924	6.58
601.114	6.45
601.303	6.54
601.493	6.53
601.683	6.56
601.873	6.55
602.063	6.4
602.252	6.49
602.442	6.41
602.632	6.38
602.821	6.36
603.011	6.47
603.201	6.4
603.39	6.32
603.58	6.17
603.77	6.38
603.959	6.42
604.149	6.33
604.339	6.32
604.528	6.39
604.718	6.3
604.907	6.27
605.097	6.18
605.286	6.21
605.476	6.22
605.665	6.21
605.855	6.13
606.044	6.25
606.234	6.19
606.423	6.18
606.612	6.12
606.802	6.02
606.991	6.12
607.181	6.14
607.37	6.12
607.559	5.9
607.749	6.05
607.938	5.97
608.127	5.94
608.316	5.98
608.506	5.96
608.695	6.08
608.884	5.94
609.073	5.95
609.263	6.05
609.452	5.96
609.641	5.78
609.83	5.78
610.019	5.92
610.208	5.8
610.397	5.83
610.586	5.88
610.775	5.71
610.965	5.78
611.154	5.66
611.343	5.74
611.532	5.69
611.721	5.78
611.91	5.68
612.099	5.66
612.287	5.66
612.476	5.53
612.665	5.71
612.854	5.57
613.043	5.61
613.232	5.63
613.421	5.54
613.61	5.6
613.798	5.51
613.987	5.59
614.176	5.47
614.365	5.53
614.554	5.55
614.742	5.53
614.931	5.38
615.12	5.51
615.309	5.5
615.497	5.33
615.686	5.26
615.875	5.37
616.063	5.35
616.252	5.33
616.44	5.33
616.629	5.25
616.818	5.29
617.006	5.25
617.195	5.14
617.383	5.18
617.572	5.14
617.76	5.1
617.949	5.1
618.137	5.25
618.326	5.22
618.514	4.99
618.703	4.97
618.891	5.21
619.079	5.01
619.268	5.13
619.456	4.97
619.644	5.08
619.833	5.02
620.021	4.98
620.209	4.89
620.398	4.98
620.586	4.89
620.774	5
620.962	4.92
621.151	5.02
621.339	4.94
621.527	4.88
621.715	4.72
621.903	4.85
622.092	4.76
622.28	4.86
622.468	4.63
622.656	4.79
622.844	4.68
623.032	4.75
623.22	4.65
623.408	4.84
623.596	4.68
623.784	4.79
623.972	4.64
624.16	4.65
624.348	4.76
624.536	4.69
624.724	4.53
624.912	4.56
625.1	4.6
625.288	4.59
625.476	4.41
625.664	4.58
625.851	4.53
626.039	4.53
626.227	4.47
626.415	4.42
626.603	4.38
626.79	4.44
626.978	4.45
627.166	4.5
627.354	4.29
627.541	4.34
627.729	4.26
627.917	4.5
628.104	4.43
628.292	4.29
628.48	4.3
628.667	4.22
628.855	4.34
629.042	4.31
629.23	4.23
629.418	4.22
629.605	4.23
629.793	4.12
629.98	4.18
630.168	4.08
630.355	4.19
630.543	4.18
630.73	4.06
630.917	4.02
631.105	4.18
631.292	4.13
631.48	4.08
631.667	4.15
631.854	4
632.042	3.99
632.229	3.93
632.416	4.04
632.604	4.03
632.791	3.85
632.978	3.94
633.165	3.95
633.353	3.97
633.54	3.89
633.727	3.81
633.914	3.84
634.101	3.8
634.289	3.95
634.476	3.77
634.663	3.72
634.85	3.82
635.037	3.76
635.224	3.67
635.411	3.81
635.598	3.73
635.785	3.76
635.972	3.7
636.159	3.71
636.346	3.63
636.533	3.63
636.72	3.65
636.907	3.62
637.094	3.65
637.281	3.56
637.468	3.57
637.655	3.56
637.842	3.54
638.029	3.52
638.215	3.52
638.402	3.55
638.589	3.39
638.776	3.39
638.963	3.41
639.149	3.51
639.336	3.53
639.523	3.41
639.709	3.39
639.896	3.42
640.083	3.38
640.27	3.45
640.456	3.3
640.643	3.36
640.829	3.24
641.016	3.28
641.203	3.24
641.389	3.32
641.576	3.31
641.762	3.24
641.949	3.16
642.135	3.23
642.322	3.2
642.508	3.09
642.695	3.18
642.881	3.13
643.068	3.07
643.254	3.17
643.441	3.17
643.627	3.2
643.813	3.04
644	3.09
644.186	3.07
644.372	3.1
644.559	3.02
644.745	3.01
644.931	3
645.118	3.03
645.304	3.05
645.49	3
645.676	2.91
645.862	2.95
646.049	3.01
646.235	2.97
646.421	3.08
646.607	3.05
646.793	2.88
646.979	2.8
647.165	2.9
647.352	2.86
647.538	2.9
647.724	2.8
647.91	2.85
648.096	2.88
648.282	2.81
648.468	2.76
648.654	2.83
648.84	2.8
649.026	2.7
649.212	2.68
649.397	2.71
649.583	2.69
649.769	2.74
649.955	2.67
650.141	2.75
650.327	2.71
650.513	2.63
650.698	2.64
650.884	2.54
651.07	2.71
651.256	2.62
651.442	2.59
651.627	2.51
651.813	2.58
651.999	2.55
652.184	2.57
652.37	2.54
652.556	2.52
652.741	2.58
652.927	2.38
653.113	2.48
653.298	2.48
653.484	2.49
653.669	2.38
653.855	2.45
654.04	2.54
654.226	2.46
654.412	2.45
654.597	2.31
654.782	2.4
654.968	2.46
655.153	2.35
655.339	2.34
655.524	2.35
655.71	2.44
655.895	2.35
656.08	2.38
656.266	2.34
656.451	2.3
656.636	2.23
656.822	2.3
657.007	2.29
657.192	2.27
657.378	2.21
657.563	2.23
657.748	2.32
657.933	2.27
658.118	2.19
658.304	2.17
658.489	2.22
658.674	2.25
658.859	2.14
659.044	2.17
659.229	2.21
659.414	2.13
659.599	2.16
659.785	2.11
659.97	2.13
660.155	2.15
660.34	2.13
660.525	2.11
660.71	2.04
660.895	2.11
661.08	2.05
661.264	1.99
661.449	2.12
661.634	2.06
661.819	2.09
662.004	2
662.189	1.97
662.374	2.01
662.559	1.94
662.743	1.92
662.928	2
663.113	1.91
663.298	1.88
663.483	1.95
663.667	1.92
663.852	1.84
664.037	1.95
664.221	1.92
664.406	1.97
664.591	1.96
664.775	1.83
664.96	1.89
665.145	1.89
665.329	1.92
665.514	1.82
665.698	1.79
665.883	1.79
666.068	1.92
666.252	1.84
666.437	1.78
666.621	1.79
666.806	1.86
666.99	1.72
667.174	1.75
667.359	1.85
667.543	1.78
667.728	1.73
667.912	1.67
668.096	1.73
668.281	1.72
668.465	1.75
668.649	1.72
668.834	1.68
669.018	1.72
669.202	1.7
669.387	1.63
669.571	1.77
669.755	1.64
669.939	1.65
670.124	1.69
670.308	1.72
670.492	1.69
670.676	1.63
670.86	1.61
671.044	1.59
671.228	1.68
671.413	1.57
671.597	1.54
671.781	1.54
671.965	1.62
672.149	1.62
672.333	1.59
672.517	1.57
672.701	1.58
672.885	1.54
673.069	1.48
673.253	1.58
673.437	1.53
673.621	1.53
673.804	1.52
673.988	1.52
674.172	1.44
674.356	1.44
674.54	1.5
674.724	1.63
674.908	1.47
675.091	1.6
675.275	1.47
675.459	1.51
675.643	1.53
675.826	1.48
676.01	1.45
676.194	1.43
676.377	1.51
676.561	1.46
676.745	1.43
676.928	1.47
677.112	1.44
677.296	1.39
677.479	1.36
677.663	1.41
677.846	1.45
678.03	1.39
678.213	1.31
678.397	1.38
678.58	1.37
678.764	1.35
678.947	1.29
679.131	1.37
679.314	1.36
679.498	1.34
679.681	1.3
679.865	1.45
680.048	1.32
680.231	1.3
680.415	1.28
680.598	1.28
680.781	1.24
680.965	1.28
681.148	1.26
681.331	1.22
681.514	1.28
681.698	1.21
681.881	1.23
682.064	1.3
682.247	1.29
682.43	1.15
682.614	1.24
682.797	1.35
682.98	1.29
683.163	1.14
683.346	1.21
683.529	1.2
683.712	1.19
683.895	1.19
684.078	1.08
684.261	1.18
684.444	1.24
684.627	1.24
684.81	1.1
684.993	1.15
685.176	1.25
685.359	1.09
685.542	1.09
685.725	1.25
685.908	1.14
686.091	1.17
686.274	1.19
686.457	1.23
686.639	1.14
686.822	1.18
687.005	1.06
687.188	1.15
687.371	1.23
687.553	1.18
687.736	1.09
687.919	1.25
688.102	1.24
688.284	1
688.467	1.05
688.65	1.03
688.832	1
689.015	1.04
689.197	0.99
689.38	1.2
689.563	1.16
689.745	0.99
689.928	0.98
690.11	1.09
690.293	1.04
690.475	0.9
690.658	0.99
690.84	1.02
691.023	0.88
691.205	1
691.388	0.94
691.57	1.08
691.752	1.06
691.935	0.87
692.117	0.92
692.3	1.03
692.482	0.98
692.664	0.93
692.847	0.93
693.029	1.08
693.211	1.05
693.393	0.93
693.576	0.91
693.758	0.96
693.94	0.95
694.122	0.96
694.304	0.94
694.487	0.86
694.669	1
694.851	0.85
695.033	0.85
695.215	0.91
695.397	0.95
695.579	0.89
695.761	0.83
695.943	0.86
696.125	0.96
696.308	0.93
696.49	0.73
696.671	1.01
696.853	0.92
697.035	1.13
697.217	0.83
697.399	0.96
697.581	0.86
697.763	0.82
697.945	0.76
698.127	0.89
698.309	0.96
698.491	0.9
698.672	0.89
698.854	0.9
699.036	0.94
699.218	0.82
699.399	0.89
699.581	0.87
699.763	0.85
699.945	0.75
700.126	0.72
700.308	0.84
700.49	0.86
700.671	0.7
700.853	0.72
701.035	0.78
701.216	0.87
701.398	0.74
701.579	0.74
701.761	0.86
701.943	0.79
702.124	0.69
702.306	0.78
702.487	0.93
702.669	0.77
702.85	0.73
703.031	0.66
703.213	0.93
703.394	0.79
703.576	0.73
703.757	0.93
703.938	0.8
704.12	0.98
704.301	0.77
704.483	0.66
704.664	0.79
704.845	0.9
705.026	0.83
705.208	0.67
705.389	0.8
705.57	0.69
705.751	0.79
705.933	0.73
706.114	0.77
706.295	0.76
706.476	0.64
706.657	0.84
706.838	0.71
707.02	0.75
707.201	0.66
707.382	0.7
707.563	0.76
707.744	0.64
707.925	0.65
708.106	0.7
708.287	0.76
708.468	0.79
708.649	0.73
708.83	0.72
709.011	0.67
709.192	0.74
709.373	0.58
709.554	0.69
709.734	0.78
709.915	0.72
710.096	0.67
710.277	0.5
710.458	0.65
710.639	0.71
710.819	0.54
711	0.62
711.181	0.79
711.362	0.74
711.542	0.66
711.723	0.69
711.904	0.7
712.085	0.69
712.265	0.57
712.446	0.5
712.627	0.62
712.807	0.59
712.988	0.67
713.168	0.54
713.349	0.71
713.53	0.41
713.71	0.57
713.891	0.5
714.071	0.65
714.252	0.66
714.432	0.65
714.613	0.51
714.793	0.58
714.974	0.71
715.154	0.68
715.334	0.69
715.515	0.75
715.695	0.56
715.876	0.58
716.056	0.53
716.236	0.53
716.417	0.56
716.597	0.52
716.777	0.81
716.957	0.6
717.138	0.56
717.318	0.61
717.498	0.56
717.678	0.57
717.859	0.58
718.039	0.4
718.219	0.63
718.399	0.53
718.579	0.44
718.759	0.43
718.939	0.56
719.12	0.6
719.3	0.57
719.48	0.43
719.66	0.39
719.84	0.7
720.02	0.54
720.2	0.49
720.38	0.49
720.56	0.72
720.74	0.48
720.92	0.57
721.1	0.63
721.279	0.6
721.459	0.57
721.639	0.43
721.819	0.51
721.999	0.5
722.179	0.59
722.359	0.41
722.538	0.52
722.718	0.49
722.898	0.47
723.078	0.52
723.257	0.48
723.437	0.5
723.617	0.61
723.797	0.48
723.976	0.54
724.156	0.66
724.336	0.58
724.515	0.69
724.695	0.36
724.874	0.58
725.054	0.59
725.234	0.42
725.413	0.49
725.593	0.5
725.772	0.55
725.952	0.47
726.131	0.44
726.311	0.51
726.49	0.53
726.67	0.41
726.849	0.43
727.028	0.55
727.208	0.46
727.387	0.56
727.567	0.37
727.746	0.47
727.925	0.47
728.105	0.38
728.284	0.48
728.463	0.47
728.643	0.58
728.822	0.35
729.001	0.56
729.18	0.54
729.359	0.56
729.539	0.46
729.718	0.49
729.897	0.64
730.076	0.41
730.255	0.24
730.434	0.53
730.614	0.57
730.793	0.67
730.972	0.42
731.151	0.43
731.33	0.66
731.509	0.56
731.688	0.55
731.867	0.44
732.046	0.28
732.225	0.74
732.404	0.41
732.583	0.35
732.762	0.45
732.941	0.57
733.12	0.4
733.298	0.46
733.477	0.64
733.656	0.44
733.835	0.36
734.014	0.59
734.193	0.48
734.371	0.44
734.55	0.62
734.729	0.34
734.908	0.45
735.086	0.5
735.265	0.47
735.444	0.22
735.623	0.34
735.801	0.4
735.98	0.43
736.159	0.43
736.337	0.56
736.516	0.42
736.694	0.43
736.873	0.44
737.052	0.7
737.23	0.75
737.409	0.35
737.587	0.66
737.766	0.31
737.944	0.53
738.123	0.53
738.301	0.59
738.479	0.4
738.658	0.53
738.836	0.24
739.015	0.4
739.193	0.63
739.371	0.38
739.55	0.51
739.728	0.39
739.906	0.68
740.085	0.62
740.263	0.5
740.441	0.13
740.62	0.8
740.798	0.58
740.976	0.39
741.154	0.38
741.332	0.54
741.511	0.41
741.689	0.55
741.867	0.54
742.045	0.52
742.223	0.35
742.401	0.33
742.579	0.22
742.757	0.61
742.935	0.37
743.114	0.32
743.292	0.48
743.47	0.46
743.648	0.56
743.826	0.36
744.004	0.38
744.181	0.55
744.359	0.42
744.537	0.52
744.715	0.44
744.893	0.37
745.071	0.41
745.249	0.45
745.427	0.36
745.605	0.55
745.782	0.4
745.96	0.48
746.138	0.5
746.316	0.68
746.493	0.31
746.671	0.47
746.849	0.36
747.027	0.72
747.204	0.39
747.382	0.47
747.56	0.21
747.737	0.45
747.915	0.38
748.093	0.54
748.27	0.37
748.448	0.36
748.625	0.29
748.803	0.33
748.98	0.19
749.158	0.45
749.335	0.54
749.513	0.39
749.69	0.36
749.868	0.38
750.045	0.35
750.223	0.39
750.4	0.19
750.578	0.58
750.755	0.41
750.932	0.18
751.11	0.49
751.287	0.27
751.464	0.6
751.642	0.33
751.819	0.53
751.996	0.44
752.173	0.3
752.351	0.3
752.528	0.4
752.705	0.3
752.882	0.27
753.06	0.35
753.237	0.39
753.414	0.62
753.591	0.62
753.768	0.36
753.945	0.24
754.122	0.38
754.299	0.51
754.476	0.32
754.654	0.31
754.831	0.51
755.008	0.47
755.185	0.28
755.362	0.21
755.539	0.38
755.716	0.45
755.892	0.27
756.069	0.37
756.246	0.41
756.423	0.41
756.6	0.48
756.777	0.29
756.954	0.46
757.131	0.29
757.307	0.21
757.484	0.11
757.661	0.42
757.838	0.51
758.015	0.18
758.191	0.4
758.368	0.45
758.545	0.63
758.721	0.36
758.898	0.23
759.075	0.38
759.251	0.52
759.428	0.39
759.605	0.19
759.781	0.43
759.958	0.3
760.134	0.43
760.311	0.19
760.488	0.52
760.664	0.64
760.841	0.4
761.017	0.25
761.194	0.47
761.37	0.48
761.547	0.36
761.723	0.21
761.899	0.54
762.076	0.19
762.252	0.22
762.429	0.34
762.605	0.51
762.781	0.24
762.958	0.35
763.134	0.26
763.31	0.28
763.486	0.64
763.663	0.09
763.839	0.35
764.015	0.09
764.191	0.27
764.368	0.39
764.544	0.24
764.72	0.23
764.896	0.51
765.072	0.56
765.248	0.31
765.425	0.4
765.601	0.42
765.777	0.42
765.953	0.11
766.129	0.31
766.305	0.24
766.481	0.43
766.657	0.43
766.833	0.67
767.009	0.22
767.185	0.37
767.361	0.34
767.537	0.19
767.713	0.61
767.889	0.26
768.065	0.27
768.24	0.46
768.416	0.44
768.592	0.2
768.768	0.33
768.944	0.47
769.12	0.26
769.295	0.3
769.471	0.32
769.647	0.48
769.823	0.59
769.998	0.29
770.174	0.29
770.35	0.62
770.525	0.7
770.701	0.58
770.877	0.53
771.052	0.19
771.228	0.66
771.403	0.28
771.579	0.36
771.755	0.84
771.93	0.3
772.106	0.18
772.281	0.08
772.457	0.41
772.632	0.35
772.808	0.08
772.983	0.34
773.159	0.19
773.334	0.41
773.509	0.38
773.685	0.16
773.86	0.77
774.036	0.58
774.211	0.4
774.386	0.33
774.562	0.39
774.737	0.67
774.912	0.32
775.087	0.35
775.263	0.39
775.438	0.43
775.613	0.42
775.788	0.38
775.964	0.57
776.139	0.98
776.314	0.19
776.489	0.35
776.664	0.35
776.839	0.33
777.014	0.61
777.19	0.49
777.365	0.65
777.54	0.76
777.715	0.33
777.89	0.41
778.065	0.31
778.24	0.34
778.415	0.47
778.59	0.14
778.765	0.3
778.94	0.4
779.115	0.14
779.289	0.3
779.464	0.27
779.639	0.39
779.814	0.13
779.989	0.18
780.164	0.45
780.339	0.33
780.513	0.13
780.688	0.04
780.863	0.28
781.038	0.55
781.212	0.11
781.387	0.31
781.562	0.83
781.737	0.2
781.911	0.62
782.086	0.09
782.261	0.39
782.435	0.68
782.61	0.23
782.784	0.45
782.959	0.61
783.134	0.24
783.308	0.21
783.483	0.22
783.657	0.85
783.832	0.76
784.006	0.02
784.181	0.41
784.355	0.76
784.53	0.26
784.704	0.09
784.878	0.75
785.053	0.56
785.227	0.76
785.402	0.7
785.576	0.14
785.75	0.59
785.925	0.32
786.099	0.39
786.273	0.36
786.448	0.74
786.622	0.88
786.796	0.22
786.97	0.38
787.145	0.98
787.319	0.09
787.493	0.39
787.667	0.04
787.841	0.67
788.015	0.84
788.19	0.28
788.364	0.28
788.538	0.71
788.712	0.65
788.886	0.27
789.06	0.65
789.234	0.7
789.408	0.28
789.582	0.25
789.756	0.17
789.93	0.07
790.104	0.45
790.278	0.55
790.452	0.29
790.626	0.4
790.8	0.36
790.973	0.55
791.147	0.59
791.321	0.81
791.495	0.78
791.669	0.47
791.843	0.79
792.016	0.25
792.19	1.07
792.364	0.24
792.538	0.99
792.711	0.58
792.885	0.25
793.059	0.02
793.233	-0.23
793.406	0.87
793.58	0.32
793.754	0.49
793.927	0.38
794.101	0.94
794.274	0.37
794.448	0.59
794.622	0.11
794.795	0.79
794.969	0.24
795.142	0.99
795.316	0.12
795.489	0.27
795.663	0.63
795.836	0.62
796.009	0.1
796.183	0.91
796.356	0.59
796.53	0.54
796.703	0.55
796.876	1.3
797.05	0.31
797.223	0.12
797.396	0.4
797.57	0.41
797.743	1.05
797.916	0.32
798.09	0.55
798.263	0.64
798.436	0.59
798.609	0.4
798.782	0.42
798.956	0.67
799.129	0.35
799.302	0.25
799.475	0.3
799.648	0.4
799.821	0.22
799.994	0.44
800.167	-0.23
800.34	0.46
800.514	0.56
800.687	0.54
800.86	0.38
801.033	0.67
801.206	0.91
801.379	0.22
801.551	0.71
801.724	0.82
801.897	1.28
802.07	0.37
802.243	0.01
802.416	0.49
802.589	0.56
802.762	0.66
802.935	0.42
803.107	0.98
803.28	1.09
803.453	0.82
803.626	0.49
803.798	0.79
803.971	0.22
804.144	0.74
804.317	0.62
804.489	0.63
804.662	0.73
804.835	0.34
805.007	0.13
805.18	1.11
805.353	0.86
805.525	0.37
805.698	0.42
805.87	0.73
806.043	0.86
806.215	0.1
806.388	0.21
806.56	0.76
806.733	1.36
806.905	0.78
807.078	0.51
807.25	0.18
807.423	0.74
807.595	0.76
807.768	0.75
807.94	0.74
808.112	0.8
808.285	1
808.457	0.42
808.629	0.58
808.802	0.76
808.974	0.82
809.146	0.23
809.318	0.53
809.491	0.76
809.663	0.86
809.835	0.49
810.007	0.85
810.18	0.8
810.352	0.16
810.524	0.32
810.696	1.02
810.868	0.96
811.04	0.42
811.212	0.35
811.384	0.83
811.556	0.49
811.728	0.5
811.901	1.71
812.073	0.41
812.245	0.82
812.417	0.66
812.589	-0.36
812.76	0.85
812.932	0.88
813.104	0.75
813.276	0.22
813.448	1.06
813.62	0.76
813.792	0.32
813.964	0.45
814.136	0.71
814.307	0.51
814.479	0.13
814.651	0.18
814.823	1.84
814.995	0.38
815.166	0.64
815.338	0.15
815.51	0.11
815.681	1.68
815.853	1.02
816.025	0.53
816.196	1.65
816.368	0.98
816.54	0.17
816.711	0.31
816.883	0.8
817.054	1.94
817.226	0.14
817.398	0.58
817.569	0.22
817.741	0.8
817.912	0.72
818.084	-0.14
818.255	1.21
818.426	-0.02
818.598	0.69
818.769	-0.06
818.941	0.7
819.112	1.26
819.283	0.56
819.455	0.35
819.626	0.82
819.798	0.8
819.969	0.59
820.14	0.48
820.311	0.85
820.483	0.72
820.654	0.97
820.825	0.75
820.996	0.72
821.168	0.14
821.339	0.63
821.51	0.28
821.681	0.44
821.852	0.97
822.023	0.04
822.195	0.07
822.366	1.29
822.537	0.63
822.708	0.88
822.879	0.35
823.05	1.55
823.221	0.19
823.392	0.89
823.563	0.51
823.734	0.71
823.905	0.83
824.076	0.12
824.247	0.49
824.418	0.22
824.589	1.85
824.759	0.86
824.93	0.66
825.101	-0.56
825.272	1.68
825.443	1.09
825.614	1.33
825.784	0.11
825.955	2.4
826.126	1.18
826.297	1.03
826.467	1.32
826.638	2.21
826.809	-0.2
826.98	1.18
827.15	1.15
827.321	0.94
827.492	1.45
827.662	0.9
827.833	1.66
828.003	1.54
828.174	0.33
828.345	0.19
828.515	1.87
828.686	0.96
828.856	0.34
829.027	0.3
829.197	1.02
829.368	0.79
829.538	0.58
829.709	0.77
829.879	1.08
830.049	0.67
830.22	0.88
830.39	0.7
830.56	1.47
830.731	0.91
830.901	0.56
831.072	0.28
831.242	0.97
831.412	1.26
831.582	0.46
831.753	-0.3
831.923	1.2
832.093	0.83
832.263	1.02
832.434	0.26
832.604	0.54
832.774	1.81
832.944	0.46
833.114	0.03
833.284	1.12
833.454	0.02
833.624	0.67
833.795	0.36
833.965	2.67
834.135	2.26
834.305	-0.89
834.475	-0.11
834.645	1.74
834.815	0.45
834.985	0.08
835.155	0.39
835.325	1.64
835.494	1.8
835.664	0.42
835.834	-0.17
836.004	0.98
836.174	1.32
836.344	0.56
836.514	0.02
836.684	0.7
836.853	1.1
837.023	0.56
837.193	0.05
837.363	1.64
837.532	1.49
837.702	0.99
837.872	0.01
838.041	2.17
838.211	2.82
838.381	-0.26
838.55	0.57
838.72	2.97
838.89	2.67
839.059	0.53
839.229	-0.11
839.398	3.23
839.568	1.22
839.738	0.77
839.907	1.51
840.077	0.82
840.246	0.67
840.416	0.34
840.585	0.49
840.755	3.41
840.924	2.53
841.093	0.33
841.263	0.52
841.432	0.72
841.602	0.52
841.771	0.55
841.94	0.83
842.11	3.31
842.279	1.74
842.448	0.67
842.617	0.04
842.787	2.75
842.956	0.38
843.125	0.18
843.294	0.53
843.464	2.2
843.633	1.7
843.802	0.19
843.971	1.13
844.14	1.81
844.309	2.52
844.479	-0.54
844.648	0.4
844.817	0.25
844.986	1.95
845.155	0.21
845.324	0.66
845.493	1.03
845.662	1.49
845.831	1.68
846	1.95
846.169	0.91
846.338	2.21
846.507	0.75
846.676	1.3
846.844	0.52
847.013	2.06
847.182	1.26
847.351	0.3
847.52	0.84
847.689	1.19
847.858	1.3
848.026	0.01
848.195	0.66
848.364	0.38
848.533	0.67
848.701	0.61
848.87	1.7
849.039	2.97
849.207	1.91
849.376	3.32
849.545	3.37
849.713	1.07
849.882	0.55
850.051	0.69
850.219	1.24
850.388	1.43
850.556	-0.35
850.725	-0.45
850.893	1.57
851.062	1.6
851.23	0.85
851.399	-0.64
851.567	0.98
851.736	1.27
851.904	-0.04
852.073	1.5
852.241	1.77
852.41	1.04
852.578	0.87
852.746	0.64
852.915	1.52
853.083	1.86
853.251	0.04
853.42	0.17
853.588	1.83
853.756	3.04
853.924	1.43
854.093	1.02
854.261	-0.16
854.429	-1.16
854.597	1.28
854.765	0.56
854.934	2.4
855.102	2.55
855.27	1.48
855.438	1.93
855.606	2.88
855.774	2.28
855.942	-0.12
856.11	-0.23
856.278	0.87
856.446	2.51
856.614	1
856.782	-0.22
856.95	2.42
857.118	3.71
857.286	2.28
857.454	1.24
857.622	3.74
857.79	1.98
857.958	-0.62
858.126	0.61
858.294	-1.17
858.462	0.82
858.629	0.03
858.797	-0.3
858.965	2.27
859.133	2.16
859.301	0.59
859.468	1.65
859.636	0.78
859.804	2.9
859.971	1.92
860.139	0.55
860.307	2.91
860.474	2
860.642	-0.43
860.81	0.68
860.977	0.7
861.145	3.89
861.313	0.72
861.48	1.06
861.648	3.41
861.815	1.17
861.983	0.68
862.15	0.13
862.318	3.11
862.485	2.53
862.653	-0.28
862.82	0.29
862.988	4.23
863.155	2.91
863.322	0.08
863.49	-1.07
863.657	1.92
863.824	5.35
863.992	2.03
864.159	2.5
864.326	3.8
864.494	2.04
864.661	4.54
864.828	0.9
864.996	4.84
865.163	3.51
865.33	1.3
865.497	-1.63
865.664	1.43
865.832	-0.74
865.999	-0.59
866.166	0.26
866.333	-0.21
866.5	1.66
866.667	-0.23
866.834	-0.39
867.001	3.65
867.168	-1.56
867.335	0.26
867.502	-0.21
867.669	1.7
867.836	4.22
868.003	1.91
868.17	3.6
868.337	4.86
868.504	4.77
868.671	0.07
868.838	1.6
869.005	3.27
869.172	2.51
869.339	1.53
869.505	1.51
869.672	3.3
869.839	3.41
870.006	2.14
870.173	-0.19
870.339	3.5
870.506	6.3
870.673	2.67
870.84	1.72
871.006	3.28
871.173	2
871.34	0.3
871.506	-0.29
871.673	3.9
871.839	0.06
872.006	1.29
872.173	0.28
872.339	1.81
872.506	3.62
872.672	0.2
872.839	-0.32
873.005	1.96
873.172	6.45
873.338	2.48
873.505	1.94
873.671	2.64
873.838	2.47
874.004	-2.01
874.171	1.43
874.337	2.81
874.503	3.92
874.67	3.11
874.836	2.27
875.002	3.99
875.169	3.96
875.335	2.77
875.501	0.45
875.668	4.26
875.834	1.7
876	1.01
876.166	3.7
876.332	2.22
876.499	6.17
876.665	-0.15
876.831	2.99
876.997	6.75
877.163	2
877.329	-0.61
877.495	2.49
877.662	3.86
877.828	3.15
877.994	0.94
878.16	-1.02
878.326	1.99
878.492	2.98
878.658	0.07
878.824	3.56
878.99	2.38
879.156	1.08
879.322	4.27
879.487	1.27
879.653	0.93
879.819	3.24
879.985	1.02
880.151	1.6
880.317	2.69
880.483	2.37
880.648	4.74
880.814	-0.64
880.98	1.83
881.146	-1.17
881.312	1.22
881.477	0.33
881.643	2.14
881.809	2.76
881.974	3.48
882.14	-0.7
882.306	2.33
882.471	6.46
882.637	1.88
882.803	3.05
882.968	6.43
883.134	8.24
883.299	2.18
883.465	1.23
883.63	2.24
883.796	4.41
883.961	0.62
884.127	0.09
884.292	-1.84
884.458	-0.83
884.623	-0.83
