Data from Apollo_Calib_20240827__AbsoluteIrradiance__792__12-21-02-155.txt Node

Date: Wed Aug 28 12:21:02 BST 2024
User: biology
Spectrometer: FLMT08252
Trigger mode: 0
Integration Time (sec): 5.000000E-1
Scans to average: 5
Electric dark correction enabled: true
Nonlinearity correction enabled: false
Boxcar width: 0
XAxis mode: Wavelengths
Number of Pixels in Spectrum: 3648
>>>>>Begin Spectral Data<<<<<
179.588	-0
179.809	-0
180.03	-0
180.251	-0
180.473	-0
180.694	0
180.915	0
181.136	-0
181.357	0
181.578	-0
181.799	0
182.02	-0
182.241	-0
182.462	-0
182.683	0
182.904	-0
183.125	-0
183.346	0
183.567	0
183.788	0
184.009	0
184.23	0
184.451	0
184.672	0
184.892	0
185.113	0
185.334	0
185.555	0
185.776	0
185.996	0
186.217	0
186.438	0
186.659	0
186.879	0
187.1	0
187.321	0
187.541	0
187.762	0
187.983	0
188.203	0
188.424	0
188.644	0
188.865	0
189.086	0
189.306	0
189.527	0
189.747	0
189.968	0
190.188	0
190.409	0
190.629	0
190.849	0
191.07	0
191.29	0
191.511	0
191.731	0
191.951	0
192.172	0
192.392	0
192.612	0
192.833	0
193.053	0
193.273	0
193.493	0
193.714	0
193.934	0
194.154	0
194.374	0
194.594	0
194.815	0
195.035	0
195.255	0
195.475	0
195.695	0
195.915	0
196.135	0
196.355	0
196.575	0
196.795	0
197.015	0
197.235	0
197.455	0
197.675	0
197.895	0
198.115	0
198.335	0
198.555	0
198.775	0
198.995	0
199.214	0
199.434	0
199.654	0
199.874	0
200.094	4.02
200.313	2.8
200.533	1.9
200.753	1.9
200.973	3.62
201.192	3.11
201.412	1.37
201.632	2.07
201.851	3.61
202.071	1.53
202.291	2.12
202.51	1.37
202.73	2.63
202.95	1.7
203.169	1
203.389	2.02
203.608	2.08
203.828	1.71
204.047	1.77
204.267	2.04
204.486	1.92
204.706	2.26
204.925	1.72
205.145	1.37
205.364	2.25
205.583	2.42
205.803	1.24
206.022	1.22
206.242	1.79
206.461	1.73
206.68	0.94
206.9	1.47
207.119	2.66
207.338	2
207.557	1.15
207.777	1.13
207.996	1.63
208.215	2.4
208.434	0.96
208.654	0.85
208.873	1.76
209.092	1.9
209.311	1.34
209.53	1.22
209.749	1.07
209.968	1.15
210.187	1.15
210.407	0.88
210.626	1.18
210.845	1.44
211.064	0.86
211.283	0.81
211.502	1.76
211.721	1.1
211.94	0.85
212.159	1.48
212.377	1.45
212.596	1.6
212.815	1.13
213.034	1.24
213.253	1.33
213.472	1.47
213.691	1.01
213.91	0.69
214.128	0.78
214.347	1.47
214.566	0.61
214.785	0.7
215.003	1.25
215.222	1.37
215.441	0.7
215.66	0.44
215.878	1.01
216.097	1.24
216.316	0.81
216.534	0.95
216.753	0.99
216.972	0.9
217.19	0.88
217.409	0.6
217.627	0.79
217.846	0.89
218.064	0.85
218.283	0.71
218.501	1.33
218.72	1.35
218.938	0.66
219.157	0.84
219.375	1.07
219.594	1.09
219.812	0.51
220.031	0.46
220.249	1.27
220.467	1.1
220.686	0.68
220.904	0.48
221.122	0.76
221.341	1.22
221.559	1.07
221.777	0.5
221.995	0.77
222.214	0.9
222.432	0.62
222.65	0.81
222.868	0.77
223.086	0.76
223.305	0.93
223.523	0.59
223.741	1.03
223.959	0.75
224.177	0.38
224.395	0.51
224.613	0.86
224.831	1.13
225.049	0.47
225.267	0.65
225.485	0.76
225.703	0.83
225.921	0.56
226.139	0.64
226.357	0.95
226.575	0.74
226.793	0.46
227.011	1.55
227.229	0.79
227.447	0.87
227.665	0.55
227.883	0.43
228.1	0.7
228.318	0.69
228.536	0.24
228.754	0.55
228.972	0.8
229.189	0.81
229.407	0.67
229.625	0.57
229.843	0.87
230.06	0.74
230.278	0.5
230.496	0.58
230.713	0.7
230.931	0.81
231.149	0.47
231.366	0.37
231.584	0.56
231.801	1.03
232.019	0.48
232.236	0.34
232.454	0.41
232.671	0.6
232.889	0.48
233.106	0.31
233.324	0.64
233.541	0.57
233.759	0.54
233.976	0.37
234.194	0.58
234.411	0.54
234.628	0.43
234.846	0.53
235.063	0.54
235.28	0.57
235.498	0.49
235.715	0.35
235.932	0.83
236.149	0.48
236.367	0.5
236.584	0.53
236.801	0.5
237.018	0.78
237.236	0.55
237.453	0.25
237.67	0.75
237.887	0.5
238.104	0.43
238.321	0.37
238.538	0.43
238.755	0.69
238.973	0.34
239.19	0.49
239.407	0.6
239.624	0.52
239.841	0.3
240.058	0.31
240.275	0.56
240.492	0.51
240.709	0.44
240.925	0.36
241.142	0.61
241.359	0.34
241.576	0.35
241.793	0.27
242.01	0.45
242.227	0.62
242.444	0.54
242.66	0.6
242.877	0.48
243.094	0.44
243.311	0.43
243.527	0.47
243.744	0.53
243.961	0.53
244.178	0.31
244.394	0.43
244.611	0.62
244.828	0.67
245.044	0.31
245.261	0.38
245.477	0.44
245.694	0.57
245.911	0.36
246.127	0.54
246.344	0.69
246.56	0.52
246.777	0.38
246.993	0.44
247.21	0.49
247.426	0.42
247.643	0.36
247.859	0.35
248.076	0.34
248.292	0.62
248.508	0.38
248.725	0.57
248.941	0.47
249.157	0.63
249.374	0.31
249.59	0.37
249.806	0.45
250.023	0.49
250.239	0.39
250.455	0.31
250.671	0.39
250.888	0.5
251.104	0.48
251.32	0.35
251.536	0.43
251.752	0.36
251.969	0.38
252.185	0.4
252.401	0.69
252.617	0.42
252.833	0.32
253.049	0.44
253.265	0.42
253.481	0.41
253.697	0.39
253.913	0.35
254.129	0.42
254.345	0.44
254.561	0.32
254.777	0.39
254.993	0.57
255.209	0.5
255.425	0.34
255.641	0.28
255.857	0.55
256.073	0.4
256.288	0.24
256.504	0.35
256.72	0.47
256.936	0.5
257.152	0.32
257.367	0.33
257.583	0.43
257.799	0.56
258.015	0.34
258.23	0.3
258.446	0.58
258.662	0.33
258.877	0.28
259.093	0.31
259.309	0.38
259.524	0.51
259.74	0.28
259.955	0.22
260.171	0.35
260.387	0.29
260.602	0.41
260.818	0.42
261.033	0.3
261.249	0.34
261.464	0.36
261.68	0.26
261.895	0.43
262.11	0.53
262.326	0.28
262.541	0.28
262.757	0.53
262.972	0.44
263.187	0.4
263.403	0.35
263.618	0.51
263.833	0.39
264.049	0.31
264.264	0.34
264.479	0.44
264.694	0.53
264.91	0.25
265.125	0.35
265.34	0.48
265.555	0.56
265.77	0.38
265.986	0.29
266.201	0.39
266.416	0.52
266.631	0.35
266.846	0.35
267.061	0.44
267.276	0.41
267.491	0.2
267.706	0.42
267.921	0.38
268.136	0.43
268.351	0.32
268.566	0.26
268.781	0.47
268.996	0.44
269.211	0.38
269.426	0.23
269.641	0.29
269.856	0.48
270.071	0.23
270.285	0.22
270.5	0.4
270.715	0.4
270.93	0.29
271.145	0.38
271.359	0.42
271.574	0.39
271.789	0.32
272.004	0.25
272.218	0.31
272.433	0.34
272.648	0.28
272.862	0.34
273.077	0.37
273.292	0.33
273.506	0.28
273.721	0.28
273.936	0.44
274.15	0.46
274.365	0.27
274.579	0.35
274.794	0.39
275.008	0.46
275.223	0.24
275.437	0.28
275.652	0.39
275.866	0.38
276.081	0.31
276.295	0.41
276.509	0.38
276.724	0.34
276.938	0.36
277.153	0.4
277.367	0.36
277.581	0.32
277.796	0.29
278.01	0.23
278.224	0.38
278.438	0.49
278.653	0.26
278.867	0.25
279.081	0.24
279.295	0.31
279.51	0.3
279.724	0.21
279.938	0.36
280.152	0.4
280.366	0.25
280.58	0.28
280.794	0.38
281.008	0.31
281.222	0.36
281.437	0.44
281.651	0.35
281.865	0.39
282.079	0.31
282.293	0.18
282.507	0.24
282.721	0.29
282.935	0.3
283.148	0.23
283.362	0.31
283.576	0.26
283.79	0.3
284.004	0.23
284.218	0.4
284.432	0.28
284.646	0.28
284.859	0.24
285.073	0.27
285.287	0.3
285.501	0.32
285.714	0.29
285.928	0.32
286.142	0.36
286.356	0.28
286.569	0.26
286.783	0.4
286.997	0.36
287.21	0.29
287.424	0.33
287.637	0.29
287.851	0.29
288.065	0.35
288.278	0.28
288.492	0.31
288.705	0.25
288.919	0.3
289.132	0.18
289.346	0.3
289.559	0.2
289.773	0.19
289.986	0.31
290.2	0.3
290.413	0.34
290.626	0.21
290.84	0.23
291.053	0.28
291.267	0.38
291.48	0.28
291.693	0.26
291.906	0.26
292.12	0.28
292.333	0.26
292.546	0.25
292.76	0.41
292.973	0.33
293.186	0.35
293.399	0.24
293.612	0.4
293.826	0.27
294.039	0.31
294.252	0.19
294.465	0.37
294.678	0.32
294.891	0.27
295.104	0.24
295.317	0.24
295.53	0.26
295.743	0.28
295.956	0.25
296.169	0.39
296.382	0.3
296.595	0.25
296.808	0.25
297.021	0.34
297.234	0.39
297.447	0.26
297.66	0.28
297.873	0.35
298.086	0.34
298.299	0.21
298.511	0.21
298.724	0.23
298.937	0.25
299.15	0.16
299.363	0.26
299.575	0.33
299.788	0.31
300.001	0.23
300.213	0.23
300.426	0.25
300.639	0.24
300.852	0.21
301.064	0.33
301.277	0.37
301.489	0.34
301.702	0.29
301.915	0.22
302.127	0.27
302.34	0.31
302.552	0.28
302.765	0.19
302.977	0.31
303.19	0.23
303.402	0.28
303.615	0.23
303.827	0.22
304.04	0.3
304.252	0.28
304.464	0.25
304.677	0.39
304.889	0.26
305.102	0.24
305.314	0.23
305.526	0.31
305.739	0.29
305.951	0.21
306.163	0.22
306.375	0.34
306.588	0.22
306.8	0.22
307.012	0.19
307.224	0.3
307.436	0.33
307.649	0.21
307.861	0.2
308.073	0.27
308.285	0.25
308.497	0.17
308.709	0.24
308.921	0.29
309.133	0.33
309.346	0.25
309.558	0.23
309.77	0.29
309.982	0.33
310.194	0.3
310.406	0.2
310.617	0.37
310.829	0.3
311.041	0.31
311.253	0.19
311.465	0.26
311.677	0.28
311.889	0.22
312.101	0.23
312.313	0.33
312.524	0.37
312.736	0.2
312.948	0.22
313.16	0.39
313.372	0.33
313.583	0.26
313.795	0.25
314.007	0.25
314.218	0.32
314.43	0.25
314.642	0.2
314.853	0.19
315.065	0.34
315.277	0.25
315.488	0.24
315.7	0.31
315.912	0.28
316.123	0.3
316.335	0.23
316.546	0.39
316.758	0.28
316.969	0.22
317.181	0.22
317.392	0.3
317.604	0.35
317.815	0.25
318.026	0.23
318.238	0.21
318.449	0.3
318.661	0.17
318.872	0.18
319.083	0.23
319.295	0.31
319.506	0.23
319.717	0.24
319.929	0.31
320.14	0.3
320.351	0.24
320.562	0.22
320.774	0.29
320.985	0.27
321.196	0.19
321.407	0.16
321.618	0.3
321.829	0.24
322.041	0.27
322.252	0.26
322.463	0.3
322.674	0.25
322.885	0.21
323.096	0.21
323.307	0.27
323.518	0.3
323.729	0.23
323.94	0.2
324.151	0.23
324.362	0.34
324.573	0.3
324.784	0.2
324.995	0.31
325.206	0.27
325.417	0.21
325.628	0.23
325.838	0.26
326.049	0.3
326.26	0.31
326.471	0.19
326.682	0.26
326.892	0.29
327.103	0.18
327.314	0.22
327.525	0.33
327.735	0.3
327.946	0.18
328.157	0.21
328.368	0.3
328.578	0.27
328.789	0.29
328.999	0.31
329.21	0.23
329.421	0.3
329.631	0.25
329.842	0.21
330.052	0.28
330.263	0.33
330.473	0.26
330.684	0.25
330.894	0.26
331.105	0.25
331.315	0.26
331.526	0.17
331.736	0.35
331.947	0.26
332.157	0.26
332.367	0.17
332.578	0.31
332.788	0.38
332.999	0.26
333.209	0.26
333.419	0.19
333.629	0.28
333.84	0.22
334.05	0.23
334.26	0.34
334.47	0.23
334.681	0.26
334.891	0.25
335.101	0.32
335.311	0.37
335.521	0.26
335.732	0.21
335.942	0.27
336.152	0.28
336.362	0.27
336.572	0.24
336.782	0.27
336.992	0.23
337.202	0.22
337.412	0.22
337.622	0.3
337.832	0.24
338.042	0.27
338.252	0.2
338.462	0.26
338.672	0.26
338.882	0.21
339.092	0.31
339.302	0.35
339.511	0.31
339.721	0.26
339.931	0.23
340.141	0.34
340.351	0.32
340.561	0.34
340.77	0.27
340.98	0.31
341.19	0.3
341.4	0.22
341.609	0.21
341.819	0.29
342.029	0.22
342.238	0.23
342.448	0.23
342.658	0.27
342.867	0.28
343.077	0.29
343.286	0.21
343.496	0.27
343.706	0.36
343.915	0.21
344.125	0.28
344.334	0.31
344.544	0.2
344.753	0.21
344.963	0.2
345.172	0.21
345.381	0.21
345.591	0.21
345.8	0.2
346.01	0.32
346.219	0.3
346.428	0.09
346.638	0.2
346.847	0.25
347.056	0.37
347.266	0.2
347.475	0.25
347.684	0.3
347.893	0.27
348.103	0.31
348.312	0.21
348.521	0.24
348.73	0.27
348.94	0.28
349.149	0.24
349.358	0.25
349.567	0.23
349.776	0.17
349.985	0.21
350.194	0.3
350.403	0.33
350.612	0.18
350.821	0.28
351.03	0.31
351.239	0.19
351.448	0.24
351.657	0.19
351.866	0.37
352.075	0.25
352.284	0.23
352.493	0.22
352.702	0.3
352.911	0.25
353.12	0.29
353.329	0.21
353.538	0.29
353.746	0.25
353.955	0.19
354.164	0.27
354.373	0.21
354.582	0.29
354.79	0.22
354.999	0.28
355.208	0.26
355.416	0.3
355.625	0.2
355.834	0.24
356.042	0.31
356.251	0.23
356.46	0.2
356.668	0.25
356.877	0.36
357.085	0.33
357.294	0.17
357.503	0.26
357.711	0.23
357.92	0.36
358.128	0.23
358.337	0.26
358.545	0.25
358.754	0.21
358.962	0.28
359.17	0.22
359.379	0.27
359.587	0.28
359.796	0.26
360.004	0.33
360.212	0.3
360.421	0.33
360.629	0.27
360.837	0.24
361.046	0.33
361.254	0.4
361.462	0.24
361.67	0.23
361.879	0.28
362.087	0.31
362.295	0.28
362.503	0.21
362.711	0.21
362.92	0.19
363.128	0.18
363.336	0.18
363.544	0.21
363.752	0.28
363.96	0.24
364.168	0.21
364.376	0.28
364.584	0.27
364.792	0.31
365	0.26
365.208	0.24
365.416	0.28
365.624	0.28
365.832	0.16
366.04	0.35
366.248	0.24
366.456	0.26
366.664	0.27
366.872	0.3
367.079	0.27
367.287	0.26
367.495	0.26
367.703	0.21
367.911	0.25
368.118	0.2
368.326	0.24
368.534	0.22
368.742	0.29
368.949	0.2
369.157	0.19
369.365	0.28
369.572	0.21
369.78	0.21
369.988	0.28
370.195	0.28
370.403	0.27
370.61	0.24
370.818	0.23
371.026	0.31
371.233	0.17
371.441	0.22
371.648	0.22
371.856	0.27
372.063	0.27
372.271	0.23
372.478	0.21
372.685	0.19
372.893	0.34
373.1	0.24
373.308	0.26
373.515	0.38
373.722	0.34
373.93	0.22
374.137	0.26
374.344	0.37
374.552	0.37
374.759	0.27
374.966	0.23
375.173	0.25
375.381	0.33
375.588	0.23
375.795	0.2
376.002	0.24
376.209	0.19
376.417	0.25
376.624	0.32
376.831	0.29
377.038	0.24
377.245	0.19
377.452	0.24
377.659	0.28
377.866	0.23
378.073	0.24
378.28	0.23
378.487	0.32
378.694	0.32
378.901	0.25
379.108	0.24
379.315	0.37
379.522	0.34
379.729	0.25
379.936	0.27
380.143	0.25
380.35	0.27
380.557	0.21
380.763	0.24
380.97	0.3
381.177	0.27
381.384	0.27
381.591	0.21
381.797	0.3
382.004	0.33
382.211	0.28
382.418	0.25
382.624	0.31
382.831	0.35
383.038	0.23
383.244	0.29
383.451	0.29
383.658	0.29
383.864	0.22
384.071	0.19
384.277	0.35
384.484	0.24
384.69	0.33
384.897	0.23
385.103	0.25
385.31	0.23
385.516	0.26
385.723	0.24
385.929	0.3
386.136	0.3
386.342	0.29
386.549	0.23
386.755	0.36
386.961	0.3
387.168	0.27
387.374	0.27
387.58	0.36
387.787	0.26
387.993	0.28
388.199	0.29
388.406	0.25
388.612	0.22
388.818	0.25
389.024	0.24
389.231	0.26
389.437	0.4
389.643	0.32
389.849	0.28
390.055	0.31
390.261	0.3
390.467	0.31
390.674	0.26
390.88	0.31
391.086	0.31
391.292	0.23
391.498	0.35
391.704	0.38
391.91	0.3
392.116	0.26
392.322	0.19
392.528	0.33
392.734	0.3
392.94	0.31
393.146	0.29
393.352	0.36
393.557	0.31
393.763	0.29
393.969	0.28
394.175	0.32
394.381	0.34
394.587	0.25
394.792	0.31
394.998	0.36
395.204	0.4
395.41	0.25
395.615	0.33
395.821	0.36
396.027	0.34
396.233	0.32
396.438	0.4
396.644	0.37
396.85	0.31
397.055	0.31
397.261	0.35
397.466	0.46
397.672	0.37
397.878	0.4
398.083	0.37
398.289	0.27
398.494	0.4
398.7	0.37
398.905	0.26
399.111	0.43
399.316	0.28
399.522	0.32
399.727	0.34
399.932	0.37
400.138	0.31
400.343	0.36
400.549	0.35
400.754	0.42
400.959	0.41
401.165	0.32
401.37	0.41
401.575	0.34
401.78	0.37
401.986	0.3
402.191	0.33
402.396	0.38
402.601	0.42
402.807	0.42
403.012	0.36
403.217	0.44
403.422	0.42
403.627	0.4
403.832	0.44
404.037	0.42
404.243	0.46
404.448	0.4
404.653	0.4
404.858	0.46
405.063	0.45
405.268	0.41
405.473	0.36
405.678	0.42
405.883	0.62
406.088	0.51
406.293	0.4
406.498	0.42
406.703	0.52
406.907	0.47
407.112	0.41
407.317	0.52
407.522	0.56
407.727	0.47
407.932	0.55
408.136	0.66
408.341	0.54
408.546	0.54
408.751	0.58
408.956	0.62
409.16	0.66
409.365	0.59
409.57	0.64
409.774	0.57
409.979	0.68
410.184	0.66
410.388	0.63
410.593	0.76
410.798	0.74
411.002	0.71
411.207	0.82
411.411	0.75
411.616	0.74
411.82	0.77
412.025	0.84
412.229	0.81
412.434	0.98
412.638	0.86
412.843	0.86
413.047	0.94
413.252	0.88
413.456	0.96
413.66	0.94
413.865	0.98
414.069	1.15
414.273	1.06
414.478	1.05
414.682	1.09
414.886	1.13
415.091	1.14
415.295	1.15
415.499	1.28
415.703	1.34
415.908	1.41
416.112	1.27
416.316	1.54
416.52	1.49
416.724	1.49
416.929	1.45
417.133	1.82
417.337	1.64
417.541	1.69
417.745	1.75
417.949	1.85
418.153	1.93
418.357	1.91
418.561	2.21
418.765	2.07
418.969	2.18
419.173	2.3
419.377	2.24
419.581	2.49
419.785	2.46
419.989	2.48
420.193	2.64
420.397	2.71
420.601	2.81
420.804	2.91
421.008	2.92
421.212	3.04
421.416	3.02
421.62	3.08
421.823	3.08
422.027	3.27
422.231	3.24
422.435	3.31
422.638	3.34
422.842	3.46
423.046	3.51
423.249	3.66
423.453	3.64
423.657	3.86
423.86	3.93
424.064	4.01
424.268	4.22
424.471	4.17
424.675	4.47
424.878	4.45
425.082	4.55
425.285	4.88
425.489	4.78
425.692	4.91
425.896	4.97
426.099	5.13
426.303	5.32
426.506	5.33
426.71	5.61
426.913	5.83
427.116	5.96
427.32	5.89
427.523	6.09
427.726	6.32
427.93	6.47
428.133	6.71
428.336	6.83
428.54	7.05
428.743	7.22
428.946	7.42
429.149	7.4
429.353	7.47
429.556	7.54
429.759	7.51
429.962	7.77
430.165	7.94
430.368	7.59
430.571	7.63
430.775	7.71
430.978	7.67
431.181	7.79
431.384	7.93
431.587	7.93
431.79	8.29
431.993	8.22
432.196	8.48
432.399	8.93
432.602	9.05
432.805	9.09
433.008	9.68
433.211	9.49
433.414	9.9
433.616	9.97
433.819	9.82
434.022	9.98
434.225	10.12
434.428	10.21
434.631	10.63
434.833	10.47
435.036	10.71
435.239	10.86
435.442	10.91
435.645	11.03
435.847	11.1
436.05	11.38
436.253	11.7
436.455	11.66
436.658	11.59
436.861	11.92
437.063	12.13
437.266	12
437.468	12.38
437.671	12.69
437.874	12.61
438.076	12.47
438.279	12.97
438.481	12.86
438.684	13.88
438.886	13.34
439.089	13.64
439.291	13.67
439.494	14.07
439.696	14.17
439.899	14.68
440.101	15.1
440.303	15.31
440.506	16.02
440.708	15.69
440.91	15.93
441.113	16.12
441.315	16.4
441.517	16.18
441.72	16.62
441.922	16.3
442.124	16.24
442.326	16.68
442.529	16.89
442.731	16.78
442.933	17.22
443.135	17.11
443.337	16.9
443.539	17.51
443.742	17.16
443.944	17.78
444.146	17.5
444.348	17.55
444.55	17.42
444.752	17.73
444.954	17.59
445.156	17.51
445.358	17.8
445.56	18.31
445.762	18.08
445.964	18.54
446.166	18.03
446.368	18.15
446.57	18.12
446.772	17.93
446.974	17.68
447.175	17.99
447.377	17.69
447.579	18.1
447.781	17.72
447.983	17.56
448.184	17.17
448.386	17.59
448.588	17.2
448.79	17.01
448.991	17.46
449.193	17.47
449.395	16.76
449.597	16.45
449.798	16.28
450	15.91
450.202	15.83
450.403	15.82
450.605	15.81
450.806	15.52
451.008	15.38
451.21	15.22
451.411	14.76
451.613	13.9
451.814	14.27
452.016	14.15
452.217	13.5
452.419	13.54
452.62	13.23
452.821	12.99
453.023	12.89
453.224	12.5
453.426	12.16
453.627	11.43
453.828	11.45
454.03	11.59
454.231	11.53
454.432	11.44
454.634	11.1
454.835	10.85
455.036	10.76
455.238	10.38
455.439	10.15
455.64	9.88
455.841	9.76
456.042	9.81
456.244	9.48
456.445	9.28
456.646	8.96
456.847	8.98
457.048	8.81
457.249	8.85
457.45	8.54
457.651	7.97
457.852	7.8
458.054	7.53
458.255	7.54
458.456	7.55
458.657	7.45
458.858	7.01
459.058	6.92
459.259	6.85
459.46	6.68
459.661	6.63
459.862	6.71
460.063	6.61
460.264	6.4
460.465	6.18
460.666	6.23
460.866	5.91
461.067	5.68
461.268	5.76
461.469	5.53
461.67	5.55
461.87	5.43
462.071	5.4
462.272	5.34
462.473	5.25
462.673	5.43
462.874	5.31
463.075	5.31
463.275	5.35
463.476	5.33
463.676	5.29
463.877	5.12
464.078	5.19
464.278	5.18
464.479	4.98
464.679	4.86
464.88	4.82
465.08	4.83
465.281	4.61
465.481	4.4
465.682	4.3
465.882	4.31
466.083	4.26
466.283	4.25
466.483	4.05
466.684	3.89
466.884	3.76
467.085	3.84
467.285	3.86
467.485	3.75
467.686	3.66
467.886	3.59
468.086	3.51
468.286	3.52
468.487	3.52
468.687	3.4
468.887	3.34
469.087	3.52
469.287	3.35
469.488	3.24
469.688	3.34
469.888	3.32
470.088	3.24
470.288	3.18
470.488	3.08
470.688	2.98
470.888	2.94
471.088	2.8
471.288	2.9
471.488	2.85
471.688	2.9
471.888	2.82
472.088	2.92
472.288	2.86
472.488	2.67
472.688	2.7
472.888	2.78
473.088	2.68
473.288	2.57
473.488	2.61
473.688	2.66
473.887	2.58
474.087	2.51
474.287	2.57
474.487	2.51
474.687	2.58
474.886	2.48
475.086	2.4
475.286	2.43
475.486	2.4
475.685	2.34
475.885	2.26
476.085	2.33
476.284	2.35
476.484	2.39
476.684	2.32
476.883	2.39
477.083	2.22
477.282	2.19
477.482	2.31
477.681	2.23
477.881	2.11
478.08	2.17
478.28	2.13
478.479	2.22
478.679	2.22
478.878	2.11
479.078	2.14
479.277	2.17
479.477	2.13
479.676	2.11
479.875	2.05
480.075	2.06
480.274	2.08
480.473	2.12
480.673	2.07
480.872	2.15
481.071	2.11
481.271	2.1
481.47	2.04
481.669	2.11
481.868	2
482.067	2.04
482.267	1.99
482.466	1.95
482.665	1.95
482.864	1.96
483.063	2.01
483.262	2.05
483.461	2.12
483.661	2.17
483.86	2.04
484.059	2.09
484.258	2.07
484.457	2.08
484.656	2.05
484.855	2.14
485.054	1.98
485.253	2.03
485.452	2
485.651	2.13
485.849	2.06
486.048	2.06
486.247	2.03
486.446	2.11
486.645	2.07
486.844	2.09
487.043	2.1
487.241	2.14
487.44	2.09
487.639	2.16
487.838	2.14
488.037	2.17
488.235	2.25
488.434	2.23
488.633	2.11
488.831	2.25
489.03	2.28
489.229	2.22
489.427	2.23
489.626	2.32
489.825	2.31
490.023	2.34
490.222	2.26
490.42	2.36
490.619	2.39
490.817	2.37
491.016	2.35
491.214	2.39
491.413	2.44
491.611	2.4
491.81	2.44
492.008	2.46
492.207	2.55
492.405	2.52
492.604	2.47
492.802	2.59
493	2.59
493.199	2.65
493.397	2.64
493.595	2.7
493.794	2.68
493.992	2.78
494.19	2.76
494.388	2.83
494.587	2.74
494.785	2.78
494.983	2.74
495.181	2.85
495.379	2.9
495.578	2.96
495.776	2.98
495.974	2.95
496.172	2.96
496.37	3.04
496.568	3.09
496.766	3.1
496.964	3.17
497.162	3.17
497.36	3.21
497.558	3.24
497.756	3.29
497.954	3.28
498.152	3.35
498.35	3.36
498.548	3.34
498.746	3.41
498.944	3.41
499.142	3.45
499.34	3.5
499.538	3.62
499.736	3.47
499.933	3.64
500.131	3.64
500.329	3.78
500.527	3.75
500.725	3.83
500.922	3.85
501.12	3.83
501.318	3.91
501.516	3.89
501.713	3.96
501.911	3.94
502.109	3.96
502.306	4.06
502.504	4.01
502.701	4.05
502.899	4.12
503.097	4.33
503.294	4.2
503.492	4.28
503.689	4.34
503.887	4.36
504.084	4.41
504.282	4.38
504.479	4.37
504.677	4.58
504.874	4.53
505.072	4.41
505.269	4.67
505.466	4.64
505.664	4.7
505.861	4.62
506.059	4.68
506.256	4.78
506.453	4.81
506.651	4.96
506.848	4.96
507.045	4.91
507.242	4.9
507.44	5.04
507.637	5.06
507.834	5.02
508.031	5.16
508.229	5.1
508.426	5.02
508.623	5.22
508.82	5.28
509.017	5.21
509.214	5.21
509.411	5.4
509.608	5.31
509.805	5.44
510.003	5.41
510.2	5.46
510.397	5.6
510.594	5.5
510.791	5.55
510.988	5.59
511.184	5.58
511.381	5.51
511.578	5.69
511.775	5.8
511.972	5.71
512.169	5.79
512.366	5.8
512.563	5.92
512.76	5.88
512.956	5.95
513.153	5.92
513.35	5.82
513.547	5.86
513.744	6.02
513.94	5.99
514.137	6.1
514.334	6.05
514.53	6.07
514.727	6.31
514.924	6.21
515.12	6.11
515.317	6.23
515.514	6.14
515.71	6.09
515.907	6.41
516.103	6.3
516.3	6.26
516.497	6.44
516.693	6.41
516.89	6.43
517.086	6.48
517.283	6.56
517.479	6.32
517.676	6.49
517.872	6.6
518.068	6.6
518.265	6.58
518.461	6.5
518.658	6.58
518.854	6.62
519.05	6.73
519.247	6.71
519.443	6.69
519.639	6.88
519.836	6.74
520.032	6.69
520.228	6.81
520.424	6.79
520.621	6.85
520.817	6.93
521.013	6.8
521.209	7.05
521.405	7.04
521.601	6.94
521.798	6.96
521.994	6.97
522.19	6.92
522.386	6.93
522.582	6.97
522.778	7.18
522.974	7
523.17	7.02
523.366	7.03
523.562	7.14
523.758	7.13
523.954	6.97
524.15	7.14
524.346	7.19
524.542	7.26
524.738	7.14
524.934	7.31
525.129	7.17
525.325	7.16
525.521	7.21
525.717	7.39
525.913	7.24
526.109	7.27
526.304	7.44
526.5	7.34
526.696	7.44
526.892	7.29
527.087	7.57
527.283	7.47
527.479	7.42
527.674	7.24
527.87	7.43
528.066	7.42
528.261	7.47
528.457	7.38
528.653	7.54
528.848	7.51
529.044	7.61
529.239	7.42
529.435	7.46
529.63	7.41
529.826	7.48
530.021	7.49
530.217	7.57
530.412	7.5
530.608	7.59
530.803	7.55
530.999	7.43
531.194	7.62
531.389	7.66
531.585	7.68
531.78	7.69
531.975	7.64
532.171	7.63
532.366	7.72
532.561	7.7
532.757	7.67
532.952	7.79
533.147	7.56
533.342	7.7
533.538	7.64
533.733	7.85
533.928	7.51
534.123	7.76
534.318	7.78
534.513	7.69
534.709	7.8
534.904	7.77
535.099	7.87
535.294	7.84
535.489	7.87
535.684	7.76
535.879	7.78
536.074	7.83
536.269	7.84
536.464	7.9
536.659	7.8
536.854	7.84
537.049	7.93
537.244	7.82
537.439	7.79
537.634	7.79
537.828	7.92
538.023	7.85
538.218	7.88
538.413	7.82
538.608	7.83
538.803	7.84
538.997	7.83
539.192	7.91
539.387	7.87
539.582	7.87
539.776	7.78
539.971	7.91
540.166	7.97
540.36	7.85
540.555	8.07
540.75	7.94
540.944	7.98
541.139	7.98
541.334	7.92
541.528	7.96
541.723	8.06
541.917	8.01
542.112	7.91
542.306	7.74
542.501	7.86
542.695	7.93
542.89	7.86
543.084	7.94
543.279	8.02
543.473	8.01
543.668	8.09
543.862	7.85
544.056	7.86
544.251	8.02
544.445	8.1
544.64	8.07
544.834	7.76
545.028	7.66
545.222	8.01
545.417	8.13
545.611	8.03
545.805	8.02
546	7.87
546.194	7.98
546.388	8.01
546.582	7.92
546.776	7.92
546.97	7.99
547.165	7.96
547.359	7.97
547.553	7.94
547.747	8
547.941	8.23
548.135	7.97
548.329	8.06
548.523	8.04
548.717	7.94
548.911	7.95
549.105	7.95
549.299	8.07
549.493	8.04
549.687	7.95
549.881	8.07
550.075	8.03
550.269	7.92
550.463	8.06
550.657	8
550.85	7.95
551.044	8.01
551.238	8.07
551.432	7.98
551.626	8.12
551.82	8.07
552.013	7.91
552.207	8.08
552.401	8.07
552.594	8.02
552.788	7.97
552.982	8.03
553.176	7.95
553.369	8.14
553.563	8.04
553.756	7.99
553.95	8.11
554.144	8.08
554.337	8.06
554.531	7.95
554.724	8.04
554.918	8.13
555.111	8.09
555.305	8.06
555.498	8
555.692	8.13
555.885	8.1
556.079	8.02
556.272	8.1
556.466	8
556.659	7.99
556.852	8.14
557.046	7.96
557.239	7.91
557.432	8.05
557.626	8.15
557.819	8.2
558.012	8.06
558.206	8.15
558.399	8.15
558.592	8.07
558.785	8.02
558.979	8.05
559.172	8.08
559.365	8.03
559.558	8.02
559.751	7.93
559.944	8.17
560.138	8.02
560.331	8.07
560.524	8.09
560.717	8.06
560.91	8.07
561.103	8.09
561.296	7.98
561.489	8.12
561.682	8.06
561.875	8.07
562.068	8.16
562.261	7.97
562.454	8.19
562.647	7.99
562.84	8.09
563.032	8.09
563.225	7.96
563.418	8.04
563.611	8.13
563.804	8.11
563.997	7.94
564.19	7.79
564.382	8.11
564.575	8.14
564.768	7.98
564.961	8.11
565.153	7.97
565.346	7.97
565.539	8.12
565.731	8.01
565.924	8.1
566.117	8.16
566.309	8.11
566.502	7.99
566.695	7.94
566.887	8.06
567.08	8.1
567.272	8.1
567.465	7.97
567.657	8.04
567.85	7.98
568.042	8.07
568.235	8.1
568.427	7.85
568.62	8.01
568.812	7.95
569.005	8.04
569.197	7.89
569.389	7.98
569.582	7.99
569.774	8
569.966	7.89
570.159	7.93
570.351	7.92
570.543	7.93
570.736	7.94
570.928	7.73
571.12	8.02
571.312	7.91
571.505	7.78
571.697	7.98
571.889	7.98
572.081	7.93
572.273	7.86
572.465	7.95
572.658	7.97
572.85	7.95
573.042	7.99
573.234	7.82
573.426	7.9
573.618	7.87
573.81	7.92
574.002	7.89
574.194	7.95
574.386	7.86
574.578	7.78
574.77	7.85
574.962	7.9
575.154	7.71
575.346	7.83
575.538	7.78
575.729	7.77
575.921	7.88
576.113	7.95
576.305	7.94
576.497	8
576.689	7.71
576.88	7.79
577.072	7.85
577.264	7.83
577.456	7.76
577.647	7.74
577.839	7.85
578.031	7.8
578.223	7.77
578.414	7.68
578.606	7.81
578.798	7.91
578.989	7.77
579.181	7.84
579.372	7.8
579.564	7.82
579.755	7.71
579.947	7.67
580.139	7.72
580.33	7.57
580.522	7.78
580.713	7.71
580.905	7.69
581.096	7.73
581.287	7.68
581.479	7.66
581.67	7.71
581.862	7.68
582.053	7.67
582.244	7.55
582.436	7.7
582.627	7.54
582.818	7.53
583.01	7.54
583.201	7.69
583.392	7.6
583.583	7.52
583.775	7.44
583.966	7.45
584.157	7.56
584.348	7.68
584.54	7.54
584.731	7.58
584.922	7.49
585.113	7.43
585.304	7.48
585.495	7.48
585.686	7.56
585.877	7.54
586.068	7.64
586.259	7.56
586.45	7.43
586.641	7.47
586.832	7.48
587.023	7.41
587.214	7.42
587.405	7.42
587.596	7.31
587.787	7.31
587.978	7.42
588.169	7.32
588.36	7.29
588.551	7.41
588.742	7.34
588.932	7.37
589.123	7.18
589.314	7.41
589.505	7.29
589.696	7.32
589.886	7.28
590.077	7.26
590.268	7.19
590.458	7.17
590.649	7.03
590.84	7.19
591.03	7.23
591.221	7.2
591.412	7.07
591.602	7.28
591.793	7.18
591.984	7.18
592.174	7.22
592.365	7.3
592.555	7.04
592.746	7.09
592.936	7.09
593.127	7.12
593.317	7.13
593.508	7.13
593.698	7.03
593.889	7.04
594.079	7.04
594.269	6.93
594.46	6.97
594.65	7.01
594.84	7.02
595.031	6.89
595.221	6.9
595.411	6.93
595.602	6.99
595.792	6.89
595.982	6.9
596.172	6.99
596.363	6.88
596.553	6.86
596.743	6.96
596.933	6.83
597.123	6.83
597.314	6.68
597.504	6.73
597.694	6.83
597.884	6.75
598.074	6.77
598.264	6.77
598.454	6.76
598.644	6.64
598.834	6.71
599.024	6.54
599.214	6.69
599.404	6.73
599.594	6.71
599.784	6.52
599.974	6.68
600.164	6.67
600.354	6.51
600.544	6.49
600.734	6.61
600.924	6.52
601.114	6.48
601.303	6.44
601.493	6.46
601.683	6.5
601.873	6.44
602.063	6.38
602.252	6.46
602.442	6.29
602.632	6.42
602.821	6.33
603.011	6.4
603.201	6.38
603.39	6.29
603.58	6.22
603.77	6.36
603.959	6.4
604.149	6.32
604.339	6.28
604.528	6.39
604.718	6.34
604.907	6.26
605.097	6.16
605.286	6.16
605.476	6.17
605.665	6.19
605.855	6.14
606.044	6.25
606.234	6.18
606.423	6.16
606.612	6.13
606.802	6.08
606.991	6.11
607.181	6.11
607.37	6.11
607.559	5.81
607.749	6.02
607.938	5.94
608.127	6.01
608.316	5.93
608.506	5.91
608.695	5.93
608.884	5.96
609.073	5.89
609.263	5.99
609.452	5.95
609.641	5.78
609.83	5.8
610.019	5.87
610.208	5.8
610.397	5.81
610.586	5.83
610.775	5.76
610.965	5.75
611.154	5.6
611.343	5.7
611.532	5.64
611.721	5.77
611.91	5.59
612.099	5.68
612.287	5.58
612.476	5.59
612.665	5.66
612.854	5.55
613.043	5.59
613.232	5.55
613.421	5.49
613.61	5.52
613.798	5.52
613.987	5.53
614.176	5.43
614.365	5.52
614.554	5.49
614.742	5.45
614.931	5.32
615.12	5.5
615.309	5.41
615.497	5.33
615.686	5.25
615.875	5.33
616.063	5.36
616.252	5.2
616.44	5.33
616.629	5.24
616.818	5.29
617.006	5.19
617.195	5.27
617.383	5.18
617.572	5.1
617.76	5.12
617.949	5.19
618.137	5.13
618.326	5.16
618.514	5
618.703	4.93
618.891	5.17
619.079	4.98
619.268	5.08
619.456	4.95
619.644	5.11
619.833	4.96
620.021	4.94
620.209	4.84
620.398	5.02
620.586	4.83
620.774	4.91
620.962	4.87
621.151	5.01
621.339	4.86
621.527	4.83
621.715	4.73
621.903	4.84
622.092	4.7
622.28	4.88
622.468	4.65
622.656	4.72
622.844	4.73
623.032	4.8
623.22	4.6
623.408	4.71
623.596	4.71
623.784	4.77
623.972	4.54
624.16	4.59
624.348	4.67
624.536	4.66
624.724	4.48
624.912	4.64
625.1	4.63
625.288	4.61
625.476	4.42
625.664	4.59
625.851	4.49
626.039	4.46
626.227	4.48
626.415	4.41
626.603	4.34
626.79	4.42
626.978	4.37
627.166	4.43
627.354	4.37
627.541	4.34
627.729	4.2
627.917	4.44
628.104	4.36
628.292	4.29
628.48	4.27
628.667	4.28
628.855	4.29
629.042	4.33
629.23	4.19
629.418	4.22
629.605	4.25
629.793	4.14
629.98	4.1
630.168	4.11
630.355	4.14
630.543	4.09
630.73	4.08
630.917	4.06
631.105	4.22
631.292	4.09
631.48	4.02
631.667	4.14
631.854	3.95
632.042	3.99
632.229	3.88
632.416	4.05
632.604	3.94
632.791	3.86
632.978	3.97
633.165	3.96
633.353	3.97
633.54	3.97
633.727	3.78
633.914	3.79
634.101	3.71
634.289	3.87
634.476	3.79
634.663	3.74
634.85	3.75
635.037	3.74
635.224	3.65
635.411	3.8
635.598	3.72
635.785	3.69
635.972	3.69
636.159	3.75
636.346	3.65
636.533	3.64
636.72	3.61
636.907	3.55
637.094	3.56
637.281	3.46
637.468	3.56
637.655	3.54
637.842	3.61
638.029	3.46
638.215	3.49
638.402	3.51
638.589	3.41
638.776	3.44
638.963	3.41
639.149	3.49
639.336	3.43
639.523	3.42
639.709	3.42
639.896	3.34
640.083	3.42
640.27	3.4
640.456	3.32
640.643	3.36
640.829	3.3
641.016	3.29
641.203	3.22
641.389	3.3
641.576	3.3
641.762	3.23
641.949	3.17
642.135	3.21
642.322	3.17
642.508	3.09
642.695	3.16
642.881	3.12
643.068	3.13
643.254	3.12
643.441	3.16
643.627	3.16
643.813	3.01
644	3.17
644.186	2.97
644.372	3.12
644.559	3.07
644.745	3.03
644.931	2.96
645.118	3.05
645.304	3.04
645.49	2.93
645.676	2.93
645.862	2.98
646.049	3.05
646.235	2.9
646.421	3.04
646.607	3.04
646.793	2.86
646.979	2.82
647.165	2.88
647.352	2.91
647.538	2.86
647.724	2.81
647.91	2.8
648.096	2.82
648.282	2.84
648.468	2.78
648.654	2.76
648.84	2.78
649.026	2.8
649.212	2.73
649.397	2.7
649.583	2.72
649.769	2.71
649.955	2.67
650.141	2.66
650.327	2.67
650.513	2.64
650.698	2.69
650.884	2.53
651.07	2.71
651.256	2.6
651.442	2.59
651.627	2.54
651.813	2.65
651.999	2.49
652.184	2.56
652.37	2.53
652.556	2.58
652.741	2.58
652.927	2.39
653.113	2.5
653.298	2.49
653.484	2.5
653.669	2.48
653.855	2.47
654.04	2.49
654.226	2.42
654.412	2.37
654.597	2.28
654.782	2.42
654.968	2.47
655.153	2.4
655.339	2.38
655.524	2.35
655.71	2.42
655.895	2.36
656.08	2.3
656.266	2.39
656.451	2.29
656.636	2.19
656.822	2.28
657.007	2.27
657.192	2.26
657.378	2.24
657.563	2.23
657.748	2.26
657.933	2.29
658.118	2.17
658.304	2.19
658.489	2.25
658.674	2.23
658.859	2.11
659.044	2.15
659.229	2.24
659.414	2.16
659.599	2.1
659.785	2.11
659.97	2.11
660.155	2.12
660.34	2.15
660.525	2.04
660.71	2.09
660.895	2.08
661.08	2.05
661.264	2.05
661.449	2.13
661.634	2.06
661.819	2.07
662.004	2.01
662.189	1.95
662.374	1.93
662.559	1.96
662.743	1.92
662.928	2
663.113	1.94
663.298	1.92
663.483	1.93
663.667	1.92
663.852	1.9
664.037	1.96
664.221	1.88
664.406	1.99
664.591	1.96
664.775	1.93
664.96	1.87
665.145	1.9
665.329	1.96
665.514	1.85
665.698	1.8
665.883	1.78
666.068	1.89
666.252	1.82
666.437	1.71
666.621	1.84
666.806	1.86
666.99	1.82
667.174	1.74
667.359	1.86
667.543	1.76
667.728	1.75
667.912	1.65
668.096	1.75
668.281	1.65
668.465	1.72
668.649	1.73
668.834	1.66
669.018	1.7
669.202	1.71
669.387	1.67
669.571	1.77
669.755	1.63
669.939	1.65
670.124	1.64
670.308	1.71
670.492	1.73
670.676	1.64
670.86	1.55
671.044	1.56
671.228	1.72
671.413	1.58
671.597	1.57
671.781	1.6
671.965	1.63
672.149	1.59
672.333	1.61
672.517	1.53
672.701	1.6
672.885	1.52
673.069	1.44
673.253	1.67
673.437	1.56
673.621	1.5
673.804	1.51
673.988	1.53
674.172	1.54
674.356	1.39
674.54	1.5
674.724	1.63
674.908	1.53
675.091	1.52
675.275	1.47
675.459	1.51
675.643	1.52
675.826	1.47
676.01	1.45
676.194	1.42
676.377	1.44
676.561	1.5
676.745	1.42
676.928	1.46
677.112	1.45
677.296	1.41
677.479	1.41
677.663	1.39
677.846	1.37
678.03	1.38
678.213	1.29
678.397	1.41
678.58	1.38
678.764	1.35
678.947	1.27
679.131	1.36
679.314	1.4
679.498	1.3
679.681	1.3
679.865	1.41
680.048	1.34
680.231	1.24
680.415	1.29
680.598	1.32
680.781	1.28
680.965	1.22
681.148	1.26
681.331	1.2
681.514	1.29
681.698	1.22
681.881	1.23
682.064	1.31
682.247	1.26
682.43	1.16
682.614	1.25
682.797	1.3
682.98	1.32
683.163	1.12
683.346	1.25
683.529	1.19
683.712	1.14
683.895	1.24
684.078	1.11
684.261	1.13
684.444	1.21
684.627	1.2
684.81	1.09
684.993	1.14
685.176	1.21
685.359	1.08
685.542	1.1
685.725	1.26
685.908	1.12
686.091	1.09
686.274	1.2
686.457	1.15
686.639	1.11
686.822	1.15
687.005	1.12
687.188	1.17
687.371	1.19
687.553	1.13
687.736	1.11
687.919	1.25
688.102	1.22
688.284	1.08
688.467	1.04
688.65	1.11
688.832	1.04
689.015	1.03
689.197	0.95
689.38	1.17
689.563	1.15
689.745	0.99
689.928	1.06
690.11	1.06
690.293	1.1
690.475	0.95
690.658	1.04
690.84	1.05
691.023	1.03
691.205	1.01
691.388	1.05
691.57	1.08
691.752	1.05
691.935	0.88
692.117	0.91
692.3	1.03
692.482	0.95
692.664	0.94
692.847	0.96
693.029	1.03
693.211	1.02
693.393	0.95
693.576	0.92
693.758	0.96
693.94	0.97
694.122	0.92
694.304	0.88
694.487	0.9
694.669	0.97
694.851	0.85
695.033	0.87
695.215	0.92
695.397	0.9
695.579	0.91
695.761	0.89
695.943	0.87
696.125	0.99
696.308	0.91
696.49	0.76
696.671	1.06
696.853	0.86
697.035	1.08
697.217	0.89
697.399	1.01
697.581	0.8
697.763	0.89
697.945	0.81
698.127	0.84
698.309	0.94
698.491	0.87
698.672	0.9
698.854	0.94
699.036	0.9
699.218	0.84
699.399	0.84
699.581	0.93
699.763	0.82
699.945	0.79
700.126	0.76
700.308	0.84
700.49	0.82
700.671	0.76
700.853	0.8
701.035	0.83
701.216	0.84
701.398	0.75
701.579	0.72
701.761	0.88
701.943	0.75
702.124	0.7
702.306	0.79
702.487	0.96
702.669	0.73
702.85	0.74
703.031	0.65
703.213	0.92
703.394	0.8
703.576	0.73
703.757	0.91
703.938	0.83
704.12	0.96
704.301	0.79
704.483	0.69
704.664	0.82
704.845	0.88
705.026	0.85
705.208	0.72
705.389	0.76
705.57	0.81
705.751	0.72
705.933	0.78
706.114	0.89
706.295	0.75
706.476	0.63
706.657	0.82
706.838	0.77
707.02	0.78
707.201	0.63
707.382	0.69
707.563	0.78
707.744	0.68
707.925	0.62
708.106	0.68
708.287	0.74
708.468	0.88
708.649	0.74
708.83	0.81
709.011	0.6
709.192	0.79
709.373	0.63
709.554	0.65
709.734	0.74
709.915	0.68
710.096	0.69
710.277	0.55
710.458	0.7
710.639	0.74
710.819	0.51
711	0.64
711.181	0.73
711.362	0.75
711.542	0.65
711.723	0.69
711.904	0.75
712.085	0.68
712.265	0.69
712.446	0.52
712.627	0.67
712.807	0.58
712.988	0.68
713.168	0.53
713.349	0.58
713.53	0.44
713.71	0.51
713.891	0.51
714.071	0.62
714.252	0.62
714.432	0.63
714.613	0.56
714.793	0.6
714.974	0.72
715.154	0.71
715.334	0.7
715.515	0.68
715.695	0.57
715.876	0.54
716.056	0.62
716.236	0.57
716.417	0.55
716.597	0.57
716.777	0.81
716.957	0.65
717.138	0.63
717.318	0.57
717.498	0.51
717.678	0.66
717.859	0.6
718.039	0.5
718.219	0.55
718.399	0.61
718.579	0.5
718.759	0.51
718.939	0.6
719.12	0.62
719.3	0.63
719.48	0.33
719.66	0.46
719.84	0.61
720.02	0.56
720.2	0.44
720.38	0.56
720.56	0.73
720.74	0.49
720.92	0.54
721.1	0.71
721.279	0.64
721.459	0.57
721.639	0.44
721.819	0.62
721.999	0.53
722.179	0.68
722.359	0.42
722.538	0.56
722.718	0.55
722.898	0.49
723.078	0.52
723.257	0.54
723.437	0.58
723.617	0.58
723.797	0.51
723.976	0.57
724.156	0.56
724.336	0.68
724.515	0.67
724.695	0.42
724.874	0.48
725.054	0.63
725.234	0.54
725.413	0.45
725.593	0.5
725.772	0.5
725.952	0.57
726.131	0.49
726.311	0.51
726.49	0.52
726.67	0.42
726.849	0.45
727.028	0.54
727.208	0.54
727.387	0.58
727.567	0.46
727.746	0.5
727.925	0.43
728.105	0.41
728.284	0.5
728.463	0.48
728.643	0.58
728.822	0.38
729.001	0.44
729.18	0.51
729.359	0.52
729.539	0.55
729.718	0.49
729.897	0.54
730.076	0.5
730.255	0.44
730.434	0.5
730.614	0.54
730.793	0.65
730.972	0.45
731.151	0.49
731.33	0.65
731.509	0.59
731.688	0.47
731.867	0.46
732.046	0.35
732.225	0.68
732.404	0.36
732.583	0.36
732.762	0.44
732.941	0.58
733.12	0.52
733.298	0.45
733.477	0.74
733.656	0.35
733.835	0.32
734.014	0.55
734.193	0.51
734.371	0.61
734.55	0.57
734.729	0.35
734.908	0.46
735.086	0.59
735.265	0.58
735.444	0.36
735.623	0.44
735.801	0.43
735.98	0.46
736.159	0.46
736.337	0.6
736.516	0.58
736.694	0.51
736.873	0.38
737.052	0.74
737.23	0.71
737.409	0.42
737.587	0.61
737.766	0.32
737.944	0.48
738.123	0.58
738.301	0.6
738.479	0.45
738.658	0.49
738.836	0.22
739.015	0.51
739.193	0.65
739.371	0.39
739.55	0.49
739.728	0.4
739.906	0.61
740.085	0.71
740.263	0.52
740.441	0.25
740.62	0.84
740.798	0.57
740.976	0.44
741.154	0.3
741.332	0.69
741.511	0.4
741.689	0.5
741.867	0.65
742.045	0.52
742.223	0.52
742.401	0.4
742.579	0.37
742.757	0.6
742.935	0.25
743.114	0.43
743.292	0.45
743.47	0.56
743.648	0.5
743.826	0.41
744.004	0.53
744.181	0.7
744.359	0.44
744.537	0.45
744.715	0.36
744.893	0.4
745.071	0.53
745.249	0.46
745.427	0.37
745.605	0.42
745.782	0.45
745.96	0.46
746.138	0.61
746.316	0.57
746.493	0.35
746.671	0.38
746.849	0.48
747.027	0.6
747.204	0.37
747.382	0.5
747.56	0.3
747.737	0.55
747.915	0.38
748.093	0.39
748.27	0.35
748.448	0.37
748.625	0.29
748.803	0.3
748.98	0.34
749.158	0.39
749.335	0.51
749.513	0.39
749.69	0.39
749.868	0.56
750.045	0.48
750.223	0.33
750.4	0.22
750.578	0.6
750.755	0.43
750.932	0.25
751.11	0.46
751.287	0.34
751.464	0.59
751.642	0.28
751.819	0.37
751.996	0.46
752.173	0.3
752.351	0.27
752.528	0.41
752.705	0.52
752.882	0.38
753.06	0.41
753.237	0.46
753.414	0.55
753.591	0.69
753.768	0.32
753.945	0.39
754.122	0.33
754.299	0.51
754.476	0.31
754.654	0.44
754.831	0.52
755.008	0.49
755.185	0.19
755.362	0.26
755.539	0.49
755.716	0.39
755.892	0.41
756.069	0.33
756.246	0.4
756.423	0.4
756.6	0.63
756.777	0.33
756.954	0.57
757.131	0.32
757.307	0.31
757.484	0.27
757.661	0.38
757.838	0.43
758.015	0.22
758.191	0.5
758.368	0.56
758.545	0.7
758.721	0.32
758.898	0.24
759.075	0.39
759.251	0.43
759.428	0.52
759.605	0.2
759.781	0.36
759.958	0.42
760.134	0.43
760.311	0.3
760.488	0.52
760.664	0.54
760.841	0.43
761.017	0.31
761.194	0.5
761.37	0.6
761.547	0.4
761.723	0.31
761.899	0.61
762.076	0.17
762.252	0.27
762.429	0.31
762.605	0.49
762.781	0.3
762.958	0.54
763.134	0.21
763.31	0.34
763.486	0.62
763.663	0.1
763.839	0.44
764.015	0.14
764.191	0.33
764.368	0.38
764.544	0.28
764.72	0.45
764.896	0.44
765.072	0.4
765.248	0.4
765.425	0.43
765.601	0.37
765.777	0.52
765.953	0.08
766.129	0.24
766.305	0.26
766.481	0.44
766.657	0.55
766.833	0.62
767.009	0.25
767.185	0.33
767.361	0.31
767.537	0.12
767.713	0.57
767.889	0.33
768.065	0.38
768.24	0.47
768.416	0.41
768.592	0.33
768.768	0.37
768.944	0.57
769.12	0.3
769.295	0.4
769.471	0.22
769.647	0.41
769.823	0.6
769.998	0.25
770.174	0.22
770.35	0.76
770.525	0.66
770.701	0.39
770.877	0.26
771.052	0.36
771.228	0.66
771.403	0.48
771.579	0.59
771.755	0.87
771.93	0.22
772.106	0.14
772.281	0.16
772.457	0.44
772.632	0.53
772.808	0.28
772.983	0.4
773.159	0.09
773.334	0.49
773.509	0.43
773.685	0.2
773.86	0.87
774.036	0.53
774.211	0.34
774.386	0.35
774.562	0.44
774.737	0.5
774.912	0.17
775.087	0.47
775.263	0.32
775.438	0.45
775.613	0.28
775.788	0.29
775.964	0.57
776.139	0.85
776.314	0.19
776.489	0.54
776.664	0.49
776.839	0.13
777.014	0.58
777.19	0.59
777.365	0.54
777.54	0.69
777.715	0.29
777.89	0.4
778.065	0.21
778.24	0.48
778.415	0.44
778.59	0.29
778.765	0.42
778.94	0.52
779.115	0.36
779.289	0.19
779.464	0.33
779.639	0.37
779.814	0.22
779.989	0.18
780.164	0.68
780.339	0.47
780.513	0.36
780.688	0.18
780.863	0.35
781.038	0.73
781.212	0.31
781.387	0.27
781.562	0.66
781.737	0.28
781.911	0.69
782.086	0.31
782.261	0.53
782.435	0.84
782.61	0.33
782.784	0.53
782.959	0.6
783.134	0.34
783.308	0.2
783.483	0.36
783.657	0.9
783.832	0.78
784.006	0.08
784.181	0.53
784.355	0.73
784.53	0.52
784.704	0.12
784.878	0.74
785.053	0.78
785.227	0.79
785.402	0.93
785.576	0.22
785.75	0.45
785.925	0.29
786.099	0.53
786.273	0.61
786.448	0.52
786.622	0.55
786.796	0.42
786.97	0.48
787.145	1.02
787.319	0.13
787.493	0.45
787.667	-0.08
787.841	0.54
788.015	1.06
788.19	0.29
788.364	0.31
788.538	0.66
788.712	0.58
788.886	0.42
789.06	0.73
789.234	0.76
789.408	0.17
789.582	0.36
789.756	0.45
789.93	0.33
790.104	0.41
790.278	0.22
790.452	0.3
790.626	0.73
790.8	0.47
790.973	0.63
791.147	0.68
791.321	0.84
791.495	0.82
791.669	0.56
791.843	0.69
792.016	0.5
792.19	1.08
792.364	0.28
792.538	1.04
792.711	0.79
792.885	0.52
793.059	0.11
793.233	-0.14
793.406	0.6
793.58	0.58
793.754	0.71
793.927	0.57
794.101	0.78
794.274	0.4
794.448	0.73
794.622	0.14
794.795	0.98
794.969	0.44
795.142	0.7
795.316	0.4
795.489	0.49
795.663	0.92
795.836	0.68
796.009	-0.01
796.183	0.99
796.356	0.71
796.53	0.41
796.703	0.52
796.876	1.23
797.05	0.18
797.223	0.27
797.396	0.53
797.57	0.54
797.743	0.9
797.916	0.51
798.09	0.25
798.263	0.95
798.436	0.63
798.609	0.54
798.782	0.32
798.956	0.56
799.129	0.74
799.302	0.49
799.475	0.48
799.648	0.33
799.821	0.34
799.994	0.25
800.167	-0.02
800.34	0.38
800.514	0.49
800.687	0.44
800.86	0.41
801.033	0.65
801.206	0.5
801.379	0.09
801.551	0.99
801.724	0.79
801.897	1.21
802.07	0.19
802.243	0.27
802.416	0.49
802.589	0.7
802.762	0.83
802.935	0.54
803.107	1.15
803.28	0.89
803.453	0.95
803.626	0.35
803.798	0.79
803.971	0.62
804.144	0.57
804.317	1.03
804.489	0.98
804.662	0.76
804.835	0.65
805.007	0.28
805.18	0.81
805.353	0.65
805.525	0.29
805.698	0.67
805.87	0.78
806.043	0.77
806.215	-0.01
806.388	0.3
806.56	0.81
806.733	1.22
806.905	0.65
807.078	0.33
807.25	0.47
807.423	0.84
807.595	0.47
807.768	0.45
807.94	0.97
808.112	0.72
808.285	0.52
808.457	0.21
808.629	0.64
808.802	0.74
808.974	0.42
809.146	0.21
809.318	0.36
809.491	0.89
809.663	0.78
809.835	0.4
810.007	0.74
810.18	0.64
810.352	-0.09
810.524	0.63
810.696	1.25
810.868	1.13
811.04	0.51
811.212	0.41
811.384	0.95
811.556	1.06
811.728	0.28
811.901	1.84
812.073	0.6
812.245	0.65
812.417	0.5
812.589	-0.19
812.76	0.67
812.932	0.86
813.104	0.97
813.276	0.27
813.448	1.36
813.62	0.97
813.792	0.82
813.964	0.74
814.136	0.66
814.307	0.27
814.479	0.39
814.651	0.12
814.823	1.28
814.995	0.34
815.166	0.9
815.338	0.46
815.51	0.31
815.681	1.6
815.853	0.93
816.025	0.61
816.196	1.66
816.368	1.31
816.54	0.11
816.711	0.38
816.883	0.96
817.054	1.76
817.226	0.18
817.398	1.18
817.569	0.35
817.741	0.96
817.912	0.56
818.084	0.81
818.255	1.32
818.426	0.3
818.598	0.8
818.769	0.3
818.941	0.99
819.112	1.18
819.283	1
819.455	0.42
819.626	1.21
819.798	1.16
819.969	0.82
820.14	0.55
820.311	0.49
820.483	0.92
820.654	0.86
820.825	0.66
820.996	0.1
821.168	0.34
821.339	0.57
821.51	0.23
821.681	0.27
821.852	1.03
822.023	0.06
822.195	-0.09
822.366	0.97
822.537	0.9
822.708	0.96
822.879	0.33
823.05	1.15
823.221	0.61
823.392	0.89
823.563	0.63
823.734	0.61
823.905	1.44
824.076	0.49
824.247	0.31
824.418	0.76
824.589	1.48
824.759	0.83
824.93	0.83
825.101	0.06
825.272	1.75
825.443	1.3
825.614	1.37
825.784	-0.35
825.955	2.61
826.126	1.63
826.297	0.78
826.467	2.07
826.638	1.78
826.809	0.16
826.98	0.75
827.15	1.01
827.321	1.2
827.492	1.02
827.662	0.61
827.833	2.27
828.003	1.59
828.174	0.71
828.345	0.01
828.515	1.88
828.686	1.11
828.856	0.53
829.027	0.89
829.197	1.53
829.368	0.98
829.538	0.38
829.709	0.71
829.879	1.06
830.049	1.14
830.22	0.46
830.39	0.81
830.56	1.69
830.731	0.66
830.901	0.28
831.072	0.77
831.242	1.6
831.412	1.53
831.582	1.21
831.753	0.19
831.923	1.63
832.093	1.68
832.263	1.17
832.434	0.42
832.604	0.69
832.774	1.57
832.944	1.1
833.114	0.64
833.284	1.41
833.454	0.73
833.624	0.1
833.795	0.41
833.965	1.8
834.135	2.27
834.305	-0.42
834.475	-0.03
834.645	1.71
834.815	0.38
834.985	0.15
835.155	0.41
835.325	1.22
835.494	1.93
835.664	0.31
835.834	0.08
836.004	1.68
836.174	1.39
836.344	0.59
836.514	0.09
836.684	1.12
836.853	1.02
837.023	1.51
837.193	0.82
837.363	1.75
837.532	1.49
837.702	0.38
837.872	0.99
838.041	1.71
838.211	2.4
838.381	0.46
838.55	0.87
838.72	3.48
838.89	2.56
839.059	0.45
839.229	0.48
839.398	3.32
839.568	0.88
839.738	1.22
839.907	1.64
840.077	1.22
840.246	0.14
840.416	0.58
840.585	0.37
840.755	2.46
840.924	2.38
841.093	0.53
841.263	0.77
841.432	0.85
841.602	1.17
841.771	0.15
841.94	0.78
842.11	3.02
842.279	2.99
842.448	0.15
842.617	0.28
842.787	2.45
842.956	0.24
843.125	0.95
843.294	1.46
843.464	2.09
843.633	2.42
843.802	0.39
843.971	0.88
844.14	1.47
844.309	1.68
844.479	-0.57
844.648	0.36
844.817	0.83
844.986	1.71
845.155	-0.13
845.324	0.81
845.493	1.03
845.662	0.74
845.831	1.39
846	0.77
846.169	0.8
846.338	3.18
846.507	1.87
846.676	0.79
846.844	0.99
847.013	2.56
847.182	1.58
847.351	0.66
847.52	1.24
847.689	1.79
847.858	0.81
848.026	-0.22
848.195	1.1
848.364	0.48
848.533	0.76
848.701	0.16
848.87	2.01
849.039	3
849.207	2.5
849.376	2.58
849.545	3.33
849.713	0.13
849.882	1.02
850.051	1.47
850.219	0.99
850.388	2.53
850.556	-0.02
850.725	0.79
850.893	1.55
851.062	1.66
851.23	0.93
851.399	0.6
851.567	0.71
851.736	-0.11
851.904	0.74
852.073	0.86
852.241	2.25
852.41	1.75
852.578	1.75
852.746	-0
852.915	2.23
853.083	1.73
853.251	-0.34
853.42	1.29
853.588	1.55
853.756	2.81
853.924	1.13
854.093	0.91
854.261	0.47
854.429	0.36
854.597	1.66
854.765	0.64
854.934	2.12
855.102	2.68
855.27	2.32
855.438	2.23
855.606	3.26
855.774	4.22
855.942	-0.71
856.11	-0.67
856.278	2.2
856.446	2.84
856.614	0.59
856.782	0.24
856.95	3.86
857.118	3.05
857.286	2.36
857.454	1.3
857.622	2.34
857.79	3.14
857.958	0.95
858.126	0.86
858.294	-0.21
858.462	1.85
858.629	0.45
858.797	1.41
858.965	2.03
859.133	2.42
859.301	1.59
859.468	0.53
859.636	0.84
859.804	3.82
859.971	2.43
860.139	1.24
860.307	2.87
860.474	2.61
860.642	0.59
860.81	0.78
860.977	1.64
861.145	3.29
861.313	1.03
861.48	1.96
861.648	3.09
861.815	1.87
861.983	-0.42
862.15	-0.13
862.318	1.82
862.485	2.66
862.653	-0.27
862.82	-0.43
862.988	4.3
863.155	0.72
863.322	-0.58
863.49	-0.06
863.657	0.74
863.824	5.1
863.992	2.37
864.159	1.64
864.326	3.99
864.494	1.76
864.661	3.71
864.828	-0.34
864.996	3.21
865.163	3.37
865.33	0.66
865.497	-2.05
865.664	0.18
865.832	0.63
865.999	1.52
866.166	-0.14
866.333	1.38
866.5	1.03
866.667	1.86
866.834	2.26
867.001	4.17
867.168	0.52
867.335	1.21
867.502	0.01
867.669	2.89
867.836	5.55
868.003	2.05
868.17	2.93
868.337	2.13
868.504	4.96
868.671	-1.6
868.838	1.23
869.005	2.44
869.172	3.11
869.339	2.14
869.505	0.97
869.672	2.08
869.839	6.02
870.006	2.73
870.173	0.85
870.339	3.91
870.506	5.19
870.673	0.37
870.84	2.96
871.006	1.77
871.173	2.1
871.34	1.26
871.506	0.89
871.673	2.74
871.839	-0.22
872.006	4
872.173	0.98
872.339	2.22
872.506	3.95
872.672	1.61
872.839	1.43
873.005	3.81
873.172	6.38
873.338	2.71
873.505	2.53
873.671	2.3
873.838	5.3
874.004	-1.2
874.171	0.03
874.337	2.96
874.503	4.79
874.67	2.06
874.836	0.87
875.002	4.66
875.169	5.29
875.335	0.94
875.501	1.17
875.668	4.96
875.834	2.05
876	0.65
876.166	3.91
876.332	3.76
876.499	5.12
876.665	1.86
876.831	2.42
876.997	7.28
877.163	3.69
877.329	1.18
877.495	2.87
877.662	2.56
877.828	0.54
877.994	1.85
878.16	-1.63
878.326	1.12
878.492	4.46
878.658	1.36
878.824	4.3
878.99	3.97
879.156	1.82
879.322	3.28
879.487	2.96
879.653	1.1
879.819	3.76
879.985	-0.1
880.151	2.94
880.317	3.27
880.483	2.09
880.648	2.51
880.814	-0.25
880.98	2.97
881.146	-2.11
881.312	0.07
881.477	2.28
881.643	2.72
881.809	4.98
881.974	3.83
882.14	-1
882.306	2.08
882.471	6.51
882.637	0.56
882.803	2.37
882.968	5.02
883.134	6.76
883.299	-0.01
883.465	4.01
883.63	3.48
883.796	4.73
883.961	3.31
884.127	2.78
884.292	-2.08
884.458	0.86
884.623	0.86
