Data from Apollo_Calib_20240827__AbsoluteIrradiance__45__23-54-00-970.txt Node

Date: Tue Aug 27 23:54:00 BST 2024
User: biology
Spectrometer: FLMT08252
Trigger mode: 0
Integration Time (sec): 5.000000E-1
Scans to average: 5
Electric dark correction enabled: true
Nonlinearity correction enabled: false
Boxcar width: 0
XAxis mode: Wavelengths
Number of Pixels in Spectrum: 3648
>>>>>Begin Spectral Data<<<<<
179.588	-0
179.809	-0
180.03	-0
180.251	-0
180.473	-0
180.694	0
180.915	0
181.136	-0
181.357	0
181.578	-0
181.799	-0
182.02	-0
182.241	0
182.462	-0
182.683	0
182.904	-0
183.125	-0
183.346	0
183.567	0
183.788	0
184.009	0
184.23	0
184.451	0
184.672	0
184.892	0
185.113	0
185.334	0
185.555	0
185.776	0
185.996	0
186.217	0
186.438	0
186.659	0
186.879	0
187.1	0
187.321	0
187.541	0
187.762	0
187.983	0
188.203	0
188.424	0
188.644	0
188.865	0
189.086	0
189.306	0
189.527	0
189.747	0
189.968	0
190.188	0
190.409	0
190.629	0
190.849	0
191.07	0
191.29	0
191.511	0
191.731	0
191.951	0
192.172	0
192.392	0
192.612	0
192.833	0
193.053	0
193.273	0
193.493	0
193.714	0
193.934	0
194.154	0
194.374	0
194.594	0
194.815	0
195.035	0
195.255	0
195.475	0
195.695	0
195.915	0
196.135	0
196.355	0
196.575	0
196.795	0
197.015	0
197.235	0
197.455	0
197.675	0
197.895	0
198.115	0
198.335	0
198.555	0
198.775	0
198.995	0
199.214	0
199.434	0
199.654	0
199.874	0
200.094	3.29
200.313	2.26
200.533	1.79
200.753	1.53
200.973	4.14
201.192	2.72
201.412	1.86
201.632	2.15
201.851	3.34
202.071	1.58
202.291	1.87
202.51	1.29
202.73	2.82
202.95	2.21
203.169	1.39
203.389	2.07
203.608	2.51
203.828	1.08
204.047	1.68
204.267	2.08
204.486	2.05
204.706	1.97
204.925	2
205.145	1.76
205.364	1.68
205.583	2.54
205.803	1.01
206.022	1.25
206.242	1.46
206.461	1.89
206.68	1.44
206.9	1.34
207.119	2.2
207.338	2.04
207.557	1.26
207.777	1.31
207.996	1.27
208.215	1.97
208.434	1.28
208.654	0.74
208.873	1.29
209.092	1.88
209.311	1.3
209.53	1.32
209.749	0.95
209.968	1.25
210.187	1.22
210.407	0.92
210.626	1.39
210.845	1.4
211.064	1.06
211.283	1.09
211.502	1.66
211.721	1.19
211.94	1.03
212.159	1.57
212.377	1.43
212.596	1.44
212.815	1.2
213.034	1.25
213.253	1.53
213.472	1.28
213.691	0.79
213.91	0.91
214.128	0.92
214.347	1.54
214.566	0.53
214.785	0.71
215.003	1.1
215.222	1.18
215.441	0.92
215.66	0.67
215.878	1.02
216.097	1.06
216.316	0.69
216.534	1
216.753	0.79
216.972	0.84
217.19	0.84
217.409	0.78
217.627	0.73
217.846	0.89
218.064	0.88
218.283	0.69
218.501	1.32
218.72	1.11
218.938	0.65
219.157	0.65
219.375	1.1
219.594	1.05
219.812	0.71
220.031	0.7
220.249	1.16
220.467	1.18
220.686	0.71
220.904	0.5
221.122	0.67
221.341	1.17
221.559	0.79
221.777	0.49
221.995	0.72
222.214	1.05
222.432	0.65
222.65	0.88
222.868	0.85
223.086	0.75
223.305	0.85
223.523	0.65
223.741	1.09
223.959	0.71
224.177	0.46
224.395	0.73
224.613	0.87
224.831	0.82
225.049	0.46
225.267	0.53
225.485	0.8
225.703	0.53
225.921	0.64
226.139	0.57
226.357	0.83
226.575	0.73
226.793	0.48
227.011	1.44
227.229	0.61
227.447	0.77
227.665	0.58
227.883	0.43
228.1	0.69
228.318	0.72
228.536	0.26
228.754	0.4
228.972	0.75
229.189	0.81
229.407	0.59
229.625	0.58
229.843	0.8
230.06	0.77
230.278	0.58
230.496	0.62
230.713	0.66
230.931	0.73
231.149	0.63
231.366	0.32
231.584	0.61
231.801	1
232.019	0.51
232.236	0.42
232.454	0.47
232.671	0.62
232.889	0.41
233.106	0.44
233.324	0.58
233.541	0.49
233.759	0.56
233.976	0.34
234.194	0.55
234.411	0.6
234.628	0.44
234.846	0.49
235.063	0.57
235.28	0.56
235.498	0.6
235.715	0.43
235.932	0.66
236.149	0.42
236.367	0.31
236.584	0.64
236.801	0.58
237.018	0.58
237.236	0.47
237.453	0.39
237.67	0.65
237.887	0.48
238.104	0.42
238.321	0.41
238.538	0.43
238.755	0.62
238.973	0.38
239.19	0.44
239.407	0.51
239.624	0.49
239.841	0.35
240.058	0.33
240.275	0.56
240.492	0.46
240.709	0.48
240.925	0.42
241.142	0.47
241.359	0.37
241.576	0.39
241.793	0.48
242.01	0.53
242.227	0.59
242.444	0.5
242.66	0.59
242.877	0.52
243.094	0.39
243.311	0.47
243.527	0.47
243.744	0.6
243.961	0.45
244.178	0.4
244.394	0.46
244.611	0.58
244.828	0.64
245.044	0.41
245.261	0.44
245.477	0.51
245.694	0.64
245.911	0.37
246.127	0.45
246.344	0.62
246.56	0.55
246.777	0.42
246.993	0.47
247.21	0.46
247.426	0.55
247.643	0.43
247.859	0.34
248.076	0.34
248.292	0.63
248.508	0.35
248.725	0.43
248.941	0.54
249.157	0.49
249.374	0.41
249.59	0.41
249.806	0.44
250.023	0.43
250.239	0.25
250.455	0.32
250.671	0.42
250.888	0.53
251.104	0.47
251.32	0.39
251.536	0.41
251.752	0.51
251.969	0.39
252.185	0.4
252.401	0.63
252.617	0.44
252.833	0.38
253.049	0.44
253.265	0.35
253.481	0.45
253.697	0.39
253.913	0.37
254.129	0.4
254.345	0.43
254.561	0.31
254.777	0.38
254.993	0.44
255.209	0.38
255.425	0.32
255.641	0.34
255.857	0.47
256.073	0.42
256.288	0.29
256.504	0.3
256.72	0.4
256.936	0.53
257.152	0.45
257.367	0.32
257.583	0.4
257.799	0.5
258.015	0.32
258.23	0.36
258.446	0.5
258.662	0.34
258.877	0.32
259.093	0.27
259.309	0.38
259.524	0.39
259.74	0.28
259.955	0.26
260.171	0.38
260.387	0.34
260.602	0.46
260.818	0.39
261.033	0.26
261.249	0.31
261.464	0.34
261.68	0.3
261.895	0.37
262.11	0.5
262.326	0.32
262.541	0.25
262.757	0.47
262.972	0.43
263.187	0.46
263.403	0.35
263.618	0.42
263.833	0.36
264.049	0.27
264.264	0.42
264.479	0.39
264.694	0.5
264.91	0.3
265.125	0.31
265.34	0.41
265.555	0.47
265.77	0.35
265.986	0.32
266.201	0.33
266.416	0.43
266.631	0.35
266.846	0.37
267.061	0.4
267.276	0.46
267.491	0.17
267.706	0.42
267.921	0.39
268.136	0.37
268.351	0.34
268.566	0.31
268.781	0.43
268.996	0.42
269.211	0.33
269.426	0.24
269.641	0.31
269.856	0.35
270.071	0.24
270.285	0.25
270.5	0.4
270.715	0.42
270.93	0.32
271.145	0.42
271.359	0.33
271.574	0.29
271.789	0.37
272.004	0.35
272.218	0.3
272.433	0.38
272.648	0.23
272.862	0.4
273.077	0.38
273.292	0.29
273.506	0.28
273.721	0.31
273.936	0.39
274.15	0.42
274.365	0.33
274.579	0.4
274.794	0.37
275.008	0.42
275.223	0.23
275.437	0.35
275.652	0.49
275.866	0.34
276.081	0.3
276.295	0.35
276.509	0.31
276.724	0.31
276.938	0.27
277.153	0.36
277.367	0.36
277.581	0.27
277.796	0.26
278.01	0.24
278.224	0.33
278.438	0.46
278.653	0.28
278.867	0.26
279.081	0.14
279.295	0.28
279.51	0.4
279.724	0.17
279.938	0.34
280.152	0.34
280.366	0.26
280.58	0.27
280.794	0.44
281.008	0.35
281.222	0.33
281.437	0.46
281.651	0.32
281.865	0.36
282.079	0.23
282.293	0.15
282.507	0.24
282.721	0.3
282.935	0.33
283.148	0.2
283.362	0.26
283.576	0.24
283.79	0.25
284.004	0.23
284.218	0.35
284.432	0.24
284.646	0.3
284.859	0.29
285.073	0.3
285.287	0.29
285.501	0.28
285.714	0.3
285.928	0.35
286.142	0.26
286.356	0.26
286.569	0.26
286.783	0.37
286.997	0.37
287.21	0.28
287.424	0.3
287.637	0.27
287.851	0.26
288.065	0.35
288.278	0.21
288.492	0.29
288.705	0.31
288.919	0.36
289.132	0.19
289.346	0.35
289.559	0.2
289.773	0.3
289.986	0.33
290.2	0.27
290.413	0.31
290.626	0.22
290.84	0.21
291.053	0.25
291.267	0.36
291.48	0.27
291.693	0.27
291.906	0.23
292.12	0.27
292.333	0.28
292.546	0.26
292.76	0.37
292.973	0.28
293.186	0.37
293.399	0.29
293.612	0.34
293.826	0.25
294.039	0.29
294.252	0.27
294.465	0.3
294.678	0.29
294.891	0.27
295.104	0.19
295.317	0.22
295.53	0.31
295.743	0.28
295.956	0.22
296.169	0.32
296.382	0.31
296.595	0.29
296.808	0.23
297.021	0.29
297.234	0.35
297.447	0.28
297.66	0.26
297.873	0.27
298.086	0.28
298.299	0.24
298.511	0.21
298.724	0.29
298.937	0.18
299.15	0.25
299.363	0.28
299.575	0.28
299.788	0.33
300.001	0.27
300.213	0.21
300.426	0.23
300.639	0.21
300.852	0.21
301.064	0.31
301.277	0.31
301.489	0.24
301.702	0.28
301.915	0.25
302.127	0.25
302.34	0.28
302.552	0.29
302.765	0.21
302.977	0.33
303.19	0.24
303.402	0.2
303.615	0.23
303.827	0.22
304.04	0.23
304.252	0.3
304.464	0.22
304.677	0.36
304.889	0.29
305.102	0.22
305.314	0.26
305.526	0.3
305.739	0.33
305.951	0.18
306.163	0.23
306.375	0.32
306.588	0.21
306.8	0.22
307.012	0.24
307.224	0.31
307.436	0.39
307.649	0.17
307.861	0.32
308.073	0.31
308.285	0.21
308.497	0.18
308.709	0.22
308.921	0.28
309.133	0.31
309.346	0.29
309.558	0.22
309.77	0.33
309.982	0.35
310.194	0.28
310.406	0.21
310.617	0.31
310.829	0.28
311.041	0.29
311.253	0.24
311.465	0.28
311.677	0.29
311.889	0.25
312.101	0.21
312.313	0.31
312.524	0.31
312.736	0.2
312.948	0.2
313.16	0.37
313.372	0.26
313.583	0.28
313.795	0.2
314.007	0.24
314.218	0.31
314.43	0.25
314.642	0.23
314.853	0.2
315.065	0.31
315.277	0.26
315.488	0.26
315.7	0.3
315.912	0.3
316.123	0.23
316.335	0.21
316.546	0.36
316.758	0.27
316.969	0.21
317.181	0.21
317.392	0.26
317.604	0.28
317.815	0.23
318.026	0.22
318.238	0.2
318.449	0.31
318.661	0.21
318.872	0.23
319.083	0.24
319.295	0.23
319.506	0.24
319.717	0.27
319.929	0.28
320.14	0.24
320.351	0.26
320.562	0.19
320.774	0.28
320.985	0.27
321.196	0.29
321.407	0.18
321.618	0.35
321.829	0.26
322.041	0.25
322.252	0.24
322.463	0.31
322.674	0.29
322.885	0.21
323.096	0.26
323.307	0.25
323.518	0.28
323.729	0.21
323.94	0.23
324.151	0.24
324.362	0.3
324.573	0.26
324.784	0.22
324.995	0.3
325.206	0.28
325.417	0.21
325.628	0.19
325.838	0.25
326.049	0.25
326.26	0.27
326.471	0.26
326.682	0.27
326.892	0.23
327.103	0.18
327.314	0.2
327.525	0.36
327.735	0.27
327.946	0.25
328.157	0.24
328.368	0.3
328.578	0.24
328.789	0.31
328.999	0.28
329.21	0.28
329.421	0.29
329.631	0.23
329.842	0.21
330.052	0.28
330.263	0.29
330.473	0.28
330.684	0.22
330.894	0.23
331.105	0.27
331.315	0.27
331.526	0.18
331.736	0.33
331.947	0.28
332.157	0.28
332.367	0.22
332.578	0.31
332.788	0.33
332.999	0.28
333.209	0.27
333.419	0.23
333.629	0.26
333.84	0.26
334.05	0.24
334.26	0.3
334.47	0.3
334.681	0.31
334.891	0.27
335.101	0.3
335.311	0.38
335.521	0.24
335.732	0.23
335.942	0.3
336.152	0.32
336.362	0.24
336.572	0.27
336.782	0.28
336.992	0.22
337.202	0.24
337.412	0.22
337.622	0.29
337.832	0.28
338.042	0.25
338.252	0.22
338.462	0.26
338.672	0.28
338.882	0.22
339.092	0.25
339.302	0.37
339.511	0.28
339.721	0.22
339.931	0.21
340.141	0.26
340.351	0.3
340.561	0.31
340.77	0.23
340.98	0.26
341.19	0.3
341.4	0.25
341.609	0.2
341.819	0.23
342.029	0.2
342.238	0.28
342.448	0.21
342.658	0.29
342.867	0.22
343.077	0.26
343.286	0.23
343.496	0.26
343.706	0.29
343.915	0.18
344.125	0.23
344.334	0.31
344.544	0.2
344.753	0.2
344.963	0.23
345.172	0.2
345.381	0.2
345.591	0.19
345.8	0.23
346.01	0.31
346.219	0.3
346.428	0.12
346.638	0.22
346.847	0.31
347.056	0.33
347.266	0.26
347.475	0.29
347.684	0.27
347.893	0.25
348.103	0.27
348.312	0.23
348.521	0.26
348.73	0.25
348.94	0.25
349.149	0.24
349.358	0.2
349.567	0.2
349.776	0.18
349.985	0.22
350.194	0.28
350.403	0.28
350.612	0.18
350.821	0.23
351.03	0.29
351.239	0.2
351.448	0.25
351.657	0.2
351.866	0.33
352.075	0.29
352.284	0.29
352.493	0.2
352.702	0.3
352.911	0.21
353.12	0.27
353.329	0.21
353.538	0.29
353.746	0.23
353.955	0.21
354.164	0.28
354.373	0.27
354.582	0.24
354.79	0.22
354.999	0.26
355.208	0.26
355.416	0.33
355.625	0.2
355.834	0.21
356.042	0.3
356.251	0.22
356.46	0.23
356.668	0.24
356.877	0.31
357.085	0.3
357.294	0.18
357.503	0.27
357.711	0.24
357.92	0.35
358.128	0.22
358.337	0.2
358.545	0.28
358.754	0.21
358.962	0.28
359.17	0.22
359.379	0.23
359.587	0.28
359.796	0.24
360.004	0.29
360.212	0.28
360.421	0.28
360.629	0.24
360.837	0.22
361.046	0.26
361.254	0.33
361.462	0.21
361.67	0.2
361.879	0.26
362.087	0.33
362.295	0.23
362.503	0.23
362.711	0.18
362.92	0.23
363.128	0.17
363.336	0.18
363.544	0.19
363.752	0.25
363.96	0.21
364.168	0.21
364.376	0.24
364.584	0.22
364.792	0.23
365	0.24
365.208	0.26
365.416	0.29
365.624	0.31
365.832	0.23
366.04	0.31
366.248	0.26
366.456	0.22
366.664	0.24
366.872	0.25
367.079	0.22
367.287	0.26
367.495	0.25
367.703	0.27
367.911	0.21
368.118	0.23
368.326	0.23
368.534	0.2
368.742	0.28
368.949	0.23
369.157	0.23
369.365	0.28
369.572	0.21
369.78	0.2
369.988	0.27
370.195	0.25
370.403	0.28
370.61	0.24
370.818	0.27
371.026	0.28
371.233	0.26
371.441	0.28
371.648	0.22
371.856	0.27
372.063	0.29
372.271	0.25
372.478	0.22
372.685	0.23
372.893	0.28
373.1	0.23
373.308	0.29
373.515	0.35
373.722	0.28
373.93	0.25
374.137	0.29
374.344	0.36
374.552	0.31
374.759	0.29
374.966	0.23
375.173	0.23
375.381	0.3
375.588	0.21
375.795	0.19
376.002	0.23
376.209	0.25
376.417	0.3
376.624	0.27
376.831	0.25
377.038	0.22
377.245	0.18
377.452	0.25
377.659	0.28
377.866	0.25
378.073	0.22
378.28	0.27
378.487	0.28
378.694	0.27
378.901	0.22
379.108	0.27
379.315	0.32
379.522	0.3
379.729	0.3
379.936	0.28
380.143	0.33
380.35	0.32
380.557	0.25
380.763	0.24
380.97	0.25
381.177	0.26
381.384	0.29
381.591	0.23
381.797	0.27
382.004	0.32
382.211	0.26
382.418	0.31
382.624	0.31
382.831	0.28
383.038	0.25
383.244	0.29
383.451	0.26
383.658	0.28
383.864	0.24
384.071	0.25
384.277	0.36
384.484	0.25
384.69	0.32
384.897	0.26
385.103	0.27
385.31	0.26
385.516	0.24
385.723	0.29
385.929	0.26
386.136	0.25
386.342	0.29
386.549	0.25
386.755	0.34
386.961	0.31
387.168	0.25
387.374	0.27
387.58	0.33
387.787	0.3
387.993	0.31
388.199	0.23
388.406	0.26
388.612	0.26
388.818	0.25
389.024	0.3
389.231	0.29
389.437	0.37
389.643	0.31
389.849	0.27
390.055	0.3
390.261	0.27
390.467	0.36
390.674	0.28
390.88	0.23
391.086	0.35
391.292	0.24
391.498	0.32
391.704	0.3
391.91	0.26
392.116	0.27
392.322	0.2
392.528	0.3
392.734	0.3
392.94	0.28
393.146	0.32
393.352	0.3
393.557	0.25
393.763	0.28
393.969	0.36
394.175	0.3
394.381	0.34
394.587	0.27
394.792	0.3
394.998	0.32
395.204	0.38
395.41	0.27
395.615	0.3
395.821	0.33
396.027	0.32
396.233	0.24
396.438	0.31
396.644	0.4
396.85	0.34
397.055	0.33
397.261	0.36
397.466	0.42
397.672	0.33
397.878	0.33
398.083	0.33
398.289	0.31
398.494	0.41
398.7	0.36
398.905	0.26
399.111	0.41
399.316	0.29
399.522	0.37
399.727	0.32
399.932	0.32
400.138	0.29
400.343	0.36
400.549	0.35
400.754	0.32
400.959	0.35
401.165	0.31
401.37	0.39
401.575	0.5
401.78	0.32
401.986	0.34
402.191	0.36
402.396	0.37
402.601	0.41
402.807	0.43
403.012	0.38
403.217	0.43
403.422	0.36
403.627	0.38
403.832	0.38
404.037	0.44
404.243	0.43
404.448	0.37
404.653	0.44
404.858	0.46
405.063	0.47
405.268	0.38
405.473	0.37
405.678	0.42
405.883	0.6
406.088	0.49
406.293	0.44
406.498	0.45
406.703	0.49
406.907	0.46
407.112	0.45
407.317	0.52
407.522	0.59
407.727	0.5
407.932	0.57
408.136	0.64
408.341	0.53
408.546	0.61
408.751	0.53
408.956	0.59
409.16	0.63
409.365	0.58
409.57	0.58
409.774	0.67
409.979	0.66
410.184	0.68
410.388	0.64
410.593	0.73
410.798	0.72
411.002	0.71
411.207	0.76
411.411	0.82
411.616	0.76
411.82	0.83
412.025	0.83
412.229	0.82
412.434	0.98
412.638	0.92
412.843	0.89
413.047	0.94
413.252	0.95
413.456	1.01
413.66	1.08
413.865	1.05
414.069	1.2
414.273	1.18
414.478	1.14
414.682	1.21
414.886	1.16
415.091	1.16
415.295	1.26
415.499	1.43
415.703	1.34
415.908	1.42
416.112	1.42
416.316	1.56
416.52	1.59
416.724	1.54
416.929	1.62
417.133	1.88
417.337	1.78
417.541	1.78
417.745	1.82
417.949	2.01
418.153	2.04
418.357	1.99
418.561	2.23
418.765	2.24
418.969	2.36
419.173	2.46
419.377	2.41
419.581	2.7
419.785	2.66
419.989	2.74
420.193	2.84
420.397	2.87
420.601	3.04
420.804	3.09
421.008	3.13
421.212	3.25
421.416	3.29
421.62	3.27
421.823	3.41
422.027	3.56
422.231	3.55
422.435	3.62
422.638	3.56
422.842	3.73
423.046	3.74
423.249	4.03
423.453	3.99
423.657	4.14
423.86	4.19
424.064	4.36
424.268	4.52
424.471	4.5
424.675	4.75
424.878	4.84
425.082	4.91
425.285	5.23
425.489	5.11
425.692	5.29
425.896	5.29
426.099	5.57
426.303	5.67
426.506	5.8
426.71	6.07
426.913	6.27
427.116	6.38
427.32	6.39
427.523	6.47
427.726	6.81
427.93	6.8
428.133	7.11
428.336	7.3
428.54	7.49
428.743	7.64
428.946	7.94
429.149	7.9
429.353	8.02
429.556	8.15
429.759	8.09
429.962	8.24
430.165	8.43
430.368	8.14
430.571	8.09
430.775	8.24
430.978	8.19
431.181	8.27
431.384	8.23
431.587	8.35
431.79	8.77
431.993	8.76
432.196	9
432.399	9.42
432.602	9.47
432.805	9.53
433.008	10.16
433.211	9.92
433.414	10.3
433.616	10.35
433.819	10.33
434.022	10.55
434.225	10.62
434.428	10.74
434.631	11.04
434.833	10.91
435.036	11.21
435.239	11.45
435.442	11.41
435.645	11.53
435.847	11.58
436.05	11.96
436.253	12.17
436.455	12.21
436.658	11.93
436.861	12.37
437.063	12.49
437.266	12.44
437.468	12.82
437.671	13.19
437.874	13.19
438.076	13.02
438.279	13.55
438.481	13.61
438.684	14.29
438.886	13.9
439.089	14.23
439.291	14.17
439.494	14.71
439.696	14.77
439.899	15.37
440.101	15.69
440.303	15.96
440.506	16.71
440.708	16.34
440.91	16.55
441.113	16.77
441.315	17.16
441.517	16.69
441.72	17.36
441.922	17.12
442.124	16.87
442.326	17.21
442.529	17.44
442.731	17.51
442.933	17.87
443.135	17.48
443.337	17.52
443.539	18.12
443.742	17.74
443.944	18.48
444.146	18.12
444.348	18.21
444.55	18.09
444.752	18.18
444.954	18.28
445.156	18.14
445.358	18.64
445.56	18.78
445.762	18.62
445.964	18.88
446.166	18.58
446.368	18.62
446.57	18.65
446.772	18.27
446.974	18.03
447.175	18.33
447.377	18.01
447.579	18.44
447.781	18.05
447.983	17.84
448.184	17.43
448.386	17.85
448.588	17.27
448.79	17.27
448.991	17.56
449.193	17.5
449.395	16.76
449.597	16.55
449.798	16.35
450	15.93
450.202	15.98
450.403	15.93
450.605	15.74
450.806	15.35
451.008	15.22
451.21	14.93
451.411	14.67
451.613	13.84
451.814	14.27
452.016	13.93
452.217	13.21
452.419	13.35
452.62	12.99
452.821	12.65
453.023	12.67
453.224	12.3
453.426	11.89
453.627	11.11
453.828	11.29
454.03	11.34
454.231	11.28
454.432	11.03
454.634	10.82
454.835	10.48
455.036	10.38
455.238	9.96
455.439	9.78
455.64	9.5
455.841	9.37
456.042	9.43
456.244	9.17
456.445	8.87
456.646	8.65
456.847	8.64
457.048	8.45
457.249	8.42
457.45	8.2
457.651	7.65
457.852	7.52
458.054	7.34
458.255	7.26
458.456	7.24
458.657	7.15
458.858	6.68
459.058	6.7
459.259	6.71
459.46	6.48
459.661	6.45
459.862	6.4
460.063	6.26
460.264	6.2
460.465	5.91
460.666	6.01
460.866	5.81
461.067	5.46
461.268	5.47
461.469	5.44
461.67	5.25
461.87	5.18
462.071	5.22
462.272	5.09
462.473	5.06
462.673	5.27
462.874	5.22
463.075	5.12
463.275	5.07
463.476	5.1
463.676	5.1
463.877	4.98
464.078	4.88
464.278	4.98
464.479	4.83
464.679	4.69
464.88	4.63
465.08	4.66
465.281	4.53
465.481	4.31
465.682	4.11
465.882	4.16
466.083	4.06
466.283	4.06
466.483	3.88
466.684	3.7
466.884	3.65
467.085	3.7
467.285	3.72
467.485	3.64
467.686	3.55
467.886	3.45
468.086	3.33
468.286	3.39
468.487	3.45
468.687	3.26
468.887	3.16
469.087	3.32
469.287	3.25
469.488	3.04
469.688	3.18
469.888	3.11
470.088	3.08
470.288	3.05
470.488	2.98
470.688	2.86
470.888	2.85
471.088	2.67
471.288	2.73
471.488	2.76
471.688	2.73
471.888	2.64
472.088	2.77
472.288	2.71
472.488	2.59
472.688	2.53
472.888	2.55
473.088	2.54
473.288	2.48
473.488	2.45
473.688	2.63
473.887	2.49
474.087	2.41
474.287	2.46
474.487	2.36
474.687	2.4
474.886	2.36
475.086	2.28
475.286	2.33
475.486	2.2
475.685	2.19
475.885	2.18
476.085	2.22
476.284	2.18
476.484	2.2
476.684	2.24
476.883	2.26
477.083	2.12
477.282	2.12
477.482	2.2
477.681	2.1
477.881	2.02
478.08	2.08
478.28	2.03
478.479	2.09
478.679	2.09
478.878	2.02
479.078	2.03
479.277	2.06
479.477	2.01
479.676	2.03
479.875	2.01
480.075	1.95
480.274	2.03
480.473	2.03
480.673	2.01
480.872	2.05
481.071	2.08
481.271	2.05
481.47	1.98
481.669	1.98
481.868	1.97
482.067	2.01
482.267	1.96
482.466	1.94
482.665	1.92
482.864	1.93
483.063	1.96
483.262	2.01
483.461	2.02
483.661	2.05
483.86	1.96
484.059	2.05
484.258	2
484.457	1.97
484.656	1.98
484.855	2.04
485.054	1.87
485.253	1.97
485.452	1.95
485.651	2.06
485.849	2.01
486.048	1.97
486.247	2.03
486.446	2.06
486.645	2
486.844	2.06
487.043	2.03
487.241	2.09
487.44	2.03
487.639	2.08
487.838	2.09
488.037	2.09
488.235	2.21
488.434	2.17
488.633	2.01
488.831	2.21
489.03	2.22
489.229	2.19
489.427	2.2
489.626	2.25
489.825	2.24
490.023	2.27
490.222	2.22
490.42	2.31
490.619	2.32
490.817	2.35
491.016	2.33
491.214	2.39
491.413	2.37
491.611	2.39
491.81	2.38
492.008	2.43
492.207	2.52
492.405	2.5
492.604	2.47
492.802	2.56
493	2.59
493.199	2.62
493.397	2.59
493.595	2.7
493.794	2.65
493.992	2.8
494.19	2.73
494.388	2.75
494.587	2.73
494.785	2.78
494.983	2.72
495.181	2.82
495.379	2.94
495.578	2.95
495.776	2.9
495.974	2.87
496.172	2.96
496.37	3.07
496.568	3.09
496.766	3.05
496.964	3.17
497.162	3.16
497.36	3.22
497.558	3.24
497.756	3.29
497.954	3.26
498.152	3.36
498.35	3.44
498.548	3.36
498.746	3.45
498.944	3.39
499.142	3.43
499.34	3.5
499.538	3.62
499.736	3.51
499.933	3.62
500.131	3.59
500.329	3.77
500.527	3.74
500.725	3.84
500.922	3.88
501.12	3.85
501.318	3.95
501.516	3.91
501.713	4.01
501.911	3.96
502.109	3.95
502.306	4.09
502.504	4.03
502.701	4.06
502.899	4.12
503.097	4.35
503.294	4.16
503.492	4.34
503.689	4.33
503.887	4.41
504.084	4.45
504.282	4.36
504.479	4.41
504.677	4.56
504.874	4.56
505.072	4.45
505.269	4.63
505.466	4.67
505.664	4.75
505.861	4.62
506.059	4.81
506.256	4.78
506.453	4.89
506.651	4.88
506.848	5
507.045	4.97
507.242	4.95
507.44	5
507.637	5.11
507.834	5.07
508.031	5.2
508.229	5.16
508.426	5.11
508.623	5.28
508.82	5.29
509.017	5.26
509.214	5.27
509.411	5.43
509.608	5.34
509.805	5.49
510.003	5.42
510.2	5.44
510.397	5.65
510.594	5.56
510.791	5.61
510.988	5.71
511.184	5.58
511.381	5.52
511.578	5.69
511.775	5.81
511.972	5.75
512.169	5.86
512.366	5.84
512.563	5.99
512.76	6
512.956	6.01
513.153	5.95
513.35	5.94
513.547	5.89
513.744	6.03
513.94	6.02
514.137	6.12
514.334	6.14
514.53	6.13
514.727	6.36
514.924	6.27
515.12	6.23
515.317	6.27
515.514	6.23
515.71	6.15
515.907	6.43
516.103	6.4
516.3	6.3
516.497	6.44
516.693	6.43
516.89	6.52
517.086	6.49
517.283	6.56
517.479	6.4
517.676	6.65
517.872	6.62
518.068	6.65
518.265	6.67
518.461	6.52
518.658	6.71
518.854	6.7
519.05	6.8
519.247	6.8
519.443	6.77
519.639	6.92
519.836	6.8
520.032	6.74
520.228	6.93
520.424	6.84
520.621	6.95
520.817	6.94
521.013	6.9
521.209	7.08
521.405	7.03
521.601	7.02
521.798	6.99
521.994	7
522.19	6.94
522.386	7.03
522.582	7.15
522.778	7.25
522.974	7.09
523.17	7.11
523.366	7.11
523.562	7.25
523.758	7.16
523.954	7.02
524.15	7.18
524.346	7.25
524.542	7.3
524.738	7.2
524.934	7.39
525.129	7.34
525.325	7.24
525.521	7.28
525.717	7.45
525.913	7.28
526.109	7.33
526.304	7.42
526.5	7.45
526.696	7.4
526.892	7.41
527.087	7.6
527.283	7.51
527.479	7.44
527.674	7.34
527.87	7.5
528.066	7.52
528.261	7.53
528.457	7.42
528.653	7.61
528.848	7.57
529.044	7.63
529.239	7.54
529.435	7.52
529.63	7.53
529.826	7.53
530.021	7.56
530.217	7.68
530.412	7.52
530.608	7.6
530.803	7.56
530.999	7.48
531.194	7.59
531.389	7.7
531.585	7.68
531.78	7.81
531.975	7.61
532.171	7.75
532.366	7.73
532.561	7.76
532.757	7.68
532.952	7.94
533.147	7.63
533.342	7.74
533.538	7.7
533.733	7.86
533.928	7.6
534.123	7.76
534.318	7.84
534.513	7.72
534.709	7.92
534.904	7.85
535.099	7.9
535.294	7.93
535.489	7.88
535.684	7.79
535.879	7.82
536.074	7.94
536.269	7.83
536.464	7.95
536.659	7.87
536.854	7.85
537.049	7.97
537.244	7.91
537.439	7.91
537.634	7.92
537.828	8.02
538.023	7.95
538.218	7.9
538.413	7.81
538.608	7.94
538.803	7.9
538.997	7.96
539.192	7.9
539.387	7.9
539.582	7.9
539.776	7.85
539.971	7.99
540.166	8.04
540.36	7.89
540.555	8.08
540.75	8.03
540.944	8.02
541.139	8.04
541.334	8.02
541.528	8
541.723	8.07
541.917	8.1
542.112	7.98
542.306	7.83
542.501	7.95
542.695	7.96
542.89	7.87
543.084	7.98
543.279	8.05
543.473	8.04
543.668	8.06
543.862	7.94
544.056	7.95
544.251	8.09
544.445	8.14
544.64	8.16
544.834	7.8
545.028	7.72
545.222	8.03
545.417	8.22
545.611	8.1
545.805	8.03
546	7.87
546.194	8.09
546.388	8.08
546.582	7.99
546.776	7.97
546.97	8.06
547.165	8.09
547.359	8.06
547.553	7.99
547.747	7.99
547.941	8.18
548.135	8.01
548.329	8.05
548.523	8.07
548.717	7.97
548.911	8.03
549.105	7.99
549.299	8.11
549.493	8.07
549.687	8.03
549.881	8.12
550.075	8.07
550.269	8.02
550.463	8.07
550.657	8.12
550.85	8.1
551.044	8.06
551.238	8.09
551.432	8.11
551.626	8.13
551.82	8.11
552.013	8.04
552.207	8.13
552.401	8.15
552.594	8.04
552.788	8.03
552.982	8.08
553.176	8.03
553.369	8.27
553.563	8.15
553.756	8.07
553.95	8.15
554.144	8.08
554.337	8.13
554.531	7.94
554.724	8.1
554.918	8.19
555.111	8.05
555.305	8.09
555.498	8.07
555.692	8.23
555.885	8.11
556.079	8.06
556.272	8.06
556.466	8.08
556.659	8.05
556.852	8.17
557.046	8.06
557.239	7.97
557.432	8.03
557.626	8.11
557.819	8.19
558.012	8.18
558.206	8.21
558.399	8.15
558.592	8.04
558.785	8.03
558.979	8.04
559.172	8.06
559.365	8.12
559.558	8.08
559.751	7.98
559.944	8.22
560.138	8.09
560.331	8.16
560.524	8.12
560.717	8.09
560.91	8.02
561.103	8.17
561.296	7.96
561.489	8.13
561.682	8.2
561.875	8.2
562.068	8.2
562.261	7.99
562.454	8.27
562.647	8.15
562.84	8.17
563.032	8.17
563.225	8.04
563.418	8.06
563.611	8.15
563.804	8.19
563.997	8.03
564.19	7.86
564.382	8.24
564.575	8.1
564.768	8.03
564.961	8.12
565.153	8.03
565.346	7.98
565.539	8.15
565.731	8.12
565.924	8.17
566.117	8.27
566.309	8.13
566.502	8.09
566.695	7.99
566.887	8.11
567.08	8.11
567.272	8.15
567.465	7.96
567.657	8.12
567.85	7.99
568.042	8.07
568.235	8.17
568.427	7.86
568.62	8.1
568.812	8.07
569.005	8.15
569.197	8
569.389	8.08
569.582	8.04
569.774	8
569.966	7.93
570.159	8.03
570.351	7.9
570.543	8.03
570.736	8.02
570.928	7.89
571.12	8.06
571.312	7.94
571.505	7.85
571.697	8.06
571.889	7.98
572.081	7.99
572.273	7.94
572.465	8.03
572.658	7.97
572.85	7.98
573.042	8.06
573.234	7.93
573.426	7.91
573.618	7.97
573.81	7.92
574.002	7.88
574.194	7.95
574.386	7.92
574.578	7.79
574.77	7.96
574.962	7.97
575.154	7.79
575.346	7.85
575.538	7.79
575.729	7.84
575.921	7.95
576.113	8.05
576.305	7.91
576.497	8.01
576.689	7.82
576.88	7.77
577.072	7.96
577.264	7.87
577.456	7.88
577.647	7.88
577.839	7.96
578.031	7.85
578.223	7.81
578.414	7.77
578.606	7.8
578.798	7.85
578.989	7.94
579.181	7.86
579.372	7.79
579.564	7.85
579.755	7.76
579.947	7.74
580.139	7.87
580.33	7.65
580.522	7.8
580.713	7.68
580.905	7.73
581.096	7.82
581.287	7.74
581.479	7.72
581.67	7.81
581.862	7.69
582.053	7.76
582.244	7.53
582.436	7.77
582.627	7.61
582.818	7.61
583.01	7.64
583.201	7.64
583.392	7.59
583.583	7.65
583.775	7.4
583.966	7.59
584.157	7.59
584.348	7.67
584.54	7.6
584.731	7.69
584.922	7.56
585.113	7.44
585.304	7.61
585.495	7.54
585.686	7.6
585.877	7.61
586.068	7.6
586.259	7.56
586.45	7.48
586.641	7.49
586.832	7.62
587.023	7.5
587.214	7.45
587.405	7.5
587.596	7.38
587.787	7.36
587.978	7.51
588.169	7.39
588.36	7.38
588.551	7.43
588.742	7.41
588.932	7.43
589.123	7.26
589.314	7.52
589.505	7.35
589.696	7.41
589.886	7.34
590.077	7.35
590.268	7.29
590.458	7.22
590.649	7.13
590.84	7.29
591.03	7.29
591.221	7.25
591.412	7.1
591.602	7.33
591.793	7.23
591.984	7.31
592.174	7.24
592.365	7.35
592.555	7.09
592.746	7.18
592.936	7.16
593.127	7.19
593.317	7.18
593.508	7.24
593.698	7.13
593.889	7.15
594.079	7.07
594.269	7.04
594.46	7.09
594.65	7.07
594.84	7.05
595.031	6.94
595.221	6.95
595.411	6.97
595.602	7.05
595.792	6.92
595.982	6.84
596.172	7.01
596.363	6.8
596.553	6.97
596.743	6.95
596.933	6.91
597.123	6.85
597.314	6.76
597.504	6.79
597.694	6.91
597.884	6.76
598.074	6.9
598.264	6.83
598.454	6.84
598.644	6.77
598.834	6.8
599.024	6.71
599.214	6.69
599.404	6.79
599.594	6.72
599.784	6.65
599.974	6.72
600.164	6.64
600.354	6.58
600.544	6.54
600.734	6.63
600.924	6.59
601.114	6.54
601.303	6.56
601.493	6.57
601.683	6.6
601.873	6.56
602.063	6.49
602.252	6.52
602.442	6.39
602.632	6.46
602.821	6.42
603.011	6.51
603.201	6.45
603.39	6.4
603.58	6.29
603.77	6.4
603.959	6.42
604.149	6.28
604.339	6.35
604.528	6.41
604.718	6.38
604.907	6.25
605.097	6.27
605.286	6.26
605.476	6.22
605.665	6.31
605.855	6.19
606.044	6.23
606.234	6.29
606.423	6.16
606.612	6.19
606.802	6.12
606.991	6.21
607.181	6.2
607.37	6.21
607.559	5.89
607.749	6.09
607.938	5.98
608.127	6.04
608.316	6.03
608.506	5.94
608.695	6.07
608.884	5.96
609.073	5.96
609.263	6.08
609.452	6.03
609.641	5.85
609.83	5.81
610.019	5.92
610.208	5.85
610.397	5.82
610.586	5.87
610.775	5.82
610.965	5.85
611.154	5.68
611.343	5.75
611.532	5.66
611.721	5.84
611.91	5.71
612.099	5.76
612.287	5.67
612.476	5.56
612.665	5.7
612.854	5.63
613.043	5.64
613.232	5.66
613.421	5.57
613.61	5.66
613.798	5.54
613.987	5.6
614.176	5.5
614.365	5.53
614.554	5.5
614.742	5.57
614.931	5.41
615.12	5.51
615.309	5.5
615.497	5.33
615.686	5.28
615.875	5.37
616.063	5.36
616.252	5.34
616.44	5.34
616.629	5.35
616.818	5.26
617.006	5.29
617.195	5.2
617.383	5.19
617.572	5.16
617.76	5.22
617.949	5.19
618.137	5.28
618.326	5.22
618.514	5.06
618.703	5
618.891	5.14
619.079	5.06
619.268	5.18
619.456	4.99
619.644	5.13
619.833	5
620.021	5.05
620.209	4.89
620.398	5.04
620.586	4.92
620.774	4.94
620.962	4.96
621.151	5.03
621.339	4.91
621.527	4.9
621.715	4.82
621.903	4.79
622.092	4.74
622.28	4.86
622.468	4.68
622.656	4.77
622.844	4.68
623.032	4.83
623.22	4.66
623.408	4.73
623.596	4.72
623.784	4.79
623.972	4.69
624.16	4.59
624.348	4.72
624.536	4.73
624.724	4.57
624.912	4.69
625.1	4.67
625.288	4.61
625.476	4.49
625.664	4.64
625.851	4.53
626.039	4.57
626.227	4.48
626.415	4.45
626.603	4.43
626.79	4.46
626.978	4.47
627.166	4.47
627.354	4.35
627.541	4.3
627.729	4.27
627.917	4.54
628.104	4.37
628.292	4.37
628.48	4.39
628.667	4.25
628.855	4.32
629.042	4.37
629.23	4.26
629.418	4.3
629.605	4.28
629.793	4.18
629.98	4.28
630.168	4.18
630.355	4.19
630.543	4.16
630.73	4.1
630.917	4.07
631.105	4.22
631.292	4.06
631.48	4.1
631.667	4.16
631.854	4.08
632.042	4.07
632.229	3.99
632.416	4.1
632.604	3.98
632.791	3.94
632.978	4
633.165	3.98
633.353	4.02
633.54	3.98
633.727	3.9
633.914	3.87
634.101	3.84
634.289	3.94
634.476	3.81
634.663	3.84
634.85	3.78
635.037	3.78
635.224	3.71
635.411	3.85
635.598	3.71
635.785	3.78
635.972	3.73
636.159	3.69
636.346	3.69
636.533	3.63
636.72	3.64
636.907	3.69
637.094	3.64
637.281	3.57
637.468	3.66
637.655	3.63
637.842	3.64
638.029	3.59
638.215	3.54
638.402	3.58
638.589	3.5
638.776	3.48
638.963	3.51
639.149	3.56
639.336	3.54
639.523	3.43
639.709	3.34
639.896	3.39
640.083	3.43
640.27	3.43
640.456	3.41
640.643	3.41
640.829	3.29
641.016	3.31
641.203	3.27
641.389	3.34
641.576	3.36
641.762	3.33
641.949	3.19
642.135	3.29
642.322	3.24
642.508	3.16
642.695	3.22
642.881	3.2
643.068	3.16
643.254	3.21
643.441	3.25
643.627	3.18
643.813	3.06
644	3.17
644.186	3.07
644.372	3.17
644.559	3.11
644.745	3.06
644.931	3.01
645.118	3.03
645.304	3.13
645.49	3.06
645.676	3.01
645.862	3
646.049	3.09
646.235	3.01
646.421	3.07
646.607	3.06
646.793	2.93
646.979	2.91
647.165	2.96
647.352	2.96
647.538	2.96
647.724	2.92
647.91	2.89
648.096	2.88
648.282	2.9
648.468	2.86
648.654	2.91
648.84	2.82
649.026	2.82
649.212	2.8
649.397	2.8
649.583	2.73
649.769	2.8
649.955	2.77
650.141	2.87
650.327	2.74
650.513	2.75
650.698	2.7
650.884	2.65
651.07	2.74
651.256	2.67
651.442	2.74
651.627	2.58
651.813	2.73
651.999	2.6
652.184	2.64
652.37	2.65
652.556	2.67
652.741	2.66
652.927	2.5
653.113	2.56
653.298	2.61
653.484	2.57
653.669	2.56
653.855	2.53
654.04	2.6
654.226	2.56
654.412	2.56
654.597	2.46
654.782	2.52
654.968	2.49
655.153	2.52
655.339	2.45
655.524	2.42
655.71	2.47
655.895	2.47
656.08	2.49
656.266	2.5
656.451	2.47
656.636	2.39
656.822	2.47
657.007	2.44
657.192	2.41
657.378	2.32
657.563	2.35
657.748	2.41
657.933	2.38
658.118	2.3
658.304	2.33
658.489	2.41
658.674	2.41
658.859	2.29
659.044	2.29
659.229	2.34
659.414	2.29
659.599	2.27
659.785	2.18
659.97	2.31
660.155	2.25
660.34	2.26
660.525	2.22
660.71	2.21
660.895	2.24
661.08	2.21
661.264	2.18
661.449	2.24
661.634	2.2
661.819	2.22
662.004	2.17
662.189	2.1
662.374	2.11
662.559	2.03
662.743	2.06
662.928	2.08
663.113	2.03
663.298	2.04
663.483	2.06
663.667	2.07
663.852	1.98
664.037	2.09
664.221	1.98
664.406	2.09
664.591	2.02
664.775	1.98
664.96	1.94
665.145	1.97
665.329	1.98
665.514	1.93
665.698	1.92
665.883	1.9
666.068	1.99
666.252	1.91
666.437	1.85
666.621	1.89
666.806	1.92
666.99	1.85
667.174	1.77
667.359	1.88
667.543	1.77
667.728	1.81
667.912	1.72
668.096	1.78
668.281	1.73
668.465	1.75
668.649	1.75
668.834	1.72
669.018	1.73
669.202	1.77
669.387	1.75
669.571	1.83
669.755	1.66
669.939	1.72
670.124	1.66
670.308	1.7
670.492	1.67
670.676	1.72
670.86	1.65
671.044	1.66
671.228	1.7
671.413	1.6
671.597	1.62
671.781	1.55
671.965	1.62
672.149	1.58
672.333	1.59
672.517	1.52
672.701	1.59
672.885	1.56
673.069	1.47
673.253	1.65
673.437	1.57
673.621	1.56
673.804	1.55
673.988	1.52
674.172	1.53
674.356	1.44
674.54	1.52
674.724	1.56
674.908	1.48
675.091	1.53
675.275	1.5
675.459	1.56
675.643	1.49
675.826	1.47
676.01	1.46
676.194	1.47
676.377	1.53
676.561	1.48
676.745	1.46
676.928	1.49
677.112	1.47
677.296	1.41
677.479	1.4
677.663	1.38
677.846	1.4
678.03	1.41
678.213	1.35
678.397	1.36
678.58	1.3
678.764	1.33
678.947	1.34
679.131	1.31
679.314	1.4
679.498	1.31
679.681	1.34
679.865	1.36
680.048	1.27
680.231	1.32
680.415	1.32
680.598	1.27
680.781	1.26
680.965	1.26
681.148	1.27
681.331	1.28
681.514	1.32
681.698	1.24
681.881	1.26
682.064	1.25
682.247	1.26
682.43	1.17
682.614	1.19
682.797	1.31
682.98	1.28
683.163	1.17
683.346	1.27
683.529	1.19
683.712	1.18
683.895	1.26
684.078	1.13
684.261	1.15
684.444	1.2
684.627	1.24
684.81	1.15
684.993	1.2
685.176	1.19
685.359	1.13
685.542	1.09
685.725	1.27
685.908	1.15
686.091	1.14
686.274	1.2
686.457	1.16
686.639	1.15
686.822	1.17
687.005	1.11
687.188	1.18
687.371	1.17
687.553	1.17
687.736	1.15
687.919	1.2
688.102	1.13
688.284	1.09
688.467	1.1
688.65	1.1
688.832	1.06
689.015	1.05
689.197	0.97
689.38	1.13
689.563	1.12
689.745	1.03
689.928	1.01
690.11	1.02
690.293	1.02
690.475	0.99
690.658	1.06
690.84	1.03
691.023	0.97
691.205	1.03
691.388	0.98
691.57	1.06
691.752	1.01
691.935	0.92
692.117	0.94
692.3	1.01
692.482	0.96
692.664	0.96
692.847	0.95
693.029	1.05
693.211	1.07
693.393	0.91
693.576	0.91
693.758	0.99
693.94	0.97
694.122	0.93
694.304	0.95
694.487	0.92
694.669	1.01
694.851	0.9
695.033	0.91
695.215	0.91
695.397	0.9
695.579	0.91
695.761	0.84
695.943	0.86
696.125	0.98
696.308	0.95
696.49	0.79
696.671	1.03
696.853	0.88
697.035	1.07
697.217	0.87
697.399	0.93
697.581	0.83
697.763	0.9
697.945	0.8
698.127	0.94
698.309	0.91
698.491	0.89
698.672	0.89
698.854	0.87
699.036	0.88
699.218	0.83
699.399	0.86
699.581	0.88
699.763	0.81
699.945	0.79
700.126	0.79
700.308	0.84
700.49	0.78
700.671	0.74
700.853	0.77
701.035	0.81
701.216	0.83
701.398	0.75
701.579	0.77
701.761	0.86
701.943	0.76
702.124	0.73
702.306	0.83
702.487	0.94
702.669	0.86
702.85	0.74
703.031	0.7
703.213	0.84
703.394	0.83
703.576	0.75
703.757	0.89
703.938	0.84
704.12	0.92
704.301	0.78
704.483	0.74
704.664	0.79
704.845	0.86
705.026	0.83
705.208	0.7
705.389	0.71
705.57	0.76
705.751	0.77
705.933	0.73
706.114	0.83
706.295	0.76
706.476	0.64
706.657	0.87
706.838	0.73
707.02	0.76
707.201	0.73
707.382	0.7
707.563	0.78
707.744	0.75
707.925	0.61
708.106	0.65
708.287	0.72
708.468	0.75
708.649	0.66
708.83	0.71
709.011	0.7
709.192	0.79
709.373	0.61
709.554	0.69
709.734	0.81
709.915	0.76
710.096	0.72
710.277	0.54
710.458	0.77
710.639	0.73
710.819	0.5
711	0.69
711.181	0.7
711.362	0.72
711.542	0.71
711.723	0.67
711.904	0.73
712.085	0.67
712.265	0.72
712.446	0.61
712.627	0.68
712.807	0.64
712.988	0.61
713.168	0.54
713.349	0.76
713.53	0.48
713.71	0.55
713.891	0.61
714.071	0.56
714.252	0.63
714.432	0.6
714.613	0.51
714.793	0.65
714.974	0.74
715.154	0.74
715.334	0.68
715.515	0.69
715.695	0.55
715.876	0.61
716.056	0.59
716.236	0.58
716.417	0.57
716.597	0.58
716.777	0.85
716.957	0.6
717.138	0.66
717.318	0.67
717.498	0.47
717.678	0.72
717.859	0.68
718.039	0.49
718.219	0.66
718.399	0.6
718.579	0.5
718.759	0.57
718.939	0.63
719.12	0.58
719.3	0.6
719.48	0.48
719.66	0.42
719.84	0.74
720.02	0.64
720.2	0.47
720.38	0.62
720.56	0.74
720.74	0.55
720.92	0.6
721.1	0.7
721.279	0.64
721.459	0.6
721.639	0.52
721.819	0.58
721.999	0.59
722.179	0.64
722.359	0.49
722.538	0.54
722.718	0.63
722.898	0.51
723.078	0.53
723.257	0.51
723.437	0.67
723.617	0.63
723.797	0.58
723.976	0.59
724.156	0.66
724.336	0.64
724.515	0.82
724.695	0.47
724.874	0.59
725.054	0.62
725.234	0.61
725.413	0.62
725.593	0.62
725.772	0.56
725.952	0.6
726.131	0.6
726.311	0.62
726.49	0.61
726.67	0.46
726.849	0.56
727.028	0.67
727.208	0.49
727.387	0.56
727.567	0.4
727.746	0.62
727.925	0.52
728.105	0.44
728.284	0.52
728.463	0.56
728.643	0.56
728.822	0.51
729.001	0.51
729.18	0.59
729.359	0.67
729.539	0.56
729.718	0.58
729.897	0.69
730.076	0.5
730.255	0.5
730.434	0.58
730.614	0.63
730.793	0.6
730.972	0.47
731.151	0.51
731.33	0.68
731.509	0.61
731.688	0.5
731.867	0.59
732.046	0.48
732.225	0.74
732.404	0.57
732.583	0.42
732.762	0.54
732.941	0.59
733.12	0.61
733.298	0.62
733.477	0.68
733.656	0.48
733.835	0.57
734.014	0.7
734.193	0.49
734.371	0.6
734.55	0.63
734.729	0.45
734.908	0.6
735.086	0.55
735.265	0.59
735.444	0.48
735.623	0.6
735.801	0.51
735.98	0.61
736.159	0.59
736.337	0.67
736.516	0.69
736.694	0.66
736.873	0.54
737.052	0.79
737.23	0.77
737.409	0.54
737.587	0.78
737.766	0.45
737.944	0.44
738.123	0.63
738.301	0.73
738.479	0.64
738.658	0.56
738.836	0.45
739.015	0.66
739.193	0.67
739.371	0.48
739.55	0.54
739.728	0.4
739.906	0.66
740.085	0.78
740.263	0.61
740.441	0.46
740.62	0.73
740.798	0.5
740.976	0.46
741.154	0.37
741.332	0.65
741.511	0.52
741.689	0.57
741.867	0.59
742.045	0.51
742.223	0.52
742.401	0.57
742.579	0.3
742.757	0.6
742.935	0.45
743.114	0.41
743.292	0.48
743.47	0.55
743.648	0.52
743.826	0.56
744.004	0.55
744.181	0.61
744.359	0.57
744.537	0.52
744.715	0.48
744.893	0.49
745.071	0.47
745.249	0.42
745.427	0.37
745.605	0.49
745.782	0.5
745.96	0.53
746.138	0.71
746.316	0.51
746.493	0.46
746.671	0.42
746.849	0.41
747.027	0.72
747.204	0.3
747.382	0.48
747.56	0.36
747.737	0.39
747.915	0.38
748.093	0.45
748.27	0.37
748.448	0.49
748.625	0.39
748.803	0.41
748.98	0.32
749.158	0.57
749.335	0.47
749.513	0.4
749.69	0.43
749.868	0.37
750.045	0.41
750.223	0.4
750.4	0.27
750.578	0.56
750.755	0.44
750.932	0.11
751.11	0.55
751.287	0.23
751.464	0.61
751.642	0.27
751.819	0.54
751.996	0.49
752.173	0.36
752.351	0.3
752.528	0.33
752.705	0.36
752.882	0.33
753.06	0.49
753.237	0.47
753.414	0.66
753.591	0.48
753.768	0.35
753.945	0.33
754.122	0.34
754.299	0.51
754.476	0.26
754.654	0.41
754.831	0.54
755.008	0.41
755.185	0.3
755.362	0.33
755.539	0.5
755.716	0.5
755.892	0.41
756.069	0.46
756.246	0.42
756.423	0.41
756.6	0.52
756.777	0.42
756.954	0.61
757.131	0.36
757.307	0.38
757.484	0.19
757.661	0.46
757.838	0.55
758.015	0.24
758.191	0.37
758.368	0.44
758.545	0.54
758.721	0.49
758.898	0.16
759.075	0.53
759.251	0.6
759.428	0.49
759.605	0.33
759.781	0.3
759.958	0.4
760.134	0.44
760.311	0.37
760.488	0.52
760.664	0.54
760.841	0.29
761.017	0.24
761.194	0.54
761.37	0.52
761.547	0.47
761.723	0.37
761.899	0.5
762.076	0.32
762.252	0.26
762.429	0.27
762.605	0.55
762.781	0.47
762.958	0.42
763.134	0.3
763.31	0.31
763.486	0.49
763.663	0.14
763.839	0.35
764.015	0.19
764.191	0.29
764.368	0.39
764.544	0.31
764.72	0.31
764.896	0.31
765.072	0.35
765.248	0.3
765.425	0.35
765.601	0.36
765.777	0.49
765.953	0.07
766.129	0.24
766.305	0.32
766.481	0.51
766.657	0.32
766.833	0.51
767.009	0.23
767.185	0.29
767.361	0.3
767.537	0.27
767.713	0.48
767.889	0.26
768.065	0.29
768.24	0.41
768.416	0.37
768.592	0.25
768.768	0.33
768.944	0.52
769.12	0.29
769.295	0.42
769.471	0.32
769.647	0.46
769.823	0.59
769.998	0.41
770.174	0.33
770.35	0.71
770.525	0.61
770.701	0.52
770.877	0.3
771.052	0.27
771.228	0.51
771.403	0.46
771.579	0.36
771.755	0.65
771.93	0.26
772.106	0.28
772.281	0.13
772.457	0.35
772.632	0.45
772.808	0.23
772.983	0.31
773.159	0.2
773.334	0.48
773.509	0.37
773.685	0.13
773.86	0.7
774.036	0.55
774.211	0.57
774.386	0.31
774.562	0.42
774.737	0.55
774.912	0.3
775.087	0.38
775.263	0.41
775.438	0.35
775.613	0.17
775.788	0.35
775.964	0.57
776.139	0.52
776.314	0.22
776.489	0.45
776.664	0.47
776.839	0.23
777.014	0.53
777.19	0.53
777.365	0.53
777.54	0.6
777.715	0.21
777.89	0.33
778.065	0.2
778.24	0.39
778.415	0.52
778.59	0.1
778.765	0.39
778.94	0.44
779.115	0.33
779.289	0.18
779.464	0.45
779.639	0.35
779.814	0.18
779.989	0.13
780.164	0.67
780.339	0.37
780.513	0.28
780.688	0.24
780.863	0.47
781.038	0.71
781.212	0.18
781.387	0.34
781.562	0.47
781.737	0.36
781.911	0.63
782.086	0.23
782.261	0.46
782.435	0.69
782.61	0.14
782.784	0.53
782.959	0.48
783.134	0.38
783.308	0.27
783.483	0.43
783.657	0.93
783.832	0.5
784.006	0.23
784.181	0.56
784.355	0.62
784.53	0.33
784.704	0.46
784.878	0.6
785.053	0.44
785.227	0.68
785.402	0.59
785.576	0.32
785.75	0.48
785.925	0.4
786.099	0.49
786.273	0.43
786.448	0.47
786.622	0.52
786.796	0.48
786.97	0.52
787.145	0.68
787.319	0.37
787.493	0.22
787.667	0.13
787.841	0.66
788.015	0.66
788.19	0.21
788.364	0.38
788.538	0.65
788.712	0.55
788.886	0.48
789.06	0.44
789.234	0.67
789.408	0.17
789.582	0.18
789.756	0.48
789.93	0.26
790.104	0.34
790.278	0.49
790.452	0.18
790.626	0.66
790.8	0.13
790.973	0.62
791.147	0.5
791.321	0.62
791.495	0.59
791.669	0.51
791.843	0.54
792.016	0.59
792.19	0.87
792.364	0.24
792.538	1.08
792.711	0.87
792.885	0.21
793.059	0.11
793.233	-0.17
793.406	0.69
793.58	0.5
793.754	0.65
793.927	0.24
794.101	0.67
794.274	0.6
794.448	0.63
794.622	0.22
794.795	0.72
794.969	0.25
795.142	0.83
795.316	0.31
795.489	0.38
795.663	0.88
795.836	0.42
796.009	0.39
796.183	0.96
796.356	0.6
796.53	0.63
796.703	0.53
796.876	0.89
797.05	0.37
797.223	0.21
797.396	0.71
797.57	0.46
797.743	0.59
797.916	0.37
798.09	0.27
798.263	0.68
798.436	0.72
798.609	0.35
798.782	0.31
798.956	0.63
799.129	0.65
799.302	0.29
799.475	0.25
799.648	0.21
799.821	0.42
799.994	0.54
800.167	0.28
800.34	0.27
800.514	0.46
800.687	0.23
800.86	0.27
801.033	0.34
801.206	0.46
801.379	0.35
801.551	0.71
801.724	0.73
801.897	1.11
802.07	0.53
802.243	-0.12
802.416	0.61
802.589	0.32
802.762	0.56
802.935	0.36
803.107	0.85
803.28	0.9
803.453	0.92
803.626	0.49
803.798	0.79
803.971	0.21
804.144	0.59
804.317	0.75
804.489	0.71
804.662	0.46
804.835	0.33
805.007	0.11
805.18	1.02
805.353	0.6
805.525	0.31
805.698	0.18
805.87	0.53
806.043	0.72
806.215	0.21
806.388	0.21
806.56	0.52
806.733	0.82
806.905	0.68
807.078	0.49
807.25	0.2
807.423	0.7
807.595	0.57
807.768	0.69
807.94	0.76
808.112	0.5
808.285	0.59
808.457	0.66
808.629	0.69
808.802	0.85
808.974	0.55
809.146	0.36
809.318	0.5
809.491	0.61
809.663	0.93
809.835	0.35
810.007	0.69
810.18	0.34
810.352	0.07
810.524	0.33
810.696	0.66
810.868	0.76
811.04	0.5
811.212	0.64
811.384	0.84
811.556	0.8
811.728	0.59
811.901	1.4
812.073	0.54
812.245	0.84
812.417	0.5
812.589	-0.11
812.76	0.33
812.932	0.96
813.104	0.59
813.276	0.49
813.448	1.28
813.62	0.43
813.792	0.72
813.964	0.08
814.136	1.1
814.307	0.5
814.479	0.6
814.651	0.33
814.823	1.63
814.995	0.43
815.166	0.75
815.338	0.14
815.51	0.19
815.681	1.27
815.853	0.46
816.025	0.44
816.196	1.21
816.368	0.64
816.54	0.22
816.711	0.2
816.883	1.15
817.054	1.59
817.226	-0.02
817.398	0.4
817.569	0.45
817.741	0.9
817.912	0.98
818.084	0.05
818.255	0.54
818.426	0.54
818.598	0.35
818.769	0.42
818.941	1.22
819.112	1.13
819.283	0.75
819.455	0.08
819.626	0.81
819.798	1
819.969	0.96
820.14	0.3
820.311	0.5
820.483	0.84
820.654	0.47
820.825	0.8
820.996	0.58
821.168	0.1
821.339	0.18
821.51	-0.06
821.681	0.53
821.852	0.82
822.023	0.22
822.195	0.1
822.366	0.75
822.537	0.52
822.708	0.57
822.879	0.56
823.05	1.06
823.221	0.55
823.392	0.63
823.563	0.76
823.734	0.75
823.905	0.71
824.076	0.16
824.247	0.49
824.418	0.29
824.589	1.73
824.759	0.85
824.93	1.12
825.101	-0.27
825.272	1.45
825.443	1.15
825.614	1.33
825.784	0.16
825.955	1.44
826.126	1.62
826.297	0.89
826.467	0.92
826.638	1.57
826.809	0.4
826.98	0.79
827.15	1.08
827.321	0.43
827.492	1.17
827.662	0.65
827.833	2.33
828.003	0.62
828.174	0.21
828.345	0.36
828.515	1.51
828.686	0.94
828.856	0.38
829.027	0.83
829.197	1.23
829.368	0.99
829.538	0.27
829.709	0.15
829.879	1.06
830.049	1.09
830.22	0.7
830.39	0.41
830.56	1.14
830.731	0.68
830.901	0.22
831.072	0.86
831.242	1.4
831.412	1.17
831.582	1.06
831.753	-0.25
831.923	1.47
832.093	0.98
832.263	1.17
832.434	0
832.604	0.4
832.774	1.39
832.944	0.56
833.114	0.67
833.284	1.25
833.454	-0.02
833.624	0.29
833.795	0.47
833.965	1.94
834.135	1.54
834.305	-0.03
834.475	0.16
834.645	1.39
834.815	0.72
834.985	0.11
835.155	0.37
835.325	1.52
835.494	1.33
835.664	0.58
835.834	0.48
836.004	0.5
836.174	1.11
836.344	0.68
836.514	0.37
836.684	0.55
836.853	-0.15
837.023	1.38
837.193	1.06
837.363	1.52
837.532	1.42
837.702	0.82
837.872	-0.1
838.041	1.4
838.211	1.52
838.381	0.79
838.55	1.02
838.72	3.12
838.89	2.31
839.059	0.98
839.229	-0.05
839.398	2.63
839.568	1.17
839.738	0.8
839.907	1.69
840.077	0.81
840.246	0.41
840.416	0.23
840.585	0.33
840.755	2.29
840.924	1.62
841.093	-0.07
841.263	0.37
841.432	1.16
841.602	-0.08
841.771	0.36
841.94	1.78
842.11	3.46
842.279	1.77
842.448	-0.34
842.617	0.57
842.787	2.53
842.956	0.24
843.125	1.81
843.294	1.75
843.464	1.68
843.633	1.87
843.802	-0.31
843.971	0.48
844.14	1.85
844.309	2.46
844.479	0.39
844.648	1.03
844.817	0.27
844.986	1.54
845.155	0.87
845.324	0.53
845.493	1.77
845.662	1.4
845.831	1.31
846	1.62
846.169	0.81
846.338	1.7
846.507	1.14
846.676	1.63
846.844	1.41
847.013	1.98
847.182	0.93
847.351	-0.31
847.52	0.75
847.689	1.4
847.858	1.31
848.026	-0.08
848.195	1.49
848.364	0.71
848.533	0.57
848.701	0.49
848.87	0.98
849.039	2.3
849.207	1.87
849.376	2.81
849.545	2.53
849.713	0.81
849.882	1.15
850.051	1.2
850.219	1.48
850.388	1.51
850.556	0.43
850.725	0.36
850.893	2.06
851.062	1.35
851.23	1.35
851.399	0.08
851.567	-0.01
851.736	1.31
851.904	0.72
852.073	0.7
852.241	2.68
852.41	1.55
852.578	-0.2
852.746	1.25
852.915	1.62
853.083	0.44
853.251	0.19
853.42	-0.02
853.588	1.61
853.756	2.04
853.924	0.44
854.093	0.35
854.261	1.04
854.429	-0.75
854.597	0.59
854.765	0.14
854.934	2.37
855.102	2.7
855.27	1.07
855.438	2.17
855.606	1.76
855.774	2.37
855.942	0.28
856.11	0.92
856.278	1.37
856.446	2.25
856.614	0.5
856.782	0.31
856.95	3.01
857.118	1.09
857.286	2.87
857.454	0.93
857.622	2.83
857.79	2.7
857.958	-0.38
858.126	1.94
858.294	0.35
858.462	1.17
858.629	0.85
858.797	-0.2
858.965	1.93
859.133	1.54
859.301	0.99
859.468	1.94
859.636	1.27
859.804	2.64
859.971	1.04
860.139	0.77
860.307	3.27
860.474	1.55
860.642	1.48
860.81	0.19
860.977	0.49
861.145	1.7
861.313	1.24
861.48	0.73
861.648	2.33
861.815	0.83
861.983	-1.15
862.15	1.23
862.318	3.12
862.485	2.33
862.653	1.13
862.82	0.04
862.988	3.22
863.155	2.51
863.322	0.57
863.49	1.15
863.657	1.4
863.824	4.61
863.992	3.46
864.159	1.95
864.326	3.69
864.494	0.6
864.661	2.41
864.828	1.41
864.996	4
865.163	2.75
865.33	1.6
865.497	-1.23
865.664	1.3
865.832	-0.34
865.999	1.09
866.166	-0.42
866.333	1.46
866.5	2.06
866.667	1.66
866.834	1.42
867.001	3.84
867.168	0.77
867.335	1.37
867.502	-0.17
867.669	2.25
867.836	2.78
868.003	1.22
868.17	3.46
868.337	2.9
868.504	4.49
868.671	0.99
868.838	0.54
869.005	0.88
869.172	3.33
869.339	0.97
869.505	1
869.672	1.97
869.839	4.48
870.006	1.71
870.173	-0.65
870.339	3.42
870.506	3.55
870.673	1.64
870.84	2.6
871.006	2.72
871.173	1.44
871.34	1.11
871.506	1.1
871.673	3.05
871.839	0.34
872.006	2.25
872.173	-0.33
872.339	2.32
872.506	1.09
872.672	0.39
872.839	0.33
873.005	1.43
873.172	4.55
873.338	3.71
873.505	2.49
873.671	2.06
873.838	3.35
874.004	1.25
874.171	1.12
874.337	3.16
874.503	2.61
874.67	1.49
874.836	1.32
875.002	2.09
875.169	3.31
875.335	2.45
875.501	-0.37
875.668	2.55
875.834	2.37
876	1.7
876.166	3.21
876.332	2.54
876.499	5.61
876.665	3.15
876.831	1.14
876.997	5.69
877.163	2.73
877.329	1.86
877.495	2.94
877.662	3.24
877.828	2.65
877.994	2.41
878.16	-0.19
878.326	0.75
878.492	3.47
878.658	2.35
878.824	2.18
878.99	4.27
879.156	1.63
879.322	4.89
879.487	1.21
879.653	2.67
879.819	1.13
879.985	1.33
880.151	3.45
880.317	1.75
880.483	3.49
880.648	2.94
880.814	0.42
880.98	2.15
881.146	-0.31
881.312	1.12
881.477	-0.14
881.643	3.08
881.809	4.38
881.974	2.44
882.14	-0.29
882.306	0.43
882.471	4.12
882.637	2.14
882.803	2.71
882.968	2.46
883.134	6.07
883.299	-0.96
883.465	2.33
883.63	5.09
883.796	2.57
883.961	1.33
884.127	1.91
884.292	-2.7
884.458	0.16
884.623	0.16
