Data from Apollo_Calib_20240827__AbsoluteIrradiance__806__12-35-00-524.txt Node

Date: Wed Aug 28 12:35:00 BST 2024
User: biology
Spectrometer: FLMT08252
Trigger mode: 0
Integration Time (sec): 5.000000E-1
Scans to average: 5
Electric dark correction enabled: true
Nonlinearity correction enabled: false
Boxcar width: 0
XAxis mode: Wavelengths
Number of Pixels in Spectrum: 3648
>>>>>Begin Spectral Data<<<<<
179.588	-0
179.809	-0
180.03	-0
180.251	-0
180.473	-0
180.694	0
180.915	0
181.136	-0
181.357	0
181.578	-0
181.799	0
182.02	-0
182.241	-0
182.462	-0
182.683	0
182.904	-0
183.125	-0
183.346	0
183.567	0
183.788	0
184.009	0
184.23	0
184.451	0
184.672	0
184.892	0
185.113	0
185.334	0
185.555	0
185.776	0
185.996	0
186.217	0
186.438	0
186.659	0
186.879	0
187.1	0
187.321	0
187.541	0
187.762	0
187.983	0
188.203	0
188.424	0
188.644	0
188.865	0
189.086	0
189.306	0
189.527	0
189.747	0
189.968	0
190.188	0
190.409	0
190.629	0
190.849	0
191.07	0
191.29	0
191.511	0
191.731	0
191.951	0
192.172	0
192.392	0
192.612	0
192.833	0
193.053	0
193.273	0
193.493	0
193.714	0
193.934	0
194.154	0
194.374	0
194.594	0
194.815	0
195.035	0
195.255	0
195.475	0
195.695	0
195.915	0
196.135	0
196.355	0
196.575	0
196.795	0
197.015	0
197.235	0
197.455	0
197.675	0
197.895	0
198.115	0
198.335	0
198.555	0
198.775	0
198.995	0
199.214	0
199.434	0
199.654	0
199.874	0
200.094	3.7
200.313	2.78
200.533	2.17
200.753	1.31
200.973	3.93
201.192	3.22
201.412	1.38
201.632	2.26
201.851	3.7
202.071	1.8
202.291	1.88
202.51	1.1
202.73	2.6
202.95	1.78
203.169	1.98
203.389	1.8
203.608	2.28
203.828	1.49
204.047	1.75
204.267	2.23
204.486	1.85
204.706	2.89
204.925	1.86
205.145	1.64
205.364	2.27
205.583	2.57
205.803	1.41
206.022	1.07
206.242	1.75
206.461	1.41
206.68	0.92
206.9	1.78
207.119	2.25
207.338	2.14
207.557	1.08
207.777	1.19
207.996	1.32
208.215	2.12
208.434	1.08
208.654	0.86
208.873	1.64
209.092	2.01
209.311	1.38
209.53	1.28
209.749	1.18
209.968	1.07
210.187	0.79
210.407	0.91
210.626	1.24
210.845	1.37
211.064	1.12
211.283	0.74
211.502	1.63
211.721	1.3
211.94	0.97
212.159	1.27
212.377	1.71
212.596	1.62
212.815	1.05
213.034	1.11
213.253	1.47
213.472	1.22
213.691	1.06
213.91	0.53
214.128	0.95
214.347	1.53
214.566	0.6
214.785	0.66
215.003	1.31
215.222	1.16
215.441	1.03
215.66	0.68
215.878	1.11
216.097	1.22
216.316	0.78
216.534	0.92
216.753	1.08
216.972	0.73
217.19	0.74
217.409	0.44
217.627	0.76
217.846	0.79
218.064	0.96
218.283	0.75
218.501	1.38
218.72	1.33
218.938	0.45
219.157	0.53
219.375	1.28
219.594	0.94
219.812	0.53
220.031	0.59
220.249	1.36
220.467	1.06
220.686	0.75
220.904	0.48
221.122	0.77
221.341	1.22
221.559	0.69
221.777	0.47
221.995	0.87
222.214	0.91
222.432	0.6
222.65	0.91
222.868	0.69
223.086	0.98
223.305	0.92
223.523	0.77
223.741	1.2
223.959	0.8
224.177	0.27
224.395	0.5
224.613	0.9
224.831	0.89
225.049	0.38
225.267	0.57
225.485	0.82
225.703	0.66
225.921	0.7
226.139	0.45
226.357	0.89
226.575	0.85
226.793	0.49
227.011	1.54
227.229	0.8
227.447	0.88
227.665	0.6
227.883	0.32
228.1	0.66
228.318	0.69
228.536	0.22
228.754	0.46
228.972	0.67
229.189	0.89
229.407	0.57
229.625	0.5
229.843	0.8
230.06	0.79
230.278	0.59
230.496	0.57
230.713	0.79
230.931	0.92
231.149	0.43
231.366	0.37
231.584	0.65
231.801	1.07
232.019	0.46
232.236	0.47
232.454	0.57
232.671	0.64
232.889	0.46
233.106	0.45
233.324	0.63
233.541	0.56
233.759	0.6
233.976	0.4
234.194	0.56
234.411	0.55
234.628	0.54
234.846	0.46
235.063	0.58
235.28	0.62
235.498	0.55
235.715	0.39
235.932	0.8
236.149	0.56
236.367	0.38
236.584	0.57
236.801	0.51
237.018	0.75
237.236	0.52
237.453	0.39
237.67	0.69
237.887	0.56
238.104	0.52
238.321	0.24
238.538	0.36
238.755	0.67
238.973	0.25
239.19	0.61
239.407	0.54
239.624	0.52
239.841	0.35
240.058	0.34
240.275	0.45
240.492	0.53
240.709	0.48
240.925	0.43
241.142	0.54
241.359	0.42
241.576	0.32
241.793	0.44
242.01	0.47
242.227	0.66
242.444	0.57
242.66	0.68
242.877	0.54
243.094	0.41
243.311	0.48
243.527	0.38
243.744	0.49
243.961	0.58
244.178	0.36
244.394	0.41
244.611	0.55
244.828	0.68
245.044	0.29
245.261	0.32
245.477	0.55
245.694	0.63
245.911	0.42
246.127	0.48
246.344	0.58
246.56	0.53
246.777	0.36
246.993	0.38
247.21	0.55
247.426	0.51
247.643	0.37
247.859	0.32
248.076	0.34
248.292	0.73
248.508	0.35
248.725	0.45
248.941	0.51
249.157	0.61
249.374	0.33
249.59	0.37
249.806	0.39
250.023	0.44
250.239	0.27
250.455	0.25
250.671	0.42
250.888	0.51
251.104	0.47
251.32	0.38
251.536	0.36
251.752	0.41
251.969	0.36
252.185	0.43
252.401	0.6
252.617	0.56
252.833	0.38
253.049	0.37
253.265	0.46
253.481	0.45
253.697	0.3
253.913	0.35
254.129	0.48
254.345	0.5
254.561	0.3
254.777	0.36
254.993	0.48
255.209	0.43
255.425	0.34
255.641	0.35
255.857	0.45
256.073	0.5
256.288	0.25
256.504	0.35
256.72	0.48
256.936	0.61
257.152	0.31
257.367	0.32
257.583	0.42
257.799	0.52
258.015	0.29
258.23	0.35
258.446	0.57
258.662	0.36
258.877	0.3
259.093	0.27
259.309	0.33
259.524	0.5
259.74	0.32
259.955	0.2
260.171	0.4
260.387	0.46
260.602	0.44
260.818	0.36
261.033	0.26
261.249	0.36
261.464	0.28
261.68	0.22
261.895	0.41
262.11	0.45
262.326	0.36
262.541	0.3
262.757	0.47
262.972	0.4
263.187	0.39
263.403	0.42
263.618	0.44
263.833	0.39
264.049	0.26
264.264	0.31
264.479	0.37
264.694	0.56
264.91	0.26
265.125	0.35
265.34	0.5
265.555	0.61
265.77	0.43
265.986	0.29
266.201	0.33
266.416	0.47
266.631	0.33
266.846	0.34
267.061	0.45
267.276	0.46
267.491	0.2
267.706	0.32
267.921	0.44
268.136	0.43
268.351	0.32
268.566	0.18
268.781	0.47
268.996	0.48
269.211	0.31
269.426	0.31
269.641	0.37
269.856	0.48
270.071	0.23
270.285	0.22
270.5	0.43
270.715	0.44
270.93	0.35
271.145	0.32
271.359	0.48
271.574	0.3
271.789	0.36
272.004	0.24
272.218	0.31
272.433	0.37
272.648	0.2
272.862	0.39
273.077	0.35
273.292	0.29
273.506	0.32
273.721	0.31
273.936	0.43
274.15	0.42
274.365	0.29
274.579	0.34
274.794	0.44
275.008	0.42
275.223	0.21
275.437	0.3
275.652	0.38
275.866	0.4
276.081	0.36
276.295	0.34
276.509	0.32
276.724	0.3
276.938	0.31
277.153	0.33
277.367	0.38
277.581	0.29
277.796	0.25
278.01	0.18
278.224	0.43
278.438	0.49
278.653	0.3
278.867	0.28
279.081	0.21
279.295	0.33
279.51	0.34
279.724	0.18
279.938	0.42
280.152	0.35
280.366	0.28
280.58	0.3
280.794	0.49
281.008	0.34
281.222	0.42
281.437	0.54
281.651	0.36
281.865	0.43
282.079	0.28
282.293	0.22
282.507	0.29
282.721	0.32
282.935	0.28
283.148	0.2
283.362	0.28
283.576	0.26
283.79	0.31
284.004	0.23
284.218	0.47
284.432	0.28
284.646	0.29
284.859	0.27
285.073	0.29
285.287	0.36
285.501	0.34
285.714	0.29
285.928	0.34
286.142	0.29
286.356	0.2
286.569	0.26
286.783	0.44
286.997	0.36
287.21	0.27
287.424	0.26
287.637	0.28
287.851	0.3
288.065	0.35
288.278	0.32
288.492	0.31
288.705	0.26
288.919	0.35
289.132	0.18
289.346	0.34
289.559	0.22
289.773	0.23
289.986	0.25
290.2	0.33
290.413	0.39
290.626	0.23
290.84	0.26
291.053	0.33
291.267	0.4
291.48	0.25
291.693	0.28
291.906	0.25
292.12	0.26
292.333	0.25
292.546	0.26
292.76	0.37
292.973	0.34
293.186	0.32
293.399	0.21
293.612	0.33
293.826	0.31
294.039	0.26
294.252	0.24
294.465	0.32
294.678	0.3
294.891	0.24
295.104	0.26
295.317	0.28
295.53	0.27
295.743	0.26
295.956	0.26
296.169	0.39
296.382	0.33
296.595	0.26
296.808	0.24
297.021	0.37
297.234	0.32
297.447	0.3
297.66	0.3
297.873	0.34
298.086	0.32
298.299	0.24
298.511	0.2
298.724	0.29
298.937	0.21
299.15	0.2
299.363	0.19
299.575	0.3
299.788	0.3
300.001	0.25
300.213	0.22
300.426	0.22
300.639	0.25
300.852	0.23
301.064	0.3
301.277	0.35
301.489	0.34
301.702	0.27
301.915	0.28
302.127	0.26
302.34	0.3
302.552	0.28
302.765	0.2
302.977	0.29
303.19	0.26
303.402	0.26
303.615	0.24
303.827	0.27
304.04	0.27
304.252	0.26
304.464	0.28
304.677	0.42
304.889	0.26
305.102	0.24
305.314	0.22
305.526	0.32
305.739	0.29
305.951	0.19
306.163	0.23
306.375	0.35
306.588	0.26
306.8	0.23
307.012	0.22
307.224	0.27
307.436	0.4
307.649	0.21
307.861	0.29
308.073	0.28
308.285	0.24
308.497	0.22
308.709	0.26
308.921	0.22
309.133	0.33
309.346	0.23
309.558	0.24
309.77	0.33
309.982	0.36
310.194	0.28
310.406	0.24
310.617	0.4
310.829	0.25
311.041	0.29
311.253	0.18
311.465	0.28
311.677	0.27
311.889	0.25
312.101	0.2
312.313	0.33
312.524	0.31
312.736	0.19
312.948	0.23
313.16	0.33
313.372	0.28
313.583	0.28
313.795	0.2
314.007	0.21
314.218	0.31
314.43	0.29
314.642	0.21
314.853	0.21
315.065	0.33
315.277	0.24
315.488	0.26
315.7	0.34
315.912	0.27
316.123	0.25
316.335	0.22
316.546	0.38
316.758	0.28
316.969	0.23
317.181	0.27
317.392	0.31
317.604	0.37
317.815	0.2
318.026	0.22
318.238	0.22
318.449	0.28
318.661	0.2
318.872	0.18
319.083	0.24
319.295	0.32
319.506	0.24
319.717	0.27
319.929	0.27
320.14	0.31
320.351	0.27
320.562	0.18
320.774	0.29
320.985	0.3
321.196	0.2
321.407	0.18
321.618	0.31
321.829	0.29
322.041	0.3
322.252	0.25
322.463	0.28
322.674	0.35
322.885	0.19
323.096	0.27
323.307	0.26
323.518	0.31
323.729	0.25
323.94	0.19
324.151	0.24
324.362	0.31
324.573	0.3
324.784	0.25
324.995	0.31
325.206	0.3
325.417	0.24
325.628	0.22
325.838	0.29
326.049	0.25
326.26	0.31
326.471	0.23
326.682	0.31
326.892	0.26
327.103	0.17
327.314	0.23
327.525	0.35
327.735	0.29
327.946	0.25
328.157	0.2
328.368	0.25
328.578	0.3
328.789	0.28
328.999	0.28
329.21	0.24
329.421	0.35
329.631	0.21
329.842	0.19
330.052	0.3
330.263	0.32
330.473	0.34
330.684	0.21
330.894	0.23
331.105	0.32
331.315	0.22
331.526	0.18
331.736	0.38
331.947	0.31
332.157	0.27
332.367	0.19
332.578	0.32
332.788	0.36
332.999	0.31
333.209	0.25
333.419	0.19
333.629	0.28
333.84	0.31
334.05	0.24
334.26	0.28
334.47	0.24
334.681	0.32
334.891	0.24
335.101	0.33
335.311	0.4
335.521	0.24
335.732	0.19
335.942	0.35
336.152	0.29
336.362	0.24
336.572	0.28
336.782	0.32
336.992	0.25
337.202	0.27
337.412	0.24
337.622	0.31
337.832	0.24
338.042	0.25
338.252	0.19
338.462	0.25
338.672	0.29
338.882	0.2
339.092	0.25
339.302	0.35
339.511	0.32
339.721	0.2
339.931	0.21
340.141	0.31
340.351	0.33
340.561	0.29
340.77	0.28
340.98	0.3
341.19	0.31
341.4	0.23
341.609	0.22
341.819	0.23
342.029	0.21
342.238	0.33
342.448	0.23
342.658	0.33
342.867	0.27
343.077	0.23
343.286	0.24
343.496	0.33
343.706	0.31
343.915	0.24
344.125	0.29
344.334	0.25
344.544	0.24
344.753	0.22
344.963	0.19
345.172	0.21
345.381	0.21
345.591	0.24
345.8	0.24
346.01	0.35
346.219	0.31
346.428	0.1
346.638	0.26
346.847	0.27
347.056	0.31
347.266	0.23
347.475	0.25
347.684	0.29
347.893	0.26
348.103	0.27
348.312	0.25
348.521	0.28
348.73	0.24
348.94	0.28
349.149	0.24
349.358	0.23
349.567	0.22
349.776	0.16
349.985	0.23
350.194	0.34
350.403	0.31
350.612	0.17
350.821	0.22
351.03	0.31
351.239	0.2
351.448	0.24
351.657	0.26
351.866	0.36
352.075	0.27
352.284	0.29
352.493	0.17
352.702	0.34
352.911	0.27
353.12	0.25
353.329	0.23
353.538	0.31
353.746	0.26
353.955	0.16
354.164	0.25
354.373	0.23
354.582	0.32
354.79	0.27
354.999	0.28
355.208	0.25
355.416	0.35
355.625	0.22
355.834	0.27
356.042	0.28
356.251	0.24
356.46	0.19
356.668	0.28
356.877	0.37
357.085	0.32
357.294	0.15
357.503	0.29
357.711	0.25
357.92	0.43
358.128	0.28
358.337	0.22
358.545	0.28
358.754	0.22
358.962	0.29
359.17	0.25
359.379	0.29
359.587	0.31
359.796	0.24
360.004	0.31
360.212	0.26
360.421	0.35
360.629	0.2
360.837	0.21
361.046	0.34
361.254	0.39
361.462	0.25
361.67	0.23
361.879	0.29
362.087	0.4
362.295	0.23
362.503	0.22
362.711	0.21
362.92	0.22
363.128	0.22
363.336	0.19
363.544	0.2
363.752	0.28
363.96	0.22
364.168	0.23
364.376	0.26
364.584	0.26
364.792	0.34
365	0.28
365.208	0.27
365.416	0.27
365.624	0.28
365.832	0.2
366.04	0.33
366.248	0.27
366.456	0.25
366.664	0.25
366.872	0.22
367.079	0.25
367.287	0.26
367.495	0.28
367.703	0.26
367.911	0.26
368.118	0.28
368.326	0.24
368.534	0.21
368.742	0.31
368.949	0.19
369.157	0.21
369.365	0.28
369.572	0.25
369.78	0.23
369.988	0.32
370.195	0.3
370.403	0.28
370.61	0.21
370.818	0.27
371.026	0.39
371.233	0.2
371.441	0.26
371.648	0.28
371.856	0.3
372.063	0.3
372.271	0.24
372.478	0.23
372.685	0.25
372.893	0.32
373.1	0.24
373.308	0.21
373.515	0.39
373.722	0.34
373.93	0.25
374.137	0.29
374.344	0.38
374.552	0.31
374.759	0.3
374.966	0.28
375.173	0.25
375.381	0.32
375.588	0.31
375.795	0.21
376.002	0.23
376.209	0.25
376.417	0.21
376.624	0.26
376.831	0.28
377.038	0.26
377.245	0.16
377.452	0.26
377.659	0.28
377.866	0.18
378.073	0.24
378.28	0.23
378.487	0.32
378.694	0.33
378.901	0.26
379.108	0.22
379.315	0.28
379.522	0.4
379.729	0.25
379.936	0.24
380.143	0.3
380.35	0.3
380.557	0.27
380.763	0.27
380.97	0.28
381.177	0.33
381.384	0.28
381.591	0.24
381.797	0.27
382.004	0.36
382.211	0.31
382.418	0.23
382.624	0.31
382.831	0.31
383.038	0.29
383.244	0.25
383.451	0.29
383.658	0.31
383.864	0.28
384.071	0.24
384.277	0.36
384.484	0.25
384.69	0.35
384.897	0.24
385.103	0.25
385.31	0.3
385.516	0.25
385.723	0.21
385.929	0.27
386.136	0.28
386.342	0.32
386.549	0.23
386.755	0.38
386.961	0.32
387.168	0.24
387.374	0.29
387.58	0.29
387.787	0.26
387.993	0.33
388.199	0.31
388.406	0.26
388.612	0.27
388.818	0.28
389.024	0.23
389.231	0.28
389.437	0.36
389.643	0.35
389.849	0.26
390.055	0.29
390.261	0.27
390.467	0.29
390.674	0.29
390.88	0.29
391.086	0.32
391.292	0.27
391.498	0.34
391.704	0.31
391.91	0.3
392.116	0.25
392.322	0.2
392.528	0.37
392.734	0.31
392.94	0.32
393.146	0.28
393.352	0.37
393.557	0.29
393.763	0.32
393.969	0.4
394.175	0.33
394.381	0.31
394.587	0.25
394.792	0.33
394.998	0.36
395.204	0.39
395.41	0.3
395.615	0.28
395.821	0.35
396.027	0.35
396.233	0.3
396.438	0.34
396.644	0.39
396.85	0.35
397.055	0.3
397.261	0.32
397.466	0.35
397.672	0.36
397.878	0.39
398.083	0.39
398.289	0.32
398.494	0.43
398.7	0.37
398.905	0.28
399.111	0.41
399.316	0.31
399.522	0.35
399.727	0.33
399.932	0.34
400.138	0.4
400.343	0.4
400.549	0.32
400.754	0.34
400.959	0.41
401.165	0.37
401.37	0.39
401.575	0.47
401.78	0.38
401.986	0.35
402.191	0.33
402.396	0.36
402.601	0.42
402.807	0.38
403.012	0.41
403.217	0.49
403.422	0.4
403.627	0.44
403.832	0.38
404.037	0.47
404.243	0.46
404.448	0.39
404.653	0.39
404.858	0.42
405.063	0.51
405.268	0.43
405.473	0.4
405.678	0.44
405.883	0.64
406.088	0.5
406.293	0.42
406.498	0.45
406.703	0.49
406.907	0.49
407.112	0.46
407.317	0.52
407.522	0.57
407.727	0.54
407.932	0.55
408.136	0.71
408.341	0.5
408.546	0.58
408.751	0.58
408.956	0.62
409.16	0.67
409.365	0.62
409.57	0.63
409.774	0.64
409.979	0.69
410.184	0.71
410.388	0.62
410.593	0.79
410.798	0.78
411.002	0.73
411.207	0.82
411.411	0.8
411.616	0.72
411.82	0.84
412.025	0.85
412.229	0.8
412.434	1.01
412.638	0.94
412.843	0.98
413.047	1
413.252	0.92
413.456	1.02
413.66	1.08
413.865	1.11
414.069	1.21
414.273	1.1
414.478	1.16
414.682	1.17
414.886	1.24
415.091	1.22
415.295	1.24
415.499	1.41
415.703	1.38
415.908	1.46
416.112	1.43
416.316	1.55
416.52	1.62
416.724	1.58
416.929	1.64
417.133	1.87
417.337	1.74
417.541	1.84
417.745	1.87
417.949	2.01
418.153	2.05
418.357	2.03
418.561	2.35
418.765	2.23
418.969	2.42
419.173	2.48
419.377	2.46
419.581	2.65
419.785	2.65
419.989	2.72
420.193	2.81
420.397	3.02
420.601	3.18
420.804	3.18
421.008	3.18
421.212	3.29
421.416	3.31
421.62	3.35
421.823	3.46
422.027	3.63
422.231	3.57
422.435	3.51
422.638	3.58
422.842	3.72
423.046	3.76
423.249	4.06
423.453	4.14
423.657	4.14
423.86	4.33
424.064	4.37
424.268	4.55
424.471	4.58
424.675	4.84
424.878	4.83
425.082	4.91
425.285	5.18
425.489	5.17
425.692	5.35
425.896	5.33
426.099	5.57
426.303	5.68
426.506	5.79
426.71	6.11
426.913	6.21
427.116	6.5
427.32	6.35
427.523	6.51
427.726	6.72
427.93	6.94
428.133	7.2
428.336	7.41
428.54	7.49
428.743	7.76
428.946	7.98
429.149	8.02
429.353	7.98
429.556	8.11
429.759	8.22
429.962	8.28
430.165	8.49
430.368	8.2
430.571	8.05
430.775	8.23
430.978	8.15
431.181	8.17
431.384	8.28
431.587	8.33
431.79	8.85
431.993	8.86
432.196	9.1
432.399	9.32
432.602	9.59
432.805	9.56
433.008	10.09
433.211	10.02
433.414	10.33
433.616	10.47
433.819	10.47
434.022	10.52
434.225	10.71
434.428	10.72
434.631	11.11
434.833	11.01
435.036	11.15
435.239	11.37
435.442	11.34
435.645	11.55
435.847	11.61
436.05	12
436.253	12.16
436.455	12.25
436.658	12.26
436.861	12.52
437.063	12.57
437.266	12.5
437.468	12.89
437.671	13.25
437.874	13.27
438.076	13.02
438.279	13.56
438.481	13.39
438.684	14.28
438.886	13.97
439.089	14.32
439.291	14.29
439.494	14.73
439.696	14.86
439.899	15.42
440.101	15.9
440.303	15.98
440.506	16.72
440.708	16.44
440.91	16.57
441.113	16.8
441.315	16.95
441.517	16.71
441.72	17.31
441.922	16.94
442.124	16.91
442.326	17.32
442.529	17.51
442.731	17.43
442.933	17.91
443.135	17.63
443.337	17.69
443.539	18.01
443.742	17.79
443.944	18.43
444.146	18.15
444.348	18.18
444.55	18.09
444.752	18.14
444.954	18.17
445.156	18.03
445.358	18.51
445.56	18.65
445.762	18.59
445.964	18.9
446.166	18.75
446.368	18.77
446.57	18.62
446.772	18.29
446.974	17.96
447.175	18.43
447.377	18.1
447.579	18.45
447.781	17.98
447.983	17.89
448.184	17.43
448.386	17.72
448.588	17.2
448.79	17.27
448.991	17.44
449.193	17.43
449.395	16.81
449.597	16.41
449.798	16.42
450	15.86
450.202	15.8
450.403	15.84
450.605	15.82
450.806	15.32
451.008	15.31
451.21	14.87
451.411	14.54
451.613	13.82
451.814	13.93
452.016	14.03
452.217	13.14
452.419	13.22
452.62	12.9
452.821	12.74
453.023	12.44
453.224	12.14
453.426	11.82
453.627	11.13
453.828	11.16
454.03	11.17
454.231	11.18
454.432	11.04
454.634	10.73
454.835	10.45
455.036	10.36
455.238	9.93
455.439	9.7
455.64	9.43
455.841	9.32
456.042	9.42
456.244	9.02
456.445	8.8
456.646	8.45
456.847	8.39
457.048	8.46
457.249	8.42
457.45	8.1
457.651	7.63
457.852	7.54
458.054	7.22
458.255	7.16
458.456	7.24
458.657	7.06
458.858	6.73
459.058	6.65
459.259	6.73
459.46	6.36
459.661	6.34
459.862	6.47
460.063	6.34
460.264	6.14
460.465	5.93
460.666	6.08
460.866	5.76
461.067	5.5
461.268	5.53
461.469	5.46
461.67	5.38
461.87	5.24
462.071	5.22
462.272	5.01
462.473	5.09
462.673	5.29
462.874	5.14
463.075	5.13
463.275	5.06
463.476	5.15
463.676	5.02
463.877	4.93
464.078	4.9
464.278	4.88
464.479	4.83
464.679	4.71
464.88	4.68
465.08	4.65
465.281	4.43
465.481	4.27
465.682	4.17
465.882	4.11
466.083	4.14
466.283	4.04
466.483	3.86
466.684	3.67
466.884	3.69
467.085	3.63
467.285	3.69
467.485	3.6
467.686	3.52
467.886	3.38
468.086	3.3
468.286	3.35
468.487	3.45
468.687	3.24
468.887	3.2
469.087	3.3
469.287	3.15
469.488	3.06
469.688	3.18
469.888	3.12
470.088	3.11
470.288	2.99
470.488	3.02
470.688	2.78
470.888	2.79
471.088	2.64
471.288	2.83
471.488	2.76
471.688	2.77
471.888	2.6
472.088	2.77
472.288	2.69
472.488	2.6
472.688	2.52
472.888	2.58
473.088	2.58
473.288	2.49
473.488	2.49
473.688	2.62
473.887	2.51
474.087	2.44
474.287	2.44
474.487	2.38
474.687	2.41
474.886	2.37
475.086	2.26
475.286	2.29
475.486	2.36
475.685	2.24
475.885	2.24
476.085	2.3
476.284	2.26
476.484	2.27
476.684	2.21
476.883	2.29
477.083	2.17
477.282	2.15
477.482	2.2
477.681	2.17
477.881	2.04
478.08	2.08
478.28	2.06
478.479	2.09
478.679	2.16
478.878	2.07
479.078	2.03
479.277	2.09
479.477	2.05
479.676	1.99
479.875	2.02
480.075	1.95
480.274	2
480.473	2.06
480.673	2.02
480.872	2.11
481.071	2.06
481.271	2.03
481.47	1.94
481.669	2
481.868	1.96
482.067	1.99
482.267	1.93
482.466	1.95
482.665	1.95
482.864	1.92
483.063	1.95
483.262	2.05
483.461	2.03
483.661	2.09
483.86	2.01
484.059	2.03
484.258	2.04
484.457	2.02
484.656	2.01
484.855	2.06
485.054	1.92
485.253	2.01
485.452	1.96
485.651	2.07
485.849	2.03
486.048	1.98
486.247	1.99
486.446	2.1
486.645	2
486.844	2.03
487.043	2.06
487.241	2.1
487.44	2.08
487.639	2.14
487.838	2.13
488.037	2.09
488.235	2.25
488.434	2.19
488.633	2.05
488.831	2.24
489.03	2.26
489.229	2.24
489.427	2.23
489.626	2.3
489.825	2.27
490.023	2.31
490.222	2.29
490.42	2.32
490.619	2.39
490.817	2.35
491.016	2.36
491.214	2.42
491.413	2.43
491.611	2.42
491.81	2.38
492.008	2.44
492.207	2.54
492.405	2.55
492.604	2.45
492.802	2.54
493	2.61
493.199	2.62
493.397	2.68
493.595	2.68
493.794	2.68
493.992	2.79
494.19	2.79
494.388	2.8
494.587	2.76
494.785	2.79
494.983	2.76
495.181	2.87
495.379	2.9
495.578	2.94
495.776	2.94
495.974	2.98
496.172	2.99
496.37	3.1
496.568	3.13
496.766	3.12
496.964	3.15
497.162	3.18
497.36	3.21
497.558	3.27
497.756	3.3
497.954	3.28
498.152	3.33
498.35	3.44
498.548	3.35
498.746	3.42
498.944	3.41
499.142	3.45
499.34	3.55
499.538	3.63
499.736	3.52
499.933	3.64
500.131	3.62
500.329	3.77
500.527	3.76
500.725	3.83
500.922	3.89
501.12	3.89
501.318	3.94
501.516	4
501.713	4.01
501.911	3.98
502.109	3.94
502.306	4.08
502.504	4.06
502.701	4.13
502.899	4.2
503.097	4.36
503.294	4.22
503.492	4.39
503.689	4.37
503.887	4.41
504.084	4.46
504.282	4.45
504.479	4.42
504.677	4.6
504.874	4.54
505.072	4.47
505.269	4.67
505.466	4.74
505.664	4.78
505.861	4.68
506.059	4.78
506.256	4.78
506.453	4.85
506.651	4.97
506.848	5.01
507.045	4.97
507.242	5
507.44	5.03
507.637	5.14
507.834	5.06
508.031	5.22
508.229	5.15
508.426	5.12
508.623	5.28
508.82	5.32
509.017	5.26
509.214	5.27
509.411	5.46
509.608	5.38
509.805	5.52
510.003	5.48
510.2	5.53
510.397	5.68
510.594	5.58
510.791	5.7
510.988	5.67
511.184	5.64
511.381	5.53
511.578	5.71
511.775	5.85
511.972	5.73
512.169	5.82
512.366	5.84
512.563	5.96
512.76	5.97
512.956	6.02
513.153	5.97
513.35	5.91
513.547	5.94
513.744	6.05
513.94	6.05
514.137	6.16
514.334	6.13
514.53	6.17
514.727	6.39
514.924	6.26
515.12	6.25
515.317	6.26
515.514	6.2
515.71	6.23
515.907	6.41
516.103	6.44
516.3	6.36
516.497	6.51
516.693	6.51
516.89	6.53
517.086	6.54
517.283	6.58
517.479	6.42
517.676	6.6
517.872	6.66
518.068	6.73
518.265	6.63
518.461	6.6
518.658	6.74
518.854	6.74
519.05	6.84
519.247	6.84
519.443	6.75
519.639	6.9
519.836	6.76
520.032	6.76
520.228	6.91
520.424	6.91
520.621	7.02
520.817	6.98
521.013	6.95
521.209	7.13
521.405	7.1
521.601	7.09
521.798	7.05
521.994	7.06
522.19	7.01
522.386	7.07
522.582	7.12
522.778	7.25
522.974	7.2
523.17	7.13
523.366	7.07
523.562	7.21
523.758	7.14
523.954	7.08
524.15	7.29
524.346	7.29
524.542	7.27
524.738	7.21
524.934	7.41
525.129	7.3
525.325	7.29
525.521	7.25
525.717	7.49
525.913	7.34
526.109	7.41
526.304	7.4
526.5	7.46
526.696	7.49
526.892	7.39
527.087	7.66
527.283	7.49
527.479	7.56
527.674	7.37
527.87	7.52
528.066	7.5
528.261	7.57
528.457	7.45
528.653	7.63
528.848	7.63
529.044	7.68
529.239	7.53
529.435	7.61
529.63	7.52
529.826	7.56
530.021	7.63
530.217	7.66
530.412	7.62
530.608	7.67
530.803	7.68
530.999	7.51
531.194	7.64
531.389	7.76
531.585	7.72
531.78	7.86
531.975	7.73
532.171	7.78
532.366	7.79
532.561	7.82
532.757	7.73
532.952	7.91
533.147	7.7
533.342	7.76
533.538	7.69
533.733	7.95
533.928	7.63
534.123	7.79
534.318	7.83
534.513	7.75
534.709	7.95
534.904	7.87
535.099	7.89
535.294	7.9
535.489	7.85
535.684	7.84
535.879	7.9
536.074	7.94
536.269	7.93
536.464	7.96
536.659	7.91
536.854	7.91
537.049	7.97
537.244	7.87
537.439	7.9
537.634	7.96
537.828	7.99
538.023	7.94
538.218	7.96
538.413	7.9
538.608	7.95
538.803	7.98
538.997	7.96
539.192	7.95
539.387	7.92
539.582	7.93
539.776	7.86
539.971	8.06
540.166	8.12
540.36	7.91
540.555	8.04
540.75	8.05
540.944	8.09
541.139	8.02
541.334	7.97
541.528	8.03
541.723	8.1
541.917	8.12
542.112	7.99
542.306	7.91
542.501	7.97
542.695	8.03
542.89	7.97
543.084	8.03
543.279	8.04
543.473	8.09
543.668	8.08
543.862	7.9
544.056	7.96
544.251	8.07
544.445	8.11
544.64	8.19
544.834	7.82
545.028	7.69
545.222	8.08
545.417	8.2
545.611	8.15
545.805	8.12
546	7.93
546.194	8.09
546.388	8.12
546.582	7.99
546.776	8
546.97	8.04
547.165	8.07
547.359	7.97
547.553	8.03
547.747	8.09
547.941	8.23
548.135	8.05
548.329	8.09
548.523	8.17
548.717	8.07
548.911	8.06
549.105	8.02
549.299	8.14
549.493	8.16
549.687	8.01
549.881	8.18
550.075	8.17
550.269	8.04
550.463	8.15
550.657	8.15
550.85	8.05
551.044	8.08
551.238	8.15
551.432	8.12
551.626	8.19
551.82	8.14
552.013	8.05
552.207	8.2
552.401	8.22
552.594	8.15
552.788	8.03
552.982	8.03
553.176	8.04
553.369	8.27
553.563	8.16
553.756	8.05
553.95	8.16
554.144	8.21
554.337	8.1
554.531	7.95
554.724	8.16
554.918	8.22
555.111	8.11
555.305	8.16
555.498	8.03
555.692	8.2
555.885	8.15
556.079	8.1
556.272	8.14
556.466	8.19
556.659	8.09
556.852	8.18
557.046	8.05
557.239	7.99
557.432	8.06
557.626	8.19
557.819	8.21
558.012	8.2
558.206	8.27
558.399	8.16
558.592	8.11
558.785	8.11
558.979	8.14
559.172	8.16
559.365	8.11
559.558	8.12
559.751	8.06
559.944	8.23
560.138	8.13
560.331	8.15
560.524	8.21
560.717	8.11
560.91	8.11
561.103	8.12
561.296	8.04
561.489	8.12
561.682	8.21
561.875	8.18
562.068	8.23
562.261	8.07
562.454	8.25
562.647	8.06
562.84	8.17
563.032	8.21
563.225	8.09
563.418	8.07
563.611	8.16
563.804	8.2
563.997	8.03
564.19	7.85
564.382	8.16
564.575	8.17
564.768	8.07
564.961	8.22
565.153	8.09
565.346	8.02
565.539	8.21
565.731	8.04
565.924	8.16
566.117	8.25
566.309	8.13
566.502	8.09
566.695	8.04
566.887	8.14
567.08	8.13
567.272	8.19
567.465	8.03
567.657	8.18
567.85	7.95
568.042	8.07
568.235	8.12
568.427	7.9
568.62	8.12
568.812	8.09
569.005	8.15
569.197	8.03
569.389	8.19
569.582	8.07
569.774	8.05
569.966	7.98
570.159	7.96
570.351	7.94
570.543	8.04
570.736	8.14
570.928	7.86
571.12	8.03
571.312	8.04
571.505	7.84
571.697	8.06
571.889	8.01
572.081	8.05
572.273	7.95
572.465	8.04
572.658	8.04
572.85	8.04
573.042	8.04
573.234	7.9
573.426	7.99
573.618	7.9
573.81	8.05
574.002	7.98
574.194	8.03
574.386	7.94
574.578	7.79
574.77	7.89
574.962	7.98
575.154	7.88
575.346	7.9
575.538	7.85
575.729	7.81
575.921	7.99
576.113	7.99
576.305	7.94
576.497	8.05
576.689	7.8
576.88	7.78
577.072	8.06
577.264	7.86
577.456	7.91
577.647	7.8
577.839	7.99
578.031	7.88
578.223	7.82
578.414	7.67
578.606	7.85
578.798	7.96
578.989	7.83
579.181	7.93
579.372	7.91
579.564	7.86
579.755	7.79
579.947	7.71
580.139	7.85
580.33	7.64
580.522	7.8
580.713	7.72
580.905	7.7
581.096	7.9
581.287	7.75
581.479	7.7
581.67	7.81
581.862	7.66
582.053	7.7
582.244	7.55
582.436	7.84
582.627	7.65
582.818	7.63
583.01	7.63
583.201	7.69
583.392	7.65
583.583	7.61
583.775	7.53
583.966	7.63
584.157	7.7
584.348	7.69
584.54	7.56
584.731	7.59
584.922	7.59
585.113	7.47
585.304	7.62
585.495	7.58
585.686	7.67
585.877	7.6
586.068	7.65
586.259	7.58
586.45	7.51
586.641	7.5
586.832	7.64
587.023	7.56
587.214	7.51
587.405	7.58
587.596	7.4
587.787	7.4
587.978	7.5
588.169	7.39
588.36	7.4
588.551	7.46
588.742	7.42
588.932	7.45
589.123	7.23
589.314	7.53
589.505	7.37
589.696	7.37
589.886	7.36
590.077	7.33
590.268	7.28
590.458	7.27
590.649	7.15
590.84	7.38
591.03	7.32
591.221	7.24
591.412	7.14
591.602	7.4
591.793	7.23
591.984	7.28
592.174	7.26
592.365	7.4
592.555	7.14
592.746	7.18
592.936	7.23
593.127	7.24
593.317	7.18
593.508	7.23
593.698	7.13
593.889	7.2
594.079	7.06
594.269	7.09
594.46	7.05
594.65	7.09
594.84	7.06
595.031	6.93
595.221	7
595.411	7.02
595.602	7.05
595.792	6.97
595.982	6.93
596.172	7.12
596.363	6.93
596.553	6.9
596.743	6.97
596.933	6.92
597.123	6.89
597.314	6.83
597.504	6.84
597.694	7.01
597.884	6.83
598.074	6.86
598.264	6.85
598.454	6.84
598.644	6.84
598.834	6.69
599.024	6.69
599.214	6.71
599.404	6.8
599.594	6.76
599.784	6.62
599.974	6.74
600.164	6.75
600.354	6.61
600.544	6.55
600.734	6.71
600.924	6.67
601.114	6.56
601.303	6.56
601.493	6.59
601.683	6.61
601.873	6.54
602.063	6.45
602.252	6.58
602.442	6.41
602.632	6.47
602.821	6.36
603.011	6.54
603.201	6.47
603.39	6.4
603.58	6.36
603.77	6.45
603.959	6.44
604.149	6.37
604.339	6.39
604.528	6.41
604.718	6.39
604.907	6.29
605.097	6.25
605.286	6.27
605.476	6.34
605.665	6.29
605.855	6.19
606.044	6.27
606.234	6.28
606.423	6.23
606.612	6.17
606.802	6.08
606.991	6.15
607.181	6.17
607.37	6.15
607.559	5.97
607.749	6.15
607.938	6.01
608.127	6.03
608.316	6.16
608.506	6.01
608.695	6.1
608.884	6.03
609.073	6.05
609.263	6.05
609.452	6.01
609.641	5.88
609.83	5.79
610.019	5.9
610.208	5.83
610.397	5.92
610.586	5.84
610.775	5.77
610.965	5.85
611.154	5.71
611.343	5.85
611.532	5.76
611.721	5.84
611.91	5.75
612.099	5.73
612.287	5.61
612.476	5.58
612.665	5.78
612.854	5.63
613.043	5.66
613.232	5.64
613.421	5.57
613.61	5.62
613.798	5.61
613.987	5.53
614.176	5.56
614.365	5.56
614.554	5.53
614.742	5.61
614.931	5.49
615.12	5.56
615.309	5.49
615.497	5.35
615.686	5.34
615.875	5.4
616.063	5.37
616.252	5.34
616.44	5.4
616.629	5.33
616.818	5.28
617.006	5.26
617.195	5.24
617.383	5.23
617.572	5.16
617.76	5.18
617.949	5.2
618.137	5.23
618.326	5.29
618.514	5.03
618.703	5.06
618.891	5.19
619.079	5.09
619.268	5.22
619.456	5.04
619.644	5.12
619.833	5.01
620.021	5.04
620.209	4.95
620.398	5.05
620.586	4.94
620.774	4.93
620.962	4.91
621.151	5.05
621.339	4.9
621.527	4.82
621.715	4.85
621.903	4.87
622.092	4.78
622.28	4.93
622.468	4.66
622.656	4.83
622.844	4.8
623.032	4.82
623.22	4.65
623.408	4.83
623.596	4.74
623.784	4.78
623.972	4.66
624.16	4.68
624.348	4.72
624.536	4.74
624.724	4.57
624.912	4.65
625.1	4.66
625.288	4.68
625.476	4.48
625.664	4.62
625.851	4.55
626.039	4.55
626.227	4.47
626.415	4.54
626.603	4.42
626.79	4.48
626.978	4.45
627.166	4.49
627.354	4.39
627.541	4.36
627.729	4.3
627.917	4.56
628.104	4.42
628.292	4.33
628.48	4.38
628.667	4.28
628.855	4.4
629.042	4.37
629.23	4.31
629.418	4.29
629.605	4.25
629.793	4.16
629.98	4.16
630.168	4.12
630.355	4.21
630.543	4.18
630.73	4.07
630.917	4.09
631.105	4.24
631.292	4.12
631.48	4.06
631.667	4.27
631.854	4.04
632.042	4.02
632.229	3.98
632.416	4.09
632.604	4.02
632.791	3.88
632.978	3.96
633.165	3.93
633.353	4.05
633.54	3.9
633.727	3.83
633.914	3.88
634.101	3.81
634.289	3.95
634.476	3.84
634.663	3.88
634.85	3.76
635.037	3.77
635.224	3.68
635.411	3.86
635.598	3.78
635.785	3.75
635.972	3.73
636.159	3.78
636.346	3.68
636.533	3.63
636.72	3.67
636.907	3.64
637.094	3.63
637.281	3.58
637.468	3.62
637.655	3.63
637.842	3.6
638.029	3.53
638.215	3.51
638.402	3.52
638.589	3.43
638.776	3.43
638.963	3.46
639.149	3.53
639.336	3.57
639.523	3.43
639.709	3.45
639.896	3.38
640.083	3.39
640.27	3.42
640.456	3.32
640.643	3.38
640.829	3.29
641.016	3.26
641.203	3.22
641.389	3.31
641.576	3.33
641.762	3.23
641.949	3.26
642.135	3.3
642.322	3.21
642.508	3.1
642.695	3.23
642.881	3.19
643.068	3.14
643.254	3.13
643.441	3.19
643.627	3.18
643.813	3.12
644	3.14
644.186	3
644.372	3.18
644.559	3.1
644.745	3.03
644.931	2.96
645.118	3.03
645.304	3.01
645.49	2.97
645.676	2.98
645.862	3
646.049	3.05
646.235	2.98
646.421	3.05
646.607	3.04
646.793	2.89
646.979	2.9
647.165	2.87
647.352	2.94
647.538	2.93
647.724	2.82
647.91	2.81
648.096	2.88
648.282	2.88
648.468	2.79
648.654	2.81
648.84	2.79
649.026	2.81
649.212	2.75
649.397	2.72
649.583	2.73
649.769	2.75
649.955	2.68
650.141	2.74
650.327	2.74
650.513	2.65
650.698	2.72
650.884	2.6
651.07	2.69
651.256	2.67
651.442	2.63
651.627	2.53
651.813	2.67
651.999	2.58
652.184	2.55
652.37	2.55
652.556	2.52
652.741	2.58
652.927	2.39
653.113	2.53
653.298	2.51
653.484	2.52
653.669	2.48
653.855	2.46
654.04	2.56
654.226	2.44
654.412	2.44
654.597	2.36
654.782	2.44
654.968	2.49
655.153	2.42
655.339	2.38
655.524	2.34
655.71	2.45
655.895	2.34
656.08	2.35
656.266	2.41
656.451	2.3
656.636	2.26
656.822	2.31
657.007	2.3
657.192	2.3
657.378	2.21
657.563	2.26
657.748	2.27
657.933	2.28
658.118	2.19
658.304	2.19
658.489	2.28
658.674	2.19
658.859	2.13
659.044	2.17
659.229	2.2
659.414	2.12
659.599	2.1
659.785	2.11
659.97	2.14
660.155	2.17
660.34	2.17
660.525	2.12
660.71	2.06
660.895	2.12
661.08	2.07
661.264	2.04
661.449	2.12
661.634	2.07
661.819	2.08
662.004	2.06
662.189	1.97
662.374	2.04
662.559	1.92
662.743	1.91
662.928	2
663.113	1.92
663.298	1.91
663.483	1.93
663.667	1.97
663.852	1.93
664.037	2
664.221	1.89
664.406	1.94
664.591	1.99
664.775	1.92
664.96	1.84
665.145	1.9
665.329	1.93
665.514	1.87
665.698	1.87
665.883	1.76
666.068	1.91
666.252	1.83
666.437	1.81
666.621	1.84
666.806	1.83
666.99	1.77
667.174	1.77
667.359	1.86
667.543	1.78
667.728	1.8
667.912	1.73
668.096	1.71
668.281	1.77
668.465	1.77
668.649	1.67
668.834	1.7
669.018	1.72
669.202	1.72
669.387	1.67
669.571	1.8
669.755	1.67
669.939	1.69
670.124	1.66
670.308	1.74
670.492	1.72
670.676	1.67
670.86	1.61
671.044	1.58
671.228	1.64
671.413	1.55
671.597	1.56
671.781	1.6
671.965	1.62
672.149	1.62
672.333	1.57
672.517	1.61
672.701	1.59
672.885	1.54
673.069	1.47
673.253	1.65
673.437	1.52
673.621	1.48
673.804	1.55
673.988	1.52
674.172	1.51
674.356	1.42
674.54	1.49
674.724	1.61
674.908	1.49
675.091	1.48
675.275	1.46
675.459	1.56
675.643	1.44
675.826	1.54
676.01	1.48
676.194	1.46
676.377	1.49
676.561	1.46
676.745	1.4
676.928	1.48
677.112	1.48
677.296	1.39
677.479	1.33
677.663	1.35
677.846	1.44
678.03	1.41
678.213	1.28
678.397	1.42
678.58	1.38
678.764	1.38
678.947	1.32
679.131	1.37
679.314	1.42
679.498	1.35
679.681	1.34
679.865	1.41
680.048	1.29
680.231	1.29
680.415	1.32
680.598	1.3
680.781	1.28
680.965	1.26
681.148	1.3
681.331	1.28
681.514	1.3
681.698	1.19
681.881	1.29
682.064	1.25
682.247	1.3
682.43	1.2
682.614	1.29
682.797	1.3
682.98	1.31
683.163	1.18
683.346	1.26
683.529	1.19
683.712	1.16
683.895	1.27
684.078	1.17
684.261	1.14
684.444	1.19
684.627	1.22
684.81	1.09
684.993	1.21
685.176	1.24
685.359	1.12
685.542	1.14
685.725	1.22
685.908	1.16
686.091	1.1
686.274	1.18
686.457	1.19
686.639	1.22
686.822	1.15
687.005	1.12
687.188	1.18
687.371	1.27
687.553	1.21
687.736	1.12
687.919	1.26
688.102	1.18
688.284	1.06
688.467	1.06
688.65	1.08
688.832	0.99
689.015	1.04
689.197	0.95
689.38	1.16
689.563	1.15
689.745	0.97
689.928	1.02
690.11	1.06
690.293	1.06
690.475	0.97
690.658	1.08
690.84	1.05
691.023	0.97
691.205	1.01
691.388	1
691.57	1.07
691.752	1.06
691.935	0.91
692.117	0.96
692.3	1.01
692.482	0.98
692.664	0.98
692.847	0.95
693.029	1.11
693.211	1.08
693.393	0.9
693.576	0.9
693.758	0.93
693.94	0.95
694.122	0.94
694.304	0.95
694.487	0.91
694.669	0.97
694.851	0.87
695.033	0.95
695.215	0.9
695.397	0.87
695.579	0.92
695.761	0.81
695.943	0.86
696.125	1.02
696.308	0.95
696.49	0.79
696.671	1.07
696.853	0.9
697.035	1.1
697.217	0.9
697.399	1
697.581	0.84
697.763	0.9
697.945	0.75
698.127	0.92
698.309	0.92
698.491	0.92
698.672	0.9
698.854	0.96
699.036	0.98
699.218	0.88
699.399	0.88
699.581	0.89
699.763	0.83
699.945	0.81
700.126	0.76
700.308	0.86
700.49	0.87
700.671	0.71
700.853	0.76
701.035	0.76
701.216	0.78
701.398	0.78
701.579	0.77
701.761	0.81
701.943	0.77
702.124	0.79
702.306	0.78
702.487	1.02
702.669	0.74
702.85	0.73
703.031	0.71
703.213	0.93
703.394	0.97
703.576	0.76
703.757	0.86
703.938	0.82
704.12	0.96
704.301	0.73
704.483	0.72
704.664	0.72
704.845	0.94
705.026	0.81
705.208	0.72
705.389	0.8
705.57	0.82
705.751	0.73
705.933	0.77
706.114	0.81
706.295	0.81
706.476	0.7
706.657	0.83
706.838	0.77
707.02	0.87
707.201	0.68
707.382	0.74
707.563	0.78
707.744	0.67
707.925	0.63
708.106	0.66
708.287	0.74
708.468	0.8
708.649	0.76
708.83	0.79
709.011	0.65
709.192	0.73
709.373	0.63
709.554	0.72
709.734	0.82
709.915	0.8
710.096	0.69
710.277	0.59
710.458	0.68
710.639	0.75
710.819	0.57
711	0.61
711.181	0.76
711.362	0.8
711.542	0.7
711.723	0.6
711.904	0.78
712.085	0.72
712.265	0.7
712.446	0.61
712.627	0.62
712.807	0.66
712.988	0.69
713.168	0.53
713.349	0.71
713.53	0.58
713.71	0.55
713.891	0.54
714.071	0.6
714.252	0.61
714.432	0.59
714.613	0.57
714.793	0.68
714.974	0.74
715.154	0.7
715.334	0.65
715.515	0.71
715.695	0.51
715.876	0.6
716.056	0.56
716.236	0.54
716.417	0.61
716.597	0.52
716.777	0.88
716.957	0.55
717.138	0.61
717.318	0.53
717.498	0.51
717.678	0.62
717.859	0.65
718.039	0.4
718.219	0.55
718.399	0.61
718.579	0.53
718.759	0.48
718.939	0.64
719.12	0.64
719.3	0.54
719.48	0.42
719.66	0.48
719.84	0.72
720.02	0.59
720.2	0.47
720.38	0.53
720.56	0.71
720.74	0.51
720.92	0.58
721.1	0.72
721.279	0.59
721.459	0.6
721.639	0.47
721.819	0.56
721.999	0.51
722.179	0.58
722.359	0.4
722.538	0.56
722.718	0.59
722.898	0.48
723.078	0.51
723.257	0.49
723.437	0.56
723.617	0.54
723.797	0.5
723.976	0.51
724.156	0.66
724.336	0.62
724.515	0.74
724.695	0.37
724.874	0.51
725.054	0.58
725.234	0.46
725.413	0.52
725.593	0.54
725.772	0.5
725.952	0.55
726.131	0.46
726.311	0.52
726.49	0.56
726.67	0.47
726.849	0.5
727.028	0.49
727.208	0.51
727.387	0.52
727.567	0.4
727.746	0.46
727.925	0.44
728.105	0.47
728.284	0.47
728.463	0.51
728.643	0.54
728.822	0.42
729.001	0.61
729.18	0.48
729.359	0.59
729.539	0.46
729.718	0.47
729.897	0.63
730.076	0.47
730.255	0.42
730.434	0.51
730.614	0.62
730.793	0.68
730.972	0.42
731.151	0.53
731.33	0.62
731.509	0.58
731.688	0.53
731.867	0.51
732.046	0.34
732.225	0.79
732.404	0.35
732.583	0.38
732.762	0.46
732.941	0.64
733.12	0.45
733.298	0.44
733.477	0.67
733.656	0.47
733.835	0.39
734.014	0.52
734.193	0.52
734.371	0.55
734.55	0.61
734.729	0.33
734.908	0.56
735.086	0.46
735.265	0.55
735.444	0.39
735.623	0.31
735.801	0.48
735.98	0.44
736.159	0.41
736.337	0.56
736.516	0.56
736.694	0.53
736.873	0.46
737.052	0.74
737.23	0.62
737.409	0.41
737.587	0.82
737.766	0.4
737.944	0.49
738.123	0.56
738.301	0.6
738.479	0.52
738.658	0.59
738.836	0.29
739.015	0.5
739.193	0.61
739.371	0.33
739.55	0.5
739.728	0.39
739.906	0.67
740.085	0.66
740.263	0.52
740.441	0.31
740.62	0.77
740.798	0.69
740.976	0.37
741.154	0.41
741.332	0.68
741.511	0.46
741.689	0.48
741.867	0.58
742.045	0.64
742.223	0.41
742.401	0.4
742.579	0.38
742.757	0.59
742.935	0.31
743.114	0.42
743.292	0.49
743.47	0.47
743.648	0.56
743.826	0.43
744.004	0.5
744.181	0.61
744.359	0.41
744.537	0.41
744.715	0.37
744.893	0.47
745.071	0.54
745.249	0.5
745.427	0.52
745.605	0.54
745.782	0.48
745.96	0.47
746.138	0.54
746.316	0.66
746.493	0.33
746.671	0.45
746.849	0.42
747.027	0.67
747.204	0.34
747.382	0.5
747.56	0.2
747.737	0.44
747.915	0.43
748.093	0.5
748.27	0.33
748.448	0.33
748.625	0.27
748.803	0.35
748.98	0.2
749.158	0.61
749.335	0.59
749.513	0.3
749.69	0.36
749.868	0.39
750.045	0.47
750.223	0.26
750.4	0.27
750.578	0.61
750.755	0.32
750.932	0.29
751.11	0.55
751.287	0.24
751.464	0.62
751.642	0.3
751.819	0.51
751.996	0.42
752.173	0.42
752.351	0.36
752.528	0.48
752.705	0.33
752.882	0.37
753.06	0.51
753.237	0.51
753.414	0.63
753.591	0.71
753.768	0.42
753.945	0.33
754.122	0.44
754.299	0.53
754.476	0.24
754.654	0.47
754.831	0.46
755.008	0.5
755.185	0.25
755.362	0.33
755.539	0.55
755.716	0.35
755.892	0.38
756.069	0.27
756.246	0.48
756.423	0.28
756.6	0.6
756.777	0.36
756.954	0.67
757.131	0.34
757.307	0.35
757.484	0.2
757.661	0.48
757.838	0.43
758.015	0.28
758.191	0.5
758.368	0.4
758.545	0.57
758.721	0.45
758.898	0.26
759.075	0.4
759.251	0.39
759.428	0.36
759.605	0.1
759.781	0.35
759.958	0.38
760.134	0.41
760.311	0.27
760.488	0.57
760.664	0.59
760.841	0.31
761.017	0.19
761.194	0.44
761.37	0.56
761.547	0.47
761.723	0.32
761.899	0.56
762.076	0.32
762.252	0.24
762.429	0.4
762.605	0.59
762.781	0.34
762.958	0.41
763.134	0.34
763.31	0.32
763.486	0.64
763.663	0.25
763.839	0.3
764.015	0.14
764.191	0.32
764.368	0.34
764.544	0.25
764.72	0.35
764.896	0.44
765.072	0.45
765.248	0.32
765.425	0.33
765.601	0.4
765.777	0.32
765.953	0.18
766.129	0.17
766.305	0.31
766.481	0.58
766.657	0.43
766.833	0.62
767.009	0.3
767.185	0.3
767.361	0.22
767.537	0.27
767.713	0.42
767.889	0.12
768.065	0.42
768.24	0.49
768.416	0.49
768.592	0.34
768.768	0.44
768.944	0.57
769.12	0.31
769.295	0.36
769.471	0.46
769.647	0.26
769.823	0.5
769.998	0.24
770.174	0.21
770.35	0.86
770.525	0.73
770.701	0.46
770.877	0.33
771.052	0.31
771.228	0.45
771.403	0.46
771.579	0.49
771.755	0.77
771.93	0.25
772.106	0.35
772.281	0.1
772.457	0.38
772.632	0.4
772.808	0.26
772.983	0.27
773.159	0.21
773.334	0.62
773.509	0.41
773.685	0.22
773.86	0.88
774.036	0.69
774.211	0.54
774.386	0.34
774.562	0.46
774.737	0.45
774.912	0.2
775.087	0.4
775.263	0.3
775.438	0.39
775.613	0.35
775.788	0.31
775.964	0.46
776.139	1.03
776.314	0.26
776.489	0.44
776.664	0.51
776.839	0.28
777.014	0.49
777.19	0.52
777.365	0.85
777.54	0.75
777.715	0.37
777.89	0.31
778.065	0.32
778.24	0.34
778.415	0.34
778.59	0.22
778.765	0.4
778.94	0.59
779.115	0.17
779.289	0.29
779.464	0.3
779.639	0.3
779.814	0.06
779.989	0.15
780.164	0.61
780.339	0.41
780.513	0.33
780.688	0.24
780.863	0.44
781.038	0.55
781.212	0.25
781.387	0.22
781.562	0.78
781.737	0.33
781.911	0.63
782.086	0.27
782.261	0.33
782.435	0.69
782.61	0.46
782.784	0.42
782.959	0.65
783.134	0.47
783.308	0.04
783.483	0.25
783.657	1.05
783.832	0.7
784.006	0.11
784.181	0.4
784.355	0.6
784.53	0.39
784.704	0.08
784.878	0.67
785.053	0.69
785.227	0.65
785.402	0.78
785.576	0.27
785.75	0.46
785.925	0.33
786.099	0.51
786.273	0.52
786.448	0.55
786.622	0.57
786.796	0.21
786.97	0.35
787.145	1.01
787.319	0.07
787.493	0.48
787.667	0.01
787.841	0.61
788.015	0.86
788.19	0.31
788.364	0.46
788.538	0.84
788.712	0.54
788.886	0.48
789.06	0.54
789.234	0.61
789.408	0.22
789.582	0.35
789.756	0.15
789.93	0.34
790.104	0.4
790.278	0.42
790.452	0.39
790.626	0.62
790.8	0.25
790.973	0.46
791.147	0.63
791.321	0.84
791.495	0.86
791.669	0.62
791.843	0.51
792.016	0.65
792.19	1.08
792.364	0.49
792.538	1.04
792.711	0.75
792.885	0.13
793.059	0.27
793.233	0.11
793.406	0.87
793.58	0.43
793.754	0.69
793.927	0.32
794.101	0.88
794.274	0.63
794.448	0.55
794.622	0.1
794.795	0.75
794.969	0.45
795.142	1.03
795.316	0.45
795.489	0.25
795.663	0.98
795.836	0.38
796.009	0.22
796.183	1.1
796.356	0.54
796.53	0.53
796.703	0.38
796.876	1.18
797.05	0.42
797.223	0.28
797.396	0.34
797.57	0.42
797.743	1.24
797.916	0.55
798.09	0.36
798.263	0.98
798.436	0.9
798.609	0.22
798.782	0.51
798.956	0.75
799.129	0.53
799.302	0.3
799.475	0.21
799.648	0.56
799.821	0.27
799.994	0.5
800.167	-0.09
800.34	0.53
800.514	0.65
800.687	0.34
800.86	0.19
801.033	0.76
801.206	0.38
801.379	0.09
801.551	0.92
801.724	0.55
801.897	1.01
802.07	0.43
802.243	-0.03
802.416	0.74
802.589	0.55
802.762	0.9
802.935	0.83
803.107	0.91
803.28	1.27
803.453	0.62
803.626	0.38
803.798	0.53
803.971	0.39
804.144	0.64
804.317	0.64
804.489	1.37
804.662	0.48
804.835	0.47
805.007	0.42
805.18	1.07
805.353	0.44
805.525	0.29
805.698	0.11
805.87	0.68
806.043	1.01
806.215	0.06
806.388	0.31
806.56	0.64
806.733	0.72
806.905	0.54
807.078	0.44
807.25	0.67
807.423	0.86
807.595	0.7
807.768	0.73
807.94	0.78
808.112	0.67
808.285	0.73
808.457	0.29
808.629	0.58
808.802	0.98
808.974	0.73
809.146	0.51
809.318	0.56
809.491	1.12
809.663	1.06
809.835	0.12
810.007	0.84
810.18	0.77
810.352	0.33
810.524	0.4
810.696	1.04
810.868	1.2
811.04	0.48
811.212	0.77
811.384	1.09
811.556	0.76
811.728	0.53
811.901	1.58
812.073	0.65
812.245	1.32
812.417	0.67
812.589	-0.33
812.76	0.95
812.932	1.06
813.104	1.12
813.276	0.51
813.448	1.21
813.62	0.82
813.792	0.7
813.964	0.88
814.136	1.02
814.307	0.55
814.479	0.49
814.651	0.01
814.823	2.04
814.995	0.66
815.166	0.71
815.338	0.86
815.51	0.11
815.681	1.46
815.853	0.98
816.025	0.48
816.196	1.52
816.368	1.49
816.54	0.53
816.711	0.38
816.883	1.12
817.054	2.14
817.226	-0.05
817.398	1.02
817.569	0.27
817.741	1.17
817.912	0.4
818.084	0.62
818.255	1.38
818.426	0.63
818.598	0.67
818.769	0.16
818.941	1.44
819.112	1.37
819.283	0.85
819.455	0.25
819.626	0.76
819.798	0.82
819.969	0.66
820.14	0.84
820.311	0.35
820.483	0.9
820.654	0.92
820.825	0.85
820.996	0.67
821.168	0.02
821.339	0.98
821.51	0.41
821.681	0.53
821.852	0.97
822.023	0.2
822.195	0.25
822.366	1.43
822.537	1.11
822.708	1.13
822.879	0.52
823.05	1.42
823.221	0.65
823.392	0.99
823.563	0.94
823.734	1.16
823.905	0.9
824.076	0.54
824.247	0.05
824.418	0.8
824.589	1.61
824.759	0.85
824.93	0.63
825.101	0.46
825.272	1.68
825.443	1.19
825.614	2.09
825.784	0.31
825.955	2.32
826.126	1.23
826.297	1.52
826.467	2.1
826.638	1.85
826.809	0.39
826.98	1.33
827.15	0.48
827.321	1.02
827.492	1.52
827.662	1.34
827.833	2.05
828.003	1.36
828.174	0.96
828.345	0.6
828.515	1.88
828.686	1.26
828.856	0.42
829.027	0.81
829.197	1.53
829.368	1.62
829.538	0.34
829.709	0.4
829.879	0.88
830.049	1.07
830.22	0.95
830.39	0.05
830.56	1.8
830.731	1.24
830.901	0.05
831.072	0.8
831.242	1.65
831.412	1.38
831.582	0.83
831.753	0.11
831.923	1.96
832.093	1.43
832.263	0.53
832.434	-0.01
832.604	0.79
832.774	1.46
832.944	0.49
833.114	0.53
833.284	1.46
833.454	0.74
833.624	0.94
833.795	0.72
833.965	1.84
834.135	2.48
834.305	-1
834.475	-0.03
834.645	1.25
834.815	-0.25
834.985	0.66
835.155	-0.06
835.325	2.19
835.494	1.56
835.664	0.61
835.834	0.28
836.004	1.38
836.174	1.41
836.344	0.27
836.514	-0.21
836.684	0.97
836.853	1.06
837.023	1.92
837.193	0.26
837.363	1.67
837.532	1.63
837.702	0.54
837.872	0.67
838.041	1.5
838.211	3.08
838.381	0.28
838.55	0.83
838.72	3.59
838.89	2.06
839.059	0.7
839.229	0.29
839.398	2.97
839.568	1.03
839.738	0.44
839.907	2.61
840.077	1.14
840.246	1.08
840.416	-0.07
840.585	-0.04
840.755	2.46
840.924	3.31
841.093	0.06
841.263	0.3
841.432	1.23
841.602	0.7
841.771	0.04
841.94	1.08
842.11	3.44
842.279	3.22
842.448	0.26
842.617	0.37
842.787	2.82
842.956	0.77
843.125	1.04
843.294	1.09
843.464	2.66
843.633	1.67
843.802	0.5
843.971	1.39
844.14	1.07
844.309	1.71
844.479	-0.39
844.648	0.46
844.817	1.26
844.986	1.47
845.155	0.65
845.324	0.51
845.493	0.65
845.662	0.65
845.831	1.78
846	1.24
846.169	1.24
846.338	2.79
846.507	0.9
846.676	1.12
846.844	1.23
847.013	1.46
847.182	1.51
847.351	0.59
847.52	0.82
847.689	1.87
847.858	0.9
848.026	0.31
848.195	0.98
848.364	1.16
848.533	0.22
848.701	0.38
848.87	1.84
849.039	2.83
849.207	1.81
849.376	2.42
849.545	3.87
849.713	0.74
849.882	0.55
850.051	1.26
850.219	1.49
850.388	1.26
850.556	0.09
850.725	-0.41
850.893	1.95
851.062	1.55
851.23	1.81
851.399	0.5
851.567	1.18
851.736	0.8
851.904	-0.01
852.073	0.87
852.241	2.15
852.41	2.1
852.578	0.33
852.746	0.41
852.915	2.24
853.083	1.98
853.251	0.1
853.42	0.94
853.588	0.41
853.756	3.3
853.924	0.98
854.093	0.83
854.261	2.04
854.429	-0.25
854.597	0.89
854.765	-0.7
854.934	2.17
855.102	2.59
855.27	0.59
855.438	3.08
855.606	3.64
855.774	3.66
855.942	-0.71
856.11	0.38
856.278	2.21
856.446	2.83
856.614	1.11
856.782	0.42
856.95	2.91
857.118	2.9
857.286	1.65
857.454	-0.04
857.622	3.45
857.79	1.79
857.958	1.18
858.126	0.12
858.294	-0.92
858.462	1.48
858.629	0.3
858.797	-0.07
858.965	2.4
859.133	2.15
859.301	1
859.468	2.1
859.636	0.97
859.804	4.7
859.971	1.61
860.139	0.03
860.307	2.24
860.474	1.91
860.642	0.99
860.81	0.82
860.977	2.17
861.145	4
861.313	1.04
861.48	2.1
861.648	2.79
861.815	2.24
861.983	0.6
862.15	0.98
862.318	2.79
862.485	5.23
862.653	0.6
862.82	0.55
862.988	4.24
863.155	2.88
863.322	0.3
863.49	-0.64
863.657	1.4
863.824	3.72
863.992	2.97
864.159	1.74
864.326	4.99
864.494	2.31
864.661	4.93
864.828	-0.39
864.996	4.14
865.163	4.28
865.33	-0.49
865.497	-1.25
865.664	-0.09
865.832	-0.6
865.999	2.03
866.166	-0.27
866.333	0.35
866.5	1.18
866.667	1.31
866.834	1.15
867.001	4.14
867.168	-1.29
867.335	2.07
867.502	-1.56
867.669	2.48
867.836	5.45
868.003	2.29
868.17	2.98
868.337	4.72
868.504	4.66
868.671	-0.93
868.838	1.43
869.005	3.41
869.172	4.35
869.339	1.17
869.505	-1.14
869.672	1.37
869.839	5.52
870.006	1.73
870.173	0.55
870.339	4.27
870.506	3.37
870.673	1.48
870.84	3.17
871.006	1.71
871.173	3.27
871.34	1.73
871.506	-0.15
871.673	3.39
871.839	0.55
872.006	2.37
872.173	0.35
872.339	4.33
872.506	4.85
872.672	1.46
872.839	-0.74
873.005	3.32
873.172	5.16
873.338	4.43
873.505	2.46
873.671	2.97
873.838	3.6
874.004	-1.49
874.171	-0.61
874.337	4.31
874.503	4.48
874.67	2.04
874.836	2.05
875.002	4.78
875.169	4.65
875.335	3.1
875.501	1.18
875.668	4.41
875.834	2.3
876	-0.11
876.166	3.41
876.332	4.39
876.499	7.35
876.665	0.61
876.831	1.29
876.997	6.38
877.163	3.19
877.329	1.53
877.495	1.38
877.662	5.39
877.828	3.82
877.994	3.34
878.16	-1.5
878.326	2.71
878.492	2.73
878.658	0.6
878.824	3.33
878.99	4.08
879.156	2.64
879.322	3.43
879.487	3.34
879.653	1.36
879.819	3.33
879.985	0.29
880.151	2.36
880.317	4.59
880.483	3.56
880.648	3.95
880.814	-0.25
880.98	3.67
881.146	-0.2
881.312	1
881.477	2.25
881.643	3.36
881.809	3.74
881.974	3.62
882.14	-1.53
882.306	2.38
882.471	7.11
882.637	0.61
882.803	2.35
882.968	4.09
883.134	7.4
883.299	1.23
883.465	2.27
883.63	4.17
883.796	4.75
883.961	3
884.127	2.93
884.292	-2.57
884.458	1.28
884.623	1.28
