Data from Apollo_Calib_20240827__AbsoluteIrradiance__39__23-48-02-583.txt Node

Date: Tue Aug 27 23:48:02 BST 2024
User: biology
Spectrometer: FLMT08252
Trigger mode: 0
Integration Time (sec): 5.000000E-1
Scans to average: 5
Electric dark correction enabled: true
Nonlinearity correction enabled: false
Boxcar width: 0
XAxis mode: Wavelengths
Number of Pixels in Spectrum: 3648
>>>>>Begin Spectral Data<<<<<
179.588	-0
179.809	-0
180.03	-0
180.251	-0
180.473	-0
180.694	0
180.915	0
181.136	-0
181.357	0
181.578	-0
181.799	-0
182.02	-0
182.241	0
182.462	-0
182.683	0
182.904	-0
183.125	-0
183.346	0
183.567	0
183.788	0
184.009	0
184.23	0
184.451	0
184.672	0
184.892	0
185.113	0
185.334	0
185.555	0
185.776	0
185.996	0
186.217	0
186.438	0
186.659	0
186.879	0
187.1	0
187.321	0
187.541	0
187.762	0
187.983	0
188.203	0
188.424	0
188.644	0
188.865	0
189.086	0
189.306	0
189.527	0
189.747	0
189.968	0
190.188	0
190.409	0
190.629	0
190.849	0
191.07	0
191.29	0
191.511	0
191.731	0
191.951	0
192.172	0
192.392	0
192.612	0
192.833	0
193.053	0
193.273	0
193.493	0
193.714	0
193.934	0
194.154	0
194.374	0
194.594	0
194.815	0
195.035	0
195.255	0
195.475	0
195.695	0
195.915	0
196.135	0
196.355	0
196.575	0
196.795	0
197.015	0
197.235	0
197.455	0
197.675	0
197.895	0
198.115	0
198.335	0
198.555	0
198.775	0
198.995	0
199.214	0
199.434	0
199.654	0
199.874	0
200.094	3.59
200.313	2.33
200.533	2.53
200.753	2.07
200.973	3.39
201.192	2.71
201.412	1.61
201.632	1.74
201.851	3.49
202.071	1.52
202.291	1.87
202.51	1.7
202.73	2.95
202.95	2.28
203.169	1.28
203.389	2.12
203.608	2.39
203.828	1.62
204.047	1.65
204.267	2.1
204.486	1.88
204.706	2.3
204.925	1.75
205.145	1.4
205.364	1.86
205.583	2.22
205.803	1.43
206.022	1.25
206.242	1.68
206.461	1.76
206.68	1.1
206.9	1.71
207.119	2.15
207.338	2.05
207.557	1.44
207.777	1.11
207.996	1.33
208.215	2.09
208.434	1.32
208.654	1.21
208.873	1.48
209.092	1.96
209.311	1.11
209.53	0.87
209.749	1.31
209.968	1.21
210.187	1.18
210.407	0.7
210.626	1.22
210.845	1.43
211.064	1.09
211.283	1.06
211.502	1.56
211.721	1.26
211.94	1.21
212.159	1.35
212.377	1.37
212.596	1.54
212.815	1.01
213.034	0.98
213.253	1.23
213.472	1.12
213.691	0.99
213.91	0.67
214.128	0.92
214.347	1.42
214.566	0.72
214.785	0.67
215.003	1.11
215.222	0.88
215.441	0.94
215.66	0.54
215.878	1.06
216.097	1.25
216.316	0.63
216.534	0.99
216.753	0.98
216.972	0.74
217.19	0.78
217.409	0.62
217.627	0.74
217.846	0.81
218.064	0.98
218.283	0.51
218.501	1.31
218.72	1.08
218.938	0.62
219.157	0.84
219.375	1.22
219.594	1.23
219.812	0.67
220.031	0.6
220.249	1.1
220.467	1.04
220.686	0.77
220.904	0.5
221.122	0.71
221.341	1.06
221.559	0.92
221.777	0.54
221.995	0.89
222.214	0.9
222.432	0.64
222.65	1.04
222.868	0.92
223.086	0.86
223.305	0.76
223.523	0.59
223.741	0.88
223.959	0.86
224.177	0.5
224.395	0.73
224.613	0.72
224.831	0.85
225.049	0.52
225.267	0.62
225.485	0.89
225.703	0.68
225.921	0.61
226.139	0.57
226.357	0.78
226.575	0.73
226.793	0.54
227.011	1.33
227.229	0.69
227.447	0.72
227.665	0.67
227.883	0.4
228.1	0.69
228.318	0.63
228.536	0.37
228.754	0.37
228.972	0.81
229.189	0.68
229.407	0.61
229.625	0.58
229.843	0.72
230.06	0.78
230.278	0.5
230.496	0.6
230.713	0.67
230.931	0.63
231.149	0.43
231.366	0.43
231.584	0.73
231.801	0.91
232.019	0.55
232.236	0.31
232.454	0.51
232.671	0.57
232.889	0.59
233.106	0.46
233.324	0.61
233.541	0.55
233.759	0.63
233.976	0.36
234.194	0.59
234.411	0.59
234.628	0.49
234.846	0.45
235.063	0.59
235.28	0.58
235.498	0.55
235.715	0.44
235.932	0.73
236.149	0.54
236.367	0.51
236.584	0.62
236.801	0.5
237.018	0.57
237.236	0.46
237.453	0.35
237.67	0.69
237.887	0.57
238.104	0.48
238.321	0.38
238.538	0.43
238.755	0.67
238.973	0.39
239.19	0.5
239.407	0.5
239.624	0.6
239.841	0.39
240.058	0.37
240.275	0.56
240.492	0.42
240.709	0.5
240.925	0.42
241.142	0.51
241.359	0.35
241.576	0.38
241.793	0.43
242.01	0.46
242.227	0.57
242.444	0.46
242.66	0.61
242.877	0.54
243.094	0.42
243.311	0.41
243.527	0.4
243.744	0.54
243.961	0.61
244.178	0.38
244.394	0.39
244.611	0.6
244.828	0.69
245.044	0.34
245.261	0.38
245.477	0.47
245.694	0.57
245.911	0.37
246.127	0.48
246.344	0.59
246.56	0.58
246.777	0.48
246.993	0.5
247.21	0.48
247.426	0.6
247.643	0.44
247.859	0.38
248.076	0.4
248.292	0.65
248.508	0.39
248.725	0.39
248.941	0.49
249.157	0.61
249.374	0.33
249.59	0.42
249.806	0.44
250.023	0.51
250.239	0.41
250.455	0.28
250.671	0.44
250.888	0.52
251.104	0.5
251.32	0.37
251.536	0.43
251.752	0.41
251.969	0.44
252.185	0.41
252.401	0.64
252.617	0.43
252.833	0.47
253.049	0.33
253.265	0.36
253.481	0.37
253.697	0.41
253.913	0.33
254.129	0.41
254.345	0.4
254.561	0.39
254.777	0.39
254.993	0.51
255.209	0.49
255.425	0.35
255.641	0.33
255.857	0.54
256.073	0.45
256.288	0.34
256.504	0.39
256.72	0.44
256.936	0.51
257.152	0.32
257.367	0.34
257.583	0.44
257.799	0.5
258.015	0.31
258.23	0.3
258.446	0.61
258.662	0.36
258.877	0.35
259.093	0.34
259.309	0.41
259.524	0.37
259.74	0.34
259.955	0.23
260.171	0.37
260.387	0.4
260.602	0.46
260.818	0.45
261.033	0.28
261.249	0.33
261.464	0.29
261.68	0.31
261.895	0.41
262.11	0.49
262.326	0.35
262.541	0.29
262.757	0.5
262.972	0.41
263.187	0.45
263.403	0.41
263.618	0.43
263.833	0.44
264.049	0.32
264.264	0.38
264.479	0.43
264.694	0.45
264.91	0.3
265.125	0.3
265.34	0.44
265.555	0.47
265.77	0.37
265.986	0.3
266.201	0.38
266.416	0.5
266.631	0.31
266.846	0.35
267.061	0.39
267.276	0.43
267.491	0.21
267.706	0.37
267.921	0.4
268.136	0.38
268.351	0.29
268.566	0.32
268.781	0.48
268.996	0.39
269.211	0.28
269.426	0.3
269.641	0.28
269.856	0.4
270.071	0.29
270.285	0.21
270.5	0.39
270.715	0.37
270.93	0.32
271.145	0.34
271.359	0.41
271.574	0.32
271.789	0.36
272.004	0.43
272.218	0.3
272.433	0.4
272.648	0.27
272.862	0.43
273.077	0.37
273.292	0.35
273.506	0.25
273.721	0.32
273.936	0.39
274.15	0.42
274.365	0.31
274.579	0.4
274.794	0.36
275.008	0.45
275.223	0.23
275.437	0.33
275.652	0.5
275.866	0.38
276.081	0.28
276.295	0.32
276.509	0.33
276.724	0.29
276.938	0.32
277.153	0.33
277.367	0.39
277.581	0.32
277.796	0.3
278.01	0.25
278.224	0.39
278.438	0.47
278.653	0.24
278.867	0.22
279.081	0.18
279.295	0.3
279.51	0.38
279.724	0.23
279.938	0.38
280.152	0.4
280.366	0.24
280.58	0.32
280.794	0.41
281.008	0.38
281.222	0.37
281.437	0.44
281.651	0.3
281.865	0.4
282.079	0.29
282.293	0.22
282.507	0.27
282.721	0.32
282.935	0.32
283.148	0.23
283.362	0.3
283.576	0.25
283.79	0.36
284.004	0.31
284.218	0.35
284.432	0.21
284.646	0.3
284.859	0.28
285.073	0.3
285.287	0.34
285.501	0.33
285.714	0.32
285.928	0.26
286.142	0.32
286.356	0.33
286.569	0.3
286.783	0.4
286.997	0.39
287.21	0.33
287.424	0.27
287.637	0.27
287.851	0.25
288.065	0.33
288.278	0.32
288.492	0.34
288.705	0.31
288.919	0.32
289.132	0.22
289.346	0.33
289.559	0.21
289.773	0.19
289.986	0.26
290.2	0.31
290.413	0.3
290.626	0.26
290.84	0.27
291.053	0.27
291.267	0.38
291.48	0.21
291.693	0.31
291.906	0.26
292.12	0.31
292.333	0.24
292.546	0.24
292.76	0.33
292.973	0.34
293.186	0.3
293.399	0.29
293.612	0.34
293.826	0.31
294.039	0.29
294.252	0.29
294.465	0.31
294.678	0.28
294.891	0.3
295.104	0.2
295.317	0.3
295.53	0.27
295.743	0.26
295.956	0.3
296.169	0.34
296.382	0.33
296.595	0.29
296.808	0.21
297.021	0.33
297.234	0.35
297.447	0.25
297.66	0.29
297.873	0.3
298.086	0.34
298.299	0.22
298.511	0.2
298.724	0.28
298.937	0.2
299.15	0.22
299.363	0.28
299.575	0.25
299.788	0.29
300.001	0.26
300.213	0.25
300.426	0.22
300.639	0.24
300.852	0.19
301.064	0.3
301.277	0.34
301.489	0.31
301.702	0.29
301.915	0.25
302.127	0.25
302.34	0.28
302.552	0.31
302.765	0.19
302.977	0.3
303.19	0.23
303.402	0.23
303.615	0.27
303.827	0.25
304.04	0.29
304.252	0.31
304.464	0.24
304.677	0.36
304.889	0.27
305.102	0.21
305.314	0.23
305.526	0.28
305.739	0.3
305.951	0.26
306.163	0.2
306.375	0.34
306.588	0.23
306.8	0.23
307.012	0.21
307.224	0.27
307.436	0.33
307.649	0.19
307.861	0.25
308.073	0.29
308.285	0.26
308.497	0.22
308.709	0.24
308.921	0.26
309.133	0.28
309.346	0.27
309.558	0.23
309.77	0.28
309.982	0.35
310.194	0.31
310.406	0.23
310.617	0.35
310.829	0.29
311.041	0.28
311.253	0.2
311.465	0.25
311.677	0.32
311.889	0.25
312.101	0.26
312.313	0.29
312.524	0.29
312.736	0.18
312.948	0.25
313.16	0.36
313.372	0.29
313.583	0.28
313.795	0.25
314.007	0.23
314.218	0.32
314.43	0.25
314.642	0.25
314.853	0.18
315.065	0.28
315.277	0.27
315.488	0.23
315.7	0.32
315.912	0.29
316.123	0.26
316.335	0.25
316.546	0.32
316.758	0.25
316.969	0.23
317.181	0.27
317.392	0.26
317.604	0.31
317.815	0.22
318.026	0.23
318.238	0.21
318.449	0.27
318.661	0.2
318.872	0.24
319.083	0.22
319.295	0.3
319.506	0.25
319.717	0.27
319.929	0.35
320.14	0.24
320.351	0.28
320.562	0.25
320.774	0.29
320.985	0.24
321.196	0.2
321.407	0.19
321.618	0.3
321.829	0.27
322.041	0.26
322.252	0.25
322.463	0.28
322.674	0.25
322.885	0.2
323.096	0.25
323.307	0.21
323.518	0.25
323.729	0.25
323.94	0.28
324.151	0.24
324.362	0.27
324.573	0.27
324.784	0.26
324.995	0.28
325.206	0.3
325.417	0.24
325.628	0.25
325.838	0.23
326.049	0.29
326.26	0.29
326.471	0.22
326.682	0.27
326.892	0.26
327.103	0.17
327.314	0.2
327.525	0.3
327.735	0.27
327.946	0.26
328.157	0.21
328.368	0.25
328.578	0.27
328.789	0.26
328.999	0.27
329.21	0.25
329.421	0.31
329.631	0.2
329.842	0.21
330.052	0.27
330.263	0.29
330.473	0.29
330.684	0.28
330.894	0.26
331.105	0.25
331.315	0.25
331.526	0.17
331.736	0.37
331.947	0.24
332.157	0.28
332.367	0.25
332.578	0.3
332.788	0.31
332.999	0.32
333.209	0.27
333.419	0.21
333.629	0.26
333.84	0.29
334.05	0.26
334.26	0.36
334.47	0.33
334.681	0.29
334.891	0.25
335.101	0.3
335.311	0.37
335.521	0.26
335.732	0.21
335.942	0.33
336.152	0.28
336.362	0.24
336.572	0.23
336.782	0.28
336.992	0.22
337.202	0.25
337.412	0.22
337.622	0.26
337.832	0.2
338.042	0.23
338.252	0.24
338.462	0.23
338.672	0.25
338.882	0.29
339.092	0.28
339.302	0.34
339.511	0.28
339.721	0.28
339.931	0.21
340.141	0.31
340.351	0.31
340.561	0.28
340.77	0.28
340.98	0.26
341.19	0.25
341.4	0.25
341.609	0.2
341.819	0.25
342.029	0.24
342.238	0.26
342.448	0.18
342.658	0.3
342.867	0.24
343.077	0.26
343.286	0.24
343.496	0.28
343.706	0.32
343.915	0.19
344.125	0.27
344.334	0.27
344.544	0.17
344.753	0.25
344.963	0.23
345.172	0.21
345.381	0.22
345.591	0.22
345.8	0.22
346.01	0.3
346.219	0.29
346.428	0.12
346.638	0.21
346.847	0.3
347.056	0.34
347.266	0.28
347.475	0.28
347.684	0.3
347.893	0.29
348.103	0.27
348.312	0.25
348.521	0.25
348.73	0.21
348.94	0.27
349.149	0.23
349.358	0.28
349.567	0.21
349.776	0.21
349.985	0.26
350.194	0.27
350.403	0.31
350.612	0.19
350.821	0.2
351.03	0.22
351.239	0.21
351.448	0.25
351.657	0.24
351.866	0.31
352.075	0.26
352.284	0.32
352.493	0.22
352.702	0.31
352.911	0.28
353.12	0.28
353.329	0.25
353.538	0.26
353.746	0.22
353.955	0.22
354.164	0.26
354.373	0.26
354.582	0.24
354.79	0.27
354.999	0.26
355.208	0.24
355.416	0.3
355.625	0.2
355.834	0.24
356.042	0.27
356.251	0.23
356.46	0.18
356.668	0.25
356.877	0.32
357.085	0.3
357.294	0.13
357.503	0.25
357.711	0.24
357.92	0.39
358.128	0.29
358.337	0.25
358.545	0.27
358.754	0.24
358.962	0.29
359.17	0.26
359.379	0.24
359.587	0.3
359.796	0.25
360.004	0.32
360.212	0.28
360.421	0.32
360.629	0.24
360.837	0.24
361.046	0.28
361.254	0.38
361.462	0.24
361.67	0.21
361.879	0.29
362.087	0.35
362.295	0.22
362.503	0.23
362.711	0.19
362.92	0.27
363.128	0.18
363.336	0.23
363.544	0.2
363.752	0.28
363.96	0.27
364.168	0.17
364.376	0.26
364.584	0.28
364.792	0.28
365	0.29
365.208	0.23
365.416	0.28
365.624	0.28
365.832	0.23
366.04	0.32
366.248	0.24
366.456	0.24
366.664	0.24
366.872	0.27
367.079	0.25
367.287	0.25
367.495	0.31
367.703	0.26
367.911	0.22
368.118	0.23
368.326	0.24
368.534	0.18
368.742	0.31
368.949	0.21
369.157	0.21
369.365	0.29
369.572	0.2
369.78	0.19
369.988	0.31
370.195	0.27
370.403	0.3
370.61	0.25
370.818	0.25
371.026	0.34
371.233	0.17
371.441	0.23
371.648	0.23
371.856	0.29
372.063	0.26
372.271	0.23
372.478	0.22
372.685	0.23
372.893	0.33
373.1	0.27
373.308	0.26
373.515	0.33
373.722	0.33
373.93	0.28
374.137	0.31
374.344	0.33
374.552	0.3
374.759	0.32
374.966	0.25
375.173	0.29
375.381	0.31
375.588	0.26
375.795	0.22
376.002	0.25
376.209	0.24
376.417	0.29
376.624	0.26
376.831	0.3
377.038	0.29
377.245	0.15
377.452	0.26
377.659	0.26
377.866	0.26
378.073	0.26
378.28	0.27
378.487	0.33
378.694	0.27
378.901	0.27
379.108	0.24
379.315	0.33
379.522	0.37
379.729	0.27
379.936	0.28
380.143	0.27
380.35	0.3
380.557	0.26
380.763	0.23
380.97	0.25
381.177	0.27
381.384	0.27
381.591	0.2
381.797	0.35
382.004	0.29
382.211	0.32
382.418	0.27
382.624	0.3
382.831	0.32
383.038	0.22
383.244	0.27
383.451	0.24
383.658	0.3
383.864	0.3
384.071	0.25
384.277	0.32
384.484	0.24
384.69	0.34
384.897	0.24
385.103	0.25
385.31	0.24
385.516	0.28
385.723	0.23
385.929	0.27
386.136	0.23
386.342	0.32
386.549	0.29
386.755	0.35
386.961	0.29
387.168	0.24
387.374	0.32
387.58	0.37
387.787	0.3
387.993	0.32
388.199	0.3
388.406	0.27
388.612	0.26
388.818	0.28
389.024	0.29
389.231	0.29
389.437	0.33
389.643	0.31
389.849	0.32
390.055	0.29
390.261	0.28
390.467	0.35
390.674	0.3
390.88	0.34
391.086	0.33
391.292	0.28
391.498	0.36
391.704	0.31
391.91	0.28
392.116	0.29
392.322	0.27
392.528	0.39
392.734	0.29
392.94	0.33
393.146	0.32
393.352	0.3
393.557	0.27
393.763	0.36
393.969	0.35
394.175	0.36
394.381	0.36
394.587	0.27
394.792	0.28
394.998	0.35
395.204	0.39
395.41	0.28
395.615	0.33
395.821	0.34
396.027	0.29
396.233	0.3
396.438	0.31
396.644	0.39
396.85	0.36
397.055	0.35
397.261	0.35
397.466	0.3
397.672	0.31
397.878	0.37
398.083	0.39
398.289	0.32
398.494	0.39
398.7	0.38
398.905	0.23
399.111	0.41
399.316	0.28
399.522	0.38
399.727	0.35
399.932	0.34
400.138	0.33
400.343	0.41
400.549	0.3
400.754	0.35
400.959	0.37
401.165	0.38
401.37	0.33
401.575	0.46
401.78	0.42
401.986	0.35
402.191	0.34
402.396	0.38
402.601	0.39
402.807	0.44
403.012	0.38
403.217	0.42
403.422	0.38
403.627	0.41
403.832	0.4
404.037	0.43
404.243	0.45
404.448	0.45
404.653	0.42
404.858	0.45
405.063	0.44
405.268	0.36
405.473	0.43
405.678	0.41
405.883	0.61
406.088	0.52
406.293	0.4
406.498	0.44
406.703	0.52
406.907	0.47
407.112	0.44
407.317	0.48
407.522	0.58
407.727	0.47
407.932	0.55
408.136	0.66
408.341	0.53
408.546	0.58
408.751	0.6
408.956	0.61
409.16	0.63
409.365	0.61
409.57	0.59
409.774	0.65
409.979	0.65
410.184	0.66
410.388	0.66
410.593	0.76
410.798	0.73
411.002	0.66
411.207	0.79
411.411	0.83
411.616	0.76
411.82	0.86
412.025	0.87
412.229	0.85
412.434	1.01
412.638	0.93
412.843	0.9
413.047	1.01
413.252	0.96
413.456	1.03
413.66	1.06
413.865	1.07
414.069	1.14
414.273	1.14
414.478	1.11
414.682	1.2
414.886	1.25
415.091	1.2
415.295	1.26
415.499	1.37
415.703	1.33
415.908	1.44
416.112	1.39
416.316	1.56
416.52	1.57
416.724	1.56
416.929	1.67
417.133	1.85
417.337	1.79
417.541	1.83
417.745	1.89
417.949	2.02
418.153	2.02
418.357	2.03
418.561	2.34
418.765	2.22
418.969	2.4
419.173	2.47
419.377	2.46
419.581	2.74
419.785	2.62
419.989	2.61
420.193	2.79
420.397	2.88
420.601	3.07
420.804	3.14
421.008	3.09
421.212	3.3
421.416	3.32
421.62	3.3
421.823	3.37
422.027	3.55
422.231	3.53
422.435	3.5
422.638	3.63
422.842	3.7
423.046	3.74
423.249	3.98
423.453	3.96
423.657	4.13
423.86	4.25
424.064	4.41
424.268	4.5
424.471	4.48
424.675	4.76
424.878	4.83
425.082	4.96
425.285	5.21
425.489	5.12
425.692	5.28
425.896	5.26
426.099	5.41
426.303	5.66
426.506	5.77
426.71	6.02
426.913	6.21
427.116	6.42
427.32	6.37
427.523	6.36
427.726	6.74
427.93	6.84
428.133	7.19
428.336	7.32
428.54	7.43
428.743	7.69
428.946	7.93
429.149	7.94
429.353	7.94
429.556	8
429.759	8.1
429.962	8.17
430.165	8.4
430.368	7.99
430.571	8.1
430.775	8.14
430.978	8.14
431.181	8.19
431.384	8.35
431.587	8.29
431.79	8.71
431.993	8.61
432.196	8.92
432.399	9.31
432.602	9.39
432.805	9.64
433.008	10.12
433.211	10.03
433.414	10.31
433.616	10.36
433.819	10.43
434.022	10.45
434.225	10.68
434.428	10.7
434.631	11.12
434.833	10.84
435.036	11.03
435.239	11.28
435.442	11.37
435.645	11.55
435.847	11.67
436.05	11.81
436.253	12.19
436.455	12.25
436.658	12.13
436.861	12.3
437.063	12.44
437.266	12.5
437.468	12.83
437.671	13.11
437.874	13.21
438.076	12.97
438.279	13.5
438.481	13.47
438.684	14.24
438.886	13.9
439.089	14.24
439.291	14.2
439.494	14.59
439.696	14.79
439.899	15.32
440.101	15.68
440.303	15.87
440.506	16.61
440.708	16.33
440.91	16.6
441.113	16.78
441.315	17.02
441.517	16.8
441.72	17.36
441.922	16.92
442.124	16.85
442.326	17.26
442.529	17.49
442.731	17.43
442.933	17.8
443.135	17.65
443.337	17.42
443.539	18.07
443.742	17.69
443.944	18.55
444.146	18.04
444.348	18.11
444.55	18.06
444.752	18.21
444.954	18.26
445.156	18.15
445.358	18.56
445.56	18.76
445.762	18.48
445.964	18.86
446.166	18.78
446.368	18.61
446.57	18.71
446.772	18.27
446.974	17.99
447.175	18.32
447.377	17.93
447.579	18.5
447.781	18.18
447.983	17.93
448.184	17.43
448.386	17.74
448.588	17.33
448.79	17.13
448.991	17.68
449.193	17.54
449.395	16.93
449.597	16.52
449.798	16.44
450	16.01
450.202	15.84
450.403	15.78
450.605	15.84
450.806	15.38
451.008	15.37
451.21	14.98
451.411	14.67
451.613	13.89
451.814	14.09
452.016	13.95
452.217	13.44
452.419	13.33
452.62	13.09
452.821	12.64
453.023	12.6
453.224	12.31
453.426	11.98
453.627	11.12
453.828	11.18
454.03	11.4
454.231	11.25
454.432	11.06
454.634	10.67
454.835	10.53
455.036	10.45
455.238	10.01
455.439	9.8
455.64	9.57
455.841	9.48
456.042	9.44
456.244	9.21
456.445	8.87
456.646	8.6
456.847	8.59
457.048	8.53
457.249	8.35
457.45	8.25
457.651	7.69
457.852	7.56
458.054	7.26
458.255	7.11
458.456	7.29
458.657	7.21
458.858	6.84
459.058	6.63
459.259	6.67
459.46	6.44
459.661	6.34
459.862	6.55
460.063	6.34
460.264	6.25
460.465	6.04
460.666	6.04
460.866	5.68
461.067	5.54
461.268	5.59
461.469	5.48
461.67	5.37
461.87	5.23
462.071	5.23
462.272	5.19
462.473	5.08
462.673	5.27
462.874	5.08
463.075	5.19
463.275	5.08
463.476	5.15
463.676	5.11
463.877	4.9
464.078	4.87
464.278	4.95
464.479	4.84
464.679	4.77
464.88	4.69
465.08	4.65
465.281	4.57
465.481	4.38
465.682	4.07
465.882	4.14
466.083	4.12
466.283	4.03
466.483	3.9
466.684	3.75
466.884	3.63
467.085	3.7
467.285	3.71
467.485	3.62
467.686	3.5
467.886	3.45
468.086	3.4
468.286	3.37
468.487	3.43
468.687	3.26
468.887	3.19
469.087	3.39
469.287	3.28
469.488	3.08
469.688	3.18
469.888	3.14
470.088	3.17
470.288	3.05
470.488	3.03
470.688	2.83
470.888	2.84
471.088	2.71
471.288	2.77
471.488	2.77
471.688	2.74
471.888	2.68
472.088	2.8
472.288	2.69
472.488	2.62
472.688	2.59
472.888	2.54
473.088	2.57
473.288	2.42
473.488	2.42
473.688	2.59
473.887	2.45
474.087	2.46
474.287	2.39
474.487	2.35
474.687	2.42
474.886	2.34
475.086	2.3
475.286	2.3
475.486	2.27
475.685	2.23
475.885	2.23
476.085	2.25
476.284	2.25
476.484	2.22
476.684	2.21
476.883	2.29
477.083	2.2
477.282	2.08
477.482	2.19
477.681	2.17
477.881	2.06
478.08	2.08
478.28	2.08
478.479	2.09
478.679	2.12
478.878	2.06
479.078	2.04
479.277	2.11
479.477	2.03
479.676	2.01
479.875	2.04
480.075	1.98
480.274	2.02
480.473	2.04
480.673	2.03
480.872	2.09
481.071	2.03
481.271	2.01
481.47	1.99
481.669	1.96
481.868	1.98
482.067	1.99
482.267	1.89
482.466	1.91
482.665	1.92
482.864	1.91
483.063	1.91
483.262	2
483.461	2.01
483.661	2.06
483.86	2
484.059	2.02
484.258	2.03
484.457	2
484.656	2.01
484.855	2.08
485.054	1.93
485.253	1.95
485.452	1.92
485.651	2.05
485.849	2.06
486.048	1.98
486.247	2.06
486.446	2.08
486.645	2.04
486.844	2.04
487.043	2.02
487.241	2.07
487.44	2.09
487.639	2.13
487.838	2.1
488.037	2.08
488.235	2.18
488.434	2.18
488.633	2.09
488.831	2.22
489.03	2.23
489.229	2.24
489.427	2.23
489.626	2.21
489.825	2.27
490.023	2.3
490.222	2.28
490.42	2.3
490.619	2.36
490.817	2.35
491.016	2.36
491.214	2.41
491.413	2.41
491.611	2.34
491.81	2.39
492.008	2.38
492.207	2.51
492.405	2.51
492.604	2.44
492.802	2.53
493	2.62
493.199	2.6
493.397	2.63
493.595	2.73
493.794	2.68
493.992	2.75
494.19	2.72
494.388	2.8
494.587	2.74
494.785	2.78
494.983	2.73
495.181	2.81
495.379	2.95
495.578	2.95
495.776	2.94
495.974	2.91
496.172	2.96
496.37	3.06
496.568	3.11
496.766	3.09
496.964	3.12
497.162	3.16
497.36	3.22
497.558	3.23
497.756	3.31
497.954	3.29
498.152	3.36
498.35	3.44
498.548	3.41
498.746	3.38
498.944	3.4
499.142	3.4
499.34	3.5
499.538	3.62
499.736	3.5
499.933	3.59
500.131	3.67
500.329	3.78
500.527	3.69
500.725	3.87
500.922	3.85
501.12	3.89
501.318	3.98
501.516	3.91
501.713	3.99
501.911	3.96
502.109	3.94
502.306	4.08
502.504	3.97
502.701	4.11
502.899	4.16
503.097	4.33
503.294	4.17
503.492	4.3
503.689	4.37
503.887	4.36
504.084	4.44
504.282	4.4
504.479	4.43
504.677	4.55
504.874	4.58
505.072	4.46
505.269	4.68
505.466	4.7
505.664	4.73
505.861	4.64
506.059	4.76
506.256	4.77
506.453	4.87
506.651	4.95
506.848	4.99
507.045	4.95
507.242	4.95
507.44	5.02
507.637	5.07
507.834	5.06
508.031	5.21
508.229	5.12
508.426	5.07
508.623	5.31
508.82	5.33
509.017	5.24
509.214	5.28
509.411	5.37
509.608	5.37
509.805	5.46
510.003	5.42
510.2	5.51
510.397	5.68
510.594	5.56
510.791	5.64
510.988	5.65
511.184	5.64
511.381	5.49
511.578	5.66
511.775	5.86
511.972	5.74
512.169	5.8
512.366	5.84
512.563	5.93
512.76	5.95
512.956	5.96
513.153	5.94
513.35	5.92
513.547	5.9
513.744	6.02
513.94	6.11
514.137	6.11
514.334	6.12
514.53	6.14
514.727	6.34
514.924	6.21
515.12	6.23
515.317	6.23
515.514	6.23
515.71	6.16
515.907	6.4
516.103	6.47
516.3	6.36
516.497	6.49
516.693	6.47
516.89	6.47
517.086	6.48
517.283	6.58
517.479	6.43
517.676	6.65
517.872	6.68
518.068	6.61
518.265	6.69
518.461	6.54
518.658	6.71
518.854	6.67
519.05	6.81
519.247	6.82
519.443	6.75
519.639	6.9
519.836	6.79
520.032	6.74
520.228	6.93
520.424	6.86
520.621	6.88
520.817	6.94
521.013	6.86
521.209	7.06
521.405	7.06
521.601	7.01
521.798	6.98
521.994	6.99
522.19	6.95
522.386	7.03
522.582	7.09
522.778	7.21
522.974	7.13
523.17	7.15
523.366	7.05
523.562	7.16
523.758	7.14
523.954	7.02
524.15	7.21
524.346	7.27
524.542	7.24
524.738	7.25
524.934	7.39
525.129	7.29
525.325	7.3
525.521	7.23
525.717	7.47
525.913	7.33
526.109	7.36
526.304	7.46
526.5	7.44
526.696	7.44
526.892	7.37
527.087	7.6
527.283	7.53
527.479	7.49
527.674	7.3
527.87	7.49
528.066	7.47
528.261	7.57
528.457	7.46
528.653	7.61
528.848	7.61
529.044	7.65
529.239	7.53
529.435	7.48
529.63	7.53
529.826	7.58
530.021	7.56
530.217	7.63
530.412	7.6
530.608	7.57
530.803	7.63
530.999	7.52
531.194	7.59
531.389	7.7
531.585	7.71
531.78	7.82
531.975	7.69
532.171	7.77
532.366	7.75
532.561	7.76
532.757	7.67
532.952	7.89
533.147	7.65
533.342	7.78
533.538	7.69
533.733	7.9
533.928	7.58
534.123	7.81
534.318	7.82
534.513	7.74
534.709	7.95
534.904	7.91
535.099	7.89
535.294	7.89
535.489	7.9
535.684	7.84
535.879	7.82
536.074	7.9
536.269	7.93
536.464	7.88
536.659	7.85
536.854	7.87
537.049	8
537.244	7.95
537.439	7.92
537.634	7.94
537.828	8.01
538.023	7.98
538.218	7.88
538.413	7.85
538.608	7.93
538.803	7.91
538.997	7.95
539.192	7.9
539.387	7.89
539.582	7.87
539.776	7.87
539.971	8.02
540.166	8.02
540.36	7.96
540.555	8.05
540.75	8.01
540.944	7.96
541.139	7.99
541.334	7.99
541.528	7.96
541.723	8.06
541.917	8.06
542.112	7.94
542.306	7.9
542.501	7.96
542.695	8.02
542.89	7.93
543.084	7.96
543.279	7.98
543.473	8.05
543.668	8.07
543.862	7.92
544.056	7.9
544.251	8.03
544.445	8.06
544.64	8.18
544.834	7.84
545.028	7.72
545.222	8.03
545.417	8.2
545.611	8.07
545.805	8.03
546	7.91
546.194	8.05
546.388	8.06
546.582	8.01
546.776	8.02
546.97	8.06
547.165	8.05
547.359	7.92
547.553	7.98
547.747	7.99
547.941	8.22
548.135	8.01
548.329	8.07
548.523	8.08
548.717	8.04
548.911	7.97
549.105	7.94
549.299	8.11
549.493	8.1
549.687	7.96
549.881	8.11
550.075	8.11
550.269	7.93
550.463	8.09
550.657	8.13
550.85	8.06
551.044	8.04
551.238	8.05
551.432	8.06
551.626	8.1
551.82	8.12
552.013	8.03
552.207	8.14
552.401	8.2
552.594	7.99
552.788	7.99
552.982	7.98
553.176	7.99
553.369	8.3
553.563	8.14
553.756	8.05
553.95	8.12
554.144	8.11
554.337	8.09
554.531	7.84
554.724	8.13
554.918	8.17
555.111	8.04
555.305	8.07
555.498	8.06
555.692	8.16
555.885	8.11
556.079	8.07
556.272	8.1
556.466	8.07
556.659	8.04
556.852	8.15
557.046	8.03
557.239	7.94
557.432	8.07
557.626	8.15
557.819	8.15
558.012	8.16
558.206	8.16
558.399	8.11
558.592	8.05
558.785	8.03
558.979	8.05
559.172	8.11
559.365	8.04
559.558	8.01
559.751	8.04
559.944	8.2
560.138	8.08
560.331	8.12
560.524	8.13
560.717	8.11
560.91	8.06
561.103	8.13
561.296	8.01
561.489	8.09
561.682	8.29
561.875	8.14
562.068	8.2
562.261	8.02
562.454	8.21
562.647	8.05
562.84	8.12
563.032	8.14
563.225	8.06
563.418	8.03
563.611	8.15
563.804	8.14
563.997	7.92
564.19	7.89
564.382	8.23
564.575	8.15
564.768	8
564.961	8.14
565.153	8.03
565.346	7.98
565.539	8.13
565.731	8.07
565.924	8.12
566.117	8.22
566.309	8.11
566.502	8.1
566.695	7.98
566.887	8.12
567.08	8.08
567.272	8.09
567.465	8.01
567.657	8.17
567.85	7.94
568.042	8.08
568.235	8.11
568.427	7.92
568.62	8.1
568.812	8.05
569.005	8.13
569.197	7.94
569.389	8.12
569.582	8.12
569.774	8.06
569.966	7.99
570.159	7.95
570.351	7.94
570.543	8.01
570.736	8.08
570.928	7.87
571.12	8.02
571.312	7.94
571.505	7.74
571.697	8.03
571.889	8.01
572.081	8.07
572.273	7.89
572.465	7.94
572.658	8.08
572.85	7.96
573.042	8.06
573.234	7.87
573.426	7.92
573.618	7.93
573.81	7.97
574.002	7.95
574.194	7.95
574.386	7.95
574.578	7.81
574.77	7.9
574.962	7.94
575.154	7.83
575.346	7.86
575.538	7.87
575.729	7.84
575.921	7.91
576.113	7.99
576.305	7.91
576.497	7.92
576.689	7.77
576.88	7.75
577.072	7.98
577.264	7.84
577.456	7.88
577.647	7.81
577.839	7.92
578.031	7.86
578.223	7.8
578.414	7.75
578.606	7.82
578.798	7.87
578.989	7.85
579.181	7.89
579.372	7.86
579.564	7.85
579.755	7.75
579.947	7.71
580.139	7.84
580.33	7.67
580.522	7.78
580.713	7.72
580.905	7.68
581.096	7.8
581.287	7.75
581.479	7.68
581.67	7.8
581.862	7.63
582.053	7.72
582.244	7.61
582.436	7.81
582.627	7.65
582.818	7.63
583.01	7.64
583.201	7.65
583.392	7.6
583.583	7.62
583.775	7.45
583.966	7.6
584.157	7.6
584.348	7.66
584.54	7.54
584.731	7.61
584.922	7.51
585.113	7.49
585.304	7.62
585.495	7.52
585.686	7.66
585.877	7.63
586.068	7.64
586.259	7.59
586.45	7.54
586.641	7.5
586.832	7.62
587.023	7.56
587.214	7.48
587.405	7.54
587.596	7.35
587.787	7.38
587.978	7.46
588.169	7.42
588.36	7.37
588.551	7.37
588.742	7.37
588.932	7.5
589.123	7.24
589.314	7.45
589.505	7.32
589.696	7.37
589.886	7.37
590.077	7.3
590.268	7.28
590.458	7.21
590.649	7.22
590.84	7.34
591.03	7.28
591.221	7.26
591.412	7.17
591.602	7.35
591.793	7.26
591.984	7.28
592.174	7.22
592.365	7.31
592.555	7.08
592.746	7.2
592.936	7.19
593.127	7.17
593.317	7.19
593.508	7.24
593.698	7.07
593.889	7.1
594.079	7.05
594.269	7.03
594.46	6.98
594.65	7.09
594.84	7.08
595.031	6.97
595.221	7.02
595.411	6.99
595.602	6.97
595.792	6.91
595.982	6.83
596.172	7.02
596.363	6.86
596.553	6.92
596.743	6.94
596.933	6.87
597.123	6.81
597.314	6.73
597.504	6.79
597.694	6.89
597.884	6.87
598.074	6.83
598.264	6.84
598.454	6.8
598.644	6.77
598.834	6.73
599.024	6.72
599.214	6.73
599.404	6.78
599.594	6.74
599.784	6.67
599.974	6.75
600.164	6.67
600.354	6.62
600.544	6.52
600.734	6.69
600.924	6.62
601.114	6.51
601.303	6.53
601.493	6.57
601.683	6.57
601.873	6.5
602.063	6.45
602.252	6.5
602.442	6.44
602.632	6.51
602.821	6.39
603.011	6.48
603.201	6.45
603.39	6.44
603.58	6.37
603.77	6.39
603.959	6.41
604.149	6.34
604.339	6.32
604.528	6.43
604.718	6.37
604.907	6.28
605.097	6.18
605.286	6.21
605.476	6.24
605.665	6.3
605.855	6.23
606.044	6.25
606.234	6.2
606.423	6.17
606.612	6.18
606.802	6.13
606.991	6.2
607.181	6.19
607.37	6.13
607.559	5.89
607.749	6.16
607.938	5.93
608.127	6.05
608.316	6.05
608.506	5.95
608.695	6.06
608.884	5.93
609.073	5.98
609.263	6.06
609.452	6.02
609.641	5.83
609.83	5.91
610.019	5.93
610.208	5.85
610.397	5.81
610.586	5.92
610.775	5.74
610.965	5.83
611.154	5.68
611.343	5.81
611.532	5.74
611.721	5.86
611.91	5.69
612.099	5.71
612.287	5.61
612.476	5.58
612.665	5.71
612.854	5.62
613.043	5.68
613.232	5.62
613.421	5.57
613.61	5.61
613.798	5.54
613.987	5.53
614.176	5.56
614.365	5.58
614.554	5.56
614.742	5.59
614.931	5.38
615.12	5.58
615.309	5.43
615.497	5.42
615.686	5.33
615.875	5.35
616.063	5.34
616.252	5.29
616.44	5.41
616.629	5.29
616.818	5.38
617.006	5.32
617.195	5.2
617.383	5.19
617.572	5.18
617.76	5.15
617.949	5.2
618.137	5.27
618.326	5.22
618.514	5.05
618.703	5.02
618.891	5.21
619.079	5.03
619.268	5.11
619.456	5.03
619.644	5.1
619.833	4.95
620.021	5.03
620.209	4.97
620.398	5.03
620.586	4.87
620.774	4.95
620.962	4.95
621.151	5.03
621.339	4.93
621.527	4.86
621.715	4.82
621.903	4.9
622.092	4.77
622.28	4.88
622.468	4.68
622.656	4.84
622.844	4.78
623.032	4.79
623.22	4.69
623.408	4.79
623.596	4.68
623.784	4.77
623.972	4.64
624.16	4.66
624.348	4.75
624.536	4.71
624.724	4.61
624.912	4.62
625.1	4.69
625.288	4.63
625.476	4.53
625.664	4.57
625.851	4.51
626.039	4.61
626.227	4.48
626.415	4.49
626.603	4.4
626.79	4.48
626.978	4.45
627.166	4.44
627.354	4.38
627.541	4.36
627.729	4.31
627.917	4.52
628.104	4.48
628.292	4.33
628.48	4.27
628.667	4.29
628.855	4.36
629.042	4.37
629.23	4.28
629.418	4.26
629.605	4.28
629.793	4.18
629.98	4.2
630.168	4.19
630.355	4.17
630.543	4.17
630.73	4.09
630.917	4.14
631.105	4.25
631.292	4.14
631.48	4.13
631.667	4.16
631.854	4.03
632.042	4.02
632.229	3.99
632.416	4.09
632.604	4.04
632.791	3.87
632.978	3.96
633.165	3.96
633.353	4.04
633.54	4.01
633.727	3.86
633.914	3.79
634.101	3.8
634.289	3.95
634.476	3.83
634.663	3.81
634.85	3.83
635.037	3.82
635.224	3.74
635.411	3.8
635.598	3.77
635.785	3.76
635.972	3.72
636.159	3.71
636.346	3.68
636.533	3.65
636.72	3.67
636.907	3.66
637.094	3.61
637.281	3.51
637.468	3.65
637.655	3.65
637.842	3.59
638.029	3.57
638.215	3.58
638.402	3.52
638.589	3.46
638.776	3.5
638.963	3.44
639.149	3.53
639.336	3.62
639.523	3.42
639.709	3.46
639.896	3.47
640.083	3.47
640.27	3.44
640.456	3.4
640.643	3.39
640.829	3.33
641.016	3.3
641.203	3.26
641.389	3.39
641.576	3.32
641.762	3.35
641.949	3.25
642.135	3.28
642.322	3.21
642.508	3.17
642.695	3.26
642.881	3.17
643.068	3.12
643.254	3.24
643.441	3.2
643.627	3.23
643.813	3.11
644	3.19
644.186	3.06
644.372	3.16
644.559	3.12
644.745	3.08
644.931	3.04
645.118	3.05
645.304	3.1
645.49	3.03
645.676	3.02
645.862	2.99
646.049	3.05
646.235	2.97
646.421	3.1
646.607	3.03
646.793	2.95
646.979	2.95
647.165	2.97
647.352	3.02
647.538	2.95
647.724	2.89
647.91	2.91
648.096	2.91
648.282	2.97
648.468	2.87
648.654	2.86
648.84	2.82
649.026	2.85
649.212	2.8
649.397	2.81
649.583	2.79
649.769	2.86
649.955	2.81
650.141	2.84
650.327	2.77
650.513	2.74
650.698	2.83
650.884	2.68
651.07	2.79
651.256	2.71
651.442	2.75
651.627	2.65
651.813	2.72
651.999	2.66
652.184	2.71
652.37	2.66
652.556	2.66
652.741	2.66
652.927	2.53
653.113	2.63
653.298	2.55
653.484	2.63
653.669	2.53
653.855	2.56
654.04	2.58
654.226	2.58
654.412	2.55
654.597	2.45
654.782	2.57
654.968	2.53
655.153	2.56
655.339	2.51
655.524	2.48
655.71	2.5
655.895	2.47
656.08	2.44
656.266	2.57
656.451	2.45
656.636	2.41
656.822	2.43
657.007	2.4
657.192	2.43
657.378	2.36
657.563	2.39
657.748	2.47
657.933	2.38
658.118	2.31
658.304	2.32
658.489	2.42
658.674	2.38
658.859	2.3
659.044	2.3
659.229	2.36
659.414	2.28
659.599	2.3
659.785	2.24
659.97	2.31
660.155	2.28
660.34	2.28
660.525	2.23
660.71	2.12
660.895	2.27
661.08	2.19
661.264	2.2
661.449	2.2
661.634	2.19
661.819	2.23
662.004	2.16
662.189	2.11
662.374	2.07
662.559	2.1
662.743	2.01
662.928	2.08
663.113	2.07
663.298	2
663.483	2.07
663.667	2.01
663.852	2.01
664.037	2.1
664.221	2
664.406	2.07
664.591	2.06
664.775	1.98
664.96	1.95
665.145	1.9
665.329	1.97
665.514	1.96
665.698	1.93
665.883	1.83
666.068	2.02
666.252	1.9
666.437	1.84
666.621	1.85
666.806	1.9
666.99	1.83
667.174	1.8
667.359	1.93
667.543	1.77
667.728	1.82
667.912	1.74
668.096	1.8
668.281	1.73
668.465	1.8
668.649	1.81
668.834	1.71
669.018	1.77
669.202	1.74
669.387	1.75
669.571	1.77
669.755	1.66
669.939	1.73
670.124	1.69
670.308	1.73
670.492	1.76
670.676	1.66
670.86	1.68
671.044	1.6
671.228	1.71
671.413	1.53
671.597	1.64
671.781	1.63
671.965	1.63
672.149	1.57
672.333	1.6
672.517	1.58
672.701	1.63
672.885	1.59
673.069	1.51
673.253	1.62
673.437	1.55
673.621	1.5
673.804	1.55
673.988	1.54
674.172	1.51
674.356	1.49
674.54	1.47
674.724	1.54
674.908	1.5
675.091	1.51
675.275	1.51
675.459	1.55
675.643	1.5
675.826	1.47
676.01	1.49
676.194	1.43
676.377	1.48
676.561	1.45
676.745	1.44
676.928	1.43
677.112	1.43
677.296	1.37
677.479	1.37
677.663	1.34
677.846	1.37
678.03	1.4
678.213	1.33
678.397	1.41
678.58	1.41
678.764	1.36
678.947	1.32
679.131	1.37
679.314	1.38
679.498	1.35
679.681	1.41
679.865	1.39
680.048	1.34
680.231	1.31
680.415	1.29
680.598	1.29
680.781	1.28
680.965	1.3
681.148	1.28
681.331	1.27
681.514	1.32
681.698	1.24
681.881	1.3
682.064	1.29
682.247	1.28
682.43	1.15
682.614	1.27
682.797	1.24
682.98	1.22
683.163	1.15
683.346	1.24
683.529	1.11
683.712	1.14
683.895	1.22
684.078	1.09
684.261	1.17
684.444	1.18
684.627	1.19
684.81	1.14
684.993	1.16
685.176	1.19
685.359	1.08
685.542	1.13
685.725	1.23
685.908	1.09
686.091	1.11
686.274	1.25
686.457	1.17
686.639	1.17
686.822	1.13
687.005	1.13
687.188	1.21
687.371	1.15
687.553	1.22
687.736	1.16
687.919	1.2
688.102	1.2
688.284	1.13
688.467	1.06
688.65	1.13
688.832	1
689.015	1.08
689.197	0.97
689.38	1.16
689.563	1.15
689.745	1.03
689.928	1.03
690.11	1.03
690.293	1.09
690.475	0.97
690.658	1.07
690.84	1.03
691.023	1
691.205	0.93
691.388	1.01
691.57	1.01
691.752	1.05
691.935	0.94
692.117	0.95
692.3	1.02
692.482	0.98
692.664	0.96
692.847	0.92
693.029	1.07
693.211	0.98
693.393	0.92
693.576	0.85
693.758	0.93
693.94	0.98
694.122	0.93
694.304	0.93
694.487	0.91
694.669	0.99
694.851	0.92
695.033	0.94
695.215	0.91
695.397	0.88
695.579	0.96
695.761	0.89
695.943	0.84
696.125	0.98
696.308	0.94
696.49	0.8
696.671	1.02
696.853	0.9
697.035	1.04
697.217	0.88
697.399	1.01
697.581	0.89
697.763	0.87
697.945	0.8
698.127	0.86
698.309	0.97
698.491	0.83
698.672	0.86
698.854	0.98
699.036	0.93
699.218	0.89
699.399	0.89
699.581	0.87
699.763	0.81
699.945	0.75
700.126	0.77
700.308	0.83
700.49	0.84
700.671	0.7
700.853	0.76
701.035	0.8
701.216	0.83
701.398	0.77
701.579	0.78
701.761	0.87
701.943	0.75
702.124	0.76
702.306	0.76
702.487	0.93
702.669	0.77
702.85	0.76
703.031	0.68
703.213	0.88
703.394	0.86
703.576	0.78
703.757	0.93
703.938	0.87
704.12	0.89
704.301	0.82
704.483	0.76
704.664	0.8
704.845	0.8
705.026	0.79
705.208	0.76
705.389	0.83
705.57	0.82
705.751	0.75
705.933	0.72
706.114	0.87
706.295	0.8
706.476	0.7
706.657	0.84
706.838	0.8
707.02	0.79
707.201	0.73
707.382	0.71
707.563	0.74
707.744	0.7
707.925	0.7
708.106	0.73
708.287	0.81
708.468	0.82
708.649	0.79
708.83	0.78
709.011	0.68
709.192	0.76
709.373	0.65
709.554	0.76
709.734	0.72
709.915	0.71
710.096	0.68
710.277	0.59
710.458	0.67
710.639	0.71
710.819	0.56
711	0.68
711.181	0.72
711.362	0.75
711.542	0.69
711.723	0.66
711.904	0.72
712.085	0.68
712.265	0.68
712.446	0.57
712.627	0.65
712.807	0.66
712.988	0.72
713.168	0.58
713.349	0.68
713.53	0.53
713.71	0.58
713.891	0.45
714.071	0.68
714.252	0.7
714.432	0.6
714.613	0.5
714.793	0.71
714.974	0.71
715.154	0.71
715.334	0.73
715.515	0.74
715.695	0.51
715.876	0.64
716.056	0.56
716.236	0.56
716.417	0.61
716.597	0.55
716.777	0.76
716.957	0.62
717.138	0.58
717.318	0.62
717.498	0.57
717.678	0.62
717.859	0.71
718.039	0.47
718.219	0.62
718.399	0.63
718.579	0.55
718.759	0.59
718.939	0.65
719.12	0.62
719.3	0.65
719.48	0.46
719.66	0.46
719.84	0.69
720.02	0.56
720.2	0.58
720.38	0.51
720.56	0.7
720.74	0.59
720.92	0.6
721.1	0.81
721.279	0.61
721.459	0.64
721.639	0.57
721.819	0.65
721.999	0.59
722.179	0.69
722.359	0.49
722.538	0.6
722.718	0.61
722.898	0.59
723.078	0.54
723.257	0.55
723.437	0.69
723.617	0.63
723.797	0.55
723.976	0.58
724.156	0.74
724.336	0.66
724.515	0.74
724.695	0.43
724.874	0.55
725.054	0.65
725.234	0.55
725.413	0.58
725.593	0.59
725.772	0.59
725.952	0.64
726.131	0.59
726.311	0.55
726.49	0.63
726.67	0.52
726.849	0.54
727.028	0.62
727.208	0.58
727.387	0.58
727.567	0.48
727.746	0.55
727.925	0.55
728.105	0.54
728.284	0.47
728.463	0.53
728.643	0.55
728.822	0.44
729.001	0.62
729.18	0.59
729.359	0.71
729.539	0.62
729.718	0.59
729.897	0.66
730.076	0.54
730.255	0.49
730.434	0.51
730.614	0.59
730.793	0.68
730.972	0.57
731.151	0.62
731.33	0.65
731.509	0.56
731.688	0.65
731.867	0.62
732.046	0.41
732.225	0.77
732.404	0.5
732.583	0.43
732.762	0.59
732.941	0.69
733.12	0.71
733.298	0.58
733.477	0.67
733.656	0.64
733.835	0.5
734.014	0.69
734.193	0.53
734.371	0.69
734.55	0.69
734.729	0.44
734.908	0.63
735.086	0.65
735.265	0.71
735.444	0.41
735.623	0.48
735.801	0.47
735.98	0.67
736.159	0.58
736.337	0.61
736.516	0.63
736.694	0.65
736.873	0.51
737.052	0.73
737.23	0.69
737.409	0.59
737.587	0.79
737.766	0.36
737.944	0.7
738.123	0.74
738.301	0.63
738.479	0.63
738.658	0.65
738.836	0.38
739.015	0.65
739.193	0.7
739.371	0.39
739.55	0.59
739.728	0.52
739.906	0.74
740.085	0.75
740.263	0.57
740.441	0.47
740.62	0.77
740.798	0.63
740.976	0.4
741.154	0.48
741.332	0.69
741.511	0.52
741.689	0.62
741.867	0.67
742.045	0.56
742.223	0.56
742.401	0.44
742.579	0.4
742.757	0.65
742.935	0.42
743.114	0.39
743.292	0.55
743.47	0.55
743.648	0.56
743.826	0.56
744.004	0.53
744.181	0.73
744.359	0.47
744.537	0.54
744.715	0.46
744.893	0.51
745.071	0.45
745.249	0.41
745.427	0.4
745.605	0.51
745.782	0.51
745.96	0.59
746.138	0.52
746.316	0.45
746.493	0.37
746.671	0.55
746.849	0.41
747.027	0.57
747.204	0.35
747.382	0.53
747.56	0.31
747.737	0.36
747.915	0.37
748.093	0.6
748.27	0.39
748.448	0.48
748.625	0.26
748.803	0.34
748.98	0.3
749.158	0.58
749.335	0.51
749.513	0.44
749.69	0.42
749.868	0.35
750.045	0.47
750.223	0.43
750.4	0.28
750.578	0.61
750.755	0.45
750.932	0.16
751.11	0.54
751.287	0.32
751.464	0.59
751.642	0.23
751.819	0.38
751.996	0.41
752.173	0.33
752.351	0.41
752.528	0.36
752.705	0.3
752.882	0.35
753.06	0.38
753.237	0.46
753.414	0.54
753.591	0.71
753.768	0.42
753.945	0.43
754.122	0.4
754.299	0.49
754.476	0.4
754.654	0.4
754.831	0.54
755.008	0.48
755.185	0.32
755.362	0.31
755.539	0.47
755.716	0.5
755.892	0.41
756.069	0.46
756.246	0.45
756.423	0.29
756.6	0.48
756.777	0.26
756.954	0.59
757.131	0.39
757.307	0.31
757.484	0.41
757.661	0.5
757.838	0.54
758.015	0.23
758.191	0.59
758.368	0.41
758.545	0.5
758.721	0.52
758.898	0.28
759.075	0.53
759.251	0.43
759.428	0.52
759.605	0.26
759.781	0.38
759.958	0.41
760.134	0.39
760.311	0.33
760.488	0.5
760.664	0.59
760.841	0.4
761.017	0.3
761.194	0.48
761.37	0.5
761.547	0.39
761.723	0.33
761.899	0.51
762.076	0.21
762.252	0.21
762.429	0.19
762.605	0.58
762.781	0.35
762.958	0.44
763.134	0.32
763.31	0.28
763.486	0.46
763.663	0.16
763.839	0.37
764.015	0.21
764.191	0.22
764.368	0.33
764.544	0.37
764.72	0.37
764.896	0.42
765.072	0.38
765.248	0.4
765.425	0.45
765.601	0.43
765.777	0.31
765.953	0.19
766.129	0.31
766.305	0.24
766.481	0.38
766.657	0.36
766.833	0.57
767.009	0.23
767.185	0.37
767.361	0.39
767.537	0.18
767.713	0.53
767.889	0.25
768.065	0.46
768.24	0.53
768.416	0.45
768.592	0.3
768.768	0.26
768.944	0.35
769.12	0.2
769.295	0.23
769.471	0.3
769.647	0.41
769.823	0.63
769.998	0.33
770.174	0.19
770.35	0.63
770.525	0.59
770.701	0.36
770.877	0.36
771.052	0.27
771.228	0.49
771.403	0.26
771.579	0.44
771.755	0.76
771.93	0.24
772.106	0.39
772.281	0.18
772.457	0.23
772.632	0.43
772.808	0.16
772.983	0.38
773.159	0.19
773.334	0.48
773.509	0.35
773.685	0.13
773.86	0.54
774.036	0.51
774.211	0.48
774.386	0.25
774.562	0.37
774.737	0.54
774.912	0.24
775.087	0.53
775.263	0.33
775.438	0.47
775.613	0.33
775.788	0.34
775.964	0.48
776.139	0.77
776.314	0.09
776.489	0.36
776.664	0.39
776.839	0.27
777.014	0.43
777.19	0.57
777.365	0.59
777.54	0.59
777.715	0.3
777.89	0.27
778.065	0.23
778.24	0.38
778.415	0.53
778.59	0.19
778.765	0.29
778.94	0.46
779.115	0.21
779.289	0.23
779.464	0.45
779.639	0.33
779.814	0.07
779.989	0.18
780.164	0.54
780.339	0.5
780.513	0.4
780.688	0.11
780.863	0.41
781.038	0.67
781.212	0.28
781.387	0.62
781.562	0.71
781.737	0.62
781.911	0.64
782.086	0.31
782.261	0.36
782.435	0.68
782.61	0.31
782.784	0.43
782.959	0.53
783.134	0.45
783.308	0.27
783.483	0.33
783.657	0.62
783.832	0.49
784.006	0.24
784.181	0.25
784.355	0.69
784.53	0.56
784.704	0.27
784.878	0.73
785.053	0.73
785.227	0.69
785.402	1.01
785.576	0.33
785.75	0.48
785.925	0.39
786.099	0.63
786.273	0.72
786.448	0.55
786.622	0.64
786.796	0.35
786.97	0.35
787.145	0.91
787.319	0.33
787.493	0.35
787.667	0.13
787.841	0.51
788.015	0.72
788.19	0.21
788.364	0.57
788.538	0.6
788.712	0.7
788.886	0.2
789.06	0.67
789.234	0.59
789.408	0.31
789.582	0.38
789.756	0.23
789.93	0.38
790.104	0.38
790.278	0.31
790.452	0.29
790.626	0.56
790.8	0.33
790.973	0.56
791.147	0.84
791.321	0.58
791.495	0.68
791.669	0.56
791.843	0.64
792.016	0.65
792.19	0.83
792.364	0.22
792.538	0.95
792.711	0.75
792.885	0.41
793.059	0.14
793.233	-0.1
793.406	0.55
793.58	0.55
793.754	0.49
793.927	0.38
794.101	0.79
794.274	0.55
794.448	0.77
794.622	0.24
794.795	0.8
794.969	0.41
795.142	0.75
795.316	0.69
795.489	0.33
795.663	0.93
795.836	0.55
796.009	0.29
796.183	0.83
796.356	0.68
796.53	0.53
796.703	0.56
796.876	0.93
797.05	0.26
797.223	0.09
797.396	0.82
797.57	0.51
797.743	0.87
797.916	0.61
798.09	0.42
798.263	0.6
798.436	0.76
798.609	0.35
798.782	0.19
798.956	0.8
799.129	0.56
799.302	0.45
799.475	0.3
799.648	0.25
799.821	0.34
799.994	0.64
800.167	0.26
800.34	0.5
800.514	0.69
800.687	0.37
800.86	0.35
801.033	0.74
801.206	0.87
801.379	0.35
801.551	0.64
801.724	0.7
801.897	0.94
802.07	0.54
802.243	0.11
802.416	0.56
802.589	0.64
802.762	0.66
802.935	0.64
803.107	0.8
803.28	1.06
803.453	0.6
803.626	0.3
803.798	0.73
803.971	0.06
804.144	0.79
804.317	0.6
804.489	0.52
804.662	0.52
804.835	0.59
805.007	0.27
805.18	0.88
805.353	0.67
805.525	0.24
805.698	0.39
805.87	0.81
806.043	0.82
806.215	0.43
806.388	0.15
806.56	0.66
806.733	0.93
806.905	0.92
807.078	0.43
807.25	0.51
807.423	0.86
807.595	0.64
807.768	0.55
807.94	0.83
808.112	0.89
808.285	0.53
808.457	0.27
808.629	0.37
808.802	0.78
808.974	0.72
809.146	0.33
809.318	0.25
809.491	0.94
809.663	0.82
809.835	0.5
810.007	1.04
810.18	0.36
810.352	0.38
810.524	0.66
810.696	0.83
810.868	0.98
811.04	0.63
811.212	0.67
811.384	1.17
811.556	0.67
811.728	0.41
811.901	1.59
812.073	0.49
812.245	0.97
812.417	0.61
812.589	-0.08
812.76	0.66
812.932	0.88
813.104	1.26
813.276	0.55
813.448	1.26
813.62	0.57
813.792	0.73
813.964	0.72
814.136	1.08
814.307	0.68
814.479	0.21
814.651	0.66
814.823	1.17
814.995	0.82
815.166	1.07
815.338	0.61
815.51	0.42
815.681	1.52
815.853	1.14
816.025	0.66
816.196	1.18
816.368	0.91
816.54	-0.17
816.711	0.16
816.883	1.2
817.054	1.94
817.226	0.22
817.398	1.2
817.569	0.47
817.741	1.02
817.912	0.7
818.084	0.73
818.255	1.24
818.426	0.65
818.598	0.68
818.769	0.16
818.941	0.99
819.112	0.79
819.283	1.01
819.455	0.05
819.626	0.3
819.798	0.94
819.969	0.99
820.14	0.57
820.311	0.66
820.483	0.51
820.654	0.57
820.825	0.34
820.996	0.16
821.168	0.07
821.339	0.8
821.51	0.23
821.681	0.38
821.852	0.51
822.023	0.05
822.195	0.33
822.366	0.99
822.537	0.42
822.708	0.72
822.879	0.55
823.05	1.5
823.221	0.53
823.392	0.93
823.563	0.82
823.734	0.55
823.905	0.99
824.076	0.17
824.247	0.53
824.418	0.73
824.589	1.65
824.759	0.41
824.93	0.43
825.101	0.83
825.272	1.19
825.443	1.27
825.614	1.78
825.784	-0.38
825.955	2.45
826.126	1.64
826.297	1.16
826.467	1.91
826.638	1.66
826.809	0.37
826.98	1.09
827.15	1.22
827.321	1.1
827.492	1.52
827.662	0.97
827.833	1.75
828.003	1.47
828.174	0.26
828.345	-0.09
828.515	1.51
828.686	0.76
828.856	1.17
829.027	0.84
829.197	0.86
829.368	1.09
829.538	0.24
829.709	0.45
829.879	1.07
830.049	0.59
830.22	0.78
830.39	1.32
830.56	1.58
830.731	1.18
830.901	0.63
831.072	0.55
831.242	0.97
831.412	0.57
831.582	1.19
831.753	0.32
831.923	1.03
832.093	0.48
832.263	1.39
832.434	-0.12
832.604	0.48
832.774	1.67
832.944	0.36
833.114	0.77
833.284	0.92
833.454	0.38
833.624	0.22
833.795	0.21
833.965	1.7
834.135	2.01
834.305	-0.29
834.475	-0.32
834.645	0.61
834.815	0.81
834.985	0.2
835.155	0.35
835.325	1.61
835.494	1.13
835.664	0.67
835.834	-0.31
836.004	1.05
836.174	0.89
836.344	1.02
836.514	0
836.684	0.35
836.853	0.58
837.023	0.71
837.193	0.58
837.363	0.91
837.532	1.51
837.702	0.89
837.872	0.78
838.041	1.65
838.211	2.55
838.381	0.79
838.55	0.9
838.72	3.06
838.89	1.95
839.059	0.55
839.229	-0.05
839.398	2.24
839.568	1.07
839.738	0.77
839.907	1.66
840.077	1.56
840.246	0.48
840.416	0.54
840.585	0.26
840.755	1.86
840.924	2.44
841.093	-0.09
841.263	0.51
841.432	1.32
841.602	0.55
841.771	0.31
841.94	1.05
842.11	3.22
842.279	2.15
842.448	0.32
842.617	0.96
842.787	1.7
842.956	0.04
843.125	1.33
843.294	1.69
843.464	2.37
843.633	1.22
843.802	0.31
843.971	0.95
844.14	0.98
844.309	1.86
844.479	0.65
844.648	0.62
844.817	0.76
844.986	1.94
845.155	1.58
845.324	0.87
845.493	1.35
845.662	0.39
845.831	1.13
846	2.12
846.169	1.16
846.338	2.6
846.507	1.16
846.676	1.69
846.844	0.67
847.013	1.93
847.182	0.75
847.351	0.57
847.52	0.95
847.689	2.12
847.858	1.46
848.026	0.81
848.195	1.63
848.364	-0.22
848.533	0.29
848.701	0.67
848.87	1.57
849.039	2.49
849.207	2.46
849.376	2.35
849.545	2.37
849.713	0.78
849.882	0.42
850.051	1.49
850.219	1.48
850.388	2.35
850.556	0.29
850.725	0.14
850.893	1.47
851.062	0.54
851.23	1.46
851.399	0.69
851.567	0.89
851.736	1.73
851.904	1.13
852.073	0.98
852.241	2.25
852.41	1.68
852.578	0.97
852.746	0.79
852.915	1.97
853.083	1.35
853.251	0.33
853.42	1.33
853.588	0.89
853.756	2.16
853.924	2.09
854.093	0.91
854.261	0.95
854.429	-0.12
854.597	2.02
854.765	0.91
854.934	2.22
855.102	1.8
855.27	0.28
855.438	2.14
855.606	3.23
855.774	1.79
855.942	0.07
856.11	1.3
856.278	0.85
856.446	2.26
856.614	0.91
856.782	1.09
856.95	2.07
857.118	2.55
857.286	1.16
857.454	0.61
857.622	2.18
857.79	2.22
857.958	1.02
858.126	0.32
858.294	0.62
858.462	1.66
858.629	0.64
858.797	-0.17
858.965	2.4
859.133	1.66
859.301	0.69
859.468	1.95
859.636	0.69
859.804	3.56
859.971	2.36
860.139	1.32
860.307	1.26
860.474	1.88
860.642	0.33
860.81	1.14
860.977	0.97
861.145	3.35
861.313	0.64
861.48	0.23
861.648	2.6
861.815	1.14
861.983	-0.49
862.15	0.86
862.318	2.73
862.485	3.07
862.653	0.87
862.82	0.76
862.988	3.06
863.155	2.38
863.322	1.37
863.49	-0.41
863.657	1.86
863.824	3.28
863.992	2.68
864.159	2.5
864.326	3.15
864.494	1.97
864.661	3.6
864.828	0.53
864.996	3.17
865.163	3.6
865.33	1.44
865.497	-0.54
865.664	0.35
865.832	0.28
865.999	-0.27
866.166	0.81
866.333	1.17
866.5	-0.14
866.667	2.45
866.834	1.18
867.001	3.93
867.168	0.6
867.335	1.31
867.502	-0.35
867.669	1.4
867.836	4.17
868.003	1.96
868.17	3.35
868.337	1.55
868.504	4.73
868.671	-0.25
868.838	1.57
869.005	1.95
869.172	1.39
869.339	2.08
869.505	2.7
869.672	2.22
869.839	4.71
870.006	1.27
870.173	-0.09
870.339	2.18
870.506	3.53
870.673	0.64
870.84	2.79
871.006	2.15
871.173	1.98
871.34	1.21
871.506	1.32
871.673	2.36
871.839	-0.02
872.006	0.71
872.173	2
872.339	2.53
872.506	3.29
872.672	1.29
872.839	1.22
873.005	3.89
873.172	4.38
873.338	4.71
873.505	2.59
873.671	2.7
873.838	2.09
874.004	1.1
874.171	1.79
874.337	2.83
874.503	3.81
874.67	2.4
874.836	1.75
875.002	2.77
875.169	2.68
875.335	1.86
875.501	1.8
875.668	3.04
875.834	3.39
876	2.32
876.166	2.87
876.332	4.16
876.499	5.33
876.665	1.46
876.831	1.07
876.997	5.21
877.163	2.95
877.329	1.38
877.495	0.67
877.662	2.66
877.828	3.14
877.994	2.02
878.16	-0.91
878.326	-0.36
878.492	2.51
878.658	0.49
878.824	1.49
878.99	3.77
879.156	1.89
879.322	3.54
879.487	2.59
879.653	1.07
879.819	1.37
879.985	0.44
880.151	2.99
880.317	4.74
880.483	3.22
880.648	4.08
880.814	-0.27
880.98	2.9
881.146	-1.25
881.312	2.48
881.477	1.23
881.643	2.15
881.809	4.26
881.974	4
882.14	0.4
882.306	1.57
882.471	5.19
882.637	1.06
882.803	2.48
882.968	5.92
883.134	3.81
883.299	1.97
883.465	2.75
883.63	3.44
883.796	4.33
883.961	4.28
884.127	3.73
884.292	-1.16
884.458	-1.49
884.623	-1.48
