Data from Apollo_Calib_20240827__AbsoluteIrradiance__756__11-45-02-238.txt Node

Date: Wed Aug 28 11:45:02 BST 2024
User: biology
Spectrometer: FLMT08252
Trigger mode: 0
Integration Time (sec): 5.000000E-1
Scans to average: 5
Electric dark correction enabled: true
Nonlinearity correction enabled: false
Boxcar width: 0
XAxis mode: Wavelengths
Number of Pixels in Spectrum: 3648
>>>>>Begin Spectral Data<<<<<
179.588	-0
179.809	-0
180.03	-0
180.251	-0
180.473	-0
180.694	0
180.915	0
181.136	-0
181.357	0
181.578	-0
181.799	-0
182.02	-0
182.241	0
182.462	0
182.683	0
182.904	-0
183.125	-0
183.346	0
183.567	0
183.788	0
184.009	0
184.23	0
184.451	0
184.672	0
184.892	0
185.113	0
185.334	0
185.555	0
185.776	0
185.996	0
186.217	0
186.438	0
186.659	0
186.879	0
187.1	0
187.321	0
187.541	0
187.762	0
187.983	0
188.203	0
188.424	0
188.644	0
188.865	0
189.086	0
189.306	0
189.527	0
189.747	0
189.968	0
190.188	0
190.409	0
190.629	0
190.849	0
191.07	0
191.29	0
191.511	0
191.731	0
191.951	0
192.172	0
192.392	0
192.612	0
192.833	0
193.053	0
193.273	0
193.493	0
193.714	0
193.934	0
194.154	0
194.374	0
194.594	0
194.815	0
195.035	0
195.255	0
195.475	0
195.695	0
195.915	0
196.135	0
196.355	0
196.575	0
196.795	0
197.015	0
197.235	0
197.455	0
197.675	0
197.895	0
198.115	0
198.335	0
198.555	0
198.775	0
198.995	0
199.214	0
199.434	0
199.654	0
199.874	0
200.094	3.67
200.313	1.27
200.533	1.19
200.753	1.24
200.973	2.77
201.192	2.45
201.412	0.21
201.632	1.46
201.851	2.76
202.071	1.47
202.291	1.01
202.51	0.7
202.73	1.99
202.95	1.21
203.169	0.49
203.389	1.4
203.608	1.77
203.828	1.32
204.047	0.74
204.267	1.77
204.486	1.62
204.706	1.81
204.925	1.36
205.145	0.95
205.364	1.84
205.583	1.81
205.803	0.72
206.022	0.55
206.242	1.43
206.461	1.3
206.68	0.82
206.9	1.12
207.119	2.04
207.338	1.5
207.557	0.81
207.777	0.81
207.996	0.92
208.215	1.31
208.434	0.57
208.654	0.31
208.873	0.8
209.092	1.64
209.311	0.73
209.53	0.91
209.749	0.81
209.968	0.72
210.187	0.82
210.407	0.59
210.626	0.79
210.845	1.2
211.064	0.76
211.283	0.77
211.502	1.04
211.721	0.76
211.94	0.6
212.159	1.03
212.377	1.09
212.596	1.2
212.815	0.95
213.034	0.98
213.253	1.34
213.472	0.88
213.691	0.75
213.91	0.61
214.128	0.54
214.347	1.26
214.566	0.29
214.785	0.44
215.003	0.85
215.222	0.82
215.441	0.47
215.66	0.42
215.878	0.75
216.097	1.16
216.316	0.47
216.534	0.6
216.753	0.8
216.972	0.44
217.19	0.72
217.409	0.36
217.627	0.53
217.846	0.51
218.064	0.89
218.283	0.43
218.501	0.99
218.72	0.95
218.938	0.28
219.157	0.44
219.375	0.78
219.594	0.77
219.812	0.41
220.031	0.39
220.249	0.89
220.467	0.79
220.686	0.53
220.904	0.42
221.122	0.45
221.341	1.04
221.559	0.73
221.777	0.26
221.995	0.52
222.214	0.82
222.432	0.4
222.65	0.68
222.868	0.62
223.086	0.57
223.305	0.58
223.523	0.42
223.741	0.89
223.959	0.54
224.177	0.28
224.395	0.34
224.613	0.63
224.831	0.76
225.049	0.27
225.267	0.26
225.485	0.71
225.703	0.46
225.921	0.37
226.139	0.36
226.357	0.58
226.575	0.53
226.793	0.46
227.011	1.38
227.229	0.47
227.447	0.57
227.665	0.5
227.883	0.23
228.1	0.45
228.318	0.53
228.536	0.22
228.754	0.12
228.972	0.5
229.189	0.62
229.407	0.36
229.625	0.37
229.843	0.58
230.06	0.7
230.278	0.33
230.496	0.44
230.713	0.38
230.931	0.55
231.149	0.42
231.366	0.15
231.584	0.45
231.801	0.7
232.019	0.34
232.236	0.2
232.454	0.3
232.671	0.42
232.889	0.35
233.106	0.21
233.324	0.36
233.541	0.36
233.759	0.42
233.976	0.22
234.194	0.48
234.411	0.31
234.628	0.35
234.846	0.39
235.063	0.36
235.28	0.39
235.498	0.27
235.715	0.29
235.932	0.55
236.149	0.42
236.367	0.28
236.584	0.48
236.801	0.39
237.018	0.52
237.236	0.36
237.453	0.16
237.67	0.53
237.887	0.4
238.104	0.3
238.321	0.21
238.538	0.25
238.755	0.54
238.973	0.15
239.19	0.29
239.407	0.43
239.624	0.32
239.841	0.18
240.058	0.26
240.275	0.4
240.492	0.3
240.709	0.28
240.925	0.23
241.142	0.36
241.359	0.13
241.576	0.2
241.793	0.23
242.01	0.34
242.227	0.46
242.444	0.33
242.66	0.47
242.877	0.33
243.094	0.32
243.311	0.39
243.527	0.3
243.744	0.39
243.961	0.36
244.178	0.23
244.394	0.28
244.611	0.48
244.828	0.5
245.044	0.22
245.261	0.31
245.477	0.29
245.694	0.47
245.911	0.24
246.127	0.29
246.344	0.58
246.56	0.3
246.777	0.24
246.993	0.3
247.21	0.39
247.426	0.34
247.643	0.19
247.859	0.16
248.076	0.22
248.292	0.58
248.508	0.26
248.725	0.37
248.941	0.33
249.157	0.43
249.374	0.19
249.59	0.23
249.806	0.35
250.023	0.48
250.239	0.26
250.455	0.21
250.671	0.35
250.888	0.41
251.104	0.37
251.32	0.22
251.536	0.31
251.752	0.3
251.969	0.31
252.185	0.3
252.401	0.49
252.617	0.39
252.833	0.22
253.049	0.32
253.265	0.29
253.481	0.31
253.697	0.19
253.913	0.23
254.129	0.31
254.345	0.34
254.561	0.24
254.777	0.2
254.993	0.36
255.209	0.33
255.425	0.21
255.641	0.28
255.857	0.38
256.073	0.27
256.288	0.16
256.504	0.25
256.72	0.35
256.936	0.34
257.152	0.3
257.367	0.26
257.583	0.26
257.799	0.3
258.015	0.25
258.23	0.24
258.446	0.52
258.662	0.19
258.877	0.22
259.093	0.17
259.309	0.29
259.524	0.32
259.74	0.23
259.955	0.12
260.171	0.26
260.387	0.27
260.602	0.37
260.818	0.29
261.033	0.15
261.249	0.26
261.464	0.22
261.68	0.16
261.895	0.33
262.11	0.36
262.326	0.22
262.541	0.12
262.757	0.41
262.972	0.31
263.187	0.35
263.403	0.33
263.618	0.35
263.833	0.29
264.049	0.2
264.264	0.25
264.479	0.26
264.694	0.41
264.91	0.21
265.125	0.2
265.34	0.33
265.555	0.47
265.77	0.26
265.986	0.23
266.201	0.35
266.416	0.31
266.631	0.17
266.846	0.28
267.061	0.37
267.276	0.33
267.491	0.12
267.706	0.37
267.921	0.25
268.136	0.27
268.351	0.29
268.566	0.08
268.781	0.37
268.996	0.3
269.211	0.25
269.426	0.16
269.641	0.22
269.856	0.32
270.071	0.15
270.285	0.16
270.5	0.34
270.715	0.35
270.93	0.29
271.145	0.3
271.359	0.32
271.574	0.2
271.789	0.26
272.004	0.21
272.218	0.24
272.433	0.3
272.648	0.19
272.862	0.28
273.077	0.25
273.292	0.26
273.506	0.18
273.721	0.23
273.936	0.24
274.15	0.34
274.365	0.22
274.579	0.25
274.794	0.36
275.008	0.28
275.223	0.1
275.437	0.28
275.652	0.31
275.866	0.23
276.081	0.24
276.295	0.3
276.509	0.25
276.724	0.24
276.938	0.25
277.153	0.24
277.367	0.34
277.581	0.21
277.796	0.2
278.01	0.12
278.224	0.32
278.438	0.39
278.653	0.17
278.867	0.13
279.081	0.29
279.295	0.21
279.51	0.24
279.724	0.12
279.938	0.28
280.152	0.3
280.366	0.2
280.58	0.25
280.794	0.32
281.008	0.26
281.222	0.26
281.437	0.32
281.651	0.24
281.865	0.35
282.079	0.21
282.293	0.14
282.507	0.14
282.721	0.2
282.935	0.22
283.148	0.13
283.362	0.19
283.576	0.16
283.79	0.21
284.004	0.16
284.218	0.3
284.432	0.16
284.646	0.24
284.859	0.17
285.073	0.19
285.287	0.2
285.501	0.2
285.714	0.22
285.928	0.18
286.142	0.23
286.356	0.18
286.569	0.16
286.783	0.33
286.997	0.22
287.21	0.16
287.424	0.2
287.637	0.25
287.851	0.21
288.065	0.23
288.278	0.2
288.492	0.24
288.705	0.23
288.919	0.24
289.132	0.1
289.346	0.26
289.559	0.12
289.773	0.16
289.986	0.13
290.2	0.21
290.413	0.31
290.626	0.13
290.84	0.19
291.053	0.22
291.267	0.26
291.48	0.22
291.693	0.18
291.906	0.17
292.12	0.18
292.333	0.18
292.546	0.14
292.76	0.3
292.973	0.24
293.186	0.26
293.399	0.21
293.612	0.23
293.826	0.18
294.039	0.17
294.252	0.19
294.465	0.29
294.678	0.2
294.891	0.22
295.104	0.13
295.317	0.17
295.53	0.2
295.743	0.17
295.956	0.16
296.169	0.29
296.382	0.24
296.595	0.21
296.808	0.16
297.021	0.25
297.234	0.25
297.447	0.2
297.66	0.18
297.873	0.25
298.086	0.29
298.299	0.17
298.511	0.12
298.724	0.19
298.937	0.15
299.15	0.15
299.363	0.13
299.575	0.24
299.788	0.25
300.001	0.16
300.213	0.16
300.426	0.16
300.639	0.18
300.852	0.14
301.064	0.25
301.277	0.29
301.489	0.19
301.702	0.18
301.915	0.23
302.127	0.16
302.34	0.21
302.552	0.24
302.765	0.14
302.977	0.26
303.19	0.15
303.402	0.19
303.615	0.15
303.827	0.17
304.04	0.19
304.252	0.21
304.464	0.16
304.677	0.32
304.889	0.25
305.102	0.14
305.314	0.17
305.526	0.19
305.739	0.21
305.951	0.08
306.163	0.15
306.375	0.29
306.588	0.18
306.8	0.13
307.012	0.12
307.224	0.21
307.436	0.23
307.649	0.11
307.861	0.17
308.073	0.22
308.285	0.16
308.497	0.18
308.709	0.16
308.921	0.17
309.133	0.27
309.346	0.17
309.558	0.16
309.77	0.24
309.982	0.26
310.194	0.22
310.406	0.18
310.617	0.29
310.829	0.19
311.041	0.23
311.253	0.12
311.465	0.17
311.677	0.22
311.889	0.2
312.101	0.13
312.313	0.22
312.524	0.22
312.736	0.13
312.948	0.15
313.16	0.27
313.372	0.25
313.583	0.22
313.795	0.17
314.007	0.19
314.218	0.24
314.43	0.19
314.642	0.16
314.853	0.09
315.065	0.23
315.277	0.21
315.488	0.21
315.7	0.25
315.912	0.23
316.123	0.19
316.335	0.17
316.546	0.27
316.758	0.15
316.969	0.14
317.181	0.19
317.392	0.19
317.604	0.23
317.815	0.16
318.026	0.17
318.238	0.16
318.449	0.25
318.661	0.08
318.872	0.12
319.083	0.1
319.295	0.23
319.506	0.16
319.717	0.19
319.929	0.22
320.14	0.22
320.351	0.2
320.562	0.16
320.774	0.17
320.985	0.21
321.196	0.17
321.407	0.13
321.618	0.23
321.829	0.18
322.041	0.2
322.252	0.17
322.463	0.22
322.674	0.2
322.885	0.1
323.096	0.12
323.307	0.19
323.518	0.2
323.729	0.15
323.94	0.19
324.151	0.17
324.362	0.2
324.573	0.24
324.784	0.19
324.995	0.23
325.206	0.18
325.417	0.14
325.628	0.16
325.838	0.2
326.049	0.21
326.26	0.21
326.471	0.16
326.682	0.25
326.892	0.2
327.103	0.16
327.314	0.14
327.525	0.24
327.735	0.18
327.946	0.18
328.157	0.13
328.368	0.2
328.578	0.2
328.789	0.23
328.999	0.2
329.21	0.16
329.421	0.23
329.631	0.12
329.842	0.16
330.052	0.2
330.263	0.22
330.473	0.25
330.684	0.12
330.894	0.18
331.105	0.24
331.315	0.16
331.526	0.11
331.736	0.3
331.947	0.14
332.157	0.21
332.367	0.14
332.578	0.24
332.788	0.23
332.999	0.24
333.209	0.19
333.419	0.15
333.629	0.22
333.84	0.21
334.05	0.17
334.26	0.25
334.47	0.15
334.681	0.21
334.891	0.15
335.101	0.21
335.311	0.27
335.521	0.2
335.732	0.13
335.942	0.25
336.152	0.21
336.362	0.2
336.572	0.19
336.782	0.23
336.992	0.15
337.202	0.16
337.412	0.13
337.622	0.21
337.832	0.22
338.042	0.18
338.252	0.12
338.462	0.18
338.672	0.17
338.882	0.13
339.092	0.17
339.302	0.28
339.511	0.27
339.721	0.15
339.931	0.11
340.141	0.24
340.351	0.26
340.561	0.19
340.77	0.18
340.98	0.24
341.19	0.25
341.4	0.15
341.609	0.13
341.819	0.19
342.029	0.12
342.238	0.19
342.448	0.17
342.658	0.22
342.867	0.17
343.077	0.18
343.286	0.1
343.496	0.17
343.706	0.28
343.915	0.11
344.125	0.21
344.334	0.2
344.544	0.12
344.753	0.15
344.963	0.11
345.172	0.19
345.381	0.17
345.591	0.16
345.8	0.17
346.01	0.22
346.219	0.23
346.428	0.04
346.638	0.22
346.847	0.17
347.056	0.24
347.266	0.17
347.475	0.15
347.684	0.21
347.893	0.22
348.103	0.22
348.312	0.12
348.521	0.2
348.73	0.18
348.94	0.2
349.149	0.14
349.358	0.17
349.567	0.15
349.776	0.15
349.985	0.16
350.194	0.23
350.403	0.26
350.612	0.09
350.821	0.16
351.03	0.17
351.239	0.11
351.448	0.21
351.657	0.17
351.866	0.29
352.075	0.19
352.284	0.18
352.493	0.09
352.702	0.2
352.911	0.18
353.12	0.17
353.329	0.16
353.538	0.18
353.746	0.2
353.955	0.15
354.164	0.21
354.373	0.18
354.582	0.23
354.79	0.14
354.999	0.19
355.208	0.2
355.416	0.28
355.625	0.14
355.834	0.15
356.042	0.18
356.251	0.19
356.46	0.12
356.668	0.21
356.877	0.24
357.085	0.26
357.294	0.11
357.503	0.23
357.711	0.2
357.92	0.36
358.128	0.15
358.337	0.19
358.545	0.16
358.754	0.16
358.962	0.2
359.17	0.14
359.379	0.2
359.587	0.18
359.796	0.17
360.004	0.24
360.212	0.19
360.421	0.24
360.629	0.16
360.837	0.1
361.046	0.22
361.254	0.31
361.462	0.18
361.67	0.15
361.879	0.23
362.087	0.27
362.295	0.18
362.503	0.18
362.711	0.11
362.92	0.17
363.128	0.17
363.336	0.17
363.544	0.14
363.752	0.2
363.96	0.15
364.168	0.16
364.376	0.14
364.584	0.18
364.792	0.25
365	0.19
365.208	0.2
365.416	0.19
365.624	0.23
365.832	0.12
366.04	0.24
366.248	0.18
366.456	0.2
366.664	0.19
366.872	0.2
367.079	0.16
367.287	0.14
367.495	0.23
367.703	0.18
367.911	0.17
368.118	0.16
368.326	0.13
368.534	0.13
368.742	0.29
368.949	0.13
369.157	0.12
369.365	0.22
369.572	0.18
369.78	0.13
369.988	0.24
370.195	0.21
370.403	0.2
370.61	0.14
370.818	0.19
371.026	0.23
371.233	0.18
371.441	0.21
371.648	0.15
371.856	0.17
372.063	0.19
372.271	0.14
372.478	0.14
372.685	0.18
372.893	0.2
373.1	0.17
373.308	0.15
373.515	0.3
373.722	0.23
373.93	0.17
374.137	0.25
374.344	0.26
374.552	0.21
374.759	0.19
374.966	0.18
375.173	0.14
375.381	0.26
375.588	0.16
375.795	0.07
376.002	0.21
376.209	0.14
376.417	0.18
376.624	0.18
376.831	0.2
377.038	0.18
377.245	0.08
377.452	0.14
377.659	0.2
377.866	0.15
378.073	0.15
378.28	0.13
378.487	0.24
378.694	0.23
378.901	0.15
379.108	0.17
379.315	0.26
379.522	0.29
379.729	0.2
379.936	0.2
380.143	0.17
380.35	0.18
380.557	0.19
380.763	0.16
380.97	0.19
381.177	0.18
381.384	0.2
381.591	0.18
381.797	0.21
382.004	0.21
382.211	0.21
382.418	0.14
382.624	0.21
382.831	0.24
383.038	0.15
383.244	0.22
383.451	0.18
383.658	0.23
383.864	0.16
384.071	0.16
384.277	0.27
384.484	0.2
384.69	0.25
384.897	0.18
385.103	0.17
385.31	0.15
385.516	0.16
385.723	0.17
385.929	0.18
386.136	0.16
386.342	0.23
386.549	0.15
386.755	0.29
386.961	0.24
387.168	0.17
387.374	0.18
387.58	0.23
387.787	0.22
387.993	0.2
388.199	0.17
388.406	0.16
388.612	0.18
388.818	0.2
389.024	0.16
389.231	0.21
389.437	0.29
389.643	0.29
389.849	0.19
390.055	0.23
390.261	0.2
390.467	0.23
390.674	0.19
390.88	0.2
391.086	0.25
391.292	0.15
391.498	0.27
391.704	0.2
391.91	0.22
392.116	0.18
392.322	0.09
392.528	0.22
392.734	0.23
392.94	0.23
393.146	0.2
393.352	0.25
393.557	0.21
393.763	0.27
393.969	0.26
394.175	0.21
394.381	0.24
394.587	0.21
394.792	0.22
394.998	0.3
395.204	0.27
395.41	0.21
395.615	0.24
395.821	0.23
396.027	0.29
396.233	0.23
396.438	0.27
396.644	0.25
396.85	0.24
397.055	0.25
397.261	0.23
397.466	0.33
397.672	0.24
397.878	0.3
398.083	0.27
398.289	0.19
398.494	0.3
398.7	0.29
398.905	0.19
399.111	0.35
399.316	0.19
399.522	0.22
399.727	0.25
399.932	0.23
400.138	0.2
400.343	0.28
400.549	0.28
400.754	0.27
400.959	0.29
401.165	0.26
401.37	0.24
401.575	0.38
401.78	0.3
401.986	0.21
402.191	0.24
402.396	0.3
402.601	0.32
402.807	0.27
403.012	0.28
403.217	0.36
403.422	0.31
403.627	0.31
403.832	0.26
404.037	0.33
404.243	0.29
404.448	0.28
404.653	0.26
404.858	0.33
405.063	0.34
405.268	0.27
405.473	0.26
405.678	0.32
405.883	0.5
406.088	0.35
406.293	0.26
406.498	0.32
406.703	0.4
406.907	0.36
407.112	0.32
407.317	0.35
407.522	0.42
407.727	0.34
407.932	0.39
408.136	0.53
408.341	0.41
408.546	0.42
408.751	0.42
408.956	0.43
409.16	0.5
409.365	0.4
409.57	0.5
409.774	0.45
409.979	0.52
410.184	0.48
410.388	0.4
410.593	0.6
410.798	0.54
411.002	0.54
411.207	0.62
411.411	0.54
411.616	0.52
411.82	0.61
412.025	0.62
412.229	0.62
412.434	0.75
412.638	0.71
412.843	0.68
413.047	0.76
413.252	0.67
413.456	0.77
413.66	0.74
413.865	0.74
414.069	0.89
414.273	0.81
414.478	0.83
414.682	0.87
414.886	0.9
415.091	0.95
415.295	0.94
415.499	1.06
415.703	1.01
415.908	1.09
416.112	1.02
416.316	1.18
416.52	1.2
416.724	1.09
416.929	1.19
417.133	1.46
417.337	1.28
417.541	1.37
417.745	1.41
417.949	1.52
418.153	1.5
418.357	1.45
418.561	1.71
418.765	1.62
418.969	1.81
419.173	1.88
419.377	1.83
419.581	2.02
419.785	1.99
419.989	2
420.193	2.16
420.397	2.23
420.601	2.35
420.804	2.4
421.008	2.28
421.212	2.52
421.416	2.5
421.62	2.54
421.823	2.52
422.027	2.72
422.231	2.69
422.435	2.7
422.638	2.8
422.842	2.82
423.046	2.89
423.249	3.1
423.453	2.98
423.657	3.15
423.86	3.25
424.064	3.34
424.268	3.45
424.471	3.52
424.675	3.6
424.878	3.71
425.082	3.77
425.285	4.02
425.489	3.92
425.692	4.01
425.896	4.01
426.099	4.26
426.303	4.31
426.506	4.42
426.71	4.57
426.913	4.74
427.116	4.93
427.32	4.89
427.523	4.99
427.726	5.26
427.93	5.21
428.133	5.47
428.336	5.58
428.54	5.67
428.743	5.94
428.946	6.06
429.149	6.06
429.353	6.11
429.556	6.15
429.759	6.17
429.962	6.29
430.165	6.43
430.368	6.06
430.571	6.13
430.775	6.24
430.978	6.18
431.181	6.19
431.384	6.25
431.587	6.35
431.79	6.62
431.993	6.54
432.196	6.82
432.399	7.12
432.602	7.23
432.805	7.27
433.008	7.66
433.211	7.53
433.414	7.85
433.616	7.82
433.819	7.86
434.022	7.91
434.225	8.03
434.428	8.15
434.631	8.51
434.833	8.22
435.036	8.43
435.239	8.56
435.442	8.51
435.645	8.7
435.847	8.8
436.05	9.05
436.253	9.26
436.455	9.3
436.658	9.12
436.861	9.5
437.063	9.51
437.266	9.57
437.468	9.8
437.671	10.05
437.874	10.1
438.076	9.79
438.279	10.27
438.481	10.4
438.684	10.92
438.886	10.59
439.089	10.8
439.291	10.83
439.494	11.2
439.696	11.36
439.899	11.79
440.101	11.91
440.303	12.15
440.506	12.78
440.708	12.67
440.91	12.8
441.113	12.85
441.315	13.07
441.517	12.97
441.72	13.51
441.922	13.17
442.124	13.08
442.326	13.5
442.529	13.48
442.731	13.66
442.933	13.87
443.135	13.6
443.337	13.64
443.539	14.11
443.742	13.74
443.944	14.29
444.146	14.15
444.348	14.22
444.55	14.04
444.752	14.27
444.954	14.32
445.156	14.21
445.358	14.49
445.56	14.69
445.762	14.63
445.964	14.73
446.166	14.68
446.368	14.54
446.57	14.66
446.772	14.37
446.974	14.12
447.175	14.36
447.377	14.17
447.579	14.52
447.781	14.25
447.983	14.03
448.184	13.73
448.386	14.03
448.588	13.72
448.79	13.67
448.991	13.68
449.193	13.74
449.395	13.11
449.597	13.02
449.798	12.84
450	12.35
450.202	12.5
450.403	12.4
450.605	12.46
450.806	11.94
451.008	11.81
451.21	11.7
451.411	11.47
451.613	10.76
451.814	10.88
452.016	10.94
452.217	10.24
452.419	10.29
452.62	10.08
452.821	9.85
453.023	9.77
453.224	9.48
453.426	9.05
453.627	8.56
453.828	8.62
454.03	8.75
454.231	8.59
454.432	8.48
454.634	8.41
454.835	8.06
455.036	7.97
455.238	7.75
455.439	7.57
455.64	7.37
455.841	7.21
456.042	7.33
456.244	6.93
456.445	6.73
456.646	6.51
456.847	6.42
457.048	6.44
457.249	6.49
457.45	6.29
457.651	5.84
457.852	5.84
458.054	5.55
458.255	5.44
458.456	5.53
458.657	5.45
458.858	5.09
459.058	5.17
459.259	5.09
459.46	4.88
459.661	4.83
459.862	4.93
460.063	4.78
460.264	4.76
460.465	4.55
460.666	4.66
460.866	4.25
461.067	4.13
461.268	4.23
461.469	4.14
461.67	4.13
461.87	3.98
462.071	3.96
462.272	3.92
462.473	3.83
462.673	3.97
462.874	3.91
463.075	3.9
463.275	3.84
463.476	3.94
463.676	3.9
463.877	3.73
464.078	3.67
464.278	3.83
464.479	3.66
464.679	3.54
464.88	3.53
465.08	3.55
465.281	3.44
465.481	3.24
465.682	3.15
465.882	3.13
466.083	3.06
466.283	3.06
466.483	2.85
466.684	2.8
466.884	2.73
467.085	2.83
467.285	2.8
467.485	2.66
467.686	2.69
467.886	2.55
468.086	2.55
468.286	2.53
468.487	2.56
468.687	2.46
468.887	2.41
469.087	2.48
469.287	2.47
469.488	2.24
469.688	2.4
469.888	2.33
470.088	2.35
470.288	2.28
470.488	2.28
470.688	2.14
470.888	2.1
471.088	2.01
471.288	2.09
471.488	2.03
471.688	2.03
471.888	2.01
472.088	2.07
472.288	1.97
472.488	1.96
472.688	1.9
472.888	1.98
473.088	1.96
473.288	1.9
473.488	1.77
473.688	1.94
473.887	1.87
474.087	1.81
474.287	1.83
474.487	1.77
474.687	1.79
474.886	1.75
475.086	1.73
475.286	1.74
475.486	1.76
475.685	1.66
475.885	1.63
476.085	1.69
476.284	1.67
476.484	1.65
476.684	1.68
476.883	1.77
477.083	1.58
477.282	1.59
477.482	1.63
477.681	1.65
477.881	1.58
478.08	1.52
478.28	1.53
478.479	1.58
478.679	1.63
478.878	1.49
479.078	1.51
479.277	1.53
479.477	1.56
479.676	1.53
479.875	1.51
480.075	1.44
480.274	1.5
480.473	1.54
480.673	1.5
480.872	1.6
481.071	1.52
481.271	1.48
481.47	1.47
481.669	1.54
481.868	1.51
482.067	1.48
482.267	1.44
482.466	1.44
482.665	1.42
482.864	1.48
483.063	1.44
483.262	1.54
483.461	1.54
483.661	1.56
483.86	1.51
484.059	1.53
484.258	1.54
484.457	1.51
484.656	1.5
484.855	1.54
485.054	1.41
485.253	1.49
485.452	1.43
485.651	1.52
485.849	1.45
486.048	1.51
486.247	1.51
486.446	1.58
486.645	1.54
486.844	1.52
487.043	1.56
487.241	1.61
487.44	1.58
487.639	1.62
487.838	1.6
488.037	1.59
488.235	1.7
488.434	1.68
488.633	1.53
488.831	1.69
489.03	1.7
489.229	1.67
489.427	1.7
489.626	1.73
489.825	1.74
490.023	1.76
490.222	1.72
490.42	1.79
490.619	1.8
490.817	1.81
491.016	1.8
491.214	1.84
491.413	1.85
491.611	1.82
491.81	1.82
492.008	1.86
492.207	1.92
492.405	1.94
492.604	1.87
492.802	1.97
493	2.03
493.199	2
493.397	2.01
493.595	2.05
493.794	2.05
493.992	2.16
494.19	2.09
494.388	2.17
494.587	2.1
494.785	2.09
494.983	2.1
495.181	2.23
495.379	2.21
495.578	2.27
495.776	2.25
495.974	2.26
496.172	2.33
496.37	2.37
496.568	2.37
496.766	2.35
496.964	2.45
497.162	2.44
497.36	2.48
497.558	2.47
497.756	2.59
497.954	2.54
498.152	2.58
498.35	2.64
498.548	2.58
498.746	2.63
498.944	2.63
499.142	2.68
499.34	2.71
499.538	2.84
499.736	2.71
499.933	2.87
500.131	2.81
500.329	2.93
500.527	2.93
500.725	2.98
500.922	3.01
501.12	3.04
501.318	3.06
501.516	3.07
501.713	3.11
501.911	3.16
502.109	3.05
502.306	3.21
502.504	3.11
502.701	3.17
502.899	3.25
503.097	3.41
503.294	3.27
503.492	3.41
503.689	3.42
503.887	3.46
504.084	3.46
504.282	3.42
504.479	3.45
504.677	3.59
504.874	3.5
505.072	3.47
505.269	3.67
505.466	3.65
505.664	3.72
505.861	3.6
506.059	3.72
506.256	3.76
506.453	3.75
506.651	3.92
506.848	3.91
507.045	3.89
507.242	3.9
507.44	3.94
507.637	3.98
507.834	3.95
508.031	4.08
508.229	4.05
508.426	4.04
508.623	4.14
508.82	4.16
509.017	4.09
509.214	4.12
509.411	4.3
509.608	4.17
509.805	4.3
510.003	4.32
510.2	4.32
510.397	4.44
510.594	4.33
510.791	4.44
510.988	4.42
511.184	4.43
511.381	4.35
511.578	4.44
511.775	4.57
511.972	4.49
512.169	4.59
512.366	4.64
512.563	4.65
512.76	4.68
512.956	4.73
513.153	4.63
513.35	4.67
513.547	4.62
513.744	4.76
513.94	4.73
514.137	4.82
514.334	4.79
514.53	4.88
514.727	5.02
514.924	4.94
515.12	4.92
515.317	4.94
515.514	4.88
515.71	4.87
515.907	5.03
516.103	5.08
516.3	4.99
516.497	5.04
516.693	5.07
516.89	5.12
517.086	5.06
517.283	5.23
517.479	5.02
517.676	5.14
517.872	5.21
518.068	5.2
518.265	5.17
518.461	5.13
518.658	5.26
518.854	5.28
519.05	5.26
519.247	5.34
519.443	5.32
519.639	5.42
519.836	5.29
520.032	5.36
520.228	5.43
520.424	5.44
520.621	5.48
520.817	5.49
521.013	5.44
521.209	5.58
521.405	5.56
521.601	5.55
521.798	5.5
521.994	5.55
522.19	5.47
522.386	5.52
522.582	5.61
522.778	5.72
522.974	5.56
523.17	5.6
523.366	5.57
523.562	5.65
523.758	5.65
523.954	5.5
524.15	5.71
524.346	5.71
524.542	5.7
524.738	5.66
524.934	5.8
525.129	5.75
525.325	5.64
525.521	5.68
525.717	5.88
525.913	5.7
526.109	5.73
526.304	5.84
526.5	5.83
526.696	5.85
526.892	5.81
527.087	6
527.283	5.92
527.479	5.87
527.674	5.74
527.87	5.9
528.066	5.85
528.261	5.96
528.457	5.87
528.653	5.98
528.848	5.94
529.044	5.98
529.239	5.95
529.435	5.95
529.63	5.86
529.826	6
530.021	5.95
530.217	6
530.412	5.91
530.608	6
530.803	5.99
530.999	5.88
531.194	6
531.389	6.13
531.585	6.06
531.78	6.11
531.975	6.05
532.171	6.11
532.366	6.08
532.561	6.07
532.757	6.03
532.952	6.2
533.147	6.04
533.342	6.09
533.538	6.08
533.733	6.25
533.928	5.97
534.123	6.06
534.318	6.13
534.513	6.02
534.709	6.15
534.904	6.17
535.099	6.2
535.294	6.2
535.489	6.21
535.684	6.17
535.879	6.13
536.074	6.18
536.269	6.22
536.464	6.23
536.659	6.13
536.854	6.23
537.049	6.28
537.244	6.21
537.439	6.18
537.634	6.19
537.828	6.22
538.023	6.26
538.218	6.15
538.413	6.16
538.608	6.19
538.803	6.19
538.997	6.15
539.192	6.23
539.387	6.2
539.582	6.26
539.776	6.17
539.971	6.26
540.166	6.35
540.36	6.19
540.555	6.35
540.75	6.27
540.944	6.24
541.139	6.29
541.334	6.27
541.528	6.33
541.723	6.34
541.917	6.35
542.112	6.2
542.306	6.18
542.501	6.19
542.695	6.28
542.89	6.24
543.084	6.26
543.279	6.33
543.473	6.31
543.668	6.33
543.862	6.17
544.056	6.19
544.251	6.38
544.445	6.4
544.64	6.38
544.834	6.14
545.028	6.07
545.222	6.33
545.417	6.46
545.611	6.31
545.805	6.28
546	6.18
546.194	6.34
546.388	6.35
546.582	6.31
546.776	6.27
546.97	6.28
547.165	6.3
547.359	6.29
547.553	6.19
547.747	6.31
547.941	6.45
548.135	6.25
548.329	6.35
548.523	6.3
548.717	6.28
548.911	6.27
549.105	6.29
549.299	6.35
549.493	6.31
549.687	6.31
549.881	6.39
550.075	6.31
550.269	6.26
550.463	6.31
550.657	6.34
550.85	6.28
551.044	6.26
551.238	6.39
551.432	6.35
551.626	6.33
551.82	6.4
552.013	6.3
552.207	6.35
552.401	6.31
552.594	6.34
552.788	6.24
552.982	6.29
553.176	6.26
553.369	6.48
553.563	6.37
553.756	6.31
553.95	6.36
554.144	6.37
554.337	6.38
554.531	6.22
554.724	6.38
554.918	6.44
555.111	6.34
555.305	6.34
555.498	6.27
555.692	6.41
555.885	6.37
556.079	6.3
556.272	6.35
556.466	6.31
556.659	6.36
556.852	6.42
557.046	6.26
557.239	6.21
557.432	6.3
557.626	6.36
557.819	6.42
558.012	6.31
558.206	6.44
558.399	6.32
558.592	6.28
558.785	6.31
558.979	6.36
559.172	6.35
559.365	6.34
559.558	6.3
559.751	6.32
559.944	6.37
560.138	6.3
560.331	6.34
560.524	6.35
560.717	6.39
560.91	6.3
561.103	6.32
561.296	6.21
561.489	6.39
561.682	6.39
561.875	6.39
562.068	6.41
562.261	6.32
562.454	6.43
562.647	6.38
562.84	6.39
563.032	6.46
563.225	6.34
563.418	6.33
563.611	6.4
563.804	6.32
563.997	6.27
564.19	6.08
564.382	6.39
564.575	6.35
564.768	6.29
564.961	6.37
565.153	6.27
565.346	6.26
565.539	6.34
565.731	6.39
565.924	6.34
566.117	6.44
566.309	6.38
566.502	6.24
566.695	6.33
566.887	6.37
567.08	6.32
567.272	6.37
567.465	6.25
567.657	6.34
567.85	6.29
568.042	6.37
568.235	6.4
568.427	6.17
568.62	6.29
568.812	6.26
569.005	6.35
569.197	6.25
569.389	6.33
569.582	6.29
569.774	6.24
569.966	6.2
570.159	6.19
570.351	6.27
570.543	6.28
570.736	6.34
570.928	6.15
571.12	6.28
571.312	6.26
571.505	6.05
571.697	6.33
571.889	6.28
572.081	6.3
572.273	6.17
572.465	6.22
572.658	6.29
572.85	6.28
573.042	6.25
573.234	6.16
573.426	6.24
573.618	6.21
573.81	6.27
574.002	6.26
574.194	6.25
574.386	6.18
574.578	6.1
574.77	6.22
574.962	6.28
575.154	6.11
575.346	6.16
575.538	6.16
575.729	6.15
575.921	6.23
576.113	6.2
576.305	6.17
576.497	6.27
576.689	6.11
576.88	6.06
577.072	6.23
577.264	6.17
577.456	6.16
577.647	6.12
577.839	6.26
578.031	6.13
578.223	6.09
578.414	6.06
578.606	6.17
578.798	6.15
578.989	6.14
579.181	6.2
579.372	6.14
579.564	6.13
579.755	6.07
579.947	6.03
580.139	6.13
580.33	6.02
580.522	6.07
580.713	6.05
580.905	6.06
581.096	6.13
581.287	6.07
581.479	5.97
581.67	6.09
581.862	6.03
582.053	6.02
582.244	5.9
582.436	6.1
582.627	6
582.818	6.03
583.01	5.97
583.201	6.04
583.392	6.02
583.583	5.95
583.775	5.87
583.966	5.95
584.157	6
584.348	6.05
584.54	5.94
584.731	5.98
584.922	5.91
585.113	5.87
585.304	5.92
585.495	5.98
585.686	5.95
585.877	5.99
586.068	6.03
586.259	5.98
586.45	5.92
586.641	5.91
586.832	5.92
587.023	5.9
587.214	5.83
587.405	5.91
587.596	5.82
587.787	5.8
587.978	5.87
588.169	5.82
588.36	5.78
588.551	5.8
588.742	5.81
588.932	5.88
589.123	5.69
589.314	5.88
589.505	5.76
589.696	5.78
589.886	5.77
590.077	5.79
590.268	5.74
590.458	5.7
590.649	5.6
590.84	5.7
591.03	5.67
591.221	5.74
591.412	5.56
591.602	5.78
591.793	5.69
591.984	5.7
592.174	5.67
592.365	5.84
592.555	5.55
592.746	5.58
592.936	5.65
593.127	5.69
593.317	5.7
593.508	5.63
593.698	5.56
593.889	5.58
594.079	5.57
594.269	5.48
594.46	5.52
594.65	5.54
594.84	5.53
595.031	5.47
595.221	5.47
595.411	5.54
595.602	5.49
595.792	5.45
595.982	5.42
596.172	5.56
596.363	5.38
596.553	5.42
596.743	5.41
596.933	5.45
597.123	5.41
597.314	5.33
597.504	5.33
597.694	5.39
597.884	5.35
598.074	5.44
598.264	5.36
598.454	5.41
598.644	5.33
598.834	5.31
599.024	5.23
599.214	5.24
599.404	5.35
599.594	5.27
599.784	5.21
599.974	5.3
600.164	5.24
600.354	5.22
600.544	5.13
600.734	5.34
600.924	5.24
601.114	5.14
601.303	5.15
601.493	5.16
601.683	5.14
601.873	5.13
602.063	5.08
602.252	5.15
602.442	5
602.632	5.06
602.821	5
603.011	5.07
603.201	5.06
603.39	5.03
603.58	4.97
603.77	5.08
603.959	5.06
604.149	4.97
604.339	4.97
604.528	5.09
604.718	4.99
604.907	4.95
605.097	4.88
605.286	4.91
605.476	4.98
605.665	4.97
605.855	4.86
606.044	4.97
606.234	4.98
606.423	4.83
606.612	4.88
606.802	4.88
606.991	4.86
607.181	4.84
607.37	4.79
607.559	4.67
607.749	4.75
607.938	4.72
608.127	4.75
608.316	4.71
608.506	4.7
608.695	4.76
608.884	4.69
609.073	4.71
609.263	4.73
609.452	4.66
609.641	4.61
609.83	4.54
610.019	4.67
610.208	4.6
610.397	4.57
610.586	4.63
610.775	4.53
610.965	4.55
611.154	4.45
611.343	4.56
611.532	4.51
611.721	4.58
611.91	4.48
612.099	4.45
612.287	4.4
612.476	4.4
612.665	4.53
612.854	4.4
613.043	4.41
613.232	4.39
613.421	4.35
613.61	4.31
613.798	4.31
613.987	4.37
614.176	4.39
614.365	4.32
614.554	4.33
614.742	4.33
614.931	4.22
615.12	4.33
615.309	4.29
615.497	4.19
615.686	4.16
615.875	4.24
616.063	4.16
616.252	4.15
616.44	4.18
616.629	4.18
616.818	4.17
617.006	4.11
617.195	4.1
617.383	4.15
617.572	4.09
617.76	4.11
617.949	4.04
618.137	4.14
618.326	4.12
618.514	3.96
618.703	3.9
618.891	4.1
619.079	3.99
619.268	4.04
619.456	3.93
619.644	3.96
619.833	3.94
620.021	3.91
620.209	3.81
620.398	3.93
620.586	3.86
620.774	3.91
620.962	3.88
621.151	3.89
621.339	3.83
621.527	3.73
621.715	3.71
621.903	3.78
622.092	3.78
622.28	3.84
622.468	3.7
622.656	3.77
622.844	3.77
623.032	3.8
623.22	3.62
623.408	3.81
623.596	3.73
623.784	3.73
623.972	3.6
624.16	3.59
624.348	3.66
624.536	3.66
624.724	3.57
624.912	3.63
625.1	3.62
625.288	3.55
625.476	3.5
625.664	3.6
625.851	3.49
626.039	3.55
626.227	3.47
626.415	3.52
626.603	3.45
626.79	3.53
626.978	3.5
627.166	3.54
627.354	3.38
627.541	3.47
627.729	3.35
627.917	3.54
628.104	3.47
628.292	3.34
628.48	3.4
628.667	3.38
628.855	3.43
629.042	3.4
629.23	3.3
629.418	3.3
629.605	3.28
629.793	3.28
629.98	3.31
630.168	3.23
630.355	3.26
630.543	3.21
630.73	3.17
630.917	3.24
631.105	3.24
631.292	3.2
631.48	3.13
631.667	3.29
631.854	3.17
632.042	3.16
632.229	3.1
632.416	3.17
632.604	3.16
632.791	3.03
632.978	3.21
633.165	3.12
633.353	3.17
633.54	3.09
633.727	2.96
633.914	2.97
634.101	2.92
634.289	3.08
634.476	2.94
634.663	2.95
634.85	2.95
635.037	2.94
635.224	2.91
635.411	2.98
635.598	2.92
635.785	2.88
635.972	2.88
636.159	2.91
636.346	2.85
636.533	2.86
636.72	2.82
636.907	2.86
637.094	2.86
637.281	2.76
637.468	2.83
637.655	2.81
637.842	2.78
638.029	2.7
638.215	2.73
638.402	2.81
638.589	2.64
638.776	2.69
638.963	2.63
639.149	2.78
639.336	2.82
639.523	2.7
639.709	2.72
639.896	2.61
640.083	2.65
640.27	2.68
640.456	2.63
640.643	2.67
640.829	2.53
641.016	2.59
641.203	2.49
641.389	2.56
641.576	2.52
641.762	2.5
641.949	2.51
642.135	2.57
642.322	2.49
642.508	2.45
642.695	2.51
642.881	2.45
643.068	2.4
643.254	2.45
643.441	2.47
643.627	2.49
643.813	2.37
644	2.44
644.186	2.39
644.372	2.44
644.559	2.44
644.745	2.38
644.931	2.33
645.118	2.35
645.304	2.4
645.49	2.28
645.676	2.3
645.862	2.29
646.049	2.36
646.235	2.23
646.421	2.41
646.607	2.31
646.793	2.23
646.979	2.2
647.165	2.26
647.352	2.28
647.538	2.22
647.724	2.25
647.91	2.19
648.096	2.24
648.282	2.25
648.468	2.2
648.654	2.19
648.84	2.22
649.026	2.17
649.212	2.13
649.397	2.02
649.583	2.13
649.769	2.11
649.955	2.08
650.141	2.12
650.327	2.15
650.513	2.01
650.698	2.07
650.884	1.96
651.07	2.1
651.256	2.05
651.442	2.01
651.627	1.95
651.813	2.09
651.999	1.99
652.184	2.02
652.37	1.94
652.556	1.95
652.741	2
652.927	1.85
653.113	1.91
653.298	1.92
653.484	1.96
653.669	1.87
653.855	1.84
654.04	1.95
654.226	1.93
654.412	1.84
654.597	1.78
654.782	1.91
654.968	1.89
655.153	1.87
655.339	1.8
655.524	1.79
655.71	1.82
655.895	1.79
656.08	1.8
656.266	1.85
656.451	1.8
656.636	1.74
656.822	1.78
657.007	1.77
657.192	1.77
657.378	1.68
657.563	1.7
657.748	1.79
657.933	1.73
658.118	1.64
658.304	1.72
658.489	1.8
658.674	1.68
658.859	1.65
659.044	1.66
659.229	1.71
659.414	1.67
659.599	1.65
659.785	1.6
659.97	1.64
660.155	1.69
660.34	1.69
660.525	1.6
660.71	1.58
660.895	1.61
661.08	1.62
661.264	1.54
661.449	1.61
661.634	1.64
661.819	1.63
662.004	1.58
662.189	1.51
662.374	1.53
662.559	1.51
662.743	1.46
662.928	1.54
663.113	1.5
663.298	1.44
663.483	1.44
663.667	1.53
663.852	1.44
664.037	1.52
664.221	1.44
664.406	1.56
664.591	1.55
664.775	1.5
664.96	1.4
665.145	1.42
665.329	1.44
665.514	1.41
665.698	1.42
665.883	1.35
666.068	1.43
666.252	1.36
666.437	1.33
666.621	1.4
666.806	1.45
666.99	1.38
667.174	1.3
667.359	1.44
667.543	1.35
667.728	1.37
667.912	1.29
668.096	1.34
668.281	1.32
668.465	1.38
668.649	1.31
668.834	1.26
669.018	1.33
669.202	1.29
669.387	1.22
669.571	1.32
669.755	1.23
669.939	1.28
670.124	1.25
670.308	1.31
670.492	1.27
670.676	1.27
670.86	1.25
671.044	1.21
671.228	1.25
671.413	1.18
671.597	1.18
671.781	1.18
671.965	1.2
672.149	1.21
672.333	1.21
672.517	1.14
672.701	1.21
672.885	1.13
673.069	1.12
673.253	1.27
673.437	1.19
673.621	1.12
673.804	1.17
673.988	1.19
674.172	1.15
674.356	1.04
674.54	1.11
674.724	1.23
674.908	1.1
675.091	1.19
675.275	1.1
675.459	1.16
675.643	1.1
675.826	1.16
676.01	1.07
676.194	1.17
676.377	1.14
676.561	1.11
676.745	1.13
676.928	1.07
677.112	1.13
677.296	1.08
677.479	1.02
677.663	1
677.846	1.09
678.03	1.05
678.213	1.04
678.397	1.08
678.58	1.05
678.764	1.07
678.947	1.03
679.131	0.98
679.314	1.03
679.498	1.04
679.681	1
679.865	1.08
680.048	0.97
680.231	0.98
680.415	1
680.598	1.03
680.781	0.94
680.965	0.95
681.148	0.98
681.331	0.95
681.514	0.96
681.698	0.96
681.881	0.97
682.064	0.97
682.247	0.96
682.43	0.89
682.614	0.97
682.797	1.01
682.98	0.99
683.163	0.84
683.346	0.9
683.529	0.91
683.712	0.87
683.895	0.96
684.078	0.85
684.261	0.89
684.444	0.94
684.627	0.94
684.81	0.84
684.993	0.87
685.176	0.94
685.359	0.85
685.542	0.81
685.725	0.94
685.908	0.85
686.091	0.83
686.274	0.92
686.457	0.88
686.639	0.89
686.822	0.89
687.005	0.84
687.188	0.83
687.371	0.95
687.553	0.89
687.736	0.85
687.919	0.95
688.102	0.9
688.284	0.82
688.467	0.81
688.65	0.8
688.832	0.81
689.015	0.82
689.197	0.7
689.38	0.86
689.563	0.87
689.745	0.68
689.928	0.72
690.11	0.78
690.293	0.8
690.475	0.67
690.658	0.8
690.84	0.73
691.023	0.7
691.205	0.71
691.388	0.77
691.57	0.83
691.752	0.8
691.935	0.59
692.117	0.72
692.3	0.77
692.482	0.7
692.664	0.72
692.847	0.73
693.029	0.81
693.211	0.76
693.393	0.71
693.576	0.66
693.758	0.73
693.94	0.68
694.122	0.68
694.304	0.68
694.487	0.69
694.669	0.76
694.851	0.59
695.033	0.67
695.215	0.65
695.397	0.66
695.579	0.67
695.761	0.65
695.943	0.57
696.125	0.76
696.308	0.69
696.49	0.51
696.671	0.78
696.853	0.7
697.035	0.88
697.217	0.71
697.399	0.78
697.581	0.58
697.763	0.68
697.945	0.58
698.127	0.65
698.309	0.68
698.491	0.63
698.672	0.7
698.854	0.69
699.036	0.69
699.218	0.6
699.399	0.64
699.581	0.68
699.763	0.62
699.945	0.54
700.126	0.54
700.308	0.6
700.49	0.63
700.671	0.56
700.853	0.56
701.035	0.54
701.216	0.64
701.398	0.54
701.579	0.53
701.761	0.68
701.943	0.57
702.124	0.57
702.306	0.54
702.487	0.73
702.669	0.62
702.85	0.47
703.031	0.54
703.213	0.74
703.394	0.64
703.576	0.53
703.757	0.71
703.938	0.6
704.12	0.77
704.301	0.61
704.483	0.6
704.664	0.6
704.845	0.65
705.026	0.64
705.208	0.58
705.389	0.58
705.57	0.58
705.751	0.54
705.933	0.54
706.114	0.67
706.295	0.57
706.476	0.48
706.657	0.63
706.838	0.61
707.02	0.65
707.201	0.53
707.382	0.54
707.563	0.6
707.744	0.51
707.925	0.55
708.106	0.41
708.287	0.57
708.468	0.62
708.649	0.48
708.83	0.63
709.011	0.46
709.192	0.56
709.373	0.41
709.554	0.51
709.734	0.54
709.915	0.55
710.096	0.46
710.277	0.42
710.458	0.52
710.639	0.53
710.819	0.39
711	0.47
711.181	0.59
711.362	0.56
711.542	0.49
711.723	0.46
711.904	0.54
712.085	0.58
712.265	0.54
712.446	0.37
712.627	0.46
712.807	0.49
712.988	0.47
713.168	0.33
713.349	0.48
713.53	0.31
713.71	0.35
713.891	0.39
714.071	0.42
714.252	0.5
714.432	0.47
714.613	0.33
714.793	0.36
714.974	0.52
715.154	0.56
715.334	0.47
715.515	0.55
715.695	0.39
715.876	0.4
716.056	0.42
716.236	0.44
716.417	0.41
716.597	0.39
716.777	0.72
716.957	0.47
717.138	0.47
717.318	0.39
717.498	0.35
717.678	0.43
717.859	0.44
718.039	0.35
718.219	0.42
718.399	0.5
718.579	0.36
718.759	0.35
718.939	0.42
719.12	0.49
719.3	0.45
719.48	0.29
719.66	0.32
719.84	0.5
720.02	0.44
720.2	0.36
720.38	0.47
720.56	0.54
720.74	0.35
720.92	0.36
721.1	0.57
721.279	0.46
721.459	0.43
721.639	0.3
721.819	0.42
721.999	0.4
722.179	0.38
722.359	0.29
722.538	0.46
722.718	0.4
722.898	0.35
723.078	0.36
723.257	0.35
723.437	0.48
723.617	0.35
723.797	0.32
723.976	0.45
724.156	0.45
724.336	0.5
724.515	0.54
724.695	0.24
724.874	0.4
725.054	0.41
725.234	0.35
725.413	0.39
725.593	0.34
725.772	0.32
725.952	0.31
726.131	0.31
726.311	0.33
726.49	0.41
726.67	0.34
726.849	0.26
727.028	0.36
727.208	0.37
727.387	0.43
727.567	0.24
727.746	0.43
727.925	0.33
728.105	0.25
728.284	0.37
728.463	0.28
728.643	0.46
728.822	0.3
729.001	0.27
729.18	0.43
729.359	0.44
729.539	0.35
729.718	0.34
729.897	0.44
730.076	0.32
730.255	0.25
730.434	0.39
730.614	0.4
730.793	0.45
730.972	0.35
731.151	0.29
731.33	0.42
731.509	0.42
731.688	0.36
731.867	0.36
732.046	0.19
732.225	0.6
732.404	0.3
732.583	0.24
732.762	0.39
732.941	0.46
733.12	0.41
733.298	0.34
733.477	0.44
733.656	0.32
733.835	0.29
734.014	0.43
734.193	0.36
734.371	0.44
734.55	0.32
734.729	0.25
734.908	0.44
735.086	0.31
735.265	0.36
735.444	0.17
735.623	0.26
735.801	0.31
735.98	0.41
736.159	0.3
736.337	0.43
736.516	0.54
736.694	0.37
736.873	0.21
737.052	0.44
737.23	0.5
737.409	0.22
737.587	0.47
737.766	0.17
737.944	0.3
738.123	0.34
738.301	0.35
738.479	0.31
738.658	0.4
738.836	0.11
739.015	0.31
739.193	0.51
739.371	0.14
739.55	0.18
739.728	0.19
739.906	0.54
740.085	0.61
740.263	0.33
740.441	0.12
740.62	0.59
740.798	0.43
740.976	0.15
741.154	0.19
741.332	0.53
741.511	0.34
741.689	0.4
741.867	0.38
742.045	0.38
742.223	0.37
742.401	0.26
742.579	0.27
742.757	0.34
742.935	0.19
743.114	0.2
743.292	0.29
743.47	0.25
743.648	0.35
743.826	0.19
744.004	0.44
744.181	0.48
744.359	0.24
744.537	0.31
744.715	0.25
744.893	0.31
745.071	0.33
745.249	0.23
745.427	0.36
745.605	0.44
745.782	0.3
745.96	0.32
746.138	0.35
746.316	0.41
746.493	0.35
746.671	0.29
746.849	0.31
747.027	0.46
747.204	0.23
747.382	0.36
747.56	0.15
747.737	0.27
747.915	0.27
748.093	0.38
748.27	0.18
748.448	0.2
748.625	0.2
748.803	0.23
748.98	0.19
749.158	0.42
749.335	0.42
749.513	0.22
749.69	0.27
749.868	0.37
750.045	0.42
750.223	0.24
750.4	0.05
750.578	0.48
750.755	0.28
750.932	0.16
751.11	0.34
751.287	0.16
751.464	0.43
751.642	0.23
751.819	0.21
751.996	0.3
752.173	0.19
752.351	0.24
752.528	0.25
752.705	0.29
752.882	0.23
753.06	0.28
753.237	0.3
753.414	0.52
753.591	0.45
753.768	0.41
753.945	0.26
754.122	0.23
754.299	0.34
754.476	0.15
754.654	0.28
754.831	0.33
755.008	0.27
755.185	0.17
755.362	0.13
755.539	0.34
755.716	0.22
755.892	0.21
756.069	0.27
756.246	0.24
756.423	0.31
756.6	0.43
756.777	0.19
756.954	0.26
757.131	0.19
757.307	0.09
757.484	0.2
757.661	0.29
757.838	0.31
758.015	0.03
758.191	0.26
758.368	0.29
758.545	0.55
758.721	0.2
758.898	0.22
759.075	0.3
759.251	0.36
759.428	0.28
759.605	0.08
759.781	0.25
759.958	0.35
760.134	0.31
760.311	0.19
760.488	0.44
760.664	0.43
760.841	0.3
761.017	0.1
761.194	0.43
761.37	0.41
761.547	0.26
761.723	0.21
761.899	0.41
762.076	0.15
762.252	0.19
762.429	0.19
762.605	0.37
762.781	0.15
762.958	0.38
763.134	0.09
763.31	0.17
763.486	0.47
763.663	-0
763.839	0.33
764.015	0.04
764.191	0.16
764.368	0.14
764.544	0.17
764.72	0.25
764.896	0.24
765.072	0.23
765.248	0.2
765.425	0.18
765.601	0.23
765.777	0.31
765.953	-0
766.129	0.07
766.305	0.16
766.481	0.28
766.657	0.26
766.833	0.33
767.009	0.18
767.185	0.24
767.361	0.26
767.537	0.13
767.713	0.43
767.889	0.14
768.065	0.22
768.24	0.4
768.416	0.29
768.592	0.14
768.768	0.24
768.944	0.32
769.12	0.14
769.295	0.33
769.471	0.17
769.647	0.25
769.823	0.55
769.998	0.13
770.174	0.16
770.35	0.6
770.525	0.49
770.701	0.08
770.877	0.27
771.052	0.16
771.228	0.41
771.403	0.27
771.579	0.32
771.755	0.5
771.93	0.15
772.106	0.24
772.281	0
772.457	0.21
772.632	0.38
772.808	0.15
772.983	0.16
773.159	0.13
773.334	0.4
773.509	0.26
773.685	0.14
773.86	0.62
774.036	0.48
774.211	0.27
774.386	0.29
774.562	0.28
774.737	0.35
774.912	0.09
775.087	0.41
775.263	0.18
775.438	0.26
775.613	0.22
775.788	0.15
775.964	0.48
776.139	0.66
776.314	0.11
776.489	0.28
776.664	0.35
776.839	0.07
777.014	0.39
777.19	0.34
777.365	0.45
777.54	0.49
777.715	0.24
777.89	0.4
778.065	0.11
778.24	0.12
778.415	0.36
778.59	0.1
778.765	0.25
778.94	0.41
779.115	0.15
779.289	0.19
779.464	0.34
779.639	0.12
779.814	0.09
779.989	0.17
780.164	0.24
780.339	0.3
780.513	0.27
780.688	0.11
780.863	0.14
781.038	0.42
781.212	0.16
781.387	0.16
781.562	0.73
781.737	0.24
781.911	0.47
782.086	0.23
782.261	0.35
782.435	0.57
782.61	0.23
782.784	0.07
782.959	0.48
783.134	0.15
783.308	-0.12
783.483	0.03
783.657	0.57
783.832	0.51
784.006	-0.02
784.181	0.35
784.355	0.57
784.53	-0.01
784.704	0.03
784.878	0.53
785.053	0.25
785.227	0.55
785.402	0.65
785.576	0.02
785.75	0.43
785.925	0.12
786.099	0.45
786.273	0.42
786.448	0.38
786.622	0.42
786.796	0.25
786.97	0.28
787.145	0.85
787.319	0.04
787.493	0.16
787.667	-0.07
787.841	0.27
788.015	0.54
788.19	0.06
788.364	0.2
788.538	0.54
788.712	0.43
788.886	0.14
789.06	0.45
789.234	0.6
789.408	-0.19
789.582	0.11
789.756	0.15
789.93	-0.05
790.104	0.17
790.278	-0.01
790.452	0.22
790.626	0.54
790.8	-0.01
790.973	0.42
791.147	0.5
791.321	0.45
791.495	0.82
791.669	0.21
791.843	0.42
792.016	0.45
792.19	0.72
792.364	0
792.538	1
792.711	0.76
792.885	0.16
793.059	-0.11
793.233	-0.26
793.406	0.47
793.58	0.29
793.754	0.49
793.927	0.4
794.101	0.39
794.274	0.18
794.448	0.75
794.622	0.01
794.795	0.64
794.969	0.14
795.142	0.71
795.316	0.16
795.489	0.25
795.663	0.67
795.836	0.45
796.009	0.13
796.183	0.89
796.356	0.58
796.53	0.2
796.703	0.26
796.876	0.84
797.05	0.2
797.223	0.3
797.396	0.51
797.57	0.42
797.743	0.62
797.916	0.35
798.09	0.37
798.263	0.56
798.436	0.42
798.609	0.29
798.782	0.05
798.956	0.49
799.129	0.4
799.302	0.09
799.475	0.13
799.648	0.13
799.821	0.06
799.994	0.44
800.167	-0.1
800.34	0.22
800.514	0.35
800.687	-0.02
800.86	0.14
801.033	0.38
801.206	0.59
801.379	-0.06
801.551	0.49
801.724	0.54
801.897	0.82
802.07	0.16
802.243	-0.32
802.416	0.13
802.589	-0.16
802.762	0.63
802.935	0.29
803.107	0.39
803.28	0.66
803.453	0.82
803.626	0.17
803.798	0.36
803.971	0.2
804.144	0.94
804.317	0.44
804.489	0.95
804.662	0.1
804.835	0.35
805.007	0.1
805.18	0.75
805.353	0.57
805.525	0.03
805.698	0.13
805.87	0.53
806.043	0.7
806.215	0.02
806.388	-0.02
806.56	0.35
806.733	0.7
806.905	0.39
807.078	0.17
807.25	0.27
807.423	1.09
807.595	0.46
807.768	0.51
807.94	0.64
808.112	0.78
808.285	0.59
808.457	0.09
808.629	0.3
808.802	0.61
808.974	0.31
809.146	0.2
809.318	-0.1
809.491	0.6
809.663	0.45
809.835	0.17
810.007	0.58
810.18	0.26
810.352	-0.35
810.524	0.32
810.696	0.7
810.868	0.59
811.04	-0.02
811.212	-0.09
811.384	0.76
811.556	0.15
811.728	0.38
811.901	1.54
812.073	0.11
812.245	0.7
812.417	0.27
812.589	-0.14
812.76	0.54
812.932	0.53
813.104	0.91
813.276	0.15
813.448	0.63
813.62	0.25
813.792	0.57
813.964	0.24
814.136	0.71
814.307	0.17
814.479	0.34
814.651	0.32
814.823	1.03
814.995	0.62
815.166	0.52
815.338	0.24
815.51	0.08
815.681	1.64
815.853	0.33
816.025	0.41
816.196	1.16
816.368	0.66
816.54	-0.26
816.711	0.17
816.883	0.76
817.054	0.93
817.226	-0.02
817.398	0.37
817.569	0.56
817.741	0.56
817.912	0.27
818.084	0.13
818.255	1.01
818.426	0.24
818.598	0.09
818.769	-0.28
818.941	0.97
819.112	1
819.283	0.33
819.455	0.07
819.626	0.5
819.798	0.59
819.969	0.49
820.14	0.05
820.311	0.23
820.483	0.68
820.654	0.59
820.825	0.07
820.996	0.47
821.168	0.03
821.339	-0.02
821.51	-0.4
821.681	0.73
821.852	0.56
822.023	-0.17
822.195	0.27
822.366	0.63
822.537	0.56
822.708	0.31
822.879	0.19
823.05	1.25
823.221	0.35
823.392	0.78
823.563	0.43
823.734	0.51
823.905	0.35
824.076	-0.14
824.247	0.42
824.418	0.23
824.589	0.84
824.759	0.57
824.93	0.51
825.101	0.03
825.272	1.15
825.443	1.38
825.614	0.56
825.784	-0.36
825.955	1.77
826.126	1.01
826.297	0.12
826.467	0.97
826.638	1.82
826.809	-0.31
826.98	0.21
827.15	0.95
827.321	0.25
827.492	1.06
827.662	0.52
827.833	1.52
828.003	0.87
828.174	0.45
828.345	-0.35
828.515	1.06
828.686	0.81
828.856	0.19
829.027	0.27
829.197	0.86
829.368	0.64
829.538	-0.17
829.709	-0.15
829.879	0.76
830.049	0.09
830.22	0.26
830.39	0.5
830.56	1.63
830.731	0.13
830.901	0.37
831.072	0.22
831.242	0.77
831.412	0.86
831.582	0.46
831.753	-0.17
831.923	1.56
832.093	0.93
832.263	0.39
832.434	-0.08
832.604	0.84
832.774	1.15
832.944	0.46
833.114	0.33
833.284	0.51
833.454	-0.07
833.624	0.01
833.795	0.5
833.965	1.2
834.135	1.64
834.305	-0.25
834.475	-0.04
834.645	0.6
834.815	0.39
834.985	0.18
835.155	-0.25
835.325	0.63
835.494	0.45
835.664	0.55
835.834	0.13
836.004	0.62
836.174	1.03
836.344	0.46
836.514	-0.57
836.684	0.13
836.853	0.76
837.023	0.74
837.193	-0.47
837.363	1.42
837.532	1.53
837.702	-0.04
837.872	-0.11
838.041	0.67
838.211	2.19
838.381	-0.17
838.55	0.34
838.72	2.74
838.89	2.09
839.059	0.38
839.229	-0.17
839.398	2.35
839.568	0.6
839.738	-0.44
839.907	1.69
840.077	0.89
840.246	0.08
840.416	-0.19
840.585	-0.62
840.755	1.77
840.924	1.85
841.093	0.3
841.263	-0.25
841.432	1.24
841.602	-0.58
841.771	0.14
841.94	0.42
842.11	2.72
842.279	2.1
842.448	0.57
842.617	-0.62
842.787	2.1
842.956	-1.45
843.125	1.28
843.294	0.93
843.464	1.53
843.633	0.68
843.802	-0.62
843.971	0.17
844.14	1.35
844.309	1.45
844.479	-0.97
844.648	-0.47
844.817	0.41
844.986	0.66
845.155	0.27
845.324	0.02
845.493	1.09
845.662	-0.07
845.831	1.55
846	0.52
846.169	0.62
846.338	1.78
846.507	1.09
846.676	0.98
846.844	0.63
847.013	1.13
847.182	-0.06
847.351	0.41
847.52	1.75
847.689	1.41
847.858	0.36
848.026	0.55
848.195	0.86
848.364	0.49
848.533	-0.2
848.701	0.16
848.87	0.87
849.039	1.31
849.207	2.03
849.376	1.66
849.545	2.55
849.713	0.71
849.882	-0.1
850.051	1.31
850.219	1.17
850.388	1.35
850.556	0.15
850.725	0.11
850.893	0.58
851.062	0.42
851.23	1.12
851.399	-0.61
851.567	0.73
851.736	1.4
851.904	0.54
852.073	0.09
852.241	1.07
852.41	0.85
852.578	0.52
852.746	0.41
852.915	1.84
853.083	1.39
853.251	-0.72
853.42	0.39
853.588	0.21
853.756	2.57
853.924	0.08
854.093	1.54
854.261	-0.02
854.429	-1.49
854.597	1.8
854.765	-0.72
854.934	0.72
855.102	1.6
855.27	1.04
855.438	1.37
855.606	1.91
855.774	3.27
855.942	-1.39
856.11	-1.43
856.278	0.79
856.446	1.56
856.614	1.74
856.782	0.96
856.95	1.35
857.118	1.48
857.286	1.91
857.454	0.62
857.622	2.39
857.79	1.24
857.958	-0.4
858.126	0.3
858.294	-1.26
858.462	0.48
858.629	-0.16
858.797	-0.14
858.965	1.18
859.133	0.89
859.301	0.48
859.468	1.18
859.636	1.2
859.804	2.67
859.971	0.97
860.139	-0.54
860.307	2.57
860.474	0.5
860.642	0.22
860.81	-1.63
860.977	-0.09
861.145	2.17
861.313	0.85
861.48	0.42
861.648	2.93
861.815	1.16
861.983	-1.12
862.15	0.7
862.318	1.28
862.485	2.62
862.653	-0.27
862.82	-0.55
862.988	3.12
863.155	0.83
863.322	0.24
863.49	1.03
863.657	0.34
863.824	2.31
863.992	1.92
864.159	-0.18
864.326	1.91
864.494	-0.97
864.661	2.87
864.828	0.35
864.996	1.74
865.163	1.17
865.33	0.33
865.497	-1.72
865.664	-0.43
865.832	-0.8
865.999	0.97
866.166	-0.33
866.333	0.15
866.5	0.66
866.667	-0.11
866.834	1.54
867.001	4.36
867.168	-0.94
867.335	0.25
867.502	-0.89
867.669	1.29
867.836	4.36
868.003	0.27
868.17	2.37
868.337	3.54
868.504	3.84
868.671	-1.27
868.838	-0.47
869.005	1.67
869.172	1.5
869.339	1.68
869.505	2.43
869.672	1.39
869.839	4.94
870.006	0.49
870.173	-1.2
870.339	1.59
870.506	4.78
870.673	-1.99
870.84	2.08
871.006	1.68
871.173	1.31
871.34	1.21
871.506	-1.36
871.673	1.62
871.839	-0.29
872.006	0.47
872.173	1.13
872.339	0.28
872.506	1.62
872.672	0.98
872.839	-1.63
873.005	0.87
873.172	4.23
873.338	1.4
873.505	1.46
873.671	1.3
873.838	2.58
874.004	-1.48
874.171	0.55
874.337	1.44
874.503	2.15
874.67	0.26
874.836	0.9
875.002	3.39
875.169	4.36
875.335	0.87
875.501	0.25
875.668	3.87
875.834	1.44
876	-0.59
876.166	1.81
876.332	2.69
876.499	5.94
876.665	-0.11
876.831	1.84
876.997	3.84
877.163	2.77
877.329	-0.68
877.495	2.34
877.662	2.12
877.828	0.6
877.994	-0.04
878.16	-1.11
878.326	2.35
878.492	2.33
878.658	-0.17
878.824	1.49
878.99	2.68
879.156	-0.34
879.322	4.46
879.487	2.04
879.653	1.25
879.819	2.33
879.985	0.17
880.151	0.26
880.317	1.96
880.483	1.55
880.648	1.29
880.814	-1.25
880.98	2.1
881.146	-1.91
881.312	-1.11
881.477	-0.71
881.643	1.17
881.809	3.99
881.974	3.27
882.14	-0.6
882.306	1.34
882.471	6.01
882.637	-0.11
882.803	1.33
882.968	3.38
883.134	5.18
883.299	1.51
883.465	0.71
883.63	2.35
883.796	2.81
883.961	1.88
884.127	3.39
884.292	-3.69
884.458	-0.15
884.623	-0.15
