Data from Apollo_Calib_20240827__AbsoluteIrradiance__752__11-41-02-247.txt Node

Date: Wed Aug 28 11:41:02 BST 2024
User: biology
Spectrometer: FLMT08252
Trigger mode: 0
Integration Time (sec): 5.000000E-1
Scans to average: 5
Electric dark correction enabled: true
Nonlinearity correction enabled: false
Boxcar width: 0
XAxis mode: Wavelengths
Number of Pixels in Spectrum: 3648
>>>>>Begin Spectral Data<<<<<
179.588	-0
179.809	-0
180.03	-0
180.251	-0
180.473	-0
180.694	0
180.915	0
181.136	-0
181.357	0
181.578	-0
181.799	-0
182.02	-0
182.241	-0
182.462	-0
182.683	0
182.904	-0
183.125	0
183.346	0
183.567	0
183.788	0
184.009	0
184.23	0
184.451	0
184.672	0
184.892	0
185.113	0
185.334	0
185.555	0
185.776	0
185.996	0
186.217	0
186.438	0
186.659	0
186.879	0
187.1	0
187.321	0
187.541	0
187.762	0
187.983	0
188.203	0
188.424	0
188.644	0
188.865	0
189.086	0
189.306	0
189.527	0
189.747	0
189.968	0
190.188	0
190.409	0
190.629	0
190.849	0
191.07	0
191.29	0
191.511	0
191.731	0
191.951	0
192.172	0
192.392	0
192.612	0
192.833	0
193.053	0
193.273	0
193.493	0
193.714	0
193.934	0
194.154	0
194.374	0
194.594	0
194.815	0
195.035	0
195.255	0
195.475	0
195.695	0
195.915	0
196.135	0
196.355	0
196.575	0
196.795	0
197.015	0
197.235	0
197.455	0
197.675	0
197.895	0
198.115	0
198.335	0
198.555	0
198.775	0
198.995	0
199.214	0
199.434	0
199.654	0
199.874	0
200.094	3.89
200.313	2.07
200.533	1.21
200.753	1.52
200.973	3
201.192	2.57
201.412	1.19
201.632	2.09
201.851	3.01
202.071	1.62
202.291	1.44
202.51	0.59
202.73	2.41
202.95	1.01
203.169	0.83
203.389	1.36
203.608	1.14
203.828	1.35
204.047	1.05
204.267	1.9
204.486	1.9
204.706	1.61
204.925	1.27
205.145	1.06
205.364	2.04
205.583	2.08
205.803	1.16
206.022	0.72
206.242	1.41
206.461	1.36
206.68	1.15
206.9	1.47
207.119	1.97
207.338	1.94
207.557	0.75
207.777	0.61
207.996	1.27
208.215	1.72
208.434	0.95
208.654	0.88
208.873	1.28
209.092	1.87
209.311	1.05
209.53	1.06
209.749	0.87
209.968	0.48
210.187	0.63
210.407	0.46
210.626	0.88
210.845	1.3
211.064	1.07
211.283	0.64
211.502	1.31
211.721	1
211.94	0.64
212.159	1.13
212.377	1.15
212.596	1.36
212.815	0.98
213.034	0.89
213.253	0.8
213.472	0.86
213.691	0.76
213.91	0.41
214.128	0.71
214.347	1.17
214.566	0.37
214.785	0.47
215.003	0.86
215.222	1.04
215.441	0.73
215.66	0.53
215.878	0.69
216.097	1.11
216.316	0.41
216.534	0.66
216.753	0.91
216.972	0.7
217.19	0.44
217.409	0.65
217.627	0.54
217.846	0.74
218.064	0.4
218.283	0.45
218.501	1.19
218.72	0.93
218.938	0.57
219.157	0.5
219.375	0.84
219.594	0.77
219.812	0.48
220.031	0.33
220.249	0.94
220.467	0.77
220.686	0.59
220.904	0.32
221.122	0.46
221.341	0.92
221.559	0.65
221.777	0.44
221.995	0.68
222.214	0.8
222.432	0.33
222.65	0.73
222.868	0.59
223.086	0.58
223.305	0.71
223.523	0.6
223.741	0.88
223.959	0.56
224.177	0.31
224.395	0.43
224.613	0.68
224.831	0.84
225.049	0.31
225.267	0.34
225.485	0.62
225.703	0.61
225.921	0.42
226.139	0.36
226.357	0.77
226.575	0.57
226.793	0.44
227.011	1.22
227.229	0.52
227.447	0.71
227.665	0.42
227.883	0.19
228.1	0.52
228.318	0.62
228.536	0.26
228.754	0.26
228.972	0.57
229.189	0.75
229.407	0.45
229.625	0.42
229.843	0.66
230.06	0.64
230.278	0.42
230.496	0.52
230.713	0.49
230.931	0.67
231.149	0.37
231.366	0.31
231.584	0.36
231.801	0.94
232.019	0.41
232.236	0.33
232.454	0.19
232.671	0.48
232.889	0.46
233.106	0.35
233.324	0.44
233.541	0.4
233.759	0.35
233.976	0.33
234.194	0.42
234.411	0.45
234.628	0.33
234.846	0.42
235.063	0.38
235.28	0.38
235.498	0.41
235.715	0.27
235.932	0.57
236.149	0.43
236.367	0.38
236.584	0.44
236.801	0.37
237.018	0.52
237.236	0.43
237.453	0.23
237.67	0.51
237.887	0.36
238.104	0.41
238.321	0.27
238.538	0.25
238.755	0.62
238.973	0.09
239.19	0.46
239.407	0.43
239.624	0.53
239.841	0.33
240.058	0.27
240.275	0.52
240.492	0.41
240.709	0.35
240.925	0.34
241.142	0.41
241.359	0.21
241.576	0.22
241.793	0.33
242.01	0.33
242.227	0.58
242.444	0.5
242.66	0.52
242.877	0.36
243.094	0.24
243.311	0.49
243.527	0.34
243.744	0.35
243.961	0.37
244.178	0.32
244.394	0.36
244.611	0.49
244.828	0.61
245.044	0.25
245.261	0.37
245.477	0.39
245.694	0.37
245.911	0.34
246.127	0.34
246.344	0.5
246.56	0.4
246.777	0.27
246.993	0.33
247.21	0.41
247.426	0.42
247.643	0.28
247.859	0.21
248.076	0.24
248.292	0.52
248.508	0.3
248.725	0.41
248.941	0.38
249.157	0.48
249.374	0.26
249.59	0.28
249.806	0.34
250.023	0.46
250.239	0.24
250.455	0.22
250.671	0.36
250.888	0.43
251.104	0.42
251.32	0.3
251.536	0.39
251.752	0.28
251.969	0.32
252.185	0.3
252.401	0.52
252.617	0.36
252.833	0.29
253.049	0.23
253.265	0.38
253.481	0.31
253.697	0.23
253.913	0.23
254.129	0.38
254.345	0.36
254.561	0.27
254.777	0.27
254.993	0.41
255.209	0.29
255.425	0.27
255.641	0.26
255.857	0.42
256.073	0.39
256.288	0.18
256.504	0.25
256.72	0.27
256.936	0.42
257.152	0.25
257.367	0.23
257.583	0.33
257.799	0.37
258.015	0.24
258.23	0.27
258.446	0.53
258.662	0.28
258.877	0.25
259.093	0.21
259.309	0.29
259.524	0.37
259.74	0.3
259.955	0.22
260.171	0.35
260.387	0.34
260.602	0.39
260.818	0.32
261.033	0.22
261.249	0.26
261.464	0.23
261.68	0.25
261.895	0.34
262.11	0.39
262.326	0.22
262.541	0.2
262.757	0.35
262.972	0.37
263.187	0.29
263.403	0.32
263.618	0.29
263.833	0.34
264.049	0.21
264.264	0.25
264.479	0.23
264.694	0.5
264.91	0.2
265.125	0.35
265.34	0.39
265.555	0.47
265.77	0.31
265.986	0.25
266.201	0.29
266.416	0.42
266.631	0.22
266.846	0.27
267.061	0.36
267.276	0.3
267.491	0.13
267.706	0.37
267.921	0.36
268.136	0.32
268.351	0.22
268.566	0.15
268.781	0.36
268.996	0.3
269.211	0.29
269.426	0.18
269.641	0.24
269.856	0.31
270.071	0.2
270.285	0.14
270.5	0.35
270.715	0.3
270.93	0.25
271.145	0.28
271.359	0.37
271.574	0.28
271.789	0.26
272.004	0.19
272.218	0.22
272.433	0.26
272.648	0.21
272.862	0.29
273.077	0.26
273.292	0.23
273.506	0.17
273.721	0.25
273.936	0.28
274.15	0.3
274.365	0.21
274.579	0.3
274.794	0.32
275.008	0.36
275.223	0.19
275.437	0.24
275.652	0.36
275.866	0.35
276.081	0.26
276.295	0.3
276.509	0.26
276.724	0.26
276.938	0.27
277.153	0.29
277.367	0.29
277.581	0.25
277.796	0.18
278.01	0.21
278.224	0.33
278.438	0.38
278.653	0.21
278.867	0.2
279.081	0.28
279.295	0.19
279.51	0.3
279.724	0.17
279.938	0.32
280.152	0.27
280.366	0.15
280.58	0.19
280.794	0.38
281.008	0.35
281.222	0.29
281.437	0.4
281.651	0.29
281.865	0.25
282.079	0.18
282.293	0.14
282.507	0.17
282.721	0.25
282.935	0.21
283.148	0.11
283.362	0.22
283.576	0.16
283.79	0.19
284.004	0.17
284.218	0.31
284.432	0.23
284.646	0.23
284.859	0.23
285.073	0.23
285.287	0.23
285.501	0.23
285.714	0.16
285.928	0.26
286.142	0.26
286.356	0.16
286.569	0.22
286.783	0.34
286.997	0.26
287.21	0.24
287.424	0.22
287.637	0.19
287.851	0.22
288.065	0.27
288.278	0.19
288.492	0.21
288.705	0.22
288.919	0.21
289.132	0.18
289.346	0.35
289.559	0.1
289.773	0.19
289.986	0.23
290.2	0.21
290.413	0.31
290.626	0.22
290.84	0.2
291.053	0.23
291.267	0.29
291.48	0.25
291.693	0.19
291.906	0.19
292.12	0.23
292.333	0.17
292.546	0.26
292.76	0.27
292.973	0.23
293.186	0.24
293.399	0.17
293.612	0.34
293.826	0.24
294.039	0.19
294.252	0.23
294.465	0.3
294.678	0.28
294.891	0.2
295.104	0.16
295.317	0.19
295.53	0.23
295.743	0.25
295.956	0.18
296.169	0.31
296.382	0.29
296.595	0.22
296.808	0.2
297.021	0.28
297.234	0.27
297.447	0.25
297.66	0.2
297.873	0.27
298.086	0.25
298.299	0.14
298.511	0.17
298.724	0.18
298.937	0.19
299.15	0.15
299.363	0.19
299.575	0.23
299.788	0.23
300.001	0.13
300.213	0.21
300.426	0.17
300.639	0.19
300.852	0.18
301.064	0.25
301.277	0.28
301.489	0.26
301.702	0.25
301.915	0.22
302.127	0.23
302.34	0.21
302.552	0.24
302.765	0.18
302.977	0.23
303.19	0.17
303.402	0.17
303.615	0.15
303.827	0.18
304.04	0.2
304.252	0.24
304.464	0.22
304.677	0.33
304.889	0.25
305.102	0.19
305.314	0.15
305.526	0.28
305.739	0.25
305.951	0.18
306.163	0.19
306.375	0.29
306.588	0.17
306.8	0.19
307.012	0.17
307.224	0.21
307.436	0.31
307.649	0.11
307.861	0.18
308.073	0.23
308.285	0.18
308.497	0.15
308.709	0.17
308.921	0.18
309.133	0.28
309.346	0.2
309.558	0.17
309.77	0.24
309.982	0.28
310.194	0.22
310.406	0.22
310.617	0.27
310.829	0.19
311.041	0.23
311.253	0.12
311.465	0.21
311.677	0.23
311.889	0.21
312.101	0.17
312.313	0.25
312.524	0.3
312.736	0.13
312.948	0.14
313.16	0.31
313.372	0.27
313.583	0.26
313.795	0.16
314.007	0.19
314.218	0.26
314.43	0.2
314.642	0.19
314.853	0.15
315.065	0.25
315.277	0.21
315.488	0.22
315.7	0.22
315.912	0.23
316.123	0.21
316.335	0.18
316.546	0.32
316.758	0.17
316.969	0.19
317.181	0.18
317.392	0.22
317.604	0.26
317.815	0.17
318.026	0.15
318.238	0.17
318.449	0.24
318.661	0.12
318.872	0.16
319.083	0.16
319.295	0.23
319.506	0.2
319.717	0.22
319.929	0.24
320.14	0.23
320.351	0.22
320.562	0.15
320.774	0.23
320.985	0.17
321.196	0.15
321.407	0.12
321.618	0.21
321.829	0.23
322.041	0.25
322.252	0.21
322.463	0.23
322.674	0.26
322.885	0.19
323.096	0.18
323.307	0.22
323.518	0.23
323.729	0.16
323.94	0.16
324.151	0.18
324.362	0.25
324.573	0.25
324.784	0.19
324.995	0.22
325.206	0.23
325.417	0.18
325.628	0.17
325.838	0.23
326.049	0.21
326.26	0.23
326.471	0.18
326.682	0.23
326.892	0.25
327.103	0.12
327.314	0.18
327.525	0.27
327.735	0.27
327.946	0.2
328.157	0.16
328.368	0.32
328.578	0.16
328.789	0.24
328.999	0.2
329.21	0.18
329.421	0.26
329.631	0.15
329.842	0.16
330.052	0.24
330.263	0.21
330.473	0.25
330.684	0.15
330.894	0.24
331.105	0.22
331.315	0.2
331.526	0.16
331.736	0.28
331.947	0.22
332.157	0.25
332.367	0.16
332.578	0.24
332.788	0.27
332.999	0.24
333.209	0.21
333.419	0.16
333.629	0.21
333.84	0.26
334.05	0.17
334.26	0.27
334.47	0.24
334.681	0.26
334.891	0.16
335.101	0.22
335.311	0.29
335.521	0.15
335.732	0.18
335.942	0.25
336.152	0.25
336.362	0.22
336.572	0.16
336.782	0.24
336.992	0.2
337.202	0.18
337.412	0.2
337.622	0.23
337.832	0.21
338.042	0.19
338.252	0.16
338.462	0.19
338.672	0.23
338.882	0.19
339.092	0.23
339.302	0.24
339.511	0.22
339.721	0.16
339.931	0.14
340.141	0.24
340.351	0.27
340.561	0.22
340.77	0.21
340.98	0.23
341.19	0.21
341.4	0.16
341.609	0.14
341.819	0.19
342.029	0.17
342.238	0.22
342.448	0.13
342.658	0.24
342.867	0.23
343.077	0.2
343.286	0.19
343.496	0.25
343.706	0.25
343.915	0.12
344.125	0.18
344.334	0.26
344.544	0.16
344.753	0.15
344.963	0.2
345.172	0.2
345.381	0.17
345.591	0.14
345.8	0.2
346.01	0.28
346.219	0.22
346.428	0.11
346.638	0.18
346.847	0.16
347.056	0.22
347.266	0.17
347.475	0.16
347.684	0.22
347.893	0.25
348.103	0.24
348.312	0.2
348.521	0.17
348.73	0.2
348.94	0.25
349.149	0.15
349.358	0.16
349.567	0.15
349.776	0.16
349.985	0.15
350.194	0.25
350.403	0.23
350.612	0.15
350.821	0.16
351.03	0.2
351.239	0.15
351.448	0.2
351.657	0.16
351.866	0.28
352.075	0.17
352.284	0.15
352.493	0.16
352.702	0.25
352.911	0.25
353.12	0.15
353.329	0.17
353.538	0.25
353.746	0.16
353.955	0.16
354.164	0.2
354.373	0.2
354.582	0.22
354.79	0.22
354.999	0.21
355.208	0.18
355.416	0.3
355.625	0.15
355.834	0.16
356.042	0.19
356.251	0.14
356.46	0.18
356.668	0.26
356.877	0.26
357.085	0.24
357.294	0.1
357.503	0.21
357.711	0.2
357.92	0.33
358.128	0.18
358.337	0.17
358.545	0.21
358.754	0.17
358.962	0.23
359.17	0.16
359.379	0.21
359.587	0.23
359.796	0.2
360.004	0.24
360.212	0.21
360.421	0.24
360.629	0.18
360.837	0.17
361.046	0.2
361.254	0.31
361.462	0.22
361.67	0.2
361.879	0.22
362.087	0.27
362.295	0.23
362.503	0.17
362.711	0.17
362.92	0.18
363.128	0.16
363.336	0.16
363.544	0.15
363.752	0.2
363.96	0.19
364.168	0.16
364.376	0.18
364.584	0.2
364.792	0.24
365	0.21
365.208	0.21
365.416	0.26
365.624	0.26
365.832	0.16
366.04	0.26
366.248	0.24
366.456	0.22
366.664	0.19
366.872	0.19
367.079	0.23
367.287	0.19
367.495	0.24
367.703	0.12
367.911	0.18
368.118	0.18
368.326	0.18
368.534	0.15
368.742	0.26
368.949	0.12
369.157	0.16
369.365	0.2
369.572	0.18
369.78	0.12
369.988	0.23
370.195	0.22
370.403	0.24
370.61	0.16
370.818	0.2
371.026	0.26
371.233	0.16
371.441	0.2
371.648	0.17
371.856	0.22
372.063	0.19
372.271	0.17
372.478	0.19
372.685	0.19
372.893	0.26
373.1	0.14
373.308	0.18
373.515	0.27
373.722	0.24
373.93	0.2
374.137	0.21
374.344	0.29
374.552	0.26
374.759	0.21
374.966	0.26
375.173	0.18
375.381	0.27
375.588	0.18
375.795	0.17
376.002	0.21
376.209	0.15
376.417	0.21
376.624	0.2
376.831	0.3
377.038	0.2
377.245	0.13
377.452	0.18
377.659	0.22
377.866	0.2
378.073	0.21
378.28	0.22
378.487	0.25
378.694	0.26
378.901	0.18
379.108	0.19
379.315	0.27
379.522	0.28
379.729	0.2
379.936	0.2
380.143	0.18
380.35	0.25
380.557	0.21
380.763	0.21
380.97	0.19
381.177	0.26
381.384	0.22
381.591	0.2
381.797	0.26
382.004	0.25
382.211	0.27
382.418	0.17
382.624	0.22
382.831	0.24
383.038	0.17
383.244	0.23
383.451	0.22
383.658	0.22
383.864	0.21
384.071	0.18
384.277	0.24
384.484	0.2
384.69	0.26
384.897	0.19
385.103	0.2
385.31	0.18
385.516	0.21
385.723	0.16
385.929	0.2
386.136	0.19
386.342	0.21
386.549	0.2
386.755	0.26
386.961	0.25
387.168	0.22
387.374	0.22
387.58	0.26
387.787	0.24
387.993	0.26
388.199	0.2
388.406	0.16
388.612	0.22
388.818	0.2
389.024	0.22
389.231	0.24
389.437	0.3
389.643	0.26
389.849	0.21
390.055	0.22
390.261	0.21
390.467	0.25
390.674	0.2
390.88	0.27
391.086	0.25
391.292	0.15
391.498	0.3
391.704	0.26
391.91	0.21
392.116	0.22
392.322	0.15
392.528	0.29
392.734	0.24
392.94	0.28
393.146	0.18
393.352	0.26
393.557	0.2
393.763	0.22
393.969	0.24
394.175	0.25
394.381	0.22
394.587	0.17
394.792	0.24
394.998	0.31
395.204	0.34
395.41	0.23
395.615	0.27
395.821	0.28
396.027	0.23
396.233	0.22
396.438	0.27
396.644	0.3
396.85	0.24
397.055	0.29
397.261	0.27
397.466	0.35
397.672	0.25
397.878	0.29
398.083	0.25
398.289	0.24
398.494	0.33
398.7	0.27
398.905	0.19
399.111	0.36
399.316	0.22
399.522	0.24
399.727	0.26
399.932	0.26
400.138	0.27
400.343	0.31
400.549	0.27
400.754	0.28
400.959	0.33
401.165	0.26
401.37	0.28
401.575	0.24
401.78	0.3
401.986	0.27
402.191	0.3
402.396	0.31
402.601	0.37
402.807	0.33
403.012	0.31
403.217	0.36
403.422	0.33
403.627	0.34
403.832	0.29
404.037	0.37
404.243	0.33
404.448	0.32
404.653	0.29
404.858	0.36
405.063	0.36
405.268	0.33
405.473	0.29
405.678	0.33
405.883	0.5
406.088	0.42
406.293	0.31
406.498	0.36
406.703	0.44
406.907	0.38
407.112	0.34
407.317	0.39
407.522	0.48
407.727	0.32
407.932	0.39
408.136	0.54
408.341	0.42
408.546	0.47
408.751	0.48
408.956	0.42
409.16	0.5
409.365	0.46
409.57	0.46
409.774	0.53
409.979	0.53
410.184	0.56
410.388	0.41
410.593	0.61
410.798	0.6
411.002	0.56
411.207	0.59
411.411	0.64
411.616	0.58
411.82	0.62
412.025	0.65
412.229	0.66
412.434	0.76
412.638	0.68
412.843	0.7
413.047	0.74
413.252	0.76
413.456	0.82
413.66	0.86
413.865	0.81
414.069	0.87
414.273	0.87
414.478	0.85
414.682	0.87
414.886	0.95
415.091	1
415.295	0.96
415.499	1.08
415.703	1.05
415.908	1.16
416.112	1.07
416.316	1.2
416.52	1.21
416.724	1.19
416.929	1.26
417.133	1.51
417.337	1.35
417.541	1.47
417.745	1.48
417.949	1.57
418.153	1.57
418.357	1.62
418.561	1.79
418.765	1.76
418.969	1.91
419.173	1.92
419.377	1.88
419.581	2.14
419.785	2.1
419.989	2.14
420.193	2.19
420.397	2.33
420.601	2.49
420.804	2.56
421.008	2.49
421.212	2.65
421.416	2.66
421.62	2.63
421.823	2.68
422.027	2.9
422.231	2.89
422.435	2.84
422.638	2.9
422.842	3.06
423.046	2.97
423.249	3.21
423.453	3.17
423.657	3.37
423.86	3.35
424.064	3.49
424.268	3.67
424.471	3.67
424.675	3.83
424.878	3.86
425.082	3.93
425.285	4.23
425.489	4.1
425.692	4.19
425.896	4.24
426.099	4.41
426.303	4.47
426.506	4.67
426.71	4.82
426.913	4.91
427.116	5.01
427.32	5.16
427.523	5.17
427.726	5.32
427.93	5.45
428.133	5.71
428.336	5.85
428.54	5.91
428.743	6.16
428.946	6.32
429.149	6.23
429.353	6.37
429.556	6.29
429.759	6.38
429.962	6.41
430.165	6.52
430.368	6.27
430.571	6.34
430.775	6.4
430.978	6.34
431.181	6.35
431.384	6.52
431.587	6.55
431.79	6.8
431.993	6.79
432.196	6.9
432.399	7.22
432.602	7.39
432.805	7.45
433.008	7.83
433.211	7.71
433.414	8.02
433.616	8.02
433.819	7.92
434.022	8.05
434.225	8.29
434.428	8.3
434.631	8.6
434.833	8.42
435.036	8.69
435.239	8.73
435.442	8.76
435.645	8.94
435.847	9.01
436.05	9.08
436.253	9.42
436.455	9.39
436.658	9.39
436.861	9.61
437.063	9.69
437.266	9.6
437.468	9.96
437.671	10.18
437.874	10.14
438.076	10.11
438.279	10.46
438.481	10.52
438.684	11.18
438.886	10.84
439.089	11.08
439.291	11.07
439.494	11.4
439.696	11.54
439.899	11.88
440.101	12.31
440.303	12.35
440.506	13.02
440.708	12.71
440.91	12.92
441.113	13.11
441.315	13.45
441.517	13.25
441.72	13.65
441.922	13.31
442.124	13.27
442.326	13.58
442.529	13.8
442.731	13.68
442.933	14.07
443.135	13.89
443.337	13.93
443.539	14.32
443.742	13.97
443.944	14.53
444.146	14.41
444.348	14.47
444.55	14.3
444.752	14.41
444.954	14.37
445.156	14.33
445.358	14.66
445.56	14.98
445.762	14.71
445.964	15.02
446.166	14.8
446.368	14.77
446.57	14.72
446.772	14.61
446.974	14.28
447.175	14.47
447.377	14.21
447.579	14.53
447.781	14.17
447.983	14.11
448.184	13.87
448.386	14.07
448.588	13.6
448.79	13.58
448.991	13.86
449.193	13.72
449.395	13.29
449.597	12.88
449.798	12.85
450	12.53
450.202	12.39
450.403	12.37
450.605	12.32
450.806	11.96
451.008	11.84
451.21	11.71
451.411	11.3
451.613	10.82
451.814	10.97
452.016	10.9
452.217	10.27
452.419	10.33
452.62	10.04
452.821	9.87
453.023	9.83
453.224	9.46
453.426	9.1
453.627	8.51
453.828	8.57
454.03	8.62
454.231	8.62
454.432	8.37
454.634	8.27
454.835	7.99
455.036	7.87
455.238	7.57
455.439	7.39
455.64	7.23
455.841	7.25
456.042	7.16
456.244	6.97
456.445	6.75
456.646	6.44
456.847	6.46
457.048	6.3
457.249	6.44
457.45	6.36
457.651	5.78
457.852	5.74
458.054	5.42
458.255	5.43
458.456	5.56
458.657	5.39
458.858	5.04
459.058	5.04
459.259	5
459.46	4.85
459.661	4.83
459.862	4.98
460.063	4.81
460.264	4.71
460.465	4.46
460.666	4.62
460.866	4.29
461.067	4.21
461.268	4.21
461.469	4.15
461.67	4.07
461.87	3.94
462.071	3.92
462.272	3.93
462.473	3.87
462.673	4.03
462.874	3.92
463.075	3.88
463.275	3.79
463.476	3.91
463.676	3.82
463.877	3.7
464.078	3.78
464.278	3.79
464.479	3.71
464.679	3.56
464.88	3.54
465.08	3.54
465.281	3.33
465.481	3.24
465.682	3.13
465.882	3.06
466.083	3.12
466.283	3.03
466.483	2.93
466.684	2.86
466.884	2.7
467.085	2.76
467.285	2.86
467.485	2.72
467.686	2.67
467.886	2.57
468.086	2.57
468.286	2.48
468.487	2.6
468.687	2.38
468.887	2.42
469.087	2.53
469.287	2.37
469.488	2.25
469.688	2.37
469.888	2.39
470.088	2.33
470.288	2.31
470.488	2.27
470.688	2.15
470.888	2.08
471.088	1.98
471.288	2.1
471.488	2.08
471.688	2.03
471.888	2.03
472.088	2.06
472.288	2
472.488	1.95
472.688	1.85
472.888	1.9
473.088	1.94
473.288	1.84
473.488	1.85
473.688	2.02
473.887	1.85
474.087	1.82
474.287	1.77
474.487	1.74
474.687	1.81
474.886	1.73
475.086	1.7
475.286	1.74
475.486	1.69
475.685	1.68
475.885	1.66
476.085	1.69
476.284	1.64
476.484	1.71
476.684	1.66
476.883	1.7
477.083	1.61
477.282	1.54
477.482	1.61
477.681	1.6
477.881	1.53
478.08	1.59
478.28	1.53
478.479	1.58
478.679	1.62
478.878	1.51
479.078	1.52
479.277	1.54
479.477	1.52
479.676	1.52
479.875	1.53
480.075	1.46
480.274	1.48
480.473	1.55
480.673	1.48
480.872	1.6
481.071	1.51
481.271	1.51
481.47	1.51
481.669	1.48
481.868	1.48
482.067	1.52
482.267	1.46
482.466	1.43
482.665	1.45
482.864	1.43
483.063	1.44
483.262	1.52
483.461	1.57
483.661	1.56
483.86	1.48
484.059	1.56
484.258	1.52
484.457	1.52
484.656	1.5
484.855	1.58
485.054	1.43
485.253	1.5
485.452	1.4
485.651	1.59
485.849	1.55
486.048	1.51
486.247	1.54
486.446	1.59
486.645	1.53
486.844	1.55
487.043	1.54
487.241	1.6
487.44	1.6
487.639	1.62
487.838	1.6
488.037	1.61
488.235	1.63
488.434	1.63
488.633	1.54
488.831	1.7
489.03	1.67
489.229	1.69
489.427	1.65
489.626	1.71
489.825	1.71
490.023	1.76
490.222	1.73
490.42	1.75
490.619	1.81
490.817	1.78
491.016	1.79
491.214	1.87
491.413	1.84
491.611	1.82
491.81	1.85
492.008	1.92
492.207	1.95
492.405	1.93
492.604	1.89
492.802	1.99
493	2.02
493.199	2.01
493.397	2.04
493.595	2.07
493.794	2.03
493.992	2.19
494.19	2.12
494.388	2.19
494.587	2.13
494.785	2.17
494.983	2.1
495.181	2.21
495.379	2.26
495.578	2.3
495.776	2.31
495.974	2.29
496.172	2.29
496.37	2.41
496.568	2.4
496.766	2.39
496.964	2.51
497.162	2.48
497.36	2.48
497.558	2.54
497.756	2.58
497.954	2.58
498.152	2.65
498.35	2.67
498.548	2.64
498.746	2.68
498.944	2.65
499.142	2.66
499.34	2.76
499.538	2.83
499.736	2.73
499.933	2.84
500.131	2.83
500.329	3
500.527	2.97
500.725	3.04
500.922	3.03
501.12	3.07
501.318	3.11
501.516	3.08
501.713	3.21
501.911	3.12
502.109	3.1
502.306	3.22
502.504	3.15
502.701	3.25
502.899	3.28
503.097	3.4
503.294	3.32
503.492	3.43
503.689	3.43
503.887	3.44
504.084	3.55
504.282	3.51
504.479	3.45
504.677	3.57
504.874	3.6
505.072	3.55
505.269	3.66
505.466	3.67
505.664	3.73
505.861	3.7
506.059	3.74
506.256	3.8
506.453	3.86
506.651	3.93
506.848	3.89
507.045	3.93
507.242	3.91
507.44	3.99
507.637	4.02
507.834	4
508.031	4.19
508.229	4.05
508.426	4.03
508.623	4.18
508.82	4.21
509.017	4.19
509.214	4.21
509.411	4.28
509.608	4.18
509.805	4.32
510.003	4.32
510.2	4.31
510.397	4.48
510.594	4.34
510.791	4.46
510.988	4.51
511.184	4.48
511.381	4.39
511.578	4.49
511.775	4.61
511.972	4.56
512.169	4.58
512.366	4.67
512.563	4.75
512.76	4.75
512.956	4.76
513.153	4.71
513.35	4.7
513.547	4.69
513.744	4.77
513.94	4.76
514.137	4.95
514.334	4.82
514.53	4.9
514.727	5.03
514.924	4.99
515.12	4.95
515.317	4.95
515.514	4.95
515.71	4.89
515.907	5.05
516.103	5.09
516.3	5.01
516.497	5.11
516.693	5.13
516.89	5.12
517.086	5.16
517.283	5.15
517.479	5.08
517.676	5.22
517.872	5.26
518.068	5.27
518.265	5.27
518.461	5.19
518.658	5.33
518.854	5.34
519.05	5.37
519.247	5.4
519.443	5.36
519.639	5.49
519.836	5.37
520.032	5.36
520.228	5.49
520.424	5.46
520.621	5.49
520.817	5.55
521.013	5.46
521.209	5.64
521.405	5.65
521.601	5.49
521.798	5.5
521.994	5.6
522.19	5.52
522.386	5.55
522.582	5.63
522.778	5.74
522.974	5.66
523.17	5.64
523.366	5.62
523.562	5.75
523.758	5.67
523.954	5.59
524.15	5.75
524.346	5.78
524.542	5.78
524.738	5.69
524.934	5.86
525.129	5.82
525.325	5.74
525.521	5.73
525.717	5.94
525.913	5.82
526.109	5.81
526.304	5.85
526.5	5.85
526.696	5.92
526.892	5.85
527.087	6.05
527.283	6.02
527.479	5.95
527.674	5.77
527.87	5.93
528.066	5.94
528.261	6.02
528.457	5.92
528.653	6.03
528.848	6
529.044	6.03
529.239	5.96
529.435	6.02
529.63	5.9
529.826	5.97
530.021	5.99
530.217	6.06
530.412	6.01
530.608	5.99
530.803	6.03
530.999	5.96
531.194	6.03
531.389	6.15
531.585	6.06
531.78	6.17
531.975	6.08
532.171	6.12
532.366	6.14
532.561	6.14
532.757	6.06
532.952	6.22
533.147	6.03
533.342	6.17
533.538	6.01
533.733	6.25
533.928	6
534.123	6.19
534.318	6.17
534.513	6.15
534.709	6.25
534.904	6.19
535.099	6.21
535.294	6.25
535.489	6.26
535.684	6.17
535.879	6.17
536.074	6.23
536.269	6.26
536.464	6.22
536.659	6.24
536.854	6.19
537.049	6.28
537.244	6.27
537.439	6.26
537.634	6.27
537.828	6.25
538.023	6.29
538.218	6.25
538.413	6.17
538.608	6.28
538.803	6.27
538.997	6.22
539.192	6.3
539.387	6.25
539.582	6.23
539.776	6.23
539.971	6.31
540.166	6.39
540.36	6.25
540.555	6.34
540.75	6.27
540.944	6.32
541.139	6.32
541.334	6.29
541.528	6.34
541.723	6.31
541.917	6.37
542.112	6.25
542.306	6.17
542.501	6.28
542.695	6.31
542.89	6.24
543.084	6.36
543.279	6.32
543.473	6.37
543.668	6.39
543.862	6.23
544.056	6.22
544.251	6.34
544.445	6.42
544.64	6.41
544.834	6.18
545.028	6.08
545.222	6.35
545.417	6.47
545.611	6.4
545.805	6.36
546	6.2
546.194	6.36
546.388	6.38
546.582	6.34
546.776	6.29
546.97	6.35
547.165	6.33
547.359	6.31
547.553	6.34
547.747	6.32
547.941	6.47
548.135	6.35
548.329	6.37
548.523	6.39
548.717	6.32
548.911	6.33
549.105	6.32
549.299	6.38
549.493	6.37
549.687	6.27
549.881	6.4
550.075	6.35
550.269	6.3
550.463	6.37
550.657	6.34
550.85	6.32
551.044	6.38
551.238	6.39
551.432	6.33
551.626	6.43
551.82	6.38
552.013	6.31
552.207	6.41
552.401	6.44
552.594	6.33
552.788	6.33
552.982	6.28
553.176	6.3
553.369	6.45
553.563	6.39
553.756	6.36
553.95	6.38
554.144	6.44
554.337	6.43
554.531	6.28
554.724	6.41
554.918	6.48
555.111	6.35
555.305	6.4
555.498	6.36
555.692	6.53
555.885	6.39
556.079	6.39
556.272	6.39
556.466	6.38
556.659	6.35
556.852	6.49
557.046	6.34
557.239	6.21
557.432	6.35
557.626	6.36
557.819	6.51
558.012	6.38
558.206	6.48
558.399	6.46
558.592	6.34
558.785	6.32
558.979	6.31
559.172	6.42
559.365	6.36
559.558	6.35
559.751	6.28
559.944	6.45
560.138	6.37
560.331	6.41
560.524	6.39
560.717	6.39
560.91	6.37
561.103	6.43
561.296	6.26
561.489	6.4
561.682	6.43
561.875	6.42
562.068	6.42
562.261	6.29
562.454	6.56
562.647	6.37
562.84	6.42
563.032	6.38
563.225	6.34
563.418	6.34
563.611	6.4
563.804	6.45
563.997	6.22
564.19	6.19
564.382	6.45
564.575	6.32
564.768	6.39
564.961	6.37
565.153	6.3
565.346	6.3
565.539	6.5
565.731	6.38
565.924	6.45
566.117	6.52
566.309	6.4
566.502	6.41
566.695	6.35
566.887	6.41
567.08	6.36
567.272	6.39
567.465	6.28
567.657	6.4
567.85	6.35
568.042	6.45
568.235	6.43
568.427	6.24
568.62	6.37
568.812	6.36
569.005	6.39
569.197	6.34
569.389	6.35
569.582	6.37
569.774	6.38
569.966	6.22
570.159	6.25
570.351	6.33
570.543	6.34
570.736	6.28
570.928	6.26
571.12	6.37
571.312	6.26
571.505	6.17
571.697	6.33
571.889	6.33
572.081	6.31
572.273	6.25
572.465	6.33
572.658	6.3
572.85	6.31
573.042	6.36
573.234	6.18
573.426	6.29
573.618	6.25
573.81	6.3
574.002	6.23
574.194	6.32
574.386	6.29
574.578	6.17
574.77	6.22
574.962	6.27
575.154	6.21
575.346	6.15
575.538	6.17
575.729	6.14
575.921	6.24
576.113	6.3
576.305	6.29
576.497	6.31
576.689	6.11
576.88	6.06
577.072	6.23
577.264	6.25
577.456	6.2
577.647	6.17
577.839	6.28
578.031	6.18
578.223	6.14
578.414	6.17
578.606	6.19
578.798	6.27
578.989	6.14
579.181	6.27
579.372	6.15
579.564	6.18
579.755	6.1
579.947	6.08
580.139	6.19
580.33	6.06
580.522	6.18
580.713	6.07
580.905	6.15
581.096	6.18
581.287	6.11
581.479	6.11
581.67	6.15
581.862	6.09
582.053	6.06
582.244	5.98
582.436	6.15
582.627	6.03
582.818	6.01
583.01	6
583.201	6.06
583.392	6.01
583.583	6.01
583.775	5.94
583.966	5.95
584.157	6.04
584.348	6.1
584.54	5.94
584.731	6.06
584.922	5.92
585.113	5.92
585.304	5.99
585.495	5.98
585.686	6.08
585.877	6.02
586.068	6.05
586.259	6.02
586.45	5.97
586.641	5.94
586.832	5.98
587.023	5.94
587.214	5.9
587.405	5.97
587.596	5.84
587.787	5.86
587.978	5.91
588.169	5.85
588.36	5.86
588.551	5.86
588.742	5.86
588.932	5.92
589.123	5.8
589.314	5.91
589.505	5.8
589.696	5.8
589.886	5.83
590.077	5.83
590.268	5.73
590.458	5.75
590.649	5.6
590.84	5.75
591.03	5.77
591.221	5.71
591.412	5.59
591.602	5.87
591.793	5.75
591.984	5.73
592.174	5.75
592.365	5.84
592.555	5.61
592.746	5.63
592.936	5.64
593.127	5.72
593.317	5.77
593.508	5.65
593.698	5.67
593.889	5.62
594.079	5.61
594.269	5.56
594.46	5.55
594.65	5.65
594.84	5.59
595.031	5.44
595.221	5.52
595.411	5.5
595.602	5.58
595.792	5.5
595.982	5.44
596.172	5.57
596.363	5.51
596.553	5.49
596.743	5.47
596.933	5.43
597.123	5.47
597.314	5.34
597.504	5.34
597.694	5.49
597.884	5.39
598.074	5.44
598.264	5.38
598.454	5.36
598.644	5.34
598.834	5.36
599.024	5.31
599.214	5.31
599.404	5.34
599.594	5.32
599.784	5.26
599.974	5.37
600.164	5.29
600.354	5.22
600.544	5.2
600.734	5.3
600.924	5.29
601.114	5.18
601.303	5.2
601.493	5.17
601.683	5.2
601.873	5.18
602.063	5.06
602.252	5.24
602.442	5.04
602.632	5.09
602.821	5.07
603.011	5.15
603.201	5.12
603.39	5.1
603.58	4.98
603.77	5.11
603.959	5.17
604.149	5.03
604.339	5.06
604.528	5.12
604.718	5.01
604.907	4.98
605.097	4.97
605.286	4.93
605.476	4.95
605.665	4.97
605.855	4.96
606.044	4.96
606.234	4.98
606.423	4.85
606.612	4.85
606.802	4.83
606.991	4.86
607.181	4.93
607.37	4.87
607.559	4.68
607.749	4.81
607.938	4.77
608.127	4.83
608.316	4.79
608.506	4.81
608.695	4.81
608.884	4.69
609.073	4.8
609.263	4.81
609.452	4.78
609.641	4.63
609.83	4.63
610.019	4.72
610.208	4.59
610.397	4.61
610.586	4.62
610.775	4.54
610.965	4.57
611.154	4.55
611.343	4.61
611.532	4.5
611.721	4.57
611.91	4.54
612.099	4.54
612.287	4.46
612.476	4.45
612.665	4.56
612.854	4.44
613.043	4.5
613.232	4.47
613.421	4.39
613.61	4.42
613.798	4.38
613.987	4.43
614.176	4.36
614.365	4.39
614.554	4.4
614.742	4.4
614.931	4.25
615.12	4.37
615.309	4.28
615.497	4.23
615.686	4.17
615.875	4.3
616.063	4.24
616.252	4.26
616.44	4.28
616.629	4.19
616.818	4.23
617.006	4.15
617.195	4.14
617.383	4.08
617.572	4.08
617.76	4.14
617.949	4.1
618.137	4.22
618.326	4.08
618.514	3.99
618.703	4
618.891	4.13
619.079	4
619.268	4.07
619.456	4
619.644	4.02
619.833	3.97
620.021	3.94
620.209	3.87
620.398	3.96
620.586	3.86
620.774	3.95
620.962	3.93
621.151	4.03
621.339	3.89
621.527	3.81
621.715	3.84
621.903	3.84
622.092	3.77
622.28	3.91
622.468	3.68
622.656	3.74
622.844	3.73
623.032	3.78
623.22	3.7
623.408	3.79
623.596	3.76
623.784	3.83
623.972	3.67
624.16	3.68
624.348	3.73
624.536	3.7
624.724	3.6
624.912	3.7
625.1	3.66
625.288	3.62
625.476	3.57
625.664	3.7
625.851	3.54
626.039	3.59
626.227	3.58
626.415	3.5
626.603	3.41
626.79	3.52
626.978	3.51
627.166	3.52
627.354	3.42
627.541	3.47
627.729	3.4
627.917	3.55
628.104	3.44
628.292	3.34
628.48	3.47
628.667	3.38
628.855	3.41
629.042	3.43
629.23	3.39
629.418	3.34
629.605	3.3
629.793	3.33
629.98	3.29
630.168	3.28
630.355	3.28
630.543	3.31
630.73	3.21
630.917	3.23
631.105	3.34
631.292	3.25
631.48	3.22
631.667	3.32
631.854	3.2
632.042	3.18
632.229	3.09
632.416	3.23
632.604	3.16
632.791	3.02
632.978	3.13
633.165	3.1
633.353	3.16
633.54	3.18
633.727	3.04
633.914	3.05
634.101	2.95
634.289	3.14
634.476	3.01
634.663	2.98
634.85	3.04
635.037	2.95
635.224	2.94
635.411	3
635.598	2.95
635.785	2.91
635.972	2.9
636.159	2.97
636.346	2.87
636.533	2.83
636.72	2.85
636.907	2.84
637.094	2.91
637.281	2.76
637.468	2.83
637.655	2.85
637.842	2.8
638.029	2.8
638.215	2.79
638.402	2.75
638.589	2.71
638.776	2.69
638.963	2.66
639.149	2.81
639.336	2.79
639.523	2.72
639.709	2.68
639.896	2.65
640.083	2.66
640.27	2.69
640.456	2.63
640.643	2.64
640.829	2.53
641.016	2.62
641.203	2.52
641.389	2.57
641.576	2.6
641.762	2.59
641.949	2.49
642.135	2.61
642.322	2.57
642.508	2.44
642.695	2.52
642.881	2.5
643.068	2.42
643.254	2.5
643.441	2.51
643.627	2.54
643.813	2.43
644	2.49
644.186	2.36
644.372	2.46
644.559	2.42
644.745	2.4
644.931	2.33
645.118	2.35
645.304	2.38
645.49	2.35
645.676	2.33
645.862	2.32
646.049	2.38
646.235	2.34
646.421	2.38
646.607	2.36
646.793	2.29
646.979	2.24
647.165	2.27
647.352	2.29
647.538	2.29
647.724	2.21
647.91	2.14
648.096	2.26
648.282	2.23
648.468	2.19
648.654	2.2
648.84	2.21
649.026	2.17
649.212	2.12
649.397	2.13
649.583	2.18
649.769	2.18
649.955	2.12
650.141	2.14
650.327	2.15
650.513	2.06
650.698	2.12
650.884	2
651.07	2.07
651.256	2.04
651.442	2.08
651.627	1.99
651.813	2.06
651.999	2.03
652.184	1.99
652.37	1.99
652.556	1.98
652.741	2.02
652.927	1.86
653.113	1.95
653.298	1.95
653.484	1.91
653.669	1.86
653.855	1.93
654.04	1.95
654.226	1.92
654.412	1.91
654.597	1.83
654.782	1.94
654.968	1.93
655.153	1.85
655.339	1.84
655.524	1.81
655.71	1.86
655.895	1.88
656.08	1.85
656.266	1.91
656.451	1.8
656.636	1.78
656.822	1.79
657.007	1.77
657.192	1.79
657.378	1.76
657.563	1.75
657.748	1.79
657.933	1.72
658.118	1.69
658.304	1.7
658.489	1.78
658.674	1.73
658.859	1.68
659.044	1.69
659.229	1.76
659.414	1.69
659.599	1.63
659.785	1.6
659.97	1.64
660.155	1.72
660.34	1.69
660.525	1.64
660.71	1.57
660.895	1.66
661.08	1.61
661.264	1.57
661.449	1.71
661.634	1.62
661.819	1.65
662.004	1.59
662.189	1.53
662.374	1.59
662.559	1.51
662.743	1.49
662.928	1.54
663.113	1.49
663.298	1.5
663.483	1.49
663.667	1.53
663.852	1.47
664.037	1.55
664.221	1.49
664.406	1.53
664.591	1.52
664.775	1.51
664.96	1.46
665.145	1.5
665.329	1.45
665.514	1.45
665.698	1.41
665.883	1.39
666.068	1.54
666.252	1.46
666.437	1.32
666.621	1.43
666.806	1.5
666.99	1.36
667.174	1.38
667.359	1.49
667.543	1.39
667.728	1.38
667.912	1.3
668.096	1.37
668.281	1.33
668.465	1.31
668.649	1.32
668.834	1.29
669.018	1.36
669.202	1.33
669.387	1.28
669.571	1.35
669.755	1.28
669.939	1.28
670.124	1.29
670.308	1.3
670.492	1.32
670.676	1.26
670.86	1.27
671.044	1.2
671.228	1.3
671.413	1.25
671.597	1.21
671.781	1.23
671.965	1.24
672.149	1.26
672.333	1.23
672.517	1.24
672.701	1.24
672.885	1.19
673.069	1.14
673.253	1.26
673.437	1.15
673.621	1.17
673.804	1.21
673.988	1.22
674.172	1.16
674.356	1.07
674.54	1.16
674.724	1.21
674.908	1.13
675.091	1.21
675.275	1.12
675.459	1.21
675.643	1.16
675.826	1.14
676.01	1.11
676.194	1.11
676.377	1.18
676.561	1.12
676.745	1.09
676.928	1.13
677.112	1.15
677.296	1.07
677.479	1.07
677.663	1.09
677.846	1.1
678.03	1.09
678.213	1.04
678.397	1.13
678.58	1.05
678.764	1.09
678.947	0.97
679.131	1
679.314	1.12
679.498	1.01
679.681	1.08
679.865	1.1
680.048	0.99
680.231	1.01
680.415	0.98
680.598	0.95
680.781	0.99
680.965	0.95
681.148	1
681.331	0.97
681.514	1.01
681.698	0.94
681.881	0.97
682.064	0.97
682.247	1.03
682.43	0.9
682.614	0.95
682.797	1
682.98	1
683.163	0.86
683.346	0.97
683.529	0.92
683.712	0.91
683.895	0.98
684.078	0.89
684.261	0.92
684.444	0.96
684.627	0.93
684.81	0.83
684.993	0.88
685.176	0.93
685.359	0.91
685.542	0.9
685.725	0.97
685.908	0.91
686.091	0.85
686.274	0.94
686.457	0.88
686.639	0.88
686.822	0.94
687.005	0.89
687.188	0.92
687.371	1.02
687.553	0.98
687.736	0.9
687.919	0.98
688.102	0.92
688.284	0.81
688.467	0.86
688.65	0.8
688.832	0.79
689.015	0.83
689.197	0.72
689.38	0.92
689.563	0.86
689.745	0.79
689.928	0.79
690.11	0.82
690.293	0.85
690.475	0.71
690.658	0.84
690.84	0.79
691.023	0.78
691.205	0.73
691.388	0.81
691.57	0.84
691.752	0.84
691.935	0.72
692.117	0.78
692.3	0.8
692.482	0.72
692.664	0.76
692.847	0.73
693.029	0.85
693.211	0.85
693.393	0.71
693.576	0.68
693.758	0.76
693.94	0.69
694.122	0.74
694.304	0.69
694.487	0.7
694.669	0.83
694.851	0.59
695.033	0.67
695.215	0.65
695.397	0.65
695.579	0.7
695.761	0.63
695.943	0.61
696.125	0.74
696.308	0.73
696.49	0.57
696.671	0.83
696.853	0.69
697.035	0.92
697.217	0.66
697.399	0.72
697.581	0.61
697.763	0.66
697.945	0.63
698.127	0.7
698.309	0.73
698.491	0.71
698.672	0.71
698.854	0.7
699.036	0.73
699.218	0.59
699.399	0.65
699.581	0.68
699.763	0.68
699.945	0.6
700.126	0.59
700.308	0.65
700.49	0.59
700.671	0.53
700.853	0.62
701.035	0.62
701.216	0.68
701.398	0.56
701.579	0.56
701.761	0.72
701.943	0.5
702.124	0.58
702.306	0.62
702.487	0.76
702.669	0.66
702.85	0.55
703.031	0.51
703.213	0.77
703.394	0.69
703.576	0.55
703.757	0.7
703.938	0.67
704.12	0.81
704.301	0.6
704.483	0.54
704.664	0.64
704.845	0.66
705.026	0.71
705.208	0.56
705.389	0.61
705.57	0.66
705.751	0.63
705.933	0.53
706.114	0.56
706.295	0.56
706.476	0.46
706.657	0.61
706.838	0.61
707.02	0.73
707.201	0.54
707.382	0.45
707.563	0.59
707.744	0.53
707.925	0.4
708.106	0.54
708.287	0.58
708.468	0.61
708.649	0.59
708.83	0.6
709.011	0.48
709.192	0.61
709.373	0.45
709.554	0.51
709.734	0.62
709.915	0.59
710.096	0.59
710.277	0.39
710.458	0.51
710.639	0.63
710.819	0.41
711	0.51
711.181	0.59
711.362	0.59
711.542	0.47
711.723	0.44
711.904	0.62
712.085	0.56
712.265	0.55
712.446	0.48
712.627	0.46
712.807	0.52
712.988	0.54
713.168	0.43
713.349	0.52
713.53	0.37
713.71	0.38
713.891	0.42
714.071	0.48
714.252	0.5
714.432	0.53
714.613	0.37
714.793	0.48
714.974	0.6
715.154	0.47
715.334	0.57
715.515	0.53
715.695	0.43
715.876	0.54
716.056	0.41
716.236	0.4
716.417	0.42
716.597	0.47
716.777	0.63
716.957	0.46
717.138	0.52
717.318	0.47
717.498	0.36
717.678	0.48
717.859	0.49
718.039	0.4
718.219	0.54
718.399	0.45
718.579	0.34
718.759	0.4
718.939	0.48
719.12	0.38
719.3	0.43
719.48	0.32
719.66	0.38
719.84	0.52
720.02	0.41
720.2	0.36
720.38	0.4
720.56	0.51
720.74	0.3
720.92	0.46
721.1	0.53
721.279	0.53
721.459	0.48
721.639	0.33
721.819	0.44
721.999	0.38
722.179	0.5
722.359	0.29
722.538	0.45
722.718	0.41
722.898	0.34
723.078	0.37
723.257	0.35
723.437	0.45
723.617	0.46
723.797	0.39
723.976	0.41
724.156	0.5
724.336	0.52
724.515	0.57
724.695	0.27
724.874	0.41
725.054	0.45
725.234	0.32
725.413	0.45
725.593	0.41
725.772	0.39
725.952	0.35
726.131	0.34
726.311	0.37
726.49	0.48
726.67	0.36
726.849	0.27
727.028	0.46
727.208	0.35
727.387	0.4
727.567	0.37
727.746	0.39
727.925	0.37
728.105	0.27
728.284	0.38
728.463	0.27
728.643	0.35
728.822	0.3
729.001	0.27
729.18	0.49
729.359	0.42
729.539	0.44
729.718	0.49
729.897	0.46
730.076	0.31
730.255	0.36
730.434	0.37
730.614	0.46
730.793	0.41
730.972	0.36
731.151	0.36
731.33	0.51
731.509	0.46
731.688	0.5
731.867	0.36
732.046	0.31
732.225	0.6
732.404	0.31
732.583	0.3
732.762	0.34
732.941	0.57
733.12	0.4
733.298	0.36
733.477	0.57
733.656	0.38
733.835	0.26
734.014	0.42
734.193	0.31
734.371	0.46
734.55	0.36
734.729	0.31
734.908	0.38
735.086	0.42
735.265	0.44
735.444	0.28
735.623	0.33
735.801	0.34
735.98	0.41
736.159	0.35
736.337	0.49
736.516	0.56
736.694	0.38
736.873	0.3
737.052	0.6
737.23	0.58
737.409	0.43
737.587	0.5
737.766	0.2
737.944	0.4
738.123	0.43
738.301	0.43
738.479	0.35
738.658	0.47
738.836	0.16
739.015	0.45
739.193	0.42
739.371	0.25
739.55	0.44
739.728	0.28
739.906	0.59
740.085	0.55
740.263	0.41
740.441	0.12
740.62	0.61
740.798	0.48
740.976	0.26
741.154	0.29
741.332	0.52
741.511	0.34
741.689	0.41
741.867	0.49
742.045	0.49
742.223	0.39
742.401	0.3
742.579	0.3
742.757	0.46
742.935	0.11
743.114	0.33
743.292	0.3
743.47	0.32
743.648	0.38
743.826	0.21
744.004	0.43
744.181	0.44
744.359	0.33
744.537	0.43
744.715	0.4
744.893	0.4
745.071	0.34
745.249	0.26
745.427	0.4
745.605	0.48
745.782	0.31
745.96	0.35
746.138	0.5
746.316	0.42
746.493	0.29
746.671	0.3
746.849	0.27
747.027	0.49
747.204	0.37
747.382	0.42
747.56	0.25
747.737	0.34
747.915	0.32
748.093	0.32
748.27	0.25
748.448	0.26
748.625	0.17
748.803	0.24
748.98	0.23
749.158	0.37
749.335	0.45
749.513	0.42
749.69	0.3
749.868	0.34
750.045	0.4
750.223	0.19
750.4	0.12
750.578	0.54
750.755	0.36
750.932	0.18
751.11	0.47
751.287	0.14
751.464	0.43
751.642	0.14
751.819	0.33
751.996	0.3
752.173	0.31
752.351	0.27
752.528	0.3
752.705	0.26
752.882	0.24
753.06	0.21
753.237	0.26
753.414	0.59
753.591	0.49
753.768	0.32
753.945	0.18
754.122	0.28
754.299	0.41
754.476	0.19
754.654	0.28
754.831	0.41
755.008	0.37
755.185	0.22
755.362	0.23
755.539	0.32
755.716	0.25
755.892	0.24
756.069	0.22
756.246	0.23
756.423	0.27
756.6	0.46
756.777	0.21
756.954	0.46
757.131	0.26
757.307	0.12
757.484	0.18
757.661	0.33
757.838	0.49
758.015	0.19
758.191	0.36
758.368	0.37
758.545	0.47
758.721	0.3
758.898	0.23
759.075	0.42
759.251	0.34
759.428	0.38
759.605	0.12
759.781	0.28
759.958	0.38
760.134	0.34
760.311	0.23
760.488	0.53
760.664	0.44
760.841	0.2
761.017	0.2
761.194	0.36
761.37	0.32
761.547	0.33
761.723	0.26
761.899	0.52
762.076	0.29
762.252	0.15
762.429	0.19
762.605	0.47
762.781	0.27
762.958	0.43
763.134	0.22
763.31	0.24
763.486	0.38
763.663	0.2
763.839	0.41
764.015	0.06
764.191	0.25
764.368	0.29
764.544	0.25
764.72	0.32
764.896	0.43
765.072	0.39
765.248	0.32
765.425	0.27
765.601	0.27
765.777	0.38
765.953	0.11
766.129	0.24
766.305	0
766.481	0.37
766.657	0.23
766.833	0.43
767.009	0.28
767.185	0.23
767.361	0.28
767.537	0.21
767.713	0.49
767.889	0.26
768.065	0.19
768.24	0.46
768.416	0.44
768.592	0.31
768.768	0.2
768.944	0.34
769.12	0.34
769.295	0.12
769.471	0.28
769.647	0.19
769.823	0.38
769.998	0.14
770.174	0.17
770.35	0.64
770.525	0.77
770.701	0.43
770.877	0.16
771.052	0.19
771.228	0.43
771.403	0.29
771.579	0.25
771.755	0.67
771.93	0.25
772.106	0.14
772.281	-0.05
772.457	0.36
772.632	0.36
772.808	-0.01
772.983	0.08
773.159	0.07
773.334	0.51
773.509	0.21
773.685	0.12
773.86	0.57
774.036	0.44
774.211	0.25
774.386	0.22
774.562	0.4
774.737	0.77
774.912	0.26
775.087	0.35
775.263	0.32
775.438	0.34
775.613	0.19
775.788	0.12
775.964	0.47
776.139	0.66
776.314	0.08
776.489	0.4
776.664	0.51
776.839	0.05
777.014	0.44
777.19	0.42
777.365	0.64
777.54	0.61
777.715	0.27
777.89	0.42
778.065	0.13
778.24	0.41
778.415	0.41
778.59	0.05
778.765	0.38
778.94	0.39
779.115	0.45
779.289	0.22
779.464	0.29
779.639	0.22
779.814	0.08
779.989	0.18
780.164	0.51
780.339	0.45
780.513	0.24
780.688	0.19
780.863	0.26
781.038	0.43
781.212	0.23
781.387	0.34
781.562	0.66
781.737	0.21
781.911	0.58
782.086	0
782.261	0.21
782.435	0.61
782.61	0.3
782.784	0.17
782.959	0.51
783.134	0.26
783.308	0.19
783.483	0.24
783.657	0.75
783.832	0.57
784.006	0.06
784.181	0.39
784.355	0.43
784.53	0.14
784.704	0.22
784.878	0.76
785.053	0.48
785.227	0.77
785.402	0.71
785.576	0.14
785.75	0.39
785.925	0.25
786.099	0.28
786.273	0.6
786.448	0.48
786.622	0.4
786.796	0.28
786.97	0.33
787.145	1.01
787.319	-0.06
787.493	0.28
787.667	-0.14
787.841	0.28
788.015	0.64
788.19	0.17
788.364	0.41
788.538	0.48
788.712	0.55
788.886	0.33
789.06	0.55
789.234	0.45
789.408	0.1
789.582	0.28
789.756	0.2
789.93	0.05
790.104	0.13
790.278	0.17
790.452	0.24
790.626	0.67
790.8	0.18
790.973	0.42
791.147	0.64
791.321	0.79
791.495	0.73
791.669	0.49
791.843	0.4
792.016	0.57
792.19	0.83
792.364	0.06
792.538	1.16
792.711	0.63
792.885	0.29
793.059	0.14
793.233	-0.29
793.406	0.53
793.58	0.28
793.754	0.62
793.927	0.24
794.101	0.99
794.274	0.44
794.448	0.6
794.622	0.07
794.795	0.75
794.969	0.38
795.142	0.81
795.316	0.33
795.489	0.18
795.663	0.94
795.836	0.31
796.009	0.09
796.183	0.83
796.356	0.35
796.53	0.5
796.703	0.46
796.876	0.95
797.05	0.22
797.223	0.35
797.396	0.56
797.57	0.42
797.743	0.93
797.916	0.19
798.09	0.19
798.263	0.69
798.436	0.8
798.609	0.08
798.782	0.09
798.956	0.41
799.129	0.38
799.302	0.22
799.475	0.2
799.648	0.14
799.821	0.27
799.994	0.51
800.167	0.06
800.34	0.42
800.514	0.46
800.687	0.2
800.86	0.11
801.033	0.6
801.206	0.71
801.379	0.03
801.551	0.38
801.724	0.3
801.897	0.87
802.07	0.39
802.243	-0.01
802.416	0.33
802.589	0.38
802.762	0.78
802.935	0.32
803.107	0.52
803.28	0.9
803.453	0.54
803.626	0.26
803.798	0.53
803.971	0.5
804.144	0.44
804.317	0.58
804.489	0.56
804.662	0.53
804.835	0.49
805.007	-0.19
805.18	1.01
805.353	0.41
805.525	0.23
805.698	0.05
805.87	0.79
806.043	0.84
806.215	0.18
806.388	0.17
806.56	0.76
806.733	0.75
806.905	0.45
807.078	0.34
807.25	-0.07
807.423	0.49
807.595	0.6
807.768	0.57
807.94	1.04
808.112	0.44
808.285	0.37
808.457	0.62
808.629	0.49
808.802	0.5
808.974	0.59
809.146	0.35
809.318	0.34
809.491	0.63
809.663	0.54
809.835	0.52
810.007	0.78
810.18	0.39
810.352	-0.14
810.524	0.34
810.696	0.77
810.868	0.98
811.04	0.38
811.212	0.42
811.384	0.7
811.556	0.59
811.728	0.43
811.901	1.06
812.073	0.28
812.245	0.46
812.417	0.52
812.589	0.01
812.76	0.62
812.932	0.69
813.104	0.54
813.276	0.46
813.448	1.07
813.62	0.49
813.792	0.27
813.964	0.28
814.136	0.95
814.307	0.52
814.479	-0.04
814.651	0.21
814.823	1.53
814.995	0.4
815.166	0.26
815.338	0.58
815.51	0.05
815.681	1.05
815.853	0.87
816.025	0.47
816.196	1.28
816.368	1.36
816.54	0.04
816.711	-0.14
816.883	0.61
817.054	1.36
817.226	-0.17
817.398	0.56
817.569	0.36
817.741	0.78
817.912	0.3
818.084	0.5
818.255	1.03
818.426	0.01
818.598	0.67
818.769	0.32
818.941	0.93
819.112	1.36
819.283	0.63
819.455	0.17
819.626	0.7
819.798	0.94
819.969	0.46
820.14	0.27
820.311	0.28
820.483	0.94
820.654	0.78
820.825	0.61
820.996	0.51
821.168	0.04
821.339	0.4
821.51	0.17
821.681	0.51
821.852	0.73
822.023	-0.03
822.195	-0.06
822.366	0.94
822.537	0.81
822.708	0.88
822.879	0.12
823.05	1.1
823.221	0.32
823.392	0.9
823.563	0.5
823.734	0.42
823.905	0.11
824.076	0.18
824.247	0.64
824.418	-0.03
824.589	1.16
824.759	0.74
824.93	0.73
825.101	-0.35
825.272	1.36
825.443	1.37
825.614	1.06
825.784	0.23
825.955	2.26
826.126	0.87
826.297	0.78
826.467	1.57
826.638	1.74
826.809	-0.06
826.98	0.61
827.15	1.15
827.321	1.38
827.492	1.45
827.662	0.67
827.833	1.74
828.003	1.47
828.174	0.27
828.345	-0.25
828.515	1.55
828.686	0.72
828.856	0.43
829.027	0.69
829.197	0.63
829.368	1.25
829.538	0.21
829.709	0.71
829.879	0.93
830.049	0
830.22	0.63
830.39	0.71
830.56	1.2
830.731	0.98
830.901	0.22
831.072	1
831.242	0.81
831.412	0.56
831.582	0.74
831.753	-0.31
831.923	1.37
832.093	0.29
832.263	0.58
832.434	0.14
832.604	0.87
832.774	1.81
832.944	0.74
833.114	0.27
833.284	0.9
833.454	0.63
833.624	0.52
833.795	0.46
833.965	1.56
834.135	2.27
834.305	-0.43
834.475	0.58
834.645	1.23
834.815	0.89
834.985	-0.2
835.155	0.14
835.325	1.29
835.494	0.9
835.664	0.76
835.834	-0.08
836.004	1.16
836.174	1.15
836.344	0.68
836.514	-0.48
836.684	0.55
836.853	0.97
837.023	0.95
837.193	0.34
837.363	1.42
837.532	1.31
837.702	1.28
837.872	0.38
838.041	1.71
838.211	2.01
838.381	-0.68
838.55	1.04
838.72	2.65
838.89	2.57
839.059	0.27
839.229	0.74
839.398	2.64
839.568	1.63
839.738	-0.03
839.907	1.51
840.077	0.36
840.246	0.95
840.416	0.64
840.585	-0.08
840.755	2.42
840.924	1.9
841.093	0.16
841.263	0.78
841.432	0.86
841.602	-0.06
841.771	-0.16
841.94	0.56
842.11	2.85
842.279	2.19
842.448	0.07
842.617	0.11
842.787	2.09
842.956	-0.19
843.125	1.69
843.294	0.45
843.464	2.39
843.633	1.12
843.802	0.29
843.971	0.75
844.14	1.6
844.309	1.25
844.479	0.09
844.648	-0.4
844.817	-0.11
844.986	1.81
845.155	0.66
845.324	0.31
845.493	0.1
845.662	-0.25
845.831	0.72
846	1.21
846.169	0.34
846.338	2.27
846.507	1.57
846.676	0.55
846.844	0.64
847.013	2.55
847.182	1.4
847.351	0.36
847.52	0.84
847.689	1.36
847.858	0.23
848.026	0.36
848.195	0.97
848.364	0.29
848.533	0.67
848.701	0.62
848.87	0.54
849.039	1.83
849.207	2.15
849.376	3.22
849.545	2.13
849.713	0.45
849.882	0.74
850.051	1.31
850.219	1.6
850.388	1.7
850.556	1.01
850.725	0.17
850.893	1.47
851.062	1.03
851.23	1.32
851.399	-0.6
851.567	0.27
851.736	0.64
851.904	-0.95
852.073	0.44
852.241	1.97
852.41	1.06
852.578	1.5
852.746	1.23
852.915	1.34
853.083	0.23
853.251	0.17
853.42	0.51
853.588	1.33
853.756	2.13
853.924	0.34
854.093	1.09
854.261	1.57
854.429	0.03
854.597	0.48
854.765	0.3
854.934	1.72
855.102	2
855.27	1.87
855.438	1.3
855.606	2.14
855.774	3.36
855.942	-0.31
856.11	-0.3
856.278	0.97
856.446	2.48
856.614	1.18
856.782	-0.4
856.95	3.46
857.118	2.27
857.286	1.66
857.454	1.06
857.622	2.51
857.79	1.63
857.958	0.16
858.126	0.7
858.294	-1.19
858.462	1.89
858.629	0.6
858.797	-0.24
858.965	1.49
859.133	1.8
859.301	1.18
859.468	1.33
859.636	0.44
859.804	3.42
859.971	1.69
860.139	1.24
860.307	2.77
860.474	0.65
860.642	0.03
860.81	0.31
860.977	0.65
861.145	2.08
861.313	0.48
861.48	0.27
861.648	2.45
861.815	0.46
861.983	0.1
862.15	0.39
862.318	1.69
862.485	2.91
862.653	0.93
862.82	1.8
862.988	3.72
863.155	3.1
863.322	0.83
863.49	1.31
863.657	0.71
863.824	3.83
863.992	1.21
864.159	2.5
864.326	3.08
864.494	-0.03
864.661	3.18
864.828	-0.43
864.996	3.02
865.163	4.27
865.33	1.1
865.497	-0.92
865.664	-0.12
865.832	-0.13
865.999	1.03
866.166	0.2
866.333	1.49
866.5	0.94
866.667	0.09
866.834	1.12
867.001	2.49
867.168	-0.2
867.335	1.48
867.502	-0.94
867.669	2.53
867.836	5.38
868.003	0.26
868.17	3.6
868.337	4.77
868.504	3.49
868.671	-0.97
868.838	1.02
869.005	1.74
869.172	1.68
869.339	1.89
869.505	2.75
869.672	1.66
869.839	2.76
870.006	3.07
870.173	-0.13
870.339	2.01
870.506	4.75
870.673	-1.11
870.84	3.39
871.006	1.98
871.173	0.86
871.34	1.05
871.506	0.53
871.673	2.9
871.839	-0.05
872.006	2.48
872.173	1.41
872.339	1.81
872.506	3.14
872.672	1.04
872.839	0.6
873.005	0.53
873.172	5.36
873.338	3.62
873.505	2.09
873.671	1.51
873.838	3.57
874.004	-1.02
874.171	0.06
874.337	3.76
874.503	2.35
874.67	1.37
874.836	0.51
875.002	3.88
875.169	3.85
875.335	2.39
875.501	0.01
875.668	4.27
875.834	2.92
876	1.4
876.166	1.93
876.332	5.36
876.499	3.78
876.665	-0.4
876.831	2.68
876.997	5.83
877.163	2.73
877.329	1.06
877.495	1.35
877.662	2.17
877.828	2.3
877.994	-0.32
878.16	-1.09
878.326	0.73
878.492	1.85
878.658	1.14
878.824	2.85
878.99	2.21
879.156	-0.3
879.322	3.67
879.487	2.99
879.653	3.21
879.819	1.88
879.985	0.37
880.151	1.73
880.317	2.76
880.483	1.34
880.648	2.96
880.814	-0.36
880.98	3.54
881.146	-1.49
881.312	-0.72
881.477	1.08
881.643	1.82
881.809	3.27
881.974	2.74
882.14	-2.69
882.306	1.97
882.471	5.87
882.637	0.73
882.803	3.18
882.968	5.29
883.134	6
883.299	2.13
883.465	2.12
883.63	3.76
883.796	2.29
883.961	3.85
884.127	3.05
884.292	-2.86
884.458	0.12
884.623	0.12
