Data from Apollo_Calib_20240827__AbsoluteIrradiance__742__11-31-00-670.txt Node

Date: Wed Aug 28 11:31:00 BST 2024
User: biology
Spectrometer: FLMT08252
Trigger mode: 0
Integration Time (sec): 5.000000E-1
Scans to average: 5
Electric dark correction enabled: true
Nonlinearity correction enabled: false
Boxcar width: 0
XAxis mode: Wavelengths
Number of Pixels in Spectrum: 3648
>>>>>Begin Spectral Data<<<<<
179.588	-0
179.809	-0
180.03	-0
180.251	-0
180.473	-0
180.694	0
180.915	0
181.136	-0
181.357	0
181.578	-0
181.799	-0
182.02	-0
182.241	0
182.462	-0
182.683	0
182.904	-0
183.125	-0
183.346	0
183.567	0
183.788	0
184.009	0
184.23	0
184.451	0
184.672	0
184.892	0
185.113	0
185.334	0
185.555	0
185.776	0
185.996	0
186.217	0
186.438	0
186.659	0
186.879	0
187.1	0
187.321	0
187.541	0
187.762	0
187.983	0
188.203	0
188.424	0
188.644	0
188.865	0
189.086	0
189.306	0
189.527	0
189.747	0
189.968	0
190.188	0
190.409	0
190.629	0
190.849	0
191.07	0
191.29	0
191.511	0
191.731	0
191.951	0
192.172	0
192.392	0
192.612	0
192.833	0
193.053	0
193.273	0
193.493	0
193.714	0
193.934	0
194.154	0
194.374	0
194.594	0
194.815	0
195.035	0
195.255	0
195.475	0
195.695	0
195.915	0
196.135	0
196.355	0
196.575	0
196.795	0
197.015	0
197.235	0
197.455	0
197.675	0
197.895	0
198.115	0
198.335	0
198.555	0
198.775	0
198.995	0
199.214	0
199.434	0
199.654	0
199.874	0
200.094	2.54
200.313	1.82
200.533	0.62
200.753	0.71
200.973	2.63
201.192	1.65
201.412	-0.05
201.632	0.61
201.851	2.56
202.071	0.73
202.291	0.75
202.51	0.45
202.73	1.97
202.95	0.84
203.169	0.34
203.389	1.2
203.608	1.35
203.828	0.37
204.047	0.64
204.267	1.04
204.486	0.99
204.706	1.27
204.925	0.96
205.145	0.55
205.364	1.27
205.583	1.52
205.803	0.66
206.022	0.63
206.242	0.92
206.461	0.96
206.68	0.82
206.9	0.8
207.119	1.93
207.338	1.17
207.557	0.32
207.777	0.71
207.996	0.98
208.215	1.36
208.434	0.72
208.654	-0.08
208.873	1.08
209.092	1.41
209.311	0.3
209.53	0.48
209.749	0.51
209.968	0.41
210.187	0.6
210.407	0.3
210.626	0.44
210.845	1.04
211.064	0.59
211.283	0.32
211.502	0.81
211.721	0.39
211.94	0.53
212.159	0.65
212.377	1.21
212.596	1.03
212.815	0.73
213.034	0.47
213.253	0.79
213.472	0.72
213.691	0.4
213.91	0.25
214.128	0.46
214.347	0.73
214.566	0.25
214.785	0.12
215.003	0.68
215.222	0.8
215.441	0.53
215.66	0.26
215.878	0.57
216.097	0.82
216.316	0.29
216.534	0.19
216.753	0.57
216.972	0.45
217.19	0.39
217.409	0.29
217.627	0.35
217.846	0.28
218.064	0.6
218.283	0.24
218.501	0.85
218.72	0.73
218.938	0.21
219.157	0.33
219.375	0.7
219.594	0.5
219.812	0.09
220.031	0.22
220.249	0.84
220.467	0.6
220.686	0.17
220.904	0.07
221.122	0.34
221.341	0.77
221.559	0.37
221.777	0.02
221.995	0.45
222.214	0.5
222.432	0.22
222.65	0.54
222.868	0.36
223.086	0.43
223.305	0.49
223.523	0.41
223.741	0.67
223.959	0.26
224.177	0.19
224.395	0.29
224.613	0.4
224.831	0.63
225.049	0.06
225.267	0.32
225.485	0.41
225.703	0.24
225.921	0.24
226.139	0.2
226.357	0.41
226.575	0.3
226.793	0.21
227.011	1.06
227.229	0.62
227.447	0.6
227.665	0.42
227.883	0.09
228.1	0.32
228.318	0.35
228.536	-0.04
228.754	0.18
228.972	0.45
229.189	0.48
229.407	0.3
229.625	0.34
229.843	0.42
230.06	0.43
230.278	0.38
230.496	0.32
230.713	0.35
230.931	0.55
231.149	0.16
231.366	0.15
231.584	0.22
231.801	0.71
232.019	0.3
232.236	0.21
232.454	0.2
232.671	0.44
232.889	0.22
233.106	0.28
233.324	0.33
233.541	0.29
233.759	0.24
233.976	0.23
234.194	0.32
234.411	0.22
234.628	0.23
234.846	0.17
235.063	0.36
235.28	0.28
235.498	0.26
235.715	0.17
235.932	0.54
236.149	0.31
236.367	0.18
236.584	0.29
236.801	0.25
237.018	0.37
237.236	0.35
237.453	0.11
237.67	0.37
237.887	0.23
238.104	0.29
238.321	0.16
238.538	0.22
238.755	0.29
238.973	0.07
239.19	0.29
239.407	0.28
239.624	0.3
239.841	0.15
240.058	0.15
240.275	0.25
240.492	0.26
240.709	0.15
240.925	0.17
241.142	0.2
241.359	0.15
241.576	0.16
241.793	0.26
242.01	0.21
242.227	0.34
242.444	0.34
242.66	0.44
242.877	0.27
243.094	0.25
243.311	0.16
243.527	0.14
243.744	0.26
243.961	0.32
244.178	0.12
244.394	0.24
244.611	0.46
244.828	0.43
245.044	0.19
245.261	0.14
245.477	0.29
245.694	0.38
245.911	0.15
246.127	0.22
246.344	0.42
246.56	0.33
246.777	0.22
246.993	0.28
247.21	0.26
247.426	0.33
247.643	0.17
247.859	0.16
248.076	0.15
248.292	0.51
248.508	0.13
248.725	0.4
248.941	0.29
249.157	0.37
249.374	0.17
249.59	0.26
249.806	0.23
250.023	0.38
250.239	0.18
250.455	0.17
250.671	0.2
250.888	0.28
251.104	0.32
251.32	0.23
251.536	0.18
251.752	0.17
251.969	0.2
252.185	0.21
252.401	0.41
252.617	0.32
252.833	0.08
253.049	0.18
253.265	0.17
253.481	0.23
253.697	0.2
253.913	0.09
254.129	0.28
254.345	0.24
254.561	0.13
254.777	0.27
254.993	0.29
255.209	0.25
255.425	0.11
255.641	0.15
255.857	0.26
256.073	0.25
256.288	0.07
256.504	0.19
256.72	0.21
256.936	0.32
257.152	0.21
257.367	0.11
257.583	0.26
257.799	0.28
258.015	0.07
258.23	0.17
258.446	0.36
258.662	0.21
258.877	0.11
259.093	0.1
259.309	0.24
259.524	0.29
259.74	0.2
259.955	0.1
260.171	0.19
260.387	0.23
260.602	0.31
260.818	0.3
261.033	0.11
261.249	0.19
261.464	0.21
261.68	0.12
261.895	0.26
262.11	0.24
262.326	0.18
262.541	0.09
262.757	0.22
262.972	0.25
263.187	0.21
263.403	0.18
263.618	0.28
263.833	0.15
264.049	0.14
264.264	0.22
264.479	0.27
264.694	0.36
264.91	0.11
265.125	0.24
265.34	0.23
265.555	0.34
265.77	0.24
265.986	0.13
266.201	0.29
266.416	0.3
266.631	0.22
266.846	0.1
267.061	0.27
267.276	0.26
267.491	0.05
267.706	0.26
267.921	0.23
268.136	0.17
268.351	0.15
268.566	0.11
268.781	0.3
268.996	0.25
269.211	0.17
269.426	0.06
269.641	0.2
269.856	0.27
270.071	0.15
270.285	0.07
270.5	0.29
270.715	0.23
270.93	0.19
271.145	0.21
271.359	0.25
271.574	0.13
271.789	0.17
272.004	0.11
272.218	0.14
272.433	0.23
272.648	0.14
272.862	0.21
273.077	0.21
273.292	0.19
273.506	0.18
273.721	0.11
273.936	0.23
274.15	0.3
274.365	0.17
274.579	0.18
274.794	0.29
275.008	0.24
275.223	0.09
275.437	0.19
275.652	0.23
275.866	0.3
276.081	0.21
276.295	0.24
276.509	0.18
276.724	0.2
276.938	0.23
277.153	0.17
277.367	0.28
277.581	0.07
277.796	0.13
278.01	0.16
278.224	0.25
278.438	0.34
278.653	0.16
278.867	0.13
279.081	0.24
279.295	0.16
279.51	0.19
279.724	0.1
279.938	0.17
280.152	0.19
280.366	0.14
280.58	0.2
280.794	0.26
281.008	0.17
281.222	0.23
281.437	0.32
281.651	0.17
281.865	0.23
282.079	0.16
282.293	0.11
282.507	0.11
282.721	0.09
282.935	0.15
283.148	0.13
283.362	0.09
283.576	0.13
283.79	0.12
284.004	0.08
284.218	0.24
284.432	0.17
284.646	0.19
284.859	0.13
285.073	0.19
285.287	0.21
285.501	0.14
285.714	0.15
285.928	0.2
286.142	0.17
286.356	0.13
286.569	0.16
286.783	0.22
286.997	0.25
287.21	0.14
287.424	0.16
287.637	0.17
287.851	0.17
288.065	0.17
288.278	0.14
288.492	0.21
288.705	0.14
288.919	0.23
289.132	0.08
289.346	0.24
289.559	0.06
289.773	0.14
289.986	0.11
290.2	0.17
290.413	0.21
290.626	0.08
290.84	0.15
291.053	0.19
291.267	0.23
291.48	0.14
291.693	0.15
291.906	0.13
292.12	0.21
292.333	0.05
292.546	0.13
292.76	0.27
292.973	0.17
293.186	0.16
293.399	0.13
293.612	0.22
293.826	0.16
294.039	0.13
294.252	0.11
294.465	0.17
294.678	0.18
294.891	0.16
295.104	0.07
295.317	0.16
295.53	0.16
295.743	0.15
295.956	0.14
296.169	0.26
296.382	0.23
296.595	0.15
296.808	0.08
297.021	0.14
297.234	0.14
297.447	0.17
297.66	0.14
297.873	0.21
298.086	0.19
298.299	0.09
298.511	0.05
298.724	0.17
298.937	0.12
299.15	0.12
299.363	0.13
299.575	0.19
299.788	0.23
300.001	0.11
300.213	0.14
300.426	0.15
300.639	0.14
300.852	0.12
301.064	0.18
301.277	0.23
301.489	0.17
301.702	0.19
301.915	0.16
302.127	0.17
302.34	0.12
302.552	0.17
302.765	0.08
302.977	0.21
303.19	0.12
303.402	0.13
303.615	0.15
303.827	0.08
304.04	0.11
304.252	0.16
304.464	0.14
304.677	0.26
304.889	0.21
305.102	0.12
305.314	0.1
305.526	0.15
305.739	0.16
305.951	0.13
306.163	0.13
306.375	0.19
306.588	0.12
306.8	0.1
307.012	0.09
307.224	0.15
307.436	0.15
307.649	0.11
307.861	0.15
308.073	0.19
308.285	0.14
308.497	0.12
308.709	0.08
308.921	0.14
309.133	0.18
309.346	0.13
309.558	0.1
309.77	0.18
309.982	0.2
310.194	0.15
310.406	0.08
310.617	0.23
310.829	0.18
311.041	0.19
311.253	0.11
311.465	0.16
311.677	0.14
311.889	0.12
312.101	0.11
312.313	0.22
312.524	0.18
312.736	0.04
312.948	0.14
313.16	0.24
313.372	0.15
313.583	0.14
313.795	0.16
314.007	0.14
314.218	0.19
314.43	0.12
314.642	0.12
314.853	0.11
315.065	0.18
315.277	0.13
315.488	0.16
315.7	0.21
315.912	0.14
316.123	0.11
316.335	0.13
316.546	0.27
316.758	0.15
316.969	0.11
317.181	0.17
317.392	0.17
317.604	0.17
317.815	0.08
318.026	0.1
318.238	0.13
318.449	0.16
318.661	0.1
318.872	0.13
319.083	0.07
319.295	0.2
319.506	0.1
319.717	0.16
319.929	0.16
320.14	0.15
320.351	0.19
320.562	0.11
320.774	0.16
320.985	0.13
321.196	0.12
321.407	0.07
321.618	0.22
321.829	0.17
322.041	0.18
322.252	0.15
322.463	0.16
322.674	0.16
322.885	0.12
323.096	0.16
323.307	0.15
323.518	0.16
323.729	0.14
323.94	0.08
324.151	0.14
324.362	0.16
324.573	0.15
324.784	0.13
324.995	0.2
325.206	0.13
325.417	0.15
325.628	0.15
325.838	0.16
326.049	0.15
326.26	0.2
326.471	0.14
326.682	0.18
326.892	0.13
327.103	0.09
327.314	0.11
327.525	0.26
327.735	0.19
327.946	0.13
328.157	0.12
328.368	0.17
328.578	0.15
328.789	0.16
328.999	0.14
329.21	0.15
329.421	0.19
329.631	0.11
329.842	0.11
330.052	0.15
330.263	0.2
330.473	0.2
330.684	0.14
330.894	0.16
331.105	0.13
331.315	0.12
331.526	0.07
331.736	0.19
331.947	0.16
332.157	0.15
332.367	0.07
332.578	0.2
332.788	0.22
332.999	0.19
333.209	0.13
333.419	0.11
333.629	0.18
333.84	0.16
334.05	0.15
334.26	0.17
334.47	0.15
334.681	0.19
334.891	0.07
335.101	0.18
335.311	0.24
335.521	0.13
335.732	0.1
335.942	0.21
336.152	0.15
336.362	0.15
336.572	0.12
336.782	0.18
336.992	0.13
337.202	0.09
337.412	0.09
337.622	0.16
337.832	0.12
338.042	0.11
338.252	0.09
338.462	0.14
338.672	0.16
338.882	0.17
339.092	0.11
339.302	0.2
339.511	0.2
339.721	0.14
339.931	0.1
340.141	0.22
340.351	0.2
340.561	0.15
340.77	0.17
340.98	0.17
341.19	0.21
341.4	0.16
341.609	0.07
341.819	0.09
342.029	0.06
342.238	0.14
342.448	0.11
342.658	0.15
342.867	0.15
343.077	0.16
343.286	0.13
343.496	0.15
343.706	0.2
343.915	0.06
344.125	0.16
344.334	0.12
344.544	0.08
344.753	0.15
344.963	0.13
345.172	0.08
345.381	0.07
345.591	0.11
345.8	0.12
346.01	0.16
346.219	0.19
346.428	0.02
346.638	0.15
346.847	0.17
347.056	0.19
347.266	0.09
347.475	0.13
347.684	0.2
347.893	0.12
348.103	0.14
348.312	0.1
348.521	0.18
348.73	0.13
348.94	0.15
349.149	0.13
349.358	0.15
349.567	0.09
349.776	0.06
349.985	0.14
350.194	0.17
350.403	0.19
350.612	0.08
350.821	0.1
351.03	0.17
351.239	0.05
351.448	0.15
351.657	0.11
351.866	0.23
352.075	0.12
352.284	0.17
352.493	0.06
352.702	0.22
352.911	0.14
353.12	0.16
353.329	0.11
353.538	0.17
353.746	0.14
353.955	0.12
354.164	0.15
354.373	0.13
354.582	0.16
354.79	0.12
354.999	0.14
355.208	0.16
355.416	0.24
355.625	0.1
355.834	0.17
356.042	0.16
356.251	0.13
356.46	0.11
356.668	0.14
356.877	0.2
357.085	0.17
357.294	0.11
357.503	0.12
357.711	0.16
357.92	0.26
358.128	0.14
358.337	0.08
358.545	0.16
358.754	0.08
358.962	0.19
359.17	0.11
359.379	0.18
359.587	0.18
359.796	0.11
360.004	0.2
360.212	0.14
360.421	0.2
360.629	0.12
360.837	0.14
361.046	0.2
361.254	0.24
361.462	0.09
361.67	0.15
361.879	0.17
362.087	0.2
362.295	0.13
362.503	0.12
362.711	0.11
362.92	0.11
363.128	0.12
363.336	0.08
363.544	0.09
363.752	0.13
363.96	0.14
364.168	0.1
364.376	0.1
364.584	0.15
364.792	0.21
365	0.16
365.208	0.14
365.416	0.13
365.624	0.21
365.832	0.1
366.04	0.2
366.248	0.11
366.456	0.1
366.664	0.11
366.872	0.16
367.079	0.12
367.287	0.13
367.495	0.18
367.703	0.16
367.911	0.15
368.118	0.15
368.326	0.14
368.534	0.09
368.742	0.21
368.949	0.07
369.157	0.12
369.365	0.16
369.572	0.1
369.78	0.13
369.988	0.19
370.195	0.17
370.403	0.14
370.61	0.13
370.818	0.11
371.026	0.23
371.233	0.09
371.441	0.18
371.648	0.12
371.856	0.19
372.063	0.15
372.271	0.11
372.478	0.12
372.685	0.12
372.893	0.2
373.1	0.12
373.308	0.12
373.515	0.24
373.722	0.21
373.93	0.13
374.137	0.16
374.344	0.21
374.552	0.18
374.759	0.17
374.966	0.16
375.173	0.11
375.381	0.19
375.588	0.09
375.795	0.05
376.002	0.1
376.209	0.11
376.417	0.12
376.624	0.17
376.831	0.18
377.038	0.14
377.245	0.09
377.452	0.11
377.659	0.14
377.866	0.11
378.073	0.12
378.28	0.15
378.487	0.19
378.694	0.17
378.901	0.14
379.108	0.13
379.315	0.14
379.522	0.23
379.729	0.21
379.936	0.11
380.143	0.19
380.35	0.17
380.557	0.15
380.763	0.15
380.97	0.14
381.177	0.17
381.384	0.16
381.591	0.15
381.797	0.21
382.004	0.18
382.211	0.19
382.418	0.12
382.624	0.17
382.831	0.21
383.038	0.16
383.244	0.17
383.451	0.15
383.658	0.15
383.864	0.12
384.071	0.12
384.277	0.22
384.484	0.14
384.69	0.19
384.897	0.15
385.103	0.14
385.31	0.15
385.516	0.11
385.723	0.11
385.929	0.16
386.136	0.17
386.342	0.16
386.549	0.11
386.755	0.21
386.961	0.17
387.168	0.12
387.374	0.14
387.58	0.19
387.787	0.2
387.993	0.18
388.199	0.15
388.406	0.15
388.612	0.19
388.818	0.13
389.024	0.12
389.231	0.14
389.437	0.2
389.643	0.16
389.849	0.16
390.055	0.19
390.261	0.17
390.467	0.16
390.674	0.15
390.88	0.17
391.086	0.22
391.292	0.1
391.498	0.22
391.704	0.19
391.91	0.15
392.116	0.14
392.322	0.02
392.528	0.19
392.734	0.16
392.94	0.15
393.146	0.19
393.352	0.2
393.557	0.14
393.763	0.15
393.969	0.18
394.175	0.17
394.381	0.2
394.587	0.14
394.792	0.16
394.998	0.17
395.204	0.26
395.41	0.17
395.615	0.21
395.821	0.2
396.027	0.18
396.233	0.18
396.438	0.17
396.644	0.2
396.85	0.2
397.055	0.2
397.261	0.21
397.466	0.16
397.672	0.24
397.878	0.21
398.083	0.26
398.289	0.18
398.494	0.22
398.7	0.24
398.905	0.1
399.111	0.25
399.316	0.11
399.522	0.19
399.727	0.19
399.932	0.17
400.138	0.11
400.343	0.22
400.549	0.22
400.754	0.19
400.959	0.21
401.165	0.25
401.37	0.21
401.575	0.28
401.78	0.18
401.986	0.17
402.191	0.18
402.396	0.2
402.601	0.26
402.807	0.24
403.012	0.25
403.217	0.26
403.422	0.23
403.627	0.27
403.832	0.2
404.037	0.27
404.243	0.27
404.448	0.22
404.653	0.24
404.858	0.28
405.063	0.25
405.268	0.24
405.473	0.18
405.678	0.22
405.883	0.41
406.088	0.29
406.293	0.21
406.498	0.25
406.703	0.31
406.907	0.25
407.112	0.23
407.317	0.38
407.522	0.34
407.727	0.27
407.932	0.3
408.136	0.37
408.341	0.31
408.546	0.31
408.751	0.34
408.956	0.31
409.16	0.43
409.365	0.31
409.57	0.33
409.774	0.37
409.979	0.35
410.184	0.38
410.388	0.34
410.593	0.4
410.798	0.43
411.002	0.4
411.207	0.47
411.411	0.42
411.616	0.41
411.82	0.43
412.025	0.46
412.229	0.44
412.434	0.55
412.638	0.51
412.843	0.51
413.047	0.55
413.252	0.51
413.456	0.55
413.66	0.65
413.865	0.57
414.069	0.67
414.273	0.56
414.478	0.6
414.682	0.6
414.886	0.66
415.091	0.56
415.295	0.62
415.499	0.8
415.703	0.74
415.908	0.77
416.112	0.72
416.316	0.85
416.52	0.79
416.724	0.78
416.929	0.85
417.133	1.05
417.337	0.9
417.541	0.99
417.745	1
417.949	1.1
418.153	1.09
418.357	1.08
418.561	1.24
418.765	1.23
418.969	1.31
419.173	1.38
419.377	1.29
419.581	1.46
419.785	1.41
419.989	1.36
420.193	1.56
420.397	1.56
420.601	1.63
420.804	1.7
421.008	1.66
421.212	1.8
421.416	1.78
421.62	1.8
421.823	1.81
422.027	2.02
422.231	1.97
422.435	1.91
422.638	2.01
422.842	1.99
423.046	2.03
423.249	2.19
423.453	2.21
423.657	2.25
423.86	2.29
424.064	2.39
424.268	2.55
424.471	2.48
424.675	2.65
424.878	2.68
425.082	2.72
425.285	2.91
425.489	2.89
425.692	2.9
425.896	2.95
426.099	3.04
426.303	3.15
426.506	3.16
426.71	3.38
426.913	3.49
427.116	3.52
427.32	3.58
427.523	3.58
427.726	3.78
427.93	3.76
428.133	3.98
428.336	4.01
428.54	4.09
428.743	4.29
428.946	4.46
429.149	4.38
429.353	4.51
429.556	4.56
429.759	4.57
429.962	4.59
430.165	4.66
430.368	4.54
430.571	4.58
430.775	4.59
430.978	4.56
431.181	4.61
431.384	4.67
431.587	4.68
431.79	4.98
431.993	4.81
432.196	5.01
432.399	5.27
432.602	5.37
432.805	5.39
433.008	5.67
433.211	5.62
433.414	5.82
433.616	5.91
433.819	5.82
434.022	5.94
434.225	6.11
434.428	6.02
434.631	6.39
434.833	6.11
435.036	6.38
435.239	6.34
435.442	6.52
435.645	6.59
435.847	6.65
436.05	6.81
436.253	6.96
436.455	7.03
436.658	6.89
436.861	7.27
437.063	7.19
437.266	7.14
437.468	7.47
437.671	7.58
437.874	7.61
438.076	7.56
438.279	7.75
438.481	7.89
438.684	8.28
438.886	8.1
439.089	8.15
439.291	8.32
439.494	8.51
439.696	8.58
439.899	8.85
440.101	9.31
440.303	9.34
440.506	9.79
440.708	9.65
440.91	9.72
441.113	9.97
441.315	10.05
441.517	9.96
441.72	10.21
441.922	10.03
442.124	10.06
442.326	10.33
442.529	10.57
442.731	10.43
442.933	10.76
443.135	10.41
443.337	10.54
443.539	10.97
443.742	10.83
443.944	11.17
444.146	10.94
444.348	10.99
444.55	10.96
444.752	11.2
444.954	11.08
445.156	11.03
445.358	11.36
445.56	11.58
445.762	11.48
445.964	11.73
446.166	11.53
446.368	11.52
446.57	11.56
446.772	11.29
446.974	11.3
447.175	11.42
447.377	11.29
447.579	11.48
447.781	11.39
447.983	11.33
448.184	11
448.386	11.32
448.588	10.93
448.79	10.91
448.991	11.19
449.193	11.18
449.395	10.78
449.597	10.46
449.798	10.45
450	10.14
450.202	10.17
450.403	10.21
450.605	10.13
450.806	9.91
451.008	9.73
451.21	9.62
451.411	9.37
451.613	8.84
451.814	9.02
452.016	9.05
452.217	8.55
452.419	8.52
452.62	8.3
452.821	8.22
453.023	8.15
453.224	7.85
453.426	7.53
453.627	7.08
453.828	7.18
454.03	7.32
454.231	7.17
454.432	7.03
454.634	6.88
454.835	6.71
455.036	6.62
455.238	6.44
455.439	6.31
455.64	6.01
455.841	5.97
456.042	6.04
456.244	5.8
456.445	5.73
456.646	5.43
456.847	5.36
457.048	5.33
457.249	5.4
457.45	5.26
457.651	4.91
457.852	4.86
458.054	4.57
458.255	4.53
458.456	4.51
458.657	4.56
458.858	4.28
459.058	4.2
459.259	4.25
459.46	4.03
459.661	3.97
459.862	4.1
460.063	4.01
460.264	3.97
460.465	3.73
460.666	3.81
460.866	3.66
461.067	3.43
461.268	3.45
461.469	3.41
461.67	3.4
461.87	3.3
462.071	3.23
462.272	3.21
462.473	3.21
462.673	3.33
462.874	3.21
463.075	3.21
463.275	3.13
463.476	3.25
463.676	3.13
463.877	3.11
464.078	3.09
464.278	3.13
464.479	3.01
464.679	2.97
464.88	2.95
465.08	3
465.281	2.83
465.481	2.65
465.682	2.57
465.882	2.6
466.083	2.49
466.283	2.49
466.483	2.4
466.684	2.26
466.884	2.26
467.085	2.24
467.285	2.34
467.485	2.23
467.686	2.23
467.886	2.12
468.086	2.12
468.286	2.07
468.487	2.12
468.687	2.03
468.887	1.99
469.087	2.02
469.287	2.04
469.488	1.89
469.688	2
469.888	2
470.088	1.93
470.288	1.9
470.488	1.87
470.688	1.76
470.888	1.72
471.088	1.65
471.288	1.73
471.488	1.71
471.688	1.68
471.888	1.6
472.088	1.69
472.288	1.66
472.488	1.59
472.688	1.58
472.888	1.62
473.088	1.6
473.288	1.53
473.488	1.45
473.688	1.62
473.887	1.52
474.087	1.46
474.287	1.5
474.487	1.39
474.687	1.5
474.886	1.44
475.086	1.36
475.286	1.41
475.486	1.42
475.685	1.37
475.885	1.33
476.085	1.41
476.284	1.4
476.484	1.39
476.684	1.37
476.883	1.4
477.083	1.34
477.282	1.32
477.482	1.34
477.681	1.31
477.881	1.32
478.08	1.27
478.28	1.23
478.479	1.26
478.679	1.34
478.878	1.26
479.078	1.21
479.277	1.29
479.477	1.25
479.676	1.27
479.875	1.21
480.075	1.19
480.274	1.24
480.473	1.24
480.673	1.21
480.872	1.31
481.071	1.23
481.271	1.27
481.47	1.18
481.669	1.22
481.868	1.19
482.067	1.2
482.267	1.13
482.466	1.15
482.665	1.14
482.864	1.15
483.063	1.14
483.262	1.24
483.461	1.24
483.661	1.32
483.86	1.2
484.059	1.25
484.258	1.23
484.457	1.19
484.656	1.22
484.855	1.28
485.054	1.14
485.253	1.2
485.452	1.19
485.651	1.25
485.849	1.19
486.048	1.18
486.247	1.23
486.446	1.27
486.645	1.25
486.844	1.26
487.043	1.22
487.241	1.24
487.44	1.24
487.639	1.31
487.838	1.3
488.037	1.28
488.235	1.4
488.434	1.31
488.633	1.28
488.831	1.38
489.03	1.36
489.229	1.35
489.427	1.35
489.626	1.38
489.825	1.43
490.023	1.42
490.222	1.37
490.42	1.43
490.619	1.44
490.817	1.44
491.016	1.43
491.214	1.53
491.413	1.49
491.611	1.46
491.81	1.46
492.008	1.53
492.207	1.54
492.405	1.55
492.604	1.48
492.802	1.57
493	1.61
493.199	1.59
493.397	1.62
493.595	1.67
493.794	1.63
493.992	1.72
494.19	1.67
494.388	1.72
494.587	1.67
494.785	1.74
494.983	1.67
495.181	1.77
495.379	1.77
495.578	1.81
495.776	1.82
495.974	1.79
496.172	1.85
496.37	1.89
496.568	1.91
496.766	1.89
496.964	1.96
497.162	1.99
497.36	1.98
497.558	2.04
497.756	2.06
497.954	2.03
498.152	2.02
498.35	2.12
498.548	2.03
498.746	2.11
498.944	2.07
499.142	2.14
499.34	2.2
499.538	2.19
499.736	2.13
499.933	2.24
500.131	2.24
500.329	2.35
500.527	2.37
500.725	2.41
500.922	2.38
501.12	2.43
501.318	2.45
501.516	2.44
501.713	2.53
501.911	2.47
502.109	2.44
502.306	2.55
502.504	2.5
502.701	2.52
502.899	2.6
503.097	2.74
503.294	2.61
503.492	2.72
503.689	2.72
503.887	2.71
504.084	2.82
504.282	2.73
504.479	2.76
504.677	2.87
504.874	2.85
505.072	2.74
505.269	2.95
505.466	2.93
505.664	2.94
505.861	2.88
506.059	2.95
506.256	3.01
506.453	3.03
506.651	3.12
506.848	3.16
507.045	3.13
507.242	3.07
507.44	3.08
507.637	3.17
507.834	3.16
508.031	3.3
508.229	3.21
508.426	3.23
508.623	3.32
508.82	3.31
509.017	3.29
509.214	3.33
509.411	3.41
509.608	3.31
509.805	3.47
510.003	3.41
510.2	3.47
510.397	3.56
510.594	3.53
510.791	3.5
510.988	3.51
511.184	3.53
511.381	3.47
511.578	3.57
511.775	3.69
511.972	3.6
512.169	3.64
512.366	3.63
512.563	3.73
512.76	3.74
512.956	3.81
513.153	3.72
513.35	3.7
513.547	3.73
513.744	3.78
513.94	3.78
514.137	3.86
514.334	3.85
514.53	3.86
514.727	4
514.924	4
515.12	3.88
515.317	3.94
515.514	3.93
515.71	3.89
515.907	4.01
516.103	4.05
516.3	4.01
516.497	4.07
516.693	4.05
516.89	4.08
517.086	4.11
517.283	4.13
517.479	4
517.676	4.19
517.872	4.18
518.068	4.15
518.265	4.18
518.461	4.17
518.658	4.22
518.854	4.23
519.05	4.31
519.247	4.27
519.443	4.25
519.639	4.35
519.836	4.24
520.032	4.2
520.228	4.35
520.424	4.33
520.621	4.36
520.817	4.42
521.013	4.35
521.209	4.43
521.405	4.5
521.601	4.39
521.798	4.42
521.994	4.46
522.19	4.36
522.386	4.44
522.582	4.45
522.778	4.52
522.974	4.48
523.17	4.46
523.366	4.45
523.562	4.51
523.758	4.47
523.954	4.42
524.15	4.55
524.346	4.6
524.542	4.57
524.738	4.55
524.934	4.54
525.129	4.63
525.325	4.61
525.521	4.55
525.717	4.77
525.913	4.61
526.109	4.63
526.304	4.7
526.5	4.62
526.696	4.71
526.892	4.63
527.087	4.75
527.283	4.71
527.479	4.74
527.674	4.57
527.87	4.72
528.066	4.68
528.261	4.75
528.457	4.64
528.653	4.78
528.848	4.74
529.044	4.84
529.239	4.72
529.435	4.78
529.63	4.72
529.826	4.79
530.021	4.79
530.217	4.77
530.412	4.74
530.608	4.76
530.803	4.78
530.999	4.73
531.194	4.77
531.389	4.87
531.585	4.81
531.78	4.87
531.975	4.86
532.171	4.89
532.366	4.8
532.561	4.88
532.757	4.83
532.952	4.92
533.147	4.8
533.342	4.91
533.538	4.8
533.733	4.99
533.928	4.75
534.123	4.85
534.318	4.92
534.513	4.8
534.709	4.98
534.904	4.95
535.099	4.95
535.294	4.98
535.489	5.01
535.684	4.89
535.879	4.89
536.074	4.96
536.269	4.98
536.464	4.99
536.659	4.94
536.854	4.94
537.049	5.01
537.244	4.96
537.439	4.95
537.634	4.98
537.828	5.09
538.023	4.96
538.218	4.98
538.413	4.87
538.608	4.95
538.803	4.95
538.997	4.96
539.192	5.04
539.387	4.94
539.582	4.97
539.776	4.93
539.971	4.98
540.166	5.04
540.36	4.97
540.555	5.09
540.75	5.04
540.944	5.01
541.139	5.04
541.334	5.02
541.528	5.03
541.723	5.08
541.917	5.1
542.112	4.94
542.306	4.91
542.501	4.98
542.695	5.02
542.89	4.96
543.084	5.01
543.279	5
543.473	5.06
543.668	5.07
543.862	4.98
544.056	4.99
544.251	5.09
544.445	5.07
544.64	5.12
544.834	4.91
545.028	4.87
545.222	5.02
545.417	5.14
545.611	5.08
545.805	5.07
546	4.95
546.194	5.03
546.388	5.04
546.582	5.03
546.776	5.07
546.97	5.04
547.165	5.05
547.359	5.05
547.553	4.99
547.747	5.05
547.941	5.14
548.135	5.03
548.329	5.04
548.523	5.04
548.717	5
548.911	5.01
549.105	4.99
549.299	5.11
549.493	5.08
549.687	5.06
549.881	5.13
550.075	5.08
550.269	4.98
550.463	5.13
550.657	5.05
550.85	5
551.044	5.08
551.238	5.08
551.432	5.05
551.626	5.1
551.82	5.07
552.013	4.99
552.207	5.15
552.401	5.12
552.594	5.01
552.788	5.05
552.982	5.03
553.176	5.02
553.369	5.14
553.563	5.11
553.756	5.02
553.95	5.09
554.144	5.11
554.337	5.16
554.531	4.99
554.724	5.08
554.918	5.12
555.111	5.1
555.305	5.05
555.498	5.01
555.692	5.16
555.885	5.07
556.079	5.03
556.272	5.08
556.466	5.07
556.659	5.05
556.852	5.11
557.046	5.04
557.239	5.03
557.432	5.02
557.626	5.07
557.819	5.13
558.012	5.13
558.206	5.16
558.399	5.14
558.592	5.11
558.785	5.02
558.979	5.1
559.172	5.01
559.365	5.1
559.558	5.07
559.751	5.02
559.944	5.16
560.138	5.09
560.331	5.06
560.524	5.11
560.717	5.04
560.91	5.05
561.103	5.1
561.296	4.99
561.489	5.09
561.682	5.15
561.875	5.05
562.068	5.14
562.261	4.96
562.454	5.15
562.647	5.03
562.84	5.12
563.032	5.13
563.225	5.03
563.418	5.08
563.611	5.13
563.804	5.09
563.997	5.01
564.19	4.94
564.382	5.13
564.575	5.1
564.768	5.08
564.961	5.11
565.153	5.01
565.346	5
565.539	5.16
565.731	5.02
565.924	5.11
566.117	5.17
566.309	5.08
566.502	5.04
566.695	5
566.887	5.1
567.08	5.08
567.272	5.11
567.465	4.96
567.657	5.05
567.85	5
568.042	5.03
568.235	5.13
568.427	5.01
568.62	5.03
568.812	4.99
569.005	5.07
569.197	5.01
569.389	5.06
569.582	5.07
569.774	5.07
569.966	4.96
570.159	4.94
570.351	4.98
570.543	5.06
570.736	5.05
570.928	4.92
571.12	5.03
571.312	5.02
571.505	4.88
571.697	5.06
571.889	5.05
572.081	5.01
572.273	4.97
572.465	5.06
572.658	5.03
572.85	5
573.042	5.02
573.234	4.95
573.426	5.01
573.618	4.94
573.81	5.01
574.002	5.04
574.194	5.02
574.386	4.95
574.578	4.86
574.77	4.94
574.962	5.01
575.154	4.88
575.346	4.92
575.538	4.92
575.729	4.89
575.921	5
576.113	5.01
576.305	4.98
576.497	5.08
576.689	4.91
576.88	4.87
577.072	5.02
577.264	4.92
577.456	4.98
577.647	4.89
577.839	4.98
578.031	4.98
578.223	4.92
578.414	4.85
578.606	4.93
578.798	4.96
578.989	4.94
579.181	4.97
579.372	4.86
579.564	4.91
579.755	4.86
579.947	4.83
580.139	4.92
580.33	4.74
580.522	4.91
580.713	4.91
580.905	4.85
581.096	4.89
581.287	4.85
581.479	4.82
581.67	4.89
581.862	4.8
582.053	4.89
582.244	4.71
582.436	4.92
582.627	4.77
582.818	4.79
583.01	4.74
583.201	4.85
583.392	4.79
583.583	4.8
583.775	4.68
583.966	4.76
584.157	4.75
584.348	4.79
584.54	4.76
584.731	4.79
584.922	4.72
585.113	4.67
585.304	4.79
585.495	4.75
585.686	4.81
585.877	4.79
586.068	4.87
586.259	4.78
586.45	4.72
586.641	4.7
586.832	4.71
587.023	4.76
587.214	4.68
587.405	4.71
587.596	4.64
587.787	4.69
587.978	4.67
588.169	4.63
588.36	4.57
588.551	4.63
588.742	4.65
588.932	4.71
589.123	4.59
589.314	4.7
589.505	4.58
589.696	4.65
589.886	4.62
590.077	4.64
590.268	4.65
590.458	4.54
590.649	4.44
590.84	4.58
591.03	4.52
591.221	4.59
591.412	4.51
591.602	4.65
591.793	4.58
591.984	4.54
592.174	4.53
592.365	4.66
592.555	4.44
592.746	4.46
592.936	4.52
593.127	4.53
593.317	4.52
593.508	4.52
593.698	4.42
593.889	4.48
594.079	4.48
594.269	4.4
594.46	4.43
594.65	4.48
594.84	4.46
595.031	4.33
595.221	4.38
595.411	4.4
595.602	4.4
595.792	4.37
595.982	4.31
596.172	4.41
596.363	4.3
596.553	4.36
596.743	4.37
596.933	4.33
597.123	4.36
597.314	4.24
597.504	4.24
597.694	4.32
597.884	4.22
598.074	4.32
598.264	4.28
598.454	4.33
598.644	4.26
598.834	4.26
599.024	4.22
599.214	4.15
599.404	4.36
599.594	4.23
599.784	4.16
599.974	4.29
600.164	4.21
600.354	4.16
600.544	4.13
600.734	4.14
600.924	4.18
601.114	4.09
601.303	4.11
601.493	4.16
601.683	4.14
601.873	4.08
602.063	4.03
602.252	4.11
602.442	4
602.632	4.05
602.821	3.98
603.011	4.04
603.201	4
603.39	4.01
603.58	3.92
603.77	4.03
603.959	4.06
604.149	3.99
604.339	3.98
604.528	4.07
604.718	3.97
604.907	3.95
605.097	3.95
605.286	3.93
605.476	3.98
605.665	3.96
605.855	3.93
606.044	3.98
606.234	3.87
606.423	3.87
606.612	3.83
606.802	3.82
606.991	3.89
607.181	3.88
607.37	3.86
607.559	3.7
607.749	3.8
607.938	3.76
608.127	3.77
608.316	3.72
608.506	3.72
608.695	3.78
608.884	3.78
609.073	3.78
609.263	3.81
609.452	3.79
609.641	3.69
609.83	3.62
610.019	3.72
610.208	3.67
610.397	3.69
610.586	3.7
610.775	3.63
610.965	3.61
611.154	3.55
611.343	3.65
611.532	3.57
611.721	3.63
611.91	3.56
612.099	3.59
612.287	3.51
612.476	3.49
612.665	3.6
612.854	3.48
613.043	3.54
613.232	3.53
613.421	3.47
613.61	3.57
613.798	3.5
613.987	3.54
614.176	3.45
614.365	3.49
614.554	3.44
614.742	3.48
614.931	3.35
615.12	3.46
615.309	3.41
615.497	3.42
615.686	3.33
615.875	3.39
616.063	3.38
616.252	3.31
616.44	3.38
616.629	3.27
616.818	3.42
617.006	3.29
617.195	3.26
617.383	3.3
617.572	3.25
617.76	3.25
617.949	3.24
618.137	3.32
618.326	3.26
618.514	3.12
618.703	3.08
618.891	3.23
619.079	3.13
619.268	3.25
619.456	3.1
619.644	3.21
619.833	3.16
620.021	3.13
620.209	3.04
620.398	3.12
620.586	3.06
620.774	3.16
620.962	3.12
621.151	3.22
621.339	3.09
621.527	2.97
621.715	2.96
621.903	3.05
622.092	2.99
622.28	3.08
622.468	2.94
622.656	3
622.844	3.03
623.032	3.01
623.22	2.84
623.408	3.02
623.596	2.98
623.784	3.02
623.972	2.9
624.16	2.92
624.348	2.97
624.536	2.93
624.724	2.86
624.912	2.94
625.1	2.9
625.288	2.83
625.476	2.78
625.664	2.86
625.851	2.78
626.039	2.83
626.227	2.81
626.415	2.82
626.603	2.68
626.79	2.79
626.978	2.77
627.166	2.78
627.354	2.66
627.541	2.71
627.729	2.65
627.917	2.84
628.104	2.78
628.292	2.72
628.48	2.7
628.667	2.71
628.855	2.7
629.042	2.76
629.23	2.63
629.418	2.62
629.605	2.64
629.793	2.57
629.98	2.59
630.168	2.57
630.355	2.56
630.543	2.62
630.73	2.53
630.917	2.59
631.105	2.66
631.292	2.53
631.48	2.56
631.667	2.63
631.854	2.53
632.042	2.53
632.229	2.49
632.416	2.49
632.604	2.48
632.791	2.39
632.978	2.5
633.165	2.44
633.353	2.51
633.54	2.48
633.727	2.38
633.914	2.37
634.101	2.35
634.289	2.49
634.476	2.34
634.663	2.34
634.85	2.39
635.037	2.32
635.224	2.29
635.411	2.38
635.598	2.33
635.785	2.33
635.972	2.27
636.159	2.33
636.346	2.26
636.533	2.23
636.72	2.27
636.907	2.25
637.094	2.26
637.281	2.17
637.468	2.27
637.655	2.27
637.842	2.19
638.029	2.22
638.215	2.2
638.402	2.19
638.589	2.16
638.776	2.14
638.963	2.12
639.149	2.22
639.336	2.2
639.523	2.17
639.709	2.17
639.896	2.1
640.083	2.2
640.27	2.14
640.456	2.08
640.643	2.11
640.829	1.99
641.016	2.02
641.203	1.95
641.389	2.12
641.576	2.07
641.762	2.03
641.949	2
642.135	2.01
642.322	2
642.508	1.92
642.695	1.97
642.881	1.94
643.068	1.95
643.254	1.91
643.441	1.96
643.627	1.96
643.813	1.9
644	1.98
644.186	1.82
644.372	1.94
644.559	1.92
644.745	1.88
644.931	1.88
645.118	1.91
645.304	1.86
645.49	1.87
645.676	1.8
645.862	1.85
646.049	1.9
646.235	1.77
646.421	1.95
646.607	1.87
646.793	1.77
646.979	1.75
647.165	1.82
647.352	1.77
647.538	1.82
647.724	1.76
647.91	1.75
648.096	1.78
648.282	1.74
648.468	1.73
648.654	1.77
648.84	1.74
649.026	1.71
649.212	1.65
649.397	1.65
649.583	1.7
649.769	1.72
649.955	1.69
650.141	1.67
650.327	1.71
650.513	1.59
650.698	1.67
650.884	1.57
651.07	1.63
651.256	1.64
651.442	1.6
651.627	1.54
651.813	1.62
651.999	1.54
652.184	1.6
652.37	1.6
652.556	1.54
652.741	1.58
652.927	1.42
653.113	1.56
653.298	1.55
653.484	1.51
653.669	1.45
653.855	1.51
654.04	1.55
654.226	1.51
654.412	1.47
654.597	1.44
654.782	1.53
654.968	1.5
655.153	1.49
655.339	1.48
655.524	1.42
655.71	1.47
655.895	1.43
656.08	1.44
656.266	1.48
656.451	1.46
656.636	1.37
656.822	1.42
657.007	1.42
657.192	1.42
657.378	1.37
657.563	1.38
657.748	1.43
657.933	1.37
658.118	1.34
658.304	1.31
658.489	1.4
658.674	1.35
658.859	1.33
659.044	1.33
659.229	1.39
659.414	1.29
659.599	1.32
659.785	1.2
659.97	1.29
660.155	1.34
660.34	1.28
660.525	1.26
660.71	1.3
660.895	1.31
661.08	1.27
661.264	1.2
661.449	1.33
661.634	1.27
661.819	1.27
662.004	1.24
662.189	1.18
662.374	1.18
662.559	1.23
662.743	1.17
662.928	1.21
663.113	1.21
663.298	1.12
663.483	1.2
663.667	1.15
663.852	1.13
664.037	1.19
664.221	1.13
664.406	1.19
664.591	1.21
664.775	1.17
664.96	1.18
665.145	1.13
665.329	1.21
665.514	1.13
665.698	1.13
665.883	1.09
666.068	1.17
666.252	1.12
666.437	1.06
666.621	1.06
666.806	1.09
666.99	1.1
667.174	1.03
667.359	1.13
667.543	1.02
667.728	1.01
667.912	1.01
668.096	1.06
668.281	1.05
668.465	1.08
668.649	1.02
668.834	1
669.018	1.04
669.202	1.05
669.387	1.02
669.571	1.06
669.755	0.99
669.939	0.98
670.124	1.01
670.308	1.06
670.492	1.05
670.676	1.01
670.86	0.99
671.044	0.96
671.228	1.04
671.413	0.95
671.597	0.95
671.781	0.93
671.965	1
672.149	0.93
672.333	0.96
672.517	0.94
672.701	0.95
672.885	0.93
673.069	0.86
673.253	0.98
673.437	0.94
673.621	0.85
673.804	0.94
673.988	0.89
674.172	0.88
674.356	0.82
674.54	0.88
674.724	0.99
674.908	0.9
675.091	0.94
675.275	0.87
675.459	0.95
675.643	0.84
675.826	0.91
676.01	0.88
676.194	0.85
676.377	0.9
676.561	0.88
676.745	0.88
676.928	0.87
677.112	0.9
677.296	0.8
677.479	0.83
677.663	0.83
677.846	0.83
678.03	0.82
678.213	0.79
678.397	0.89
678.58	0.82
678.764	0.85
678.947	0.74
679.131	0.78
679.314	0.82
679.498	0.83
679.681	0.81
679.865	0.86
680.048	0.78
680.231	0.78
680.415	0.79
680.598	0.79
680.781	0.75
680.965	0.79
681.148	0.74
681.331	0.72
681.514	0.75
681.698	0.71
681.881	0.77
682.064	0.76
682.247	0.74
682.43	0.67
682.614	0.77
682.797	0.77
682.98	0.81
683.163	0.66
683.346	0.77
683.529	0.74
683.712	0.66
683.895	0.77
684.078	0.64
684.261	0.69
684.444	0.74
684.627	0.73
684.81	0.66
684.993	0.69
685.176	0.69
685.359	0.63
685.542	0.66
685.725	0.75
685.908	0.67
686.091	0.68
686.274	0.68
686.457	0.75
686.639	0.67
686.822	0.71
687.005	0.71
687.188	0.68
687.371	0.79
687.553	0.68
687.736	0.69
687.919	0.74
688.102	0.72
688.284	0.6
688.467	0.6
688.65	0.67
688.832	0.62
689.015	0.62
689.197	0.54
689.38	0.77
689.563	0.77
689.745	0.59
689.928	0.61
690.11	0.65
690.293	0.64
690.475	0.55
690.658	0.61
690.84	0.62
691.023	0.56
691.205	0.57
691.388	0.64
691.57	0.66
691.752	0.62
691.935	0.49
692.117	0.49
692.3	0.58
692.482	0.57
692.664	0.59
692.847	0.59
693.029	0.66
693.211	0.58
693.393	0.51
693.576	0.52
693.758	0.61
693.94	0.53
694.122	0.52
694.304	0.5
694.487	0.54
694.669	0.61
694.851	0.48
695.033	0.5
695.215	0.51
695.397	0.5
695.579	0.54
695.761	0.42
695.943	0.46
696.125	0.63
696.308	0.57
696.49	0.43
696.671	0.63
696.853	0.49
697.035	0.71
697.217	0.5
697.399	0.58
697.581	0.48
697.763	0.5
697.945	0.49
698.127	0.51
698.309	0.61
698.491	0.54
698.672	0.53
698.854	0.58
699.036	0.53
699.218	0.47
699.399	0.54
699.581	0.52
699.763	0.43
699.945	0.43
700.126	0.39
700.308	0.47
700.49	0.44
700.671	0.39
700.853	0.46
701.035	0.45
701.216	0.54
701.398	0.41
701.579	0.44
701.761	0.58
701.943	0.39
702.124	0.45
702.306	0.44
702.487	0.55
702.669	0.44
702.85	0.43
703.031	0.35
703.213	0.53
703.394	0.48
703.576	0.43
703.757	0.57
703.938	0.5
704.12	0.59
704.301	0.45
704.483	0.42
704.664	0.41
704.845	0.57
705.026	0.5
705.208	0.42
705.389	0.36
705.57	0.5
705.751	0.39
705.933	0.45
706.114	0.52
706.295	0.41
706.476	0.36
706.657	0.59
706.838	0.47
707.02	0.44
707.201	0.42
707.382	0.37
707.563	0.48
707.744	0.41
707.925	0.33
708.106	0.41
708.287	0.48
708.468	0.53
708.649	0.4
708.83	0.42
709.011	0.36
709.192	0.38
709.373	0.29
709.554	0.44
709.734	0.5
709.915	0.45
710.096	0.43
710.277	0.24
710.458	0.38
710.639	0.4
710.819	0.26
711	0.35
711.181	0.4
711.362	0.43
711.542	0.43
711.723	0.45
711.904	0.49
712.085	0.41
712.265	0.37
712.446	0.26
712.627	0.38
712.807	0.4
712.988	0.34
713.168	0.27
713.349	0.45
713.53	0.2
713.71	0.26
713.891	0.23
714.071	0.44
714.252	0.34
714.432	0.29
714.613	0.25
714.793	0.32
714.974	0.41
715.154	0.43
715.334	0.42
715.515	0.42
715.695	0.23
715.876	0.4
716.056	0.29
716.236	0.28
716.417	0.31
716.597	0.32
716.777	0.46
716.957	0.34
717.138	0.37
717.318	0.39
717.498	0.27
717.678	0.36
717.859	0.35
718.039	0.25
718.219	0.33
718.399	0.34
718.579	0.29
718.759	0.25
718.939	0.33
719.12	0.37
719.3	0.34
719.48	0.18
719.66	0.22
719.84	0.46
720.02	0.34
720.2	0.24
720.38	0.33
720.56	0.5
720.74	0.17
720.92	0.34
721.1	0.46
721.279	0.36
721.459	0.39
721.639	0.27
721.819	0.27
721.999	0.31
722.179	0.37
722.359	0.22
722.538	0.3
722.718	0.24
722.898	0.2
723.078	0.4
723.257	0.3
723.437	0.33
723.617	0.3
723.797	0.35
723.976	0.31
724.156	0.35
724.336	0.39
724.515	0.55
724.695	0.18
724.874	0.3
725.054	0.34
725.234	0.22
725.413	0.35
725.593	0.32
725.772	0.24
725.952	0.28
726.131	0.22
726.311	0.26
726.49	0.3
726.67	0.24
726.849	0.23
727.028	0.28
727.208	0.27
727.387	0.3
727.567	0.18
727.746	0.28
727.925	0.18
728.105	0.27
728.284	0.17
728.463	0.19
728.643	0.26
728.822	0.25
729.001	0.26
729.18	0.37
729.359	0.28
729.539	0.23
729.718	0.35
729.897	0.34
730.076	0.24
730.255	0.11
730.434	0.26
730.614	0.39
730.793	0.31
730.972	0.22
731.151	0.22
731.33	0.33
731.509	0.37
731.688	0.3
731.867	0.28
732.046	0.13
732.225	0.42
732.404	0.12
732.583	0.13
732.762	0.27
732.941	0.27
733.12	0.37
733.298	0.18
733.477	0.34
733.656	0.21
733.835	0.12
734.014	0.35
734.193	0.28
734.371	0.36
734.55	0.39
734.729	0.11
734.908	0.27
735.086	0.35
735.265	0.4
735.444	0.05
735.623	0.09
735.801	0.11
735.98	0.21
736.159	0.27
736.337	0.25
736.516	0.3
736.694	0.27
736.873	0.2
737.052	0.32
737.23	0.44
737.409	0.24
737.587	0.51
737.766	0.14
737.944	0.21
738.123	0.39
738.301	0.42
738.479	0.25
738.658	0.32
738.836	0.13
739.015	0.28
739.193	0.4
739.371	0.09
739.55	0.17
739.728	0.16
739.906	0.37
740.085	0.46
740.263	0.21
740.441	0.03
740.62	0.38
740.798	0.33
740.976	0.09
741.154	0.13
741.332	0.29
741.511	0.19
741.689	0.3
741.867	0.27
742.045	0.31
742.223	0.29
742.401	0.18
742.579	0.22
742.757	0.35
742.935	0.14
743.114	0.3
743.292	0.22
743.47	0.3
743.648	0.19
743.826	0.12
744.004	0.42
744.181	0.33
744.359	0.15
744.537	0.27
744.715	0.3
744.893	0.25
745.071	0.23
745.249	0.26
745.427	0.23
745.605	0.33
745.782	0.32
745.96	0.31
746.138	0.3
746.316	0.29
746.493	0.17
746.671	0.26
746.849	0.22
747.027	0.37
747.204	0.16
747.382	0.27
747.56	0.12
747.737	0.21
747.915	0.22
748.093	0.26
748.27	0.2
748.448	0.28
748.625	0.03
748.803	0.12
748.98	0.16
749.158	0.28
749.335	0.28
749.513	0.22
749.69	0.21
749.868	0.25
750.045	0.28
750.223	0.16
750.4	0.06
750.578	0.47
750.755	0.11
750.932	-0.01
751.11	0.34
751.287	0.09
751.464	0.36
751.642	0.08
751.819	0.23
751.996	0.22
752.173	0.21
752.351	0.11
752.528	0.29
752.705	0.22
752.882	0.09
753.06	0.21
753.237	0.26
753.414	0.53
753.591	0.45
753.768	0.25
753.945	0.19
754.122	0.18
754.299	0.21
754.476	0.03
754.654	0.16
754.831	0.29
755.008	0.25
755.185	0.17
755.362	0.11
755.539	0.21
755.716	0.19
755.892	0.14
756.069	0.24
756.246	0.12
756.423	0.22
756.6	0.37
756.777	0.14
756.954	0.3
757.131	0.12
757.307	-0.02
757.484	0.12
757.661	0.3
757.838	0.28
758.015	0.03
758.191	0.31
758.368	0.3
758.545	0.42
758.721	0.23
758.898	0.02
759.075	0.31
759.251	0.29
759.428	0.28
759.605	0.1
759.781	0.2
759.958	0.25
760.134	0.2
760.311	0.16
760.488	0.51
760.664	0.43
760.841	0.17
761.017	-0.01
761.194	0.26
761.37	0.31
761.547	0.25
761.723	0.13
761.899	0.36
762.076	0.12
762.252	0.11
762.429	0.05
762.605	0.31
762.781	0.08
762.958	0.24
763.134	0.2
763.31	0.19
763.486	0.34
763.663	-0.01
763.839	0.16
764.015	-0.08
764.191	0.04
764.368	0.15
764.544	0.17
764.72	0.24
764.896	0.3
765.072	0.14
765.248	0.09
765.425	0.17
765.601	0.14
765.777	0.11
765.953	-0.01
766.129	0.13
766.305	0.02
766.481	0.38
766.657	0.26
766.833	0.35
767.009	0.11
767.185	0.14
767.361	0.11
767.537	0.03
767.713	0.38
767.889	0.18
768.065	0.08
768.24	0.09
768.416	0.28
768.592	0.2
768.768	0.19
768.944	0.22
769.12	0.17
769.295	0.08
769.471	0.21
769.647	0.16
769.823	0.36
769.998	0.15
770.174	0.04
770.35	0.45
770.525	0.42
770.701	0.13
770.877	0.09
771.052	0.06
771.228	0.26
771.403	0.18
771.579	0.24
771.755	0.48
771.93	0.07
772.106	0.07
772.281	-0.04
772.457	0.19
772.632	0.37
772.808	0.11
772.983	0.15
773.159	-0
773.334	0.43
773.509	0.17
773.685	0.09
773.86	0.56
774.036	0.49
774.211	0.21
774.386	0.17
774.562	0.22
774.737	0.36
774.912	0.17
775.087	0.34
775.263	0.18
775.438	0.11
775.613	0.17
775.788	0.23
775.964	0.34
776.139	0.66
776.314	-0
776.489	0.3
776.664	0.26
776.839	0.1
777.014	0.27
777.19	0.36
777.365	0.33
777.54	0.49
777.715	0.13
777.89	0.19
778.065	0.17
778.24	0.16
778.415	0.35
778.59	-0.03
778.765	0.22
778.94	0.23
779.115	0.04
779.289	0.17
779.464	0.18
779.639	0.09
779.814	-0.09
779.989	0.07
780.164	0.37
780.339	0.22
780.513	0.05
780.688	0.01
780.863	0.26
781.038	0.32
781.212	-0.11
781.387	0.11
781.562	0.53
781.737	0.2
781.911	0.16
782.086	0.05
782.261	0.11
782.435	0.51
782.61	0.29
782.784	0.19
782.959	0.46
783.134	-0.05
783.308	-0
783.483	0.18
783.657	0.69
783.832	0.46
784.006	-0.03
784.181	0.27
784.355	0.29
784.53	0.08
784.704	0.17
784.878	0.62
785.053	0.31
785.227	0.25
785.402	0.54
785.576	-0.13
785.75	0.12
785.925	0.35
786.099	0.26
786.273	0.13
786.448	0.46
786.622	0.25
786.796	0.23
786.97	-0.02
787.145	0.82
787.319	-0.2
787.493	0.08
787.667	-0.27
787.841	0.23
788.015	0.57
788.19	0.11
788.364	0.18
788.538	0.35
788.712	0.52
788.886	0.21
789.06	0.45
789.234	0.32
789.408	-0.06
789.582	0.14
789.756	0.19
789.93	-0.04
790.104	0.21
790.278	0.14
790.452	-0
790.626	0.33
790.8	-0.04
790.973	0.16
791.147	0.51
791.321	0.67
791.495	0.51
791.669	0.29
791.843	0.47
792.016	0.35
792.19	0.46
792.364	0.04
792.538	0.71
792.711	0.38
792.885	0.02
793.059	-0.17
793.233	0.05
793.406	0.4
793.58	0.39
793.754	0.43
793.927	0.02
794.101	0.64
794.274	0.3
794.448	0.48
794.622	-0.12
794.795	0.48
794.969	-0.01
795.142	0.39
795.316	0.05
795.489	-0
795.663	0.62
795.836	0.32
796.009	0.11
796.183	0.54
796.356	0.17
796.53	0.18
796.703	-0.05
796.876	0.65
797.05	0.1
797.223	0.38
797.396	0.19
797.57	0.23
797.743	0.51
797.916	0.3
798.09	0.1
798.263	0.52
798.436	0.43
798.609	0.15
798.782	0.01
798.956	0.29
799.129	0.17
799.302	0.46
799.475	0.03
799.648	0.19
799.821	0.06
799.994	0.11
800.167	-0.22
800.34	0.23
800.514	0.38
800.687	-0.04
800.86	-0.01
801.033	0.65
801.206	0.36
801.379	-0.14
801.551	0.55
801.724	0.44
801.897	0.77
802.07	0.02
802.243	-0.15
802.416	0.37
802.589	0.19
802.762	0.18
802.935	0.21
803.107	0.71
803.28	0.76
803.453	0.41
803.626	0.09
803.798	0.08
803.971	0.1
804.144	0.24
804.317	0.43
804.489	0.62
804.662	0.12
804.835	0.17
805.007	-0
805.18	0.37
805.353	0.54
805.525	-0.22
805.698	0.03
805.87	0.35
806.043	0.56
806.215	-0.45
806.388	0.12
806.56	0.28
806.733	0.75
806.905	0.26
807.078	-0.05
807.25	-0.05
807.423	0.48
807.595	-0.06
807.768	0.21
807.94	0.46
808.112	0.3
808.285	0.36
808.457	0.22
808.629	-0.08
808.802	0.52
808.974	0.51
809.146	0.04
809.318	-0.31
809.491	0.47
809.663	0.43
809.835	-0.06
810.007	0.05
810.18	0.36
810.352	-0.12
810.524	0.27
810.696	0.39
810.868	0.62
811.04	0.05
811.212	0.04
811.384	0.49
811.556	0.47
811.728	-0.01
811.901	1.11
812.073	0.32
812.245	0.5
812.417	0.36
812.589	-0.41
812.76	0.57
812.932	0.51
813.104	0.76
813.276	0.1
813.448	0.74
813.62	0.7
813.792	0.65
813.964	0.04
814.136	0.75
814.307	0
814.479	0.01
814.651	0.13
814.823	0.89
814.995	0.24
815.166	0.18
815.338	0.19
815.51	-0.33
815.681	1.23
815.853	0.5
816.025	0.46
816.196	0.85
816.368	0.57
816.54	-0.38
816.711	-0.11
816.883	0.97
817.054	1.28
817.226	-0.37
817.398	0.48
817.569	-0.07
817.741	0.44
817.912	0.11
818.084	0.27
818.255	0.65
818.426	-0.42
818.598	0.31
818.769	-0.14
818.941	0.58
819.112	0.75
819.283	0.22
819.455	0.11
819.626	0.1
819.798	0.14
819.969	0.29
820.14	0.14
820.311	-0.01
820.483	0.6
820.654	0.01
820.825	0.4
820.996	0.38
821.168	0.11
821.339	0.06
821.51	-0.07
821.681	-0.51
821.852	0.73
822.023	-0.11
822.195	-0.73
822.366	0.9
822.537	0.27
822.708	-0
822.879	-0.16
823.05	0.99
823.221	0.04
823.392	0.72
823.563	0.5
823.734	0.38
823.905	0.76
824.076	0.23
824.247	-0.78
824.418	0.22
824.589	1.31
824.759	-0.23
824.93	-0.03
825.101	-0.27
825.272	0.79
825.443	0.73
825.614	1.07
825.784	-0.67
825.955	1.89
826.126	0.89
826.297	0.11
826.467	1.29
826.638	0.69
826.809	-0.52
826.98	0.37
827.15	0.64
827.321	0.4
827.492	1.04
827.662	0.06
827.833	0.72
828.003	1.31
828.174	-0.02
828.345	0.04
828.515	1.42
828.686	0.34
828.856	-0.14
829.027	0.81
829.197	0.29
829.368	0.73
829.538	0.12
829.709	-0.08
829.879	0.46
830.049	0.46
830.22	0.36
830.39	0.13
830.56	0.6
830.731	0.52
830.901	0.22
831.072	0.62
831.242	0.08
831.412	-0.09
831.582	0.75
831.753	-0.28
831.923	0.74
832.093	0.35
832.263	0.31
832.434	-0.06
832.604	0.4
832.774	1.1
832.944	0.03
833.114	0.11
833.284	1.12
833.454	0.21
833.624	-0.15
833.795	0.15
833.965	1.14
834.135	1.13
834.305	-0.73
834.475	0.04
834.645	0.38
834.815	-0.08
834.985	0.06
835.155	-0.47
835.325	0.6
835.494	0.14
835.664	-0.2
835.834	0.02
836.004	0.39
836.174	0.46
836.344	0.4
836.514	-0.39
836.684	-0.04
836.853	0.97
837.023	0.56
837.193	-0.3
837.363	0.7
837.532	1.02
837.702	0.05
837.872	0.01
838.041	1.27
838.211	1.46
838.381	-0.48
838.55	0.03
838.72	2.35
838.89	1.91
839.059	-0.2
839.229	-0.18
839.398	1.87
839.568	0.33
839.738	0.39
839.907	1.46
840.077	0.79
840.246	-0.24
840.416	-0.86
840.585	-0.29
840.755	1.4
840.924	1.06
841.093	-0.05
841.263	0.59
841.432	0.52
841.602	-0.16
841.771	-0.36
841.94	0.63
842.11	2.76
842.279	1.85
842.448	0.23
842.617	-0.28
842.787	1.49
842.956	0.12
843.125	0.45
843.294	0.35
843.464	1.59
843.633	0.13
843.802	0.21
843.971	0.34
844.14	0.91
844.309	1.16
844.479	-1.84
844.648	-1.24
844.817	0.69
844.986	-0.31
845.155	0.76
845.324	0.28
845.493	0.43
845.662	-0.81
845.831	0.75
846	0.95
846.169	0.24
846.338	1.51
846.507	0.62
846.676	0.88
846.844	-0.25
847.013	1.63
847.182	1.07
847.351	-0.37
847.52	0.19
847.689	0.89
847.858	0.51
848.026	-0.48
848.195	0.74
848.364	-0.04
848.533	0.24
848.701	-0.2
848.87	1.12
849.039	1.5
849.207	0.61
849.376	1.55
849.545	1.8
849.713	-0.4
849.882	-0.34
850.051	0.5
850.219	0.69
850.388	1.61
850.556	0.61
850.725	-0.51
850.893	1.32
851.062	-0.09
851.23	0.95
851.399	-0.85
851.567	-0.32
851.736	0.82
851.904	-0.69
852.073	0.51
852.241	1.15
852.41	0.72
852.578	0.19
852.746	-0.92
852.915	1.49
853.083	1.53
853.251	0.46
853.42	0.26
853.588	1.05
853.756	1.83
853.924	0.9
854.093	0.41
854.261	1.03
854.429	-0.86
854.597	0.73
854.765	-0
854.934	0.89
855.102	1.17
855.27	0.9
855.438	0.58
855.606	2.22
855.774	2.44
855.942	-1.15
856.11	-0.48
856.278	0.2
856.446	1.65
856.614	0.48
856.782	0.12
856.95	1.94
857.118	3.1
857.286	0.67
857.454	-0.75
857.622	0.91
857.79	1.83
857.958	-0.63
858.126	-0.5
858.294	-1.83
858.462	1.12
858.629	0.25
858.797	-0.89
858.965	0.66
859.133	0.2
859.301	-0.52
859.468	0.88
859.636	0.2
859.804	2.92
859.971	0.13
860.139	-0.55
860.307	1.96
860.474	0.65
860.642	-0.24
860.81	-1.13
860.977	-0.26
861.145	1.35
861.313	1
861.48	-0.08
861.648	1.86
861.815	1.45
861.983	-0.71
862.15	-0.02
862.318	1
862.485	1.79
862.653	0.09
862.82	-0.28
862.988	1.7
863.155	0.52
863.322	-0.33
863.49	-1.49
863.657	0.17
863.824	2.97
863.992	0.73
864.159	2.21
864.326	2.6
864.494	-0.56
864.661	3.73
864.828	-0.84
864.996	2.88
865.163	2.75
865.33	-0.74
865.497	-1.55
865.664	0.92
865.832	-1.19
865.999	-0.92
866.166	-0.36
866.333	0.26
866.5	-0.62
866.667	-0.72
866.834	-0.51
867.001	1.92
867.168	-1.13
867.335	-0.12
867.502	-1.54
867.669	1.17
867.836	2.92
868.003	-0
868.17	2.3
868.337	0.59
868.504	3.31
868.671	-1.64
868.838	-0.48
869.005	0.52
869.172	1.12
869.339	0.33
869.505	0.59
869.672	1.75
869.839	2.2
870.006	2.33
870.173	-1.93
870.339	3.53
870.506	2.93
870.673	0.5
870.84	1.35
871.006	1.07
871.173	0.62
871.34	1.23
871.506	-0.73
871.673	2.14
871.839	-0.2
872.006	0.7
872.173	-0.17
872.339	-0.35
872.506	2.17
872.672	1.13
872.839	-0.9
873.005	0.33
873.172	2.1
873.338	2.51
873.505	1.35
873.671	1.58
873.838	2.49
874.004	-1.06
874.171	-0.48
874.337	1.91
874.503	1.89
874.67	0.96
874.836	0.6
875.002	4.71
875.169	2.45
875.335	0.99
875.501	0.19
875.668	1.86
875.834	-0.68
876	0.37
876.166	1.21
876.332	2.26
876.499	2.11
876.665	0.52
876.831	0.32
876.997	5.61
877.163	1.7
877.329	-1.51
877.495	1.13
877.662	0.86
877.828	2.93
877.994	0.64
878.16	-0.85
878.326	-0.37
878.492	2.5
878.658	1.01
878.824	-0.17
878.99	2.52
879.156	0.78
879.322	2.96
879.487	1.1
879.653	0.71
879.819	1.41
879.985	-0.04
880.151	0.74
880.317	1.36
880.483	1.75
880.648	1.19
880.814	-2.28
880.98	1.98
881.146	-3.25
881.312	-0
881.477	-1.28
881.643	1.25
881.809	3.44
881.974	2.82
882.14	-1.77
882.306	1.07
882.471	3.29
882.637	0.54
882.803	0.99
882.968	4.93
883.134	4.58
883.299	1.15
883.465	2.85
883.63	1.8
883.796	0.48
883.961	1.56
884.127	2.04
884.292	-2.49
884.458	-2.16
884.623	-2.16
