Data from Apollo_Calib_20240827__AbsoluteIrradiance__785__12-14-02-971.txt Node

Date: Wed Aug 28 12:14:02 BST 2024
User: biology
Spectrometer: FLMT08252
Trigger mode: 0
Integration Time (sec): 5.000000E-1
Scans to average: 5
Electric dark correction enabled: true
Nonlinearity correction enabled: false
Boxcar width: 0
XAxis mode: Wavelengths
Number of Pixels in Spectrum: 3648
>>>>>Begin Spectral Data<<<<<
179.588	-0
179.809	-0
180.03	-0
180.251	-0
180.473	-0
180.694	0
180.915	0
181.136	-0
181.357	-0
181.578	-0
181.799	-0
182.02	-0
182.241	0
182.462	-0
182.683	0
182.904	-0
183.125	-0
183.346	0
183.567	0
183.788	0
184.009	0
184.23	0
184.451	0
184.672	0
184.892	0
185.113	0
185.334	0
185.555	0
185.776	0
185.996	0
186.217	0
186.438	0
186.659	0
186.879	0
187.1	0
187.321	0
187.541	0
187.762	0
187.983	0
188.203	0
188.424	0
188.644	0
188.865	0
189.086	0
189.306	0
189.527	0
189.747	0
189.968	0
190.188	0
190.409	0
190.629	0
190.849	0
191.07	0
191.29	0
191.511	0
191.731	0
191.951	0
192.172	0
192.392	0
192.612	0
192.833	0
193.053	0
193.273	0
193.493	0
193.714	0
193.934	0
194.154	0
194.374	0
194.594	0
194.815	0
195.035	0
195.255	0
195.475	0
195.695	0
195.915	0
196.135	0
196.355	0
196.575	0
196.795	0
197.015	0
197.235	0
197.455	0
197.675	0
197.895	0
198.115	0
198.335	0
198.555	0
198.775	0
198.995	0
199.214	0
199.434	0
199.654	0
199.874	0
200.094	4.11
200.313	2.33
200.533	2.18
200.753	2
200.973	3.88
201.192	3.53
201.412	1.11
201.632	2.1
201.851	3.63
202.071	1.87
202.291	1.61
202.51	1.51
202.73	2.56
202.95	1.71
203.169	1.67
203.389	2.25
203.608	2.34
203.828	1.56
204.047	1.65
204.267	2.34
204.486	2
204.706	1.89
204.925	1.57
205.145	1.32
205.364	2.37
205.583	2.86
205.803	1.51
206.022	0.88
206.242	1.71
206.461	1.75
206.68	1.24
206.9	1.81
207.119	2.56
207.338	2.47
207.557	1.02
207.777	1.44
207.996	1.19
208.215	2.17
208.434	0.99
208.654	1.06
208.873	1.57
209.092	2.2
209.311	1.22
209.53	1.05
209.749	1.55
209.968	1.11
210.187	1.18
210.407	1.03
210.626	1.1
210.845	1.61
211.064	0.99
211.283	0.98
211.502	1.74
211.721	1.17
211.94	1.07
212.159	1.28
212.377	1.45
212.596	1.62
212.815	1.04
213.034	1.29
213.253	1.44
213.472	1.37
213.691	0.88
213.91	0.73
214.128	0.53
214.347	1.4
214.566	0.55
214.785	0.58
215.003	1.28
215.222	1.23
215.441	0.95
215.66	0.67
215.878	0.94
216.097	1.16
216.316	0.69
216.534	0.95
216.753	0.93
216.972	0.89
217.19	0.98
217.409	0.65
217.627	0.79
217.846	0.77
218.064	0.82
218.283	0.7
218.501	1.34
218.72	1.13
218.938	0.4
219.157	0.81
219.375	1.02
219.594	1.05
219.812	0.53
220.031	0.66
220.249	1.3
220.467	1.15
220.686	0.67
220.904	0.56
221.122	0.68
221.341	1.19
221.559	0.86
221.777	0.46
221.995	0.99
222.214	0.96
222.432	0.54
222.65	0.75
222.868	0.67
223.086	0.74
223.305	0.95
223.523	0.55
223.741	1.24
223.959	0.67
224.177	0.44
224.395	0.54
224.613	0.87
224.831	0.81
225.049	0.42
225.267	0.52
225.485	0.78
225.703	0.69
225.921	0.64
226.139	0.44
226.357	0.65
226.575	0.95
226.793	0.62
227.011	1.47
227.229	0.85
227.447	0.82
227.665	0.48
227.883	0.36
228.1	0.57
228.318	0.81
228.536	0.29
228.754	0.42
228.972	0.91
229.189	0.74
229.407	0.57
229.625	0.5
229.843	0.82
230.06	0.81
230.278	0.52
230.496	0.68
230.713	0.57
230.931	0.8
231.149	0.51
231.366	0.32
231.584	0.6
231.801	1.05
232.019	0.5
232.236	0.44
232.454	0.55
232.671	0.68
232.889	0.54
233.106	0.34
233.324	0.54
233.541	0.66
233.759	0.62
233.976	0.41
234.194	0.52
234.411	0.53
234.628	0.41
234.846	0.49
235.063	0.53
235.28	0.54
235.498	0.47
235.715	0.42
235.932	0.84
236.149	0.53
236.367	0.39
236.584	0.6
236.801	0.46
237.018	0.64
237.236	0.6
237.453	0.29
237.67	0.78
237.887	0.54
238.104	0.4
238.321	0.3
238.538	0.33
238.755	0.65
238.973	0.35
239.19	0.57
239.407	0.52
239.624	0.53
239.841	0.39
240.058	0.41
240.275	0.53
240.492	0.56
240.709	0.47
240.925	0.51
241.142	0.53
241.359	0.38
241.576	0.19
241.793	0.44
242.01	0.5
242.227	0.65
242.444	0.59
242.66	0.56
242.877	0.55
243.094	0.38
243.311	0.52
243.527	0.44
243.744	0.5
243.961	0.53
244.178	0.44
244.394	0.46
244.611	0.58
244.828	0.65
245.044	0.27
245.261	0.4
245.477	0.52
245.694	0.57
245.911	0.4
246.127	0.52
246.344	0.69
246.56	0.56
246.777	0.33
246.993	0.42
247.21	0.39
247.426	0.55
247.643	0.31
247.859	0.33
248.076	0.32
248.292	0.69
248.508	0.36
248.725	0.55
248.941	0.56
249.157	0.63
249.374	0.31
249.59	0.48
249.806	0.48
250.023	0.5
250.239	0.31
250.455	0.35
250.671	0.41
250.888	0.51
251.104	0.48
251.32	0.37
251.536	0.36
251.752	0.44
251.969	0.46
252.185	0.39
252.401	0.67
252.617	0.51
252.833	0.39
253.049	0.39
253.265	0.38
253.481	0.43
253.697	0.35
253.913	0.32
254.129	0.45
254.345	0.44
254.561	0.39
254.777	0.4
254.993	0.46
255.209	0.45
255.425	0.37
255.641	0.34
255.857	0.46
256.073	0.42
256.288	0.28
256.504	0.3
256.72	0.35
256.936	0.57
257.152	0.37
257.367	0.32
257.583	0.48
257.799	0.44
258.015	0.35
258.23	0.37
258.446	0.57
258.662	0.43
258.877	0.31
259.093	0.37
259.309	0.41
259.524	0.44
259.74	0.29
259.955	0.17
260.171	0.4
260.387	0.5
260.602	0.43
260.818	0.42
261.033	0.31
261.249	0.37
261.464	0.31
261.68	0.24
261.895	0.48
262.11	0.43
262.326	0.31
262.541	0.23
262.757	0.45
262.972	0.48
263.187	0.38
263.403	0.41
263.618	0.5
263.833	0.41
264.049	0.28
264.264	0.28
264.479	0.47
264.694	0.58
264.91	0.28
265.125	0.33
265.34	0.44
265.555	0.54
265.77	0.33
265.986	0.33
266.201	0.47
266.416	0.49
266.631	0.32
266.846	0.28
267.061	0.43
267.276	0.51
267.491	0.16
267.706	0.35
267.921	0.37
268.136	0.36
268.351	0.37
268.566	0.25
268.781	0.38
268.996	0.44
269.211	0.31
269.426	0.34
269.641	0.31
269.856	0.38
270.071	0.29
270.285	0.21
270.5	0.43
270.715	0.46
270.93	0.29
271.145	0.39
271.359	0.44
271.574	0.27
271.789	0.29
272.004	0.3
272.218	0.32
272.433	0.39
272.648	0.32
272.862	0.41
273.077	0.33
273.292	0.36
273.506	0.24
273.721	0.26
273.936	0.37
274.15	0.43
274.365	0.23
274.579	0.36
274.794	0.43
275.008	0.45
275.223	0.24
275.437	0.27
275.652	0.46
275.866	0.42
276.081	0.39
276.295	0.41
276.509	0.39
276.724	0.34
276.938	0.31
277.153	0.38
277.367	0.36
277.581	0.27
277.796	0.26
278.01	0.22
278.224	0.43
278.438	0.41
278.653	0.28
278.867	0.27
279.081	0.45
279.295	0.3
279.51	0.31
279.724	0.25
279.938	0.42
280.152	0.33
280.366	0.25
280.58	0.33
280.794	0.39
281.008	0.38
281.222	0.41
281.437	0.46
281.651	0.4
281.865	0.41
282.079	0.33
282.293	0.16
282.507	0.23
282.721	0.31
282.935	0.24
283.148	0.22
283.362	0.32
283.576	0.23
283.79	0.25
284.004	0.26
284.218	0.4
284.432	0.27
284.646	0.29
284.859	0.23
285.073	0.27
285.287	0.3
285.501	0.29
285.714	0.24
285.928	0.31
286.142	0.38
286.356	0.27
286.569	0.32
286.783	0.4
286.997	0.39
287.21	0.32
287.424	0.26
287.637	0.3
287.851	0.31
288.065	0.36
288.278	0.21
288.492	0.32
288.705	0.28
288.919	0.32
289.132	0.18
289.346	0.34
289.559	0.22
289.773	0.21
289.986	0.26
290.2	0.28
290.413	0.37
290.626	0.21
290.84	0.27
291.053	0.26
291.267	0.42
291.48	0.27
291.693	0.26
291.906	0.25
292.12	0.3
292.333	0.3
292.546	0.26
292.76	0.36
292.973	0.3
293.186	0.33
293.399	0.24
293.612	0.28
293.826	0.3
294.039	0.24
294.252	0.3
294.465	0.3
294.678	0.28
294.891	0.32
295.104	0.22
295.317	0.26
295.53	0.27
295.743	0.29
295.956	0.25
296.169	0.4
296.382	0.35
296.595	0.28
296.808	0.23
297.021	0.39
297.234	0.32
297.447	0.29
297.66	0.29
297.873	0.4
298.086	0.34
298.299	0.23
298.511	0.17
298.724	0.3
298.937	0.24
299.15	0.19
299.363	0.28
299.575	0.32
299.788	0.29
300.001	0.26
300.213	0.2
300.426	0.27
300.639	0.24
300.852	0.26
301.064	0.33
301.277	0.36
301.489	0.27
301.702	0.3
301.915	0.28
302.127	0.29
302.34	0.28
302.552	0.23
302.765	0.24
302.977	0.35
303.19	0.24
303.402	0.21
303.615	0.24
303.827	0.22
304.04	0.26
304.252	0.28
304.464	0.26
304.677	0.4
304.889	0.33
305.102	0.21
305.314	0.21
305.526	0.33
305.739	0.32
305.951	0.2
306.163	0.25
306.375	0.35
306.588	0.27
306.8	0.21
307.012	0.19
307.224	0.28
307.436	0.37
307.649	0.14
307.861	0.25
308.073	0.31
308.285	0.25
308.497	0.17
308.709	0.23
308.921	0.3
309.133	0.36
309.346	0.25
309.558	0.19
309.77	0.33
309.982	0.38
310.194	0.29
310.406	0.27
310.617	0.36
310.829	0.31
311.041	0.26
311.253	0.21
311.465	0.24
311.677	0.3
311.889	0.27
312.101	0.18
312.313	0.35
312.524	0.35
312.736	0.25
312.948	0.22
313.16	0.33
313.372	0.3
313.583	0.28
313.795	0.26
314.007	0.29
314.218	0.3
314.43	0.25
314.642	0.22
314.853	0.18
315.065	0.31
315.277	0.27
315.488	0.29
315.7	0.35
315.912	0.32
316.123	0.22
316.335	0.26
316.546	0.36
316.758	0.25
316.969	0.23
317.181	0.28
317.392	0.24
317.604	0.34
317.815	0.22
318.026	0.23
318.238	0.24
318.449	0.27
318.661	0.19
318.872	0.18
319.083	0.23
319.295	0.27
319.506	0.23
319.717	0.29
319.929	0.3
320.14	0.28
320.351	0.26
320.562	0.2
320.774	0.33
320.985	0.29
321.196	0.19
321.407	0.19
321.618	0.34
321.829	0.29
322.041	0.29
322.252	0.23
322.463	0.29
322.674	0.32
322.885	0.2
323.096	0.23
323.307	0.24
323.518	0.29
323.729	0.25
323.94	0.24
324.151	0.24
324.362	0.28
324.573	0.27
324.784	0.23
324.995	0.31
325.206	0.3
325.417	0.25
325.628	0.22
325.838	0.26
326.049	0.28
326.26	0.27
326.471	0.18
326.682	0.29
326.892	0.28
327.103	0.17
327.314	0.24
327.525	0.3
327.735	0.23
327.946	0.24
328.157	0.18
328.368	0.32
328.578	0.28
328.789	0.3
328.999	0.26
329.21	0.23
329.421	0.3
329.631	0.21
329.842	0.22
330.052	0.3
330.263	0.31
330.473	0.31
330.684	0.24
330.894	0.25
331.105	0.2
331.315	0.24
331.526	0.2
331.736	0.39
331.947	0.28
332.157	0.27
332.367	0.18
332.578	0.27
332.788	0.36
332.999	0.3
333.209	0.26
333.419	0.25
333.629	0.31
333.84	0.28
334.05	0.25
334.26	0.35
334.47	0.26
334.681	0.3
334.891	0.24
335.101	0.33
335.311	0.38
335.521	0.25
335.732	0.23
335.942	0.32
336.152	0.31
336.362	0.27
336.572	0.27
336.782	0.31
336.992	0.27
337.202	0.21
337.412	0.21
337.622	0.3
337.832	0.26
338.042	0.23
338.252	0.22
338.462	0.23
338.672	0.26
338.882	0.26
339.092	0.23
339.302	0.33
339.511	0.29
339.721	0.25
339.931	0.16
340.141	0.33
340.351	0.32
340.561	0.23
340.77	0.31
340.98	0.27
341.19	0.29
341.4	0.24
341.609	0.23
341.819	0.25
342.029	0.18
342.238	0.28
342.448	0.24
342.658	0.3
342.867	0.25
343.077	0.25
343.286	0.27
343.496	0.3
343.706	0.34
343.915	0.21
344.125	0.25
344.334	0.28
344.544	0.19
344.753	0.22
344.963	0.24
345.172	0.22
345.381	0.22
345.591	0.18
345.8	0.23
346.01	0.37
346.219	0.31
346.428	0.14
346.638	0.27
346.847	0.28
347.056	0.37
347.266	0.19
347.475	0.27
347.684	0.32
347.893	0.3
348.103	0.3
348.312	0.21
348.521	0.27
348.73	0.28
348.94	0.26
349.149	0.21
349.358	0.25
349.567	0.19
349.776	0.2
349.985	0.22
350.194	0.34
350.403	0.33
350.612	0.16
350.821	0.25
351.03	0.24
351.239	0.19
351.448	0.24
351.657	0.22
351.866	0.38
352.075	0.3
352.284	0.22
352.493	0.24
352.702	0.35
352.911	0.23
353.12	0.26
353.329	0.2
353.538	0.25
353.746	0.31
353.955	0.2
354.164	0.22
354.373	0.2
354.582	0.28
354.79	0.3
354.999	0.28
355.208	0.21
355.416	0.35
355.625	0.2
355.834	0.2
356.042	0.25
356.251	0.22
356.46	0.17
356.668	0.23
356.877	0.34
357.085	0.26
357.294	0.13
357.503	0.29
357.711	0.26
357.92	0.42
358.128	0.25
358.337	0.24
358.545	0.27
358.754	0.22
358.962	0.33
359.17	0.21
359.379	0.27
359.587	0.25
359.796	0.25
360.004	0.35
360.212	0.27
360.421	0.33
360.629	0.25
360.837	0.2
361.046	0.31
361.254	0.37
361.462	0.25
361.67	0.21
361.879	0.3
362.087	0.29
362.295	0.24
362.503	0.22
362.711	0.2
362.92	0.22
363.128	0.2
363.336	0.21
363.544	0.16
363.752	0.24
363.96	0.22
364.168	0.21
364.376	0.27
364.584	0.28
364.792	0.28
365	0.27
365.208	0.28
365.416	0.31
365.624	0.28
365.832	0.22
366.04	0.34
366.248	0.27
366.456	0.22
366.664	0.28
366.872	0.26
367.079	0.23
367.287	0.24
367.495	0.27
367.703	0.21
367.911	0.23
368.118	0.25
368.326	0.21
368.534	0.23
368.742	0.32
368.949	0.23
369.157	0.19
369.365	0.28
369.572	0.25
369.78	0.21
369.988	0.27
370.195	0.25
370.403	0.3
370.61	0.25
370.818	0.2
371.026	0.35
371.233	0.23
371.441	0.24
371.648	0.22
371.856	0.26
372.063	0.29
372.271	0.21
372.478	0.25
372.685	0.21
372.893	0.3
373.1	0.28
373.308	0.24
373.515	0.4
373.722	0.35
373.93	0.25
374.137	0.31
374.344	0.29
374.552	0.34
374.759	0.28
374.966	0.23
375.173	0.22
375.381	0.33
375.588	0.3
375.795	0.24
376.002	0.26
376.209	0.22
376.417	0.31
376.624	0.29
376.831	0.3
377.038	0.24
377.245	0.17
377.452	0.26
377.659	0.26
377.866	0.25
378.073	0.25
378.28	0.23
378.487	0.31
378.694	0.32
378.901	0.23
379.108	0.25
379.315	0.32
379.522	0.4
379.729	0.25
379.936	0.27
380.143	0.32
380.35	0.29
380.557	0.25
380.763	0.25
380.97	0.27
381.177	0.32
381.384	0.25
381.591	0.23
381.797	0.31
382.004	0.32
382.211	0.31
382.418	0.22
382.624	0.32
382.831	0.36
383.038	0.28
383.244	0.24
383.451	0.3
383.658	0.33
383.864	0.24
384.071	0.22
384.277	0.38
384.484	0.24
384.69	0.36
384.897	0.2
385.103	0.26
385.31	0.25
385.516	0.27
385.723	0.21
385.929	0.28
386.136	0.33
386.342	0.32
386.549	0.24
386.755	0.37
386.961	0.3
387.168	0.28
387.374	0.29
387.58	0.33
387.787	0.27
387.993	0.27
388.199	0.24
388.406	0.23
388.612	0.24
388.818	0.26
389.024	0.23
389.231	0.27
389.437	0.39
389.643	0.33
389.849	0.27
390.055	0.3
390.261	0.29
390.467	0.3
390.674	0.29
390.88	0.31
391.086	0.36
391.292	0.29
391.498	0.39
391.704	0.32
391.91	0.27
392.116	0.29
392.322	0.22
392.528	0.35
392.734	0.33
392.94	0.32
393.146	0.27
393.352	0.34
393.557	0.28
393.763	0.3
393.969	0.39
394.175	0.34
394.381	0.37
394.587	0.28
394.792	0.31
394.998	0.39
395.204	0.36
395.41	0.25
395.615	0.35
395.821	0.38
396.027	0.37
396.233	0.27
396.438	0.33
396.644	0.37
396.85	0.4
397.055	0.32
397.261	0.38
397.466	0.35
397.672	0.36
397.878	0.37
398.083	0.38
398.289	0.29
398.494	0.39
398.7	0.38
398.905	0.28
399.111	0.43
399.316	0.28
399.522	0.37
399.727	0.36
399.932	0.36
400.138	0.32
400.343	0.43
400.549	0.35
400.754	0.34
400.959	0.37
401.165	0.34
401.37	0.39
401.575	0.46
401.78	0.38
401.986	0.36
402.191	0.37
402.396	0.4
402.601	0.46
402.807	0.39
403.012	0.36
403.217	0.46
403.422	0.39
403.627	0.45
403.832	0.38
404.037	0.48
404.243	0.49
404.448	0.41
404.653	0.4
404.858	0.44
405.063	0.51
405.268	0.38
405.473	0.39
405.678	0.39
405.883	0.64
406.088	0.49
406.293	0.42
406.498	0.45
406.703	0.54
406.907	0.45
407.112	0.44
407.317	0.5
407.522	0.59
407.727	0.47
407.932	0.5
408.136	0.64
408.341	0.58
408.546	0.56
408.751	0.59
408.956	0.61
409.16	0.69
409.365	0.6
409.57	0.63
409.774	0.61
409.979	0.7
410.184	0.66
410.388	0.66
410.593	0.79
410.798	0.7
411.002	0.74
411.207	0.82
411.411	0.78
411.616	0.71
411.82	0.8
412.025	0.83
412.229	0.92
412.434	0.94
412.638	0.9
412.843	0.93
413.047	0.98
413.252	0.96
413.456	1.06
413.66	1.12
413.865	1.03
414.069	1.13
414.273	1.08
414.478	1.15
414.682	1.22
414.886	1.21
415.091	1.19
415.295	1.23
415.499	1.41
415.703	1.3
415.908	1.45
416.112	1.36
416.316	1.56
416.52	1.6
416.724	1.56
416.929	1.58
417.133	1.9
417.337	1.78
417.541	1.79
417.745	1.8
417.949	1.95
418.153	2.01
418.357	2
418.561	2.27
418.765	2.21
418.969	2.35
419.173	2.34
419.377	2.43
419.581	2.65
419.785	2.57
419.989	2.63
420.193	2.78
420.397	2.88
420.601	3.04
420.804	3.17
421.008	3.1
421.212	3.25
421.416	3.25
421.62	3.26
421.823	3.34
422.027	3.52
422.231	3.47
422.435	3.46
422.638	3.58
422.842	3.63
423.046	3.71
423.249	3.93
423.453	3.9
423.657	4.1
423.86	4.16
424.064	4.26
424.268	4.51
424.471	4.48
424.675	4.71
424.878	4.72
425.082	4.84
425.285	5.23
425.489	5.06
425.692	5.16
425.896	5.29
426.099	5.48
426.303	5.58
426.506	5.71
426.71	5.91
426.913	6.15
427.116	6.31
427.32	6.27
427.523	6.4
427.726	6.73
427.93	6.72
428.133	7.12
428.336	7.17
428.54	7.37
428.743	7.54
428.946	7.91
429.149	7.78
429.353	7.82
429.556	7.95
429.759	7.97
429.962	8.19
430.165	8.34
430.368	7.99
430.571	8.06
430.775	8.08
430.978	7.94
431.181	8.13
431.384	8.14
431.587	8.27
431.79	8.65
431.993	8.64
432.196	8.94
432.399	9.21
432.602	9.39
432.805	9.45
433.008	10.02
433.211	9.96
433.414	10.3
433.616	10.32
433.819	10.3
434.022	10.38
434.225	10.68
434.428	10.58
434.631	11.07
434.833	10.73
435.036	11.06
435.239	11.27
435.442	11.39
435.645	11.47
435.847	11.6
436.05	11.89
436.253	12.11
436.455	12.16
436.658	11.96
436.861	12.31
437.063	12.43
437.266	12.39
437.468	12.82
437.671	12.99
437.874	13.06
438.076	12.9
438.279	13.43
438.481	13.32
438.684	14.21
438.886	13.78
439.089	14.11
439.291	14.07
439.494	14.51
439.696	14.72
439.899	15.18
440.101	15.63
440.303	15.86
440.506	16.54
440.708	16.22
440.91	16.45
441.113	16.55
441.315	16.94
441.517	16.82
441.72	17.24
441.922	16.77
442.124	16.57
442.326	17.27
442.529	17.36
442.731	17.29
442.933	17.84
443.135	17.51
443.337	17.44
443.539	17.96
443.742	17.69
443.944	18.37
444.146	18.01
444.348	18.04
444.55	17.88
444.752	18.05
444.954	17.98
445.156	17.93
445.358	18.29
445.56	18.64
445.762	18.35
445.964	18.79
446.166	18.37
446.368	18.58
446.57	18.56
446.772	18.07
446.974	17.93
447.175	18.31
447.377	17.9
447.579	18.17
447.781	17.93
447.983	17.8
448.184	17.25
448.386	17.69
448.588	17.18
448.79	17.23
448.991	17.33
449.193	17.47
449.395	16.86
449.597	16.31
449.798	16.37
450	15.93
450.202	15.84
450.403	15.88
450.605	15.69
450.806	15.29
451.008	15.24
451.21	14.98
451.411	14.53
451.613	13.7
451.814	14.08
452.016	14.1
452.217	13.32
452.419	13.23
452.62	12.84
452.821	12.7
453.023	12.53
453.224	12.25
453.426	11.8
453.627	11.04
453.828	11.28
454.03	11.31
454.231	11.25
454.432	11.02
454.634	10.8
454.835	10.41
455.036	10.36
455.238	9.94
455.439	9.71
455.64	9.54
455.841	9.32
456.042	9.45
456.244	9.12
456.445	8.93
456.646	8.65
456.847	8.47
457.048	8.47
457.249	8.46
457.45	8.31
457.651	7.72
457.852	7.57
458.054	7.23
458.255	7.23
458.456	7.36
458.657	7.06
458.858	6.71
459.058	6.64
459.259	6.78
459.46	6.47
459.661	6.41
459.862	6.47
460.063	6.27
460.264	6.19
460.465	6.01
460.666	6.07
460.866	5.75
461.067	5.52
461.268	5.55
461.469	5.46
461.67	5.44
461.87	5.3
462.071	5.25
462.272	5.1
462.473	5.08
462.673	5.3
462.874	5.14
463.075	5.01
463.275	5.11
463.476	5.13
463.676	5.11
463.877	4.86
464.078	4.92
464.278	4.92
464.479	4.83
464.679	4.73
464.88	4.63
465.08	4.63
465.281	4.5
465.481	4.35
465.682	4.12
465.882	4.13
466.083	4.1
466.283	4.04
466.483	3.91
466.684	3.73
466.884	3.6
467.085	3.69
467.285	3.7
467.485	3.6
467.686	3.57
467.886	3.4
468.086	3.38
468.286	3.43
468.487	3.48
468.687	3.27
468.887	3.21
469.087	3.4
469.287	3.27
469.488	3.03
469.688	3.2
469.888	3.27
470.088	3.17
470.288	3.01
470.488	3.05
470.688	2.89
470.888	2.84
471.088	2.65
471.288	2.77
471.488	2.78
471.688	2.73
471.888	2.64
472.088	2.8
472.288	2.73
472.488	2.63
472.688	2.61
472.888	2.62
473.088	2.61
473.288	2.5
473.488	2.47
473.688	2.56
473.887	2.53
474.087	2.44
474.287	2.49
474.487	2.38
474.687	2.4
474.886	2.34
475.086	2.29
475.286	2.34
475.486	2.32
475.685	2.22
475.885	2.21
476.085	2.33
476.284	2.26
476.484	2.29
476.684	2.21
476.883	2.31
477.083	2.23
477.282	2.13
477.482	2.22
477.681	2.14
477.881	2.07
478.08	2.08
478.28	2.02
478.479	2.1
478.679	2.11
478.878	2.1
479.078	1.99
479.277	2.03
479.477	2.03
479.676	2.03
479.875	2.03
480.075	1.94
480.274	2.03
480.473	2.09
480.673	2.07
480.872	2.11
481.071	2.02
481.271	2.01
481.47	2
481.669	1.99
481.868	2
482.067	1.98
482.267	1.91
482.466	1.92
482.665	1.96
482.864	1.99
483.063	1.93
483.262	2
483.461	2.05
483.661	2.01
483.86	1.99
484.059	2.06
484.258	2.03
484.457	2.06
484.656	2.05
484.855	2.07
485.054	1.93
485.253	1.96
485.452	1.99
485.651	2.03
485.849	2.04
486.048	2.01
486.247	2.02
486.446	2.12
486.645	2.02
486.844	2.05
487.043	2.04
487.241	2.05
487.44	2.05
487.639	2.13
487.838	2.09
488.037	2.11
488.235	2.21
488.434	2.17
488.633	2.04
488.831	2.24
489.03	2.2
489.229	2.19
489.427	2.2
489.626	2.28
489.825	2.3
490.023	2.3
490.222	2.26
490.42	2.32
490.619	2.33
490.817	2.36
491.016	2.32
491.214	2.44
491.413	2.4
491.611	2.33
491.81	2.42
492.008	2.44
492.207	2.56
492.405	2.52
492.604	2.52
492.802	2.58
493	2.62
493.199	2.62
493.397	2.65
493.595	2.68
493.794	2.68
493.992	2.78
494.19	2.73
494.388	2.85
494.587	2.72
494.785	2.79
494.983	2.75
495.181	2.81
495.379	2.89
495.578	2.97
495.776	2.97
495.974	2.91
496.172	3
496.37	3.06
496.568	3.1
496.766	3.07
496.964	3.2
497.162	3.16
497.36	3.19
497.558	3.26
497.756	3.3
497.954	3.28
498.152	3.36
498.35	3.45
498.548	3.33
498.746	3.38
498.944	3.39
499.142	3.44
499.34	3.57
499.538	3.63
499.736	3.51
499.933	3.63
500.131	3.6
500.329	3.77
500.527	3.74
500.725	3.87
500.922	3.85
501.12	3.84
501.318	3.95
501.516	3.96
501.713	4.03
501.911	3.95
502.109	3.94
502.306	4.12
502.504	4
502.701	4.11
502.899	4.13
503.097	4.33
503.294	4.23
503.492	4.35
503.689	4.36
503.887	4.36
504.084	4.48
504.282	4.4
504.479	4.41
504.677	4.54
504.874	4.55
505.072	4.47
505.269	4.63
505.466	4.67
505.664	4.73
505.861	4.64
506.059	4.76
506.256	4.8
506.453	4.8
506.651	4.99
506.848	4.95
507.045	4.95
507.242	4.97
507.44	4.94
507.637	5.08
507.834	5.02
508.031	5.19
508.229	5.11
508.426	5.12
508.623	5.28
508.82	5.3
509.017	5.24
509.214	5.26
509.411	5.38
509.608	5.36
509.805	5.46
510.003	5.49
510.2	5.55
510.397	5.65
510.594	5.5
510.791	5.65
510.988	5.63
511.184	5.65
511.381	5.5
511.578	5.7
511.775	5.83
511.972	5.73
512.169	5.75
512.366	5.82
512.563	5.98
512.76	5.97
512.956	6
513.153	5.93
513.35	5.94
513.547	5.9
513.744	6.02
513.94	6
514.137	6.14
514.334	6.14
514.53	6.14
514.727	6.33
514.924	6.28
515.12	6.25
515.317	6.29
515.514	6.17
515.71	6.17
515.907	6.4
516.103	6.42
516.3	6.35
516.497	6.52
516.693	6.46
516.89	6.5
517.086	6.47
517.283	6.46
517.479	6.39
517.676	6.62
517.872	6.66
518.068	6.64
518.265	6.63
518.461	6.55
518.658	6.69
518.854	6.68
519.05	6.8
519.247	6.82
519.443	6.77
519.639	6.9
519.836	6.8
520.032	6.73
520.228	6.86
520.424	6.87
520.621	6.95
520.817	6.92
521.013	6.93
521.209	7.16
521.405	7.07
521.601	7.03
521.798	6.95
521.994	7.03
522.19	6.96
522.386	7.05
522.582	7.09
522.778	7.25
522.974	7.11
523.17	7.16
523.366	7.11
523.562	7.14
523.758	7.17
523.954	7.05
524.15	7.23
524.346	7.28
524.542	7.27
524.738	7.18
524.934	7.35
525.129	7.28
525.325	7.22
525.521	7.23
525.717	7.45
525.913	7.25
526.109	7.33
526.304	7.43
526.5	7.38
526.696	7.46
526.892	7.4
527.087	7.62
527.283	7.5
527.479	7.48
527.674	7.35
527.87	7.51
528.066	7.5
528.261	7.54
528.457	7.43
528.653	7.6
528.848	7.5
529.044	7.65
529.239	7.41
529.435	7.55
529.63	7.47
529.826	7.56
530.021	7.58
530.217	7.6
530.412	7.54
530.608	7.62
530.803	7.63
530.999	7.52
531.194	7.59
531.389	7.69
531.585	7.7
531.78	7.79
531.975	7.73
532.171	7.77
532.366	7.7
532.561	7.76
532.757	7.63
532.952	7.86
533.147	7.61
533.342	7.8
533.538	7.67
533.733	7.9
533.928	7.53
534.123	7.79
534.318	7.8
534.513	7.71
534.709	7.94
534.904	7.8
535.099	7.89
535.294	7.9
535.489	7.89
535.684	7.81
535.879	7.79
536.074	7.93
536.269	7.93
536.464	7.94
536.659	7.83
536.854	7.87
537.049	7.94
537.244	7.84
537.439	7.86
537.634	7.94
537.828	7.91
538.023	7.91
538.218	7.89
538.413	7.86
538.608	7.89
538.803	7.97
538.997	7.93
539.192	7.96
539.387	7.95
539.582	7.9
539.776	7.9
539.971	8
540.166	8.02
540.36	7.9
540.555	8.04
540.75	7.96
540.944	7.99
541.139	7.94
541.334	8.02
541.528	7.96
541.723	8.05
541.917	8.06
542.112	7.92
542.306	7.84
542.501	7.88
542.695	7.97
542.89	7.93
543.084	8.04
543.279	8.03
543.473	8.05
543.668	8.11
543.862	7.87
544.056	7.91
544.251	8.08
544.445	8.1
544.64	8.14
544.834	7.77
545.028	7.68
545.222	8.01
545.417	8.24
545.611	8.1
545.805	8.04
546	7.8
546.194	8.04
546.388	8.02
546.582	7.94
546.776	8.04
546.97	8.09
547.165	8.01
547.359	8
547.553	8.03
547.747	8.03
547.941	8.23
548.135	8.02
548.329	8.16
548.523	8.05
548.717	8.04
548.911	7.98
549.105	8.03
549.299	8.12
549.493	8.04
549.687	7.99
549.881	8.15
550.075	8.08
550.269	7.99
550.463	8.06
550.657	8.1
550.85	8.04
551.044	7.96
551.238	8.11
551.432	8.09
551.626	8.12
551.82	8.1
552.013	7.99
552.207	8.19
552.401	8.14
552.594	8.05
552.788	8.02
552.982	8
553.176	8.03
553.369	8.27
553.563	8.13
553.756	8.06
553.95	8.16
554.144	8.15
554.337	8.15
554.531	7.87
554.724	8.11
554.918	8.17
555.111	8.03
555.305	8.04
555.498	8.05
555.692	8.17
555.885	8.11
556.079	8.09
556.272	8.04
556.466	8.05
556.659	8.08
556.852	8.21
557.046	8.01
557.239	8.01
557.432	7.98
557.626	8.14
557.819	8.22
558.012	8.16
558.206	8.2
558.399	8.09
558.592	8.04
558.785	8.02
558.979	8.12
559.172	8.07
559.365	8.13
559.558	8.08
559.751	8.07
559.944	8.16
560.138	8
560.331	8.17
560.524	8.15
560.717	8.12
560.91	8.08
561.103	8.17
561.296	7.98
561.489	8.1
561.682	8.2
561.875	8.21
562.068	8.25
562.261	8.05
562.454	8.21
562.647	8.07
562.84	8.17
563.032	8.13
563.225	8.05
563.418	8.09
563.611	8.12
563.804	8.16
563.997	7.92
564.19	7.87
564.382	8.17
564.575	8.08
564.768	8.08
564.961	8.14
565.153	8.05
565.346	7.96
565.539	8.11
565.731	8.08
565.924	8.16
566.117	8.23
566.309	8.11
566.502	8.02
566.695	7.96
566.887	8.15
567.08	8.07
567.272	8.13
567.465	8
567.657	8.11
567.85	8.04
568.042	8.14
568.235	8.16
568.427	7.89
568.62	8.05
568.812	8.04
569.005	8.11
569.197	7.98
569.389	8.06
569.582	8.03
569.774	8.06
569.966	8.02
570.159	7.93
570.351	7.98
570.543	8
570.736	8.02
570.928	7.86
571.12	8.02
571.312	7.96
571.505	7.76
571.697	7.96
571.889	7.98
572.081	7.99
572.273	7.92
572.465	8.06
572.658	7.95
572.85	8.02
573.042	8.02
573.234	7.92
573.426	7.96
573.618	7.95
573.81	8.01
574.002	7.95
574.194	8.03
574.386	7.92
574.578	7.8
574.77	7.87
574.962	7.91
575.154	7.77
575.346	7.85
575.538	7.87
575.729	7.79
575.921	7.85
576.113	7.97
576.305	7.94
576.497	7.98
576.689	7.79
576.88	7.75
577.072	7.94
577.264	7.9
577.456	7.88
577.647	7.83
577.839	7.97
578.031	7.8
578.223	7.8
578.414	7.62
578.606	7.83
578.798	7.86
578.989	7.82
579.181	7.89
579.372	7.79
579.564	7.81
579.755	7.76
579.947	7.71
580.139	7.87
580.33	7.65
580.522	7.67
580.713	7.76
580.905	7.7
581.096	7.84
581.287	7.7
581.479	7.68
581.67	7.74
581.862	7.7
582.053	7.72
582.244	7.58
582.436	7.8
582.627	7.71
582.818	7.6
583.01	7.65
583.201	7.71
583.392	7.57
583.583	7.62
583.775	7.49
583.966	7.57
584.157	7.63
584.348	7.72
584.54	7.54
584.731	7.6
584.922	7.57
585.113	7.48
585.304	7.51
585.495	7.55
585.686	7.71
585.877	7.6
586.068	7.64
586.259	7.58
586.45	7.57
586.641	7.52
586.832	7.59
587.023	7.47
587.214	7.47
587.405	7.53
587.596	7.35
587.787	7.35
587.978	7.48
588.169	7.38
588.36	7.39
588.551	7.45
588.742	7.47
588.932	7.43
589.123	7.26
589.314	7.42
589.505	7.34
589.696	7.35
589.886	7.31
590.077	7.36
590.268	7.24
590.458	7.19
590.649	7.1
590.84	7.29
591.03	7.33
591.221	7.24
591.412	7.1
591.602	7.31
591.793	7.21
591.984	7.26
592.174	7.23
592.365	7.38
592.555	7.13
592.746	7.07
592.936	7.14
593.127	7.19
593.317	7.22
593.508	7.16
593.698	7.11
593.889	7.08
594.079	7.06
594.269	7.03
594.46	7.05
594.65	7.08
594.84	7.07
595.031	6.88
595.221	6.96
595.411	7.03
595.602	6.98
595.792	6.95
595.982	6.93
596.172	7
596.363	6.89
596.553	6.92
596.743	6.95
596.933	6.9
597.123	6.9
597.314	6.73
597.504	6.72
597.694	6.91
597.884	6.8
598.074	6.8
598.264	6.84
598.454	6.86
598.644	6.75
598.834	6.76
599.024	6.69
599.214	6.69
599.404	6.83
599.594	6.69
599.784	6.65
599.974	6.72
600.164	6.7
600.354	6.6
600.544	6.61
600.734	6.63
600.924	6.58
601.114	6.53
601.303	6.54
601.493	6.59
601.683	6.57
601.873	6.56
602.063	6.44
602.252	6.52
602.442	6.4
602.632	6.47
602.821	6.43
603.011	6.44
603.201	6.43
603.39	6.4
603.58	6.26
603.77	6.34
603.959	6.46
604.149	6.35
604.339	6.36
604.528	6.42
604.718	6.35
604.907	6.27
605.097	6.26
605.286	6.21
605.476	6.22
605.665	6.26
605.855	6.14
606.044	6.3
606.234	6.3
606.423	6.16
606.612	6.15
606.802	6.1
606.991	6.23
607.181	6.17
607.37	6.1
607.559	5.86
607.749	6.05
607.938	5.96
608.127	6.01
608.316	6.03
608.506	6
608.695	6.02
608.884	6.02
609.073	6.05
609.263	6.06
609.452	6
609.641	5.82
609.83	5.81
610.019	5.91
610.208	5.84
610.397	5.87
610.586	5.86
610.775	5.75
610.965	5.82
611.154	5.71
611.343	5.77
611.532	5.73
611.721	5.83
611.91	5.68
612.099	5.69
612.287	5.6
612.476	5.55
612.665	5.7
612.854	5.59
613.043	5.66
613.232	5.56
613.421	5.55
613.61	5.54
613.798	5.58
613.987	5.62
614.176	5.58
614.365	5.56
614.554	5.55
614.742	5.51
614.931	5.35
615.12	5.49
615.309	5.43
615.497	5.37
615.686	5.35
615.875	5.4
616.063	5.32
616.252	5.32
616.44	5.44
616.629	5.33
616.818	5.29
617.006	5.3
617.195	5.23
617.383	5.2
617.572	5.18
617.76	5.18
617.949	5.16
618.137	5.24
618.326	5.25
618.514	5.07
618.703	5
618.891	5.17
619.079	4.97
619.268	5.14
619.456	4.99
619.644	5.16
619.833	5.07
620.021	5.04
620.209	4.91
620.398	5.01
620.586	4.91
620.774	5
620.962	4.94
621.151	5
621.339	4.91
621.527	4.81
621.715	4.81
621.903	4.83
622.092	4.74
622.28	4.88
622.468	4.68
622.656	4.77
622.844	4.75
623.032	4.75
623.22	4.65
623.408	4.85
623.596	4.73
623.784	4.76
623.972	4.62
624.16	4.66
624.348	4.66
624.536	4.72
624.724	4.56
624.912	4.69
625.1	4.66
625.288	4.57
625.476	4.51
625.664	4.58
625.851	4.48
626.039	4.51
626.227	4.51
626.415	4.46
626.603	4.42
626.79	4.45
626.978	4.43
627.166	4.46
627.354	4.39
627.541	4.41
627.729	4.21
627.917	4.47
628.104	4.4
628.292	4.28
628.48	4.31
628.667	4.28
628.855	4.4
629.042	4.37
629.23	4.25
629.418	4.2
629.605	4.27
629.793	4.14
629.98	4.19
630.168	4.17
630.355	4.21
630.543	4.18
630.73	4.07
630.917	4.07
631.105	4.26
631.292	4.07
631.48	4.06
631.667	4.12
631.854	4.02
632.042	4.04
632.229	3.96
632.416	4.06
632.604	3.96
632.791	3.88
632.978	4.01
633.165	3.92
633.353	4
633.54	3.96
633.727	3.83
633.914	3.84
634.101	3.82
634.289	3.96
634.476	3.73
634.663	3.76
634.85	3.8
635.037	3.72
635.224	3.7
635.411	3.76
635.598	3.7
635.785	3.7
635.972	3.64
636.159	3.7
636.346	3.68
636.533	3.57
636.72	3.64
636.907	3.67
637.094	3.62
637.281	3.47
637.468	3.57
637.655	3.57
637.842	3.57
638.029	3.51
638.215	3.57
638.402	3.51
638.589	3.41
638.776	3.47
638.963	3.46
639.149	3.47
639.336	3.52
639.523	3.47
639.709	3.4
639.896	3.43
640.083	3.39
640.27	3.45
640.456	3.32
640.643	3.39
640.829	3.26
641.016	3.35
641.203	3.27
641.389	3.26
641.576	3.34
641.762	3.27
641.949	3.25
642.135	3.28
642.322	3.24
642.508	3.11
642.695	3.24
642.881	3.11
643.068	3.08
643.254	3.15
643.441	3.14
643.627	3.24
643.813	3.11
644	3.15
644.186	3.02
644.372	3.12
644.559	3.11
644.745	3.06
644.931	2.99
645.118	3.03
645.304	3
645.49	2.96
645.676	2.94
645.862	2.96
646.049	3.03
646.235	2.96
646.421	3.07
646.607	3.01
646.793	2.9
646.979	2.81
647.165	2.87
647.352	2.89
647.538	2.84
647.724	2.86
647.91	2.81
648.096	2.83
648.282	2.85
648.468	2.78
648.654	2.78
648.84	2.81
649.026	2.78
649.212	2.71
649.397	2.68
649.583	2.74
649.769	2.77
649.955	2.71
650.141	2.75
650.327	2.73
650.513	2.59
650.698	2.66
650.884	2.56
651.07	2.66
651.256	2.65
651.442	2.59
651.627	2.58
651.813	2.6
651.999	2.59
652.184	2.56
652.37	2.56
652.556	2.55
652.741	2.55
652.927	2.43
653.113	2.51
653.298	2.53
653.484	2.48
653.669	2.4
653.855	2.43
654.04	2.51
654.226	2.47
654.412	2.41
654.597	2.39
654.782	2.4
654.968	2.46
655.153	2.42
655.339	2.35
655.524	2.3
655.71	2.4
655.895	2.37
656.08	2.34
656.266	2.41
656.451	2.34
656.636	2.23
656.822	2.29
657.007	2.28
657.192	2.32
657.378	2.22
657.563	2.19
657.748	2.31
657.933	2.27
658.118	2.2
658.304	2.22
658.489	2.26
658.674	2.26
658.859	2.16
659.044	2.12
659.229	2.2
659.414	2.13
659.599	2.16
659.785	2.06
659.97	2.11
660.155	2.15
660.34	2.16
660.525	2.09
660.71	2.04
660.895	2.09
661.08	2.03
661.264	2.04
661.449	2.14
661.634	2.15
661.819	2.06
662.004	1.99
662.189	1.96
662.374	1.98
662.559	1.94
662.743	1.92
662.928	2
663.113	1.91
663.298	1.91
663.483	2
663.667	1.95
663.852	1.89
664.037	1.99
664.221	1.83
664.406	1.97
664.591	2.02
664.775	1.91
664.96	1.82
665.145	1.84
665.329	1.96
665.514	1.85
665.698	1.85
665.883	1.77
666.068	1.91
666.252	1.81
666.437	1.76
666.621	1.83
666.806	1.86
666.99	1.82
667.174	1.8
667.359	1.85
667.543	1.73
667.728	1.76
667.912	1.67
668.096	1.74
668.281	1.73
668.465	1.79
668.649	1.74
668.834	1.67
669.018	1.66
669.202	1.72
669.387	1.66
669.571	1.79
669.755	1.67
669.939	1.64
670.124	1.58
670.308	1.73
670.492	1.63
670.676	1.68
670.86	1.64
671.044	1.57
671.228	1.69
671.413	1.55
671.597	1.63
671.781	1.58
671.965	1.65
672.149	1.57
672.333	1.58
672.517	1.58
672.701	1.57
672.885	1.56
673.069	1.44
673.253	1.61
673.437	1.54
673.621	1.51
673.804	1.55
673.988	1.55
674.172	1.48
674.356	1.39
674.54	1.55
674.724	1.66
674.908	1.46
675.091	1.53
675.275	1.5
675.459	1.52
675.643	1.49
675.826	1.45
676.01	1.41
676.194	1.46
676.377	1.5
676.561	1.52
676.745	1.46
676.928	1.48
677.112	1.49
677.296	1.42
677.479	1.41
677.663	1.42
677.846	1.41
678.03	1.38
678.213	1.3
678.397	1.42
678.58	1.36
678.764	1.32
678.947	1.3
679.131	1.34
679.314	1.37
679.498	1.3
679.681	1.34
679.865	1.35
680.048	1.29
680.231	1.31
680.415	1.27
680.598	1.26
680.781	1.33
680.965	1.3
681.148	1.37
681.331	1.25
681.514	1.34
681.698	1.28
681.881	1.28
682.064	1.28
682.247	1.31
682.43	1.13
682.614	1.27
682.797	1.3
682.98	1.29
683.163	1.14
683.346	1.22
683.529	1.22
683.712	1.16
683.895	1.22
684.078	1.15
684.261	1.15
684.444	1.18
684.627	1.21
684.81	1.12
684.993	1.19
685.176	1.19
685.359	1.1
685.542	1.11
685.725	1.25
685.908	1.15
686.091	1.2
686.274	1.19
686.457	1.18
686.639	1.14
686.822	1.19
687.005	1.19
687.188	1.17
687.371	1.24
687.553	1.17
687.736	1.17
687.919	1.19
688.102	1.16
688.284	1.08
688.467	1.08
688.65	1.08
688.832	0.98
689.015	1.03
689.197	1.01
689.38	1.19
689.563	1.13
689.745	1.02
689.928	0.99
690.11	1.04
690.293	1.08
690.475	0.94
690.658	1.06
690.84	1.01
691.023	0.98
691.205	0.97
691.388	1.01
691.57	1.05
691.752	1.04
691.935	0.93
692.117	0.92
692.3	1.04
692.482	0.97
692.664	0.96
692.847	0.97
693.029	1.03
693.211	0.97
693.393	0.94
693.576	0.91
693.758	0.96
693.94	0.93
694.122	0.98
694.304	0.91
694.487	0.9
694.669	1.07
694.851	0.85
695.033	0.96
695.215	0.93
695.397	0.84
695.579	0.96
695.761	0.87
695.943	0.82
696.125	0.97
696.308	0.95
696.49	0.75
696.671	1.08
696.853	0.86
697.035	1.15
697.217	0.88
697.399	0.96
697.581	0.88
697.763	0.87
697.945	0.85
698.127	0.9
698.309	0.94
698.491	0.86
698.672	0.9
698.854	0.87
699.036	0.98
699.218	0.82
699.399	0.91
699.581	0.94
699.763	0.86
699.945	0.78
700.126	0.74
700.308	0.87
700.49	0.83
700.671	0.71
700.853	0.76
701.035	0.8
701.216	0.82
701.398	0.75
701.579	0.8
701.761	0.96
701.943	0.76
702.124	0.78
702.306	0.74
702.487	0.95
702.669	0.79
702.85	0.74
703.031	0.67
703.213	0.95
703.394	0.85
703.576	0.75
703.757	0.9
703.938	0.82
704.12	0.97
704.301	0.75
704.483	0.71
704.664	0.78
704.845	0.91
705.026	0.82
705.208	0.73
705.389	0.77
705.57	0.75
705.751	0.71
705.933	0.78
706.114	0.84
706.295	0.71
706.476	0.66
706.657	0.83
706.838	0.74
707.02	0.81
707.201	0.69
707.382	0.7
707.563	0.72
707.744	0.66
707.925	0.63
708.106	0.67
708.287	0.75
708.468	0.82
708.649	0.72
708.83	0.77
709.011	0.65
709.192	0.79
709.373	0.65
709.554	0.69
709.734	0.81
709.915	0.75
710.096	0.69
710.277	0.48
710.458	0.65
710.639	0.77
710.819	0.59
711	0.56
711.181	0.73
711.362	0.76
711.542	0.72
711.723	0.63
711.904	0.75
712.085	0.71
712.265	0.64
712.446	0.6
712.627	0.65
712.807	0.65
712.988	0.68
713.168	0.5
713.349	0.71
713.53	0.47
713.71	0.54
713.891	0.51
714.071	0.6
714.252	0.64
714.432	0.61
714.613	0.47
714.793	0.62
714.974	0.79
715.154	0.69
715.334	0.69
715.515	0.76
715.695	0.56
715.876	0.54
716.056	0.57
716.236	0.54
716.417	0.63
716.597	0.58
716.777	0.84
716.957	0.61
717.138	0.63
717.318	0.57
717.498	0.5
717.678	0.57
717.859	0.65
718.039	0.37
718.219	0.62
718.399	0.64
718.579	0.52
718.759	0.56
718.939	0.64
719.12	0.59
719.3	0.61
719.48	0.44
719.66	0.46
719.84	0.74
720.02	0.55
720.2	0.44
720.38	0.55
720.56	0.77
720.74	0.41
720.92	0.57
721.1	0.73
721.279	0.69
721.459	0.59
721.639	0.42
721.819	0.5
721.999	0.6
722.179	0.65
722.359	0.47
722.538	0.5
722.718	0.53
722.898	0.54
723.078	0.65
723.257	0.44
723.437	0.53
723.617	0.57
723.797	0.52
723.976	0.53
724.156	0.58
724.336	0.66
724.515	0.77
724.695	0.38
724.874	0.56
725.054	0.65
725.234	0.45
725.413	0.48
725.593	0.53
725.772	0.46
725.952	0.49
726.131	0.49
726.311	0.47
726.49	0.54
726.67	0.51
726.849	0.39
727.028	0.61
727.208	0.48
727.387	0.52
727.567	0.37
727.746	0.48
727.925	0.51
728.105	0.38
728.284	0.48
728.463	0.49
728.643	0.63
728.822	0.47
729.001	0.47
729.18	0.56
729.359	0.59
729.539	0.52
729.718	0.51
729.897	0.55
730.076	0.44
730.255	0.4
730.434	0.49
730.614	0.59
730.793	0.61
730.972	0.43
731.151	0.55
731.33	0.58
731.509	0.51
731.688	0.47
731.867	0.53
732.046	0.28
732.225	0.71
732.404	0.38
732.583	0.35
732.762	0.44
732.941	0.6
733.12	0.42
733.298	0.43
733.477	0.65
733.656	0.5
733.835	0.39
734.014	0.57
734.193	0.56
734.371	0.5
734.55	0.54
734.729	0.38
734.908	0.45
735.086	0.58
735.265	0.68
735.444	0.28
735.623	0.37
735.801	0.5
735.98	0.5
736.159	0.44
736.337	0.58
736.516	0.53
736.694	0.62
736.873	0.45
737.052	0.74
737.23	0.68
737.409	0.46
737.587	0.72
737.766	0.39
737.944	0.53
738.123	0.54
738.301	0.6
738.479	0.5
738.658	0.47
738.836	0.25
739.015	0.53
739.193	0.66
739.371	0.44
739.55	0.43
739.728	0.4
739.906	0.76
740.085	0.74
740.263	0.56
740.441	0.2
740.62	0.79
740.798	0.6
740.976	0.34
741.154	0.35
741.332	0.69
741.511	0.46
741.689	0.52
741.867	0.48
742.045	0.56
742.223	0.44
742.401	0.34
742.579	0.37
742.757	0.58
742.935	0.29
743.114	0.56
743.292	0.41
743.47	0.57
743.648	0.5
743.826	0.47
744.004	0.5
744.181	0.52
744.359	0.39
744.537	0.45
744.715	0.4
744.893	0.43
745.071	0.51
745.249	0.45
745.427	0.53
745.605	0.53
745.782	0.5
745.96	0.63
746.138	0.66
746.316	0.51
746.493	0.35
746.671	0.46
746.849	0.43
747.027	0.45
747.204	0.34
747.382	0.53
747.56	0.28
747.737	0.39
747.915	0.39
748.093	0.44
748.27	0.35
748.448	0.4
748.625	0.29
748.803	0.32
748.98	0.29
749.158	0.52
749.335	0.6
749.513	0.36
749.69	0.38
749.868	0.35
750.045	0.47
750.223	0.38
750.4	0.18
750.578	0.73
750.755	0.46
750.932	0.31
751.11	0.55
751.287	0.29
751.464	0.55
751.642	0.31
751.819	0.57
751.996	0.57
752.173	0.34
752.351	0.25
752.528	0.47
752.705	0.39
752.882	0.22
753.06	0.4
753.237	0.44
753.414	0.61
753.591	0.7
753.768	0.52
753.945	0.37
754.122	0.36
754.299	0.54
754.476	0.21
754.654	0.25
754.831	0.47
755.008	0.49
755.185	0.26
755.362	0.36
755.539	0.5
755.716	0.25
755.892	0.41
756.069	0.33
756.246	0.45
756.423	0.41
756.6	0.5
756.777	0.33
756.954	0.45
757.131	0.42
757.307	0.29
757.484	0.39
757.661	0.33
757.838	0.45
758.015	0.24
758.191	0.44
758.368	0.55
758.545	0.56
758.721	0.49
758.898	0.25
759.075	0.31
759.251	0.46
759.428	0.39
759.605	0.28
759.781	0.38
759.958	0.45
760.134	0.4
760.311	0.24
760.488	0.62
760.664	0.58
760.841	0.31
761.017	0.29
761.194	0.49
761.37	0.59
761.547	0.37
761.723	0.37
761.899	0.6
762.076	0.26
762.252	0.23
762.429	0.25
762.605	0.44
762.781	0.32
762.958	0.48
763.134	0.23
763.31	0.28
763.486	0.61
763.663	0.11
763.839	0.29
764.015	0.13
764.191	0.38
764.368	0.45
764.544	0.25
764.72	0.32
764.896	0.38
765.072	0.45
765.248	0.35
765.425	0.33
765.601	0.34
765.777	0.34
765.953	0.11
766.129	0.2
766.305	0.29
766.481	0.37
766.657	0.34
766.833	0.56
767.009	0.27
767.185	0.38
767.361	0.24
767.537	0.28
767.713	0.48
767.889	0.21
768.065	0.32
768.24	0.51
768.416	0.5
768.592	0.24
768.768	0.43
768.944	0.51
769.12	0.3
769.295	0.35
769.471	0.26
769.647	0.29
769.823	0.44
769.998	0.25
770.174	0.2
770.35	0.69
770.525	0.7
770.701	0.43
770.877	0.33
771.052	0.34
771.228	0.42
771.403	0.35
771.579	0.36
771.755	0.67
771.93	0.34
772.106	0.27
772.281	0.1
772.457	0.54
772.632	0.42
772.808	0.23
772.983	0.24
773.159	0.24
773.334	0.59
773.509	0.29
773.685	0.31
773.86	0.91
774.036	0.59
774.211	0.32
774.386	0.31
774.562	0.35
774.737	0.56
774.912	0.19
775.087	0.59
775.263	0.29
775.438	0.39
775.613	0.37
775.788	0.36
775.964	0.54
776.139	0.95
776.314	0.09
776.489	0.59
776.664	0.37
776.839	0.23
777.014	0.61
777.19	0.56
777.365	0.7
777.54	0.69
777.715	0.23
777.89	0.32
778.065	0.2
778.24	0.29
778.415	0.51
778.59	0.04
778.765	0.32
778.94	0.52
779.115	0.42
779.289	0.41
779.464	0.3
779.639	0.28
779.814	0.2
779.989	0.21
780.164	0.55
780.339	0.44
780.513	0.28
780.688	0.31
780.863	0.44
781.038	0.65
781.212	0.27
781.387	0.31
781.562	0.74
781.737	0.22
781.911	0.58
782.086	0.34
782.261	0.35
782.435	0.85
782.61	0.39
782.784	0.39
782.959	0.73
783.134	0.26
783.308	0.16
783.483	0.32
783.657	1.01
783.832	0.63
784.006	0.17
784.181	0.52
784.355	0.55
784.53	0.3
784.704	0.21
784.878	0.76
785.053	0.62
785.227	0.74
785.402	0.82
785.576	0.24
785.75	0.25
785.925	0.37
786.099	0.48
786.273	0.52
786.448	0.74
786.622	0.57
786.796	0.4
786.97	0.36
787.145	1.02
787.319	-0.02
787.493	0.32
787.667	0.05
787.841	0.59
788.015	0.85
788.19	0.31
788.364	0.49
788.538	0.81
788.712	0.69
788.886	0.28
789.06	0.73
789.234	0.8
789.408	0.43
789.582	0.32
789.756	0.25
789.93	0.33
790.104	0.35
790.278	0.43
790.452	0.29
790.626	0.62
790.8	0.3
790.973	0.68
791.147	0.83
791.321	0.79
791.495	0.72
791.669	0.63
791.843	0.54
792.016	0.43
792.19	1.07
792.364	0.16
792.538	1.02
792.711	0.67
792.885	0.25
793.059	0.33
793.233	-0.18
793.406	0.71
793.58	0.47
793.754	0.65
793.927	0.61
794.101	0.81
794.274	0.49
794.448	0.83
794.622	0.25
794.795	0.86
794.969	0.21
795.142	0.74
795.316	0.34
795.489	0.58
795.663	0.78
795.836	0.37
796.009	0.25
796.183	1.15
796.356	0.44
796.53	0.57
796.703	0.45
796.876	1.05
797.05	0.44
797.223	0.29
797.396	0.63
797.57	0.54
797.743	0.83
797.916	0.58
798.09	0.56
798.263	0.89
798.436	0.79
798.609	0.28
798.782	0.46
798.956	0.79
799.129	0.71
799.302	0.56
799.475	0.06
799.648	0.37
799.821	0.39
799.994	0.56
800.167	-0.23
800.34	0.62
800.514	0.93
800.687	0.33
800.86	0.22
801.033	0.84
801.206	0.61
801.379	0.38
801.551	0.85
801.724	0.83
801.897	1.17
802.07	0.46
802.243	0.07
802.416	0.42
802.589	0.77
802.762	0.69
802.935	0.7
803.107	1.01
803.28	1.05
803.453	0.73
803.626	0.35
803.798	0.73
803.971	0.36
804.144	0.86
804.317	0.5
804.489	1.12
804.662	0.33
804.835	0.45
805.007	0.18
805.18	1.02
805.353	0.66
805.525	0.35
805.698	0.48
805.87	0.83
806.043	0.79
806.215	0.34
806.388	0.23
806.56	0.71
806.733	1.07
806.905	0.44
807.078	0.62
807.25	0.33
807.423	1
807.595	0.72
807.768	0.22
807.94	1.15
808.112	0.64
808.285	0.61
808.457	0.4
808.629	1
808.802	0.99
808.974	0.55
809.146	0.49
809.318	0.56
809.491	0.64
809.663	0.91
809.835	0.31
810.007	0.8
810.18	0.68
810.352	0.09
810.524	0.37
810.696	1.04
810.868	1.07
811.04	0.54
811.212	0.53
811.384	0.99
811.556	0.53
811.728	0.65
811.901	1.29
812.073	0.39
812.245	1.26
812.417	0.7
812.589	-0.46
812.76	0.85
812.932	1.02
813.104	1.32
813.276	0.37
813.448	1.08
813.62	0.93
813.792	0.88
813.964	0.45
814.136	0.72
814.307	0.38
814.479	0.58
814.651	0.46
814.823	1.82
814.995	0.41
815.166	1.16
815.338	0.51
815.51	0.05
815.681	1.98
815.853	0.32
816.025	0.73
816.196	1.05
816.368	1.39
816.54	-0.02
816.711	0.2
816.883	1.18
817.054	2.03
817.226	-0.08
817.398	1.02
817.569	0.54
817.741	0.65
817.912	0.38
818.084	0.11
818.255	1.83
818.426	0.23
818.598	0.91
818.769	0.12
818.941	1.33
819.112	1.8
819.283	0.91
819.455	-0.2
819.626	1.01
819.798	1.11
819.969	0.71
820.14	0.73
820.311	0.68
820.483	0.86
820.654	0.84
820.825	0.7
820.996	0.72
821.168	0.23
821.339	0.67
821.51	0.29
821.681	0.73
821.852	0.69
822.023	0.3
822.195	0.3
822.366	0.88
822.537	1.19
822.708	1.26
822.879	0.56
823.05	1.41
823.221	0.94
823.392	1.15
823.563	0.52
823.734	0.87
823.905	0.43
824.076	0.12
824.247	0.2
824.418	0.6
824.589	1.23
824.759	1.06
824.93	0.73
825.101	0.33
825.272	1.67
825.443	1.6
825.614	1.83
825.784	-0.23
825.955	1.64
826.126	1.49
826.297	1.4
826.467	1.75
826.638	2.56
826.809	0.08
826.98	0.85
827.15	0.98
827.321	1.3
827.492	1.88
827.662	0.66
827.833	2.15
828.003	1.6
828.174	0.25
828.345	0.46
828.515	1.68
828.686	1
828.856	0.47
829.027	0.77
829.197	1.55
829.368	1.01
829.538	0.46
829.709	0.46
829.879	1.37
830.049	1.09
830.22	0.55
830.39	0.25
830.56	1.8
830.731	1.45
830.901	0.55
831.072	1.07
831.242	0.84
831.412	1.71
831.582	1.15
831.753	-0.04
831.923	1.55
832.093	1.86
832.263	0.71
832.434	-0.2
832.604	0.7
832.774	1.47
832.944	0.68
833.114	1.01
833.284	1.23
833.454	0.32
833.624	0.39
833.795	0.78
833.965	1.81
834.135	1.52
834.305	-0.11
834.475	0.11
834.645	1.41
834.815	1.29
834.985	0.55
835.155	0.28
835.325	1.33
835.494	2.27
835.664	0.73
835.834	0.59
836.004	1.02
836.174	1.13
836.344	0.57
836.514	-0.29
836.684	0.96
836.853	1.12
837.023	1.44
837.193	0.7
837.363	1.57
837.532	2.13
837.702	0.92
837.872	0.01
838.041	2.33
838.211	2.94
838.381	-0.1
838.55	0.33
838.72	3.38
838.89	1.98
839.059	0.6
839.229	0.57
839.398	3.57
839.568	1.11
839.738	0.63
839.907	2.03
840.077	2.08
840.246	0.52
840.416	1.02
840.585	0.35
840.755	2.49
840.924	2.5
841.093	0.25
841.263	0.98
841.432	1.44
841.602	1.48
841.771	-0.02
841.94	1.39
842.11	2.83
842.279	2.49
842.448	0.54
842.617	0.11
842.787	1.85
842.956	0.25
843.125	1.43
843.294	0.68
843.464	2.73
843.633	1.93
843.802	0.08
843.971	0.84
844.14	2.64
844.309	3.47
844.479	-0.59
844.648	0.46
844.817	0.99
844.986	1
845.155	0.49
845.324	0.48
845.493	1.13
845.662	1.12
845.831	2.17
846	1.81
846.169	0.99
846.338	2.83
846.507	1.36
846.676	1.09
846.844	0.52
847.013	1.52
847.182	1.82
847.351	0.94
847.52	1.9
847.689	1.95
847.858	0.49
848.026	0.42
848.195	2.15
848.364	0.91
848.533	0.78
848.701	0.53
848.87	1.04
849.039	2.97
849.207	2.1
849.376	1.64
849.545	3.29
849.713	0.56
849.882	0.72
850.051	0.89
850.219	1.97
850.388	2.68
850.556	0.5
850.725	0.88
850.893	2.04
851.062	1.57
851.23	1.91
851.399	0.01
851.567	1.76
851.736	1.94
851.904	0.03
852.073	1.51
852.241	2.45
852.41	1.07
852.578	0.37
852.746	0.46
852.915	1.87
853.083	2.04
853.251	0.03
853.42	1.2
853.588	1.64
853.756	2.54
853.924	1.12
854.093	0.58
854.261	1.48
854.429	-0.34
854.597	0.94
854.765	0.84
854.934	2.38
855.102	3.83
855.27	1.83
855.438	2.94
855.606	3.87
855.774	3.87
855.942	0.12
856.11	-0.31
856.278	2.68
856.446	2.52
856.614	0.92
856.782	0.62
856.95	2.77
857.118	1.54
857.286	1.66
857.454	0.35
857.622	3.28
857.79	3.25
857.958	-0.2
858.126	0.59
858.294	-0.37
858.462	2.12
858.629	0.61
858.797	0.09
858.965	2.08
859.133	0.2
859.301	1.2
859.468	1.58
859.636	0.63
859.804	3.81
859.971	3.06
860.139	1.12
860.307	4.21
860.474	0.77
860.642	1.25
860.81	-0.09
860.977	1.89
861.145	4.37
861.313	2.06
861.48	1.67
861.648	2.58
861.815	0.97
861.983	-0.79
862.15	0.15
862.318	3.3
862.485	3.32
862.653	0.98
862.82	1.34
862.988	3.42
863.155	3.14
863.322	0.72
863.49	-0.04
863.657	1.52
863.824	6.11
863.992	1.1
864.159	1.1
864.326	4.7
864.494	2.04
864.661	5.03
864.828	1.22
864.996	4.1
865.163	3.93
865.33	1.33
865.497	-1.99
865.664	0.46
865.832	-0.12
865.999	0.44
866.166	-0.68
866.333	2.31
866.5	1.24
866.667	1.92
866.834	2.18
867.001	5.16
867.168	0.78
867.335	1.46
867.502	-0.26
867.669	2.41
867.836	5.63
868.003	1.11
868.17	3.03
868.337	1.19
868.504	6.44
868.671	-1.05
868.838	1.84
869.005	2.59
869.172	4.01
869.339	2.11
869.505	2.67
869.672	2.92
869.839	4.34
870.006	2.37
870.173	-0.11
870.339	3.34
870.506	6.45
870.673	0.77
870.84	2.44
871.006	3.18
871.173	0.9
871.34	1.62
871.506	0.91
871.673	4.12
871.839	-0.38
872.006	1.24
872.173	1.26
872.339	2.29
872.506	5.48
872.672	1.99
872.839	-0.55
873.005	2.59
873.172	6.76
873.338	3.11
873.505	2.43
873.671	4.15
873.838	3.11
874.004	-1.33
874.171	1.57
874.337	4.76
874.503	4.62
874.67	1.44
874.836	1.13
875.002	5.61
875.169	3.37
875.335	3.33
875.501	2.12
875.668	3.43
875.834	2.6
876	2.91
876.166	3.38
876.332	4.64
876.499	6.02
876.665	2.01
876.831	0.94
876.997	6.62
877.163	3.8
877.329	2.28
877.495	1.66
877.662	4.3
877.828	4.7
877.994	2.06
878.16	-1.24
878.326	2.77
878.492	3.4
878.658	2.44
878.824	2.41
878.99	2.28
879.156	1.11
879.322	5.35
879.487	0.29
879.653	3.19
879.819	5.21
879.985	1.71
880.151	2.57
880.317	3.96
880.483	3.11
880.648	2.91
880.814	0.14
880.98	3.61
881.146	-0.55
881.312	2.25
881.477	0.56
881.643	1.93
881.809	5.27
881.974	4.56
882.14	-1.77
882.306	1.63
882.471	5.61
882.637	1.33
882.803	4
882.968	7.23
883.134	5.55
883.299	3.46
883.465	0.28
883.63	4.96
883.796	3.15
883.961	2.89
884.127	2.88
884.292	-2.49
884.458	1.29
884.623	1.29
