Data from Apollo_Calib_20240827__AbsoluteIrradiance__753__11-42-03-045.txt Node

Date: Wed Aug 28 11:42:03 BST 2024
User: biology
Spectrometer: FLMT08252
Trigger mode: 0
Integration Time (sec): 5.000000E-1
Scans to average: 5
Electric dark correction enabled: true
Nonlinearity correction enabled: false
Boxcar width: 0
XAxis mode: Wavelengths
Number of Pixels in Spectrum: 3648
>>>>>Begin Spectral Data<<<<<
179.588	-0
179.809	-0
180.03	-0
180.251	-0
180.473	-0
180.694	0
180.915	0
181.136	-0
181.357	0
181.578	0
181.799	0
182.02	-0
182.241	0
182.462	-0
182.683	0
182.904	-0
183.125	-0
183.346	0
183.567	0
183.788	0
184.009	0
184.23	0
184.451	0
184.672	0
184.892	0
185.113	0
185.334	0
185.555	0
185.776	0
185.996	0
186.217	0
186.438	0
186.659	0
186.879	0
187.1	0
187.321	0
187.541	0
187.762	0
187.983	0
188.203	0
188.424	0
188.644	0
188.865	0
189.086	0
189.306	0
189.527	0
189.747	0
189.968	0
190.188	0
190.409	0
190.629	0
190.849	0
191.07	0
191.29	0
191.511	0
191.731	0
191.951	0
192.172	0
192.392	0
192.612	0
192.833	0
193.053	0
193.273	0
193.493	0
193.714	0
193.934	0
194.154	0
194.374	0
194.594	0
194.815	0
195.035	0
195.255	0
195.475	0
195.695	0
195.915	0
196.135	0
196.355	0
196.575	0
196.795	0
197.015	0
197.235	0
197.455	0
197.675	0
197.895	0
198.115	0
198.335	0
198.555	0
198.775	0
198.995	0
199.214	0
199.434	0
199.654	0
199.874	0
200.094	3.2
200.313	1.46
200.533	1.3
200.753	0.79
200.973	2.79
201.192	2.94
201.412	0.52
201.632	1.15
201.851	3.06
202.071	1.06
202.291	1.07
202.51	0.76
202.73	1.93
202.95	1.35
203.169	0.99
203.389	1.26
203.608	1.68
203.828	0.74
204.047	0.9
204.267	1.65
204.486	1.49
204.706	1.47
204.925	1.48
205.145	0.62
205.364	1.71
205.583	1.83
205.803	0.58
206.022	0.62
206.242	1.34
206.461	1.06
206.68	0.97
206.9	1.01
207.119	2.04
207.338	1.63
207.557	0.87
207.777	0.8
207.996	0.99
208.215	1.68
208.434	0.61
208.654	0.48
208.873	1.14
209.092	1.46
209.311	0.85
209.53	0.76
209.749	0.84
209.968	0.74
210.187	0.71
210.407	0.3
210.626	0.83
210.845	1.49
211.064	0.92
211.283	0.83
211.502	1.19
211.721	1.01
211.94	0.98
212.159	0.91
212.377	1.02
212.596	0.96
212.815	0.85
213.034	0.61
213.253	1.24
213.472	0.81
213.691	0.81
213.91	0.56
214.128	0.74
214.347	1.34
214.566	0.27
214.785	0.27
215.003	1.02
215.222	0.83
215.441	0.57
215.66	0.37
215.878	0.75
216.097	0.93
216.316	0.49
216.534	0.52
216.753	0.81
216.972	0.59
217.19	0.57
217.409	0.47
217.627	0.52
217.846	0.46
218.064	0.88
218.283	0.58
218.501	1.1
218.72	0.88
218.938	0.39
219.157	0.46
219.375	0.98
219.594	0.64
219.812	0.39
220.031	0.35
220.249	0.99
220.467	0.96
220.686	0.46
220.904	0.35
221.122	0.39
221.341	1.03
221.559	0.46
221.777	0.2
221.995	0.74
222.214	0.84
222.432	0.66
222.65	0.83
222.868	0.5
223.086	0.66
223.305	0.72
223.523	0.58
223.741	0.77
223.959	0.46
224.177	0.2
224.395	0.32
224.613	0.51
224.831	0.76
225.049	0.19
225.267	0.46
225.485	0.64
225.703	0.64
225.921	0.39
226.139	0.43
226.357	0.7
226.575	0.52
226.793	0.42
227.011	1.22
227.229	0.47
227.447	0.62
227.665	0.47
227.883	0.35
228.1	0.62
228.318	0.53
228.536	0.08
228.754	0.34
228.972	0.34
229.189	0.65
229.407	0.45
229.625	0.31
229.843	0.66
230.06	0.68
230.278	0.34
230.496	0.38
230.713	0.49
230.931	0.79
231.149	0.32
231.366	0.25
231.584	0.46
231.801	0.77
232.019	0.35
232.236	0.22
232.454	0.2
232.671	0.55
232.889	0.4
233.106	0.3
233.324	0.43
233.541	0.39
233.759	0.31
233.976	0.31
234.194	0.44
234.411	0.39
234.628	0.3
234.846	0.37
235.063	0.34
235.28	0.37
235.498	0.34
235.715	0.15
235.932	0.54
236.149	0.41
236.367	0.22
236.584	0.38
236.801	0.38
237.018	0.55
237.236	0.46
237.453	0.32
237.67	0.49
237.887	0.33
238.104	0.34
238.321	0.23
238.538	0.37
238.755	0.47
238.973	0.26
239.19	0.38
239.407	0.39
239.624	0.37
239.841	0.25
240.058	0.29
240.275	0.47
240.492	0.32
240.709	0.41
240.925	0.33
241.142	0.33
241.359	0.17
241.576	0.12
241.793	0.27
242.01	0.34
242.227	0.5
242.444	0.38
242.66	0.37
242.877	0.32
243.094	0.27
243.311	0.4
243.527	0.34
243.744	0.39
243.961	0.44
244.178	0.25
244.394	0.38
244.611	0.36
244.828	0.5
245.044	0.16
245.261	0.24
245.477	0.45
245.694	0.46
245.911	0.22
246.127	0.36
246.344	0.51
246.56	0.33
246.777	0.32
246.993	0.26
247.21	0.45
247.426	0.42
247.643	0.24
247.859	0.27
248.076	0.28
248.292	0.56
248.508	0.29
248.725	0.37
248.941	0.37
249.157	0.46
249.374	0.22
249.59	0.26
249.806	0.17
250.023	0.51
250.239	0.24
250.455	0.21
250.671	0.37
250.888	0.33
251.104	0.31
251.32	0.2
251.536	0.26
251.752	0.32
251.969	0.3
252.185	0.34
252.401	0.48
252.617	0.34
252.833	0.29
253.049	0.23
253.265	0.31
253.481	0.38
253.697	0.25
253.913	0.18
254.129	0.29
254.345	0.3
254.561	0.24
254.777	0.26
254.993	0.3
255.209	0.34
255.425	0.3
255.641	0.24
255.857	0.4
256.073	0.31
256.288	0.17
256.504	0.26
256.72	0.31
256.936	0.45
257.152	0.32
257.367	0.26
257.583	0.28
257.799	0.4
258.015	0.22
258.23	0.24
258.446	0.51
258.662	0.33
258.877	0.21
259.093	0.11
259.309	0.32
259.524	0.28
259.74	0.22
259.955	0.13
260.171	0.33
260.387	0.3
260.602	0.32
260.818	0.19
261.033	0.19
261.249	0.22
261.464	0.27
261.68	0.16
261.895	0.33
262.11	0.43
262.326	0.28
262.541	0.13
262.757	0.32
262.972	0.36
263.187	0.31
263.403	0.32
263.618	0.35
263.833	0.23
264.049	0.22
264.264	0.27
264.479	0.26
264.694	0.41
264.91	0.21
265.125	0.27
265.34	0.32
265.555	0.47
265.77	0.29
265.986	0.22
266.201	0.28
266.416	0.36
266.631	0.26
266.846	0.3
267.061	0.27
267.276	0.31
267.491	0.09
267.706	0.26
267.921	0.33
268.136	0.27
268.351	0.27
268.566	0.11
268.781	0.3
268.996	0.35
269.211	0.23
269.426	0.18
269.641	0.27
269.856	0.36
270.071	0.2
270.285	0.12
270.5	0.3
270.715	0.4
270.93	0.25
271.145	0.24
271.359	0.32
271.574	0.26
271.789	0.22
272.004	0.2
272.218	0.18
272.433	0.32
272.648	0.18
272.862	0.28
273.077	0.27
273.292	0.27
273.506	0.22
273.721	0.19
273.936	0.25
274.15	0.32
274.365	0.22
274.579	0.28
274.794	0.22
275.008	0.33
275.223	0.1
275.437	0.21
275.652	0.3
275.866	0.3
276.081	0.2
276.295	0.29
276.509	0.24
276.724	0.3
276.938	0.23
277.153	0.28
277.367	0.36
277.581	0.18
277.796	0.19
278.01	0.22
278.224	0.36
278.438	0.34
278.653	0.21
278.867	0.21
279.081	0.08
279.295	0.18
279.51	0.25
279.724	0.15
279.938	0.33
280.152	0.28
280.366	0.22
280.58	0.25
280.794	0.37
281.008	0.27
281.222	0.34
281.437	0.41
281.651	0.21
281.865	0.29
282.079	0.19
282.293	0.11
282.507	0.14
282.721	0.21
282.935	0.2
283.148	0.17
283.362	0.18
283.576	0.17
283.79	0.25
284.004	0.21
284.218	0.27
284.432	0.21
284.646	0.28
284.859	0.15
285.073	0.21
285.287	0.29
285.501	0.23
285.714	0.21
285.928	0.19
286.142	0.24
286.356	0.16
286.569	0.19
286.783	0.28
286.997	0.29
287.21	0.18
287.424	0.25
287.637	0.25
287.851	0.23
288.065	0.27
288.278	0.18
288.492	0.24
288.705	0.22
288.919	0.25
289.132	0.11
289.346	0.29
289.559	0.13
289.773	0.14
289.986	0.24
290.2	0.26
290.413	0.29
290.626	0.13
290.84	0.23
291.053	0.23
291.267	0.32
291.48	0.18
291.693	0.2
291.906	0.16
292.12	0.17
292.333	0.2
292.546	0.2
292.76	0.31
292.973	0.25
293.186	0.27
293.399	0.19
293.612	0.22
293.826	0.18
294.039	0.2
294.252	0.19
294.465	0.26
294.678	0.25
294.891	0.23
295.104	0.15
295.317	0.17
295.53	0.2
295.743	0.22
295.956	0.22
296.169	0.29
296.382	0.3
296.595	0.18
296.808	0.18
297.021	0.23
297.234	0.26
297.447	0.21
297.66	0.21
297.873	0.29
298.086	0.25
298.299	0.11
298.511	0.08
298.724	0.19
298.937	0.19
299.15	0.13
299.363	0.21
299.575	0.21
299.788	0.18
300.001	0.19
300.213	0.16
300.426	0.17
300.639	0.18
300.852	0.17
301.064	0.21
301.277	0.26
301.489	0.21
301.702	0.24
301.915	0.16
302.127	0.19
302.34	0.22
302.552	0.2
302.765	0.15
302.977	0.2
303.19	0.17
303.402	0.16
303.615	0.18
303.827	0.18
304.04	0.21
304.252	0.2
304.464	0.16
304.677	0.31
304.889	0.23
305.102	0.18
305.314	0.15
305.526	0.24
305.739	0.24
305.951	0.11
306.163	0.18
306.375	0.3
306.588	0.18
306.8	0.18
307.012	0.16
307.224	0.16
307.436	0.26
307.649	0.11
307.861	0.22
308.073	0.18
308.285	0.2
308.497	0.12
308.709	0.15
308.921	0.18
309.133	0.29
309.346	0.22
309.558	0.18
309.77	0.25
309.982	0.3
310.194	0.25
310.406	0.16
310.617	0.32
310.829	0.2
311.041	0.18
311.253	0.12
311.465	0.2
311.677	0.22
311.889	0.17
312.101	0.17
312.313	0.25
312.524	0.28
312.736	0.12
312.948	0.2
313.16	0.25
313.372	0.25
313.583	0.22
313.795	0.18
314.007	0.17
314.218	0.23
314.43	0.21
314.642	0.16
314.853	0.15
315.065	0.22
315.277	0.19
315.488	0.23
315.7	0.26
315.912	0.24
316.123	0.18
316.335	0.18
316.546	0.27
316.758	0.21
316.969	0.17
317.181	0.2
317.392	0.2
317.604	0.25
317.815	0.15
318.026	0.17
318.238	0.17
318.449	0.23
318.661	0.11
318.872	0.11
319.083	0.15
319.295	0.23
319.506	0.14
319.717	0.19
319.929	0.25
320.14	0.2
320.351	0.2
320.562	0.14
320.774	0.21
320.985	0.17
321.196	0.14
321.407	0.12
321.618	0.29
321.829	0.17
322.041	0.23
322.252	0.15
322.463	0.21
322.674	0.28
322.885	0.17
323.096	0.16
323.307	0.19
323.518	0.17
323.729	0.11
323.94	0.16
324.151	0.21
324.362	0.21
324.573	0.24
324.784	0.17
324.995	0.25
325.206	0.21
325.417	0.15
325.628	0.19
325.838	0.19
326.049	0.19
326.26	0.26
326.471	0.17
326.682	0.26
326.892	0.22
327.103	0.11
327.314	0.1
327.525	0.27
327.735	0.21
327.946	0.18
328.157	0.15
328.368	0.25
328.578	0.19
328.789	0.2
328.999	0.2
329.21	0.19
329.421	0.24
329.631	0.18
329.842	0.13
330.052	0.22
330.263	0.22
330.473	0.23
330.684	0.19
330.894	0.2
331.105	0.21
331.315	0.18
331.526	0.14
331.736	0.25
331.947	0.23
332.157	0.2
332.367	0.08
332.578	0.23
332.788	0.2
332.999	0.24
333.209	0.22
333.419	0.14
333.629	0.22
333.84	0.26
334.05	0.23
334.26	0.27
334.47	0.19
334.681	0.24
334.891	0.14
335.101	0.22
335.311	0.28
335.521	0.19
335.732	0.14
335.942	0.28
336.152	0.23
336.362	0.23
336.572	0.19
336.782	0.24
336.992	0.17
337.202	0.14
337.412	0.19
337.622	0.25
337.832	0.18
338.042	0.19
338.252	0.18
338.462	0.21
338.672	0.2
338.882	0.17
339.092	0.19
339.302	0.22
339.511	0.2
339.721	0.2
339.931	0.13
340.141	0.26
340.351	0.29
340.561	0.18
340.77	0.22
340.98	0.22
341.19	0.2
341.4	0.17
341.609	0.16
341.819	0.21
342.029	0.14
342.238	0.22
342.448	0.13
342.658	0.23
342.867	0.22
343.077	0.17
343.286	0.22
343.496	0.18
343.706	0.29
343.915	0.13
344.125	0.19
344.334	0.22
344.544	0.16
344.753	0.16
344.963	0.16
345.172	0.15
345.381	0.19
345.591	0.13
345.8	0.16
346.01	0.28
346.219	0.21
346.428	0.08
346.638	0.19
346.847	0.18
347.056	0.28
347.266	0.17
347.475	0.14
347.684	0.23
347.893	0.2
348.103	0.2
348.312	0.12
348.521	0.16
348.73	0.17
348.94	0.2
349.149	0.19
349.358	0.16
349.567	0.17
349.776	0.14
349.985	0.16
350.194	0.21
350.403	0.24
350.612	0.13
350.821	0.18
351.03	0.15
351.239	0.16
351.448	0.2
351.657	0.15
351.866	0.24
352.075	0.18
352.284	0.14
352.493	0.14
352.702	0.25
352.911	0.19
353.12	0.18
353.329	0.18
353.538	0.21
353.746	0.2
353.955	0.17
354.164	0.23
354.373	0.13
354.582	0.23
354.79	0.17
354.999	0.23
355.208	0.17
355.416	0.27
355.625	0.14
355.834	0.19
356.042	0.2
356.251	0.14
356.46	0.15
356.668	0.16
356.877	0.27
357.085	0.22
357.294	0.08
357.503	0.21
357.711	0.19
357.92	0.35
358.128	0.21
358.337	0.15
358.545	0.2
358.754	0.16
358.962	0.21
359.17	0.17
359.379	0.19
359.587	0.2
359.796	0.14
360.004	0.28
360.212	0.25
360.421	0.26
360.629	0.19
360.837	0.15
361.046	0.28
361.254	0.27
361.462	0.16
361.67	0.17
361.879	0.23
362.087	0.27
362.295	0.19
362.503	0.2
362.711	0.14
362.92	0.14
363.128	0.15
363.336	0.11
363.544	0.12
363.752	0.18
363.96	0.18
364.168	0.15
364.376	0.16
364.584	0.24
364.792	0.21
365	0.21
365.208	0.14
365.416	0.23
365.624	0.25
365.832	0.15
366.04	0.24
366.248	0.21
366.456	0.19
366.664	0.19
366.872	0.15
367.079	0.18
367.287	0.18
367.495	0.17
367.703	0.15
367.911	0.19
368.118	0.18
368.326	0.22
368.534	0.13
368.742	0.23
368.949	0.14
369.157	0.12
369.365	0.19
369.572	0.15
369.78	0.14
369.988	0.22
370.195	0.17
370.403	0.25
370.61	0.13
370.818	0.2
371.026	0.21
371.233	0.18
371.441	0.2
371.648	0.16
371.856	0.21
372.063	0.21
372.271	0.19
372.478	0.15
372.685	0.18
372.893	0.25
373.1	0.15
373.308	0.17
373.515	0.29
373.722	0.21
373.93	0.2
374.137	0.22
374.344	0.3
374.552	0.21
374.759	0.18
374.966	0.17
375.173	0.14
375.381	0.26
375.588	0.16
375.795	0.08
376.002	0.2
376.209	0.18
376.417	0.17
376.624	0.19
376.831	0.22
377.038	0.17
377.245	0.14
377.452	0.19
377.659	0.21
377.866	0.2
378.073	0.17
378.28	0.16
378.487	0.21
378.694	0.26
378.901	0.16
379.108	0.19
379.315	0.21
379.522	0.27
379.729	0.2
379.936	0.17
380.143	0.21
380.35	0.23
380.557	0.15
380.763	0.19
380.97	0.2
381.177	0.2
381.384	0.25
381.591	0.23
381.797	0.18
382.004	0.23
382.211	0.22
382.418	0.15
382.624	0.23
382.831	0.22
383.038	0.19
383.244	0.22
383.451	0.21
383.658	0.25
383.864	0.24
384.071	0.14
384.277	0.28
384.484	0.19
384.69	0.29
384.897	0.18
385.103	0.19
385.31	0.17
385.516	0.17
385.723	0.14
385.929	0.19
386.136	0.18
386.342	0.28
386.549	0.18
386.755	0.28
386.961	0.28
387.168	0.19
387.374	0.23
387.58	0.23
387.787	0.24
387.993	0.27
388.199	0.24
388.406	0.2
388.612	0.2
388.818	0.18
389.024	0.18
389.231	0.23
389.437	0.29
389.643	0.25
389.849	0.25
390.055	0.25
390.261	0.18
390.467	0.26
390.674	0.17
390.88	0.22
391.086	0.26
391.292	0.18
391.498	0.21
391.704	0.29
391.91	0.22
392.116	0.2
392.322	0.16
392.528	0.26
392.734	0.22
392.94	0.25
393.146	0.21
393.352	0.2
393.557	0.22
393.763	0.2
393.969	0.28
394.175	0.25
394.381	0.2
394.587	0.2
394.792	0.21
394.998	0.25
395.204	0.23
395.41	0.19
395.615	0.24
395.821	0.32
396.027	0.26
396.233	0.21
396.438	0.26
396.644	0.29
396.85	0.28
397.055	0.25
397.261	0.24
397.466	0.36
397.672	0.29
397.878	0.27
398.083	0.26
398.289	0.24
398.494	0.27
398.7	0.26
398.905	0.14
399.111	0.35
399.316	0.23
399.522	0.25
399.727	0.3
399.932	0.25
400.138	0.24
400.343	0.31
400.549	0.24
400.754	0.26
400.959	0.29
401.165	0.27
401.37	0.26
401.575	0.24
401.78	0.27
401.986	0.26
402.191	0.24
402.396	0.25
402.601	0.3
402.807	0.32
403.012	0.32
403.217	0.35
403.422	0.3
403.627	0.32
403.832	0.3
404.037	0.33
404.243	0.34
404.448	0.32
404.653	0.36
404.858	0.34
405.063	0.35
405.268	0.31
405.473	0.28
405.678	0.34
405.883	0.51
406.088	0.38
406.293	0.24
406.498	0.33
406.703	0.36
406.907	0.38
407.112	0.31
407.317	0.41
407.522	0.47
407.727	0.38
407.932	0.41
408.136	0.51
408.341	0.45
408.546	0.41
408.751	0.42
408.956	0.43
409.16	0.51
409.365	0.42
409.57	0.45
409.774	0.46
409.979	0.53
410.184	0.52
410.388	0.48
410.593	0.59
410.798	0.55
411.002	0.56
411.207	0.59
411.411	0.62
411.616	0.56
411.82	0.57
412.025	0.65
412.229	0.63
412.434	0.78
412.638	0.69
412.843	0.7
413.047	0.79
413.252	0.7
413.456	0.79
413.66	0.83
413.865	0.81
414.069	0.93
414.273	0.81
414.478	0.87
414.682	0.89
414.886	0.91
415.091	0.91
415.295	0.96
415.499	1.11
415.703	1.05
415.908	1.07
416.112	0.94
416.316	1.29
416.52	1.26
416.724	1.2
416.929	1.33
417.133	1.45
417.337	1.33
417.541	1.41
417.745	1.49
417.949	1.53
418.153	1.55
418.357	1.58
418.561	1.78
418.765	1.8
418.969	1.83
419.173	1.88
419.377	1.89
419.581	2.14
419.785	2.12
419.989	2.05
420.193	2.23
420.397	2.32
420.601	2.38
420.804	2.51
421.008	2.41
421.212	2.67
421.416	2.56
421.62	2.67
421.823	2.67
422.027	2.8
422.231	2.77
422.435	2.8
422.638	2.91
422.842	2.96
423.046	2.98
423.249	3.12
423.453	3.06
423.657	3.33
423.86	3.37
424.064	3.48
424.268	3.62
424.471	3.66
424.675	3.78
424.878	3.91
425.082	3.96
425.285	4.23
425.489	4.06
425.692	4.09
425.896	4.16
426.099	4.38
426.303	4.45
426.506	4.46
426.71	4.74
426.913	4.89
427.116	5.07
427.32	5.03
427.523	5.07
427.726	5.43
427.93	5.4
428.133	5.65
428.336	5.7
428.54	5.88
428.743	6.04
428.946	6.19
429.149	6.27
429.353	6.23
429.556	6.34
429.759	6.4
429.962	6.37
430.165	6.64
430.368	6.26
430.571	6.32
430.775	6.33
430.978	6.37
431.181	6.3
431.384	6.57
431.587	6.53
431.79	6.7
431.993	6.73
432.196	6.91
432.399	7.24
432.602	7.31
432.805	7.32
433.008	7.77
433.211	7.69
433.414	7.97
433.616	7.99
433.819	7.85
434.022	8.05
434.225	8.14
434.428	8.25
434.631	8.54
434.833	8.28
435.036	8.47
435.239	8.63
435.442	8.76
435.645	8.94
435.847	8.95
436.05	9.11
436.253	9.39
436.455	9.32
436.658	9.34
436.861	9.6
437.063	9.57
437.266	9.64
437.468	9.94
437.671	10.04
437.874	10.16
438.076	9.95
438.279	10.33
438.481	10.51
438.684	11.06
438.886	10.71
439.089	10.89
439.291	11.09
439.494	11.3
439.696	11.44
439.899	11.88
440.101	12.16
440.303	12.32
440.506	12.79
440.708	12.54
440.91	12.94
441.113	13
441.315	13.3
441.517	13.13
441.72	13.58
441.922	13.24
442.124	13.14
442.326	13.5
442.529	13.75
442.731	13.61
442.933	13.88
443.135	13.84
443.337	13.72
443.539	14.17
443.742	13.97
443.944	14.5
444.146	14.2
444.348	14.21
444.55	14.22
444.752	14.28
444.954	14.27
445.156	14.23
445.358	14.57
445.56	14.71
445.762	14.59
445.964	14.9
446.166	14.7
446.368	14.67
446.57	14.71
446.772	14.37
446.974	14.23
447.175	14.43
447.377	14.3
447.579	14.48
447.781	14.18
447.983	14.07
448.184	13.63
448.386	14.03
448.588	13.56
448.79	13.55
448.991	13.74
449.193	13.77
449.395	13.23
449.597	12.91
449.798	12.92
450	12.53
450.202	12.4
450.403	12.38
450.605	12.27
450.806	11.95
451.008	11.84
451.21	11.68
451.411	11.33
451.613	10.73
451.814	10.89
452.016	10.84
452.217	10.17
452.419	10.35
452.62	9.94
452.821	9.85
453.023	9.74
453.224	9.44
453.426	9.06
453.627	8.45
453.828	8.52
454.03	8.6
454.231	8.52
454.432	8.42
454.634	8.31
454.835	7.99
455.036	7.82
455.238	7.62
455.439	7.36
455.64	7.19
455.841	7.08
456.042	7.14
456.244	6.86
456.445	6.65
456.646	6.47
456.847	6.38
457.048	6.38
457.249	6.4
457.45	6.32
457.651	5.75
457.852	5.75
458.054	5.49
458.255	5.41
458.456	5.45
458.657	5.37
458.858	5.01
459.058	5
459.259	5.08
459.46	4.81
459.661	4.72
459.862	4.88
460.063	4.74
460.264	4.75
460.465	4.43
460.666	4.57
460.866	4.27
461.067	4.12
461.268	4.18
461.469	4.08
461.67	4.05
461.87	3.89
462.071	3.91
462.272	3.9
462.473	3.81
462.673	3.88
462.874	3.81
463.075	3.83
463.275	3.79
463.476	3.93
463.676	3.75
463.877	3.66
464.078	3.71
464.278	3.71
464.479	3.66
464.679	3.53
464.88	3.48
465.08	3.55
465.281	3.39
465.481	3.18
465.682	3.11
465.882	3.1
466.083	3.11
466.283	2.95
466.483	2.91
466.684	2.74
466.884	2.62
467.085	2.73
467.285	2.78
467.485	2.64
467.686	2.62
467.886	2.58
468.086	2.53
468.286	2.46
468.487	2.55
468.687	2.4
468.887	2.36
469.087	2.46
469.287	2.41
469.488	2.27
469.688	2.33
469.888	2.33
470.088	2.27
470.288	2.23
470.488	2.23
470.688	2.08
470.888	2.1
471.088	1.97
471.288	2.08
471.488	2.05
471.688	2.08
471.888	1.93
472.088	2.09
472.288	2.01
472.488	1.88
472.688	1.85
472.888	1.91
473.088	1.93
473.288	1.83
473.488	1.78
473.688	1.94
473.887	1.83
474.087	1.76
474.287	1.77
474.487	1.7
474.687	1.79
474.886	1.75
475.086	1.67
475.286	1.75
475.486	1.66
475.685	1.63
475.885	1.63
476.085	1.69
476.284	1.68
476.484	1.65
476.684	1.64
476.883	1.71
477.083	1.63
477.282	1.56
477.482	1.65
477.681	1.65
477.881	1.53
478.08	1.54
478.28	1.49
478.479	1.55
478.679	1.6
478.878	1.53
479.078	1.47
479.277	1.52
479.477	1.54
479.676	1.51
479.875	1.49
480.075	1.46
480.274	1.52
480.473	1.5
480.673	1.45
480.872	1.59
481.071	1.46
481.271	1.54
481.47	1.48
481.669	1.46
481.868	1.4
482.067	1.49
482.267	1.41
482.466	1.43
482.665	1.42
482.864	1.43
483.063	1.43
483.262	1.51
483.461	1.55
483.661	1.56
483.86	1.49
484.059	1.52
484.258	1.49
484.457	1.5
484.656	1.5
484.855	1.55
485.054	1.44
485.253	1.51
485.452	1.46
485.651	1.53
485.849	1.49
486.048	1.45
486.247	1.49
486.446	1.58
486.645	1.51
486.844	1.53
487.043	1.53
487.241	1.59
487.44	1.53
487.639	1.59
487.838	1.62
488.037	1.56
488.235	1.69
488.434	1.63
488.633	1.58
488.831	1.7
489.03	1.71
489.229	1.68
489.427	1.68
489.626	1.72
489.825	1.76
490.023	1.74
490.222	1.7
490.42	1.75
490.619	1.75
490.817	1.8
491.016	1.81
491.214	1.86
491.413	1.83
491.611	1.8
491.81	1.82
492.008	1.88
492.207	1.92
492.405	1.94
492.604	1.86
492.802	1.96
493	1.98
493.199	1.98
493.397	2.03
493.595	2.11
493.794	2.01
493.992	2.14
494.19	2.07
494.388	2.15
494.587	2.1
494.785	2.14
494.983	2.08
495.181	2.2
495.379	2.25
495.578	2.26
495.776	2.28
495.974	2.25
496.172	2.28
496.37	2.37
496.568	2.38
496.766	2.38
496.964	2.51
497.162	2.46
497.36	2.5
497.558	2.54
497.756	2.56
497.954	2.54
498.152	2.61
498.35	2.7
498.548	2.6
498.746	2.61
498.944	2.62
499.142	2.69
499.34	2.76
499.538	2.83
499.736	2.74
499.933	2.82
500.131	2.85
500.329	2.94
500.527	2.97
500.725	3.02
500.922	3.05
501.12	3.03
501.318	3.08
501.516	3.06
501.713	3.11
501.911	3.12
502.109	3.05
502.306	3.18
502.504	3.14
502.701	3.24
502.899	3.21
503.097	3.39
503.294	3.26
503.492	3.35
503.689	3.44
503.887	3.43
504.084	3.52
504.282	3.49
504.479	3.45
504.677	3.63
504.874	3.57
505.072	3.47
505.269	3.69
505.466	3.67
505.664	3.69
505.861	3.65
506.059	3.69
506.256	3.81
506.453	3.76
506.651	3.98
506.848	3.94
507.045	3.88
507.242	3.91
507.44	3.93
507.637	4.01
507.834	4.01
508.031	4.08
508.229	4.07
508.426	4
508.623	4.14
508.82	4.16
509.017	4.11
509.214	4.16
509.411	4.27
509.608	4.22
509.805	4.3
510.003	4.24
510.2	4.35
510.397	4.46
510.594	4.37
510.791	4.5
510.988	4.47
511.184	4.37
511.381	4.36
511.578	4.48
511.775	4.63
511.972	4.49
512.169	4.6
512.366	4.6
512.563	4.68
512.76	4.73
512.956	4.78
513.153	4.67
513.35	4.68
513.547	4.67
513.744	4.75
513.94	4.8
514.137	4.85
514.334	4.83
514.53	4.84
514.727	5.05
514.924	4.91
515.12	4.92
515.317	4.91
515.514	4.94
515.71	4.86
515.907	5.08
516.103	5.08
516.3	5.01
516.497	5.11
516.693	5.12
516.89	5.09
517.086	5.09
517.283	5.23
517.479	5.05
517.676	5.17
517.872	5.23
518.068	5.21
518.265	5.26
518.461	5.19
518.658	5.24
518.854	5.31
519.05	5.37
519.247	5.36
519.443	5.34
519.639	5.43
519.836	5.35
520.032	5.31
520.228	5.42
520.424	5.46
520.621	5.43
520.817	5.5
521.013	5.49
521.209	5.61
521.405	5.59
521.601	5.51
521.798	5.57
521.994	5.62
522.19	5.5
522.386	5.54
522.582	5.62
522.778	5.74
522.974	5.59
523.17	5.61
523.366	5.61
523.562	5.65
523.758	5.62
523.954	5.54
524.15	5.71
524.346	5.66
524.542	5.75
524.738	5.71
524.934	5.76
525.129	5.81
525.325	5.66
525.521	5.73
525.717	5.9
525.913	5.81
526.109	5.81
526.304	5.87
526.5	5.89
526.696	5.87
526.892	5.79
527.087	6.01
527.283	5.91
527.479	5.88
527.674	5.75
527.87	5.91
528.066	5.9
528.261	5.9
528.457	5.92
528.653	5.99
528.848	6.01
529.044	6.06
529.239	5.91
529.435	5.92
529.63	5.9
529.826	5.92
530.021	5.96
530.217	6
530.412	5.94
530.608	6
530.803	5.99
530.999	5.94
531.194	6
531.389	6.1
531.585	6.04
531.78	6.18
531.975	6.06
532.171	6.12
532.366	6.09
532.561	6.06
532.757	6.1
532.952	6.2
533.147	6.02
533.342	6.15
533.538	5.99
533.733	6.26
533.928	5.92
534.123	6.09
534.318	6.15
534.513	6.04
534.709	6.2
534.904	6.19
535.099	6.19
535.294	6.21
535.489	6.21
535.684	6.16
535.879	6.17
536.074	6.24
536.269	6.19
536.464	6.27
536.659	6.18
536.854	6.2
537.049	6.22
537.244	6.23
537.439	6.21
537.634	6.24
537.828	6.27
538.023	6.25
538.218	6.21
538.413	6.12
538.608	6.27
538.803	6.24
538.997	6.16
539.192	6.26
539.387	6.24
539.582	6.21
539.776	6.16
539.971	6.21
540.166	6.29
540.36	6.25
540.555	6.37
540.75	6.26
540.944	6.31
541.139	6.31
541.334	6.29
541.528	6.31
541.723	6.35
541.917	6.33
542.112	6.23
542.306	6.16
542.501	6.2
542.695	6.27
542.89	6.22
543.084	6.28
543.279	6.25
543.473	6.34
543.668	6.33
543.862	6.24
544.056	6.24
544.251	6.31
544.445	6.35
544.64	6.38
544.834	6.12
545.028	6.03
545.222	6.28
545.417	6.43
545.611	6.38
545.805	6.34
546	6.18
546.194	6.32
546.388	6.36
546.582	6.26
546.776	6.32
546.97	6.34
547.165	6.29
547.359	6.3
547.553	6.29
547.747	6.3
547.941	6.43
548.135	6.32
548.329	6.33
548.523	6.31
548.717	6.29
548.911	6.25
549.105	6.25
549.299	6.35
549.493	6.38
549.687	6.29
549.881	6.43
550.075	6.36
550.269	6.24
550.463	6.35
550.657	6.35
550.85	6.33
551.044	6.31
551.238	6.37
551.432	6.34
551.626	6.39
551.82	6.4
552.013	6.24
552.207	6.43
552.401	6.35
552.594	6.31
552.788	6.25
552.982	6.26
553.176	6.26
553.369	6.44
553.563	6.38
553.756	6.34
553.95	6.28
554.144	6.38
554.337	6.39
554.531	6.18
554.724	6.37
554.918	6.42
555.111	6.32
555.305	6.3
555.498	6.29
555.692	6.44
555.885	6.36
556.079	6.37
556.272	6.34
556.466	6.33
556.659	6.31
556.852	6.41
557.046	6.27
557.239	6.25
557.432	6.3
557.626	6.37
557.819	6.42
558.012	6.36
558.206	6.44
558.399	6.37
558.592	6.32
558.785	6.34
558.979	6.34
559.172	6.41
559.365	6.29
559.558	6.3
559.751	6.29
559.944	6.4
560.138	6.35
560.331	6.4
560.524	6.37
560.717	6.3
560.91	6.35
561.103	6.37
561.296	6.23
561.489	6.37
561.682	6.41
561.875	6.37
562.068	6.46
562.261	6.27
562.454	6.42
562.647	6.41
562.84	6.41
563.032	6.41
563.225	6.26
563.418	6.29
563.611	6.4
563.804	6.38
563.997	6.25
564.19	6.17
564.382	6.34
564.575	6.35
564.768	6.27
564.961	6.37
565.153	6.3
565.346	6.26
565.539	6.37
565.731	6.35
565.924	6.38
566.117	6.43
566.309	6.35
566.502	6.25
566.695	6.26
566.887	6.35
567.08	6.37
567.272	6.36
567.465	6.22
567.657	6.38
567.85	6.28
568.042	6.37
568.235	6.33
568.427	6.23
568.62	6.37
568.812	6.3
569.005	6.36
569.197	6.27
569.389	6.36
569.582	6.34
569.774	6.35
569.966	6.24
570.159	6.2
570.351	6.25
570.543	6.27
570.736	6.34
570.928	6.15
571.12	6.37
571.312	6.27
571.505	6.1
571.697	6.31
571.889	6.29
572.081	6.32
572.273	6.19
572.465	6.3
572.658	6.25
572.85	6.28
573.042	6.3
573.234	6.14
573.426	6.24
573.618	6.19
573.81	6.35
574.002	6.31
574.194	6.27
574.386	6.27
574.578	6.09
574.77	6.22
574.962	6.26
575.154	6.15
575.346	6.11
575.538	6.17
575.729	6.17
575.921	6.17
576.113	6.22
576.305	6.18
576.497	6.29
576.689	6.17
576.88	6.11
577.072	6.25
577.264	6.15
577.456	6.18
577.647	6.13
577.839	6.26
578.031	6.19
578.223	6.14
578.414	6.06
578.606	6.18
578.798	6.17
578.989	6.2
579.181	6.18
579.372	6.18
579.564	6.13
579.755	6.09
579.947	6.11
580.139	6.15
580.33	5.99
580.522	6.09
580.713	6.06
580.905	6.06
581.096	6.14
581.287	6.08
581.479	6.13
581.67	6.06
581.862	6.02
582.053	6.04
582.244	5.88
582.436	6.12
582.627	5.97
582.818	5.97
583.01	5.97
583.201	6.04
583.392	5.99
583.583	5.98
583.775	5.83
583.966	5.97
584.157	6.06
584.348	6.06
584.54	5.97
584.731	5.99
584.922	5.91
585.113	5.85
585.304	6.01
585.495	5.98
585.686	6.07
585.877	5.97
586.068	5.99
586.259	6
586.45	5.95
586.641	5.87
586.832	5.94
587.023	5.9
587.214	5.82
587.405	5.92
587.596	5.87
587.787	5.86
587.978	5.87
588.169	5.84
588.36	5.78
588.551	5.89
588.742	5.81
588.932	5.86
589.123	5.66
589.314	5.93
589.505	5.79
589.696	5.82
589.886	5.8
590.077	5.8
590.268	5.68
590.458	5.67
590.649	5.6
590.84	5.7
591.03	5.68
591.221	5.72
591.412	5.58
591.602	5.78
591.793	5.73
591.984	5.67
592.174	5.62
592.365	5.79
592.555	5.55
592.746	5.63
592.936	5.63
593.127	5.71
593.317	5.71
593.508	5.67
593.698	5.6
593.889	5.54
594.079	5.56
594.269	5.51
594.46	5.51
594.65	5.61
594.84	5.54
595.031	5.46
595.221	5.5
595.411	5.49
595.602	5.49
595.792	5.5
595.982	5.4
596.172	5.6
596.363	5.44
596.553	5.41
596.743	5.51
596.933	5.47
597.123	5.43
597.314	5.34
597.504	5.28
597.694	5.44
597.884	5.33
598.074	5.42
598.264	5.32
598.454	5.4
598.644	5.33
598.834	5.31
599.024	5.26
599.214	5.27
599.404	5.37
599.594	5.31
599.784	5.26
599.974	5.27
600.164	5.31
600.354	5.24
600.544	5.16
600.734	5.25
600.924	5.2
601.114	5.14
601.303	5.15
601.493	5.12
601.683	5.2
601.873	5.1
602.063	5.06
602.252	5.14
602.442	5.08
602.632	5.05
602.821	5.02
603.011	5.11
603.201	5.08
603.39	5.09
603.58	4.96
603.77	5.07
603.959	5.11
604.149	4.98
604.339	4.99
604.528	5.08
604.718	5
604.907	4.97
605.097	4.89
605.286	4.92
605.476	4.93
605.665	4.94
605.855	4.91
606.044	4.96
606.234	4.91
606.423	4.86
606.612	4.89
606.802	4.8
606.991	4.87
607.181	4.85
607.37	4.85
607.559	4.64
607.749	4.77
607.938	4.68
608.127	4.73
608.316	4.81
608.506	4.74
608.695	4.73
608.884	4.71
609.073	4.7
609.263	4.8
609.452	4.82
609.641	4.63
609.83	4.62
610.019	4.65
610.208	4.64
610.397	4.62
610.586	4.67
610.775	4.55
610.965	4.62
611.154	4.44
611.343	4.58
611.532	4.45
611.721	4.54
611.91	4.47
612.099	4.55
612.287	4.41
612.476	4.37
612.665	4.46
612.854	4.42
613.043	4.43
613.232	4.46
613.421	4.39
613.61	4.4
613.798	4.38
613.987	4.44
614.176	4.36
614.365	4.37
614.554	4.38
614.742	4.37
614.931	4.25
615.12	4.34
615.309	4.35
615.497	4.21
615.686	4.18
615.875	4.17
616.063	4.22
616.252	4.17
616.44	4.24
616.629	4.19
616.818	4.17
617.006	4.18
617.195	4.1
617.383	4.15
617.572	4.05
617.76	4.04
617.949	4.08
618.137	4.17
618.326	4.09
618.514	3.95
618.703	3.95
618.891	4.04
619.079	3.93
619.268	4.06
619.456	3.94
619.644	4.07
619.833	3.91
620.021	3.89
620.209	3.82
620.398	3.95
620.586	3.86
620.774	3.92
620.962	3.79
621.151	3.97
621.339	3.79
621.527	3.8
621.715	3.75
621.903	3.85
622.092	3.74
622.28	3.85
622.468	3.72
622.656	3.73
622.844	3.7
623.032	3.78
623.22	3.63
623.408	3.79
623.596	3.73
623.784	3.73
623.972	3.59
624.16	3.66
624.348	3.72
624.536	3.72
624.724	3.63
624.912	3.68
625.1	3.58
625.288	3.63
625.476	3.55
625.664	3.58
625.851	3.51
626.039	3.55
626.227	3.5
626.415	3.57
626.603	3.43
626.79	3.49
626.978	3.49
627.166	3.54
627.354	3.46
627.541	3.37
627.729	3.34
627.917	3.51
628.104	3.56
628.292	3.42
628.48	3.38
628.667	3.33
628.855	3.42
629.042	3.4
629.23	3.33
629.418	3.31
629.605	3.38
629.793	3.25
629.98	3.31
630.168	3.21
630.355	3.27
630.543	3.3
630.73	3.18
630.917	3.22
631.105	3.34
631.292	3.23
631.48	3.19
631.667	3.29
631.854	3.19
632.042	3.14
632.229	3.08
632.416	3.11
632.604	3.14
632.791	3.01
632.978	3.16
633.165	3.03
633.353	3.12
633.54	3.16
633.727	3.04
633.914	2.98
634.101	2.99
634.289	3.1
634.476	2.99
634.663	2.99
634.85	3.01
635.037	2.95
635.224	2.94
635.411	3
635.598	2.95
635.785	2.87
635.972	2.87
636.159	2.92
636.346	2.9
636.533	2.86
636.72	2.82
636.907	2.85
637.094	2.85
637.281	2.73
637.468	2.81
637.655	2.79
637.842	2.81
638.029	2.75
638.215	2.73
638.402	2.79
638.589	2.71
638.776	2.74
638.963	2.67
639.149	2.79
639.336	2.78
639.523	2.63
639.709	2.64
639.896	2.63
640.083	2.64
640.27	2.71
640.456	2.62
640.643	2.64
640.829	2.53
641.016	2.6
641.203	2.5
641.389	2.63
641.576	2.55
641.762	2.49
641.949	2.53
642.135	2.58
642.322	2.54
642.508	2.46
642.695	2.51
642.881	2.46
643.068	2.4
643.254	2.47
643.441	2.49
643.627	2.46
643.813	2.38
644	2.45
644.186	2.34
644.372	2.39
644.559	2.39
644.745	2.36
644.931	2.3
645.118	2.36
645.304	2.39
645.49	2.33
645.676	2.29
645.862	2.33
646.049	2.37
646.235	2.33
646.421	2.43
646.607	2.38
646.793	2.25
646.979	2.17
647.165	2.25
647.352	2.23
647.538	2.22
647.724	2.25
647.91	2.21
648.096	2.2
648.282	2.26
648.468	2.14
648.654	2.22
648.84	2.22
649.026	2.14
649.212	2.11
649.397	2.1
649.583	2.11
649.769	2.13
649.955	2.09
650.141	2.13
650.327	2.14
650.513	2.05
650.698	2.08
650.884	2.04
651.07	2.09
651.256	2.03
651.442	2
651.627	1.95
651.813	2.06
651.999	2.05
652.184	2.02
652.37	1.98
652.556	1.95
652.741	2.01
652.927	1.88
653.113	1.94
653.298	1.98
653.484	1.93
653.669	1.84
653.855	1.94
654.04	1.93
654.226	1.95
654.412	1.84
654.597	1.83
654.782	1.9
654.968	1.88
655.153	1.85
655.339	1.89
655.524	1.81
655.71	1.84
655.895	1.82
656.08	1.81
656.266	1.86
656.451	1.8
656.636	1.71
656.822	1.81
657.007	1.72
657.192	1.74
657.378	1.72
657.563	1.71
657.748	1.76
657.933	1.74
658.118	1.69
658.304	1.72
658.489	1.75
658.674	1.75
658.859	1.66
659.044	1.7
659.229	1.72
659.414	1.69
659.599	1.67
659.785	1.59
659.97	1.65
660.155	1.74
660.34	1.65
660.525	1.61
660.71	1.58
660.895	1.63
661.08	1.59
661.264	1.55
661.449	1.68
661.634	1.61
661.819	1.61
662.004	1.56
662.189	1.51
662.374	1.53
662.559	1.48
662.743	1.47
662.928	1.61
663.113	1.54
663.298	1.48
663.483	1.52
663.667	1.47
663.852	1.48
664.037	1.54
664.221	1.43
664.406	1.51
664.591	1.49
664.775	1.5
664.96	1.46
665.145	1.41
665.329	1.45
665.514	1.45
665.698	1.42
665.883	1.31
666.068	1.46
666.252	1.38
666.437	1.4
666.621	1.39
666.806	1.42
666.99	1.34
667.174	1.38
667.359	1.44
667.543	1.32
667.728	1.35
667.912	1.29
668.096	1.39
668.281	1.32
668.465	1.38
668.649	1.3
668.834	1.31
669.018	1.31
669.202	1.25
669.387	1.27
669.571	1.37
669.755	1.28
669.939	1.29
670.124	1.27
670.308	1.34
670.492	1.33
670.676	1.24
670.86	1.23
671.044	1.15
671.228	1.32
671.413	1.21
671.597	1.23
671.781	1.17
671.965	1.27
672.149	1.22
672.333	1.18
672.517	1.16
672.701	1.19
672.885	1.24
673.069	1.16
673.253	1.3
673.437	1.14
673.621	1.16
673.804	1.17
673.988	1.17
674.172	1.11
674.356	1.1
674.54	1.13
674.724	1.27
674.908	1.11
675.091	1.12
675.275	1.13
675.459	1.14
675.643	1.19
675.826	1.15
676.01	1.12
676.194	1.11
676.377	1.12
676.561	1.11
676.745	1.08
676.928	1.09
677.112	1.14
677.296	1.06
677.479	1.07
677.663	1.04
677.846	1.06
678.03	1.03
678.213	1
678.397	1.08
678.58	1.02
678.764	1.08
678.947	0.98
679.131	1.06
679.314	1.06
679.498	1.06
679.681	1.03
679.865	1.07
680.048	1.03
680.231	0.98
680.415	0.96
680.598	0.97
680.781	0.97
680.965	0.99
681.148	1.02
681.331	0.93
681.514	1.03
681.698	0.93
681.881	0.98
682.064	0.99
682.247	0.95
682.43	0.82
682.614	0.97
682.797	0.99
682.98	0.96
683.163	0.89
683.346	1
683.529	0.9
683.712	0.85
683.895	0.96
684.078	0.81
684.261	0.95
684.444	0.93
684.627	0.94
684.81	0.83
684.993	0.94
685.176	0.92
685.359	0.91
685.542	0.89
685.725	0.94
685.908	0.86
686.091	0.85
686.274	0.91
686.457	0.91
686.639	0.86
686.822	0.88
687.005	0.86
687.188	0.85
687.371	0.9
687.553	0.82
687.736	0.89
687.919	0.92
688.102	0.87
688.284	0.85
688.467	0.87
688.65	0.88
688.832	0.82
689.015	0.83
689.197	0.7
689.38	0.91
689.563	0.87
689.745	0.75
689.928	0.78
690.11	0.8
690.293	0.73
690.475	0.69
690.658	0.75
690.84	0.75
691.023	0.72
691.205	0.71
691.388	0.78
691.57	0.83
691.752	0.78
691.935	0.7
692.117	0.72
692.3	0.74
692.482	0.75
692.664	0.69
692.847	0.71
693.029	0.85
693.211	0.79
693.393	0.73
693.576	0.69
693.758	0.7
693.94	0.7
694.122	0.72
694.304	0.68
694.487	0.68
694.669	0.8
694.851	0.64
695.033	0.65
695.215	0.67
695.397	0.66
695.579	0.71
695.761	0.65
695.943	0.62
696.125	0.76
696.308	0.71
696.49	0.55
696.671	0.78
696.853	0.72
697.035	0.89
697.217	0.71
697.399	0.74
697.581	0.6
697.763	0.68
697.945	0.6
698.127	0.66
698.309	0.71
698.491	0.68
698.672	0.63
698.854	0.64
699.036	0.76
699.218	0.65
699.399	0.7
699.581	0.74
699.763	0.59
699.945	0.61
700.126	0.55
700.308	0.66
700.49	0.65
700.671	0.54
700.853	0.59
701.035	0.6
701.216	0.63
701.398	0.55
701.579	0.59
701.761	0.67
701.943	0.55
702.124	0.54
702.306	0.63
702.487	0.74
702.669	0.57
702.85	0.54
703.031	0.51
703.213	0.71
703.394	0.66
703.576	0.55
703.757	0.71
703.938	0.62
704.12	0.8
704.301	0.52
704.483	0.52
704.664	0.59
704.845	0.69
705.026	0.58
705.208	0.52
705.389	0.58
705.57	0.57
705.751	0.53
705.933	0.59
706.114	0.61
706.295	0.56
706.476	0.49
706.657	0.61
706.838	0.54
707.02	0.61
707.201	0.51
707.382	0.5
707.563	0.61
707.744	0.49
707.925	0.47
708.106	0.47
708.287	0.57
708.468	0.63
708.649	0.57
708.83	0.55
709.011	0.47
709.192	0.59
709.373	0.5
709.554	0.54
709.734	0.55
709.915	0.54
710.096	0.53
710.277	0.41
710.458	0.49
710.639	0.56
710.819	0.35
711	0.44
711.181	0.61
711.362	0.55
711.542	0.51
711.723	0.44
711.904	0.56
712.085	0.53
712.265	0.48
712.446	0.41
712.627	0.45
712.807	0.54
712.988	0.47
713.168	0.36
713.349	0.54
713.53	0.29
713.71	0.39
713.891	0.34
714.071	0.45
714.252	0.37
714.432	0.37
714.613	0.39
714.793	0.45
714.974	0.51
715.154	0.53
715.334	0.54
715.515	0.5
715.695	0.36
715.876	0.43
716.056	0.42
716.236	0.44
716.417	0.4
716.597	0.35
716.777	0.68
716.957	0.48
717.138	0.47
717.318	0.44
717.498	0.35
717.678	0.48
717.859	0.49
718.039	0.42
718.219	0.41
718.399	0.44
718.579	0.42
718.759	0.39
718.939	0.4
719.12	0.5
719.3	0.45
719.48	0.23
719.66	0.3
719.84	0.55
720.02	0.39
720.2	0.31
720.38	0.47
720.56	0.57
720.74	0.26
720.92	0.42
721.1	0.61
721.279	0.44
721.459	0.38
721.639	0.33
721.819	0.44
721.999	0.4
722.179	0.48
722.359	0.28
722.538	0.41
722.718	0.48
722.898	0.34
723.078	0.37
723.257	0.34
723.437	0.49
723.617	0.39
723.797	0.38
723.976	0.42
724.156	0.55
724.336	0.56
724.515	0.6
724.695	0.24
724.874	0.41
725.054	0.48
725.234	0.42
725.413	0.41
725.593	0.43
725.772	0.39
725.952	0.37
726.131	0.39
726.311	0.35
726.49	0.42
726.67	0.32
726.849	0.29
727.028	0.4
727.208	0.37
727.387	0.43
727.567	0.27
727.746	0.37
727.925	0.37
728.105	0.22
728.284	0.31
728.463	0.29
728.643	0.43
728.822	0.24
729.001	0.31
729.18	0.38
729.359	0.48
729.539	0.31
729.718	0.41
729.897	0.44
730.076	0.36
730.255	0.2
730.434	0.38
730.614	0.37
730.793	0.5
730.972	0.38
731.151	0.42
731.33	0.47
731.509	0.48
731.688	0.4
731.867	0.33
732.046	0.17
732.225	0.58
732.404	0.35
732.583	0.25
732.762	0.32
732.941	0.46
733.12	0.36
733.298	0.41
733.477	0.49
733.656	0.34
733.835	0.33
734.014	0.43
734.193	0.41
734.371	0.43
734.55	0.37
734.729	0.16
734.908	0.43
735.086	0.49
735.265	0.43
735.444	0.18
735.623	0.26
735.801	0.34
735.98	0.4
736.159	0.39
736.337	0.44
736.516	0.47
736.694	0.36
736.873	0.34
737.052	0.5
737.23	0.41
737.409	0.32
737.587	0.52
737.766	0.18
737.944	0.25
738.123	0.45
738.301	0.41
738.479	0.36
738.658	0.43
738.836	0.3
739.015	0.37
739.193	0.46
739.371	0.21
739.55	0.37
739.728	0.27
739.906	0.55
740.085	0.52
740.263	0.42
740.441	0.09
740.62	0.65
740.798	0.41
740.976	0.33
741.154	0.21
741.332	0.47
741.511	0.31
741.689	0.31
741.867	0.37
742.045	0.29
742.223	0.25
742.401	0.25
742.579	0.28
742.757	0.37
742.935	0.26
743.114	0.25
743.292	0.32
743.47	0.38
743.648	0.37
743.826	0.24
744.004	0.35
744.181	0.54
744.359	0.31
744.537	0.42
744.715	0.35
744.893	0.44
745.071	0.29
745.249	0.26
745.427	0.3
745.605	0.51
745.782	0.39
745.96	0.35
746.138	0.49
746.316	0.31
746.493	0.3
746.671	0.33
746.849	0.25
747.027	0.42
747.204	0.29
747.382	0.35
747.56	0.09
747.737	0.17
747.915	0.27
748.093	0.4
748.27	0.21
748.448	0.23
748.625	0.22
748.803	0.27
748.98	0.19
749.158	0.36
749.335	0.34
749.513	0.21
749.69	0.31
749.868	0.3
750.045	0.32
750.223	0.29
750.4	0.1
750.578	0.49
750.755	0.31
750.932	0.08
751.11	0.35
751.287	0.16
751.464	0.5
751.642	0.11
751.819	0.33
751.996	0.3
752.173	0.22
752.351	0.11
752.528	0.33
752.705	0.3
752.882	0.07
753.06	0.42
753.237	0.2
753.414	0.51
753.591	0.41
753.768	0.34
753.945	0.25
754.122	0.27
754.299	0.44
754.476	0.15
754.654	0.33
754.831	0.32
755.008	0.4
755.185	0.2
755.362	0.15
755.539	0.38
755.716	0.12
755.892	0.37
756.069	0.3
756.246	0.23
756.423	0.33
756.6	0.55
756.777	0.32
756.954	0.32
757.131	0.25
757.307	0.35
757.484	0.11
757.661	0.25
757.838	0.33
758.015	0.14
758.191	0.29
758.368	0.24
758.545	0.55
758.721	0.4
758.898	0.17
759.075	0.37
759.251	0.32
759.428	0.41
759.605	0.1
759.781	0.24
759.958	0.32
760.134	0.39
760.311	0.2
760.488	0.48
760.664	0.42
760.841	0.21
761.017	0.2
761.194	0.41
761.37	0.35
761.547	0.24
761.723	0.3
761.899	0.51
762.076	0.22
762.252	0.17
762.429	0.12
762.605	0.51
762.781	0.3
762.958	0.38
763.134	0.26
763.31	0.23
763.486	0.44
763.663	0.13
763.839	0.27
764.015	-0.01
764.191	0.31
764.368	0.19
764.544	0.14
764.72	0.35
764.896	0.39
765.072	0.24
765.248	0.24
765.425	0.28
765.601	0.29
765.777	0.25
765.953	0.01
766.129	0.21
766.305	0.27
766.481	0.33
766.657	0.15
766.833	0.39
767.009	0.12
767.185	0.2
767.361	0.17
767.537	0.19
767.713	0.45
767.889	0.15
768.065	0.27
768.24	0.34
768.416	0.25
768.592	0.16
768.768	0.25
768.944	0.34
769.12	0.17
769.295	0.24
769.471	0.22
769.647	0.23
769.823	0.46
769.998	0.13
770.174	0.22
770.35	0.58
770.525	0.51
770.701	0.39
770.877	0.29
771.052	0.13
771.228	0.54
771.403	0.34
771.579	0.3
771.755	0.55
771.93	0.18
772.106	0.16
772.281	0.04
772.457	0.35
772.632	0.36
772.808	0.01
772.983	0.2
773.159	0.09
773.334	0.45
773.509	0.26
773.685	0.06
773.86	0.7
774.036	0.52
774.211	0.2
774.386	0.26
774.562	0.3
774.737	0.36
774.912	0.18
775.087	0.4
775.263	0.31
775.438	0.29
775.613	0.01
775.788	0.19
775.964	0.45
776.139	0.66
776.314	0.16
776.489	0.41
776.664	0.32
776.839	-0.02
777.014	0.42
777.19	0.38
777.365	0.59
777.54	0.62
777.715	0.15
777.89	0.32
778.065	0.36
778.24	0.31
778.415	0.52
778.59	0.16
778.765	0.35
778.94	0.3
779.115	0.28
779.289	0.25
779.464	0.36
779.639	0.15
779.814	0.21
779.989	0.05
780.164	0.39
780.339	0.34
780.513	0.32
780.688	0.24
780.863	0.41
781.038	0.47
781.212	0.12
781.387	0.47
781.562	0.69
781.737	0.19
781.911	0.52
782.086	0.13
782.261	0.4
782.435	0.43
782.61	0.13
782.784	0.2
782.959	0.47
783.134	0.32
783.308	0.12
783.483	0.3
783.657	0.96
783.832	0.44
784.006	0.16
784.181	0.4
784.355	0.52
784.53	-0.02
784.704	0.22
784.878	0.64
785.053	0.35
785.227	0.68
785.402	0.74
785.576	0.09
785.75	0.34
785.925	0.29
786.099	0.47
786.273	0.49
786.448	0.71
786.622	0.51
786.796	0.22
786.97	0.32
787.145	0.84
787.319	0.06
787.493	0.21
787.667	-0.14
787.841	0.39
788.015	0.52
788.19	0.25
788.364	0.25
788.538	0.52
788.712	0.52
788.886	0.25
789.06	0.34
789.234	0.55
789.408	0.03
789.582	0.17
789.756	0.23
789.93	0.14
790.104	0.44
790.278	0.27
790.452	0.05
790.626	0.56
790.8	0.28
790.973	0.4
791.147	0.52
791.321	0.64
791.495	0.62
791.669	0.44
791.843	0.45
792.016	0.3
792.19	0.75
792.364	0.08
792.538	0.81
792.711	0.66
792.885	0.18
793.059	0.04
793.233	-0.14
793.406	0.71
793.58	0.25
793.754	0.42
793.927	0.3
794.101	0.66
794.274	0.18
794.448	0.57
794.622	0.03
794.795	0.76
794.969	0.17
795.142	0.85
795.316	0.24
795.489	0.06
795.663	0.73
795.836	0.13
796.009	0.13
796.183	0.85
796.356	0.4
796.53	0.34
796.703	0.33
796.876	0.97
797.05	0.09
797.223	0.25
797.396	0.45
797.57	0.34
797.743	0.54
797.916	0.31
798.09	0.06
798.263	0.69
798.436	0.52
798.609	0.23
798.782	0.22
798.956	0.39
799.129	0.39
799.302	0.17
799.475	0.45
799.648	0.07
799.821	0.3
799.994	0.32
800.167	0.13
800.34	0.34
800.514	0.2
800.687	0.27
800.86	0.3
801.033	0.46
801.206	0.38
801.379	-0.05
801.551	0.47
801.724	0.48
801.897	0.58
802.07	0.56
802.243	0.04
802.416	0.52
802.589	0.03
802.762	0.49
802.935	0.22
803.107	0.61
803.28	0.99
803.453	0.79
803.626	0.35
803.798	0.33
803.971	0.07
804.144	0.5
804.317	0.21
804.489	0.51
804.662	0.49
804.835	0.44
805.007	0.23
805.18	0.61
805.353	0.44
805.525	0.46
805.698	0.32
805.87	0.69
806.043	0.77
806.215	0.05
806.388	0.04
806.56	0.8
806.733	0.48
806.905	0.44
807.078	0.3
807.25	0.49
807.423	0.72
807.595	0.42
807.768	0.47
807.94	0.95
808.112	0.63
808.285	0.26
808.457	-0.05
808.629	0.38
808.802	0.71
808.974	0.52
809.146	0.01
809.318	0.24
809.491	0.2
809.663	0.36
809.835	0.12
810.007	0.59
810.18	0.59
810.352	-0.03
810.524	0.12
810.696	0.83
810.868	0.75
811.04	0.3
811.212	0.68
811.384	0.79
811.556	0.85
811.728	0.27
811.901	1.15
812.073	0.24
812.245	0.78
812.417	0.1
812.589	-0.27
812.76	0.63
812.932	0.64
813.104	0.91
813.276	0.39
813.448	1.03
813.62	0.74
813.792	0.53
813.964	0.51
814.136	0.51
814.307	0.18
814.479	0.03
814.651	0.41
814.823	0.91
814.995	0.63
815.166	0.74
815.338	0.03
815.51	-0.14
815.681	1.29
815.853	0.56
816.025	0.34
816.196	1.28
816.368	1.1
816.54	0.04
816.711	0.23
816.883	0.71
817.054	1.49
817.226	-0.15
817.398	0.61
817.569	-0.03
817.741	0.78
817.912	0.52
818.084	0.46
818.255	0.93
818.426	0.4
818.598	0.58
818.769	-0.45
818.941	0.77
819.112	1.26
819.283	0.58
819.455	0.25
819.626	0.2
819.798	1.02
819.969	0.67
820.14	0.37
820.311	0.07
820.483	0.89
820.654	1.06
820.825	0.39
820.996	0.3
821.168	0.21
821.339	0.48
821.51	-0.04
821.681	0.29
821.852	0.47
822.023	0.24
822.195	-0.09
822.366	1.38
822.537	0.27
822.708	0.6
822.879	-0.28
823.05	0.88
823.221	0.4
823.392	0.67
823.563	0.51
823.734	0.62
823.905	0.71
824.076	-0.57
824.247	-0.1
824.418	0.47
824.589	1.25
824.759	0.62
824.93	0.06
825.101	-0.23
825.272	1.16
825.443	1.07
825.614	1.06
825.784	0.08
825.955	2.06
826.126	0.93
826.297	0.7
826.467	1.54
826.638	1.83
826.809	-0.07
826.98	0.67
827.15	1.36
827.321	0.75
827.492	1.39
827.662	0.74
827.833	1.04
828.003	1.22
828.174	0.08
828.345	0.27
828.515	1.5
828.686	0.51
828.856	0.4
829.027	0.55
829.197	1.06
829.368	1.36
829.538	0.04
829.709	-0.15
829.879	0.74
830.049	0.85
830.22	0.64
830.39	0.72
830.56	1.31
830.731	0.29
830.901	0.08
831.072	0.06
831.242	0.87
831.412	0.57
831.582	0.97
831.753	-0.34
831.923	1.1
832.093	1.31
832.263	0.31
832.434	-0.11
832.604	-0.08
832.774	1.01
832.944	0.33
833.114	0.11
833.284	1.32
833.454	0.27
833.624	0.3
833.795	0.13
833.965	1.27
834.135	1.08
834.305	-0.66
834.475	-0.03
834.645	0.63
834.815	0.3
834.985	0.32
835.155	0.32
835.325	1.45
835.494	0.87
835.664	-0
835.834	-0.38
836.004	0.27
836.174	1.05
836.344	0.82
836.514	-0.46
836.684	0.3
836.853	0.16
837.023	1.07
837.193	0.42
837.363	1.22
837.532	2.21
837.702	0.19
837.872	-0.16
838.041	1.01
838.211	2.13
838.381	-0.54
838.55	0.08
838.72	2.88
838.89	2.43
839.059	0.38
839.229	0.1
839.398	2.2
839.568	1.47
839.738	0.26
839.907	0.96
840.077	0.87
840.246	0.4
840.416	0.1
840.585	-0.09
840.755	2.12
840.924	1.01
841.093	-0.02
841.263	-0.04
841.432	0.94
841.602	-0.22
841.771	0.3
841.94	0.91
842.11	2.52
842.279	3.29
842.448	0.74
842.617	-0.29
842.787	1.86
842.956	0.19
843.125	1.31
843.294	0.41
843.464	2.1
843.633	1.37
843.802	0.17
843.971	0.62
844.14	1.66
844.309	1.11
844.479	-0.21
844.648	0.52
844.817	0.24
844.986	0.95
845.155	0.12
845.324	0.3
845.493	0.47
845.662	0.15
845.831	1.5
846	1
846.169	0.74
846.338	2.08
846.507	2.05
846.676	1.52
846.844	0.08
847.013	1.96
847.182	0.84
847.351	0.68
847.52	1.06
847.689	1.11
847.858	0.48
848.026	0.02
848.195	0.6
848.364	0.93
848.533	-0.5
848.701	0.74
848.87	1
849.039	1.58
849.207	1.69
849.376	1.76
849.545	2.01
849.713	-0.16
849.882	0.56
850.051	0.7
850.219	1.4
850.388	1.98
850.556	0.27
850.725	-0.79
850.893	1.41
851.062	0.49
851.23	1.86
851.399	-0.51
851.567	0.38
851.736	0.76
851.904	0.13
852.073	0.33
852.241	1.4
852.41	1.42
852.578	0.82
852.746	0.31
852.915	2.8
853.083	1.99
853.251	-0.64
853.42	-0.14
853.588	0.78
853.756	2
853.924	0.86
854.093	1.21
854.261	0.76
854.429	-0.78
854.597	0.8
854.765	-0.62
854.934	1.94
855.102	2.47
855.27	-0.17
855.438	2.01
855.606	1.94
855.774	4.07
855.942	-1.2
856.11	-0.11
856.278	2.12
856.446	1.89
856.614	1.54
856.782	-0.55
856.95	1.66
857.118	2.5
857.286	2
857.454	-0.17
857.622	1.54
857.79	1.07
857.958	-0.08
858.126	1.12
858.294	-1.99
858.462	1.33
858.629	1.14
858.797	-0.8
858.965	0.94
859.133	0.36
859.301	1.18
859.468	1.63
859.636	1.09
859.804	2.9
859.971	2.24
860.139	0.18
860.307	3.11
860.474	0.52
860.642	0.76
860.81	0.26
860.977	0.62
861.145	1.56
861.313	0.56
861.48	0.07
861.648	2.62
861.815	1.09
861.983	0.1
862.15	1.04
862.318	2.4
862.485	1.97
862.653	0.28
862.82	0.27
862.988	3.48
863.155	2.82
863.322	-0.61
863.49	0.42
863.657	-0.02
863.824	2.62
863.992	2.37
864.159	2.11
864.326	3.26
864.494	-0.38
864.661	3.95
864.828	0.26
864.996	1.58
865.163	2.69
865.33	1.22
865.497	-1.96
865.664	0.9
865.832	-0.76
865.999	0.77
866.166	0.01
866.333	1.47
866.5	0.55
866.667	0.7
866.834	1.28
867.001	2.73
867.168	-1.61
867.335	1.14
867.502	-1.26
867.669	2.01
867.836	3.09
868.003	-0.12
868.17	2.11
868.337	0.36
868.504	5.17
868.671	0.07
868.838	0.18
869.005	0.89
869.172	1.79
869.339	1.08
869.505	1.75
869.672	2.07
869.839	1.08
870.006	0.69
870.173	-0.52
870.339	2.09
870.506	3.15
870.673	0.39
870.84	1.86
871.006	1.87
871.173	0.9
871.34	0.62
871.506	-1.69
871.673	2.59
871.839	-0.58
872.006	0.88
872.173	0.9
872.339	1.22
872.506	4.05
872.672	1.41
872.839	-1.09
873.005	2.63
873.172	3.8
873.338	3.45
873.505	1.35
873.671	1.31
873.838	3.23
874.004	-0.19
874.171	1.14
874.337	2.51
874.503	1.78
874.67	-0.33
874.836	1.94
875.002	4.49
875.169	2.32
875.335	1.67
875.501	0.82
875.668	1.33
875.834	1.94
876	1.38
876.166	2.43
876.332	3.82
876.499	4.98
876.665	0.5
876.831	1.64
876.997	2.83
877.163	3.52
877.329	1.04
877.495	1.26
877.662	2.14
877.828	2.78
877.994	1.38
878.16	-1.08
878.326	0.31
878.492	2.64
878.658	1.72
878.824	2.82
878.99	2.49
879.156	0.81
879.322	2.96
879.487	1.25
879.653	0.82
879.819	2.03
879.985	-0.93
880.151	1.32
880.317	1.21
880.483	0.67
880.648	3.47
880.814	-2.67
880.98	1.72
881.146	-1.26
881.312	0.93
881.477	0.18
881.643	1.74
881.809	4.36
881.974	3.57
882.14	0.09
882.306	-0.27
882.471	5.34
882.637	-0.38
882.803	2.09
882.968	3.74
883.134	5.01
883.299	2.26
883.465	3.3
883.63	3.39
883.796	4.02
883.961	1.26
884.127	1.02
884.292	-3.12
884.458	1.68
884.623	1.67
