Data from Apollo_Calib_20240827__AbsoluteIrradiance__850__13-19-00-426.txt Node

Date: Wed Aug 28 13:19:00 BST 2024
User: biology
Spectrometer: FLMT08252
Trigger mode: 0
Integration Time (sec): 5.000000E-1
Scans to average: 5
Electric dark correction enabled: true
Nonlinearity correction enabled: false
Boxcar width: 0
XAxis mode: Wavelengths
Number of Pixels in Spectrum: 3648
>>>>>Begin Spectral Data<<<<<
179.588	-0
179.809	-0
180.03	-0
180.251	-0
180.473	-0
180.694	0
180.915	0
181.136	-0
181.357	0
181.578	-0
181.799	-0
182.02	-0
182.241	-0
182.462	-0
182.683	0
182.904	-0
183.125	-0
183.346	0
183.567	0
183.788	0
184.009	0
184.23	0
184.451	0
184.672	0
184.892	0
185.113	0
185.334	0
185.555	0
185.776	0
185.996	0
186.217	0
186.438	0
186.659	0
186.879	0
187.1	0
187.321	0
187.541	0
187.762	0
187.983	0
188.203	0
188.424	0
188.644	0
188.865	0
189.086	0
189.306	0
189.527	0
189.747	0
189.968	0
190.188	0
190.409	0
190.629	0
190.849	0
191.07	0
191.29	0
191.511	0
191.731	0
191.951	0
192.172	0
192.392	0
192.612	0
192.833	0
193.053	0
193.273	0
193.493	0
193.714	0
193.934	0
194.154	0
194.374	0
194.594	0
194.815	0
195.035	0
195.255	0
195.475	0
195.695	0
195.915	0
196.135	0
196.355	0
196.575	0
196.795	0
197.015	0
197.235	0
197.455	0
197.675	0
197.895	0
198.115	0
198.335	0
198.555	0
198.775	0
198.995	0
199.214	0
199.434	0
199.654	0
199.874	0
200.094	3.6
200.313	1.99
200.533	2.24
200.753	1.86
200.973	3.54
201.192	3.11
201.412	1.46
201.632	1.6
201.851	3.07
202.071	1.8
202.291	1.9
202.51	0.68
202.73	2.62
202.95	2.04
203.169	1.02
203.389	1.88
203.608	1.9
203.828	2.05
204.047	1.57
204.267	2.15
204.486	2.11
204.706	2.65
204.925	1.53
205.145	1.27
205.364	2.19
205.583	2.84
205.803	1.16
206.022	1.18
206.242	1.47
206.461	1.21
206.68	1.47
206.9	1.54
207.119	2.72
207.338	2.01
207.557	0.74
207.777	1.05
207.996	1.21
208.215	2.11
208.434	1.02
208.654	0.59
208.873	1.38
209.092	2.33
209.311	1.17
209.53	1.06
209.749	1.31
209.968	1.42
210.187	1
210.407	0.67
210.626	1.04
210.845	1.76
211.064	1.15
211.283	0.89
211.502	1.29
211.721	1.1
211.94	1.18
212.159	1.27
212.377	1.28
212.596	1.51
212.815	0.86
213.034	0.98
213.253	1.45
213.472	1.03
213.691	1.1
213.91	0.7
214.128	0.75
214.347	1.69
214.566	0.44
214.785	0.43
215.003	1.17
215.222	1.08
215.441	1
215.66	0.65
215.878	1.09
216.097	1.28
216.316	0.77
216.534	0.77
216.753	1.13
216.972	0.83
217.19	0.74
217.409	0.47
217.627	0.73
217.846	0.93
218.064	0.98
218.283	0.55
218.501	1.42
218.72	1.21
218.938	0.56
219.157	0.58
219.375	1.02
219.594	0.95
219.812	0.55
220.031	0.38
220.249	1.3
220.467	1.1
220.686	0.51
220.904	0.52
221.122	0.77
221.341	1.23
221.559	0.97
221.777	0.41
221.995	0.77
222.214	1.06
222.432	0.55
222.65	0.89
222.868	0.73
223.086	1
223.305	0.79
223.523	0.83
223.741	1.23
223.959	0.64
224.177	0.31
224.395	0.45
224.613	0.86
224.831	1.01
225.049	0.49
225.267	0.55
225.485	0.83
225.703	0.72
225.921	0.63
226.139	0.51
226.357	0.94
226.575	0.78
226.793	0.51
227.011	1.64
227.229	0.8
227.447	0.87
227.665	0.62
227.883	0.3
228.1	0.62
228.318	0.8
228.536	0.33
228.754	0.39
228.972	0.66
229.189	0.72
229.407	0.47
229.625	0.6
229.843	0.89
230.06	0.82
230.278	0.58
230.496	0.56
230.713	0.75
230.931	0.82
231.149	0.45
231.366	0.24
231.584	0.59
231.801	1.01
232.019	0.44
232.236	0.38
232.454	0.38
232.671	0.75
232.889	0.53
233.106	0.36
233.324	0.54
233.541	0.56
233.759	0.52
233.976	0.28
234.194	0.52
234.411	0.53
234.628	0.43
234.846	0.47
235.063	0.57
235.28	0.67
235.498	0.36
235.715	0.25
235.932	0.77
236.149	0.44
236.367	0.38
236.584	0.53
236.801	0.4
237.018	0.63
237.236	0.49
237.453	0.25
237.67	0.64
237.887	0.54
238.104	0.46
238.321	0.32
238.538	0.36
238.755	0.64
238.973	0.27
239.19	0.51
239.407	0.52
239.624	0.53
239.841	0.32
240.058	0.36
240.275	0.58
240.492	0.46
240.709	0.48
240.925	0.38
241.142	0.51
241.359	0.44
241.576	0.31
241.793	0.33
242.01	0.42
242.227	0.71
242.444	0.46
242.66	0.63
242.877	0.53
243.094	0.34
243.311	0.46
243.527	0.46
243.744	0.48
243.961	0.62
244.178	0.36
244.394	0.45
244.611	0.63
244.828	0.66
245.044	0.33
245.261	0.43
245.477	0.53
245.694	0.57
245.911	0.32
246.127	0.52
246.344	0.62
246.56	0.55
246.777	0.39
246.993	0.45
247.21	0.56
247.426	0.57
247.643	0.4
247.859	0.25
248.076	0.37
248.292	0.74
248.508	0.31
248.725	0.43
248.941	0.45
249.157	0.58
249.374	0.26
249.59	0.37
249.806	0.42
250.023	0.63
250.239	0.39
250.455	0.32
250.671	0.46
250.888	0.53
251.104	0.44
251.32	0.28
251.536	0.4
251.752	0.47
251.969	0.38
252.185	0.38
252.401	0.63
252.617	0.44
252.833	0.34
253.049	0.43
253.265	0.39
253.481	0.39
253.697	0.3
253.913	0.35
254.129	0.49
254.345	0.44
254.561	0.35
254.777	0.31
254.993	0.49
255.209	0.37
255.425	0.28
255.641	0.31
255.857	0.52
256.073	0.43
256.288	0.21
256.504	0.24
256.72	0.5
256.936	0.54
257.152	0.43
257.367	0.33
257.583	0.37
257.799	0.46
258.015	0.39
258.23	0.31
258.446	0.56
258.662	0.36
258.877	0.32
259.093	0.24
259.309	0.36
259.524	0.48
259.74	0.3
259.955	0.28
260.171	0.35
260.387	0.41
260.602	0.45
260.818	0.36
261.033	0.27
261.249	0.37
261.464	0.34
261.68	0.23
261.895	0.43
262.11	0.44
262.326	0.32
262.541	0.16
262.757	0.46
262.972	0.41
263.187	0.39
263.403	0.34
263.618	0.47
263.833	0.42
264.049	0.28
264.264	0.31
264.479	0.37
264.694	0.56
264.91	0.22
265.125	0.37
265.34	0.43
265.555	0.5
265.77	0.36
265.986	0.33
266.201	0.41
266.416	0.37
266.631	0.35
266.846	0.27
267.061	0.41
267.276	0.46
267.491	0.15
267.706	0.38
267.921	0.41
268.136	0.41
268.351	0.39
268.566	0.21
268.781	0.45
268.996	0.5
269.211	0.31
269.426	0.31
269.641	0.32
269.856	0.41
270.071	0.24
270.285	0.2
270.5	0.45
270.715	0.48
270.93	0.31
271.145	0.33
271.359	0.43
271.574	0.32
271.789	0.32
272.004	0.28
272.218	0.28
272.433	0.42
272.648	0.27
272.862	0.43
273.077	0.36
273.292	0.35
273.506	0.26
273.721	0.31
273.936	0.39
274.15	0.44
274.365	0.31
274.579	0.36
274.794	0.4
275.008	0.38
275.223	0.19
275.437	0.31
275.652	0.45
275.866	0.34
276.081	0.28
276.295	0.33
276.509	0.29
276.724	0.4
276.938	0.31
277.153	0.37
277.367	0.41
277.581	0.29
277.796	0.25
278.01	0.25
278.224	0.39
278.438	0.5
278.653	0.18
278.867	0.23
279.081	0.16
279.295	0.33
279.51	0.31
279.724	0.18
279.938	0.36
280.152	0.39
280.366	0.27
280.58	0.31
280.794	0.41
281.008	0.36
281.222	0.34
281.437	0.47
281.651	0.36
281.865	0.4
282.079	0.3
282.293	0.17
282.507	0.29
282.721	0.27
282.935	0.26
283.148	0.18
283.362	0.29
283.576	0.25
283.79	0.3
284.004	0.24
284.218	0.4
284.432	0.26
284.646	0.28
284.859	0.26
285.073	0.29
285.287	0.32
285.501	0.3
285.714	0.23
285.928	0.26
286.142	0.37
286.356	0.22
286.569	0.23
286.783	0.4
286.997	0.35
287.21	0.28
287.424	0.3
287.637	0.3
287.851	0.25
288.065	0.3
288.278	0.25
288.492	0.28
288.705	0.25
288.919	0.35
289.132	0.21
289.346	0.37
289.559	0.18
289.773	0.16
289.986	0.24
290.2	0.27
290.413	0.33
290.626	0.21
290.84	0.26
291.053	0.23
291.267	0.4
291.48	0.28
291.693	0.26
291.906	0.29
292.12	0.26
292.333	0.26
292.546	0.21
292.76	0.38
292.973	0.31
293.186	0.31
293.399	0.21
293.612	0.33
293.826	0.28
294.039	0.28
294.252	0.28
294.465	0.34
294.678	0.33
294.891	0.24
295.104	0.18
295.317	0.31
295.53	0.31
295.743	0.24
295.956	0.24
296.169	0.4
296.382	0.34
296.595	0.24
296.808	0.22
297.021	0.32
297.234	0.32
297.447	0.27
297.66	0.29
297.873	0.31
298.086	0.32
298.299	0.23
298.511	0.18
298.724	0.25
298.937	0.19
299.15	0.2
299.363	0.22
299.575	0.35
299.788	0.31
300.001	0.23
300.213	0.17
300.426	0.26
300.639	0.18
300.852	0.19
301.064	0.29
301.277	0.34
301.489	0.31
301.702	0.27
301.915	0.25
302.127	0.28
302.34	0.3
302.552	0.28
302.765	0.24
302.977	0.3
303.19	0.25
303.402	0.22
303.615	0.24
303.827	0.25
304.04	0.27
304.252	0.31
304.464	0.23
304.677	0.37
304.889	0.29
305.102	0.21
305.314	0.23
305.526	0.28
305.739	0.27
305.951	0.19
306.163	0.21
306.375	0.36
306.588	0.23
306.8	0.23
307.012	0.17
307.224	0.27
307.436	0.38
307.649	0.17
307.861	0.26
308.073	0.33
308.285	0.22
308.497	0.25
308.709	0.21
308.921	0.31
309.133	0.33
309.346	0.23
309.558	0.22
309.77	0.28
309.982	0.34
310.194	0.27
310.406	0.22
310.617	0.34
310.829	0.28
311.041	0.29
311.253	0.22
311.465	0.21
311.677	0.26
311.889	0.22
312.101	0.2
312.313	0.38
312.524	0.38
312.736	0.15
312.948	0.2
313.16	0.33
313.372	0.3
313.583	0.29
313.795	0.2
314.007	0.2
314.218	0.31
314.43	0.31
314.642	0.24
314.853	0.19
315.065	0.32
315.277	0.23
315.488	0.26
315.7	0.29
315.912	0.3
316.123	0.28
316.335	0.24
316.546	0.38
316.758	0.24
316.969	0.25
317.181	0.29
317.392	0.22
317.604	0.36
317.815	0.21
318.026	0.24
318.238	0.23
318.449	0.29
318.661	0.18
318.872	0.18
319.083	0.2
319.295	0.36
319.506	0.25
319.717	0.25
319.929	0.31
320.14	0.28
320.351	0.24
320.562	0.2
320.774	0.33
320.985	0.29
321.196	0.21
321.407	0.21
321.618	0.27
321.829	0.26
322.041	0.32
322.252	0.23
322.463	0.3
322.674	0.29
322.885	0.18
323.096	0.27
323.307	0.25
323.518	0.25
323.729	0.2
323.94	0.22
324.151	0.2
324.362	0.26
324.573	0.27
324.784	0.22
324.995	0.31
325.206	0.28
325.417	0.2
325.628	0.23
325.838	0.3
326.049	0.26
326.26	0.31
326.471	0.28
326.682	0.27
326.892	0.28
327.103	0.17
327.314	0.18
327.525	0.3
327.735	0.29
327.946	0.23
328.157	0.18
328.368	0.32
328.578	0.26
328.789	0.3
328.999	0.26
329.21	0.24
329.421	0.31
329.631	0.21
329.842	0.16
330.052	0.26
330.263	0.29
330.473	0.27
330.684	0.2
330.894	0.27
331.105	0.28
331.315	0.28
331.526	0.14
331.736	0.34
331.947	0.31
332.157	0.28
332.367	0.17
332.578	0.3
332.788	0.37
332.999	0.3
333.209	0.24
333.419	0.17
333.629	0.29
333.84	0.29
334.05	0.28
334.26	0.35
334.47	0.27
334.681	0.3
334.891	0.22
335.101	0.32
335.311	0.37
335.521	0.29
335.732	0.21
335.942	0.34
336.152	0.29
336.362	0.24
336.572	0.23
336.782	0.3
336.992	0.25
337.202	0.28
337.412	0.24
337.622	0.3
337.832	0.29
338.042	0.27
338.252	0.19
338.462	0.26
338.672	0.25
338.882	0.25
339.092	0.18
339.302	0.35
339.511	0.29
339.721	0.22
339.931	0.2
340.141	0.31
340.351	0.33
340.561	0.28
340.77	0.27
340.98	0.34
341.19	0.31
341.4	0.25
341.609	0.17
341.819	0.24
342.029	0.18
342.238	0.3
342.448	0.25
342.658	0.33
342.867	0.28
343.077	0.24
343.286	0.27
343.496	0.26
343.706	0.35
343.915	0.2
344.125	0.25
344.334	0.27
344.544	0.2
344.753	0.21
344.963	0.22
345.172	0.18
345.381	0.21
345.591	0.17
345.8	0.22
346.01	0.33
346.219	0.28
346.428	0.13
346.638	0.28
346.847	0.28
347.056	0.35
347.266	0.24
347.475	0.2
347.684	0.28
347.893	0.27
348.103	0.26
348.312	0.21
348.521	0.27
348.73	0.24
348.94	0.24
349.149	0.24
349.358	0.26
349.567	0.19
349.776	0.19
349.985	0.27
350.194	0.3
350.403	0.29
350.612	0.17
350.821	0.21
351.03	0.28
351.239	0.19
351.448	0.25
351.657	0.18
351.866	0.33
352.075	0.23
352.284	0.26
352.493	0.22
352.702	0.3
352.911	0.26
353.12	0.24
353.329	0.21
353.538	0.28
353.746	0.22
353.955	0.19
354.164	0.24
354.373	0.2
354.582	0.26
354.79	0.24
354.999	0.27
355.208	0.26
355.416	0.36
355.625	0.18
355.834	0.24
356.042	0.29
356.251	0.22
356.46	0.22
356.668	0.24
356.877	0.35
357.085	0.3
357.294	0.18
357.503	0.27
357.711	0.25
357.92	0.42
358.128	0.29
358.337	0.21
358.545	0.29
358.754	0.25
358.962	0.26
359.17	0.21
359.379	0.27
359.587	0.22
359.796	0.21
360.004	0.33
360.212	0.28
360.421	0.28
360.629	0.24
360.837	0.22
361.046	0.28
361.254	0.43
361.462	0.23
361.67	0.19
361.879	0.27
362.087	0.34
362.295	0.24
362.503	0.19
362.711	0.2
362.92	0.22
363.128	0.21
363.336	0.18
363.544	0.17
363.752	0.23
363.96	0.18
364.168	0.2
364.376	0.23
364.584	0.28
364.792	0.32
365	0.25
365.208	0.28
365.416	0.27
365.624	0.32
365.832	0.18
366.04	0.33
366.248	0.24
366.456	0.27
366.664	0.23
366.872	0.21
367.079	0.25
367.287	0.22
367.495	0.24
367.703	0.22
367.911	0.21
368.118	0.25
368.326	0.24
368.534	0.19
368.742	0.32
368.949	0.17
369.157	0.19
369.365	0.3
369.572	0.22
369.78	0.2
369.988	0.29
370.195	0.32
370.403	0.26
370.61	0.21
370.818	0.26
371.026	0.36
371.233	0.23
371.441	0.31
371.648	0.26
371.856	0.28
372.063	0.25
372.271	0.22
372.478	0.17
372.685	0.23
372.893	0.31
373.1	0.23
373.308	0.22
373.515	0.36
373.722	0.31
373.93	0.25
374.137	0.25
374.344	0.34
374.552	0.3
374.759	0.27
374.966	0.24
375.173	0.25
375.381	0.31
375.588	0.23
375.795	0.2
376.002	0.23
376.209	0.2
376.417	0.26
376.624	0.29
376.831	0.32
377.038	0.23
377.245	0.18
377.452	0.22
377.659	0.28
377.866	0.23
378.073	0.23
378.28	0.25
378.487	0.31
378.694	0.31
378.901	0.24
379.108	0.21
379.315	0.29
379.522	0.36
379.729	0.28
379.936	0.23
380.143	0.25
380.35	0.3
380.557	0.26
380.763	0.24
380.97	0.25
381.177	0.25
381.384	0.29
381.591	0.21
381.797	0.3
382.004	0.31
382.211	0.3
382.418	0.19
382.624	0.29
382.831	0.31
383.038	0.26
383.244	0.27
383.451	0.27
383.658	0.32
383.864	0.27
384.071	0.23
384.277	0.37
384.484	0.29
384.69	0.38
384.897	0.23
385.103	0.23
385.31	0.23
385.516	0.24
385.723	0.23
385.929	0.29
386.136	0.29
386.342	0.3
386.549	0.26
386.755	0.32
386.961	0.29
387.168	0.29
387.374	0.3
387.58	0.36
387.787	0.27
387.993	0.29
388.199	0.28
388.406	0.29
388.612	0.27
388.818	0.29
389.024	0.23
389.231	0.29
389.437	0.39
389.643	0.32
389.849	0.3
390.055	0.26
390.261	0.28
390.467	0.33
390.674	0.26
390.88	0.28
391.086	0.36
391.292	0.26
391.498	0.3
391.704	0.36
391.91	0.27
392.116	0.3
392.322	0.22
392.528	0.32
392.734	0.32
392.94	0.31
393.146	0.3
393.352	0.35
393.557	0.28
393.763	0.28
393.969	0.34
394.175	0.32
394.381	0.34
394.587	0.24
394.792	0.3
394.998	0.34
395.204	0.33
395.41	0.25
395.615	0.32
395.821	0.31
396.027	0.33
396.233	0.27
396.438	0.34
396.644	0.37
396.85	0.33
397.055	0.26
397.261	0.33
397.466	0.46
397.672	0.36
397.878	0.36
398.083	0.35
398.289	0.3
398.494	0.39
398.7	0.38
398.905	0.26
399.111	0.43
399.316	0.28
399.522	0.34
399.727	0.3
399.932	0.32
400.138	0.33
400.343	0.35
400.549	0.35
400.754	0.35
400.959	0.36
401.165	0.32
401.37	0.39
401.575	0.45
401.78	0.33
401.986	0.34
402.191	0.37
402.396	0.39
402.601	0.42
402.807	0.41
403.012	0.36
403.217	0.42
403.422	0.41
403.627	0.41
403.832	0.39
404.037	0.42
404.243	0.48
404.448	0.41
404.653	0.42
404.858	0.46
405.063	0.43
405.268	0.35
405.473	0.44
405.678	0.39
405.883	0.68
406.088	0.52
406.293	0.41
406.498	0.46
406.703	0.53
406.907	0.46
407.112	0.42
407.317	0.55
407.522	0.55
407.727	0.47
407.932	0.55
408.136	0.62
408.341	0.51
408.546	0.56
408.751	0.57
408.956	0.59
409.16	0.67
409.365	0.59
409.57	0.55
409.774	0.61
409.979	0.67
410.184	0.65
410.388	0.63
410.593	0.74
410.798	0.73
411.002	0.76
411.207	0.82
411.411	0.76
411.616	0.7
411.82	0.82
412.025	0.83
412.229	0.84
412.434	0.92
412.638	0.96
412.843	0.87
413.047	0.93
413.252	0.89
413.456	0.97
413.66	1.01
413.865	0.98
414.069	1.14
414.273	1.04
414.478	1.09
414.682	1.13
414.886	1.21
415.091	1.15
415.295	1.2
415.499	1.32
415.703	1.32
415.908	1.4
416.112	1.28
416.316	1.55
416.52	1.53
416.724	1.51
416.929	1.52
417.133	1.77
417.337	1.65
417.541	1.66
417.745	1.75
417.949	1.85
418.153	1.89
418.357	1.96
418.561	2.09
418.765	2.1
418.969	2.25
419.173	2.35
419.377	2.26
419.581	2.53
419.785	2.47
419.989	2.45
420.193	2.67
420.397	2.66
420.601	2.85
420.804	2.91
421.008	2.9
421.212	3.11
421.416	3.12
421.62	3.11
421.823	3.15
422.027	3.4
422.231	3.29
422.435	3.3
422.638	3.35
422.842	3.48
423.046	3.53
423.249	3.77
423.453	3.76
423.657	3.91
423.86	3.98
424.064	4.08
424.268	4.23
424.471	4.18
424.675	4.45
424.878	4.52
425.082	4.62
425.285	4.91
425.489	4.82
425.692	4.95
425.896	5.01
426.099	5.11
426.303	5.39
426.506	5.42
426.71	5.64
426.913	5.9
427.116	6.01
427.32	6.01
427.523	6.07
427.726	6.48
427.93	6.43
428.133	6.78
428.336	6.85
428.54	7.11
428.743	7.34
428.946	7.56
429.149	7.48
429.353	7.55
429.556	7.64
429.759	7.68
429.962	7.85
430.165	7.98
430.368	7.74
430.571	7.78
430.775	7.86
430.978	7.85
431.181	7.79
431.384	7.92
431.587	8.08
431.79	8.33
431.993	8.31
432.196	8.65
432.399	9.06
432.602	9.14
432.805	9.17
433.008	9.69
433.211	9.48
433.414	9.98
433.616	10.01
433.819	9.86
434.022	10.17
434.225	10.36
434.428	10.31
434.631	10.76
434.833	10.57
435.036	10.75
435.239	10.9
435.442	11.05
435.645	11.18
435.847	11.19
436.05	11.58
436.253	11.84
436.455	11.77
436.658	11.64
436.861	11.98
437.063	12.1
437.266	12.09
437.468	12.37
437.671	12.68
437.874	12.79
438.076	12.53
438.279	13.09
438.481	13.08
438.684	14.01
438.886	13.56
439.089	13.61
439.291	13.79
439.494	14.2
439.696	14.31
439.899	14.82
440.101	15.21
440.303	15.3
440.506	16.04
440.708	15.85
440.91	16.05
441.113	16.32
441.315	16.5
441.517	16.33
441.72	16.83
441.922	16.46
442.124	16.42
442.326	16.83
442.529	16.96
442.731	16.94
442.933	17.2
443.135	16.98
443.337	16.96
443.539	17.62
443.742	17.2
443.944	17.93
444.146	17.64
444.348	17.74
444.55	17.4
444.752	17.8
444.954	17.72
445.156	17.56
445.358	18.11
445.56	18.32
445.762	18.1
445.964	18.43
446.166	18.19
446.368	18.25
446.57	18.33
446.772	17.85
446.974	17.74
447.175	17.97
447.377	17.63
447.579	18.01
447.781	17.91
447.983	17.54
448.184	17.17
448.386	17.63
448.588	17.07
448.79	17.06
448.991	17.42
449.193	17.54
449.395	16.73
449.597	16.38
449.798	16.35
450	15.96
450.202	15.91
450.403	15.9
450.605	15.87
450.806	15.41
451.008	15.16
451.21	15.1
451.411	14.67
451.613	13.82
451.814	14.29
452.016	14.16
452.217	13.42
452.419	13.48
452.62	13.24
452.821	12.89
453.023	12.76
453.224	12.35
453.426	12.1
453.627	11.26
453.828	11.45
454.03	11.48
454.231	11.42
454.432	11.31
454.634	11.02
454.835	10.67
455.036	10.68
455.238	10.23
455.439	10.01
455.64	9.75
455.841	9.63
456.042	9.74
456.244	9.45
456.445	9.14
456.646	8.81
456.847	8.82
457.048	8.7
457.249	8.71
457.45	8.44
457.651	7.89
457.852	7.78
458.054	7.4
458.255	7.46
458.456	7.66
458.657	7.39
458.858	6.9
459.058	6.82
459.259	6.97
459.46	6.61
459.661	6.56
459.862	6.66
460.063	6.47
460.264	6.43
460.465	6.17
460.666	6.28
460.866	5.88
461.067	5.65
461.268	5.7
461.469	5.55
461.67	5.5
461.87	5.32
462.071	5.39
462.272	5.32
462.473	5.27
462.673	5.36
462.874	5.36
463.075	5.27
463.275	5.26
463.476	5.25
463.676	5.25
463.877	5.05
464.078	5.04
464.278	5.1
464.479	5
464.679	4.85
464.88	4.78
465.08	4.78
465.281	4.59
465.481	4.38
465.682	4.28
465.882	4.28
466.083	4.31
466.283	4.13
466.483	3.94
466.684	3.87
466.884	3.67
467.085	3.78
467.285	3.86
467.485	3.73
467.686	3.59
467.886	3.53
468.086	3.48
468.286	3.45
468.487	3.54
468.687	3.32
468.887	3.36
469.087	3.46
469.287	3.37
469.488	3.17
469.688	3.29
469.888	3.27
470.088	3.27
470.288	3.18
470.488	3.18
470.688	3.03
470.888	2.91
471.088	2.72
471.288	2.91
471.488	2.8
471.688	2.79
471.888	2.74
472.088	2.92
472.288	2.84
472.488	2.65
472.688	2.6
472.888	2.68
473.088	2.66
473.288	2.62
473.488	2.56
473.688	2.73
473.887	2.54
474.087	2.48
474.287	2.52
474.487	2.45
474.687	2.47
474.886	2.46
475.086	2.41
475.286	2.35
475.486	2.36
475.685	2.29
475.885	2.22
476.085	2.32
476.284	2.32
476.484	2.32
476.684	2.24
476.883	2.35
477.083	2.28
477.282	2.14
477.482	2.24
477.681	2.21
477.881	2.13
478.08	2.13
478.28	2.1
478.479	2.15
478.679	2.18
478.878	2.12
479.078	2.06
479.277	2.17
479.477	2.08
479.676	2.07
479.875	2.06
480.075	1.97
480.274	2.08
480.473	2.12
480.673	2.03
480.872	2.17
481.071	2.09
481.271	2.12
481.47	2.03
481.669	2.01
481.868	2.03
482.067	2.05
482.267	1.96
482.466	2
482.665	1.98
482.864	1.99
483.063	1.99
483.262	2.06
483.461	2.1
483.661	2.12
483.86	2.02
484.059	2.08
484.258	2.08
484.457	2.04
484.656	2.05
484.855	2.15
485.054	1.92
485.253	2.05
485.452	1.97
485.651	2.07
485.849	2.07
486.048	2.04
486.247	2.05
486.446	2.16
486.645	2.06
486.844	2.09
487.043	2.07
487.241	2.11
487.44	2.06
487.639	2.16
487.838	2.16
488.037	2.11
488.235	2.24
488.434	2.17
488.633	2.07
488.831	2.24
489.03	2.27
489.229	2.22
489.427	2.23
489.626	2.33
489.825	2.28
490.023	2.29
490.222	2.31
490.42	2.35
490.619	2.41
490.817	2.4
491.016	2.33
491.214	2.42
491.413	2.41
491.611	2.36
491.81	2.44
492.008	2.44
492.207	2.54
492.405	2.54
492.604	2.49
492.802	2.55
493	2.6
493.199	2.6
493.397	2.64
493.595	2.72
493.794	2.65
493.992	2.75
494.19	2.76
494.388	2.83
494.587	2.73
494.785	2.79
494.983	2.72
495.181	2.88
495.379	2.93
495.578	2.96
495.776	2.93
495.974	2.93
496.172	2.97
496.37	3.11
496.568	3.08
496.766	3.07
496.964	3.17
497.162	3.17
497.36	3.19
497.558	3.24
497.756	3.29
497.954	3.3
498.152	3.31
498.35	3.45
498.548	3.35
498.746	3.41
498.944	3.42
499.142	3.41
499.34	3.51
499.538	3.63
499.736	3.48
499.933	3.66
500.131	3.62
500.329	3.75
500.527	3.76
500.725	3.86
500.922	3.9
501.12	3.87
501.318	3.93
501.516	3.92
501.713	4.01
501.911	3.98
502.109	3.92
502.306	4.04
502.504	3.99
502.701	4.02
502.899	4.13
503.097	4.38
503.294	4.17
503.492	4.27
503.689	4.35
503.887	4.38
504.084	4.46
504.282	4.43
504.479	4.37
504.677	4.54
504.874	4.48
505.072	4.44
505.269	4.62
505.466	4.65
505.664	4.7
505.861	4.61
506.059	4.7
506.256	4.75
506.453	4.8
506.651	4.9
506.848	4.97
507.045	4.94
507.242	4.96
507.44	5.01
507.637	5.05
507.834	5.01
508.031	5.19
508.229	5.08
508.426	5.03
508.623	5.26
508.82	5.27
509.017	5.2
509.214	5.21
509.411	5.31
509.608	5.3
509.805	5.46
510.003	5.4
510.2	5.43
510.397	5.6
510.594	5.54
510.791	5.55
510.988	5.57
511.184	5.63
511.381	5.46
511.578	5.59
511.775	5.84
511.972	5.73
512.169	5.74
512.366	5.76
512.563	5.96
512.76	5.93
512.956	5.96
513.153	5.87
513.35	5.86
513.547	5.83
513.744	5.98
513.94	5.97
514.137	6.13
514.334	6.06
514.53	6.15
514.727	6.31
514.924	6.21
515.12	6.26
515.317	6.22
515.514	6.18
515.71	6.18
515.907	6.38
516.103	6.37
516.3	6.25
516.497	6.42
516.693	6.45
516.89	6.43
517.086	6.45
517.283	6.54
517.479	6.33
517.676	6.58
517.872	6.6
518.068	6.55
518.265	6.59
518.461	6.51
518.658	6.6
518.854	6.62
519.05	6.73
519.247	6.75
519.443	6.73
519.639	6.85
519.836	6.72
520.032	6.69
520.228	6.82
520.424	6.83
520.621	6.83
520.817	6.88
521.013	6.93
521.209	7.06
521.405	6.96
521.601	6.96
521.798	6.89
521.994	6.96
522.19	6.93
522.386	6.97
522.582	7.08
522.778	7.19
522.974	7.06
523.17	7.02
523.366	7.05
523.562	7.08
523.758	7.12
523.954	6.99
524.15	7.13
524.346	7.23
524.542	7.2
524.738	7.2
524.934	7.31
525.129	7.17
525.325	7.19
525.521	7.21
525.717	7.37
525.913	7.27
526.109	7.19
526.304	7.4
526.5	7.39
526.696	7.41
526.892	7.31
527.087	7.55
527.283	7.45
527.479	7.47
527.674	7.28
527.87	7.48
528.066	7.43
528.261	7.52
528.457	7.4
528.653	7.61
528.848	7.51
529.044	7.56
529.239	7.38
529.435	7.5
529.63	7.42
529.826	7.52
530.021	7.51
530.217	7.59
530.412	7.58
530.608	7.55
530.803	7.57
530.999	7.52
531.194	7.55
531.389	7.64
531.585	7.61
531.78	7.77
531.975	7.7
532.171	7.7
532.366	7.72
532.561	7.68
532.757	7.63
532.952	7.82
533.147	7.63
533.342	7.75
533.538	7.61
533.733	7.88
533.928	7.51
534.123	7.73
534.318	7.78
534.513	7.65
534.709	7.87
534.904	7.78
535.099	7.87
535.294	7.79
535.489	7.88
535.684	7.81
535.879	7.72
536.074	7.83
536.269	7.82
536.464	7.89
536.659	7.83
536.854	7.86
537.049	7.92
537.244	7.9
537.439	7.82
537.634	7.86
537.828	7.91
538.023	7.91
538.218	7.87
538.413	7.79
538.608	7.83
538.803	7.89
538.997	7.85
539.192	7.92
539.387	7.86
539.582	7.86
539.776	7.74
539.971	7.92
540.166	8.06
540.36	7.86
540.555	8.04
540.75	7.97
540.944	7.92
541.139	7.92
541.334	7.89
541.528	7.94
541.723	8.02
541.917	8.05
542.112	7.81
542.306	7.85
542.501	7.91
542.695	7.9
542.89	7.92
543.084	7.87
543.279	8.01
543.473	8
543.668	8.03
543.862	7.9
544.056	7.91
544.251	7.95
544.445	8.01
544.64	8.05
544.834	7.81
545.028	7.63
545.222	8
545.417	8.18
545.611	8.05
545.805	7.97
546	7.81
546.194	8.03
546.388	8.03
546.582	7.95
546.776	7.99
546.97	8
547.165	7.97
547.359	8.01
547.553	7.94
547.747	7.99
547.941	8.23
548.135	7.97
548.329	8.04
548.523	8.02
548.717	7.98
548.911	8.02
549.105	7.93
549.299	8.06
549.493	8.04
549.687	7.87
549.881	8.11
550.075	8.03
550.269	8
550.463	8.05
550.657	8.08
550.85	8.02
551.044	8.03
551.238	8.05
551.432	8.05
551.626	8.04
551.82	8.12
552.013	8.03
552.207	8.13
552.401	8.08
552.594	7.97
552.788	8.01
552.982	7.97
553.176	7.93
553.369	8.21
553.563	8.14
553.756	7.98
553.95	8.05
554.144	8.11
554.337	8.11
554.531	7.92
554.724	8.1
554.918	8.16
555.111	8.01
555.305	8.08
555.498	8.01
555.692	8.13
555.885	8.11
556.079	8.03
556.272	8.06
556.466	8.08
556.659	8.06
556.852	8.07
557.046	8.02
557.239	7.96
557.432	7.98
557.626	8.08
557.819	8.18
558.012	8.07
558.206	8.1
558.399	8.08
558.592	8.03
558.785	8.06
558.979	7.99
559.172	8.03
559.365	8.07
559.558	7.92
559.751	8.01
559.944	8.13
560.138	8.02
560.331	8.11
560.524	8.13
560.717	8.03
560.91	7.99
561.103	8.11
561.296	7.96
561.489	8.11
561.682	8.16
561.875	8.13
562.068	8.17
562.261	8.01
562.454	8.18
562.647	8.08
562.84	8.09
563.032	8.12
563.225	7.97
563.418	8.01
563.611	8.19
563.804	8.1
563.997	7.97
564.19	7.84
564.382	8.12
564.575	8.09
564.768	8.02
564.961	8.1
565.153	7.94
565.346	7.94
565.539	8.09
565.731	8.03
565.924	8.14
566.117	8.2
566.309	8.03
566.502	7.98
566.695	8
566.887	8.11
567.08	8.03
567.272	8.08
567.465	7.92
567.657	8.07
567.85	7.93
568.042	8.05
568.235	8.06
568.427	7.91
568.62	8.01
568.812	8.02
569.005	8.07
569.197	7.95
569.389	8.06
569.582	7.98
569.774	8.03
569.966	7.92
570.159	7.88
570.351	7.94
570.543	7.93
570.736	8.02
570.928	7.87
571.12	7.98
571.312	7.88
571.505	7.76
571.697	7.96
571.889	7.97
572.081	7.93
572.273	7.88
572.465	7.96
572.658	7.96
572.85	8.02
573.042	8
573.234	7.85
573.426	7.96
573.618	7.93
573.81	7.93
574.002	7.89
574.194	7.92
574.386	7.91
574.578	7.73
574.77	7.88
574.962	7.92
575.154	7.73
575.346	7.83
575.538	7.75
575.729	7.8
575.921	7.85
576.113	7.95
576.305	7.88
576.497	7.94
576.689	7.7
576.88	7.74
577.072	7.88
577.264	7.82
577.456	7.76
577.647	7.8
577.839	7.92
578.031	7.79
578.223	7.76
578.414	7.64
578.606	7.85
578.798	7.84
578.989	7.79
579.181	7.85
579.372	7.79
579.564	7.79
579.755	7.71
579.947	7.69
580.139	7.76
580.33	7.57
580.522	7.76
580.713	7.59
580.905	7.63
581.096	7.83
581.287	7.63
581.479	7.67
581.67	7.71
581.862	7.66
582.053	7.69
582.244	7.5
582.436	7.77
582.627	7.59
582.818	7.64
583.01	7.52
583.201	7.7
583.392	7.58
583.583	7.54
583.775	7.39
583.966	7.52
584.157	7.64
584.348	7.63
584.54	7.48
584.731	7.58
584.922	7.51
585.113	7.37
585.304	7.53
585.495	7.53
585.686	7.57
585.877	7.53
586.068	7.64
586.259	7.48
586.45	7.45
586.641	7.44
586.832	7.52
587.023	7.46
587.214	7.44
587.405	7.44
587.596	7.29
587.787	7.29
587.978	7.39
588.169	7.34
588.36	7.3
588.551	7.4
588.742	7.34
588.932	7.39
589.123	7.18
589.314	7.41
589.505	7.32
589.696	7.31
589.886	7.29
590.077	7.29
590.268	7.26
590.458	7.13
590.649	7
590.84	7.29
591.03	7.23
591.221	7.21
591.412	7.07
591.602	7.26
591.793	7.19
591.984	7.22
592.174	7.18
592.365	7.37
592.555	7.08
592.746	7.06
592.936	7.11
593.127	7.17
593.317	7.08
593.508	7.16
593.698	7.02
593.889	7.05
594.079	7.09
594.269	6.97
594.46	7.01
594.65	7.02
594.84	6.97
595.031	6.88
595.221	6.89
595.411	6.89
595.602	7.03
595.792	6.87
595.982	6.89
596.172	7
596.363	6.85
596.553	6.82
596.743	6.89
596.933	6.82
597.123	6.83
597.314	6.68
597.504	6.73
597.694	6.86
597.884	6.77
598.074	6.75
598.264	6.75
598.454	6.82
598.644	6.71
598.834	6.73
599.024	6.59
599.214	6.73
599.404	6.69
599.594	6.71
599.784	6.55
599.974	6.64
600.164	6.71
600.354	6.59
600.544	6.49
600.734	6.6
600.924	6.61
601.114	6.44
601.303	6.45
601.493	6.51
601.683	6.55
601.873	6.48
602.063	6.45
602.252	6.48
602.442	6.4
602.632	6.35
602.821	6.28
603.011	6.36
603.201	6.42
603.39	6.37
603.58	6.17
603.77	6.32
603.959	6.4
604.149	6.26
604.339	6.27
604.528	6.38
604.718	6.33
604.907	6.2
605.097	6.22
605.286	6.27
605.476	6.21
605.665	6.24
605.855	6.15
606.044	6.25
606.234	6.19
606.423	6.13
606.612	6.11
606.802	6.09
606.991	6.16
607.181	6.16
607.37	6.13
607.559	5.88
607.749	6.07
607.938	5.98
608.127	6
608.316	5.97
608.506	5.97
608.695	5.98
608.884	5.97
609.073	5.94
609.263	5.98
609.452	5.93
609.641	5.83
609.83	5.83
610.019	5.89
610.208	5.78
610.397	5.78
610.586	5.84
610.775	5.79
610.965	5.75
611.154	5.61
611.343	5.71
611.532	5.69
611.721	5.78
611.91	5.63
612.099	5.68
612.287	5.56
612.476	5.56
612.665	5.73
612.854	5.53
613.043	5.58
613.232	5.62
613.421	5.5
613.61	5.55
613.798	5.5
613.987	5.49
614.176	5.41
614.365	5.49
614.554	5.51
614.742	5.56
614.931	5.34
615.12	5.5
615.309	5.48
615.497	5.36
615.686	5.27
615.875	5.31
616.063	5.32
616.252	5.31
616.44	5.23
616.629	5.26
616.818	5.22
617.006	5.27
617.195	5.15
617.383	5.28
617.572	5.11
617.76	5.12
617.949	5.12
618.137	5.2
618.326	5.23
618.514	5
618.703	5
618.891	5.19
619.079	5
619.268	5.12
619.456	4.92
619.644	5.04
619.833	5.01
620.021	4.92
620.209	4.91
620.398	5.01
620.586	4.88
620.774	4.94
620.962	4.87
621.151	4.94
621.339	4.91
621.527	4.82
621.715	4.79
621.903	4.8
622.092	4.73
622.28	4.89
622.468	4.65
622.656	4.73
622.844	4.66
623.032	4.8
623.22	4.6
623.408	4.83
623.596	4.69
623.784	4.72
623.972	4.61
624.16	4.61
624.348	4.72
624.536	4.67
624.724	4.52
624.912	4.61
625.1	4.55
625.288	4.53
625.476	4.43
625.664	4.54
625.851	4.46
626.039	4.53
626.227	4.43
626.415	4.44
626.603	4.38
626.79	4.44
626.978	4.44
627.166	4.37
627.354	4.36
627.541	4.32
627.729	4.25
627.917	4.45
628.104	4.41
628.292	4.27
628.48	4.33
628.667	4.18
628.855	4.32
629.042	4.31
629.23	4.22
629.418	4.17
629.605	4.22
629.793	4.14
629.98	4.13
630.168	4.1
630.355	4.2
630.543	4.13
630.73	4.04
630.917	4.06
631.105	4.16
631.292	4.06
631.48	4.02
631.667	4.08
631.854	4
632.042	4.02
632.229	3.9
632.416	4.03
632.604	4
632.791	3.79
632.978	3.96
633.165	3.94
633.353	3.94
633.54	3.96
633.727	3.78
633.914	3.84
634.101	3.81
634.289	3.96
634.476	3.78
634.663	3.76
634.85	3.75
635.037	3.73
635.224	3.68
635.411	3.84
635.598	3.77
635.785	3.65
635.972	3.64
636.159	3.67
636.346	3.61
636.533	3.57
636.72	3.59
636.907	3.63
637.094	3.6
637.281	3.46
637.468	3.56
637.655	3.56
637.842	3.63
638.029	3.53
638.215	3.48
638.402	3.53
638.589	3.43
638.776	3.43
638.963	3.38
639.149	3.5
639.336	3.56
639.523	3.39
639.709	3.41
639.896	3.4
640.083	3.43
640.27	3.38
640.456	3.27
640.643	3.38
640.829	3.21
641.016	3.24
641.203	3.2
641.389	3.33
641.576	3.26
641.762	3.22
641.949	3.22
642.135	3.26
642.322	3.22
642.508	3.08
642.695	3.22
642.881	3.11
643.068	3.08
643.254	3.1
643.441	3.14
643.627	3.18
643.813	3.05
644	3.12
644.186	3.03
644.372	3.13
644.559	3.11
644.745	2.98
644.931	2.94
645.118	2.96
645.304	3
645.49	2.96
645.676	2.96
645.862	2.93
646.049	2.99
646.235	2.97
646.421	3.02
646.607	2.99
646.793	2.92
646.979	2.85
647.165	2.89
647.352	2.85
647.538	2.91
647.724	2.87
647.91	2.77
648.096	2.84
648.282	2.81
648.468	2.76
648.654	2.81
648.84	2.81
649.026	2.77
649.212	2.68
649.397	2.65
649.583	2.67
649.769	2.68
649.955	2.67
650.141	2.67
650.327	2.67
650.513	2.6
650.698	2.65
650.884	2.56
651.07	2.67
651.256	2.62
651.442	2.55
651.627	2.5
651.813	2.57
651.999	2.55
652.184	2.51
652.37	2.48
652.556	2.54
652.741	2.57
652.927	2.44
653.113	2.42
653.298	2.56
653.484	2.49
653.669	2.36
653.855	2.43
654.04	2.52
654.226	2.41
654.412	2.4
654.597	2.28
654.782	2.37
654.968	2.47
655.153	2.4
655.339	2.34
655.524	2.33
655.71	2.33
655.895	2.33
656.08	2.33
656.266	2.42
656.451	2.31
656.636	2.23
656.822	2.28
657.007	2.24
657.192	2.26
657.378	2.19
657.563	2.26
657.748	2.27
657.933	2.29
658.118	2.14
658.304	2.22
658.489	2.22
658.674	2.25
658.859	2.14
659.044	2.2
659.229	2.19
659.414	2.1
659.599	2.19
659.785	2.06
659.97	2.15
660.155	2.15
660.34	2.14
660.525	2.07
660.71	2.04
660.895	2.14
661.08	2.05
661.264	2.02
661.449	2.14
661.634	2.1
661.819	2.07
662.004	2.04
662.189	1.98
662.374	1.96
662.559	1.91
662.743	1.92
662.928	1.99
663.113	1.94
663.298	1.84
663.483	1.93
663.667	1.93
663.852	1.92
664.037	1.99
664.221	1.88
664.406	1.9
664.591	1.95
664.775	1.91
664.96	1.87
665.145	1.82
665.329	1.89
665.514	1.81
665.698	1.83
665.883	1.74
666.068	1.88
666.252	1.84
666.437	1.8
666.621	1.83
666.806	1.83
666.99	1.81
667.174	1.74
667.359	1.88
667.543	1.77
667.728	1.75
667.912	1.71
668.096	1.8
668.281	1.69
668.465	1.71
668.649	1.72
668.834	1.68
669.018	1.74
669.202	1.68
669.387	1.63
669.571	1.79
669.755	1.63
669.939	1.66
670.124	1.7
670.308	1.72
670.492	1.69
670.676	1.63
670.86	1.61
671.044	1.6
671.228	1.67
671.413	1.59
671.597	1.53
671.781	1.53
671.965	1.6
672.149	1.62
672.333	1.59
672.517	1.54
672.701	1.61
672.885	1.54
673.069	1.44
673.253	1.64
673.437	1.54
673.621	1.48
673.804	1.58
673.988	1.54
674.172	1.47
674.356	1.43
674.54	1.48
674.724	1.61
674.908	1.47
675.091	1.51
675.275	1.43
675.459	1.54
675.643	1.5
675.826	1.46
676.01	1.43
676.194	1.47
676.377	1.5
676.561	1.53
676.745	1.41
676.928	1.44
677.112	1.5
677.296	1.36
677.479	1.37
677.663	1.35
677.846	1.41
678.03	1.45
678.213	1.28
678.397	1.44
678.58	1.36
678.764	1.34
678.947	1.29
679.131	1.39
679.314	1.43
679.498	1.34
679.681	1.33
679.865	1.4
680.048	1.31
680.231	1.32
680.415	1.28
680.598	1.31
680.781	1.26
680.965	1.28
681.148	1.27
681.331	1.25
681.514	1.27
681.698	1.24
681.881	1.23
682.064	1.26
682.247	1.31
682.43	1.14
682.614	1.19
682.797	1.36
682.98	1.29
683.163	1.12
683.346	1.22
683.529	1.16
683.712	1.14
683.895	1.26
684.078	1.1
684.261	1.19
684.444	1.19
684.627	1.22
684.81	1.08
684.993	1.15
685.176	1.24
685.359	1.1
685.542	1.12
685.725	1.27
685.908	1.19
686.091	1.12
686.274	1.2
686.457	1.2
686.639	1.16
686.822	1.15
687.005	1.11
687.188	1.16
687.371	1.23
687.553	1.17
687.736	1.14
687.919	1.23
688.102	1.15
688.284	1.05
688.467	1.07
688.65	1.08
688.832	1.01
689.015	1.01
689.197	0.95
689.38	1.16
689.563	1.16
689.745	1.01
689.928	1.01
690.11	1.08
690.293	1.03
690.475	0.93
690.658	1.09
690.84	1.04
691.023	1
691.205	0.97
691.388	0.98
691.57	1.07
691.752	1.06
691.935	0.92
692.117	0.93
692.3	1.01
692.482	0.95
692.664	0.91
692.847	0.99
693.029	1.05
693.211	1.08
693.393	0.91
693.576	0.9
693.758	0.96
693.94	0.95
694.122	0.89
694.304	0.91
694.487	0.92
694.669	1.01
694.851	0.84
695.033	0.93
695.215	0.85
695.397	0.9
695.579	0.85
695.761	0.86
695.943	0.81
696.125	1.03
696.308	0.94
696.49	0.73
696.671	1.06
696.853	0.86
697.035	1.14
697.217	0.84
697.399	0.99
697.581	0.85
697.763	0.86
697.945	0.83
698.127	0.86
698.309	0.96
698.491	0.92
698.672	0.92
698.854	0.92
699.036	0.91
699.218	0.82
699.399	0.89
699.581	0.94
699.763	0.86
699.945	0.75
700.126	0.77
700.308	0.84
700.49	0.78
700.671	0.68
700.853	0.73
701.035	0.78
701.216	0.86
701.398	0.75
701.579	0.75
701.761	0.91
701.943	0.77
702.124	0.77
702.306	0.78
702.487	0.98
702.669	0.76
702.85	0.75
703.031	0.65
703.213	0.91
703.394	0.84
703.576	0.78
703.757	0.95
703.938	0.83
704.12	0.98
704.301	0.72
704.483	0.71
704.664	0.75
704.845	0.87
705.026	0.84
705.208	0.69
705.389	0.81
705.57	0.79
705.751	0.71
705.933	0.75
706.114	0.81
706.295	0.78
706.476	0.66
706.657	0.79
706.838	0.79
707.02	0.78
707.201	0.66
707.382	0.72
707.563	0.71
707.744	0.68
707.925	0.7
708.106	0.63
708.287	0.75
708.468	0.89
708.649	0.66
708.83	0.77
709.011	0.58
709.192	0.81
709.373	0.56
709.554	0.65
709.734	0.79
709.915	0.75
710.096	0.68
710.277	0.51
710.458	0.63
710.639	0.79
710.819	0.55
711	0.6
711.181	0.68
711.362	0.75
711.542	0.58
711.723	0.66
711.904	0.78
712.085	0.75
712.265	0.61
712.446	0.58
712.627	0.59
712.807	0.59
712.988	0.65
713.168	0.5
713.349	0.67
713.53	0.49
713.71	0.52
713.891	0.57
714.071	0.66
714.252	0.57
714.432	0.59
714.613	0.48
714.793	0.66
714.974	0.73
715.154	0.71
715.334	0.67
715.515	0.78
715.695	0.56
715.876	0.56
716.056	0.58
716.236	0.57
716.417	0.59
716.597	0.49
716.777	0.9
716.957	0.55
717.138	0.6
717.318	0.58
717.498	0.5
717.678	0.62
717.859	0.7
718.039	0.4
718.219	0.54
718.399	0.6
718.579	0.47
718.759	0.37
718.939	0.6
719.12	0.56
719.3	0.54
719.48	0.41
719.66	0.41
719.84	0.69
720.02	0.58
720.2	0.48
720.38	0.56
720.56	0.74
720.74	0.43
720.92	0.5
721.1	0.65
721.279	0.66
721.459	0.56
721.639	0.29
721.819	0.51
721.999	0.53
722.179	0.63
722.359	0.4
722.538	0.49
722.718	0.53
722.898	0.49
723.078	0.48
723.257	0.54
723.437	0.56
723.617	0.59
723.797	0.55
723.976	0.51
724.156	0.61
724.336	0.63
724.515	0.72
724.695	0.36
724.874	0.45
725.054	0.57
725.234	0.55
725.413	0.54
725.593	0.5
725.772	0.54
725.952	0.55
726.131	0.46
726.311	0.56
726.49	0.55
726.67	0.39
726.849	0.42
727.028	0.55
727.208	0.53
727.387	0.64
727.567	0.42
727.746	0.47
727.925	0.47
728.105	0.46
728.284	0.42
728.463	0.41
728.643	0.55
728.822	0.33
729.001	0.52
729.18	0.47
729.359	0.55
729.539	0.51
729.718	0.56
729.897	0.57
730.076	0.56
730.255	0.37
730.434	0.55
730.614	0.59
730.793	0.68
730.972	0.55
731.151	0.46
731.33	0.55
731.509	0.6
731.688	0.42
731.867	0.47
732.046	0.3
732.225	0.67
732.404	0.39
732.583	0.39
732.762	0.55
732.941	0.58
733.12	0.43
733.298	0.46
733.477	0.7
733.656	0.42
733.835	0.42
734.014	0.58
734.193	0.5
734.371	0.55
734.55	0.58
734.729	0.3
734.908	0.55
735.086	0.57
735.265	0.49
735.444	0.31
735.623	0.37
735.801	0.36
735.98	0.46
736.159	0.5
736.337	0.57
736.516	0.55
736.694	0.44
736.873	0.41
737.052	0.8
737.23	0.66
737.409	0.41
737.587	0.7
737.766	0.37
737.944	0.44
738.123	0.54
738.301	0.64
738.479	0.55
738.658	0.48
738.836	0.23
739.015	0.53
739.193	0.74
739.371	0.35
739.55	0.46
739.728	0.38
739.906	0.67
740.085	0.7
740.263	0.33
740.441	0.27
740.62	0.76
740.798	0.57
740.976	0.33
741.154	0.33
741.332	0.7
741.511	0.39
741.689	0.47
741.867	0.5
742.045	0.5
742.223	0.43
742.401	0.37
742.579	0.41
742.757	0.59
742.935	0.42
743.114	0.46
743.292	0.36
743.47	0.47
743.648	0.47
743.826	0.41
744.004	0.48
744.181	0.61
744.359	0.4
744.537	0.54
744.715	0.41
744.893	0.49
745.071	0.46
745.249	0.49
745.427	0.31
745.605	0.49
745.782	0.5
745.96	0.47
746.138	0.6
746.316	0.56
746.493	0.42
746.671	0.4
746.849	0.36
747.027	0.54
747.204	0.28
747.382	0.52
747.56	0.26
747.737	0.56
747.915	0.45
748.093	0.48
748.27	0.39
748.448	0.44
748.625	0.26
748.803	0.44
748.98	0.33
749.158	0.55
749.335	0.47
749.513	0.3
749.69	0.35
749.868	0.32
750.045	0.42
750.223	0.34
750.4	0.26
750.578	0.63
750.755	0.46
750.932	0.2
751.11	0.5
751.287	0.34
751.464	0.45
751.642	0.32
751.819	0.4
751.996	0.41
752.173	0.37
752.351	0.24
752.528	0.34
752.705	0.33
752.882	0.35
753.06	0.43
753.237	0.47
753.414	0.77
753.591	0.71
753.768	0.36
753.945	0.35
754.122	0.41
754.299	0.42
754.476	0.31
754.654	0.36
754.831	0.55
755.008	0.43
755.185	0.22
755.362	0.2
755.539	0.51
755.716	0.35
755.892	0.44
756.069	0.45
756.246	0.43
756.423	0.4
756.6	0.48
756.777	0.26
756.954	0.56
757.131	0.37
757.307	0.26
757.484	0.19
757.661	0.32
757.838	0.52
758.015	0.24
758.191	0.51
758.368	0.36
758.545	0.68
758.721	0.42
758.898	0.33
759.075	0.33
759.251	0.45
759.428	0.48
759.605	0.19
759.781	0.34
759.958	0.47
760.134	0.42
760.311	0.24
760.488	0.57
760.664	0.59
760.841	0.31
761.017	0.25
761.194	0.38
761.37	0.42
761.547	0.43
761.723	0.32
761.899	0.45
762.076	0.27
762.252	0.26
762.429	0.28
762.605	0.55
762.781	0.33
762.958	0.34
763.134	0.3
763.31	0.31
763.486	0.55
763.663	0.13
763.839	0.35
764.015	0.18
764.191	0.23
764.368	0.3
764.544	0.23
764.72	0.36
764.896	0.43
765.072	0.34
765.248	0.39
765.425	0.3
765.601	0.42
765.777	0.38
765.953	0.12
766.129	0.25
766.305	0.3
766.481	0.48
766.657	0.39
766.833	0.47
767.009	0.39
767.185	0.22
767.361	0.28
767.537	0.3
767.713	0.52
767.889	0.3
768.065	0.31
768.24	0.43
768.416	0.62
768.592	0.42
768.768	0.31
768.944	0.43
769.12	0.22
769.295	0.32
769.471	0.31
769.647	0.42
769.823	0.72
769.998	0.32
770.174	0.23
770.35	0.83
770.525	0.68
770.701	0.45
770.877	0.22
771.052	0.25
771.228	0.7
771.403	0.56
771.579	0.42
771.755	0.77
771.93	0.37
772.106	0.23
772.281	0.09
772.457	0.3
772.632	0.34
772.808	0.11
772.983	0.19
773.159	0.14
773.334	0.64
773.509	0.24
773.685	0.27
773.86	0.77
774.036	0.59
774.211	0.46
774.386	0.44
774.562	0.3
774.737	0.6
774.912	0.17
775.087	0.43
775.263	0.36
775.438	0.4
775.613	0.19
775.788	0.27
775.964	0.52
776.139	1.01
776.314	0.17
776.489	0.39
776.664	0.35
776.839	0.4
777.014	0.46
777.19	0.48
777.365	0.66
777.54	0.74
777.715	0.26
777.89	0.31
778.065	0.45
778.24	0.36
778.415	0.66
778.59	0.17
778.765	0.44
778.94	0.53
779.115	0.19
779.289	0.18
779.464	0.32
779.639	0.14
779.814	0.05
779.989	0.28
780.164	0.48
780.339	0.5
780.513	0.18
780.688	0.19
780.863	0.52
781.038	0.63
781.212	0.08
781.387	0.38
781.562	0.66
781.737	0.28
781.911	0.59
782.086	0.21
782.261	0.29
782.435	0.68
782.61	0.34
782.784	0.32
782.959	0.69
783.134	0.42
783.308	0.03
783.483	0.35
783.657	0.85
783.832	0.73
784.006	0.2
784.181	0.31
784.355	0.73
784.53	0.43
784.704	0.21
784.878	0.59
785.053	0.42
785.227	0.81
785.402	0.79
785.576	0.21
785.75	0.65
785.925	0.28
786.099	0.51
786.273	0.64
786.448	0.81
786.622	0.65
786.796	0.4
786.97	0.44
787.145	1.24
787.319	0.05
787.493	0.1
787.667	0
787.841	0.56
788.015	0.84
788.19	0.1
788.364	0.23
788.538	0.87
788.712	0.7
788.886	0.46
789.06	0.62
789.234	0.7
789.408	0.29
789.582	0.25
789.756	0.31
789.93	0.31
790.104	0.44
790.278	0.21
790.452	0.28
790.626	0.78
790.8	0.31
790.973	0.74
791.147	0.71
791.321	0.92
791.495	1.02
791.669	0.53
791.843	0.73
792.016	0.64
792.19	0.91
792.364	0.29
792.538	0.91
792.711	0.84
792.885	0.32
793.059	0.22
793.233	-0.11
793.406	0.91
793.58	0.67
793.754	0.69
793.927	0.15
794.101	0.77
794.274	0.36
794.448	0.55
794.622	0.18
794.795	1
794.969	0.17
795.142	0.9
795.316	0.13
795.489	0.35
795.663	0.97
795.836	0.52
796.009	0.48
796.183	0.71
796.356	0.63
796.53	0.66
796.703	0.17
796.876	1.3
797.05	0.27
797.223	0.33
797.396	0.48
797.57	0.62
797.743	0.87
797.916	0.53
798.09	0.37
798.263	0.94
798.436	0.58
798.609	0.36
798.782	0.44
798.956	0.7
799.129	0.5
799.302	0.39
799.475	0.51
799.648	0.21
799.821	0.36
799.994	0.46
800.167	-0.14
800.34	0.47
800.514	0.47
800.687	0.51
800.86	0.13
801.033	0.61
801.206	0.77
801.379	0.29
801.551	0.8
801.724	0.66
801.897	1.16
802.07	0.39
802.243	0.04
802.416	0.7
802.589	0.62
802.762	0.95
802.935	0.28
803.107	1.13
803.28	1.23
803.453	0.45
803.626	0.42
803.798	0.42
803.971	0.16
804.144	0.51
804.317	0.65
804.489	1.01
804.662	0.67
804.835	0.54
805.007	0.18
805.18	1.05
805.353	0.5
805.525	0.26
805.698	0.46
805.87	1.11
806.043	1.12
806.215	0.16
806.388	0.16
806.56	0.63
806.733	0.98
806.905	0.68
807.078	0.36
807.25	0.64
807.423	0.79
807.595	0.54
807.768	0.31
807.94	0.83
808.112	0.75
808.285	0.5
808.457	0.23
808.629	0.77
808.802	0.98
808.974	1.01
809.146	0.19
809.318	0.21
809.491	0.77
809.663	0.74
809.835	0.07
810.007	0.75
810.18	0.49
810.352	0.15
810.524	0.19
810.696	0.97
810.868	1.15
811.04	0.41
811.212	0.52
811.384	0.96
811.556	0.83
811.728	0.4
811.901	1.56
812.073	0.76
812.245	0.89
812.417	0.51
812.589	-0.19
812.76	0.63
812.932	1.04
813.104	1.22
813.276	0.57
813.448	1.03
813.62	0.92
813.792	0.72
813.964	0.77
814.136	1.07
814.307	0.51
814.479	0.31
814.651	0.17
814.823	1.91
814.995	0.56
815.166	0.7
815.338	0.51
815.51	0.01
815.681	2
815.853	0.78
816.025	0.31
816.196	1.07
816.368	1.63
816.54	-0.01
816.711	0.37
816.883	1.42
817.054	1.92
817.226	-0.24
817.398	0.61
817.569	0.63
817.741	1.07
817.912	0.58
818.084	0.16
818.255	1.31
818.426	0.27
818.598	0.66
818.769	0.56
818.941	0.79
819.112	1.2
819.283	0.84
819.455	-0.02
819.626	0.48
819.798	0.92
819.969	0.72
820.14	0.39
820.311	1.16
820.483	0.62
820.654	0.86
820.825	0.71
820.996	0.37
821.168	0.13
821.339	0.81
821.51	-0.18
821.681	0.22
821.852	0.51
822.023	0.57
822.195	0.43
822.366	1.6
822.537	0.24
822.708	0.81
822.879	0.17
823.05	1.18
823.221	0.65
823.392	1
823.563	0.89
823.734	0.91
823.905	0.89
824.076	0.43
824.247	0.11
824.418	0.77
824.589	1.65
824.759	0.71
824.93	0.76
825.101	0.14
825.272	1.73
825.443	1.74
825.614	1.31
825.784	0.35
825.955	2.27
826.126	1.41
826.297	1.03
826.467	2.21
826.638	2.04
826.809	-0.02
826.98	0.84
827.15	0.93
827.321	1.54
827.492	1.91
827.662	0.99
827.833	2.21
828.003	2.33
828.174	0.21
828.345	-0.03
828.515	1.9
828.686	1.13
828.856	0.4
829.027	1.06
829.197	1.51
829.368	1.29
829.538	0.35
829.709	0.25
829.879	0.97
830.049	0.74
830.22	-0.13
830.39	0.87
830.56	1.61
830.731	0.6
830.901	0.62
831.072	0.66
831.242	1.29
831.412	1.13
831.582	0.4
831.753	-0.47
831.923	1.11
832.093	0.93
832.263	0.74
832.434	0.01
832.604	0.71
832.774	1.18
832.944	1.02
833.114	0.42
833.284	1.4
833.454	0.66
833.624	-0.08
833.795	0.81
833.965	1.44
834.135	2.36
834.305	-0.81
834.475	0.34
834.645	1.4
834.815	1.27
834.985	-0.28
835.155	0.29
835.325	1.43
835.494	1.05
835.664	1
835.834	0.61
836.004	1.2
836.174	1.54
836.344	0.56
836.514	0.46
836.684	0.49
836.853	1.18
837.023	1.14
837.193	0.47
837.363	1.96
837.532	2.2
837.702	1.25
837.872	0.35
838.041	1.52
838.211	2.13
838.381	-0.34
838.55	0.77
838.72	3.18
838.89	1.89
839.059	0.22
839.229	0.26
839.398	3.44
839.568	1.72
839.738	0.63
839.907	1.75
840.077	1.42
840.246	0.46
840.416	0.18
840.585	-0.06
840.755	2.68
840.924	2.4
841.093	0.3
841.263	-0.19
841.432	0.95
841.602	-0.23
841.771	-0.11
841.94	1.03
842.11	3.74
842.279	3.06
842.448	-0.22
842.617	-0.01
842.787	2.61
842.956	0.47
843.125	0.84
843.294	0.42
843.464	2.42
843.633	1.65
843.802	0.29
843.971	0.79
844.14	1.51
844.309	2.65
844.479	-0.79
844.648	0.37
844.817	1.01
844.986	1.03
845.155	0.81
845.324	0.59
845.493	0.66
845.662	0.55
845.831	1.77
846	1.23
846.169	1.31
846.338	2.11
846.507	1.3
846.676	1.2
846.844	0.4
847.013	2.06
847.182	0.69
847.351	0.03
847.52	1.37
847.689	2.53
847.858	2.04
848.026	-0.09
848.195	1.26
848.364	0.24
848.533	-0.12
848.701	0.17
848.87	1.35
849.039	2.36
849.207	1.35
849.376	2.77
849.545	3.64
849.713	0.62
849.882	0.18
850.051	1.61
850.219	1.51
850.388	1.3
850.556	-0.2
850.725	-0.02
850.893	1.03
851.062	0.56
851.23	1.48
851.399	-0.25
851.567	1.04
851.736	1.58
851.904	0.29
852.073	1.46
852.241	2.01
852.41	0.81
852.578	-0.08
852.746	1.18
852.915	1.31
853.083	1.73
853.251	-0.86
853.42	0.48
853.588	2.01
853.756	2.4
853.924	0.89
854.093	1.21
854.261	1.29
854.429	-0.17
854.597	2.08
854.765	-0.43
854.934	2.71
855.102	1.69
855.27	1.07
855.438	2.46
855.606	3.41
855.774	3.5
855.942	0.21
856.11	1.33
856.278	1.8
856.446	2.94
856.614	1.81
856.782	-0.21
856.95	1.89
857.118	2.88
857.286	1.78
857.454	0.77
857.622	3.42
857.79	1.73
857.958	0.25
858.126	0.17
858.294	-0.58
858.462	0.46
858.629	0.8
858.797	0.81
858.965	2.51
859.133	2.08
859.301	0.23
859.468	2.46
859.636	0.39
859.804	3.95
859.971	2.69
860.139	0.89
860.307	2.29
860.474	1.34
860.642	0.21
860.81	0.62
860.977	1.6
861.145	2.79
861.313	0.76
861.48	1.47
861.648	2.33
861.815	1.04
861.983	-1.59
862.15	-0.3
862.318	2.44
862.485	4.11
862.653	-0.13
862.82	-0.71
862.988	2.45
863.155	2.76
863.322	1.07
863.49	1.32
863.657	0.36
863.824	4.77
863.992	2.23
864.159	1.65
864.326	4.46
864.494	0.93
864.661	4.4
864.828	-0.87
864.996	2.85
865.163	3.47
865.33	1.37
865.497	-1.58
865.664	1.46
865.832	-1.53
865.999	0.3
866.166	-0.17
866.333	1.85
866.5	1.23
866.667	1.81
866.834	0.51
867.001	4.52
867.168	-0.66
867.335	2.91
867.502	-0.5
867.669	2.41
867.836	4.91
868.003	1.44
868.17	2.95
868.337	5.55
868.504	6.85
868.671	-0.96
868.838	-0.06
869.005	3.08
869.172	2.31
869.339	2.37
869.505	2.05
869.672	2.8
869.839	4.87
870.006	2.3
870.173	-1.07
870.339	4.11
870.506	5.03
870.673	0.08
870.84	3.02
871.006	2.07
871.173	2
871.34	1.59
871.506	0.31
871.673	2.17
871.839	0.79
872.006	2.23
872.173	1.26
872.339	2.65
872.506	4.79
872.672	1.54
872.839	0.01
873.005	1.95
873.172	5.19
873.338	3.83
873.505	-0.13
873.671	2.13
873.838	4.02
874.004	-1.44
874.171	0.21
874.337	4.13
874.503	3.22
874.67	1.86
874.836	2.14
875.002	4.74
875.169	4.47
875.335	2.31
875.501	1.46
875.668	3.9
875.834	3.71
876	1.39
876.166	2.78
876.332	2.23
876.499	6.5
876.665	0.84
876.831	2.4
876.997	6.76
877.163	2.12
877.329	1.45
877.495	3.3
877.662	4.71
877.828	4.62
877.994	2.44
878.16	-2.06
878.326	3.29
878.492	2.21
878.658	1.51
878.824	2.88
878.99	2.42
879.156	2.04
879.322	5.08
879.487	1.11
879.653	3.2
879.819	4.66
879.985	0.28
880.151	3.07
880.317	3.24
880.483	3.69
880.648	4.43
880.814	-1.77
880.98	3.27
881.146	-1.1
881.312	-0.86
881.477	1.38
881.643	1.06
881.809	4.54
881.974	3.5
882.14	-1.36
882.306	1
882.471	5.56
882.637	-1.06
882.803	3.9
882.968	4.81
883.134	5.97
883.299	0.27
883.465	1.5
883.63	2.84
883.796	2.93
883.961	4.39
884.127	2.39
884.292	-4.43
884.458	-0.33
884.623	-0.33
