Data from Apollo_Calib_20240827__AbsoluteIrradiance__812__12-41-02-113.txt Node

Date: Wed Aug 28 12:41:02 BST 2024
User: biology
Spectrometer: FLMT08252
Trigger mode: 0
Integration Time (sec): 5.000000E-1
Scans to average: 5
Electric dark correction enabled: true
Nonlinearity correction enabled: false
Boxcar width: 0
XAxis mode: Wavelengths
Number of Pixels in Spectrum: 3648
>>>>>Begin Spectral Data<<<<<
179.588	-0
179.809	-0
180.03	-0
180.251	-0
180.473	-0
180.694	0
180.915	0
181.136	-0
181.357	0
181.578	-0
181.799	-0
182.02	-0
182.241	-0
182.462	-0
182.683	0
182.904	-0
183.125	-0
183.346	0
183.567	0
183.788	0
184.009	0
184.23	0
184.451	0
184.672	0
184.892	0
185.113	0
185.334	0
185.555	0
185.776	0
185.996	0
186.217	0
186.438	0
186.659	0
186.879	0
187.1	0
187.321	0
187.541	0
187.762	0
187.983	0
188.203	0
188.424	0
188.644	0
188.865	0
189.086	0
189.306	0
189.527	0
189.747	0
189.968	0
190.188	0
190.409	0
190.629	0
190.849	0
191.07	0
191.29	0
191.511	0
191.731	0
191.951	0
192.172	0
192.392	0
192.612	0
192.833	0
193.053	0
193.273	0
193.493	0
193.714	0
193.934	0
194.154	0
194.374	0
194.594	0
194.815	0
195.035	0
195.255	0
195.475	0
195.695	0
195.915	0
196.135	0
196.355	0
196.575	0
196.795	0
197.015	0
197.235	0
197.455	0
197.675	0
197.895	0
198.115	0
198.335	0
198.555	0
198.775	0
198.995	0
199.214	0
199.434	0
199.654	0
199.874	0
200.094	4.22
200.313	2.81
200.533	1.68
200.753	1.65
200.973	3.84
201.192	3.76
201.412	1.19
201.632	1.62
201.851	3.61
202.071	1.83
202.291	1.53
202.51	1.34
202.73	2.79
202.95	1.98
203.169	1.56
203.389	1.49
203.608	2.34
203.828	1.17
204.047	1.59
204.267	2.6
204.486	2.45
204.706	2.4
204.925	1.59
205.145	1.58
205.364	2.19
205.583	2.64
205.803	1.26
206.022	1.12
206.242	1.51
206.461	1.84
206.68	1.26
206.9	1.53
207.119	2.53
207.338	2.3
207.557	1.13
207.777	1.14
207.996	1.32
208.215	2.09
208.434	1.11
208.654	0.91
208.873	1.23
209.092	2.26
209.311	1.44
209.53	0.9
209.749	1
209.968	1.02
210.187	1.17
210.407	0.91
210.626	1.32
210.845	1.69
211.064	1.31
211.283	1.11
211.502	1.68
211.721	1.22
211.94	1.06
212.159	1.51
212.377	1.23
212.596	1.2
212.815	1.12
213.034	1.03
213.253	1.52
213.472	1.26
213.691	1.06
213.91	0.62
214.128	0.71
214.347	1.24
214.566	0.56
214.785	0.4
215.003	1.17
215.222	1.32
215.441	0.76
215.66	0.49
215.878	1.21
216.097	1.25
216.316	0.69
216.534	0.72
216.753	1.08
216.972	0.79
217.19	0.81
217.409	0.56
217.627	0.83
217.846	0.8
218.064	0.92
218.283	0.54
218.501	1.45
218.72	1.22
218.938	0.54
219.157	0.54
219.375	1.1
219.594	0.99
219.812	0.57
220.031	0.59
220.249	1.15
220.467	1.2
220.686	0.69
220.904	0.57
221.122	0.72
221.341	1.15
221.559	0.78
221.777	0.47
221.995	0.86
222.214	1.01
222.432	0.65
222.65	1.01
222.868	0.83
223.086	0.83
223.305	0.86
223.523	0.66
223.741	1.08
223.959	0.83
224.177	0.38
224.395	0.47
224.613	0.77
224.831	1.12
225.049	0.39
225.267	0.55
225.485	0.81
225.703	0.6
225.921	0.57
226.139	0.54
226.357	0.86
226.575	0.75
226.793	0.49
227.011	1.51
227.229	0.74
227.447	0.95
227.665	0.56
227.883	0.33
228.1	0.71
228.318	0.7
228.536	0.32
228.754	0.43
228.972	0.67
229.189	0.83
229.407	0.6
229.625	0.62
229.843	0.88
230.06	0.8
230.278	0.46
230.496	0.67
230.713	0.71
230.931	0.86
231.149	0.46
231.366	0.43
231.584	0.69
231.801	1.19
232.019	0.49
232.236	0.43
232.454	0.52
232.671	0.68
232.889	0.51
233.106	0.39
233.324	0.57
233.541	0.47
233.759	0.55
233.976	0.35
234.194	0.57
234.411	0.54
234.628	0.35
234.846	0.51
235.063	0.5
235.28	0.58
235.498	0.4
235.715	0.4
235.932	0.82
236.149	0.5
236.367	0.42
236.584	0.53
236.801	0.56
237.018	0.67
237.236	0.58
237.453	0.35
237.67	0.76
237.887	0.52
238.104	0.51
238.321	0.35
238.538	0.36
238.755	0.71
238.973	0.35
239.19	0.5
239.407	0.61
239.624	0.47
239.841	0.29
240.058	0.39
240.275	0.54
240.492	0.45
240.709	0.44
240.925	0.34
241.142	0.55
241.359	0.33
241.576	0.39
241.793	0.39
242.01	0.42
242.227	0.56
242.444	0.61
242.66	0.52
242.877	0.54
243.094	0.46
243.311	0.49
243.527	0.43
243.744	0.46
243.961	0.52
244.178	0.36
244.394	0.46
244.611	0.6
244.828	0.72
245.044	0.32
245.261	0.41
245.477	0.54
245.694	0.5
245.911	0.37
246.127	0.4
246.344	0.66
246.56	0.56
246.777	0.37
246.993	0.37
247.21	0.52
247.426	0.58
247.643	0.29
247.859	0.35
248.076	0.33
248.292	0.66
248.508	0.32
248.725	0.48
248.941	0.47
249.157	0.63
249.374	0.33
249.59	0.37
249.806	0.38
250.023	0.53
250.239	0.36
250.455	0.3
250.671	0.4
250.888	0.44
251.104	0.52
251.32	0.38
251.536	0.49
251.752	0.38
251.969	0.46
252.185	0.41
252.401	0.7
252.617	0.45
252.833	0.27
253.049	0.39
253.265	0.41
253.481	0.53
253.697	0.31
253.913	0.29
254.129	0.44
254.345	0.52
254.561	0.35
254.777	0.37
254.993	0.48
255.209	0.41
255.425	0.4
255.641	0.33
255.857	0.47
256.073	0.45
256.288	0.24
256.504	0.35
256.72	0.44
256.936	0.6
257.152	0.38
257.367	0.31
257.583	0.41
257.799	0.51
258.015	0.28
258.23	0.29
258.446	0.55
258.662	0.39
258.877	0.29
259.093	0.28
259.309	0.48
259.524	0.43
259.74	0.34
259.955	0.17
260.171	0.43
260.387	0.37
260.602	0.47
260.818	0.45
261.033	0.3
261.249	0.44
261.464	0.35
261.68	0.24
261.895	0.41
262.11	0.42
262.326	0.32
262.541	0.23
262.757	0.49
262.972	0.43
263.187	0.34
263.403	0.37
263.618	0.48
263.833	0.38
264.049	0.25
264.264	0.29
264.479	0.43
264.694	0.51
264.91	0.25
265.125	0.32
265.34	0.48
265.555	0.58
265.77	0.37
265.986	0.26
266.201	0.47
266.416	0.45
266.631	0.32
266.846	0.31
267.061	0.46
267.276	0.43
267.491	0.21
267.706	0.42
267.921	0.44
268.136	0.4
268.351	0.38
268.566	0.26
268.781	0.48
268.996	0.44
269.211	0.3
269.426	0.21
269.641	0.33
269.856	0.39
270.071	0.27
270.285	0.28
270.5	0.38
270.715	0.45
270.93	0.38
271.145	0.34
271.359	0.49
271.574	0.33
271.789	0.34
272.004	0.22
272.218	0.35
272.433	0.41
272.648	0.21
272.862	0.43
273.077	0.41
273.292	0.39
273.506	0.23
273.721	0.24
273.936	0.4
274.15	0.43
274.365	0.31
274.579	0.43
274.794	0.39
275.008	0.44
275.223	0.2
275.437	0.31
275.652	0.38
275.866	0.39
276.081	0.37
276.295	0.31
276.509	0.28
276.724	0.41
276.938	0.3
277.153	0.3
277.367	0.36
277.581	0.31
277.796	0.26
278.01	0.27
278.224	0.35
278.438	0.5
278.653	0.26
278.867	0.23
279.081	0.21
279.295	0.32
279.51	0.33
279.724	0.18
279.938	0.38
280.152	0.42
280.366	0.33
280.58	0.31
280.794	0.47
281.008	0.41
281.222	0.38
281.437	0.5
281.651	0.29
281.865	0.38
282.079	0.33
282.293	0.19
282.507	0.34
282.721	0.28
282.935	0.28
283.148	0.17
283.362	0.28
283.576	0.18
283.79	0.36
284.004	0.24
284.218	0.4
284.432	0.29
284.646	0.32
284.859	0.27
285.073	0.25
285.287	0.33
285.501	0.31
285.714	0.25
285.928	0.37
286.142	0.38
286.356	0.24
286.569	0.22
286.783	0.4
286.997	0.37
287.21	0.32
287.424	0.27
287.637	0.29
287.851	0.27
288.065	0.34
288.278	0.26
288.492	0.34
288.705	0.26
288.919	0.29
289.132	0.18
289.346	0.35
289.559	0.27
289.773	0.27
289.986	0.26
290.2	0.24
290.413	0.36
290.626	0.27
290.84	0.23
291.053	0.33
291.267	0.36
291.48	0.23
291.693	0.27
291.906	0.26
292.12	0.29
292.333	0.27
292.546	0.25
292.76	0.36
292.973	0.31
293.186	0.29
293.399	0.21
293.612	0.33
293.826	0.31
294.039	0.26
294.252	0.29
294.465	0.35
294.678	0.33
294.891	0.3
295.104	0.22
295.317	0.26
295.53	0.29
295.743	0.27
295.956	0.29
296.169	0.41
296.382	0.33
296.595	0.26
296.808	0.25
297.021	0.39
297.234	0.35
297.447	0.27
297.66	0.29
297.873	0.33
298.086	0.31
298.299	0.22
298.511	0.16
298.724	0.23
298.937	0.16
299.15	0.25
299.363	0.25
299.575	0.35
299.788	0.26
300.001	0.22
300.213	0.18
300.426	0.24
300.639	0.24
300.852	0.18
301.064	0.28
301.277	0.42
301.489	0.3
301.702	0.29
301.915	0.3
302.127	0.28
302.34	0.34
302.552	0.32
302.765	0.2
302.977	0.33
303.19	0.23
303.402	0.18
303.615	0.25
303.827	0.27
304.04	0.28
304.252	0.3
304.464	0.28
304.677	0.42
304.889	0.25
305.102	0.23
305.314	0.24
305.526	0.31
305.739	0.3
305.951	0.22
306.163	0.2
306.375	0.36
306.588	0.27
306.8	0.24
307.012	0.21
307.224	0.27
307.436	0.34
307.649	0.19
307.861	0.25
308.073	0.29
308.285	0.26
308.497	0.21
308.709	0.22
308.921	0.26
309.133	0.31
309.346	0.24
309.558	0.25
309.77	0.28
309.982	0.34
310.194	0.27
310.406	0.25
310.617	0.4
310.829	0.3
311.041	0.27
311.253	0.18
311.465	0.25
311.677	0.29
311.889	0.27
312.101	0.22
312.313	0.36
312.524	0.39
312.736	0.22
312.948	0.26
313.16	0.34
313.372	0.33
313.583	0.25
313.795	0.23
314.007	0.26
314.218	0.3
314.43	0.23
314.642	0.19
314.853	0.2
315.065	0.31
315.277	0.25
315.488	0.3
315.7	0.34
315.912	0.29
316.123	0.24
316.335	0.25
316.546	0.4
316.758	0.27
316.969	0.21
317.181	0.28
317.392	0.22
317.604	0.29
317.815	0.22
318.026	0.22
318.238	0.23
318.449	0.32
318.661	0.19
318.872	0.15
319.083	0.2
319.295	0.29
319.506	0.24
319.717	0.25
319.929	0.31
320.14	0.26
320.351	0.26
320.562	0.24
320.774	0.26
320.985	0.31
321.196	0.23
321.407	0.16
321.618	0.32
321.829	0.34
322.041	0.32
322.252	0.26
322.463	0.33
322.674	0.3
322.885	0.19
323.096	0.21
323.307	0.27
323.518	0.29
323.729	0.26
323.94	0.18
324.151	0.25
324.362	0.3
324.573	0.28
324.784	0.26
324.995	0.31
325.206	0.28
325.417	0.24
325.628	0.19
325.838	0.26
326.049	0.31
326.26	0.29
326.471	0.23
326.682	0.31
326.892	0.28
327.103	0.22
327.314	0.24
327.525	0.34
327.735	0.26
327.946	0.23
328.157	0.17
328.368	0.35
328.578	0.29
328.789	0.3
328.999	0.24
329.21	0.27
329.421	0.36
329.631	0.23
329.842	0.15
330.052	0.3
330.263	0.32
330.473	0.29
330.684	0.23
330.894	0.28
331.105	0.28
331.315	0.27
331.526	0.18
331.736	0.38
331.947	0.28
332.157	0.3
332.367	0.17
332.578	0.3
332.788	0.33
332.999	0.26
333.209	0.26
333.419	0.16
333.629	0.31
333.84	0.28
334.05	0.26
334.26	0.35
334.47	0.28
334.681	0.3
334.891	0.25
335.101	0.28
335.311	0.37
335.521	0.26
335.732	0.21
335.942	0.35
336.152	0.26
336.362	0.28
336.572	0.3
336.782	0.31
336.992	0.19
337.202	0.23
337.412	0.22
337.622	0.27
337.832	0.24
338.042	0.27
338.252	0.21
338.462	0.28
338.672	0.27
338.882	0.27
339.092	0.29
339.302	0.31
339.511	0.27
339.721	0.25
339.931	0.2
340.141	0.37
340.351	0.33
340.561	0.3
340.77	0.26
340.98	0.25
341.19	0.27
341.4	0.28
341.609	0.2
341.819	0.27
342.029	0.2
342.238	0.25
342.448	0.18
342.658	0.29
342.867	0.28
343.077	0.27
343.286	0.25
343.496	0.32
343.706	0.4
343.915	0.17
344.125	0.27
344.334	0.26
344.544	0.19
344.753	0.23
344.963	0.27
345.172	0.23
345.381	0.22
345.591	0.17
345.8	0.25
346.01	0.37
346.219	0.34
346.428	0.2
346.638	0.25
346.847	0.26
347.056	0.35
347.266	0.23
347.475	0.2
347.684	0.3
347.893	0.35
348.103	0.24
348.312	0.24
348.521	0.23
348.73	0.27
348.94	0.26
349.149	0.24
349.358	0.26
349.567	0.22
349.776	0.19
349.985	0.2
350.194	0.31
350.403	0.29
350.612	0.18
350.821	0.2
351.03	0.21
351.239	0.18
351.448	0.26
351.657	0.21
351.866	0.36
352.075	0.31
352.284	0.29
352.493	0.21
352.702	0.34
352.911	0.25
353.12	0.26
353.329	0.24
353.538	0.31
353.746	0.28
353.955	0.22
354.164	0.27
354.373	0.25
354.582	0.29
354.79	0.22
354.999	0.3
355.208	0.26
355.416	0.36
355.625	0.21
355.834	0.22
356.042	0.31
356.251	0.24
356.46	0.21
356.668	0.25
356.877	0.37
357.085	0.29
357.294	0.18
357.503	0.25
357.711	0.23
357.92	0.44
358.128	0.27
358.337	0.2
358.545	0.3
358.754	0.23
358.962	0.3
359.17	0.24
359.379	0.26
359.587	0.25
359.796	0.27
360.004	0.33
360.212	0.33
360.421	0.33
360.629	0.25
360.837	0.21
361.046	0.31
361.254	0.37
361.462	0.27
361.67	0.24
361.879	0.29
362.087	0.37
362.295	0.26
362.503	0.23
362.711	0.19
362.92	0.24
363.128	0.23
363.336	0.21
363.544	0.22
363.752	0.27
363.96	0.23
364.168	0.22
364.376	0.26
364.584	0.26
364.792	0.32
365	0.25
365.208	0.25
365.416	0.29
365.624	0.24
365.832	0.22
366.04	0.3
366.248	0.24
366.456	0.25
366.664	0.21
366.872	0.29
367.079	0.24
367.287	0.24
367.495	0.27
367.703	0.24
367.911	0.22
368.118	0.23
368.326	0.25
368.534	0.21
368.742	0.34
368.949	0.18
369.157	0.27
369.365	0.27
369.572	0.26
369.78	0.2
369.988	0.32
370.195	0.24
370.403	0.34
370.61	0.24
370.818	0.23
371.026	0.39
371.233	0.23
371.441	0.29
371.648	0.2
371.856	0.28
372.063	0.26
372.271	0.22
372.478	0.22
372.685	0.18
372.893	0.33
373.1	0.23
373.308	0.2
373.515	0.4
373.722	0.29
373.93	0.23
374.137	0.31
374.344	0.37
374.552	0.34
374.759	0.32
374.966	0.31
375.173	0.21
375.381	0.34
375.588	0.29
375.795	0.21
376.002	0.26
376.209	0.24
376.417	0.27
376.624	0.25
376.831	0.32
377.038	0.25
377.245	0.17
377.452	0.22
377.659	0.25
377.866	0.23
378.073	0.26
378.28	0.29
378.487	0.35
378.694	0.31
378.901	0.3
379.108	0.27
379.315	0.34
379.522	0.39
379.729	0.28
379.936	0.27
380.143	0.29
380.35	0.27
380.557	0.24
380.763	0.23
380.97	0.29
381.177	0.33
381.384	0.26
381.591	0.26
381.797	0.3
382.004	0.35
382.211	0.29
382.418	0.24
382.624	0.3
382.831	0.32
383.038	0.26
383.244	0.31
383.451	0.28
383.658	0.32
383.864	0.26
384.071	0.23
384.277	0.38
384.484	0.28
384.69	0.32
384.897	0.24
385.103	0.29
385.31	0.24
385.516	0.25
385.723	0.22
385.929	0.27
386.136	0.25
386.342	0.29
386.549	0.26
386.755	0.37
386.961	0.31
387.168	0.25
387.374	0.28
387.58	0.32
387.787	0.28
387.993	0.34
388.199	0.28
388.406	0.27
388.612	0.28
388.818	0.25
389.024	0.24
389.231	0.27
389.437	0.37
389.643	0.33
389.849	0.26
390.055	0.33
390.261	0.31
390.467	0.32
390.674	0.25
390.88	0.28
391.086	0.33
391.292	0.24
391.498	0.33
391.704	0.34
391.91	0.31
392.116	0.3
392.322	0.24
392.528	0.33
392.734	0.28
392.94	0.3
393.146	0.29
393.352	0.32
393.557	0.29
393.763	0.33
393.969	0.39
394.175	0.22
394.381	0.35
394.587	0.26
394.792	0.35
394.998	0.37
395.204	0.41
395.41	0.28
395.615	0.29
395.821	0.33
396.027	0.34
396.233	0.3
396.438	0.35
396.644	0.39
396.85	0.37
397.055	0.3
397.261	0.37
397.466	0.45
397.672	0.35
397.878	0.36
398.083	0.39
398.289	0.33
398.494	0.41
398.7	0.35
398.905	0.26
399.111	0.4
399.316	0.33
399.522	0.34
399.727	0.35
399.932	0.37
400.138	0.28
400.343	0.38
400.549	0.33
400.754	0.4
400.959	0.38
401.165	0.35
401.37	0.37
401.575	0.49
401.78	0.42
401.986	0.35
402.191	0.37
402.396	0.39
402.601	0.43
402.807	0.42
403.012	0.38
403.217	0.44
403.422	0.44
403.627	0.47
403.832	0.42
404.037	0.42
404.243	0.44
404.448	0.41
404.653	0.36
404.858	0.44
405.063	0.45
405.268	0.4
405.473	0.43
405.678	0.43
405.883	0.7
406.088	0.49
406.293	0.42
406.498	0.46
406.703	0.5
406.907	0.43
407.112	0.43
407.317	0.58
407.522	0.6
407.727	0.47
407.932	0.57
408.136	0.67
408.341	0.51
408.546	0.59
408.751	0.55
408.956	0.61
409.16	0.71
409.365	0.6
409.57	0.63
409.774	0.63
409.979	0.69
410.184	0.72
410.388	0.66
410.593	0.79
410.798	0.76
411.002	0.73
411.207	0.84
411.411	0.8
411.616	0.75
411.82	0.83
412.025	0.88
412.229	0.81
412.434	1.02
412.638	0.94
412.843	0.95
413.047	1.01
413.252	0.99
413.456	1.04
413.66	1.1
413.865	1.09
414.069	1.17
414.273	1.1
414.478	1.15
414.682	1.18
414.886	1.22
415.091	1.27
415.295	1.25
415.499	1.39
415.703	1.4
415.908	1.52
416.112	1.36
416.316	1.63
416.52	1.61
416.724	1.59
416.929	1.63
417.133	1.94
417.337	1.79
417.541	1.85
417.745	1.83
417.949	2.04
418.153	2.04
418.357	2.08
418.561	2.36
418.765	2.22
418.969	2.4
419.173	2.51
419.377	2.51
419.581	2.69
419.785	2.69
419.989	2.67
420.193	2.85
420.397	2.92
420.601	3.13
420.804	3.24
421.008	3.22
421.212	3.36
421.416	3.24
421.62	3.38
421.823	3.42
422.027	3.67
422.231	3.61
422.435	3.56
422.638	3.66
422.842	3.73
423.046	3.85
423.249	4
423.453	4.09
423.657	4.22
423.86	4.28
424.064	4.38
424.268	4.54
424.471	4.57
424.675	4.85
424.878	4.86
425.082	4.89
425.285	5.26
425.489	5.25
425.692	5.34
425.896	5.41
426.099	5.63
426.303	5.68
426.506	5.77
426.71	6.06
426.913	6.29
427.116	6.45
427.32	6.4
427.523	6.52
427.726	6.85
427.93	6.93
428.133	7.29
428.336	7.44
428.54	7.54
428.743	7.75
428.946	8.08
429.149	8.13
429.353	8.07
429.556	8.23
429.759	8.19
429.962	8.35
430.165	8.56
430.368	8.05
430.571	8.19
430.775	8.2
430.978	8.17
431.181	8.26
431.384	8.38
431.587	8.45
431.79	8.86
431.993	8.72
432.196	8.96
432.399	9.43
432.602	9.57
432.805	9.65
433.008	10.14
433.211	10.01
433.414	10.47
433.616	10.48
433.819	10.41
434.022	10.67
434.225	10.74
434.428	10.73
434.631	11.21
434.833	11
435.036	11.27
435.239	11.3
435.442	11.52
435.645	11.57
435.847	11.74
436.05	12.06
436.253	12.24
436.455	12.21
436.658	12.08
436.861	12.53
437.063	12.62
437.266	12.5
437.468	12.97
437.671	13.1
437.874	13.21
438.076	13.05
438.279	13.49
438.481	13.6
438.684	14.32
438.886	14.01
439.089	14.21
439.291	14.3
439.494	14.67
439.696	14.81
439.899	15.27
440.101	15.79
440.303	15.89
440.506	16.67
440.708	16.43
440.91	16.65
441.113	16.68
441.315	17.08
441.517	16.86
441.72	17.37
441.922	16.9
442.124	16.92
442.326	17.45
442.529	17.57
442.731	17.41
442.933	17.78
443.135	17.57
443.337	17.52
443.539	18.17
443.742	17.71
443.944	18.39
444.146	18.16
444.348	18.15
444.55	17.99
444.752	18.16
444.954	18.23
445.156	17.96
445.358	18.61
445.56	18.72
445.762	18.71
445.964	18.82
446.166	18.69
446.368	18.7
446.57	18.59
446.772	18.18
446.974	17.9
447.175	18.33
447.377	18.11
447.579	18.41
447.781	18.14
447.983	17.81
448.184	17.45
448.386	17.7
448.588	17.29
448.79	17.28
448.991	17.4
449.193	17.52
449.395	16.7
449.597	16.44
449.798	16.18
450	15.95
450.202	15.73
450.403	15.74
450.605	15.65
450.806	15.24
451.008	15.01
451.21	14.81
451.411	14.37
451.613	13.78
451.814	13.97
452.016	13.96
452.217	13.15
452.419	13.06
452.62	12.77
452.821	12.54
453.023	12.37
453.224	12.06
453.426	11.74
453.627	11.01
453.828	11.03
454.03	11.07
454.231	11.09
454.432	10.84
454.634	10.64
454.835	10.34
455.036	10.31
455.238	9.92
455.439	9.58
455.64	9.44
455.841	9.16
456.042	9.36
456.244	9.08
456.445	8.76
456.646	8.46
456.847	8.47
457.048	8.37
457.249	8.3
457.45	8.16
457.651	7.55
457.852	7.48
458.054	7.18
458.255	7.1
458.456	7.21
458.657	6.98
458.858	6.58
459.058	6.5
459.259	6.55
459.46	6.34
459.661	6.36
459.862	6.4
460.063	6.26
460.264	6.14
460.465	5.91
460.666	6.01
460.866	5.64
461.067	5.48
461.268	5.43
461.469	5.41
461.67	5.29
461.87	5.22
462.071	5.14
462.272	5.12
462.473	4.98
462.673	5.23
462.874	5.08
463.075	5.13
463.275	5.02
463.476	5.08
463.676	4.99
463.877	4.89
464.078	4.83
464.278	4.91
464.479	4.75
464.679	4.71
464.88	4.66
465.08	4.61
465.281	4.44
465.481	4.27
465.682	4.13
465.882	4.06
466.083	4.07
466.283	3.98
466.483	3.93
466.684	3.62
466.884	3.57
467.085	3.61
467.285	3.69
467.485	3.54
467.686	3.54
467.886	3.32
468.086	3.34
468.286	3.28
468.487	3.41
468.687	3.2
468.887	3.2
469.087	3.33
469.287	3.23
469.488	3.07
469.688	3.1
469.888	3.17
470.088	3.14
470.288	3.04
470.488	3.02
470.688	2.84
470.888	2.84
471.088	2.61
471.288	2.73
471.488	2.7
471.688	2.74
471.888	2.66
472.088	2.78
472.288	2.7
472.488	2.55
472.688	2.5
472.888	2.57
473.088	2.57
473.288	2.43
473.488	2.4
473.688	2.64
473.887	2.44
474.087	2.35
474.287	2.41
474.487	2.33
474.687	2.41
474.886	2.33
475.086	2.24
475.286	2.28
475.486	2.26
475.685	2.25
475.885	2.2
476.085	2.29
476.284	2.22
476.484	2.19
476.684	2.23
476.883	2.28
477.083	2.15
477.282	2.06
477.482	2.19
477.681	2.14
477.881	2.07
478.08	2.06
478.28	1.99
478.479	2.1
478.679	2.15
478.878	2.02
479.078	1.99
479.277	2.06
479.477	2.07
479.676	1.98
479.875	1.97
480.075	1.9
480.274	1.96
480.473	2.09
480.673	2
480.872	2.02
481.071	2.02
481.271	2.06
481.47	1.97
481.669	2.01
481.868	1.95
482.067	2.02
482.267	1.92
482.466	1.92
482.665	1.9
482.864	1.87
483.063	1.93
483.262	2
483.461	2.01
483.661	2.02
483.86	1.96
484.059	2.04
484.258	1.98
484.457	2.01
484.656	2
484.855	2.02
485.054	1.92
485.253	1.97
485.452	1.94
485.651	2.09
485.849	2.02
486.048	1.96
486.247	1.99
486.446	2.04
486.645	2.01
486.844	2.05
487.043	2.05
487.241	2.09
487.44	2.05
487.639	2.09
487.838	2.1
488.037	2.1
488.235	2.21
488.434	2.17
488.633	2.03
488.831	2.24
489.03	2.18
489.229	2.21
489.427	2.23
489.626	2.25
489.825	2.28
490.023	2.28
490.222	2.25
490.42	2.31
490.619	2.36
490.817	2.3
491.016	2.35
491.214	2.4
491.413	2.38
491.611	2.35
491.81	2.38
492.008	2.44
492.207	2.48
492.405	2.49
492.604	2.45
492.802	2.53
493	2.6
493.199	2.63
493.397	2.64
493.595	2.71
493.794	2.67
493.992	2.81
494.19	2.71
494.388	2.82
494.587	2.72
494.785	2.76
494.983	2.71
495.181	2.87
495.379	2.92
495.578	2.92
495.776	2.92
495.974	2.91
496.172	2.94
496.37	3.04
496.568	3.11
496.766	3.09
496.964	3.17
497.162	3.14
497.36	3.22
497.558	3.27
497.756	3.31
497.954	3.28
498.152	3.33
498.35	3.43
498.548	3.35
498.746	3.39
498.944	3.42
499.142	3.45
499.34	3.54
499.538	3.6
499.736	3.55
499.933	3.59
500.131	3.63
500.329	3.78
500.527	3.75
500.725	3.89
500.922	3.88
501.12	3.89
501.318	3.93
501.516	3.94
501.713	4.03
501.911	3.99
502.109	3.98
502.306	4.11
502.504	4.02
502.701	4.08
502.899	4.18
503.097	4.38
503.294	4.2
503.492	4.36
503.689	4.4
503.887	4.36
504.084	4.45
504.282	4.45
504.479	4.4
504.677	4.62
504.874	4.53
505.072	4.46
505.269	4.68
505.466	4.67
505.664	4.71
505.861	4.62
506.059	4.78
506.256	4.83
506.453	4.81
506.651	4.97
506.848	5.03
507.045	4.98
507.242	4.99
507.44	5.03
507.637	5.08
507.834	5.11
508.031	5.21
508.229	5.12
508.426	5.1
508.623	5.3
508.82	5.31
509.017	5.25
509.214	5.29
509.411	5.39
509.608	5.35
509.805	5.54
510.003	5.5
510.2	5.52
510.397	5.65
510.594	5.54
510.791	5.69
510.988	5.65
511.184	5.69
511.381	5.54
511.578	5.67
511.775	5.81
511.972	5.77
512.169	5.81
512.366	5.79
512.563	5.99
512.76	5.98
512.956	5.96
513.153	5.92
513.35	5.91
513.547	5.93
513.744	6.03
513.94	6.01
514.137	6.17
514.334	6.11
514.53	6.15
514.727	6.34
514.924	6.24
515.12	6.25
515.317	6.23
515.514	6.25
515.71	6.17
515.907	6.46
516.103	6.45
516.3	6.36
516.497	6.51
516.693	6.49
516.89	6.5
517.086	6.48
517.283	6.57
517.479	6.4
517.676	6.62
517.872	6.64
518.068	6.63
518.265	6.66
518.461	6.6
518.658	6.77
518.854	6.74
519.05	6.78
519.247	6.79
519.443	6.81
519.639	6.96
519.836	6.81
520.032	6.72
520.228	6.92
520.424	6.92
520.621	6.95
520.817	7
521.013	6.92
521.209	7.03
521.405	7.08
521.601	7.03
521.798	7.04
521.994	7.14
522.19	6.96
522.386	7
522.582	7.16
522.778	7.28
522.974	7.14
523.17	7.17
523.366	7.08
523.562	7.18
523.758	7.18
523.954	7.02
524.15	7.23
524.346	7.29
524.542	7.25
524.738	7.19
524.934	7.42
525.129	7.27
525.325	7.23
525.521	7.28
525.717	7.5
525.913	7.3
526.109	7.32
526.304	7.45
526.5	7.48
526.696	7.49
526.892	7.4
527.087	7.56
527.283	7.5
527.479	7.48
527.674	7.35
527.87	7.47
528.066	7.49
528.261	7.59
528.457	7.46
528.653	7.62
528.848	7.55
529.044	7.64
529.239	7.57
529.435	7.55
529.63	7.48
529.826	7.58
530.021	7.6
530.217	7.6
530.412	7.63
530.608	7.58
530.803	7.58
530.999	7.56
531.194	7.61
531.389	7.73
531.585	7.74
531.78	7.8
531.975	7.71
532.171	7.72
532.366	7.78
532.561	7.72
532.757	7.71
532.952	7.89
533.147	7.62
533.342	7.8
533.538	7.69
533.733	7.96
533.928	7.61
534.123	7.77
534.318	7.8
534.513	7.68
534.709	7.93
534.904	7.83
535.099	7.9
535.294	7.88
535.489	7.91
535.684	7.83
535.879	7.82
536.074	7.91
536.269	7.95
536.464	7.96
536.659	7.83
536.854	7.87
537.049	7.96
537.244	7.89
537.439	7.92
537.634	7.92
537.828	8.01
538.023	7.89
538.218	7.9
538.413	7.84
538.608	7.94
538.803	7.91
538.997	7.88
539.192	8
539.387	7.92
539.582	7.93
539.776	7.89
539.971	7.97
540.166	8
540.36	7.98
540.555	8.08
540.75	7.97
540.944	8.03
541.139	8.04
541.334	7.94
541.528	7.98
541.723	8.07
541.917	8.1
542.112	7.94
542.306	7.86
542.501	7.93
542.695	7.95
542.89	7.91
543.084	7.96
543.279	8
543.473	8.07
543.668	8.11
543.862	7.94
544.056	7.97
544.251	8.09
544.445	8.14
544.64	8.14
544.834	7.81
545.028	7.73
545.222	8.04
545.417	8.22
545.611	8.14
545.805	7.99
546	7.92
546.194	8.1
546.388	8.1
546.582	8.01
546.776	8.03
546.97	8.07
547.165	8.01
547.359	8.03
547.553	7.99
547.747	8.02
547.941	8.23
548.135	8.06
548.329	8.12
548.523	8.06
548.717	8.09
548.911	8
549.105	7.99
549.299	8.19
549.493	8.12
549.687	7.98
549.881	8.16
550.075	8.11
550.269	7.98
550.463	8.15
550.657	8.09
550.85	8.09
551.044	8.05
551.238	8.19
551.432	8.1
551.626	8.13
551.82	8.12
552.013	8
552.207	8.18
552.401	8.16
552.594	8.02
552.788	8.07
552.982	8.05
553.176	8.07
553.369	8.27
553.563	8.13
553.756	8.02
553.95	8.09
554.144	8.07
554.337	8.13
554.531	7.92
554.724	8.16
554.918	8.19
555.111	8.03
555.305	8.1
555.498	8.12
555.692	8.18
555.885	8.16
556.079	8.03
556.272	8.11
556.466	8.11
556.659	8.06
556.852	8.14
557.046	8.05
557.239	7.92
557.432	8.1
557.626	8.15
557.819	8.24
558.012	8.12
558.206	8.21
558.399	8.13
558.592	8.06
558.785	8.04
558.979	8.08
559.172	8.14
559.365	8.12
559.558	8.08
559.751	8.01
559.944	8.24
560.138	8.07
560.331	8.1
560.524	8.15
560.717	8.09
560.91	8.08
561.103	8.11
561.296	7.97
561.489	8.12
561.682	8.2
561.875	8.18
562.068	8.26
562.261	8
562.454	8.28
562.647	8.08
562.84	8.13
563.032	8.13
563.225	8.04
563.418	8.04
563.611	8.13
563.804	8.13
563.997	8.01
564.19	7.82
564.382	8.17
564.575	8.09
564.768	7.98
564.961	8.19
565.153	8.02
565.346	8.01
565.539	8.16
565.731	8.1
565.924	8.12
566.117	8.29
566.309	8.11
566.502	8.1
566.695	8.01
566.887	8.14
567.08	8.09
567.272	8.17
567.465	7.98
567.657	8.15
567.85	8.03
568.042	8.09
568.235	8.13
568.427	7.94
568.62	8.08
568.812	8.08
569.005	8.1
569.197	8.01
569.389	8.04
569.582	8.05
569.774	8.06
569.966	7.94
570.159	7.95
570.351	7.96
570.543	7.98
570.736	8.02
570.928	7.92
571.12	8.08
571.312	7.98
571.505	7.77
571.697	8.1
571.889	8.02
572.081	8
572.273	7.95
572.465	7.99
572.658	8.03
572.85	7.98
573.042	8.02
573.234	7.91
573.426	7.94
573.618	7.92
573.81	7.98
574.002	7.94
574.194	7.98
574.386	7.95
574.578	7.85
574.77	7.94
574.962	7.96
575.154	7.81
575.346	7.86
575.538	7.82
575.729	7.81
575.921	8.01
576.113	7.95
576.305	7.87
576.497	7.98
576.689	7.75
576.88	7.76
577.072	7.97
577.264	7.89
577.456	7.94
577.647	7.85
577.839	7.98
578.031	7.86
578.223	7.85
578.414	7.73
578.606	7.88
578.798	7.9
578.989	7.83
579.181	7.97
579.372	7.86
579.564	7.87
579.755	7.75
579.947	7.66
580.139	7.82
580.33	7.71
580.522	7.77
580.713	7.73
580.905	7.75
581.096	7.83
581.287	7.73
581.479	7.68
581.67	7.75
581.862	7.65
582.053	7.74
582.244	7.65
582.436	7.77
582.627	7.64
582.818	7.57
583.01	7.63
583.201	7.68
583.392	7.6
583.583	7.66
583.775	7.49
583.966	7.62
584.157	7.61
584.348	7.67
584.54	7.57
584.731	7.55
584.922	7.54
585.113	7.41
585.304	7.61
585.495	7.56
585.686	7.62
585.877	7.59
586.068	7.66
586.259	7.59
586.45	7.54
586.641	7.49
586.832	7.58
587.023	7.47
587.214	7.46
587.405	7.53
587.596	7.43
587.787	7.35
587.978	7.46
588.169	7.4
588.36	7.33
588.551	7.44
588.742	7.39
588.932	7.42
589.123	7.25
589.314	7.52
589.505	7.39
589.696	7.33
589.886	7.36
590.077	7.39
590.268	7.25
590.458	7.21
590.649	7.2
590.84	7.34
591.03	7.28
591.221	7.27
591.412	7.14
591.602	7.38
591.793	7.24
591.984	7.25
592.174	7.24
592.365	7.42
592.555	7.12
592.746	7.15
592.936	7.12
593.127	7.16
593.317	7.22
593.508	7.19
593.698	7.08
593.889	7.15
594.079	7.13
594.269	7.02
594.46	7.1
594.65	7.14
594.84	7.05
595.031	6.99
595.221	6.9
595.411	6.96
595.602	7.04
595.792	6.96
595.982	6.92
596.172	7.03
596.363	6.96
596.553	6.97
596.743	6.89
596.933	6.86
597.123	6.87
597.314	6.75
597.504	6.77
597.694	6.95
597.884	6.81
598.074	6.96
598.264	6.76
598.454	6.82
598.644	6.74
598.834	6.76
599.024	6.6
599.214	6.7
599.404	6.75
599.594	6.76
599.784	6.66
599.974	6.75
600.164	6.62
600.354	6.61
600.544	6.58
600.734	6.58
600.924	6.59
601.114	6.53
601.303	6.53
601.493	6.58
601.683	6.58
601.873	6.58
602.063	6.45
602.252	6.54
602.442	6.47
602.632	6.42
602.821	6.38
603.011	6.51
603.201	6.39
603.39	6.4
603.58	6.27
603.77	6.37
603.959	6.46
604.149	6.33
604.339	6.33
604.528	6.47
604.718	6.34
604.907	6.29
605.097	6.21
605.286	6.24
605.476	6.22
605.665	6.27
605.855	6.19
606.044	6.34
606.234	6.22
606.423	6.23
606.612	6.18
606.802	6.13
606.991	6.23
607.181	6.18
607.37	6.18
607.559	5.92
607.749	6.09
607.938	6.04
608.127	6.02
608.316	6.01
608.506	5.97
608.695	6.08
608.884	6.01
609.073	6
609.263	6.05
609.452	6.02
609.641	5.83
609.83	5.84
610.019	5.94
610.208	5.8
610.397	5.89
610.586	5.89
610.775	5.84
610.965	5.84
611.154	5.67
611.343	5.86
611.532	5.65
611.721	5.82
611.91	5.69
612.099	5.68
612.287	5.71
612.476	5.59
612.665	5.72
612.854	5.62
613.043	5.6
613.232	5.6
613.421	5.57
613.61	5.6
613.798	5.54
613.987	5.61
614.176	5.49
614.365	5.47
614.554	5.51
614.742	5.53
614.931	5.41
615.12	5.53
615.309	5.47
615.497	5.34
615.686	5.34
615.875	5.41
616.063	5.38
616.252	5.37
616.44	5.35
616.629	5.32
616.818	5.32
617.006	5.31
617.195	5.2
617.383	5.24
617.572	5.15
617.76	5.16
617.949	5.21
618.137	5.24
618.326	5.34
618.514	5.03
618.703	5
618.891	5.19
619.079	5.04
619.268	5.18
619.456	5.01
619.644	5.13
619.833	5.02
620.021	5.01
620.209	4.91
620.398	5
620.586	4.88
620.774	4.96
620.962	4.94
621.151	5.06
621.339	4.86
621.527	4.79
621.715	4.79
621.903	4.85
622.092	4.78
622.28	4.92
622.468	4.67
622.656	4.83
622.844	4.77
623.032	4.8
623.22	4.65
623.408	4.85
623.596	4.74
623.784	4.77
623.972	4.68
624.16	4.67
624.348	4.73
624.536	4.72
624.724	4.53
624.912	4.61
625.1	4.64
625.288	4.6
625.476	4.52
625.664	4.59
625.851	4.51
626.039	4.56
626.227	4.53
626.415	4.51
626.603	4.4
626.79	4.51
626.978	4.46
627.166	4.42
627.354	4.31
627.541	4.36
627.729	4.29
627.917	4.5
628.104	4.46
628.292	4.36
628.48	4.34
628.667	4.31
628.855	4.38
629.042	4.38
629.23	4.22
629.418	4.27
629.605	4.27
629.793	4.2
629.98	4.18
630.168	4.11
630.355	4.21
630.543	4.13
630.73	4.07
630.917	4.05
631.105	4.24
631.292	4.13
631.48	4.09
631.667	4.18
631.854	4.07
632.042	4.04
632.229	3.94
632.416	4.06
632.604	3.99
632.791	3.85
632.978	3.96
633.165	4
633.353	3.95
633.54	3.96
633.727	3.78
633.914	3.83
634.101	3.81
634.289	3.91
634.476	3.78
634.663	3.79
634.85	3.81
635.037	3.77
635.224	3.68
635.411	3.81
635.598	3.71
635.785	3.69
635.972	3.69
636.159	3.73
636.346	3.69
636.533	3.6
636.72	3.61
636.907	3.61
637.094	3.6
637.281	3.46
637.468	3.61
637.655	3.58
637.842	3.57
638.029	3.54
638.215	3.5
638.402	3.5
638.589	3.51
638.776	3.45
638.963	3.44
639.149	3.51
639.336	3.54
639.523	3.38
639.709	3.45
639.896	3.38
640.083	3.42
640.27	3.45
640.456	3.34
640.643	3.4
640.829	3.3
641.016	3.31
641.203	3.21
641.389	3.32
641.576	3.31
641.762	3.29
641.949	3.2
642.135	3.29
642.322	3.23
642.508	3.1
642.695	3.27
642.881	3.17
643.068	3.16
643.254	3.17
643.441	3.15
643.627	3.24
643.813	3
644	3.1
644.186	3.04
644.372	3.11
644.559	3.08
644.745	3.03
644.931	2.98
645.118	3.02
645.304	2.99
645.49	2.96
645.676	2.95
645.862	2.99
646.049	3.07
646.235	2.96
646.421	3.06
646.607	3.03
646.793	2.94
646.979	2.84
647.165	2.94
647.352	2.89
647.538	2.89
647.724	2.87
647.91	2.85
648.096	2.9
648.282	2.92
648.468	2.78
648.654	2.8
648.84	2.83
649.026	2.79
649.212	2.74
649.397	2.69
649.583	2.69
649.769	2.76
649.955	2.68
650.141	2.75
650.327	2.74
650.513	2.65
650.698	2.67
650.884	2.56
651.07	2.69
651.256	2.64
651.442	2.61
651.627	2.48
651.813	2.64
651.999	2.55
652.184	2.58
652.37	2.49
652.556	2.54
652.741	2.63
652.927	2.42
653.113	2.45
653.298	2.51
653.484	2.5
653.669	2.42
653.855	2.45
654.04	2.53
654.226	2.44
654.412	2.41
654.597	2.35
654.782	2.41
654.968	2.46
655.153	2.42
655.339	2.36
655.524	2.35
655.71	2.38
655.895	2.33
656.08	2.36
656.266	2.43
656.451	2.38
656.636	2.27
656.822	2.35
657.007	2.28
657.192	2.28
657.378	2.22
657.563	2.26
657.748	2.25
657.933	2.26
658.118	2.14
658.304	2.17
658.489	2.33
658.674	2.24
658.859	2.14
659.044	2.16
659.229	2.21
659.414	2.08
659.599	2.16
659.785	2.09
659.97	2.16
660.155	2.13
660.34	2.19
660.525	2.08
660.71	2.08
660.895	2.11
661.08	2.08
661.264	2.01
661.449	2.12
661.634	2.09
661.819	2.1
662.004	2.05
662.189	1.92
662.374	2.01
662.559	1.94
662.743	1.92
662.928	2.01
663.113	1.93
663.298	1.91
663.483	1.92
663.667	1.96
663.852	1.95
664.037	1.99
664.221	1.94
664.406	2
664.591	1.95
664.775	1.95
664.96	1.82
665.145	1.91
665.329	1.95
665.514	1.88
665.698	1.85
665.883	1.76
666.068	1.92
666.252	1.87
666.437	1.82
666.621	1.83
666.806	1.83
666.99	1.85
667.174	1.78
667.359	1.88
667.543	1.73
667.728	1.72
667.912	1.67
668.096	1.75
668.281	1.76
668.465	1.74
668.649	1.73
668.834	1.69
669.018	1.72
669.202	1.63
669.387	1.63
669.571	1.76
669.755	1.65
669.939	1.69
670.124	1.66
670.308	1.66
670.492	1.66
670.676	1.64
670.86	1.65
671.044	1.59
671.228	1.68
671.413	1.58
671.597	1.57
671.781	1.61
671.965	1.67
672.149	1.58
672.333	1.58
672.517	1.52
672.701	1.59
672.885	1.56
673.069	1.43
673.253	1.61
673.437	1.54
673.621	1.53
673.804	1.56
673.988	1.52
674.172	1.5
674.356	1.42
674.54	1.46
674.724	1.63
674.908	1.46
675.091	1.55
675.275	1.45
675.459	1.54
675.643	1.43
675.826	1.46
676.01	1.48
676.194	1.47
676.377	1.48
676.561	1.49
676.745	1.41
676.928	1.5
677.112	1.49
677.296	1.37
677.479	1.36
677.663	1.4
677.846	1.44
678.03	1.38
678.213	1.38
678.397	1.4
678.58	1.3
678.764	1.33
678.947	1.27
679.131	1.39
679.314	1.43
679.498	1.33
679.681	1.36
679.865	1.34
680.048	1.31
680.231	1.29
680.415	1.3
680.598	1.31
680.781	1.24
680.965	1.27
681.148	1.3
681.331	1.24
681.514	1.34
681.698	1.23
681.881	1.3
682.064	1.3
682.247	1.33
682.43	1.19
682.614	1.23
682.797	1.29
682.98	1.26
683.163	1.16
683.346	1.21
683.529	1.15
683.712	1.13
683.895	1.22
684.078	1.15
684.261	1.21
684.444	1.3
684.627	1.23
684.81	1.14
684.993	1.21
685.176	1.28
685.359	1.1
685.542	1.11
685.725	1.25
685.908	1.1
686.091	1.14
686.274	1.19
686.457	1.19
686.639	1.14
686.822	1.15
687.005	1.1
687.188	1.2
687.371	1.28
687.553	1.18
687.736	1.15
687.919	1.24
688.102	1.17
688.284	1.08
688.467	1.07
688.65	1.1
688.832	0.98
689.015	1.03
689.197	1.04
689.38	1.15
689.563	1.15
689.745	0.95
689.928	0.98
690.11	1.04
690.293	1.06
690.475	0.97
690.658	1.05
690.84	0.99
691.023	1.04
691.205	0.98
691.388	1.04
691.57	1.14
691.752	1.06
691.935	0.91
692.117	0.93
692.3	0.98
692.482	1
692.664	0.93
692.847	0.96
693.029	1.03
693.211	1.02
693.393	0.95
693.576	0.89
693.758	0.93
693.94	1
694.122	0.89
694.304	0.9
694.487	0.92
694.669	1.01
694.851	0.81
695.033	0.86
695.215	0.87
695.397	0.95
695.579	0.94
695.761	0.88
695.943	0.82
696.125	0.97
696.308	0.97
696.49	0.74
696.671	0.98
696.853	0.9
697.035	1.14
697.217	0.83
697.399	1
697.581	0.9
697.763	0.84
697.945	0.8
698.127	0.88
698.309	0.96
698.491	0.84
698.672	0.9
698.854	0.93
699.036	0.95
699.218	0.87
699.399	0.88
699.581	0.97
699.763	0.8
699.945	0.77
700.126	0.74
700.308	0.88
700.49	0.81
700.671	0.72
700.853	0.72
701.035	0.78
701.216	0.82
701.398	0.73
701.579	0.8
701.761	0.84
701.943	0.8
702.124	0.79
702.306	0.81
702.487	0.99
702.669	0.78
702.85	0.73
703.031	0.7
703.213	0.9
703.394	0.88
703.576	0.72
703.757	0.89
703.938	0.84
704.12	0.94
704.301	0.72
704.483	0.67
704.664	0.79
704.845	0.92
705.026	0.8
705.208	0.72
705.389	0.8
705.57	0.82
705.751	0.74
705.933	0.7
706.114	0.74
706.295	0.75
706.476	0.68
706.657	0.78
706.838	0.9
707.02	0.8
707.201	0.74
707.382	0.7
707.563	0.8
707.744	0.7
707.925	0.68
708.106	0.62
708.287	0.81
708.468	0.82
708.649	0.72
708.83	0.76
709.011	0.68
709.192	0.78
709.373	0.63
709.554	0.65
709.734	0.81
709.915	0.75
710.096	0.73
710.277	0.51
710.458	0.62
710.639	0.72
710.819	0.57
711	0.63
711.181	0.73
711.362	0.84
711.542	0.69
711.723	0.63
711.904	0.78
712.085	0.8
712.265	0.67
712.446	0.61
712.627	0.66
712.807	0.6
712.988	0.62
713.168	0.53
713.349	0.63
713.53	0.55
713.71	0.49
713.891	0.55
714.071	0.63
714.252	0.59
714.432	0.55
714.613	0.51
714.793	0.66
714.974	0.78
715.154	0.66
715.334	0.67
715.515	0.79
715.695	0.52
715.876	0.62
716.056	0.57
716.236	0.51
716.417	0.57
716.597	0.53
716.777	0.89
716.957	0.6
717.138	0.62
717.318	0.52
717.498	0.46
717.678	0.59
717.859	0.59
718.039	0.45
718.219	0.61
718.399	0.59
718.579	0.52
718.759	0.51
718.939	0.62
719.12	0.62
719.3	0.57
719.48	0.42
719.66	0.43
719.84	0.69
720.02	0.58
720.2	0.47
720.38	0.54
720.56	0.79
720.74	0.48
720.92	0.5
721.1	0.69
721.279	0.66
721.459	0.61
721.639	0.41
721.819	0.52
721.999	0.56
722.179	0.66
722.359	0.48
722.538	0.6
722.718	0.56
722.898	0.58
723.078	0.51
723.257	0.54
723.437	0.59
723.617	0.56
723.797	0.54
723.976	0.49
724.156	0.62
724.336	0.66
724.515	0.75
724.695	0.33
724.874	0.53
725.054	0.62
725.234	0.44
725.413	0.57
725.593	0.54
725.772	0.5
725.952	0.5
726.131	0.46
726.311	0.57
726.49	0.52
726.67	0.36
726.849	0.49
727.028	0.59
727.208	0.51
727.387	0.5
727.567	0.48
727.746	0.5
727.925	0.57
728.105	0.43
728.284	0.41
728.463	0.55
728.643	0.59
728.822	0.42
729.001	0.47
729.18	0.55
729.359	0.67
729.539	0.53
729.718	0.57
729.897	0.62
730.076	0.48
730.255	0.36
730.434	0.57
730.614	0.53
730.793	0.65
730.972	0.4
731.151	0.45
731.33	0.65
731.509	0.62
731.688	0.44
731.867	0.52
732.046	0.4
732.225	0.75
732.404	0.43
732.583	0.36
732.762	0.51
732.941	0.52
733.12	0.45
733.298	0.5
733.477	0.68
733.656	0.53
733.835	0.38
734.014	0.55
734.193	0.55
734.371	0.6
734.55	0.52
734.729	0.35
734.908	0.55
735.086	0.55
735.265	0.6
735.444	0.21
735.623	0.41
735.801	0.47
735.98	0.46
736.159	0.54
736.337	0.6
736.516	0.5
736.694	0.54
736.873	0.42
737.052	0.71
737.23	0.64
737.409	0.36
737.587	0.74
737.766	0.25
737.944	0.49
738.123	0.48
738.301	0.59
738.479	0.44
738.658	0.63
738.836	0.45
739.015	0.48
739.193	0.56
739.371	0.35
739.55	0.5
739.728	0.34
739.906	0.62
740.085	0.68
740.263	0.43
740.441	0.19
740.62	0.72
740.798	0.67
740.976	0.44
741.154	0.37
741.332	0.75
741.511	0.5
741.689	0.4
741.867	0.52
742.045	0.57
742.223	0.52
742.401	0.32
742.579	0.32
742.757	0.59
742.935	0.41
743.114	0.38
743.292	0.39
743.47	0.55
743.648	0.45
743.826	0.28
744.004	0.53
744.181	0.6
744.359	0.39
744.537	0.47
744.715	0.36
744.893	0.32
745.071	0.5
745.249	0.54
745.427	0.34
745.605	0.58
745.782	0.47
745.96	0.55
746.138	0.51
746.316	0.5
746.493	0.53
746.671	0.42
746.849	0.39
747.027	0.53
747.204	0.45
747.382	0.5
747.56	0.25
747.737	0.49
747.915	0.33
748.093	0.41
748.27	0.29
748.448	0.36
748.625	0.21
748.803	0.37
748.98	0.37
749.158	0.55
749.335	0.53
749.513	0.39
749.69	0.38
749.868	0.38
750.045	0.51
750.223	0.31
750.4	0.19
750.578	0.65
750.755	0.43
750.932	0.25
751.11	0.51
751.287	0.32
751.464	0.55
751.642	0.33
751.819	0.39
751.996	0.45
752.173	0.32
752.351	0.42
752.528	0.44
752.705	0.4
752.882	0.31
753.06	0.44
753.237	0.46
753.414	0.58
753.591	0.71
753.768	0.35
753.945	0.39
754.122	0.47
754.299	0.45
754.476	0.31
754.654	0.39
754.831	0.51
755.008	0.45
755.185	0.29
755.362	0.29
755.539	0.37
755.716	0.27
755.892	0.35
756.069	0.4
756.246	0.48
756.423	0.48
756.6	0.42
756.777	0.32
756.954	0.53
757.131	0.38
757.307	0.31
757.484	0.2
757.661	0.41
757.838	0.52
758.015	0.21
758.191	0.46
758.368	0.22
758.545	0.62
758.721	0.47
758.898	0.2
759.075	0.42
759.251	0.47
759.428	0.41
759.605	0.29
759.781	0.34
759.958	0.41
760.134	0.46
760.311	0.29
760.488	0.58
760.664	0.68
760.841	0.43
761.017	0.24
761.194	0.5
761.37	0.55
761.547	0.43
761.723	0.35
761.899	0.65
762.076	0.23
762.252	0.26
762.429	0.28
762.605	0.46
762.781	0.37
762.958	0.42
763.134	0.31
763.31	0.27
763.486	0.46
763.663	0.14
763.839	0.37
764.015	0.12
764.191	0.21
764.368	0.19
764.544	0.26
764.72	0.29
764.896	0.47
765.072	0.46
765.248	0.37
765.425	0.24
765.601	0.39
765.777	0.36
765.953	0.09
766.129	0.3
766.305	0.33
766.481	0.51
766.657	0.37
766.833	0.64
767.009	0.22
767.185	0.27
767.361	0.32
767.537	0.18
767.713	0.64
767.889	0.28
768.065	0.46
768.24	0.22
768.416	0.47
768.592	0.41
768.768	0.34
768.944	0.52
769.12	0.29
769.295	0.32
769.471	0.37
769.647	0.32
769.823	0.45
769.998	0.11
770.174	0.22
770.35	0.7
770.525	0.6
770.701	0.44
770.877	0.29
771.052	0.23
771.228	0.56
771.403	0.53
771.579	0.47
771.755	0.8
771.93	0.25
772.106	0.3
772.281	0.02
772.457	0.33
772.632	0.44
772.808	0.08
772.983	0.34
773.159	0.12
773.334	0.66
773.509	0.36
773.685	0.27
773.86	0.84
774.036	0.5
774.211	0.45
774.386	0.32
774.562	0.36
774.737	0.65
774.912	0.18
775.087	0.45
775.263	0.21
775.438	0.4
775.613	0.35
775.788	0.27
775.964	0.6
776.139	1.13
776.314	0.25
776.489	0.49
776.664	0.49
776.839	0.35
777.014	0.58
777.19	0.58
777.365	0.69
777.54	0.75
777.715	0.33
777.89	0.33
778.065	0.4
778.24	0.3
778.415	0.53
778.59	0.22
778.765	0.25
778.94	0.6
779.115	0.44
779.289	0.37
779.464	0.51
779.639	0.33
779.814	0.25
779.989	0.19
780.164	0.72
780.339	0.57
780.513	0.18
780.688	0.09
780.863	0.44
781.038	0.55
781.212	0.2
781.387	0.31
781.562	0.72
781.737	0.36
781.911	0.58
782.086	0.16
782.261	0.32
782.435	0.77
782.61	0.34
782.784	0.19
782.959	0.62
783.134	0.17
783.308	0.2
783.483	0.36
783.657	1.03
783.832	0.66
784.006	0.08
784.181	0.29
784.355	0.55
784.53	0.37
784.704	0.24
784.878	0.67
785.053	0.6
785.227	0.6
785.402	0.79
785.576	0.33
785.75	0.46
785.925	0.3
786.099	0.57
786.273	0.54
786.448	0.54
786.622	0.66
786.796	0.38
786.97	0.12
787.145	1.02
787.319	0.13
787.493	0.54
787.667	-0.07
787.841	0.4
788.015	0.79
788.19	0.24
788.364	0.39
788.538	0.78
788.712	0.84
788.886	0.44
789.06	0.53
789.234	0.86
789.408	0.13
789.582	0.47
789.756	0.18
789.93	0.41
790.104	0.53
790.278	0.53
790.452	0.21
790.626	0.64
790.8	0.38
790.973	0.72
791.147	0.75
791.321	0.88
791.495	0.76
791.669	0.48
791.843	0.59
792.016	0.56
792.19	1.03
792.364	0.26
792.538	1.24
792.711	0.81
792.885	0.27
793.059	0.25
793.233	-0.23
793.406	0.61
793.58	0.47
793.754	0.31
793.927	0.45
794.101	0.89
794.274	0.58
794.448	0.69
794.622	0.16
794.795	0.92
794.969	0.41
795.142	0.76
795.316	0.32
795.489	0.24
795.663	0.75
795.836	0.34
796.009	-0
796.183	0.95
796.356	0.69
796.53	0.52
796.703	0.24
796.876	1.19
797.05	0.49
797.223	0.4
797.396	0.49
797.57	0.47
797.743	0.96
797.916	0.48
798.09	0.48
798.263	1.16
798.436	0.74
798.609	0.24
798.782	0.49
798.956	0.79
799.129	0.48
799.302	0.34
799.475	0.33
799.648	0.11
799.821	0.27
799.994	0.42
800.167	-0.03
800.34	0.33
800.514	0.46
800.687	0.49
800.86	0.32
801.033	0.62
801.206	0.66
801.379	0.43
801.551	0.55
801.724	0.68
801.897	1.17
802.07	0.49
802.243	-0.02
802.416	0.67
802.589	0.48
802.762	0.65
802.935	0.45
803.107	1.07
803.28	1.27
803.453	0.94
803.626	0.43
803.798	0.56
803.971	0.39
804.144	0.81
804.317	0.98
804.489	0.91
804.662	0.61
804.835	0.65
805.007	0.38
805.18	1.3
805.353	0.59
805.525	0.27
805.698	0.34
805.87	0.93
806.043	0.83
806.215	0.23
806.388	0.42
806.56	0.75
806.733	1.22
806.905	0.18
807.078	0.51
807.25	0.31
807.423	0.8
807.595	0.45
807.768	0.21
807.94	0.62
808.112	0.71
808.285	0.83
808.457	0.46
808.629	0.43
808.802	0.81
808.974	0.76
809.146	0.41
809.318	0.45
809.491	0.95
809.663	0.86
809.835	0.33
810.007	0.56
810.18	0.68
810.352	0.01
810.524	0.29
810.696	0.87
810.868	0.81
811.04	0.47
811.212	0.57
811.384	0.9
811.556	0.7
811.728	0.39
811.901	1.47
812.073	0.61
812.245	1.01
812.417	0.68
812.589	-0.24
812.76	0.9
812.932	0.67
813.104	1.05
813.276	0.27
813.448	1.15
813.62	0.53
813.792	0.51
813.964	0.74
814.136	0.87
814.307	0.73
814.479	0.69
814.651	0.21
814.823	1.56
814.995	0.55
815.166	0.5
815.338	0.34
815.51	-0.08
815.681	1.63
815.853	0.91
816.025	0.69
816.196	1.48
816.368	1.68
816.54	0.07
816.711	0.24
816.883	1.16
817.054	2.28
817.226	-0.15
817.398	0.75
817.569	0.41
817.741	0.78
817.912	0.22
818.084	0.31
818.255	1.66
818.426	0.48
818.598	0.41
818.769	0.44
818.941	0.96
819.112	1.54
819.283	1.03
819.455	0.53
819.626	0.95
819.798	1.17
819.969	0.68
820.14	0.55
820.311	0.47
820.483	0.87
820.654	0.87
820.825	0.48
820.996	0.57
821.168	0.01
821.339	0.38
821.51	0.5
821.681	0.2
821.852	0.96
822.023	0.17
822.195	0.03
822.366	1.46
822.537	0.74
822.708	0.37
822.879	0.07
823.05	1.61
823.221	0.42
823.392	1.32
823.563	0.93
823.734	1.13
823.905	0.81
824.076	0.61
824.247	0.57
824.418	1.29
824.589	1.85
824.759	1.06
824.93	0.95
825.101	-0.17
825.272	1.73
825.443	1.45
825.614	1.32
825.784	-0.12
825.955	1.94
826.126	1.73
826.297	0.96
826.467	1.68
826.638	2.04
826.809	-0.05
826.98	0.67
827.15	1.33
827.321	1.42
827.492	1.72
827.662	0.96
827.833	2.24
828.003	1.58
828.174	0.56
828.345	-0.03
828.515	2.02
828.686	1.24
828.856	0.95
829.027	0.65
829.197	0.62
829.368	1.5
829.538	0.3
829.709	0.99
829.879	1.22
830.049	0.59
830.22	0.58
830.39	0.54
830.56	1.96
830.731	0.77
830.901	0.61
831.072	1.21
831.242	0.94
831.412	1.11
831.582	0.63
831.753	0.12
831.923	1.65
832.093	1.56
832.263	0.78
832.434	0.74
832.604	1.04
832.774	1.33
832.944	0.67
833.114	0.38
833.284	1.31
833.454	0.46
833.624	0.36
833.795	0.41
833.965	1.49
834.135	2.41
834.305	-0.44
834.475	0.15
834.645	1.82
834.815	0.71
834.985	-0.26
835.155	0.11
835.325	1.59
835.494	1.91
835.664	0.57
835.834	-0.29
836.004	1.57
836.174	1.47
836.344	1.17
836.514	0.03
836.684	0.61
836.853	1.07
837.023	1.59
837.193	0.33
837.363	2.23
837.532	1.77
837.702	0.82
837.872	0.08
838.041	1.63
838.211	3.25
838.381	-0.2
838.55	0.52
838.72	4.29
838.89	3.17
839.059	0.27
839.229	0.33
839.398	3.24
839.568	1.35
839.738	0.24
839.907	2.53
840.077	1.06
840.246	0.21
840.416	0.5
840.585	0.8
840.755	2.74
840.924	1.61
841.093	0.38
841.263	0.12
841.432	0.96
841.602	0.7
841.771	-0.08
841.94	1.38
842.11	3.76
842.279	2.96
842.448	0.65
842.617	0.25
842.787	2.57
842.956	0.42
843.125	0.13
843.294	0.93
843.464	2.59
843.633	1.6
843.802	0.37
843.971	0.58
844.14	2.25
844.309	2.6
844.479	-1.01
844.648	-0.79
844.817	1.27
844.986	1.03
845.155	0.65
845.324	0.9
845.493	0.99
845.662	0.72
845.831	1.55
846	1.41
846.169	0.69
846.338	2.24
846.507	1.33
846.676	1.42
846.844	1.71
847.013	1.75
847.182	1.44
847.351	0.78
847.52	1.08
847.689	1.64
847.858	0.22
848.026	0.31
848.195	1.29
848.364	1.05
848.533	0.54
848.701	0.12
848.87	1.67
849.039	1.59
849.207	0.88
849.376	2.37
849.545	4.02
849.713	0.47
849.882	0.88
850.051	1.04
850.219	1.02
850.388	2.9
850.556	0.55
850.725	0.67
850.893	1.43
851.062	0.94
851.23	1.66
851.399	0.03
851.567	2.54
851.736	1.66
851.904	0.41
852.073	2.24
852.241	2.07
852.41	1.13
852.578	0.66
852.746	0.8
852.915	2.26
853.083	1.15
853.251	0
853.42	1.59
853.588	0.71
853.756	2.32
853.924	1.99
854.093	1.14
854.261	1.02
854.429	-0.65
854.597	2.65
854.765	1.11
854.934	2.82
855.102	3.03
855.27	-0.37
855.438	2.12
855.606	3.51
855.774	3.85
855.942	-0.31
856.11	0.06
856.278	1.9
856.446	2.86
856.614	0.97
856.782	1.31
856.95	3.07
857.118	2.29
857.286	1.75
857.454	0.96
857.622	3.64
857.79	2.62
857.958	0.07
858.126	1
858.294	-1.23
858.462	1.76
858.629	0.3
858.797	1.54
858.965	3.15
859.133	2.36
859.301	1.48
859.468	1.79
859.636	0.76
859.804	4.15
859.971	2.71
860.139	1.74
860.307	3.56
860.474	2.81
860.642	0.21
860.81	0.49
860.977	1.36
861.145	3.38
861.313	1.38
861.48	-0.35
861.648	2.32
861.815	1.4
861.983	-0.35
862.15	0.78
862.318	1.52
862.485	4.83
862.653	-1.05
862.82	-0.99
862.988	4.13
863.155	2.29
863.322	0.75
863.49	1.19
863.657	0.74
863.824	5
863.992	2.4
864.159	1.98
864.326	4.92
864.494	0.76
864.661	3.64
864.828	-0.62
864.996	5.05
865.163	3.27
865.33	0.98
865.497	-0.83
865.664	0.52
865.832	-1.56
865.999	0.69
866.166	0.24
866.333	2.31
866.5	1.93
866.667	1.61
866.834	3.22
867.001	4.67
867.168	-0.22
867.335	1.47
867.502	-0.27
867.669	1.42
867.836	6.45
868.003	0.71
868.17	3.85
868.337	4.7
868.504	7.21
868.671	0.36
868.838	0.66
869.005	4.27
869.172	3.51
869.339	1.94
869.505	2.38
869.672	2.64
869.839	4.66
870.006	2.57
870.173	0.51
870.339	4.05
870.506	6.22
870.673	1.61
870.84	3.6
871.006	3.11
871.173	0.85
871.34	0.85
871.506	-1.28
871.673	4.55
871.839	0.41
872.006	2.34
872.173	0.54
872.339	3.15
872.506	3.86
872.672	1.31
872.839	-0.41
873.005	2.45
873.172	6.52
873.338	4.17
873.505	1.34
873.671	2.53
873.838	3.31
874.004	-1.27
874.171	0.8
874.337	3.94
874.503	5.38
874.67	1.31
874.836	1.33
875.002	6.83
875.169	4.14
875.335	3.23
875.501	2.42
875.668	4.81
875.834	1.29
876	0.96
876.166	3.86
876.332	4.49
876.499	5.52
876.665	2.11
876.831	1.43
876.997	6.76
877.163	1.64
877.329	1.26
877.495	2.36
877.662	4.23
877.828	2.88
877.994	1.6
878.16	-0.26
878.326	1.42
878.492	3.8
878.658	1.63
878.824	3.64
878.99	2.27
879.156	0.06
879.322	4.28
879.487	1.27
879.653	4.37
879.819	3.3
879.985	1.02
880.151	2.95
880.317	3.1
880.483	4.04
880.648	2.97
880.814	-0.43
880.98	3.09
881.146	-0.45
881.312	0.83
881.477	2.14
881.643	1.88
881.809	3.11
881.974	3.76
882.14	-1.39
882.306	2
882.471	6.99
882.637	1.56
882.803	3.28
882.968	5.89
883.134	6.62
883.299	1.18
883.465	1.27
883.63	3.79
883.796	3.51
883.961	3.75
884.127	1.95
884.292	-2.65
884.458	0.65
884.623	0.65
