Data from Apollo_Calib_20240827__AbsoluteIrradiance__833__13-02-02-863.txt Node

Date: Wed Aug 28 13:02:02 BST 2024
User: biology
Spectrometer: FLMT08252
Trigger mode: 0
Integration Time (sec): 5.000000E-1
Scans to average: 5
Electric dark correction enabled: true
Nonlinearity correction enabled: false
Boxcar width: 0
XAxis mode: Wavelengths
Number of Pixels in Spectrum: 3648
>>>>>Begin Spectral Data<<<<<
179.588	-0
179.809	-0
180.03	-0
180.251	-0
180.473	-0
180.694	0
180.915	0
181.136	-0
181.357	0
181.578	0
181.799	-0
182.02	-0
182.241	-0
182.462	-0
182.683	0
182.904	-0
183.125	0
183.346	0
183.567	0
183.788	0
184.009	0
184.23	0
184.451	0
184.672	0
184.892	0
185.113	0
185.334	0
185.555	0
185.776	0
185.996	0
186.217	0
186.438	0
186.659	0
186.879	0
187.1	0
187.321	0
187.541	0
187.762	0
187.983	0
188.203	0
188.424	0
188.644	0
188.865	0
189.086	0
189.306	0
189.527	0
189.747	0
189.968	0
190.188	0
190.409	0
190.629	0
190.849	0
191.07	0
191.29	0
191.511	0
191.731	0
191.951	0
192.172	0
192.392	0
192.612	0
192.833	0
193.053	0
193.273	0
193.493	0
193.714	0
193.934	0
194.154	0
194.374	0
194.594	0
194.815	0
195.035	0
195.255	0
195.475	0
195.695	0
195.915	0
196.135	0
196.355	0
196.575	0
196.795	0
197.015	0
197.235	0
197.455	0
197.675	0
197.895	0
198.115	0
198.335	0
198.555	0
198.775	0
198.995	0
199.214	0
199.434	0
199.654	0
199.874	0
200.094	4.38
200.313	2.28
200.533	2.02
200.753	1.9
200.973	3.67
201.192	3.13
201.412	1.15
201.632	1.83
201.851	3.7
202.071	1.98
202.291	1.52
202.51	1.6
202.73	2.99
202.95	1.52
203.169	1.55
203.389	1.63
203.608	2.02
203.828	1.61
204.047	1.64
204.267	2.3
204.486	2.08
204.706	2.65
204.925	1.75
205.145	1.41
205.364	2.73
205.583	2.58
205.803	1.33
206.022	0.8
206.242	2.02
206.461	1.75
206.68	1.29
206.9	1.37
207.119	2.7
207.338	2.45
207.557	1.11
207.777	1.16
207.996	1.58
208.215	1.98
208.434	1.13
208.654	0.71
208.873	1.22
209.092	2.16
209.311	0.95
209.53	1.37
209.749	1.23
209.968	1.17
210.187	0.76
210.407	0.58
210.626	1.53
210.845	1.54
211.064	1.17
211.283	0.94
211.502	1.58
211.721	1.36
211.94	1.04
212.159	1.34
212.377	1.35
212.596	1.43
212.815	1.22
213.034	1.18
213.253	1.55
213.472	1.37
213.691	0.96
213.91	0.8
214.128	1.01
214.347	1.68
214.566	0.54
214.785	0.39
215.003	1.22
215.222	1.27
215.441	0.83
215.66	0.61
215.878	0.95
216.097	1.04
216.316	0.81
216.534	0.97
216.753	1.12
216.972	0.72
217.19	0.82
217.409	0.65
217.627	0.76
217.846	0.8
218.064	0.81
218.283	0.67
218.501	1.34
218.72	1.17
218.938	0.51
219.157	0.67
219.375	1.03
219.594	0.94
219.812	0.57
220.031	0.6
220.249	1.26
220.467	1.08
220.686	0.75
220.904	0.52
221.122	0.68
221.341	1.22
221.559	0.76
221.777	0.34
221.995	0.87
222.214	1
222.432	0.49
222.65	0.87
222.868	0.75
223.086	0.83
223.305	0.85
223.523	0.72
223.741	1.24
223.959	0.76
224.177	0.27
224.395	0.59
224.613	0.69
224.831	1.02
225.049	0.46
225.267	0.43
225.485	0.67
225.703	0.65
225.921	0.52
226.139	0.48
226.357	0.83
226.575	0.74
226.793	0.64
227.011	1.6
227.229	0.81
227.447	0.96
227.665	0.54
227.883	0.41
228.1	0.75
228.318	0.75
228.536	0.33
228.754	0.53
228.972	0.72
229.189	0.72
229.407	0.55
229.625	0.53
229.843	0.91
230.06	0.78
230.278	0.54
230.496	0.53
230.713	0.7
230.931	0.81
231.149	0.52
231.366	0.3
231.584	0.55
231.801	1.14
232.019	0.54
232.236	0.34
232.454	0.42
232.671	0.61
232.889	0.54
233.106	0.33
233.324	0.63
233.541	0.59
233.759	0.68
233.976	0.39
234.194	0.6
234.411	0.56
234.628	0.37
234.846	0.38
235.063	0.53
235.28	0.54
235.498	0.39
235.715	0.22
235.932	0.83
236.149	0.64
236.367	0.36
236.584	0.56
236.801	0.38
237.018	0.65
237.236	0.52
237.453	0.29
237.67	0.73
237.887	0.47
238.104	0.45
238.321	0.28
238.538	0.38
238.755	0.74
238.973	0.35
239.19	0.46
239.407	0.62
239.624	0.54
239.841	0.36
240.058	0.32
240.275	0.5
240.492	0.37
240.709	0.39
240.925	0.41
241.142	0.61
241.359	0.33
241.576	0.3
241.793	0.32
242.01	0.51
242.227	0.61
242.444	0.45
242.66	0.66
242.877	0.53
243.094	0.43
243.311	0.35
243.527	0.31
243.744	0.57
243.961	0.54
244.178	0.37
244.394	0.36
244.611	0.62
244.828	0.75
245.044	0.35
245.261	0.45
245.477	0.46
245.694	0.48
245.911	0.34
246.127	0.42
246.344	0.58
246.56	0.6
246.777	0.41
246.993	0.33
247.21	0.43
247.426	0.56
247.643	0.33
247.859	0.3
248.076	0.32
248.292	0.61
248.508	0.39
248.725	0.48
248.941	0.42
249.157	0.67
249.374	0.35
249.59	0.37
249.806	0.38
250.023	0.47
250.239	0.35
250.455	0.31
250.671	0.51
250.888	0.52
251.104	0.47
251.32	0.31
251.536	0.34
251.752	0.42
251.969	0.45
252.185	0.39
252.401	0.65
252.617	0.46
252.833	0.29
253.049	0.47
253.265	0.38
253.481	0.46
253.697	0.31
253.913	0.27
254.129	0.46
254.345	0.42
254.561	0.36
254.777	0.28
254.993	0.54
255.209	0.41
255.425	0.31
255.641	0.31
255.857	0.49
256.073	0.47
256.288	0.3
256.504	0.32
256.72	0.36
256.936	0.51
257.152	0.33
257.367	0.28
257.583	0.4
257.799	0.5
258.015	0.37
258.23	0.27
258.446	0.64
258.662	0.34
258.877	0.29
259.093	0.27
259.309	0.38
259.524	0.43
259.74	0.29
259.955	0.19
260.171	0.44
260.387	0.45
260.602	0.36
260.818	0.48
261.033	0.25
261.249	0.32
261.464	0.27
261.68	0.2
261.895	0.44
262.11	0.47
262.326	0.26
262.541	0.18
262.757	0.45
262.972	0.45
263.187	0.36
263.403	0.32
263.618	0.54
263.833	0.4
264.049	0.3
264.264	0.32
264.479	0.35
264.694	0.58
264.91	0.28
265.125	0.33
265.34	0.48
265.555	0.55
265.77	0.39
265.986	0.29
266.201	0.47
266.416	0.48
266.631	0.35
266.846	0.28
267.061	0.44
267.276	0.42
267.491	0.18
267.706	0.37
267.921	0.41
268.136	0.38
268.351	0.35
268.566	0.3
268.781	0.45
268.996	0.44
269.211	0.25
269.426	0.28
269.641	0.3
269.856	0.41
270.071	0.32
270.285	0.24
270.5	0.43
270.715	0.46
270.93	0.34
271.145	0.39
271.359	0.43
271.574	0.29
271.789	0.36
272.004	0.26
272.218	0.39
272.433	0.48
272.648	0.25
272.862	0.36
273.077	0.41
273.292	0.37
273.506	0.25
273.721	0.32
273.936	0.4
274.15	0.51
274.365	0.3
274.579	0.41
274.794	0.44
275.008	0.47
275.223	0.24
275.437	0.28
275.652	0.41
275.866	0.44
276.081	0.26
276.295	0.39
276.509	0.35
276.724	0.3
276.938	0.33
277.153	0.39
277.367	0.22
277.581	0.25
277.796	0.31
278.01	0.24
278.224	0.32
278.438	0.47
278.653	0.25
278.867	0.27
279.081	0.14
279.295	0.31
279.51	0.31
279.724	0.23
279.938	0.35
280.152	0.36
280.366	0.27
280.58	0.37
280.794	0.45
281.008	0.38
281.222	0.4
281.437	0.43
281.651	0.31
281.865	0.38
282.079	0.29
282.293	0.18
282.507	0.26
282.721	0.28
282.935	0.34
283.148	0.19
283.362	0.32
283.576	0.17
283.79	0.29
284.004	0.25
284.218	0.42
284.432	0.29
284.646	0.31
284.859	0.28
285.073	0.23
285.287	0.29
285.501	0.29
285.714	0.28
285.928	0.27
286.142	0.3
286.356	0.2
286.569	0.26
286.783	0.44
286.997	0.38
287.21	0.33
287.424	0.24
287.637	0.28
287.851	0.29
288.065	0.33
288.278	0.33
288.492	0.32
288.705	0.26
288.919	0.34
289.132	0.17
289.346	0.28
289.559	0.26
289.773	0.18
289.986	0.3
290.2	0.25
290.413	0.41
290.626	0.24
290.84	0.26
291.053	0.32
291.267	0.38
291.48	0.23
291.693	0.22
291.906	0.25
292.12	0.27
292.333	0.26
292.546	0.26
292.76	0.37
292.973	0.3
293.186	0.31
293.399	0.23
293.612	0.33
293.826	0.29
294.039	0.24
294.252	0.26
294.465	0.34
294.678	0.32
294.891	0.27
295.104	0.2
295.317	0.24
295.53	0.23
295.743	0.26
295.956	0.27
296.169	0.4
296.382	0.33
296.595	0.25
296.808	0.2
297.021	0.38
297.234	0.32
297.447	0.25
297.66	0.27
297.873	0.34
298.086	0.34
298.299	0.19
298.511	0.17
298.724	0.25
298.937	0.2
299.15	0.17
299.363	0.21
299.575	0.34
299.788	0.28
300.001	0.26
300.213	0.15
300.426	0.22
300.639	0.22
300.852	0.24
301.064	0.3
301.277	0.34
301.489	0.31
301.702	0.27
301.915	0.25
302.127	0.27
302.34	0.29
302.552	0.27
302.765	0.21
302.977	0.34
303.19	0.22
303.402	0.2
303.615	0.25
303.827	0.27
304.04	0.25
304.252	0.3
304.464	0.22
304.677	0.37
304.889	0.25
305.102	0.25
305.314	0.18
305.526	0.29
305.739	0.31
305.951	0.23
306.163	0.21
306.375	0.31
306.588	0.24
306.8	0.26
307.012	0.19
307.224	0.27
307.436	0.37
307.649	0.19
307.861	0.27
308.073	0.27
308.285	0.27
308.497	0.18
308.709	0.21
308.921	0.26
309.133	0.34
309.346	0.22
309.558	0.26
309.77	0.31
309.982	0.34
310.194	0.29
310.406	0.19
310.617	0.35
310.829	0.27
311.041	0.26
311.253	0.22
311.465	0.25
311.677	0.25
311.889	0.19
312.101	0.2
312.313	0.35
312.524	0.38
312.736	0.2
312.948	0.24
313.16	0.35
313.372	0.32
313.583	0.31
313.795	0.24
314.007	0.24
314.218	0.33
314.43	0.29
314.642	0.2
314.853	0.21
315.065	0.34
315.277	0.23
315.488	0.29
315.7	0.34
315.912	0.32
316.123	0.22
316.335	0.22
316.546	0.41
316.758	0.26
316.969	0.22
317.181	0.29
317.392	0.28
317.604	0.34
317.815	0.23
318.026	0.18
318.238	0.24
318.449	0.32
318.661	0.13
318.872	0.14
319.083	0.21
319.295	0.27
319.506	0.22
319.717	0.29
319.929	0.31
320.14	0.25
320.351	0.22
320.562	0.2
320.774	0.32
320.985	0.25
321.196	0.21
321.407	0.18
321.618	0.32
321.829	0.27
322.041	0.28
322.252	0.23
322.463	0.29
322.674	0.32
322.885	0.15
323.096	0.23
323.307	0.28
323.518	0.3
323.729	0.24
323.94	0.21
324.151	0.24
324.362	0.25
324.573	0.26
324.784	0.19
324.995	0.27
325.206	0.27
325.417	0.24
325.628	0.22
325.838	0.27
326.049	0.26
326.26	0.26
326.471	0.19
326.682	0.28
326.892	0.25
327.103	0.19
327.314	0.22
327.525	0.38
327.735	0.34
327.946	0.19
328.157	0.16
328.368	0.31
328.578	0.24
328.789	0.3
328.999	0.24
329.21	0.24
329.421	0.33
329.631	0.26
329.842	0.23
330.052	0.29
330.263	0.32
330.473	0.31
330.684	0.19
330.894	0.28
331.105	0.25
331.315	0.25
331.526	0.22
331.736	0.33
331.947	0.29
332.157	0.26
332.367	0.17
332.578	0.3
332.788	0.33
332.999	0.26
333.209	0.24
333.419	0.16
333.629	0.3
333.84	0.25
334.05	0.25
334.26	0.34
334.47	0.26
334.681	0.32
334.891	0.23
335.101	0.31
335.311	0.39
335.521	0.23
335.732	0.18
335.942	0.33
336.152	0.23
336.362	0.25
336.572	0.27
336.782	0.31
336.992	0.25
337.202	0.28
337.412	0.26
337.622	0.27
337.832	0.24
338.042	0.25
338.252	0.17
338.462	0.25
338.672	0.25
338.882	0.2
339.092	0.24
339.302	0.35
339.511	0.33
339.721	0.19
339.931	0.17
340.141	0.32
340.351	0.33
340.561	0.28
340.77	0.3
340.98	0.24
341.19	0.27
341.4	0.22
341.609	0.22
341.819	0.19
342.029	0.2
342.238	0.27
342.448	0.21
342.658	0.27
342.867	0.24
343.077	0.25
343.286	0.27
343.496	0.28
343.706	0.33
343.915	0.19
344.125	0.3
344.334	0.28
344.544	0.18
344.753	0.2
344.963	0.19
345.172	0.24
345.381	0.23
345.591	0.22
345.8	0.24
346.01	0.36
346.219	0.33
346.428	0.13
346.638	0.26
346.847	0.28
347.056	0.31
347.266	0.28
347.475	0.21
347.684	0.3
347.893	0.3
348.103	0.28
348.312	0.22
348.521	0.26
348.73	0.27
348.94	0.25
349.149	0.19
349.358	0.19
349.567	0.19
349.776	0.16
349.985	0.23
350.194	0.32
350.403	0.3
350.612	0.12
350.821	0.21
351.03	0.24
351.239	0.2
351.448	0.24
351.657	0.18
351.866	0.34
352.075	0.23
352.284	0.28
352.493	0.19
352.702	0.35
352.911	0.27
353.12	0.29
353.329	0.21
353.538	0.27
353.746	0.24
353.955	0.16
354.164	0.25
354.373	0.24
354.582	0.29
354.79	0.24
354.999	0.32
355.208	0.24
355.416	0.33
355.625	0.18
355.834	0.19
356.042	0.27
356.251	0.23
356.46	0.18
356.668	0.27
356.877	0.37
357.085	0.32
357.294	0.16
357.503	0.28
357.711	0.23
357.92	0.41
358.128	0.28
358.337	0.19
358.545	0.29
358.754	0.18
358.962	0.29
359.17	0.23
359.379	0.26
359.587	0.3
359.796	0.24
360.004	0.33
360.212	0.31
360.421	0.35
360.629	0.2
360.837	0.25
361.046	0.3
361.254	0.38
361.462	0.25
361.67	0.23
361.879	0.29
362.087	0.32
362.295	0.23
362.503	0.19
362.711	0.18
362.92	0.23
363.128	0.18
363.336	0.2
363.544	0.16
363.752	0.27
363.96	0.27
364.168	0.22
364.376	0.29
364.584	0.27
364.792	0.31
365	0.24
365.208	0.26
365.416	0.29
365.624	0.27
365.832	0.19
366.04	0.37
366.248	0.26
366.456	0.26
366.664	0.26
366.872	0.26
367.079	0.28
367.287	0.27
367.495	0.25
367.703	0.24
367.911	0.26
368.118	0.23
368.326	0.22
368.534	0.2
368.742	0.32
368.949	0.2
369.157	0.23
369.365	0.3
369.572	0.22
369.78	0.21
369.988	0.26
370.195	0.23
370.403	0.31
370.61	0.25
370.818	0.23
371.026	0.34
371.233	0.2
371.441	0.25
371.648	0.23
371.856	0.25
372.063	0.27
372.271	0.21
372.478	0.24
372.685	0.21
372.893	0.32
373.1	0.23
373.308	0.22
373.515	0.38
373.722	0.35
373.93	0.26
374.137	0.28
374.344	0.31
374.552	0.3
374.759	0.29
374.966	0.24
375.173	0.26
375.381	0.38
375.588	0.25
375.795	0.2
376.002	0.27
376.209	0.24
376.417	0.23
376.624	0.29
376.831	0.3
377.038	0.25
377.245	0.16
377.452	0.24
377.659	0.26
377.866	0.2
378.073	0.25
378.28	0.25
378.487	0.32
378.694	0.3
378.901	0.28
379.108	0.19
379.315	0.33
379.522	0.37
379.729	0.26
379.936	0.24
380.143	0.33
380.35	0.29
380.557	0.23
380.763	0.23
380.97	0.3
381.177	0.3
381.384	0.29
381.591	0.2
381.797	0.28
382.004	0.32
382.211	0.3
382.418	0.22
382.624	0.32
382.831	0.34
383.038	0.23
383.244	0.26
383.451	0.26
383.658	0.33
383.864	0.28
384.071	0.18
384.277	0.38
384.484	0.29
384.69	0.36
384.897	0.26
385.103	0.26
385.31	0.27
385.516	0.26
385.723	0.22
385.929	0.32
386.136	0.24
386.342	0.29
386.549	0.25
386.755	0.36
386.961	0.35
387.168	0.25
387.374	0.32
387.58	0.35
387.787	0.28
387.993	0.3
388.199	0.29
388.406	0.21
388.612	0.26
388.818	0.28
389.024	0.23
389.231	0.26
389.437	0.41
389.643	0.32
389.849	0.24
390.055	0.26
390.261	0.29
390.467	0.3
390.674	0.27
390.88	0.3
391.086	0.3
391.292	0.25
391.498	0.33
391.704	0.32
391.91	0.3
392.116	0.24
392.322	0.17
392.528	0.31
392.734	0.29
392.94	0.36
393.146	0.3
393.352	0.34
393.557	0.26
393.763	0.29
393.969	0.34
394.175	0.28
394.381	0.33
394.587	0.23
394.792	0.32
394.998	0.4
395.204	0.42
395.41	0.28
395.615	0.32
395.821	0.37
396.027	0.34
396.233	0.24
396.438	0.36
396.644	0.41
396.85	0.32
397.055	0.29
397.261	0.35
397.466	0.34
397.672	0.33
397.878	0.34
398.083	0.39
398.289	0.32
398.494	0.39
398.7	0.34
398.905	0.21
399.111	0.42
399.316	0.3
399.522	0.34
399.727	0.34
399.932	0.32
400.138	0.34
400.343	0.41
400.549	0.35
400.754	0.4
400.959	0.34
401.165	0.33
401.37	0.38
401.575	0.45
401.78	0.36
401.986	0.35
402.191	0.34
402.396	0.34
402.601	0.41
402.807	0.41
403.012	0.43
403.217	0.44
403.422	0.37
403.627	0.44
403.832	0.36
404.037	0.45
404.243	0.42
404.448	0.38
404.653	0.37
404.858	0.42
405.063	0.52
405.268	0.39
405.473	0.4
405.678	0.39
405.883	0.7
406.088	0.49
406.293	0.39
406.498	0.49
406.703	0.53
406.907	0.47
407.112	0.41
407.317	0.51
407.522	0.61
407.727	0.48
407.932	0.53
408.136	0.67
408.341	0.57
408.546	0.56
408.751	0.59
408.956	0.61
409.16	0.65
409.365	0.64
409.57	0.66
409.774	0.61
409.979	0.7
410.184	0.66
410.388	0.63
410.593	0.76
410.798	0.72
411.002	0.76
411.207	0.84
411.411	0.8
411.616	0.75
411.82	0.86
412.025	0.85
412.229	0.83
412.434	0.95
412.638	0.93
412.843	0.91
413.047	1
413.252	0.96
413.456	0.96
413.66	1.1
413.865	1
414.069	1.21
414.273	1.05
414.478	1.15
414.682	1.11
414.886	1.25
415.091	1.18
415.295	1.27
415.499	1.38
415.703	1.38
415.908	1.49
416.112	1.38
416.316	1.59
416.52	1.57
416.724	1.57
416.929	1.66
417.133	1.91
417.337	1.74
417.541	1.85
417.745	1.88
417.949	1.98
418.153	1.97
418.357	1.98
418.561	2.34
418.765	2.22
418.969	2.37
419.173	2.43
419.377	2.45
419.581	2.68
419.785	2.57
419.989	2.7
420.193	2.79
420.397	2.91
420.601	3.09
420.804	3.09
421.008	3.14
421.212	3.28
421.416	3.28
421.62	3.27
421.823	3.39
422.027	3.57
422.231	3.54
422.435	3.54
422.638	3.58
422.842	3.72
423.046	3.7
423.249	4
423.453	3.99
423.657	4.14
423.86	4.24
424.064	4.4
424.268	4.51
424.471	4.53
424.675	4.74
424.878	4.78
425.082	4.85
425.285	5.26
425.489	5.15
425.692	5.25
425.896	5.3
426.099	5.54
426.303	5.61
426.506	5.65
426.71	6.03
426.913	6.14
427.116	6.39
427.32	6.39
427.523	6.39
427.726	6.76
427.93	6.88
428.133	7.13
428.336	7.22
428.54	7.53
428.743	7.66
428.946	7.9
429.149	7.92
429.353	7.89
429.556	8.08
429.759	8.07
429.962	8.23
430.165	8.38
430.368	8.03
430.571	8.11
430.775	8.16
430.978	8.06
431.181	8.24
431.384	8.32
431.587	8.41
431.79	8.76
431.993	8.68
432.196	8.97
432.399	9.27
432.602	9.5
432.805	9.49
433.008	10.1
433.211	9.99
433.414	10.37
433.616	10.31
433.819	10.27
434.022	10.59
434.225	10.6
434.428	10.64
434.631	11.14
434.833	10.88
435.036	11.11
435.239	11.33
435.442	11.25
435.645	11.57
435.847	11.63
436.05	12.01
436.253	12.16
436.455	12.23
436.658	12.13
436.861	12.42
437.063	12.55
437.266	12.39
437.468	12.78
437.671	13.2
437.874	13.15
438.076	12.96
438.279	13.48
438.481	13.46
438.684	14.21
438.886	13.94
439.089	14.25
439.291	14.14
439.494	14.66
439.696	14.74
439.899	15.26
440.101	15.71
440.303	15.81
440.506	16.55
440.708	16.38
440.91	16.54
441.113	16.68
441.315	16.83
441.517	16.7
441.72	17.19
441.922	16.88
442.124	16.8
442.326	17.15
442.529	17.45
442.731	17.34
442.933	17.77
443.135	17.46
443.337	17.5
443.539	18.14
443.742	17.64
443.944	18.48
444.146	18.1
444.348	18.18
444.55	17.94
444.752	18.34
444.954	18.07
445.156	18
445.358	18.4
445.56	18.76
445.762	18.45
445.964	18.89
446.166	18.56
446.368	18.77
446.57	18.52
446.772	18.16
446.974	17.93
447.175	18.31
447.377	17.8
447.579	18.31
447.781	17.99
447.983	17.88
448.184	17.38
448.386	17.82
448.588	17.23
448.79	17.18
448.991	17.57
449.193	17.49
449.395	16.81
449.597	16.49
449.798	16.33
450	15.95
450.202	15.76
450.403	15.84
450.605	15.75
450.806	15.25
451.008	15.09
451.21	14.91
451.411	14.5
451.613	13.86
451.814	13.95
452.016	14.01
452.217	13.27
452.419	13.28
452.62	12.96
452.821	12.64
453.023	12.54
453.224	12.19
453.426	11.76
453.627	11.12
453.828	11.2
454.03	11.37
454.231	11.27
454.432	11.01
454.634	10.79
454.835	10.56
455.036	10.35
455.238	10.08
455.439	9.75
455.64	9.5
455.841	9.2
456.042	9.52
456.244	9.14
456.445	8.85
456.646	8.58
456.847	8.56
457.048	8.53
457.249	8.49
457.45	8.24
457.651	7.72
457.852	7.58
458.054	7.27
458.255	7.11
458.456	7.25
458.657	7.21
458.858	6.67
459.058	6.58
459.259	6.65
459.46	6.48
459.661	6.45
459.862	6.45
460.063	6.24
460.264	6.23
460.465	5.99
460.666	6.05
460.866	5.79
461.067	5.49
461.268	5.57
461.469	5.49
461.67	5.32
461.87	5.16
462.071	5.23
462.272	5.13
462.473	5.08
462.673	5.26
462.874	5.18
463.075	5.16
463.275	5.15
463.476	5.2
463.676	5.11
463.877	4.89
464.078	4.95
464.278	4.99
464.479	4.83
464.679	4.76
464.88	4.61
465.08	4.61
465.281	4.5
465.481	4.29
465.682	4.11
465.882	4.16
466.083	4.08
466.283	4.06
466.483	3.9
466.684	3.7
466.884	3.63
467.085	3.68
467.285	3.7
467.485	3.63
467.686	3.59
467.886	3.43
468.086	3.33
468.286	3.38
468.487	3.4
468.687	3.24
468.887	3.26
469.087	3.35
469.287	3.21
469.488	3.05
469.688	3.18
469.888	3.25
470.088	3.13
470.288	3.03
470.488	3.05
470.688	2.88
470.888	2.8
471.088	2.67
471.288	2.81
471.488	2.81
471.688	2.77
471.888	2.69
472.088	2.85
472.288	2.69
472.488	2.63
472.688	2.51
472.888	2.58
473.088	2.6
473.288	2.53
473.488	2.46
473.688	2.59
473.887	2.49
474.087	2.43
474.287	2.43
474.487	2.37
474.687	2.39
474.886	2.34
475.086	2.28
475.286	2.29
475.486	2.26
475.685	2.22
475.885	2.22
476.085	2.26
476.284	2.25
476.484	2.22
476.684	2.2
476.883	2.33
477.083	2.14
477.282	2.12
477.482	2.17
477.681	2.16
477.881	2.08
478.08	2.09
478.28	2.04
478.479	2.13
478.679	2.14
478.878	2.08
479.078	2.03
479.277	2.09
479.477	2.07
479.676	2.04
479.875	2
480.075	1.94
480.274	2.01
480.473	2.05
480.673	2.04
480.872	2.05
481.071	2.06
481.271	2.07
481.47	1.98
481.669	1.99
481.868	1.97
482.067	1.98
482.267	1.92
482.466	1.9
482.665	1.93
482.864	1.93
483.063	1.94
483.262	2
483.461	2.01
483.661	2.07
483.86	1.95
484.059	2.05
484.258	2.06
484.457	2
484.656	2.01
484.855	2.06
485.054	1.93
485.253	1.96
485.452	1.95
485.651	2.05
485.849	2.02
486.048	2.03
486.247	2
486.446	2.05
486.645	2.03
486.844	2.06
487.043	2.08
487.241	2.08
487.44	2.09
487.639	2.14
487.838	2.1
488.037	2.13
488.235	2.22
488.434	2.13
488.633	2.05
488.831	2.18
489.03	2.21
489.229	2.22
489.427	2.25
489.626	2.26
489.825	2.3
490.023	2.31
490.222	2.27
490.42	2.32
490.619	2.38
490.817	2.39
491.016	2.35
491.214	2.45
491.413	2.39
491.611	2.37
491.81	2.38
492.008	2.43
492.207	2.57
492.405	2.54
492.604	2.47
492.802	2.55
493	2.62
493.199	2.59
493.397	2.59
493.595	2.66
493.794	2.66
493.992	2.77
494.19	2.71
494.388	2.83
494.587	2.76
494.785	2.82
494.983	2.73
495.181	2.86
495.379	2.88
495.578	2.93
495.776	2.97
495.974	2.97
496.172	2.98
496.37	3.11
496.568	3.12
496.766	3.09
496.964	3.18
497.162	3.24
497.36	3.23
497.558	3.26
497.756	3.31
497.954	3.28
498.152	3.37
498.35	3.46
498.548	3.39
498.746	3.39
498.944	3.41
499.142	3.41
499.34	3.49
499.538	3.63
499.736	3.52
499.933	3.65
500.131	3.64
500.329	3.77
500.527	3.74
500.725	3.89
500.922	3.85
501.12	3.88
501.318	3.92
501.516	3.95
501.713	4.02
501.911	4.04
502.109	3.94
502.306	4.07
502.504	3.98
502.701	4.11
502.899	4.23
503.097	4.38
503.294	4.24
503.492	4.38
503.689	4.35
503.887	4.36
504.084	4.46
504.282	4.48
504.479	4.42
504.677	4.58
504.874	4.58
505.072	4.46
505.269	4.66
505.466	4.72
505.664	4.76
505.861	4.68
506.059	4.78
506.256	4.8
506.453	4.85
506.651	5
506.848	5.07
507.045	5.01
507.242	4.98
507.44	5.05
507.637	5.08
507.834	5.06
508.031	5.22
508.229	5.16
508.426	5.12
508.623	5.29
508.82	5.3
509.017	5.24
509.214	5.27
509.411	5.37
509.608	5.35
509.805	5.49
510.003	5.44
510.2	5.46
510.397	5.67
510.594	5.51
510.791	5.64
510.988	5.73
511.184	5.64
511.381	5.54
511.578	5.67
511.775	5.86
511.972	5.76
512.169	5.79
512.366	5.78
512.563	5.98
512.76	5.99
512.956	6.02
513.153	5.92
513.35	5.9
513.547	5.96
513.744	6.1
513.94	6.02
514.137	6.15
514.334	6.15
514.53	6.16
514.727	6.39
514.924	6.25
515.12	6.25
515.317	6.28
515.514	6.24
515.71	6.22
515.907	6.46
516.103	6.42
516.3	6.35
516.497	6.49
516.693	6.5
516.89	6.49
517.086	6.5
517.283	6.56
517.479	6.49
517.676	6.62
517.872	6.69
518.068	6.64
518.265	6.68
518.461	6.57
518.658	6.73
518.854	6.77
519.05	6.84
519.247	6.83
519.443	6.77
519.639	6.98
519.836	6.8
520.032	6.74
520.228	6.9
520.424	6.9
520.621	6.89
520.817	6.99
521.013	6.94
521.209	7.09
521.405	7.07
521.601	7.05
521.798	6.98
521.994	7.06
522.19	6.95
522.386	7.05
522.582	7.13
522.778	7.29
522.974	7.14
523.17	7.14
523.366	7.1
523.562	7.27
523.758	7.26
523.954	7.05
524.15	7.24
524.346	7.33
524.542	7.27
524.738	7.23
524.934	7.39
525.129	7.32
525.325	7.27
525.521	7.27
525.717	7.5
525.913	7.35
526.109	7.32
526.304	7.48
526.5	7.48
526.696	7.48
526.892	7.4
527.087	7.58
527.283	7.54
527.479	7.55
527.674	7.35
527.87	7.52
528.066	7.49
528.261	7.55
528.457	7.46
528.653	7.61
528.848	7.57
529.044	7.69
529.239	7.53
529.435	7.6
529.63	7.5
529.826	7.61
530.021	7.6
530.217	7.62
530.412	7.6
530.608	7.63
530.803	7.64
530.999	7.54
531.194	7.64
531.389	7.78
531.585	7.72
531.78	7.87
531.975	7.71
532.171	7.77
532.366	7.79
532.561	7.76
532.757	7.71
532.952	7.89
533.147	7.64
533.342	7.79
533.538	7.7
533.733	7.95
533.928	7.58
534.123	7.77
534.318	7.83
534.513	7.76
534.709	7.89
534.904	7.89
535.099	7.95
535.294	7.91
535.489	7.94
535.684	7.79
535.879	7.83
536.074	7.94
536.269	7.97
536.464	7.9
536.659	7.85
536.854	7.89
537.049	8.01
537.244	7.89
537.439	7.9
537.634	7.93
537.828	8
538.023	7.95
538.218	7.93
538.413	7.81
538.608	7.95
538.803	7.94
538.997	7.92
539.192	7.95
539.387	7.91
539.582	7.88
539.776	7.91
539.971	8.06
540.166	8.07
540.36	7.93
540.555	8.09
540.75	8.04
540.944	8.04
541.139	8.03
541.334	8.05
541.528	8.01
541.723	8.08
541.917	8.09
542.112	8
542.306	7.82
542.501	7.93
542.695	7.96
542.89	7.95
543.084	7.96
543.279	8.01
543.473	8.08
543.668	8.1
543.862	7.97
544.056	7.96
544.251	8.1
544.445	8.17
544.64	8.13
544.834	7.88
545.028	7.68
545.222	8.07
545.417	8.23
545.611	8.14
545.805	8.06
546	7.85
546.194	8.14
546.388	8.12
546.582	7.95
546.776	8.03
546.97	8.12
547.165	8.13
547.359	8.03
547.553	7.94
547.747	8.03
547.941	8.24
548.135	8.07
548.329	8.12
548.523	8.13
548.717	8.07
548.911	8.01
549.105	8.02
549.299	8.11
549.493	8.12
549.687	7.98
549.881	8.14
550.075	8.12
550.269	7.98
550.463	8.1
550.657	8.12
550.85	8.09
551.044	8.1
551.238	8.2
551.432	8.14
551.626	8.15
551.82	8.14
552.013	8.07
552.207	8.17
552.401	8.16
552.594	8.1
552.788	8.06
552.982	8.04
553.176	7.99
553.369	8.23
553.563	8.2
553.756	8.1
553.95	8.19
554.144	8.17
554.337	8.14
554.531	7.98
554.724	8.16
554.918	8.17
555.111	8.07
555.305	8.08
555.498	8.13
555.692	8.22
555.885	8.16
556.079	8.07
556.272	8.15
556.466	8.15
556.659	8.08
556.852	8.23
557.046	8.03
557.239	7.94
557.432	8.08
557.626	8.24
557.819	8.16
558.012	8.15
558.206	8.24
558.399	8.12
558.592	8.07
558.785	8.01
558.979	8.09
559.172	8.09
559.365	8.09
559.558	8.1
559.751	8
559.944	8.21
560.138	8.08
560.331	8.08
560.524	8.14
560.717	8.1
560.91	8.11
561.103	8.15
561.296	8.01
561.489	8.13
561.682	8.24
561.875	8.12
562.068	8.22
562.261	7.95
562.454	8.21
562.647	8.13
562.84	8.15
563.032	8.13
563.225	8.01
563.418	8.11
563.611	8.15
563.804	8.13
563.997	8
564.19	7.84
564.382	8.22
564.575	8.12
564.768	8.17
564.961	8.15
565.153	8.09
565.346	8.01
565.539	8.14
565.731	8.1
565.924	8.17
566.117	8.26
566.309	8.14
566.502	8.04
566.695	7.98
566.887	8.08
567.08	8.12
567.272	8.22
567.465	8.03
567.657	8.16
567.85	7.98
568.042	8.11
568.235	8.13
568.427	7.98
568.62	8.04
568.812	8.01
569.005	8.12
569.197	7.98
569.389	8.08
569.582	8.07
569.774	8.05
569.966	7.96
570.159	7.9
570.351	7.98
570.543	8.03
570.736	8.03
570.928	7.94
571.12	7.99
571.312	7.98
571.505	7.83
571.697	8.05
571.889	8.05
572.081	8.01
572.273	7.91
572.465	8.03
572.658	8.03
572.85	8.01
573.042	8.03
573.234	7.87
573.426	8.04
573.618	7.92
573.81	8
574.002	7.94
574.194	8.04
574.386	7.96
574.578	7.85
574.77	7.91
574.962	7.97
575.154	7.81
575.346	7.83
575.538	7.88
575.729	7.81
575.921	7.89
576.113	7.96
576.305	8.01
576.497	8
576.689	7.77
576.88	7.73
577.072	7.95
577.264	7.93
577.456	7.88
577.647	7.85
577.839	8.07
578.031	7.92
578.223	7.78
578.414	7.76
578.606	7.84
578.798	7.91
578.989	7.87
579.181	7.97
579.372	7.82
579.564	7.85
579.755	7.79
579.947	7.69
580.139	7.78
580.33	7.68
580.522	7.8
580.713	7.71
580.905	7.74
581.096	7.84
581.287	7.76
581.479	7.77
581.67	7.85
581.862	7.73
582.053	7.71
582.244	7.52
582.436	7.8
582.627	7.67
582.818	7.67
583.01	7.65
583.201	7.72
583.392	7.7
583.583	7.65
583.775	7.52
583.966	7.63
584.157	7.66
584.348	7.71
584.54	7.61
584.731	7.63
584.922	7.55
585.113	7.45
585.304	7.61
585.495	7.61
585.686	7.66
585.877	7.62
586.068	7.67
586.259	7.59
586.45	7.55
586.641	7.51
586.832	7.57
587.023	7.49
587.214	7.52
587.405	7.55
587.596	7.46
587.787	7.34
587.978	7.5
588.169	7.37
588.36	7.42
588.551	7.45
588.742	7.47
588.932	7.5
589.123	7.28
589.314	7.53
589.505	7.32
589.696	7.42
589.886	7.32
590.077	7.37
590.268	7.27
590.458	7.29
590.649	7.12
590.84	7.28
591.03	7.24
591.221	7.26
591.412	7.17
591.602	7.37
591.793	7.27
591.984	7.27
592.174	7.23
592.365	7.41
592.555	7.08
592.746	7.19
592.936	7.18
593.127	7.16
593.317	7.23
593.508	7.15
593.698	7.12
593.889	7.06
594.079	7.13
594.269	7.09
594.46	7.04
594.65	7.15
594.84	7.08
595.031	7.01
595.221	7.05
595.411	7.03
595.602	6.98
595.792	6.94
595.982	6.82
596.172	7.1
596.363	6.9
596.553	6.87
596.743	6.97
596.933	6.93
597.123	6.85
597.314	6.81
597.504	6.74
597.694	7
597.884	6.76
598.074	6.86
598.264	6.81
598.454	6.8
598.644	6.74
598.834	6.79
599.024	6.68
599.214	6.72
599.404	6.78
599.594	6.77
599.784	6.67
599.974	6.71
600.164	6.74
600.354	6.62
600.544	6.55
600.734	6.65
600.924	6.64
601.114	6.61
601.303	6.57
601.493	6.59
601.683	6.59
601.873	6.51
602.063	6.53
602.252	6.5
602.442	6.43
602.632	6.39
602.821	6.35
603.011	6.48
603.201	6.49
603.39	6.4
603.58	6.31
603.77	6.4
603.959	6.48
604.149	6.38
604.339	6.33
604.528	6.43
604.718	6.44
604.907	6.28
605.097	6.29
605.286	6.22
605.476	6.31
605.665	6.29
605.855	6.21
606.044	6.26
606.234	6.26
606.423	6.19
606.612	6.21
606.802	6.13
606.991	6.15
607.181	6.2
607.37	6.17
607.559	6.03
607.749	6.07
607.938	6.02
608.127	6.04
608.316	6.04
608.506	5.97
608.695	6.08
608.884	5.94
609.073	6.02
609.263	6.07
609.452	6.06
609.641	5.81
609.83	5.83
610.019	5.98
610.208	5.89
610.397	5.78
610.586	5.87
610.775	5.78
610.965	5.83
611.154	5.73
611.343	5.82
611.532	5.77
611.721	5.86
611.91	5.68
612.099	5.76
612.287	5.61
612.476	5.53
612.665	5.71
612.854	5.57
613.043	5.66
613.232	5.62
613.421	5.53
613.61	5.55
613.798	5.48
613.987	5.58
614.176	5.53
614.365	5.56
614.554	5.5
614.742	5.54
614.931	5.41
615.12	5.54
615.309	5.46
615.497	5.4
615.686	5.33
615.875	5.42
616.063	5.36
616.252	5.37
616.44	5.41
616.629	5.33
616.818	5.34
617.006	5.31
617.195	5.27
617.383	5.25
617.572	5.18
617.76	5.21
617.949	5.2
618.137	5.25
618.326	5.23
618.514	5.04
618.703	5
618.891	5.2
619.079	5.05
619.268	5.12
619.456	4.98
619.644	5.11
619.833	5.01
620.021	5.04
620.209	4.92
620.398	5.01
620.586	4.91
620.774	5.01
620.962	4.89
621.151	5.09
621.339	4.89
621.527	4.84
621.715	4.86
621.903	4.87
622.092	4.78
622.28	4.95
622.468	4.68
622.656	4.9
622.844	4.78
623.032	4.85
623.22	4.63
623.408	4.87
623.596	4.75
623.784	4.79
623.972	4.62
624.16	4.65
624.348	4.76
624.536	4.71
624.724	4.57
624.912	4.65
625.1	4.65
625.288	4.57
625.476	4.52
625.664	4.59
625.851	4.51
626.039	4.56
626.227	4.51
626.415	4.53
626.603	4.36
626.79	4.46
626.978	4.44
627.166	4.53
627.354	4.42
627.541	4.4
627.729	4.24
627.917	4.53
628.104	4.47
628.292	4.34
628.48	4.37
628.667	4.26
628.855	4.37
629.042	4.28
629.23	4.27
629.418	4.29
629.605	4.27
629.793	4.13
629.98	4.22
630.168	4.2
630.355	4.22
630.543	4.16
630.73	4.06
630.917	4.17
631.105	4.18
631.292	4.16
631.48	4.07
631.667	4.18
631.854	4.09
632.042	4.03
632.229	3.95
632.416	4.05
632.604	4
632.791	3.9
632.978	4.01
633.165	3.99
633.353	4
633.54	4
633.727	3.8
633.914	3.89
634.101	3.81
634.289	3.94
634.476	3.79
634.663	3.73
634.85	3.87
635.037	3.73
635.224	3.66
635.411	3.86
635.598	3.74
635.785	3.74
635.972	3.75
636.159	3.76
636.346	3.69
636.533	3.62
636.72	3.57
636.907	3.59
637.094	3.62
637.281	3.53
637.468	3.57
637.655	3.59
637.842	3.59
638.029	3.58
638.215	3.57
638.402	3.51
638.589	3.46
638.776	3.46
638.963	3.46
639.149	3.51
639.336	3.56
639.523	3.42
639.709	3.43
639.896	3.37
640.083	3.36
640.27	3.45
640.456	3.35
640.643	3.36
640.829	3.29
641.016	3.3
641.203	3.24
641.389	3.33
641.576	3.31
641.762	3.29
641.949	3.21
642.135	3.27
642.322	3.21
642.508	3.16
642.695	3.23
642.881	3.17
643.068	3.13
643.254	3.15
643.441	3.17
643.627	3.14
643.813	3.05
644	3.17
644.186	2.99
644.372	3.07
644.559	3.07
644.745	3.07
644.931	3
645.118	3.01
645.304	2.99
645.49	2.95
645.676	3.01
645.862	3.01
646.049	3.06
646.235	2.9
646.421	3.02
646.607	3.06
646.793	2.9
646.979	2.88
647.165	2.89
647.352	2.91
647.538	2.91
647.724	2.85
647.91	2.79
648.096	2.81
648.282	2.86
648.468	2.76
648.654	2.83
648.84	2.83
649.026	2.77
649.212	2.75
649.397	2.72
649.583	2.75
649.769	2.79
649.955	2.71
650.141	2.78
650.327	2.71
650.513	2.67
650.698	2.7
650.884	2.56
651.07	2.64
651.256	2.61
651.442	2.66
651.627	2.54
651.813	2.65
651.999	2.58
652.184	2.57
652.37	2.58
652.556	2.56
652.741	2.59
652.927	2.46
653.113	2.47
653.298	2.55
653.484	2.45
653.669	2.45
653.855	2.44
654.04	2.49
654.226	2.5
654.412	2.41
654.597	2.38
654.782	2.42
654.968	2.44
655.153	2.36
655.339	2.36
655.524	2.28
655.71	2.4
655.895	2.34
656.08	2.3
656.266	2.4
656.451	2.3
656.636	2.23
656.822	2.28
657.007	2.3
657.192	2.27
657.378	2.21
657.563	2.23
657.748	2.28
657.933	2.24
658.118	2.13
658.304	2.2
658.489	2.33
658.674	2.21
658.859	2.09
659.044	2.18
659.229	2.21
659.414	2.16
659.599	2.08
659.785	2.1
659.97	2.12
660.155	2.17
660.34	2.13
660.525	2.11
660.71	2.06
660.895	2.06
661.08	2.02
661.264	2.02
661.449	2.09
661.634	2.05
661.819	2.09
662.004	2.03
662.189	1.98
662.374	1.96
662.559	1.98
662.743	1.89
662.928	1.96
663.113	1.99
663.298	1.96
663.483	1.91
663.667	1.93
663.852	1.83
664.037	1.96
664.221	1.88
664.406	1.94
664.591	1.93
664.775	1.99
664.96	1.82
665.145	1.94
665.329	1.9
665.514	1.86
665.698	1.79
665.883	1.77
666.068	1.91
666.252	1.85
666.437	1.78
666.621	1.79
666.806	1.85
666.99	1.79
667.174	1.76
667.359	1.9
667.543	1.77
667.728	1.78
667.912	1.67
668.096	1.81
668.281	1.7
668.465	1.77
668.649	1.7
668.834	1.74
669.018	1.73
669.202	1.7
669.387	1.66
669.571	1.78
669.755	1.62
669.939	1.68
670.124	1.65
670.308	1.7
670.492	1.74
670.676	1.63
670.86	1.61
671.044	1.57
671.228	1.66
671.413	1.53
671.597	1.56
671.781	1.57
671.965	1.63
672.149	1.58
672.333	1.61
672.517	1.53
672.701	1.57
672.885	1.53
673.069	1.47
673.253	1.64
673.437	1.55
673.621	1.52
673.804	1.57
673.988	1.54
674.172	1.46
674.356	1.44
674.54	1.45
674.724	1.57
674.908	1.5
675.091	1.55
675.275	1.44
675.459	1.54
675.643	1.53
675.826	1.48
676.01	1.48
676.194	1.45
676.377	1.48
676.561	1.45
676.745	1.46
676.928	1.48
677.112	1.49
677.296	1.36
677.479	1.36
677.663	1.35
677.846	1.41
678.03	1.42
678.213	1.35
678.397	1.4
678.58	1.3
678.764	1.38
678.947	1.29
679.131	1.34
679.314	1.4
679.498	1.38
679.681	1.35
679.865	1.44
680.048	1.28
680.231	1.29
680.415	1.27
680.598	1.29
680.781	1.28
680.965	1.31
681.148	1.24
681.331	1.25
681.514	1.32
681.698	1.22
681.881	1.31
682.064	1.31
682.247	1.29
682.43	1.14
682.614	1.25
682.797	1.28
682.98	1.3
683.163	1.11
683.346	1.23
683.529	1.22
683.712	1.11
683.895	1.27
684.078	1.1
684.261	1.16
684.444	1.22
684.627	1.29
684.81	1.15
684.993	1.14
685.176	1.22
685.359	1.09
685.542	1.12
685.725	1.25
685.908	1.19
686.091	1.16
686.274	1.19
686.457	1.22
686.639	1.17
686.822	1.14
687.005	1.09
687.188	1.16
687.371	1.26
687.553	1.15
687.736	1.11
687.919	1.2
688.102	1.16
688.284	1.07
688.467	1.09
688.65	1.13
688.832	1.03
689.015	1.06
689.197	0.96
689.38	1.2
689.563	1.16
689.745	1.07
689.928	0.99
690.11	1.06
690.293	1.08
690.475	0.95
690.658	1.04
690.84	0.97
691.023	0.97
691.205	0.98
691.388	1.03
691.57	1.06
691.752	1.05
691.935	0.9
692.117	0.96
692.3	1.01
692.482	0.93
692.664	0.92
692.847	1.01
693.029	1
693.211	1.02
693.393	0.9
693.576	0.92
693.758	1
693.94	1.04
694.122	0.88
694.304	0.94
694.487	0.88
694.669	1.04
694.851	0.8
695.033	0.91
695.215	0.88
695.397	0.87
695.579	0.9
695.761	0.89
695.943	0.85
696.125	1.01
696.308	0.94
696.49	0.79
696.671	1.08
696.853	0.91
697.035	1.16
697.217	0.83
697.399	0.98
697.581	0.88
697.763	0.83
697.945	0.8
698.127	0.84
698.309	0.94
698.491	0.86
698.672	0.93
698.854	0.94
699.036	0.95
699.218	0.88
699.399	0.92
699.581	0.94
699.763	0.84
699.945	0.8
700.126	0.71
700.308	0.86
700.49	0.8
700.671	0.76
700.853	0.75
701.035	0.78
701.216	0.82
701.398	0.77
701.579	0.78
701.761	0.83
701.943	0.8
702.124	0.73
702.306	0.75
702.487	0.97
702.669	0.84
702.85	0.72
703.031	0.69
703.213	0.92
703.394	0.87
703.576	0.71
703.757	0.96
703.938	0.87
704.12	0.95
704.301	0.76
704.483	0.66
704.664	0.74
704.845	0.87
705.026	0.78
705.208	0.76
705.389	0.83
705.57	0.77
705.751	0.75
705.933	0.75
706.114	0.84
706.295	0.75
706.476	0.68
706.657	0.83
706.838	0.77
707.02	0.82
707.201	0.72
707.382	0.69
707.563	0.8
707.744	0.68
707.925	0.58
708.106	0.66
708.287	0.69
708.468	0.84
708.649	0.72
708.83	0.72
709.011	0.73
709.192	0.73
709.373	0.65
709.554	0.65
709.734	0.74
709.915	0.75
710.096	0.69
710.277	0.52
710.458	0.76
710.639	0.68
710.819	0.56
711	0.6
711.181	0.74
711.362	0.77
711.542	0.67
711.723	0.58
711.904	0.69
712.085	0.7
712.265	0.68
712.446	0.59
712.627	0.68
712.807	0.61
712.988	0.59
713.168	0.47
713.349	0.7
713.53	0.42
713.71	0.55
713.891	0.54
714.071	0.62
714.252	0.56
714.432	0.62
714.613	0.55
714.793	0.61
714.974	0.74
715.154	0.74
715.334	0.66
715.515	0.78
715.695	0.52
715.876	0.52
716.056	0.53
716.236	0.6
716.417	0.55
716.597	0.52
716.777	0.82
716.957	0.56
717.138	0.65
717.318	0.58
717.498	0.43
717.678	0.6
717.859	0.58
718.039	0.49
718.219	0.56
718.399	0.58
718.579	0.53
718.759	0.43
718.939	0.61
719.12	0.59
719.3	0.58
719.48	0.41
719.66	0.43
719.84	0.74
720.02	0.57
720.2	0.47
720.38	0.57
720.56	0.71
720.74	0.46
720.92	0.52
721.1	0.77
721.279	0.67
721.459	0.61
721.639	0.49
721.819	0.49
721.999	0.48
722.179	0.59
722.359	0.44
722.538	0.53
722.718	0.57
722.898	0.45
723.078	0.5
723.257	0.53
723.437	0.65
723.617	0.53
723.797	0.5
723.976	0.53
724.156	0.62
724.336	0.68
724.515	0.69
724.695	0.4
724.874	0.53
725.054	0.52
725.234	0.43
725.413	0.47
725.593	0.53
725.772	0.59
725.952	0.46
726.131	0.46
726.311	0.63
726.49	0.5
726.67	0.4
726.849	0.46
727.028	0.62
727.208	0.52
727.387	0.49
727.567	0.36
727.746	0.41
727.925	0.44
728.105	0.4
728.284	0.41
728.463	0.44
728.643	0.58
728.822	0.38
729.001	0.48
729.18	0.57
729.359	0.54
729.539	0.37
729.718	0.57
729.897	0.56
730.076	0.49
730.255	0.35
730.434	0.47
730.614	0.55
730.793	0.73
730.972	0.48
731.151	0.43
731.33	0.6
731.509	0.55
731.688	0.41
731.867	0.51
732.046	0.26
732.225	0.7
732.404	0.46
732.583	0.37
732.762	0.42
732.941	0.55
733.12	0.48
733.298	0.45
733.477	0.65
733.656	0.53
733.835	0.36
734.014	0.6
734.193	0.48
734.371	0.49
734.55	0.53
734.729	0.38
734.908	0.55
735.086	0.51
735.265	0.54
735.444	0.3
735.623	0.43
735.801	0.33
735.98	0.54
736.159	0.39
736.337	0.64
736.516	0.62
736.694	0.48
736.873	0.45
737.052	0.69
737.23	0.74
737.409	0.35
737.587	0.73
737.766	0.42
737.944	0.46
738.123	0.47
738.301	0.46
738.479	0.44
738.658	0.53
738.836	0.31
739.015	0.53
739.193	0.68
739.371	0.38
739.55	0.47
739.728	0.36
739.906	0.68
740.085	0.61
740.263	0.48
740.441	0.25
740.62	0.73
740.798	0.57
740.976	0.46
741.154	0.31
741.332	0.59
741.511	0.44
741.689	0.54
741.867	0.56
742.045	0.56
742.223	0.47
742.401	0.47
742.579	0.35
742.757	0.61
742.935	0.36
743.114	0.43
743.292	0.37
743.47	0.47
743.648	0.5
743.826	0.45
744.004	0.45
744.181	0.55
744.359	0.36
744.537	0.42
744.715	0.5
744.893	0.43
745.071	0.5
745.249	0.37
745.427	0.41
745.605	0.49
745.782	0.53
745.96	0.47
746.138	0.53
746.316	0.57
746.493	0.41
746.671	0.41
746.849	0.36
747.027	0.62
747.204	0.39
747.382	0.45
747.56	0.26
747.737	0.38
747.915	0.42
748.093	0.49
748.27	0.27
748.448	0.35
748.625	0.28
748.803	0.33
748.98	0.32
749.158	0.44
749.335	0.53
749.513	0.42
749.69	0.36
749.868	0.51
750.045	0.46
750.223	0.33
750.4	0.2
750.578	0.59
750.755	0.49
750.932	0.22
751.11	0.5
751.287	0.38
751.464	0.62
751.642	0.25
751.819	0.39
751.996	0.42
752.173	0.39
752.351	0.28
752.528	0.33
752.705	0.35
752.882	0.31
753.06	0.47
753.237	0.44
753.414	0.64
753.591	0.69
753.768	0.42
753.945	0.4
754.122	0.35
754.299	0.58
754.476	0.25
754.654	0.45
754.831	0.47
755.008	0.48
755.185	0.28
755.362	0.23
755.539	0.52
755.716	0.44
755.892	0.39
756.069	0.32
756.246	0.41
756.423	0.5
756.6	0.53
756.777	0.2
756.954	0.47
757.131	0.38
757.307	0.21
757.484	0.18
757.661	0.4
757.838	0.58
758.015	0.17
758.191	0.45
758.368	0.38
758.545	0.53
758.721	0.4
758.898	0.24
759.075	0.32
759.251	0.52
759.428	0.27
759.605	0.24
759.781	0.3
759.958	0.55
760.134	0.34
760.311	0.3
760.488	0.57
760.664	0.53
760.841	0.29
761.017	0.14
761.194	0.41
761.37	0.47
761.547	0.4
761.723	0.35
761.899	0.52
762.076	0.24
762.252	0.23
762.429	0.29
762.605	0.43
762.781	0.38
762.958	0.46
763.134	0.28
763.31	0.25
763.486	0.6
763.663	0.13
763.839	0.39
764.015	0.04
764.191	0.35
764.368	0.22
764.544	0.22
764.72	0.42
764.896	0.46
765.072	0.39
765.248	0.27
765.425	0.44
765.601	0.43
765.777	0.25
765.953	0.08
766.129	0.27
766.305	0.14
766.481	0.41
766.657	0.42
766.833	0.55
767.009	0.34
767.185	0.3
767.361	0.24
767.537	0.14
767.713	0.68
767.889	0.34
768.065	0.4
768.24	0.49
768.416	0.5
768.592	0.28
768.768	0.36
768.944	0.47
769.12	0.25
769.295	0.26
769.471	0.33
769.647	0.47
769.823	0.6
769.998	0.12
770.174	0.24
770.35	0.84
770.525	0.83
770.701	0.45
770.877	0.36
771.052	0.27
771.228	0.48
771.403	0.49
771.579	0.41
771.755	0.64
771.93	0.26
772.106	0.16
772.281	0.06
772.457	0.39
772.632	0.5
772.808	0.15
772.983	0.14
773.159	0.15
773.334	0.68
773.509	0.27
773.685	0.19
773.86	0.92
774.036	0.54
774.211	0.41
774.386	0.24
774.562	0.38
774.737	0.64
774.912	0.27
775.087	0.46
775.263	0.31
775.438	0.36
775.613	0.22
775.788	0.22
775.964	0.65
776.139	0.89
776.314	0.32
776.489	0.34
776.664	0.52
776.839	0.21
777.014	0.42
777.19	0.53
777.365	0.73
777.54	0.5
777.715	0.34
777.89	0.32
778.065	0.26
778.24	0.42
778.415	0.49
778.59	0.09
778.765	0.44
778.94	0.55
779.115	0.35
779.289	0.15
779.464	0.31
779.639	0.44
779.814	0.27
779.989	0.08
780.164	0.59
780.339	0.39
780.513	0.19
780.688	0.12
780.863	0.44
781.038	0.56
781.212	0.26
781.387	0.42
781.562	0.72
781.737	0.33
781.911	0.65
782.086	0.3
782.261	0.37
782.435	0.61
782.61	0.24
782.784	0.25
782.959	0.78
783.134	0.21
783.308	0.23
783.483	0.23
783.657	0.9
783.832	0.66
784.006	-0.07
784.181	0.43
784.355	0.67
784.53	0.28
784.704	0.29
784.878	0.82
785.053	0.49
785.227	0.86
785.402	0.73
785.576	0.29
785.75	0.54
785.925	0.28
786.099	0.33
786.273	0.5
786.448	0.88
786.622	0.79
786.796	0.46
786.97	0.33
787.145	1.08
787.319	-0
787.493	0.38
787.667	-0.01
787.841	0.57
788.015	0.73
788.19	0.41
788.364	0.23
788.538	0.8
788.712	0.54
788.886	0.5
789.06	0.7
789.234	0.6
789.408	0.4
789.582	0.27
789.756	0.19
789.93	0.12
790.104	0.32
790.278	0.33
790.452	0.36
790.626	0.44
790.8	0.3
790.973	0.55
791.147	0.86
791.321	0.78
791.495	0.97
791.669	0.69
791.843	0.48
792.016	0.55
792.19	1.11
792.364	0.33
792.538	1.02
792.711	0.7
792.885	0.29
793.059	0.04
793.233	-0.25
793.406	0.71
793.58	0.31
793.754	0.88
793.927	0.47
794.101	0.72
794.274	0.45
794.448	0.61
794.622	0.31
794.795	0.78
794.969	0.35
795.142	0.91
795.316	0.5
795.489	0.33
795.663	1.02
795.836	0.59
796.009	0.04
796.183	0.92
796.356	0.98
796.53	0.46
796.703	0.45
796.876	1.18
797.05	0.41
797.223	0.24
797.396	0.25
797.57	0.44
797.743	1.21
797.916	0.55
798.09	0.39
798.263	0.96
798.436	0.51
798.609	0.31
798.782	0.23
798.956	0.85
799.129	0.46
799.302	0.39
799.475	0.17
799.648	0.31
799.821	0.52
799.994	0.45
800.167	0.15
800.34	0.43
800.514	0.62
800.687	0.35
800.86	0.27
801.033	0.59
801.206	0.84
801.379	0.04
801.551	0.6
801.724	0.74
801.897	1.03
802.07	0.47
802.243	-0.17
802.416	0.57
802.589	0.53
802.762	0.74
802.935	0.44
803.107	1.05
803.28	0.75
803.453	0.6
803.626	0.18
803.798	0.68
803.971	0.28
804.144	0.58
804.317	0.52
804.489	1.03
804.662	0.7
804.835	0.43
805.007	0.05
805.18	1.35
805.353	0.57
805.525	0.17
805.698	0.44
805.87	0.92
806.043	1.02
806.215	0.16
806.388	0.3
806.56	0.77
806.733	1.19
806.905	0.78
807.078	0.3
807.25	0.36
807.423	0.78
807.595	0.64
807.768	0.71
807.94	0.67
808.112	1.07
808.285	0.44
808.457	0.25
808.629	0.25
808.802	1.05
808.974	0.28
809.146	0.18
809.318	0.12
809.491	0.95
809.663	0.82
809.835	0.26
810.007	0.86
810.18	0.6
810.352	0.19
810.524	0.34
810.696	1.29
810.868	1.26
811.04	0.34
811.212	0.16
811.384	1.16
811.556	0.89
811.728	0.45
811.901	1.92
812.073	0.48
812.245	0.88
812.417	0.59
812.589	0.06
812.76	0.76
812.932	1.13
813.104	0.89
813.276	0.41
813.448	0.89
813.62	0.85
813.792	0.8
813.964	0.59
814.136	0.73
814.307	0.3
814.479	0.02
814.651	0.4
814.823	1.63
814.995	0.48
815.166	0.79
815.338	0.67
815.51	-0.08
815.681	1.53
815.853	0.45
816.025	0.47
816.196	1.46
816.368	0.96
816.54	0.23
816.711	0.92
816.883	0.98
817.054	2.1
817.226	-0.26
817.398	1.1
817.569	0.74
817.741	1.11
817.912	0.15
818.084	0.48
818.255	1.44
818.426	0.25
818.598	0.52
818.769	0.43
818.941	1.03
819.112	1.36
819.283	0.71
819.455	0.17
819.626	1.06
819.798	1.2
819.969	0.61
820.14	0.57
820.311	0.75
820.483	0.75
820.654	0.96
820.825	0.57
820.996	0.66
821.168	0.15
821.339	0.52
821.51	0.05
821.681	0.17
821.852	0.77
822.023	0.07
822.195	-0.38
822.366	1.52
822.537	0.63
822.708	0.99
822.879	0.33
823.05	1.38
823.221	0.55
823.392	1.01
823.563	0.59
823.734	0.66
823.905	0.99
824.076	0.11
824.247	-0.13
824.418	0.83
824.589	1.99
824.759	0.71
824.93	0.6
825.101	-0.01
825.272	1.41
825.443	1.14
825.614	1.35
825.784	-0.08
825.955	1.93
826.126	0.88
826.297	0.77
826.467	2.13
826.638	1.76
826.809	0.7
826.98	0.4
827.15	1.24
827.321	0.96
827.492	1.14
827.662	0.51
827.833	2.73
828.003	1.35
828.174	0.13
828.345	-0.13
828.515	1.71
828.686	1.02
828.856	0.25
829.027	1.08
829.197	1.08
829.368	1.15
829.538	0.3
829.709	0.26
829.879	0.81
830.049	0.86
830.22	0.81
830.39	0.21
830.56	1.75
830.731	0.22
830.901	0.42
831.072	0.95
831.242	0.9
831.412	1.32
831.582	1.01
831.753	0.04
831.923	2.18
832.093	1.09
832.263	1.01
832.434	0.08
832.604	0.71
832.774	1.4
832.944	0.89
833.114	0.53
833.284	0.8
833.454	0.33
833.624	0.26
833.795	0.86
833.965	1.72
834.135	2
834.305	-0.62
834.475	-0.2
834.645	1.24
834.815	0.47
834.985	0.45
835.155	0.59
835.325	2.15
835.494	1.18
835.664	0.67
835.834	0.05
836.004	1.34
836.174	1.71
836.344	1.13
836.514	-0.45
836.684	1.14
836.853	0.81
837.023	1.57
837.193	-0.03
837.363	2.55
837.532	1.94
837.702	0.59
837.872	0.44
838.041	1.59
838.211	3.38
838.381	0.5
838.55	0.39
838.72	3.66
838.89	2.13
839.059	0.21
839.229	0.17
839.398	2.79
839.568	1.56
839.738	1.18
839.907	1.76
840.077	1.62
840.246	0.52
840.416	0.24
840.585	0.51
840.755	2.58
840.924	2.23
841.093	1.12
841.263	0.61
841.432	1.31
841.602	0.63
841.771	0.33
841.94	0.84
842.11	3.76
842.279	2.41
842.448	0.07
842.617	0.12
842.787	2.36
842.956	0.41
843.125	0.67
843.294	0.86
843.464	2.53
843.633	1.01
843.802	-0.3
843.971	0.46
844.14	1.71
844.309	2.24
844.479	-0.81
844.648	-0.2
844.817	0.97
844.986	1.53
845.155	0.39
845.324	0.94
845.493	0.58
845.662	0.83
845.831	1.16
846	1.71
846.169	0.95
846.338	2.74
846.507	0.77
846.676	1.52
846.844	1.05
847.013	1.71
847.182	1.51
847.351	0.71
847.52	0.78
847.689	1.38
847.858	1.71
848.026	0.33
848.195	1.61
848.364	1.02
848.533	0.39
848.701	0.42
848.87	1.25
849.039	2.82
849.207	2.04
849.376	3.1
849.545	2.74
849.713	0.99
849.882	0.75
850.051	0.83
850.219	1.67
850.388	1.98
850.556	0.33
850.725	0.19
850.893	1.42
851.062	1.63
851.23	2.32
851.399	0.6
851.567	2.44
851.736	1.45
851.904	0.81
852.073	2.47
852.241	1.82
852.41	0.99
852.578	0.76
852.746	1.01
852.915	2.25
853.083	0.79
853.251	-0.31
853.42	0.14
853.588	1.03
853.756	3.4
853.924	1.13
854.093	1.2
854.261	0.86
854.429	-0.84
854.597	1.09
854.765	0.03
854.934	2.83
855.102	3.17
855.27	1.41
855.438	2.96
855.606	2.65
855.774	3.94
855.942	-0.97
856.11	0.16
856.278	1.74
856.446	2.54
856.614	0.47
856.782	-0.79
856.95	3.2
857.118	2.11
857.286	2.21
857.454	0.65
857.622	2.73
857.79	2.76
857.958	1.06
858.126	0.71
858.294	-0.96
858.462	2.11
858.629	0.18
858.797	-0.59
858.965	2.58
859.133	1.24
859.301	0.88
859.468	2.39
859.636	1.81
859.804	4.15
859.971	1.87
860.139	0.56
860.307	2.53
860.474	1.72
860.642	0.27
860.81	0.97
860.977	1.21
861.145	3.13
861.313	0.63
861.48	1.3
861.648	3.34
861.815	0.02
861.983	-0.75
862.15	-0.22
862.318	3.44
862.485	4
862.653	-0.58
862.82	-0.81
862.988	4.23
863.155	2.79
863.322	0.62
863.49	-0.04
863.657	0.99
863.824	3.38
863.992	1.47
864.159	1.63
864.326	3.72
864.494	1.14
864.661	4.74
864.828	-0.79
864.996	4.27
865.163	3
865.33	0.93
865.497	-1.26
865.664	0.34
865.832	-1.06
865.999	1.39
866.166	-0.33
866.333	1.97
866.5	2.37
866.667	1.59
866.834	2.07
867.001	3.43
867.168	-0.05
867.335	1.41
867.502	-1.14
867.669	1.64
867.836	5.16
868.003	0.06
868.17	3.05
868.337	1.85
868.504	5.28
868.671	-0.68
868.838	-0.08
869.005	3.24
869.172	2.83
869.339	1.97
869.505	1.32
869.672	0.85
869.839	4.45
870.006	2.04
870.173	0.97
870.339	4.33
870.506	6.61
870.673	-0.52
870.84	1.86
871.006	3.14
871.173	0.32
871.34	2.09
871.506	0.51
871.673	2.76
871.839	0.34
872.006	2.01
872.173	0.92
872.339	3.68
872.506	3.21
872.672	-0.63
872.839	-1.93
873.005	2.1
873.172	5.95
873.338	2.72
873.505	2.91
873.671	3.55
873.838	3.5
874.004	-0.19
874.171	0.2
874.337	4
874.503	4.64
874.67	-0.42
874.836	0.62
875.002	7.6
875.169	3.98
875.335	2.67
875.501	1.84
875.668	3.66
875.834	2.21
876	1.22
876.166	1.28
876.332	3.68
876.499	7.61
876.665	-0.06
876.831	1.53
876.997	7.9
877.163	1.85
877.329	1.59
877.495	2.03
877.662	3.77
877.828	3.55
877.994	1.76
878.16	-1.33
878.326	1.53
878.492	3.57
878.658	3.13
878.824	3.04
878.99	4.24
879.156	2.23
879.322	4.59
879.487	1.21
879.653	3.72
879.819	1.8
879.985	0.24
880.151	3.06
880.317	2.69
880.483	2.5
880.648	3.71
880.814	-1.03
880.98	1.72
881.146	-1.62
881.312	-1.95
881.477	1.8
881.643	2.21
881.809	3.97
881.974	4.28
882.14	-0.79
882.306	0.07
882.471	5.16
882.637	0.67
882.803	3.14
882.968	4.73
883.134	6.73
883.299	0.78
883.465	2.01
883.63	2.52
883.796	4.96
883.961	2.48
884.127	4.42
884.292	-2.16
884.458	-0.41
884.623	-0.41
