Data from Apollo_Calib_20240827__AbsoluteIrradiance__893__14-02-02-728.txt Node

Date: Wed Aug 28 14:02:02 BST 2024
User: biology
Spectrometer: FLMT08252
Trigger mode: 0
Integration Time (sec): 5.000000E-1
Scans to average: 5
Electric dark correction enabled: true
Nonlinearity correction enabled: false
Boxcar width: 0
XAxis mode: Wavelengths
Number of Pixels in Spectrum: 3648
>>>>>Begin Spectral Data<<<<<
179.588	-0
179.809	-0
180.03	-0
180.251	-0
180.473	-0
180.694	0
180.915	0
181.136	-0
181.357	0
181.578	0
181.799	0
182.02	-0
182.241	-0
182.462	-0
182.683	0
182.904	-0
183.125	-0
183.346	0
183.567	0
183.788	0
184.009	0
184.23	0
184.451	0
184.672	0
184.892	0
185.113	0
185.334	0
185.555	0
185.776	0
185.996	0
186.217	0
186.438	0
186.659	0
186.879	0
187.1	0
187.321	0
187.541	0
187.762	0
187.983	0
188.203	0
188.424	0
188.644	0
188.865	0
189.086	0
189.306	0
189.527	0
189.747	0
189.968	0
190.188	0
190.409	0
190.629	0
190.849	0
191.07	0
191.29	0
191.511	0
191.731	0
191.951	0
192.172	0
192.392	0
192.612	0
192.833	0
193.053	0
193.273	0
193.493	0
193.714	0
193.934	0
194.154	0
194.374	0
194.594	0
194.815	0
195.035	0
195.255	0
195.475	0
195.695	0
195.915	0
196.135	0
196.355	0
196.575	0
196.795	0
197.015	0
197.235	0
197.455	0
197.675	0
197.895	0
198.115	0
198.335	0
198.555	0
198.775	0
198.995	0
199.214	0
199.434	0
199.654	0
199.874	0
200.094	4.53
200.313	2.56
200.533	2.11
200.753	1.55
200.973	3.78
201.192	3.26
201.412	1.38
201.632	1.7
201.851	3.6
202.071	2.18
202.291	1.85
202.51	1.29
202.73	2.68
202.95	1.5
203.169	1.1
203.389	1.48
203.608	2.25
203.828	1.72
204.047	1.24
204.267	2.07
204.486	2.08
204.706	2.09
204.925	1.52
205.145	1.66
205.364	2.4
205.583	2.83
205.803	1.56
206.022	0.99
206.242	1.82
206.461	1.67
206.68	1.25
206.9	1.68
207.119	2.88
207.338	2.24
207.557	1.34
207.777	1.07
207.996	1.37
208.215	2.47
208.434	1.02
208.654	0.96
208.873	1.63
209.092	2.16
209.311	1.04
209.53	1.32
209.749	1.11
209.968	1.18
210.187	0.94
210.407	0.67
210.626	1.25
210.845	1.63
211.064	0.92
211.283	0.85
211.502	1.74
211.721	0.91
211.94	0.85
212.159	1.25
212.377	1.35
212.596	1.5
212.815	1.2
213.034	1.26
213.253	1.54
213.472	1.53
213.691	0.91
213.91	0.66
214.128	0.79
214.347	1.69
214.566	0.41
214.785	0.7
215.003	1.2
215.222	1.31
215.441	0.68
215.66	0.59
215.878	1.09
216.097	1.24
216.316	0.8
216.534	0.76
216.753	0.88
216.972	0.71
217.19	1
217.409	0.74
217.627	0.66
217.846	0.9
218.064	0.75
218.283	0.6
218.501	1.59
218.72	1.3
218.938	0.54
219.157	0.56
219.375	1.28
219.594	1.12
219.812	0.42
220.031	0.51
220.249	1.08
220.467	1.26
220.686	0.66
220.904	0.51
221.122	0.69
221.341	1.08
221.559	0.72
221.777	0.49
221.995	0.85
222.214	1.09
222.432	0.59
222.65	0.84
222.868	0.85
223.086	0.69
223.305	0.77
223.523	0.72
223.741	1.21
223.959	0.83
224.177	0.36
224.395	0.62
224.613	0.81
224.831	0.87
225.049	0.49
225.267	0.55
225.485	0.78
225.703	0.61
225.921	0.69
226.139	0.55
226.357	0.85
226.575	0.72
226.793	0.39
227.011	1.72
227.229	0.78
227.447	0.94
227.665	0.5
227.883	0.32
228.1	0.68
228.318	0.87
228.536	0.28
228.754	0.47
228.972	0.7
229.189	0.81
229.407	0.46
229.625	0.56
229.843	0.78
230.06	0.75
230.278	0.52
230.496	0.59
230.713	0.72
230.931	0.96
231.149	0.51
231.366	0.32
231.584	0.56
231.801	1.01
232.019	0.57
232.236	0.37
232.454	0.39
232.671	0.67
232.889	0.57
233.106	0.43
233.324	0.64
233.541	0.63
233.759	0.47
233.976	0.32
234.194	0.51
234.411	0.64
234.628	0.49
234.846	0.42
235.063	0.52
235.28	0.59
235.498	0.47
235.715	0.42
235.932	0.8
236.149	0.64
236.367	0.39
236.584	0.57
236.801	0.57
237.018	0.67
237.236	0.51
237.453	0.28
237.67	0.7
237.887	0.41
238.104	0.32
238.321	0.31
238.538	0.38
238.755	0.72
238.973	0.2
239.19	0.53
239.407	0.56
239.624	0.65
239.841	0.29
240.058	0.44
240.275	0.51
240.492	0.63
240.709	0.38
240.925	0.41
241.142	0.54
241.359	0.4
241.576	0.34
241.793	0.32
242.01	0.38
242.227	0.69
242.444	0.49
242.66	0.61
242.877	0.56
243.094	0.36
243.311	0.42
243.527	0.37
243.744	0.52
243.961	0.58
244.178	0.34
244.394	0.42
244.611	0.72
244.828	0.74
245.044	0.34
245.261	0.37
245.477	0.55
245.694	0.55
245.911	0.31
246.127	0.54
246.344	0.62
246.56	0.51
246.777	0.38
246.993	0.38
247.21	0.49
247.426	0.51
247.643	0.36
247.859	0.29
248.076	0.36
248.292	0.7
248.508	0.3
248.725	0.39
248.941	0.55
249.157	0.65
249.374	0.37
249.59	0.33
249.806	0.43
250.023	0.6
250.239	0.34
250.455	0.32
250.671	0.44
250.888	0.56
251.104	0.47
251.32	0.43
251.536	0.38
251.752	0.41
251.969	0.39
252.185	0.38
252.401	0.62
252.617	0.53
252.833	0.42
253.049	0.34
253.265	0.45
253.481	0.41
253.697	0.36
253.913	0.33
254.129	0.5
254.345	0.44
254.561	0.36
254.777	0.35
254.993	0.47
255.209	0.41
255.425	0.36
255.641	0.27
255.857	0.48
256.073	0.49
256.288	0.26
256.504	0.32
256.72	0.51
256.936	0.57
257.152	0.4
257.367	0.31
257.583	0.39
257.799	0.47
258.015	0.35
258.23	0.31
258.446	0.67
258.662	0.38
258.877	0.26
259.093	0.3
259.309	0.43
259.524	0.42
259.74	0.27
259.955	0.31
260.171	0.39
260.387	0.44
260.602	0.43
260.818	0.42
261.033	0.33
261.249	0.42
261.464	0.26
261.68	0.25
261.895	0.47
262.11	0.44
262.326	0.31
262.541	0.27
262.757	0.51
262.972	0.44
263.187	0.41
263.403	0.36
263.618	0.48
263.833	0.42
264.049	0.2
264.264	0.36
264.479	0.29
264.694	0.55
264.91	0.22
265.125	0.3
265.34	0.41
265.555	0.55
265.77	0.39
265.986	0.26
266.201	0.4
266.416	0.51
266.631	0.31
266.846	0.33
267.061	0.43
267.276	0.44
267.491	0.18
267.706	0.38
267.921	0.43
268.136	0.37
268.351	0.32
268.566	0.24
268.781	0.46
268.996	0.54
269.211	0.31
269.426	0.18
269.641	0.37
269.856	0.39
270.071	0.26
270.285	0.24
270.5	0.43
270.715	0.42
270.93	0.36
271.145	0.38
271.359	0.5
271.574	0.27
271.789	0.35
272.004	0.34
272.218	0.38
272.433	0.41
272.648	0.25
272.862	0.4
273.077	0.37
273.292	0.4
273.506	0.22
273.721	0.3
273.936	0.4
274.15	0.46
274.365	0.27
274.579	0.37
274.794	0.42
275.008	0.41
275.223	0.27
275.437	0.34
275.652	0.44
275.866	0.38
276.081	0.3
276.295	0.38
276.509	0.34
276.724	0.4
276.938	0.32
277.153	0.36
277.367	0.39
277.581	0.34
277.796	0.3
278.01	0.26
278.224	0.43
278.438	0.46
278.653	0.27
278.867	0.22
279.081	0.26
279.295	0.34
279.51	0.36
279.724	0.19
279.938	0.4
280.152	0.41
280.366	0.23
280.58	0.31
280.794	0.48
281.008	0.44
281.222	0.33
281.437	0.48
281.651	0.37
281.865	0.39
282.079	0.3
282.293	0.19
282.507	0.27
282.721	0.28
282.935	0.28
283.148	0.25
283.362	0.26
283.576	0.2
283.79	0.27
284.004	0.22
284.218	0.45
284.432	0.3
284.646	0.3
284.859	0.27
285.073	0.28
285.287	0.35
285.501	0.28
285.714	0.25
285.928	0.35
286.142	0.34
286.356	0.21
286.569	0.31
286.783	0.46
286.997	0.4
287.21	0.3
287.424	0.28
287.637	0.28
287.851	0.31
288.065	0.34
288.278	0.28
288.492	0.33
288.705	0.29
288.919	0.32
289.132	0.2
289.346	0.38
289.559	0.23
289.773	0.2
289.986	0.29
290.2	0.28
290.413	0.41
290.626	0.3
290.84	0.25
291.053	0.32
291.267	0.39
291.48	0.29
291.693	0.27
291.906	0.27
292.12	0.28
292.333	0.24
292.546	0.22
292.76	0.38
292.973	0.32
293.186	0.34
293.399	0.25
293.612	0.35
293.826	0.23
294.039	0.27
294.252	0.23
294.465	0.35
294.678	0.31
294.891	0.27
295.104	0.22
295.317	0.31
295.53	0.29
295.743	0.28
295.956	0.25
296.169	0.43
296.382	0.32
296.595	0.27
296.808	0.21
297.021	0.37
297.234	0.38
297.447	0.28
297.66	0.29
297.873	0.35
298.086	0.36
298.299	0.2
298.511	0.19
298.724	0.3
298.937	0.25
299.15	0.22
299.363	0.25
299.575	0.36
299.788	0.31
300.001	0.26
300.213	0.22
300.426	0.23
300.639	0.26
300.852	0.28
301.064	0.32
301.277	0.38
301.489	0.32
301.702	0.27
301.915	0.28
302.127	0.28
302.34	0.31
302.552	0.36
302.765	0.21
302.977	0.36
303.19	0.22
303.402	0.22
303.615	0.28
303.827	0.24
304.04	0.26
304.252	0.28
304.464	0.24
304.677	0.39
304.889	0.36
305.102	0.22
305.314	0.18
305.526	0.33
305.739	0.31
305.951	0.2
306.163	0.23
306.375	0.39
306.588	0.26
306.8	0.23
307.012	0.2
307.224	0.3
307.436	0.38
307.649	0.15
307.861	0.23
308.073	0.34
308.285	0.23
308.497	0.2
308.709	0.23
308.921	0.26
309.133	0.33
309.346	0.25
309.558	0.22
309.77	0.29
309.982	0.36
310.194	0.27
310.406	0.22
310.617	0.34
310.829	0.25
311.041	0.3
311.253	0.24
311.465	0.24
311.677	0.28
311.889	0.26
312.101	0.22
312.313	0.35
312.524	0.39
312.736	0.18
312.948	0.23
313.16	0.37
313.372	0.34
313.583	0.29
313.795	0.22
314.007	0.26
314.218	0.3
314.43	0.27
314.642	0.23
314.853	0.22
315.065	0.31
315.277	0.23
315.488	0.29
315.7	0.3
315.912	0.32
316.123	0.28
316.335	0.25
316.546	0.35
316.758	0.27
316.969	0.26
317.181	0.26
317.392	0.26
317.604	0.34
317.815	0.22
318.026	0.19
318.238	0.2
318.449	0.32
318.661	0.19
318.872	0.17
319.083	0.2
319.295	0.33
319.506	0.26
319.717	0.24
319.929	0.31
320.14	0.24
320.351	0.25
320.562	0.17
320.774	0.27
320.985	0.25
321.196	0.19
321.407	0.16
321.618	0.37
321.829	0.32
322.041	0.27
322.252	0.22
322.463	0.34
322.674	0.31
322.885	0.2
323.096	0.27
323.307	0.31
323.518	0.29
323.729	0.23
323.94	0.24
324.151	0.2
324.362	0.29
324.573	0.28
324.784	0.21
324.995	0.37
325.206	0.27
325.417	0.24
325.628	0.2
325.838	0.26
326.049	0.29
326.26	0.3
326.471	0.23
326.682	0.26
326.892	0.29
327.103	0.19
327.314	0.26
327.525	0.32
327.735	0.29
327.946	0.22
328.157	0.15
328.368	0.3
328.578	0.25
328.789	0.29
328.999	0.25
329.21	0.23
329.421	0.33
329.631	0.23
329.842	0.2
330.052	0.25
330.263	0.32
330.473	0.31
330.684	0.18
330.894	0.23
331.105	0.31
331.315	0.26
331.526	0.17
331.736	0.37
331.947	0.28
332.157	0.29
332.367	0.16
332.578	0.29
332.788	0.35
332.999	0.28
333.209	0.3
333.419	0.26
333.629	0.29
333.84	0.28
334.05	0.23
334.26	0.37
334.47	0.24
334.681	0.32
334.891	0.29
335.101	0.34
335.311	0.34
335.521	0.26
335.732	0.21
335.942	0.37
336.152	0.28
336.362	0.24
336.572	0.3
336.782	0.3
336.992	0.26
337.202	0.26
337.412	0.25
337.622	0.28
337.832	0.28
338.042	0.27
338.252	0.19
338.462	0.21
338.672	0.27
338.882	0.26
339.092	0.28
339.302	0.31
339.511	0.3
339.721	0.26
339.931	0.18
340.141	0.31
340.351	0.39
340.561	0.27
340.77	0.3
340.98	0.25
341.19	0.31
341.4	0.23
341.609	0.2
341.819	0.28
342.029	0.2
342.238	0.24
342.448	0.19
342.658	0.31
342.867	0.28
343.077	0.23
343.286	0.25
343.496	0.27
343.706	0.34
343.915	0.24
344.125	0.25
344.334	0.29
344.544	0.22
344.753	0.21
344.963	0.2
345.172	0.21
345.381	0.21
345.591	0.18
345.8	0.23
346.01	0.35
346.219	0.34
346.428	0.14
346.638	0.25
346.847	0.24
347.056	0.35
347.266	0.21
347.475	0.23
347.684	0.32
347.893	0.3
348.103	0.3
348.312	0.21
348.521	0.26
348.73	0.25
348.94	0.3
349.149	0.22
349.358	0.25
349.567	0.27
349.776	0.16
349.985	0.22
350.194	0.31
350.403	0.33
350.612	0.17
350.821	0.2
351.03	0.28
351.239	0.19
351.448	0.25
351.657	0.22
351.866	0.34
352.075	0.26
352.284	0.33
352.493	0.2
352.702	0.38
352.911	0.25
353.12	0.26
353.329	0.23
353.538	0.27
353.746	0.3
353.955	0.19
354.164	0.29
354.373	0.23
354.582	0.32
354.79	0.25
354.999	0.25
355.208	0.27
355.416	0.33
355.625	0.21
355.834	0.2
356.042	0.27
356.251	0.21
356.46	0.2
356.668	0.24
356.877	0.37
357.085	0.32
357.294	0.14
357.503	0.3
357.711	0.27
357.92	0.42
358.128	0.25
358.337	0.18
358.545	0.29
358.754	0.25
358.962	0.3
359.17	0.23
359.379	0.29
359.587	0.3
359.796	0.25
360.004	0.3
360.212	0.28
360.421	0.36
360.629	0.21
360.837	0.24
361.046	0.34
361.254	0.41
361.462	0.23
361.67	0.23
361.879	0.3
362.087	0.33
362.295	0.25
362.503	0.18
362.711	0.22
362.92	0.25
363.128	0.19
363.336	0.19
363.544	0.2
363.752	0.3
363.96	0.25
364.168	0.23
364.376	0.28
364.584	0.27
364.792	0.32
365	0.27
365.208	0.29
365.416	0.33
365.624	0.32
365.832	0.18
366.04	0.35
366.248	0.29
366.456	0.25
366.664	0.25
366.872	0.25
367.079	0.22
367.287	0.29
367.495	0.27
367.703	0.27
367.911	0.21
368.118	0.25
368.326	0.22
368.534	0.22
368.742	0.33
368.949	0.21
369.157	0.24
369.365	0.27
369.572	0.21
369.78	0.23
369.988	0.3
370.195	0.24
370.403	0.31
370.61	0.22
370.818	0.23
371.026	0.38
371.233	0.24
371.441	0.26
371.648	0.22
371.856	0.27
372.063	0.31
372.271	0.24
372.478	0.2
372.685	0.26
372.893	0.35
373.1	0.26
373.308	0.19
373.515	0.41
373.722	0.28
373.93	0.23
374.137	0.31
374.344	0.35
374.552	0.32
374.759	0.29
374.966	0.23
375.173	0.23
375.381	0.31
375.588	0.23
375.795	0.18
376.002	0.26
376.209	0.21
376.417	0.25
376.624	0.28
376.831	0.31
377.038	0.26
377.245	0.15
377.452	0.26
377.659	0.3
377.866	0.25
378.073	0.22
378.28	0.24
378.487	0.36
378.694	0.3
378.901	0.24
379.108	0.26
379.315	0.34
379.522	0.36
379.729	0.27
379.936	0.25
380.143	0.27
380.35	0.27
380.557	0.25
380.763	0.27
380.97	0.29
381.177	0.31
381.384	0.31
381.591	0.29
381.797	0.28
382.004	0.32
382.211	0.3
382.418	0.2
382.624	0.34
382.831	0.35
383.038	0.23
383.244	0.32
383.451	0.29
383.658	0.33
383.864	0.26
384.071	0.24
384.277	0.35
384.484	0.27
384.69	0.33
384.897	0.23
385.103	0.25
385.31	0.22
385.516	0.27
385.723	0.22
385.929	0.29
386.136	0.27
386.342	0.3
386.549	0.22
386.755	0.35
386.961	0.31
387.168	0.19
387.374	0.26
387.58	0.31
387.787	0.31
387.993	0.29
388.199	0.27
388.406	0.25
388.612	0.29
388.818	0.24
389.024	0.24
389.231	0.3
389.437	0.38
389.643	0.36
389.849	0.27
390.055	0.3
390.261	0.32
390.467	0.33
390.674	0.23
390.88	0.29
391.086	0.37
391.292	0.24
391.498	0.33
391.704	0.32
391.91	0.31
392.116	0.27
392.322	0.17
392.528	0.36
392.734	0.29
392.94	0.33
393.146	0.31
393.352	0.32
393.557	0.3
393.763	0.3
393.969	0.34
394.175	0.3
394.381	0.34
394.587	0.22
394.792	0.31
394.998	0.38
395.204	0.38
395.41	0.28
395.615	0.31
395.821	0.33
396.027	0.33
396.233	0.3
396.438	0.35
396.644	0.39
396.85	0.34
397.055	0.32
397.261	0.34
397.466	0.43
397.672	0.36
397.878	0.34
398.083	0.37
398.289	0.31
398.494	0.42
398.7	0.38
398.905	0.28
399.111	0.43
399.316	0.28
399.522	0.35
399.727	0.35
399.932	0.34
400.138	0.38
400.343	0.36
400.549	0.35
400.754	0.39
400.959	0.35
401.165	0.34
401.37	0.39
401.575	0.46
401.78	0.36
401.986	0.39
402.191	0.34
402.396	0.36
402.601	0.43
402.807	0.41
403.012	0.39
403.217	0.48
403.422	0.41
403.627	0.38
403.832	0.43
404.037	0.46
404.243	0.47
404.448	0.43
404.653	0.43
404.858	0.45
405.063	0.46
405.268	0.43
405.473	0.4
405.678	0.4
405.883	0.7
406.088	0.52
406.293	0.42
406.498	0.46
406.703	0.55
406.907	0.52
407.112	0.42
407.317	0.53
407.522	0.55
407.727	0.47
407.932	0.58
408.136	0.71
408.341	0.56
408.546	0.58
408.751	0.54
408.956	0.61
409.16	0.7
409.365	0.58
409.57	0.62
409.774	0.64
409.979	0.65
410.184	0.69
410.388	0.6
410.593	0.77
410.798	0.74
411.002	0.74
411.207	0.8
411.411	0.78
411.616	0.76
411.82	0.84
412.025	0.86
412.229	0.84
412.434	0.96
412.638	0.95
412.843	0.94
413.047	0.94
413.252	0.98
413.456	1.01
413.66	1.07
413.865	1.05
414.069	1.17
414.273	1.1
414.478	1.17
414.682	1.23
414.886	1.26
415.091	1.19
415.295	1.22
415.499	1.45
415.703	1.38
415.908	1.51
416.112	1.41
416.316	1.64
416.52	1.58
416.724	1.61
416.929	1.59
417.133	1.86
417.337	1.72
417.541	1.75
417.745	1.81
417.949	2.01
418.153	2
418.357	2.02
418.561	2.3
418.765	2.24
418.969	2.38
419.173	2.43
419.377	2.37
419.581	2.68
419.785	2.67
419.989	2.66
420.193	2.81
420.397	2.99
420.601	3.1
420.804	3.07
421.008	3.1
421.212	3.24
421.416	3.25
421.62	3.28
421.823	3.44
422.027	3.6
422.231	3.47
422.435	3.55
422.638	3.6
422.842	3.66
423.046	3.76
423.249	4.01
423.453	4
423.657	4.22
423.86	4.23
424.064	4.36
424.268	4.6
424.471	4.52
424.675	4.73
424.878	4.79
425.082	4.9
425.285	5.24
425.489	5.12
425.692	5.25
425.896	5.25
426.099	5.56
426.303	5.61
426.506	5.69
426.71	5.93
426.913	6.32
427.116	6.37
427.32	6.32
427.523	6.45
427.726	6.79
427.93	6.75
428.133	7.19
428.336	7.28
428.54	7.4
428.743	7.65
428.946	7.8
429.149	7.82
429.353	7.91
429.556	8.01
429.759	8.05
429.962	8.24
430.165	8.38
430.368	7.94
430.571	8
430.775	8.19
430.978	8.06
431.181	8.25
431.384	8.37
431.587	8.35
431.79	8.7
431.993	8.66
432.196	8.96
432.399	9.34
432.602	9.5
432.805	9.59
433.008	10.1
433.211	9.97
433.414	10.37
433.616	10.36
433.819	10.24
434.022	10.53
434.225	10.67
434.428	10.68
434.631	11.12
434.833	10.71
435.036	11.12
435.239	11.27
435.442	11.27
435.645	11.51
435.847	11.57
436.05	11.89
436.253	12.21
436.455	12.09
436.658	12.01
436.861	12.36
437.063	12.5
437.266	12.43
437.468	12.89
437.671	13.1
437.874	13.08
438.076	12.95
438.279	13.49
438.481	13.57
438.684	14.21
438.886	13.8
439.089	14.21
439.291	14.27
439.494	14.53
439.696	14.78
439.899	15.33
440.101	15.73
440.303	15.84
440.506	16.54
440.708	16.3
440.91	16.53
441.113	16.71
441.315	16.99
441.517	16.64
441.72	17.23
441.922	16.96
442.124	16.86
442.326	17.22
442.529	17.43
442.731	17.42
442.933	17.65
443.135	17.47
443.337	17.46
443.539	17.91
443.742	17.73
443.944	18.42
444.146	18.19
444.348	18.1
444.55	17.86
444.752	18.07
444.954	18.17
445.156	18.02
445.358	18.4
445.56	18.71
445.762	18.46
445.964	19.01
446.166	18.4
446.368	18.51
446.57	18.63
446.772	18.35
446.974	17.96
447.175	18.3
447.377	18.03
447.579	18.32
447.781	18.06
447.983	17.78
448.184	17.4
448.386	17.76
448.588	17.09
448.79	17.19
448.991	17.48
449.193	17.61
449.395	16.81
449.597	16.49
449.798	16.28
450	15.89
450.202	15.86
450.403	15.86
450.605	15.83
450.806	15.43
451.008	15.18
451.21	14.98
451.411	14.52
451.613	13.71
451.814	14.05
452.016	14.07
452.217	13.25
452.419	13.34
452.62	12.88
452.821	12.61
453.023	12.62
453.224	12.35
453.426	11.81
453.627	11.16
453.828	11.27
454.03	11.28
454.231	11.24
454.432	10.95
454.634	10.75
454.835	10.49
455.036	10.37
455.238	10.02
455.439	9.8
455.64	9.55
455.841	9.44
456.042	9.4
456.244	9.18
456.445	8.89
456.646	8.57
456.847	8.53
457.048	8.39
457.249	8.48
457.45	8.28
457.651	7.8
457.852	7.55
458.054	7.23
458.255	7.15
458.456	7.31
458.657	7.19
458.858	6.71
459.058	6.5
459.259	6.76
459.46	6.41
459.661	6.42
459.862	6.56
460.063	6.26
460.264	6.29
460.465	5.98
460.666	6.07
460.866	5.73
461.067	5.5
461.268	5.5
461.469	5.53
461.67	5.34
461.87	5.31
462.071	5.22
462.272	5.19
462.473	5.15
462.673	5.25
462.874	5.19
463.075	5.16
463.275	5.06
463.476	5.13
463.676	5.12
463.877	4.98
464.078	4.92
464.278	5.01
464.479	4.8
464.679	4.76
464.88	4.72
465.08	4.66
465.281	4.56
465.481	4.32
465.682	4.17
465.882	4.12
466.083	4.05
466.283	3.99
466.483	3.92
466.684	3.7
466.884	3.57
467.085	3.63
467.285	3.74
467.485	3.61
467.686	3.54
467.886	3.49
468.086	3.32
468.286	3.35
468.487	3.4
468.687	3.2
468.887	3.21
469.087	3.34
469.287	3.23
469.488	3.05
469.688	3.18
469.888	3.25
470.088	3.18
470.288	3.06
470.488	3.12
470.688	2.87
470.888	2.83
471.088	2.68
471.288	2.85
471.488	2.81
471.688	2.74
471.888	2.68
472.088	2.79
472.288	2.8
472.488	2.57
472.688	2.55
472.888	2.63
473.088	2.66
473.288	2.45
473.488	2.5
473.688	2.64
473.887	2.47
474.087	2.43
474.287	2.47
474.487	2.38
474.687	2.4
474.886	2.35
475.086	2.31
475.286	2.38
475.486	2.28
475.685	2.22
475.885	2.19
476.085	2.29
476.284	2.28
476.484	2.28
476.684	2.23
476.883	2.34
477.083	2.2
477.282	2.11
477.482	2.21
477.681	2.15
477.881	2.1
478.08	2.1
478.28	2.04
478.479	2.13
478.679	2.16
478.878	2.05
479.078	2.04
479.277	2.09
479.477	2.06
479.676	2.01
479.875	2.05
480.075	1.94
480.274	2.03
480.473	2.06
480.673	2.01
480.872	2.1
481.071	2.01
481.271	2.08
481.47	2
481.669	2.01
481.868	1.97
482.067	1.97
482.267	1.91
482.466	1.97
482.665	1.93
482.864	1.97
483.063	1.94
483.262	2
483.461	2.08
483.661	2.1
483.86	1.99
484.059	2.09
484.258	2.03
484.457	1.99
484.656	2.02
484.855	2.09
485.054	1.89
485.253	2.02
485.452	1.95
485.651	2.04
485.849	2.06
486.048	1.98
486.247	2.05
486.446	2.04
486.645	2.03
486.844	2.05
487.043	2.07
487.241	2.13
487.44	2.08
487.639	2.11
487.838	2.11
488.037	2.11
488.235	2.21
488.434	2.16
488.633	2.08
488.831	2.21
489.03	2.25
489.229	2.2
489.427	2.23
489.626	2.3
489.825	2.28
490.023	2.33
490.222	2.27
490.42	2.31
490.619	2.4
490.817	2.36
491.016	2.39
491.214	2.46
491.413	2.43
491.611	2.37
491.81	2.41
492.008	2.45
492.207	2.52
492.405	2.53
492.604	2.51
492.802	2.55
493	2.6
493.199	2.62
493.397	2.61
493.595	2.7
493.794	2.68
493.992	2.79
494.19	2.74
494.388	2.8
494.587	2.74
494.785	2.81
494.983	2.73
495.181	2.87
495.379	2.88
495.578	2.97
495.776	2.98
495.974	2.94
496.172	3
496.37	3.07
496.568	3.13
496.766	3.08
496.964	3.2
497.162	3.17
497.36	3.2
497.558	3.29
497.756	3.35
497.954	3.3
498.152	3.36
498.35	3.42
498.548	3.38
498.746	3.41
498.944	3.45
499.142	3.43
499.34	3.47
499.538	3.64
499.736	3.47
499.933	3.64
500.131	3.63
500.329	3.79
500.527	3.72
500.725	3.85
500.922	3.9
501.12	3.9
501.318	3.96
501.516	3.94
501.713	3.99
501.911	3.98
502.109	3.95
502.306	4.11
502.504	4.01
502.701	4.11
502.899	4.17
503.097	4.37
503.294	4.22
503.492	4.33
503.689	4.34
503.887	4.41
504.084	4.46
504.282	4.42
504.479	4.39
504.677	4.64
504.874	4.56
505.072	4.44
505.269	4.7
505.466	4.71
505.664	4.73
505.861	4.67
506.059	4.74
506.256	4.84
506.453	4.85
506.651	4.93
506.848	5.04
507.045	4.94
507.242	5
507.44	5.01
507.637	5.12
507.834	5.02
508.031	5.25
508.229	5.16
508.426	5.1
508.623	5.26
508.82	5.27
509.017	5.21
509.214	5.27
509.411	5.37
509.608	5.35
509.805	5.54
510.003	5.45
510.2	5.53
510.397	5.69
510.594	5.48
510.791	5.65
510.988	5.66
511.184	5.63
511.381	5.51
511.578	5.65
511.775	5.88
511.972	5.73
512.169	5.87
512.366	5.88
512.563	5.95
512.76	5.97
512.956	6.04
513.153	5.95
513.35	5.93
513.547	5.99
513.744	6.08
513.94	6.04
514.137	6.21
514.334	6.1
514.53	6.17
514.727	6.33
514.924	6.26
515.12	6.24
515.317	6.31
515.514	6.2
515.71	6.18
515.907	6.48
516.103	6.47
516.3	6.38
516.497	6.46
516.693	6.53
516.89	6.52
517.086	6.51
517.283	6.6
517.479	6.42
517.676	6.7
517.872	6.59
518.068	6.67
518.265	6.61
518.461	6.53
518.658	6.74
518.854	6.72
519.05	6.81
519.247	6.88
519.443	6.76
519.639	6.93
519.836	6.79
520.032	6.73
520.228	6.94
520.424	6.9
520.621	6.95
520.817	6.99
521.013	6.92
521.209	7.14
521.405	7.12
521.601	7.03
521.798	7.04
521.994	7.04
522.19	6.96
522.386	7.03
522.582	7.11
522.778	7.29
522.974	7.09
523.17	7.15
523.366	7.15
523.562	7.21
523.758	7.24
523.954	7.07
524.15	7.21
524.346	7.27
524.542	7.31
524.738	7.17
524.934	7.34
525.129	7.35
525.325	7.29
525.521	7.24
525.717	7.56
525.913	7.34
526.109	7.33
526.304	7.47
526.5	7.46
526.696	7.5
526.892	7.38
527.087	7.61
527.283	7.49
527.479	7.5
527.674	7.29
527.87	7.53
528.066	7.52
528.261	7.51
528.457	7.48
528.653	7.63
528.848	7.63
529.044	7.68
529.239	7.49
529.435	7.61
529.63	7.57
529.826	7.55
530.021	7.62
530.217	7.66
530.412	7.63
530.608	7.64
530.803	7.61
530.999	7.55
531.194	7.67
531.389	7.75
531.585	7.66
531.78	7.83
531.975	7.77
532.171	7.77
532.366	7.74
532.561	7.77
532.757	7.74
532.952	7.94
533.147	7.65
533.342	7.83
533.538	7.72
533.733	7.92
533.928	7.56
534.123	7.79
534.318	7.87
534.513	7.68
534.709	7.97
534.904	7.81
535.099	7.91
535.294	7.88
535.489	7.93
535.684	7.86
535.879	7.86
536.074	7.94
536.269	7.98
536.464	7.99
536.659	7.9
536.854	7.93
537.049	7.93
537.244	7.94
537.439	7.93
537.634	7.89
537.828	8
538.023	7.97
538.218	7.92
538.413	7.85
538.608	7.97
538.803	7.94
538.997	7.92
539.192	7.98
539.387	7.9
539.582	7.92
539.776	7.81
539.971	8.01
540.166	8.02
540.36	7.92
540.555	8.08
540.75	8.03
540.944	8.03
541.139	8.04
541.334	8.01
541.528	8.02
541.723	8.07
541.917	8.05
542.112	7.99
542.306	7.9
542.501	7.97
542.695	8
542.89	7.94
543.084	8.02
543.279	8.07
543.473	8.04
543.668	8.1
543.862	7.92
544.056	7.94
544.251	8.15
544.445	8.13
544.64	8.16
544.834	7.85
545.028	7.71
545.222	8.06
545.417	8.26
545.611	8.13
545.805	8.1
546	7.87
546.194	8.04
546.388	8.07
546.582	8.02
546.776	8.03
546.97	8.07
547.165	8.08
547.359	8.07
547.553	7.93
547.747	8.06
547.941	8.3
548.135	8.08
548.329	8.12
548.523	8.14
548.717	8.01
548.911	8.05
549.105	8.05
549.299	8.12
549.493	8.12
549.687	8.04
549.881	8.2
550.075	8.09
550.269	7.95
550.463	8.14
550.657	8.12
550.85	8.02
551.044	8.04
551.238	8.12
551.432	8.1
551.626	8.11
551.82	8.21
552.013	7.96
552.207	8.21
552.401	8.18
552.594	8.06
552.788	8.01
552.982	8.06
553.176	8.02
553.369	8.29
553.563	8.08
553.756	8.08
553.95	8.17
554.144	8.16
554.337	8.14
554.531	7.98
554.724	8.13
554.918	8.2
555.111	8.09
555.305	8.12
555.498	8.05
555.692	8.2
555.885	8.14
556.079	8.07
556.272	8.08
556.466	8.14
556.659	8.12
556.852	8.18
557.046	8.1
557.239	7.99
557.432	8.11
557.626	8.11
557.819	8.21
558.012	8.12
558.206	8.22
558.399	8.16
558.592	8.08
558.785	8.05
558.979	8.13
559.172	8.14
559.365	8.11
559.558	8.06
559.751	8
559.944	8.23
560.138	8.14
560.331	8.2
560.524	8.16
560.717	8.1
560.91	8.08
561.103	8.15
561.296	8
561.489	8.2
561.682	8.17
561.875	8.15
562.068	8.23
562.261	8.02
562.454	8.29
562.647	8.1
562.84	8.14
563.032	8.16
563.225	8.05
563.418	8.1
563.611	8.16
563.804	8.19
563.997	8
564.19	7.91
564.382	8.23
564.575	8.1
564.768	8.02
564.961	8.13
565.153	8.1
565.346	8.01
565.539	8.2
565.731	8.13
565.924	8.19
566.117	8.26
566.309	8.13
566.502	8
566.695	8.02
566.887	8.2
567.08	8.14
567.272	8.14
567.465	8.01
567.657	8.14
567.85	8.01
568.042	8.07
568.235	8.11
568.427	7.92
568.62	8.08
568.812	8.04
569.005	8.17
569.197	7.99
569.389	8.1
569.582	8.08
569.774	8.06
569.966	7.97
570.159	7.97
570.351	8.04
570.543	7.96
570.736	8.02
570.928	7.89
571.12	8
571.312	8.04
571.505	7.75
571.697	8.03
571.889	8.01
572.081	8
572.273	7.89
572.465	7.99
572.658	8.01
572.85	8.01
573.042	8.04
573.234	7.9
573.426	8
573.618	7.92
573.81	7.95
574.002	7.98
574.194	8.04
574.386	7.93
574.578	7.79
574.77	7.93
574.962	7.99
575.154	7.8
575.346	7.81
575.538	7.8
575.729	7.8
575.921	8
576.113	7.91
576.305	7.89
576.497	8.02
576.689	7.82
576.88	7.8
577.072	7.97
577.264	7.94
577.456	7.88
577.647	7.83
577.839	8.02
578.031	7.89
578.223	7.78
578.414	7.75
578.606	7.88
578.798	7.94
578.989	7.82
579.181	7.92
579.372	7.87
579.564	7.9
579.755	7.8
579.947	7.76
580.139	7.81
580.33	7.68
580.522	7.69
580.713	7.7
580.905	7.8
581.096	7.85
581.287	7.74
581.479	7.69
581.67	7.77
581.862	7.67
582.053	7.76
582.244	7.61
582.436	7.85
582.627	7.59
582.818	7.56
583.01	7.66
583.201	7.75
583.392	7.65
583.583	7.64
583.775	7.46
583.966	7.67
584.157	7.67
584.348	7.68
584.54	7.56
584.731	7.65
584.922	7.53
585.113	7.46
585.304	7.62
585.495	7.6
585.686	7.64
585.877	7.65
586.068	7.66
586.259	7.54
586.45	7.55
586.641	7.53
586.832	7.6
587.023	7.51
587.214	7.51
587.405	7.57
587.596	7.41
587.787	7.33
587.978	7.5
588.169	7.39
588.36	7.34
588.551	7.42
588.742	7.47
588.932	7.44
589.123	7.24
589.314	7.54
589.505	7.34
589.696	7.4
589.886	7.28
590.077	7.33
590.268	7.31
590.458	7.26
590.649	7.14
590.84	7.28
591.03	7.31
591.221	7.26
591.412	7.15
591.602	7.33
591.793	7.25
591.984	7.32
592.174	7.21
592.365	7.43
592.555	7.09
592.746	7.13
592.936	7.15
593.127	7.19
593.317	7.25
593.508	7.18
593.698	7.1
593.889	7.13
594.079	7.07
594.269	7.03
594.46	7.1
594.65	7.11
594.84	7.03
595.031	6.96
595.221	7.03
595.411	6.97
595.602	6.99
595.792	6.93
595.982	6.83
596.172	7.03
596.363	6.89
596.553	6.95
596.743	6.94
596.933	6.91
597.123	6.93
597.314	6.74
597.504	6.78
597.694	6.92
597.884	6.78
598.074	6.87
598.264	6.8
598.454	6.87
598.644	6.8
598.834	6.76
599.024	6.71
599.214	6.72
599.404	6.81
599.594	6.71
599.784	6.65
599.974	6.78
600.164	6.69
600.354	6.63
600.544	6.55
600.734	6.67
600.924	6.61
601.114	6.57
601.303	6.56
601.493	6.61
601.683	6.6
601.873	6.58
602.063	6.46
602.252	6.56
602.442	6.43
602.632	6.42
602.821	6.35
603.011	6.54
603.201	6.5
603.39	6.43
603.58	6.25
603.77	6.41
603.959	6.53
604.149	6.36
604.339	6.35
604.528	6.49
604.718	6.39
604.907	6.34
605.097	6.24
605.286	6.23
605.476	6.27
605.665	6.32
605.855	6.23
606.044	6.31
606.234	6.35
606.423	6.15
606.612	6.11
606.802	6.19
606.991	6.2
607.181	6.2
607.37	6.15
607.559	5.91
607.749	6.14
607.938	6.02
608.127	6.05
608.316	6.09
608.506	6.01
608.695	6.09
608.884	5.91
609.073	5.98
609.263	6.05
609.452	6
609.641	5.8
609.83	5.84
610.019	5.91
610.208	5.82
610.397	5.82
610.586	5.91
610.775	5.82
610.965	5.8
611.154	5.67
611.343	5.81
611.532	5.72
611.721	5.81
611.91	5.72
612.099	5.7
612.287	5.63
612.476	5.59
612.665	5.77
612.854	5.61
613.043	5.67
613.232	5.64
613.421	5.52
613.61	5.53
613.798	5.53
613.987	5.58
614.176	5.52
614.365	5.6
614.554	5.54
614.742	5.55
614.931	5.36
615.12	5.57
615.309	5.51
615.497	5.41
615.686	5.28
615.875	5.41
616.063	5.39
616.252	5.36
616.44	5.38
616.629	5.35
616.818	5.34
617.006	5.26
617.195	5.24
617.383	5.31
617.572	5.16
617.76	5.19
617.949	5.19
618.137	5.26
618.326	5.21
618.514	4.98
618.703	5.04
618.891	5.19
619.079	5.01
619.268	5.14
619.456	4.98
619.644	5.16
619.833	5.05
620.021	5.04
620.209	4.87
620.398	5.02
620.586	4.95
620.774	4.96
620.962	4.95
621.151	5.1
621.339	4.93
621.527	4.79
621.715	4.82
621.903	4.84
622.092	4.78
622.28	4.98
622.468	4.64
622.656	4.85
622.844	4.82
623.032	4.81
623.22	4.65
623.408	4.85
623.596	4.75
623.784	4.75
623.972	4.61
624.16	4.71
624.348	4.71
624.536	4.74
624.724	4.57
624.912	4.73
625.1	4.65
625.288	4.6
625.476	4.52
625.664	4.61
625.851	4.53
626.039	4.56
626.227	4.48
626.415	4.51
626.603	4.4
626.79	4.45
626.978	4.44
627.166	4.5
627.354	4.41
627.541	4.37
627.729	4.27
627.917	4.51
628.104	4.43
628.292	4.25
628.48	4.31
628.667	4.33
628.855	4.36
629.042	4.33
629.23	4.29
629.418	4.3
629.605	4.26
629.793	4.15
629.98	4.19
630.168	4.11
630.355	4.17
630.543	4.15
630.73	4.03
630.917	4.11
631.105	4.22
631.292	4.08
631.48	4.07
631.667	4.18
631.854	4.03
632.042	4.03
632.229	3.99
632.416	4.03
632.604	4.01
632.791	3.84
632.978	3.99
633.165	3.93
633.353	3.96
633.54	4.03
633.727	3.79
633.914	3.86
634.101	3.85
634.289	3.9
634.476	3.78
634.663	3.73
634.85	3.81
635.037	3.77
635.224	3.64
635.411	3.86
635.598	3.75
635.785	3.71
635.972	3.67
636.159	3.72
636.346	3.65
636.533	3.64
636.72	3.66
636.907	3.64
637.094	3.59
637.281	3.49
637.468	3.62
637.655	3.56
637.842	3.58
638.029	3.54
638.215	3.5
638.402	3.54
638.589	3.46
638.776	3.5
638.963	3.43
639.149	3.56
639.336	3.52
639.523	3.42
639.709	3.39
639.896	3.38
640.083	3.41
640.27	3.49
640.456	3.37
640.643	3.39
640.829	3.27
641.016	3.25
641.203	3.2
641.389	3.28
641.576	3.29
641.762	3.27
641.949	3.23
642.135	3.27
642.322	3.21
642.508	3.15
642.695	3.19
642.881	3.1
643.068	3.13
643.254	3.15
643.441	3.18
643.627	3.22
643.813	3.02
644	3.14
644.186	3.04
644.372	3.06
644.559	3.12
644.745	3.04
644.931	2.95
645.118	3.05
645.304	3.04
645.49	2.97
645.676	2.95
645.862	2.97
646.049	3.05
646.235	2.93
646.421	3.08
646.607	3.01
646.793	2.91
646.979	2.86
647.165	2.92
647.352	2.9
647.538	2.88
647.724	2.85
647.91	2.84
648.096	2.9
648.282	2.84
648.468	2.76
648.654	2.86
648.84	2.8
649.026	2.78
649.212	2.71
649.397	2.7
649.583	2.69
649.769	2.75
649.955	2.65
650.141	2.73
650.327	2.75
650.513	2.65
650.698	2.7
650.884	2.53
651.07	2.67
651.256	2.66
651.442	2.61
651.627	2.54
651.813	2.68
651.999	2.56
652.184	2.62
652.37	2.56
652.556	2.58
652.741	2.59
652.927	2.44
653.113	2.52
653.298	2.53
653.484	2.44
653.669	2.41
653.855	2.43
654.04	2.52
654.226	2.46
654.412	2.46
654.597	2.36
654.782	2.4
654.968	2.49
655.153	2.41
655.339	2.37
655.524	2.35
655.71	2.36
655.895	2.37
656.08	2.33
656.266	2.46
656.451	2.32
656.636	2.28
656.822	2.31
657.007	2.29
657.192	2.27
657.378	2.24
657.563	2.26
657.748	2.3
657.933	2.26
658.118	2.18
658.304	2.18
658.489	2.3
658.674	2.24
658.859	2.17
659.044	2.16
659.229	2.27
659.414	2.15
659.599	2.19
659.785	2.05
659.97	2.15
660.155	2.18
660.34	2.17
660.525	2.07
660.71	2.08
660.895	2.11
661.08	2.06
661.264	2.03
661.449	2.2
661.634	2.07
661.819	2.07
662.004	2.07
662.189	1.92
662.374	1.98
662.559	1.95
662.743	1.93
662.928	1.98
663.113	1.97
663.298	1.96
663.483	1.91
663.667	2.01
663.852	1.9
664.037	1.96
664.221	1.9
664.406	1.98
664.591	1.99
664.775	1.89
664.96	1.84
665.145	1.89
665.329	1.96
665.514	1.87
665.698	1.86
665.883	1.79
666.068	1.86
666.252	1.87
666.437	1.79
666.621	1.82
666.806	1.88
666.99	1.79
667.174	1.74
667.359	1.93
667.543	1.79
667.728	1.71
667.912	1.7
668.096	1.77
668.281	1.73
668.465	1.79
668.649	1.71
668.834	1.7
669.018	1.78
669.202	1.71
669.387	1.62
669.571	1.83
669.755	1.64
669.939	1.68
670.124	1.74
670.308	1.73
670.492	1.75
670.676	1.63
670.86	1.63
671.044	1.57
671.228	1.68
671.413	1.56
671.597	1.58
671.781	1.56
671.965	1.63
672.149	1.6
672.333	1.61
672.517	1.58
672.701	1.61
672.885	1.59
673.069	1.5
673.253	1.64
673.437	1.53
673.621	1.49
673.804	1.55
673.988	1.51
674.172	1.47
674.356	1.4
674.54	1.5
674.724	1.58
674.908	1.51
675.091	1.52
675.275	1.51
675.459	1.55
675.643	1.5
675.826	1.5
676.01	1.43
676.194	1.46
676.377	1.51
676.561	1.47
676.745	1.41
676.928	1.48
677.112	1.49
677.296	1.4
677.479	1.36
677.663	1.39
677.846	1.45
678.03	1.4
678.213	1.28
678.397	1.45
678.58	1.36
678.764	1.37
678.947	1.27
679.131	1.32
679.314	1.48
679.498	1.32
679.681	1.38
679.865	1.39
680.048	1.34
680.231	1.3
680.415	1.28
680.598	1.23
680.781	1.32
680.965	1.27
681.148	1.26
681.331	1.24
681.514	1.34
681.698	1.26
681.881	1.25
682.064	1.33
682.247	1.29
682.43	1.17
682.614	1.22
682.797	1.34
682.98	1.27
683.163	1.12
683.346	1.24
683.529	1.21
683.712	1.14
683.895	1.2
684.078	1.06
684.261	1.18
684.444	1.28
684.627	1.22
684.81	1.18
684.993	1.15
685.176	1.2
685.359	1.08
685.542	1.1
685.725	1.22
685.908	1.15
686.091	1.11
686.274	1.21
686.457	1.16
686.639	1.19
686.822	1.24
687.005	1.09
687.188	1.14
687.371	1.31
687.553	1.2
687.736	1.15
687.919	1.2
688.102	1.17
688.284	1.08
688.467	1.1
688.65	1.14
688.832	1.03
689.015	1.09
689.197	0.96
689.38	1.18
689.563	1.19
689.745	0.99
689.928	0.99
690.11	1.02
690.293	1.1
690.475	0.95
690.658	1.06
690.84	1.02
691.023	0.98
691.205	0.99
691.388	0.97
691.57	1.12
691.752	1.07
691.935	0.87
692.117	1.01
692.3	0.96
692.482	1
692.664	0.91
692.847	0.97
693.029	1.05
693.211	1.04
693.393	0.93
693.576	0.88
693.758	1
693.94	0.94
694.122	0.99
694.304	0.91
694.487	0.91
694.669	1.01
694.851	0.89
695.033	0.94
695.215	0.87
695.397	0.89
695.579	0.89
695.761	0.86
695.943	0.88
696.125	1.01
696.308	0.93
696.49	0.76
696.671	1.06
696.853	0.92
697.035	1.09
697.217	0.88
697.399	1
697.581	0.87
697.763	0.86
697.945	0.84
698.127	0.87
698.309	0.96
698.491	0.87
698.672	0.92
698.854	0.97
699.036	0.99
699.218	0.85
699.399	0.88
699.581	0.92
699.763	0.84
699.945	0.78
700.126	0.72
700.308	0.8
700.49	0.82
700.671	0.69
700.853	0.75
701.035	0.79
701.216	0.83
701.398	0.73
701.579	0.8
701.761	0.92
701.943	0.74
702.124	0.78
702.306	0.79
702.487	0.98
702.669	0.81
702.85	0.72
703.031	0.7
703.213	0.93
703.394	0.86
703.576	0.67
703.757	0.93
703.938	0.87
704.12	0.95
704.301	0.74
704.483	0.73
704.664	0.77
704.845	0.85
705.026	0.84
705.208	0.75
705.389	0.81
705.57	0.77
705.751	0.75
705.933	0.76
706.114	0.85
706.295	0.81
706.476	0.63
706.657	0.89
706.838	0.82
707.02	0.79
707.201	0.64
707.382	0.65
707.563	0.77
707.744	0.65
707.925	0.63
708.106	0.65
708.287	0.67
708.468	0.84
708.649	0.76
708.83	0.73
709.011	0.71
709.192	0.77
709.373	0.57
709.554	0.69
709.734	0.83
709.915	0.72
710.096	0.67
710.277	0.55
710.458	0.64
710.639	0.71
710.819	0.61
711	0.58
711.181	0.74
711.362	0.77
711.542	0.67
711.723	0.68
711.904	0.67
712.085	0.75
712.265	0.69
712.446	0.57
712.627	0.64
712.807	0.69
712.988	0.64
713.168	0.56
713.349	0.74
713.53	0.52
713.71	0.58
713.891	0.58
714.071	0.6
714.252	0.59
714.432	0.6
714.613	0.5
714.793	0.58
714.974	0.81
715.154	0.7
715.334	0.67
715.515	0.8
715.695	0.53
715.876	0.57
716.056	0.57
716.236	0.51
716.417	0.62
716.597	0.57
716.777	0.79
716.957	0.59
717.138	0.59
717.318	0.5
717.498	0.53
717.678	0.65
717.859	0.63
718.039	0.51
718.219	0.55
718.399	0.7
718.579	0.5
718.759	0.49
718.939	0.57
719.12	0.65
719.3	0.59
719.48	0.36
719.66	0.42
719.84	0.75
720.02	0.58
720.2	0.52
720.38	0.62
720.56	0.71
720.74	0.5
720.92	0.59
721.1	0.72
721.279	0.75
721.459	0.59
721.639	0.53
721.819	0.52
721.999	0.5
722.179	0.66
722.359	0.43
722.538	0.51
722.718	0.53
722.898	0.53
723.078	0.57
723.257	0.41
723.437	0.55
723.617	0.6
723.797	0.56
723.976	0.49
724.156	0.64
724.336	0.73
724.515	0.72
724.695	0.4
724.874	0.54
725.054	0.65
725.234	0.41
725.413	0.53
725.593	0.55
725.772	0.55
725.952	0.52
726.131	0.53
726.311	0.54
726.49	0.56
726.67	0.37
726.849	0.44
727.028	0.57
727.208	0.45
727.387	0.49
727.567	0.32
727.746	0.46
727.925	0.54
728.105	0.42
728.284	0.46
728.463	0.5
728.643	0.52
728.822	0.37
729.001	0.46
729.18	0.49
729.359	0.65
729.539	0.45
729.718	0.47
729.897	0.57
730.076	0.39
730.255	0.45
730.434	0.57
730.614	0.59
730.793	0.63
730.972	0.44
731.151	0.54
731.33	0.65
731.509	0.56
731.688	0.5
731.867	0.56
732.046	0.25
732.225	0.77
732.404	0.43
732.583	0.3
732.762	0.47
732.941	0.59
733.12	0.49
733.298	0.42
733.477	0.62
733.656	0.52
733.835	0.32
734.014	0.53
734.193	0.53
734.371	0.52
734.55	0.57
734.729	0.41
734.908	0.5
735.086	0.53
735.265	0.63
735.444	0.29
735.623	0.33
735.801	0.36
735.98	0.46
736.159	0.36
736.337	0.58
736.516	0.49
736.694	0.52
736.873	0.39
737.052	0.73
737.23	0.81
737.409	0.46
737.587	0.83
737.766	0.41
737.944	0.5
738.123	0.45
738.301	0.63
738.479	0.53
738.658	0.53
738.836	0.34
739.015	0.46
739.193	0.6
739.371	0.26
739.55	0.46
739.728	0.39
739.906	0.74
740.085	0.75
740.263	0.57
740.441	0.17
740.62	0.69
740.798	0.58
740.976	0.35
741.154	0.33
741.332	0.68
741.511	0.48
741.689	0.51
741.867	0.5
742.045	0.57
742.223	0.45
742.401	0.34
742.579	0.36
742.757	0.65
742.935	0.31
743.114	0.43
743.292	0.45
743.47	0.48
743.648	0.54
743.826	0.49
744.004	0.56
744.181	0.58
744.359	0.53
744.537	0.46
744.715	0.48
744.893	0.44
745.071	0.52
745.249	0.51
745.427	0.42
745.605	0.57
745.782	0.4
745.96	0.51
746.138	0.55
746.316	0.54
746.493	0.52
746.671	0.41
746.849	0.41
747.027	0.66
747.204	0.29
747.382	0.46
747.56	0.27
747.737	0.32
747.915	0.32
748.093	0.44
748.27	0.35
748.448	0.47
748.625	0.28
748.803	0.33
748.98	0.42
749.158	0.58
749.335	0.62
749.513	0.47
749.69	0.34
749.868	0.44
750.045	0.41
750.223	0.32
750.4	0.3
750.578	0.65
750.755	0.46
750.932	0.19
751.11	0.56
751.287	0.38
751.464	0.63
751.642	0.34
751.819	0.4
751.996	0.52
752.173	0.38
752.351	0.21
752.528	0.34
752.705	0.3
752.882	0.33
753.06	0.35
753.237	0.37
753.414	0.64
753.591	0.76
753.768	0.42
753.945	0.27
754.122	0.32
754.299	0.65
754.476	0.35
754.654	0.38
754.831	0.53
755.008	0.55
755.185	0.23
755.362	0.26
755.539	0.5
755.716	0.38
755.892	0.3
756.069	0.25
756.246	0.49
756.423	0.4
756.6	0.47
756.777	0.3
756.954	0.5
757.131	0.34
757.307	0.39
757.484	0.25
757.661	0.44
757.838	0.61
758.015	0.26
758.191	0.29
758.368	0.41
758.545	0.67
758.721	0.48
758.898	0.22
759.075	0.57
759.251	0.52
759.428	0.4
759.605	0.17
759.781	0.3
759.958	0.52
760.134	0.5
760.311	0.34
760.488	0.54
760.664	0.68
760.841	0.42
761.017	0.39
761.194	0.49
761.37	0.59
761.547	0.44
761.723	0.29
761.899	0.52
762.076	0.4
762.252	0.22
762.429	0.35
762.605	0.58
762.781	0.32
762.958	0.43
763.134	0.36
763.31	0.32
763.486	0.56
763.663	0.07
763.839	0.38
764.015	0.06
764.191	0.27
764.368	0.33
764.544	0.22
764.72	0.48
764.896	0.39
765.072	0.43
765.248	0.22
765.425	0.47
765.601	0.41
765.777	0.43
765.953	0.07
766.129	0.31
766.305	0.37
766.481	0.56
766.657	0.34
766.833	0.6
767.009	0.21
767.185	0.4
767.361	0.25
767.537	0.25
767.713	0.69
767.889	0.33
768.065	0.26
768.24	0.19
768.416	0.5
768.592	0.39
768.768	0.37
768.944	0.56
769.12	0.24
769.295	0.35
769.471	0.19
769.647	0.48
769.823	0.55
769.998	0.28
770.174	0.14
770.35	0.77
770.525	0.7
770.701	0.38
770.877	0.34
771.052	0.21
771.228	0.58
771.403	0.45
771.579	0.42
771.755	0.77
771.93	0.47
772.106	0.17
772.281	0.03
772.457	0.29
772.632	0.61
772.808	0.07
772.983	0.25
773.159	0.25
773.334	0.73
773.509	0.35
773.685	0.21
773.86	0.88
774.036	0.69
774.211	0.41
774.386	0.21
774.562	0.48
774.737	0.6
774.912	0.29
775.087	0.5
775.263	0.41
775.438	0.33
775.613	0.26
775.788	0.39
775.964	0.72
776.139	0.89
776.314	0.18
776.489	0.28
776.664	0.4
776.839	0.35
777.014	0.55
777.19	0.51
777.365	0.72
777.54	0.78
777.715	0.11
777.89	0.34
778.065	0.22
778.24	0.39
778.415	0.65
778.59	0.23
778.765	0.41
778.94	0.48
779.115	0.3
779.289	0.35
779.464	0.29
779.639	0.48
779.814	0.06
779.989	0.22
780.164	0.68
780.339	0.5
780.513	0.21
780.688	0.18
780.863	0.4
781.038	0.6
781.212	0.18
781.387	0.21
781.562	0.91
781.737	0.27
781.911	0.59
782.086	0.13
782.261	0.4
782.435	0.86
782.61	0.31
782.784	0.45
782.959	0.79
783.134	0.36
783.308	0.07
783.483	0.26
783.657	1.09
783.832	0.81
784.006	0.15
784.181	0.41
784.355	0.61
784.53	0.28
784.704	0.2
784.878	0.77
785.053	0.61
785.227	0.68
785.402	0.82
785.576	0.29
785.75	0.54
785.925	0.42
786.099	0.43
786.273	0.44
786.448	0.68
786.622	0.69
786.796	0.27
786.97	0.36
787.145	1.2
787.319	0.2
787.493	0.36
787.667	0.01
787.841	0.46
788.015	0.76
788.19	0.28
788.364	0.35
788.538	0.68
788.712	0.59
788.886	0.36
789.06	0.51
789.234	0.63
789.408	0.26
789.582	0.24
789.756	0.44
789.93	0.44
790.104	0.34
790.278	0.38
790.452	0.1
790.626	0.41
790.8	0.22
790.973	0.62
791.147	0.86
791.321	0.92
791.495	0.74
791.669	0.62
791.843	0.65
792.016	0.65
792.19	1.05
792.364	0.15
792.538	1.13
792.711	0.81
792.885	0.54
793.059	0.17
793.233	-0.06
793.406	0.77
793.58	0.56
793.754	0.53
793.927	0.31
794.101	0.88
794.274	0.32
794.448	0.49
794.622	0.28
794.795	0.85
794.969	0.47
795.142	0.84
795.316	0.28
795.489	0.47
795.663	0.89
795.836	0.58
796.009	0.14
796.183	0.9
796.356	0.71
796.53	0.58
796.703	0.37
796.876	1.26
797.05	0.26
797.223	0.36
797.396	0.37
797.57	0.45
797.743	1.06
797.916	0.55
798.09	0.45
798.263	0.71
798.436	0.72
798.609	0.18
798.782	0.38
798.956	0.63
799.129	0.68
799.302	0.45
799.475	0.52
799.648	0.32
799.821	0.25
799.994	0.35
800.167	-0.18
800.34	0.43
800.514	0.37
800.687	0.27
800.86	0.2
801.033	0.62
801.206	0.85
801.379	0.15
801.551	0.69
801.724	0.8
801.897	1.41
802.07	0.39
802.243	-0.03
802.416	0.49
802.589	0.31
802.762	0.81
802.935	0.53
803.107	0.89
803.28	1.03
803.453	0.99
803.626	0.47
803.798	0.8
803.971	0.56
804.144	0.32
804.317	0.9
804.489	0.88
804.662	0.65
804.835	0.5
805.007	0.17
805.18	1.29
805.353	0.7
805.525	0.37
805.698	0.31
805.87	1.09
806.043	1.02
806.215	-0.02
806.388	0.47
806.56	0.81
806.733	1.09
806.905	0.35
807.078	0.41
807.25	0.14
807.423	0.93
807.595	0.62
807.768	0.51
807.94	1.23
808.112	0.79
808.285	0.44
808.457	0.22
808.629	0.78
808.802	1.05
808.974	0.93
809.146	0.25
809.318	0.49
809.491	0.73
809.663	0.71
809.835	0.53
810.007	0.93
810.18	0.73
810.352	0.04
810.524	0.39
810.696	1.05
810.868	1.38
811.04	0.29
811.212	0.44
811.384	0.8
811.556	0.83
811.728	0.44
811.901	1.31
812.073	0.68
812.245	1.15
812.417	0.45
812.589	-0.35
812.76	1.04
812.932	1.26
813.104	0.64
813.276	0.69
813.448	1.07
813.62	0.62
813.792	0.75
813.964	0.41
814.136	0.69
814.307	0.31
814.479	0.67
814.651	0.13
814.823	1.57
814.995	0.81
815.166	0.21
815.338	0.09
815.51	0.54
815.681	1.64
815.853	0.54
816.025	0.44
816.196	2.17
816.368	1.45
816.54	-0.03
816.711	0.01
816.883	1.2
817.054	2.12
817.226	0.13
817.398	0.58
817.569	0.33
817.741	0.94
817.912	0.51
818.084	0.26
818.255	1.19
818.426	0.51
818.598	0.68
818.769	-0.25
818.941	1.28
819.112	1.65
819.283	0.86
819.455	-0.25
819.626	0.49
819.798	1.13
819.969	0.54
820.14	0.64
820.311	0.36
820.483	0.87
820.654	0.75
820.825	0.48
820.996	0.22
821.168	0.25
821.339	0.43
821.51	-0.04
821.681	0.33
821.852	0.91
822.023	0.38
822.195	-0.19
822.366	1.38
822.537	0.7
822.708	1.16
822.879	0.04
823.05	1.54
823.221	0.56
823.392	1.04
823.563	0.84
823.734	1.29
823.905	0.43
824.076	0.47
824.247	0.85
824.418	0.63
824.589	1.35
824.759	0.81
824.93	0.43
825.101	-0.4
825.272	1.92
825.443	1.35
825.614	0.89
825.784	0.76
825.955	2.24
826.126	1.63
826.297	1.21
826.467	1.77
826.638	2.54
826.809	-0.07
826.98	0.86
827.15	1
827.321	1.43
827.492	1.67
827.662	-0.04
827.833	2.69
828.003	1.23
828.174	0.17
828.345	0.12
828.515	1.46
828.686	0.75
828.856	-0.01
829.027	1.25
829.197	1.87
829.368	1
829.538	0.22
829.709	0.37
829.879	1.31
830.049	0.88
830.22	0.45
830.39	0.69
830.56	2.18
830.731	0.71
830.901	0.15
831.072	0.22
831.242	1.22
831.412	1.23
831.582	0.32
831.753	-0.14
831.923	1.52
832.093	1.84
832.263	0.85
832.434	0.41
832.604	0.52
832.774	1.43
832.944	0.7
833.114	0.25
833.284	1.57
833.454	0.21
833.624	0.2
833.795	0.51
833.965	2.01
834.135	2.51
834.305	-0.18
834.475	-0.35
834.645	1.34
834.815	0.72
834.985	0.31
835.155	0.24
835.325	1.05
835.494	1.34
835.664	0.24
835.834	0.09
836.004	0.62
836.174	1.44
836.344	0.34
836.514	-0.03
836.684	0.23
836.853	0.94
837.023	1.69
837.193	0.57
837.363	1.71
837.532	2.18
837.702	0.7
837.872	0.38
838.041	1.32
838.211	2.92
838.381	-0.03
838.55	0.99
838.72	3.47
838.89	3.03
839.059	0.88
839.229	-0.03
839.398	2.84
839.568	1.51
839.738	0.63
839.907	2.25
840.077	1.74
840.246	0.79
840.416	0.17
840.585	0.66
840.755	2.62
840.924	2.57
841.093	0
841.263	0.91
841.432	1.39
841.602	0.44
841.771	0.19
841.94	0.87
842.11	3.78
842.279	3.04
842.448	0.56
842.617	0.23
842.787	2.58
842.956	0.78
843.125	1.37
843.294	0.63
843.464	3.05
843.633	1.95
843.802	0.32
843.971	0.96
844.14	2.27
844.309	2.01
844.479	0.16
844.648	-0.14
844.817	0.9
844.986	1.31
845.155	0.35
845.324	1.19
845.493	0.38
845.662	0.86
845.831	1.59
846	1.41
846.169	1.18
846.338	3.4
846.507	0.58
846.676	0.95
846.844	0.9
847.013	2.02
847.182	1.5
847.351	1.11
847.52	0.93
847.689	2.19
847.858	-0.12
848.026	1.22
848.195	1.61
848.364	1.02
848.533	0.15
848.701	0.7
848.87	1.38
849.039	2.8
849.207	1.59
849.376	3.11
849.545	2.81
849.713	0.69
849.882	0.8
850.051	1.01
850.219	1.26
850.388	2.29
850.556	0.28
850.725	-0.54
850.893	1.88
851.062	1.91
851.23	2.07
851.399	-0.05
851.567	1.77
851.736	0.68
851.904	-0.13
852.073	1.14
852.241	1.69
852.41	1.79
852.578	0.59
852.746	0.71
852.915	2.38
853.083	1.43
853.251	-1.02
853.42	1.28
853.588	1.02
853.756	2.56
853.924	0.73
854.093	1.84
854.261	1.12
854.429	0.12
854.597	2.04
854.765	0.13
854.934	1.72
855.102	2.95
855.27	0.64
855.438	1.62
855.606	3.81
855.774	4.27
855.942	-0.71
856.11	-0.75
856.278	2.05
856.446	2.76
856.614	0.68
856.782	-0.02
856.95	2.38
857.118	2.08
857.286	1.79
857.454	1.17
857.622	4.13
857.79	3.23
857.958	-0.49
858.126	0.72
858.294	-1.57
858.462	2.09
858.629	0.82
858.797	-0.83
858.965	2.17
859.133	2.71
859.301	0.29
859.468	1.97
859.636	1.41
859.804	5.3
859.971	2.86
860.139	-0.19
860.307	2.23
860.474	2.31
860.642	-1.11
860.81	1.5
860.977	2.57
861.145	2.61
861.313	1.33
861.48	2.23
861.648	2.61
861.815	0.65
861.983	0.14
862.15	0.39
862.318	3.88
862.485	2.65
862.653	0.49
862.82	0.33
862.988	3.38
863.155	3.14
863.322	0.83
863.49	0.33
863.657	0.92
863.824	4.77
863.992	2.93
864.159	0.86
864.326	3.59
864.494	1.92
864.661	3.34
864.828	-0.79
864.996	4.46
865.163	4.39
865.33	2.76
865.497	-1.63
865.664	0.42
865.832	0.06
865.999	1.22
866.166	-1.04
866.333	1.75
866.5	0.23
866.667	0.97
866.834	1.34
867.001	4.21
867.168	-0.95
867.335	0.55
867.502	-1.68
867.669	1.52
867.836	6.87
868.003	1.69
868.17	2.91
868.337	0.14
868.504	5.36
868.671	-0.53
868.838	0.37
869.005	3.33
869.172	2.03
869.339	1.45
869.505	0.89
869.672	3.56
869.839	4.88
870.006	2.19
870.173	-0.12
870.339	2.48
870.506	6.29
870.673	-0.42
870.84	2.94
871.006	1.02
871.173	1.5
871.34	1.57
871.506	2.16
871.673	2.34
871.839	0.87
872.006	2.33
872.173	0.07
872.339	2.61
872.506	4.06
872.672	2.95
872.839	0.79
873.005	2.5
873.172	4.39
873.338	2.02
873.505	2.22
873.671	1.44
873.838	1.72
874.004	-1.95
874.171	-0.08
874.337	3.52
874.503	3.73
874.67	1.07
874.836	0.02
875.002	6.02
875.169	4.49
875.335	3.74
875.501	0.3
875.668	4.2
875.834	2.45
876	0.31
876.166	3.35
876.332	4.08
876.499	7.39
876.665	3.36
876.831	1.91
876.997	6.19
877.163	2.47
877.329	0.66
877.495	2.24
877.662	5.44
877.828	1.58
877.994	2.92
878.16	-0.92
878.326	2.54
878.492	2.52
878.658	0.8
878.824	1.64
878.99	2.33
879.156	3.75
879.322	4.41
879.487	2.21
879.653	4.34
879.819	3.9
879.985	0.32
880.151	2.43
880.317	4.16
880.483	3.27
880.648	3.16
880.814	-1.65
880.98	4.39
881.146	-0.67
881.312	-0.8
881.477	2.3
881.643	2.3
881.809	6.01
881.974	5.4
882.14	-1.57
882.306	2.62
882.471	6.73
882.637	0.81
882.803	2.74
882.968	6.93
883.134	7.28
883.299	0.77
883.465	0.55
883.63	2.86
883.796	3.7
883.961	4.32
884.127	3.28
884.292	-2.2
884.458	-0.23
884.623	-0.23
