Data from Apollo_Calib_20240827__AbsoluteIrradiance__800__12-29-02-133.txt Node

Date: Wed Aug 28 12:29:02 BST 2024
User: biology
Spectrometer: FLMT08252
Trigger mode: 0
Integration Time (sec): 5.000000E-1
Scans to average: 5
Electric dark correction enabled: true
Nonlinearity correction enabled: false
Boxcar width: 0
XAxis mode: Wavelengths
Number of Pixels in Spectrum: 3648
>>>>>Begin Spectral Data<<<<<
179.588	-0
179.809	-0
180.03	-0
180.251	-0
180.473	-0
180.694	0
180.915	0
181.136	-0
181.357	0
181.578	-0
181.799	-0
182.02	-0
182.241	-0
182.462	-0
182.683	0
182.904	-0
183.125	-0
183.346	0
183.567	0
183.788	0
184.009	0
184.23	0
184.451	0
184.672	0
184.892	0
185.113	0
185.334	0
185.555	0
185.776	0
185.996	0
186.217	0
186.438	0
186.659	0
186.879	0
187.1	0
187.321	0
187.541	0
187.762	0
187.983	0
188.203	0
188.424	0
188.644	0
188.865	0
189.086	0
189.306	0
189.527	0
189.747	0
189.968	0
190.188	0
190.409	0
190.629	0
190.849	0
191.07	0
191.29	0
191.511	0
191.731	0
191.951	0
192.172	0
192.392	0
192.612	0
192.833	0
193.053	0
193.273	0
193.493	0
193.714	0
193.934	0
194.154	0
194.374	0
194.594	0
194.815	0
195.035	0
195.255	0
195.475	0
195.695	0
195.915	0
196.135	0
196.355	0
196.575	0
196.795	0
197.015	0
197.235	0
197.455	0
197.675	0
197.895	0
198.115	0
198.335	0
198.555	0
198.775	0
198.995	0
199.214	0
199.434	0
199.654	0
199.874	0
200.094	3.7
200.313	2.09
200.533	1.47
200.753	1.61
200.973	3.33
201.192	3.58
201.412	0.91
201.632	1.9
201.851	3.12
202.071	1.85
202.291	1.54
202.51	1.05
202.73	2.67
202.95	1.53
203.169	1.74
203.389	2.03
203.608	1.67
203.828	1.68
204.047	0.96
204.267	2.06
204.486	2.04
204.706	2.2
204.925	1.84
205.145	1.72
205.364	2.41
205.583	2.37
205.803	1.21
206.022	0.93
206.242	1.71
206.461	1.22
206.68	1.32
206.9	1.42
207.119	2.47
207.338	2.22
207.557	0.92
207.777	1.07
207.996	1.38
208.215	1.91
208.434	1.01
208.654	0.91
208.873	1.61
209.092	2
209.311	1.28
209.53	0.99
209.749	1.28
209.968	1.17
210.187	1.02
210.407	0.73
210.626	1.24
210.845	1.68
211.064	1.18
211.283	0.69
211.502	1.54
211.721	1.13
211.94	1.08
212.159	1.29
212.377	1.46
212.596	1.52
212.815	0.92
213.034	0.93
213.253	1.52
213.472	1.39
213.691	0.94
213.91	0.76
214.128	0.72
214.347	1.53
214.566	0.36
214.785	0.63
215.003	1.2
215.222	1.15
215.441	0.91
215.66	0.58
215.878	0.93
216.097	1.18
216.316	0.67
216.534	0.69
216.753	0.98
216.972	0.91
217.19	0.97
217.409	0.63
217.627	0.64
217.846	0.79
218.064	0.9
218.283	0.56
218.501	1.38
218.72	1.19
218.938	0.65
219.157	0.59
219.375	1.02
219.594	0.99
219.812	0.46
220.031	0.54
220.249	1.25
220.467	1.2
220.686	0.67
220.904	0.4
221.122	0.63
221.341	1.15
221.559	0.83
221.777	0.57
221.995	0.76
222.214	0.96
222.432	0.48
222.65	0.98
222.868	0.67
223.086	0.81
223.305	0.8
223.523	0.57
223.741	1.01
223.959	0.78
224.177	0.35
224.395	0.63
224.613	0.88
224.831	0.87
225.049	0.59
225.267	0.44
225.485	0.77
225.703	0.52
225.921	0.6
226.139	0.56
226.357	0.69
226.575	0.73
226.793	0.58
227.011	1.61
227.229	0.61
227.447	0.81
227.665	0.44
227.883	0.31
228.1	0.69
228.318	0.75
228.536	0.22
228.754	0.41
228.972	0.64
229.189	0.82
229.407	0.52
229.625	0.54
229.843	0.96
230.06	0.69
230.278	0.55
230.496	0.56
230.713	0.62
230.931	0.79
231.149	0.56
231.366	0.31
231.584	0.51
231.801	0.93
232.019	0.49
232.236	0.41
232.454	0.45
232.671	0.6
232.889	0.46
233.106	0.3
233.324	0.62
233.541	0.44
233.759	0.51
233.976	0.32
234.194	0.47
234.411	0.59
234.628	0.44
234.846	0.44
235.063	0.47
235.28	0.58
235.498	0.54
235.715	0.33
235.932	0.7
236.149	0.56
236.367	0.32
236.584	0.55
236.801	0.34
237.018	0.61
237.236	0.46
237.453	0.35
237.67	0.75
237.887	0.45
238.104	0.37
238.321	0.33
238.538	0.3
238.755	0.64
238.973	0.35
239.19	0.43
239.407	0.48
239.624	0.5
239.841	0.36
240.058	0.4
240.275	0.49
240.492	0.45
240.709	0.44
240.925	0.28
241.142	0.38
241.359	0.38
241.576	0.22
241.793	0.34
242.01	0.48
242.227	0.7
242.444	0.48
242.66	0.53
242.877	0.49
243.094	0.45
243.311	0.4
243.527	0.43
243.744	0.47
243.961	0.43
244.178	0.43
244.394	0.4
244.611	0.65
244.828	0.62
245.044	0.31
245.261	0.38
245.477	0.44
245.694	0.52
245.911	0.29
246.127	0.41
246.344	0.66
246.56	0.49
246.777	0.41
246.993	0.33
247.21	0.49
247.426	0.56
247.643	0.29
247.859	0.36
248.076	0.3
248.292	0.67
248.508	0.34
248.725	0.46
248.941	0.52
249.157	0.58
249.374	0.31
249.59	0.45
249.806	0.43
250.023	0.39
250.239	0.33
250.455	0.31
250.671	0.36
250.888	0.52
251.104	0.45
251.32	0.41
251.536	0.35
251.752	0.44
251.969	0.37
252.185	0.36
252.401	0.53
252.617	0.29
252.833	0.24
253.049	0.48
253.265	0.34
253.481	0.5
253.697	0.37
253.913	0.28
254.129	0.5
254.345	0.43
254.561	0.35
254.777	0.37
254.993	0.48
255.209	0.41
255.425	0.33
255.641	0.3
255.857	0.42
256.073	0.49
256.288	0.22
256.504	0.27
256.72	0.42
256.936	0.56
257.152	0.34
257.367	0.27
257.583	0.44
257.799	0.55
258.015	0.3
258.23	0.3
258.446	0.59
258.662	0.36
258.877	0.31
259.093	0.27
259.309	0.35
259.524	0.33
259.74	0.28
259.955	0.21
260.171	0.38
260.387	0.38
260.602	0.39
260.818	0.37
261.033	0.31
261.249	0.34
261.464	0.33
261.68	0.18
261.895	0.45
262.11	0.43
262.326	0.3
262.541	0.19
262.757	0.49
262.972	0.4
263.187	0.36
263.403	0.34
263.618	0.43
263.833	0.37
264.049	0.27
264.264	0.28
264.479	0.38
264.694	0.5
264.91	0.26
265.125	0.33
265.34	0.43
265.555	0.57
265.77	0.35
265.986	0.28
266.201	0.42
266.416	0.44
266.631	0.3
266.846	0.29
267.061	0.45
267.276	0.4
267.491	0.16
267.706	0.37
267.921	0.34
268.136	0.38
268.351	0.33
268.566	0.16
268.781	0.36
268.996	0.4
269.211	0.28
269.426	0.28
269.641	0.3
269.856	0.4
270.071	0.24
270.285	0.15
270.5	0.46
270.715	0.4
270.93	0.29
271.145	0.42
271.359	0.42
271.574	0.25
271.789	0.29
272.004	0.3
272.218	0.3
272.433	0.37
272.648	0.27
272.862	0.41
273.077	0.42
273.292	0.33
273.506	0.24
273.721	0.26
273.936	0.38
274.15	0.45
274.365	0.24
274.579	0.4
274.794	0.33
275.008	0.47
275.223	0.26
275.437	0.32
275.652	0.41
275.866	0.37
276.081	0.25
276.295	0.36
276.509	0.3
276.724	0.32
276.938	0.31
277.153	0.33
277.367	0.38
277.581	0.29
277.796	0.3
278.01	0.23
278.224	0.46
278.438	0.49
278.653	0.26
278.867	0.25
279.081	0.17
279.295	0.29
279.51	0.34
279.724	0.2
279.938	0.4
280.152	0.39
280.366	0.26
280.58	0.3
280.794	0.43
281.008	0.39
281.222	0.35
281.437	0.47
281.651	0.3
281.865	0.37
282.079	0.29
282.293	0.24
282.507	0.24
282.721	0.27
282.935	0.24
283.148	0.18
283.362	0.26
283.576	0.24
283.79	0.3
284.004	0.22
284.218	0.3
284.432	0.28
284.646	0.22
284.859	0.26
285.073	0.25
285.287	0.3
285.501	0.28
285.714	0.28
285.928	0.29
286.142	0.33
286.356	0.23
286.569	0.24
286.783	0.42
286.997	0.31
287.21	0.3
287.424	0.31
287.637	0.28
287.851	0.22
288.065	0.35
288.278	0.27
288.492	0.31
288.705	0.32
288.919	0.34
289.132	0.23
289.346	0.39
289.559	0.22
289.773	0.19
289.986	0.26
290.2	0.27
290.413	0.38
290.626	0.25
290.84	0.23
291.053	0.28
291.267	0.37
291.48	0.27
291.693	0.23
291.906	0.18
292.12	0.29
292.333	0.26
292.546	0.26
292.76	0.35
292.973	0.22
293.186	0.33
293.399	0.22
293.612	0.34
293.826	0.27
294.039	0.23
294.252	0.28
294.465	0.39
294.678	0.32
294.891	0.26
295.104	0.18
295.317	0.24
295.53	0.33
295.743	0.27
295.956	0.21
296.169	0.38
296.382	0.32
296.595	0.23
296.808	0.2
297.021	0.33
297.234	0.36
297.447	0.23
297.66	0.27
297.873	0.33
298.086	0.36
298.299	0.18
298.511	0.17
298.724	0.27
298.937	0.24
299.15	0.21
299.363	0.25
299.575	0.31
299.788	0.32
300.001	0.26
300.213	0.25
300.426	0.22
300.639	0.21
300.852	0.2
301.064	0.31
301.277	0.38
301.489	0.32
301.702	0.32
301.915	0.28
302.127	0.27
302.34	0.26
302.552	0.27
302.765	0.15
302.977	0.35
303.19	0.22
303.402	0.24
303.615	0.22
303.827	0.26
304.04	0.24
304.252	0.27
304.464	0.23
304.677	0.39
304.889	0.27
305.102	0.22
305.314	0.2
305.526	0.31
305.739	0.28
305.951	0.17
306.163	0.22
306.375	0.37
306.588	0.22
306.8	0.26
307.012	0.17
307.224	0.29
307.436	0.3
307.649	0.17
307.861	0.24
308.073	0.32
308.285	0.23
308.497	0.21
308.709	0.22
308.921	0.26
309.133	0.34
309.346	0.26
309.558	0.19
309.77	0.29
309.982	0.36
310.194	0.28
310.406	0.21
310.617	0.35
310.829	0.27
311.041	0.28
311.253	0.23
311.465	0.23
311.677	0.25
311.889	0.22
312.101	0.25
312.313	0.35
312.524	0.37
312.736	0.16
312.948	0.19
313.16	0.32
313.372	0.29
313.583	0.26
313.795	0.2
314.007	0.22
314.218	0.29
314.43	0.25
314.642	0.22
314.853	0.1
315.065	0.31
315.277	0.24
315.488	0.23
315.7	0.31
315.912	0.33
316.123	0.22
316.335	0.25
316.546	0.36
316.758	0.26
316.969	0.25
317.181	0.24
317.392	0.25
317.604	0.3
317.815	0.19
318.026	0.18
318.238	0.22
318.449	0.3
318.661	0.2
318.872	0.21
319.083	0.21
319.295	0.33
319.506	0.21
319.717	0.29
319.929	0.28
320.14	0.27
320.351	0.23
320.562	0.18
320.774	0.26
320.985	0.24
321.196	0.23
321.407	0.18
321.618	0.31
321.829	0.27
322.041	0.26
322.252	0.24
322.463	0.3
322.674	0.27
322.885	0.19
323.096	0.28
323.307	0.25
323.518	0.27
323.729	0.22
323.94	0.17
324.151	0.22
324.362	0.26
324.573	0.26
324.784	0.25
324.995	0.29
325.206	0.25
325.417	0.22
325.628	0.21
325.838	0.21
326.049	0.29
326.26	0.3
326.471	0.19
326.682	0.32
326.892	0.25
327.103	0.16
327.314	0.2
327.525	0.32
327.735	0.22
327.946	0.24
328.157	0.18
328.368	0.3
328.578	0.2
328.789	0.34
328.999	0.25
329.21	0.27
329.421	0.31
329.631	0.22
329.842	0.17
330.052	0.27
330.263	0.3
330.473	0.23
330.684	0.23
330.894	0.26
331.105	0.28
331.315	0.26
331.526	0.19
331.736	0.28
331.947	0.33
332.157	0.3
332.367	0.17
332.578	0.3
332.788	0.36
332.999	0.28
333.209	0.23
333.419	0.19
333.629	0.31
333.84	0.23
334.05	0.24
334.26	0.35
334.47	0.26
334.681	0.32
334.891	0.23
335.101	0.3
335.311	0.37
335.521	0.24
335.732	0.2
335.942	0.34
336.152	0.26
336.362	0.26
336.572	0.28
336.782	0.32
336.992	0.21
337.202	0.21
337.412	0.21
337.622	0.28
337.832	0.24
338.042	0.25
338.252	0.25
338.462	0.25
338.672	0.29
338.882	0.21
339.092	0.22
339.302	0.36
339.511	0.31
339.721	0.25
339.931	0.17
340.141	0.35
340.351	0.31
340.561	0.25
340.77	0.25
340.98	0.29
341.19	0.26
341.4	0.25
341.609	0.21
341.819	0.24
342.029	0.2
342.238	0.23
342.448	0.23
342.658	0.33
342.867	0.21
343.077	0.27
343.286	0.23
343.496	0.21
343.706	0.32
343.915	0.21
344.125	0.2
344.334	0.25
344.544	0.17
344.753	0.21
344.963	0.23
345.172	0.21
345.381	0.2
345.591	0.19
345.8	0.2
346.01	0.33
346.219	0.33
346.428	0.13
346.638	0.22
346.847	0.24
347.056	0.31
347.266	0.17
347.475	0.23
347.684	0.31
347.893	0.29
348.103	0.25
348.312	0.23
348.521	0.27
348.73	0.26
348.94	0.22
349.149	0.18
349.358	0.25
349.567	0.18
349.776	0.22
349.985	0.22
350.194	0.29
350.403	0.29
350.612	0.13
350.821	0.21
351.03	0.25
351.239	0.17
351.448	0.27
351.657	0.19
351.866	0.35
352.075	0.21
352.284	0.3
352.493	0.13
352.702	0.27
352.911	0.27
353.12	0.25
353.329	0.19
353.538	0.27
353.746	0.25
353.955	0.21
354.164	0.21
354.373	0.26
354.582	0.31
354.79	0.25
354.999	0.27
355.208	0.21
355.416	0.3
355.625	0.17
355.834	0.21
356.042	0.28
356.251	0.22
356.46	0.23
356.668	0.22
356.877	0.33
357.085	0.31
357.294	0.19
357.503	0.25
357.711	0.23
357.92	0.44
358.128	0.25
358.337	0.2
358.545	0.24
358.754	0.19
358.962	0.26
359.17	0.24
359.379	0.27
359.587	0.29
359.796	0.21
360.004	0.3
360.212	0.26
360.421	0.34
360.629	0.2
360.837	0.22
361.046	0.3
361.254	0.42
361.462	0.23
361.67	0.17
361.879	0.28
362.087	0.33
362.295	0.22
362.503	0.22
362.711	0.2
362.92	0.21
363.128	0.23
363.336	0.15
363.544	0.2
363.752	0.23
363.96	0.21
364.168	0.21
364.376	0.24
364.584	0.3
364.792	0.27
365	0.29
365.208	0.24
365.416	0.26
365.624	0.28
365.832	0.18
366.04	0.34
366.248	0.26
366.456	0.24
366.664	0.3
366.872	0.24
367.079	0.24
367.287	0.23
367.495	0.26
367.703	0.28
367.911	0.25
368.118	0.2
368.326	0.25
368.534	0.2
368.742	0.33
368.949	0.16
369.157	0.2
369.365	0.27
369.572	0.2
369.78	0.17
369.988	0.24
370.195	0.25
370.403	0.28
370.61	0.19
370.818	0.26
371.026	0.36
371.233	0.22
371.441	0.23
371.648	0.23
371.856	0.26
372.063	0.28
372.271	0.18
372.478	0.19
372.685	0.24
372.893	0.3
373.1	0.2
373.308	0.22
373.515	0.36
373.722	0.3
373.93	0.22
374.137	0.28
374.344	0.38
374.552	0.27
374.759	0.31
374.966	0.27
375.173	0.22
375.381	0.31
375.588	0.24
375.795	0.19
376.002	0.21
376.209	0.26
376.417	0.27
376.624	0.27
376.831	0.32
377.038	0.24
377.245	0.18
377.452	0.23
377.659	0.26
377.866	0.24
378.073	0.2
378.28	0.23
378.487	0.34
378.694	0.34
378.901	0.24
379.108	0.2
379.315	0.35
379.522	0.38
379.729	0.23
379.936	0.24
380.143	0.27
380.35	0.29
380.557	0.24
380.763	0.24
380.97	0.23
381.177	0.27
381.384	0.24
381.591	0.2
381.797	0.26
382.004	0.32
382.211	0.34
382.418	0.2
382.624	0.33
382.831	0.35
383.038	0.21
383.244	0.28
383.451	0.25
383.658	0.3
383.864	0.25
384.071	0.23
384.277	0.32
384.484	0.24
384.69	0.32
384.897	0.24
385.103	0.29
385.31	0.25
385.516	0.24
385.723	0.2
385.929	0.23
386.136	0.2
386.342	0.35
386.549	0.24
386.755	0.35
386.961	0.28
387.168	0.24
387.374	0.22
387.58	0.31
387.787	0.28
387.993	0.28
388.199	0.28
388.406	0.26
388.612	0.28
388.818	0.22
389.024	0.21
389.231	0.31
389.437	0.37
389.643	0.3
389.849	0.28
390.055	0.32
390.261	0.28
390.467	0.34
390.674	0.25
390.88	0.24
391.086	0.34
391.292	0.21
391.498	0.3
391.704	0.34
391.91	0.28
392.116	0.27
392.322	0.19
392.528	0.34
392.734	0.26
392.94	0.3
393.146	0.29
393.352	0.33
393.557	0.25
393.763	0.3
393.969	0.34
394.175	0.31
394.381	0.28
394.587	0.22
394.792	0.3
394.998	0.35
395.204	0.34
395.41	0.28
395.615	0.29
395.821	0.32
396.027	0.31
396.233	0.27
396.438	0.35
396.644	0.39
396.85	0.3
397.055	0.35
397.261	0.32
397.466	0.47
397.672	0.37
397.878	0.39
398.083	0.36
398.289	0.28
398.494	0.43
398.7	0.38
398.905	0.26
399.111	0.4
399.316	0.28
399.522	0.37
399.727	0.29
399.932	0.36
400.138	0.28
400.343	0.38
400.549	0.32
400.754	0.37
400.959	0.38
401.165	0.31
401.37	0.31
401.575	0.5
401.78	0.36
401.986	0.35
402.191	0.31
402.396	0.37
402.601	0.39
402.807	0.39
403.012	0.34
403.217	0.47
403.422	0.4
403.627	0.37
403.832	0.42
404.037	0.45
404.243	0.39
404.448	0.38
404.653	0.45
404.858	0.42
405.063	0.49
405.268	0.38
405.473	0.41
405.678	0.43
405.883	0.69
406.088	0.51
406.293	0.42
406.498	0.42
406.703	0.53
406.907	0.48
407.112	0.43
407.317	0.52
407.522	0.58
407.727	0.42
407.932	0.5
408.136	0.62
408.341	0.57
408.546	0.58
408.751	0.54
408.956	0.6
409.16	0.65
409.365	0.62
409.57	0.58
409.774	0.58
409.979	0.64
410.184	0.68
410.388	0.58
410.593	0.75
410.798	0.73
411.002	0.73
411.207	0.78
411.411	0.81
411.616	0.72
411.82	0.86
412.025	0.81
412.229	0.82
412.434	0.95
412.638	0.92
412.843	0.91
413.047	0.95
413.252	0.94
413.456	1
413.66	1.05
413.865	1
414.069	1.1
414.273	1.09
414.478	1.07
414.682	1.2
414.886	1.21
415.091	1.14
415.295	1.22
415.499	1.37
415.703	1.31
415.908	1.44
416.112	1.26
416.316	1.55
416.52	1.55
416.724	1.48
416.929	1.58
417.133	1.82
417.337	1.7
417.541	1.84
417.745	1.84
417.949	1.97
418.153	2.04
418.357	1.98
418.561	2.27
418.765	2.14
418.969	2.36
419.173	2.37
419.377	2.4
419.581	2.58
419.785	2.59
419.989	2.55
420.193	2.76
420.397	2.87
420.601	2.98
420.804	3.11
421.008	3.11
421.212	3.25
421.416	3.16
421.62	3.28
421.823	3.28
422.027	3.46
422.231	3.45
422.435	3.45
422.638	3.49
422.842	3.63
423.046	3.64
423.249	3.89
423.453	3.94
423.657	4.07
423.86	4.21
424.064	4.2
424.268	4.42
424.471	4.46
424.675	4.63
424.878	4.75
425.082	4.88
425.285	5.11
425.489	5.08
425.692	5.19
425.896	5.2
426.099	5.44
426.303	5.49
426.506	5.71
426.71	5.94
426.913	6.01
427.116	6.26
427.32	6.24
427.523	6.31
427.726	6.66
427.93	6.68
428.133	7.03
428.336	7.14
428.54	7.33
428.743	7.53
428.946	7.85
429.149	7.69
429.353	7.82
429.556	7.91
429.759	7.97
429.962	8.1
430.165	8.2
430.368	7.96
430.571	8.13
430.775	8.04
430.978	8.03
431.181	8.08
431.384	8.19
431.587	8.34
431.79	8.72
431.993	8.63
432.196	8.88
432.399	9.18
432.602	9.43
432.805	9.43
433.008	10.01
433.211	9.81
433.414	10.19
433.616	10.25
433.819	10.15
434.022	10.38
434.225	10.59
434.428	10.56
434.631	11.01
434.833	10.74
435.036	11.01
435.239	11.17
435.442	11.24
435.645	11.48
435.847	11.55
436.05	11.9
436.253	12.15
436.455	12.06
436.658	11.95
436.861	12.27
437.063	12.39
437.266	12.47
437.468	12.7
437.671	13
437.874	13.01
438.076	12.99
438.279	13.36
438.481	13.55
438.684	14.2
438.886	13.73
439.089	14.02
439.291	14.18
439.494	14.57
439.696	14.62
439.899	15.13
440.101	15.58
440.303	15.84
440.506	16.48
440.708	16.32
440.91	16.34
441.113	16.53
441.315	16.92
441.517	16.72
441.72	17.14
441.922	16.79
442.124	16.9
442.326	17.2
442.529	17.34
442.731	17.25
442.933	17.54
443.135	17.27
443.337	17.39
443.539	17.91
443.742	17.54
443.944	18.27
444.146	18.05
444.348	17.9
444.55	17.72
444.752	18
444.954	18.02
445.156	17.84
445.358	18.3
445.56	18.46
445.762	18.45
445.964	18.81
446.166	18.46
446.368	18.65
446.57	18.61
446.772	18.13
446.974	18.02
447.175	18.14
447.377	17.95
447.579	18.29
447.781	17.93
447.983	17.76
448.184	17.35
448.386	17.68
448.588	17.26
448.79	17.14
448.991	17.43
449.193	17.41
449.395	16.72
449.597	16.41
449.798	16.41
450	15.95
450.202	15.85
450.403	15.8
450.605	15.78
450.806	15.39
451.008	15.09
451.21	14.99
451.411	14.62
451.613	13.88
451.814	14.03
452.016	14.05
452.217	13.33
452.419	13.46
452.62	13.03
452.821	12.81
453.023	12.65
453.224	12.24
453.426	11.73
453.627	11.17
453.828	11.23
454.03	11.37
454.231	11.36
454.432	11.04
454.634	10.92
454.835	10.59
455.036	10.46
455.238	10.09
455.439	9.95
455.64	9.61
455.841	9.46
456.042	9.47
456.244	9.27
456.445	8.91
456.646	8.59
456.847	8.62
457.048	8.49
457.249	8.47
457.45	8.29
457.651	7.83
457.852	7.6
458.054	7.2
458.255	7.19
458.456	7.38
458.657	7.16
458.858	6.81
459.058	6.67
459.259	6.78
459.46	6.47
459.661	6.38
459.862	6.47
460.063	6.34
460.264	6.23
460.465	5.96
460.666	6.09
460.866	5.77
461.067	5.57
461.268	5.56
461.469	5.46
461.67	5.42
461.87	5.25
462.071	5.29
462.272	5.19
462.473	5.11
462.673	5.32
462.874	5.13
463.075	5.15
463.275	5.05
463.476	5.13
463.676	5.11
463.877	5
464.078	5.02
464.278	4.97
464.479	4.86
464.679	4.87
464.88	4.7
465.08	4.71
465.281	4.54
465.481	4.31
465.682	4.13
465.882	4.16
466.083	4.11
466.283	4.07
466.483	3.89
466.684	3.81
466.884	3.63
467.085	3.7
467.285	3.8
467.485	3.69
467.686	3.53
467.886	3.49
468.086	3.41
468.286	3.41
468.487	3.47
468.687	3.29
468.887	3.24
469.087	3.41
469.287	3.27
469.488	3.03
469.688	3.2
469.888	3.2
470.088	3.06
470.288	3.09
470.488	3.02
470.688	2.89
470.888	2.9
471.088	2.72
471.288	2.76
471.488	2.84
471.688	2.73
471.888	2.7
472.088	2.85
472.288	2.71
472.488	2.54
472.688	2.58
472.888	2.64
473.088	2.59
473.288	2.48
473.488	2.47
473.688	2.57
473.887	2.52
474.087	2.49
474.287	2.47
474.487	2.38
474.687	2.45
474.886	2.39
475.086	2.32
475.286	2.33
475.486	2.31
475.685	2.29
475.885	2.2
476.085	2.33
476.284	2.29
476.484	2.28
476.684	2.24
476.883	2.28
477.083	2.21
477.282	2.13
477.482	2.22
477.681	2.21
477.881	2.08
478.08	2.14
478.28	2.02
478.479	2.13
478.679	2.17
478.878	2.07
479.078	2
479.277	2.07
479.477	2.1
479.676	2.07
479.875	2
480.075	1.93
480.274	2.09
480.473	2.05
480.673	1.98
480.872	2.14
481.071	2.05
481.271	2.07
481.47	1.99
481.669	1.99
481.868	1.98
482.067	1.98
482.267	1.91
482.466	1.95
482.665	1.96
482.864	1.95
483.063	1.97
483.262	1.98
483.461	2.06
483.661	2.04
483.86	2.02
484.059	2.04
484.258	2.06
484.457	2.04
484.656	2.02
484.855	2.09
485.054	1.94
485.253	1.98
485.452	2
485.651	2.08
485.849	2.05
486.048	1.98
486.247	1.99
486.446	2.09
486.645	2.04
486.844	2.06
487.043	2.05
487.241	2.12
487.44	2.09
487.639	2.14
487.838	2.16
488.037	2.1
488.235	2.24
488.434	2.19
488.633	2.04
488.831	2.24
489.03	2.26
489.229	2.22
489.427	2.2
489.626	2.29
489.825	2.29
490.023	2.23
490.222	2.25
490.42	2.31
490.619	2.38
490.817	2.37
491.016	2.35
491.214	2.45
491.413	2.43
491.611	2.39
491.81	2.38
492.008	2.44
492.207	2.55
492.405	2.54
492.604	2.47
492.802	2.57
493	2.6
493.199	2.59
493.397	2.63
493.595	2.71
493.794	2.67
493.992	2.75
494.19	2.72
494.388	2.83
494.587	2.77
494.785	2.78
494.983	2.74
495.181	2.88
495.379	2.86
495.578	2.96
495.776	2.95
495.974	2.94
496.172	2.98
496.37	3.09
496.568	3.12
496.766	3.09
496.964	3.18
497.162	3.19
497.36	3.18
497.558	3.28
497.756	3.27
497.954	3.27
498.152	3.35
498.35	3.46
498.548	3.37
498.746	3.38
498.944	3.39
499.142	3.41
499.34	3.55
499.538	3.66
499.736	3.52
499.933	3.65
500.131	3.61
500.329	3.74
500.527	3.76
500.725	3.9
500.922	3.9
501.12	3.89
501.318	3.96
501.516	3.93
501.713	4.01
501.911	4.01
502.109	3.93
502.306	4.08
502.504	4
502.701	4.09
502.899	4.21
503.097	4.35
503.294	4.22
503.492	4.38
503.689	4.33
503.887	4.4
504.084	4.45
504.282	4.44
504.479	4.43
504.677	4.57
504.874	4.55
505.072	4.45
505.269	4.63
505.466	4.68
505.664	4.74
505.861	4.65
506.059	4.78
506.256	4.81
506.453	4.88
506.651	4.93
506.848	5
507.045	4.92
507.242	4.97
507.44	4.95
507.637	5.06
507.834	5.05
508.031	5.23
508.229	5.14
508.426	5.06
508.623	5.26
508.82	5.29
509.017	5.33
509.214	5.23
509.411	5.44
509.608	5.29
509.805	5.47
510.003	5.46
510.2	5.54
510.397	5.66
510.594	5.52
510.791	5.59
510.988	5.57
511.184	5.61
511.381	5.45
511.578	5.66
511.775	5.83
511.972	5.75
512.169	5.84
512.366	5.8
512.563	5.95
512.76	5.95
512.956	5.98
513.153	5.99
513.35	5.9
513.547	5.94
513.744	6.03
513.94	6.08
514.137	6.2
514.334	6.13
514.53	6.2
514.727	6.37
514.924	6.24
515.12	6.28
515.317	6.35
515.514	6.23
515.71	6.18
515.907	6.43
516.103	6.47
516.3	6.32
516.497	6.46
516.693	6.46
516.89	6.5
517.086	6.52
517.283	6.56
517.479	6.39
517.676	6.58
517.872	6.63
518.068	6.66
518.265	6.64
518.461	6.53
518.658	6.69
518.854	6.7
519.05	6.79
519.247	6.85
519.443	6.78
519.639	6.91
519.836	6.8
520.032	6.73
520.228	6.92
520.424	6.92
520.621	6.94
520.817	7
521.013	6.92
521.209	7.11
521.405	7.14
521.601	7
521.798	6.98
521.994	7.09
522.19	6.95
522.386	7.01
522.582	7.11
522.778	7.2
522.974	7.13
523.17	7.2
523.366	7.06
523.562	7.19
523.758	7.19
523.954	6.95
524.15	7.22
524.346	7.23
524.542	7.27
524.738	7.24
524.934	7.4
525.129	7.26
525.325	7.24
525.521	7.24
525.717	7.49
525.913	7.39
526.109	7.32
526.304	7.48
526.5	7.45
526.696	7.46
526.892	7.36
527.087	7.61
527.283	7.49
527.479	7.51
527.674	7.29
527.87	7.51
528.066	7.5
528.261	7.52
528.457	7.42
528.653	7.62
528.848	7.57
529.044	7.73
529.239	7.52
529.435	7.5
529.63	7.54
529.826	7.58
530.021	7.58
530.217	7.67
530.412	7.55
530.608	7.59
530.803	7.63
530.999	7.58
531.194	7.63
531.389	7.68
531.585	7.66
531.78	7.79
531.975	7.74
532.171	7.78
532.366	7.7
532.561	7.82
532.757	7.76
532.952	7.87
533.147	7.69
533.342	7.85
533.538	7.7
533.733	7.91
533.928	7.58
534.123	7.78
534.318	7.76
534.513	7.75
534.709	7.95
534.904	7.84
535.099	7.93
535.294	7.93
535.489	7.88
535.684	7.81
535.879	7.87
536.074	7.9
536.269	7.79
536.464	7.9
536.659	7.87
536.854	7.84
537.049	7.96
537.244	7.91
537.439	7.9
537.634	7.91
537.828	7.98
538.023	7.94
538.218	7.9
538.413	7.89
538.608	7.95
538.803	7.92
538.997	7.92
539.192	7.93
539.387	7.93
539.582	7.93
539.776	7.85
539.971	8.04
540.166	7.98
540.36	7.88
540.555	8.05
540.75	7.94
540.944	8.04
541.139	8
541.334	8.01
541.528	7.99
541.723	8.06
541.917	8.11
542.112	7.94
542.306	7.86
542.501	7.97
542.695	8
542.89	7.93
543.084	8
543.279	8
543.473	8.08
543.668	8.07
543.862	7.92
544.056	8
544.251	8.07
544.445	8.15
544.64	8.13
544.834	7.81
545.028	7.7
545.222	8
545.417	8.18
545.611	8.1
545.805	8.07
546	7.91
546.194	8.04
546.388	8.06
546.582	7.98
546.776	8.02
546.97	8.1
547.165	7.99
547.359	8.05
547.553	7.98
547.747	8.05
547.941	8.18
548.135	8.02
548.329	8.12
548.523	8.13
548.717	8.03
548.911	7.99
549.105	8.02
549.299	8.16
549.493	8.13
549.687	7.97
549.881	8.12
550.075	8.09
550.269	7.96
550.463	8.13
550.657	8.09
550.85	8.11
551.044	8.1
551.238	8.15
551.432	8.06
551.626	8.18
551.82	8.15
552.013	8.01
552.207	8.13
552.401	8.22
552.594	8.06
552.788	8.01
552.982	8.09
553.176	7.97
553.369	8.27
553.563	8.14
553.756	8.09
553.95	8.19
554.144	8.11
554.337	8.15
554.531	7.97
554.724	8.08
554.918	8.22
555.111	8.1
555.305	8.11
555.498	8.03
555.692	8.2
555.885	8.12
556.079	8.1
556.272	8.12
556.466	8.11
556.659	8.03
556.852	8.14
557.046	8.03
557.239	8.01
557.432	8.06
557.626	8.11
557.819	8.11
558.012	8.09
558.206	8.22
558.399	8.14
558.592	8.06
558.785	8.08
558.979	8.11
559.172	8.1
559.365	8.1
559.558	8.04
559.751	8.01
559.944	8.2
560.138	8.08
560.331	8.07
560.524	8.15
560.717	8.1
560.91	8.15
561.103	8.06
561.296	7.96
561.489	8.18
561.682	8.2
561.875	8.14
562.068	8.27
562.261	7.96
562.454	8.34
562.647	8.09
562.84	8.12
563.032	8.13
563.225	7.99
563.418	8.1
563.611	8.16
563.804	8.12
563.997	7.95
564.19	7.91
564.382	8.17
564.575	8.05
564.768	8.09
564.961	8.12
565.153	8.09
565.346	8.03
565.539	8.18
565.731	8.1
565.924	8.19
566.117	8.24
566.309	8.13
566.502	8.03
566.695	8
566.887	8.12
567.08	8.04
567.272	8.1
567.465	7.96
567.657	8.14
567.85	7.99
568.042	8.1
568.235	8.11
568.427	7.89
568.62	8.04
568.812	8.07
569.005	8.12
569.197	7.98
569.389	8.12
569.582	8.03
569.774	8.08
569.966	7.98
570.159	8
570.351	7.98
570.543	8.04
570.736	8.05
570.928	7.85
571.12	8.06
571.312	7.98
571.505	7.81
571.697	8.06
571.889	8
572.081	8.05
572.273	7.93
572.465	8.02
572.658	8
572.85	8.04
573.042	8.02
573.234	7.91
573.426	8.03
573.618	7.88
573.81	7.98
574.002	8.01
574.194	7.94
574.386	7.87
574.578	7.84
574.77	7.89
574.962	7.94
575.154	7.87
575.346	7.93
575.538	7.83
575.729	7.81
575.921	7.92
576.113	7.94
576.305	7.89
576.497	8.01
576.689	7.8
576.88	7.8
577.072	7.97
577.264	7.91
577.456	7.9
577.647	7.8
577.839	7.97
578.031	7.85
578.223	7.83
578.414	7.69
578.606	7.87
578.798	7.92
578.989	7.87
579.181	7.88
579.372	7.8
579.564	7.86
579.755	7.78
579.947	7.71
580.139	7.83
580.33	7.63
580.522	7.79
580.713	7.73
580.905	7.7
581.096	7.76
581.287	7.7
581.479	7.73
581.67	7.78
581.862	7.7
582.053	7.74
582.244	7.54
582.436	7.76
582.627	7.61
582.818	7.62
583.01	7.58
583.201	7.69
583.392	7.62
583.583	7.62
583.775	7.42
583.966	7.56
584.157	7.66
584.348	7.75
584.54	7.56
584.731	7.59
584.922	7.55
585.113	7.42
585.304	7.56
585.495	7.57
585.686	7.62
585.877	7.63
586.068	7.68
586.259	7.56
586.45	7.6
586.641	7.51
586.832	7.59
587.023	7.47
587.214	7.48
587.405	7.53
587.596	7.39
587.787	7.38
587.978	7.46
588.169	7.41
588.36	7.36
588.551	7.39
588.742	7.37
588.932	7.44
589.123	7.24
589.314	7.48
589.505	7.27
589.696	7.31
589.886	7.34
590.077	7.36
590.268	7.28
590.458	7.18
590.649	7.14
590.84	7.32
591.03	7.29
591.221	7.26
591.412	7.14
591.602	7.34
591.793	7.21
591.984	7.31
592.174	7.24
592.365	7.34
592.555	7.05
592.746	7.14
592.936	7.17
593.127	7.21
593.317	7.19
593.508	7.14
593.698	7.04
593.889	7.1
594.079	7.11
594.269	7.09
594.46	7.08
594.65	7.13
594.84	7.04
595.031	6.89
595.221	6.98
595.411	7.01
595.602	6.99
595.792	6.96
595.982	6.89
596.172	7.06
596.363	6.86
596.553	6.87
596.743	6.88
596.933	6.89
597.123	6.87
597.314	6.81
597.504	6.75
597.694	6.94
597.884	6.81
598.074	6.82
598.264	6.8
598.454	6.79
598.644	6.76
598.834	6.74
599.024	6.7
599.214	6.66
599.404	6.77
599.594	6.7
599.784	6.58
599.974	6.7
600.164	6.65
600.354	6.63
600.544	6.58
600.734	6.61
600.924	6.62
601.114	6.53
601.303	6.48
601.493	6.61
601.683	6.58
601.873	6.5
602.063	6.5
602.252	6.52
602.442	6.4
602.632	6.38
602.821	6.45
603.011	6.51
603.201	6.4
603.39	6.41
603.58	6.25
603.77	6.4
603.959	6.45
604.149	6.42
604.339	6.32
604.528	6.43
604.718	6.4
604.907	6.3
605.097	6.21
605.286	6.24
605.476	6.17
605.665	6.29
605.855	6.15
606.044	6.27
606.234	6.25
606.423	6.23
606.612	6.18
606.802	6.13
606.991	6.2
607.181	6.18
607.37	6.17
607.559	5.9
607.749	6.15
607.938	5.96
608.127	6.07
608.316	6.1
608.506	6.02
608.695	6.1
608.884	5.94
609.073	5.97
609.263	5.99
609.452	5.98
609.641	5.82
609.83	5.88
610.019	6.04
610.208	5.84
610.397	5.86
610.586	5.91
610.775	5.74
610.965	5.79
611.154	5.75
611.343	5.76
611.532	5.73
611.721	5.83
611.91	5.71
612.099	5.74
612.287	5.62
612.476	5.56
612.665	5.76
612.854	5.54
613.043	5.62
613.232	5.6
613.421	5.55
613.61	5.55
613.798	5.53
613.987	5.64
614.176	5.49
614.365	5.54
614.554	5.52
614.742	5.51
614.931	5.36
615.12	5.56
615.309	5.42
615.497	5.36
615.686	5.34
615.875	5.4
616.063	5.38
616.252	5.34
616.44	5.37
616.629	5.28
616.818	5.25
617.006	5.26
617.195	5.18
617.383	5.28
617.572	5.22
617.76	5.15
617.949	5.15
618.137	5.23
618.326	5.25
618.514	4.97
618.703	4.98
618.891	5.24
619.079	5.07
619.268	5.1
619.456	5.03
619.644	5.13
619.833	4.94
620.021	4.98
620.209	4.87
620.398	5.03
620.586	4.91
620.774	4.97
620.962	4.9
621.151	5
621.339	4.87
621.527	4.85
621.715	4.82
621.903	4.82
622.092	4.78
622.28	4.91
622.468	4.67
622.656	4.77
622.844	4.77
623.032	4.78
623.22	4.61
623.408	4.8
623.596	4.73
623.784	4.68
623.972	4.58
624.16	4.63
624.348	4.72
624.536	4.76
624.724	4.55
624.912	4.59
625.1	4.63
625.288	4.62
625.476	4.49
625.664	4.59
625.851	4.49
626.039	4.52
626.227	4.5
626.415	4.51
626.603	4.37
626.79	4.44
626.978	4.42
627.166	4.51
627.354	4.31
627.541	4.34
627.729	4.22
627.917	4.52
628.104	4.39
628.292	4.32
628.48	4.3
628.667	4.26
628.855	4.36
629.042	4.36
629.23	4.24
629.418	4.2
629.605	4.29
629.793	4.14
629.98	4.19
630.168	4.14
630.355	4.19
630.543	4.13
630.73	4.12
630.917	4.13
631.105	4.2
631.292	4.08
631.48	4.07
631.667	4.23
631.854	4.07
632.042	3.97
632.229	3.92
632.416	4.05
632.604	3.97
632.791	3.89
632.978	4.01
633.165	3.95
633.353	3.96
633.54	4.03
633.727	3.81
633.914	3.91
634.101	3.75
634.289	3.91
634.476	3.81
634.663	3.8
634.85	3.78
635.037	3.77
635.224	3.62
635.411	3.84
635.598	3.72
635.785	3.71
635.972	3.7
636.159	3.71
636.346	3.64
636.533	3.66
636.72	3.62
636.907	3.65
637.094	3.61
637.281	3.48
637.468	3.57
637.655	3.61
637.842	3.62
638.029	3.47
638.215	3.52
638.402	3.57
638.589	3.42
638.776	3.46
638.963	3.4
639.149	3.54
639.336	3.51
639.523	3.4
639.709	3.43
639.896	3.41
640.083	3.43
640.27	3.38
640.456	3.32
640.643	3.35
640.829	3.23
641.016	3.29
641.203	3.25
641.389	3.37
641.576	3.34
641.762	3.25
641.949	3.19
642.135	3.24
642.322	3.21
642.508	3.1
642.695	3.19
642.881	3.13
643.068	3.11
643.254	3.11
643.441	3.13
643.627	3.15
643.813	3.07
644	3.14
644.186	3
644.372	3.11
644.559	3.14
644.745	3.01
644.931	2.99
645.118	3.03
645.304	2.98
645.49	2.95
645.676	2.96
645.862	2.97
646.049	3.03
646.235	2.95
646.421	3.06
646.607	3.06
646.793	2.86
646.979	2.85
647.165	2.93
647.352	2.9
647.538	2.92
647.724	2.85
647.91	2.8
648.096	2.84
648.282	2.88
648.468	2.78
648.654	2.81
648.84	2.84
649.026	2.76
649.212	2.66
649.397	2.65
649.583	2.74
649.769	2.74
649.955	2.74
650.141	2.75
650.327	2.71
650.513	2.65
650.698	2.65
650.884	2.55
651.07	2.69
651.256	2.68
651.442	2.6
651.627	2.52
651.813	2.66
651.999	2.58
652.184	2.57
652.37	2.54
652.556	2.56
652.741	2.57
652.927	2.39
653.113	2.47
653.298	2.52
653.484	2.5
653.669	2.42
653.855	2.46
654.04	2.52
654.226	2.44
654.412	2.39
654.597	2.34
654.782	2.49
654.968	2.45
655.153	2.36
655.339	2.36
655.524	2.31
655.71	2.41
655.895	2.36
656.08	2.33
656.266	2.4
656.451	2.31
656.636	2.3
656.822	2.33
657.007	2.34
657.192	2.27
657.378	2.19
657.563	2.25
657.748	2.26
657.933	2.24
658.118	2.16
658.304	2.21
658.489	2.31
658.674	2.21
658.859	2.1
659.044	2.18
659.229	2.22
659.414	2.11
659.599	2.14
659.785	2.11
659.97	2.11
660.155	2.11
660.34	2.14
660.525	2.08
660.71	2.04
660.895	2.09
661.08	2.09
661.264	1.99
661.449	2.15
661.634	2.07
661.819	2.08
662.004	2.04
662.189	1.98
662.374	2
662.559	1.94
662.743	1.9
662.928	1.96
663.113	1.97
663.298	1.88
663.483	1.97
663.667	1.96
663.852	1.86
664.037	1.95
664.221	1.88
664.406	1.95
664.591	1.93
664.775	1.91
664.96	1.92
665.145	1.87
665.329	1.94
665.514	1.83
665.698	1.84
665.883	1.77
666.068	1.88
666.252	1.82
666.437	1.75
666.621	1.82
666.806	1.81
666.99	1.77
667.174	1.77
667.359	1.87
667.543	1.76
667.728	1.75
667.912	1.69
668.096	1.76
668.281	1.73
668.465	1.75
668.649	1.73
668.834	1.7
669.018	1.72
669.202	1.71
669.387	1.67
669.571	1.73
669.755	1.66
669.939	1.64
670.124	1.66
670.308	1.7
670.492	1.69
670.676	1.63
670.86	1.61
671.044	1.58
671.228	1.7
671.413	1.61
671.597	1.6
671.781	1.62
671.965	1.64
672.149	1.55
672.333	1.58
672.517	1.58
672.701	1.61
672.885	1.51
673.069	1.42
673.253	1.62
673.437	1.52
673.621	1.5
673.804	1.49
673.988	1.53
674.172	1.48
674.356	1.41
674.54	1.48
674.724	1.61
674.908	1.51
675.091	1.52
675.275	1.44
675.459	1.58
675.643	1.41
675.826	1.49
676.01	1.43
676.194	1.48
676.377	1.44
676.561	1.46
676.745	1.41
676.928	1.44
677.112	1.43
677.296	1.36
677.479	1.35
677.663	1.34
677.846	1.42
678.03	1.42
678.213	1.34
678.397	1.42
678.58	1.34
678.764	1.35
678.947	1.3
679.131	1.32
679.314	1.35
679.498	1.34
679.681	1.39
679.865	1.42
680.048	1.29
680.231	1.32
680.415	1.29
680.598	1.3
680.781	1.26
680.965	1.25
681.148	1.28
681.331	1.26
681.514	1.25
681.698	1.22
681.881	1.25
682.064	1.29
682.247	1.24
682.43	1.18
682.614	1.22
682.797	1.3
682.98	1.24
683.163	1.11
683.346	1.19
683.529	1.14
683.712	1.14
683.895	1.25
684.078	1.11
684.261	1.15
684.444	1.22
684.627	1.17
684.81	1.13
684.993	1.15
685.176	1.25
685.359	1.17
685.542	1.13
685.725	1.21
685.908	1.18
686.091	1.05
686.274	1.22
686.457	1.12
686.639	1.13
686.822	1.14
687.005	1.09
687.188	1.11
687.371	1.22
687.553	1.16
687.736	1.1
687.919	1.23
688.102	1.15
688.284	1.05
688.467	1.04
688.65	1.07
688.832	0.98
689.015	1.04
689.197	0.92
689.38	1.17
689.563	1.2
689.745	0.95
689.928	0.95
690.11	1
690.293	1.06
690.475	0.97
690.658	1.06
690.84	1.01
691.023	0.93
691.205	0.95
691.388	0.97
691.57	0.97
691.752	1.08
691.935	0.92
692.117	0.91
692.3	1.1
692.482	0.95
692.664	0.96
692.847	1.02
693.029	1.04
693.211	1.02
693.393	0.91
693.576	0.89
693.758	1.04
693.94	0.92
694.122	0.95
694.304	0.96
694.487	0.9
694.669	1.01
694.851	0.88
695.033	0.92
695.215	0.85
695.397	0.89
695.579	0.97
695.761	0.79
695.943	0.82
696.125	1
696.308	0.94
696.49	0.82
696.671	1.02
696.853	0.87
697.035	1.1
697.217	0.88
697.399	0.97
697.581	0.83
697.763	0.86
697.945	0.76
698.127	0.86
698.309	0.93
698.491	0.84
698.672	0.91
698.854	0.91
699.036	0.95
699.218	0.84
699.399	0.87
699.581	0.88
699.763	0.79
699.945	0.8
700.126	0.71
700.308	0.85
700.49	0.77
700.671	0.72
700.853	0.78
701.035	0.81
701.216	0.82
701.398	0.74
701.579	0.79
701.761	0.87
701.943	0.72
702.124	0.74
702.306	0.72
702.487	0.93
702.669	0.79
702.85	0.68
703.031	0.75
703.213	0.96
703.394	0.87
703.576	0.72
703.757	0.97
703.938	0.84
704.12	0.96
704.301	0.71
704.483	0.74
704.664	0.75
704.845	0.94
705.026	0.77
705.208	0.69
705.389	0.75
705.57	0.79
705.751	0.77
705.933	0.73
706.114	0.82
706.295	0.75
706.476	0.57
706.657	0.85
706.838	0.7
707.02	0.8
707.201	0.63
707.382	0.61
707.563	0.78
707.744	0.7
707.925	0.6
708.106	0.69
708.287	0.68
708.468	0.83
708.649	0.69
708.83	0.75
709.011	0.68
709.192	0.74
709.373	0.59
709.554	0.68
709.734	0.79
709.915	0.75
710.096	0.7
710.277	0.54
710.458	0.7
710.639	0.72
710.819	0.53
711	0.62
711.181	0.75
711.362	0.73
711.542	0.66
711.723	0.71
711.904	0.75
712.085	0.7
712.265	0.66
712.446	0.52
712.627	0.61
712.807	0.65
712.988	0.63
713.168	0.49
713.349	0.65
713.53	0.55
713.71	0.42
713.891	0.6
714.071	0.65
714.252	0.58
714.432	0.55
714.613	0.5
714.793	0.61
714.974	0.73
715.154	0.73
715.334	0.6
715.515	0.79
715.695	0.54
715.876	0.58
716.056	0.5
716.236	0.54
716.417	0.56
716.597	0.52
716.777	0.84
716.957	0.67
717.138	0.59
717.318	0.52
717.498	0.48
717.678	0.58
717.859	0.61
718.039	0.48
718.219	0.57
718.399	0.59
718.579	0.52
718.759	0.48
718.939	0.55
719.12	0.57
719.3	0.6
719.48	0.44
719.66	0.37
719.84	0.72
720.02	0.5
720.2	0.55
720.38	0.6
720.56	0.72
720.74	0.46
720.92	0.5
721.1	0.79
721.279	0.57
721.459	0.61
721.639	0.44
721.819	0.51
721.999	0.55
722.179	0.62
722.359	0.51
722.538	0.55
722.718	0.54
722.898	0.58
723.078	0.52
723.257	0.52
723.437	0.48
723.617	0.53
723.797	0.47
723.976	0.53
724.156	0.63
724.336	0.6
724.515	0.7
724.695	0.35
724.874	0.53
725.054	0.6
725.234	0.44
725.413	0.52
725.593	0.49
725.772	0.53
725.952	0.4
726.131	0.5
726.311	0.46
726.49	0.48
726.67	0.38
726.849	0.42
727.028	0.58
727.208	0.46
727.387	0.5
727.567	0.41
727.746	0.5
727.925	0.46
728.105	0.42
728.284	0.4
728.463	0.48
728.643	0.56
728.822	0.39
729.001	0.44
729.18	0.47
729.359	0.57
729.539	0.51
729.718	0.42
729.897	0.61
730.076	0.46
730.255	0.34
730.434	0.43
730.614	0.52
730.793	0.61
730.972	0.47
731.151	0.51
731.33	0.56
731.509	0.55
731.688	0.41
731.867	0.49
732.046	0.36
732.225	0.7
732.404	0.36
732.583	0.32
732.762	0.46
732.941	0.6
733.12	0.45
733.298	0.39
733.477	0.6
733.656	0.49
733.835	0.35
734.014	0.61
734.193	0.52
734.371	0.63
734.55	0.58
734.729	0.31
734.908	0.45
735.086	0.56
735.265	0.59
735.444	0.34
735.623	0.37
735.801	0.37
735.98	0.48
736.159	0.44
736.337	0.51
736.516	0.46
736.694	0.54
736.873	0.41
737.052	0.75
737.23	0.63
737.409	0.41
737.587	0.71
737.766	0.3
737.944	0.47
738.123	0.52
738.301	0.58
738.479	0.51
738.658	0.47
738.836	0.29
739.015	0.45
739.193	0.64
739.371	0.33
739.55	0.38
739.728	0.33
739.906	0.7
740.085	0.62
740.263	0.39
740.441	0.2
740.62	0.6
740.798	0.56
740.976	0.21
741.154	0.32
741.332	0.63
741.511	0.42
741.689	0.47
741.867	0.48
742.045	0.47
742.223	0.46
742.401	0.4
742.579	0.32
742.757	0.59
742.935	0.27
743.114	0.42
743.292	0.35
743.47	0.45
743.648	0.5
743.826	0.31
744.004	0.43
744.181	0.59
744.359	0.37
744.537	0.52
744.715	0.4
744.893	0.45
745.071	0.44
745.249	0.42
745.427	0.43
745.605	0.62
745.782	0.45
745.96	0.48
746.138	0.47
746.316	0.54
746.493	0.45
746.671	0.44
746.849	0.35
747.027	0.53
747.204	0.42
747.382	0.44
747.56	0.16
747.737	0.45
747.915	0.33
748.093	0.44
748.27	0.42
748.448	0.44
748.625	0.27
748.803	0.44
748.98	0.39
749.158	0.46
749.335	0.52
749.513	0.48
749.69	0.22
749.868	0.36
750.045	0.45
750.223	0.29
750.4	0.14
750.578	0.56
750.755	0.39
750.932	0.25
751.11	0.5
751.287	0.29
751.464	0.56
751.642	0.31
751.819	0.37
751.996	0.44
752.173	0.35
752.351	0.18
752.528	0.24
752.705	0.34
752.882	0.21
753.06	0.43
753.237	0.32
753.414	0.63
753.591	0.55
753.768	0.43
753.945	0.3
754.122	0.24
754.299	0.56
754.476	0.3
754.654	0.31
754.831	0.52
755.008	0.51
755.185	0.28
755.362	0.28
755.539	0.44
755.716	0.32
755.892	0.46
756.069	0.4
756.246	0.27
756.423	0.52
756.6	0.55
756.777	0.29
756.954	0.56
757.131	0.42
757.307	0.27
757.484	0.21
757.661	0.28
757.838	0.44
758.015	0.09
758.191	0.42
758.368	0.31
758.545	0.56
758.721	0.38
758.898	0.09
759.075	0.35
759.251	0.45
759.428	0.53
759.605	0.14
759.781	0.39
759.958	0.5
760.134	0.42
760.311	0.29
760.488	0.57
760.664	0.67
760.841	0.27
761.017	0.32
761.194	0.52
761.37	0.4
761.547	0.27
761.723	0.34
761.899	0.45
762.076	0.24
762.252	0.29
762.429	0.27
762.605	0.52
762.781	0.34
762.958	0.48
763.134	0.21
763.31	0.2
763.486	0.44
763.663	0.08
763.839	0.45
764.015	0.12
764.191	0.37
764.368	0.31
764.544	0.26
764.72	0.4
764.896	0.35
765.072	0.38
765.248	0.24
765.425	0.29
765.601	0.4
765.777	0.4
765.953	0.06
766.129	0.28
766.305	0.27
766.481	0.47
766.657	0.33
766.833	0.53
767.009	0.31
767.185	0.27
767.361	0.29
767.537	0.32
767.713	0.46
767.889	0.2
768.065	0.29
768.24	0.54
768.416	0.5
768.592	0.28
768.768	0.46
768.944	0.32
769.12	0.32
769.295	0.42
769.471	0.31
769.647	0.34
769.823	0.64
769.998	0.07
770.174	0.28
770.35	0.71
770.525	0.72
770.701	0.42
770.877	0.35
771.052	0.1
771.228	0.4
771.403	0.3
771.579	0.34
771.755	0.61
771.93	0.35
772.106	0.19
772.281	0.06
772.457	0.33
772.632	0.45
772.808	0.15
772.983	0.12
773.159	0.09
773.334	0.59
773.509	0.38
773.685	0.25
773.86	0.71
774.036	0.41
774.211	0.45
774.386	0.28
774.562	0.44
774.737	0.64
774.912	0.3
775.087	0.41
775.263	0.29
775.438	0.27
775.613	0.3
775.788	0.3
775.964	0.53
776.139	0.71
776.314	0.15
776.489	0.47
776.664	0.42
776.839	0.24
777.014	0.47
777.19	0.59
777.365	0.68
777.54	0.77
777.715	0.2
777.89	0.31
778.065	0.25
778.24	0.4
778.415	0.31
778.59	0.2
778.765	0.32
778.94	0.62
779.115	0.34
779.289	0.42
779.464	0.27
779.639	0.36
779.814	0.06
779.989	0.09
780.164	0.6
780.339	0.43
780.513	0.3
780.688	0.21
780.863	0.43
781.038	0.72
781.212	0.19
781.387	0.43
781.562	0.81
781.737	0.12
781.911	0.64
782.086	0.25
782.261	0.25
782.435	0.69
782.61	0.16
782.784	0.34
782.959	0.56
783.134	0.25
783.308	0.27
783.483	0.26
783.657	0.8
783.832	0.68
784.006	-0.05
784.181	0.41
784.355	0.78
784.53	0.14
784.704	0.17
784.878	0.51
785.053	0.51
785.227	0.77
785.402	0.75
785.576	0.09
785.75	0.38
785.925	0.29
786.099	0.3
786.273	0.6
786.448	0.8
786.622	0.59
786.796	0.42
786.97	0.48
787.145	1.14
787.319	0.02
787.493	0.2
787.667	0.08
787.841	0.32
788.015	0.84
788.19	0.24
788.364	0.3
788.538	0.75
788.712	0.57
788.886	0.45
789.06	0.64
789.234	0.49
789.408	0.03
789.582	0.37
789.756	0.38
789.93	0.14
790.104	0.27
790.278	0.34
790.452	0.04
790.626	0.59
790.8	0.27
790.973	0.59
791.147	0.8
791.321	0.83
791.495	0.73
791.669	0.58
791.843	0.54
792.016	0.37
792.19	0.82
792.364	0.37
792.538	0.99
792.711	0.68
792.885	0.32
793.059	0.12
793.233	-0.16
793.406	0.49
793.58	0.5
793.754	0.68
793.927	0.38
794.101	0.7
794.274	0.31
794.448	0.71
794.622	0.13
794.795	0.95
794.969	0.38
795.142	0.65
795.316	0.58
795.489	0.38
795.663	0.75
795.836	0.56
796.009	0.3
796.183	0.76
796.356	0.55
796.53	0.56
796.703	0.35
796.876	1.15
797.05	0.48
797.223	0.27
797.396	0.5
797.57	0.32
797.743	0.92
797.916	0.32
798.09	0.55
798.263	0.66
798.436	0.65
798.609	0.34
798.782	0.37
798.956	0.56
799.129	0.55
799.302	0.64
799.475	0.33
799.648	0.52
799.821	0.19
799.994	0.28
800.167	-0.14
800.34	0.35
800.514	0.56
800.687	0.22
800.86	-0.01
801.033	0.61
801.206	0.74
801.379	0.3
801.551	0.55
801.724	0.69
801.897	1.15
802.07	0.55
802.243	-0.19
802.416	0.69
802.589	0.28
802.762	0.48
802.935	0.59
803.107	0.93
803.28	1.08
803.453	0.64
803.626	0.31
803.798	0.53
803.971	0.4
804.144	0.47
804.317	0.65
804.489	0.8
804.662	0.49
804.835	0.56
805.007	0.26
805.18	1.11
805.353	0.76
805.525	0.36
805.698	0.24
805.87	0.97
806.043	0.81
806.215	0.02
806.388	0.28
806.56	0.57
806.733	1.11
806.905	0.56
807.078	0.42
807.25	0.17
807.423	0.77
807.595	0.46
807.768	0.66
807.94	0.68
808.112	0.87
808.285	0.55
808.457	0.29
808.629	0.45
808.802	0.73
808.974	0.6
809.146	0.12
809.318	0.25
809.491	0.61
809.663	0.82
809.835	0.27
810.007	0.95
810.18	0.66
810.352	0.03
810.524	0.12
810.696	1.05
810.868	1.24
811.04	0.48
811.212	0.48
811.384	0.89
811.556	0.94
811.728	0.37
811.901	1.69
812.073	0.54
812.245	0.68
812.417	0.47
812.589	0.03
812.76	0.47
812.932	0.84
813.104	0.98
813.276	0.31
813.448	0.95
813.62	0.32
813.792	0.62
813.964	0.85
814.136	0.98
814.307	0.42
814.479	0.48
814.651	0.26
814.823	1.14
814.995	0.37
815.166	0.41
815.338	0.26
815.51	0.16
815.681	1.81
815.853	0.79
816.025	0.37
816.196	1.23
816.368	1.06
816.54	0.27
816.711	-0.01
816.883	1.05
817.054	1.89
817.226	0.22
817.398	0.95
817.569	0.52
817.741	0.55
817.912	0.38
818.084	0.34
818.255	1.17
818.426	0.28
818.598	0.32
818.769	-0.12
818.941	1.04
819.112	1.38
819.283	1.4
819.455	-0.04
819.626	0.8
819.798	1.27
819.969	0.76
820.14	0.34
820.311	0.58
820.483	0.86
820.654	1.07
820.825	0.79
820.996	0.79
821.168	-0.11
821.339	0.45
821.51	-0.02
821.681	0.67
821.852	0.58
822.023	0.06
822.195	0.3
822.366	0.95
822.537	0.52
822.708	0.54
822.879	0.39
823.05	1.21
823.221	0.29
823.392	0.75
823.563	0.83
823.734	1.22
823.905	0.45
824.076	0.63
824.247	-0.14
824.418	0.65
824.589	1.63
824.759	0.18
824.93	0.28
825.101	0.15
825.272	1.54
825.443	1.01
825.614	1.37
825.784	0.38
825.955	1.7
826.126	1.22
826.297	0.46
826.467	1.64
826.638	2.62
826.809	0.09
826.98	1.27
827.15	1.21
827.321	1.12
827.492	1.07
827.662	0.48
827.833	2.25
828.003	1.59
828.174	0.29
828.345	0.08
828.515	1.95
828.686	0.73
828.856	0.44
829.027	0.65
829.197	1.1
829.368	1.24
829.538	0.43
829.709	0.68
829.879	1.14
830.049	1.15
830.22	1.14
830.39	0.56
830.56	1.77
830.731	0.88
830.901	0.65
831.072	0.84
831.242	0.74
831.412	1.34
831.582	0.92
831.753	0.02
831.923	1.73
832.093	0.51
832.263	0.51
832.434	-0.01
832.604	0.2
832.774	1.42
832.944	0.53
833.114	0.4
833.284	1.18
833.454	0.59
833.624	0.29
833.795	0.41
833.965	1.99
834.135	1.86
834.305	-0.67
834.475	0.01
834.645	1.02
834.815	0.75
834.985	0.26
835.155	-0.16
835.325	1.32
835.494	1.19
835.664	0.81
835.834	0.6
836.004	1.2
836.174	1.31
836.344	0.85
836.514	-0.68
836.684	0.69
836.853	1.33
837.023	1.41
837.193	0.13
837.363	1.61
837.532	1.12
837.702	0.53
837.872	0.55
838.041	1.51
838.211	2.26
838.381	-0.24
838.55	0.65
838.72	3.91
838.89	2.35
839.059	0.55
839.229	0.02
839.398	3.45
839.568	0.58
839.738	0.82
839.907	2.11
840.077	1.48
840.246	-0.14
840.416	0.27
840.585	0.11
840.755	2.83
840.924	1.88
841.093	0.25
841.263	0.2
841.432	1.14
841.602	0.67
841.771	0.63
841.94	1.24
842.11	3.45
842.279	2.09
842.448	-0.02
842.617	0.38
842.787	2.55
842.956	0.25
843.125	0.53
843.294	0.61
843.464	1.81
843.633	0.79
843.802	-0.33
843.971	0.45
844.14	1.12
844.309	2.06
844.479	-0.81
844.648	0.39
844.817	0.47
844.986	0.92
845.155	0.75
845.324	0.59
845.493	1.38
845.662	0.68
845.831	2.39
846	1.73
846.169	0.99
846.338	2.98
846.507	0.94
846.676	1.69
846.844	1.11
847.013	1.76
847.182	1.62
847.351	0.59
847.52	0.8
847.689	1.3
847.858	0.98
848.026	0.05
848.195	0.78
848.364	0.68
848.533	0.77
848.701	0.52
848.87	1.76
849.039	2.88
849.207	1.74
849.376	3.26
849.545	3.31
849.713	0.72
849.882	-0.19
850.051	1.52
850.219	1.52
850.388	2.31
850.556	-0.33
850.725	0.8
850.893	2.29
851.062	0.7
851.23	2.54
851.399	-0.26
851.567	0.77
851.736	1.09
851.904	-0.34
852.073	0.89
852.241	2.45
852.41	1.45
852.578	0.27
852.746	0.66
852.915	0.95
853.083	1.74
853.251	0.09
853.42	0.22
853.588	0.83
853.756	2.42
853.924	0.76
854.093	1.54
854.261	0.84
854.429	0.03
854.597	2.3
854.765	0.15
854.934	2.01
855.102	1.84
855.27	1.52
855.438	1.93
855.606	3.29
855.774	2.9
855.942	-0.19
856.11	-1.3
856.278	1.61
856.446	2.72
856.614	1.75
856.782	0.07
856.95	2.38
857.118	2.02
857.286	1.68
857.454	0.35
857.622	2.59
857.79	2.29
857.958	0.11
858.126	0.8
858.294	-1.74
858.462	1.31
858.629	0.81
858.797	-0.84
858.965	2.31
859.133	2.31
859.301	1.19
859.468	2.26
859.636	0.97
859.804	4.49
859.971	1.82
860.139	0.3
860.307	2.5
860.474	2.31
860.642	1.23
860.81	0.75
860.977	1.41
861.145	3.34
861.313	1.02
861.48	1.46
861.648	2.14
861.815	-0.15
861.983	-0.93
862.15	0.38
862.318	2.93
862.485	3.63
862.653	0.16
862.82	-0.75
862.988	3.84
863.155	1.77
863.322	0.89
863.49	-0.14
863.657	1.5
863.824	4.12
863.992	3.09
864.159	1.71
864.326	3.41
864.494	0.66
864.661	4.64
864.828	-0.96
864.996	3.51
865.163	3.79
865.33	-0.17
865.497	-2.09
865.664	1.46
865.832	0.04
865.999	2.02
866.166	0.19
866.333	0.42
866.5	0.64
866.667	1.96
866.834	1.32
867.001	4.79
867.168	-0.94
867.335	2.22
867.502	0.68
867.669	2.31
867.836	4.53
868.003	0.67
868.17	4.13
868.337	0.96
868.504	5.38
868.671	-0.59
868.838	-0.32
869.005	3.51
869.172	3.53
869.339	1.17
869.505	0.42
869.672	1.9
869.839	4.42
870.006	0.64
870.173	0.65
870.339	0.94
870.506	4.92
870.673	0.44
870.84	1.51
871.006	2.85
871.173	2.02
871.34	2.35
871.506	-0.93
871.673	3.1
871.839	-0.72
872.006	1.54
872.173	1.33
872.339	2.46
872.506	5.25
872.672	1.48
872.839	0.23
873.005	1.93
873.172	5.07
873.338	2.42
873.505	2.01
873.671	2.96
873.838	1.88
874.004	-0.32
874.171	-0.05
874.337	4.81
874.503	3.78
874.67	-0.55
874.836	0.5
875.002	4.54
875.169	3.72
875.335	0.28
875.501	1.45
875.668	2.53
875.834	0.88
876	0.73
876.166	4.09
876.332	4.95
876.499	4.6
876.665	-0.31
876.831	1.04
876.997	5.25
877.163	3.08
877.329	0.58
877.495	1.72
877.662	2.65
877.828	2.73
877.994	0.99
878.16	-2.53
878.326	1.01
878.492	2.55
878.658	0.76
878.824	1.93
878.99	3.62
879.156	2.05
879.322	4.52
879.487	1.46
879.653	2.88
879.819	2.63
879.985	-0.71
880.151	1.75
880.317	1.83
880.483	0.2
880.648	1.6
880.814	-1.89
880.98	2.53
881.146	-1.37
881.312	-1.15
881.477	2.16
881.643	0.04
881.809	3.88
881.974	2.56
882.14	-1.39
882.306	1.62
882.471	5.44
882.637	0.77
882.803	2.38
882.968	5.8
883.134	6.38
883.299	1.91
883.465	1.25
883.63	3.95
883.796	1.83
883.961	2.16
884.127	3.29
884.292	-3.19
884.458	-0.43
884.623	-0.43
