Data from Apollo_Calib_20240827__AbsoluteIrradiance__2__23-11-01-869.txt Node

Date: Tue Aug 27 23:11:01 BST 2024
User: biology
Spectrometer: FLMT08252
Trigger mode: 0
Integration Time (sec): 5.000000E-1
Scans to average: 5
Electric dark correction enabled: true
Nonlinearity correction enabled: false
Boxcar width: 0
XAxis mode: Wavelengths
Number of Pixels in Spectrum: 3648
>>>>>Begin Spectral Data<<<<<
179.588	-0
179.809	-0
180.03	-0
180.251	-0
180.473	-0
180.694	0
180.915	0
181.136	-0
181.357	-0
181.578	0
181.799	-0
182.02	-0
182.241	0
182.462	0
182.683	0
182.904	-0
183.125	-0
183.346	0
183.567	0
183.788	0
184.009	0
184.23	0
184.451	0
184.672	0
184.892	0
185.113	0
185.334	0
185.555	0
185.776	0
185.996	0
186.217	0
186.438	0
186.659	0
186.879	0
187.1	0
187.321	0
187.541	0
187.762	0
187.983	0
188.203	0
188.424	0
188.644	0
188.865	0
189.086	0
189.306	0
189.527	0
189.747	0
189.968	0
190.188	0
190.409	0
190.629	0
190.849	0
191.07	0
191.29	0
191.511	0
191.731	0
191.951	0
192.172	0
192.392	0
192.612	0
192.833	0
193.053	0
193.273	0
193.493	0
193.714	0
193.934	0
194.154	0
194.374	0
194.594	0
194.815	0
195.035	0
195.255	0
195.475	0
195.695	0
195.915	0
196.135	0
196.355	0
196.575	0
196.795	0
197.015	0
197.235	0
197.455	0
197.675	0
197.895	0
198.115	0
198.335	0
198.555	0
198.775	0
198.995	0
199.214	0
199.434	0
199.654	0
199.874	0
200.094	3.25
200.313	2.19
200.533	2.84
200.753	2.04
200.973	2.9
201.192	2.73
201.412	1.83
201.632	2.09
201.851	2.55
202.071	1.97
202.291	2.12
202.51	0.81
202.73	2.33
202.95	1.93
203.169	1.88
203.389	1.65
203.608	1.93
203.828	1.54
204.047	2.17
204.267	2.02
204.486	1.84
204.706	1.55
204.925	1.72
205.145	1.55
205.364	2
205.583	2
205.803	1.81
206.022	1.2
206.242	1.54
206.461	1.62
206.68	1.13
206.9	1.26
207.119	1.89
207.338	1.67
207.557	1.37
207.777	1.35
207.996	1.18
208.215	1.39
208.434	1.1
208.654	1.54
208.873	1.38
209.092	1.45
209.311	1.8
209.53	1.13
209.749	0.84
209.968	0.81
210.187	1.14
210.407	0.85
210.626	1.21
210.845	1.2
211.064	1.13
211.283	0.98
211.502	1.3
211.721	1.25
211.94	1.03
212.159	1.29
212.377	1.11
212.596	1.41
212.815	1.2
213.034	1.09
213.253	1.08
213.472	1.21
213.691	0.86
213.91	0.93
214.128	1.07
214.347	1.08
214.566	0.85
214.785	1.04
215.003	1.05
215.222	0.95
215.441	0.89
215.66	0.94
215.878	0.74
216.097	1.05
216.316	0.63
216.534	1.01
216.753	0.67
216.972	0.95
217.19	0.86
217.409	0.61
217.627	0.73
217.846	0.88
218.064	0.91
218.283	0.85
218.501	1.07
218.72	1.08
218.938	0.62
219.157	0.63
219.375	1.03
219.594	1.03
219.812	0.7
220.031	0.68
220.249	1
220.467	1.01
220.686	0.64
220.904	0.58
221.122	0.47
221.341	1.02
221.559	0.84
221.777	0.66
221.995	0.74
222.214	0.88
222.432	0.59
222.65	0.86
222.868	0.84
223.086	0.73
223.305	0.86
223.523	0.57
223.741	0.79
223.959	0.51
224.177	0.59
224.395	0.71
224.613	0.73
224.831	0.73
225.049	0.5
225.267	0.71
225.485	0.68
225.703	0.53
225.921	0.62
226.139	0.64
226.357	0.71
226.575	0.61
226.793	0.61
227.011	0.9
227.229	0.68
227.447	0.68
227.665	0.54
227.883	0.55
228.1	0.63
228.318	0.58
228.536	0.51
228.754	0.61
228.972	0.61
229.189	0.68
229.407	0.54
229.625	0.54
229.843	0.8
230.06	0.63
230.278	0.69
230.496	0.63
230.713	0.63
230.931	0.61
231.149	0.46
231.366	0.41
231.584	0.55
231.801	0.9
232.019	0.59
232.236	0.49
232.454	0.53
232.671	0.64
232.889	0.61
233.106	0.36
233.324	0.53
233.541	0.47
233.759	0.62
233.976	0.51
234.194	0.49
234.411	0.52
234.628	0.52
234.846	0.54
235.063	0.52
235.28	0.45
235.498	0.6
235.715	0.47
235.932	0.55
236.149	0.45
236.367	0.4
236.584	0.48
236.801	0.38
237.018	0.6
237.236	0.56
237.453	0.38
237.67	0.58
237.887	0.43
238.104	0.52
238.321	0.36
238.538	0.5
238.755	0.5
238.973	0.35
239.19	0.57
239.407	0.55
239.624	0.56
239.841	0.33
240.058	0.45
240.275	0.5
240.492	0.46
240.709	0.49
240.925	0.54
241.142	0.5
241.359	0.39
241.576	0.37
241.793	0.43
242.01	0.46
242.227	0.5
242.444	0.49
242.66	0.56
242.877	0.53
243.094	0.29
243.311	0.54
243.527	0.48
243.744	0.49
243.961	0.43
244.178	0.42
244.394	0.46
244.611	0.51
244.828	0.49
245.044	0.32
245.261	0.44
245.477	0.43
245.694	0.55
245.911	0.41
246.127	0.43
246.344	0.56
246.56	0.49
246.777	0.41
246.993	0.46
247.21	0.46
247.426	0.4
247.643	0.46
247.859	0.36
248.076	0.44
248.292	0.5
248.508	0.43
248.725	0.42
248.941	0.5
249.157	0.43
249.374	0.36
249.59	0.44
249.806	0.35
250.023	0.4
250.239	0.32
250.455	0.34
250.671	0.43
250.888	0.45
251.104	0.44
251.32	0.43
251.536	0.39
251.752	0.35
251.969	0.44
252.185	0.46
252.401	0.47
252.617	0.37
252.833	0.39
253.049	0.38
253.265	0.35
253.481	0.46
253.697	0.45
253.913	0.35
254.129	0.35
254.345	0.38
254.561	0.35
254.777	0.45
254.993	0.41
255.209	0.45
255.425	0.38
255.641	0.31
255.857	0.44
256.073	0.32
256.288	0.35
256.504	0.47
256.72	0.34
256.936	0.5
257.152	0.36
257.367	0.33
257.583	0.44
257.799	0.45
258.015	0.38
258.23	0.38
258.446	0.47
258.662	0.38
258.877	0.29
259.093	0.38
259.309	0.44
259.524	0.36
259.74	0.38
259.955	0.28
260.171	0.42
260.387	0.3
260.602	0.41
260.818	0.43
261.033	0.27
261.249	0.33
261.464	0.32
261.68	0.34
261.895	0.39
262.11	0.41
262.326	0.34
262.541	0.35
262.757	0.39
262.972	0.35
263.187	0.41
263.403	0.34
263.618	0.39
263.833	0.35
264.049	0.32
264.264	0.37
264.479	0.45
264.694	0.45
264.91	0.26
265.125	0.37
265.34	0.39
265.555	0.49
265.77	0.4
265.986	0.29
266.201	0.43
266.416	0.37
266.631	0.32
266.846	0.4
267.061	0.37
267.276	0.31
267.491	0.21
267.706	0.42
267.921	0.35
268.136	0.31
268.351	0.36
268.566	0.32
268.781	0.41
268.996	0.37
269.211	0.38
269.426	0.32
269.641	0.34
269.856	0.34
270.071	0.28
270.285	0.24
270.5	0.32
270.715	0.37
270.93	0.35
271.145	0.36
271.359	0.36
271.574	0.27
271.789	0.36
272.004	0.35
272.218	0.29
272.433	0.4
272.648	0.28
272.862	0.38
273.077	0.28
273.292	0.31
273.506	0.28
273.721	0.3
273.936	0.35
274.15	0.31
274.365	0.29
274.579	0.34
274.794	0.35
275.008	0.38
275.223	0.22
275.437	0.34
275.652	0.46
275.866	0.34
276.081	0.31
276.295	0.37
276.509	0.32
276.724	0.27
276.938	0.31
277.153	0.33
277.367	0.29
277.581	0.28
277.796	0.31
278.01	0.26
278.224	0.36
278.438	0.41
278.653	0.28
278.867	0.28
279.081	0.3
279.295	0.3
279.51	0.34
279.724	0.3
279.938	0.32
280.152	0.26
280.366	0.24
280.58	0.33
280.794	0.33
281.008	0.25
281.222	0.31
281.437	0.42
281.651	0.31
281.865	0.38
282.079	0.26
282.293	0.22
282.507	0.29
282.721	0.28
282.935	0.27
283.148	0.24
283.362	0.23
283.576	0.23
283.79	0.32
284.004	0.23
284.218	0.31
284.432	0.22
284.646	0.29
284.859	0.21
285.073	0.26
285.287	0.28
285.501	0.23
285.714	0.31
285.928	0.28
286.142	0.25
286.356	0.25
286.569	0.27
286.783	0.35
286.997	0.32
287.21	0.27
287.424	0.3
287.637	0.26
287.851	0.23
288.065	0.3
288.278	0.27
288.492	0.33
288.705	0.27
288.919	0.35
289.132	0.24
289.346	0.32
289.559	0.24
289.773	0.22
289.986	0.26
290.2	0.26
290.413	0.31
290.626	0.24
290.84	0.31
291.053	0.33
291.267	0.31
291.48	0.3
291.693	0.25
291.906	0.22
292.12	0.23
292.333	0.27
292.546	0.27
292.76	0.34
292.973	0.28
293.186	0.29
293.399	0.24
293.612	0.36
293.826	0.29
294.039	0.28
294.252	0.32
294.465	0.26
294.678	0.31
294.891	0.27
295.104	0.18
295.317	0.27
295.53	0.28
295.743	0.2
295.956	0.29
296.169	0.3
296.382	0.28
296.595	0.22
296.808	0.23
297.021	0.25
297.234	0.26
297.447	0.27
297.66	0.26
297.873	0.33
298.086	0.24
298.299	0.19
298.511	0.23
298.724	0.28
298.937	0.18
299.15	0.23
299.363	0.25
299.575	0.28
299.788	0.25
300.001	0.25
300.213	0.21
300.426	0.24
300.639	0.19
300.852	0.17
301.064	0.32
301.277	0.29
301.489	0.29
301.702	0.25
301.915	0.24
302.127	0.25
302.34	0.27
302.552	0.27
302.765	0.28
302.977	0.3
303.19	0.19
303.402	0.22
303.615	0.22
303.827	0.22
304.04	0.24
304.252	0.24
304.464	0.22
304.677	0.33
304.889	0.27
305.102	0.19
305.314	0.23
305.526	0.34
305.739	0.28
305.951	0.18
306.163	0.26
306.375	0.31
306.588	0.18
306.8	0.23
307.012	0.19
307.224	0.25
307.436	0.27
307.649	0.16
307.861	0.25
308.073	0.25
308.285	0.25
308.497	0.26
308.709	0.25
308.921	0.29
309.133	0.25
309.346	0.26
309.558	0.22
309.77	0.29
309.982	0.27
310.194	0.3
310.406	0.18
310.617	0.31
310.829	0.28
311.041	0.29
311.253	0.22
311.465	0.24
311.677	0.22
311.889	0.23
312.101	0.24
312.313	0.26
312.524	0.26
312.736	0.17
312.948	0.21
313.16	0.35
313.372	0.25
313.583	0.22
313.795	0.25
314.007	0.22
314.218	0.26
314.43	0.23
314.642	0.2
314.853	0.22
315.065	0.27
315.277	0.23
315.488	0.28
315.7	0.28
315.912	0.24
316.123	0.25
316.335	0.26
316.546	0.32
316.758	0.18
316.969	0.23
317.181	0.22
317.392	0.23
317.604	0.28
317.815	0.19
318.026	0.24
318.238	0.21
318.449	0.23
318.661	0.23
318.872	0.18
319.083	0.22
319.295	0.26
319.506	0.2
319.717	0.28
319.929	0.26
320.14	0.23
320.351	0.27
320.562	0.25
320.774	0.21
320.985	0.21
321.196	0.21
321.407	0.22
321.618	0.29
321.829	0.25
322.041	0.25
322.252	0.27
322.463	0.22
322.674	0.24
322.885	0.22
323.096	0.23
323.307	0.21
323.518	0.23
323.729	0.2
323.94	0.25
324.151	0.24
324.362	0.22
324.573	0.25
324.784	0.21
324.995	0.25
325.206	0.25
325.417	0.19
325.628	0.23
325.838	0.26
326.049	0.26
326.26	0.22
326.471	0.26
326.682	0.27
326.892	0.25
327.103	0.19
327.314	0.22
327.525	0.3
327.735	0.24
327.946	0.28
328.157	0.18
328.368	0.27
328.578	0.22
328.789	0.27
328.999	0.24
329.21	0.27
329.421	0.28
329.631	0.22
329.842	0.19
330.052	0.26
330.263	0.27
330.473	0.29
330.684	0.21
330.894	0.22
331.105	0.26
331.315	0.22
331.526	0.21
331.736	0.31
331.947	0.21
332.157	0.22
332.367	0.2
332.578	0.27
332.788	0.24
332.999	0.27
333.209	0.23
333.419	0.24
333.629	0.2
333.84	0.27
334.05	0.26
334.26	0.26
334.47	0.25
334.681	0.27
334.891	0.24
335.101	0.23
335.311	0.29
335.521	0.23
335.732	0.18
335.942	0.3
336.152	0.27
336.362	0.28
336.572	0.26
336.782	0.27
336.992	0.21
337.202	0.23
337.412	0.23
337.622	0.24
337.832	0.28
338.042	0.27
338.252	0.23
338.462	0.21
338.672	0.28
338.882	0.22
339.092	0.27
339.302	0.29
339.511	0.24
339.721	0.23
339.931	0.22
340.141	0.26
340.351	0.32
340.561	0.24
340.77	0.21
340.98	0.21
341.19	0.27
341.4	0.21
341.609	0.18
341.819	0.25
342.029	0.23
342.238	0.28
342.448	0.23
342.658	0.25
342.867	0.24
343.077	0.24
343.286	0.27
343.496	0.22
343.706	0.23
343.915	0.21
344.125	0.24
344.334	0.25
344.544	0.16
344.753	0.26
344.963	0.24
345.172	0.25
345.381	0.22
345.591	0.22
345.8	0.25
346.01	0.28
346.219	0.29
346.428	0.14
346.638	0.23
346.847	0.22
347.056	0.3
347.266	0.25
347.475	0.26
347.684	0.25
347.893	0.23
348.103	0.3
348.312	0.22
348.521	0.22
348.73	0.26
348.94	0.28
349.149	0.25
349.358	0.23
349.567	0.21
349.776	0.21
349.985	0.23
350.194	0.21
350.403	0.27
350.612	0.2
350.821	0.2
351.03	0.23
351.239	0.19
351.448	0.23
351.657	0.15
351.866	0.28
352.075	0.25
352.284	0.24
352.493	0.21
352.702	0.25
352.911	0.27
353.12	0.25
353.329	0.23
353.538	0.26
353.746	0.24
353.955	0.21
354.164	0.21
354.373	0.27
354.582	0.28
354.79	0.24
354.999	0.3
355.208	0.21
355.416	0.28
355.625	0.2
355.834	0.23
356.042	0.19
356.251	0.21
356.46	0.22
356.668	0.2
356.877	0.25
357.085	0.3
357.294	0.19
357.503	0.26
357.711	0.2
357.92	0.36
358.128	0.24
358.337	0.21
358.545	0.26
358.754	0.22
358.962	0.27
359.17	0.25
359.379	0.23
359.587	0.24
359.796	0.25
360.004	0.25
360.212	0.26
360.421	0.28
360.629	0.2
360.837	0.25
361.046	0.27
361.254	0.29
361.462	0.24
361.67	0.19
361.879	0.29
362.087	0.31
362.295	0.27
362.503	0.23
362.711	0.17
362.92	0.25
363.128	0.24
363.336	0.18
363.544	0.17
363.752	0.21
363.96	0.2
364.168	0.22
364.376	0.2
364.584	0.23
364.792	0.28
365	0.24
365.208	0.25
365.416	0.21
365.624	0.25
365.832	0.2
366.04	0.27
366.248	0.25
366.456	0.28
366.664	0.26
366.872	0.22
367.079	0.19
367.287	0.27
367.495	0.21
367.703	0.24
367.911	0.22
368.118	0.2
368.326	0.24
368.534	0.22
368.742	0.25
368.949	0.18
369.157	0.21
369.365	0.29
369.572	0.22
369.78	0.23
369.988	0.29
370.195	0.25
370.403	0.23
370.61	0.19
370.818	0.26
371.026	0.3
371.233	0.21
371.441	0.24
371.648	0.23
371.856	0.25
372.063	0.21
372.271	0.2
372.478	0.26
372.685	0.2
372.893	0.26
373.1	0.26
373.308	0.21
373.515	0.27
373.722	0.23
373.93	0.23
374.137	0.28
374.344	0.28
374.552	0.26
374.759	0.25
374.966	0.26
375.173	0.18
375.381	0.26
375.588	0.21
375.795	0.18
376.002	0.2
376.209	0.23
376.417	0.22
376.624	0.23
376.831	0.24
377.038	0.24
377.245	0.2
377.452	0.27
377.659	0.32
377.866	0.27
378.073	0.25
378.28	0.27
378.487	0.26
378.694	0.26
378.901	0.24
379.108	0.28
379.315	0.26
379.522	0.28
379.729	0.29
379.936	0.22
380.143	0.22
380.35	0.24
380.557	0.23
380.763	0.28
380.97	0.24
381.177	0.27
381.384	0.26
381.591	0.26
381.797	0.21
382.004	0.25
382.211	0.29
382.418	0.24
382.624	0.27
382.831	0.3
383.038	0.27
383.244	0.27
383.451	0.22
383.658	0.25
383.864	0.29
384.071	0.27
384.277	0.35
384.484	0.22
384.69	0.29
384.897	0.27
385.103	0.28
385.31	0.25
385.516	0.26
385.723	0.25
385.929	0.27
386.136	0.25
386.342	0.29
386.549	0.25
386.755	0.31
386.961	0.27
387.168	0.28
387.374	0.31
387.58	0.3
387.787	0.28
387.993	0.29
388.199	0.25
388.406	0.25
388.612	0.23
388.818	0.25
389.024	0.29
389.231	0.27
389.437	0.32
389.643	0.3
389.849	0.28
390.055	0.33
390.261	0.26
390.467	0.32
390.674	0.23
390.88	0.31
391.086	0.32
391.292	0.26
391.498	0.31
391.704	0.28
391.91	0.25
392.116	0.31
392.322	0.21
392.528	0.31
392.734	0.28
392.94	0.28
393.146	0.27
393.352	0.25
393.557	0.29
393.763	0.28
393.969	0.3
394.175	0.28
394.381	0.31
394.587	0.29
394.792	0.28
394.998	0.31
395.204	0.35
395.41	0.26
395.615	0.34
395.821	0.34
396.027	0.35
396.233	0.26
396.438	0.31
396.644	0.36
396.85	0.34
397.055	0.34
397.261	0.34
397.466	0.37
397.672	0.32
397.878	0.37
398.083	0.28
398.289	0.33
398.494	0.34
398.7	0.35
398.905	0.29
399.111	0.35
399.316	0.27
399.522	0.34
399.727	0.32
399.932	0.32
400.138	0.32
400.343	0.39
400.549	0.41
400.754	0.3
400.959	0.41
401.165	0.33
401.37	0.38
401.575	0.42
401.78	0.28
401.986	0.33
402.191	0.37
402.396	0.34
402.601	0.41
402.807	0.35
403.012	0.36
403.217	0.42
403.422	0.34
403.627	0.36
403.832	0.35
404.037	0.39
404.243	0.44
404.448	0.37
404.653	0.34
404.858	0.42
405.063	0.45
405.268	0.38
405.473	0.4
405.678	0.4
405.883	0.57
406.088	0.47
406.293	0.37
406.498	0.45
406.703	0.48
406.907	0.48
407.112	0.39
407.317	0.49
407.522	0.53
407.727	0.47
407.932	0.52
408.136	0.6
408.341	0.46
408.546	0.54
408.751	0.57
408.956	0.54
409.16	0.63
409.365	0.6
409.57	0.57
409.774	0.64
409.979	0.61
410.184	0.7
410.388	0.68
410.593	0.74
410.798	0.66
411.002	0.71
411.207	0.76
411.411	0.74
411.616	0.7
411.82	0.79
412.025	0.82
412.229	0.82
412.434	0.87
412.638	0.9
412.843	0.88
413.047	0.94
413.252	0.85
413.456	0.99
413.66	1.03
413.865	0.98
414.069	1.08
414.273	1.08
414.478	1.06
414.682	1.07
414.886	1.15
415.091	1.2
415.295	1.17
415.499	1.31
415.703	1.31
415.908	1.36
416.112	1.39
416.316	1.47
416.52	1.49
416.724	1.52
416.929	1.57
417.133	1.73
417.337	1.67
417.541	1.73
417.745	1.81
417.949	1.89
418.153	1.98
418.357	1.95
418.561	2.13
418.765	2.11
418.969	2.2
419.173	2.37
419.377	2.34
419.581	2.52
419.785	2.53
419.989	2.49
420.193	2.69
420.397	2.76
420.601	2.88
420.804	2.94
421.008	2.92
421.212	3.1
421.416	3.11
421.62	3.14
421.823	3.22
422.027	3.32
422.231	3.41
422.435	3.33
422.638	3.47
422.842	3.45
423.046	3.65
423.249	3.76
423.453	3.77
423.657	4
423.86	3.98
424.064	4.13
424.268	4.32
424.471	4.3
424.675	4.45
424.878	4.56
425.082	4.7
425.285	5.01
425.489	4.86
425.692	5.03
425.896	5.07
426.099	5.33
426.303	5.42
426.506	5.64
426.71	5.81
426.913	5.93
427.116	6.12
427.32	6.16
427.523	6.23
427.726	6.47
427.93	6.65
428.133	6.91
428.336	7.08
428.54	7.19
428.743	7.41
428.946	7.57
429.149	7.65
429.353	7.63
429.556	7.74
429.759	7.81
429.962	7.94
430.165	8.07
430.368	7.75
430.571	7.85
430.775	7.93
430.978	7.88
431.181	7.94
431.384	8.05
431.587	8.18
431.79	8.52
431.993	8.42
432.196	8.72
432.399	9.15
432.602	9.22
432.805	9.28
433.008	9.87
433.211	9.72
433.414	10.13
433.616	10.16
433.819	10.09
434.022	10.17
434.225	10.37
434.428	10.49
434.631	10.76
434.833	10.65
435.036	10.9
435.239	11.12
435.442	11.1
435.645	11.27
435.847	11.43
436.05	11.59
436.253	11.92
436.455	11.93
436.658	11.81
436.861	12.05
437.063	12.33
437.266	12.24
437.468	12.59
437.671	12.78
437.874	12.86
438.076	12.84
438.279	13.29
438.481	13.29
438.684	14.04
438.886	13.62
439.089	13.93
439.291	13.83
439.494	14.28
439.696	14.46
439.899	15.12
440.101	15.44
440.303	15.63
440.506	16.26
440.708	15.93
440.91	16.15
441.113	16.41
441.315	16.68
441.517	16.66
441.72	17.04
441.922	16.71
442.124	16.53
442.326	16.97
442.529	17.15
442.731	17.17
442.933	17.6
443.135	17.33
443.337	17.2
443.539	17.9
443.742	17.66
443.944	18.11
444.146	17.88
444.348	17.91
444.55	17.81
444.752	18
444.954	18.04
445.156	17.89
445.358	18.27
445.56	18.64
445.762	18.39
445.964	18.75
446.166	18.43
446.368	18.41
446.57	18.43
446.772	18.17
446.974	17.83
447.175	18.3
447.377	17.79
447.579	18.4
447.781	18
447.983	17.75
448.184	17.41
448.386	17.8
448.588	17.39
448.79	17.23
448.991	17.67
449.193	17.66
449.395	17
449.597	16.57
449.798	16.26
450	15.97
450.202	16.05
450.403	15.96
450.605	15.93
450.806	15.64
451.008	15.28
451.21	15.25
451.411	14.86
451.613	14.11
451.814	14.35
452.016	14.12
452.217	13.5
452.419	13.44
452.62	13.36
452.821	13
453.023	12.92
453.224	12.44
453.426	12.11
453.627	11.34
453.828	11.45
454.03	11.48
454.231	11.54
454.432	11.4
454.634	10.94
454.835	10.75
455.036	10.7
455.238	10.3
455.439	10.08
455.64	9.84
455.841	9.62
456.042	9.63
456.244	9.44
456.445	9.15
456.646	8.87
456.847	8.87
457.048	8.6
457.249	8.7
457.45	8.25
457.651	8.01
457.852	7.76
458.054	7.41
458.255	7.51
458.456	7.51
458.657	7.28
458.858	6.92
459.058	6.81
459.259	6.84
459.46	6.54
459.661	6.73
459.862	6.47
460.063	6.55
460.264	6.32
460.465	6.17
460.666	6.17
460.866	5.92
461.067	5.6
461.268	5.62
461.469	5.59
461.67	5.51
461.87	5.38
462.071	5.31
462.272	5.25
462.473	5.25
462.673	5.39
462.874	5.28
463.075	5.26
463.275	5.16
463.476	5.25
463.676	5.2
463.877	5.08
464.078	5.07
464.278	5.09
464.479	4.97
464.679	4.87
464.88	4.75
465.08	4.79
465.281	4.62
465.481	4.42
465.682	4.22
465.882	4.17
466.083	4.14
466.283	4.09
466.483	4.01
466.684	3.85
466.884	3.75
467.085	3.88
467.285	3.78
467.485	3.66
467.686	3.57
467.886	3.52
468.086	3.5
468.286	3.42
468.487	3.52
468.687	3.35
468.887	3.26
469.087	3.38
469.287	3.37
469.488	3.16
469.688	3.21
469.888	3.21
470.088	3.19
470.288	3.14
470.488	2.99
470.688	2.93
470.888	2.86
471.088	2.76
471.288	2.82
471.488	2.8
471.688	2.72
471.888	2.76
472.088	2.85
472.288	2.71
472.488	2.67
472.688	2.59
472.888	2.67
473.088	2.64
473.288	2.51
473.488	2.51
473.688	2.65
473.887	2.52
474.087	2.53
474.287	2.49
474.487	2.48
474.687	2.46
474.886	2.35
475.086	2.36
475.286	2.36
475.486	2.3
475.685	2.25
475.885	2.27
476.085	2.27
476.284	2.22
476.484	2.28
476.684	2.27
476.883	2.28
477.083	2.13
477.282	2.14
477.482	2.23
477.681	2.19
477.881	2.04
478.08	2.13
478.28	2.06
478.479	2.14
478.679	2.12
478.878	2.08
479.078	2.03
479.277	2.1
479.477	2.09
479.676	2.01
479.875	2.05
480.075	1.98
480.274	2.04
480.473	2.07
480.673	2.03
480.872	2.07
481.071	2.04
481.271	2.06
481.47	2
481.669	1.99
481.868	1.91
482.067	2.02
482.267	1.97
482.466	1.97
482.665	1.96
482.864	1.98
483.063	1.97
483.262	2.02
483.461	1.98
483.661	2.1
483.86	2.05
484.059	2.03
484.258	2.05
484.457	1.99
484.656	2.01
484.855	2.09
485.054	1.92
485.253	2.02
485.452	1.98
485.651	2.09
485.849	2.01
486.048	2.02
486.247	2.1
486.446	2.03
486.645	2.09
486.844	2.07
487.043	2.03
487.241	2.11
487.44	2.11
487.639	2.1
487.838	2.13
488.037	2.13
488.235	2.2
488.434	2.18
488.633	2.07
488.831	2.21
489.03	2.24
489.229	2.23
489.427	2.24
489.626	2.21
489.825	2.23
490.023	2.29
490.222	2.26
490.42	2.31
490.619	2.31
490.817	2.37
491.016	2.32
491.214	2.38
491.413	2.43
491.611	2.4
491.81	2.4
492.008	2.43
492.207	2.51
492.405	2.53
492.604	2.46
492.802	2.52
493	2.59
493.199	2.59
493.397	2.65
493.595	2.64
493.794	2.59
493.992	2.77
494.19	2.77
494.388	2.81
494.587	2.7
494.785	2.76
494.983	2.77
495.181	2.83
495.379	2.88
495.578	2.96
495.776	2.94
495.974	2.96
496.172	2.92
496.37	3.04
496.568	3.08
496.766	3.06
496.964	3.16
497.162	3.16
497.36	3.18
497.558	3.21
497.756	3.28
497.954	3.28
498.152	3.33
498.35	3.4
498.548	3.32
498.746	3.37
498.944	3.42
499.142	3.45
499.34	3.47
499.538	3.65
499.736	3.54
499.933	3.58
500.131	3.63
500.329	3.73
500.527	3.72
500.725	3.75
500.922	3.81
501.12	3.8
501.318	3.92
501.516	3.9
501.713	3.99
501.911	3.98
502.109	3.94
502.306	4.08
502.504	3.99
502.701	4.11
502.899	4.13
503.097	4.27
503.294	4.17
503.492	4.33
503.689	4.34
503.887	4.34
504.084	4.34
504.282	4.38
504.479	4.4
504.677	4.5
504.874	4.5
505.072	4.47
505.269	4.66
505.466	4.61
505.664	4.74
505.861	4.6
506.059	4.79
506.256	4.71
506.453	4.78
506.651	4.93
506.848	4.93
507.045	4.93
507.242	4.9
507.44	4.97
507.637	5.04
507.834	5
508.031	5.11
508.229	5.12
508.426	5.06
508.623	5.22
508.82	5.26
509.017	5.22
509.214	5.22
509.411	5.32
509.608	5.3
509.805	5.44
510.003	5.4
510.2	5.47
510.397	5.57
510.594	5.5
510.791	5.65
510.988	5.61
511.184	5.57
511.381	5.48
511.578	5.64
511.775	5.77
511.972	5.69
512.169	5.77
512.366	5.8
512.563	5.93
512.76	5.98
512.956	5.99
513.153	5.9
513.35	5.88
513.547	5.86
513.744	6.07
513.94	5.97
514.137	6.1
514.334	6.05
514.53	6.15
514.727	6.33
514.924	6.19
515.12	6.21
515.317	6.2
515.514	6.15
515.71	6.17
515.907	6.31
516.103	6.35
516.3	6.32
516.497	6.41
516.693	6.47
516.89	6.44
517.086	6.46
517.283	6.48
517.479	6.42
517.676	6.58
517.872	6.58
518.068	6.55
518.265	6.54
518.461	6.49
518.658	6.74
518.854	6.65
519.05	6.77
519.247	6.74
519.443	6.71
519.639	6.87
519.836	6.65
520.032	6.78
520.228	6.86
520.424	6.81
520.621	6.88
520.817	6.92
521.013	6.88
521.209	7.04
521.405	7.03
521.601	7.02
521.798	6.99
521.994	6.98
522.19	6.94
522.386	6.97
522.582	7.1
522.778	7.19
522.974	7.02
523.17	7.06
523.366	7.04
523.562	7.13
523.758	7.09
523.954	6.99
524.15	7.18
524.346	7.16
524.542	7.2
524.738	7.21
524.934	7.35
525.129	7.29
525.325	7.18
525.521	7.2
525.717	7.37
525.913	7.21
526.109	7.3
526.304	7.4
526.5	7.42
526.696	7.41
526.892	7.39
527.087	7.57
527.283	7.48
527.479	7.41
527.674	7.25
527.87	7.46
528.066	7.5
528.261	7.46
528.457	7.4
528.653	7.58
528.848	7.51
529.044	7.63
529.239	7.49
529.435	7.53
529.63	7.47
529.826	7.47
530.021	7.47
530.217	7.55
530.412	7.54
530.608	7.57
530.803	7.56
530.999	7.48
531.194	7.58
531.389	7.62
531.585	7.69
531.78	7.75
531.975	7.66
532.171	7.73
532.366	7.66
532.561	7.69
532.757	7.71
532.952	7.84
533.147	7.5
533.342	7.77
533.538	7.69
533.733	7.77
533.928	7.54
534.123	7.77
534.318	7.77
534.513	7.69
534.709	7.91
534.904	7.81
535.099	7.85
535.294	7.8
535.489	7.89
535.684	7.77
535.879	7.79
536.074	7.84
536.269	7.83
536.464	7.9
536.659	7.82
536.854	7.82
537.049	7.94
537.244	7.83
537.439	7.9
537.634	7.82
537.828	7.96
538.023	7.9
538.218	7.9
538.413	7.83
538.608	7.91
538.803	7.88
538.997	7.85
539.192	7.92
539.387	7.85
539.582	7.89
539.776	7.81
539.971	7.99
540.166	8.03
540.36	7.89
540.555	8.08
540.75	7.99
540.944	7.94
541.139	7.95
541.334	7.96
541.528	7.94
541.723	8
541.917	8.05
542.112	7.94
542.306	7.86
542.501	7.92
542.695	7.92
542.89	7.84
543.084	7.89
543.279	8.02
543.473	8.02
543.668	8.08
543.862	7.94
544.056	7.9
544.251	8.05
544.445	8.05
544.64	8.06
544.834	7.77
545.028	7.68
545.222	7.99
545.417	8.2
545.611	8.1
545.805	8.05
546	7.87
546.194	8.07
546.388	8.06
546.582	7.93
546.776	8.01
546.97	7.99
547.165	8.04
547.359	7.95
547.553	7.91
547.747	7.96
547.941	8.21
548.135	7.99
548.329	8.01
548.523	8.02
548.717	7.98
548.911	8.01
549.105	7.96
549.299	8.04
549.493	8.06
549.687	7.96
549.881	8.16
550.075	8.01
550.269	7.93
550.463	8.08
550.657	8.05
550.85	8.03
551.044	8.04
551.238	8.11
551.432	8.07
551.626	8.11
551.82	8.13
552.013	8.02
552.207	8.13
552.401	8.13
552.594	8.01
552.788	7.99
552.982	8.04
553.176	7.95
553.369	8.2
553.563	8.13
553.756	8.05
553.95	8.09
554.144	8.11
554.337	8.1
554.531	7.83
554.724	8.12
554.918	8.19
555.111	7.98
555.305	8.09
555.498	8
555.692	8.13
555.885	8.08
556.079	8.04
556.272	8.07
556.466	8.01
556.659	8.07
556.852	8.14
557.046	8.03
557.239	7.9
557.432	8.03
557.626	8.12
557.819	8.14
558.012	8.07
558.206	8.2
558.399	8.11
558.592	8.04
558.785	8.01
558.979	8.05
559.172	8.05
559.365	8.06
559.558	7.96
559.751	8
559.944	8.17
560.138	7.99
560.331	8.05
560.524	8.13
560.717	8.04
560.91	8
561.103	8.02
561.296	7.94
561.489	8.09
561.682	8.13
561.875	8.03
562.068	8.17
562.261	7.98
562.454	8.21
562.647	8.03
562.84	8.05
563.032	8.09
563.225	7.95
563.418	7.99
563.611	8.16
563.804	8.13
563.997	7.94
564.19	7.85
564.382	8.17
564.575	8.04
564.768	8.05
564.961	8.08
565.153	8.08
565.346	7.89
565.539	8.13
565.731	8.06
565.924	8.11
566.117	8.21
566.309	8.08
566.502	8.01
566.695	7.92
566.887	8.08
567.08	8.05
567.272	8.12
567.465	7.91
567.657	8.07
567.85	7.94
568.042	8.03
568.235	8.03
568.427	7.91
568.62	8.02
568.812	8.01
569.005	8.09
569.197	7.93
569.389	8.03
569.582	8.01
569.774	7.96
569.966	7.95
570.159	7.93
570.351	7.91
570.543	7.89
570.736	8.02
570.928	7.81
571.12	7.98
571.312	8
571.505	7.75
571.697	7.93
571.889	7.95
572.081	7.96
572.273	7.89
572.465	7.96
572.658	8.01
572.85	7.89
573.042	8.05
573.234	7.84
573.426	7.87
573.618	7.87
573.81	7.96
574.002	7.9
574.194	7.93
574.386	7.87
574.578	7.79
574.77	7.87
574.962	7.89
575.154	7.76
575.346	7.84
575.538	7.76
575.729	7.77
575.921	7.89
576.113	7.98
576.305	7.83
576.497	7.95
576.689	7.75
576.88	7.71
577.072	7.83
577.264	7.84
577.456	7.84
577.647	7.83
577.839	7.89
578.031	7.72
578.223	7.79
578.414	7.66
578.606	7.82
578.798	7.77
578.989	7.83
579.181	7.82
579.372	7.81
579.564	7.78
579.755	7.69
579.947	7.67
580.139	7.77
580.33	7.64
580.522	7.77
580.713	7.67
580.905	7.69
581.096	7.79
581.287	7.68
581.479	7.7
581.67	7.73
581.862	7.68
582.053	7.66
582.244	7.47
582.436	7.75
582.627	7.58
582.818	7.61
583.01	7.6
583.201	7.64
583.392	7.58
583.583	7.55
583.775	7.51
583.966	7.53
584.157	7.55
584.348	7.67
584.54	7.55
584.731	7.54
584.922	7.48
585.113	7.44
585.304	7.57
585.495	7.48
585.686	7.59
585.877	7.6
586.068	7.59
586.259	7.48
586.45	7.53
586.641	7.48
586.832	7.56
587.023	7.51
587.214	7.41
587.405	7.5
587.596	7.44
587.787	7.33
587.978	7.42
588.169	7.45
588.36	7.33
588.551	7.44
588.742	7.37
588.932	7.4
589.123	7.24
589.314	7.4
589.505	7.32
589.696	7.33
589.886	7.3
590.077	7.3
590.268	7.25
590.458	7.19
590.649	7.12
590.84	7.19
591.03	7.26
591.221	7.22
591.412	7.04
591.602	7.27
591.793	7.11
591.984	7.18
592.174	7.23
592.365	7.31
592.555	7.06
592.746	7.04
592.936	7.1
593.127	7.17
593.317	7.1
593.508	7.16
593.698	7.02
593.889	7.05
594.079	6.97
594.269	6.98
594.46	7
594.65	7.05
594.84	6.94
595.031	6.88
595.221	6.95
595.411	6.91
595.602	7.01
595.792	6.92
595.982	6.85
596.172	6.95
596.363	6.86
596.553	6.81
596.743	6.88
596.933	6.86
597.123	6.84
597.314	6.73
597.504	6.8
597.694	6.92
597.884	6.78
598.074	6.84
598.264	6.78
598.454	6.71
598.644	6.67
598.834	6.74
599.024	6.7
599.214	6.64
599.404	6.71
599.594	6.67
599.784	6.61
599.974	6.7
600.164	6.65
600.354	6.59
600.544	6.51
600.734	6.56
600.924	6.57
601.114	6.47
601.303	6.48
601.493	6.44
601.683	6.48
601.873	6.51
602.063	6.38
602.252	6.45
602.442	6.37
602.632	6.38
602.821	6.37
603.011	6.4
603.201	6.43
603.39	6.34
603.58	6.24
603.77	6.37
603.959	6.36
604.149	6.31
604.339	6.33
604.528	6.37
604.718	6.37
604.907	6.32
605.097	6.14
605.286	6.19
605.476	6.19
605.665	6.24
605.855	6.2
606.044	6.23
606.234	6.18
606.423	6.12
606.612	6.19
606.802	5.98
606.991	6.09
607.181	6.18
607.37	6.17
607.559	5.84
607.749	6.07
607.938	5.99
608.127	6.03
608.316	6.06
608.506	5.92
608.695	6.03
608.884	5.91
609.073	5.92
609.263	6.01
609.452	5.92
609.641	5.78
609.83	5.78
610.019	5.85
610.208	5.83
610.397	5.78
610.586	5.81
610.775	5.78
610.965	5.79
611.154	5.68
611.343	5.8
611.532	5.65
611.721	5.82
611.91	5.68
612.099	5.67
612.287	5.54
612.476	5.6
612.665	5.72
612.854	5.55
613.043	5.61
613.232	5.59
613.421	5.5
613.61	5.53
613.798	5.53
613.987	5.58
614.176	5.48
614.365	5.48
614.554	5.53
614.742	5.46
614.931	5.35
615.12	5.43
615.309	5.4
615.497	5.42
615.686	5.29
615.875	5.42
616.063	5.25
616.252	5.33
616.44	5.35
616.629	5.22
616.818	5.21
617.006	5.21
617.195	5.16
617.383	5.23
617.572	5.12
617.76	5.19
617.949	5.16
618.137	5.24
618.326	5.13
618.514	5.03
618.703	4.96
618.891	5.09
619.079	5.01
619.268	5.13
619.456	4.99
619.644	5.03
619.833	4.95
620.021	5
620.209	4.93
620.398	4.92
620.586	4.88
620.774	4.98
620.962	4.93
621.151	4.96
621.339	4.86
621.527	4.8
621.715	4.82
621.903	4.85
622.092	4.78
622.28	4.83
622.468	4.65
622.656	4.75
622.844	4.7
623.032	4.82
623.22	4.7
623.408	4.76
623.596	4.69
623.784	4.74
623.972	4.66
624.16	4.67
624.348	4.67
624.536	4.73
624.724	4.58
624.912	4.65
625.1	4.56
625.288	4.57
625.476	4.55
625.664	4.53
625.851	4.45
626.039	4.52
626.227	4.46
626.415	4.51
626.603	4.4
626.79	4.45
626.978	4.42
627.166	4.44
627.354	4.26
627.541	4.36
627.729	4.21
627.917	4.42
628.104	4.35
628.292	4.33
628.48	4.31
628.667	4.22
628.855	4.36
629.042	4.35
629.23	4.27
629.418	4.19
629.605	4.19
629.793	4.19
629.98	4.18
630.168	4.1
630.355	4.15
630.543	4.17
630.73	4.07
630.917	4.06
631.105	4.21
631.292	4.1
631.48	4.11
631.667	4.09
631.854	4.05
632.042	4.03
632.229	3.95
632.416	3.99
632.604	3.99
632.791	3.83
632.978	4.01
633.165	3.92
633.353	3.9
633.54	3.93
633.727	3.84
633.914	3.85
634.101	3.75
634.289	3.92
634.476	3.8
634.663	3.83
634.85	3.81
635.037	3.74
635.224	3.74
635.411	3.75
635.598	3.66
635.785	3.74
635.972	3.7
636.159	3.68
636.346	3.63
636.533	3.66
636.72	3.63
636.907	3.63
637.094	3.55
637.281	3.52
637.468	3.62
637.655	3.56
637.842	3.62
638.029	3.5
638.215	3.57
638.402	3.51
638.589	3.44
638.776	3.51
638.963	3.45
639.149	3.45
639.336	3.53
639.523	3.46
639.709	3.42
639.896	3.41
640.083	3.41
640.27	3.44
640.456	3.36
640.643	3.36
640.829	3.26
641.016	3.32
641.203	3.26
641.389	3.31
641.576	3.29
641.762	3.27
641.949	3.2
642.135	3.2
642.322	3.25
642.508	3.13
642.695	3.23
642.881	3.18
643.068	3.1
643.254	3.17
643.441	3.15
643.627	3.18
643.813	3.07
644	3.19
644.186	3.04
644.372	3.11
644.559	3.06
644.745	3.03
644.931	3.03
645.118	3.07
645.304	3.07
645.49	3.02
645.676	2.95
645.862	3
646.049	3.05
646.235	3.03
646.421	3.05
646.607	2.98
646.793	2.92
646.979	2.85
647.165	2.91
647.352	2.96
647.538	2.96
647.724	2.86
647.91	2.88
648.096	2.85
648.282	2.88
648.468	2.86
648.654	2.86
648.84	2.85
649.026	2.82
649.212	2.78
649.397	2.77
649.583	2.77
649.769	2.79
649.955	2.72
650.141	2.74
650.327	2.73
650.513	2.72
650.698	2.74
650.884	2.58
651.07	2.71
651.256	2.64
651.442	2.71
651.627	2.63
651.813	2.7
651.999	2.62
652.184	2.63
652.37	2.67
652.556	2.64
652.741	2.64
652.927	2.48
653.113	2.59
653.298	2.64
653.484	2.56
653.669	2.55
653.855	2.55
654.04	2.52
654.226	2.53
654.412	2.47
654.597	2.43
654.782	2.54
654.968	2.5
655.153	2.5
655.339	2.49
655.524	2.48
655.71	2.44
655.895	2.47
656.08	2.45
656.266	2.5
656.451	2.39
656.636	2.42
656.822	2.39
657.007	2.36
657.192	2.39
657.378	2.36
657.563	2.35
657.748	2.33
657.933	2.32
658.118	2.29
658.304	2.33
658.489	2.38
658.674	2.32
658.859	2.3
659.044	2.3
659.229	2.28
659.414	2.21
659.599	2.31
659.785	2.2
659.97	2.25
660.155	2.26
660.34	2.26
660.525	2.23
660.71	2.21
660.895	2.23
661.08	2.18
661.264	2.17
661.449	2.18
661.634	2.14
661.819	2.2
662.004	2.15
662.189	2.04
662.374	2.15
662.559	2.05
662.743	1.99
662.928	2.08
663.113	2.06
663.298	1.98
663.483	2.01
663.667	2.06
663.852	2.01
664.037	2.05
664.221	1.98
664.406	1.99
664.591	1.99
664.775	1.97
664.96	1.89
665.145	1.88
665.329	1.87
665.514	1.89
665.698	1.88
665.883	1.85
666.068	1.89
666.252	1.86
666.437	1.83
666.621	1.86
666.806	1.86
666.99	1.79
667.174	1.78
667.359	1.87
667.543	1.78
667.728	1.76
667.912	1.78
668.096	1.77
668.281	1.76
668.465	1.78
668.649	1.79
668.834	1.71
669.018	1.75
669.202	1.74
669.387	1.66
669.571	1.79
669.755	1.66
669.939	1.67
670.124	1.68
670.308	1.7
670.492	1.65
670.676	1.66
670.86	1.63
671.044	1.62
671.228	1.66
671.413	1.6
671.597	1.57
671.781	1.6
671.965	1.61
672.149	1.62
672.333	1.56
672.517	1.61
672.701	1.52
672.885	1.56
673.069	1.53
673.253	1.57
673.437	1.52
673.621	1.5
673.804	1.59
673.988	1.57
674.172	1.52
674.356	1.48
674.54	1.54
674.724	1.59
674.908	1.51
675.091	1.51
675.275	1.45
675.459	1.49
675.643	1.55
675.826	1.44
676.01	1.46
676.194	1.46
676.377	1.45
676.561	1.49
676.745	1.46
676.928	1.46
677.112	1.44
677.296	1.4
677.479	1.37
677.663	1.38
677.846	1.41
678.03	1.38
678.213	1.34
678.397	1.37
678.58	1.32
678.764	1.35
678.947	1.29
679.131	1.28
679.314	1.32
679.498	1.32
679.681	1.36
679.865	1.35
680.048	1.34
680.231	1.28
680.415	1.24
680.598	1.28
680.781	1.27
680.965	1.28
681.148	1.3
681.331	1.21
681.514	1.29
681.698	1.23
681.881	1.23
682.064	1.2
682.247	1.2
682.43	1.24
682.614	1.25
682.797	1.24
682.98	1.19
683.163	1.21
683.346	1.25
683.529	1.21
683.712	1.2
683.895	1.18
684.078	1.11
684.261	1.13
684.444	1.18
684.627	1.19
684.81	1.12
684.993	1.16
685.176	1.15
685.359	1.11
685.542	1.15
685.725	1.21
685.908	1.14
686.091	1.13
686.274	1.15
686.457	1.16
686.639	1.09
686.822	1.15
687.005	1.09
687.188	1.07
687.371	1.14
687.553	1.17
687.736	1.13
687.919	1.18
688.102	1.09
688.284	1.1
688.467	1.06
688.65	1.04
688.832	1
689.015	1
689.197	0.99
689.38	1.12
689.563	1.1
689.745	0.99
689.928	1.04
690.11	1.03
690.293	1.06
690.475	1.01
690.658	1.03
690.84	0.98
691.023	1.03
691.205	0.95
691.388	1.07
691.57	1.03
691.752	0.98
691.935	0.94
692.117	0.95
692.3	1.01
692.482	0.94
692.664	0.9
692.847	0.97
693.029	1
693.211	0.95
693.393	0.94
693.576	0.94
693.758	0.85
693.94	0.9
694.122	0.82
694.304	0.89
694.487	0.93
694.669	0.99
694.851	0.9
695.033	0.91
695.215	0.9
695.397	0.86
695.579	0.93
695.761	0.85
695.943	0.86
696.125	0.92
696.308	0.89
696.49	0.73
696.671	0.92
696.853	0.86
697.035	1.05
697.217	0.87
697.399	0.81
697.581	0.81
697.763	0.88
697.945	0.81
698.127	0.8
698.309	0.85
698.491	0.9
698.672	0.83
698.854	0.88
699.036	0.9
699.218	0.79
699.399	0.81
699.581	0.77
699.763	0.82
699.945	0.79
700.126	0.8
700.308	0.8
700.49	0.77
700.671	0.74
700.853	0.76
701.035	0.77
701.216	0.77
701.398	0.71
701.579	0.82
701.761	0.81
701.943	0.72
702.124	0.8
702.306	0.77
702.487	0.84
702.669	0.8
702.85	0.74
703.031	0.68
703.213	0.81
703.394	0.79
703.576	0.72
703.757	0.89
703.938	0.82
704.12	0.86
704.301	0.77
704.483	0.75
704.664	0.75
704.845	0.89
705.026	0.84
705.208	0.72
705.389	0.75
705.57	0.77
705.751	0.77
705.933	0.72
706.114	0.78
706.295	0.74
706.476	0.66
706.657	0.77
706.838	0.73
707.02	0.74
707.201	0.66
707.382	0.71
707.563	0.72
707.744	0.66
707.925	0.7
708.106	0.66
708.287	0.78
708.468	0.73
708.649	0.75
708.83	0.68
709.011	0.66
709.192	0.75
709.373	0.62
709.554	0.63
709.734	0.66
709.915	0.7
710.096	0.67
710.277	0.59
710.458	0.74
710.639	0.65
710.819	0.63
711	0.65
711.181	0.74
711.362	0.69
711.542	0.67
711.723	0.64
711.904	0.75
712.085	0.61
712.265	0.7
712.446	0.54
712.627	0.62
712.807	0.67
712.988	0.65
713.168	0.54
713.349	0.63
713.53	0.5
713.71	0.59
713.891	0.54
714.071	0.57
714.252	0.67
714.432	0.53
714.613	0.58
714.793	0.58
714.974	0.66
715.154	0.65
715.334	0.65
715.515	0.61
715.695	0.49
715.876	0.63
716.056	0.65
716.236	0.54
716.417	0.57
716.597	0.56
716.777	0.72
716.957	0.62
717.138	0.57
717.318	0.61
717.498	0.53
717.678	0.54
717.859	0.57
718.039	0.54
718.219	0.58
718.399	0.63
718.579	0.53
718.759	0.64
718.939	0.61
719.12	0.62
719.3	0.65
719.48	0.54
719.66	0.43
719.84	0.68
720.02	0.59
720.2	0.53
720.38	0.55
720.56	0.59
720.74	0.52
720.92	0.55
721.1	0.59
721.279	0.72
721.459	0.48
721.639	0.49
721.819	0.57
721.999	0.56
722.179	0.63
722.359	0.54
722.538	0.6
722.718	0.59
722.898	0.54
723.078	0.47
723.257	0.54
723.437	0.6
723.617	0.56
723.797	0.54
723.976	0.54
724.156	0.61
724.336	0.59
724.515	0.74
724.695	0.44
724.874	0.42
725.054	0.62
725.234	0.52
725.413	0.58
725.593	0.57
725.772	0.59
725.952	0.61
726.131	0.59
726.311	0.52
726.49	0.52
726.67	0.53
726.849	0.5
727.028	0.58
727.208	0.52
727.387	0.63
727.567	0.52
727.746	0.59
727.925	0.45
728.105	0.47
728.284	0.51
728.463	0.5
728.643	0.55
728.822	0.49
729.001	0.53
729.18	0.62
729.359	0.58
729.539	0.5
729.718	0.64
729.897	0.47
730.076	0.52
730.255	0.48
730.434	0.59
730.614	0.65
730.793	0.51
730.972	0.58
731.151	0.57
731.33	0.58
731.509	0.57
731.688	0.55
731.867	0.49
732.046	0.45
732.225	0.74
732.404	0.46
732.583	0.49
732.762	0.59
732.941	0.59
733.12	0.58
733.298	0.53
733.477	0.55
733.656	0.55
733.835	0.48
734.014	0.65
734.193	0.58
734.371	0.63
734.55	0.57
734.729	0.43
734.908	0.65
735.086	0.55
735.265	0.65
735.444	0.48
735.623	0.43
735.801	0.44
735.98	0.69
736.159	0.57
736.337	0.56
736.516	0.54
736.694	0.6
736.873	0.61
737.052	0.55
737.23	0.57
737.409	0.45
737.587	0.73
737.766	0.39
737.944	0.54
738.123	0.69
738.301	0.59
738.479	0.52
738.658	0.54
738.836	0.4
739.015	0.61
739.193	0.6
739.371	0.53
739.55	0.55
739.728	0.47
739.906	0.64
740.085	0.62
740.263	0.61
740.441	0.35
740.62	0.73
740.798	0.49
740.976	0.47
741.154	0.5
741.332	0.6
741.511	0.43
741.689	0.51
741.867	0.6
742.045	0.4
742.223	0.44
742.401	0.45
742.579	0.59
742.757	0.48
742.935	0.35
743.114	0.5
743.292	0.45
743.47	0.53
743.648	0.49
743.826	0.49
744.004	0.6
744.181	0.46
744.359	0.34
744.537	0.53
744.715	0.45
744.893	0.43
745.071	0.34
745.249	0.54
745.427	0.44
745.605	0.44
745.782	0.43
745.96	0.52
746.138	0.49
746.316	0.47
746.493	0.37
746.671	0.37
746.849	0.44
747.027	0.53
747.204	0.33
747.382	0.52
747.56	0.36
747.737	0.27
747.915	0.32
748.093	0.41
748.27	0.36
748.448	0.43
748.625	0.3
748.803	0.38
748.98	0.31
749.158	0.45
749.335	0.49
749.513	0.36
749.69	0.44
749.868	0.35
750.045	0.48
750.223	0.33
750.4	0.22
750.578	0.54
750.755	0.36
750.932	0.25
751.11	0.49
751.287	0.27
751.464	0.4
751.642	0.36
751.819	0.41
751.996	0.37
752.173	0.28
752.351	0.34
752.528	0.38
752.705	0.22
752.882	0.32
753.06	0.36
753.237	0.44
753.414	0.55
753.591	0.36
753.768	0.42
753.945	0.42
754.122	0.34
754.299	0.5
754.476	0.35
754.654	0.47
754.831	0.35
755.008	0.26
755.185	0.26
755.362	0.27
755.539	0.29
755.716	0.5
755.892	0.32
756.069	0.32
756.246	0.43
756.423	0.37
756.6	0.53
756.777	0.45
756.954	0.41
757.131	0.4
757.307	0.26
757.484	0.39
757.661	0.34
757.838	0.43
758.015	0.22
758.191	0.47
758.368	0.35
758.545	0.49
758.721	0.44
758.898	0.35
759.075	0.51
759.251	0.36
759.428	0.45
759.605	0.25
759.781	0.45
759.958	0.4
760.134	0.33
760.311	0.27
760.488	0.38
760.664	0.44
760.841	0.38
761.017	0.26
761.194	0.46
761.37	0.27
761.547	0.31
761.723	0.33
761.899	0.42
762.076	0.35
762.252	0.21
762.429	0.43
762.605	0.41
762.781	0.37
762.958	0.39
763.134	0.28
763.31	0.3
763.486	0.41
763.663	0.27
763.839	0.36
764.015	0.21
764.191	0.24
764.368	0.24
764.544	0.34
764.72	0.37
764.896	0.38
765.072	0.28
765.248	0.36
765.425	0.25
765.601	0.3
765.777	0.36
765.953	0.14
766.129	0.4
766.305	0.18
766.481	0.47
766.657	0.32
766.833	0.42
767.009	0.23
767.185	0.31
767.361	0.38
767.537	0.31
767.713	0.57
767.889	0.34
768.065	0.48
768.24	0.34
768.416	0.43
768.592	0.17
768.768	0.38
768.944	0.35
769.12	0.24
769.295	0.42
769.471	0.37
769.647	0.27
769.823	0.41
769.998	0.24
770.174	0.17
770.35	0.54
770.525	0.65
770.701	0.46
770.877	0.38
771.052	0.32
771.228	0.44
771.403	0.38
771.579	0.56
771.755	0.57
771.93	0.1
772.106	0.25
772.281	0.16
772.457	0.21
772.632	0.47
772.808	0.25
772.983	0.21
773.159	0.2
773.334	0.28
773.509	0.22
773.685	0.29
773.86	0.5
774.036	0.58
774.211	0.29
774.386	0.2
774.562	0.34
774.737	0.33
774.912	0.28
775.087	0.37
775.263	0.23
775.438	0.38
775.613	0.22
775.788	0.27
775.964	0.39
776.139	0.49
776.314	0.32
776.489	0.47
776.664	0.44
776.839	0.29
777.014	0.49
777.19	0.48
777.365	0.28
777.54	0.42
777.715	0.25
777.89	0.36
778.065	0.15
778.24	0.39
778.415	0.48
778.59	0.18
778.765	0.18
778.94	0.3
779.115	0.42
779.289	0.18
779.464	0.24
779.639	0.55
779.814	0.25
779.989	0.21
780.164	0.53
780.339	0.3
780.513	0.21
780.688	0.24
780.863	0.17
781.038	0.41
781.212	0.23
781.387	0.4
781.562	0.57
781.737	0.47
781.911	0.4
782.086	0.25
782.261	0.2
782.435	0.64
782.61	0.28
782.784	0.15
782.959	0.34
783.134	0.26
783.308	0.12
783.483	0.41
783.657	0.49
783.832	0.57
784.006	0.32
784.181	0.6
784.355	0.48
784.53	0.34
784.704	0.35
784.878	0.67
785.053	0.53
785.227	0.36
785.402	0.82
785.576	0.17
785.75	0.18
785.925	0.24
786.099	0.32
786.273	0.5
786.448	0.34
786.622	0.46
786.796	0.54
786.97	0.29
787.145	0.6
787.319	0.19
787.493	0.44
787.667	0.23
787.841	0.53
788.015	0.49
788.19	0.34
788.364	0.53
788.538	0.37
788.712	0.62
788.886	0.54
789.06	0.59
789.234	0.35
789.408	0.16
789.582	0.24
789.756	0.4
789.93	0.4
790.104	0.66
790.278	0.37
790.452	0.26
790.626	0.71
790.8	0.5
790.973	0.55
791.147	0.54
791.321	0.48
791.495	0.49
791.669	0.5
791.843	0.49
792.016	0.52
792.19	0.62
792.364	0.07
792.538	0.81
792.711	0.53
792.885	0.45
793.059	0.17
793.233	0.17
793.406	0.3
793.58	0.43
793.754	0.41
793.927	0.34
794.101	0.55
794.274	0.45
794.448	0.53
794.622	0.23
794.795	0.5
794.969	-0.08
795.142	0.91
795.316	0.14
795.489	0.62
795.663	0.91
795.836	0.42
796.009	0.32
796.183	0.58
796.356	0.37
796.53	0.38
796.703	0.24
796.876	0.79
797.05	0.37
797.223	0.6
797.396	0.65
797.57	0.42
797.743	0.59
797.916	0.56
798.09	0.39
798.263	0.45
798.436	0.61
798.609	0.39
798.782	0.43
798.956	0.15
799.129	0.39
799.302	0.15
799.475	0.32
799.648	0.17
799.821	0.28
799.994	0.62
800.167	0.15
800.34	0.38
800.514	0.42
800.687	0.37
800.86	0.41
801.033	0.25
801.206	0.22
801.379	0.21
801.551	0.63
801.724	0.76
801.897	0.35
802.07	0.41
802.243	0.33
802.416	0.63
802.589	0.38
802.762	0.58
802.935	0.37
803.107	0.66
803.28	0.51
803.453	0.62
803.626	0.44
803.798	0.56
803.971	0.23
804.144	0.84
804.317	0.62
804.489	0.78
804.662	0.36
804.835	0.7
805.007	0.29
805.18	1.02
805.353	0.56
805.525	0.15
805.698	0.55
805.87	0.62
806.043	0.38
806.215	0.48
806.388	0.51
806.56	0.84
806.733	0.53
806.905	0.52
807.078	0.69
807.25	0.08
807.423	0.27
807.595	0.48
807.768	0.48
807.94	0.88
808.112	0.42
808.285	0.69
808.457	0.23
808.629	0.51
808.802	0.58
808.974	0.53
809.146	0.59
809.318	-0.07
809.491	0.64
809.663	0.48
809.835	0.5
810.007	0.54
810.18	0.59
810.352	0.12
810.524	0.41
810.696	0.32
810.868	0.5
811.04	0.51
811.212	0.35
811.384	0.7
811.556	0.47
811.728	0.57
811.901	0.87
812.073	0.58
812.245	0.48
812.417	0.53
812.589	-0.16
812.76	0.36
812.932	0.86
813.104	0.89
813.276	0.49
813.448	0.46
813.62	0.62
813.792	0.53
813.964	0.68
814.136	0.49
814.307	0.44
814.479	0.58
814.651	0.63
814.823	0.9
814.995	0.49
815.166	0.59
815.338	0.51
815.51	0.06
815.681	0.95
815.853	0.59
816.025	0.46
816.196	1.36
816.368	0.5
816.54	1.1
816.711	0.24
816.883	0.59
817.054	1.22
817.226	0.23
817.398	0.75
817.569	0.22
817.741	0.78
817.912	0.69
818.084	0.29
818.255	1.03
818.426	0.28
818.598	0.75
818.769	0.77
818.941	0.47
819.112	0.86
819.283	1.08
819.455	0.48
819.626	0.69
819.798	0.33
819.969	0.49
820.14	0.74
820.311	0.13
820.483	0.62
820.654	0.59
820.825	0.78
820.996	0.3
821.168	0.39
821.339	0.54
821.51	0.62
821.681	0.6
821.852	0.37
822.023	0.09
822.195	0.13
822.366	0.71
822.537	0.57
822.708	0.58
822.879	0.59
823.05	1.32
823.221	0.13
823.392	0.57
823.563	0.72
823.734	0.75
823.905	0.64
824.076	0.14
824.247	0.15
824.418	0.38
824.589	1.21
824.759	0.45
824.93	0.77
825.101	0.7
825.272	1.25
825.443	1.17
825.614	1.15
825.784	0.38
825.955	1.49
826.126	1.5
826.297	0.52
826.467	1.94
826.638	0.72
826.809	0.62
826.98	1.22
827.15	0.71
827.321	0.57
827.492	0.93
827.662	1
827.833	1.16
828.003	0.67
828.174	-0.04
828.345	-0.17
828.515	0.49
828.686	1.2
828.856	0.4
829.027	0.37
829.197	0.77
829.368	1.11
829.538	0.67
829.709	0.48
829.879	1.21
830.049	0.78
830.22	0.46
830.39	1.09
830.56	0.8
830.731	0.93
830.901	0
831.072	0.58
831.242	0.9
831.412	0.29
831.582	1.03
831.753	0.31
831.923	0.68
832.093	-0.28
832.263	1.06
832.434	0.66
832.604	0.42
832.774	1.36
832.944	1.18
833.114	0.44
833.284	0.63
833.454	0.07
833.624	0.39
833.795	0.84
833.965	1.38
834.135	0.47
834.305	0.17
834.475	0.41
834.645	0.23
834.815	0.11
834.985	0.24
835.155	0.49
835.325	1.05
835.494	0.81
835.664	1.03
835.834	0.02
836.004	1
836.174	0.9
836.344	0.91
836.514	0.06
836.684	0.53
836.853	0.86
837.023	0.88
837.193	0.01
837.363	0.79
837.532	1.7
837.702	0.47
837.872	0.34
838.041	1.21
838.211	1.19
838.381	0.22
838.55	0.73
838.72	2.06
838.89	1.73
839.059	0.6
839.229	1.41
839.398	1.65
839.568	0.22
839.738	1.08
839.907	1.51
840.077	1.17
840.246	0.47
840.416	0.44
840.585	0.53
840.755	1.48
840.924	1.04
841.093	0.42
841.263	1
841.432	1.21
841.602	-0.02
841.771	0.89
841.94	1.21
842.11	2.07
842.279	1.78
842.448	0.07
842.617	0.55
842.787	2.44
842.956	-0.11
843.125	1.18
843.294	1.14
843.464	1.16
843.633	0.31
843.802	0.59
843.971	1.22
844.14	1.19
844.309	1.22
844.479	0.34
844.648	0.86
844.817	1.16
844.986	0.56
845.155	1.38
845.324	0.77
845.493	1.54
845.662	0.97
845.831	1.65
846	1.07
846.169	0.52
846.338	1.51
846.507	0.46
846.676	1.79
846.844	0.17
847.013	1.16
847.182	0.75
847.351	0.61
847.52	0.46
847.689	0.32
847.858	0.81
848.026	1.23
848.195	0.48
848.364	0.57
848.533	1.61
848.701	1.36
848.87	0.43
849.039	0.82
849.207	1.57
849.376	1.03
849.545	1.13
849.713	1.28
849.882	0.91
850.051	0.67
850.219	0.79
850.388	2.09
850.556	0.28
850.725	1.09
850.893	1.68
851.062	1.63
851.23	1.79
851.399	-0.44
851.567	0.5
851.736	1.06
851.904	-0.13
852.073	1.12
852.241	1.2
852.41	0.65
852.578	1.92
852.746	1.26
852.915	1.67
853.083	0.3
853.251	0.8
853.42	0.05
853.588	0.95
853.756	1.4
853.924	0.52
854.093	0.85
854.261	1.43
854.429	-0.24
854.597	1.63
854.765	1.17
854.934	0.64
855.102	1.63
855.27	0.81
855.438	2.54
855.606	1.48
855.774	0.88
855.942	-0.92
856.11	0.49
856.278	0.94
856.446	2.04
856.614	1.67
856.782	1.36
856.95	1.31
857.118	2.58
857.286	1.21
857.454	0.35
857.622	1.6
857.79	1.29
857.958	1.57
858.126	1.44
858.294	-0.04
858.462	2.21
858.629	0.87
858.797	0.6
858.965	0.89
859.133	2.44
859.301	1.19
859.468	1.66
859.636	-0.12
859.804	2.11
859.971	1.72
860.139	0.68
860.307	2.2
860.474	2.07
860.642	0.76
860.81	0.92
860.977	0.54
861.145	1.4
861.313	0.11
861.48	0.71
861.648	2.14
861.815	1.38
861.983	1.32
862.15	1.23
862.318	0.72
862.485	1.61
862.653	0.99
862.82	0.59
862.988	2.17
863.155	2.63
863.322	0.12
863.49	0.25
863.657	0.91
863.824	2.68
863.992	2.54
864.159	1.43
864.326	2.08
864.494	-0.67
864.661	3.56
864.828	0.5
864.996	1.27
865.163	4.2
865.33	-0.33
865.497	0.57
865.664	1.69
865.832	-0.22
865.999	1.12
866.166	1.25
866.333	0.35
866.5	1.82
866.667	0.52
866.834	1.25
867.001	3.08
867.168	0.23
867.335	1.4
867.502	-0.91
867.669	1.3
867.836	1.66
868.003	1.46
868.17	2.78
868.337	2.1
868.504	2.13
868.671	1.66
868.838	0.16
869.005	-0.16
869.172	2.43
869.339	1.92
869.505	2.85
869.672	0.34
869.839	3.05
870.006	3.02
870.173	-0.76
870.339	1.34
870.506	3.11
870.673	0.6
870.84	2.17
871.006	2.53
871.173	0.68
871.34	1.03
871.506	0.25
871.673	1.21
871.839	-0.07
872.006	1.7
872.173	2.13
872.339	-0.43
872.506	3.09
872.672	0.91
872.839	-0.09
873.005	1.28
873.172	3.66
873.338	3.08
873.505	2.07
873.671	0.77
873.838	1.91
874.004	1.83
874.171	0.1
874.337	1.04
874.503	1.75
874.67	3.27
874.836	1.48
875.002	2.93
875.169	2.03
875.335	2
875.501	1.82
875.668	1.74
875.834	0.03
876	2.15
876.166	3.68
876.332	2.33
876.499	1.91
876.665	0.78
876.831	2.55
876.997	1.77
877.163	1.5
877.329	0.49
877.495	1.37
877.662	3.49
877.828	2.25
877.994	1.78
878.16	0.2
878.326	0.16
878.492	0.48
878.658	1.38
878.824	1.89
878.99	2.71
879.156	0.09
879.322	5.35
879.487	1.94
879.653	4.56
879.819	0.07
879.985	2.21
880.151	1.26
880.317	1.72
880.483	2.07
880.648	4.25
880.814	0.07
880.98	2.7
881.146	1.7
881.312	1.31
881.477	1.85
881.643	5.31
881.809	3.4
881.974	4.3
882.14	-0.04
882.306	2.8
882.471	2.75
882.637	0.16
882.803	2.9
882.968	3.4
883.134	1.66
883.299	3.7
883.465	2.8
883.63	2.2
883.796	3.03
883.961	3.03
884.127	3.25
884.292	-1.51
884.458	-0.76
884.623	-0.76
