Data from Apollo_Calib_20240827__AbsoluteIrradiance__866__13-35-00-389.txt Node

Date: Wed Aug 28 13:35:00 BST 2024
User: biology
Spectrometer: FLMT08252
Trigger mode: 0
Integration Time (sec): 5.000000E-1
Scans to average: 5
Electric dark correction enabled: true
Nonlinearity correction enabled: false
Boxcar width: 0
XAxis mode: Wavelengths
Number of Pixels in Spectrum: 3648
>>>>>Begin Spectral Data<<<<<
179.588	-0
179.809	-0
180.03	-0
180.251	-0
180.473	-0
180.694	0
180.915	0
181.136	-0
181.357	0
181.578	-0
181.799	0
182.02	-0
182.241	-0
182.462	-0
182.683	0
182.904	-0
183.125	-0
183.346	0
183.567	0
183.788	0
184.009	0
184.23	0
184.451	0
184.672	0
184.892	0
185.113	0
185.334	0
185.555	0
185.776	0
185.996	0
186.217	0
186.438	0
186.659	0
186.879	0
187.1	0
187.321	0
187.541	0
187.762	0
187.983	0
188.203	0
188.424	0
188.644	0
188.865	0
189.086	0
189.306	0
189.527	0
189.747	0
189.968	0
190.188	0
190.409	0
190.629	0
190.849	0
191.07	0
191.29	0
191.511	0
191.731	0
191.951	0
192.172	0
192.392	0
192.612	0
192.833	0
193.053	0
193.273	0
193.493	0
193.714	0
193.934	0
194.154	0
194.374	0
194.594	0
194.815	0
195.035	0
195.255	0
195.475	0
195.695	0
195.915	0
196.135	0
196.355	0
196.575	0
196.795	0
197.015	0
197.235	0
197.455	0
197.675	0
197.895	0
198.115	0
198.335	0
198.555	0
198.775	0
198.995	0
199.214	0
199.434	0
199.654	0
199.874	0
200.094	4.34
200.313	2.58
200.533	1.1
200.753	1.5
200.973	3.99
201.192	3.39
201.412	1.03
201.632	1.59
201.851	3.63
202.071	1.84
202.291	1.79
202.51	0.99
202.73	2.9
202.95	1.99
203.169	1.55
203.389	1.6
203.608	2.05
203.828	1.54
204.047	1.72
204.267	2.1
204.486	2.27
204.706	2.19
204.925	1.49
205.145	1.51
205.364	2.37
205.583	2.37
205.803	1.4
206.022	0.98
206.242	1.88
206.461	1.22
206.68	1.35
206.9	1.74
207.119	2.48
207.338	2.25
207.557	1.01
207.777	0.92
207.996	1.52
208.215	1.79
208.434	1.12
208.654	0.77
208.873	1.7
209.092	2.28
209.311	1.05
209.53	1.22
209.749	1.21
209.968	1.01
210.187	0.99
210.407	0.7
210.626	1.17
210.845	1.57
211.064	1.11
211.283	0.8
211.502	1.57
211.721	1.23
211.94	0.85
212.159	1.29
212.377	1.4
212.596	1.43
212.815	1.05
213.034	1.02
213.253	1.6
213.472	1.43
213.691	1.03
213.91	0.71
214.128	0.78
214.347	1.69
214.566	0.54
214.785	0.47
215.003	1.38
215.222	1.32
215.441	0.88
215.66	0.41
215.878	1.05
216.097	1.33
216.316	0.78
216.534	0.7
216.753	1.14
216.972	0.9
217.19	0.65
217.409	0.69
217.627	0.84
217.846	0.88
218.064	0.82
218.283	0.67
218.501	1.42
218.72	1.39
218.938	0.54
219.157	0.66
219.375	1.14
219.594	1.05
219.812	0.59
220.031	0.42
220.249	1.12
220.467	1.28
220.686	0.5
220.904	0.68
221.122	0.55
221.341	1.2
221.559	0.77
221.777	0.43
221.995	0.84
222.214	0.86
222.432	0.61
222.65	0.83
222.868	0.68
223.086	0.64
223.305	0.89
223.523	0.72
223.741	1.08
223.959	0.56
224.177	0.28
224.395	0.54
224.613	0.87
224.831	0.8
225.049	0.5
225.267	0.45
225.485	0.69
225.703	0.57
225.921	0.58
226.139	0.52
226.357	0.86
226.575	0.86
226.793	0.5
227.011	1.56
227.229	0.79
227.447	0.99
227.665	0.53
227.883	0.36
228.1	0.59
228.318	0.78
228.536	0.27
228.754	0.44
228.972	0.81
229.189	0.88
229.407	0.54
229.625	0.58
229.843	0.94
230.06	0.74
230.278	0.54
230.496	0.65
230.713	0.58
230.931	0.78
231.149	0.49
231.366	0.3
231.584	0.6
231.801	0.99
232.019	0.33
232.236	0.32
232.454	0.45
232.671	0.74
232.889	0.52
233.106	0.44
233.324	0.63
233.541	0.48
233.759	0.61
233.976	0.43
234.194	0.56
234.411	0.48
234.628	0.41
234.846	0.42
235.063	0.56
235.28	0.56
235.498	0.37
235.715	0.33
235.932	0.87
236.149	0.53
236.367	0.45
236.584	0.49
236.801	0.51
237.018	0.63
237.236	0.43
237.453	0.29
237.67	0.71
237.887	0.53
238.104	0.4
238.321	0.36
238.538	0.32
238.755	0.71
238.973	0.25
239.19	0.57
239.407	0.62
239.624	0.47
239.841	0.4
240.058	0.32
240.275	0.55
240.492	0.56
240.709	0.34
240.925	0.47
241.142	0.53
241.359	0.31
241.576	0.33
241.793	0.39
242.01	0.42
242.227	0.66
242.444	0.47
242.66	0.5
242.877	0.56
243.094	0.4
243.311	0.42
243.527	0.36
243.744	0.48
243.961	0.5
244.178	0.37
244.394	0.35
244.611	0.62
244.828	0.6
245.044	0.38
245.261	0.37
245.477	0.62
245.694	0.6
245.911	0.39
246.127	0.43
246.344	0.65
246.56	0.67
246.777	0.35
246.993	0.4
247.21	0.39
247.426	0.51
247.643	0.34
247.859	0.28
248.076	0.36
248.292	0.7
248.508	0.4
248.725	0.47
248.941	0.53
249.157	0.6
249.374	0.3
249.59	0.38
249.806	0.46
250.023	0.64
250.239	0.38
250.455	0.32
250.671	0.47
250.888	0.5
251.104	0.45
251.32	0.27
251.536	0.44
251.752	0.4
251.969	0.36
252.185	0.36
252.401	0.73
252.617	0.49
252.833	0.34
253.049	0.38
253.265	0.38
253.481	0.46
253.697	0.32
253.913	0.24
254.129	0.45
254.345	0.5
254.561	0.3
254.777	0.33
254.993	0.49
255.209	0.4
255.425	0.34
255.641	0.35
255.857	0.45
256.073	0.43
256.288	0.22
256.504	0.28
256.72	0.45
256.936	0.58
257.152	0.29
257.367	0.28
257.583	0.36
257.799	0.47
258.015	0.32
258.23	0.28
258.446	0.64
258.662	0.46
258.877	0.34
259.093	0.31
259.309	0.43
259.524	0.52
259.74	0.3
259.955	0.22
260.171	0.42
260.387	0.36
260.602	0.44
260.818	0.37
261.033	0.29
261.249	0.4
261.464	0.3
261.68	0.29
261.895	0.42
262.11	0.43
262.326	0.29
262.541	0.25
262.757	0.5
262.972	0.39
263.187	0.42
263.403	0.41
263.618	0.46
263.833	0.43
264.049	0.28
264.264	0.31
264.479	0.43
264.694	0.54
264.91	0.26
265.125	0.36
265.34	0.44
265.555	0.57
265.77	0.34
265.986	0.25
266.201	0.41
266.416	0.52
266.631	0.26
266.846	0.26
267.061	0.43
267.276	0.44
267.491	0.14
267.706	0.41
267.921	0.35
268.136	0.44
268.351	0.31
268.566	0.18
268.781	0.49
268.996	0.46
269.211	0.3
269.426	0.25
269.641	0.33
269.856	0.43
270.071	0.25
270.285	0.2
270.5	0.41
270.715	0.4
270.93	0.3
271.145	0.36
271.359	0.43
271.574	0.31
271.789	0.35
272.004	0.27
272.218	0.33
272.433	0.47
272.648	0.29
272.862	0.39
273.077	0.32
273.292	0.38
273.506	0.25
273.721	0.27
273.936	0.33
274.15	0.39
274.365	0.3
274.579	0.41
274.794	0.43
275.008	0.4
275.223	0.26
275.437	0.33
275.652	0.41
275.866	0.41
276.081	0.32
276.295	0.39
276.509	0.39
276.724	0.33
276.938	0.32
277.153	0.36
277.367	0.42
277.581	0.32
277.796	0.28
278.01	0.25
278.224	0.41
278.438	0.48
278.653	0.25
278.867	0.22
279.081	0.2
279.295	0.33
279.51	0.31
279.724	0.18
279.938	0.39
280.152	0.38
280.366	0.26
280.58	0.29
280.794	0.44
281.008	0.36
281.222	0.33
281.437	0.57
281.651	0.38
281.865	0.41
282.079	0.29
282.293	0.2
282.507	0.3
282.721	0.29
282.935	0.27
283.148	0.23
283.362	0.3
283.576	0.24
283.79	0.26
284.004	0.2
284.218	0.36
284.432	0.29
284.646	0.26
284.859	0.28
285.073	0.27
285.287	0.39
285.501	0.27
285.714	0.24
285.928	0.35
286.142	0.34
286.356	0.25
286.569	0.27
286.783	0.47
286.997	0.35
287.21	0.27
287.424	0.22
287.637	0.32
287.851	0.24
288.065	0.33
288.278	0.27
288.492	0.3
288.705	0.25
288.919	0.29
289.132	0.18
289.346	0.37
289.559	0.25
289.773	0.21
289.986	0.24
290.2	0.27
290.413	0.35
290.626	0.23
290.84	0.22
291.053	0.24
291.267	0.36
291.48	0.3
291.693	0.3
291.906	0.27
292.12	0.34
292.333	0.23
292.546	0.23
292.76	0.38
292.973	0.29
293.186	0.32
293.399	0.22
293.612	0.34
293.826	0.27
294.039	0.23
294.252	0.27
294.465	0.39
294.678	0.33
294.891	0.27
295.104	0.2
295.317	0.24
295.53	0.3
295.743	0.26
295.956	0.26
296.169	0.37
296.382	0.36
296.595	0.23
296.808	0.17
297.021	0.37
297.234	0.37
297.447	0.23
297.66	0.27
297.873	0.34
298.086	0.33
298.299	0.23
298.511	0.16
298.724	0.23
298.937	0.26
299.15	0.21
299.363	0.21
299.575	0.32
299.788	0.32
300.001	0.24
300.213	0.25
300.426	0.2
300.639	0.28
300.852	0.19
301.064	0.35
301.277	0.37
301.489	0.29
301.702	0.29
301.915	0.27
302.127	0.24
302.34	0.28
302.552	0.31
302.765	0.21
302.977	0.32
303.19	0.23
303.402	0.22
303.615	0.25
303.827	0.25
304.04	0.26
304.252	0.27
304.464	0.23
304.677	0.39
304.889	0.33
305.102	0.23
305.314	0.21
305.526	0.28
305.739	0.33
305.951	0.21
306.163	0.22
306.375	0.36
306.588	0.25
306.8	0.25
307.012	0.16
307.224	0.33
307.436	0.37
307.649	0.17
307.861	0.21
308.073	0.3
308.285	0.21
308.497	0.19
308.709	0.23
308.921	0.29
309.133	0.32
309.346	0.24
309.558	0.22
309.77	0.31
309.982	0.34
310.194	0.3
310.406	0.2
310.617	0.32
310.829	0.27
311.041	0.34
311.253	0.18
311.465	0.24
311.677	0.28
311.889	0.22
312.101	0.19
312.313	0.35
312.524	0.36
312.736	0.12
312.948	0.23
313.16	0.33
313.372	0.33
313.583	0.29
313.795	0.21
314.007	0.25
314.218	0.32
314.43	0.27
314.642	0.21
314.853	0.18
315.065	0.28
315.277	0.25
315.488	0.27
315.7	0.35
315.912	0.28
316.123	0.29
316.335	0.22
316.546	0.4
316.758	0.25
316.969	0.21
317.181	0.24
317.392	0.27
317.604	0.32
317.815	0.26
318.026	0.23
318.238	0.2
318.449	0.29
318.661	0.16
318.872	0.16
319.083	0.24
319.295	0.25
319.506	0.24
319.717	0.28
319.929	0.31
320.14	0.28
320.351	0.24
320.562	0.2
320.774	0.3
320.985	0.27
321.196	0.23
321.407	0.17
321.618	0.3
321.829	0.29
322.041	0.27
322.252	0.25
322.463	0.3
322.674	0.32
322.885	0.24
323.096	0.25
323.307	0.27
323.518	0.28
323.729	0.22
323.94	0.26
324.151	0.23
324.362	0.3
324.573	0.29
324.784	0.2
324.995	0.33
325.206	0.28
325.417	0.25
325.628	0.21
325.838	0.24
326.049	0.29
326.26	0.3
326.471	0.26
326.682	0.28
326.892	0.25
327.103	0.16
327.314	0.21
327.525	0.35
327.735	0.3
327.946	0.23
328.157	0.17
328.368	0.35
328.578	0.24
328.789	0.33
328.999	0.28
329.21	0.25
329.421	0.3
329.631	0.16
329.842	0.25
330.052	0.24
330.263	0.33
330.473	0.36
330.684	0.22
330.894	0.31
331.105	0.27
331.315	0.25
331.526	0.15
331.736	0.35
331.947	0.31
332.157	0.28
332.367	0.15
332.578	0.36
332.788	0.34
332.999	0.3
333.209	0.28
333.419	0.18
333.629	0.29
333.84	0.28
334.05	0.25
334.26	0.34
334.47	0.28
334.681	0.32
334.891	0.19
335.101	0.29
335.311	0.39
335.521	0.25
335.732	0.18
335.942	0.32
336.152	0.29
336.362	0.28
336.572	0.24
336.782	0.34
336.992	0.23
337.202	0.26
337.412	0.21
337.622	0.31
337.832	0.27
338.042	0.28
338.252	0.2
338.462	0.24
338.672	0.29
338.882	0.2
339.092	0.27
339.302	0.36
339.511	0.32
339.721	0.23
339.931	0.19
340.141	0.28
340.351	0.31
340.561	0.29
340.77	0.26
340.98	0.33
341.19	0.3
341.4	0.24
341.609	0.19
341.819	0.23
342.029	0.17
342.238	0.28
342.448	0.21
342.658	0.27
342.867	0.23
343.077	0.25
343.286	0.27
343.496	0.23
343.706	0.34
343.915	0.2
344.125	0.26
344.334	0.26
344.544	0.19
344.753	0.22
344.963	0.22
345.172	0.22
345.381	0.24
345.591	0.21
345.8	0.23
346.01	0.31
346.219	0.34
346.428	0.13
346.638	0.27
346.847	0.23
347.056	0.36
347.266	0.19
347.475	0.2
347.684	0.3
347.893	0.31
348.103	0.3
348.312	0.2
348.521	0.28
348.73	0.28
348.94	0.25
349.149	0.18
349.358	0.25
349.567	0.19
349.776	0.18
349.985	0.21
350.194	0.3
350.403	0.34
350.612	0.16
350.821	0.16
351.03	0.27
351.239	0.16
351.448	0.27
351.657	0.2
351.866	0.33
352.075	0.27
352.284	0.32
352.493	0.21
352.702	0.33
352.911	0.28
353.12	0.27
353.329	0.21
353.538	0.24
353.746	0.25
353.955	0.21
354.164	0.3
354.373	0.24
354.582	0.29
354.79	0.23
354.999	0.27
355.208	0.26
355.416	0.33
355.625	0.19
355.834	0.21
356.042	0.24
356.251	0.23
356.46	0.2
356.668	0.25
356.877	0.37
357.085	0.29
357.294	0.16
357.503	0.28
357.711	0.25
357.92	0.44
358.128	0.27
358.337	0.23
358.545	0.27
358.754	0.23
358.962	0.27
359.17	0.18
359.379	0.32
359.587	0.3
359.796	0.27
360.004	0.32
360.212	0.27
360.421	0.34
360.629	0.28
360.837	0.23
361.046	0.33
361.254	0.34
361.462	0.24
361.67	0.17
361.879	0.31
362.087	0.35
362.295	0.29
362.503	0.23
362.711	0.19
362.92	0.25
363.128	0.18
363.336	0.2
363.544	0.19
363.752	0.24
363.96	0.22
364.168	0.22
364.376	0.26
364.584	0.27
364.792	0.36
365	0.28
365.208	0.26
365.416	0.3
365.624	0.28
365.832	0.21
366.04	0.35
366.248	0.24
366.456	0.25
366.664	0.26
366.872	0.28
367.079	0.26
367.287	0.25
367.495	0.24
367.703	0.25
367.911	0.25
368.118	0.22
368.326	0.23
368.534	0.19
368.742	0.32
368.949	0.2
369.157	0.24
369.365	0.27
369.572	0.25
369.78	0.24
369.988	0.29
370.195	0.26
370.403	0.28
370.61	0.24
370.818	0.23
371.026	0.36
371.233	0.22
371.441	0.28
371.648	0.23
371.856	0.27
372.063	0.28
372.271	0.19
372.478	0.23
372.685	0.24
372.893	0.31
373.1	0.24
373.308	0.23
373.515	0.37
373.722	0.33
373.93	0.23
374.137	0.27
374.344	0.38
374.552	0.3
374.759	0.27
374.966	0.25
375.173	0.29
375.381	0.33
375.588	0.25
375.795	0.21
376.002	0.25
376.209	0.26
376.417	0.24
376.624	0.29
376.831	0.29
377.038	0.27
377.245	0.21
377.452	0.25
377.659	0.28
377.866	0.25
378.073	0.27
378.28	0.24
378.487	0.29
378.694	0.34
378.901	0.26
379.108	0.22
379.315	0.34
379.522	0.42
379.729	0.27
379.936	0.26
380.143	0.32
380.35	0.31
380.557	0.26
380.763	0.26
380.97	0.28
381.177	0.28
381.384	0.28
381.591	0.21
381.797	0.29
382.004	0.34
382.211	0.27
382.418	0.22
382.624	0.31
382.831	0.31
383.038	0.25
383.244	0.32
383.451	0.27
383.658	0.29
383.864	0.23
384.071	0.23
384.277	0.33
384.484	0.25
384.69	0.34
384.897	0.24
385.103	0.22
385.31	0.24
385.516	0.25
385.723	0.2
385.929	0.3
386.136	0.33
386.342	0.28
386.549	0.25
386.755	0.32
386.961	0.31
387.168	0.24
387.374	0.22
387.58	0.38
387.787	0.29
387.993	0.27
388.199	0.29
388.406	0.26
388.612	0.28
388.818	0.22
389.024	0.24
389.231	0.29
389.437	0.41
389.643	0.32
389.849	0.28
390.055	0.27
390.261	0.32
390.467	0.31
390.674	0.24
390.88	0.26
391.086	0.38
391.292	0.26
391.498	0.35
391.704	0.27
391.91	0.3
392.116	0.27
392.322	0.2
392.528	0.35
392.734	0.27
392.94	0.32
393.146	0.26
393.352	0.31
393.557	0.29
393.763	0.31
393.969	0.39
394.175	0.29
394.381	0.39
394.587	0.23
394.792	0.3
394.998	0.37
395.204	0.37
395.41	0.29
395.615	0.3
395.821	0.33
396.027	0.33
396.233	0.25
396.438	0.35
396.644	0.39
396.85	0.33
397.055	0.31
397.261	0.34
397.466	0.38
397.672	0.36
397.878	0.39
398.083	0.36
398.289	0.3
398.494	0.46
398.7	0.37
398.905	0.27
399.111	0.45
399.316	0.27
399.522	0.34
399.727	0.33
399.932	0.29
400.138	0.33
400.343	0.39
400.549	0.33
400.754	0.41
400.959	0.37
401.165	0.3
401.37	0.4
401.575	0.35
401.78	0.41
401.986	0.33
402.191	0.35
402.396	0.35
402.601	0.43
402.807	0.41
403.012	0.34
403.217	0.46
403.422	0.42
403.627	0.41
403.832	0.35
404.037	0.5
404.243	0.44
404.448	0.39
404.653	0.44
404.858	0.46
405.063	0.48
405.268	0.45
405.473	0.41
405.678	0.44
405.883	0.7
406.088	0.46
406.293	0.35
406.498	0.44
406.703	0.48
406.907	0.46
407.112	0.47
407.317	0.51
407.522	0.6
407.727	0.48
407.932	0.59
408.136	0.67
408.341	0.57
408.546	0.66
408.751	0.59
408.956	0.56
409.16	0.68
409.365	0.58
409.57	0.64
409.774	0.67
409.979	0.69
410.184	0.71
410.388	0.64
410.593	0.76
410.798	0.76
411.002	0.7
411.207	0.77
411.411	0.82
411.616	0.75
411.82	0.82
412.025	0.86
412.229	0.87
412.434	0.96
412.638	0.93
412.843	0.95
413.047	1.03
413.252	0.99
413.456	1.01
413.66	1.07
413.865	1.06
414.069	1.18
414.273	1.09
414.478	1.18
414.682	1.24
414.886	1.25
415.091	1.2
415.295	1.27
415.499	1.45
415.703	1.36
415.908	1.49
416.112	1.36
416.316	1.62
416.52	1.55
416.724	1.58
416.929	1.66
417.133	1.9
417.337	1.72
417.541	1.83
417.745	1.87
417.949	1.97
418.153	2.08
418.357	1.96
418.561	2.27
418.765	2.23
418.969	2.35
419.173	2.48
419.377	2.46
419.581	2.7
419.785	2.74
419.989	2.72
420.193	2.85
420.397	2.89
420.601	3.14
420.804	3.16
421.008	3.1
421.212	3.29
421.416	3.27
421.62	3.35
421.823	3.38
422.027	3.56
422.231	3.56
422.435	3.54
422.638	3.65
422.842	3.7
423.046	3.8
423.249	3.97
423.453	3.97
423.657	4.23
423.86	4.31
424.064	4.44
424.268	4.59
424.471	4.61
424.675	4.81
424.878	4.85
425.082	4.89
425.285	5.23
425.489	5.2
425.692	5.37
425.896	5.35
426.099	5.6
426.303	5.68
426.506	5.85
426.71	6.02
426.913	6.24
427.116	6.41
427.32	6.45
427.523	6.52
427.726	6.86
427.93	6.89
428.133	7.21
428.336	7.25
428.54	7.45
428.743	7.76
428.946	7.92
429.149	8.04
429.353	8.02
429.556	8.11
429.759	8.2
429.962	8.24
430.165	8.49
430.368	8.08
430.571	8.14
430.775	8.25
430.978	8.14
431.181	8.19
431.384	8.34
431.587	8.42
431.79	8.82
431.993	8.79
432.196	9.04
432.399	9.31
432.602	9.54
432.805	9.63
433.008	10.07
433.211	10.04
433.414	10.35
433.616	10.44
433.819	10.39
434.022	10.54
434.225	10.75
434.428	10.77
434.631	11.17
434.833	10.88
435.036	11.18
435.239	11.3
435.442	11.41
435.645	11.56
435.847	11.69
436.05	12.04
436.253	12.23
436.455	12.33
436.658	12.12
436.861	12.42
437.063	12.49
437.266	12.5
437.468	12.92
437.671	13.34
437.874	13.25
438.076	13.03
438.279	13.44
438.481	13.55
438.684	14.26
438.886	13.94
439.089	14.18
439.291	14.28
439.494	14.58
439.696	14.77
439.899	15.39
440.101	15.71
440.303	15.85
440.506	16.56
440.708	16.4
440.91	16.65
441.113	16.76
441.315	17.24
441.517	16.75
441.72	17.25
441.922	17.05
442.124	16.87
442.326	17.21
442.529	17.53
442.731	17.49
442.933	17.75
443.135	17.53
443.337	17.59
443.539	18.11
443.742	17.67
443.944	18.38
444.146	18.28
444.348	18.19
444.55	18.08
444.752	18.19
444.954	18.11
445.156	18.14
445.358	18.58
445.56	18.75
445.762	18.5
445.964	18.77
446.166	18.57
446.368	18.55
446.57	18.69
446.772	18.22
446.974	18.13
447.175	18.4
447.377	18.03
447.579	18.31
447.781	18.04
447.983	17.83
448.184	17.33
448.386	17.81
448.588	17.28
448.79	17.19
448.991	17.49
449.193	17.43
449.395	16.85
449.597	16.43
449.798	16.26
450	15.84
450.202	15.8
450.403	15.66
450.605	15.63
450.806	15.25
451.008	15.06
451.21	14.92
451.411	14.49
451.613	13.75
451.814	13.99
452.016	13.99
452.217	13.22
452.419	13.26
452.62	12.91
452.821	12.63
453.023	12.52
453.224	12.26
453.426	11.76
453.627	10.98
453.828	11.11
454.03	11.16
454.231	11.14
454.432	10.85
454.634	10.75
454.835	10.38
455.036	10.31
455.238	9.89
455.439	9.73
455.64	9.39
455.841	9.34
456.042	9.44
456.244	9.16
456.445	8.86
456.646	8.59
456.847	8.56
457.048	8.39
457.249	8.39
457.45	8.32
457.651	7.66
457.852	7.61
458.054	7.24
458.255	7.16
458.456	7.19
458.657	7.16
458.858	6.67
459.058	6.64
459.259	6.65
459.46	6.43
459.661	6.35
459.862	6.45
460.063	6.27
460.264	6.17
460.465	5.96
460.666	6.08
460.866	5.73
461.067	5.46
461.268	5.42
461.469	5.41
461.67	5.32
461.87	5.13
462.071	5.18
462.272	5.08
462.473	5.17
462.673	5.22
462.874	5.08
463.075	5.06
463.275	5.11
463.476	5.12
463.676	5
463.877	4.89
464.078	4.95
464.278	4.95
464.479	4.83
464.679	4.7
464.88	4.66
465.08	4.7
465.281	4.49
465.481	4.28
465.682	4.04
465.882	4.12
466.083	4.07
466.283	4.01
466.483	3.89
466.684	3.71
466.884	3.59
467.085	3.59
467.285	3.72
467.485	3.53
467.686	3.55
467.886	3.4
468.086	3.37
468.286	3.31
468.487	3.45
468.687	3.21
468.887	3.22
469.087	3.37
469.287	3.26
469.488	3.05
469.688	3.15
469.888	3.19
470.088	3.14
470.288	3.05
470.488	3.07
470.688	2.88
470.888	2.8
471.088	2.7
471.288	2.74
471.488	2.73
471.688	2.76
471.888	2.6
472.088	2.83
472.288	2.68
472.488	2.5
472.688	2.58
472.888	2.66
473.088	2.59
473.288	2.44
473.488	2.47
473.688	2.59
473.887	2.49
474.087	2.42
474.287	2.44
474.487	2.41
474.687	2.41
474.886	2.32
475.086	2.26
475.286	2.32
475.486	2.26
475.685	2.3
475.885	2.17
476.085	2.27
476.284	2.25
476.484	2.26
476.684	2.18
476.883	2.32
477.083	2.19
477.282	2.08
477.482	2.13
477.681	2.18
477.881	2.12
478.08	2.05
478.28	2
478.479	2.1
478.679	2.13
478.878	2.03
479.078	2.06
479.277	2.08
479.477	2.04
479.676	2.03
479.875	2.01
480.075	1.97
480.274	2.04
480.473	2.06
480.673	1.98
480.872	2.06
481.071	2.04
481.271	2.05
481.47	1.95
481.669	1.99
481.868	1.99
482.067	1.98
482.267	1.9
482.466	1.91
482.665	1.91
482.864	1.95
483.063	1.89
483.262	2.08
483.461	2.04
483.661	2.03
483.86	1.99
484.059	2.07
484.258	2.05
484.457	2.01
484.656	1.99
484.855	2.09
485.054	1.93
485.253	2
485.452	1.98
485.651	2.08
485.849	2.01
486.048	1.99
486.247	2.05
486.446	2.09
486.645	2.03
486.844	2.07
487.043	2.08
487.241	2.1
487.44	2.11
487.639	2.11
487.838	2.13
488.037	2.12
488.235	2.25
488.434	2.1
488.633	2.05
488.831	2.24
489.03	2.22
489.229	2.21
489.427	2.22
489.626	2.3
489.825	2.28
490.023	2.26
490.222	2.26
490.42	2.31
490.619	2.39
490.817	2.37
491.016	2.35
491.214	2.43
491.413	2.41
491.611	2.35
491.81	2.38
492.008	2.46
492.207	2.5
492.405	2.52
492.604	2.51
492.802	2.53
493	2.63
493.199	2.63
493.397	2.63
493.595	2.67
493.794	2.7
493.992	2.79
494.19	2.77
494.388	2.82
494.587	2.78
494.785	2.78
494.983	2.71
495.181	2.9
495.379	2.94
495.578	2.98
495.776	2.96
495.974	2.96
496.172	2.94
496.37	3.09
496.568	3.05
496.766	3.1
496.964	3.19
497.162	3.18
497.36	3.21
497.558	3.27
497.756	3.28
497.954	3.3
498.152	3.41
498.35	3.42
498.548	3.4
498.746	3.37
498.944	3.42
499.142	3.45
499.34	3.49
499.538	3.6
499.736	3.51
499.933	3.68
500.131	3.66
500.329	3.75
500.527	3.78
500.725	3.87
500.922	3.94
501.12	3.9
501.318	3.94
501.516	3.91
501.713	4.04
501.911	4
502.109	3.95
502.306	4.09
502.504	4.06
502.701	4.11
502.899	4.15
503.097	4.37
503.294	4.2
503.492	4.32
503.689	4.36
503.887	4.37
504.084	4.49
504.282	4.45
504.479	4.44
504.677	4.63
504.874	4.57
505.072	4.49
505.269	4.68
505.466	4.71
505.664	4.73
505.861	4.67
506.059	4.77
506.256	4.79
506.453	4.85
506.651	5
506.848	5.02
507.045	4.99
507.242	5.02
507.44	5.07
507.637	5.11
507.834	5.02
508.031	5.25
508.229	5.15
508.426	5.1
508.623	5.32
508.82	5.38
509.017	5.29
509.214	5.25
509.411	5.41
509.608	5.37
509.805	5.52
510.003	5.47
510.2	5.51
510.397	5.69
510.594	5.56
510.791	5.65
510.988	5.61
511.184	5.62
511.381	5.57
511.578	5.67
511.775	5.85
511.972	5.75
512.169	5.87
512.366	5.86
512.563	6.02
512.76	5.94
512.956	6
513.153	5.96
513.35	5.93
513.547	5.92
513.744	6.08
513.94	6.07
514.137	6.18
514.334	6.1
514.53	6.13
514.727	6.42
514.924	6.32
515.12	6.24
515.317	6.34
515.514	6.21
515.71	6.25
515.907	6.49
516.103	6.42
516.3	6.36
516.497	6.52
516.693	6.51
516.89	6.54
517.086	6.51
517.283	6.6
517.479	6.42
517.676	6.62
517.872	6.63
518.068	6.69
518.265	6.63
518.461	6.62
518.658	6.78
518.854	6.73
519.05	6.77
519.247	6.83
519.443	6.79
519.639	6.91
519.836	6.87
520.032	6.79
520.228	6.92
520.424	6.92
520.621	6.95
520.817	6.96
521.013	6.88
521.209	7.11
521.405	7.11
521.601	7.05
521.798	7.04
521.994	7.05
522.19	6.95
522.386	7.04
522.582	7.12
522.778	7.29
522.974	7.11
523.17	7.14
523.366	7.1
523.562	7.2
523.758	7.22
523.954	7.06
524.15	7.24
524.346	7.34
524.542	7.25
524.738	7.21
524.934	7.38
525.129	7.43
525.325	7.25
525.521	7.25
525.717	7.53
525.913	7.34
526.109	7.4
526.304	7.45
526.5	7.43
526.696	7.51
526.892	7.37
527.087	7.57
527.283	7.51
527.479	7.51
527.674	7.39
527.87	7.57
528.066	7.53
528.261	7.6
528.457	7.51
528.653	7.68
528.848	7.59
529.044	7.69
529.239	7.54
529.435	7.54
529.63	7.54
529.826	7.56
530.021	7.56
530.217	7.68
530.412	7.56
530.608	7.64
530.803	7.66
530.999	7.55
531.194	7.61
531.389	7.71
531.585	7.7
531.78	7.82
531.975	7.73
532.171	7.79
532.366	7.81
532.561	7.82
532.757	7.76
532.952	7.93
533.147	7.69
533.342	7.81
533.538	7.69
533.733	7.95
533.928	7.61
534.123	7.76
534.318	7.89
534.513	7.76
534.709	7.89
534.904	7.9
535.099	7.93
535.294	7.93
535.489	7.94
535.684	7.87
535.879	7.87
536.074	7.96
536.269	7.96
536.464	7.99
536.659	7.9
536.854	7.94
537.049	7.98
537.244	7.93
537.439	7.9
537.634	7.91
537.828	8.02
538.023	7.98
538.218	8
538.413	7.86
538.608	8
538.803	7.93
538.997	7.91
539.192	8.03
539.387	7.93
539.582	7.91
539.776	7.83
539.971	8.03
540.166	8.09
540.36	7.95
540.555	8.14
540.75	8.04
540.944	8.06
541.139	8
541.334	8.01
541.528	8.03
541.723	8.15
541.917	8.12
542.112	7.95
542.306	7.86
542.501	7.91
542.695	8.01
542.89	7.96
543.084	8
543.279	8.11
543.473	8.13
543.668	8.07
543.862	7.99
544.056	7.96
544.251	8.08
544.445	8.16
544.64	8.17
544.834	7.83
545.028	7.67
545.222	8.1
545.417	8.25
545.611	8.09
545.805	8.11
546	7.9
546.194	8.14
546.388	8.11
546.582	7.98
546.776	8.07
546.97	8.14
547.165	8.08
547.359	8.04
547.553	8.03
547.747	8.04
547.941	8.25
548.135	8.07
548.329	8.11
548.523	8.13
548.717	8.09
548.911	8.06
549.105	8.03
549.299	8.12
549.493	8.11
549.687	7.96
549.881	8.2
550.075	8.09
550.269	7.97
550.463	8.11
550.657	8.08
550.85	8.09
551.044	8.04
551.238	8.13
551.432	8.07
551.626	8.14
551.82	8.13
552.013	8.03
552.207	8.14
552.401	8.16
552.594	8.07
552.788	8.06
552.982	8.07
553.176	8.07
553.369	8.27
553.563	8.15
553.756	8.15
553.95	8.16
554.144	8.2
554.337	8.2
554.531	7.94
554.724	8.12
554.918	8.15
555.111	8.11
555.305	8.15
555.498	8.09
555.692	8.22
555.885	8.14
556.079	8.11
556.272	8.08
556.466	8.14
556.659	8.07
556.852	8.2
557.046	8.05
557.239	8
557.432	8.06
557.626	8.14
557.819	8.24
558.012	8.19
558.206	8.19
558.399	8.19
558.592	8.08
558.785	8.02
558.979	8.14
559.172	8.14
559.365	8.13
559.558	8.07
559.751	8.06
559.944	8.28
560.138	8.09
560.331	8.2
560.524	8.19
560.717	8.07
560.91	8.1
561.103	8.08
561.296	8.02
561.489	8.09
561.682	8.15
561.875	8.2
562.068	8.2
562.261	7.97
562.454	8.28
562.647	8.07
562.84	8.13
563.032	8.19
563.225	8.04
563.418	8.09
563.611	8.17
563.804	8.13
563.997	7.99
564.19	7.95
564.382	8.12
564.575	8.17
564.768	8.08
564.961	8.21
565.153	8.09
565.346	7.99
565.539	8.15
565.731	8.16
565.924	8.17
566.117	8.3
566.309	8.16
566.502	8.01
566.695	7.95
566.887	8.15
567.08	8.13
567.272	8.11
567.465	7.99
567.657	8.18
567.85	7.99
568.042	8.13
568.235	8.13
568.427	7.91
568.62	8.09
568.812	8.03
569.005	8.12
569.197	7.99
569.389	8.07
569.582	8.07
569.774	8.08
569.966	8
570.159	8.03
570.351	7.96
570.543	8.01
570.736	8.01
570.928	7.84
571.12	8.17
571.312	7.94
571.505	7.81
571.697	8.02
571.889	8.05
572.081	8.01
572.273	7.99
572.465	7.98
572.658	7.99
572.85	8.04
573.042	8.01
573.234	7.96
573.426	7.93
573.618	7.97
573.81	7.92
574.002	7.96
574.194	8
574.386	7.91
574.578	7.8
574.77	7.84
574.962	8
575.154	7.81
575.346	7.87
575.538	7.84
575.729	7.87
575.921	7.88
576.113	8.02
576.305	7.88
576.497	8.02
576.689	7.79
576.88	7.8
577.072	7.98
577.264	7.87
577.456	7.92
577.647	7.81
577.839	7.98
578.031	7.9
578.223	7.84
578.414	7.74
578.606	7.88
578.798	7.98
578.989	7.88
579.181	7.9
579.372	7.88
579.564	7.86
579.755	7.77
579.947	7.7
580.139	7.88
580.33	7.65
580.522	7.81
580.713	7.72
580.905	7.7
581.096	7.83
581.287	7.75
581.479	7.68
581.67	7.79
581.862	7.71
582.053	7.75
582.244	7.64
582.436	7.86
582.627	7.7
582.818	7.63
583.01	7.58
583.201	7.71
583.392	7.65
583.583	7.6
583.775	7.53
583.966	7.55
584.157	7.64
584.348	7.72
584.54	7.6
584.731	7.66
584.922	7.56
585.113	7.45
585.304	7.55
585.495	7.61
585.686	7.67
585.877	7.62
586.068	7.63
586.259	7.56
586.45	7.62
586.641	7.51
586.832	7.62
587.023	7.52
587.214	7.53
587.405	7.6
587.596	7.45
587.787	7.43
587.978	7.48
588.169	7.38
588.36	7.32
588.551	7.42
588.742	7.46
588.932	7.55
589.123	7.28
589.314	7.48
589.505	7.43
589.696	7.39
589.886	7.32
590.077	7.39
590.268	7.27
590.458	7.27
590.649	7.19
590.84	7.29
591.03	7.35
591.221	7.31
591.412	7.12
591.602	7.36
591.793	7.28
591.984	7.3
592.174	7.26
592.365	7.34
592.555	7.09
592.746	7.15
592.936	7.17
593.127	7.2
593.317	7.22
593.508	7.18
593.698	7.12
593.889	7.09
594.079	7.1
594.269	7.05
594.46	7.04
594.65	7.1
594.84	7.08
595.031	7.03
595.221	6.99
595.411	6.97
595.602	7.07
595.792	6.95
595.982	6.91
596.172	7.1
596.363	6.92
596.553	6.88
596.743	6.97
596.933	6.96
597.123	6.92
597.314	6.77
597.504	6.79
597.694	6.93
597.884	6.9
598.074	6.88
598.264	6.84
598.454	6.88
598.644	6.84
598.834	6.75
599.024	6.63
599.214	6.74
599.404	6.76
599.594	6.74
599.784	6.64
599.974	6.75
600.164	6.74
600.354	6.66
600.544	6.58
600.734	6.67
600.924	6.6
601.114	6.54
601.303	6.49
601.493	6.57
601.683	6.57
601.873	6.58
602.063	6.49
602.252	6.51
602.442	6.39
602.632	6.44
602.821	6.38
603.011	6.5
603.201	6.38
603.39	6.41
603.58	6.34
603.77	6.43
603.959	6.48
604.149	6.34
604.339	6.32
604.528	6.48
604.718	6.4
604.907	6.31
605.097	6.26
605.286	6.24
605.476	6.29
605.665	6.32
605.855	6.2
606.044	6.31
606.234	6.32
606.423	6.18
606.612	6.17
606.802	6.21
606.991	6.2
607.181	6.15
607.37	6.17
607.559	5.92
607.749	6.2
607.938	6.04
608.127	6
608.316	6.01
608.506	6.02
608.695	6.05
608.884	6.04
609.073	6.03
609.263	6.09
609.452	6.02
609.641	5.89
609.83	5.85
610.019	5.95
610.208	5.87
610.397	5.84
610.586	5.91
610.775	5.78
610.965	5.88
611.154	5.76
611.343	5.83
611.532	5.72
611.721	5.91
611.91	5.69
612.099	5.66
612.287	5.69
612.476	5.58
612.665	5.75
612.854	5.66
613.043	5.67
613.232	5.66
613.421	5.61
613.61	5.66
613.798	5.59
613.987	5.62
614.176	5.58
614.365	5.58
614.554	5.56
614.742	5.55
614.931	5.43
615.12	5.58
615.309	5.53
615.497	5.37
615.686	5.28
615.875	5.41
616.063	5.4
616.252	5.34
616.44	5.31
616.629	5.29
616.818	5.37
617.006	5.27
617.195	5.25
617.383	5.28
617.572	5.14
617.76	5.23
617.949	5.18
618.137	5.23
618.326	5.33
618.514	5.07
618.703	5.05
618.891	5.18
619.079	5.07
619.268	5.2
619.456	5.05
619.644	5.12
619.833	5.09
620.021	4.98
620.209	4.91
620.398	5.08
620.586	4.97
620.774	5.01
620.962	5.02
621.151	5.05
621.339	4.99
621.527	4.83
621.715	4.8
621.903	4.89
622.092	4.77
622.28	4.95
622.468	4.71
622.656	4.79
622.844	4.81
623.032	4.8
623.22	4.69
623.408	4.83
623.596	4.72
623.784	4.81
623.972	4.62
624.16	4.69
624.348	4.79
624.536	4.7
624.724	4.51
624.912	4.62
625.1	4.55
625.288	4.59
625.476	4.54
625.664	4.62
625.851	4.5
626.039	4.55
626.227	4.5
626.415	4.58
626.603	4.38
626.79	4.55
626.978	4.43
627.166	4.49
627.354	4.3
627.541	4.42
627.729	4.27
627.917	4.49
628.104	4.5
628.292	4.25
628.48	4.35
628.667	4.35
628.855	4.37
629.042	4.33
629.23	4.22
629.418	4.21
629.605	4.23
629.793	4.16
629.98	4.18
630.168	4.18
630.355	4.24
630.543	4.16
630.73	4.08
630.917	4.1
631.105	4.18
631.292	4.11
631.48	4.07
631.667	4.22
631.854	4.06
632.042	3.99
632.229	3.96
632.416	4.02
632.604	3.98
632.791	3.89
632.978	3.99
633.165	3.98
633.353	3.98
633.54	3.97
633.727	3.82
633.914	3.82
634.101	3.84
634.289	3.93
634.476	3.78
634.663	3.75
634.85	3.84
635.037	3.77
635.224	3.65
635.411	3.85
635.598	3.73
635.785	3.72
635.972	3.69
636.159	3.75
636.346	3.65
636.533	3.59
636.72	3.65
636.907	3.59
637.094	3.71
637.281	3.59
637.468	3.6
637.655	3.62
637.842	3.57
638.029	3.53
638.215	3.53
638.402	3.54
638.589	3.49
638.776	3.41
638.963	3.43
639.149	3.56
639.336	3.58
639.523	3.47
639.709	3.46
639.896	3.32
640.083	3.42
640.27	3.43
640.456	3.34
640.643	3.38
640.829	3.25
641.016	3.29
641.203	3.24
641.389	3.34
641.576	3.36
641.762	3.23
641.949	3.25
642.135	3.25
642.322	3.24
642.508	3.07
642.695	3.2
642.881	3.14
643.068	3.19
643.254	3.11
643.441	3.16
643.627	3.23
643.813	3.07
644	3.15
644.186	3.02
644.372	3.06
644.559	3.11
644.745	3.02
644.931	3.02
645.118	3.01
645.304	3.02
645.49	3.01
645.676	2.93
645.862	2.96
646.049	3.06
646.235	2.98
646.421	3.08
646.607	3.04
646.793	2.92
646.979	2.83
647.165	2.91
647.352	2.9
647.538	2.94
647.724	2.86
647.91	2.82
648.096	2.87
648.282	2.89
648.468	2.78
648.654	2.87
648.84	2.82
649.026	2.78
649.212	2.73
649.397	2.7
649.583	2.76
649.769	2.73
649.955	2.69
650.141	2.74
650.327	2.69
650.513	2.65
650.698	2.67
650.884	2.52
651.07	2.71
651.256	2.62
651.442	2.57
651.627	2.5
651.813	2.63
651.999	2.61
652.184	2.57
652.37	2.55
652.556	2.55
652.741	2.62
652.927	2.42
653.113	2.5
653.298	2.48
653.484	2.48
653.669	2.42
653.855	2.44
654.04	2.55
654.226	2.46
654.412	2.44
654.597	2.32
654.782	2.47
654.968	2.46
655.153	2.38
655.339	2.37
655.524	2.36
655.71	2.43
655.895	2.37
656.08	2.39
656.266	2.36
656.451	2.36
656.636	2.25
656.822	2.32
657.007	2.3
657.192	2.3
657.378	2.25
657.563	2.24
657.748	2.24
657.933	2.29
658.118	2.18
658.304	2.3
658.489	2.27
658.674	2.19
658.859	2.1
659.044	2.19
659.229	2.23
659.414	2.18
659.599	2.17
659.785	2.05
659.97	2.15
660.155	2.17
660.34	2.12
660.525	2.1
660.71	2.12
660.895	2.13
661.08	2.08
661.264	2.03
661.449	2.17
661.634	2.01
661.819	2.08
662.004	2
662.189	1.97
662.374	2.02
662.559	1.93
662.743	1.92
662.928	2.02
663.113	1.94
663.298	1.94
663.483	1.96
663.667	1.97
663.852	1.9
664.037	1.94
664.221	1.86
664.406	1.98
664.591	1.98
664.775	1.91
664.96	1.84
665.145	1.87
665.329	1.94
665.514	1.88
665.698	1.8
665.883	1.75
666.068	1.91
666.252	1.89
666.437	1.76
666.621	1.8
666.806	1.83
666.99	1.79
667.174	1.77
667.359	1.88
667.543	1.81
667.728	1.77
667.912	1.67
668.096	1.75
668.281	1.72
668.465	1.76
668.649	1.73
668.834	1.7
669.018	1.7
669.202	1.74
669.387	1.68
669.571	1.79
669.755	1.66
669.939	1.72
670.124	1.65
670.308	1.75
670.492	1.68
670.676	1.67
670.86	1.62
671.044	1.59
671.228	1.71
671.413	1.59
671.597	1.57
671.781	1.57
671.965	1.66
672.149	1.62
672.333	1.6
672.517	1.55
672.701	1.62
672.885	1.59
673.069	1.46
673.253	1.64
673.437	1.51
673.621	1.54
673.804	1.54
673.988	1.6
674.172	1.5
674.356	1.38
674.54	1.48
674.724	1.66
674.908	1.5
675.091	1.51
675.275	1.43
675.459	1.54
675.643	1.48
675.826	1.45
676.01	1.43
676.194	1.45
676.377	1.52
676.561	1.49
676.745	1.48
676.928	1.5
677.112	1.45
677.296	1.37
677.479	1.41
677.663	1.34
677.846	1.41
678.03	1.39
678.213	1.35
678.397	1.46
678.58	1.34
678.764	1.36
678.947	1.34
679.131	1.39
679.314	1.4
679.498	1.36
679.681	1.38
679.865	1.42
680.048	1.32
680.231	1.35
680.415	1.25
680.598	1.26
680.781	1.28
680.965	1.29
681.148	1.3
681.331	1.29
681.514	1.29
681.698	1.27
681.881	1.24
682.064	1.3
682.247	1.34
682.43	1.15
682.614	1.24
682.797	1.29
682.98	1.29
683.163	1.22
683.346	1.21
683.529	1.15
683.712	1.18
683.895	1.21
684.078	1.08
684.261	1.18
684.444	1.27
684.627	1.22
684.81	1.16
684.993	1.12
685.176	1.25
685.359	1.12
685.542	1.13
685.725	1.25
685.908	1.21
686.091	1.13
686.274	1.17
686.457	1.2
686.639	1.08
686.822	1.2
687.005	1.15
687.188	1.19
687.371	1.25
687.553	1.2
687.736	1.1
687.919	1.23
688.102	1.23
688.284	1.09
688.467	1.05
688.65	1.12
688.832	1.07
689.015	1.08
689.197	0.97
689.38	1.22
689.563	1.19
689.745	1
689.928	1.02
690.11	1.03
690.293	1.09
690.475	0.92
690.658	1.01
690.84	1.03
691.023	0.96
691.205	0.99
691.388	1
691.57	1.08
691.752	1.04
691.935	0.88
692.117	0.93
692.3	1.06
692.482	0.97
692.664	0.91
692.847	0.99
693.029	1.06
693.211	0.98
693.393	0.96
693.576	0.85
693.758	0.97
693.94	0.96
694.122	0.93
694.304	0.9
694.487	0.93
694.669	1.03
694.851	0.89
695.033	0.92
695.215	0.92
695.397	0.91
695.579	0.88
695.761	0.89
695.943	0.85
696.125	0.98
696.308	0.94
696.49	0.8
696.671	1.03
696.853	0.86
697.035	1.15
697.217	0.88
697.399	1.02
697.581	0.83
697.763	0.9
697.945	0.76
698.127	0.9
698.309	0.96
698.491	0.85
698.672	0.94
698.854	0.93
699.036	0.98
699.218	0.84
699.399	0.92
699.581	0.93
699.763	0.82
699.945	0.83
700.126	0.78
700.308	0.93
700.49	0.77
700.671	0.7
700.853	0.71
701.035	0.83
701.216	0.78
701.398	0.74
701.579	0.78
701.761	0.86
701.943	0.74
702.124	0.71
702.306	0.79
702.487	0.94
702.669	0.82
702.85	0.7
703.031	0.73
703.213	0.93
703.394	0.86
703.576	0.7
703.757	0.92
703.938	0.78
704.12	1.03
704.301	0.77
704.483	0.7
704.664	0.8
704.845	0.85
705.026	0.79
705.208	0.7
705.389	0.82
705.57	0.79
705.751	0.71
705.933	0.75
706.114	0.89
706.295	0.73
706.476	0.71
706.657	0.86
706.838	0.8
707.02	0.82
707.201	0.72
707.382	0.7
707.563	0.83
707.744	0.66
707.925	0.66
708.106	0.73
708.287	0.74
708.468	0.82
708.649	0.72
708.83	0.8
709.011	0.68
709.192	0.82
709.373	0.58
709.554	0.62
709.734	0.78
709.915	0.79
710.096	0.69
710.277	0.52
710.458	0.68
710.639	0.73
710.819	0.55
711	0.64
711.181	0.66
711.362	0.73
711.542	0.66
711.723	0.66
711.904	0.79
712.085	0.69
712.265	0.65
712.446	0.6
712.627	0.63
712.807	0.66
712.988	0.72
713.168	0.53
713.349	0.78
713.53	0.52
713.71	0.55
713.891	0.53
714.071	0.66
714.252	0.61
714.432	0.57
714.613	0.54
714.793	0.63
714.974	0.69
715.154	0.62
715.334	0.63
715.515	0.81
715.695	0.53
715.876	0.65
716.056	0.57
716.236	0.5
716.417	0.6
716.597	0.54
716.777	0.89
716.957	0.58
717.138	0.68
717.318	0.62
717.498	0.46
717.678	0.67
717.859	0.63
718.039	0.48
718.219	0.6
718.399	0.68
718.579	0.5
718.759	0.57
718.939	0.6
719.12	0.64
719.3	0.51
719.48	0.4
719.66	0.41
719.84	0.76
720.02	0.52
720.2	0.5
720.38	0.5
720.56	0.77
720.74	0.49
720.92	0.55
721.1	0.67
721.279	0.64
721.459	0.55
721.639	0.39
721.819	0.54
721.999	0.54
722.179	0.56
722.359	0.36
722.538	0.57
722.718	0.56
722.898	0.53
723.078	0.54
723.257	0.39
723.437	0.56
723.617	0.53
723.797	0.54
723.976	0.51
724.156	0.61
724.336	0.63
724.515	0.74
724.695	0.39
724.874	0.56
725.054	0.64
725.234	0.48
725.413	0.56
725.593	0.5
725.772	0.47
725.952	0.53
726.131	0.54
726.311	0.44
726.49	0.45
726.67	0.45
726.849	0.38
727.028	0.6
727.208	0.49
727.387	0.57
727.567	0.38
727.746	0.53
727.925	0.54
728.105	0.45
728.284	0.4
728.463	0.47
728.643	0.51
728.822	0.35
729.001	0.37
729.18	0.51
729.359	0.59
729.539	0.44
729.718	0.51
729.897	0.51
730.076	0.5
730.255	0.36
730.434	0.51
730.614	0.59
730.793	0.67
730.972	0.45
731.151	0.48
731.33	0.66
731.509	0.57
731.688	0.48
731.867	0.45
732.046	0.3
732.225	0.76
732.404	0.46
732.583	0.33
732.762	0.47
732.941	0.61
733.12	0.45
733.298	0.39
733.477	0.51
733.656	0.39
733.835	0.35
734.014	0.64
734.193	0.53
734.371	0.5
734.55	0.52
734.729	0.32
734.908	0.57
735.086	0.53
735.265	0.65
735.444	0.27
735.623	0.37
735.801	0.3
735.98	0.5
736.159	0.49
736.337	0.61
736.516	0.52
736.694	0.49
736.873	0.54
737.052	0.81
737.23	0.66
737.409	0.41
737.587	0.76
737.766	0.44
737.944	0.49
738.123	0.55
738.301	0.56
738.479	0.65
738.658	0.56
738.836	0.3
739.015	0.51
739.193	0.58
739.371	0.31
739.55	0.44
739.728	0.36
739.906	0.75
740.085	0.74
740.263	0.51
740.441	0.23
740.62	0.72
740.798	0.64
740.976	0.42
741.154	0.3
741.332	0.6
741.511	0.5
741.689	0.51
741.867	0.57
742.045	0.52
742.223	0.38
742.401	0.36
742.579	0.28
742.757	0.65
742.935	0.31
743.114	0.46
743.292	0.52
743.47	0.52
743.648	0.6
743.826	0.51
744.004	0.47
744.181	0.61
744.359	0.37
744.537	0.52
744.715	0.37
744.893	0.48
745.071	0.41
745.249	0.42
745.427	0.4
745.605	0.54
745.782	0.41
745.96	0.52
746.138	0.57
746.316	0.68
746.493	0.38
746.671	0.46
746.849	0.3
747.027	0.53
747.204	0.3
747.382	0.41
747.56	0.35
747.737	0.29
747.915	0.38
748.093	0.41
748.27	0.36
748.448	0.5
748.625	0.33
748.803	0.28
748.98	0.36
749.158	0.42
749.335	0.51
749.513	0.37
749.69	0.36
749.868	0.31
750.045	0.43
750.223	0.37
750.4	0.14
750.578	0.57
750.755	0.35
750.932	0.25
751.11	0.61
751.287	0.37
751.464	0.51
751.642	0.28
751.819	0.42
751.996	0.42
752.173	0.39
752.351	0.34
752.528	0.37
752.705	0.31
752.882	0.26
753.06	0.42
753.237	0.53
753.414	0.61
753.591	0.69
753.768	0.46
753.945	0.38
754.122	0.34
754.299	0.58
754.476	0.24
754.654	0.33
754.831	0.5
755.008	0.49
755.185	0.28
755.362	0.29
755.539	0.51
755.716	0.33
755.892	0.46
756.069	0.36
756.246	0.41
756.423	0.38
756.6	0.54
756.777	0.32
756.954	0.61
757.131	0.38
757.307	0.37
757.484	0.24
757.661	0.4
757.838	0.55
758.015	0.23
758.191	0.42
758.368	0.36
758.545	0.6
758.721	0.45
758.898	0.12
759.075	0.4
759.251	0.46
759.428	0.46
759.605	0.18
759.781	0.33
759.958	0.47
760.134	0.52
760.311	0.3
760.488	0.57
760.664	0.61
760.841	0.38
761.017	0.18
761.194	0.53
761.37	0.43
761.547	0.32
761.723	0.36
761.899	0.67
762.076	0.24
762.252	0.24
762.429	0.27
762.605	0.45
762.781	0.28
762.958	0.41
763.134	0.3
763.31	0.34
763.486	0.56
763.663	0.13
763.839	0.41
764.015	0.13
764.191	0.31
764.368	0.33
764.544	0.31
764.72	0.39
764.896	0.49
765.072	0.33
765.248	0.45
765.425	0.32
765.601	0.37
765.777	0.38
765.953	0.08
766.129	0.2
766.305	0.2
766.481	0.62
766.657	0.3
766.833	0.62
767.009	0.27
767.185	0.34
767.361	0.32
767.537	0.27
767.713	0.53
767.889	0.3
768.065	0.3
768.24	0.35
768.416	0.5
768.592	0.26
768.768	0.29
768.944	0.45
769.12	0.37
769.295	0.29
769.471	0.34
769.647	0.3
769.823	0.76
769.998	0.27
770.174	0.2
770.35	0.77
770.525	0.77
770.701	0.47
770.877	0.39
771.052	0.3
771.228	0.62
771.403	0.51
771.579	0.41
771.755	0.83
771.93	0.47
772.106	0.25
772.281	0.08
772.457	0.35
772.632	0.57
772.808	0.27
772.983	0.37
773.159	0.2
773.334	0.63
773.509	0.49
773.685	0.31
773.86	0.84
774.036	0.75
774.211	0.47
774.386	0.32
774.562	0.41
774.737	0.58
774.912	0.27
775.087	0.4
775.263	0.45
775.438	0.36
775.613	0.38
775.788	0.32
775.964	0.53
776.139	1.02
776.314	0.18
776.489	0.35
776.664	0.42
776.839	0.25
777.014	0.46
777.19	0.6
777.365	0.83
777.54	0.72
777.715	0.33
777.89	0.37
778.065	0.41
778.24	0.34
778.415	0.47
778.59	0.12
778.765	0.39
778.94	0.46
779.115	0.14
779.289	0.29
779.464	0.34
779.639	0.22
779.814	0.13
779.989	0.15
780.164	0.49
780.339	0.44
780.513	0.21
780.688	0.1
780.863	0.3
781.038	0.64
781.212	0.17
781.387	0.4
781.562	0.74
781.737	0.18
781.911	0.67
782.086	0.18
782.261	0.39
782.435	0.73
782.61	0.24
782.784	0.47
782.959	0.52
783.134	0.37
783.308	0.35
783.483	0.32
783.657	1.02
783.832	0.7
784.006	0.12
784.181	0.46
784.355	0.73
784.53	0.28
784.704	0.28
784.878	0.59
785.053	0.48
785.227	0.71
785.402	0.92
785.576	0.5
785.75	0.58
785.925	0.44
786.099	0.45
786.273	0.6
786.448	0.74
786.622	0.8
786.796	0.26
786.97	0.28
787.145	0.9
787.319	0.09
787.493	0.37
787.667	0.07
787.841	0.35
788.015	0.82
788.19	0.4
788.364	0.58
788.538	0.88
788.712	0.67
788.886	0.19
789.06	0.64
789.234	0.51
789.408	0.12
789.582	0.33
789.756	0.26
789.93	0.32
790.104	0.47
790.278	0.47
790.452	0.18
790.626	0.75
790.8	0.42
790.973	0.59
791.147	0.78
791.321	0.74
791.495	0.82
791.669	0.28
791.843	0.5
792.016	0.68
792.19	1.18
792.364	0.13
792.538	1.08
792.711	0.68
792.885	0.37
793.059	0.16
793.233	0.06
793.406	0.62
793.58	0.38
793.754	0.8
793.927	0.54
794.101	0.87
794.274	0.43
794.448	0.72
794.622	0.07
794.795	1.28
794.969	0.2
795.142	0.59
795.316	0.38
795.489	0.48
795.663	1.02
795.836	0.38
796.009	-0
796.183	0.87
796.356	0.57
796.53	0.57
796.703	0.44
796.876	1.18
797.05	0.38
797.223	0.42
797.396	0.54
797.57	0.51
797.743	1.02
797.916	0.53
798.09	0.38
798.263	0.81
798.436	0.74
798.609	0.08
798.782	0.34
798.956	0.76
799.129	0.45
799.302	0.19
799.475	0.21
799.648	0.42
799.821	0.31
799.994	0.47
800.167	-0.19
800.34	0.55
800.514	0.55
800.687	0.24
800.86	0.21
801.033	0.88
801.206	0.48
801.379	0.33
801.551	0.79
801.724	0.73
801.897	0.95
802.07	0.31
802.243	0.17
802.416	0.81
802.589	0.66
802.762	0.66
802.935	0.44
803.107	0.86
803.28	1
803.453	1.01
803.626	0.3
803.798	0.71
803.971	0.21
804.144	0.43
804.317	0.58
804.489	0.9
804.662	0.56
804.835	0.34
805.007	0.1
805.18	1.13
805.353	0.65
805.525	0.07
805.698	0.14
805.87	0.97
806.043	0.9
806.215	-0.11
806.388	0.21
806.56	0.7
806.733	1.13
806.905	0.68
807.078	0.45
807.25	0.45
807.423	0.95
807.595	0.55
807.768	0.5
807.94	1.22
808.112	0.56
808.285	0.65
808.457	0.42
808.629	0.35
808.802	1.07
808.974	0.7
809.146	0.39
809.318	0.15
809.491	0.79
809.663	1.04
809.835	0.14
810.007	0.89
810.18	0.63
810.352	0.2
810.524	0.35
810.696	1.19
810.868	1.25
811.04	0.41
811.212	0.3
811.384	1.1
811.556	0.92
811.728	0.33
811.901	1.82
812.073	0.53
812.245	1.1
812.417	0.79
812.589	-0.08
812.76	0.9
812.932	1.04
813.104	0.96
813.276	0.61
813.448	1.23
813.62	0.87
813.792	0.42
813.964	0.56
814.136	0.67
814.307	0.4
814.479	0.39
814.651	0.28
814.823	1.82
814.995	0.28
815.166	0.62
815.338	0.4
815.51	0.1
815.681	1.94
815.853	0.75
816.025	0.16
816.196	1.58
816.368	0.74
816.54	0.32
816.711	0.29
816.883	0.48
817.054	2.55
817.226	-0.21
817.398	1.01
817.569	0.09
817.741	0.5
817.912	0.63
818.084	0.69
818.255	1.43
818.426	0.19
818.598	0.49
818.769	0.11
818.941	0.97
819.112	1.64
819.283	0.78
819.455	0.27
819.626	0.85
819.798	1.03
819.969	0.55
820.14	0.52
820.311	0.55
820.483	0.92
820.654	1.19
820.825	0.19
820.996	0.66
821.168	0.05
821.339	0.76
821.51	0.06
821.681	0.37
821.852	0.77
822.023	-0.17
822.195	-0.04
822.366	1.37
822.537	0.56
822.708	1.03
822.879	0.38
823.05	1.38
823.221	0.68
823.392	1.12
823.563	0.7
823.734	0.74
823.905	0.34
824.076	0.77
824.247	-0.08
824.418	0.56
824.589	1.42
824.759	0.27
824.93	0.55
825.101	0.19
825.272	1.95
825.443	1.27
825.614	1.23
825.784	-0.24
825.955	1.6
826.126	1.05
826.297	0.59
826.467	1.76
826.638	2.05
826.809	0.49
826.98	0.97
827.15	1.32
827.321	1.27
827.492	1.47
827.662	0.46
827.833	1.97
828.003	1.24
828.174	0.23
828.345	-0.26
828.515	1.47
828.686	1
828.856	0.66
829.027	0.6
829.197	0.62
829.368	0.94
829.538	0.44
829.709	0.47
829.879	0.97
830.049	0.77
830.22	0.84
830.39	0.88
830.56	1.16
830.731	0.74
830.901	-0.14
831.072	0.77
831.242	1.11
831.412	1.66
831.582	0.91
831.753	-0.52
831.923	1.95
832.093	0.7
832.263	1.13
832.434	0.22
832.604	0.63
832.774	1.84
832.944	0.47
833.114	0.46
833.284	1.18
833.454	0.58
833.624	0.74
833.795	0.16
833.965	1.91
834.135	1.84
834.305	-0.24
834.475	-0.27
834.645	1.65
834.815	0.37
834.985	0.68
835.155	-0.04
835.325	1.3
835.494	1.63
835.664	0.11
835.834	-0.21
836.004	0.87
836.174	1.69
836.344	0.67
836.514	-0.22
836.684	0.41
836.853	0.96
837.023	1.56
837.193	0.52
837.363	1.78
837.532	1.06
837.702	0.75
837.872	0.11
838.041	1.28
838.211	2.95
838.381	-0.51
838.55	0.82
838.72	3.47
838.89	2.43
839.059	0.72
839.229	-0
839.398	3.55
839.568	1.53
839.738	0.35
839.907	1.81
840.077	1.44
840.246	0.39
840.416	0.68
840.585	-0.5
840.755	2.59
840.924	2.31
841.093	-0.22
841.263	0.57
841.432	0.6
841.602	0.74
841.771	0.43
841.94	0.84
842.11	2.86
842.279	2.85
842.448	0.08
842.617	0.63
842.787	2.97
842.956	0.08
843.125	0.65
843.294	1.17
843.464	3.16
843.633	1.17
843.802	0.64
843.971	0.39
844.14	2.26
844.309	2.77
844.479	-0.62
844.648	0.15
844.817	0.86
844.986	1.91
845.155	0.33
845.324	1.07
845.493	1.59
845.662	0.7
845.831	1.81
846	1.38
846.169	0.69
846.338	2.8
846.507	0.39
846.676	0.99
846.844	0.73
847.013	2.17
847.182	1.52
847.351	0.54
847.52	0.71
847.689	0.89
847.858	0.63
848.026	-0.31
848.195	1.51
848.364	0.9
848.533	0.15
848.701	0.8
848.87	1.54
849.039	2.12
849.207	1.27
849.376	2.2
849.545	3.93
849.713	1.46
849.882	-0.13
850.051	1.22
850.219	1.67
850.388	2.46
850.556	0.3
850.725	0.18
850.893	2.07
851.062	1.26
851.23	1.61
851.399	0.22
851.567	0.82
851.736	1.22
851.904	-0.35
852.073	1.53
852.241	2.53
852.41	2.09
852.578	0.81
852.746	0.34
852.915	0.73
853.083	1.23
853.251	0.06
853.42	0.92
853.588	0.87
853.756	3.15
853.924	0.92
854.093	1.34
854.261	1.03
854.429	-1.02
854.597	1.36
854.765	-0.42
854.934	2.38
855.102	2.81
855.27	0.9
855.438	1.72
855.606	2.68
855.774	3.47
855.942	0.51
856.11	0.78
856.278	1.86
856.446	2.54
856.614	0.68
856.782	-0.23
856.95	2.48
857.118	1.47
857.286	2.57
857.454	0.25
857.622	4.71
857.79	3.29
857.958	-0.07
858.126	1.36
858.294	-0.61
858.462	1.4
858.629	-0.62
858.797	-0.3
858.965	2
859.133	0.67
859.301	0.73
859.468	2.47
859.636	0.3
859.804	4.51
859.971	2.77
860.139	0.97
860.307	4.47
860.474	2.05
860.642	1.23
860.81	-0.42
860.977	0.15
861.145	3.58
861.313	1.51
861.48	1.23
861.648	3.07
861.815	1.52
861.983	-0.42
862.15	-0.75
862.318	2.73
862.485	4.49
862.653	1.12
862.82	0.42
862.988	3.86
863.155	2.75
863.322	1.36
863.49	0.86
863.657	0.82
863.824	4.62
863.992	2.32
864.159	1.56
864.326	3.33
864.494	0.67
864.661	3.29
864.828	0.09
864.996	4.85
865.163	3.44
865.33	0.4
865.497	-2.55
865.664	1.19
865.832	-0.89
865.999	0.8
866.166	0.83
866.333	1.55
866.5	0.84
866.667	1.68
866.834	0.85
867.001	4.83
867.168	-0.92
867.335	1.64
867.502	-1.19
867.669	3.16
867.836	5.45
868.003	1.63
868.17	3.72
868.337	1.19
868.504	6.39
868.671	-0.9
868.838	1.27
869.005	4.69
869.172	3.61
869.339	1.13
869.505	0.34
869.672	1.8
869.839	5.41
870.006	1.79
870.173	0.03
870.339	2
870.506	7.36
870.673	3.24
870.84	2.95
871.006	3.47
871.173	2.5
871.34	0.83
871.506	1.41
871.673	3.23
871.839	0.29
872.006	1.88
872.173	0.39
872.339	2.44
872.506	4.14
872.672	1.83
872.839	-0.44
873.005	2.69
873.172	5.28
873.338	3.05
873.505	1.25
873.671	4.73
873.838	4.01
874.004	-1.64
874.171	-0.26
874.337	3.94
874.503	5.38
874.67	0.86
874.836	2.08
875.002	4.04
875.169	5.35
875.335	1.9
875.501	2.29
875.668	3.1
875.834	2.51
876	0.09
876.166	2.82
876.332	4.25
876.499	7.49
876.665	0.85
876.831	3.14
876.997	6.95
877.163	3.49
877.329	2.06
877.495	0.09
877.662	4.9
877.828	1.99
877.994	1.32
878.16	-3.59
878.326	2.51
878.492	3.63
878.658	1.4
878.824	2.35
878.99	3.4
879.156	1.67
879.322	5.28
879.487	1.75
879.653	3.3
879.819	1.62
879.985	1.63
880.151	1.51
880.317	2.76
880.483	2.72
880.648	3.69
880.814	-1.5
880.98	3.07
881.146	-0.45
881.312	1.37
881.477	1.37
881.643	2.7
881.809	6.04
881.974	3.64
882.14	-1.11
882.306	4.27
882.471	6.48
882.637	2.1
882.803	2.56
882.968	6.82
883.134	6.54
883.299	1.23
883.465	3.45
883.63	3.75
883.796	3.11
883.961	4.33
884.127	2.28
884.292	-2.38
884.458	-0.69
884.623	-0.69
