Data from Apollo_Calib_20240827__AbsoluteIrradiance__877__13-46-02-764.txt Node

Date: Wed Aug 28 13:46:02 BST 2024
User: biology
Spectrometer: FLMT08252
Trigger mode: 0
Integration Time (sec): 5.000000E-1
Scans to average: 5
Electric dark correction enabled: true
Nonlinearity correction enabled: false
Boxcar width: 0
XAxis mode: Wavelengths
Number of Pixels in Spectrum: 3648
>>>>>Begin Spectral Data<<<<<
179.588	-0
179.809	-0
180.03	-0
180.251	-0
180.473	-0
180.694	0
180.915	0
181.136	-0
181.357	-0
181.578	-0
181.799	-0
182.02	-0
182.241	-0
182.462	-0
182.683	0
182.904	-0
183.125	-0
183.346	0
183.567	0
183.788	0
184.009	0
184.23	0
184.451	0
184.672	0
184.892	0
185.113	0
185.334	0
185.555	0
185.776	0
185.996	0
186.217	0
186.438	0
186.659	0
186.879	0
187.1	0
187.321	0
187.541	0
187.762	0
187.983	0
188.203	0
188.424	0
188.644	0
188.865	0
189.086	0
189.306	0
189.527	0
189.747	0
189.968	0
190.188	0
190.409	0
190.629	0
190.849	0
191.07	0
191.29	0
191.511	0
191.731	0
191.951	0
192.172	0
192.392	0
192.612	0
192.833	0
193.053	0
193.273	0
193.493	0
193.714	0
193.934	0
194.154	0
194.374	0
194.594	0
194.815	0
195.035	0
195.255	0
195.475	0
195.695	0
195.915	0
196.135	0
196.355	0
196.575	0
196.795	0
197.015	0
197.235	0
197.455	0
197.675	0
197.895	0
198.115	0
198.335	0
198.555	0
198.775	0
198.995	0
199.214	0
199.434	0
199.654	0
199.874	0
200.094	3.9
200.313	2.14
200.533	1.8
200.753	0.86
200.973	3.73
201.192	3.21
201.412	1.27
201.632	1.33
201.851	3.38
202.071	1.83
202.291	1.66
202.51	1.02
202.73	2.74
202.95	1.64
203.169	1.61
203.389	1.56
203.608	2.19
203.828	1.09
204.047	1.44
204.267	2.29
204.486	2.23
204.706	2.27
204.925	1.46
205.145	1.59
205.364	2.31
205.583	2.69
205.803	1.43
206.022	1.09
206.242	1.54
206.461	1.69
206.68	1.43
206.9	1.33
207.119	2.6
207.338	2.04
207.557	0.85
207.777	1
207.996	1.43
208.215	2.14
208.434	1.17
208.654	0.83
208.873	1.15
209.092	2.23
209.311	0.78
209.53	1.26
209.749	1.06
209.968	1.15
210.187	1.07
210.407	0.76
210.626	1.43
210.845	1.66
211.064	1.18
211.283	0.49
211.502	1.27
211.721	1.07
211.94	1.12
212.159	1.51
212.377	1.37
212.596	1.64
212.815	1.15
213.034	1.02
213.253	1.51
213.472	1.3
213.691	0.89
213.91	0.62
214.128	0.76
214.347	1.49
214.566	0.4
214.785	0.42
215.003	1.03
215.222	1.02
215.441	0.82
215.66	0.45
215.878	0.98
216.097	1.25
216.316	0.79
216.534	0.72
216.753	1.08
216.972	0.85
217.19	0.82
217.409	0.6
217.627	0.69
217.846	0.63
218.064	1.1
218.283	0.75
218.501	1.41
218.72	1.27
218.938	0.66
219.157	0.69
219.375	1.18
219.594	1
219.812	0.53
220.031	0.46
220.249	1.24
220.467	1.24
220.686	0.52
220.904	0.47
221.122	0.69
221.341	1.09
221.559	0.8
221.777	0.52
221.995	0.67
222.214	0.92
222.432	0.49
222.65	0.83
222.868	0.77
223.086	0.71
223.305	0.91
223.523	0.69
223.741	1.17
223.959	0.64
224.177	0.3
224.395	0.44
224.613	0.77
224.831	1
225.049	0.39
225.267	0.51
225.485	0.7
225.703	0.43
225.921	0.56
226.139	0.55
226.357	0.98
226.575	0.77
226.793	0.54
227.011	1.52
227.229	0.75
227.447	0.93
227.665	0.56
227.883	0.34
228.1	0.51
228.318	0.84
228.536	0.23
228.754	0.55
228.972	0.79
229.189	0.68
229.407	0.43
229.625	0.56
229.843	0.66
230.06	0.92
230.278	0.48
230.496	0.48
230.713	0.73
230.931	0.82
231.149	0.48
231.366	0.25
231.584	0.62
231.801	1.07
232.019	0.52
232.236	0.36
232.454	0.38
232.671	0.61
232.889	0.45
233.106	0.34
233.324	0.58
233.541	0.59
233.759	0.55
233.976	0.34
234.194	0.75
234.411	0.57
234.628	0.39
234.846	0.45
235.063	0.57
235.28	0.51
235.498	0.49
235.715	0.37
235.932	0.73
236.149	0.59
236.367	0.32
236.584	0.54
236.801	0.45
237.018	0.59
237.236	0.45
237.453	0.3
237.67	0.57
237.887	0.48
238.104	0.37
238.321	0.39
238.538	0.37
238.755	0.69
238.973	0.34
239.19	0.45
239.407	0.61
239.624	0.51
239.841	0.3
240.058	0.24
240.275	0.58
240.492	0.54
240.709	0.5
240.925	0.35
241.142	0.44
241.359	0.33
241.576	0.38
241.793	0.35
242.01	0.51
242.227	0.64
242.444	0.51
242.66	0.64
242.877	0.5
243.094	0.44
243.311	0.35
243.527	0.42
243.744	0.49
243.961	0.37
244.178	0.42
244.394	0.4
244.611	0.62
244.828	0.78
245.044	0.31
245.261	0.36
245.477	0.43
245.694	0.57
245.911	0.4
246.127	0.47
246.344	0.68
246.56	0.52
246.777	0.37
246.993	0.37
247.21	0.5
247.426	0.6
247.643	0.33
247.859	0.35
248.076	0.42
248.292	0.63
248.508	0.29
248.725	0.4
248.941	0.48
249.157	0.55
249.374	0.34
249.59	0.44
249.806	0.4
250.023	0.54
250.239	0.31
250.455	0.3
250.671	0.37
250.888	0.44
251.104	0.44
251.32	0.31
251.536	0.45
251.752	0.49
251.969	0.38
252.185	0.38
252.401	0.71
252.617	0.37
252.833	0.32
253.049	0.34
253.265	0.41
253.481	0.41
253.697	0.29
253.913	0.26
254.129	0.44
254.345	0.46
254.561	0.35
254.777	0.34
254.993	0.45
255.209	0.35
255.425	0.34
255.641	0.28
255.857	0.47
256.073	0.44
256.288	0.23
256.504	0.29
256.72	0.49
256.936	0.59
257.152	0.39
257.367	0.24
257.583	0.43
257.799	0.43
258.015	0.29
258.23	0.36
258.446	0.61
258.662	0.39
258.877	0.29
259.093	0.21
259.309	0.45
259.524	0.42
259.74	0.31
259.955	0.24
260.171	0.37
260.387	0.5
260.602	0.4
260.818	0.41
261.033	0.28
261.249	0.38
261.464	0.29
261.68	0.22
261.895	0.39
262.11	0.46
262.326	0.34
262.541	0.25
262.757	0.51
262.972	0.47
263.187	0.34
263.403	0.37
263.618	0.44
263.833	0.39
264.049	0.32
264.264	0.32
264.479	0.34
264.694	0.5
264.91	0.2
265.125	0.27
265.34	0.47
265.555	0.63
265.77	0.41
265.986	0.3
266.201	0.39
266.416	0.42
266.631	0.25
266.846	0.29
267.061	0.46
267.276	0.43
267.491	0.17
267.706	0.4
267.921	0.44
268.136	0.39
268.351	0.36
268.566	0.25
268.781	0.45
268.996	0.46
269.211	0.33
269.426	0.15
269.641	0.35
269.856	0.39
270.071	0.28
270.285	0.29
270.5	0.46
270.715	0.42
270.93	0.26
271.145	0.34
271.359	0.43
271.574	0.34
271.789	0.34
272.004	0.25
272.218	0.33
272.433	0.39
272.648	0.25
272.862	0.37
273.077	0.31
273.292	0.3
273.506	0.21
273.721	0.31
273.936	0.36
274.15	0.45
274.365	0.22
274.579	0.38
274.794	0.37
275.008	0.48
275.223	0.25
275.437	0.3
275.652	0.49
275.866	0.41
276.081	0.34
276.295	0.33
276.509	0.31
276.724	0.3
276.938	0.29
277.153	0.33
277.367	0.39
277.581	0.33
277.796	0.28
278.01	0.19
278.224	0.4
278.438	0.46
278.653	0.24
278.867	0.2
279.081	0.45
279.295	0.23
279.51	0.33
279.724	0.17
279.938	0.41
280.152	0.3
280.366	0.24
280.58	0.29
280.794	0.42
281.008	0.37
281.222	0.36
281.437	0.5
281.651	0.32
281.865	0.43
282.079	0.32
282.293	0.17
282.507	0.21
282.721	0.25
282.935	0.29
283.148	0.14
283.362	0.29
283.576	0.23
283.79	0.32
284.004	0.2
284.218	0.42
284.432	0.27
284.646	0.29
284.859	0.2
285.073	0.24
285.287	0.35
285.501	0.3
285.714	0.27
285.928	0.33
286.142	0.31
286.356	0.24
286.569	0.24
286.783	0.4
286.997	0.36
287.21	0.28
287.424	0.28
287.637	0.28
287.851	0.29
288.065	0.37
288.278	0.25
288.492	0.27
288.705	0.26
288.919	0.3
289.132	0.19
289.346	0.32
289.559	0.22
289.773	0.25
289.986	0.25
290.2	0.24
290.413	0.35
290.626	0.2
290.84	0.26
291.053	0.25
291.267	0.41
291.48	0.3
291.693	0.25
291.906	0.22
292.12	0.29
292.333	0.24
292.546	0.25
292.76	0.38
292.973	0.3
293.186	0.3
293.399	0.25
293.612	0.36
293.826	0.28
294.039	0.24
294.252	0.22
294.465	0.34
294.678	0.31
294.891	0.25
295.104	0.18
295.317	0.25
295.53	0.31
295.743	0.25
295.956	0.25
296.169	0.38
296.382	0.34
296.595	0.29
296.808	0.18
297.021	0.34
297.234	0.33
297.447	0.3
297.66	0.27
297.873	0.29
298.086	0.33
298.299	0.2
298.511	0.17
298.724	0.25
298.937	0.19
299.15	0.19
299.363	0.28
299.575	0.32
299.788	0.28
300.001	0.23
300.213	0.21
300.426	0.31
300.639	0.22
300.852	0.19
301.064	0.31
301.277	0.37
301.489	0.34
301.702	0.27
301.915	0.22
302.127	0.25
302.34	0.26
302.552	0.31
302.765	0.18
302.977	0.3
303.19	0.18
303.402	0.26
303.615	0.24
303.827	0.24
304.04	0.26
304.252	0.3
304.464	0.24
304.677	0.39
304.889	0.34
305.102	0.2
305.314	0.21
305.526	0.32
305.739	0.3
305.951	0.18
306.163	0.25
306.375	0.34
306.588	0.25
306.8	0.26
307.012	0.16
307.224	0.26
307.436	0.31
307.649	0.16
307.861	0.23
308.073	0.3
308.285	0.24
308.497	0.21
308.709	0.21
308.921	0.27
309.133	0.31
309.346	0.19
309.558	0.22
309.77	0.32
309.982	0.38
310.194	0.3
310.406	0.21
310.617	0.38
310.829	0.24
311.041	0.32
311.253	0.2
311.465	0.24
311.677	0.28
311.889	0.22
312.101	0.15
312.313	0.3
312.524	0.38
312.736	0.17
312.948	0.23
313.16	0.35
313.372	0.32
313.583	0.28
313.795	0.18
314.007	0.23
314.218	0.35
314.43	0.25
314.642	0.19
314.853	0.21
315.065	0.3
315.277	0.25
315.488	0.27
315.7	0.3
315.912	0.29
316.123	0.22
316.335	0.22
316.546	0.37
316.758	0.29
316.969	0.2
317.181	0.27
317.392	0.29
317.604	0.38
317.815	0.23
318.026	0.24
318.238	0.22
318.449	0.3
318.661	0.16
318.872	0.16
319.083	0.21
319.295	0.28
319.506	0.25
319.717	0.22
319.929	0.28
320.14	0.26
320.351	0.25
320.562	0.18
320.774	0.29
320.985	0.25
321.196	0.2
321.407	0.16
321.618	0.3
321.829	0.31
322.041	0.26
322.252	0.23
322.463	0.25
322.674	0.29
322.885	0.17
323.096	0.27
323.307	0.27
323.518	0.28
323.729	0.21
323.94	0.23
324.151	0.26
324.362	0.29
324.573	0.3
324.784	0.24
324.995	0.3
325.206	0.32
325.417	0.23
325.628	0.16
325.838	0.27
326.049	0.25
326.26	0.31
326.471	0.21
326.682	0.28
326.892	0.29
327.103	0.15
327.314	0.2
327.525	0.34
327.735	0.28
327.946	0.22
328.157	0.19
328.368	0.31
328.578	0.25
328.789	0.29
328.999	0.22
329.21	0.22
329.421	0.31
329.631	0.17
329.842	0.21
330.052	0.29
330.263	0.29
330.473	0.24
330.684	0.23
330.894	0.27
331.105	0.26
331.315	0.24
331.526	0.16
331.736	0.37
331.947	0.24
332.157	0.29
332.367	0.16
332.578	0.28
332.788	0.32
332.999	0.28
333.209	0.25
333.419	0.2
333.629	0.28
333.84	0.27
334.05	0.22
334.26	0.36
334.47	0.31
334.681	0.32
334.891	0.24
335.101	0.29
335.311	0.31
335.521	0.21
335.732	0.22
335.942	0.3
336.152	0.3
336.362	0.29
336.572	0.23
336.782	0.32
336.992	0.19
337.202	0.24
337.412	0.18
337.622	0.31
337.832	0.24
338.042	0.23
338.252	0.22
338.462	0.25
338.672	0.27
338.882	0.24
339.092	0.24
339.302	0.35
339.511	0.27
339.721	0.22
339.931	0.21
340.141	0.33
340.351	0.32
340.561	0.29
340.77	0.24
340.98	0.27
341.19	0.25
341.4	0.23
341.609	0.14
341.819	0.26
342.029	0.19
342.238	0.25
342.448	0.17
342.658	0.3
342.867	0.24
343.077	0.27
343.286	0.27
343.496	0.28
343.706	0.32
343.915	0.16
344.125	0.26
344.334	0.29
344.544	0.21
344.753	0.23
344.963	0.18
345.172	0.23
345.381	0.23
345.591	0.2
345.8	0.3
346.01	0.36
346.219	0.36
346.428	0.11
346.638	0.22
346.847	0.23
347.056	0.34
347.266	0.19
347.475	0.24
347.684	0.31
347.893	0.26
348.103	0.26
348.312	0.2
348.521	0.25
348.73	0.24
348.94	0.27
349.149	0.23
349.358	0.25
349.567	0.2
349.776	0.19
349.985	0.22
350.194	0.3
350.403	0.3
350.612	0.16
350.821	0.21
351.03	0.3
351.239	0.2
351.448	0.24
351.657	0.17
351.866	0.3
352.075	0.26
352.284	0.2
352.493	0.19
352.702	0.27
352.911	0.26
353.12	0.21
353.329	0.21
353.538	0.28
353.746	0.24
353.955	0.23
354.164	0.3
354.373	0.25
354.582	0.29
354.79	0.27
354.999	0.27
355.208	0.27
355.416	0.35
355.625	0.19
355.834	0.24
356.042	0.32
356.251	0.21
356.46	0.18
356.668	0.27
356.877	0.34
357.085	0.26
357.294	0.12
357.503	0.24
357.711	0.26
357.92	0.42
358.128	0.31
358.337	0.2
358.545	0.27
358.754	0.22
358.962	0.28
359.17	0.25
359.379	0.3
359.587	0.27
359.796	0.25
360.004	0.33
360.212	0.3
360.421	0.33
360.629	0.25
360.837	0.22
361.046	0.32
361.254	0.38
361.462	0.22
361.67	0.21
361.879	0.24
362.087	0.34
362.295	0.28
362.503	0.19
362.711	0.18
362.92	0.2
363.128	0.2
363.336	0.22
363.544	0.19
363.752	0.27
363.96	0.23
364.168	0.2
364.376	0.28
364.584	0.28
364.792	0.29
365	0.29
365.208	0.25
365.416	0.28
365.624	0.32
365.832	0.21
366.04	0.29
366.248	0.26
366.456	0.27
366.664	0.25
366.872	0.28
367.079	0.25
367.287	0.24
367.495	0.28
367.703	0.23
367.911	0.23
368.118	0.23
368.326	0.2
368.534	0.17
368.742	0.34
368.949	0.16
369.157	0.23
369.365	0.28
369.572	0.21
369.78	0.23
369.988	0.29
370.195	0.25
370.403	0.31
370.61	0.19
370.818	0.27
371.026	0.34
371.233	0.26
371.441	0.24
371.648	0.2
371.856	0.24
372.063	0.27
372.271	0.23
372.478	0.17
372.685	0.23
372.893	0.3
373.1	0.26
373.308	0.23
373.515	0.36
373.722	0.31
373.93	0.24
374.137	0.27
374.344	0.35
374.552	0.3
374.759	0.29
374.966	0.29
375.173	0.26
375.381	0.32
375.588	0.29
375.795	0.18
376.002	0.24
376.209	0.22
376.417	0.22
376.624	0.25
376.831	0.29
377.038	0.22
377.245	0.17
377.452	0.24
377.659	0.25
377.866	0.31
378.073	0.27
378.28	0.25
378.487	0.36
378.694	0.32
378.901	0.26
379.108	0.25
379.315	0.26
379.522	0.41
379.729	0.24
379.936	0.21
380.143	0.25
380.35	0.29
380.557	0.24
380.763	0.24
380.97	0.27
381.177	0.31
381.384	0.27
381.591	0.23
381.797	0.33
382.004	0.3
382.211	0.33
382.418	0.24
382.624	0.32
382.831	0.34
383.038	0.23
383.244	0.33
383.451	0.28
383.658	0.31
383.864	0.22
384.071	0.18
384.277	0.38
384.484	0.27
384.69	0.33
384.897	0.23
385.103	0.26
385.31	0.25
385.516	0.22
385.723	0.23
385.929	0.31
386.136	0.23
386.342	0.3
386.549	0.24
386.755	0.34
386.961	0.32
387.168	0.25
387.374	0.29
387.58	0.36
387.787	0.29
387.993	0.28
388.199	0.28
388.406	0.21
388.612	0.23
388.818	0.21
389.024	0.21
389.231	0.28
389.437	0.36
389.643	0.31
389.849	0.32
390.055	0.27
390.261	0.25
390.467	0.28
390.674	0.26
390.88	0.29
391.086	0.31
391.292	0.25
391.498	0.38
391.704	0.32
391.91	0.3
392.116	0.24
392.322	0.17
392.528	0.35
392.734	0.35
392.94	0.29
393.146	0.26
393.352	0.3
393.557	0.26
393.763	0.29
393.969	0.39
394.175	0.33
394.381	0.27
394.587	0.22
394.792	0.28
394.998	0.36
395.204	0.36
395.41	0.27
395.615	0.33
395.821	0.34
396.027	0.34
396.233	0.26
396.438	0.35
396.644	0.36
396.85	0.37
397.055	0.32
397.261	0.34
397.466	0.32
397.672	0.36
397.878	0.39
398.083	0.35
398.289	0.29
398.494	0.41
398.7	0.4
398.905	0.25
399.111	0.49
399.316	0.31
399.522	0.35
399.727	0.34
399.932	0.37
400.138	0.36
400.343	0.37
400.549	0.29
400.754	0.36
400.959	0.46
401.165	0.37
401.37	0.42
401.575	0.47
401.78	0.4
401.986	0.35
402.191	0.34
402.396	0.37
402.601	0.42
402.807	0.41
403.012	0.36
403.217	0.43
403.422	0.47
403.627	0.39
403.832	0.38
404.037	0.46
404.243	0.47
404.448	0.39
404.653	0.42
404.858	0.43
405.063	0.44
405.268	0.4
405.473	0.41
405.678	0.43
405.883	0.7
406.088	0.53
406.293	0.39
406.498	0.47
406.703	0.55
406.907	0.43
407.112	0.43
407.317	0.53
407.522	0.63
407.727	0.44
407.932	0.54
408.136	0.64
408.341	0.5
408.546	0.57
408.751	0.59
408.956	0.56
409.16	0.67
409.365	0.59
409.57	0.62
409.774	0.66
409.979	0.66
410.184	0.7
410.388	0.56
410.593	0.77
410.798	0.73
411.002	0.7
411.207	0.76
411.411	0.8
411.616	0.8
411.82	0.82
412.025	0.83
412.229	0.79
412.434	0.97
412.638	0.87
412.843	0.84
413.047	0.93
413.252	0.85
413.456	1.02
413.66	1.03
413.865	1.05
414.069	1.15
414.273	1.07
414.478	1.09
414.682	1.17
414.886	1.21
415.091	1.14
415.295	1.23
415.499	1.4
415.703	1.31
415.908	1.46
416.112	1.38
416.316	1.54
416.52	1.52
416.724	1.5
416.929	1.56
417.133	1.83
417.337	1.67
417.541	1.75
417.745	1.8
417.949	1.93
418.153	2
418.357	1.92
418.561	2.23
418.765	2.09
418.969	2.36
419.173	2.33
419.377	2.33
419.581	2.59
419.785	2.59
419.989	2.58
420.193	2.76
420.397	2.8
420.601	3.02
420.804	3.01
421.008	3.07
421.212	3.23
421.416	3.19
421.62	3.2
421.823	3.29
422.027	3.43
422.231	3.38
422.435	3.48
422.638	3.5
422.842	3.63
423.046	3.68
423.249	3.81
423.453	3.96
423.657	4.06
423.86	4.14
424.064	4.18
424.268	4.44
424.471	4.41
424.675	4.66
424.878	4.69
425.082	4.77
425.285	5.09
425.489	4.93
425.692	5.14
425.896	5.15
426.099	5.42
426.303	5.5
426.506	5.54
426.71	5.84
426.913	6.17
427.116	6.29
427.32	6.21
427.523	6.24
427.726	6.56
427.93	6.72
428.133	7.08
428.336	7.15
428.54	7.32
428.743	7.55
428.946	7.76
429.149	7.77
429.353	7.8
429.556	7.88
429.759	7.87
429.962	7.98
430.165	8.3
430.368	7.93
430.571	7.87
430.775	8.03
430.978	7.95
431.181	8.04
431.384	8.13
431.587	8.14
431.79	8.59
431.993	8.44
432.196	8.81
432.399	9.13
432.602	9.32
432.805	9.43
433.008	9.93
433.211	9.77
433.414	10.15
433.616	10.21
433.819	10.17
434.022	10.3
434.225	10.56
434.428	10.45
434.631	10.96
434.833	10.63
435.036	11.05
435.239	11.19
435.442	11.26
435.645	11.32
435.847	11.44
436.05	11.86
436.253	12.01
436.455	12.05
436.658	11.89
436.861	12.25
437.063	12.32
437.266	12.24
437.468	12.58
437.671	13.03
437.874	12.99
438.076	12.86
438.279	13.28
438.481	13.29
438.684	14.17
438.886	13.69
439.089	13.97
439.291	14.11
439.494	14.33
439.696	14.62
439.899	15.06
440.101	15.59
440.303	15.65
440.506	16.37
440.708	16.08
440.91	16.36
441.113	16.47
441.315	16.68
441.517	16.51
441.72	17.02
441.922	16.72
442.124	16.65
442.326	17.09
442.529	17.14
442.731	17.15
442.933	17.51
443.135	17.29
443.337	17.27
443.539	17.83
443.742	17.47
443.944	18.21
444.146	17.95
444.348	17.85
444.55	17.78
444.752	18.03
444.954	17.87
445.156	17.74
445.358	18.24
445.56	18.59
445.762	18.42
445.964	18.75
446.166	18.55
446.368	18.52
446.57	18.41
446.772	18.13
446.974	17.78
447.175	18.15
447.377	17.92
447.579	18.3
447.781	17.87
447.983	17.68
448.184	17.36
448.386	17.69
448.588	17.1
448.79	17.13
448.991	17.43
449.193	17.43
449.395	16.73
449.597	16.43
449.798	16.38
450	15.85
450.202	15.7
450.403	15.8
450.605	15.78
450.806	15.36
451.008	15.24
451.21	14.97
451.411	14.59
451.613	13.88
451.814	14.03
452.016	14.11
452.217	13.39
452.419	13.34
452.62	13.03
452.821	12.73
453.023	12.62
453.224	12.24
453.426	11.81
453.627	11.16
453.828	11.24
454.03	11.33
454.231	11.25
454.432	11.05
454.634	10.78
454.835	10.52
455.036	10.42
455.238	9.99
455.439	9.84
455.64	9.57
455.841	9.37
456.042	9.52
456.244	9.27
456.445	9.05
456.646	8.62
456.847	8.69
457.048	8.38
457.249	8.44
457.45	8.32
457.651	7.78
457.852	7.74
458.054	7.38
458.255	7.27
458.456	7.35
458.657	7.19
458.858	6.78
459.058	6.62
459.259	6.77
459.46	6.44
459.661	6.43
459.862	6.5
460.063	6.4
460.264	6.32
460.465	5.99
460.666	6.05
460.866	5.78
461.067	5.55
461.268	5.57
461.469	5.52
461.67	5.42
461.87	5.22
462.071	5.27
462.272	5.14
462.473	5.05
462.673	5.3
462.874	5.09
463.075	5.16
463.275	5.11
463.476	5.16
463.676	5.16
463.877	4.89
464.078	4.88
464.278	5.09
464.479	4.85
464.679	4.73
464.88	4.69
465.08	4.71
465.281	4.56
465.481	4.34
465.682	4.17
465.882	4.23
466.083	4.2
466.283	4.06
466.483	4.01
466.684	3.72
466.884	3.64
467.085	3.7
467.285	3.76
467.485	3.67
467.686	3.53
467.886	3.46
468.086	3.42
468.286	3.46
468.487	3.41
468.687	3.29
468.887	3.23
469.087	3.41
469.287	3.23
469.488	3.06
469.688	3.2
469.888	3.22
470.088	3.16
470.288	3.04
470.488	3.14
470.688	2.87
470.888	2.91
471.088	2.71
471.288	2.83
471.488	2.78
471.688	2.81
471.888	2.66
472.088	2.83
472.288	2.76
472.488	2.64
472.688	2.56
472.888	2.64
473.088	2.64
473.288	2.55
473.488	2.48
473.688	2.65
473.887	2.47
474.087	2.41
474.287	2.51
474.487	2.39
474.687	2.44
474.886	2.38
475.086	2.31
475.286	2.38
475.486	2.28
475.685	2.27
475.885	2.18
476.085	2.33
476.284	2.34
476.484	2.24
476.684	2.19
476.883	2.33
477.083	2.28
477.282	2.11
477.482	2.15
477.681	2.18
477.881	2.1
478.08	2.1
478.28	2.03
478.479	2.1
478.679	2.17
478.878	2.02
479.078	2.01
479.277	2.07
479.477	2.09
479.676	2.02
479.875	1.98
480.075	2
480.274	2.06
480.473	2.05
480.673	2.03
480.872	2.1
481.071	2.05
481.271	2.07
481.47	2.01
481.669	2.04
481.868	1.97
482.067	2.01
482.267	1.91
482.466	1.94
482.665	1.95
482.864	1.98
483.063	1.94
483.262	2.06
483.461	2.03
483.661	2.07
483.86	1.98
484.059	2.04
484.258	2.05
484.457	2.05
484.656	2.04
484.855	2.13
485.054	1.91
485.253	1.97
485.452	1.96
485.651	2.01
485.849	2.04
486.048	1.98
486.247	2.1
486.446	2.13
486.645	2.03
486.844	2.09
487.043	2.07
487.241	2.11
487.44	2.09
487.639	2.14
487.838	2.13
488.037	2.09
488.235	2.22
488.434	2.15
488.633	2.06
488.831	2.21
489.03	2.25
489.229	2.27
489.427	2.21
489.626	2.31
489.825	2.31
490.023	2.32
490.222	2.28
490.42	2.34
490.619	2.35
490.817	2.39
491.016	2.32
491.214	2.42
491.413	2.38
491.611	2.37
491.81	2.39
492.008	2.46
492.207	2.55
492.405	2.55
492.604	2.45
492.802	2.52
493	2.62
493.199	2.59
493.397	2.6
493.595	2.71
493.794	2.66
493.992	2.77
494.19	2.75
494.388	2.82
494.587	2.74
494.785	2.78
494.983	2.71
495.181	2.88
495.379	2.9
495.578	2.93
495.776	2.94
495.974	2.91
496.172	2.95
496.37	3.1
496.568	3.07
496.766	3.1
496.964	3.18
497.162	3.18
497.36	3.2
497.558	3.26
497.756	3.35
497.954	3.26
498.152	3.34
498.35	3.44
498.548	3.3
498.746	3.4
498.944	3.4
499.142	3.4
499.34	3.53
499.538	3.6
499.736	3.47
499.933	3.65
500.131	3.65
500.329	3.74
500.527	3.77
500.725	3.86
500.922	3.87
501.12	3.85
501.318	3.96
501.516	3.9
501.713	4
501.911	3.99
502.109	3.96
502.306	4.07
502.504	4.05
502.701	4.09
502.899	4.12
503.097	4.33
503.294	4.19
503.492	4.33
503.689	4.35
503.887	4.32
504.084	4.42
504.282	4.44
504.479	4.37
504.677	4.55
504.874	4.52
505.072	4.42
505.269	4.64
505.466	4.68
505.664	4.78
505.861	4.65
506.059	4.76
506.256	4.78
506.453	4.78
506.651	4.93
506.848	4.95
507.045	4.96
507.242	4.94
507.44	4.99
507.637	5.02
507.834	5.05
508.031	5.2
508.229	5.08
508.426	5.08
508.623	5.25
508.82	5.32
509.017	5.23
509.214	5.2
509.411	5.37
509.608	5.33
509.805	5.48
510.003	5.44
510.2	5.45
510.397	5.64
510.594	5.51
510.791	5.61
510.988	5.58
511.184	5.62
511.381	5.46
511.578	5.63
511.775	5.81
511.972	5.7
512.169	5.82
512.366	5.81
512.563	5.94
512.76	5.94
512.956	5.96
513.153	5.92
513.35	5.89
513.547	5.89
513.744	6
513.94	5.94
514.137	6.14
514.334	6.13
514.53	6.17
514.727	6.32
514.924	6.24
515.12	6.23
515.317	6.19
515.514	6.18
515.71	6.16
515.907	6.43
516.103	6.41
516.3	6.28
516.497	6.43
516.693	6.48
516.89	6.48
517.086	6.45
517.283	6.54
517.479	6.39
517.676	6.62
517.872	6.66
518.068	6.58
518.265	6.6
518.461	6.49
518.658	6.67
518.854	6.7
519.05	6.77
519.247	6.78
519.443	6.8
519.639	6.93
519.836	6.8
520.032	6.65
520.228	6.91
520.424	6.83
520.621	6.89
520.817	6.95
521.013	6.87
521.209	7.05
521.405	7.09
521.601	7.03
521.798	6.98
521.994	7.05
522.19	6.95
522.386	7.02
522.582	7.1
522.778	7.22
522.974	7.04
523.17	7.09
523.366	7.1
523.562	7.19
523.758	7.16
523.954	7.06
524.15	7.22
524.346	7.27
524.542	7.22
524.738	7.17
524.934	7.32
525.129	7.32
525.325	7.24
525.521	7.21
525.717	7.49
525.913	7.27
526.109	7.28
526.304	7.44
526.5	7.42
526.696	7.41
526.892	7.35
527.087	7.56
527.283	7.52
527.479	7.5
527.674	7.26
527.87	7.48
528.066	7.52
528.261	7.52
528.457	7.41
528.653	7.61
528.848	7.56
529.044	7.65
529.239	7.45
529.435	7.48
529.63	7.46
529.826	7.56
530.021	7.56
530.217	7.57
530.412	7.6
530.608	7.64
530.803	7.61
530.999	7.48
531.194	7.59
531.389	7.7
531.585	7.62
531.78	7.74
531.975	7.64
532.171	7.78
532.366	7.69
532.561	7.74
532.757	7.65
532.952	7.89
533.147	7.61
533.342	7.74
533.538	7.71
533.733	7.87
533.928	7.59
534.123	7.74
534.318	7.79
534.513	7.64
534.709	7.84
534.904	7.85
535.099	7.84
535.294	7.88
535.489	7.83
535.684	7.83
535.879	7.85
536.074	7.87
536.269	7.9
536.464	7.92
536.659	7.84
536.854	7.89
537.049	7.91
537.244	7.86
537.439	7.91
537.634	7.87
537.828	7.91
538.023	7.94
538.218	7.84
538.413	7.86
538.608	7.9
538.803	7.86
538.997	7.85
539.192	7.96
539.387	7.9
539.582	7.88
539.776	7.88
539.971	7.97
540.166	8
540.36	7.9
540.555	8.08
540.75	8
540.944	7.95
541.139	8.01
541.334	7.92
541.528	7.97
541.723	8.07
541.917	8.03
542.112	7.96
542.306	7.88
542.501	7.95
542.695	7.92
542.89	7.91
543.084	7.96
543.279	8.01
543.473	7.98
543.668	8.03
543.862	7.88
544.056	7.94
544.251	8.07
544.445	8.1
544.64	8.09
544.834	7.84
545.028	7.63
545.222	8.02
545.417	8.24
545.611	8.1
545.805	8.03
546	7.84
546.194	8.06
546.388	8.04
546.582	7.96
546.776	7.99
546.97	8.02
547.165	8.01
547.359	7.98
547.553	8.01
547.747	7.96
547.941	8.22
548.135	8.01
548.329	8.06
548.523	8.07
548.717	8.02
548.911	8.03
549.105	7.97
549.299	8.12
549.493	8.12
549.687	8
549.881	8.18
550.075	8.06
550.269	7.95
550.463	8.11
550.657	8.13
550.85	8.03
551.044	8.03
551.238	8.1
551.432	8.05
551.626	8.12
551.82	8.11
552.013	8.01
552.207	8.12
552.401	8.17
552.594	8.01
552.788	8
552.982	8.01
553.176	8
553.369	8.21
553.563	8.12
553.756	8.05
553.95	8.09
554.144	8.12
554.337	8.11
554.531	7.96
554.724	8.11
554.918	8.14
555.111	8.1
555.305	8.04
555.498	8.03
555.692	8.15
555.885	8.16
556.079	8.03
556.272	8.11
556.466	8.05
556.659	8.05
556.852	8.17
557.046	7.97
557.239	7.93
557.432	8.03
557.626	8.12
557.819	8.14
558.012	8.08
558.206	8.16
558.399	8.17
558.592	8
558.785	8.02
558.979	8.03
559.172	8.08
559.365	8.13
559.558	8
559.751	7.98
559.944	8.22
560.138	8.06
560.331	8.04
560.524	8.12
560.717	8.02
560.91	8.01
561.103	8.15
561.296	7.9
561.489	8.13
561.682	8.15
561.875	8.11
562.068	8.18
562.261	8.02
562.454	8.25
562.647	8.04
562.84	8.1
563.032	8.13
563.225	8
563.418	8.06
563.611	8.1
563.804	8.1
563.997	7.94
564.19	7.82
564.382	8.09
564.575	8.07
564.768	8.02
564.961	8.14
565.153	8
565.346	7.94
565.539	8.11
565.731	8.04
565.924	8.15
566.117	8.21
566.309	8.11
566.502	8
566.695	8
566.887	8.09
567.08	8.03
567.272	8.14
567.465	7.97
567.657	8.17
567.85	7.96
568.042	8.08
568.235	8.08
568.427	7.88
568.62	8.06
568.812	8.01
569.005	8.08
569.197	7.94
569.389	8.05
569.582	8.05
569.774	8.07
569.966	7.97
570.159	7.93
570.351	7.89
570.543	8
570.736	8.01
570.928	7.81
571.12	8.05
571.312	7.97
571.505	7.76
571.697	8.01
571.889	7.98
572.081	7.97
572.273	7.87
572.465	7.97
572.658	7.97
572.85	7.97
573.042	7.97
573.234	7.89
573.426	7.98
573.618	7.91
573.81	7.91
574.002	7.91
574.194	7.97
574.386	7.85
574.578	7.78
574.77	7.84
574.962	7.91
575.154	7.8
575.346	7.83
575.538	7.78
575.729	7.78
575.921	7.9
576.113	7.97
576.305	7.91
576.497	7.95
576.689	7.74
576.88	7.82
577.072	7.91
577.264	7.89
577.456	7.81
577.647	7.74
577.839	7.91
578.031	7.81
578.223	7.74
578.414	7.7
578.606	7.82
578.798	7.89
578.989	7.85
579.181	7.8
579.372	7.78
579.564	7.78
579.755	7.71
579.947	7.7
580.139	7.85
580.33	7.59
580.522	7.74
580.713	7.74
580.905	7.77
581.096	7.82
581.287	7.75
581.479	7.67
581.67	7.78
581.862	7.62
582.053	7.71
582.244	7.58
582.436	7.76
582.627	7.63
582.818	7.62
583.01	7.61
583.201	7.73
583.392	7.59
583.583	7.55
583.775	7.42
583.966	7.58
584.157	7.6
584.348	7.67
584.54	7.54
584.731	7.58
584.922	7.47
585.113	7.44
585.304	7.58
585.495	7.52
585.686	7.62
585.877	7.51
586.068	7.6
586.259	7.56
586.45	7.52
586.641	7.46
586.832	7.51
587.023	7.45
587.214	7.46
587.405	7.52
587.596	7.35
587.787	7.31
587.978	7.46
588.169	7.36
588.36	7.34
588.551	7.43
588.742	7.39
588.932	7.41
589.123	7.19
589.314	7.52
589.505	7.36
589.696	7.37
589.886	7.28
590.077	7.25
590.268	7.24
590.458	7.18
590.649	7.06
590.84	7.32
591.03	7.25
591.221	7.26
591.412	7.1
591.602	7.32
591.793	7.29
591.984	7.26
592.174	7.16
592.365	7.39
592.555	7.08
592.746	7.11
592.936	7.12
593.127	7.16
593.317	7.25
593.508	7.12
593.698	7.04
593.889	7.07
594.079	7.12
594.269	7.02
594.46	7.06
594.65	7.05
594.84	7.01
595.031	6.94
595.221	6.99
595.411	7
595.602	7.04
595.792	6.88
595.982	6.85
596.172	7.01
596.363	6.84
596.553	6.89
596.743	6.9
596.933	6.91
597.123	6.86
597.314	6.68
597.504	6.73
597.694	6.95
597.884	6.8
598.074	6.86
598.264	6.75
598.454	6.75
598.644	6.72
598.834	6.72
599.024	6.63
599.214	6.69
599.404	6.79
599.594	6.66
599.784	6.64
599.974	6.78
600.164	6.69
600.354	6.55
600.544	6.52
600.734	6.64
600.924	6.56
601.114	6.51
601.303	6.5
601.493	6.55
601.683	6.55
601.873	6.48
602.063	6.45
602.252	6.52
602.442	6.41
602.632	6.46
602.821	6.36
603.011	6.43
603.201	6.37
603.39	6.32
603.58	6.23
603.77	6.37
603.959	6.45
604.149	6.33
604.339	6.26
604.528	6.34
604.718	6.35
604.907	6.27
605.097	6.18
605.286	6.23
605.476	6.22
605.665	6.22
605.855	6.15
606.044	6.25
606.234	6.22
606.423	6.12
606.612	6.18
606.802	6.09
606.991	6.22
607.181	6.16
607.37	6.05
607.559	5.91
607.749	6.04
607.938	5.93
608.127	6
608.316	6.03
608.506	6.01
608.695	6.07
608.884	5.97
609.073	5.97
609.263	5.97
609.452	5.99
609.641	5.85
609.83	5.84
610.019	5.94
610.208	5.82
610.397	5.84
610.586	5.89
610.775	5.73
610.965	5.82
611.154	5.71
611.343	5.77
611.532	5.64
611.721	5.77
611.91	5.73
612.099	5.71
612.287	5.63
612.476	5.55
612.665	5.74
612.854	5.58
613.043	5.61
613.232	5.62
613.421	5.52
613.61	5.54
613.798	5.57
613.987	5.55
614.176	5.52
614.365	5.49
614.554	5.54
614.742	5.5
614.931	5.29
615.12	5.56
615.309	5.43
615.497	5.36
615.686	5.3
615.875	5.4
616.063	5.38
616.252	5.29
616.44	5.36
616.629	5.32
616.818	5.28
617.006	5.24
617.195	5.2
617.383	5.27
617.572	5.17
617.76	5.21
617.949	5.21
618.137	5.25
618.326	5.21
618.514	5.02
618.703	5
618.891	5.1
619.079	5.04
619.268	5.11
619.456	4.96
619.644	5.16
619.833	4.98
620.021	4.96
620.209	4.96
620.398	4.98
620.586	4.85
620.774	4.98
620.962	4.83
621.151	5
621.339	4.9
621.527	4.8
621.715	4.8
621.903	4.8
622.092	4.75
622.28	4.95
622.468	4.63
622.656	4.76
622.844	4.85
623.032	4.73
623.22	4.64
623.408	4.85
623.596	4.67
623.784	4.76
623.972	4.63
624.16	4.66
624.348	4.76
624.536	4.74
624.724	4.48
624.912	4.64
625.1	4.64
625.288	4.61
625.476	4.49
625.664	4.6
625.851	4.52
626.039	4.54
626.227	4.44
626.415	4.5
626.603	4.43
626.79	4.43
626.978	4.44
627.166	4.5
627.354	4.43
627.541	4.37
627.729	4.2
627.917	4.47
628.104	4.45
628.292	4.23
628.48	4.31
628.667	4.31
628.855	4.37
629.042	4.33
629.23	4.22
629.418	4.26
629.605	4.26
629.793	4.13
629.98	4.18
630.168	4.13
630.355	4.16
630.543	4.15
630.73	4.09
630.917	4.11
631.105	4.18
631.292	4.1
631.48	4.09
631.667	4.2
631.854	4.02
632.042	3.99
632.229	3.92
632.416	3.97
632.604	3.95
632.791	3.81
632.978	3.95
633.165	3.95
633.353	4
633.54	3.94
633.727	3.76
633.914	3.86
634.101	3.81
634.289	3.9
634.476	3.78
634.663	3.68
634.85	3.79
635.037	3.74
635.224	3.67
635.411	3.82
635.598	3.73
635.785	3.72
635.972	3.72
636.159	3.67
636.346	3.68
636.533	3.62
636.72	3.64
636.907	3.63
637.094	3.57
637.281	3.5
637.468	3.54
637.655	3.54
637.842	3.57
638.029	3.52
638.215	3.49
638.402	3.52
638.589	3.41
638.776	3.45
638.963	3.38
639.149	3.52
639.336	3.54
639.523	3.43
639.709	3.44
639.896	3.4
640.083	3.4
640.27	3.43
640.456	3.34
640.643	3.31
640.829	3.29
641.016	3.28
641.203	3.21
641.389	3.29
641.576	3.32
641.762	3.2
641.949	3.23
642.135	3.26
642.322	3.16
642.508	3.12
642.695	3.13
642.881	3.13
643.068	3.09
643.254	3.15
643.441	3.16
643.627	3.16
643.813	3.06
644	3.12
644.186	3.06
644.372	3.03
644.559	3.12
644.745	3.03
644.931	2.96
645.118	2.99
645.304	3
645.49	2.96
645.676	2.95
645.862	2.98
646.049	3.01
646.235	2.96
646.421	3.05
646.607	3.02
646.793	2.92
646.979	2.82
647.165	2.93
647.352	2.89
647.538	2.88
647.724	2.85
647.91	2.77
648.096	2.84
648.282	2.87
648.468	2.79
648.654	2.85
648.84	2.84
649.026	2.73
649.212	2.75
649.397	2.66
649.583	2.7
649.769	2.7
649.955	2.67
650.141	2.73
650.327	2.73
650.513	2.64
650.698	2.67
650.884	2.51
651.07	2.71
651.256	2.67
651.442	2.57
651.627	2.49
651.813	2.6
651.999	2.57
652.184	2.55
652.37	2.57
652.556	2.53
652.741	2.64
652.927	2.35
653.113	2.47
653.298	2.46
653.484	2.46
653.669	2.42
653.855	2.47
654.04	2.51
654.226	2.44
654.412	2.47
654.597	2.37
654.782	2.41
654.968	2.51
655.153	2.37
655.339	2.4
655.524	2.28
655.71	2.4
655.895	2.3
656.08	2.29
656.266	2.38
656.451	2.34
656.636	2.23
656.822	2.26
657.007	2.28
657.192	2.2
657.378	2.19
657.563	2.2
657.748	2.26
657.933	2.22
658.118	2.19
658.304	2.18
658.489	2.27
658.674	2.22
658.859	2.1
659.044	2.14
659.229	2.2
659.414	2.17
659.599	2.14
659.785	2.04
659.97	2.11
660.155	2.16
660.34	2.14
660.525	2.08
660.71	2.01
660.895	2.05
661.08	2.06
661.264	2.03
661.449	2.11
661.634	2.09
661.819	2.1
662.004	1.99
662.189	1.95
662.374	1.99
662.559	1.93
662.743	1.86
662.928	2.01
663.113	1.91
663.298	1.93
663.483	1.88
663.667	1.95
663.852	1.87
664.037	1.93
664.221	1.88
664.406	1.99
664.591	1.91
664.775	1.89
664.96	1.87
665.145	1.85
665.329	1.95
665.514	1.8
665.698	1.79
665.883	1.75
666.068	1.87
666.252	1.84
666.437	1.75
666.621	1.83
666.806	1.85
666.99	1.8
667.174	1.72
667.359	1.84
667.543	1.75
667.728	1.77
667.912	1.66
668.096	1.75
668.281	1.69
668.465	1.76
668.649	1.68
668.834	1.66
669.018	1.66
669.202	1.71
669.387	1.61
669.571	1.78
669.755	1.64
669.939	1.64
670.124	1.69
670.308	1.7
670.492	1.65
670.676	1.6
670.86	1.65
671.044	1.59
671.228	1.66
671.413	1.55
671.597	1.53
671.781	1.55
671.965	1.64
672.149	1.54
672.333	1.6
672.517	1.55
672.701	1.63
672.885	1.55
673.069	1.48
673.253	1.62
673.437	1.55
673.621	1.49
673.804	1.55
673.988	1.58
674.172	1.51
674.356	1.4
674.54	1.5
674.724	1.61
674.908	1.48
675.091	1.55
675.275	1.49
675.459	1.48
675.643	1.52
675.826	1.47
676.01	1.43
676.194	1.46
676.377	1.5
676.561	1.45
676.745	1.41
676.928	1.45
677.112	1.46
677.296	1.39
677.479	1.35
677.663	1.37
677.846	1.44
678.03	1.37
678.213	1.31
678.397	1.42
678.58	1.35
678.764	1.32
678.947	1.26
679.131	1.35
679.314	1.44
679.498	1.36
679.681	1.35
679.865	1.38
680.048	1.27
680.231	1.21
680.415	1.22
680.598	1.25
680.781	1.26
680.965	1.26
681.148	1.33
681.331	1.22
681.514	1.34
681.698	1.18
681.881	1.22
682.064	1.27
682.247	1.27
682.43	1.15
682.614	1.22
682.797	1.35
682.98	1.25
683.163	1.16
683.346	1.22
683.529	1.18
683.712	1.13
683.895	1.23
684.078	1.11
684.261	1.11
684.444	1.23
684.627	1.23
684.81	1.14
684.993	1.14
685.176	1.21
685.359	1.06
685.542	1.09
685.725	1.23
685.908	1.2
686.091	1.14
686.274	1.2
686.457	1.19
686.639	1.15
686.822	1.15
687.005	1.11
687.188	1.2
687.371	1.29
687.553	1.17
687.736	1.13
687.919	1.21
688.102	1.19
688.284	1.05
688.467	1.07
688.65	1.08
688.832	1
689.015	1.07
689.197	0.95
689.38	1.16
689.563	1.17
689.745	1
689.928	0.98
690.11	1.03
690.293	1.09
690.475	0.97
690.658	1.08
690.84	0.99
691.023	0.94
691.205	0.95
691.388	0.98
691.57	1.14
691.752	1.05
691.935	0.93
692.117	1
692.3	0.97
692.482	1
692.664	0.89
692.847	0.97
693.029	1.03
693.211	0.97
693.393	0.89
693.576	0.86
693.758	0.99
693.94	0.96
694.122	0.97
694.304	0.91
694.487	0.89
694.669	0.94
694.851	0.86
695.033	0.88
695.215	0.9
695.397	0.91
695.579	0.89
695.761	0.86
695.943	0.81
696.125	1.06
696.308	0.92
696.49	0.8
696.671	1.05
696.853	0.87
697.035	1.17
697.217	0.86
697.399	1.02
697.581	0.86
697.763	0.92
697.945	0.8
698.127	0.84
698.309	0.97
698.491	0.87
698.672	0.88
698.854	0.93
699.036	0.94
699.218	0.81
699.399	0.87
699.581	0.92
699.763	0.77
699.945	0.75
700.126	0.74
700.308	0.79
700.49	0.8
700.671	0.76
700.853	0.74
701.035	0.77
701.216	0.83
701.398	0.78
701.579	0.79
701.761	0.79
701.943	0.8
702.124	0.8
702.306	0.81
702.487	0.96
702.669	0.74
702.85	0.71
703.031	0.72
703.213	0.92
703.394	0.92
703.576	0.72
703.757	0.93
703.938	0.86
704.12	1.02
704.301	0.75
704.483	0.77
704.664	0.76
704.845	0.86
705.026	0.76
705.208	0.64
705.389	0.77
705.57	0.75
705.751	0.72
705.933	0.72
706.114	0.86
706.295	0.73
706.476	0.62
706.657	0.85
706.838	0.79
707.02	0.78
707.201	0.76
707.382	0.65
707.563	0.78
707.744	0.7
707.925	0.7
708.106	0.66
708.287	0.72
708.468	0.84
708.649	0.71
708.83	0.74
709.011	0.72
709.192	0.84
709.373	0.62
709.554	0.57
709.734	0.77
709.915	0.76
710.096	0.64
710.277	0.52
710.458	0.64
710.639	0.76
710.819	0.52
711	0.57
711.181	0.74
711.362	0.72
711.542	0.72
711.723	0.57
711.904	0.79
712.085	0.72
712.265	0.67
712.446	0.51
712.627	0.6
712.807	0.67
712.988	0.61
713.168	0.49
713.349	0.69
713.53	0.52
713.71	0.53
713.891	0.55
714.071	0.62
714.252	0.56
714.432	0.58
714.613	0.47
714.793	0.61
714.974	0.77
715.154	0.64
715.334	0.71
715.515	0.74
715.695	0.54
715.876	0.56
716.056	0.57
716.236	0.54
716.417	0.56
716.597	0.54
716.777	0.8
716.957	0.61
717.138	0.58
717.318	0.49
717.498	0.47
717.678	0.67
717.859	0.66
718.039	0.46
718.219	0.58
718.399	0.56
718.579	0.46
718.759	0.52
718.939	0.56
719.12	0.61
719.3	0.51
719.48	0.38
719.66	0.4
719.84	0.74
720.02	0.56
720.2	0.53
720.38	0.57
720.56	0.7
720.74	0.48
720.92	0.57
721.1	0.77
721.279	0.67
721.459	0.52
721.639	0.41
721.819	0.53
721.999	0.44
722.179	0.58
722.359	0.46
722.538	0.47
722.718	0.53
722.898	0.49
723.078	0.49
723.257	0.41
723.437	0.59
723.617	0.47
723.797	0.5
723.976	0.53
724.156	0.59
724.336	0.58
724.515	0.69
724.695	0.37
724.874	0.51
725.054	0.64
725.234	0.53
725.413	0.52
725.593	0.52
725.772	0.53
725.952	0.45
726.131	0.5
726.311	0.46
726.49	0.5
726.67	0.43
726.849	0.42
727.028	0.49
727.208	0.43
727.387	0.52
727.567	0.42
727.746	0.44
727.925	0.49
728.105	0.42
728.284	0.38
728.463	0.46
728.643	0.51
728.822	0.38
729.001	0.48
729.18	0.49
729.359	0.65
729.539	0.51
729.718	0.5
729.897	0.64
730.076	0.47
730.255	0.39
730.434	0.42
730.614	0.5
730.793	0.65
730.972	0.49
731.151	0.45
731.33	0.53
731.509	0.61
731.688	0.48
731.867	0.51
732.046	0.32
732.225	0.77
732.404	0.38
732.583	0.38
732.762	0.46
732.941	0.61
733.12	0.47
733.298	0.44
733.477	0.67
733.656	0.49
733.835	0.46
734.014	0.5
734.193	0.54
734.371	0.55
734.55	0.55
734.729	0.32
734.908	0.52
735.086	0.5
735.265	0.58
735.444	0.35
735.623	0.34
735.801	0.38
735.98	0.48
736.159	0.5
736.337	0.42
736.516	0.59
736.694	0.44
736.873	0.42
737.052	0.76
737.23	0.67
737.409	0.52
737.587	0.68
737.766	0.32
737.944	0.38
738.123	0.67
738.301	0.56
738.479	0.48
738.658	0.58
738.836	0.32
739.015	0.48
739.193	0.52
739.371	0.3
739.55	0.47
739.728	0.38
739.906	0.67
740.085	0.71
740.263	0.49
740.441	0.24
740.62	0.77
740.798	0.64
740.976	0.25
741.154	0.32
741.332	0.67
741.511	0.46
741.689	0.48
741.867	0.55
742.045	0.55
742.223	0.52
742.401	0.36
742.579	0.5
742.757	0.6
742.935	0.38
743.114	0.39
743.292	0.41
743.47	0.34
743.648	0.52
743.826	0.46
744.004	0.48
744.181	0.66
744.359	0.4
744.537	0.53
744.715	0.29
744.893	0.43
745.071	0.57
745.249	0.29
745.427	0.42
745.605	0.58
745.782	0.42
745.96	0.49
746.138	0.59
746.316	0.49
746.493	0.4
746.671	0.4
746.849	0.37
747.027	0.64
747.204	0.4
747.382	0.44
747.56	0.17
747.737	0.48
747.915	0.41
748.093	0.45
748.27	0.34
748.448	0.32
748.625	0.2
748.803	0.34
748.98	0.31
749.158	0.52
749.335	0.49
749.513	0.35
749.69	0.35
749.868	0.31
750.045	0.36
750.223	0.31
750.4	0.13
750.578	0.56
750.755	0.4
750.932	0.26
751.11	0.44
751.287	0.3
751.464	0.58
751.642	0.33
751.819	0.49
751.996	0.43
752.173	0.35
752.351	0.25
752.528	0.29
752.705	0.36
752.882	0.27
753.06	0.26
753.237	0.44
753.414	0.7
753.591	0.66
753.768	0.43
753.945	0.35
754.122	0.42
754.299	0.47
754.476	0.32
754.654	0.33
754.831	0.56
755.008	0.52
755.185	0.38
755.362	0.3
755.539	0.45
755.716	0.4
755.892	0.42
756.069	0.51
756.246	0.44
756.423	0.37
756.6	0.51
756.777	0.2
756.954	0.54
757.131	0.32
757.307	0.16
757.484	0.12
757.661	0.42
757.838	0.54
758.015	0.18
758.191	0.47
758.368	0.45
758.545	0.6
758.721	0.57
758.898	0.28
759.075	0.42
759.251	0.43
759.428	0.38
759.605	0.23
759.781	0.36
759.958	0.48
760.134	0.31
760.311	0.25
760.488	0.54
760.664	0.52
760.841	0.32
761.017	0.35
761.194	0.49
761.37	0.55
761.547	0.42
761.723	0.37
761.899	0.44
762.076	0.31
762.252	0.17
762.429	0.27
762.605	0.52
762.781	0.41
762.958	0.3
763.134	0.3
763.31	0.24
763.486	0.55
763.663	0.18
763.839	0.46
764.015	0.04
764.191	0.23
764.368	0.27
764.544	0.24
764.72	0.34
764.896	0.47
765.072	0.42
765.248	0.36
765.425	0.25
765.601	0.4
765.777	0.28
765.953	0.01
766.129	0.25
766.305	0.29
766.481	0.47
766.657	0.36
766.833	0.59
767.009	0.28
767.185	0.4
767.361	0.32
767.537	0.2
767.713	0.52
767.889	0.32
768.065	0.39
768.24	0.26
768.416	0.57
768.592	0.3
768.768	0.42
768.944	0.49
769.12	0.28
769.295	0.33
769.471	0.36
769.647	0.37
769.823	0.6
769.998	0.21
770.174	0.22
770.35	0.92
770.525	0.82
770.701	0.33
770.877	0.31
771.052	0.3
771.228	0.5
771.403	0.44
771.579	0.43
771.755	0.81
771.93	0.29
772.106	0.27
772.281	0.12
772.457	0.4
772.632	0.51
772.808	0.2
772.983	0.18
773.159	0.16
773.334	0.56
773.509	0.51
773.685	0.23
773.86	0.84
774.036	0.57
774.211	0.38
774.386	0.29
774.562	0.48
774.737	0.68
774.912	0.24
775.087	0.47
775.263	0.43
775.438	0.31
775.613	0.25
775.788	0.29
775.964	0.53
776.139	0.94
776.314	0.16
776.489	0.41
776.664	0.48
776.839	0.09
777.014	0.47
777.19	0.53
777.365	0.66
777.54	0.64
777.715	0.27
777.89	0.36
778.065	0.08
778.24	0.2
778.415	0.51
778.59	0.26
778.765	0.25
778.94	0.49
779.115	0.34
779.289	0.18
779.464	0.35
779.639	0.33
779.814	0.18
779.989	0.18
780.164	0.7
780.339	0.53
780.513	0.19
780.688	0.13
780.863	0.29
781.038	0.48
781.212	0.11
781.387	0.28
781.562	0.83
781.737	0.14
781.911	0.52
782.086	0.22
782.261	0.49
782.435	0.74
782.61	0.21
782.784	0.35
782.959	0.71
783.134	0.24
783.308	0.26
783.483	0.36
783.657	1.05
783.832	0.61
784.006	0.07
784.181	0.48
784.355	0.62
784.53	0.21
784.704	0.17
784.878	0.82
785.053	0.62
785.227	0.57
785.402	0.69
785.576	0.29
785.75	0.38
785.925	0.35
786.099	0.44
786.273	0.51
786.448	0.56
786.622	0.73
786.796	0.26
786.97	0.42
787.145	1.24
787.319	-0.01
787.493	0.15
787.667	0.03
787.841	0.51
788.015	0.82
788.19	0.28
788.364	0.3
788.538	0.89
788.712	0.54
788.886	0.32
789.06	0.6
789.234	0.71
789.408	0.12
789.582	0.22
789.756	0.36
789.93	0.3
790.104	0.15
790.278	0.38
790.452	0.02
790.626	0.47
790.8	0.29
790.973	0.75
791.147	0.75
791.321	0.8
791.495	0.87
791.669	0.36
791.843	0.64
792.016	0.43
792.19	0.82
792.364	0.1
792.538	1.25
792.711	0.73
792.885	0.45
793.059	0.04
793.233	-0.11
793.406	0.66
793.58	0.46
793.754	0.5
793.927	0.25
794.101	0.95
794.274	0.61
794.448	0.49
794.622	-0.13
794.795	1.09
794.969	0.31
795.142	0.65
795.316	0.23
795.489	0.27
795.663	0.81
795.836	0.3
796.009	0.13
796.183	0.71
796.356	0.59
796.53	0.35
796.703	0.35
796.876	1.18
797.05	0.19
797.223	0.37
797.396	0.43
797.57	0.72
797.743	0.95
797.916	0.66
798.09	0.38
798.263	1.02
798.436	0.76
798.609	0.12
798.782	0.32
798.956	0.65
799.129	0.4
799.302	0.22
799.475	0.49
799.648	0.29
799.821	0.47
799.994	0.39
800.167	0
800.34	0.53
800.514	0.6
800.687	0.34
800.86	0.27
801.033	0.68
801.206	0.81
801.379	0.03
801.551	0.71
801.724	0.92
801.897	1.3
802.07	0.44
802.243	-0.12
802.416	0.54
802.589	0.55
802.762	0.53
802.935	0.84
803.107	0.9
803.28	0.95
803.453	0.66
803.626	0.43
803.798	0.52
803.971	0.23
804.144	0.62
804.317	0.77
804.489	0.87
804.662	0.53
804.835	0.25
805.007	0.18
805.18	1.19
805.353	0.41
805.525	0.3
805.698	0.22
805.87	0.71
806.043	0.79
806.215	-0.14
806.388	-0.07
806.56	0.62
806.733	1.12
806.905	0.41
807.078	0.04
807.25	0.76
807.423	0.76
807.595	0.16
807.768	0.34
807.94	0.97
808.112	0.72
808.285	0.83
808.457	0.21
808.629	0.41
808.802	0.84
808.974	0.84
809.146	0.24
809.318	0.32
809.491	0.87
809.663	0.76
809.835	0.32
810.007	0.65
810.18	0.96
810.352	0.35
810.524	0.61
810.696	0.97
810.868	0.97
811.04	0.59
811.212	0.45
811.384	1.09
811.556	0.89
811.728	0.32
811.901	1.81
812.073	0.52
812.245	1.12
812.417	0.32
812.589	-0.01
812.76	0.69
812.932	0.91
813.104	0.96
813.276	0.62
813.448	1.2
813.62	1.19
813.792	0.8
813.964	0.27
814.136	0.76
814.307	0.69
814.479	0.43
814.651	0.19
814.823	2.06
814.995	0.32
815.166	0.9
815.338	0.08
815.51	0.09
815.681	1.69
815.853	0.47
816.025	0.55
816.196	1.31
816.368	1.09
816.54	0.23
816.711	0.28
816.883	1
817.054	2.06
817.226	-0.21
817.398	1.24
817.569	0.42
817.741	0.37
817.912	0.84
818.084	0.25
818.255	1.55
818.426	0.06
818.598	0.65
818.769	0.01
818.941	1
819.112	1.82
819.283	0.79
819.455	0.21
819.626	0.72
819.798	1.13
819.969	0.63
820.14	0.38
820.311	0.68
820.483	0.92
820.654	0.51
820.825	0.46
820.996	0.65
821.168	0.23
821.339	0.09
821.51	0.03
821.681	0.28
821.852	0.8
822.023	-0.13
822.195	-0.8
822.366	1.47
822.537	0.56
822.708	0.42
822.879	0.29
823.05	1.35
823.221	0.63
823.392	1.26
823.563	1.26
823.734	1.12
823.905	0.99
824.076	0.3
824.247	-0.04
824.418	0.82
824.589	1.38
824.759	0.06
824.93	0.58
825.101	-0.7
825.272	1.66
825.443	1.54
825.614	1.42
825.784	-0.3
825.955	2.47
826.126	1.11
826.297	0.56
826.467	1.62
826.638	2.04
826.809	0.21
826.98	0.93
827.15	1.02
827.321	0.65
827.492	1.16
827.662	0.71
827.833	1.7
828.003	1.57
828.174	0.08
828.345	0.12
828.515	2.05
828.686	0.98
828.856	0.59
829.027	0.58
829.197	1.59
829.368	1.23
829.538	0.2
829.709	0.16
829.879	1.47
830.049	0.87
830.22	0.76
830.39	0.17
830.56	1.72
830.731	1.06
830.901	0.15
831.072	0.52
831.242	1.44
831.412	0.98
831.582	0.76
831.753	-0.24
831.923	1.1
832.093	1.32
832.263	0.74
832.434	-0.06
832.604	0.51
832.774	1.43
832.944	0.28
833.114	0.54
833.284	1.34
833.454	0.2
833.624	-0.02
833.795	0.56
833.965	1.83
834.135	1.55
834.305	-0.71
834.475	0.03
834.645	0.85
834.815	1.02
834.985	0.19
835.155	-0.29
835.325	1.71
835.494	2.11
835.664	0.77
835.834	0.53
836.004	0.99
836.174	1.31
836.344	0.83
836.514	-0.82
836.684	0.93
836.853	0.73
837.023	1.38
837.193	0.22
837.363	1.74
837.532	2.1
837.702	0.29
837.872	0.3
838.041	1.53
838.211	2.55
838.381	-0.34
838.55	1.04
838.72	4.1
838.89	2.77
839.059	0.52
839.229	0.45
839.398	3.37
839.568	0.57
839.738	0.3
839.907	2.41
840.077	1.02
840.246	0.51
840.416	-0.35
840.585	-0.16
840.755	3.16
840.924	2.16
841.093	0.33
841.263	0.32
841.432	1.41
841.602	0.59
841.771	-0.44
841.94	0.61
842.11	3.12
842.279	3.56
842.448	0.03
842.617	-0.24
842.787	2.55
842.956	-0.41
843.125	1.28
843.294	1.19
843.464	2.66
843.633	1.92
843.802	0.41
843.971	1.03
844.14	2.32
844.309	1.93
844.479	-1.02
844.648	-0.07
844.817	0.45
844.986	1.46
845.155	0.95
845.324	0.84
845.493	0.59
845.662	0.46
845.831	1.47
846	1.67
846.169	0.75
846.338	2.48
846.507	0.76
846.676	2.31
846.844	0.13
847.013	1.29
847.182	1.16
847.351	0.12
847.52	1.19
847.689	1.07
847.858	0.18
848.026	-0.15
848.195	1.13
848.364	0.77
848.533	-0.35
848.701	0.79
848.87	1.52
849.039	1.28
849.207	2.18
849.376	3.27
849.545	3.57
849.713	0.76
849.882	1.04
850.051	0.65
850.219	1.14
850.388	2.18
850.556	0.15
850.725	1.2
850.893	0.79
851.062	0.59
851.23	1.25
851.399	-0.3
851.567	0.87
851.736	0.85
851.904	-0.17
852.073	1.42
852.241	1.57
852.41	1.35
852.578	1.31
852.746	0.31
852.915	1.59
853.083	1.32
853.251	-0.85
853.42	-0.32
853.588	1.24
853.756	3.5
853.924	1.26
854.093	1.76
854.261	1.37
854.429	0.01
854.597	2.02
854.765	0.06
854.934	3.05
855.102	3.37
855.27	0.7
855.438	1.3
855.606	1.91
855.774	3.6
855.942	0.15
856.11	-0.45
856.278	2.65
856.446	2.48
856.614	2.25
856.782	0.09
856.95	3.32
857.118	1.38
857.286	1.79
857.454	0.23
857.622	3.43
857.79	1.56
857.958	-0.01
858.126	0.89
858.294	-1.96
858.462	1.49
858.629	-0.86
858.797	-0.07
858.965	2.35
859.133	0.86
859.301	0.12
859.468	2.68
859.636	2.16
859.804	3.73
859.971	2.01
860.139	0.15
860.307	2.68
860.474	1.86
860.642	-0.27
860.81	0.55
860.977	1.35
861.145	3.07
861.313	0.54
861.48	0.69
861.648	3.2
861.815	2.07
861.983	0.36
862.15	0.85
862.318	2.05
862.485	2.89
862.653	1.39
862.82	0.06
862.988	3.67
863.155	1.66
863.322	1.34
863.49	-0.21
863.657	1.52
863.824	4.43
863.992	1.98
864.159	1.07
864.326	3.43
864.494	2.2
864.661	4.12
864.828	-0.68
864.996	2.59
865.163	3.3
865.33	0.77
865.497	-1.95
865.664	-0.58
865.832	-0.59
865.999	1.83
866.166	-0.44
866.333	2.54
866.5	-0.13
866.667	0.97
866.834	1.59
867.001	3.39
867.168	-0.17
867.335	1.09
867.502	-0.63
867.669	2.3
867.836	5.16
868.003	2.02
868.17	3.4
868.337	1.61
868.504	5.5
868.671	-0.93
868.838	0.46
869.005	4.59
869.172	2.4
869.339	2.37
869.505	1.41
869.672	2.69
869.839	5.37
870.006	1.82
870.173	-1.1
870.339	3.03
870.506	6.19
870.673	-0.66
870.84	2.4
871.006	2.49
871.173	4.15
871.34	2.35
871.506	-0.27
871.673	3.92
871.839	-1.15
872.006	1.89
872.173	0.52
872.339	3.54
872.506	4.76
872.672	1.37
872.839	0.94
873.005	3.65
873.172	5.74
873.338	3.44
873.505	2.25
873.671	2.5
873.838	3.63
874.004	-1.78
874.171	0.26
874.337	4.9
874.503	4.23
874.67	-0.11
874.836	1.66
875.002	6.42
875.169	2.61
875.335	2.29
875.501	2.46
875.668	3.88
875.834	0.68
876	0.2
876.166	2.04
876.332	3.11
876.499	6.57
876.665	-0.5
876.831	0.92
876.997	9.63
877.163	1.16
877.329	0.45
877.495	0.34
877.662	4.31
877.828	2.04
877.994	1.48
878.16	-2.38
878.326	2.74
878.492	2.27
878.658	2.54
878.824	2.36
878.99	4.9
879.156	0.32
879.322	4.67
879.487	1.03
879.653	4.29
879.819	3.58
879.985	-0.35
880.151	3.05
880.317	2.7
880.483	2.53
880.648	3.37
880.814	-0.72
880.98	1.32
881.146	-0.93
881.312	1.47
881.477	0.21
881.643	1.13
881.809	3.7
881.974	3.97
882.14	-1.53
882.306	1.55
882.471	5.98
882.637	0.55
882.803	1.65
882.968	4.21
883.134	6.4
883.299	0.42
883.465	-0.29
883.63	5.9
883.796	2.43
883.961	1.02
884.127	2.28
884.292	-3.2
884.458	0.25
884.623	0.25
