Data from Apollo_Calib_20240827__AbsoluteIrradiance__768__11-57-02-211.txt Node

Date: Wed Aug 28 11:57:02 BST 2024
User: biology
Spectrometer: FLMT08252
Trigger mode: 0
Integration Time (sec): 5.000000E-1
Scans to average: 5
Electric dark correction enabled: true
Nonlinearity correction enabled: false
Boxcar width: 0
XAxis mode: Wavelengths
Number of Pixels in Spectrum: 3648
>>>>>Begin Spectral Data<<<<<
179.588	-0
179.809	-0
180.03	-0
180.251	-0
180.473	-0
180.694	0
180.915	0
181.136	-0
181.357	0
181.578	-0
181.799	-0
182.02	-0
182.241	-0
182.462	-0
182.683	0
182.904	-0
183.125	-0
183.346	0
183.567	0
183.788	0
184.009	0
184.23	0
184.451	0
184.672	0
184.892	0
185.113	0
185.334	0
185.555	0
185.776	0
185.996	0
186.217	0
186.438	0
186.659	0
186.879	0
187.1	0
187.321	0
187.541	0
187.762	0
187.983	0
188.203	0
188.424	0
188.644	0
188.865	0
189.086	0
189.306	0
189.527	0
189.747	0
189.968	0
190.188	0
190.409	0
190.629	0
190.849	0
191.07	0
191.29	0
191.511	0
191.731	0
191.951	0
192.172	0
192.392	0
192.612	0
192.833	0
193.053	0
193.273	0
193.493	0
193.714	0
193.934	0
194.154	0
194.374	0
194.594	0
194.815	0
195.035	0
195.255	0
195.475	0
195.695	0
195.915	0
196.135	0
196.355	0
196.575	0
196.795	0
197.015	0
197.235	0
197.455	0
197.675	0
197.895	0
198.115	0
198.335	0
198.555	0
198.775	0
198.995	0
199.214	0
199.434	0
199.654	0
199.874	0
200.094	3.7
200.313	2.1
200.533	1.92
200.753	1.99
200.973	3.48
201.192	2.88
201.412	0.88
201.632	1.29
201.851	3.4
202.071	2
202.291	1.65
202.51	1.58
202.73	2.58
202.95	2.38
203.169	1.69
203.389	1.56
203.608	1.99
203.828	1.92
204.047	1.49
204.267	2.18
204.486	2.01
204.706	1.91
204.925	1.87
205.145	1.56
205.364	2.28
205.583	2.58
205.803	1.69
206.022	1.43
206.242	1.88
206.461	1.45
206.68	1.72
206.9	1.38
207.119	2.35
207.338	2.21
207.557	1.18
207.777	1.22
207.996	1.6
208.215	1.9
208.434	0.98
208.654	0.83
208.873	1.54
209.092	2
209.311	1.09
209.53	0.97
209.749	1.2
209.968	1.23
210.187	0.99
210.407	0.75
210.626	1.29
210.845	1.79
211.064	1.5
211.283	0.89
211.502	1.62
211.721	1.03
211.94	1
212.159	1.37
212.377	1.3
212.596	1.56
212.815	1.37
213.034	1.15
213.253	1.57
213.472	1.31
213.691	0.78
213.91	0.82
214.128	0.85
214.347	1.39
214.566	0.51
214.785	0.68
215.003	1.19
215.222	0.92
215.441	0.76
215.66	0.63
215.878	0.91
216.097	1.25
216.316	0.83
216.534	0.96
216.753	1.04
216.972	0.96
217.19	0.74
217.409	0.59
217.627	0.83
217.846	0.88
218.064	1.04
218.283	0.7
218.501	1.3
218.72	1.3
218.938	0.68
219.157	0.78
219.375	1.05
219.594	1.16
219.812	0.45
220.031	0.71
220.249	1.15
220.467	1.22
220.686	0.55
220.904	0.55
221.122	0.69
221.341	1.23
221.559	0.8
221.777	0.66
221.995	0.88
222.214	1.15
222.432	0.6
222.65	0.81
222.868	0.73
223.086	0.98
223.305	0.92
223.523	0.67
223.741	1.07
223.959	0.76
224.177	0.38
224.395	0.5
224.613	0.92
224.831	0.87
225.049	0.48
225.267	0.66
225.485	0.83
225.703	0.75
225.921	0.61
226.139	0.57
226.357	0.76
226.575	0.69
226.793	0.59
227.011	1.61
227.229	0.67
227.447	0.84
227.665	0.67
227.883	0.36
228.1	0.73
228.318	0.89
228.536	0.27
228.754	0.36
228.972	0.71
229.189	0.79
229.407	0.53
229.625	0.61
229.843	0.85
230.06	0.78
230.278	0.52
230.496	0.64
230.713	0.69
230.931	0.93
231.149	0.41
231.366	0.38
231.584	0.56
231.801	1
232.019	0.41
232.236	0.4
232.454	0.38
232.671	0.62
232.889	0.54
233.106	0.42
233.324	0.66
233.541	0.47
233.759	0.61
233.976	0.41
234.194	0.57
234.411	0.62
234.628	0.48
234.846	0.43
235.063	0.53
235.28	0.51
235.498	0.49
235.715	0.46
235.932	0.85
236.149	0.47
236.367	0.47
236.584	0.58
236.801	0.53
237.018	0.6
237.236	0.57
237.453	0.34
237.67	0.65
237.887	0.47
238.104	0.4
238.321	0.41
238.538	0.47
238.755	0.7
238.973	0.42
239.19	0.51
239.407	0.35
239.624	0.58
239.841	0.3
240.058	0.3
240.275	0.62
240.492	0.47
240.709	0.46
240.925	0.45
241.142	0.47
241.359	0.39
241.576	0.31
241.793	0.33
242.01	0.55
242.227	0.65
242.444	0.57
242.66	0.57
242.877	0.42
243.094	0.45
243.311	0.48
243.527	0.53
243.744	0.58
243.961	0.53
244.178	0.36
244.394	0.48
244.611	0.63
244.828	0.71
245.044	0.43
245.261	0.37
245.477	0.52
245.694	0.51
245.911	0.37
246.127	0.46
246.344	0.6
246.56	0.53
246.777	0.38
246.993	0.39
247.21	0.51
247.426	0.53
247.643	0.37
247.859	0.4
248.076	0.41
248.292	0.72
248.508	0.39
248.725	0.47
248.941	0.47
249.157	0.53
249.374	0.38
249.59	0.42
249.806	0.44
250.023	0.54
250.239	0.39
250.455	0.31
250.671	0.46
250.888	0.47
251.104	0.43
251.32	0.4
251.536	0.41
251.752	0.45
251.969	0.46
252.185	0.42
252.401	0.57
252.617	0.42
252.833	0.37
253.049	0.43
253.265	0.44
253.481	0.49
253.697	0.32
253.913	0.29
254.129	0.51
254.345	0.4
254.561	0.34
254.777	0.33
254.993	0.5
255.209	0.45
255.425	0.41
255.641	0.35
255.857	0.52
256.073	0.38
256.288	0.3
256.504	0.29
256.72	0.39
256.936	0.59
257.152	0.4
257.367	0.4
257.583	0.42
257.799	0.48
258.015	0.34
258.23	0.41
258.446	0.56
258.662	0.37
258.877	0.27
259.093	0.34
259.309	0.4
259.524	0.43
259.74	0.29
259.955	0.27
260.171	0.46
260.387	0.36
260.602	0.45
260.818	0.42
261.033	0.31
261.249	0.37
261.464	0.37
261.68	0.28
261.895	0.46
262.11	0.45
262.326	0.32
262.541	0.27
262.757	0.47
262.972	0.42
263.187	0.39
263.403	0.42
263.618	0.49
263.833	0.44
264.049	0.19
264.264	0.3
264.479	0.36
264.694	0.49
264.91	0.25
265.125	0.33
265.34	0.4
265.555	0.55
265.77	0.38
265.986	0.33
266.201	0.46
266.416	0.5
266.631	0.35
266.846	0.39
267.061	0.44
267.276	0.46
267.491	0.15
267.706	0.4
267.921	0.39
268.136	0.42
268.351	0.38
268.566	0.23
268.781	0.46
268.996	0.44
269.211	0.39
269.426	0.27
269.641	0.36
269.856	0.41
270.071	0.28
270.285	0.28
270.5	0.41
270.715	0.41
270.93	0.35
271.145	0.36
271.359	0.43
271.574	0.27
271.789	0.32
272.004	0.27
272.218	0.31
272.433	0.39
272.648	0.3
272.862	0.42
273.077	0.32
273.292	0.36
273.506	0.2
273.721	0.3
273.936	0.37
274.15	0.43
274.365	0.27
274.579	0.37
274.794	0.4
275.008	0.39
275.223	0.24
275.437	0.32
275.652	0.42
275.866	0.31
276.081	0.35
276.295	0.45
276.509	0.34
276.724	0.3
276.938	0.35
277.153	0.31
277.367	0.34
277.581	0.33
277.796	0.28
278.01	0.24
278.224	0.38
278.438	0.46
278.653	0.27
278.867	0.29
279.081	0.41
279.295	0.27
279.51	0.36
279.724	0.13
279.938	0.36
280.152	0.35
280.366	0.25
280.58	0.33
280.794	0.44
281.008	0.34
281.222	0.38
281.437	0.47
281.651	0.31
281.865	0.4
282.079	0.29
282.293	0.24
282.507	0.29
282.721	0.33
282.935	0.31
283.148	0.15
283.362	0.26
283.576	0.28
283.79	0.27
284.004	0.24
284.218	0.41
284.432	0.25
284.646	0.32
284.859	0.27
285.073	0.26
285.287	0.28
285.501	0.31
285.714	0.29
285.928	0.31
286.142	0.29
286.356	0.26
286.569	0.23
286.783	0.41
286.997	0.37
287.21	0.29
287.424	0.31
287.637	0.25
287.851	0.3
288.065	0.34
288.278	0.26
288.492	0.33
288.705	0.3
288.919	0.35
289.132	0.19
289.346	0.31
289.559	0.19
289.773	0.22
289.986	0.27
290.2	0.34
290.413	0.33
290.626	0.25
290.84	0.25
291.053	0.27
291.267	0.4
291.48	0.3
291.693	0.28
291.906	0.23
292.12	0.3
292.333	0.24
292.546	0.22
292.76	0.32
292.973	0.29
293.186	0.31
293.399	0.25
293.612	0.37
293.826	0.28
294.039	0.28
294.252	0.3
294.465	0.32
294.678	0.26
294.891	0.24
295.104	0.22
295.317	0.27
295.53	0.28
295.743	0.27
295.956	0.24
296.169	0.37
296.382	0.33
296.595	0.27
296.808	0.25
297.021	0.29
297.234	0.37
297.447	0.28
297.66	0.33
297.873	0.36
298.086	0.32
298.299	0.19
298.511	0.19
298.724	0.29
298.937	0.24
299.15	0.24
299.363	0.26
299.575	0.31
299.788	0.27
300.001	0.22
300.213	0.23
300.426	0.27
300.639	0.25
300.852	0.22
301.064	0.32
301.277	0.34
301.489	0.3
301.702	0.31
301.915	0.23
302.127	0.26
302.34	0.31
302.552	0.32
302.765	0.24
302.977	0.31
303.19	0.25
303.402	0.19
303.615	0.2
303.827	0.26
304.04	0.25
304.252	0.32
304.464	0.24
304.677	0.39
304.889	0.41
305.102	0.21
305.314	0.21
305.526	0.28
305.739	0.28
305.951	0.22
306.163	0.22
306.375	0.36
306.588	0.28
306.8	0.18
307.012	0.19
307.224	0.32
307.436	0.36
307.649	0.14
307.861	0.29
308.073	0.29
308.285	0.24
308.497	0.19
308.709	0.23
308.921	0.28
309.133	0.32
309.346	0.19
309.558	0.27
309.77	0.31
309.982	0.31
310.194	0.29
310.406	0.19
310.617	0.38
310.829	0.23
311.041	0.28
311.253	0.19
311.465	0.21
311.677	0.29
311.889	0.24
312.101	0.2
312.313	0.32
312.524	0.34
312.736	0.21
312.948	0.23
313.16	0.39
313.372	0.31
313.583	0.27
313.795	0.24
314.007	0.22
314.218	0.29
314.43	0.31
314.642	0.22
314.853	0.16
315.065	0.32
315.277	0.29
315.488	0.27
315.7	0.3
315.912	0.27
316.123	0.27
316.335	0.21
316.546	0.33
316.758	0.23
316.969	0.23
317.181	0.24
317.392	0.27
317.604	0.36
317.815	0.25
318.026	0.22
318.238	0.21
318.449	0.27
318.661	0.17
318.872	0.2
319.083	0.2
319.295	0.33
319.506	0.25
319.717	0.28
319.929	0.29
320.14	0.23
320.351	0.23
320.562	0.2
320.774	0.25
320.985	0.28
321.196	0.24
321.407	0.21
321.618	0.28
321.829	0.3
322.041	0.3
322.252	0.23
322.463	0.29
322.674	0.29
322.885	0.19
323.096	0.26
323.307	0.28
323.518	0.25
323.729	0.24
323.94	0.21
324.151	0.21
324.362	0.27
324.573	0.32
324.784	0.22
324.995	0.31
325.206	0.27
325.417	0.21
325.628	0.23
325.838	0.23
326.049	0.27
326.26	0.28
326.471	0.24
326.682	0.27
326.892	0.25
327.103	0.18
327.314	0.21
327.525	0.31
327.735	0.25
327.946	0.25
328.157	0.19
328.368	0.26
328.578	0.26
328.789	0.28
328.999	0.25
329.21	0.24
329.421	0.27
329.631	0.2
329.842	0.22
330.052	0.26
330.263	0.32
330.473	0.3
330.684	0.21
330.894	0.26
331.105	0.32
331.315	0.31
331.526	0.21
331.736	0.33
331.947	0.31
332.157	0.28
332.367	0.21
332.578	0.3
332.788	0.31
332.999	0.3
333.209	0.25
333.419	0.21
333.629	0.26
333.84	0.31
334.05	0.29
334.26	0.33
334.47	0.24
334.681	0.33
334.891	0.26
335.101	0.32
335.311	0.37
335.521	0.23
335.732	0.2
335.942	0.35
336.152	0.26
336.362	0.3
336.572	0.24
336.782	0.32
336.992	0.23
337.202	0.23
337.412	0.26
337.622	0.29
337.832	0.24
338.042	0.27
338.252	0.25
338.462	0.22
338.672	0.29
338.882	0.29
339.092	0.26
339.302	0.36
339.511	0.32
339.721	0.26
339.931	0.2
340.141	0.34
340.351	0.32
340.561	0.28
340.77	0.28
340.98	0.27
341.19	0.22
341.4	0.28
341.609	0.17
341.819	0.23
342.029	0.22
342.238	0.28
342.448	0.21
342.658	0.28
342.867	0.24
343.077	0.27
343.286	0.29
343.496	0.3
343.706	0.33
343.915	0.24
344.125	0.25
344.334	0.29
344.544	0.21
344.753	0.25
344.963	0.2
345.172	0.21
345.381	0.24
345.591	0.27
345.8	0.24
346.01	0.32
346.219	0.31
346.428	0.11
346.638	0.22
346.847	0.23
347.056	0.31
347.266	0.22
347.475	0.25
347.684	0.27
347.893	0.26
348.103	0.27
348.312	0.24
348.521	0.23
348.73	0.25
348.94	0.26
349.149	0.22
349.358	0.24
349.567	0.22
349.776	0.2
349.985	0.21
350.194	0.28
350.403	0.31
350.612	0.19
350.821	0.28
351.03	0.27
351.239	0.21
351.448	0.27
351.657	0.19
351.866	0.35
352.075	0.27
352.284	0.24
352.493	0.17
352.702	0.29
352.911	0.26
353.12	0.27
353.329	0.24
353.538	0.3
353.746	0.27
353.955	0.2
354.164	0.23
354.373	0.28
354.582	0.28
354.79	0.23
354.999	0.29
355.208	0.27
355.416	0.35
355.625	0.21
355.834	0.26
356.042	0.3
356.251	0.22
356.46	0.23
356.668	0.29
356.877	0.35
357.085	0.32
357.294	0.14
357.503	0.26
357.711	0.29
357.92	0.41
358.128	0.27
358.337	0.22
358.545	0.29
358.754	0.2
358.962	0.3
359.17	0.24
359.379	0.29
359.587	0.27
359.796	0.25
360.004	0.29
360.212	0.27
360.421	0.33
360.629	0.26
360.837	0.21
361.046	0.27
361.254	0.35
361.462	0.25
361.67	0.19
361.879	0.25
362.087	0.35
362.295	0.25
362.503	0.26
362.711	0.2
362.92	0.21
363.128	0.22
363.336	0.22
363.544	0.22
363.752	0.26
363.96	0.21
364.168	0.23
364.376	0.23
364.584	0.25
364.792	0.28
365	0.27
365.208	0.29
365.416	0.28
365.624	0.29
365.832	0.24
366.04	0.35
366.248	0.27
366.456	0.28
366.664	0.26
366.872	0.29
367.079	0.23
367.287	0.23
367.495	0.26
367.703	0.22
367.911	0.23
368.118	0.28
368.326	0.24
368.534	0.21
368.742	0.28
368.949	0.21
369.157	0.21
369.365	0.27
369.572	0.2
369.78	0.21
369.988	0.29
370.195	0.27
370.403	0.32
370.61	0.24
370.818	0.25
371.026	0.34
371.233	0.23
371.441	0.28
371.648	0.24
371.856	0.24
372.063	0.24
372.271	0.23
372.478	0.22
372.685	0.24
372.893	0.32
373.1	0.23
373.308	0.23
373.515	0.35
373.722	0.33
373.93	0.24
374.137	0.3
374.344	0.34
374.552	0.33
374.759	0.29
374.966	0.26
375.173	0.27
375.381	0.32
375.588	0.21
375.795	0.18
376.002	0.21
376.209	0.21
376.417	0.27
376.624	0.26
376.831	0.27
377.038	0.24
377.245	0.17
377.452	0.25
377.659	0.24
377.866	0.23
378.073	0.27
378.28	0.26
378.487	0.35
378.694	0.32
378.901	0.27
379.108	0.21
379.315	0.33
379.522	0.39
379.729	0.29
379.936	0.23
380.143	0.24
380.35	0.32
380.557	0.27
380.763	0.27
380.97	0.3
381.177	0.27
381.384	0.28
381.591	0.21
381.797	0.31
382.004	0.26
382.211	0.35
382.418	0.22
382.624	0.31
382.831	0.3
383.038	0.26
383.244	0.3
383.451	0.26
383.658	0.31
383.864	0.25
384.071	0.23
384.277	0.32
384.484	0.23
384.69	0.35
384.897	0.22
385.103	0.29
385.31	0.23
385.516	0.22
385.723	0.27
385.929	0.29
386.136	0.24
386.342	0.29
386.549	0.25
386.755	0.32
386.961	0.31
387.168	0.28
387.374	0.25
387.58	0.32
387.787	0.3
387.993	0.29
388.199	0.29
388.406	0.27
388.612	0.29
388.818	0.25
389.024	0.22
389.231	0.28
389.437	0.38
389.643	0.33
389.849	0.27
390.055	0.29
390.261	0.27
390.467	0.3
390.674	0.29
390.88	0.3
391.086	0.32
391.292	0.26
391.498	0.33
391.704	0.32
391.91	0.22
392.116	0.25
392.322	0.22
392.528	0.31
392.734	0.28
392.94	0.26
393.146	0.28
393.352	0.3
393.557	0.24
393.763	0.27
393.969	0.32
394.175	0.27
394.381	0.35
394.587	0.28
394.792	0.29
394.998	0.36
395.204	0.38
395.41	0.22
395.615	0.36
395.821	0.33
396.027	0.37
396.233	0.3
396.438	0.36
396.644	0.41
396.85	0.34
397.055	0.3
397.261	0.33
397.466	0.33
397.672	0.36
397.878	0.39
398.083	0.38
398.289	0.32
398.494	0.43
398.7	0.38
398.905	0.26
399.111	0.42
399.316	0.31
399.522	0.32
399.727	0.37
399.932	0.32
400.138	0.33
400.343	0.41
400.549	0.36
400.754	0.34
400.959	0.4
401.165	0.35
401.37	0.37
401.575	0.47
401.78	0.33
401.986	0.32
402.191	0.39
402.396	0.38
402.601	0.4
402.807	0.36
403.012	0.39
403.217	0.44
403.422	0.39
403.627	0.42
403.832	0.41
404.037	0.49
404.243	0.45
404.448	0.39
404.653	0.4
404.858	0.45
405.063	0.52
405.268	0.42
405.473	0.38
405.678	0.41
405.883	0.65
406.088	0.45
406.293	0.39
406.498	0.43
406.703	0.51
406.907	0.47
407.112	0.43
407.317	0.49
407.522	0.57
407.727	0.46
407.932	0.53
408.136	0.6
408.341	0.58
408.546	0.57
408.751	0.6
408.956	0.55
409.16	0.65
409.365	0.62
409.57	0.58
409.774	0.63
409.979	0.67
410.184	0.7
410.388	0.6
410.593	0.74
410.798	0.74
411.002	0.71
411.207	0.81
411.411	0.79
411.616	0.66
411.82	0.81
412.025	0.85
412.229	0.79
412.434	0.92
412.638	0.89
412.843	0.87
413.047	0.95
413.252	0.88
413.456	0.97
413.66	0.97
413.865	1.01
414.069	1.11
414.273	1.06
414.478	1.04
414.682	1.1
414.886	1.14
415.091	1.14
415.295	1.14
415.499	1.36
415.703	1.24
415.908	1.35
416.112	1.29
416.316	1.47
416.52	1.47
416.724	1.4
416.929	1.54
417.133	1.76
417.337	1.63
417.541	1.66
417.745	1.76
417.949	1.88
418.153	1.86
418.357	1.87
418.561	2.1
418.765	2.1
418.969	2.22
419.173	2.28
419.377	2.3
419.581	2.43
419.785	2.47
419.989	2.54
420.193	2.59
420.397	2.65
420.601	2.82
420.804	2.85
421.008	2.8
421.212	3.05
421.416	3.02
421.62	3
421.823	3.08
422.027	3.36
422.231	3.24
422.435	3.26
422.638	3.32
422.842	3.44
423.046	3.46
423.249	3.6
423.453	3.64
423.657	3.83
423.86	3.86
424.064	4.05
424.268	4.2
424.471	4.17
424.675	4.4
424.878	4.52
425.082	4.5
425.285	4.76
425.489	4.73
425.692	4.79
425.896	4.87
426.099	5.12
426.303	5.18
426.506	5.29
426.71	5.56
426.913	5.79
427.116	5.84
427.32	5.83
427.523	5.96
427.726	6.36
427.93	6.39
428.133	6.65
428.336	6.77
428.54	6.98
428.743	7.19
428.946	7.39
429.149	7.37
429.353	7.47
429.556	7.59
429.759	7.55
429.962	7.84
430.165	7.89
430.368	7.52
430.571	7.67
430.775	7.74
430.978	7.69
431.181	7.73
431.384	7.81
431.587	7.92
431.79	8.24
431.993	8.22
432.196	8.57
432.399	8.94
432.602	9.03
432.805	9.06
433.008	9.62
433.211	9.57
433.414	9.8
433.616	9.89
433.819	9.91
434.022	9.98
434.225	10.15
434.428	10.17
434.631	10.64
434.833	10.43
435.036	10.61
435.239	10.85
435.442	10.88
435.645	11.1
435.847	11.27
436.05	11.48
436.253	11.69
436.455	11.67
436.658	11.46
436.861	11.96
437.063	11.99
437.266	12.02
437.468	12.41
437.671	12.71
437.874	12.64
438.076	12.47
438.279	12.98
438.481	12.97
438.684	13.87
438.886	13.31
439.089	13.64
439.291	13.73
439.494	14.13
439.696	14.17
439.899	14.75
440.101	15.11
440.303	15.22
440.506	16.08
440.708	15.78
440.91	15.94
441.113	16.16
441.315	16.42
441.517	16.2
441.72	16.63
441.922	16.38
442.124	16.15
442.326	16.59
442.529	17.01
442.731	16.83
442.933	17.19
443.135	17.02
443.337	16.99
443.539	17.38
443.742	17.17
443.944	17.81
444.146	17.66
444.348	17.37
444.55	17.5
444.752	17.68
444.954	17.63
445.156	17.54
445.358	17.83
445.56	18.21
445.762	18.02
445.964	18.45
446.166	18.2
446.368	18.28
446.57	18.22
446.772	17.84
446.974	17.61
447.175	18
447.377	17.7
447.579	17.99
447.781	17.82
447.983	17.63
448.184	17.23
448.386	17.57
448.588	17.11
448.79	17.06
448.991	17.59
449.193	17.43
449.395	16.93
449.597	16.45
449.798	16.42
450	16.05
450.202	15.92
450.403	15.98
450.605	15.9
450.806	15.5
451.008	15.4
451.21	15.33
451.411	14.73
451.613	14.06
451.814	14.35
452.016	14.26
452.217	13.61
452.419	13.67
452.62	13.28
452.821	13.13
453.023	13.02
453.224	12.62
453.426	12.26
453.627	11.44
453.828	11.65
454.03	11.68
454.231	11.6
454.432	11.37
454.634	11.25
454.835	10.96
455.036	10.86
455.238	10.38
455.439	10.16
455.64	9.88
455.841	9.88
456.042	9.89
456.244	9.65
456.445	9.31
456.646	9.02
456.847	8.87
457.048	8.91
457.249	8.81
457.45	8.58
457.651	7.99
457.852	7.88
458.054	7.63
458.255	7.51
458.456	7.6
458.657	7.52
458.858	7.1
459.058	6.96
459.259	7.02
459.46	6.75
459.661	6.65
459.862	6.83
460.063	6.59
460.264	6.52
460.465	6.31
460.666	6.4
460.866	5.98
461.067	5.78
461.268	5.8
461.469	5.64
461.67	5.65
461.87	5.45
462.071	5.45
462.272	5.35
462.473	5.28
462.673	5.49
462.874	5.29
463.075	5.3
463.275	5.35
463.476	5.3
463.676	5.34
463.877	5.15
464.078	5.14
464.278	5.15
464.479	5.04
464.679	4.94
464.88	4.89
465.08	4.85
465.281	4.7
465.481	4.59
465.682	4.36
465.882	4.35
466.083	4.28
466.283	4.28
466.483	4.14
466.684	3.91
466.884	3.82
467.085	3.87
467.285	3.95
467.485	3.81
467.686	3.75
467.886	3.59
468.086	3.54
468.286	3.57
468.487	3.61
468.687	3.38
468.887	3.42
469.087	3.48
469.287	3.37
469.488	3.25
469.688	3.39
469.888	3.39
470.088	3.3
470.288	3.19
470.488	3.15
470.688	3.05
470.888	3
471.088	2.85
471.288	2.9
471.488	2.9
471.688	2.88
471.888	2.85
472.088	2.98
472.288	2.85
472.488	2.68
472.688	2.77
472.888	2.74
473.088	2.74
473.288	2.61
473.488	2.65
473.688	2.74
473.887	2.59
474.087	2.52
474.287	2.59
474.487	2.49
474.687	2.55
474.886	2.52
475.086	2.39
475.286	2.39
475.486	2.4
475.685	2.35
475.885	2.29
476.085	2.37
476.284	2.35
476.484	2.36
476.684	2.31
476.883	2.39
477.083	2.3
477.282	2.22
477.482	2.26
477.681	2.27
477.881	2.14
478.08	2.2
478.28	2.14
478.479	2.16
478.679	2.25
478.878	2.09
479.078	2.09
479.277	2.14
479.477	2.14
479.676	2.09
479.875	2.09
480.075	2.03
480.274	2.09
480.473	2.1
480.673	2.1
480.872	2.17
481.071	2.12
481.271	2.1
481.47	2.08
481.669	2.02
481.868	2.04
482.067	2.07
482.267	1.97
482.466	2
482.665	2.05
482.864	2.01
483.063	2.04
483.262	2.07
483.461	2.12
483.661	2.16
483.86	2.08
484.059	2.12
484.258	2.11
484.457	2.07
484.656	2.05
484.855	2.16
485.054	2
485.253	2.02
485.452	2.02
485.651	2.14
485.849	2.09
486.048	2.04
486.247	2.08
486.446	2.11
486.645	2.11
486.844	2.11
487.043	2.13
487.241	2.15
487.44	2.16
487.639	2.18
487.838	2.17
488.037	2.18
488.235	2.3
488.434	2.2
488.633	2.08
488.831	2.24
489.03	2.24
489.229	2.25
489.427	2.26
489.626	2.32
489.825	2.31
490.023	2.33
490.222	2.3
490.42	2.34
490.619	2.36
490.817	2.39
491.016	2.36
491.214	2.46
491.413	2.47
491.611	2.37
491.81	2.46
492.008	2.47
492.207	2.57
492.405	2.55
492.604	2.53
492.802	2.57
493	2.61
493.199	2.67
493.397	2.66
493.595	2.72
493.794	2.68
493.992	2.81
494.19	2.76
494.388	2.84
494.587	2.78
494.785	2.78
494.983	2.76
495.181	2.87
495.379	2.93
495.578	2.98
495.776	2.95
495.974	2.93
496.172	2.99
496.37	3.09
496.568	3.12
496.766	3.07
496.964	3.21
497.162	3.15
497.36	3.23
497.558	3.27
497.756	3.3
497.954	3.29
498.152	3.37
498.35	3.44
498.548	3.37
498.746	3.36
498.944	3.43
499.142	3.42
499.34	3.5
499.538	3.6
499.736	3.48
499.933	3.64
500.131	3.67
500.329	3.72
500.527	3.76
500.725	3.87
500.922	3.88
501.12	3.87
501.318	3.93
501.516	3.94
501.713	3.98
501.911	3.94
502.109	3.96
502.306	4.09
502.504	4.02
502.701	4.09
502.899	4.12
503.097	4.32
503.294	4.24
503.492	4.37
503.689	4.31
503.887	4.34
504.084	4.47
504.282	4.4
504.479	4.33
504.677	4.54
504.874	4.51
505.072	4.43
505.269	4.66
505.466	4.65
505.664	4.75
505.861	4.63
506.059	4.71
506.256	4.75
506.453	4.79
506.651	4.93
506.848	4.97
507.045	4.98
507.242	4.96
507.44	4.97
507.637	5.09
507.834	5.01
508.031	5.14
508.229	5.09
508.426	5.03
508.623	5.18
508.82	5.28
509.017	5.22
509.214	5.25
509.411	5.39
509.608	5.28
509.805	5.43
510.003	5.41
510.2	5.44
510.397	5.62
510.594	5.5
510.791	5.58
510.988	5.57
511.184	5.52
511.381	5.47
511.578	5.57
511.775	5.76
511.972	5.74
512.169	5.78
512.366	5.75
512.563	5.89
512.76	5.92
512.956	5.94
513.153	5.89
513.35	5.88
513.547	5.89
513.744	6
513.94	6
514.137	6.15
514.334	6.09
514.53	6.1
514.727	6.33
514.924	6.24
515.12	6.18
515.317	6.18
515.514	6.15
515.71	6.13
515.907	6.38
516.103	6.4
516.3	6.26
516.497	6.41
516.693	6.47
516.89	6.43
517.086	6.46
517.283	6.53
517.479	6.38
517.676	6.54
517.872	6.64
518.068	6.61
518.265	6.57
518.461	6.55
518.658	6.61
518.854	6.63
519.05	6.78
519.247	6.74
519.443	6.73
519.639	6.81
519.836	6.79
520.032	6.65
520.228	6.82
520.424	6.8
520.621	6.88
520.817	6.94
521.013	6.8
521.209	6.99
521.405	7
521.601	7
521.798	6.95
521.994	6.98
522.19	6.95
522.386	6.98
522.582	7.04
522.778	7.17
522.974	7.07
523.17	7.05
523.366	7.01
523.562	7.12
523.758	7.13
523.954	6.98
524.15	7.17
524.346	7.2
524.542	7.25
524.738	7.17
524.934	7.34
525.129	7.32
525.325	7.24
525.521	7.21
525.717	7.43
525.913	7.23
526.109	7.31
526.304	7.45
526.5	7.37
526.696	7.39
526.892	7.32
527.087	7.58
527.283	7.41
527.479	7.49
527.674	7.31
527.87	7.51
528.066	7.42
528.261	7.5
528.457	7.39
528.653	7.61
528.848	7.53
529.044	7.63
529.239	7.49
529.435	7.49
529.63	7.43
529.826	7.45
530.021	7.51
530.217	7.62
530.412	7.54
530.608	7.59
530.803	7.55
530.999	7.52
531.194	7.62
531.389	7.66
531.585	7.6
531.78	7.71
531.975	7.62
532.171	7.68
532.366	7.64
532.561	7.68
532.757	7.65
532.952	7.84
533.147	7.65
533.342	7.73
533.538	7.74
533.733	7.87
533.928	7.51
534.123	7.75
534.318	7.78
534.513	7.66
534.709	7.88
534.904	7.8
535.099	7.86
535.294	7.82
535.489	7.87
535.684	7.73
535.879	7.78
536.074	7.88
536.269	7.9
536.464	7.88
536.659	7.81
536.854	7.84
537.049	7.92
537.244	7.88
537.439	7.87
537.634	7.84
537.828	7.95
538.023	7.91
538.218	7.86
538.413	7.8
538.608	7.88
538.803	7.88
538.997	7.85
539.192	7.93
539.387	7.9
539.582	7.9
539.776	7.87
539.971	7.93
540.166	8.01
540.36	7.89
540.555	8.03
540.75	7.89
540.944	7.98
541.139	7.92
541.334	7.94
541.528	7.96
541.723	8.06
541.917	8.01
542.112	7.87
542.306	7.82
542.501	7.93
542.695	7.98
542.89	7.89
543.084	7.92
543.279	7.99
543.473	8.02
543.668	8.04
543.862	7.84
544.056	7.89
544.251	8.04
544.445	8.09
544.64	8.12
544.834	7.8
545.028	7.66
545.222	7.99
545.417	8.2
545.611	8.13
545.805	7.99
546	7.89
546.194	8.07
546.388	8.09
546.582	7.92
546.776	8.02
546.97	7.97
547.165	8.01
547.359	8.03
547.553	7.97
547.747	8.02
547.941	8.2
548.135	8
548.329	8.1
548.523	8.05
548.717	8
548.911	7.99
549.105	7.99
549.299	8.03
549.493	8.06
549.687	7.95
549.881	8.09
550.075	8.07
550.269	7.95
550.463	8.05
550.657	8.01
550.85	8.07
551.044	8.03
551.238	8.11
551.432	8.06
551.626	8.11
551.82	8.09
552.013	7.99
552.207	8.14
552.401	8.16
552.594	8.07
552.788	8.03
552.982	8.02
553.176	7.96
553.369	8.21
553.563	8.14
553.756	7.98
553.95	8.15
554.144	8.07
554.337	8.13
554.531	7.89
554.724	8.07
554.918	8.16
555.111	8.05
555.305	8.05
555.498	7.99
555.692	8.12
555.885	8.09
556.079	8.03
556.272	8.02
556.466	8.08
556.659	8.08
556.852	8.13
557.046	8.03
557.239	7.93
557.432	8
557.626	8.13
557.819	8.2
558.012	8.05
558.206	8.14
558.399	8.1
558.592	8.03
558.785	8.05
558.979	8.06
559.172	8.09
559.365	8.06
559.558	7.94
559.751	8.02
559.944	8.19
560.138	8.07
560.331	8.08
560.524	8.11
560.717	8.13
560.91	8
561.103	8.06
561.296	7.98
561.489	8.09
561.682	8.15
561.875	8.11
562.068	8.19
562.261	7.98
562.454	8.21
562.647	8.05
562.84	8.16
563.032	8.07
563.225	8.04
563.418	8.07
563.611	8.11
563.804	8.11
563.997	7.9
564.19	7.82
564.382	8.09
564.575	8.06
564.768	7.95
564.961	8.08
565.153	8
565.346	7.99
565.539	8.15
565.731	8.04
565.924	8.1
566.117	8.18
566.309	8.1
566.502	8.07
566.695	7.97
566.887	8.12
567.08	8.04
567.272	8.1
567.465	7.93
567.657	8.14
567.85	7.92
568.042	8.06
568.235	8.08
568.427	7.9
568.62	8.03
568.812	7.97
569.005	8.06
569.197	7.91
569.389	8.05
569.582	8.04
569.774	8.01
569.966	7.92
570.159	7.88
570.351	7.9
570.543	8.01
570.736	8.01
570.928	7.77
571.12	8
571.312	7.92
571.505	7.74
571.697	8
571.889	7.94
572.081	7.97
572.273	7.89
572.465	7.91
572.658	7.99
572.85	7.97
573.042	8.04
573.234	7.86
573.426	7.88
573.618	7.89
573.81	7.97
574.002	7.95
574.194	7.93
574.386	7.86
574.578	7.79
574.77	7.85
574.962	7.89
575.154	7.79
575.346	7.83
575.538	7.73
575.729	7.79
575.921	7.84
576.113	7.89
576.305	7.88
576.497	7.96
576.689	7.78
576.88	7.75
577.072	7.87
577.264	7.86
577.456	7.82
577.647	7.82
577.839	7.92
578.031	7.76
578.223	7.71
578.414	7.65
578.606	7.82
578.798	7.83
578.989	7.81
579.181	7.83
579.372	7.78
579.564	7.76
579.755	7.69
579.947	7.67
580.139	7.81
580.33	7.65
580.522	7.73
580.713	7.71
580.905	7.72
581.096	7.74
581.287	7.7
581.479	7.66
581.67	7.73
581.862	7.6
582.053	7.66
582.244	7.54
582.436	7.79
582.627	7.57
582.818	7.6
583.01	7.58
583.201	7.65
583.392	7.56
583.583	7.56
583.775	7.46
583.966	7.61
584.157	7.55
584.348	7.65
584.54	7.49
584.731	7.62
584.922	7.47
585.113	7.4
585.304	7.55
585.495	7.48
585.686	7.64
585.877	7.57
586.068	7.65
586.259	7.53
586.45	7.56
586.641	7.46
586.832	7.59
587.023	7.39
587.214	7.47
587.405	7.41
587.596	7.35
587.787	7.3
587.978	7.45
588.169	7.32
588.36	7.35
588.551	7.36
588.742	7.42
588.932	7.46
589.123	7.21
589.314	7.45
589.505	7.2
589.696	7.33
589.886	7.32
590.077	7.29
590.268	7.2
590.458	7.17
590.649	7.08
590.84	7.28
591.03	7.22
591.221	7.19
591.412	7.13
591.602	7.32
591.793	7.21
591.984	7.23
592.174	7.19
592.365	7.3
592.555	7.06
592.746	7.05
592.936	7.17
593.127	7.17
593.317	7.18
593.508	7.15
593.698	7.06
593.889	7.05
594.079	7.06
594.269	6.94
594.46	6.99
594.65	7.06
594.84	7
595.031	6.94
595.221	6.92
595.411	6.91
595.602	6.98
595.792	6.81
595.982	6.8
596.172	7.02
596.363	6.85
596.553	6.9
596.743	6.91
596.933	6.81
597.123	6.83
597.314	6.71
597.504	6.72
597.694	6.9
597.884	6.75
598.074	6.84
598.264	6.83
598.454	6.74
598.644	6.75
598.834	6.71
599.024	6.62
599.214	6.71
599.404	6.74
599.594	6.71
599.784	6.61
599.974	6.72
600.164	6.65
600.354	6.57
600.544	6.47
600.734	6.62
600.924	6.59
601.114	6.47
601.303	6.48
601.493	6.54
601.683	6.54
601.873	6.45
602.063	6.39
602.252	6.46
602.442	6.36
602.632	6.39
602.821	6.35
603.011	6.43
603.201	6.39
603.39	6.33
603.58	6.21
603.77	6.38
603.959	6.41
604.149	6.33
604.339	6.26
604.528	6.43
604.718	6.32
604.907	6.29
605.097	6.21
605.286	6.21
605.476	6.22
605.665	6.26
605.855	6.12
606.044	6.21
606.234	6.23
606.423	6.12
606.612	6.11
606.802	6.06
606.991	6.14
607.181	6.13
607.37	6.09
607.559	5.86
607.749	6.04
607.938	5.98
608.127	5.97
608.316	6.04
608.506	5.91
608.695	6.01
608.884	5.91
609.073	5.92
609.263	6.03
609.452	5.97
609.641	5.81
609.83	5.76
610.019	5.9
610.208	5.82
610.397	5.74
610.586	5.8
610.775	5.77
610.965	5.79
611.154	5.66
611.343	5.77
611.532	5.62
611.721	5.7
611.91	5.66
612.099	5.74
612.287	5.62
612.476	5.54
612.665	5.67
612.854	5.49
613.043	5.63
613.232	5.56
613.421	5.51
613.61	5.55
613.798	5.51
613.987	5.54
614.176	5.46
614.365	5.51
614.554	5.44
614.742	5.53
614.931	5.36
615.12	5.51
615.309	5.45
615.497	5.28
615.686	5.25
615.875	5.36
616.063	5.31
616.252	5.26
616.44	5.33
616.629	5.25
616.818	5.27
617.006	5.18
617.195	5.19
617.383	5.19
617.572	5.18
617.76	5.12
617.949	5.16
618.137	5.21
618.326	5.2
618.514	5.01
618.703	4.99
618.891	5.16
619.079	5.04
619.268	5.12
619.456	5.01
619.644	5.09
619.833	4.96
620.021	4.98
620.209	4.92
620.398	5.03
620.586	4.92
620.774	4.93
620.962	4.9
621.151	4.94
621.339	4.91
621.527	4.78
621.715	4.86
621.903	4.83
622.092	4.77
622.28	4.86
622.468	4.63
622.656	4.76
622.844	4.69
623.032	4.74
623.22	4.68
623.408	4.85
623.596	4.66
623.784	4.78
623.972	4.63
624.16	4.63
624.348	4.68
624.536	4.71
624.724	4.46
624.912	4.6
625.1	4.61
625.288	4.59
625.476	4.5
625.664	4.57
625.851	4.46
626.039	4.5
626.227	4.4
626.415	4.45
626.603	4.36
626.79	4.5
626.978	4.45
627.166	4.45
627.354	4.33
627.541	4.35
627.729	4.24
627.917	4.44
628.104	4.39
628.292	4.27
628.48	4.33
628.667	4.19
628.855	4.34
629.042	4.32
629.23	4.19
629.418	4.22
629.605	4.25
629.793	4.13
629.98	4.21
630.168	4.13
630.355	4.15
630.543	4.16
630.73	4.03
630.917	4.09
631.105	4.19
631.292	4.11
631.48	4.07
631.667	4.18
631.854	4.07
632.042	3.97
632.229	3.88
632.416	4.02
632.604	3.97
632.791	3.81
632.978	3.99
633.165	3.96
633.353	4.02
633.54	3.96
633.727	3.79
633.914	3.82
634.101	3.8
634.289	3.91
634.476	3.79
634.663	3.82
634.85	3.78
635.037	3.81
635.224	3.7
635.411	3.82
635.598	3.71
635.785	3.66
635.972	3.65
636.159	3.71
636.346	3.63
636.533	3.56
636.72	3.6
636.907	3.55
637.094	3.6
637.281	3.51
637.468	3.6
637.655	3.57
637.842	3.57
638.029	3.56
638.215	3.48
638.402	3.54
638.589	3.44
638.776	3.47
638.963	3.4
639.149	3.47
639.336	3.58
639.523	3.44
639.709	3.39
639.896	3.36
640.083	3.42
640.27	3.4
640.456	3.34
640.643	3.37
640.829	3.21
641.016	3.29
641.203	3.24
641.389	3.3
641.576	3.28
641.762	3.22
641.949	3.2
642.135	3.25
642.322	3.21
642.508	3.14
642.695	3.21
642.881	3.16
643.068	3.13
643.254	3.11
643.441	3.16
643.627	3.15
643.813	3.01
644	3.14
644.186	3.05
644.372	3.12
644.559	3.06
644.745	3
644.931	2.94
645.118	3.03
645.304	3.02
645.49	2.98
645.676	2.96
645.862	2.93
646.049	3
646.235	2.92
646.421	3.07
646.607	3.02
646.793	2.91
646.979	2.92
647.165	2.91
647.352	2.88
647.538	2.89
647.724	2.78
647.91	2.83
648.096	2.87
648.282	2.85
648.468	2.8
648.654	2.85
648.84	2.76
649.026	2.86
649.212	2.72
649.397	2.73
649.583	2.67
649.769	2.72
649.955	2.66
650.141	2.7
650.327	2.71
650.513	2.64
650.698	2.62
650.884	2.59
651.07	2.61
651.256	2.61
651.442	2.65
651.627	2.52
651.813	2.61
651.999	2.56
652.184	2.56
652.37	2.49
652.556	2.5
652.741	2.49
652.927	2.41
653.113	2.49
653.298	2.51
653.484	2.49
653.669	2.41
653.855	2.49
654.04	2.5
654.226	2.45
654.412	2.43
654.597	2.35
654.782	2.44
654.968	2.43
655.153	2.43
655.339	2.37
655.524	2.29
655.71	2.41
655.895	2.35
656.08	2.3
656.266	2.4
656.451	2.33
656.636	2.26
656.822	2.27
657.007	2.29
657.192	2.28
657.378	2.23
657.563	2.22
657.748	2.22
657.933	2.28
658.118	2.13
658.304	2.19
658.489	2.28
658.674	2.22
658.859	2.16
659.044	2.16
659.229	2.22
659.414	2.12
659.599	2.12
659.785	2.1
659.97	2.13
660.155	2.09
660.34	2.17
660.525	2.12
660.71	2.05
660.895	2.15
661.08	2.1
661.264	2.08
661.449	2.12
661.634	2.03
661.819	2.1
662.004	2.02
662.189	1.93
662.374	1.98
662.559	1.91
662.743	1.91
662.928	1.96
663.113	1.94
663.298	1.93
663.483	1.91
663.667	1.9
663.852	1.94
664.037	1.97
664.221	1.87
664.406	1.95
664.591	1.96
664.775	1.92
664.96	1.83
665.145	1.89
665.329	1.93
665.514	1.87
665.698	1.79
665.883	1.78
666.068	1.87
666.252	1.85
666.437	1.78
666.621	1.84
666.806	1.84
666.99	1.77
667.174	1.8
667.359	1.87
667.543	1.8
667.728	1.76
667.912	1.71
668.096	1.76
668.281	1.68
668.465	1.75
668.649	1.64
668.834	1.72
669.018	1.71
669.202	1.7
669.387	1.68
669.571	1.79
669.755	1.64
669.939	1.66
670.124	1.63
670.308	1.72
670.492	1.7
670.676	1.64
670.86	1.63
671.044	1.63
671.228	1.68
671.413	1.55
671.597	1.56
671.781	1.59
671.965	1.64
672.149	1.61
672.333	1.56
672.517	1.55
672.701	1.58
672.885	1.54
673.069	1.49
673.253	1.6
673.437	1.55
673.621	1.49
673.804	1.55
673.988	1.56
674.172	1.48
674.356	1.41
674.54	1.48
674.724	1.55
674.908	1.49
675.091	1.49
675.275	1.47
675.459	1.53
675.643	1.56
675.826	1.52
676.01	1.47
676.194	1.47
676.377	1.46
676.561	1.45
676.745	1.46
676.928	1.45
677.112	1.51
677.296	1.36
677.479	1.36
677.663	1.35
677.846	1.39
678.03	1.43
678.213	1.29
678.397	1.44
678.58	1.4
678.764	1.38
678.947	1.33
679.131	1.39
679.314	1.43
679.498	1.3
679.681	1.37
679.865	1.36
680.048	1.32
680.231	1.37
680.415	1.26
680.598	1.28
680.781	1.29
680.965	1.31
681.148	1.29
681.331	1.25
681.514	1.36
681.698	1.25
681.881	1.31
682.064	1.3
682.247	1.27
682.43	1.21
682.614	1.25
682.797	1.28
682.98	1.27
683.163	1.15
683.346	1.23
683.529	1.21
683.712	1.23
683.895	1.22
684.078	1.16
684.261	1.13
684.444	1.23
684.627	1.2
684.81	1.13
684.993	1.16
685.176	1.22
685.359	1.11
685.542	1.13
685.725	1.23
685.908	1.17
686.091	1.12
686.274	1.16
686.457	1.13
686.639	1.2
686.822	1.14
687.005	1.09
687.188	1.17
687.371	1.24
687.553	1.2
687.736	1.13
687.919	1.2
688.102	1.15
688.284	1.05
688.467	1.07
688.65	1.03
688.832	1.06
689.015	1.14
689.197	0.93
689.38	1.17
689.563	1.17
689.745	1.02
689.928	1.02
690.11	1.03
690.293	1.03
690.475	0.96
690.658	1.06
690.84	1.05
691.023	0.97
691.205	0.99
691.388	1.05
691.57	1.13
691.752	1.01
691.935	0.95
692.117	0.95
692.3	1.04
692.482	0.93
692.664	0.98
692.847	0.97
693.029	1.08
693.211	1.02
693.393	0.91
693.576	0.92
693.758	0.98
693.94	0.9
694.122	0.93
694.304	0.94
694.487	0.89
694.669	1.03
694.851	0.85
695.033	0.86
695.215	0.9
695.397	0.93
695.579	0.92
695.761	0.88
695.943	0.91
696.125	1
696.308	0.94
696.49	0.78
696.671	0.96
696.853	0.86
697.035	1.13
697.217	0.89
697.399	0.96
697.581	0.88
697.763	0.9
697.945	0.75
698.127	0.91
698.309	0.82
698.491	0.89
698.672	0.89
698.854	0.97
699.036	0.95
699.218	0.85
699.399	0.89
699.581	0.94
699.763	0.82
699.945	0.78
700.126	0.76
700.308	0.81
700.49	0.79
700.671	0.71
700.853	0.81
701.035	0.77
701.216	0.79
701.398	0.75
701.579	0.75
701.761	0.87
701.943	0.7
702.124	0.73
702.306	0.79
702.487	1.02
702.669	0.77
702.85	0.77
703.031	0.74
703.213	0.87
703.394	0.88
703.576	0.72
703.757	0.93
703.938	0.85
704.12	0.89
704.301	0.75
704.483	0.62
704.664	0.78
704.845	0.9
705.026	0.81
705.208	0.76
705.389	0.76
705.57	0.77
705.751	0.75
705.933	0.73
706.114	0.84
706.295	0.73
706.476	0.62
706.657	0.75
706.838	0.76
707.02	0.78
707.201	0.67
707.382	0.68
707.563	0.73
707.744	0.65
707.925	0.63
708.106	0.67
708.287	0.78
708.468	0.81
708.649	0.73
708.83	0.73
709.011	0.71
709.192	0.75
709.373	0.61
709.554	0.64
709.734	0.79
709.915	0.79
710.096	0.66
710.277	0.57
710.458	0.79
710.639	0.68
710.819	0.55
711	0.68
711.181	0.67
711.362	0.75
711.542	0.72
711.723	0.62
711.904	0.77
712.085	0.72
712.265	0.66
712.446	0.57
712.627	0.65
712.807	0.66
712.988	0.69
713.168	0.56
713.349	0.71
713.53	0.49
713.71	0.56
713.891	0.58
714.071	0.63
714.252	0.61
714.432	0.59
714.613	0.5
714.793	0.64
714.974	0.74
715.154	0.69
715.334	0.66
715.515	0.7
715.695	0.57
715.876	0.59
716.056	0.61
716.236	0.57
716.417	0.59
716.597	0.53
716.777	0.81
716.957	0.66
717.138	0.61
717.318	0.52
717.498	0.53
717.678	0.61
717.859	0.64
718.039	0.44
718.219	0.61
718.399	0.55
718.579	0.54
718.759	0.48
718.939	0.55
719.12	0.57
719.3	0.62
719.48	0.43
719.66	0.43
719.84	0.71
720.02	0.68
720.2	0.42
720.38	0.58
720.56	0.75
720.74	0.44
720.92	0.64
721.1	0.67
721.279	0.68
721.459	0.55
721.639	0.46
721.819	0.54
721.999	0.6
722.179	0.63
722.359	0.43
722.538	0.54
722.718	0.59
722.898	0.53
723.078	0.48
723.257	0.52
723.437	0.59
723.617	0.53
723.797	0.54
723.976	0.55
724.156	0.63
724.336	0.69
724.515	0.67
724.695	0.42
724.874	0.51
725.054	0.5
725.234	0.46
725.413	0.55
725.593	0.56
725.772	0.53
725.952	0.5
726.131	0.57
726.311	0.54
726.49	0.5
726.67	0.49
726.849	0.42
727.028	0.56
727.208	0.47
727.387	0.55
727.567	0.36
727.746	0.52
727.925	0.46
728.105	0.42
728.284	0.51
728.463	0.42
728.643	0.52
728.822	0.44
729.001	0.39
729.18	0.51
729.359	0.66
729.539	0.56
729.718	0.5
729.897	0.55
730.076	0.4
730.255	0.45
730.434	0.51
730.614	0.6
730.793	0.68
730.972	0.42
731.151	0.53
731.33	0.61
731.509	0.57
731.688	0.4
731.867	0.53
732.046	0.4
732.225	0.8
732.404	0.4
732.583	0.37
732.762	0.44
732.941	0.59
733.12	0.46
733.298	0.49
733.477	0.54
733.656	0.46
733.835	0.41
734.014	0.55
734.193	0.53
734.371	0.55
734.55	0.47
734.729	0.34
734.908	0.56
735.086	0.43
735.265	0.68
735.444	0.32
735.623	0.39
735.801	0.46
735.98	0.46
736.159	0.47
736.337	0.58
736.516	0.58
736.694	0.44
736.873	0.45
737.052	0.75
737.23	0.65
737.409	0.39
737.587	0.72
737.766	0.48
737.944	0.48
738.123	0.46
738.301	0.46
738.479	0.38
738.658	0.6
738.836	0.26
739.015	0.59
739.193	0.66
739.371	0.41
739.55	0.53
739.728	0.34
739.906	0.61
740.085	0.67
740.263	0.54
740.441	0.26
740.62	0.74
740.798	0.46
740.976	0.47
741.154	0.29
741.332	0.59
741.511	0.44
741.689	0.58
741.867	0.51
742.045	0.59
742.223	0.42
742.401	0.43
742.579	0.44
742.757	0.55
742.935	0.32
743.114	0.4
743.292	0.36
743.47	0.55
743.648	0.56
743.826	0.3
744.004	0.53
744.181	0.64
744.359	0.49
744.537	0.42
744.715	0.54
744.893	0.42
745.071	0.39
745.249	0.47
745.427	0.46
745.605	0.63
745.782	0.56
745.96	0.47
746.138	0.49
746.316	0.63
746.493	0.42
746.671	0.35
746.849	0.34
747.027	0.64
747.204	0.29
747.382	0.42
747.56	0.34
747.737	0.42
747.915	0.4
748.093	0.48
748.27	0.38
748.448	0.33
748.625	0.34
748.803	0.35
748.98	0.41
749.158	0.52
749.335	0.53
749.513	0.37
749.69	0.39
749.868	0.41
750.045	0.52
750.223	0.31
750.4	0.15
750.578	0.54
750.755	0.54
750.932	0.23
751.11	0.51
751.287	0.24
751.464	0.58
751.642	0.16
751.819	0.41
751.996	0.46
752.173	0.27
752.351	0.34
752.528	0.28
752.705	0.38
752.882	0.28
753.06	0.42
753.237	0.4
753.414	0.62
753.591	0.62
753.768	0.48
753.945	0.42
754.122	0.35
754.299	0.52
754.476	0.31
754.654	0.48
754.831	0.48
755.008	0.5
755.185	0.25
755.362	0.28
755.539	0.48
755.716	0.33
755.892	0.36
756.069	0.33
756.246	0.43
756.423	0.37
756.6	0.57
756.777	0.38
756.954	0.53
757.131	0.48
757.307	0.21
757.484	0.26
757.661	0.3
757.838	0.41
758.015	0.21
758.191	0.51
758.368	0.59
758.545	0.52
758.721	0.51
758.898	0.17
759.075	0.44
759.251	0.41
759.428	0.38
759.605	0.26
759.781	0.45
759.958	0.5
760.134	0.36
760.311	0.3
760.488	0.49
760.664	0.58
760.841	0.41
761.017	0.27
761.194	0.49
761.37	0.51
761.547	0.3
761.723	0.36
761.899	0.45
762.076	0.23
762.252	0.25
762.429	0.33
762.605	0.54
762.781	0.35
762.958	0.37
763.134	0.18
763.31	0.41
763.486	0.51
763.663	0.22
763.839	0.54
764.015	0.08
764.191	0.29
764.368	0.35
764.544	0.31
764.72	0.41
764.896	0.46
765.072	0.46
765.248	0.19
765.425	0.24
765.601	0.36
765.777	0.36
765.953	0.3
766.129	0.33
766.305	0.22
766.481	0.57
766.657	0.51
766.833	0.56
767.009	0.34
767.185	0.29
767.361	0.41
767.537	0.26
767.713	0.65
767.889	0.17
768.065	0.37
768.24	0.25
768.416	0.52
768.592	0.31
768.768	0.4
768.944	0.56
769.12	0.32
769.295	0.36
769.471	0.25
769.647	0.32
769.823	0.65
769.998	0.31
770.174	0.4
770.35	0.71
770.525	0.67
770.701	0.46
770.877	0.39
771.052	0.29
771.228	0.61
771.403	0.48
771.579	0.32
771.755	0.78
771.93	0.29
772.106	0.27
772.281	0.05
772.457	0.39
772.632	0.44
772.808	0.23
772.983	0.3
773.159	0.21
773.334	0.7
773.509	0.44
773.685	0.29
773.86	0.74
774.036	0.43
774.211	0.39
774.386	0.28
774.562	0.3
774.737	0.58
774.912	0.36
775.087	0.62
775.263	0.27
775.438	0.48
775.613	0.28
775.788	0.38
775.964	0.47
776.139	0.79
776.314	0.06
776.489	0.4
776.664	0.42
776.839	0.21
777.014	0.6
777.19	0.5
777.365	0.51
777.54	0.55
777.715	0.42
777.89	0.32
778.065	0.23
778.24	0.34
778.415	0.59
778.59	0.14
778.765	0.43
778.94	0.44
779.115	0.23
779.289	0.4
779.464	0.48
779.639	0.3
779.814	0.11
779.989	0.2
780.164	0.61
780.339	0.54
780.513	0.2
780.688	0.24
780.863	0.4
781.038	0.7
781.212	0.25
781.387	0.44
781.562	0.66
781.737	0.21
781.911	0.67
782.086	0.28
782.261	0.3
782.435	0.8
782.61	0.43
782.784	0.41
782.959	0.48
783.134	0.41
783.308	0.19
783.483	0.41
783.657	1.01
783.832	0.45
784.006	-0.09
784.181	0.49
784.355	0.6
784.53	0.43
784.704	0.33
784.878	0.72
785.053	0.64
785.227	0.82
785.402	0.79
785.576	0.28
785.75	0.46
785.925	0.43
786.099	0.54
786.273	0.57
786.448	0.57
786.622	0.88
786.796	0.11
786.97	0.42
787.145	1.08
787.319	0.15
787.493	0.36
787.667	0.2
787.841	0.3
788.015	0.72
788.19	0.25
788.364	0.38
788.538	0.82
788.712	0.76
788.886	0.33
789.06	0.67
789.234	0.61
789.408	0.47
789.582	0.27
789.756	0.38
789.93	0.2
790.104	0.4
790.278	0.29
790.452	0.28
790.626	0.7
790.8	0.34
790.973	0.63
791.147	0.91
791.321	0.88
791.495	0.73
791.669	0.6
791.843	0.54
792.016	0.41
792.19	0.97
792.364	0.18
792.538	1
792.711	0.86
792.885	0.39
793.059	0.31
793.233	-0.27
793.406	0.81
793.58	0.41
793.754	0.64
793.927	0.32
794.101	0.87
794.274	0.59
794.448	0.58
794.622	0.22
794.795	0.81
794.969	0.51
795.142	0.84
795.316	0.4
795.489	0.08
795.663	1.02
795.836	0.78
796.009	0.15
796.183	0.86
796.356	0.62
796.53	0.59
796.703	0.22
796.876	1.16
797.05	0.63
797.223	0.59
797.396	0.52
797.57	0.55
797.743	1.06
797.916	0.39
798.09	0.7
798.263	1.08
798.436	0.67
798.609	0.35
798.782	0.31
798.956	0.51
799.129	0.5
799.302	0.47
799.475	0.29
799.648	0.57
799.821	0.67
799.994	0.58
800.167	0.12
800.34	0.39
800.514	0.45
800.687	0.29
800.86	0.14
801.033	0.78
801.206	0.98
801.379	0.18
801.551	1.17
801.724	1.04
801.897	1.06
802.07	0.42
802.243	0.2
802.416	0.37
802.589	0.6
802.762	0.86
802.935	0.58
803.107	0.77
803.28	1.15
803.453	0.79
803.626	0.36
803.798	0.48
803.971	0.3
804.144	0.7
804.317	0.5
804.489	0.51
804.662	0.88
804.835	0.78
805.007	0.44
805.18	0.77
805.353	0.91
805.525	0.07
805.698	0.48
805.87	0.95
806.043	1.09
806.215	0.11
806.388	0.38
806.56	0.85
806.733	0.83
806.905	0.63
807.078	0.32
807.25	0.24
807.423	0.87
807.595	0.54
807.768	0.93
807.94	0.91
808.112	0.38
808.285	0.7
808.457	0.31
808.629	0.53
808.802	0.99
808.974	0.53
809.146	0.28
809.318	0.33
809.491	0.7
809.663	0.8
809.835	0.4
810.007	1.11
810.18	0.62
810.352	0.13
810.524	0.56
810.696	1.02
810.868	1.2
811.04	0.44
811.212	0.41
811.384	0.96
811.556	0.93
811.728	0.4
811.901	1.27
812.073	0.24
812.245	0.76
812.417	0.59
812.589	-0.44
812.76	0.88
812.932	1.02
813.104	1.08
813.276	0.43
813.448	1.21
813.62	0.61
813.792	0.71
813.964	0.54
814.136	0.98
814.307	0.69
814.479	0.38
814.651	0.39
814.823	1.77
814.995	0.46
815.166	0.53
815.338	0.37
815.51	0.2
815.681	1.64
815.853	0.87
816.025	0.79
816.196	1.47
816.368	1.57
816.54	-0.14
816.711	0.32
816.883	1.34
817.054	2.07
817.226	-0.49
817.398	1.49
817.569	0.72
817.741	0.58
817.912	0.69
818.084	0.88
818.255	1.18
818.426	0.6
818.598	0.72
818.769	0.41
818.941	0.76
819.112	1.53
819.283	0.82
819.455	0.23
819.626	0.78
819.798	1.49
819.969	0.51
820.14	0.57
820.311	0.84
820.483	0.76
820.654	0.77
820.825	0.84
820.996	0.9
821.168	0.23
821.339	0.45
821.51	0.23
821.681	0.36
821.852	1.06
822.023	0.09
822.195	0.45
822.366	1.49
822.537	0.88
822.708	0.98
822.879	0.23
823.05	1.08
823.221	0.63
823.392	1.34
823.563	0.77
823.734	0.66
823.905	1.25
824.076	0.59
824.247	0.6
824.418	0.75
824.589	1.69
824.759	0.64
824.93	0.66
825.101	0.18
825.272	1.21
825.443	1.2
825.614	1.24
825.784	-0.13
825.955	1.98
826.126	2.08
826.297	0.39
826.467	2.02
826.638	2.43
826.809	0.54
826.98	0.58
827.15	1.46
827.321	1.32
827.492	1.49
827.662	0.94
827.833	2.18
828.003	2.03
828.174	0.46
828.345	0.22
828.515	1.52
828.686	0.46
828.856	0.87
829.027	0.62
829.197	1.29
829.368	0.97
829.538	0.07
829.709	0.61
829.879	1.34
830.049	1.25
830.22	0.55
830.39	0.21
830.56	1.71
830.731	1.3
830.901	-0.29
831.072	0.79
831.242	1.1
831.412	1.24
831.582	0.71
831.753	0.25
831.923	1.33
832.093	1.17
832.263	0.99
832.434	0.4
832.604	0.08
832.774	1.37
832.944	0.46
833.114	0.18
833.284	1.33
833.454	0.34
833.624	0.1
833.795	1.02
833.965	1.68
834.135	1.3
834.305	-0.23
834.475	0.53
834.645	1.15
834.815	0.7
834.985	0.8
835.155	0.82
835.325	1.33
835.494	1.83
835.664	0.43
835.834	0.12
836.004	1.28
836.174	1.24
836.344	0.69
836.514	0.65
836.684	0.77
836.853	1.69
837.023	1.01
837.193	0.9
837.363	2.3
837.532	1.52
837.702	1.06
837.872	0.4
838.041	1.94
838.211	2.88
838.381	0.12
838.55	1.02
838.72	3.72
838.89	2.42
839.059	0.87
839.229	-0.12
839.398	2.94
839.568	1.12
839.738	0.11
839.907	1.62
840.077	1.33
840.246	0.46
840.416	0.59
840.585	0.63
840.755	2.56
840.924	2.57
841.093	0.81
841.263	0.88
841.432	1.38
841.602	0.4
841.771	0.36
841.94	1.84
842.11	3.29
842.279	2.43
842.448	0.89
842.617	0.3
842.787	2.28
842.956	0.21
843.125	1.41
843.294	0.88
843.464	3.2
843.633	0.94
843.802	1.06
843.971	0.41
844.14	1.69
844.309	1.14
844.479	-0.42
844.648	0.62
844.817	1.04
844.986	1.32
845.155	1.05
845.324	0.68
845.493	0.53
845.662	0.79
845.831	1.36
846	2.41
846.169	1.09
846.338	2.16
846.507	1.36
846.676	1.13
846.844	0.49
847.013	2.27
847.182	1.46
847.351	1.71
847.52	0.95
847.689	1.66
847.858	0.55
848.026	1.11
848.195	1.33
848.364	1.24
848.533	0.8
848.701	0.25
848.87	1.72
849.039	2.42
849.207	1.85
849.376	1.72
849.545	3.54
849.713	0.95
849.882	1.32
850.051	0.52
850.219	1.8
850.388	1.64
850.556	1.1
850.725	0.63
850.893	1.58
851.062	2.12
851.23	1
851.399	0.1
851.567	0.57
851.736	0.99
851.904	0.56
852.073	1.22
852.241	2.96
852.41	1.59
852.578	1.53
852.746	1.2
852.915	1.74
853.083	0.73
853.251	0.14
853.42	0.73
853.588	1.23
853.756	2.82
853.924	0.63
854.093	1.81
854.261	1.19
854.429	-0.13
854.597	2.14
854.765	-0.04
854.934	2.28
855.102	3.02
855.27	1.56
855.438	1.97
855.606	3.29
855.774	2.5
855.942	-0.07
856.11	-0.46
856.278	2.13
856.446	2.37
856.614	1.66
856.782	1.29
856.95	1.77
857.118	1.07
857.286	1.44
857.454	0.97
857.622	3.4
857.79	3.35
857.958	0.77
858.126	1.81
858.294	-0.45
858.462	1.6
858.629	0.19
858.797	-0.36
858.965	2.94
859.133	1.96
859.301	2.25
859.468	1.85
859.636	0.46
859.804	4.01
859.971	1.32
860.139	0.81
860.307	3.21
860.474	1.1
860.642	-0.44
860.81	0.89
860.977	1.49
861.145	3.2
861.313	1.82
861.48	1.55
861.648	2.79
861.815	1.49
861.983	1.48
862.15	1.04
862.318	2.59
862.485	2.25
862.653	-0.18
862.82	0.67
862.988	3.71
863.155	2.52
863.322	0.87
863.49	0.64
863.657	1.8
863.824	4.6
863.992	2.17
864.159	1.86
864.326	4.43
864.494	1.33
864.661	4.22
864.828	-0.26
864.996	3.45
865.163	4.63
865.33	0.19
865.497	-1.62
865.664	-0.51
865.832	0.19
865.999	0.93
866.166	1.17
866.333	0.71
866.5	1.49
866.667	1.18
866.834	3.81
867.001	3.76
867.168	-0.53
867.335	1.49
867.502	0.18
867.669	1.31
867.836	5.22
868.003	1.99
868.17	4.25
868.337	1.61
868.504	5.62
868.671	0.79
868.838	2.07
869.005	2.91
869.172	3.99
869.339	1.35
869.505	0.26
869.672	3.22
869.839	3.36
870.006	1.27
870.173	0.04
870.339	2.26
870.506	5.11
870.673	0.69
870.84	2.47
871.006	2.35
871.173	2.11
871.34	1.83
871.506	0.84
871.673	2.9
871.839	1.46
872.006	2.02
872.173	1.83
872.339	3.19
872.506	3.32
872.672	1.19
872.839	-1.76
873.005	1.29
873.172	6.18
873.338	3.19
873.505	1.6
873.671	1.49
873.838	4.6
874.004	0.21
874.171	0.09
874.337	2.63
874.503	1.81
874.67	1.81
874.836	2.58
875.002	2.77
875.169	4.11
875.335	3.36
875.501	2.06
875.668	2.24
875.834	1.58
876	1.25
876.166	3.99
876.332	3.13
876.499	5.01
876.665	0.64
876.831	2.36
876.997	6.43
877.163	2.51
877.329	1.14
877.495	1.69
877.662	3.58
877.828	2.99
877.994	3.47
878.16	-1.12
878.326	2.67
878.492	3.04
878.658	1.43
878.824	2.74
878.99	3.45
879.156	0.85
879.322	5.66
879.487	2.79
879.653	4.06
879.819	3.85
879.985	0.25
880.151	3.27
880.317	3.93
880.483	1.82
880.648	3.56
880.814	-0.05
880.98	2.46
881.146	-1.4
881.312	0.59
881.477	1.68
881.643	1.81
881.809	4.53
881.974	4.65
882.14	-0.71
882.306	2.27
882.471	6.96
882.637	1.6
882.803	2.41
882.968	5.09
883.134	5.62
883.299	1.73
883.465	2.9
883.63	4.3
883.796	4.59
883.961	1.85
884.127	2.87
884.292	-1.9
884.458	-1.52
884.623	-1.52
