Data from Apollo_Calib_20240827__AbsoluteIrradiance__750__11-39-00-652.txt Node

Date: Wed Aug 28 11:39:00 BST 2024
User: biology
Spectrometer: FLMT08252
Trigger mode: 0
Integration Time (sec): 5.000000E-1
Scans to average: 5
Electric dark correction enabled: true
Nonlinearity correction enabled: false
Boxcar width: 0
XAxis mode: Wavelengths
Number of Pixels in Spectrum: 3648
>>>>>Begin Spectral Data<<<<<
179.588	-0
179.809	-0
180.03	-0
180.251	-0
180.473	-0
180.694	0
180.915	0
181.136	-0
181.357	0
181.578	-0
181.799	-0
182.02	-0
182.241	0
182.462	-0
182.683	0
182.904	-0
183.125	-0
183.346	0
183.567	0
183.788	0
184.009	0
184.23	0
184.451	0
184.672	0
184.892	0
185.113	0
185.334	0
185.555	0
185.776	0
185.996	0
186.217	0
186.438	0
186.659	0
186.879	0
187.1	0
187.321	0
187.541	0
187.762	0
187.983	0
188.203	0
188.424	0
188.644	0
188.865	0
189.086	0
189.306	0
189.527	0
189.747	0
189.968	0
190.188	0
190.409	0
190.629	0
190.849	0
191.07	0
191.29	0
191.511	0
191.731	0
191.951	0
192.172	0
192.392	0
192.612	0
192.833	0
193.053	0
193.273	0
193.493	0
193.714	0
193.934	0
194.154	0
194.374	0
194.594	0
194.815	0
195.035	0
195.255	0
195.475	0
195.695	0
195.915	0
196.135	0
196.355	0
196.575	0
196.795	0
197.015	0
197.235	0
197.455	0
197.675	0
197.895	0
198.115	0
198.335	0
198.555	0
198.775	0
198.995	0
199.214	0
199.434	0
199.654	0
199.874	0
200.094	3.06
200.313	0.36
200.533	1.36
200.753	0.77
200.973	2.75
201.192	2.27
201.412	0.46
201.632	0.78
201.851	2.38
202.071	0.96
202.291	1.02
202.51	0.62
202.73	2.14
202.95	1.24
203.169	0.27
203.389	1.14
203.608	1.12
203.828	0.79
204.047	0.6
204.267	1.29
204.486	1.66
204.706	1.33
204.925	1.03
205.145	0.79
205.364	1.43
205.583	1.69
205.803	0.84
206.022	0.45
206.242	1.12
206.461	0.91
206.68	0.76
206.9	1.2
207.119	1.68
207.338	1.43
207.557	0.5
207.777	0.54
207.996	0.77
208.215	1.28
208.434	0.64
208.654	0.37
208.873	0.71
209.092	1.53
209.311	0.58
209.53	0.54
209.749	0.89
209.968	0.49
210.187	0.68
210.407	0.11
210.626	1.03
210.845	1.08
211.064	0.68
211.283	0.43
211.502	1.01
211.721	0.61
211.94	0.57
212.159	0.99
212.377	0.95
212.596	1.04
212.815	0.85
213.034	1.05
213.253	0.82
213.472	0.95
213.691	0.38
213.91	0.41
214.128	0.55
214.347	1.24
214.566	0.01
214.785	0.3
215.003	0.82
215.222	0.54
215.441	0.57
215.66	0.24
215.878	0.66
216.097	0.8
216.316	0.31
216.534	0.48
216.753	0.72
216.972	0.52
217.19	0.52
217.409	0.44
217.627	0.54
217.846	0.56
218.064	0.51
218.283	0.46
218.501	1.06
218.72	0.85
218.938	0.36
219.157	0.32
219.375	0.8
219.594	0.54
219.812	0.25
220.031	0.33
220.249	0.78
220.467	0.94
220.686	0.33
220.904	0.21
221.122	0.4
221.341	0.8
221.559	0.53
221.777	0.24
221.995	0.48
222.214	0.65
222.432	0.51
222.65	0.67
222.868	0.48
223.086	0.58
223.305	0.62
223.523	0.36
223.741	0.8
223.959	0.35
224.177	0.18
224.395	0.44
224.613	0.55
224.831	0.64
225.049	0.4
225.267	0.3
225.485	0.43
225.703	0.44
225.921	0.32
226.139	0.26
226.357	0.63
226.575	0.44
226.793	0.33
227.011	1.07
227.229	0.35
227.447	0.57
227.665	0.44
227.883	0.04
228.1	0.54
228.318	0.53
228.536	0.13
228.754	0.19
228.972	0.43
229.189	0.5
229.407	0.28
229.625	0.33
229.843	0.66
230.06	0.57
230.278	0.31
230.496	0.44
230.713	0.5
230.931	0.46
231.149	0.36
231.366	0.06
231.584	0.35
231.801	0.72
232.019	0.18
232.236	0.15
232.454	0.33
232.671	0.48
232.889	0.35
233.106	0.24
233.324	0.47
233.541	0.42
233.759	0.4
233.976	0.23
234.194	0.4
234.411	0.23
234.628	0.2
234.846	0.4
235.063	0.29
235.28	0.39
235.498	0.3
235.715	0.14
235.932	0.42
236.149	0.27
236.367	0.25
236.584	0.41
236.801	0.22
237.018	0.41
237.236	0.35
237.453	0.14
237.67	0.6
237.887	0.35
238.104	0.29
238.321	0.11
238.538	0.24
238.755	0.49
238.973	0.12
239.19	0.36
239.407	0.36
239.624	0.38
239.841	0.12
240.058	0.22
240.275	0.41
240.492	0.37
240.709	0.4
240.925	0.27
241.142	0.29
241.359	0.18
241.576	0.16
241.793	0.2
242.01	0.25
242.227	0.43
242.444	0.3
242.66	0.46
242.877	0.33
243.094	0.37
243.311	0.29
243.527	0.3
243.744	0.28
243.961	0.43
244.178	0.22
244.394	0.31
244.611	0.46
244.828	0.5
245.044	0.16
245.261	0.26
245.477	0.34
245.694	0.37
245.911	0.23
246.127	0.3
246.344	0.43
246.56	0.37
246.777	0.23
246.993	0.21
247.21	0.28
247.426	0.4
247.643	0.27
247.859	0.19
248.076	0.23
248.292	0.58
248.508	0.18
248.725	0.38
248.941	0.38
249.157	0.37
249.374	0.1
249.59	0.29
249.806	0.27
250.023	0.48
250.239	0.14
250.455	0.13
250.671	0.22
250.888	0.29
251.104	0.3
251.32	0.24
251.536	0.28
251.752	0.25
251.969	0.29
252.185	0.3
252.401	0.49
252.617	0.34
252.833	0.21
253.049	0.25
253.265	0.28
253.481	0.3
253.697	0.19
253.913	0.2
254.129	0.28
254.345	0.28
254.561	0.17
254.777	0.16
254.993	0.3
255.209	0.19
255.425	0.23
255.641	0.19
255.857	0.35
256.073	0.24
256.288	0.12
256.504	0.21
256.72	0.32
256.936	0.36
257.152	0.2
257.367	0.16
257.583	0.26
257.799	0.39
258.015	0.2
258.23	0.22
258.446	0.41
258.662	0.24
258.877	0.19
259.093	0.18
259.309	0.3
259.524	0.27
259.74	0.21
259.955	0.11
260.171	0.25
260.387	0.31
260.602	0.28
260.818	0.23
261.033	0.19
261.249	0.19
261.464	0.24
261.68	0.04
261.895	0.23
262.11	0.26
262.326	0.21
262.541	0.14
262.757	0.27
262.972	0.32
263.187	0.26
263.403	0.24
263.618	0.32
263.833	0.25
264.049	0.18
264.264	0.21
264.479	0.25
264.694	0.38
264.91	0.19
265.125	0.21
265.34	0.39
265.555	0.35
265.77	0.22
265.986	0.18
266.201	0.28
266.416	0.35
266.631	0.2
266.846	0.21
267.061	0.32
267.276	0.27
267.491	0.11
267.706	0.28
267.921	0.33
268.136	0.25
268.351	0.25
268.566	0.17
268.781	0.36
268.996	0.34
269.211	0.22
269.426	0.11
269.641	0.23
269.856	0.33
270.071	0.12
270.285	0.16
270.5	0.28
270.715	0.34
270.93	0.19
271.145	0.25
271.359	0.31
271.574	0.11
271.789	0.19
272.004	0.18
272.218	0.22
272.433	0.28
272.648	0.14
272.862	0.27
273.077	0.27
273.292	0.18
273.506	0.06
273.721	0.21
273.936	0.26
274.15	0.25
274.365	0.12
274.579	0.27
274.794	0.34
275.008	0.29
275.223	0.19
275.437	0.19
275.652	0.32
275.866	0.29
276.081	0.25
276.295	0.29
276.509	0.2
276.724	0.21
276.938	0.22
277.153	0.2
277.367	0.3
277.581	0.19
277.796	0.14
278.01	0.14
278.224	0.29
278.438	0.31
278.653	0.17
278.867	0.18
279.081	0.27
279.295	0.21
279.51	0.22
279.724	0.13
279.938	0.26
280.152	0.26
280.366	0.12
280.58	0.18
280.794	0.27
281.008	0.26
281.222	0.3
281.437	0.31
281.651	0.27
281.865	0.28
282.079	0.18
282.293	0.14
282.507	0.14
282.721	0.2
282.935	0.16
283.148	0.1
283.362	0.17
283.576	0.09
283.79	0.18
284.004	0.11
284.218	0.32
284.432	0.2
284.646	0.16
284.859	0.16
285.073	0.23
285.287	0.27
285.501	0.2
285.714	0.15
285.928	0.22
286.142	0.22
286.356	0.16
286.569	0.22
286.783	0.31
286.997	0.24
287.21	0.22
287.424	0.18
287.637	0.16
287.851	0.17
288.065	0.23
288.278	0.18
288.492	0.18
288.705	0.18
288.919	0.19
289.132	0.12
289.346	0.23
289.559	0.13
289.773	0.13
289.986	0.18
290.2	0.2
290.413	0.19
290.626	0.19
290.84	0.17
291.053	0.19
291.267	0.25
291.48	0.18
291.693	0.17
291.906	0.13
292.12	0.18
292.333	0.13
292.546	0.15
292.76	0.29
292.973	0.19
293.186	0.19
293.399	0.15
293.612	0.2
293.826	0.16
294.039	0.16
294.252	0.19
294.465	0.22
294.678	0.21
294.891	0.17
295.104	0.13
295.317	0.14
295.53	0.21
295.743	0.21
295.956	0.18
296.169	0.27
296.382	0.24
296.595	0.15
296.808	0.11
297.021	0.31
297.234	0.21
297.447	0.2
297.66	0.21
297.873	0.24
298.086	0.26
298.299	0.12
298.511	0.19
298.724	0.19
298.937	0.14
299.15	0.14
299.363	0.17
299.575	0.2
299.788	0.21
300.001	0.15
300.213	0.12
300.426	0.12
300.639	0.14
300.852	0.12
301.064	0.2
301.277	0.27
301.489	0.19
301.702	0.22
301.915	0.16
302.127	0.19
302.34	0.19
302.552	0.22
302.765	0.13
302.977	0.19
303.19	0.13
303.402	0.15
303.615	0.18
303.827	0.14
304.04	0.17
304.252	0.18
304.464	0.14
304.677	0.29
304.889	0.25
305.102	0.16
305.314	0.13
305.526	0.22
305.739	0.19
305.951	0.16
306.163	0.14
306.375	0.24
306.588	0.16
306.8	0.14
307.012	0.1
307.224	0.18
307.436	0.26
307.649	0.11
307.861	0.18
308.073	0.19
308.285	0.14
308.497	0.18
308.709	0.16
308.921	0.19
309.133	0.28
309.346	0.15
309.558	0.15
309.77	0.22
309.982	0.22
310.194	0.19
310.406	0.15
310.617	0.26
310.829	0.2
311.041	0.19
311.253	0.14
311.465	0.16
311.677	0.18
311.889	0.17
312.101	0.12
312.313	0.23
312.524	0.22
312.736	0.14
312.948	0.16
313.16	0.24
313.372	0.23
313.583	0.21
313.795	0.11
314.007	0.13
314.218	0.22
314.43	0.19
314.642	0.17
314.853	0.09
315.065	0.25
315.277	0.13
315.488	0.17
315.7	0.2
315.912	0.2
316.123	0.16
316.335	0.18
316.546	0.28
316.758	0.15
316.969	0.13
317.181	0.15
317.392	0.18
317.604	0.21
317.815	0.15
318.026	0.15
318.238	0.16
318.449	0.19
318.661	0.09
318.872	0.12
319.083	0.16
319.295	0.23
319.506	0.14
319.717	0.15
319.929	0.21
320.14	0.17
320.351	0.2
320.562	0.1
320.774	0.18
320.985	0.16
321.196	0.13
321.407	0.09
321.618	0.2
321.829	0.17
322.041	0.19
322.252	0.14
322.463	0.2
322.674	0.19
322.885	0.13
323.096	0.16
323.307	0.23
323.518	0.18
323.729	0.13
323.94	0.16
324.151	0.17
324.362	0.16
324.573	0.17
324.784	0.14
324.995	0.22
325.206	0.16
325.417	0.14
325.628	0.14
325.838	0.17
326.049	0.17
326.26	0.19
326.471	0.17
326.682	0.15
326.892	0.17
327.103	0.07
327.314	0.13
327.525	0.24
327.735	0.2
327.946	0.18
328.157	0.14
328.368	0.17
328.578	0.14
328.789	0.23
328.999	0.13
329.21	0.15
329.421	0.19
329.631	0.14
329.842	0.13
330.052	0.2
330.263	0.23
330.473	0.21
330.684	0.15
330.894	0.17
331.105	0.19
331.315	0.15
331.526	0.1
331.736	0.25
331.947	0.15
332.157	0.19
332.367	0.11
332.578	0.18
332.788	0.29
332.999	0.25
333.209	0.19
333.419	0.1
333.629	0.19
333.84	0.19
334.05	0.14
334.26	0.24
334.47	0.16
334.681	0.2
334.891	0.16
335.101	0.17
335.311	0.25
335.521	0.17
335.732	0.13
335.942	0.2
336.152	0.18
336.362	0.19
336.572	0.18
336.782	0.2
336.992	0.17
337.202	0.14
337.412	0.12
337.622	0.23
337.832	0.18
338.042	0.15
338.252	0.1
338.462	0.13
338.672	0.19
338.882	0.18
339.092	0.2
339.302	0.23
339.511	0.19
339.721	0.14
339.931	0.12
340.141	0.25
340.351	0.24
340.561	0.19
340.77	0.16
340.98	0.19
341.19	0.17
341.4	0.13
341.609	0.13
341.819	0.15
342.029	0.1
342.238	0.17
342.448	0.16
342.658	0.19
342.867	0.18
343.077	0.14
343.286	0.22
343.496	0.18
343.706	0.21
343.915	0.14
344.125	0.17
344.334	0.2
344.544	0.16
344.753	0.15
344.963	0.15
345.172	0.1
345.381	0.15
345.591	0.11
345.8	0.12
346.01	0.22
346.219	0.23
346.428	0.02
346.638	0.13
346.847	0.17
347.056	0.23
347.266	0.09
347.475	0.17
347.684	0.21
347.893	0.21
348.103	0.2
348.312	0.15
348.521	0.14
348.73	0.17
348.94	0.19
349.149	0.16
349.358	0.18
349.567	0.16
349.776	0.09
349.985	0.15
350.194	0.2
350.403	0.23
350.612	0.09
350.821	0.15
351.03	0.18
351.239	0.14
351.448	0.17
351.657	0.13
351.866	0.24
352.075	0.21
352.284	0.26
352.493	0.09
352.702	0.25
352.911	0.21
353.12	0.17
353.329	0.14
353.538	0.22
353.746	0.19
353.955	0.11
354.164	0.19
354.373	0.17
354.582	0.18
354.79	0.13
354.999	0.22
355.208	0.17
355.416	0.23
355.625	0.11
355.834	0.13
356.042	0.17
356.251	0.19
356.46	0.16
356.668	0.18
356.877	0.26
357.085	0.23
357.294	0.05
357.503	0.19
357.711	0.13
357.92	0.28
358.128	0.17
358.337	0.1
358.545	0.16
358.754	0.12
358.962	0.21
359.17	0.16
359.379	0.16
359.587	0.18
359.796	0.12
360.004	0.22
360.212	0.17
360.421	0.23
360.629	0.15
360.837	0.15
361.046	0.2
361.254	0.27
361.462	0.15
361.67	0.12
361.879	0.17
362.087	0.25
362.295	0.15
362.503	0.14
362.711	0.13
362.92	0.15
363.128	0.11
363.336	0.11
363.544	0.14
363.752	0.15
363.96	0.15
364.168	0.12
364.376	0.17
364.584	0.16
364.792	0.23
365	0.16
365.208	0.18
365.416	0.17
365.624	0.18
365.832	0.14
366.04	0.21
366.248	0.19
366.456	0.16
366.664	0.16
366.872	0.14
367.079	0.16
367.287	0.14
367.495	0.18
367.703	0.14
367.911	0.15
368.118	0.14
368.326	0.16
368.534	0.14
368.742	0.21
368.949	0.14
369.157	0.16
369.365	0.18
369.572	0.13
369.78	0.12
369.988	0.22
370.195	0.14
370.403	0.22
370.61	0.17
370.818	0.16
371.026	0.26
371.233	0.14
371.441	0.18
371.648	0.16
371.856	0.18
372.063	0.14
372.271	0.16
372.478	0.15
372.685	0.1
372.893	0.24
373.1	0.17
373.308	0.13
373.515	0.24
373.722	0.21
373.93	0.15
374.137	0.18
374.344	0.23
374.552	0.24
374.759	0.2
374.966	0.14
375.173	0.19
375.381	0.26
375.588	0.15
375.795	0.09
376.002	0.17
376.209	0.11
376.417	0.16
376.624	0.14
376.831	0.19
377.038	0.17
377.245	0.07
377.452	0.16
377.659	0.18
377.866	0.1
378.073	0.17
378.28	0.14
378.487	0.21
378.694	0.24
378.901	0.15
379.108	0.16
379.315	0.24
379.522	0.28
379.729	0.2
379.936	0.13
380.143	0.19
380.35	0.19
380.557	0.18
380.763	0.15
380.97	0.19
381.177	0.2
381.384	0.23
381.591	0.14
381.797	0.2
382.004	0.18
382.211	0.21
382.418	0.16
382.624	0.25
382.831	0.22
383.038	0.19
383.244	0.19
383.451	0.18
383.658	0.21
383.864	0.16
384.071	0.12
384.277	0.27
384.484	0.17
384.69	0.25
384.897	0.16
385.103	0.15
385.31	0.14
385.516	0.18
385.723	0.15
385.929	0.2
386.136	0.16
386.342	0.2
386.549	0.17
386.755	0.27
386.961	0.24
387.168	0.18
387.374	0.17
387.58	0.22
387.787	0.22
387.993	0.23
388.199	0.17
388.406	0.13
388.612	0.18
388.818	0.17
389.024	0.16
389.231	0.21
389.437	0.25
389.643	0.21
389.849	0.18
390.055	0.21
390.261	0.22
390.467	0.2
390.674	0.13
390.88	0.17
391.086	0.27
391.292	0.15
391.498	0.25
391.704	0.19
391.91	0.18
392.116	0.22
392.322	0.1
392.528	0.21
392.734	0.19
392.94	0.23
393.146	0.19
393.352	0.23
393.557	0.19
393.763	0.24
393.969	0.21
394.175	0.2
394.381	0.2
394.587	0.13
394.792	0.19
394.998	0.27
395.204	0.25
395.41	0.18
395.615	0.22
395.821	0.24
396.027	0.25
396.233	0.16
396.438	0.21
396.644	0.2
396.85	0.21
397.055	0.19
397.261	0.23
397.466	0.21
397.672	0.21
397.878	0.25
398.083	0.24
398.289	0.12
398.494	0.3
398.7	0.27
398.905	0.13
399.111	0.3
399.316	0.2
399.522	0.26
399.727	0.23
399.932	0.19
400.138	0.23
400.343	0.26
400.549	0.23
400.754	0.26
400.959	0.26
401.165	0.24
401.37	0.28
401.575	0.34
401.78	0.25
401.986	0.26
402.191	0.27
402.396	0.24
402.601	0.23
402.807	0.3
403.012	0.22
403.217	0.28
403.422	0.28
403.627	0.27
403.832	0.25
404.037	0.35
404.243	0.33
404.448	0.24
404.653	0.29
404.858	0.32
405.063	0.31
405.268	0.25
405.473	0.26
405.678	0.27
405.883	0.41
406.088	0.35
406.293	0.23
406.498	0.31
406.703	0.34
406.907	0.3
407.112	0.27
407.317	0.39
407.522	0.41
407.727	0.27
407.932	0.35
408.136	0.42
408.341	0.32
408.546	0.4
408.751	0.38
408.956	0.36
409.16	0.47
409.365	0.37
409.57	0.4
409.774	0.4
409.979	0.45
410.184	0.43
410.388	0.42
410.593	0.5
410.798	0.51
411.002	0.5
411.207	0.6
411.411	0.55
411.616	0.55
411.82	0.55
412.025	0.56
412.229	0.56
412.434	0.64
412.638	0.57
412.843	0.59
413.047	0.63
413.252	0.65
413.456	0.65
413.66	0.75
413.865	0.69
414.069	0.78
414.273	0.76
414.478	0.74
414.682	0.8
414.886	0.81
415.091	0.82
415.295	0.79
415.499	0.99
415.703	0.96
415.908	1.04
416.112	0.93
416.316	1.14
416.52	1.03
416.724	1.03
416.929	1.15
417.133	1.29
417.337	1.16
417.541	1.24
417.745	1.27
417.949	1.41
418.153	1.39
418.357	1.4
418.561	1.6
418.765	1.51
418.969	1.62
419.173	1.71
419.377	1.71
419.581	1.84
419.785	1.83
419.989	1.77
420.193	1.97
420.397	2.02
420.601	2.14
420.804	2.2
421.008	2.16
421.212	2.29
421.416	2.29
421.62	2.29
421.823	2.36
422.027	2.5
422.231	2.46
422.435	2.48
422.638	2.52
422.842	2.62
423.046	2.61
423.249	2.81
423.453	2.81
423.657	2.94
423.86	2.98
424.064	3.1
424.268	3.17
424.471	3.21
424.675	3.3
424.878	3.35
425.082	3.42
425.285	3.7
425.489	3.64
425.692	3.66
425.896	3.71
426.099	3.89
426.303	3.96
426.506	4.08
426.71	4.21
426.913	4.46
427.116	4.5
427.32	4.45
427.523	4.51
427.726	4.79
427.93	4.73
428.133	4.99
428.336	5.08
428.54	5.24
428.743	5.32
428.946	5.49
429.149	5.52
429.353	5.56
429.556	5.62
429.759	5.58
429.962	5.65
430.165	5.81
430.368	5.54
430.571	5.64
430.775	5.63
430.978	5.62
431.181	5.6
431.384	5.73
431.587	5.72
431.79	6.02
431.993	5.95
432.196	6.23
432.399	6.5
432.602	6.57
432.805	6.52
433.008	6.93
433.211	6.84
433.414	7.1
433.616	7.08
433.819	7.07
434.022	7.21
434.225	7.3
434.428	7.37
434.631	7.66
434.833	7.5
435.036	7.63
435.239	7.72
435.442	7.77
435.645	8.01
435.847	7.92
436.05	8.18
436.253	8.24
436.455	8.39
436.658	8.32
436.861	8.5
437.063	8.59
437.266	8.56
437.468	8.78
437.671	9.07
437.874	9.1
438.076	8.83
438.279	9.18
438.481	9.21
438.684	9.78
438.886	9.6
439.089	9.73
439.291	9.76
439.494	10.05
439.696	10.22
439.899	10.63
440.101	10.92
440.303	11.04
440.506	11.6
440.708	11.4
440.91	11.61
441.113	11.67
441.315	11.91
441.517	11.87
441.72	12.11
441.922	11.81
442.124	11.8
442.326	12.22
442.529	12.3
442.731	12.25
442.933	12.53
443.135	12.37
443.337	12.45
443.539	12.74
443.742	12.54
443.944	13
444.146	12.84
444.348	12.76
444.55	12.8
444.752	12.93
444.954	12.93
445.156	12.87
445.358	13.24
445.56	13.36
445.762	13.17
445.964	13.5
446.166	13.23
446.368	13.21
446.57	13.34
446.772	13
446.974	12.95
447.175	13.19
447.377	12.83
447.579	13.14
447.781	12.94
447.983	12.69
448.184	12.4
448.386	12.72
448.588	12.32
448.79	12.3
448.991	12.56
449.193	12.53
449.395	11.96
449.597	11.78
449.798	11.68
450	11.36
450.202	11.3
450.403	11.14
450.605	11.21
450.806	10.94
451.008	10.84
451.21	10.61
451.411	10.27
451.613	9.71
451.814	9.84
452.016	9.95
452.217	9.37
452.419	9.35
452.62	9.01
452.821	8.86
453.023	8.79
453.224	8.53
453.426	8.27
453.627	7.77
453.828	7.78
454.03	7.84
454.231	7.81
454.432	7.61
454.634	7.52
454.835	7.19
455.036	7.23
455.238	6.96
455.439	6.82
455.64	6.39
455.841	6.4
456.042	6.54
456.244	6.23
456.445	6.09
456.646	5.86
456.847	5.77
457.048	5.76
457.249	5.81
457.45	5.62
457.651	5.19
457.852	5.05
458.054	4.94
458.255	4.9
458.456	5.01
458.657	4.8
458.858	4.6
459.058	4.58
459.259	4.53
459.46	4.32
459.661	4.3
459.862	4.49
460.063	4.29
460.264	4.24
460.465	3.97
460.666	4.14
460.866	3.88
461.067	3.74
461.268	3.81
461.469	3.77
461.67	3.63
461.87	3.57
462.071	3.57
462.272	3.47
462.473	3.42
462.673	3.65
462.874	3.52
463.075	3.46
463.275	3.49
463.476	3.46
463.676	3.49
463.877	3.34
464.078	3.34
464.278	3.4
464.479	3.38
464.679	3.13
464.88	3.23
465.08	3.25
465.281	2.99
465.481	2.94
465.682	2.76
465.882	2.89
466.083	2.84
466.283	2.74
466.483	2.6
466.684	2.52
466.884	2.46
467.085	2.44
467.285	2.51
467.485	2.45
467.686	2.4
467.886	2.32
468.086	2.28
468.286	2.3
468.487	2.31
468.687	2.19
468.887	2.1
469.087	2.26
469.287	2.18
469.488	2
469.688	2.16
469.888	2.11
470.088	2.1
470.288	2.08
470.488	1.97
470.688	1.93
470.888	1.87
471.088	1.75
471.288	1.89
471.488	1.85
471.688	1.8
471.888	1.74
472.088	1.87
472.288	1.82
472.488	1.71
472.688	1.66
472.888	1.68
473.088	1.66
473.288	1.65
473.488	1.65
473.688	1.72
473.887	1.64
474.087	1.56
474.287	1.62
474.487	1.56
474.687	1.66
474.886	1.5
475.086	1.55
475.286	1.52
475.486	1.54
475.685	1.47
475.885	1.44
476.085	1.5
476.284	1.47
476.484	1.46
476.684	1.47
476.883	1.52
477.083	1.48
477.282	1.4
477.482	1.46
477.681	1.46
477.881	1.36
478.08	1.38
478.28	1.34
478.479	1.45
478.679	1.44
478.878	1.35
479.078	1.34
479.277	1.38
479.477	1.36
479.676	1.31
479.875	1.35
480.075	1.31
480.274	1.35
480.473	1.35
480.673	1.34
480.872	1.43
481.071	1.41
481.271	1.38
481.47	1.33
481.669	1.33
481.868	1.29
482.067	1.35
482.267	1.28
482.466	1.29
482.665	1.29
482.864	1.3
483.063	1.27
483.262	1.34
483.461	1.39
483.661	1.4
483.86	1.34
484.059	1.4
484.258	1.33
484.457	1.39
484.656	1.37
484.855	1.39
485.054	1.28
485.253	1.34
485.452	1.29
485.651	1.38
485.849	1.37
486.048	1.33
486.247	1.37
486.446	1.43
486.645	1.4
486.844	1.37
487.043	1.32
487.241	1.44
487.44	1.4
487.639	1.46
487.838	1.45
488.037	1.45
488.235	1.52
488.434	1.49
488.633	1.36
488.831	1.53
489.03	1.49
489.229	1.52
489.427	1.51
489.626	1.55
489.825	1.58
490.023	1.56
490.222	1.54
490.42	1.58
490.619	1.63
490.817	1.63
491.016	1.58
491.214	1.7
491.413	1.62
491.611	1.64
491.81	1.63
492.008	1.71
492.207	1.72
492.405	1.75
492.604	1.66
492.802	1.74
493	1.82
493.199	1.81
493.397	1.83
493.595	1.83
493.794	1.82
493.992	1.95
494.19	1.89
494.388	1.95
494.587	1.91
494.785	1.92
494.983	1.88
495.181	2.01
495.379	2.05
495.578	2.06
495.776	2.04
495.974	2.03
496.172	2.09
496.37	2.18
496.568	2.16
496.766	2.13
496.964	2.23
497.162	2.22
497.36	2.23
497.558	2.28
497.756	2.31
497.954	2.28
498.152	2.34
498.35	2.46
498.548	2.33
498.746	2.38
498.944	2.4
499.142	2.43
499.34	2.51
499.538	2.53
499.736	2.45
499.933	2.57
500.131	2.6
500.329	2.67
500.527	2.62
500.725	2.75
500.922	2.75
501.12	2.72
501.318	2.8
501.516	2.79
501.713	2.84
501.911	2.78
502.109	2.77
502.306	2.88
502.504	2.87
502.701	2.91
502.899	2.92
503.097	3.09
503.294	3
503.492	3.09
503.689	3.14
503.887	3.09
504.084	3.22
504.282	3.15
504.479	3.1
504.677	3.31
504.874	3.24
505.072	3.15
505.269	3.35
505.466	3.36
505.664	3.37
505.861	3.31
506.059	3.36
506.256	3.41
506.453	3.43
506.651	3.54
506.848	3.55
507.045	3.54
507.242	3.5
507.44	3.57
507.637	3.66
507.834	3.61
508.031	3.68
508.229	3.65
508.426	3.65
508.623	3.75
508.82	3.76
509.017	3.79
509.214	3.73
509.411	3.87
509.608	3.81
509.805	3.96
510.003	3.9
510.2	3.91
510.397	4.07
510.594	3.95
510.791	4.02
510.988	4.05
511.184	3.97
511.381	3.99
511.578	4.07
511.775	4.19
511.972	4.12
512.169	4.2
512.366	4.15
512.563	4.22
512.76	4.26
512.956	4.3
513.153	4.22
513.35	4.22
513.547	4.24
513.744	4.32
513.94	4.31
514.137	4.4
514.334	4.35
514.53	4.41
514.727	4.58
514.924	4.5
515.12	4.47
515.317	4.47
515.514	4.46
515.71	4.45
515.907	4.59
516.103	4.6
516.3	4.57
516.497	4.65
516.693	4.63
516.89	4.61
517.086	4.65
517.283	4.71
517.479	4.58
517.676	4.73
517.872	4.71
518.068	4.69
518.265	4.77
518.461	4.69
518.658	4.75
518.854	4.78
519.05	4.86
519.247	4.87
519.443	4.85
519.639	4.92
519.836	4.88
520.032	4.84
520.228	4.94
520.424	4.99
520.621	4.95
520.817	5
521.013	4.93
521.209	5.12
521.405	5.08
521.601	5.04
521.798	5.02
521.994	5.06
522.19	4.94
522.386	4.97
522.582	5.05
522.778	5.17
522.974	5.09
523.17	5.09
523.366	5.04
523.562	5.15
523.758	5.16
523.954	5.06
524.15	5.11
524.346	5.21
524.542	5.24
524.738	5.16
524.934	5.29
525.129	5.33
525.325	5.19
525.521	5.18
525.717	5.34
525.913	5.21
526.109	5.24
526.304	5.32
526.5	5.27
526.696	5.36
526.892	5.23
527.087	5.44
527.283	5.32
527.479	5.39
527.674	5.27
527.87	5.35
528.066	5.34
528.261	5.38
528.457	5.33
528.653	5.47
528.848	5.43
529.044	5.44
529.239	5.34
529.435	5.43
529.63	5.35
529.826	5.41
530.021	5.41
530.217	5.44
530.412	5.43
530.608	5.45
530.803	5.4
530.999	5.38
531.194	5.46
531.389	5.46
531.585	5.48
531.78	5.6
531.975	5.52
532.171	5.51
532.366	5.53
532.561	5.52
532.757	5.48
532.952	5.62
533.147	5.49
533.342	5.6
533.538	5.5
533.733	5.65
533.928	5.38
534.123	5.51
534.318	5.6
534.513	5.46
534.709	5.62
534.904	5.58
535.099	5.63
535.294	5.62
535.489	5.66
535.684	5.59
535.879	5.57
536.074	5.66
536.269	5.62
536.464	5.7
536.659	5.58
536.854	5.63
537.049	5.68
537.244	5.63
537.439	5.59
537.634	5.62
537.828	5.7
538.023	5.59
538.218	5.66
538.413	5.58
538.608	5.64
538.803	5.67
538.997	5.59
539.192	5.7
539.387	5.65
539.582	5.63
539.776	5.52
539.971	5.75
540.166	5.72
540.36	5.6
540.555	5.74
540.75	5.69
540.944	5.66
541.139	5.67
541.334	5.62
541.528	5.72
541.723	5.74
541.917	5.76
542.112	5.64
542.306	5.58
542.501	5.64
542.695	5.7
542.89	5.64
543.084	5.67
543.279	5.7
543.473	5.78
543.668	5.71
543.862	5.65
544.056	5.66
544.251	5.73
544.445	5.78
544.64	5.78
544.834	5.55
545.028	5.46
545.222	5.71
545.417	5.85
545.611	5.75
545.805	5.72
546	5.58
546.194	5.74
546.388	5.78
546.582	5.69
546.776	5.71
546.97	5.72
547.165	5.72
547.359	5.68
547.553	5.64
547.747	5.69
547.941	5.85
548.135	5.7
548.329	5.76
548.523	5.73
548.717	5.69
548.911	5.66
549.105	5.71
549.299	5.76
549.493	5.76
549.687	5.69
549.881	5.8
550.075	5.72
550.269	5.68
550.463	5.81
550.657	5.74
550.85	5.72
551.044	5.74
551.238	5.73
551.432	5.78
551.626	5.75
551.82	5.73
552.013	5.65
552.207	5.77
552.401	5.8
552.594	5.78
552.788	5.68
552.982	5.66
553.176	5.68
553.369	5.85
553.563	5.77
553.756	5.77
553.95	5.81
554.144	5.78
554.337	5.84
554.531	5.7
554.724	5.74
554.918	5.84
555.111	5.67
555.305	5.74
555.498	5.74
555.692	5.78
555.885	5.77
556.079	5.72
556.272	5.72
556.466	5.74
556.659	5.74
556.852	5.81
557.046	5.7
557.239	5.66
557.432	5.73
557.626	5.8
557.819	5.82
558.012	5.75
558.206	5.81
558.399	5.76
558.592	5.77
558.785	5.7
558.979	5.69
559.172	5.74
559.365	5.74
559.558	5.7
559.751	5.73
559.944	5.84
560.138	5.73
560.331	5.75
560.524	5.78
560.717	5.73
560.91	5.74
561.103	5.74
561.296	5.7
561.489	5.76
561.682	5.86
561.875	5.79
562.068	5.83
562.261	5.72
562.454	5.86
562.647	5.75
562.84	5.79
563.032	5.74
563.225	5.75
563.418	5.71
563.611	5.84
563.804	5.83
563.997	5.68
564.19	5.59
564.382	5.79
564.575	5.79
564.768	5.68
564.961	5.75
565.153	5.74
565.346	5.71
565.539	5.78
565.731	5.72
565.924	5.82
566.117	5.85
566.309	5.8
566.502	5.73
566.695	5.65
566.887	5.8
567.08	5.74
567.272	5.8
567.465	5.7
567.657	5.74
567.85	5.67
568.042	5.7
568.235	5.81
568.427	5.64
568.62	5.74
568.812	5.71
569.005	5.71
569.197	5.66
569.389	5.74
569.582	5.76
569.774	5.76
569.966	5.63
570.159	5.66
570.351	5.67
570.543	5.68
570.736	5.69
570.928	5.56
571.12	5.71
571.312	5.65
571.505	5.53
571.697	5.73
571.889	5.7
572.081	5.71
572.273	5.6
572.465	5.75
572.658	5.67
572.85	5.72
573.042	5.73
573.234	5.64
573.426	5.62
573.618	5.64
573.81	5.69
574.002	5.64
574.194	5.71
574.386	5.65
574.578	5.56
574.77	5.68
574.962	5.66
575.154	5.49
575.346	5.62
575.538	5.59
575.729	5.59
575.921	5.66
576.113	5.72
576.305	5.64
576.497	5.72
576.689	5.5
576.88	5.51
577.072	5.74
577.264	5.54
577.456	5.65
577.647	5.57
577.839	5.67
578.031	5.55
578.223	5.55
578.414	5.53
578.606	5.59
578.798	5.58
578.989	5.58
579.181	5.62
579.372	5.58
579.564	5.57
579.755	5.55
579.947	5.47
580.139	5.57
580.33	5.46
580.522	5.52
580.713	5.49
580.905	5.52
581.096	5.57
581.287	5.47
581.479	5.51
581.67	5.54
581.862	5.48
582.053	5.49
582.244	5.37
582.436	5.57
582.627	5.45
582.818	5.46
583.01	5.45
583.201	5.54
583.392	5.47
583.583	5.45
583.775	5.34
583.966	5.45
584.157	5.42
584.348	5.49
584.54	5.39
584.731	5.49
584.922	5.33
585.113	5.36
585.304	5.39
585.495	5.39
585.686	5.45
585.877	5.42
586.068	5.48
586.259	5.44
586.45	5.37
586.641	5.35
586.832	5.42
587.023	5.3
587.214	5.34
587.405	5.4
587.596	5.31
587.787	5.26
587.978	5.31
588.169	5.31
588.36	5.22
588.551	5.25
588.742	5.29
588.932	5.27
589.123	5.21
589.314	5.39
589.505	5.27
589.696	5.23
589.886	5.21
590.077	5.23
590.268	5.19
590.458	5.15
590.649	5.06
590.84	5.19
591.03	5.19
591.221	5.17
591.412	5.04
591.602	5.27
591.793	5.17
591.984	5.19
592.174	5.14
592.365	5.26
592.555	5.08
592.746	5.05
592.936	5.11
593.127	5.12
593.317	5.16
593.508	5.13
593.698	5.04
593.889	5.06
594.079	5.09
594.269	5.01
594.46	5.04
594.65	5.07
594.84	5.01
595.031	4.95
595.221	4.95
595.411	5.02
595.602	5
595.792	4.97
595.982	4.94
596.172	5.02
596.363	4.96
596.553	4.98
596.743	4.97
596.933	4.94
597.123	4.96
597.314	4.85
597.504	4.84
597.694	4.96
597.884	4.91
598.074	4.89
598.264	4.82
598.454	4.87
598.644	4.87
598.834	4.84
599.024	4.8
599.214	4.79
599.404	4.81
599.594	4.83
599.784	4.77
599.974	4.87
600.164	4.8
600.354	4.71
600.544	4.66
600.734	4.73
600.924	4.75
601.114	4.63
601.303	4.69
601.493	4.68
601.683	4.69
601.873	4.69
602.063	4.6
602.252	4.65
602.442	4.53
602.632	4.6
602.821	4.53
603.011	4.62
603.201	4.59
603.39	4.62
603.58	4.45
603.77	4.56
603.959	4.64
604.149	4.56
604.339	4.54
604.528	4.64
604.718	4.52
604.907	4.53
605.097	4.42
605.286	4.43
605.476	4.47
605.665	4.48
605.855	4.5
606.044	4.47
606.234	4.5
606.423	4.45
606.612	4.43
606.802	4.35
606.991	4.4
607.181	4.41
607.37	4.38
607.559	4.21
607.749	4.33
607.938	4.31
608.127	4.34
608.316	4.31
608.506	4.27
608.695	4.38
608.884	4.25
609.073	4.26
609.263	4.34
609.452	4.31
609.641	4.17
609.83	4.2
610.019	4.24
610.208	4.17
610.397	4.13
610.586	4.22
610.775	4.16
610.965	4.17
611.154	4.09
611.343	4.15
611.532	4.05
611.721	4.13
611.91	4.02
612.099	4.08
612.287	3.99
612.476	4.01
612.665	4.09
612.854	4
613.043	4.04
613.232	4.01
613.421	4
613.61	3.97
613.798	3.98
613.987	3.94
614.176	3.92
614.365	3.99
614.554	3.95
614.742	4
614.931	3.81
615.12	3.99
615.309	3.88
615.497	3.83
615.686	3.76
615.875	3.84
616.063	3.76
616.252	3.81
616.44	3.84
616.629	3.74
616.818	3.83
617.006	3.74
617.195	3.73
617.383	3.75
617.572	3.67
617.76	3.66
617.949	3.69
618.137	3.76
618.326	3.78
618.514	3.61
618.703	3.56
618.891	3.72
619.079	3.6
619.268	3.66
619.456	3.55
619.644	3.68
619.833	3.58
620.021	3.6
620.209	3.47
620.398	3.56
620.586	3.51
620.774	3.58
620.962	3.49
621.151	3.64
621.339	3.47
621.527	3.45
621.715	3.43
621.903	3.43
622.092	3.42
622.28	3.5
622.468	3.33
622.656	3.43
622.844	3.38
623.032	3.44
623.22	3.31
623.408	3.44
623.596	3.37
623.784	3.42
623.972	3.31
624.16	3.36
624.348	3.36
624.536	3.36
624.724	3.24
624.912	3.36
625.1	3.34
625.288	3.26
625.476	3.18
625.664	3.28
625.851	3.2
626.039	3.23
626.227	3.23
626.415	3.23
626.603	3.14
626.79	3.17
626.978	3.17
627.166	3.21
627.354	3.12
627.541	3.09
627.729	2.97
627.917	3.22
628.104	3.15
628.292	3.12
628.48	3.01
628.667	3.05
628.855	3.12
629.042	3.15
629.23	3.08
629.418	3.05
629.605	3.03
629.793	2.98
629.98	3
630.168	2.95
630.355	3
630.543	2.97
630.73	2.86
630.917	2.96
631.105	3
631.292	2.96
631.48	2.88
631.667	3.02
631.854	2.9
632.042	2.9
632.229	2.75
632.416	2.84
632.604	2.84
632.791	2.75
632.978	2.81
633.165	2.79
633.353	2.8
633.54	2.88
633.727	2.63
633.914	2.73
634.101	2.68
634.289	2.84
634.476	2.65
634.663	2.68
634.85	2.7
635.037	2.69
635.224	2.54
635.411	2.73
635.598	2.65
635.785	2.64
635.972	2.65
636.159	2.69
636.346	2.54
636.533	2.58
636.72	2.58
636.907	2.54
637.094	2.58
637.281	2.47
637.468	2.54
637.655	2.56
637.842	2.5
638.029	2.49
638.215	2.48
638.402	2.49
638.589	2.43
638.776	2.45
638.963	2.45
639.149	2.5
639.336	2.52
639.523	2.42
639.709	2.43
639.896	2.41
640.083	2.39
640.27	2.44
640.456	2.35
640.643	2.4
640.829	2.28
641.016	2.32
641.203	2.28
641.389	2.39
641.576	2.33
641.762	2.29
641.949	2.23
642.135	2.33
642.322	2.27
642.508	2.28
642.695	2.3
642.881	2.24
643.068	2.17
643.254	2.19
643.441	2.26
643.627	2.22
643.813	2.12
644	2.23
644.186	2.08
644.372	2.23
644.559	2.2
644.745	2.12
644.931	2.07
645.118	2.12
645.304	2.11
645.49	2.15
645.676	2.08
645.862	2.1
646.049	2.14
646.235	2.12
646.421	2.18
646.607	2.14
646.793	2.02
646.979	1.99
647.165	2.04
647.352	2.03
647.538	2.04
647.724	2
647.91	1.98
648.096	2.01
648.282	2.04
648.468	1.97
648.654	2.01
648.84	1.95
649.026	1.99
649.212	1.95
649.397	1.91
649.583	1.87
649.769	1.92
649.955	1.89
650.141	1.89
650.327	1.92
650.513	1.84
650.698	1.89
650.884	1.78
651.07	1.91
651.256	1.86
651.442	1.82
651.627	1.76
651.813	1.84
651.999	1.76
652.184	1.8
652.37	1.79
652.556	1.76
652.741	1.77
652.927	1.67
653.113	1.78
653.298	1.74
653.484	1.73
653.669	1.65
653.855	1.71
654.04	1.8
654.226	1.71
654.412	1.69
654.597	1.62
654.782	1.66
654.968	1.72
655.153	1.65
655.339	1.69
655.524	1.59
655.71	1.68
655.895	1.6
656.08	1.62
656.266	1.71
656.451	1.67
656.636	1.54
656.822	1.62
657.007	1.57
657.192	1.57
657.378	1.5
657.563	1.57
657.748	1.59
657.933	1.58
658.118	1.52
658.304	1.49
658.489	1.6
658.674	1.54
658.859	1.45
659.044	1.52
659.229	1.51
659.414	1.46
659.599	1.52
659.785	1.43
659.97	1.46
660.155	1.52
660.34	1.54
660.525	1.51
660.71	1.45
660.895	1.48
661.08	1.43
661.264	1.4
661.449	1.47
661.634	1.48
661.819	1.47
662.004	1.42
662.189	1.3
662.374	1.4
662.559	1.37
662.743	1.3
662.928	1.38
663.113	1.35
663.298	1.29
663.483	1.32
663.667	1.36
663.852	1.29
664.037	1.36
664.221	1.31
664.406	1.38
664.591	1.37
664.775	1.31
664.96	1.32
665.145	1.34
665.329	1.29
665.514	1.25
665.698	1.28
665.883	1.21
666.068	1.3
666.252	1.25
666.437	1.21
666.621	1.21
666.806	1.25
666.99	1.25
667.174	1.23
667.359	1.29
667.543	1.2
667.728	1.25
667.912	1.15
668.096	1.25
668.281	1.18
668.465	1.2
668.649	1.15
668.834	1.17
669.018	1.19
669.202	1.19
669.387	1.16
669.571	1.22
669.755	1.12
669.939	1.19
670.124	1.13
670.308	1.19
670.492	1.12
670.676	1.13
670.86	1.12
671.044	1.05
671.228	1.17
671.413	1.1
671.597	1.08
671.781	1.06
671.965	1.15
672.149	1.11
672.333	1.1
672.517	1.06
672.701	1.11
672.885	1.06
673.069	1
673.253	1.11
673.437	1.06
673.621	1.03
673.804	1.04
673.988	1.09
674.172	0.99
674.356	1.01
674.54	1.06
674.724	1.1
674.908	1
675.091	1.05
675.275	1.04
675.459	1.07
675.643	1.04
675.826	1.01
676.01	0.95
676.194	1
676.377	1.04
676.561	1.05
676.745	0.98
676.928	0.96
677.112	1.02
677.296	0.93
677.479	0.91
677.663	0.9
677.846	1.02
678.03	1.01
678.213	0.88
678.397	0.96
678.58	0.87
678.764	0.88
678.947	0.91
679.131	0.87
679.314	0.94
679.498	0.92
679.681	0.94
679.865	0.91
680.048	0.9
680.231	0.89
680.415	0.89
680.598	0.85
680.781	0.91
680.965	0.9
681.148	0.91
681.331	0.85
681.514	0.89
681.698	0.82
681.881	0.86
682.064	0.87
682.247	0.84
682.43	0.78
682.614	0.91
682.797	0.92
682.98	0.88
683.163	0.76
683.346	0.83
683.529	0.79
683.712	0.77
683.895	0.86
684.078	0.74
684.261	0.84
684.444	0.8
684.627	0.86
684.81	0.81
684.993	0.75
685.176	0.83
685.359	0.76
685.542	0.83
685.725	0.85
685.908	0.8
686.091	0.74
686.274	0.87
686.457	0.75
686.639	0.75
686.822	0.81
687.005	0.79
687.188	0.85
687.371	0.84
687.553	0.8
687.736	0.74
687.919	0.83
688.102	0.83
688.284	0.71
688.467	0.74
688.65	0.75
688.832	0.66
689.015	0.71
689.197	0.64
689.38	0.85
689.563	0.8
689.745	0.64
689.928	0.71
690.11	0.72
690.293	0.74
690.475	0.67
690.658	0.71
690.84	0.71
691.023	0.76
691.205	0.62
691.388	0.7
691.57	0.74
691.752	0.74
691.935	0.57
692.117	0.65
692.3	0.64
692.482	0.65
692.664	0.64
692.847	0.65
693.029	0.74
693.211	0.69
693.393	0.62
693.576	0.58
693.758	0.65
693.94	0.64
694.122	0.62
694.304	0.63
694.487	0.62
694.669	0.69
694.851	0.6
695.033	0.64
695.215	0.64
695.397	0.59
695.579	0.68
695.761	0.55
695.943	0.54
696.125	0.69
696.308	0.66
696.49	0.5
696.671	0.72
696.853	0.6
697.035	0.82
697.217	0.59
697.399	0.7
697.581	0.58
697.763	0.6
697.945	0.53
698.127	0.65
698.309	0.69
698.491	0.55
698.672	0.66
698.854	0.61
699.036	0.66
699.218	0.57
699.399	0.65
699.581	0.63
699.763	0.58
699.945	0.52
700.126	0.53
700.308	0.56
700.49	0.58
700.671	0.45
700.853	0.55
701.035	0.5
701.216	0.59
701.398	0.49
701.579	0.53
701.761	0.62
701.943	0.56
702.124	0.44
702.306	0.54
702.487	0.64
702.669	0.5
702.85	0.48
703.031	0.43
703.213	0.72
703.394	0.53
703.576	0.47
703.757	0.61
703.938	0.63
704.12	0.66
704.301	0.5
704.483	0.47
704.664	0.55
704.845	0.61
705.026	0.58
705.208	0.5
705.389	0.56
705.57	0.54
705.751	0.49
705.933	0.53
706.114	0.59
706.295	0.52
706.476	0.45
706.657	0.59
706.838	0.53
707.02	0.5
707.201	0.42
707.382	0.5
707.563	0.51
707.744	0.43
707.925	0.45
708.106	0.47
708.287	0.53
708.468	0.54
708.649	0.45
708.83	0.51
709.011	0.46
709.192	0.55
709.373	0.4
709.554	0.41
709.734	0.63
709.915	0.47
710.096	0.41
710.277	0.32
710.458	0.48
710.639	0.49
710.819	0.34
711	0.42
711.181	0.47
711.362	0.53
711.542	0.48
711.723	0.41
711.904	0.51
712.085	0.48
712.265	0.43
712.446	0.36
712.627	0.39
712.807	0.46
712.988	0.39
713.168	0.32
713.349	0.44
713.53	0.32
713.71	0.37
713.891	0.26
714.071	0.43
714.252	0.35
714.432	0.4
714.613	0.35
714.793	0.37
714.974	0.49
715.154	0.49
715.334	0.49
715.515	0.44
715.695	0.29
715.876	0.42
716.056	0.35
716.236	0.34
716.417	0.35
716.597	0.38
716.777	0.59
716.957	0.41
717.138	0.47
717.318	0.35
717.498	0.28
717.678	0.42
717.859	0.46
718.039	0.23
718.219	0.38
718.399	0.49
718.579	0.29
718.759	0.3
718.939	0.37
719.12	0.41
719.3	0.41
719.48	0.25
719.66	0.24
719.84	0.48
720.02	0.36
720.2	0.24
720.38	0.45
720.56	0.5
720.74	0.29
720.92	0.31
721.1	0.47
721.279	0.48
721.459	0.38
721.639	0.29
721.819	0.38
721.999	0.36
722.179	0.4
722.359	0.23
722.538	0.31
722.718	0.36
722.898	0.38
723.078	0.32
723.257	0.27
723.437	0.43
723.617	0.33
723.797	0.3
723.976	0.35
724.156	0.34
724.336	0.44
724.515	0.57
724.695	0.22
724.874	0.35
725.054	0.36
725.234	0.32
725.413	0.37
725.593	0.32
725.772	0.3
725.952	0.31
726.131	0.28
726.311	0.37
726.49	0.38
726.67	0.34
726.849	0.29
727.028	0.42
727.208	0.38
727.387	0.36
727.567	0.27
727.746	0.3
727.925	0.33
728.105	0.27
728.284	0.29
728.463	0.34
728.643	0.35
728.822	0.2
729.001	0.32
729.18	0.43
729.359	0.46
729.539	0.26
729.718	0.28
729.897	0.42
730.076	0.24
730.255	0.21
730.434	0.24
730.614	0.31
730.793	0.41
730.972	0.32
731.151	0.25
731.33	0.44
731.509	0.3
731.688	0.28
731.867	0.3
732.046	0.24
732.225	0.48
732.404	0.21
732.583	0.27
732.762	0.36
732.941	0.43
733.12	0.34
733.298	0.27
733.477	0.31
733.656	0.27
733.835	0.27
734.014	0.36
734.193	0.23
734.371	0.36
734.55	0.43
734.729	0.25
734.908	0.4
735.086	0.32
735.265	0.38
735.444	0.17
735.623	0.12
735.801	0.15
735.98	0.29
736.159	0.24
736.337	0.43
736.516	0.31
736.694	0.36
736.873	0.2
737.052	0.49
737.23	0.44
737.409	0.2
737.587	0.54
737.766	0.19
737.944	0.24
738.123	0.43
738.301	0.33
738.479	0.27
738.658	0.34
738.836	0.08
739.015	0.31
739.193	0.39
739.371	0.08
739.55	0.29
739.728	0.22
739.906	0.45
740.085	0.42
740.263	0.38
740.441	0.13
740.62	0.54
740.798	0.42
740.976	0.17
741.154	0.15
741.332	0.56
741.511	0.27
741.689	0.29
741.867	0.43
742.045	0.43
742.223	0.33
742.401	0.16
742.579	0.29
742.757	0.42
742.935	0.23
743.114	0.26
743.292	0.16
743.47	0.29
743.648	0.28
743.826	0.14
744.004	0.36
744.181	0.34
744.359	0.25
744.537	0.29
744.715	0.17
744.893	0.25
745.071	0.32
745.249	0.27
745.427	0.35
745.605	0.39
745.782	0.26
745.96	0.18
746.138	0.35
746.316	0.4
746.493	0.3
746.671	0.22
746.849	0.28
747.027	0.42
747.204	0.24
747.382	0.25
747.56	0.08
747.737	0.24
747.915	0.21
748.093	0.26
748.27	0.22
748.448	0.36
748.625	0.1
748.803	0.1
748.98	0.23
749.158	0.3
749.335	0.33
749.513	0.32
749.69	0.17
749.868	0.28
750.045	0.27
750.223	0.21
750.4	0.02
750.578	0.47
750.755	0.3
750.932	0.05
751.11	0.33
751.287	0.21
751.464	0.39
751.642	0.19
751.819	0.27
751.996	0.21
752.173	0.15
752.351	0.15
752.528	0.27
752.705	0.24
752.882	0.27
753.06	0.28
753.237	0.3
753.414	0.3
753.591	0.45
753.768	0.24
753.945	0.27
754.122	0.27
754.299	0.3
754.476	0.16
754.654	0.26
754.831	0.26
755.008	0.41
755.185	0.15
755.362	0.15
755.539	0.32
755.716	0.1
755.892	0.24
756.069	0.17
756.246	0.28
756.423	0.34
756.6	0.34
756.777	0.18
756.954	0.4
757.131	0.22
757.307	0.1
757.484	0.11
757.661	0.28
757.838	0.23
758.015	0.07
758.191	0.26
758.368	0.16
758.545	0.47
758.721	0.27
758.898	0.17
759.075	0.33
759.251	0.28
759.428	0.31
759.605	0.04
759.781	0.21
759.958	0.34
760.134	0.25
760.311	0.09
760.488	0.31
760.664	0.43
760.841	0.29
761.017	0.1
761.194	0.32
761.37	0.35
761.547	0.22
761.723	0.07
761.899	0.32
762.076	0.19
762.252	0.06
762.429	0.23
762.605	0.3
762.781	0.19
762.958	0.32
763.134	0.19
763.31	0.11
763.486	0.35
763.663	-0.02
763.839	0.2
764.015	0.06
764.191	0.11
764.368	0.27
764.544	0.08
764.72	0.33
764.896	0.32
765.072	0.22
765.248	0.12
765.425	0.12
765.601	0.32
765.777	0.27
765.953	-0.1
766.129	0.13
766.305	0.11
766.481	0.33
766.657	0.33
766.833	0.52
767.009	0.03
767.185	0.16
767.361	0.29
767.537	0.12
767.713	0.39
767.889	0.12
768.065	0.2
768.24	0.34
768.416	0.26
768.592	0.2
768.768	0.26
768.944	0.37
769.12	0.09
769.295	0.19
769.471	0.32
769.647	0.28
769.823	0.39
769.998	0.12
770.174	0.13
770.35	0.69
770.525	0.64
770.701	0.32
770.877	0.29
771.052	0.06
771.228	0.45
771.403	0.27
771.579	0.35
771.755	0.43
771.93	0.21
772.106	0.14
772.281	0.01
772.457	0.24
772.632	0.27
772.808	-0.11
772.983	0.11
773.159	-0.01
773.334	0.4
773.509	0.23
773.685	0.06
773.86	0.63
774.036	0.46
774.211	0.19
774.386	0.08
774.562	0.2
774.737	0.35
774.912	0.13
775.087	0.3
775.263	0.16
775.438	0.28
775.613	0.12
775.788	0.17
775.964	0.43
776.139	0.71
776.314	0.24
776.489	0.23
776.664	0.35
776.839	0.01
777.014	0.42
777.19	0.27
777.365	0.5
777.54	0.46
777.715	0.17
777.89	0.26
778.065	0.06
778.24	0.3
778.415	0.44
778.59	0.13
778.765	0.14
778.94	0.29
779.115	0.1
779.289	0.14
779.464	0.28
779.639	0.2
779.814	0.1
779.989	0.13
780.164	0.49
780.339	0.35
780.513	0.12
780.688	0.03
780.863	0.24
781.038	0.42
781.212	0.15
781.387	0.23
781.562	0.7
781.737	0.09
781.911	0.49
782.086	0.06
782.261	0.23
782.435	0.67
782.61	-0.05
782.784	0.26
782.959	0.45
783.134	0.13
783.308	-0.02
783.483	0.22
783.657	0.77
783.832	0.42
784.006	0.09
784.181	0.26
784.355	0.59
784.53	0.12
784.704	0.28
784.878	0.73
785.053	0.36
785.227	0.58
785.402	0.5
785.576	0.03
785.75	0.08
785.925	0.12
786.099	0.31
786.273	0.35
786.448	0.38
786.622	0.54
786.796	0.28
786.97	0.15
787.145	0.55
787.319	-0.09
787.493	0.03
787.667	-0.04
787.841	0.27
788.015	0.6
788.19	0.17
788.364	0.22
788.538	0.43
788.712	0.41
788.886	0.06
789.06	0.45
789.234	0.3
789.408	-0.04
789.582	0.28
789.756	0.18
789.93	0.04
790.104	0.28
790.278	0.32
790.452	-0.06
790.626	0.23
790.8	0.1
790.973	0.43
791.147	0.62
791.321	0.49
791.495	0.66
791.669	0.18
791.843	0.54
792.016	0.47
792.19	0.8
792.364	0.18
792.538	0.82
792.711	0.37
792.885	0.02
793.059	0.04
793.233	-0.4
793.406	0.53
793.58	0.51
793.754	0.3
793.927	0.1
794.101	0.48
794.274	0.33
794.448	0.53
794.622	0.12
794.795	0.6
794.969	0.05
795.142	0.49
795.316	0.15
795.489	0.19
795.663	0.72
795.836	0.23
796.009	-0.05
796.183	0.64
796.356	0.44
796.53	0.47
796.703	0.44
796.876	0.93
797.05	0.4
797.223	0.26
797.396	0.44
797.57	0.39
797.743	0.66
797.916	0.12
798.09	0.05
798.263	0.55
798.436	0.35
798.609	0.29
798.782	0.15
798.956	0.31
799.129	0.15
799.302	0.37
799.475	0.2
799.648	0.33
799.821	0.27
799.994	0.62
800.167	-0.19
800.34	0.24
800.514	0.34
800.687	0.31
800.86	-0.02
801.033	0.52
801.206	0.56
801.379	-0.08
801.551	0.53
801.724	0.78
801.897	0.71
802.07	0.18
802.243	-0.11
802.416	0.25
802.589	0.28
802.762	0.33
802.935	0.19
803.107	0.18
803.28	0.7
803.453	0.68
803.626	0.02
803.798	0.19
803.971	0.32
804.144	0.26
804.317	0.49
804.489	0.2
804.662	0.08
804.835	0.53
805.007	-0.1
805.18	1.02
805.353	0.58
805.525	-0.08
805.698	0.07
805.87	0.46
806.043	0.75
806.215	0.06
806.388	0.07
806.56	0.62
806.733	0.88
806.905	0.39
807.078	0.26
807.25	0.27
807.423	0.61
807.595	0.48
807.768	0.31
807.94	0.67
808.112	0.52
808.285	0.53
808.457	0.16
808.629	0.23
808.802	0.66
808.974	0.51
809.146	0.23
809.318	-0.08
809.491	0.54
809.663	0.46
809.835	-0.33
810.007	0.38
810.18	0.42
810.352	-0.16
810.524	0.24
810.696	0.69
810.868	0.77
811.04	0.17
811.212	0.25
811.384	0.69
811.556	0.68
811.728	0.18
811.901	1.08
812.073	0.47
812.245	0.7
812.417	0.45
812.589	0.04
812.76	0.61
812.932	0.77
813.104	0.57
813.276	0.38
813.448	0.68
813.62	0.47
813.792	0.32
813.964	0.62
814.136	0.68
814.307	0.17
814.479	0.3
814.651	0.05
814.823	0.97
814.995	0.19
815.166	0.32
815.338	-0.05
815.51	-0.25
815.681	1.85
815.853	0.02
816.025	0.15
816.196	1.15
816.368	1.02
816.54	-0.31
816.711	0.11
816.883	0.83
817.054	1.24
817.226	-0.34
817.398	0.52
817.569	0.04
817.741	0.67
817.912	0.9
818.084	0.25
818.255	0.63
818.426	0.13
818.598	0.08
818.769	0
818.941	0.82
819.112	1.35
819.283	0.63
819.455	-0.12
819.626	0.41
819.798	0.72
819.969	0.28
820.14	0.27
820.311	0.14
820.483	0.35
820.654	0.49
820.825	0.2
820.996	0.06
821.168	-0.39
821.339	0.38
821.51	0.2
821.681	-0.09
821.852	0.29
822.023	-0.04
822.195	0.02
822.366	0.97
822.537	0.52
822.708	0.75
822.879	-0.06
823.05	1.05
823.221	0.84
823.392	1.05
823.563	0.23
823.734	0.55
823.905	0.41
824.076	0.17
824.247	0.17
824.418	0.45
824.589	0.74
824.759	0.71
824.93	0.5
825.101	-0.14
825.272	0.77
825.443	1.07
825.614	1.51
825.784	-0.38
825.955	1.37
826.126	1.06
826.297	0.51
826.467	0.88
826.638	1.94
826.809	-0.79
826.98	0.52
827.15	0.55
827.321	0.69
827.492	1.41
827.662	0.41
827.833	1.6
828.003	0.92
828.174	-0.09
828.345	-0.04
828.515	1.2
828.686	0.91
828.856	0.3
829.027	0.79
829.197	1.04
829.368	0.98
829.538	0.29
829.709	0.05
829.879	0.2
830.049	0.8
830.22	-0.22
830.39	0.4
830.56	1.33
830.731	0.23
830.901	-0.05
831.072	0.74
831.242	0.93
831.412	0.69
831.582	-0.19
831.753	-0.43
831.923	1.19
832.093	0.91
832.263	0.35
832.434	-0.27
832.604	0.31
832.774	0.48
832.944	-0.03
833.114	0.12
833.284	0.94
833.454	0.19
833.624	-0.09
833.795	0.04
833.965	1.45
834.135	1.56
834.305	0.06
834.475	-0.08
834.645	0.6
834.815	0.33
834.985	0.28
835.155	0.22
835.325	0.5
835.494	0.82
835.664	0.74
835.834	-0.18
836.004	-0.03
836.174	0.85
836.344	0.42
836.514	-0.95
836.684	0.66
836.853	0.48
837.023	0.5
837.193	0.16
837.363	1.24
837.532	1.47
837.702	0.57
837.872	0.22
838.041	1.18
838.211	2.11
838.381	-0.43
838.55	0.52
838.72	2
838.89	1.98
839.059	0.69
839.229	0.28
839.398	1.81
839.568	0.73
839.738	0.69
839.907	1.54
840.077	1.37
840.246	0.28
840.416	-0.02
840.585	0.13
840.755	1.54
840.924	1.94
841.093	-0.16
841.263	-0.07
841.432	0.33
841.602	0.73
841.771	0.5
841.94	0.91
842.11	2.4
842.279	1.81
842.448	0.26
842.617	-0.35
842.787	2.27
842.956	-0.22
843.125	0.85
843.294	0.65
843.464	2.25
843.633	1.06
843.802	-0.98
843.971	0.89
844.14	1.38
844.309	1.04
844.479	-0.76
844.648	-0.64
844.817	0.7
844.986	0.76
845.155	0.58
845.324	0.17
845.493	0.07
845.662	1.05
845.831	1.9
846	1.3
846.169	1
846.338	2.57
846.507	0.68
846.676	0.76
846.844	-0.13
847.013	0.81
847.182	0.55
847.351	0.12
847.52	0.57
847.689	0.84
847.858	0.81
848.026	0.3
848.195	0.93
848.364	0.03
848.533	0.01
848.701	-0.36
848.87	0
849.039	2.09
849.207	1.97
849.376	1.36
849.545	1.53
849.713	0.41
849.882	0.63
850.051	0.73
850.219	0.85
850.388	1.33
850.556	-1.09
850.725	-0.08
850.893	0.51
851.062	1.11
851.23	1.76
851.399	-0.81
851.567	0.58
851.736	0.17
851.904	-0.56
852.073	0.26
852.241	1.82
852.41	1.08
852.578	0.38
852.746	-0.01
852.915	1.13
853.083	1.17
853.251	0.02
853.42	0.48
853.588	0.33
853.756	1.27
853.924	0.45
854.093	0.09
854.261	0.14
854.429	-0.9
854.597	0.47
854.765	-0.3
854.934	1.11
855.102	2.65
855.27	1.04
855.438	1.29
855.606	2.32
855.774	2.19
855.942	-0.59
856.11	-0.69
856.278	0.76
856.446	1.59
856.614	0.95
856.782	-0.34
856.95	1.13
857.118	1.6
857.286	1.85
857.454	-0.21
857.622	2.62
857.79	0.96
857.958	0.27
858.126	-0.54
858.294	-1.06
858.462	0.59
858.629	0
858.797	-0.43
858.965	1.46
859.133	1.67
859.301	1.25
859.468	1.02
859.636	1.12
859.804	2.69
859.971	1.58
860.139	-0.29
860.307	2.33
860.474	1.07
860.642	0.41
860.81	-0.57
860.977	-0.21
861.145	1.37
861.313	-0.42
861.48	1.62
861.648	2.47
861.815	0.86
861.983	-0.2
862.15	-0.04
862.318	2.52
862.485	2.62
862.653	0.84
862.82	-0.39
862.988	2.99
863.155	1.91
863.322	0.18
863.49	-1.46
863.657	0
863.824	2.93
863.992	1.2
864.159	1.09
864.326	2.12
864.494	-0.15
864.661	3.93
864.828	-0.62
864.996	3.72
865.163	3.29
865.33	1.52
865.497	-1.89
865.664	0.83
865.832	-0.78
865.999	-0.96
866.166	-0.26
866.333	0.7
866.5	0.24
866.667	0.26
866.834	0.68
867.001	1.98
867.168	-0.1
867.335	0.7
867.502	-1.27
867.669	1.14
867.836	3.96
868.003	0.92
868.17	2.71
868.337	3.34
868.504	4.3
868.671	-1.32
868.838	0.51
869.005	0.9
869.172	1.15
869.339	0.3
869.505	1.5
869.672	0.38
869.839	1.76
870.006	1.12
870.173	-1.99
870.339	1.5
870.506	3.54
870.673	-0.14
870.84	1.39
871.006	0.95
871.173	1.64
871.34	1.44
871.506	-1.03
871.673	1.3
871.839	0.44
872.006	2.13
872.173	0.07
872.339	1.6
872.506	3.18
872.672	0.8
872.839	-1.88
873.005	1.93
873.172	4.25
873.338	0.9
873.505	1.12
873.671	0.98
873.838	3.05
874.004	-0.7
874.171	-0.02
874.337	1.05
874.503	2.91
874.67	-0.14
874.836	0.31
875.002	4.01
875.169	2.16
875.335	0.82
875.501	-0.37
875.668	3.66
875.834	2.2
876	1.18
876.166	1.61
876.332	1.44
876.499	4.08
876.665	-0.29
876.831	1.01
876.997	5.18
877.163	1.45
877.329	1.04
877.495	1.25
877.662	3.3
877.828	1.59
877.994	0.61
878.16	-0.96
878.326	-0.46
878.492	1.06
878.658	1.28
878.824	2.3
878.99	2.21
879.156	-0.46
879.322	3.96
879.487	0.81
879.653	1.37
879.819	1.79
879.985	-0.63
880.151	2.58
880.317	1.98
880.483	1.96
880.648	0.54
880.814	-0.54
880.98	1.16
881.146	-2.27
881.312	0.7
881.477	0.3
881.643	2.43
881.809	2.37
881.974	4.21
882.14	-2.25
882.306	2.43
882.471	4.47
882.637	-0.26
882.803	1.57
882.968	4
883.134	5.09
883.299	-0.6
883.465	0.67
883.63	2.45
883.796	4.05
883.961	2
884.127	3.03
884.292	-0.24
884.458	-1.38
884.623	-1.38
