Data from Apollo_Calib_20240827__AbsoluteIrradiance__781__12-10-02-981.txt Node

Date: Wed Aug 28 12:10:02 BST 2024
User: biology
Spectrometer: FLMT08252
Trigger mode: 0
Integration Time (sec): 5.000000E-1
Scans to average: 5
Electric dark correction enabled: true
Nonlinearity correction enabled: false
Boxcar width: 0
XAxis mode: Wavelengths
Number of Pixels in Spectrum: 3648
>>>>>Begin Spectral Data<<<<<
179.588	-0
179.809	-0
180.03	-0
180.251	-0
180.473	-0
180.694	0
180.915	0
181.136	-0
181.357	0
181.578	-0
181.799	-0
182.02	-0
182.241	0
182.462	-0
182.683	0
182.904	-0
183.125	-0
183.346	0
183.567	0
183.788	0
184.009	0
184.23	0
184.451	0
184.672	0
184.892	0
185.113	0
185.334	0
185.555	0
185.776	0
185.996	0
186.217	0
186.438	0
186.659	0
186.879	0
187.1	0
187.321	0
187.541	0
187.762	0
187.983	0
188.203	0
188.424	0
188.644	0
188.865	0
189.086	0
189.306	0
189.527	0
189.747	0
189.968	0
190.188	0
190.409	0
190.629	0
190.849	0
191.07	0
191.29	0
191.511	0
191.731	0
191.951	0
192.172	0
192.392	0
192.612	0
192.833	0
193.053	0
193.273	0
193.493	0
193.714	0
193.934	0
194.154	0
194.374	0
194.594	0
194.815	0
195.035	0
195.255	0
195.475	0
195.695	0
195.915	0
196.135	0
196.355	0
196.575	0
196.795	0
197.015	0
197.235	0
197.455	0
197.675	0
197.895	0
198.115	0
198.335	0
198.555	0
198.775	0
198.995	0
199.214	0
199.434	0
199.654	0
199.874	0
200.094	3.59
200.313	2.27
200.533	2.15
200.753	1.27
200.973	3.83
201.192	2.22
201.412	1.34
201.632	1.73
201.851	3.33
202.071	1.9
202.291	1.75
202.51	1.44
202.73	2.91
202.95	1.78
203.169	1.2
203.389	1.94
203.608	2.19
203.828	1.28
204.047	1.24
204.267	2.67
204.486	1.85
204.706	2.29
204.925	1.38
205.145	1.28
205.364	2
205.583	2.5
205.803	1.01
206.022	1.25
206.242	1.71
206.461	1.37
206.68	1.28
206.9	1.65
207.119	2.5
207.338	2.06
207.557	1.24
207.777	1.2
207.996	1.38
208.215	1.96
208.434	1.04
208.654	0.7
208.873	1.52
209.092	1.84
209.311	1.18
209.53	0.94
209.749	1.29
209.968	1.16
210.187	1.18
210.407	0.45
210.626	1.24
210.845	1.54
211.064	1.24
211.283	1.01
211.502	1.46
211.721	1.31
211.94	0.94
212.159	1.29
212.377	1.23
212.596	1.52
212.815	1.06
213.034	0.96
213.253	1.39
213.472	1.47
213.691	0.83
213.91	0.6
214.128	0.68
214.347	1.3
214.566	0.42
214.785	0.43
215.003	1.12
215.222	1.27
215.441	0.91
215.66	0.53
215.878	0.75
216.097	1.14
216.316	0.62
216.534	0.8
216.753	1.22
216.972	0.8
217.19	0.84
217.409	0.53
217.627	0.72
217.846	0.86
218.064	0.88
218.283	0.65
218.501	1.35
218.72	1.14
218.938	0.62
219.157	0.52
219.375	0.86
219.594	0.97
219.812	0.52
220.031	0.56
220.249	1.41
220.467	1.13
220.686	0.56
220.904	0.52
221.122	0.6
221.341	1.11
221.559	0.93
221.777	0.55
221.995	0.8
222.214	0.82
222.432	0.55
222.65	0.79
222.868	0.68
223.086	0.86
223.305	0.94
223.523	0.71
223.741	1
223.959	0.67
224.177	0.51
224.395	0.47
224.613	0.81
224.831	0.87
225.049	0.45
225.267	0.68
225.485	0.8
225.703	0.41
225.921	0.58
226.139	0.47
226.357	0.66
226.575	0.73
226.793	0.5
227.011	1.36
227.229	0.68
227.447	0.83
227.665	0.54
227.883	0.28
228.1	0.61
228.318	0.7
228.536	0.34
228.754	0.46
228.972	0.78
229.189	0.71
229.407	0.4
229.625	0.49
229.843	0.9
230.06	0.77
230.278	0.49
230.496	0.56
230.713	0.65
230.931	0.66
231.149	0.48
231.366	0.26
231.584	0.47
231.801	1
232.019	0.42
232.236	0.35
232.454	0.51
232.671	0.61
232.889	0.47
233.106	0.43
233.324	0.69
233.541	0.44
233.759	0.55
233.976	0.32
234.194	0.48
234.411	0.53
234.628	0.33
234.846	0.36
235.063	0.52
235.28	0.54
235.498	0.42
235.715	0.36
235.932	0.81
236.149	0.43
236.367	0.34
236.584	0.58
236.801	0.46
237.018	0.65
237.236	0.56
237.453	0.27
237.67	0.63
237.887	0.44
238.104	0.42
238.321	0.34
238.538	0.41
238.755	0.69
238.973	0.28
239.19	0.41
239.407	0.51
239.624	0.63
239.841	0.41
240.058	0.33
240.275	0.45
240.492	0.45
240.709	0.45
240.925	0.45
241.142	0.47
241.359	0.43
241.576	0.28
241.793	0.4
242.01	0.47
242.227	0.58
242.444	0.53
242.66	0.55
242.877	0.41
243.094	0.41
243.311	0.49
243.527	0.38
243.744	0.54
243.961	0.57
244.178	0.35
244.394	0.38
244.611	0.63
244.828	0.57
245.044	0.33
245.261	0.35
245.477	0.54
245.694	0.54
245.911	0.3
246.127	0.45
246.344	0.63
246.56	0.47
246.777	0.37
246.993	0.39
247.21	0.43
247.426	0.49
247.643	0.31
247.859	0.31
248.076	0.42
248.292	0.74
248.508	0.31
248.725	0.4
248.941	0.41
249.157	0.56
249.374	0.34
249.59	0.37
249.806	0.43
250.023	0.55
250.239	0.36
250.455	0.32
250.671	0.39
250.888	0.5
251.104	0.45
251.32	0.31
251.536	0.44
251.752	0.43
251.969	0.38
252.185	0.37
252.401	0.57
252.617	0.56
252.833	0.34
253.049	0.4
253.265	0.43
253.481	0.45
253.697	0.36
253.913	0.27
254.129	0.44
254.345	0.35
254.561	0.38
254.777	0.32
254.993	0.49
255.209	0.38
255.425	0.35
255.641	0.34
255.857	0.51
256.073	0.45
256.288	0.3
256.504	0.32
256.72	0.39
256.936	0.52
257.152	0.38
257.367	0.29
257.583	0.47
257.799	0.51
258.015	0.35
258.23	0.29
258.446	0.57
258.662	0.35
258.877	0.31
259.093	0.33
259.309	0.4
259.524	0.42
259.74	0.27
259.955	0.23
260.171	0.38
260.387	0.38
260.602	0.4
260.818	0.4
261.033	0.29
261.249	0.32
261.464	0.33
261.68	0.28
261.895	0.49
262.11	0.46
262.326	0.33
262.541	0.24
262.757	0.43
262.972	0.39
263.187	0.38
263.403	0.45
263.618	0.5
263.833	0.37
264.049	0.26
264.264	0.28
264.479	0.37
264.694	0.47
264.91	0.26
265.125	0.31
265.34	0.4
265.555	0.57
265.77	0.34
265.986	0.31
266.201	0.32
266.416	0.49
266.631	0.25
266.846	0.32
267.061	0.45
267.276	0.37
267.491	0.2
267.706	0.27
267.921	0.39
268.136	0.37
268.351	0.33
268.566	0.23
268.781	0.45
268.996	0.46
269.211	0.3
269.426	0.28
269.641	0.31
269.856	0.46
270.071	0.26
270.285	0.22
270.5	0.43
270.715	0.5
270.93	0.3
271.145	0.42
271.359	0.39
271.574	0.32
271.789	0.3
272.004	0.26
272.218	0.32
272.433	0.41
272.648	0.26
272.862	0.41
273.077	0.35
273.292	0.32
273.506	0.27
273.721	0.36
273.936	0.39
274.15	0.41
274.365	0.32
274.579	0.37
274.794	0.36
275.008	0.39
275.223	0.29
275.437	0.29
275.652	0.42
275.866	0.37
276.081	0.3
276.295	0.4
276.509	0.34
276.724	0.34
276.938	0.38
277.153	0.35
277.367	0.36
277.581	0.27
277.796	0.24
278.01	0.19
278.224	0.44
278.438	0.44
278.653	0.24
278.867	0.27
279.081	0.19
279.295	0.33
279.51	0.28
279.724	0.22
279.938	0.37
280.152	0.33
280.366	0.25
280.58	0.33
280.794	0.36
281.008	0.35
281.222	0.33
281.437	0.49
281.651	0.33
281.865	0.37
282.079	0.26
282.293	0.14
282.507	0.24
282.721	0.31
282.935	0.27
283.148	0.21
283.362	0.3
283.576	0.2
283.79	0.29
284.004	0.23
284.218	0.35
284.432	0.24
284.646	0.29
284.859	0.25
285.073	0.3
285.287	0.3
285.501	0.26
285.714	0.25
285.928	0.28
286.142	0.3
286.356	0.22
286.569	0.23
286.783	0.46
286.997	0.4
287.21	0.27
287.424	0.26
287.637	0.29
287.851	0.25
288.065	0.35
288.278	0.27
288.492	0.3
288.705	0.34
288.919	0.32
289.132	0.19
289.346	0.32
289.559	0.18
289.773	0.22
289.986	0.27
290.2	0.29
290.413	0.37
290.626	0.23
290.84	0.25
291.053	0.28
291.267	0.36
291.48	0.24
291.693	0.29
291.906	0.25
292.12	0.3
292.333	0.23
292.546	0.23
292.76	0.33
292.973	0.3
293.186	0.36
293.399	0.24
293.612	0.35
293.826	0.25
294.039	0.26
294.252	0.26
294.465	0.34
294.678	0.27
294.891	0.27
295.104	0.2
295.317	0.22
295.53	0.29
295.743	0.23
295.956	0.21
296.169	0.34
296.382	0.3
296.595	0.27
296.808	0.2
297.021	0.36
297.234	0.29
297.447	0.24
297.66	0.27
297.873	0.3
298.086	0.28
298.299	0.21
298.511	0.19
298.724	0.26
298.937	0.21
299.15	0.2
299.363	0.22
299.575	0.3
299.788	0.29
300.001	0.24
300.213	0.25
300.426	0.21
300.639	0.24
300.852	0.21
301.064	0.3
301.277	0.32
301.489	0.34
301.702	0.29
301.915	0.22
302.127	0.25
302.34	0.27
302.552	0.25
302.765	0.14
302.977	0.34
303.19	0.22
303.402	0.22
303.615	0.24
303.827	0.24
304.04	0.22
304.252	0.3
304.464	0.22
304.677	0.36
304.889	0.26
305.102	0.22
305.314	0.19
305.526	0.29
305.739	0.29
305.951	0.18
306.163	0.23
306.375	0.35
306.588	0.2
306.8	0.25
307.012	0.17
307.224	0.26
307.436	0.33
307.649	0.19
307.861	0.25
308.073	0.3
308.285	0.2
308.497	0.19
308.709	0.19
308.921	0.22
309.133	0.29
309.346	0.27
309.558	0.23
309.77	0.29
309.982	0.33
310.194	0.3
310.406	0.23
310.617	0.34
310.829	0.25
311.041	0.3
311.253	0.19
311.465	0.25
311.677	0.24
311.889	0.18
312.101	0.2
312.313	0.3
312.524	0.31
312.736	0.19
312.948	0.22
313.16	0.33
313.372	0.33
313.583	0.3
313.795	0.26
314.007	0.29
314.218	0.29
314.43	0.27
314.642	0.23
314.853	0.17
315.065	0.31
315.277	0.25
315.488	0.25
315.7	0.33
315.912	0.27
316.123	0.28
316.335	0.23
316.546	0.37
316.758	0.24
316.969	0.21
317.181	0.26
317.392	0.23
317.604	0.27
317.815	0.21
318.026	0.2
318.238	0.28
318.449	0.31
318.661	0.19
318.872	0.18
319.083	0.19
319.295	0.33
319.506	0.21
319.717	0.21
319.929	0.27
320.14	0.26
320.351	0.24
320.562	0.21
320.774	0.24
320.985	0.29
321.196	0.19
321.407	0.13
321.618	0.32
321.829	0.29
322.041	0.28
322.252	0.22
322.463	0.27
322.674	0.3
322.885	0.2
323.096	0.21
323.307	0.26
323.518	0.27
323.729	0.19
323.94	0.22
324.151	0.23
324.362	0.33
324.573	0.24
324.784	0.18
324.995	0.35
325.206	0.29
325.417	0.23
325.628	0.24
325.838	0.25
326.049	0.26
326.26	0.3
326.471	0.23
326.682	0.28
326.892	0.27
327.103	0.18
327.314	0.18
327.525	0.27
327.735	0.26
327.946	0.25
328.157	0.17
328.368	0.31
328.578	0.21
328.789	0.32
328.999	0.24
329.21	0.2
329.421	0.33
329.631	0.25
329.842	0.2
330.052	0.26
330.263	0.26
330.473	0.29
330.684	0.21
330.894	0.25
331.105	0.26
331.315	0.27
331.526	0.18
331.736	0.37
331.947	0.25
332.157	0.29
332.367	0.21
332.578	0.23
332.788	0.34
332.999	0.27
333.209	0.22
333.419	0.23
333.629	0.25
333.84	0.28
334.05	0.19
334.26	0.39
334.47	0.25
334.681	0.28
334.891	0.21
335.101	0.27
335.311	0.35
335.521	0.22
335.732	0.22
335.942	0.3
336.152	0.28
336.362	0.3
336.572	0.24
336.782	0.3
336.992	0.24
337.202	0.23
337.412	0.25
337.622	0.25
337.832	0.27
338.042	0.22
338.252	0.2
338.462	0.23
338.672	0.27
338.882	0.2
339.092	0.19
339.302	0.36
339.511	0.32
339.721	0.23
339.931	0.2
340.141	0.32
340.351	0.34
340.561	0.28
340.77	0.25
340.98	0.24
341.19	0.27
341.4	0.22
341.609	0.17
341.819	0.26
342.029	0.13
342.238	0.24
342.448	0.21
342.658	0.32
342.867	0.23
343.077	0.24
343.286	0.27
343.496	0.26
343.706	0.34
343.915	0.21
344.125	0.23
344.334	0.23
344.544	0.19
344.753	0.23
344.963	0.23
345.172	0.24
345.381	0.25
345.591	0.18
345.8	0.27
346.01	0.26
346.219	0.33
346.428	0.14
346.638	0.23
346.847	0.27
347.056	0.35
347.266	0.24
347.475	0.25
347.684	0.3
347.893	0.25
348.103	0.25
348.312	0.23
348.521	0.32
348.73	0.25
348.94	0.24
349.149	0.21
349.358	0.26
349.567	0.26
349.776	0.18
349.985	0.22
350.194	0.29
350.403	0.32
350.612	0.18
350.821	0.24
351.03	0.26
351.239	0.19
351.448	0.23
351.657	0.18
351.866	0.34
352.075	0.33
352.284	0.2
352.493	0.19
352.702	0.27
352.911	0.25
353.12	0.25
353.329	0.25
353.538	0.21
353.746	0.22
353.955	0.22
354.164	0.25
354.373	0.23
354.582	0.27
354.79	0.22
354.999	0.3
355.208	0.27
355.416	0.36
355.625	0.18
355.834	0.2
356.042	0.3
356.251	0.23
356.46	0.17
356.668	0.24
356.877	0.41
357.085	0.3
357.294	0.14
357.503	0.24
357.711	0.22
357.92	0.39
358.128	0.26
358.337	0.22
358.545	0.27
358.754	0.24
358.962	0.27
359.17	0.2
359.379	0.28
359.587	0.26
359.796	0.23
360.004	0.27
360.212	0.28
360.421	0.31
360.629	0.23
360.837	0.18
361.046	0.29
361.254	0.36
361.462	0.24
361.67	0.18
361.879	0.27
362.087	0.31
362.295	0.24
362.503	0.23
362.711	0.25
362.92	0.21
363.128	0.16
363.336	0.19
363.544	0.19
363.752	0.23
363.96	0.26
364.168	0.19
364.376	0.2
364.584	0.26
364.792	0.31
365	0.24
365.208	0.26
365.416	0.28
365.624	0.3
365.832	0.24
366.04	0.32
366.248	0.27
366.456	0.23
366.664	0.28
366.872	0.27
367.079	0.22
367.287	0.22
367.495	0.25
367.703	0.23
367.911	0.24
368.118	0.25
368.326	0.2
368.534	0.24
368.742	0.29
368.949	0.17
369.157	0.19
369.365	0.27
369.572	0.27
369.78	0.18
369.988	0.32
370.195	0.25
370.403	0.31
370.61	0.23
370.818	0.25
371.026	0.31
371.233	0.19
371.441	0.29
371.648	0.22
371.856	0.24
372.063	0.29
372.271	0.23
372.478	0.26
372.685	0.19
372.893	0.34
373.1	0.24
373.308	0.21
373.515	0.33
373.722	0.25
373.93	0.22
374.137	0.26
374.344	0.31
374.552	0.32
374.759	0.29
374.966	0.26
375.173	0.25
375.381	0.27
375.588	0.24
375.795	0.2
376.002	0.23
376.209	0.19
376.417	0.22
376.624	0.28
376.831	0.29
377.038	0.22
377.245	0.16
377.452	0.2
377.659	0.26
377.866	0.26
378.073	0.25
378.28	0.26
378.487	0.32
378.694	0.29
378.901	0.26
379.108	0.27
379.315	0.31
379.522	0.38
379.729	0.27
379.936	0.27
380.143	0.26
380.35	0.28
380.557	0.22
380.763	0.27
380.97	0.3
381.177	0.3
381.384	0.27
381.591	0.22
381.797	0.32
382.004	0.31
382.211	0.32
382.418	0.24
382.624	0.29
382.831	0.3
383.038	0.24
383.244	0.27
383.451	0.27
383.658	0.29
383.864	0.25
384.071	0.23
384.277	0.33
384.484	0.27
384.69	0.34
384.897	0.25
385.103	0.28
385.31	0.22
385.516	0.24
385.723	0.21
385.929	0.28
386.136	0.23
386.342	0.3
386.549	0.23
386.755	0.35
386.961	0.33
387.168	0.25
387.374	0.29
387.58	0.33
387.787	0.31
387.993	0.26
388.199	0.27
388.406	0.21
388.612	0.27
388.818	0.26
389.024	0.23
389.231	0.31
389.437	0.37
389.643	0.32
389.849	0.27
390.055	0.3
390.261	0.25
390.467	0.29
390.674	0.24
390.88	0.29
391.086	0.33
391.292	0.24
391.498	0.3
391.704	0.32
391.91	0.27
392.116	0.31
392.322	0.18
392.528	0.33
392.734	0.28
392.94	0.32
393.146	0.31
393.352	0.3
393.557	0.26
393.763	0.31
393.969	0.29
394.175	0.24
394.381	0.29
394.587	0.28
394.792	0.29
394.998	0.35
395.204	0.38
395.41	0.32
395.615	0.3
395.821	0.31
396.027	0.34
396.233	0.27
396.438	0.36
396.644	0.32
396.85	0.28
397.055	0.31
397.261	0.34
397.466	0.45
397.672	0.35
397.878	0.4
398.083	0.39
398.289	0.31
398.494	0.35
398.7	0.36
398.905	0.24
399.111	0.45
399.316	0.29
399.522	0.32
399.727	0.32
399.932	0.34
400.138	0.32
400.343	0.38
400.549	0.37
400.754	0.34
400.959	0.36
401.165	0.32
401.37	0.36
401.575	0.48
401.78	0.35
401.986	0.36
402.191	0.34
402.396	0.41
402.601	0.46
402.807	0.39
403.012	0.35
403.217	0.45
403.422	0.39
403.627	0.43
403.832	0.43
404.037	0.45
404.243	0.44
404.448	0.41
404.653	0.43
404.858	0.45
405.063	0.44
405.268	0.43
405.473	0.38
405.678	0.41
405.883	0.6
406.088	0.52
406.293	0.4
406.498	0.42
406.703	0.54
406.907	0.48
407.112	0.5
407.317	0.54
407.522	0.57
407.727	0.44
407.932	0.55
408.136	0.62
408.341	0.54
408.546	0.59
408.751	0.6
408.956	0.58
409.16	0.63
409.365	0.61
409.57	0.61
409.774	0.65
409.979	0.65
410.184	0.66
410.388	0.66
410.593	0.75
410.798	0.73
411.002	0.72
411.207	0.83
411.411	0.83
411.616	0.72
411.82	0.84
412.025	0.81
412.229	0.84
412.434	1
412.638	0.91
412.843	0.93
413.047	0.95
413.252	0.91
413.456	1.03
413.66	1.07
413.865	1.02
414.069	1.19
414.273	1.12
414.478	1.13
414.682	1.19
414.886	1.26
415.091	1.19
415.295	1.25
415.499	1.42
415.703	1.38
415.908	1.49
416.112	1.39
416.316	1.62
416.52	1.58
416.724	1.55
416.929	1.62
417.133	1.91
417.337	1.76
417.541	1.82
417.745	1.81
417.949	1.99
418.153	2.03
418.357	2.07
418.561	2.26
418.765	2.29
418.969	2.44
419.173	2.46
419.377	2.47
419.581	2.74
419.785	2.65
419.989	2.72
420.193	2.88
420.397	2.91
420.601	3.06
420.804	3.23
421.008	3.19
421.212	3.31
421.416	3.25
421.62	3.37
421.823	3.4
422.027	3.54
422.231	3.53
422.435	3.55
422.638	3.67
422.842	3.71
423.046	3.81
423.249	4.04
423.453	3.98
423.657	4.25
423.86	4.26
424.064	4.35
424.268	4.54
424.471	4.65
424.675	4.83
424.878	4.85
425.082	4.96
425.285	5.22
425.489	5.18
425.692	5.34
425.896	5.37
426.099	5.62
426.303	5.66
426.506	5.84
426.71	6.03
426.913	6.22
427.116	6.42
427.32	6.4
427.523	6.53
427.726	6.91
427.93	6.89
428.133	7.26
428.336	7.44
428.54	7.52
428.743	7.74
428.946	8.11
429.149	8.07
429.353	8.08
429.556	8.1
429.759	8.22
429.962	8.43
430.165	8.54
430.368	8.21
430.571	8.19
430.775	8.18
430.978	8.22
431.181	8.23
431.384	8.42
431.587	8.5
431.79	8.89
431.993	8.79
432.196	9
432.399	9.42
432.602	9.56
432.805	9.61
433.008	10.27
433.211	10.07
433.414	10.38
433.616	10.44
433.819	10.44
434.022	10.57
434.225	10.69
434.428	10.69
434.631	11.18
434.833	10.96
435.036	11.18
435.239	11.45
435.442	11.39
435.645	11.6
435.847	11.69
436.05	12
436.253	12.16
436.455	12.31
436.658	12.18
436.861	12.47
437.063	12.71
437.266	12.51
437.468	12.99
437.671	13.21
437.874	13.21
438.076	13.16
438.279	13.45
438.481	13.66
438.684	14.32
438.886	13.93
439.089	14.19
439.291	14.19
439.494	14.62
439.696	14.84
439.899	15.45
440.101	15.8
440.303	15.95
440.506	16.63
440.708	16.44
440.91	16.64
441.113	16.8
441.315	17.25
441.517	17.1
441.72	17.36
441.922	16.97
442.124	17.01
442.326	17.43
442.529	17.59
442.731	17.45
442.933	17.91
443.135	17.62
443.337	17.73
443.539	18.12
443.742	17.9
443.944	18.55
444.146	18.13
444.348	18.27
444.55	18.01
444.752	18.18
444.954	18.23
445.156	18.18
445.358	18.59
445.56	18.9
445.762	18.54
445.964	18.94
446.166	18.68
446.368	18.63
446.57	18.77
446.772	18.3
446.974	18
447.175	18.12
447.377	17.89
447.579	18.17
447.781	18.02
447.983	17.77
448.184	17.46
448.386	17.75
448.588	17.29
448.79	17.24
448.991	17.52
449.193	17.49
449.395	16.81
449.597	16.4
449.798	16.34
450	15.92
450.202	15.76
450.403	15.87
450.605	15.62
450.806	15.14
451.008	15.19
451.21	14.87
451.411	14.56
451.613	13.77
451.814	13.89
452.016	13.82
452.217	13.19
452.419	13.25
452.62	12.91
452.821	12.64
453.023	12.54
453.224	12.11
453.426	11.76
453.627	11
453.828	11.03
454.03	11.23
454.231	11.14
454.432	10.96
454.634	10.6
454.835	10.41
455.036	10.38
455.238	10.01
455.439	9.62
455.64	9.51
455.841	9.29
456.042	9.42
456.244	9.06
456.445	8.79
456.646	8.54
456.847	8.49
457.048	8.42
457.249	8.33
457.45	8.08
457.651	7.61
457.852	7.52
458.054	7.15
458.255	7.11
458.456	7.19
458.657	7.09
458.858	6.73
459.058	6.56
459.259	6.65
459.46	6.37
459.661	6.29
459.862	6.37
460.063	6.27
460.264	6.15
460.465	5.92
460.666	6.04
460.866	5.63
461.067	5.49
461.268	5.59
461.469	5.34
461.67	5.31
461.87	5.14
462.071	5.09
462.272	5.08
462.473	5.06
462.673	5.22
462.874	5.17
463.075	4.98
463.275	5.05
463.476	5.13
463.676	4.98
463.877	4.92
464.078	4.91
464.278	4.91
464.479	4.81
464.679	4.69
464.88	4.67
465.08	4.59
465.281	4.42
465.481	4.27
465.682	4.11
465.882	4.17
466.083	4.01
466.283	4.01
466.483	3.82
466.684	3.69
466.884	3.52
467.085	3.65
467.285	3.65
467.485	3.57
467.686	3.46
467.886	3.37
468.086	3.29
468.286	3.34
468.487	3.44
468.687	3.13
468.887	3.14
469.087	3.28
469.287	3.16
469.488	3.03
469.688	3.15
469.888	3.15
470.088	3.09
470.288	3.02
470.488	3.02
470.688	2.86
470.888	2.85
471.088	2.68
471.288	2.8
471.488	2.73
471.688	2.63
471.888	2.6
472.088	2.85
472.288	2.7
472.488	2.58
472.688	2.55
472.888	2.59
473.088	2.61
473.288	2.44
473.488	2.47
473.688	2.61
473.887	2.43
474.087	2.43
474.287	2.38
474.487	2.27
474.687	2.43
474.886	2.39
475.086	2.33
475.286	2.26
475.486	2.23
475.685	2.21
475.885	2.18
476.085	2.24
476.284	2.27
476.484	2.19
476.684	2.21
476.883	2.31
477.083	2.13
477.282	2.09
477.482	2.18
477.681	2.15
477.881	2.07
478.08	2.09
478.28	2
478.479	2.09
478.679	2.21
478.878	2.04
479.078	2.05
479.277	2.06
479.477	2.02
479.676	1.97
479.875	1.97
480.075	1.93
480.274	2.03
480.473	2.02
480.673	2.01
480.872	2.1
481.071	2.05
481.271	2.02
481.47	1.99
481.669	2.01
481.868	1.96
482.067	1.96
482.267	1.95
482.466	1.91
482.665	1.9
482.864	1.93
483.063	1.95
483.262	2.03
483.461	2.01
483.661	2.06
483.86	1.99
484.059	2.04
484.258	1.98
484.457	1.98
484.656	2
484.855	2.03
485.054	1.91
485.253	1.95
485.452	1.98
485.651	2.04
485.849	1.99
486.048	1.99
486.247	2.03
486.446	2.06
486.645	2.02
486.844	2.07
487.043	2.01
487.241	2.09
487.44	2.05
487.639	2.1
487.838	2.1
488.037	2.13
488.235	2.19
488.434	2.19
488.633	1.98
488.831	2.21
489.03	2.19
489.229	2.22
489.427	2.2
489.626	2.26
489.825	2.27
490.023	2.31
490.222	2.23
490.42	2.32
490.619	2.34
490.817	2.36
491.016	2.31
491.214	2.41
491.413	2.38
491.611	2.37
491.81	2.38
492.008	2.47
492.207	2.54
492.405	2.54
492.604	2.44
492.802	2.57
493	2.62
493.199	2.59
493.397	2.66
493.595	2.72
493.794	2.65
493.992	2.79
494.19	2.73
494.388	2.83
494.587	2.73
494.785	2.77
494.983	2.72
495.181	2.85
495.379	2.86
495.578	2.96
495.776	2.98
495.974	2.94
496.172	2.96
496.37	3.13
496.568	3.11
496.766	3.04
496.964	3.17
497.162	3.21
497.36	3.21
497.558	3.22
497.756	3.33
497.954	3.27
498.152	3.38
498.35	3.46
498.548	3.34
498.746	3.39
498.944	3.41
499.142	3.43
499.34	3.53
499.538	3.65
499.736	3.51
499.933	3.64
500.131	3.66
500.329	3.76
500.527	3.79
500.725	3.84
500.922	3.88
501.12	3.92
501.318	3.98
501.516	3.92
501.713	4.01
501.911	4.01
502.109	3.98
502.306	4.12
502.504	4.03
502.701	4.12
502.899	4.15
503.097	4.37
503.294	4.22
503.492	4.34
503.689	4.41
503.887	4.38
504.084	4.45
504.282	4.43
504.479	4.45
504.677	4.6
504.874	4.59
505.072	4.48
505.269	4.69
505.466	4.67
505.664	4.74
505.861	4.65
506.059	4.72
506.256	4.84
506.453	4.87
506.651	4.99
506.848	5.02
507.045	5
507.242	5
507.44	5.05
507.637	5.2
507.834	5.05
508.031	5.25
508.229	5.08
508.426	5.1
508.623	5.27
508.82	5.3
509.017	5.26
509.214	5.31
509.411	5.47
509.608	5.33
509.805	5.48
510.003	5.48
510.2	5.54
510.397	5.7
510.594	5.56
510.791	5.65
510.988	5.67
511.184	5.67
511.381	5.56
511.578	5.68
511.775	5.83
511.972	5.76
512.169	5.83
512.366	5.86
512.563	5.97
512.76	6.01
512.956	6.01
513.153	5.97
513.35	5.97
513.547	5.88
513.744	6.07
513.94	6.05
514.137	6.13
514.334	6.15
514.53	6.19
514.727	6.38
514.924	6.25
515.12	6.27
515.317	6.3
515.514	6.26
515.71	6.15
515.907	6.46
516.103	6.44
516.3	6.31
516.497	6.5
516.693	6.51
516.89	6.52
517.086	6.53
517.283	6.59
517.479	6.52
517.676	6.69
517.872	6.66
518.068	6.65
518.265	6.69
518.461	6.64
518.658	6.72
518.854	6.71
519.05	6.82
519.247	6.85
519.443	6.8
519.639	6.96
519.836	6.77
520.032	6.8
520.228	6.95
520.424	6.91
520.621	6.94
520.817	6.95
521.013	6.97
521.209	7.14
521.405	7.13
521.601	7.01
521.798	7.04
521.994	7.1
522.19	6.97
522.386	7.01
522.582	7.14
522.778	7.26
522.974	7.13
523.17	7.18
523.366	7.16
523.562	7.21
523.758	7.14
523.954	7.02
524.15	7.24
524.346	7.32
524.542	7.31
524.738	7.23
524.934	7.38
525.129	7.29
525.325	7.25
525.521	7.25
525.717	7.53
525.913	7.33
526.109	7.36
526.304	7.44
526.5	7.41
526.696	7.46
526.892	7.38
527.087	7.65
527.283	7.53
527.479	7.48
527.674	7.35
527.87	7.53
528.066	7.53
528.261	7.53
528.457	7.5
528.653	7.66
528.848	7.6
529.044	7.67
529.239	7.51
529.435	7.57
529.63	7.5
529.826	7.63
530.021	7.57
530.217	7.66
530.412	7.63
530.608	7.65
530.803	7.65
530.999	7.5
531.194	7.63
531.389	7.76
531.585	7.74
531.78	7.85
531.975	7.73
532.171	7.83
532.366	7.73
532.561	7.81
532.757	7.71
532.952	7.91
533.147	7.68
533.342	7.84
533.538	7.72
533.733	7.96
533.928	7.63
534.123	7.8
534.318	7.87
534.513	7.83
534.709	7.95
534.904	7.87
535.099	7.93
535.294	7.92
535.489	7.91
535.684	7.87
535.879	7.83
536.074	7.92
536.269	7.94
536.464	7.97
536.659	7.85
536.854	7.88
537.049	7.98
537.244	7.94
537.439	7.89
537.634	7.95
537.828	8.01
538.023	7.92
538.218	7.95
538.413	7.85
538.608	7.94
538.803	7.95
538.997	7.91
539.192	7.97
539.387	7.94
539.582	7.91
539.776	7.9
539.971	8.07
540.166	8.09
540.36	7.92
540.555	8.08
540.75	8.01
540.944	8.01
541.139	8.09
541.334	7.99
541.528	7.99
541.723	8.1
541.917	8.1
542.112	8.01
542.306	7.92
542.501	7.98
542.695	7.99
542.89	7.96
543.084	8.01
543.279	8.05
543.473	8.06
543.668	8.1
543.862	7.94
544.056	7.94
544.251	8.11
544.445	8.15
544.64	8.2
544.834	7.83
545.028	7.68
545.222	8.07
545.417	8.3
545.611	8.18
545.805	8.1
546	7.89
546.194	8.09
546.388	8.11
546.582	8.01
546.776	8.05
546.97	8.08
547.165	8.08
547.359	8.07
547.553	8.06
547.747	8.03
547.941	8.26
548.135	8.07
548.329	8.14
548.523	8.14
548.717	8.05
548.911	8.09
549.105	7.97
549.299	8.2
549.493	8.14
549.687	8.04
549.881	8.17
550.075	8.1
550.269	7.97
550.463	8.16
550.657	8.11
550.85	8.12
551.044	8.03
551.238	8.18
551.432	8.11
551.626	8.13
551.82	8.18
552.013	8.05
552.207	8.18
552.401	8.24
552.594	8.06
552.788	8.02
552.982	8.02
553.176	8.05
553.369	8.26
553.563	8.19
553.756	8.1
553.95	8.16
554.144	8.14
554.337	8.12
554.531	7.93
554.724	8.12
554.918	8.2
555.111	8.05
555.305	8.19
555.498	8.15
555.692	8.26
555.885	8.14
556.079	8.12
556.272	8.16
556.466	8.12
556.659	8.07
556.852	8.18
557.046	8.07
557.239	7.99
557.432	8.08
557.626	8.18
557.819	8.14
558.012	8.15
558.206	8.2
558.399	8.13
558.592	8.08
558.785	8.07
558.979	8.14
559.172	8.1
559.365	8.1
559.558	8.03
559.751	8
559.944	8.26
560.138	8.13
560.331	8.12
560.524	8.17
560.717	8.13
560.91	8.11
561.103	8.18
561.296	7.98
561.489	8.16
561.682	8.2
561.875	8.15
562.068	8.21
562.261	8.04
562.454	8.25
562.647	8.16
562.84	8.17
563.032	8.15
563.225	8.04
563.418	8.1
563.611	8.1
563.804	8.19
563.997	7.99
564.19	7.85
564.382	8.22
564.575	8.15
564.768	8.03
564.961	8.15
565.153	8.04
565.346	7.98
565.539	8.18
565.731	8.09
565.924	8.19
566.117	8.26
566.309	8.15
566.502	8.1
566.695	8.01
566.887	8.14
567.08	8.07
567.272	8.12
567.465	8
567.657	8.09
567.85	7.97
568.042	8.12
568.235	8.16
568.427	7.98
568.62	8.04
568.812	8.05
569.005	8.16
569.197	8.03
569.389	8.14
569.582	8.14
569.774	8.1
569.966	7.99
570.159	7.92
570.351	8
570.543	8.06
570.736	8.06
570.928	7.89
571.12	8.06
571.312	7.97
571.505	7.84
571.697	8.04
571.889	7.98
572.081	8
572.273	7.98
572.465	8.03
572.658	8.03
572.85	8.02
573.042	8.01
573.234	7.93
573.426	7.92
573.618	7.98
573.81	7.98
574.002	7.95
574.194	8.02
574.386	7.89
574.578	7.83
574.77	7.97
574.962	7.98
575.154	7.77
575.346	7.86
575.538	7.83
575.729	7.9
575.921	7.96
576.113	7.95
576.305	7.96
576.497	7.99
576.689	7.82
576.88	7.8
577.072	7.93
577.264	7.88
577.456	7.92
577.647	7.92
577.839	7.95
578.031	7.82
578.223	7.87
578.414	7.74
578.606	7.83
578.798	7.87
578.989	7.85
579.181	7.85
579.372	7.77
579.564	7.91
579.755	7.82
579.947	7.78
580.139	7.84
580.33	7.64
580.522	7.8
580.713	7.73
580.905	7.72
581.096	7.84
581.287	7.75
581.479	7.77
581.67	7.77
581.862	7.69
582.053	7.72
582.244	7.57
582.436	7.82
582.627	7.62
582.818	7.62
583.01	7.64
583.201	7.7
583.392	7.69
583.583	7.69
583.775	7.52
583.966	7.5
584.157	7.67
584.348	7.68
584.54	7.64
584.731	7.61
584.922	7.58
585.113	7.44
585.304	7.56
585.495	7.57
585.686	7.66
585.877	7.62
586.068	7.68
586.259	7.61
586.45	7.57
586.641	7.51
586.832	7.66
587.023	7.54
587.214	7.51
587.405	7.53
587.596	7.38
587.787	7.43
587.978	7.5
588.169	7.44
588.36	7.36
588.551	7.47
588.742	7.46
588.932	7.54
589.123	7.25
589.314	7.54
589.505	7.36
589.696	7.36
589.886	7.36
590.077	7.35
590.268	7.32
590.458	7.29
590.649	7.13
590.84	7.36
591.03	7.36
591.221	7.2
591.412	7.15
591.602	7.37
591.793	7.32
591.984	7.32
592.174	7.24
592.365	7.36
592.555	7.2
592.746	7.14
592.936	7.19
593.127	7.23
593.317	7.2
593.508	7.24
593.698	7.08
593.889	7.15
594.079	7.12
594.269	7.06
594.46	7.1
594.65	7.12
594.84	7.04
595.031	6.98
595.221	6.97
595.411	7.02
595.602	7.05
595.792	6.96
595.982	6.93
596.172	7.06
596.363	6.95
596.553	6.91
596.743	6.91
596.933	6.86
597.123	6.89
597.314	6.73
597.504	6.8
597.694	6.88
597.884	6.79
598.074	6.89
598.264	6.83
598.454	6.83
598.644	6.76
598.834	6.73
599.024	6.62
599.214	6.72
599.404	6.76
599.594	6.76
599.784	6.67
599.974	6.74
600.164	6.69
600.354	6.62
600.544	6.63
600.734	6.72
600.924	6.66
601.114	6.5
601.303	6.57
601.493	6.57
601.683	6.58
601.873	6.55
602.063	6.47
602.252	6.58
602.442	6.43
602.632	6.43
602.821	6.39
603.011	6.52
603.201	6.44
603.39	6.41
603.58	6.3
603.77	6.42
603.959	6.54
604.149	6.34
604.339	6.34
604.528	6.5
604.718	6.39
604.907	6.33
605.097	6.25
605.286	6.23
605.476	6.28
605.665	6.3
605.855	6.14
606.044	6.34
606.234	6.31
606.423	6.18
606.612	6.22
606.802	6.13
606.991	6.22
607.181	6.19
607.37	6.18
607.559	5.9
607.749	6.1
607.938	6.02
608.127	6.08
608.316	6.12
608.506	6.09
608.695	6.08
608.884	5.98
609.073	6.05
609.263	6.08
609.452	6.01
609.641	5.83
609.83	5.8
610.019	6.01
610.208	5.85
610.397	5.9
610.586	5.87
610.775	5.81
610.965	5.83
611.154	5.71
611.343	5.8
611.532	5.73
611.721	5.77
611.91	5.69
612.099	5.69
612.287	5.72
612.476	5.59
612.665	5.75
612.854	5.54
613.043	5.61
613.232	5.67
613.421	5.54
613.61	5.63
613.798	5.52
613.987	5.6
614.176	5.6
614.365	5.54
614.554	5.51
614.742	5.58
614.931	5.42
615.12	5.58
615.309	5.5
615.497	5.45
615.686	5.32
615.875	5.34
616.063	5.36
616.252	5.33
616.44	5.38
616.629	5.38
616.818	5.29
617.006	5.27
617.195	5.28
617.383	5.34
617.572	5.2
617.76	5.2
617.949	5.22
618.137	5.28
618.326	5.24
618.514	4.99
618.703	5.03
618.891	5.2
619.079	5.11
619.268	5.21
619.456	4.97
619.644	5.1
619.833	5.02
620.021	5.04
620.209	4.91
620.398	5.05
620.586	4.96
620.774	5.02
620.962	4.93
621.151	5.04
621.339	4.87
621.527	4.82
621.715	4.89
621.903	4.89
622.092	4.86
622.28	4.9
622.468	4.69
622.656	4.76
622.844	4.8
623.032	4.83
623.22	4.59
623.408	4.82
623.596	4.69
623.784	4.82
623.972	4.67
624.16	4.71
624.348	4.75
624.536	4.74
624.724	4.57
624.912	4.64
625.1	4.65
625.288	4.59
625.476	4.5
625.664	4.58
625.851	4.53
626.039	4.51
626.227	4.51
626.415	4.48
626.603	4.43
626.79	4.46
626.978	4.44
627.166	4.45
627.354	4.41
627.541	4.39
627.729	4.25
627.917	4.53
628.104	4.39
628.292	4.3
628.48	4.36
628.667	4.31
628.855	4.42
629.042	4.35
629.23	4.23
629.418	4.26
629.605	4.26
629.793	4.11
629.98	4.16
630.168	4.18
630.355	4.19
630.543	4.12
630.73	4.08
630.917	4.11
631.105	4.24
631.292	4.13
631.48	4.09
631.667	4.23
631.854	4.06
632.042	4.02
632.229	3.99
632.416	4.07
632.604	4.04
632.791	3.93
632.978	3.98
633.165	3.95
633.353	4.01
633.54	3.96
633.727	3.77
633.914	3.86
634.101	3.76
634.289	4
634.476	3.79
634.663	3.8
634.85	3.79
635.037	3.73
635.224	3.66
635.411	3.8
635.598	3.75
635.785	3.7
635.972	3.64
636.159	3.76
636.346	3.69
636.533	3.62
636.72	3.63
636.907	3.6
637.094	3.69
637.281	3.49
637.468	3.62
637.655	3.57
637.842	3.63
638.029	3.53
638.215	3.55
638.402	3.53
638.589	3.44
638.776	3.44
638.963	3.37
639.149	3.58
639.336	3.48
639.523	3.41
639.709	3.42
639.896	3.4
640.083	3.41
640.27	3.41
640.456	3.36
640.643	3.39
640.829	3.19
641.016	3.23
641.203	3.23
641.389	3.29
641.576	3.32
641.762	3.24
641.949	3.25
642.135	3.26
642.322	3.25
642.508	3.16
642.695	3.18
642.881	3.13
643.068	3.11
643.254	3.11
643.441	3.14
643.627	3.24
643.813	3.02
644	3.14
644.186	3.03
644.372	3.12
644.559	3.08
644.745	3.04
644.931	3.01
645.118	3.03
645.304	3.02
645.49	3.01
645.676	2.97
645.862	2.94
646.049	3.05
646.235	2.9
646.421	3.09
646.607	3.06
646.793	2.88
646.979	2.87
647.165	2.91
647.352	2.88
647.538	2.92
647.724	2.82
647.91	2.83
648.096	2.9
648.282	2.84
648.468	2.8
648.654	2.8
648.84	2.82
649.026	2.77
649.212	2.74
649.397	2.66
649.583	2.71
649.769	2.74
649.955	2.72
650.141	2.68
650.327	2.75
650.513	2.65
650.698	2.67
650.884	2.52
651.07	2.68
651.256	2.62
651.442	2.66
651.627	2.53
651.813	2.63
651.999	2.58
652.184	2.56
652.37	2.57
652.556	2.59
652.741	2.56
652.927	2.39
653.113	2.43
653.298	2.49
653.484	2.48
653.669	2.47
653.855	2.46
654.04	2.48
654.226	2.44
654.412	2.43
654.597	2.37
654.782	2.45
654.968	2.44
655.153	2.39
655.339	2.36
655.524	2.3
655.71	2.37
655.895	2.36
656.08	2.34
656.266	2.42
656.451	2.34
656.636	2.24
656.822	2.27
657.007	2.28
657.192	2.32
657.378	2.23
657.563	2.2
657.748	2.27
657.933	2.26
658.118	2.23
658.304	2.15
658.489	2.34
658.674	2.21
658.859	2.18
659.044	2.17
659.229	2.23
659.414	2.11
659.599	2.16
659.785	2.09
659.97	2.16
660.155	2.11
660.34	2.16
660.525	2.05
660.71	2.06
660.895	2.1
661.08	2.07
661.264	2.02
661.449	2.12
661.634	2.04
661.819	2.09
662.004	2.04
662.189	1.98
662.374	2.03
662.559	1.93
662.743	1.92
662.928	1.95
663.113	1.96
663.298	1.95
663.483	1.96
663.667	1.94
663.852	1.91
664.037	2.01
664.221	1.95
664.406	1.96
664.591	1.94
664.775	1.92
664.96	1.89
665.145	1.86
665.329	1.87
665.514	1.82
665.698	1.82
665.883	1.77
666.068	1.9
666.252	1.86
666.437	1.75
666.621	1.83
666.806	1.88
666.99	1.78
667.174	1.73
667.359	1.87
667.543	1.78
667.728	1.75
667.912	1.64
668.096	1.8
668.281	1.68
668.465	1.79
668.649	1.68
668.834	1.72
669.018	1.75
669.202	1.7
669.387	1.66
669.571	1.77
669.755	1.62
669.939	1.71
670.124	1.65
670.308	1.7
670.492	1.63
670.676	1.65
670.86	1.61
671.044	1.55
671.228	1.66
671.413	1.57
671.597	1.62
671.781	1.56
671.965	1.64
672.149	1.55
672.333	1.55
672.517	1.57
672.701	1.54
672.885	1.58
673.069	1.46
673.253	1.61
673.437	1.51
673.621	1.48
673.804	1.51
673.988	1.54
674.172	1.49
674.356	1.4
674.54	1.53
674.724	1.62
674.908	1.5
675.091	1.55
675.275	1.43
675.459	1.52
675.643	1.5
675.826	1.47
676.01	1.47
676.194	1.48
676.377	1.51
676.561	1.5
676.745	1.43
676.928	1.41
677.112	1.52
677.296	1.39
677.479	1.39
677.663	1.37
677.846	1.44
678.03	1.33
678.213	1.34
678.397	1.38
678.58	1.35
678.764	1.32
678.947	1.3
679.131	1.33
679.314	1.42
679.498	1.36
679.681	1.38
679.865	1.41
680.048	1.33
680.231	1.33
680.415	1.24
680.598	1.25
680.781	1.24
680.965	1.3
681.148	1.28
681.331	1.22
681.514	1.31
681.698	1.24
681.881	1.26
682.064	1.31
682.247	1.25
682.43	1.14
682.614	1.2
682.797	1.29
682.98	1.27
683.163	1.15
683.346	1.2
683.529	1.2
683.712	1.18
683.895	1.25
684.078	1.15
684.261	1.16
684.444	1.22
684.627	1.18
684.81	1.17
684.993	1.15
685.176	1.19
685.359	1.1
685.542	1.15
685.725	1.27
685.908	1.14
686.091	1.11
686.274	1.15
686.457	1.16
686.639	1.16
686.822	1.13
687.005	1.11
687.188	1.13
687.371	1.28
687.553	1.21
687.736	1.13
687.919	1.21
688.102	1.17
688.284	1.08
688.467	1.06
688.65	1.07
688.832	1.02
689.015	1.01
689.197	0.98
689.38	1.13
689.563	1.16
689.745	1
689.928	0.97
690.11	1.05
690.293	1.06
690.475	0.96
690.658	1.02
690.84	1
691.023	0.96
691.205	0.93
691.388	1.06
691.57	1.08
691.752	1.04
691.935	0.87
692.117	0.94
692.3	1.01
692.482	0.93
692.664	0.9
692.847	1.02
693.029	1.09
693.211	0.97
693.393	0.92
693.576	0.91
693.758	0.99
693.94	0.97
694.122	0.92
694.304	0.9
694.487	0.86
694.669	1
694.851	0.85
695.033	0.88
695.215	0.9
695.397	0.89
695.579	0.89
695.761	0.86
695.943	0.83
696.125	0.99
696.308	0.93
696.49	0.76
696.671	1.03
696.853	0.86
697.035	1.08
697.217	0.89
697.399	0.93
697.581	0.86
697.763	0.89
697.945	0.8
698.127	0.91
698.309	1.01
698.491	0.91
698.672	0.82
698.854	0.87
699.036	0.93
699.218	0.77
699.399	0.94
699.581	0.93
699.763	0.83
699.945	0.77
700.126	0.74
700.308	0.78
700.49	0.89
700.671	0.74
700.853	0.72
701.035	0.79
701.216	0.79
701.398	0.71
701.579	0.76
701.761	0.89
701.943	0.76
702.124	0.71
702.306	0.76
702.487	0.96
702.669	0.75
702.85	0.7
703.031	0.73
703.213	0.91
703.394	0.87
703.576	0.76
703.757	0.98
703.938	0.87
704.12	0.93
704.301	0.73
704.483	0.67
704.664	0.78
704.845	0.89
705.026	0.79
705.208	0.73
705.389	0.75
705.57	0.81
705.751	0.72
705.933	0.7
706.114	0.81
706.295	0.69
706.476	0.65
706.657	0.87
706.838	0.74
707.02	0.82
707.201	0.65
707.382	0.6
707.563	0.73
707.744	0.69
707.925	0.65
708.106	0.68
708.287	0.74
708.468	0.79
708.649	0.66
708.83	0.76
709.011	0.64
709.192	0.76
709.373	0.53
709.554	0.61
709.734	0.75
709.915	0.62
710.096	0.71
710.277	0.55
710.458	0.65
710.639	0.69
710.819	0.62
711	0.66
711.181	0.69
711.362	0.75
711.542	0.69
711.723	0.6
711.904	0.69
712.085	0.76
712.265	0.64
712.446	0.55
712.627	0.65
712.807	0.59
712.988	0.7
713.168	0.58
713.349	0.7
713.53	0.48
713.71	0.51
713.891	0.5
714.071	0.56
714.252	0.55
714.432	0.62
714.613	0.48
714.793	0.54
714.974	0.73
715.154	0.64
715.334	0.69
715.515	0.82
715.695	0.53
715.876	0.6
716.056	0.52
716.236	0.54
716.417	0.6
716.597	0.53
716.777	0.79
716.957	0.57
717.138	0.63
717.318	0.56
717.498	0.46
717.678	0.64
717.859	0.6
718.039	0.46
718.219	0.57
718.399	0.56
718.579	0.44
718.759	0.5
718.939	0.61
719.12	0.58
719.3	0.58
719.48	0.39
719.66	0.41
719.84	0.62
720.02	0.55
720.2	0.39
720.38	0.56
720.56	0.65
720.74	0.44
720.92	0.51
721.1	0.72
721.279	0.66
721.459	0.56
721.639	0.43
721.819	0.54
721.999	0.52
722.179	0.52
722.359	0.47
722.538	0.51
722.718	0.51
722.898	0.48
723.078	0.55
723.257	0.41
723.437	0.48
723.617	0.62
723.797	0.47
723.976	0.54
724.156	0.6
724.336	0.64
724.515	0.68
724.695	0.39
724.874	0.53
725.054	0.64
725.234	0.48
725.413	0.48
725.593	0.48
725.772	0.51
725.952	0.48
726.131	0.51
726.311	0.5
726.49	0.5
726.67	0.45
726.849	0.42
727.028	0.49
727.208	0.48
727.387	0.52
727.567	0.41
727.746	0.46
727.925	0.43
728.105	0.33
728.284	0.4
728.463	0.13
728.643	0.5
728.822	0.34
729.001	0.42
729.18	0.55
729.359	0.59
729.539	0.45
729.718	0.48
729.897	0.59
730.076	0.55
730.255	0.36
730.434	0.53
730.614	0.6
730.793	0.62
730.972	0.42
731.151	0.53
731.33	0.57
731.509	0.59
731.688	0.46
731.867	0.48
732.046	0.32
732.225	0.68
732.404	0.38
732.583	0.3
732.762	0.45
732.941	0.54
733.12	0.57
733.298	0.44
733.477	0.58
733.656	0.38
733.835	0.41
734.014	0.51
734.193	0.52
734.371	0.55
734.55	0.57
734.729	0.31
734.908	0.51
735.086	0.5
735.265	0.51
735.444	0.3
735.623	0.33
735.801	0.39
735.98	0.54
736.159	0.38
736.337	0.49
736.516	0.53
736.694	0.43
736.873	0.34
737.052	0.68
737.23	0.69
737.409	0.4
737.587	0.65
737.766	0.27
737.944	0.44
738.123	0.56
738.301	0.63
738.479	0.49
738.658	0.48
738.836	0.28
739.015	0.39
739.193	0.48
739.371	0.33
739.55	0.52
739.728	0.4
739.906	0.64
740.085	0.7
740.263	0.45
740.441	0.25
740.62	0.61
740.798	0.66
740.976	0.38
741.154	0.32
741.332	0.68
741.511	0.46
741.689	0.6
741.867	0.58
742.045	0.52
742.223	0.52
742.401	0.37
742.579	0.4
742.757	0.58
742.935	0.37
743.114	0.35
743.292	0.35
743.47	0.57
743.648	0.5
743.826	0.4
744.004	0.35
744.181	0.54
744.359	0.53
744.537	0.52
744.715	0.4
744.893	0.41
745.071	0.45
745.249	0.46
745.427	0.4
745.605	0.55
745.782	0.46
745.96	0.42
746.138	0.57
746.316	0.68
746.493	0.44
746.671	0.36
746.849	0.34
747.027	0.62
747.204	0.44
747.382	0.4
747.56	0.3
747.737	0.53
747.915	0.34
748.093	0.48
748.27	0.37
748.448	0.4
748.625	0.24
748.803	0.31
748.98	0.32
749.158	0.44
749.335	0.49
749.513	0.31
749.69	0.34
749.868	0.39
750.045	0.46
750.223	0.21
750.4	0.26
750.578	0.58
750.755	0.42
750.932	0.2
751.11	0.47
751.287	0.24
751.464	0.51
751.642	0.25
751.819	0.4
751.996	0.42
752.173	0.3
752.351	0.31
752.528	0.29
752.705	0.32
752.882	0.31
753.06	0.41
753.237	0.38
753.414	0.69
753.591	0.66
753.768	0.45
753.945	0.32
754.122	0.37
754.299	0.49
754.476	0.27
754.654	0.37
754.831	0.47
755.008	0.42
755.185	0.3
755.362	0.26
755.539	0.45
755.716	0.29
755.892	0.32
756.069	0.33
756.246	0.4
756.423	0.36
756.6	0.47
756.777	0.21
756.954	0.46
757.131	0.37
757.307	0.3
757.484	0.24
757.661	0.32
757.838	0.49
758.015	0.2
758.191	0.4
758.368	0.34
758.545	0.4
758.721	0.52
758.898	0.25
759.075	0.42
759.251	0.47
759.428	0.47
759.605	0.21
759.781	0.37
759.958	0.36
760.134	0.39
760.311	0.3
760.488	0.44
760.664	0.64
760.841	0.39
761.017	0.21
761.194	0.43
761.37	0.48
761.547	0.43
761.723	0.36
761.899	0.63
762.076	0.15
762.252	0.13
762.429	0.26
762.605	0.46
762.781	0.29
762.958	0.4
763.134	0.25
763.31	0.25
763.486	0.58
763.663	0.14
763.839	0.31
764.015	0.16
764.191	0.26
764.368	0.31
764.544	0.25
764.72	0.42
764.896	0.44
765.072	0.45
765.248	0.25
765.425	0.18
765.601	0.38
765.777	0.39
765.953	0.04
766.129	0.27
766.305	0.3
766.481	0.58
766.657	0.23
766.833	0.59
767.009	0.12
767.185	0.18
767.361	0.35
767.537	0.2
767.713	0.54
767.889	0.27
768.065	0.31
768.24	0.46
768.416	0.51
768.592	0.37
768.768	0.33
768.944	0.39
769.12	0.36
769.295	0.37
769.471	0.36
769.647	0.23
769.823	0.52
769.998	0.21
770.174	0.23
770.35	0.86
770.525	0.66
770.701	0.57
770.877	0.28
771.052	0.27
771.228	0.53
771.403	0.43
771.579	0.33
771.755	0.64
771.93	0.35
772.106	0.26
772.281	0.07
772.457	0.44
772.632	0.36
772.808	0.12
772.983	0.2
773.159	0.24
773.334	0.68
773.509	0.32
773.685	0.29
773.86	0.8
774.036	0.59
774.211	0.42
774.386	0.3
774.562	0.36
774.737	0.37
774.912	0.27
775.087	0.35
775.263	0.29
775.438	0.48
775.613	0.26
775.788	0.46
775.964	0.66
776.139	0.76
776.314	0.16
776.489	0.29
776.664	0.54
776.839	0.22
777.014	0.54
777.19	0.42
777.365	0.49
777.54	0.58
777.715	0.34
777.89	0.27
778.065	0.33
778.24	0.45
778.415	0.43
778.59	0.1
778.765	0.26
778.94	0.49
779.115	0.35
779.289	0.35
779.464	0.28
779.639	0.36
779.814	0.12
779.989	0.18
780.164	0.6
780.339	0.56
780.513	0.31
780.688	0.07
780.863	0.44
781.038	0.55
781.212	0.17
781.387	0.36
781.562	0.72
781.737	0.24
781.911	0.79
782.086	0.29
782.261	0.36
782.435	0.86
782.61	0.17
782.784	0.51
782.959	0.58
783.134	0.3
783.308	0.08
783.483	0.32
783.657	0.97
783.832	0.64
784.006	0.06
784.181	0.22
784.355	0.74
784.53	0.22
784.704	0.05
784.878	0.48
785.053	0.48
785.227	0.69
785.402	0.74
785.576	0.38
785.75	0.53
785.925	0.2
786.099	0.47
786.273	0.4
786.448	0.64
786.622	0.65
786.796	0.35
786.97	0.2
787.145	1
787.319	-0.04
787.493	0.2
787.667	0.08
787.841	0.29
788.015	0.7
788.19	0.32
788.364	0.28
788.538	0.47
788.712	0.82
788.886	0.38
789.06	0.66
789.234	0.54
789.408	0.17
789.582	0.2
789.756	0.52
789.93	0.44
790.104	0.48
790.278	0.52
790.452	0.38
790.626	0.71
790.8	0.38
790.973	0.55
791.147	0.64
791.321	0.62
791.495	0.82
791.669	0.46
791.843	0.48
792.016	0.54
792.19	0.84
792.364	0.01
792.538	0.92
792.711	0.66
792.885	0.39
793.059	0.26
793.233	0.02
793.406	0.59
793.58	0.46
793.754	0.58
793.927	0.43
794.101	0.64
794.274	0.38
794.448	0.53
794.622	0.18
794.795	0.96
794.969	0.48
795.142	0.71
795.316	0.48
795.489	0.33
795.663	0.84
795.836	0.18
796.009	-0.02
796.183	1.06
796.356	0.77
796.53	0.47
796.703	0.39
796.876	1.21
797.05	0.4
797.223	0.3
797.396	0.25
797.57	0.39
797.743	0.87
797.916	0.54
798.09	0.45
798.263	0.94
798.436	0.68
798.609	0.31
798.782	0.09
798.956	0.48
799.129	0.57
799.302	0.45
799.475	0.3
799.648	0.27
799.821	0.46
799.994	0.23
800.167	0.17
800.34	0.5
800.514	0.36
800.687	0.21
800.86	0.24
801.033	0.73
801.206	0.55
801.379	0.17
801.551	0.65
801.724	0.72
801.897	1.21
802.07	0.1
802.243	-0.25
802.416	0.5
802.589	0.17
802.762	0.41
802.935	0.58
803.107	0.65
803.28	1.02
803.453	0.54
803.626	0.08
803.798	0.54
803.971	0.16
804.144	0.42
804.317	0.3
804.489	1.03
804.662	0.47
804.835	0.81
805.007	0.13
805.18	1.09
805.353	0.5
805.525	0.27
805.698	0.16
805.87	0.71
806.043	0.68
806.215	0.05
806.388	0.32
806.56	0.62
806.733	0.93
806.905	0.6
807.078	0.35
807.25	0.32
807.423	0.61
807.595	0.64
807.768	0.48
807.94	0.87
808.112	0.72
808.285	0.84
808.457	0.18
808.629	0.8
808.802	0.84
808.974	0.67
809.146	0.2
809.318	0.47
809.491	0.57
809.663	0.67
809.835	-0.01
810.007	0.71
810.18	0.24
810.352	-0.02
810.524	0.34
810.696	1.07
810.868	0.69
811.04	0.29
811.212	0.25
811.384	0.89
811.556	0.76
811.728	0.14
811.901	1.58
812.073	0.53
812.245	0.72
812.417	1.02
812.589	0.11
812.76	0.53
812.932	0.78
813.104	1.08
813.276	0.85
813.448	1
813.62	0.53
813.792	0.56
813.964	0.16
814.136	0.63
814.307	0.5
814.479	0.41
814.651	0.22
814.823	1.59
814.995	1.08
815.166	0.67
815.338	0.48
815.51	-0.11
815.681	1.26
815.853	0.82
816.025	0.4
816.196	1.17
816.368	1.1
816.54	0.27
816.711	-0.01
816.883	1.1
817.054	1.73
817.226	-0.42
817.398	0.66
817.569	0.53
817.741	0.87
817.912	0.46
818.084	0.58
818.255	0.94
818.426	0.69
818.598	0.41
818.769	0.17
818.941	1.25
819.112	1.41
819.283	0.8
819.455	-0.1
819.626	0.66
819.798	0.6
819.969	0.65
820.14	0.46
820.311	0.5
820.483	0.44
820.654	0.82
820.825	0.42
820.996	0.32
821.168	0.03
821.339	0.29
821.51	-0.12
821.681	0.35
821.852	1.07
822.023	0.19
822.195	0.48
822.366	1.02
822.537	0.65
822.708	0.46
822.879	0.2
823.05	1.33
823.221	0.27
823.392	0.74
823.563	0.93
823.734	0.91
823.905	0.26
824.076	0.04
824.247	0.33
824.418	0.49
824.589	1.42
824.759	0.61
824.93	0.52
825.101	-0.27
825.272	1.82
825.443	0.97
825.614	1.17
825.784	-0.74
825.955	2.12
826.126	1.53
826.297	1.26
826.467	1.56
826.638	2
826.809	0.02
826.98	0.51
827.15	0.85
827.321	0.7
827.492	1.22
827.662	0.89
827.833	2.29
828.003	1.82
828.174	0.47
828.345	-0.14
828.515	1.79
828.686	0.52
828.856	0.49
829.027	0.68
829.197	1.38
829.368	1.03
829.538	-0.11
829.709	0.41
829.879	1.24
830.049	0.77
830.22	0.78
830.39	0.63
830.56	1.01
830.731	0.53
830.901	-0.21
831.072	0.23
831.242	1.09
831.412	1.02
831.582	0.61
831.753	-0.24
831.923	1.4
832.093	1.06
832.263	0.24
832.434	-0.03
832.604	0.4
832.774	1.42
832.944	0.48
833.114	0.66
833.284	1.06
833.454	0.67
833.624	0.35
833.795	0.35
833.965	1.93
834.135	1.36
834.305	-0.93
834.475	0.04
834.645	0.98
834.815	0.91
834.985	0.31
835.155	0.38
835.325	1.2
835.494	1.36
835.664	0.45
835.834	-0.14
836.004	0.73
836.174	1.55
836.344	0.38
836.514	-0.06
836.684	0.67
836.853	1.42
837.023	0.23
837.193	0.14
837.363	1.51
837.532	2.06
837.702	0.49
837.872	0.01
838.041	1.35
838.211	2.32
838.381	-0.26
838.55	1.16
838.72	3.89
838.89	2.32
839.059	0.39
839.229	-0.06
839.398	2.65
839.568	0.49
839.738	0.48
839.907	2.01
840.077	0.93
840.246	0.4
840.416	0.54
840.585	-0.59
840.755	2.18
840.924	2.07
841.093	0.26
841.263	0.67
841.432	1.05
841.602	0.42
841.771	-0.19
841.94	1.2
842.11	3.18
842.279	2.73
842.448	0.2
842.617	0.26
842.787	2.22
842.956	0.05
843.125	1.08
843.294	0.58
843.464	2.6
843.633	1.06
843.802	0.55
843.971	0.83
844.14	1.38
844.309	2.19
844.479	-1.14
844.648	-0.48
844.817	0.68
844.986	1.78
845.155	-0.27
845.324	1.31
845.493	0.66
845.662	0.94
845.831	1.44
846	1.16
846.169	1.02
846.338	2.29
846.507	0.95
846.676	1.11
846.844	0.44
847.013	2.82
847.182	0.83
847.351	0.71
847.52	1.28
847.689	2.15
847.858	0.64
848.026	1.32
848.195	1.55
848.364	0.05
848.533	0.64
848.701	0.64
848.87	1.85
849.039	2.39
849.207	1.56
849.376	2.12
849.545	3.04
849.713	-0.17
849.882	0.29
850.051	0.1
850.219	1.24
850.388	2.27
850.556	0.22
850.725	0.79
850.893	1.73
851.062	1.22
851.23	1.78
851.399	-0.84
851.567	1
851.736	1
851.904	0.4
852.073	1.35
852.241	1.06
852.41	1.53
852.578	0.32
852.746	0.42
852.915	1.65
853.083	1.03
853.251	-0.52
853.42	0.14
853.588	1.95
853.756	2.84
853.924	1.48
854.093	1.06
854.261	1.36
854.429	0.41
854.597	1.39
854.765	-0.38
854.934	2.39
855.102	2.6
855.27	-0.41
855.438	3.22
855.606	2.66
855.774	2.8
855.942	-0.64
856.11	-0.15
856.278	1.49
856.446	2.32
856.614	0.39
856.782	0.36
856.95	2.23
857.118	1.53
857.286	1.68
857.454	1.35
857.622	2.97
857.79	2.45
857.958	-0.77
858.126	0.67
858.294	-0.65
858.462	0.5
858.629	0.73
858.797	0.11
858.965	0.58
859.133	1.88
859.301	0.69
859.468	1
859.636	0.6
859.804	4.12
859.971	1.62
860.139	0.12
860.307	2.04
860.474	1.55
860.642	0.18
860.81	-0.19
860.977	2.26
861.145	2.75
861.313	0.64
861.48	0.89
861.648	1.69
861.815	1.28
861.983	0.03
862.15	0.44
862.318	2
862.485	2.1
862.653	0.11
862.82	-0.39
862.988	3.45
863.155	2.47
863.322	-1.15
863.49	0.63
863.657	-0.02
863.824	3.97
863.992	2.02
864.159	2.62
864.326	3.76
864.494	1.47
864.661	4.05
864.828	0.16
864.996	3.49
865.163	4.42
865.33	0.62
865.497	-2.08
865.664	0.23
865.832	-1.58
865.999	2.58
866.166	-1.19
866.333	-0.11
866.5	0.62
866.667	0.85
866.834	2.26
867.001	4.19
867.168	-1.11
867.335	1.17
867.502	-0.26
867.669	1.23
867.836	3.64
868.003	-0.21
868.17	3.67
868.337	1.19
868.504	5.73
868.671	-0.97
868.838	1.58
869.005	2.3
869.172	4.23
869.339	0.92
869.505	0.66
869.672	1.37
869.839	3.69
870.006	1.96
870.173	0.25
870.339	2.9
870.506	5.88
870.673	0.56
870.84	1.92
871.006	2.52
871.173	1.89
871.34	0.76
871.506	-0.13
871.673	1.98
871.839	0.99
872.006	2.47
872.173	-0.37
872.339	2.37
872.506	3.62
872.672	0.84
872.839	-1.92
873.005	0.99
873.172	5.66
873.338	3.56
873.505	2.42
873.671	1.81
873.838	5.11
874.004	-0.69
874.171	-0.06
874.337	3.4
874.503	4.58
874.67	2.01
874.836	1.24
875.002	4.26
875.169	3.16
875.335	0.69
875.501	2.03
875.668	3.94
875.834	0.65
876	0.81
876.166	1.91
876.332	2.72
876.499	7.57
876.665	0.61
876.831	-0.04
876.997	6.4
877.163	3.08
877.329	-0.83
877.495	1.84
877.662	3.91
877.828	2.26
877.994	0.14
878.16	-0.89
878.326	1.45
878.492	3.99
878.658	1.12
878.824	2.22
878.99	2.5
879.156	3.94
879.322	3.63
879.487	1.45
879.653	3.53
879.819	1.75
879.985	0.92
880.151	1.99
880.317	2.8
880.483	2.14
880.648	4.16
880.814	-1.78
880.98	2.32
881.146	-1.4
881.312	0.65
881.477	1.23
881.643	2.63
881.809	4.95
881.974	2.81
882.14	-0.51
882.306	0.22
882.471	6.77
882.637	0.59
882.803	1.75
882.968	4.74
883.134	7.06
883.299	2.76
883.465	1.45
883.63	4.79
883.796	3.7
883.961	2.76
884.127	1.56
884.292	-2.66
884.458	-0.19
884.623	-0.19
