Data from Apollo_Calib_20240827__AbsoluteIrradiance__10__23-19-01-853.txt Node

Date: Tue Aug 27 23:19:01 BST 2024
User: biology
Spectrometer: FLMT08252
Trigger mode: 0
Integration Time (sec): 5.000000E-1
Scans to average: 5
Electric dark correction enabled: true
Nonlinearity correction enabled: false
Boxcar width: 0
XAxis mode: Wavelengths
Number of Pixels in Spectrum: 3648
>>>>>Begin Spectral Data<<<<<
179.588	-0
179.809	-0
180.03	-0
180.251	-0
180.473	-0
180.694	0
180.915	0
181.136	-0
181.357	-0
181.578	-0
181.799	-0
182.02	-0
182.241	0
182.462	-0
182.683	0
182.904	-0
183.125	0
183.346	-0
183.567	0
183.788	0
184.009	0
184.23	0
184.451	0
184.672	0
184.892	0
185.113	0
185.334	0
185.555	0
185.776	0
185.996	0
186.217	0
186.438	0
186.659	0
186.879	0
187.1	0
187.321	0
187.541	0
187.762	0
187.983	0
188.203	0
188.424	0
188.644	0
188.865	0
189.086	0
189.306	0
189.527	0
189.747	0
189.968	0
190.188	0
190.409	0
190.629	0
190.849	0
191.07	0
191.29	0
191.511	0
191.731	0
191.951	0
192.172	0
192.392	0
192.612	0
192.833	0
193.053	0
193.273	0
193.493	0
193.714	0
193.934	0
194.154	0
194.374	0
194.594	0
194.815	0
195.035	0
195.255	0
195.475	0
195.695	0
195.915	0
196.135	0
196.355	0
196.575	0
196.795	0
197.015	0
197.235	0
197.455	0
197.675	0
197.895	0
198.115	0
198.335	0
198.555	0
198.775	0
198.995	0
199.214	0
199.434	0
199.654	0
199.874	0
200.094	3.3
200.313	2.54
200.533	2.02
200.753	1.67
200.973	3.37
201.192	2.29
201.412	2.02
201.632	2.41
201.851	3.11
202.071	1.63
202.291	2.06
202.51	1.71
202.73	2.97
202.95	1.98
203.169	1.88
203.389	2.38
203.608	1.69
203.828	1.5
204.047	1.81
204.267	2.57
204.486	1.73
204.706	1.79
204.925	1.69
205.145	1.69
205.364	2.07
205.583	2.38
205.803	1.46
206.022	1.35
206.242	1.63
206.461	1.52
206.68	1.27
206.9	1.7
207.119	1.64
207.338	2.02
207.557	1.41
207.777	1.25
207.996	1.3
208.215	1.84
208.434	1.18
208.654	1.15
208.873	1.32
209.092	1.78
209.311	1.21
209.53	1.1
209.749	1.19
209.968	1.03
210.187	1.19
210.407	0.74
210.626	1.24
210.845	1.42
211.064	1.29
211.283	0.94
211.502	1.38
211.721	1.04
211.94	1.21
212.159	1.44
212.377	1.4
212.596	1.29
212.815	1.05
213.034	1.13
213.253	1.28
213.472	1.1
213.691	0.9
213.91	0.87
214.128	0.95
214.347	1.25
214.566	0.73
214.785	0.69
215.003	1.15
215.222	0.93
215.441	1.07
215.66	0.72
215.878	0.9
216.097	1.07
216.316	0.98
216.534	1.04
216.753	0.81
216.972	0.65
217.19	0.97
217.409	0.76
217.627	0.78
217.846	0.73
218.064	0.82
218.283	0.71
218.501	1.28
218.72	1.05
218.938	0.7
219.157	0.72
219.375	1
219.594	0.88
219.812	0.68
220.031	0.73
220.249	1.12
220.467	1.11
220.686	0.83
220.904	0.58
221.122	0.57
221.341	1.08
221.559	1
221.777	0.67
221.995	0.9
222.214	0.72
222.432	0.64
222.65	0.79
222.868	0.68
223.086	0.85
223.305	0.76
223.523	0.62
223.741	0.87
223.959	0.52
224.177	0.52
224.395	0.58
224.613	0.79
224.831	0.71
225.049	0.64
225.267	0.74
225.485	0.71
225.703	0.59
225.921	0.67
226.139	0.7
226.357	0.74
226.575	0.65
226.793	0.52
227.011	1.05
227.229	0.73
227.447	0.7
227.665	0.6
227.883	0.44
228.1	0.69
228.318	0.72
228.536	0.5
228.754	0.6
228.972	0.68
229.189	0.74
229.407	0.56
229.625	0.55
229.843	0.84
230.06	0.69
230.278	0.69
230.496	0.65
230.713	0.69
230.931	0.68
231.149	0.59
231.366	0.41
231.584	0.63
231.801	0.8
232.019	0.57
232.236	0.47
232.454	0.64
232.671	0.48
232.889	0.53
233.106	0.44
233.324	0.59
233.541	0.5
233.759	0.62
233.976	0.48
234.194	0.39
234.411	0.53
234.628	0.47
234.846	0.49
235.063	0.56
235.28	0.5
235.498	0.49
235.715	0.55
235.932	0.6
236.149	0.42
236.367	0.47
236.584	0.52
236.801	0.4
237.018	0.6
237.236	0.47
237.453	0.36
237.67	0.53
237.887	0.48
238.104	0.46
238.321	0.35
238.538	0.43
238.755	0.67
238.973	0.34
239.19	0.49
239.407	0.56
239.624	0.54
239.841	0.38
240.058	0.43
240.275	0.41
240.492	0.45
240.709	0.52
240.925	0.47
241.142	0.45
241.359	0.37
241.576	0.42
241.793	0.43
242.01	0.46
242.227	0.53
242.444	0.57
242.66	0.58
242.877	0.43
243.094	0.42
243.311	0.57
243.527	0.5
243.744	0.48
243.961	0.51
244.178	0.4
244.394	0.5
244.611	0.59
244.828	0.53
245.044	0.45
245.261	0.42
245.477	0.42
245.694	0.43
245.911	0.44
246.127	0.47
246.344	0.53
246.56	0.46
246.777	0.41
246.993	0.48
247.21	0.52
247.426	0.44
247.643	0.39
247.859	0.36
248.076	0.41
248.292	0.58
248.508	0.37
248.725	0.41
248.941	0.48
249.157	0.51
249.374	0.34
249.59	0.4
249.806	0.44
250.023	0.52
250.239	0.37
250.455	0.39
250.671	0.34
250.888	0.38
251.104	0.49
251.32	0.39
251.536	0.32
251.752	0.41
251.969	0.43
252.185	0.47
252.401	0.53
252.617	0.45
252.833	0.34
253.049	0.4
253.265	0.31
253.481	0.37
253.697	0.41
253.913	0.3
254.129	0.37
254.345	0.37
254.561	0.36
254.777	0.36
254.993	0.48
255.209	0.38
255.425	0.41
255.641	0.36
255.857	0.51
256.073	0.36
256.288	0.26
256.504	0.34
256.72	0.41
256.936	0.53
257.152	0.42
257.367	0.37
257.583	0.33
257.799	0.44
258.015	0.35
258.23	0.44
258.446	0.49
258.662	0.42
258.877	0.33
259.093	0.32
259.309	0.4
259.524	0.33
259.74	0.36
259.955	0.24
260.171	0.37
260.387	0.39
260.602	0.48
260.818	0.42
261.033	0.29
261.249	0.38
261.464	0.4
261.68	0.26
261.895	0.35
262.11	0.44
262.326	0.3
262.541	0.27
262.757	0.41
262.972	0.36
263.187	0.47
263.403	0.34
263.618	0.42
263.833	0.37
264.049	0.28
264.264	0.39
264.479	0.41
264.694	0.41
264.91	0.27
265.125	0.37
265.34	0.41
265.555	0.47
265.77	0.37
265.986	0.31
266.201	0.41
266.416	0.4
266.631	0.3
266.846	0.36
267.061	0.4
267.276	0.33
267.491	0.21
267.706	0.4
267.921	0.38
268.136	0.38
268.351	0.4
268.566	0.31
268.781	0.42
268.996	0.36
269.211	0.34
269.426	0.27
269.641	0.28
269.856	0.44
270.071	0.27
270.285	0.29
270.5	0.36
270.715	0.37
270.93	0.36
271.145	0.36
271.359	0.37
271.574	0.22
271.789	0.34
272.004	0.34
272.218	0.36
272.433	0.37
272.648	0.29
272.862	0.44
273.077	0.32
273.292	0.35
273.506	0.29
273.721	0.36
273.936	0.35
274.15	0.37
274.365	0.32
274.579	0.42
274.794	0.42
275.008	0.43
275.223	0.21
275.437	0.26
275.652	0.47
275.866	0.3
276.081	0.34
276.295	0.36
276.509	0.32
276.724	0.34
276.938	0.35
277.153	0.35
277.367	0.32
277.581	0.26
277.796	0.3
278.01	0.28
278.224	0.35
278.438	0.38
278.653	0.26
278.867	0.29
279.081	0.09
279.295	0.26
279.51	0.36
279.724	0.22
279.938	0.32
280.152	0.31
280.366	0.24
280.58	0.38
280.794	0.34
281.008	0.34
281.222	0.31
281.437	0.44
281.651	0.38
281.865	0.34
282.079	0.26
282.293	0.18
282.507	0.22
282.721	0.26
282.935	0.36
283.148	0.25
283.362	0.28
283.576	0.23
283.79	0.31
284.004	0.27
284.218	0.39
284.432	0.24
284.646	0.26
284.859	0.28
285.073	0.24
285.287	0.29
285.501	0.26
285.714	0.26
285.928	0.31
286.142	0.29
286.356	0.31
286.569	0.3
286.783	0.31
286.997	0.37
287.21	0.29
287.424	0.31
287.637	0.34
287.851	0.3
288.065	0.31
288.278	0.29
288.492	0.37
288.705	0.3
288.919	0.35
289.132	0.24
289.346	0.32
289.559	0.2
289.773	0.24
289.986	0.24
290.2	0.26
290.413	0.29
290.626	0.28
290.84	0.29
291.053	0.24
291.267	0.35
291.48	0.3
291.693	0.29
291.906	0.3
292.12	0.21
292.333	0.23
292.546	0.22
292.76	0.33
292.973	0.29
293.186	0.28
293.399	0.24
293.612	0.33
293.826	0.27
294.039	0.28
294.252	0.29
294.465	0.27
294.678	0.3
294.891	0.26
295.104	0.22
295.317	0.22
295.53	0.26
295.743	0.24
295.956	0.25
296.169	0.28
296.382	0.29
296.595	0.29
296.808	0.25
297.021	0.28
297.234	0.3
297.447	0.23
297.66	0.25
297.873	0.32
298.086	0.29
298.299	0.25
298.511	0.2
298.724	0.29
298.937	0.18
299.15	0.23
299.363	0.25
299.575	0.28
299.788	0.28
300.001	0.25
300.213	0.19
300.426	0.26
300.639	0.23
300.852	0.23
301.064	0.3
301.277	0.33
301.489	0.27
301.702	0.29
301.915	0.27
302.127	0.3
302.34	0.24
302.552	0.26
302.765	0.24
302.977	0.27
303.19	0.2
303.402	0.25
303.615	0.25
303.827	0.24
304.04	0.26
304.252	0.29
304.464	0.23
304.677	0.34
304.889	0.29
305.102	0.22
305.314	0.23
305.526	0.31
305.739	0.24
305.951	0.26
306.163	0.26
306.375	0.33
306.588	0.23
306.8	0.23
307.012	0.21
307.224	0.28
307.436	0.26
307.649	0.21
307.861	0.28
308.073	0.24
308.285	0.22
308.497	0.2
308.709	0.25
308.921	0.24
309.133	0.28
309.346	0.27
309.558	0.23
309.77	0.3
309.982	0.32
310.194	0.29
310.406	0.19
310.617	0.31
310.829	0.28
311.041	0.26
311.253	0.22
311.465	0.22
311.677	0.28
311.889	0.3
312.101	0.24
312.313	0.26
312.524	0.29
312.736	0.19
312.948	0.25
313.16	0.32
313.372	0.26
313.583	0.32
313.795	0.27
314.007	0.25
314.218	0.27
314.43	0.23
314.642	0.2
314.853	0.16
315.065	0.28
315.277	0.28
315.488	0.25
315.7	0.28
315.912	0.24
316.123	0.25
316.335	0.26
316.546	0.3
316.758	0.22
316.969	0.27
317.181	0.24
317.392	0.22
317.604	0.28
317.815	0.21
318.026	0.25
318.238	0.27
318.449	0.28
318.661	0.17
318.872	0.22
319.083	0.2
319.295	0.29
319.506	0.21
319.717	0.28
319.929	0.26
320.14	0.28
320.351	0.26
320.562	0.25
320.774	0.29
320.985	0.26
321.196	0.2
321.407	0.18
321.618	0.27
321.829	0.28
322.041	0.26
322.252	0.26
322.463	0.26
322.674	0.27
322.885	0.26
323.096	0.24
323.307	0.26
323.518	0.22
323.729	0.18
323.94	0.23
324.151	0.23
324.362	0.22
324.573	0.27
324.784	0.21
324.995	0.3
325.206	0.27
325.417	0.22
325.628	0.25
325.838	0.24
326.049	0.25
326.26	0.29
326.471	0.22
326.682	0.3
326.892	0.26
327.103	0.2
327.314	0.25
327.525	0.31
327.735	0.21
327.946	0.27
328.157	0.24
328.368	0.3
328.578	0.22
328.789	0.27
328.999	0.26
329.21	0.26
329.421	0.25
329.631	0.22
329.842	0.17
330.052	0.24
330.263	0.29
330.473	0.28
330.684	0.24
330.894	0.23
331.105	0.24
331.315	0.26
331.526	0.22
331.736	0.35
331.947	0.27
332.157	0.24
332.367	0.21
332.578	0.29
332.788	0.25
332.999	0.26
333.209	0.23
333.419	0.23
333.629	0.22
333.84	0.28
334.05	0.28
334.26	0.3
334.47	0.31
334.681	0.29
334.891	0.25
335.101	0.28
335.311	0.3
335.521	0.26
335.732	0.25
335.942	0.26
336.152	0.27
336.362	0.3
336.572	0.23
336.782	0.26
336.992	0.22
337.202	0.23
337.412	0.19
337.622	0.21
337.832	0.25
338.042	0.26
338.252	0.22
338.462	0.23
338.672	0.27
338.882	0.26
339.092	0.27
339.302	0.32
339.511	0.28
339.721	0.26
339.931	0.2
340.141	0.25
340.351	0.31
340.561	0.25
340.77	0.24
340.98	0.23
341.19	0.25
341.4	0.2
341.609	0.2
341.819	0.3
342.029	0.22
342.238	0.28
342.448	0.21
342.658	0.29
342.867	0.24
343.077	0.21
343.286	0.29
343.496	0.25
343.706	0.34
343.915	0.21
344.125	0.24
344.334	0.29
344.544	0.16
344.753	0.29
344.963	0.27
345.172	0.17
345.381	0.21
345.591	0.26
345.8	0.2
346.01	0.27
346.219	0.26
346.428	0.14
346.638	0.25
346.847	0.24
347.056	0.31
347.266	0.17
347.475	0.31
347.684	0.26
347.893	0.29
348.103	0.24
348.312	0.19
348.521	0.23
348.73	0.25
348.94	0.23
349.149	0.28
349.358	0.21
349.567	0.23
349.776	0.2
349.985	0.22
350.194	0.27
350.403	0.26
350.612	0.24
350.821	0.25
351.03	0.21
351.239	0.21
351.448	0.22
351.657	0.21
351.866	0.29
352.075	0.22
352.284	0.32
352.493	0.17
352.702	0.29
352.911	0.28
353.12	0.27
353.329	0.24
353.538	0.28
353.746	0.24
353.955	0.23
354.164	0.26
354.373	0.27
354.582	0.25
354.79	0.27
354.999	0.26
355.208	0.21
355.416	0.24
355.625	0.19
355.834	0.17
356.042	0.28
356.251	0.21
356.46	0.22
356.668	0.24
356.877	0.29
357.085	0.25
357.294	0.19
357.503	0.22
357.711	0.23
357.92	0.35
358.128	0.25
358.337	0.24
358.545	0.22
358.754	0.24
358.962	0.29
359.17	0.2
359.379	0.25
359.587	0.23
359.796	0.25
360.004	0.3
360.212	0.19
360.421	0.27
360.629	0.24
360.837	0.22
361.046	0.28
361.254	0.33
361.462	0.25
361.67	0.22
361.879	0.27
362.087	0.29
362.295	0.23
362.503	0.19
362.711	0.18
362.92	0.22
363.128	0.22
363.336	0.21
363.544	0.16
363.752	0.26
363.96	0.21
364.168	0.2
364.376	0.25
364.584	0.21
364.792	0.3
365	0.27
365.208	0.23
365.416	0.24
365.624	0.28
365.832	0.21
366.04	0.29
366.248	0.25
366.456	0.26
366.664	0.27
366.872	0.24
367.079	0.23
367.287	0.24
367.495	0.22
367.703	0.22
367.911	0.21
368.118	0.23
368.326	0.26
368.534	0.22
368.742	0.28
368.949	0.21
369.157	0.22
369.365	0.28
369.572	0.21
369.78	0.21
369.988	0.31
370.195	0.27
370.403	0.25
370.61	0.24
370.818	0.23
371.026	0.23
371.233	0.19
371.441	0.21
371.648	0.24
371.856	0.24
372.063	0.24
372.271	0.24
372.478	0.22
372.685	0.25
372.893	0.27
373.1	0.25
373.308	0.27
373.515	0.33
373.722	0.25
373.93	0.23
374.137	0.28
374.344	0.32
374.552	0.27
374.759	0.29
374.966	0.25
375.173	0.27
375.381	0.24
375.588	0.22
375.795	0.18
376.002	0.22
376.209	0.22
376.417	0.24
376.624	0.27
376.831	0.25
377.038	0.25
377.245	0.17
377.452	0.25
377.659	0.3
377.866	0.26
378.073	0.27
378.28	0.26
378.487	0.29
378.694	0.28
378.901	0.26
379.108	0.27
379.315	0.32
379.522	0.3
379.729	0.25
379.936	0.22
380.143	0.24
380.35	0.28
380.557	0.24
380.763	0.27
380.97	0.21
381.177	0.3
381.384	0.3
381.591	0.25
381.797	0.27
382.004	0.25
382.211	0.27
382.418	0.26
382.624	0.29
382.831	0.31
383.038	0.26
383.244	0.28
383.451	0.24
383.658	0.26
383.864	0.32
384.071	0.27
384.277	0.3
384.484	0.23
384.69	0.36
384.897	0.26
385.103	0.25
385.31	0.22
385.516	0.21
385.723	0.23
385.929	0.27
386.136	0.31
386.342	0.3
386.549	0.26
386.755	0.32
386.961	0.26
387.168	0.3
387.374	0.27
387.58	0.32
387.787	0.28
387.993	0.32
388.199	0.27
388.406	0.25
388.612	0.31
388.818	0.22
389.024	0.25
389.231	0.29
389.437	0.32
389.643	0.34
389.849	0.32
390.055	0.31
390.261	0.26
390.467	0.33
390.674	0.29
390.88	0.25
391.086	0.33
391.292	0.25
391.498	0.37
391.704	0.32
391.91	0.28
392.116	0.25
392.322	0.19
392.528	0.29
392.734	0.27
392.94	0.3
393.146	0.3
393.352	0.25
393.557	0.28
393.763	0.29
393.969	0.34
394.175	0.29
394.381	0.3
394.587	0.29
394.792	0.28
394.998	0.33
395.204	0.35
395.41	0.3
395.615	0.32
395.821	0.29
396.027	0.34
396.233	0.33
396.438	0.35
396.644	0.36
396.85	0.32
397.055	0.32
397.261	0.35
397.466	0.43
397.672	0.31
397.878	0.38
398.083	0.32
398.289	0.3
398.494	0.35
398.7	0.35
398.905	0.26
399.111	0.41
399.316	0.33
399.522	0.39
399.727	0.31
399.932	0.35
400.138	0.38
400.343	0.35
400.549	0.32
400.754	0.38
400.959	0.33
401.165	0.35
401.37	0.38
401.575	0.42
401.78	0.31
401.986	0.32
402.191	0.35
402.396	0.33
402.601	0.39
402.807	0.42
403.012	0.41
403.217	0.42
403.422	0.4
403.627	0.43
403.832	0.4
404.037	0.4
404.243	0.43
404.448	0.41
404.653	0.39
404.858	0.4
405.063	0.43
405.268	0.37
405.473	0.37
405.678	0.39
405.883	0.58
406.088	0.5
406.293	0.42
406.498	0.4
406.703	0.48
406.907	0.5
407.112	0.45
407.317	0.51
407.522	0.58
407.727	0.49
407.932	0.48
408.136	0.6
408.341	0.53
408.546	0.58
408.751	0.6
408.956	0.55
409.16	0.55
409.365	0.58
409.57	0.58
409.774	0.61
409.979	0.69
410.184	0.67
410.388	0.64
410.593	0.76
410.798	0.71
411.002	0.64
411.207	0.74
411.411	0.79
411.616	0.77
411.82	0.81
412.025	0.9
412.229	0.81
412.434	0.94
412.638	0.85
412.843	0.83
413.047	0.92
413.252	0.92
413.456	1.02
413.66	1.08
413.865	1.01
414.069	1.1
414.273	1.08
414.478	1.09
414.682	1.13
414.886	1.2
415.091	1.19
415.295	1.25
415.499	1.35
415.703	1.33
415.908	1.43
416.112	1.39
416.316	1.53
416.52	1.56
416.724	1.53
416.929	1.58
417.133	1.77
417.337	1.71
417.541	1.78
417.745	1.84
417.949	1.9
418.153	1.94
418.357	1.98
418.561	2.19
418.765	2.11
418.969	2.3
419.173	2.35
419.377	2.28
419.581	2.5
419.785	2.52
419.989	2.59
420.193	2.73
420.397	2.8
420.601	2.95
420.804	3.07
421.008	3
421.212	3.15
421.416	3.19
421.62	3.28
421.823	3.27
422.027	3.38
422.231	3.46
422.435	3.41
422.638	3.47
422.842	3.58
423.046	3.71
423.249	3.86
423.453	3.81
423.657	3.99
423.86	4.09
424.064	4.27
424.268	4.35
424.471	4.32
424.675	4.64
424.878	4.71
425.082	4.85
425.285	5
425.489	4.99
425.692	5.16
425.896	5.09
426.099	5.3
426.303	5.44
426.506	5.65
426.71	5.84
426.913	5.96
427.116	6.16
427.32	6.26
427.523	6.22
427.726	6.54
427.93	6.71
428.133	6.95
428.336	7.19
428.54	7.29
428.743	7.53
428.946	7.69
429.149	7.72
429.353	7.84
429.556	7.92
429.759	7.92
429.962	8.13
430.165	8.25
430.368	7.91
430.571	8
430.775	8.04
430.978	7.97
431.181	8.05
431.384	8.12
431.587	8.2
431.79	8.65
431.993	8.63
432.196	8.91
432.399	9.19
432.602	9.38
432.805	9.5
433.008	9.97
433.211	9.82
433.414	10.13
433.616	10.19
433.819	10.19
434.022	10.38
434.225	10.51
434.428	10.53
434.631	10.79
434.833	10.75
435.036	11
435.239	11.14
435.442	11.24
435.645	11.36
435.847	11.46
436.05	11.75
436.253	11.98
436.455	12.01
436.658	11.95
436.861	12.11
437.063	12.41
437.266	12.35
437.468	12.6
437.671	12.94
437.874	13.04
438.076	12.85
438.279	13.38
438.481	13.34
438.684	14.11
438.886	13.77
439.089	14.06
439.291	14.05
439.494	14.35
439.696	14.62
439.899	15.15
440.101	15.53
440.303	15.78
440.506	16.38
440.708	16.11
440.91	16.37
441.113	16.72
441.315	16.77
441.517	16.65
441.72	17.08
441.922	16.73
442.124	16.7
442.326	17.07
442.529	17.32
442.731	17.38
442.933	17.65
443.135	17.43
443.337	17.32
443.539	18
443.742	17.55
443.944	18.37
444.146	18.16
444.348	17.88
444.55	17.93
444.752	17.97
444.954	18.12
445.156	17.97
445.358	18.4
445.56	18.63
445.762	18.43
445.964	18.9
446.166	18.63
446.368	18.62
446.57	18.5
446.772	18.17
446.974	17.91
447.175	18.26
447.377	18.01
447.579	18.43
447.781	18.16
447.983	17.89
448.184	17.38
448.386	17.87
448.588	17.4
448.79	17.24
448.991	17.55
449.193	17.49
449.395	16.93
449.597	16.52
449.798	16.58
450	16.04
450.202	16
450.403	16.07
450.605	15.75
450.806	15.57
451.008	15.33
451.21	15.21
451.411	14.63
451.613	13.95
451.814	14.29
452.016	14.27
452.217	13.33
452.419	13.46
452.62	13.11
452.821	12.91
453.023	12.82
453.224	12.48
453.426	12
453.627	11.21
453.828	11.39
454.03	11.51
454.231	11.4
454.432	11.36
454.634	10.97
454.835	10.65
455.036	10.64
455.238	10.27
455.439	9.89
455.64	9.6
455.841	9.62
456.042	9.78
456.244	9.32
456.445	8.98
456.646	8.73
456.847	8.84
457.048	8.57
457.249	8.53
457.45	8.26
457.651	7.91
457.852	7.63
458.054	7.41
458.255	7.4
458.456	7.36
458.657	7.32
458.858	6.86
459.058	6.74
459.259	6.82
459.46	6.44
459.661	6.54
459.862	6.43
460.063	6.45
460.264	6.27
460.465	6.09
460.666	6.12
460.866	5.85
461.067	5.55
461.268	5.53
461.469	5.54
461.67	5.42
461.87	5.32
462.071	5.29
462.272	5.25
462.473	5.21
462.673	5.28
462.874	5.23
463.075	5.18
463.275	5.18
463.476	5.17
463.676	5.14
463.877	4.97
464.078	4.98
464.278	5.05
464.479	4.9
464.679	4.8
464.88	4.75
465.08	4.64
465.281	4.57
465.481	4.37
465.682	4.2
465.882	4.22
466.083	4.1
466.283	4.1
466.483	3.94
466.684	3.75
466.884	3.7
467.085	3.72
467.285	3.76
467.485	3.66
467.686	3.58
467.886	3.52
468.086	3.45
468.286	3.39
468.487	3.52
468.687	3.32
468.887	3.28
469.087	3.32
469.287	3.23
469.488	3.08
469.688	3.18
469.888	3.18
470.088	3.15
470.288	3.14
470.488	3.01
470.688	2.84
470.888	2.87
471.088	2.7
471.288	2.82
471.488	2.76
471.688	2.76
471.888	2.71
472.088	2.86
472.288	2.77
472.488	2.6
472.688	2.58
472.888	2.65
473.088	2.63
473.288	2.57
473.488	2.45
473.688	2.61
473.887	2.49
474.087	2.47
474.287	2.51
474.487	2.38
474.687	2.43
474.886	2.42
475.086	2.34
475.286	2.29
475.486	2.33
475.685	2.26
475.885	2.26
476.085	2.31
476.284	2.25
476.484	2.25
476.684	2.19
476.883	2.29
477.083	2.22
477.282	2.14
477.482	2.24
477.681	2.13
477.881	2.06
478.08	2.05
478.28	2.03
478.479	2.12
478.679	2.12
478.878	2.09
479.078	2.1
479.277	2.06
479.477	2.04
479.676	2.05
479.875	2.05
480.075	2
480.274	2.04
480.473	2.11
480.673	2.01
480.872	2.09
481.071	2.02
481.271	2.04
481.47	2.01
481.669	2.03
481.868	1.97
482.067	1.98
482.267	1.89
482.466	1.98
482.665	1.94
482.864	1.96
483.063	1.95
483.262	1.99
483.461	1.99
483.661	2.06
483.86	2.02
484.059	2.05
484.258	2.04
484.457	2.01
484.656	2.01
484.855	2.06
485.054	1.92
485.253	2.01
485.452	2
485.651	2.08
485.849	2
486.048	2.01
486.247	2.02
486.446	2.06
486.645	2.06
486.844	2.06
487.043	2.07
487.241	2.1
487.44	2.1
487.639	2.1
487.838	2.1
488.037	2.07
488.235	2.19
488.434	2.16
488.633	2.08
488.831	2.23
489.03	2.21
489.229	2.18
489.427	2.21
489.626	2.27
489.825	2.24
490.023	2.3
490.222	2.27
490.42	2.3
490.619	2.33
490.817	2.38
491.016	2.33
491.214	2.43
491.413	2.43
491.611	2.38
491.81	2.39
492.008	2.43
492.207	2.51
492.405	2.53
492.604	2.51
492.802	2.56
493	2.61
493.199	2.58
493.397	2.67
493.595	2.69
493.794	2.62
493.992	2.77
494.19	2.75
494.388	2.81
494.587	2.76
494.785	2.76
494.983	2.73
495.181	2.79
495.379	2.86
495.578	2.96
495.776	2.94
495.974	2.94
496.172	2.93
496.37	3.06
496.568	3.11
496.766	3.09
496.964	3.14
497.162	3.18
497.36	3.21
497.558	3.22
497.756	3.25
497.954	3.25
498.152	3.35
498.35	3.4
498.548	3.37
498.746	3.35
498.944	3.41
499.142	3.42
499.34	3.51
499.538	3.57
499.736	3.5
499.933	3.6
500.131	3.6
500.329	3.75
500.527	3.72
500.725	3.79
500.922	3.84
501.12	3.83
501.318	3.93
501.516	3.97
501.713	3.99
501.911	4
502.109	3.99
502.306	4.07
502.504	4.02
502.701	4.07
502.899	4.19
503.097	4.26
503.294	4.17
503.492	4.3
503.689	4.33
503.887	4.34
504.084	4.38
504.282	4.39
504.479	4.42
504.677	4.59
504.874	4.48
505.072	4.43
505.269	4.66
505.466	4.67
505.664	4.69
505.861	4.59
506.059	4.76
506.256	4.75
506.453	4.81
506.651	4.91
506.848	4.97
507.045	4.93
507.242	4.98
507.44	5
507.637	5.07
507.834	5.02
508.031	5.14
508.229	5.12
508.426	5.1
508.623	5.26
508.82	5.3
509.017	5.23
509.214	5.19
509.411	5.38
509.608	5.33
509.805	5.46
510.003	5.39
510.2	5.48
510.397	5.57
510.594	5.52
510.791	5.63
510.988	5.54
511.184	5.57
511.381	5.54
511.578	5.66
511.775	5.79
511.972	5.72
512.169	5.76
512.366	5.77
512.563	5.9
512.76	5.94
512.956	5.99
513.153	5.87
513.35	5.89
513.547	5.9
513.744	6
513.94	6.05
514.137	6.12
514.334	6.12
514.53	6.13
514.727	6.4
514.924	6.21
515.12	6.18
515.317	6.25
515.514	6.17
515.71	6.2
515.907	6.46
516.103	6.37
516.3	6.31
516.497	6.45
516.693	6.42
516.89	6.43
517.086	6.46
517.283	6.47
517.479	6.41
517.676	6.6
517.872	6.6
518.068	6.54
518.265	6.62
518.461	6.55
518.658	6.7
518.854	6.66
519.05	6.77
519.247	6.75
519.443	6.7
519.639	6.87
519.836	6.75
520.032	6.74
520.228	6.85
520.424	6.81
520.621	6.91
520.817	6.97
521.013	6.83
521.209	7.08
521.405	7.02
521.601	7
521.798	6.98
521.994	7.03
522.19	6.95
522.386	7
522.582	7.05
522.778	7.21
522.974	7.09
523.17	7.09
523.366	7.07
523.562	7.15
523.758	7.14
523.954	6.93
524.15	7.21
524.346	7.22
524.542	7.27
524.738	7.2
524.934	7.34
525.129	7.3
525.325	7.19
525.521	7.22
525.717	7.48
525.913	7.3
526.109	7.29
526.304	7.43
526.5	7.4
526.696	7.44
526.892	7.33
527.087	7.57
527.283	7.48
527.479	7.47
527.674	7.28
527.87	7.48
528.066	7.5
528.261	7.53
528.457	7.35
528.653	7.55
528.848	7.59
529.044	7.66
529.239	7.48
529.435	7.5
529.63	7.42
529.826	7.47
530.021	7.51
530.217	7.58
530.412	7.54
530.608	7.59
530.803	7.61
530.999	7.52
531.194	7.67
531.389	7.65
531.585	7.65
531.78	7.73
531.975	7.7
532.171	7.7
532.366	7.73
532.561	7.73
532.757	7.71
532.952	7.9
533.147	7.64
533.342	7.78
533.538	7.67
533.733	7.88
533.928	7.54
534.123	7.72
534.318	7.79
534.513	7.67
534.709	7.89
534.904	7.81
535.099	7.86
535.294	7.82
535.489	7.89
535.684	7.8
535.879	7.82
536.074	7.82
536.269	7.88
536.464	7.87
536.659	7.84
536.854	7.85
537.049	7.92
537.244	7.81
537.439	7.88
537.634	7.85
537.828	7.97
538.023	7.9
538.218	7.87
538.413	7.79
538.608	7.91
538.803	7.92
538.997	7.93
539.192	7.87
539.387	7.88
539.582	7.91
539.776	7.83
539.971	7.98
540.166	7.99
540.36	7.92
540.555	8.04
540.75	7.98
540.944	7.97
541.139	7.98
541.334	7.95
541.528	7.91
541.723	8.01
541.917	8.03
542.112	7.89
542.306	7.83
542.501	7.81
542.695	7.97
542.89	7.87
543.084	8.01
543.279	8.02
543.473	8.01
543.668	8.06
543.862	7.89
544.056	7.86
544.251	8.07
544.445	8.07
544.64	8.14
544.834	7.78
545.028	7.66
545.222	8.03
545.417	8.2
545.611	8.14
545.805	8.05
546	7.84
546.194	8.02
546.388	8.09
546.582	7.93
546.776	7.94
546.97	8.02
547.165	7.98
547.359	7.97
547.553	8
547.747	8.01
547.941	8.21
548.135	8.04
548.329	8.1
548.523	8.07
548.717	8.06
548.911	8.02
549.105	8
549.299	8.05
549.493	8.07
549.687	7.99
549.881	8.12
550.075	8.1
550.269	7.97
550.463	8.12
550.657	8.12
550.85	8.04
551.044	8.02
551.238	8.11
551.432	8.02
551.626	8.16
551.82	8.03
552.013	7.99
552.207	8.17
552.401	8.15
552.594	8.07
552.788	8
552.982	8.01
553.176	8.01
553.369	8.23
553.563	8.15
553.756	8.04
553.95	8.1
554.144	8.1
554.337	8.11
554.531	7.92
554.724	8.1
554.918	8.18
555.111	7.99
555.305	8.08
555.498	8
555.692	8.18
555.885	8.08
556.079	8.02
556.272	8.04
556.466	8.06
556.659	8
556.852	8.13
557.046	8.04
557.239	7.98
557.432	8.08
557.626	8.14
557.819	8.22
558.012	8.12
558.206	8.13
558.399	8.09
558.592	8.05
558.785	8.06
558.979	8.02
559.172	8.04
559.365	8.05
559.558	8.02
559.751	8.03
559.944	8.18
560.138	8.05
560.331	8.13
560.524	8.16
560.717	8.1
560.91	8.1
561.103	8.1
561.296	7.97
561.489	8.15
561.682	8.17
561.875	8.08
562.068	8.23
562.261	8
562.454	8.21
562.647	8.03
562.84	8.08
563.032	8.14
563.225	8.02
563.418	8.06
563.611	8.1
563.804	8.1
563.997	7.97
564.19	7.84
564.382	8.17
564.575	8.06
564.768	8.08
564.961	8.14
565.153	7.99
565.346	7.95
565.539	8.14
565.731	8.12
565.924	8.18
566.117	8.22
566.309	8.11
566.502	7.99
566.695	8.02
566.887	8.06
567.08	8.02
567.272	8.09
567.465	7.98
567.657	8.11
567.85	7.94
568.042	8.05
568.235	8.11
568.427	7.96
568.62	8.03
568.812	7.95
569.005	8.14
569.197	7.94
569.389	8.02
569.582	8.05
569.774	8.01
569.966	7.96
570.159	7.97
570.351	7.95
570.543	7.99
570.736	8.03
570.928	7.86
571.12	7.95
571.312	7.98
571.505	7.77
571.697	7.98
571.889	7.99
572.081	8.03
572.273	7.85
572.465	8.02
572.658	8
572.85	7.95
573.042	7.96
573.234	7.89
573.426	7.84
573.618	7.89
573.81	7.97
574.002	7.91
574.194	7.94
574.386	7.97
574.578	7.81
574.77	7.89
574.962	7.93
575.154	7.78
575.346	7.86
575.538	7.82
575.729	7.78
575.921	7.91
576.113	7.98
576.305	7.89
576.497	7.97
576.689	7.83
576.88	7.73
577.072	7.97
577.264	7.88
577.456	7.8
577.647	7.83
577.839	8.02
578.031	7.75
578.223	7.79
578.414	7.72
578.606	7.83
578.798	7.89
578.989	7.75
579.181	7.89
579.372	7.77
579.564	7.85
579.755	7.79
579.947	7.69
580.139	7.77
580.33	7.63
580.522	7.8
580.713	7.71
580.905	7.76
581.096	7.81
581.287	7.68
581.479	7.67
581.67	7.8
581.862	7.65
582.053	7.65
582.244	7.59
582.436	7.76
582.627	7.65
582.818	7.57
583.01	7.58
583.201	7.64
583.392	7.59
583.583	7.63
583.775	7.49
583.966	7.52
584.157	7.58
584.348	7.69
584.54	7.61
584.731	7.56
584.922	7.5
585.113	7.47
585.304	7.56
585.495	7.53
585.686	7.62
585.877	7.6
586.068	7.61
586.259	7.55
586.45	7.43
586.641	7.51
586.832	7.55
587.023	7.49
587.214	7.41
587.405	7.51
587.596	7.41
587.787	7.3
587.978	7.4
588.169	7.32
588.36	7.41
588.551	7.39
588.742	7.39
588.932	7.35
589.123	7.31
589.314	7.45
589.505	7.27
589.696	7.37
589.886	7.32
590.077	7.22
590.268	7.27
590.458	7.26
590.649	7.15
590.84	7.25
591.03	7.28
591.221	7.3
591.412	7.1
591.602	7.3
591.793	7.17
591.984	7.27
592.174	7.23
592.365	7.32
592.555	7.08
592.746	7.13
592.936	7.13
593.127	7.1
593.317	7.17
593.508	7.19
593.698	7.02
593.889	7.02
594.079	7.05
594.269	7.02
594.46	7.07
594.65	7
594.84	6.92
595.031	6.91
595.221	7
595.411	7.04
595.602	6.97
595.792	6.89
595.982	6.91
596.172	7.03
596.363	6.93
596.553	6.92
596.743	6.99
596.933	6.9
597.123	6.87
597.314	6.69
597.504	6.75
597.694	6.83
597.884	6.8
598.074	6.82
598.264	6.84
598.454	6.76
598.644	6.77
598.834	6.78
599.024	6.66
599.214	6.65
599.404	6.76
599.594	6.69
599.784	6.68
599.974	6.69
600.164	6.63
600.354	6.61
600.544	6.57
600.734	6.62
600.924	6.53
601.114	6.47
601.303	6.51
601.493	6.56
601.683	6.58
601.873	6.5
602.063	6.44
602.252	6.48
602.442	6.39
602.632	6.45
602.821	6.35
603.011	6.41
603.201	6.42
603.39	6.39
603.58	6.31
603.77	6.41
603.959	6.41
604.149	6.31
604.339	6.34
604.528	6.39
604.718	6.35
604.907	6.32
605.097	6.22
605.286	6.26
605.476	6.18
605.665	6.23
605.855	6.21
606.044	6.28
606.234	6.28
606.423	6.14
606.612	6.22
606.802	6.12
606.991	6.2
607.181	6.16
607.37	6.17
607.559	5.91
607.749	6.07
607.938	6.02
608.127	6.05
608.316	6.03
608.506	5.93
608.695	6.11
608.884	5.93
609.073	5.94
609.263	6.04
609.452	6.03
609.641	5.84
609.83	5.8
610.019	5.88
610.208	5.8
610.397	5.86
610.586	5.83
610.775	5.77
610.965	5.83
611.154	5.65
611.343	5.74
611.532	5.66
611.721	5.76
611.91	5.7
612.099	5.73
612.287	5.6
612.476	5.57
612.665	5.73
612.854	5.58
613.043	5.58
613.232	5.61
613.421	5.55
613.61	5.59
613.798	5.59
613.987	5.55
614.176	5.52
614.365	5.52
614.554	5.51
614.742	5.54
614.931	5.39
615.12	5.48
615.309	5.44
615.497	5.36
615.686	5.34
615.875	5.43
616.063	5.31
616.252	5.25
616.44	5.39
616.629	5.26
616.818	5.19
617.006	5.27
617.195	5.23
617.383	5.22
617.572	5.18
617.76	5.14
617.949	5.2
618.137	5.27
618.326	5.2
618.514	4.99
618.703	4.98
618.891	5.18
619.079	5
619.268	5.1
619.456	5.02
619.644	5.11
619.833	4.99
620.021	4.99
620.209	4.92
620.398	4.97
620.586	4.84
620.774	4.96
620.962	4.98
621.151	4.96
621.339	4.87
621.527	4.84
621.715	4.82
621.903	4.86
622.092	4.83
622.28	4.86
622.468	4.68
622.656	4.79
622.844	4.78
623.032	4.82
623.22	4.65
623.408	4.76
623.596	4.66
623.784	4.77
623.972	4.66
624.16	4.72
624.348	4.66
624.536	4.71
624.724	4.58
624.912	4.62
625.1	4.59
625.288	4.64
625.476	4.48
625.664	4.61
625.851	4.48
626.039	4.57
626.227	4.53
626.415	4.53
626.603	4.44
626.79	4.41
626.978	4.48
627.166	4.43
627.354	4.34
627.541	4.38
627.729	4.25
627.917	4.43
628.104	4.39
628.292	4.27
628.48	4.34
628.667	4.26
628.855	4.35
629.042	4.35
629.23	4.23
629.418	4.23
629.605	4.26
629.793	4.2
629.98	4.26
630.168	4.07
630.355	4.16
630.543	4.08
630.73	4.08
630.917	4.14
631.105	4.24
631.292	4.11
631.48	4.08
631.667	4.1
631.854	4.05
632.042	4.02
632.229	3.95
632.416	4.03
632.604	4.02
632.791	3.83
632.978	4
633.165	3.9
633.353	3.98
633.54	4.04
633.727	3.83
633.914	3.85
634.101	3.77
634.289	3.95
634.476	3.83
634.663	3.8
634.85	3.85
635.037	3.77
635.224	3.74
635.411	3.78
635.598	3.7
635.785	3.76
635.972	3.66
636.159	3.66
636.346	3.68
636.533	3.59
636.72	3.62
636.907	3.6
637.094	3.59
637.281	3.49
637.468	3.61
637.655	3.57
637.842	3.55
638.029	3.59
638.215	3.57
638.402	3.54
638.589	3.52
638.776	3.49
638.963	3.46
639.149	3.46
639.336	3.58
639.523	3.47
639.709	3.43
639.896	3.43
640.083	3.4
640.27	3.49
640.456	3.37
640.643	3.4
640.829	3.25
641.016	3.31
641.203	3.26
641.389	3.3
641.576	3.25
641.762	3.28
641.949	3.24
642.135	3.27
642.322	3.21
642.508	3.24
642.695	3.28
642.881	3.15
643.068	3.11
643.254	3.18
643.441	3.17
643.627	3.22
643.813	3.03
644	3.16
644.186	3.05
644.372	3.08
644.559	3.11
644.745	3.08
644.931	3.04
645.118	3.08
645.304	3.02
645.49	3.04
645.676	2.99
645.862	2.96
646.049	3.03
646.235	2.97
646.421	3.11
646.607	3.07
646.793	3
646.979	2.87
647.165	2.96
647.352	2.92
647.538	2.94
647.724	2.87
647.91	2.82
648.096	2.84
648.282	2.9
648.468	2.87
648.654	2.84
648.84	2.85
649.026	2.86
649.212	2.79
649.397	2.72
649.583	2.74
649.769	2.82
649.955	2.75
650.141	2.82
650.327	2.8
650.513	2.74
650.698	2.74
650.884	2.62
651.07	2.74
651.256	2.66
651.442	2.71
651.627	2.64
651.813	2.66
651.999	2.63
652.184	2.66
652.37	2.64
652.556	2.62
652.741	2.67
652.927	2.47
653.113	2.59
653.298	2.55
653.484	2.58
653.669	2.5
653.855	2.57
654.04	2.49
654.226	2.55
654.412	2.5
654.597	2.45
654.782	2.49
654.968	2.55
655.153	2.49
655.339	2.47
655.524	2.44
655.71	2.43
655.895	2.47
656.08	2.46
656.266	2.48
656.451	2.42
656.636	2.33
656.822	2.44
657.007	2.41
657.192	2.4
657.378	2.39
657.563	2.34
657.748	2.34
657.933	2.34
658.118	2.27
658.304	2.3
658.489	2.4
658.674	2.33
658.859	2.28
659.044	2.28
659.229	2.35
659.414	2.27
659.599	2.31
659.785	2.22
659.97	2.24
660.155	2.3
660.34	2.27
660.525	2.23
660.71	2.26
660.895	2.2
661.08	2.18
661.264	2.16
661.449	2.21
661.634	2.14
661.819	2.21
662.004	2.12
662.189	2.08
662.374	2.04
662.559	2.1
662.743	2.03
662.928	2.09
663.113	1.99
663.298	2.04
663.483	2.04
663.667	2.03
663.852	2
664.037	2.04
664.221	2.03
664.406	2.03
664.591	2.05
664.775	2.01
664.96	1.93
665.145	1.87
665.329	1.93
665.514	1.94
665.698	1.9
665.883	1.87
666.068	1.91
666.252	1.91
666.437	1.86
666.621	1.89
666.806	1.8
666.99	1.84
667.174	1.81
667.359	1.84
667.543	1.81
667.728	1.8
667.912	1.75
668.096	1.77
668.281	1.71
668.465	1.82
668.649	1.75
668.834	1.71
669.018	1.72
669.202	1.77
669.387	1.68
669.571	1.79
669.755	1.6
669.939	1.69
670.124	1.69
670.308	1.71
670.492	1.67
670.676	1.68
670.86	1.63
671.044	1.61
671.228	1.65
671.413	1.64
671.597	1.61
671.781	1.6
671.965	1.62
672.149	1.6
672.333	1.6
672.517	1.54
672.701	1.56
672.885	1.55
673.069	1.47
673.253	1.58
673.437	1.52
673.621	1.52
673.804	1.56
673.988	1.54
674.172	1.5
674.356	1.43
674.54	1.49
674.724	1.55
674.908	1.51
675.091	1.51
675.275	1.42
675.459	1.53
675.643	1.52
675.826	1.47
676.01	1.47
676.194	1.44
676.377	1.44
676.561	1.5
676.745	1.41
676.928	1.44
677.112	1.45
677.296	1.38
677.479	1.35
677.663	1.39
677.846	1.4
678.03	1.4
678.213	1.39
678.397	1.43
678.58	1.35
678.764	1.36
678.947	1.33
679.131	1.33
679.314	1.35
679.498	1.34
679.681	1.35
679.865	1.36
680.048	1.33
680.231	1.31
680.415	1.29
680.598	1.29
680.781	1.28
680.965	1.3
681.148	1.35
681.331	1.26
681.514	1.28
681.698	1.28
681.881	1.26
682.064	1.22
682.247	1.23
682.43	1.21
682.614	1.26
682.797	1.27
682.98	1.22
683.163	1.23
683.346	1.27
683.529	1.18
683.712	1.16
683.895	1.21
684.078	1.09
684.261	1.16
684.444	1.23
684.627	1.21
684.81	1.13
684.993	1.18
685.176	1.2
685.359	1.16
685.542	1.12
685.725	1.22
685.908	1.17
686.091	1.12
686.274	1.2
686.457	1.16
686.639	1.14
686.822	1.18
687.005	1.1
687.188	1.15
687.371	1.14
687.553	1.19
687.736	1.11
687.919	1.22
688.102	1.11
688.284	1.07
688.467	1.04
688.65	1.06
688.832	1.03
689.015	1.11
689.197	0.99
689.38	1.17
689.563	1.08
689.745	1.02
689.928	1.01
690.11	0.99
690.293	1.06
690.475	0.91
690.658	1.08
690.84	1.01
691.023	0.95
691.205	1.01
691.388	1.03
691.57	1.04
691.752	1.04
691.935	0.88
692.117	0.93
692.3	0.95
692.482	0.92
692.664	0.92
692.847	0.96
693.029	0.97
693.211	0.99
693.393	0.88
693.576	0.94
693.758	0.96
693.94	0.98
694.122	0.94
694.304	0.91
694.487	0.93
694.669	0.93
694.851	0.88
695.033	1.01
695.215	0.88
695.397	0.9
695.579	0.99
695.761	0.81
695.943	0.8
696.125	0.95
696.308	0.89
696.49	0.79
696.671	0.95
696.853	0.88
697.035	1.05
697.217	0.84
697.399	0.91
697.581	0.79
697.763	0.83
697.945	0.79
698.127	0.84
698.309	0.94
698.491	0.86
698.672	0.9
698.854	0.86
699.036	0.88
699.218	0.83
699.399	0.9
699.581	0.8
699.763	0.81
699.945	0.75
700.126	0.78
700.308	0.85
700.49	0.77
700.671	0.73
700.853	0.71
701.035	0.79
701.216	0.77
701.398	0.77
701.579	0.85
701.761	0.83
701.943	0.68
702.124	0.7
702.306	0.73
702.487	0.9
702.669	0.8
702.85	0.75
703.031	0.64
703.213	0.89
703.394	0.82
703.576	0.76
703.757	0.84
703.938	0.87
704.12	0.95
704.301	0.77
704.483	0.71
704.664	0.77
704.845	0.82
705.026	0.77
705.208	0.72
705.389	0.74
705.57	0.77
705.751	0.7
705.933	0.74
706.114	0.81
706.295	0.75
706.476	0.7
706.657	0.84
706.838	0.78
707.02	0.8
707.201	0.71
707.382	0.7
707.563	0.78
707.744	0.74
707.925	0.64
708.106	0.62
708.287	0.68
708.468	0.8
708.649	0.66
708.83	0.75
709.011	0.68
709.192	0.73
709.373	0.7
709.554	0.7
709.734	0.76
709.915	0.7
710.096	0.62
710.277	0.57
710.458	0.68
710.639	0.68
710.819	0.61
711	0.61
711.181	0.72
711.362	0.64
711.542	0.66
711.723	0.67
711.904	0.71
712.085	0.67
712.265	0.68
712.446	0.52
712.627	0.7
712.807	0.64
712.988	0.59
713.168	0.63
713.349	0.7
713.53	0.5
713.71	0.58
713.891	0.53
714.071	0.64
714.252	0.54
714.432	0.6
714.613	0.51
714.793	0.64
714.974	0.71
715.154	0.71
715.334	0.68
715.515	0.63
715.695	0.46
715.876	0.63
716.056	0.63
716.236	0.64
716.417	0.64
716.597	0.56
716.777	0.81
716.957	0.61
717.138	0.62
717.318	0.61
717.498	0.57
717.678	0.63
717.859	0.61
718.039	0.54
718.219	0.65
718.399	0.64
718.579	0.57
718.759	0.5
718.939	0.6
719.12	0.57
719.3	0.57
719.48	0.42
719.66	0.41
719.84	0.64
720.02	0.63
720.2	0.47
720.38	0.58
720.56	0.67
720.74	0.53
720.92	0.59
721.1	0.64
721.279	0.67
721.459	0.57
721.639	0.49
721.819	0.57
721.999	0.63
722.179	0.58
722.359	0.55
722.538	0.64
722.718	0.63
722.898	0.55
723.078	0.51
723.257	0.55
723.437	0.67
723.617	0.61
723.797	0.59
723.976	0.61
724.156	0.62
724.336	0.64
724.515	0.75
724.695	0.45
724.874	0.52
725.054	0.65
725.234	0.48
725.413	0.64
725.593	0.54
725.772	0.55
725.952	0.54
726.131	0.53
726.311	0.61
726.49	0.58
726.67	0.51
726.849	0.48
727.028	0.59
727.208	0.47
727.387	0.53
727.567	0.55
727.746	0.53
727.925	0.54
728.105	0.44
728.284	0.53
728.463	0.51
728.643	0.61
728.822	0.49
729.001	0.48
729.18	0.61
729.359	0.69
729.539	0.47
729.718	0.51
729.897	0.54
730.076	0.52
730.255	0.54
730.434	0.56
730.614	0.62
730.793	0.55
730.972	0.47
731.151	0.58
731.33	0.65
731.509	0.58
731.688	0.57
731.867	0.57
732.046	0.47
732.225	0.74
732.404	0.47
732.583	0.41
732.762	0.68
732.941	0.57
733.12	0.52
733.298	0.63
733.477	0.54
733.656	0.51
733.835	0.57
734.014	0.58
734.193	0.49
734.371	0.56
734.55	0.64
734.729	0.46
734.908	0.6
735.086	0.57
735.265	0.61
735.444	0.45
735.623	0.51
735.801	0.44
735.98	0.56
736.159	0.58
736.337	0.69
736.516	0.56
736.694	0.58
736.873	0.52
737.052	0.7
737.23	0.6
737.409	0.48
737.587	0.66
737.766	0.51
737.944	0.44
738.123	0.68
738.301	0.64
738.479	0.61
738.658	0.65
738.836	0.4
739.015	0.63
739.193	0.56
739.371	0.47
739.55	0.48
739.728	0.46
739.906	0.67
740.085	0.69
740.263	0.58
740.441	0.43
740.62	0.73
740.798	0.62
740.976	0.42
741.154	0.48
741.332	0.62
741.511	0.49
741.689	0.58
741.867	0.61
742.045	0.37
742.223	0.55
742.401	0.47
742.579	0.32
742.757	0.53
742.935	0.41
743.114	0.48
743.292	0.38
743.47	0.48
743.648	0.57
743.826	0.43
744.004	0.57
744.181	0.56
744.359	0.38
744.537	0.45
744.715	0.44
744.893	0.51
745.071	0.46
745.249	0.33
745.427	0.49
745.605	0.48
745.782	0.43
745.96	0.53
746.138	0.48
746.316	0.46
746.493	0.43
746.671	0.41
746.849	0.44
747.027	0.55
747.204	0.31
747.382	0.57
747.56	0.39
747.737	0.32
747.915	0.41
748.093	0.45
748.27	0.4
748.448	0.38
748.625	0.37
748.803	0.33
748.98	0.46
749.158	0.29
749.335	0.48
749.513	0.47
749.69	0.46
749.868	0.3
750.045	0.45
750.223	0.32
750.4	0.26
750.578	0.52
750.755	0.4
750.932	0.2
751.11	0.49
751.287	0.23
751.464	0.53
751.642	0.34
751.819	0.42
751.996	0.36
752.173	0.31
752.351	0.24
752.528	0.28
752.705	0.42
752.882	0.38
753.06	0.28
753.237	0.44
753.414	0.49
753.591	0.53
753.768	0.35
753.945	0.35
754.122	0.48
754.299	0.54
754.476	0.34
754.654	0.34
754.831	0.46
755.008	0.38
755.185	0.32
755.362	0.31
755.539	0.46
755.716	0.41
755.892	0.38
756.069	0.37
756.246	0.34
756.423	0.27
756.6	0.52
756.777	0.31
756.954	0.43
757.131	0.45
757.307	0.34
757.484	0.25
757.661	0.26
757.838	0.31
758.015	0.25
758.191	0.44
758.368	0.48
758.545	0.49
758.721	0.43
758.898	0.2
759.075	0.44
759.251	0.43
759.428	0.42
759.605	0.29
759.781	0.36
759.958	0.33
760.134	0.36
760.311	0.36
760.488	0.55
760.664	0.42
760.841	0.4
761.017	0.36
761.194	0.47
761.37	0.41
761.547	0.33
761.723	0.38
761.899	0.54
762.076	0.28
762.252	0.3
762.429	0.27
762.605	0.39
762.781	0.31
762.958	0.45
763.134	0.37
763.31	0.3
763.486	0.5
763.663	0.21
763.839	0.38
764.015	0.14
764.191	0.24
764.368	0.27
764.544	0.28
764.72	0.45
764.896	0.46
765.072	0.3
765.248	0.29
765.425	0.26
765.601	0.4
765.777	0.39
765.953	0.25
766.129	0.43
766.305	0.35
766.481	0.51
766.657	0.4
766.833	0.54
767.009	0.2
767.185	0.18
767.361	0.32
767.537	0.23
767.713	0.46
767.889	0.31
768.065	0.39
768.24	0.33
768.416	0.35
768.592	0.1
768.768	0.31
768.944	0.35
769.12	0.18
769.295	0.35
769.471	0.3
769.647	0.32
769.823	0.57
769.998	0.32
770.174	0.23
770.35	0.42
770.525	0.58
770.701	0.39
770.877	0.35
771.052	0.34
771.228	0.37
771.403	0.39
771.579	0.5
771.755	0.63
771.93	0.33
772.106	0.19
772.281	0.21
772.457	0.41
772.632	0.28
772.808	0.21
772.983	0.29
773.159	0.24
773.334	0.5
773.509	0.39
773.685	0.32
773.86	0.54
774.036	0.54
774.211	0.28
774.386	0.25
774.562	0.36
774.737	0.3
774.912	0.14
775.087	0.33
775.263	0.34
775.438	0.28
775.613	0.49
775.788	0.31
775.964	0.53
776.139	0.54
776.314	0.11
776.489	0.39
776.664	0.53
776.839	0.26
777.014	0.56
777.19	0.56
777.365	0.42
777.54	0.51
777.715	0.33
777.89	0.45
778.065	0.24
778.24	0.29
778.415	0.39
778.59	0.24
778.765	0.29
778.94	0.35
779.115	0.36
779.289	0.39
779.464	0.4
779.639	0.29
779.814	0.25
779.989	0.14
780.164	0.56
780.339	0.44
780.513	0.31
780.688	0.21
780.863	0.37
781.038	0.46
781.212	0.28
781.387	0.36
781.562	0.67
781.737	0.5
781.911	0.67
782.086	0.28
782.261	0.41
782.435	0.59
782.61	0.27
782.784	0.29
782.959	0.59
783.134	0.29
783.308	0.17
783.483	0.48
783.657	0.65
783.832	0.62
784.006	0.04
784.181	0.65
784.355	0.6
784.53	0.37
784.704	0.24
784.878	0.58
785.053	0.57
785.227	0.71
785.402	0.84
785.576	0.25
785.75	0.36
785.925	0.39
786.099	0.32
786.273	0.37
786.448	0.51
786.622	0.47
786.796	0.43
786.97	0.44
787.145	0.94
787.319	0.21
787.493	0.38
787.667	0.28
787.841	0.51
788.015	0.57
788.19	0.36
788.364	0.52
788.538	0.46
788.712	0.63
788.886	0.26
789.06	0.59
789.234	0.58
789.408	0.19
789.582	0.34
789.756	0.42
789.93	0.34
790.104	0.41
790.278	0.3
790.452	0.17
790.626	0.46
790.8	0.4
790.973	0.42
791.147	0.61
791.321	0.36
791.495	0.63
791.669	0.44
791.843	0.49
792.016	0.57
792.19	0.56
792.364	0.28
792.538	0.64
792.711	0.78
792.885	0.25
793.059	0.1
793.233	0.01
793.406	0.59
793.58	0.36
793.754	0.24
793.927	0.39
794.101	0.48
794.274	0.49
794.448	0.72
794.622	0.32
794.795	0.74
794.969	0.28
795.142	0.69
795.316	0.37
795.489	0.22
795.663	0.74
795.836	0.42
796.009	0.3
796.183	0.68
796.356	0.56
796.53	0.35
796.703	0.55
796.876	0.88
797.05	0.32
797.223	0.41
797.396	0.62
797.57	0.7
797.743	0.76
797.916	0.38
798.09	0.6
798.263	0.68
798.436	0.85
798.609	0.29
798.782	0.58
798.956	0.49
799.129	0.41
799.302	0.44
799.475	0.14
799.648	0.32
799.821	0.32
799.994	0.56
800.167	0.1
800.34	0.67
800.514	0.24
800.687	0.5
800.86	0.4
801.033	0.46
801.206	0.54
801.379	0.06
801.551	0.68
801.724	0.48
801.897	0.95
802.07	0.61
802.243	0.04
802.416	0.87
802.589	0.22
802.762	0.71
802.935	0.39
803.107	0.8
803.28	0.78
803.453	0.82
803.626	0.1
803.798	0.42
803.971	0.41
804.144	0.69
804.317	0.33
804.489	0.74
804.662	0.47
804.835	0.56
805.007	0.28
805.18	1.03
805.353	0.57
805.525	0.39
805.698	0.42
805.87	0.86
806.043	0.7
806.215	0.26
806.388	0.38
806.56	0.4
806.733	0.78
806.905	0.53
807.078	0.63
807.25	0.34
807.423	0.65
807.595	0.23
807.768	0.69
807.94	0.71
808.112	0.73
808.285	1.01
808.457	0.9
808.629	0.21
808.802	0.69
808.974	0.63
809.146	0.99
809.318	0.18
809.491	0.65
809.663	0.91
809.835	0.54
810.007	0.87
810.18	0.55
810.352	0.31
810.524	0.41
810.696	0.72
810.868	0.56
811.04	0.81
811.212	0.24
811.384	0.72
811.556	0.51
811.728	0.33
811.901	1
812.073	0.19
812.245	0.75
812.417	0.47
812.589	-0.03
812.76	0.6
812.932	0.55
813.104	0.69
813.276	0.44
813.448	0.78
813.62	0.38
813.792	0.73
813.964	0.67
814.136	0.79
814.307	0.4
814.479	0.25
814.651	0.87
814.823	1.2
814.995	0.24
815.166	0.77
815.338	0.23
815.51	-0.17
815.681	1.22
815.853	0.43
816.025	0.8
816.196	1.25
816.368	0.72
816.54	0.4
816.711	0.33
816.883	0.28
817.054	1.64
817.226	-0.12
817.398	0.96
817.569	0.21
817.741	0.75
817.912	0.62
818.084	0.47
818.255	0.69
818.426	0.22
818.598	0.55
818.769	0.21
818.941	0.92
819.112	0.94
819.283	0.24
819.455	0.12
819.626	0.65
819.798	0.66
819.969	0.47
820.14	0.75
820.311	0.3
820.483	0.55
820.654	0.71
820.825	0.41
820.996	0.62
821.168	-0.01
821.339	0.78
821.51	0.35
821.681	-0.12
821.852	0.54
822.023	0.2
822.195	-0.02
822.366	0.68
822.537	0.87
822.708	0.79
822.879	0.68
823.05	1.4
823.221	0.62
823.392	0.81
823.563	0.65
823.734	0.67
823.905	0.55
824.076	0.78
824.247	0.66
824.418	0.27
824.589	1.25
824.759	0.63
824.93	0.53
825.101	0.76
825.272	1.49
825.443	1.55
825.614	1.17
825.784	-0.32
825.955	0.88
826.126	1.46
826.297	1.1
826.467	1.76
826.638	1.21
826.809	0.37
826.98	0.82
827.15	0.94
827.321	0.67
827.492	1.07
827.662	0.05
827.833	1.36
828.003	1.18
828.174	0.53
828.345	0.46
828.515	1.09
828.686	0.6
828.856	0.64
829.027	0.69
829.197	0.48
829.368	0.73
829.538	0.43
829.709	0.4
829.879	1.08
830.049	0.93
830.22	0.84
830.39	0.58
830.56	0.86
830.731	1.08
830.901	0.2
831.072	0.98
831.242	0.73
831.412	0.73
831.582	0.59
831.753	0.23
831.923	1.01
832.093	0.66
832.263	0.36
832.434	0.17
832.604	0.68
832.774	0.8
832.944	0.87
833.114	0.9
833.284	0.55
833.454	0.1
833.624	0.17
833.795	0.58
833.965	1.37
834.135	1.52
834.305	0.19
834.475	0.35
834.645	0.51
834.815	0.61
834.985	-0.08
835.155	0.49
835.325	1.01
835.494	1.08
835.664	-0.07
835.834	-0.05
836.004	0.83
836.174	0.46
836.344	1.11
836.514	-0.05
836.684	0.5
836.853	1.23
837.023	1.43
837.193	0.57
837.363	0.91
837.532	2.13
837.702	1.23
837.872	-0.1
838.041	1.19
838.211	1.59
838.381	0.27
838.55	1.1
838.72	2.55
838.89	1.44
839.059	0.8
839.229	0.65
839.398	2.24
839.568	0.02
839.738	0.77
839.907	1.99
840.077	1.29
840.246	0.91
840.416	0.59
840.585	0.79
840.755	1.2
840.924	2.3
841.093	-0.26
841.263	0.37
841.432	0.96
841.602	0.05
841.771	0.78
841.94	1.39
842.11	3.1
842.279	2.06
842.448	0.47
842.617	0.44
842.787	1.35
842.956	0.32
843.125	2.32
843.294	1.56
843.464	1.86
843.633	0.93
843.802	0.18
843.971	1.06
844.14	1.48
844.309	1.46
844.479	0.61
844.648	-0.09
844.817	0.22
844.986	1.48
845.155	0.97
845.324	0.75
845.493	0.54
845.662	0.23
845.831	0.76
846	1.65
846.169	0.93
846.338	2.09
846.507	1.82
846.676	1.43
846.844	-0.45
847.013	1.34
847.182	1.69
847.351	0.97
847.52	0.77
847.689	0.94
847.858	0.71
848.026	0.37
848.195	0.59
848.364	0.79
848.533	0.68
848.701	1.05
848.87	1.14
849.039	1.73
849.207	2.53
849.376	2.11
849.545	1.71
849.713	1.17
849.882	0.78
850.051	1.21
850.219	1.43
850.388	1.7
850.556	0.19
850.725	1.86
850.893	0.49
851.062	1.17
851.23	1.56
851.399	0.38
851.567	0.34
851.736	0.86
851.904	-0.27
852.073	1.65
852.241	1.5
852.41	1.91
852.578	2.23
852.746	0.42
852.915	1.94
853.083	1.07
853.251	0.35
853.42	0.89
853.588	1.58
853.756	2.22
853.924	1.34
854.093	0.92
854.261	0.27
854.429	0.21
854.597	0.55
854.765	0.35
854.934	1.77
855.102	1.8
855.27	0.92
855.438	2.63
855.606	1.74
855.774	1.8
855.942	0.73
856.11	0.12
856.278	1.51
856.446	1.67
856.614	1.86
856.782	-0.13
856.95	2.33
857.118	2.59
857.286	1.52
857.454	0.48
857.622	2.1
857.79	1.56
857.958	0.54
858.126	0.7
858.294	1.52
858.462	1.37
858.629	1.05
858.797	1.16
858.965	1.15
859.133	0.78
859.301	0.16
859.468	1.67
859.636	0.43
859.804	1.91
859.971	2.96
860.139	1.09
860.307	1.72
860.474	1.55
860.642	1.73
860.81	1.09
860.977	1.01
861.145	1.91
861.313	1.57
861.48	0.98
861.648	0.77
861.815	1.53
861.983	0.9
862.15	0.49
862.318	2.64
862.485	1.57
862.653	1.38
862.82	0.51
862.988	2.35
863.155	2.82
863.322	1.21
863.49	0.25
863.657	1.15
863.824	4.08
863.992	1.71
864.159	0.45
864.326	1.85
864.494	0.97
864.661	3.23
864.828	0.3
864.996	2.25
865.163	2.45
865.33	1.23
865.497	-0.75
865.664	1.07
865.832	0.78
865.999	1.06
866.166	-0.02
866.333	1.99
866.5	0.89
866.667	1.84
866.834	0.08
867.001	2.47
867.168	0.34
867.335	1.58
867.502	-0.27
867.669	2.04
867.836	2.88
868.003	1.42
868.17	1.01
868.337	-0.04
868.504	2.48
868.671	1.34
868.838	1.35
869.005	3.36
869.172	2.17
869.339	1.78
869.505	1.32
869.672	1.38
869.839	2.18
870.006	1.93
870.173	-0.86
870.339	1.37
870.506	2.91
870.673	-1.1
870.84	1.75
871.006	1.2
871.173	1.06
871.34	1.21
871.506	1.68
871.673	2.41
871.839	0.53
872.006	0.65
872.173	1.57
872.339	1.51
872.506	3.47
872.672	2.52
872.839	1.69
873.005	2.26
873.172	6.38
873.338	5.21
873.505	1.87
873.671	0.09
873.838	1.16
874.004	0.38
874.171	1.45
874.337	1.5
874.503	1.25
874.67	1.54
874.836	0.98
875.002	3.48
875.169	2.49
875.335	0.46
875.501	0.2
875.668	-0.57
875.834	2.15
876	1.38
876.166	4.62
876.332	2.92
876.499	4.85
876.665	0.92
876.831	2.62
876.997	2.99
877.163	2.84
877.329	1.9
877.495	1.47
877.662	2.92
877.828	1.02
877.994	3.12
878.16	-0.4
878.326	0.69
878.492	0.7
878.658	2.51
878.824	2.83
878.99	3.69
879.156	4.11
879.322	4.04
879.487	2.72
879.653	2.33
879.819	0.51
879.985	1.26
880.151	3.09
880.317	2.37
880.483	1.6
880.648	2.91
880.814	0.01
880.98	2.52
881.146	-0.5
881.312	-0.27
881.477	1.25
881.643	2.1
881.809	4.44
881.974	5.05
882.14	-0.06
882.306	2.06
882.471	5.79
882.637	1.01
882.803	3.06
882.968	3.75
883.134	5.38
883.299	2.74
883.465	1.08
883.63	1.2
883.796	2.56
883.961	2.67
884.127	2.35
884.292	-0.58
884.458	0.42
884.623	0.42
