Data from Apollo_Calib_20240827__AbsoluteIrradiance__856__13-25-02-011.txt Node

Date: Wed Aug 28 13:25:02 BST 2024
User: biology
Spectrometer: FLMT08252
Trigger mode: 0
Integration Time (sec): 5.000000E-1
Scans to average: 5
Electric dark correction enabled: true
Nonlinearity correction enabled: false
Boxcar width: 0
XAxis mode: Wavelengths
Number of Pixels in Spectrum: 3648
>>>>>Begin Spectral Data<<<<<
179.588	-0
179.809	-0
180.03	-0
180.251	-0
180.473	-0
180.694	0
180.915	0
181.136	-0
181.357	0
181.578	0
181.799	0
182.02	-0
182.241	-0
182.462	-0
182.683	0
182.904	-0
183.125	-0
183.346	0
183.567	0
183.788	0
184.009	0
184.23	0
184.451	0
184.672	0
184.892	0
185.113	0
185.334	0
185.555	0
185.776	0
185.996	0
186.217	0
186.438	0
186.659	0
186.879	0
187.1	0
187.321	0
187.541	0
187.762	0
187.983	0
188.203	0
188.424	0
188.644	0
188.865	0
189.086	0
189.306	0
189.527	0
189.747	0
189.968	0
190.188	0
190.409	0
190.629	0
190.849	0
191.07	0
191.29	0
191.511	0
191.731	0
191.951	0
192.172	0
192.392	0
192.612	0
192.833	0
193.053	0
193.273	0
193.493	0
193.714	0
193.934	0
194.154	0
194.374	0
194.594	0
194.815	0
195.035	0
195.255	0
195.475	0
195.695	0
195.915	0
196.135	0
196.355	0
196.575	0
196.795	0
197.015	0
197.235	0
197.455	0
197.675	0
197.895	0
198.115	0
198.335	0
198.555	0
198.775	0
198.995	0
199.214	0
199.434	0
199.654	0
199.874	0
200.094	4.1
200.313	1.55
200.533	1.39
200.753	1.22
200.973	3.71
201.192	2.93
201.412	1.45
201.632	1.6
201.851	2.89
202.071	2.2
202.291	1.44
202.51	1.4
202.73	2.81
202.95	1.25
203.169	0.71
203.389	1.65
203.608	2.08
203.828	1.71
204.047	1.61
204.267	2.25
204.486	2.01
204.706	2.24
204.925	1.6
205.145	1.39
205.364	2.17
205.583	2.71
205.803	1.33
206.022	0.76
206.242	1.52
206.461	1.63
206.68	0.78
206.9	1.29
207.119	2.28
207.338	2.23
207.557	1.33
207.777	1.03
207.996	1.08
208.215	2.06
208.434	0.82
208.654	0.77
208.873	1.17
209.092	2.06
209.311	0.89
209.53	1.11
209.749	0.96
209.968	1.04
210.187	1.23
210.407	0.78
210.626	1.17
210.845	1.69
211.064	1.06
211.283	0.82
211.502	1.6
211.721	1.21
211.94	0.83
212.159	1.36
212.377	1.55
212.596	1.71
212.815	1.16
213.034	1.3
213.253	1.51
213.472	1.07
213.691	0.99
213.91	0.58
214.128	0.71
214.347	1.81
214.566	0.44
214.785	0.37
215.003	1.46
215.222	1.2
215.441	0.81
215.66	0.52
215.878	0.98
216.097	1.27
216.316	0.75
216.534	0.96
216.753	1.06
216.972	1.02
217.19	0.83
217.409	0.55
217.627	0.72
217.846	0.78
218.064	1.04
218.283	0.52
218.501	1.42
218.72	1.35
218.938	0.7
219.157	0.58
219.375	1
219.594	1.01
219.812	0.43
220.031	0.59
220.249	1.2
220.467	1.17
220.686	0.61
220.904	0.28
221.122	0.61
221.341	1.13
221.559	0.68
221.777	0.51
221.995	0.87
222.214	0.95
222.432	0.67
222.65	0.74
222.868	0.8
223.086	0.79
223.305	1
223.523	0.68
223.741	1.19
223.959	0.72
224.177	0.26
224.395	0.34
224.613	0.88
224.831	1.05
225.049	0.4
225.267	0.47
225.485	0.86
225.703	0.63
225.921	0.58
226.139	0.55
226.357	0.78
226.575	0.91
226.793	0.52
227.011	1.61
227.229	0.76
227.447	0.85
227.665	0.41
227.883	0.12
228.1	0.7
228.318	0.81
228.536	0.3
228.754	0.44
228.972	0.71
229.189	0.71
229.407	0.37
229.625	0.54
229.843	0.91
230.06	0.83
230.278	0.53
230.496	0.61
230.713	0.7
230.931	0.89
231.149	0.42
231.366	0.27
231.584	0.55
231.801	0.94
232.019	0.55
232.236	0.32
232.454	0.44
232.671	0.55
232.889	0.41
233.106	0.41
233.324	0.6
233.541	0.48
233.759	0.52
233.976	0.3
234.194	0.5
234.411	0.6
234.628	0.41
234.846	0.41
235.063	0.44
235.28	0.6
235.498	0.48
235.715	0.29
235.932	0.73
236.149	0.51
236.367	0.37
236.584	0.53
236.801	0.36
237.018	0.57
237.236	0.4
237.453	0.25
237.67	0.69
237.887	0.52
238.104	0.42
238.321	0.33
238.538	0.42
238.755	0.65
238.973	0.17
239.19	0.51
239.407	0.7
239.624	0.52
239.841	0.4
240.058	0.37
240.275	0.52
240.492	0.47
240.709	0.41
240.925	0.26
241.142	0.47
241.359	0.37
241.576	0.32
241.793	0.36
242.01	0.47
242.227	0.59
242.444	0.53
242.66	0.53
242.877	0.4
243.094	0.41
243.311	0.41
243.527	0.41
243.744	0.58
243.961	0.46
244.178	0.29
244.394	0.37
244.611	0.57
244.828	0.71
245.044	0.26
245.261	0.43
245.477	0.56
245.694	0.54
245.911	0.36
246.127	0.43
246.344	0.67
246.56	0.49
246.777	0.31
246.993	0.35
247.21	0.44
247.426	0.52
247.643	0.31
247.859	0.33
248.076	0.3
248.292	0.6
248.508	0.34
248.725	0.43
248.941	0.44
249.157	0.54
249.374	0.34
249.59	0.39
249.806	0.39
250.023	0.56
250.239	0.34
250.455	0.32
250.671	0.37
250.888	0.46
251.104	0.47
251.32	0.34
251.536	0.42
251.752	0.38
251.969	0.38
252.185	0.29
252.401	0.62
252.617	0.4
252.833	0.32
253.049	0.38
253.265	0.39
253.481	0.39
253.697	0.29
253.913	0.26
254.129	0.46
254.345	0.41
254.561	0.3
254.777	0.31
254.993	0.5
255.209	0.42
255.425	0.26
255.641	0.33
255.857	0.5
256.073	0.44
256.288	0.28
256.504	0.28
256.72	0.48
256.936	0.48
257.152	0.31
257.367	0.35
257.583	0.32
257.799	0.48
258.015	0.33
258.23	0.24
258.446	0.57
258.662	0.36
258.877	0.28
259.093	0.23
259.309	0.41
259.524	0.43
259.74	0.29
259.955	0.21
260.171	0.39
260.387	0.4
260.602	0.35
260.818	0.39
261.033	0.29
261.249	0.39
261.464	0.3
261.68	0.23
261.895	0.37
262.11	0.42
262.326	0.35
262.541	0.17
262.757	0.49
262.972	0.45
263.187	0.41
263.403	0.45
263.618	0.42
263.833	0.34
264.049	0.26
264.264	0.31
264.479	0.37
264.694	0.49
264.91	0.24
265.125	0.26
265.34	0.44
265.555	0.59
265.77	0.32
265.986	0.3
266.201	0.47
266.416	0.48
266.631	0.35
266.846	0.24
267.061	0.49
267.276	0.44
267.491	0.21
267.706	0.38
267.921	0.42
268.136	0.32
268.351	0.29
268.566	0.23
268.781	0.4
268.996	0.42
269.211	0.34
269.426	0.23
269.641	0.31
269.856	0.42
270.071	0.21
270.285	0.22
270.5	0.48
270.715	0.44
270.93	0.26
271.145	0.28
271.359	0.45
271.574	0.27
271.789	0.33
272.004	0.27
272.218	0.36
272.433	0.39
272.648	0.28
272.862	0.41
273.077	0.32
273.292	0.35
273.506	0.21
273.721	0.32
273.936	0.38
274.15	0.37
274.365	0.25
274.579	0.39
274.794	0.39
275.008	0.46
275.223	0.18
275.437	0.25
275.652	0.42
275.866	0.41
276.081	0.26
276.295	0.43
276.509	0.32
276.724	0.31
276.938	0.3
277.153	0.32
277.367	0.33
277.581	0.29
277.796	0.27
278.01	0.22
278.224	0.39
278.438	0.45
278.653	0.21
278.867	0.21
279.081	0.36
279.295	0.34
279.51	0.33
279.724	0.17
279.938	0.34
280.152	0.35
280.366	0.27
280.58	0.28
280.794	0.41
281.008	0.35
281.222	0.34
281.437	0.49
281.651	0.32
281.865	0.45
282.079	0.29
282.293	0.18
282.507	0.23
282.721	0.25
282.935	0.28
283.148	0.2
283.362	0.23
283.576	0.23
283.79	0.22
284.004	0.25
284.218	0.39
284.432	0.26
284.646	0.31
284.859	0.26
285.073	0.24
285.287	0.3
285.501	0.26
285.714	0.23
285.928	0.31
286.142	0.31
286.356	0.17
286.569	0.23
286.783	0.35
286.997	0.38
287.21	0.3
287.424	0.27
287.637	0.27
287.851	0.23
288.065	0.39
288.278	0.29
288.492	0.34
288.705	0.26
288.919	0.34
289.132	0.18
289.346	0.35
289.559	0.2
289.773	0.2
289.986	0.22
290.2	0.28
290.413	0.33
290.626	0.2
290.84	0.28
291.053	0.28
291.267	0.35
291.48	0.27
291.693	0.25
291.906	0.18
292.12	0.31
292.333	0.23
292.546	0.2
292.76	0.38
292.973	0.3
293.186	0.3
293.399	0.25
293.612	0.28
293.826	0.24
294.039	0.26
294.252	0.22
294.465	0.39
294.678	0.28
294.891	0.23
295.104	0.19
295.317	0.24
295.53	0.27
295.743	0.23
295.956	0.23
296.169	0.37
296.382	0.28
296.595	0.25
296.808	0.23
297.021	0.37
297.234	0.3
297.447	0.25
297.66	0.33
297.873	0.36
298.086	0.34
298.299	0.24
298.511	0.14
298.724	0.27
298.937	0.19
299.15	0.2
299.363	0.22
299.575	0.3
299.788	0.26
300.001	0.21
300.213	0.21
300.426	0.25
300.639	0.18
300.852	0.16
301.064	0.3
301.277	0.36
301.489	0.32
301.702	0.29
301.915	0.21
302.127	0.28
302.34	0.32
302.552	0.29
302.765	0.17
302.977	0.32
303.19	0.2
303.402	0.23
303.615	0.21
303.827	0.24
304.04	0.26
304.252	0.25
304.464	0.24
304.677	0.41
304.889	0.21
305.102	0.23
305.314	0.18
305.526	0.31
305.739	0.28
305.951	0.24
306.163	0.22
306.375	0.33
306.588	0.24
306.8	0.22
307.012	0.17
307.224	0.29
307.436	0.32
307.649	0.16
307.861	0.26
308.073	0.27
308.285	0.2
308.497	0.19
308.709	0.21
308.921	0.21
309.133	0.32
309.346	0.23
309.558	0.25
309.77	0.3
309.982	0.34
310.194	0.27
310.406	0.22
310.617	0.33
310.829	0.29
311.041	0.3
311.253	0.22
311.465	0.25
311.677	0.3
311.889	0.2
312.101	0.22
312.313	0.32
312.524	0.33
312.736	0.2
312.948	0.23
313.16	0.35
313.372	0.29
313.583	0.25
313.795	0.26
314.007	0.24
314.218	0.3
314.43	0.23
314.642	0.22
314.853	0.14
315.065	0.29
315.277	0.25
315.488	0.27
315.7	0.32
315.912	0.29
316.123	0.27
316.335	0.16
316.546	0.39
316.758	0.27
316.969	0.21
317.181	0.21
317.392	0.21
317.604	0.32
317.815	0.22
318.026	0.19
318.238	0.23
318.449	0.27
318.661	0.17
318.872	0.17
319.083	0.2
319.295	0.31
319.506	0.22
319.717	0.21
319.929	0.31
320.14	0.27
320.351	0.24
320.562	0.17
320.774	0.28
320.985	0.25
321.196	0.2
321.407	0.12
321.618	0.32
321.829	0.32
322.041	0.28
322.252	0.27
322.463	0.3
322.674	0.28
322.885	0.18
323.096	0.25
323.307	0.24
323.518	0.24
323.729	0.2
323.94	0.22
324.151	0.26
324.362	0.27
324.573	0.25
324.784	0.22
324.995	0.31
325.206	0.27
325.417	0.24
325.628	0.18
325.838	0.26
326.049	0.32
326.26	0.31
326.471	0.2
326.682	0.25
326.892	0.26
327.103	0.17
327.314	0.17
327.525	0.32
327.735	0.27
327.946	0.24
328.157	0.2
328.368	0.26
328.578	0.25
328.789	0.28
328.999	0.24
329.21	0.19
329.421	0.3
329.631	0.19
329.842	0.21
330.052	0.29
330.263	0.29
330.473	0.29
330.684	0.18
330.894	0.29
331.105	0.23
331.315	0.22
331.526	0.17
331.736	0.35
331.947	0.28
332.157	0.27
332.367	0.18
332.578	0.3
332.788	0.33
332.999	0.34
333.209	0.21
333.419	0.17
333.629	0.28
333.84	0.29
334.05	0.23
334.26	0.32
334.47	0.26
334.681	0.32
334.891	0.2
335.101	0.28
335.311	0.38
335.521	0.2
335.732	0.21
335.942	0.32
336.152	0.31
336.362	0.22
336.572	0.26
336.782	0.3
336.992	0.2
337.202	0.2
337.412	0.24
337.622	0.29
337.832	0.27
338.042	0.25
338.252	0.23
338.462	0.24
338.672	0.25
338.882	0.17
339.092	0.25
339.302	0.35
339.511	0.28
339.721	0.23
339.931	0.19
340.141	0.33
340.351	0.33
340.561	0.23
340.77	0.24
340.98	0.27
341.19	0.25
341.4	0.21
341.609	0.17
341.819	0.23
342.029	0.2
342.238	0.28
342.448	0.21
342.658	0.31
342.867	0.23
343.077	0.25
343.286	0.26
343.496	0.26
343.706	0.29
343.915	0.18
344.125	0.22
344.334	0.27
344.544	0.24
344.753	0.17
344.963	0.23
345.172	0.16
345.381	0.24
345.591	0.19
345.8	0.2
346.01	0.3
346.219	0.31
346.428	0.11
346.638	0.25
346.847	0.27
347.056	0.32
347.266	0.21
347.475	0.23
347.684	0.28
347.893	0.28
348.103	0.27
348.312	0.23
348.521	0.24
348.73	0.26
348.94	0.27
349.149	0.23
349.358	0.26
349.567	0.22
349.776	0.18
349.985	0.21
350.194	0.27
350.403	0.3
350.612	0.16
350.821	0.18
351.03	0.25
351.239	0.19
351.448	0.26
351.657	0.18
351.866	0.38
352.075	0.26
352.284	0.33
352.493	0.18
352.702	0.28
352.911	0.27
353.12	0.25
353.329	0.22
353.538	0.26
353.746	0.23
353.955	0.17
354.164	0.28
354.373	0.22
354.582	0.3
354.79	0.24
354.999	0.27
355.208	0.24
355.416	0.31
355.625	0.17
355.834	0.23
356.042	0.29
356.251	0.25
356.46	0.19
356.668	0.24
356.877	0.4
357.085	0.26
357.294	0.15
357.503	0.23
357.711	0.3
357.92	0.42
358.128	0.23
358.337	0.23
358.545	0.28
358.754	0.2
358.962	0.27
359.17	0.2
359.379	0.25
359.587	0.29
359.796	0.23
360.004	0.3
360.212	0.25
360.421	0.3
360.629	0.22
360.837	0.22
361.046	0.29
361.254	0.45
361.462	0.21
361.67	0.22
361.879	0.3
362.087	0.31
362.295	0.25
362.503	0.21
362.711	0.2
362.92	0.18
363.128	0.25
363.336	0.17
363.544	0.17
363.752	0.24
363.96	0.22
364.168	0.2
364.376	0.25
364.584	0.27
364.792	0.32
365	0.27
365.208	0.23
365.416	0.28
365.624	0.3
365.832	0.18
366.04	0.31
366.248	0.26
366.456	0.25
366.664	0.24
366.872	0.23
367.079	0.23
367.287	0.25
367.495	0.23
367.703	0.25
367.911	0.24
368.118	0.25
368.326	0.23
368.534	0.21
368.742	0.31
368.949	0.18
369.157	0.23
369.365	0.28
369.572	0.21
369.78	0.21
369.988	0.28
370.195	0.27
370.403	0.31
370.61	0.21
370.818	0.26
371.026	0.33
371.233	0.2
371.441	0.23
371.648	0.22
371.856	0.27
372.063	0.28
372.271	0.18
372.478	0.26
372.685	0.23
372.893	0.31
373.1	0.24
373.308	0.23
373.515	0.38
373.722	0.31
373.93	0.23
374.137	0.28
374.344	0.36
374.552	0.32
374.759	0.25
374.966	0.2
375.173	0.24
375.381	0.32
375.588	0.26
375.795	0.2
376.002	0.23
376.209	0.24
376.417	0.21
376.624	0.29
376.831	0.3
377.038	0.22
377.245	0.18
377.452	0.23
377.659	0.23
377.866	0.25
378.073	0.2
378.28	0.26
378.487	0.33
378.694	0.32
378.901	0.22
379.108	0.22
379.315	0.32
379.522	0.39
379.729	0.27
379.936	0.21
380.143	0.26
380.35	0.27
380.557	0.25
380.763	0.22
380.97	0.26
381.177	0.29
381.384	0.27
381.591	0.23
381.797	0.28
382.004	0.34
382.211	0.32
382.418	0.2
382.624	0.3
382.831	0.32
383.038	0.22
383.244	0.31
383.451	0.31
383.658	0.3
383.864	0.27
384.071	0.28
384.277	0.38
384.484	0.27
384.69	0.3
384.897	0.22
385.103	0.29
385.31	0.24
385.516	0.24
385.723	0.2
385.929	0.29
386.136	0.28
386.342	0.3
386.549	0.26
386.755	0.33
386.961	0.31
387.168	0.25
387.374	0.28
387.58	0.32
387.787	0.3
387.993	0.31
388.199	0.22
388.406	0.28
388.612	0.26
388.818	0.23
389.024	0.22
389.231	0.3
389.437	0.36
389.643	0.31
389.849	0.26
390.055	0.33
390.261	0.28
390.467	0.32
390.674	0.25
390.88	0.29
391.086	0.3
391.292	0.22
391.498	0.33
391.704	0.31
391.91	0.28
392.116	0.3
392.322	0.17
392.528	0.33
392.734	0.3
392.94	0.31
393.146	0.25
393.352	0.34
393.557	0.28
393.763	0.31
393.969	0.35
394.175	0.25
394.381	0.35
394.587	0.26
394.792	0.27
394.998	0.34
395.204	0.37
395.41	0.3
395.615	0.31
395.821	0.32
396.027	0.34
396.233	0.28
396.438	0.35
396.644	0.38
396.85	0.33
397.055	0.33
397.261	0.34
397.466	0.45
397.672	0.34
397.878	0.35
398.083	0.3
398.289	0.29
398.494	0.36
398.7	0.35
398.905	0.24
399.111	0.43
399.316	0.24
399.522	0.36
399.727	0.34
399.932	0.34
400.138	0.32
400.343	0.35
400.549	0.32
400.754	0.36
400.959	0.39
401.165	0.34
401.37	0.37
401.575	0.45
401.78	0.37
401.986	0.37
402.191	0.3
402.396	0.36
402.601	0.42
402.807	0.37
403.012	0.36
403.217	0.43
403.422	0.44
403.627	0.42
403.832	0.39
404.037	0.49
404.243	0.44
404.448	0.42
404.653	0.39
404.858	0.45
405.063	0.45
405.268	0.33
405.473	0.38
405.678	0.42
405.883	0.67
406.088	0.52
406.293	0.38
406.498	0.46
406.703	0.5
406.907	0.52
407.112	0.42
407.317	0.52
407.522	0.57
407.727	0.41
407.932	0.5
408.136	0.66
408.341	0.53
408.546	0.58
408.751	0.56
408.956	0.58
409.16	0.61
409.365	0.58
409.57	0.6
409.774	0.61
409.979	0.67
410.184	0.66
410.388	0.63
410.593	0.72
410.798	0.71
411.002	0.68
411.207	0.77
411.411	0.77
411.616	0.76
411.82	0.81
412.025	0.8
412.229	0.79
412.434	0.88
412.638	0.87
412.843	0.91
413.047	0.95
413.252	0.86
413.456	1
413.66	1.03
413.865	1.03
414.069	1.16
414.273	1.03
414.478	1.03
414.682	1.11
414.886	1.14
415.091	1.15
415.295	1.12
415.499	1.39
415.703	1.37
415.908	1.39
416.112	1.24
416.316	1.49
416.52	1.53
416.724	1.46
416.929	1.51
417.133	1.79
417.337	1.61
417.541	1.71
417.745	1.7
417.949	1.88
418.153	1.87
418.357	1.91
418.561	2.17
418.765	2.07
418.969	2.26
419.173	2.27
419.377	2.31
419.581	2.54
419.785	2.48
419.989	2.43
420.193	2.62
420.397	2.76
420.601	2.85
420.804	2.96
421.008	2.88
421.212	3.11
421.416	3.06
421.62	3.15
421.823	3.12
422.027	3.38
422.231	3.33
422.435	3.3
422.638	3.31
422.842	3.52
423.046	3.49
423.249	3.67
423.453	3.7
423.657	3.91
423.86	3.96
424.064	4.03
424.268	4.2
424.471	4.24
424.675	4.47
424.878	4.51
425.082	4.61
425.285	4.94
425.489	4.83
425.692	4.97
425.896	4.93
426.099	5.23
426.303	5.3
426.506	5.38
426.71	5.59
426.913	5.77
427.116	6.02
427.32	6
427.523	6.07
427.726	6.43
427.93	6.35
428.133	6.79
428.336	6.84
428.54	6.99
428.743	7.27
428.946	7.54
429.149	7.6
429.353	7.54
429.556	7.57
429.759	7.65
429.962	7.86
430.165	7.98
430.368	7.6
430.571	7.66
430.775	7.87
430.978	7.72
431.181	7.88
431.384	7.94
431.587	8.03
431.79	8.35
431.993	8.37
432.196	8.58
432.399	8.98
432.602	9.15
432.805	9.26
433.008	9.75
433.211	9.7
433.414	9.97
433.616	9.97
433.819	9.95
434.022	10.17
434.225	10.3
434.428	10.19
434.631	10.73
434.833	10.5
435.036	10.7
435.239	10.97
435.442	11
435.645	11.23
435.847	11.12
436.05	11.55
436.253	11.75
436.455	11.8
436.658	11.75
436.861	12.07
437.063	12.2
437.266	12.08
437.468	12.47
437.671	12.71
437.874	12.87
438.076	12.57
438.279	12.96
438.481	13.15
438.684	13.89
438.886	13.45
439.089	13.8
439.291	13.84
439.494	14.17
439.696	14.32
439.899	14.8
440.101	15.23
440.303	15.45
440.506	16.08
440.708	15.95
440.91	16.02
441.113	16.33
441.315	16.61
441.517	16.39
441.72	16.86
441.922	16.5
442.124	16.25
442.326	16.78
442.529	16.97
442.731	16.82
442.933	17.31
443.135	17.07
443.337	17.15
443.539	17.61
443.742	17.31
443.944	17.95
444.146	17.62
444.348	17.65
444.55	17.57
444.752	17.87
444.954	17.68
445.156	17.73
445.358	17.98
445.56	18.45
445.762	18.36
445.964	18.55
446.166	18.28
446.368	18.32
446.57	18.29
446.772	18.03
446.974	17.63
447.175	18.1
447.377	17.73
447.579	18.19
447.781	17.88
447.983	17.65
448.184	17.21
448.386	17.75
448.588	17.15
448.79	17.17
448.991	17.37
449.193	17.4
449.395	16.83
449.597	16.48
449.798	16.48
450	16.06
450.202	15.95
450.403	15.85
450.605	15.89
450.806	15.52
451.008	15.3
451.21	15.18
451.411	14.79
451.613	13.96
451.814	14.1
452.016	14.23
452.217	13.57
452.419	13.56
452.62	13.2
452.821	12.97
453.023	12.87
453.224	12.5
453.426	11.96
453.627	11.38
453.828	11.35
454.03	11.56
454.231	11.54
454.432	11.43
454.634	11.09
454.835	10.81
455.036	10.72
455.238	10.36
455.439	10.13
455.64	9.79
455.841	9.68
456.042	9.69
456.244	9.36
456.445	9.26
456.646	8.85
456.847	8.85
457.048	8.76
457.249	8.79
457.45	8.54
457.651	8
457.852	7.82
458.054	7.47
458.255	7.48
458.456	7.5
458.657	7.44
458.858	6.98
459.058	6.95
459.259	6.98
459.46	6.67
459.661	6.68
459.862	6.6
460.063	6.47
460.264	6.46
460.465	6.1
460.666	6.21
460.866	6.02
461.067	5.65
461.268	5.68
461.469	5.68
461.67	5.53
461.87	5.4
462.071	5.37
462.272	5.27
462.473	5.26
462.673	5.45
462.874	5.23
463.075	5.28
463.275	5.3
463.476	5.33
463.676	5.25
463.877	5.1
464.078	5.08
464.278	5.14
464.479	4.98
464.679	4.91
464.88	4.77
465.08	4.83
465.281	4.65
465.481	4.47
465.682	4.28
465.882	4.28
466.083	4.25
466.283	4.21
466.483	4.06
466.684	3.92
466.884	3.74
467.085	3.76
467.285	3.83
467.485	3.67
467.686	3.67
467.886	3.48
468.086	3.52
468.286	3.54
468.487	3.56
468.687	3.37
468.887	3.28
469.087	3.53
469.287	3.34
469.488	3.2
469.688	3.34
469.888	3.33
470.088	3.25
470.288	3.16
470.488	3.16
470.688	2.99
470.888	2.94
471.088	2.77
471.288	2.92
471.488	2.92
471.688	2.84
471.888	2.76
472.088	2.9
472.288	2.83
472.488	2.68
472.688	2.66
472.888	2.68
473.088	2.67
473.288	2.6
473.488	2.54
473.688	2.67
473.887	2.56
474.087	2.48
474.287	2.58
474.487	2.49
474.687	2.49
474.886	2.45
475.086	2.34
475.286	2.44
475.486	2.35
475.685	2.34
475.885	2.29
476.085	2.34
476.284	2.32
476.484	2.33
476.684	2.28
476.883	2.39
477.083	2.27
477.282	2.2
477.482	2.25
477.681	2.19
477.881	2.14
478.08	2.13
478.28	2.12
478.479	2.14
478.679	2.24
478.878	2.12
479.078	2.13
479.277	2.15
479.477	2.11
479.676	2.07
479.875	2.05
480.075	1.98
480.274	2.1
480.473	2.11
480.673	2.08
480.872	2.13
481.071	2.11
481.271	2.11
481.47	2.03
481.669	2.09
481.868	2.02
482.067	2.01
482.267	1.98
482.466	1.99
482.665	1.99
482.864	2
483.063	1.96
483.262	2.04
483.461	2.13
483.661	2.13
483.86	2
484.059	2.09
484.258	2.09
484.457	2.07
484.656	2.07
484.855	2.14
485.054	1.96
485.253	2
485.452	1.98
485.651	2.04
485.849	2.07
486.048	2.04
486.247	2.04
486.446	2.14
486.645	2.03
486.844	2.09
487.043	2.05
487.241	2.16
487.44	2.12
487.639	2.14
487.838	2.12
488.037	2.17
488.235	2.23
488.434	2.22
488.633	2.06
488.831	2.26
489.03	2.27
489.229	2.27
489.427	2.2
489.626	2.32
489.825	2.3
490.023	2.3
490.222	2.29
490.42	2.36
490.619	2.4
490.817	2.41
491.016	2.35
491.214	2.45
491.413	2.42
491.611	2.36
491.81	2.47
492.008	2.5
492.207	2.55
492.405	2.54
492.604	2.45
492.802	2.59
493	2.61
493.199	2.67
493.397	2.65
493.595	2.73
493.794	2.67
493.992	2.8
494.19	2.75
494.388	2.82
494.587	2.75
494.785	2.78
494.983	2.75
495.181	2.84
495.379	2.92
495.578	2.94
495.776	2.9
495.974	2.9
496.172	2.95
496.37	3.07
496.568	3.1
496.766	3.06
496.964	3.15
497.162	3.19
497.36	3.21
497.558	3.24
497.756	3.3
497.954	3.32
498.152	3.33
498.35	3.45
498.548	3.34
498.746	3.36
498.944	3.4
499.142	3.43
499.34	3.51
499.538	3.62
499.736	3.52
499.933	3.61
500.131	3.64
500.329	3.79
500.527	3.74
500.725	3.83
500.922	3.87
501.12	3.84
501.318	3.96
501.516	3.92
501.713	3.95
501.911	3.99
502.109	3.91
502.306	4
502.504	3.97
502.701	4.07
502.899	4.13
503.097	4.33
503.294	4.19
503.492	4.32
503.689	4.32
503.887	4.31
504.084	4.44
504.282	4.43
504.479	4.38
504.677	4.54
504.874	4.54
505.072	4.43
505.269	4.63
505.466	4.65
505.664	4.67
505.861	4.63
506.059	4.8
506.256	4.81
506.453	4.8
506.651	4.95
506.848	4.95
507.045	4.92
507.242	4.93
507.44	5.02
507.637	5.1
507.834	5.03
508.031	5.18
508.229	5.07
508.426	5.07
508.623	5.25
508.82	5.33
509.017	5.21
509.214	5.24
509.411	5.36
509.608	5.32
509.805	5.45
510.003	5.45
510.2	5.48
510.397	5.64
510.594	5.49
510.791	5.66
510.988	5.59
511.184	5.6
511.381	5.47
511.578	5.6
511.775	5.74
511.972	5.66
512.169	5.76
512.366	5.78
512.563	5.91
512.76	5.95
512.956	6.03
513.153	5.9
513.35	5.84
513.547	5.85
513.744	6.03
513.94	5.98
514.137	6.12
514.334	6.1
514.53	6.11
514.727	6.35
514.924	6.25
515.12	6.18
515.317	6.2
515.514	6.19
515.71	6.12
515.907	6.38
516.103	6.42
516.3	6.27
516.497	6.42
516.693	6.43
516.89	6.44
517.086	6.49
517.283	6.53
517.479	6.34
517.676	6.58
517.872	6.57
518.068	6.55
518.265	6.6
518.461	6.53
518.658	6.63
518.854	6.65
519.05	6.76
519.247	6.8
519.443	6.69
519.639	6.88
519.836	6.76
520.032	6.7
520.228	6.78
520.424	6.87
520.621	6.9
520.817	6.94
521.013	6.84
521.209	7.05
521.405	7.04
521.601	6.96
521.798	6.92
521.994	7
522.19	6.95
522.386	6.98
522.582	7.09
522.778	7.23
522.974	7.03
523.17	7.07
523.366	7.03
523.562	7.11
523.758	7.15
523.954	7
524.15	7.15
524.346	7.18
524.542	7.24
524.738	7.16
524.934	7.33
525.129	7.28
525.325	7.19
525.521	7.21
525.717	7.42
525.913	7.27
526.109	7.27
526.304	7.43
526.5	7.43
526.696	7.46
526.892	7.3
527.087	7.5
527.283	7.47
527.479	7.47
527.674	7.28
527.87	7.46
528.066	7.42
528.261	7.51
528.457	7.47
528.653	7.61
528.848	7.56
529.044	7.62
529.239	7.45
529.435	7.46
529.63	7.45
529.826	7.53
530.021	7.51
530.217	7.61
530.412	7.58
530.608	7.61
530.803	7.56
530.999	7.46
531.194	7.58
531.389	7.7
531.585	7.65
531.78	7.76
531.975	7.68
532.171	7.75
532.366	7.77
532.561	7.73
532.757	7.7
532.952	7.84
533.147	7.59
533.342	7.76
533.538	7.67
533.733	7.88
533.928	7.56
534.123	7.71
534.318	7.78
534.513	7.7
534.709	7.87
534.904	7.89
535.099	7.84
535.294	7.85
535.489	7.84
535.684	7.75
535.879	7.74
536.074	7.88
536.269	7.87
536.464	7.94
536.659	7.84
536.854	7.86
537.049	7.97
537.244	7.87
537.439	7.94
537.634	7.94
537.828	7.96
538.023	7.94
538.218	7.9
538.413	7.85
538.608	7.91
538.803	7.83
538.997	7.86
539.192	7.94
539.387	7.87
539.582	7.9
539.776	7.87
539.971	7.97
540.166	8.01
540.36	7.86
540.555	8
540.75	7.95
540.944	7.98
541.139	7.98
541.334	7.94
541.528	7.96
541.723	7.97
541.917	8.03
542.112	7.92
542.306	7.84
542.501	7.91
542.695	7.92
542.89	7.86
543.084	7.96
543.279	8.01
543.473	8.03
543.668	8.05
543.862	7.93
544.056	7.92
544.251	8.01
544.445	8.08
544.64	8.11
544.834	7.74
545.028	7.67
545.222	7.96
545.417	8.2
545.611	8.1
545.805	7.97
546	7.85
546.194	8.04
546.388	8.04
546.582	7.97
546.776	7.92
546.97	8.02
547.165	8.03
547.359	7.96
547.553	7.97
547.747	7.94
547.941	8.21
548.135	7.99
548.329	8.01
548.523	8.05
548.717	7.97
548.911	7.97
549.105	7.97
549.299	8.14
549.493	8.04
549.687	7.99
549.881	8.13
550.075	8.04
550.269	7.94
550.463	8.05
550.657	8.07
550.85	8.04
551.044	7.99
551.238	8.14
551.432	8.01
551.626	8.05
551.82	8.17
552.013	7.96
552.207	8.15
552.401	8.14
552.594	8.04
552.788	7.97
552.982	8.04
553.176	7.94
553.369	8.2
553.563	8.08
553.756	8.06
553.95	8.08
554.144	8.21
554.337	8.11
554.531	7.9
554.724	8.15
554.918	8.12
555.111	8.03
555.305	8.08
555.498	8.03
555.692	8.18
555.885	8.13
556.079	8.02
556.272	8.11
556.466	8.06
556.659	8.09
556.852	8.14
557.046	8.03
557.239	7.9
557.432	7.99
557.626	8.13
557.819	8.12
558.012	8.1
558.206	8.2
558.399	8.13
558.592	8.06
558.785	7.96
558.979	8.04
559.172	8.12
559.365	8.04
559.558	7.98
559.751	7.99
559.944	8.18
560.138	8.07
560.331	8.09
560.524	8.08
560.717	8.06
560.91	8.08
561.103	8.07
561.296	7.97
561.489	8.15
561.682	8.18
561.875	8.22
562.068	8.16
562.261	7.99
562.454	8.24
562.647	7.97
562.84	8.14
563.032	8.14
563.225	8.05
563.418	8
563.611	8.16
563.804	8.13
563.997	7.94
564.19	7.87
564.382	8.16
564.575	8.08
564.768	7.97
564.961	8.08
565.153	7.99
565.346	7.95
565.539	8.15
565.731	8.11
565.924	8.14
566.117	8.24
566.309	8.05
566.502	7.99
566.695	8.02
566.887	8.07
567.08	7.99
567.272	8.09
567.465	7.93
567.657	8.08
567.85	7.98
568.042	8.04
568.235	8.1
568.427	7.93
568.62	8.06
568.812	8
569.005	8.13
569.197	7.92
569.389	8.04
569.582	8.04
569.774	8.03
569.966	7.94
570.159	7.93
570.351	7.9
570.543	7.94
570.736	7.98
570.928	7.83
571.12	8.01
571.312	7.87
571.505	7.75
571.697	8.04
571.889	7.96
572.081	8.02
572.273	7.87
572.465	7.93
572.658	7.95
572.85	7.93
573.042	7.98
573.234	7.85
573.426	7.91
573.618	7.92
573.81	7.98
574.002	7.92
574.194	7.95
574.386	7.89
574.578	7.75
574.77	7.92
574.962	7.9
575.154	7.76
575.346	7.73
575.538	7.84
575.729	7.85
575.921	7.86
576.113	7.93
576.305	7.9
576.497	8.02
576.689	7.78
576.88	7.67
577.072	7.9
577.264	7.88
577.456	7.84
577.647	7.76
577.839	7.92
578.031	7.84
578.223	7.71
578.414	7.7
578.606	7.79
578.798	7.82
578.989	7.77
579.181	7.87
579.372	7.83
579.564	7.87
579.755	7.74
579.947	7.67
580.139	7.79
580.33	7.64
580.522	7.8
580.713	7.63
580.905	7.68
581.096	7.76
581.287	7.71
581.479	7.67
581.67	7.76
581.862	7.67
582.053	7.66
582.244	7.48
582.436	7.8
582.627	7.61
582.818	7.56
583.01	7.59
583.201	7.62
583.392	7.58
583.583	7.52
583.775	7.45
583.966	7.6
584.157	7.61
584.348	7.63
584.54	7.52
584.731	7.58
584.922	7.52
585.113	7.38
585.304	7.51
585.495	7.53
585.686	7.62
585.877	7.53
586.068	7.63
586.259	7.52
586.45	7.45
586.641	7.5
586.832	7.52
587.023	7.43
587.214	7.42
587.405	7.52
587.596	7.33
587.787	7.35
587.978	7.46
588.169	7.32
588.36	7.33
588.551	7.37
588.742	7.4
588.932	7.43
589.123	7.24
589.314	7.45
589.505	7.36
589.696	7.3
589.886	7.3
590.077	7.35
590.268	7.27
590.458	7.16
590.649	7.03
590.84	7.28
591.03	7.31
591.221	7.28
591.412	7.07
591.602	7.33
591.793	7.22
591.984	7.21
592.174	7.2
592.365	7.34
592.555	7.07
592.746	7.05
592.936	7.12
593.127	7.17
593.317	7.15
593.508	7.15
593.698	7.07
593.889	7.09
594.079	7.02
594.269	6.99
594.46	6.98
594.65	7.04
594.84	7.01
595.031	6.96
595.221	6.92
595.411	6.94
595.602	6.96
595.792	6.89
595.982	6.8
596.172	7.05
596.363	6.89
596.553	6.87
596.743	6.9
596.933	6.91
597.123	6.88
597.314	6.67
597.504	6.78
597.694	6.83
597.884	6.79
598.074	6.81
598.264	6.69
598.454	6.73
598.644	6.71
598.834	6.72
599.024	6.64
599.214	6.61
599.404	6.73
599.594	6.72
599.784	6.57
599.974	6.72
600.164	6.65
600.354	6.57
600.544	6.53
600.734	6.59
600.924	6.56
601.114	6.47
601.303	6.47
601.493	6.54
601.683	6.6
601.873	6.53
602.063	6.37
602.252	6.5
602.442	6.38
602.632	6.38
602.821	6.38
603.011	6.4
603.201	6.47
603.39	6.37
603.58	6.33
603.77	6.36
603.959	6.46
604.149	6.3
604.339	6.31
604.528	6.39
604.718	6.29
604.907	6.28
605.097	6.23
605.286	6.17
605.476	6.18
605.665	6.28
605.855	6.13
606.044	6.25
606.234	6.22
606.423	6.07
606.612	6.09
606.802	6.04
606.991	6.2
607.181	6.16
607.37	6.05
607.559	5.88
607.749	6.04
607.938	5.95
608.127	6.01
608.316	5.99
608.506	6
608.695	5.99
608.884	5.88
609.073	5.95
609.263	6
609.452	5.92
609.641	5.82
609.83	5.81
610.019	5.9
610.208	5.85
610.397	5.82
610.586	5.83
610.775	5.79
610.965	5.77
611.154	5.69
611.343	5.79
611.532	5.68
611.721	5.7
611.91	5.67
612.099	5.64
612.287	5.55
612.476	5.55
612.665	5.7
612.854	5.54
613.043	5.6
613.232	5.54
613.421	5.52
613.61	5.57
613.798	5.52
613.987	5.54
614.176	5.48
614.365	5.54
614.554	5.51
614.742	5.49
614.931	5.33
615.12	5.5
615.309	5.44
615.497	5.4
615.686	5.29
615.875	5.33
616.063	5.35
616.252	5.27
616.44	5.25
616.629	5.28
616.818	5.23
617.006	5.25
617.195	5.13
617.383	5.24
617.572	5.16
617.76	5.14
617.949	5.18
618.137	5.24
618.326	5.21
618.514	4.97
618.703	4.97
618.891	5.15
619.079	5.01
619.268	5.11
619.456	4.99
619.644	5.13
619.833	5
620.021	4.97
620.209	4.81
620.398	4.97
620.586	4.85
620.774	4.95
620.962	4.88
621.151	5.05
621.339	4.91
621.527	4.8
621.715	4.71
621.903	4.85
622.092	4.71
622.28	4.85
622.468	4.63
622.656	4.75
622.844	4.68
623.032	4.81
623.22	4.64
623.408	4.76
623.596	4.67
623.784	4.7
623.972	4.64
624.16	4.66
624.348	4.74
624.536	4.68
624.724	4.52
624.912	4.61
625.1	4.6
625.288	4.55
625.476	4.48
625.664	4.57
625.851	4.5
626.039	4.51
626.227	4.47
626.415	4.47
626.603	4.4
626.79	4.42
626.978	4.46
627.166	4.41
627.354	4.38
627.541	4.35
627.729	4.21
627.917	4.5
628.104	4.37
628.292	4.24
628.48	4.31
628.667	4.25
628.855	4.38
629.042	4.3
629.23	4.17
629.418	4.22
629.605	4.27
629.793	4.14
629.98	4.1
630.168	4.19
630.355	4.18
630.543	4.11
630.73	4.06
630.917	4.05
631.105	4.18
631.292	4.04
631.48	4.06
631.667	4.19
631.854	4.06
632.042	4.03
632.229	3.94
632.416	3.99
632.604	3.93
632.791	3.85
632.978	4.02
633.165	3.96
633.353	3.98
633.54	3.95
633.727	3.8
633.914	3.8
634.101	3.75
634.289	3.88
634.476	3.8
634.663	3.75
634.85	3.82
635.037	3.74
635.224	3.66
635.411	3.81
635.598	3.71
635.785	3.71
635.972	3.67
636.159	3.69
636.346	3.59
636.533	3.57
636.72	3.62
636.907	3.63
637.094	3.69
637.281	3.47
637.468	3.54
637.655	3.61
637.842	3.59
638.029	3.53
638.215	3.5
638.402	3.51
638.589	3.4
638.776	3.42
638.963	3.39
639.149	3.5
639.336	3.5
639.523	3.39
639.709	3.45
639.896	3.41
640.083	3.38
640.27	3.43
640.456	3.3
640.643	3.4
640.829	3.21
641.016	3.25
641.203	3.21
641.389	3.31
641.576	3.23
641.762	3.26
641.949	3.16
642.135	3.25
642.322	3.16
642.508	3.13
642.695	3.2
642.881	3.2
643.068	3.07
643.254	3.14
643.441	3.12
643.627	3.12
643.813	3.07
644	3.08
644.186	3.03
644.372	3.13
644.559	3.1
644.745	3.02
644.931	2.94
645.118	2.97
645.304	2.98
645.49	2.99
645.676	2.97
645.862	2.95
646.049	2.97
646.235	2.91
646.421	3.04
646.607	3.03
646.793	2.9
646.979	2.83
647.165	2.92
647.352	2.89
647.538	2.88
647.724	2.84
647.91	2.8
648.096	2.83
648.282	2.9
648.468	2.78
648.654	2.84
648.84	2.83
649.026	2.79
649.212	2.7
649.397	2.66
649.583	2.69
649.769	2.78
649.955	2.7
650.141	2.67
650.327	2.66
650.513	2.61
650.698	2.67
650.884	2.54
651.07	2.67
651.256	2.58
651.442	2.61
651.627	2.57
651.813	2.63
651.999	2.5
652.184	2.55
652.37	2.58
652.556	2.54
652.741	2.57
652.927	2.42
653.113	2.52
653.298	2.46
653.484	2.5
653.669	2.39
653.855	2.39
654.04	2.45
654.226	2.44
654.412	2.4
654.597	2.34
654.782	2.41
654.968	2.46
655.153	2.33
655.339	2.33
655.524	2.3
655.71	2.4
655.895	2.34
656.08	2.35
656.266	2.43
656.451	2.33
656.636	2.27
656.822	2.26
657.007	2.31
657.192	2.29
657.378	2.21
657.563	2.19
657.748	2.28
657.933	2.25
658.118	2.2
658.304	2.2
658.489	2.27
658.674	2.2
658.859	2.16
659.044	2.13
659.229	2.22
659.414	2.14
659.599	2.15
659.785	2.01
659.97	2.11
660.155	2.15
660.34	2.14
660.525	2.08
660.71	2.06
660.895	2.12
661.08	2.05
661.264	1.97
661.449	2.13
661.634	2.07
661.819	2.09
662.004	2.02
662.189	1.91
662.374	1.95
662.559	1.9
662.743	1.9
662.928	1.96
663.113	1.93
663.298	1.91
663.483	1.95
663.667	1.93
663.852	1.87
664.037	1.95
664.221	1.9
664.406	1.92
664.591	1.93
664.775	1.94
664.96	1.78
665.145	1.87
665.329	1.96
665.514	1.88
665.698	1.83
665.883	1.81
666.068	1.89
666.252	1.8
666.437	1.74
666.621	1.79
666.806	1.83
666.99	1.8
667.174	1.8
667.359	1.85
667.543	1.73
667.728	1.75
667.912	1.65
668.096	1.74
668.281	1.75
668.465	1.76
668.649	1.71
668.834	1.69
669.018	1.7
669.202	1.66
669.387	1.65
669.571	1.78
669.755	1.64
669.939	1.65
670.124	1.66
670.308	1.69
670.492	1.67
670.676	1.66
670.86	1.62
671.044	1.61
671.228	1.65
671.413	1.57
671.597	1.58
671.781	1.54
671.965	1.61
672.149	1.53
672.333	1.57
672.517	1.53
672.701	1.58
672.885	1.57
673.069	1.46
673.253	1.61
673.437	1.5
673.621	1.45
673.804	1.54
673.988	1.55
674.172	1.5
674.356	1.47
674.54	1.48
674.724	1.59
674.908	1.47
675.091	1.49
675.275	1.5
675.459	1.5
675.643	1.45
675.826	1.49
676.01	1.43
676.194	1.42
676.377	1.5
676.561	1.44
676.745	1.42
676.928	1.45
677.112	1.49
677.296	1.36
677.479	1.39
677.663	1.38
677.846	1.46
678.03	1.35
678.213	1.35
678.397	1.44
678.58	1.34
678.764	1.29
678.947	1.25
679.131	1.42
679.314	1.39
679.498	1.31
679.681	1.37
679.865	1.44
680.048	1.33
680.231	1.32
680.415	1.29
680.598	1.27
680.781	1.25
680.965	1.3
681.148	1.27
681.331	1.24
681.514	1.3
681.698	1.21
681.881	1.3
682.064	1.28
682.247	1.27
682.43	1.15
682.614	1.19
682.797	1.25
682.98	1.25
683.163	1.15
683.346	1.22
683.529	1.19
683.712	1.13
683.895	1.2
684.078	1.08
684.261	1.14
684.444	1.15
684.627	1.16
684.81	1.19
684.993	1.12
685.176	1.18
685.359	1.14
685.542	1.1
685.725	1.21
685.908	1.14
686.091	1.09
686.274	1.15
686.457	1.2
686.639	1.11
686.822	1.13
687.005	1.16
687.188	1.2
687.371	1.23
687.553	1.09
687.736	1.12
687.919	1.19
688.102	1.2
688.284	1.06
688.467	1.06
688.65	1.08
688.832	0.97
689.015	1
689.197	0.97
689.38	1.16
689.563	1.14
689.745	0.98
689.928	1.03
690.11	1.05
690.293	1.08
690.475	0.96
690.658	0.98
690.84	1
691.023	1.03
691.205	0.95
691.388	1
691.57	1.1
691.752	1.04
691.935	0.89
692.117	0.94
692.3	1.05
692.482	0.94
692.664	0.93
692.847	0.97
693.029	1.07
693.211	0.96
693.393	0.93
693.576	0.94
693.758	0.96
693.94	0.93
694.122	0.94
694.304	0.89
694.487	0.88
694.669	0.96
694.851	0.84
695.033	0.87
695.215	0.91
695.397	0.91
695.579	0.91
695.761	0.83
695.943	0.88
696.125	1
696.308	0.91
696.49	0.74
696.671	1.01
696.853	0.9
697.035	1.12
697.217	0.88
697.399	1
697.581	0.83
697.763	0.85
697.945	0.75
698.127	0.88
698.309	0.96
698.491	0.83
698.672	0.89
698.854	0.96
699.036	0.96
699.218	0.79
699.399	0.83
699.581	0.94
699.763	0.8
699.945	0.77
700.126	0.77
700.308	0.8
700.49	0.9
700.671	0.72
700.853	0.78
701.035	0.79
701.216	0.83
701.398	0.71
701.579	0.76
701.761	0.88
701.943	0.81
702.124	0.7
702.306	0.76
702.487	0.97
702.669	0.8
702.85	0.72
703.031	0.6
703.213	0.91
703.394	0.88
703.576	0.76
703.757	0.94
703.938	0.82
704.12	0.96
704.301	0.8
704.483	0.76
704.664	0.81
704.845	0.9
705.026	0.82
705.208	0.74
705.389	0.76
705.57	0.79
705.751	0.73
705.933	0.71
706.114	0.81
706.295	0.74
706.476	0.68
706.657	0.82
706.838	0.73
707.02	0.81
707.201	0.66
707.382	0.71
707.563	0.77
707.744	0.75
707.925	0.63
708.106	0.68
708.287	0.7
708.468	0.83
708.649	0.68
708.83	0.75
709.011	0.58
709.192	0.71
709.373	0.58
709.554	0.61
709.734	0.75
709.915	0.81
710.096	0.64
710.277	0.5
710.458	0.65
710.639	0.74
710.819	0.46
711	0.67
711.181	0.7
711.362	0.73
711.542	0.66
711.723	0.62
711.904	0.76
712.085	0.67
712.265	0.71
712.446	0.57
712.627	0.62
712.807	0.67
712.988	0.67
713.168	0.48
713.349	0.62
713.53	0.48
713.71	0.5
713.891	0.55
714.071	0.57
714.252	0.58
714.432	0.47
714.613	0.47
714.793	0.71
714.974	0.7
715.154	0.64
715.334	0.68
715.515	0.76
715.695	0.6
715.876	0.55
716.056	0.51
716.236	0.53
716.417	0.57
716.597	0.51
716.777	0.86
716.957	0.67
717.138	0.55
717.318	0.51
717.498	0.4
717.678	0.58
717.859	0.58
718.039	0.51
718.219	0.57
718.399	0.56
718.579	0.47
718.759	0.47
718.939	0.6
719.12	0.59
719.3	0.58
719.48	0.41
719.66	0.4
719.84	0.72
720.02	0.58
720.2	0.51
720.38	0.45
720.56	0.59
720.74	0.43
720.92	0.54
721.1	0.66
721.279	0.67
721.459	0.54
721.639	0.45
721.819	0.51
721.999	0.43
722.179	0.54
722.359	0.41
722.538	0.51
722.718	0.6
722.898	0.54
723.078	0.49
723.257	0.46
723.437	0.57
723.617	0.56
723.797	0.5
723.976	0.47
724.156	0.6
724.336	0.67
724.515	0.7
724.695	0.37
724.874	0.58
725.054	0.6
725.234	0.51
725.413	0.46
725.593	0.47
725.772	0.47
725.952	0.39
726.131	0.44
726.311	0.48
726.49	0.55
726.67	0.46
726.849	0.5
727.028	0.57
727.208	0.48
727.387	0.56
727.567	0.29
727.746	0.48
727.925	0.49
728.105	0.39
728.284	0.51
728.463	0.44
728.643	0.55
728.822	0.35
729.001	0.49
729.18	0.52
729.359	0.54
729.539	0.43
729.718	0.46
729.897	0.55
730.076	0.43
730.255	0.37
730.434	0.54
730.614	0.6
730.793	0.65
730.972	0.39
731.151	0.51
731.33	0.5
731.509	0.47
731.688	0.45
731.867	0.41
732.046	0.34
732.225	0.67
732.404	0.42
732.583	0.34
732.762	0.41
732.941	0.55
733.12	0.45
733.298	0.4
733.477	0.6
733.656	0.42
733.835	0.4
734.014	0.56
734.193	0.44
734.371	0.59
734.55	0.5
734.729	0.31
734.908	0.5
735.086	0.55
735.265	0.56
735.444	0.3
735.623	0.3
735.801	0.44
735.98	0.45
736.159	0.42
736.337	0.51
736.516	0.5
736.694	0.56
736.873	0.38
737.052	0.62
737.23	0.7
737.409	0.41
737.587	0.76
737.766	0.36
737.944	0.39
738.123	0.57
738.301	0.58
738.479	0.49
738.658	0.52
738.836	0.28
739.015	0.46
739.193	0.61
739.371	0.25
739.55	0.39
739.728	0.38
739.906	0.58
740.085	0.72
740.263	0.42
740.441	0.28
740.62	0.78
740.798	0.57
740.976	0.3
741.154	0.29
741.332	0.64
741.511	0.39
741.689	0.49
741.867	0.57
742.045	0.52
742.223	0.43
742.401	0.46
742.579	0.32
742.757	0.49
742.935	0.21
743.114	0.32
743.292	0.31
743.47	0.39
743.648	0.48
743.826	0.42
744.004	0.48
744.181	0.53
744.359	0.37
744.537	0.44
744.715	0.39
744.893	0.4
745.071	0.49
745.249	0.44
745.427	0.35
745.605	0.46
745.782	0.42
745.96	0.51
746.138	0.6
746.316	0.6
746.493	0.37
746.671	0.44
746.849	0.37
747.027	0.65
747.204	0.29
747.382	0.44
747.56	0.31
747.737	0.49
747.915	0.24
748.093	0.44
748.27	0.34
748.448	0.44
748.625	0.24
748.803	0.36
748.98	0.34
749.158	0.54
749.335	0.51
749.513	0.36
749.69	0.37
749.868	0.48
750.045	0.46
750.223	0.25
750.4	0.15
750.578	0.64
750.755	0.41
750.932	0.17
751.11	0.48
751.287	0.29
751.464	0.52
751.642	0.34
751.819	0.35
751.996	0.58
752.173	0.32
752.351	0.21
752.528	0.46
752.705	0.42
752.882	0.3
753.06	0.35
753.237	0.36
753.414	0.63
753.591	0.57
753.768	0.41
753.945	0.34
754.122	0.36
754.299	0.54
754.476	0.29
754.654	0.3
754.831	0.54
755.008	0.46
755.185	0.2
755.362	0.27
755.539	0.31
755.716	0.3
755.892	0.43
756.069	0.27
756.246	0.32
756.423	0.47
756.6	0.49
756.777	0.31
756.954	0.52
757.131	0.44
757.307	0.36
757.484	0.2
757.661	0.42
757.838	0.45
758.015	0.19
758.191	0.4
758.368	0.42
758.545	0.66
758.721	0.4
758.898	0.19
759.075	0.4
759.251	0.36
759.428	0.45
759.605	0.3
759.781	0.32
759.958	0.41
760.134	0.39
760.311	0.35
760.488	0.56
760.664	0.55
760.841	0.34
761.017	0.23
761.194	0.36
761.37	0.55
761.547	0.35
761.723	0.25
761.899	0.54
762.076	0.29
762.252	0.14
762.429	0.27
762.605	0.48
762.781	0.29
762.958	0.39
763.134	0.24
763.31	0.13
763.486	0.49
763.663	0.09
763.839	0.33
764.015	0.2
764.191	0.38
764.368	0.2
764.544	0.29
764.72	0.26
764.896	0.4
765.072	0.44
765.248	0.3
765.425	0.4
765.601	0.38
765.777	0.48
765.953	0.1
766.129	0.25
766.305	0.31
766.481	0.51
766.657	0.35
766.833	0.53
767.009	0.22
767.185	0.34
767.361	0.22
767.537	0.22
767.713	0.6
767.889	0.21
768.065	0.33
768.24	0.45
768.416	0.48
768.592	0.26
768.768	0.44
768.944	0.52
769.12	0.2
769.295	0.31
769.471	0.36
769.647	0.28
769.823	0.6
769.998	0.23
770.174	0.26
770.35	0.71
770.525	0.63
770.701	0.35
770.877	0.43
771.052	0.25
771.228	0.51
771.403	0.38
771.579	0.34
771.755	0.6
771.93	0.2
772.106	0.29
772.281	0.05
772.457	0.36
772.632	0.51
772.808	0.16
772.983	0.28
773.159	0.09
773.334	0.46
773.509	0.53
773.685	0.25
773.86	0.89
774.036	0.58
774.211	0.29
774.386	0.16
774.562	0.39
774.737	0.47
774.912	0.22
775.087	0.47
775.263	0.29
775.438	0.44
775.613	0.17
775.788	0.26
775.964	0.52
776.139	0.93
776.314	0.04
776.489	0.48
776.664	0.37
776.839	0.22
777.014	0.6
777.19	0.45
777.365	0.71
777.54	0.61
777.715	0.33
777.89	0.31
778.065	0.29
778.24	0.45
778.415	0.45
778.59	0.22
778.765	0.38
778.94	0.55
779.115	0.27
779.289	0.2
779.464	0.51
779.639	0.2
779.814	0.15
779.989	0.09
780.164	0.55
780.339	0.45
780.513	0.22
780.688	0.08
780.863	0.35
781.038	0.58
781.212	0.21
781.387	0.31
781.562	0.71
781.737	0.13
781.911	0.6
782.086	0.34
782.261	0.32
782.435	0.65
782.61	0.27
782.784	0.35
782.959	0.6
783.134	0.2
783.308	0.04
783.483	0.26
783.657	1.11
783.832	0.52
784.006	0.07
784.181	0.49
784.355	0.61
784.53	0.24
784.704	0.22
784.878	0.6
785.053	0.48
785.227	0.91
785.402	0.75
785.576	0.01
785.75	0.71
785.925	0.38
786.099	0.69
786.273	0.26
786.448	0.57
786.622	0.69
786.796	0.26
786.97	0.52
787.145	1.25
787.319	-0.22
787.493	0.41
787.667	-0.14
787.841	0.38
788.015	0.89
788.19	0.33
788.364	0.42
788.538	0.85
788.712	0.38
788.886	0.41
789.06	0.53
789.234	0.82
789.408	0.11
789.582	0.31
789.756	0.19
789.93	0.12
790.104	0.24
790.278	0.26
790.452	0.2
790.626	0.56
790.8	0.42
790.973	0.4
791.147	0.94
791.321	0.88
791.495	0.9
791.669	0.46
791.843	0.61
792.016	0.53
792.19	0.86
792.364	-0.03
792.538	1.11
792.711	0.63
792.885	0.07
793.059	0.22
793.233	-0.08
793.406	0.7
793.58	0.51
793.754	0.62
793.927	0.31
794.101	0.84
794.274	0.62
794.448	0.56
794.622	0.06
794.795	1.04
794.969	0.14
795.142	0.97
795.316	0.39
795.489	0.25
795.663	0.75
795.836	0.37
796.009	0.04
796.183	0.78
796.356	0.56
796.53	0.51
796.703	0.35
796.876	0.97
797.05	0.26
797.223	0.42
797.396	0.45
797.57	0.52
797.743	1.08
797.916	0.6
798.09	0.48
798.263	0.64
798.436	0.55
798.609	0.28
798.782	0.35
798.956	0.63
799.129	0.61
799.302	0.31
799.475	0.39
799.648	0.44
799.821	0.19
799.994	0.4
800.167	-0.14
800.34	0.28
800.514	0.53
800.687	0.27
800.86	0.14
801.033	0.86
801.206	0.68
801.379	0.23
801.551	1.02
801.724	0.59
801.897	1.49
802.07	0.35
802.243	-0.01
802.416	0.44
802.589	0.42
802.762	1.05
802.935	0.23
803.107	0.8
803.28	0.81
803.453	0.41
803.626	0.26
803.798	0.56
803.971	0.51
804.144	0.48
804.317	0.62
804.489	0.88
804.662	0.86
804.835	0.34
805.007	0.36
805.18	0.98
805.353	0.57
805.525	0.09
805.698	0.18
805.87	0.82
806.043	0.81
806.215	-0.09
806.388	-0.13
806.56	0.61
806.733	0.97
806.905	0.37
807.078	0.14
807.25	0.66
807.423	0.62
807.595	0.69
807.768	0.34
807.94	0.87
808.112	0.56
808.285	0.44
808.457	0.3
808.629	0.63
808.802	0.74
808.974	0.69
809.146	0.15
809.318	0.47
809.491	0.98
809.663	0.83
809.835	0.17
810.007	0.72
810.18	0.73
810.352	-0.01
810.524	0.44
810.696	1.13
810.868	1.16
811.04	0.41
811.212	0.4
811.384	0.94
811.556	0.69
811.728	0.13
811.901	1.49
812.073	0.58
812.245	1.03
812.417	0.48
812.589	-0.27
812.76	0.53
812.932	1.35
813.104	0.78
813.276	0.45
813.448	0.67
813.62	0.62
813.792	0.56
813.964	0.47
814.136	0.91
814.307	0.32
814.479	0.31
814.651	0.01
814.823	1.54
814.995	0.39
815.166	0.76
815.338	0.68
815.51	0.48
815.681	1.4
815.853	0.51
816.025	0.71
816.196	1.29
816.368	1.29
816.54	-0.33
816.711	-0.11
816.883	0.89
817.054	1.67
817.226	-0.22
817.398	1.06
817.569	0.48
817.741	0.7
817.912	0.37
818.084	0.52
818.255	1.52
818.426	0.28
818.598	0.66
818.769	0.35
818.941	1.09
819.112	1.65
819.283	0.69
819.455	0.1
819.626	0.58
819.798	0.83
819.969	0.64
820.14	0.45
820.311	0.19
820.483	0.82
820.654	0.06
820.825	0.21
820.996	0.87
821.168	0.33
821.339	0.5
821.51	-0.45
821.681	0.38
821.852	0.9
822.023	-0.07
822.195	0.66
822.366	1.32
822.537	0.99
822.708	0.92
822.879	0.16
823.05	1.65
823.221	0.62
823.392	0.7
823.563	0.96
823.734	0.7
823.905	0.96
824.076	0.16
824.247	0.41
824.418	0.65
824.589	1.36
824.759	0.52
824.93	0.64
825.101	-0.68
825.272	1.55
825.443	1.38
825.614	1.03
825.784	-0.03
825.955	2.04
826.126	1.33
826.297	0.81
826.467	2.2
826.638	1.51
826.809	-0.23
826.98	0.57
827.15	0.85
827.321	1.29
827.492	1.61
827.662	0.25
827.833	1.75
828.003	1.29
828.174	0.1
828.345	0.28
828.515	1.96
828.686	1.14
828.856	0.4
829.027	0.62
829.197	1.26
829.368	0.87
829.538	-0.32
829.709	0.56
829.879	0.72
830.049	0.86
830.22	0.36
830.39	0.17
830.56	1.41
830.731	0.8
830.901	0.03
831.072	0.68
831.242	1.27
831.412	0.94
831.582	0.6
831.753	-0.1
831.923	1.47
832.093	1.14
832.263	0.45
832.434	-0.26
832.604	0.4
832.774	1.79
832.944	0.03
833.114	0.29
833.284	0.89
833.454	0.09
833.624	0.39
833.795	0.51
833.965	1.29
834.135	1.97
834.305	-0.96
834.475	-0.44
834.645	0.98
834.815	0.8
834.985	0.27
835.155	0.26
835.325	1.07
835.494	1.7
835.664	0.3
835.834	-0.01
836.004	0.32
836.174	1.65
836.344	1.46
836.514	-0.62
836.684	0.49
836.853	0.77
837.023	0.61
837.193	0.36
837.363	1.65
837.532	2.06
837.702	0.47
837.872	0.2
838.041	1.46
838.211	2.9
838.381	-0.09
838.55	0.79
838.72	3.45
838.89	1.87
839.059	1.07
839.229	0.22
839.398	3.49
839.568	1.26
839.738	0.63
839.907	1.69
840.077	0.8
840.246	0.47
840.416	0.32
840.585	-0.39
840.755	2.38
840.924	2.86
841.093	0.48
841.263	0.49
841.432	1.36
841.602	0.33
841.771	-0.15
841.94	1.25
842.11	2.82
842.279	2.84
842.448	0.3
842.617	-0.59
842.787	2.2
842.956	0.03
843.125	0.56
843.294	0.96
843.464	2.67
843.633	0.88
843.802	0.15
843.971	-0.12
844.14	1.02
844.309	2.13
844.479	-0.28
844.648	-0.25
844.817	0.59
844.986	1.29
845.155	0.83
845.324	0.51
845.493	0.98
845.662	0.71
845.831	1.66
846	1.56
846.169	0.55
846.338	3.15
846.507	1.26
846.676	1.07
846.844	0.81
847.013	1.3
847.182	0.16
847.351	0.43
847.52	1.3
847.689	1.81
847.858	0.7
848.026	0.29
848.195	1.34
848.364	1.31
848.533	0.09
848.701	-0.03
848.87	1.89
849.039	3.08
849.207	1.43
849.376	1.68
849.545	2.92
849.713	0.15
849.882	0.37
850.051	0.4
850.219	0.52
850.388	1.38
850.556	-0.52
850.725	0.18
850.893	1.08
851.062	0.21
851.23	1.92
851.399	-0.75
851.567	0.76
851.736	1.12
851.904	-0.07
852.073	0.94
852.241	2.49
852.41	1.43
852.578	0.46
852.746	0.22
852.915	2.05
853.083	1.55
853.251	-0.43
853.42	1.22
853.588	1.13
853.756	3.61
853.924	0.34
854.093	0.89
854.261	0.7
854.429	-0.29
854.597	1.18
854.765	0.16
854.934	2.54
855.102	2.56
855.27	0.8
855.438	1.71
855.606	2.81
855.774	3.67
855.942	0.43
856.11	0.49
856.278	1.29
856.446	3.48
856.614	1.75
856.782	0.29
856.95	3.03
857.118	2.72
857.286	2.54
857.454	0.61
857.622	2.86
857.79	2.97
857.958	-0.24
858.126	1.36
858.294	-2.11
858.462	0.5
858.629	0.84
858.797	-0.46
858.965	2.82
859.133	1.01
859.301	1.14
859.468	1.9
859.636	0.55
859.804	4.77
859.971	0.14
860.139	-0.26
860.307	3
860.474	1.99
860.642	1.07
860.81	0.5
860.977	2.7
861.145	3.03
861.313	0.35
861.48	1.51
861.648	1.71
861.815	1.31
861.983	0.4
862.15	0.7
862.318	2.99
862.485	2.67
862.653	0.06
862.82	0.27
862.988	4.35
863.155	4.61
863.322	0.7
863.49	1.27
863.657	1.06
863.824	5.04
863.992	2.19
864.159	1.38
864.326	4.81
864.494	1.61
864.661	3.37
864.828	0.21
864.996	4.97
865.163	4.72
865.33	0.75
865.497	-1.35
865.664	-0.88
865.832	-0.38
865.999	1.07
866.166	-0.65
866.333	0.15
866.5	0.54
866.667	0.63
866.834	1.17
867.001	3.71
867.168	-0.15
867.335	0.75
867.502	-0.85
867.669	1.2
867.836	5.19
868.003	1.11
868.17	3.63
868.337	0.81
868.504	7.75
868.671	-0.79
868.838	0.56
869.005	3.06
869.172	2.63
869.339	1.16
869.505	0.86
869.672	3.43
869.839	3.51
870.006	2.26
870.173	-0.81
870.339	2.74
870.506	6.41
870.673	-1.35
870.84	3.63
871.006	3.41
871.173	2.23
871.34	1.32
871.506	-1.72
871.673	1.72
871.839	0.67
872.006	1.6
872.173	-1.25
872.339	1.91
872.506	3.19
872.672	1.04
872.839	-1.85
873.005	2.28
873.172	6.18
873.338	3.5
873.505	1.42
873.671	4.12
873.838	3.45
874.004	-0.67
874.171	0.95
874.337	3.39
874.503	2.92
874.67	0.74
874.836	-0.16
875.002	5.86
875.169	4.48
875.335	1.22
875.501	1.75
875.668	3.04
875.834	2.37
876	0.62
876.166	1.59
876.332	4.11
876.499	5.64
876.665	0.87
876.831	0.54
876.997	7.23
877.163	1.8
877.329	0.84
877.495	0.62
877.662	4.17
877.828	0.97
877.994	1.43
878.16	-1.68
878.326	1.38
878.492	3.5
878.658	1.57
878.824	3.58
878.99	2.28
879.156	0.8
879.322	4.09
879.487	-0.34
879.653	2.56
879.819	1.15
879.985	0.42
880.151	2.42
880.317	1.4
880.483	1.96
880.648	1.83
880.814	-1.76
880.98	2.58
881.146	-1.64
881.312	0.33
881.477	0.95
881.643	0.97
881.809	4.05
881.974	3.64
882.14	-1.86
882.306	2.37
882.471	6.1
882.637	-1.06
882.803	2.43
882.968	3.85
883.134	7.38
883.299	1.68
883.465	1.21
883.63	2.44
883.796	4.23
883.961	4.27
884.127	1.63
884.292	-3.68
884.458	-0.87
884.623	-0.87
