Data from Apollo_Calib_20240827__AbsoluteIrradiance__782__12-11-00-579.txt Node

Date: Wed Aug 28 12:11:00 BST 2024
User: biology
Spectrometer: FLMT08252
Trigger mode: 0
Integration Time (sec): 5.000000E-1
Scans to average: 5
Electric dark correction enabled: true
Nonlinearity correction enabled: false
Boxcar width: 0
XAxis mode: Wavelengths
Number of Pixels in Spectrum: 3648
>>>>>Begin Spectral Data<<<<<
179.588	-0
179.809	-0
180.03	-0
180.251	-0
180.473	-0
180.694	0
180.915	0
181.136	-0
181.357	0
181.578	-0
181.799	0
182.02	-0
182.241	-0
182.462	-0
182.683	0
182.904	-0
183.125	-0
183.346	0
183.567	0
183.788	0
184.009	0
184.23	0
184.451	0
184.672	0
184.892	0
185.113	0
185.334	0
185.555	0
185.776	0
185.996	0
186.217	0
186.438	0
186.659	0
186.879	0
187.1	0
187.321	0
187.541	0
187.762	0
187.983	0
188.203	0
188.424	0
188.644	0
188.865	0
189.086	0
189.306	0
189.527	0
189.747	0
189.968	0
190.188	0
190.409	0
190.629	0
190.849	0
191.07	0
191.29	0
191.511	0
191.731	0
191.951	0
192.172	0
192.392	0
192.612	0
192.833	0
193.053	0
193.273	0
193.493	0
193.714	0
193.934	0
194.154	0
194.374	0
194.594	0
194.815	0
195.035	0
195.255	0
195.475	0
195.695	0
195.915	0
196.135	0
196.355	0
196.575	0
196.795	0
197.015	0
197.235	0
197.455	0
197.675	0
197.895	0
198.115	0
198.335	0
198.555	0
198.775	0
198.995	0
199.214	0
199.434	0
199.654	0
199.874	0
200.094	3.78
200.313	1.97
200.533	1.87
200.753	1.81
200.973	3.84
201.192	3.26
201.412	1.3
201.632	2.16
201.851	3.31
202.071	1.92
202.291	1.35
202.51	1.47
202.73	2.94
202.95	1.96
203.169	1.23
203.389	1.87
203.608	2.45
203.828	1.66
204.047	1.81
204.267	2.25
204.486	2.23
204.706	2.45
204.925	1.68
205.145	1.53
205.364	2.52
205.583	2.58
205.803	1.3
206.022	1.14
206.242	1.86
206.461	1.29
206.68	1.4
206.9	1.7
207.119	2.51
207.338	1.87
207.557	1.59
207.777	1.35
207.996	1.24
208.215	1.84
208.434	1.22
208.654	0.79
208.873	1.69
209.092	2.12
209.311	1.14
209.53	1.27
209.749	0.99
209.968	1.09
210.187	1.18
210.407	0.63
210.626	1.17
210.845	1.62
211.064	1.15
211.283	0.86
211.502	1.61
211.721	1.2
211.94	0.95
212.159	1.13
212.377	1.4
212.596	1.58
212.815	1.38
213.034	0.93
213.253	1.45
213.472	1.58
213.691	1.01
213.91	0.77
214.128	1.01
214.347	1.27
214.566	0.6
214.785	0.53
215.003	1.24
215.222	1.17
215.441	1.08
215.66	0.57
215.878	1.18
216.097	1.21
216.316	0.59
216.534	0.87
216.753	1.14
216.972	0.81
217.19	0.82
217.409	0.71
217.627	0.88
217.846	0.81
218.064	1.03
218.283	0.59
218.501	1.37
218.72	1.42
218.938	0.64
219.157	0.72
219.375	1.14
219.594	1.1
219.812	0.72
220.031	0.53
220.249	1.24
220.467	1.18
220.686	0.62
220.904	0.58
221.122	0.78
221.341	1.13
221.559	0.7
221.777	0.45
221.995	0.92
222.214	0.82
222.432	0.62
222.65	0.88
222.868	0.79
223.086	0.92
223.305	1
223.523	0.64
223.741	1.16
223.959	0.6
224.177	0.41
224.395	0.51
224.613	0.82
224.831	1.01
225.049	0.4
225.267	0.73
225.485	0.72
225.703	0.6
225.921	0.66
226.139	0.52
226.357	0.87
226.575	0.85
226.793	0.61
227.011	1.62
227.229	0.72
227.447	0.96
227.665	0.52
227.883	0.33
228.1	0.53
228.318	0.86
228.536	0.36
228.754	0.39
228.972	0.8
229.189	0.93
229.407	0.46
229.625	0.56
229.843	0.87
230.06	0.86
230.278	0.62
230.496	0.67
230.713	0.68
230.931	0.74
231.149	0.34
231.366	0.29
231.584	0.58
231.801	1.04
232.019	0.37
232.236	0.44
232.454	0.54
232.671	0.71
232.889	0.47
233.106	0.35
233.324	0.7
233.541	0.62
233.759	0.58
233.976	0.39
234.194	0.55
234.411	0.55
234.628	0.4
234.846	0.55
235.063	0.53
235.28	0.54
235.498	0.45
235.715	0.37
235.932	0.74
236.149	0.64
236.367	0.34
236.584	0.59
236.801	0.5
237.018	0.81
237.236	0.45
237.453	0.32
237.67	0.7
237.887	0.42
238.104	0.49
238.321	0.38
238.538	0.47
238.755	0.84
238.973	0.32
239.19	0.58
239.407	0.64
239.624	0.52
239.841	0.46
240.058	0.4
240.275	0.55
240.492	0.52
240.709	0.49
240.925	0.43
241.142	0.5
241.359	0.43
241.576	0.3
241.793	0.31
242.01	0.44
242.227	0.56
242.444	0.6
242.66	0.63
242.877	0.42
243.094	0.45
243.311	0.5
243.527	0.42
243.744	0.58
243.961	0.5
244.178	0.26
244.394	0.55
244.611	0.57
244.828	0.73
245.044	0.42
245.261	0.38
245.477	0.5
245.694	0.56
245.911	0.4
246.127	0.47
246.344	0.72
246.56	0.47
246.777	0.4
246.993	0.47
247.21	0.54
247.426	0.32
247.643	0.36
247.859	0.34
248.076	0.39
248.292	0.7
248.508	0.35
248.725	0.46
248.941	0.41
249.157	0.6
249.374	0.42
249.59	0.42
249.806	0.51
250.023	0.67
250.239	0.37
250.455	0.29
250.671	0.41
250.888	0.57
251.104	0.44
251.32	0.3
251.536	0.42
251.752	0.36
251.969	0.48
252.185	0.34
252.401	0.64
252.617	0.48
252.833	0.34
253.049	0.31
253.265	0.45
253.481	0.51
253.697	0.32
253.913	0.4
254.129	0.53
254.345	0.41
254.561	0.4
254.777	0.32
254.993	0.52
255.209	0.35
255.425	0.38
255.641	0.37
255.857	0.52
256.073	0.49
256.288	0.28
256.504	0.3
256.72	0.45
256.936	0.56
257.152	0.33
257.367	0.31
257.583	0.36
257.799	0.51
258.015	0.36
258.23	0.3
258.446	0.61
258.662	0.32
258.877	0.3
259.093	0.27
259.309	0.37
259.524	0.49
259.74	0.33
259.955	0.29
260.171	0.41
260.387	0.38
260.602	0.41
260.818	0.4
261.033	0.22
261.249	0.3
261.464	0.31
261.68	0.29
261.895	0.46
262.11	0.53
262.326	0.36
262.541	0.23
262.757	0.49
262.972	0.53
263.187	0.39
263.403	0.44
263.618	0.48
263.833	0.4
264.049	0.25
264.264	0.31
264.479	0.35
264.694	0.58
264.91	0.25
265.125	0.36
265.34	0.46
265.555	0.61
265.77	0.41
265.986	0.31
266.201	0.4
266.416	0.53
266.631	0.32
266.846	0.29
267.061	0.41
267.276	0.4
267.491	0.19
267.706	0.42
267.921	0.39
268.136	0.39
268.351	0.44
268.566	0.23
268.781	0.45
268.996	0.44
269.211	0.35
269.426	0.21
269.641	0.34
269.856	0.47
270.071	0.25
270.285	0.28
270.5	0.41
270.715	0.48
270.93	0.35
271.145	0.32
271.359	0.49
271.574	0.3
271.789	0.35
272.004	0.28
272.218	0.3
272.433	0.42
272.648	0.25
272.862	0.43
273.077	0.35
273.292	0.36
273.506	0.27
273.721	0.31
273.936	0.37
274.15	0.43
274.365	0.31
274.579	0.36
274.794	0.41
275.008	0.44
275.223	0.21
275.437	0.4
275.652	0.43
275.866	0.35
276.081	0.3
276.295	0.35
276.509	0.42
276.724	0.36
276.938	0.35
277.153	0.33
277.367	0.42
277.581	0.27
277.796	0.24
278.01	0.23
278.224	0.44
278.438	0.44
278.653	0.3
278.867	0.24
279.081	0.2
279.295	0.27
279.51	0.31
279.724	0.22
279.938	0.41
280.152	0.4
280.366	0.3
280.58	0.4
280.794	0.43
281.008	0.44
281.222	0.42
281.437	0.48
281.651	0.41
281.865	0.46
282.079	0.35
282.293	0.19
282.507	0.28
282.721	0.35
282.935	0.3
283.148	0.23
283.362	0.29
283.576	0.26
283.79	0.23
284.004	0.22
284.218	0.45
284.432	0.31
284.646	0.31
284.859	0.32
285.073	0.3
285.287	0.28
285.501	0.3
285.714	0.23
285.928	0.34
286.142	0.33
286.356	0.28
286.569	0.26
286.783	0.43
286.997	0.41
287.21	0.3
287.424	0.27
287.637	0.25
287.851	0.25
288.065	0.36
288.278	0.29
288.492	0.3
288.705	0.31
288.919	0.31
289.132	0.21
289.346	0.38
289.559	0.23
289.773	0.22
289.986	0.3
290.2	0.27
290.413	0.36
290.626	0.26
290.84	0.26
291.053	0.29
291.267	0.42
291.48	0.29
291.693	0.31
291.906	0.23
292.12	0.34
292.333	0.23
292.546	0.27
292.76	0.42
292.973	0.29
293.186	0.31
293.399	0.21
293.612	0.36
293.826	0.27
294.039	0.27
294.252	0.28
294.465	0.34
294.678	0.3
294.891	0.26
295.104	0.24
295.317	0.18
295.53	0.27
295.743	0.3
295.956	0.26
296.169	0.41
296.382	0.36
296.595	0.25
296.808	0.22
297.021	0.37
297.234	0.38
297.447	0.27
297.66	0.32
297.873	0.37
298.086	0.32
298.299	0.2
298.511	0.19
298.724	0.26
298.937	0.24
299.15	0.22
299.363	0.27
299.575	0.31
299.788	0.26
300.001	0.21
300.213	0.25
300.426	0.23
300.639	0.23
300.852	0.24
301.064	0.31
301.277	0.38
301.489	0.34
301.702	0.3
301.915	0.23
302.127	0.3
302.34	0.27
302.552	0.27
302.765	0.22
302.977	0.33
303.19	0.18
303.402	0.23
303.615	0.25
303.827	0.25
304.04	0.26
304.252	0.32
304.464	0.22
304.677	0.41
304.889	0.26
305.102	0.22
305.314	0.23
305.526	0.33
305.739	0.31
305.951	0.2
306.163	0.27
306.375	0.37
306.588	0.26
306.8	0.23
307.012	0.19
307.224	0.3
307.436	0.32
307.649	0.14
307.861	0.26
308.073	0.31
308.285	0.23
308.497	0.18
308.709	0.18
308.921	0.29
309.133	0.36
309.346	0.24
309.558	0.24
309.77	0.29
309.982	0.34
310.194	0.28
310.406	0.23
310.617	0.36
310.829	0.32
311.041	0.28
311.253	0.2
311.465	0.29
311.677	0.28
311.889	0.25
312.101	0.25
312.313	0.3
312.524	0.34
312.736	0.19
312.948	0.22
313.16	0.39
313.372	0.31
313.583	0.3
313.795	0.24
314.007	0.22
314.218	0.39
314.43	0.24
314.642	0.19
314.853	0.19
315.065	0.35
315.277	0.22
315.488	0.3
315.7	0.32
315.912	0.33
316.123	0.26
316.335	0.21
316.546	0.37
316.758	0.23
316.969	0.25
317.181	0.21
317.392	0.29
317.604	0.32
317.815	0.26
318.026	0.2
318.238	0.24
318.449	0.29
318.661	0.2
318.872	0.21
319.083	0.28
319.295	0.3
319.506	0.25
319.717	0.25
319.929	0.29
320.14	0.29
320.351	0.27
320.562	0.23
320.774	0.33
320.985	0.24
321.196	0.19
321.407	0.19
321.618	0.28
321.829	0.29
322.041	0.3
322.252	0.28
322.463	0.29
322.674	0.28
322.885	0.2
323.096	0.26
323.307	0.27
323.518	0.28
323.729	0.22
323.94	0.24
324.151	0.25
324.362	0.28
324.573	0.26
324.784	0.24
324.995	0.3
325.206	0.33
325.417	0.26
325.628	0.24
325.838	0.23
326.049	0.31
326.26	0.28
326.471	0.22
326.682	0.31
326.892	0.28
327.103	0.21
327.314	0.21
327.525	0.37
327.735	0.21
327.946	0.26
328.157	0.21
328.368	0.35
328.578	0.27
328.789	0.32
328.999	0.33
329.21	0.28
329.421	0.36
329.631	0.27
329.842	0.16
330.052	0.25
330.263	0.32
330.473	0.28
330.684	0.27
330.894	0.3
331.105	0.28
331.315	0.28
331.526	0.2
331.736	0.33
331.947	0.31
332.157	0.24
332.367	0.18
332.578	0.31
332.788	0.33
332.999	0.3
333.209	0.26
333.419	0.22
333.629	0.31
333.84	0.27
334.05	0.23
334.26	0.32
334.47	0.31
334.681	0.3
334.891	0.24
335.101	0.31
335.311	0.36
335.521	0.25
335.732	0.24
335.942	0.34
336.152	0.26
336.362	0.31
336.572	0.25
336.782	0.32
336.992	0.2
337.202	0.23
337.412	0.23
337.622	0.27
337.832	0.26
338.042	0.27
338.252	0.23
338.462	0.22
338.672	0.25
338.882	0.24
339.092	0.19
339.302	0.35
339.511	0.33
339.721	0.22
339.931	0.2
340.141	0.31
340.351	0.34
340.561	0.29
340.77	0.3
340.98	0.29
341.19	0.31
341.4	0.23
341.609	0.19
341.819	0.26
342.029	0.23
342.238	0.27
342.448	0.24
342.658	0.31
342.867	0.23
343.077	0.28
343.286	0.25
343.496	0.26
343.706	0.36
343.915	0.21
344.125	0.23
344.334	0.26
344.544	0.23
344.753	0.24
344.963	0.19
345.172	0.22
345.381	0.25
345.591	0.22
345.8	0.27
346.01	0.36
346.219	0.29
346.428	0.16
346.638	0.23
346.847	0.28
347.056	0.32
347.266	0.24
347.475	0.25
347.684	0.34
347.893	0.3
348.103	0.27
348.312	0.24
348.521	0.24
348.73	0.3
348.94	0.29
349.149	0.24
349.358	0.27
349.567	0.24
349.776	0.2
349.985	0.22
350.194	0.32
350.403	0.32
350.612	0.17
350.821	0.24
351.03	0.29
351.239	0.2
351.448	0.26
351.657	0.23
351.866	0.33
352.075	0.26
352.284	0.24
352.493	0.18
352.702	0.3
352.911	0.28
353.12	0.23
353.329	0.26
353.538	0.27
353.746	0.25
353.955	0.22
354.164	0.27
354.373	0.22
354.582	0.31
354.79	0.24
354.999	0.31
355.208	0.24
355.416	0.34
355.625	0.2
355.834	0.22
356.042	0.27
356.251	0.27
356.46	0.23
356.668	0.23
356.877	0.35
357.085	0.28
357.294	0.14
357.503	0.26
357.711	0.25
357.92	0.42
358.128	0.28
358.337	0.21
358.545	0.25
358.754	0.25
358.962	0.27
359.17	0.22
359.379	0.27
359.587	0.29
359.796	0.26
360.004	0.34
360.212	0.29
360.421	0.37
360.629	0.22
360.837	0.19
361.046	0.3
361.254	0.38
361.462	0.28
361.67	0.21
361.879	0.27
362.087	0.34
362.295	0.28
362.503	0.23
362.711	0.19
362.92	0.25
363.128	0.21
363.336	0.21
363.544	0.19
363.752	0.21
363.96	0.22
364.168	0.25
364.376	0.3
364.584	0.31
364.792	0.35
365	0.28
365.208	0.28
365.416	0.31
365.624	0.29
365.832	0.21
366.04	0.32
366.248	0.29
366.456	0.26
366.664	0.29
366.872	0.3
367.079	0.25
367.287	0.23
367.495	0.26
367.703	0.29
367.911	0.29
368.118	0.26
368.326	0.2
368.534	0.21
368.742	0.28
368.949	0.2
369.157	0.16
369.365	0.27
369.572	0.23
369.78	0.19
369.988	0.27
370.195	0.28
370.403	0.32
370.61	0.23
370.818	0.26
371.026	0.32
371.233	0.23
371.441	0.32
371.648	0.25
371.856	0.29
372.063	0.3
372.271	0.23
372.478	0.17
372.685	0.24
372.893	0.3
373.1	0.22
373.308	0.22
373.515	0.35
373.722	0.32
373.93	0.3
374.137	0.29
374.344	0.34
374.552	0.31
374.759	0.29
374.966	0.24
375.173	0.22
375.381	0.33
375.588	0.26
375.795	0.2
376.002	0.23
376.209	0.25
376.417	0.26
376.624	0.3
376.831	0.33
377.038	0.28
377.245	0.18
377.452	0.22
377.659	0.27
377.866	0.23
378.073	0.28
378.28	0.26
378.487	0.31
378.694	0.33
378.901	0.32
379.108	0.25
379.315	0.36
379.522	0.38
379.729	0.24
379.936	0.27
380.143	0.32
380.35	0.33
380.557	0.26
380.763	0.32
380.97	0.29
381.177	0.31
381.384	0.3
381.591	0.24
381.797	0.27
382.004	0.32
382.211	0.34
382.418	0.19
382.624	0.33
382.831	0.34
383.038	0.26
383.244	0.3
383.451	0.29
383.658	0.28
383.864	0.28
384.071	0.19
384.277	0.36
384.484	0.27
384.69	0.34
384.897	0.26
385.103	0.25
385.31	0.24
385.516	0.24
385.723	0.23
385.929	0.28
386.136	0.26
386.342	0.31
386.549	0.27
386.755	0.33
386.961	0.32
387.168	0.27
387.374	0.27
387.58	0.32
387.787	0.31
387.993	0.31
388.199	0.29
388.406	0.25
388.612	0.28
388.818	0.25
389.024	0.23
389.231	0.29
389.437	0.42
389.643	0.31
389.849	0.3
390.055	0.3
390.261	0.26
390.467	0.35
390.674	0.31
390.88	0.32
391.086	0.33
391.292	0.27
391.498	0.36
391.704	0.33
391.91	0.25
392.116	0.27
392.322	0.2
392.528	0.35
392.734	0.28
392.94	0.34
393.146	0.29
393.352	0.31
393.557	0.3
393.763	0.32
393.969	0.37
394.175	0.34
394.381	0.34
394.587	0.24
394.792	0.32
394.998	0.38
395.204	0.36
395.41	0.28
395.615	0.32
395.821	0.31
396.027	0.34
396.233	0.32
396.438	0.31
396.644	0.42
396.85	0.33
397.055	0.35
397.261	0.38
397.466	0.33
397.672	0.36
397.878	0.34
398.083	0.31
398.289	0.33
398.494	0.42
398.7	0.36
398.905	0.27
399.111	0.47
399.316	0.31
399.522	0.35
399.727	0.38
399.932	0.35
400.138	0.32
400.343	0.33
400.549	0.31
400.754	0.38
400.959	0.41
401.165	0.37
401.37	0.38
401.575	0.49
401.78	0.39
401.986	0.36
402.191	0.36
402.396	0.41
402.601	0.44
402.807	0.43
403.012	0.39
403.217	0.46
403.422	0.44
403.627	0.42
403.832	0.38
404.037	0.47
404.243	0.44
404.448	0.39
404.653	0.44
404.858	0.53
405.063	0.47
405.268	0.41
405.473	0.37
405.678	0.43
405.883	0.61
406.088	0.49
406.293	0.43
406.498	0.47
406.703	0.52
406.907	0.47
407.112	0.43
407.317	0.56
407.522	0.59
407.727	0.48
407.932	0.5
408.136	0.68
408.341	0.54
408.546	0.62
408.751	0.57
408.956	0.61
409.16	0.73
409.365	0.64
409.57	0.61
409.774	0.65
409.979	0.7
410.184	0.72
410.388	0.64
410.593	0.74
410.798	0.78
411.002	0.74
411.207	0.82
411.411	0.87
411.616	0.78
411.82	0.84
412.025	0.86
412.229	0.87
412.434	0.96
412.638	0.92
412.843	0.9
413.047	1
413.252	0.94
413.456	1.07
413.66	1.13
413.865	1.05
414.069	1.18
414.273	1.11
414.478	1.1
414.682	1.22
414.886	1.19
415.091	1.22
415.295	1.3
415.499	1.45
415.703	1.44
415.908	1.52
416.112	1.43
416.316	1.61
416.52	1.55
416.724	1.61
416.929	1.66
417.133	1.9
417.337	1.83
417.541	1.85
417.745	1.92
417.949	2.02
418.153	2.03
418.357	2.1
418.561	2.34
418.765	2.23
418.969	2.41
419.173	2.47
419.377	2.46
419.581	2.74
419.785	2.77
419.989	2.73
420.193	2.86
420.397	2.9
420.601	3.12
420.804	3.17
421.008	3.11
421.212	3.37
421.416	3.37
421.62	3.41
421.823	3.42
422.027	3.63
422.231	3.56
422.435	3.58
422.638	3.69
422.842	3.79
423.046	3.82
423.249	4.04
423.453	4.07
423.657	4.31
423.86	4.32
424.064	4.46
424.268	4.66
424.471	4.61
424.675	4.84
424.878	4.83
425.082	5.01
425.285	5.33
425.489	5.21
425.692	5.26
425.896	5.39
426.099	5.64
426.303	5.72
426.506	5.85
426.71	6.09
426.913	6.27
427.116	6.54
427.32	6.48
427.523	6.59
427.726	6.85
427.93	6.99
428.133	7.28
428.336	7.38
428.54	7.57
428.743	7.69
428.946	8.04
429.149	7.98
429.353	8.13
429.556	8.11
429.759	8.17
429.962	8.36
430.165	8.57
430.368	8.1
430.571	8.21
430.775	8.23
430.978	8.18
431.181	8.23
431.384	8.4
431.587	8.47
431.79	8.79
431.993	8.79
432.196	9.1
432.399	9.44
432.602	9.54
432.805	9.73
433.008	10.17
433.211	10.07
433.414	10.44
433.616	10.48
433.819	10.39
434.022	10.61
434.225	10.78
434.428	10.77
434.631	11.21
434.833	10.97
435.036	11.24
435.239	11.43
435.442	11.51
435.645	11.59
435.847	11.8
436.05	11.95
436.253	12.19
436.455	12.27
436.658	12.15
436.861	12.45
437.063	12.58
437.266	12.63
437.468	12.89
437.671	13.2
437.874	13.21
438.076	13.06
438.279	13.58
438.481	13.61
438.684	14.38
438.886	13.96
439.089	14.35
439.291	14.26
439.494	14.63
439.696	14.9
439.899	15.27
440.101	15.79
440.303	15.89
440.506	16.63
440.708	16.45
440.91	16.64
441.113	16.75
441.315	17.16
441.517	17
441.72	17.41
441.922	17.01
442.124	16.93
442.326	17.3
442.529	17.59
442.731	17.47
442.933	17.88
443.135	17.64
443.337	17.59
443.539	18.1
443.742	17.81
443.944	18.45
444.146	18.14
444.348	18.11
444.55	18.06
444.752	18.18
444.954	18.32
445.156	18.09
445.358	18.61
445.56	18.72
445.762	18.64
445.964	19
446.166	18.69
446.368	18.74
446.57	18.71
446.772	18.28
446.974	18.04
447.175	18.41
447.377	17.96
447.579	18.47
447.781	18.07
447.983	17.87
448.184	17.5
448.386	17.81
448.588	17.36
448.79	17.18
448.991	17.51
449.193	17.59
449.395	16.83
449.597	16.47
449.798	16.33
450	15.82
450.202	15.76
450.403	15.85
450.605	15.67
450.806	15.21
451.008	15.04
451.21	14.94
451.411	14.53
451.613	13.77
451.814	14.04
452.016	13.99
452.217	13.1
452.419	13.19
452.62	12.91
452.821	12.68
453.023	12.57
453.224	12.16
453.426	11.79
453.627	10.98
453.828	10.98
454.03	11.24
454.231	11.12
454.432	10.92
454.634	10.69
454.835	10.41
455.036	10.34
455.238	9.92
455.439	9.67
455.64	9.46
455.841	9.24
456.042	9.34
456.244	9.07
456.445	8.86
456.646	8.58
456.847	8.35
457.048	8.4
457.249	8.38
457.45	8.23
457.651	7.7
457.852	7.48
458.054	7.18
458.255	7.1
458.456	7.23
458.657	7.02
458.858	6.6
459.058	6.56
459.259	6.64
459.46	6.25
459.661	6.34
459.862	6.38
460.063	6.31
460.264	6.2
460.465	5.83
460.666	6.01
460.866	5.69
461.067	5.46
461.268	5.52
461.469	5.48
461.67	5.28
461.87	5.12
462.071	5.17
462.272	5.13
462.473	5.07
462.673	5.17
462.874	5.08
463.075	5.06
463.275	4.99
463.476	5.13
463.676	4.96
463.877	4.9
464.078	4.89
464.278	4.87
464.479	4.78
464.679	4.62
464.88	4.67
465.08	4.63
465.281	4.47
465.481	4.22
465.682	3.95
465.882	4.09
466.083	4.04
466.283	4.02
466.483	3.97
466.684	3.68
466.884	3.65
467.085	3.58
467.285	3.68
467.485	3.59
467.686	3.44
467.886	3.34
468.086	3.27
468.286	3.3
468.487	3.4
468.687	3.16
468.887	3.1
469.087	3.29
469.287	3.22
469.488	3.09
469.688	3.15
469.888	3.16
470.088	3.1
470.288	3.01
470.488	2.97
470.688	2.89
470.888	2.78
471.088	2.65
471.288	2.74
471.488	2.74
471.688	2.7
471.888	2.64
472.088	2.83
472.288	2.66
472.488	2.55
472.688	2.57
472.888	2.58
473.088	2.6
473.288	2.46
473.488	2.43
473.688	2.56
473.887	2.43
474.087	2.37
474.287	2.4
474.487	2.35
474.687	2.45
474.886	2.35
475.086	2.29
475.286	2.28
475.486	2.28
475.685	2.21
475.885	2.23
476.085	2.29
476.284	2.23
476.484	2.23
476.684	2.2
476.883	2.27
477.083	2.16
477.282	2.14
477.482	2.2
477.681	2.11
477.881	2.08
478.08	2.05
478.28	2.04
478.479	2.05
478.679	2.11
478.878	2.03
479.078	2.02
479.277	2.06
479.477	2.04
479.676	2.01
479.875	2.01
480.075	1.93
480.274	2.07
480.473	2.03
480.673	2
480.872	2.12
481.071	1.98
481.271	2.06
481.47	1.95
481.669	1.96
481.868	1.96
482.067	2
482.267	1.94
482.466	1.92
482.665	1.94
482.864	1.96
483.063	1.88
483.262	2.02
483.461	2.03
483.661	2.06
483.86	1.99
484.059	2.03
484.258	2.01
484.457	1.99
484.656	2
484.855	2.11
485.054	1.93
485.253	1.97
485.452	1.95
485.651	2.04
485.849	2.04
486.048	1.96
486.247	2.02
486.446	2.08
486.645	2.04
486.844	2.07
487.043	2.05
487.241	2.11
487.44	2.07
487.639	2.11
487.838	2.13
488.037	2.09
488.235	2.23
488.434	2.15
488.633	2.06
488.831	2.2
489.03	2.2
489.229	2.18
489.427	2.19
489.626	2.25
489.825	2.24
490.023	2.32
490.222	2.29
490.42	2.34
490.619	2.39
490.817	2.36
491.016	2.31
491.214	2.4
491.413	2.43
491.611	2.36
491.81	2.38
492.008	2.44
492.207	2.55
492.405	2.53
492.604	2.47
492.802	2.55
493	2.63
493.199	2.55
493.397	2.64
493.595	2.68
493.794	2.61
493.992	2.79
494.19	2.72
494.388	2.82
494.587	2.77
494.785	2.79
494.983	2.71
495.181	2.82
495.379	2.9
495.578	2.94
495.776	2.93
495.974	2.93
496.172	2.94
496.37	3.08
496.568	3.16
496.766	3.09
496.964	3.26
497.162	3.17
497.36	3.2
497.558	3.23
497.756	3.32
497.954	3.31
498.152	3.33
498.35	3.45
498.548	3.35
498.746	3.41
498.944	3.38
499.142	3.45
499.34	3.52
499.538	3.63
499.736	3.52
499.933	3.71
500.131	3.64
500.329	3.77
500.527	3.78
500.725	3.86
500.922	3.91
501.12	3.91
501.318	3.98
501.516	3.97
501.713	4.08
501.911	3.99
502.109	3.96
502.306	4.13
502.504	4
502.701	4.09
502.899	4.2
503.097	4.36
503.294	4.26
503.492	4.31
503.689	4.37
503.887	4.36
504.084	4.47
504.282	4.45
504.479	4.42
504.677	4.65
504.874	4.55
505.072	4.47
505.269	4.67
505.466	4.69
505.664	4.79
505.861	4.63
506.059	4.75
506.256	4.87
506.453	4.81
506.651	4.95
506.848	4.99
507.045	4.96
507.242	4.99
507.44	5.09
507.637	5.14
507.834	5.08
508.031	5.23
508.229	5.16
508.426	5.13
508.623	5.28
508.82	5.33
509.017	5.27
509.214	5.3
509.411	5.47
509.608	5.4
509.805	5.48
510.003	5.51
510.2	5.56
510.397	5.71
510.594	5.65
510.791	5.63
510.988	5.74
511.184	5.63
511.381	5.57
511.578	5.65
511.775	5.88
511.972	5.78
512.169	5.81
512.366	5.86
512.563	5.98
512.76	6.03
512.956	6.03
513.153	5.99
513.35	5.95
513.547	5.91
513.744	6.07
513.94	6.04
514.137	6.16
514.334	6.17
514.53	6.24
514.727	6.34
514.924	6.31
515.12	6.26
515.317	6.24
515.514	6.27
515.71	6.24
515.907	6.46
516.103	6.48
516.3	6.36
516.497	6.54
516.693	6.49
516.89	6.53
517.086	6.54
517.283	6.58
517.479	6.44
517.676	6.62
517.872	6.69
518.068	6.67
518.265	6.63
518.461	6.6
518.658	6.74
518.854	6.77
519.05	6.79
519.247	6.83
519.443	6.78
519.639	6.94
519.836	6.8
520.032	6.75
520.228	6.95
520.424	6.94
520.621	6.99
520.817	7
521.013	6.92
521.209	7.17
521.405	7.1
521.601	7.12
521.798	7.05
521.994	7.07
522.19	7
522.386	7.11
522.582	7.15
522.778	7.22
522.974	7.13
523.17	7.16
523.366	7.12
523.562	7.16
523.758	7.24
523.954	7.08
524.15	7.3
524.346	7.35
524.542	7.32
524.738	7.27
524.934	7.39
525.129	7.36
525.325	7.31
525.521	7.29
525.717	7.49
525.913	7.33
526.109	7.36
526.304	7.51
526.5	7.47
526.696	7.52
526.892	7.43
527.087	7.63
527.283	7.56
527.479	7.52
527.674	7.31
527.87	7.6
528.066	7.55
528.261	7.56
528.457	7.48
528.653	7.64
528.848	7.64
529.044	7.66
529.239	7.54
529.435	7.54
529.63	7.57
529.826	7.55
530.021	7.6
530.217	7.66
530.412	7.61
530.608	7.68
530.803	7.58
530.999	7.53
531.194	7.69
531.389	7.74
531.585	7.73
531.78	7.86
531.975	7.71
532.171	7.84
532.366	7.77
532.561	7.79
532.757	7.76
532.952	7.91
533.147	7.71
533.342	7.84
533.538	7.72
533.733	7.93
533.928	7.65
534.123	7.85
534.318	7.83
534.513	7.76
534.709	7.97
534.904	7.89
535.099	7.99
535.294	7.9
535.489	7.95
535.684	7.89
535.879	7.87
536.074	7.92
536.269	7.98
536.464	7.97
536.659	7.91
536.854	7.93
537.049	8.01
537.244	7.95
537.439	7.94
537.634	7.96
537.828	8
538.023	7.97
538.218	7.92
538.413	7.88
538.608	7.96
538.803	7.96
538.997	7.93
539.192	7.97
539.387	7.94
539.582	7.87
539.776	7.86
539.971	8.02
540.166	8.04
540.36	7.83
540.555	8.08
540.75	8.02
540.944	8.05
541.139	8.05
541.334	8.02
541.528	8.06
541.723	8.1
541.917	8.07
542.112	7.91
542.306	7.93
542.501	7.95
542.695	8.02
542.89	7.99
543.084	8.04
543.279	8.04
543.473	8.07
543.668	8.12
543.862	7.95
544.056	7.92
544.251	8.14
544.445	8.13
544.64	8.17
544.834	7.89
545.028	7.7
545.222	8.14
545.417	8.25
545.611	8.17
545.805	8.08
546	7.94
546.194	8.17
546.388	8.16
546.582	8.09
546.776	8.05
546.97	8.14
547.165	8.12
547.359	8.11
547.553	8.08
547.747	8.07
547.941	8.25
548.135	8.01
548.329	8.11
548.523	8.1
548.717	8.09
548.911	7.98
549.105	8.03
549.299	8.17
549.493	8.13
549.687	8.01
549.881	8.17
550.075	8.13
550.269	7.98
550.463	8.19
550.657	8.15
550.85	8.14
551.044	8.01
551.238	8.12
551.432	8.12
551.626	8.16
551.82	8.21
552.013	8.04
552.207	8.16
552.401	8.22
552.594	8.12
552.788	8.01
552.982	8.06
553.176	8.02
553.369	8.29
553.563	8.14
553.756	8.08
553.95	8.15
554.144	8.19
554.337	8.17
554.531	7.99
554.724	8.13
554.918	8.2
555.111	8.11
555.305	8.16
555.498	8.09
555.692	8.24
555.885	8.15
556.079	8.13
556.272	8.13
556.466	8.16
556.659	8.06
556.852	8.24
557.046	8.06
557.239	7.98
557.432	8.04
557.626	8.16
557.819	8.21
558.012	8.14
558.206	8.23
558.399	8.14
558.592	8.08
558.785	8.03
558.979	8.08
559.172	8.13
559.365	8.11
559.558	8.06
559.751	8.04
559.944	8.23
560.138	8.07
560.331	8.21
560.524	8.18
560.717	8.13
560.91	8.11
561.103	8.14
561.296	7.99
561.489	8.21
561.682	8.21
561.875	8.19
562.068	8.25
562.261	7.98
562.454	8.33
562.647	8.11
562.84	8.15
563.032	8.13
563.225	8.07
563.418	8.16
563.611	8.19
563.804	8.25
563.997	7.98
564.19	7.94
564.382	8.22
564.575	8.13
564.768	8.07
564.961	8.17
565.153	8.11
565.346	8.02
565.539	8.18
565.731	8.05
565.924	8.17
566.117	8.23
566.309	8.12
566.502	8.06
566.695	8.03
566.887	8.18
567.08	8.1
567.272	8.11
567.465	8.02
567.657	8.11
567.85	8.03
568.042	8.12
568.235	8.12
568.427	7.98
568.62	8.1
568.812	8.02
569.005	8.1
569.197	8.02
569.389	8.07
569.582	8.1
569.774	8.06
569.966	7.98
570.159	7.96
570.351	8.03
570.543	8
570.736	8.09
570.928	7.94
571.12	8.08
571.312	7.98
571.505	7.81
571.697	8.07
571.889	7.97
572.081	8.01
572.273	7.96
572.465	8.04
572.658	8
572.85	8.01
573.042	8.09
573.234	7.93
573.426	8.01
573.618	7.95
573.81	7.94
574.002	7.96
574.194	8
574.386	7.92
574.578	7.86
574.77	7.9
574.962	7.95
575.154	7.83
575.346	7.86
575.538	7.93
575.729	7.91
575.921	7.94
576.113	8.02
576.305	8.03
576.497	8.02
576.689	7.77
576.88	7.75
577.072	8.02
577.264	7.94
577.456	7.91
577.647	7.8
577.839	8.06
578.031	7.83
578.223	7.8
578.414	7.76
578.606	7.86
578.798	7.99
578.989	7.79
579.181	7.92
579.372	7.82
579.564	7.9
579.755	7.81
579.947	7.76
580.139	7.88
580.33	7.64
580.522	7.81
580.713	7.74
580.905	7.73
581.096	7.88
581.287	7.72
581.479	7.74
581.67	7.81
581.862	7.69
582.053	7.73
582.244	7.59
582.436	7.85
582.627	7.68
582.818	7.7
583.01	7.68
583.201	7.77
583.392	7.71
583.583	7.63
583.775	7.52
583.966	7.61
584.157	7.67
584.348	7.72
584.54	7.61
584.731	7.66
584.922	7.55
585.113	7.52
585.304	7.61
585.495	7.61
585.686	7.67
585.877	7.64
586.068	7.67
586.259	7.65
586.45	7.56
586.641	7.51
586.832	7.69
587.023	7.49
587.214	7.43
587.405	7.57
587.596	7.39
587.787	7.42
587.978	7.46
588.169	7.41
588.36	7.36
588.551	7.42
588.742	7.46
588.932	7.54
589.123	7.25
589.314	7.5
589.505	7.36
589.696	7.42
589.886	7.38
590.077	7.33
590.268	7.34
590.458	7.25
590.649	7.12
590.84	7.34
591.03	7.33
591.221	7.32
591.412	7.17
591.602	7.39
591.793	7.29
591.984	7.26
592.174	7.24
592.365	7.45
592.555	7.14
592.746	7.15
592.936	7.19
593.127	7.19
593.317	7.27
593.508	7.22
593.698	7.11
593.889	7.1
594.079	7.13
594.269	7.03
594.46	7.06
594.65	7.1
594.84	7.08
595.031	6.92
595.221	7.04
595.411	7
595.602	7.09
595.792	6.96
595.982	6.91
596.172	7.08
596.363	6.92
596.553	6.95
596.743	7
596.933	6.94
597.123	6.92
597.314	6.83
597.504	6.8
597.694	6.9
597.884	6.87
598.074	6.91
598.264	6.86
598.454	6.89
598.644	6.82
598.834	6.8
599.024	6.71
599.214	6.71
599.404	6.84
599.594	6.75
599.784	6.77
599.974	6.79
600.164	6.74
600.354	6.64
600.544	6.59
600.734	6.69
600.924	6.63
601.114	6.57
601.303	6.58
601.493	6.63
601.683	6.63
601.873	6.63
602.063	6.49
602.252	6.55
602.442	6.42
602.632	6.46
602.821	6.42
603.011	6.45
603.201	6.45
603.39	6.38
603.58	6.27
603.77	6.37
603.959	6.49
604.149	6.39
604.339	6.36
604.528	6.46
604.718	6.39
604.907	6.3
605.097	6.19
605.286	6.24
605.476	6.26
605.665	6.31
605.855	6.17
606.044	6.28
606.234	6.27
606.423	6.23
606.612	6.19
606.802	6.13
606.991	6.18
607.181	6.27
607.37	6.14
607.559	5.85
607.749	6.16
607.938	6.06
608.127	6.09
608.316	6.07
608.506	6.04
608.695	6.12
608.884	6.01
609.073	6.03
609.263	6.05
609.452	6.08
609.641	5.87
609.83	5.88
610.019	5.93
610.208	5.81
610.397	5.87
610.586	5.93
610.775	5.88
610.965	5.82
611.154	5.74
611.343	5.83
611.532	5.66
611.721	5.79
611.91	5.76
612.099	5.73
612.287	5.63
612.476	5.59
612.665	5.8
612.854	5.63
613.043	5.66
613.232	5.62
613.421	5.61
613.61	5.58
613.798	5.62
613.987	5.57
614.176	5.58
614.365	5.54
614.554	5.56
614.742	5.57
614.931	5.4
615.12	5.59
615.309	5.51
615.497	5.37
615.686	5.37
615.875	5.42
616.063	5.38
616.252	5.42
616.44	5.35
616.629	5.34
616.818	5.33
617.006	5.33
617.195	5.28
617.383	5.24
617.572	5.18
617.76	5.21
617.949	5.19
618.137	5.3
618.326	5.22
618.514	5.05
618.703	5.04
618.891	5.22
619.079	5.04
619.268	5.2
619.456	5.01
619.644	5.19
619.833	4.99
620.021	5.04
620.209	4.94
620.398	5
620.586	4.97
620.774	5.02
620.962	4.94
621.151	5.03
621.339	4.88
621.527	4.88
621.715	4.84
621.903	4.84
622.092	4.79
622.28	4.93
622.468	4.69
622.656	4.84
622.844	4.78
623.032	4.91
623.22	4.68
623.408	4.88
623.596	4.75
623.784	4.8
623.972	4.62
624.16	4.76
624.348	4.76
624.536	4.77
624.724	4.58
624.912	4.63
625.1	4.68
625.288	4.6
625.476	4.51
625.664	4.67
625.851	4.56
626.039	4.56
626.227	4.52
626.415	4.52
626.603	4.43
626.79	4.5
626.978	4.48
627.166	4.53
627.354	4.38
627.541	4.37
627.729	4.3
627.917	4.5
628.104	4.42
628.292	4.3
628.48	4.31
628.667	4.31
628.855	4.37
629.042	4.35
629.23	4.27
629.418	4.3
629.605	4.29
629.793	4.17
629.98	4.16
630.168	4.16
630.355	4.22
630.543	4.16
630.73	4.1
630.917	4.13
631.105	4.24
631.292	4.17
631.48	4.07
631.667	4.14
631.854	4.03
632.042	4.06
632.229	3.96
632.416	4.08
632.604	3.98
632.791	3.91
632.978	4
633.165	3.99
633.353	4.03
633.54	3.99
633.727	3.81
633.914	3.9
634.101	3.85
634.289	3.95
634.476	3.79
634.663	3.79
634.85	3.83
635.037	3.74
635.224	3.67
635.411	3.85
635.598	3.79
635.785	3.73
635.972	3.66
636.159	3.69
636.346	3.67
636.533	3.62
636.72	3.64
636.907	3.66
637.094	3.65
637.281	3.49
637.468	3.6
637.655	3.59
637.842	3.6
638.029	3.56
638.215	3.54
638.402	3.5
638.589	3.47
638.776	3.45
638.963	3.42
639.149	3.54
639.336	3.5
639.523	3.46
639.709	3.45
639.896	3.39
640.083	3.42
640.27	3.49
640.456	3.37
640.643	3.41
640.829	3.28
641.016	3.3
641.203	3.26
641.389	3.33
641.576	3.31
641.762	3.31
641.949	3.28
642.135	3.27
642.322	3.2
642.508	3.14
642.695	3.23
642.881	3.16
643.068	3.19
643.254	3.15
643.441	3.19
643.627	3.19
643.813	3.07
644	3.15
644.186	3.01
644.372	3.17
644.559	3.09
644.745	3.08
644.931	3.02
645.118	3.03
645.304	3.05
645.49	2.97
645.676	2.97
645.862	2.96
646.049	3.04
646.235	2.99
646.421	3.07
646.607	3.02
646.793	2.92
646.979	2.83
647.165	2.95
647.352	2.9
647.538	2.88
647.724	2.89
647.91	2.83
648.096	2.88
648.282	2.87
648.468	2.81
648.654	2.84
648.84	2.83
649.026	2.83
649.212	2.69
649.397	2.72
649.583	2.73
649.769	2.73
649.955	2.7
650.141	2.7
650.327	2.75
650.513	2.66
650.698	2.71
650.884	2.57
651.07	2.73
651.256	2.65
651.442	2.63
651.627	2.51
651.813	2.61
651.999	2.57
652.184	2.57
652.37	2.58
652.556	2.53
652.741	2.61
652.927	2.45
653.113	2.51
653.298	2.5
653.484	2.49
653.669	2.45
653.855	2.45
654.04	2.55
654.226	2.49
654.412	2.48
654.597	2.37
654.782	2.49
654.968	2.46
655.153	2.37
655.339	2.38
655.524	2.34
655.71	2.38
655.895	2.36
656.08	2.35
656.266	2.47
656.451	2.32
656.636	2.25
656.822	2.33
657.007	2.27
657.192	2.27
657.378	2.22
657.563	2.3
657.748	2.32
657.933	2.28
658.118	2.21
658.304	2.24
658.489	2.31
658.674	2.24
658.859	2.15
659.044	2.16
659.229	2.22
659.414	2.16
659.599	2.19
659.785	2.07
659.97	2.14
660.155	2.14
660.34	2.2
660.525	2.12
660.71	2.06
660.895	2.09
661.08	2.11
661.264	1.99
661.449	2.18
661.634	2.07
661.819	2.09
662.004	2.04
662.189	1.98
662.374	2.02
662.559	1.93
662.743	1.91
662.928	1.96
663.113	1.95
663.298	1.92
663.483	1.94
663.667	1.99
663.852	1.91
664.037	1.99
664.221	1.93
664.406	1.97
664.591	1.92
664.775	1.92
664.96	1.91
665.145	1.9
665.329	1.91
665.514	1.84
665.698	1.82
665.883	1.75
666.068	1.96
666.252	1.84
666.437	1.79
666.621	1.82
666.806	1.88
666.99	1.78
667.174	1.79
667.359	1.9
667.543	1.82
667.728	1.74
667.912	1.69
668.096	1.74
668.281	1.74
668.465	1.75
668.649	1.71
668.834	1.75
669.018	1.71
669.202	1.73
669.387	1.65
669.571	1.79
669.755	1.65
669.939	1.68
670.124	1.65
670.308	1.72
670.492	1.71
670.676	1.64
670.86	1.69
671.044	1.54
671.228	1.63
671.413	1.51
671.597	1.61
671.781	1.61
671.965	1.65
672.149	1.61
672.333	1.56
672.517	1.62
672.701	1.59
672.885	1.54
673.069	1.48
673.253	1.59
673.437	1.55
673.621	1.48
673.804	1.54
673.988	1.52
674.172	1.5
674.356	1.45
674.54	1.54
674.724	1.62
674.908	1.49
675.091	1.5
675.275	1.52
675.459	1.48
675.643	1.43
675.826	1.45
676.01	1.43
676.194	1.44
676.377	1.49
676.561	1.5
676.745	1.46
676.928	1.42
677.112	1.53
677.296	1.42
677.479	1.39
677.663	1.39
677.846	1.46
678.03	1.39
678.213	1.34
678.397	1.41
678.58	1.38
678.764	1.35
678.947	1.31
679.131	1.36
679.314	1.49
679.498	1.35
679.681	1.39
679.865	1.39
680.048	1.36
680.231	1.28
680.415	1.29
680.598	1.31
680.781	1.31
680.965	1.28
681.148	1.34
681.331	1.28
681.514	1.33
681.698	1.26
681.881	1.31
682.064	1.34
682.247	1.32
682.43	1.17
682.614	1.29
682.797	1.32
682.98	1.29
683.163	1.11
683.346	1.23
683.529	1.2
683.712	1.15
683.895	1.25
684.078	1.17
684.261	1.21
684.444	1.22
684.627	1.24
684.81	1.15
684.993	1.16
685.176	1.2
685.359	1.12
685.542	1.13
685.725	1.29
685.908	1.16
686.091	1.15
686.274	1.18
686.457	1.21
686.639	1.13
686.822	1.2
687.005	1.13
687.188	1.18
687.371	1.23
687.553	1.18
687.736	1.14
687.919	1.23
688.102	1.16
688.284	1.03
688.467	1.05
688.65	1.11
688.832	1.03
689.015	1.07
689.197	1.01
689.38	1.2
689.563	1.18
689.745	1.04
689.928	1.06
690.11	1.06
690.293	1.03
690.475	0.95
690.658	1.02
690.84	0.96
691.023	1
691.205	0.98
691.388	1.05
691.57	1.1
691.752	1.03
691.935	0.96
692.117	0.97
692.3	1.06
692.482	0.99
692.664	0.98
692.847	0.98
693.029	1.05
693.211	1.11
693.393	0.93
693.576	0.87
693.758	0.97
693.94	0.95
694.122	0.96
694.304	0.89
694.487	0.91
694.669	1.01
694.851	0.88
695.033	0.93
695.215	0.95
695.397	0.86
695.579	0.91
695.761	0.84
695.943	0.79
696.125	0.99
696.308	0.94
696.49	0.81
696.671	1.06
696.853	0.87
697.035	1.1
697.217	0.84
697.399	0.99
697.581	0.85
697.763	0.91
697.945	0.82
698.127	0.91
698.309	0.94
698.491	0.91
698.672	0.93
698.854	0.96
699.036	0.98
699.218	0.82
699.399	0.97
699.581	0.87
699.763	0.89
699.945	0.75
700.126	0.79
700.308	0.91
700.49	0.83
700.671	0.78
700.853	0.75
701.035	0.76
701.216	0.81
701.398	0.74
701.579	0.78
701.761	0.9
701.943	0.7
702.124	0.76
702.306	0.75
702.487	0.96
702.669	0.83
702.85	0.71
703.031	0.66
703.213	0.89
703.394	0.82
703.576	0.74
703.757	0.95
703.938	0.86
704.12	1.01
704.301	0.78
704.483	0.72
704.664	0.78
704.845	0.88
705.026	0.83
705.208	0.74
705.389	0.79
705.57	0.79
705.751	0.72
705.933	0.74
706.114	0.78
706.295	0.82
706.476	0.62
706.657	0.85
706.838	0.73
707.02	0.81
707.201	0.73
707.382	0.68
707.563	0.8
707.744	0.7
707.925	0.63
708.106	0.71
708.287	0.79
708.468	0.89
708.649	0.75
708.83	0.76
709.011	0.7
709.192	0.79
709.373	0.7
709.554	0.7
709.734	0.77
709.915	0.72
710.096	0.63
710.277	0.55
710.458	0.68
710.639	0.76
710.819	0.59
711	0.6
711.181	0.74
711.362	0.82
711.542	0.71
711.723	0.66
711.904	0.78
712.085	0.73
712.265	0.69
712.446	0.56
712.627	0.68
712.807	0.66
712.988	0.62
713.168	0.58
713.349	0.73
713.53	0.49
713.71	0.6
713.891	0.56
714.071	0.64
714.252	0.56
714.432	0.6
714.613	0.51
714.793	0.65
714.974	0.71
715.154	0.76
715.334	0.65
715.515	0.76
715.695	0.53
715.876	0.6
716.056	0.54
716.236	0.56
716.417	0.56
716.597	0.58
716.777	0.81
716.957	0.63
717.138	0.68
717.318	0.6
717.498	0.49
717.678	0.64
717.859	0.7
718.039	0.57
718.219	0.66
718.399	0.58
718.579	0.51
718.759	0.49
718.939	0.63
719.12	0.59
719.3	0.5
719.48	0.48
719.66	0.47
719.84	0.64
720.02	0.58
720.2	0.48
720.38	0.55
720.56	0.79
720.74	0.54
720.92	0.56
721.1	0.69
721.279	0.61
721.459	0.57
721.639	0.44
721.819	0.57
721.999	0.56
722.179	0.64
722.359	0.4
722.538	0.57
722.718	0.56
722.898	0.52
723.078	0.51
723.257	0.48
723.437	0.6
723.617	0.54
723.797	0.58
723.976	0.52
724.156	0.73
724.336	0.74
724.515	0.72
724.695	0.33
724.874	0.57
725.054	0.57
725.234	0.5
725.413	0.53
725.593	0.46
725.772	0.56
725.952	0.53
726.131	0.51
726.311	0.53
726.49	0.54
726.67	0.45
726.849	0.52
727.028	0.63
727.208	0.47
727.387	0.46
727.567	0.43
727.746	0.47
727.925	0.47
728.105	0.41
728.284	0.46
728.463	0.45
728.643	0.53
728.822	0.43
729.001	0.47
729.18	0.53
729.359	0.55
729.539	0.46
729.718	0.48
729.897	0.62
730.076	0.48
730.255	0.4
730.434	0.46
730.614	0.52
730.793	0.67
730.972	0.5
731.151	0.49
731.33	0.65
731.509	0.59
731.688	0.43
731.867	0.51
732.046	0.32
732.225	0.66
732.404	0.46
732.583	0.42
732.762	0.52
732.941	0.58
733.12	0.6
733.298	0.57
733.477	0.6
733.656	0.4
733.835	0.3
734.014	0.6
734.193	0.52
734.371	0.52
734.55	0.55
734.729	0.38
734.908	0.52
735.086	0.58
735.265	0.6
735.444	0.23
735.623	0.34
735.801	0.43
735.98	0.43
736.159	0.4
736.337	0.58
736.516	0.65
736.694	0.59
736.873	0.48
737.052	0.7
737.23	0.71
737.409	0.52
737.587	0.79
737.766	0.35
737.944	0.38
738.123	0.56
738.301	0.5
738.479	0.48
738.658	0.53
738.836	0.24
739.015	0.45
739.193	0.63
739.371	0.27
739.55	0.47
739.728	0.4
739.906	0.69
740.085	0.56
740.263	0.46
740.441	0.29
740.62	0.77
740.798	0.64
740.976	0.46
741.154	0.26
741.332	0.71
741.511	0.39
741.689	0.53
741.867	0.59
742.045	0.52
742.223	0.54
742.401	0.32
742.579	0.44
742.757	0.58
742.935	0.34
743.114	0.43
743.292	0.47
743.47	0.51
743.648	0.5
743.826	0.49
744.004	0.47
744.181	0.62
744.359	0.47
744.537	0.5
744.715	0.4
744.893	0.45
745.071	0.49
745.249	0.33
745.427	0.39
745.605	0.5
745.782	0.51
745.96	0.58
746.138	0.6
746.316	0.59
746.493	0.39
746.671	0.51
746.849	0.36
747.027	0.65
747.204	0.34
747.382	0.35
747.56	0.32
747.737	0.47
747.915	0.45
748.093	0.49
748.27	0.37
748.448	0.48
748.625	0.2
748.803	0.27
748.98	0.45
749.158	0.49
749.335	0.51
749.513	0.32
749.69	0.31
749.868	0.34
750.045	0.4
750.223	0.4
750.4	0.24
750.578	0.75
750.755	0.5
750.932	0.21
751.11	0.5
751.287	0.28
751.464	0.54
751.642	0.39
751.819	0.44
751.996	0.43
752.173	0.34
752.351	0.29
752.528	0.37
752.705	0.52
752.882	0.27
753.06	0.42
753.237	0.41
753.414	0.53
753.591	0.6
753.768	0.49
753.945	0.28
754.122	0.34
754.299	0.51
754.476	0.34
754.654	0.38
754.831	0.66
755.008	0.47
755.185	0.33
755.362	0.16
755.539	0.45
755.716	0.31
755.892	0.33
756.069	0.42
756.246	0.37
756.423	0.39
756.6	0.57
756.777	0.36
756.954	0.51
757.131	0.37
757.307	0.22
757.484	0.22
757.661	0.41
757.838	0.48
758.015	0.31
758.191	0.49
758.368	0.54
758.545	0.66
758.721	0.28
758.898	0.23
759.075	0.49
759.251	0.5
759.428	0.38
759.605	0.21
759.781	0.38
759.958	0.46
760.134	0.5
760.311	0.22
760.488	0.63
760.664	0.64
760.841	0.39
761.017	0.3
761.194	0.57
761.37	0.61
761.547	0.48
761.723	0.49
761.899	0.63
762.076	0.25
762.252	0.31
762.429	0.31
762.605	0.46
762.781	0.26
762.958	0.44
763.134	0.33
763.31	0.18
763.486	0.59
763.663	0.19
763.839	0.36
764.015	0.17
764.191	0.34
764.368	0.41
764.544	0.2
764.72	0.37
764.896	0.41
765.072	0.41
765.248	0.27
765.425	0.33
765.601	0.32
765.777	0.37
765.953	0.19
766.129	0.28
766.305	0.27
766.481	0.46
766.657	0.41
766.833	0.68
767.009	0.29
767.185	0.32
767.361	0.31
767.537	0.23
767.713	0.51
767.889	0.2
768.065	0.4
768.24	0.38
768.416	0.46
768.592	0.31
768.768	0.35
768.944	0.46
769.12	0.16
769.295	0.37
769.471	0.46
769.647	0.35
769.823	0.54
769.998	0.26
770.174	0.28
770.35	0.73
770.525	0.57
770.701	0.48
770.877	0.25
771.052	0.23
771.228	0.45
771.403	0.43
771.579	0.43
771.755	0.61
771.93	0.34
772.106	0.22
772.281	0.22
772.457	0.41
772.632	0.53
772.808	0.07
772.983	0.35
773.159	0.04
773.334	0.58
773.509	0.34
773.685	0.27
773.86	0.76
774.036	0.7
774.211	0.5
774.386	0.3
774.562	0.45
774.737	0.46
774.912	0.27
775.087	0.36
775.263	0.37
775.438	0.46
775.613	0.29
775.788	0.44
775.964	0.45
776.139	0.9
776.314	0.15
776.489	0.5
776.664	0.5
776.839	0.32
777.014	0.69
777.19	0.48
777.365	0.67
777.54	0.7
777.715	0.29
777.89	0.42
778.065	0.4
778.24	0.5
778.415	0.66
778.59	0.23
778.765	0.45
778.94	0.5
779.115	0.24
779.289	0.41
779.464	0.31
779.639	0.37
779.814	0.22
779.989	0.29
780.164	0.74
780.339	0.51
780.513	0.19
780.688	0.18
780.863	0.36
781.038	0.64
781.212	0.28
781.387	0.41
781.562	0.77
781.737	0.21
781.911	0.57
782.086	0.44
782.261	0.28
782.435	0.69
782.61	0.29
782.784	0.24
782.959	0.79
783.134	0.32
783.308	0.26
783.483	0.3
783.657	0.99
783.832	0.64
784.006	0.1
784.181	0.28
784.355	0.49
784.53	0.18
784.704	0.41
784.878	0.77
785.053	0.65
785.227	0.79
785.402	0.91
785.576	0.38
785.75	0.66
785.925	0.49
786.099	0.46
786.273	0.35
786.448	0.69
786.622	0.69
786.796	0.27
786.97	0.54
787.145	1.03
787.319	0.1
787.493	0.34
787.667	0.06
787.841	0.54
788.015	0.96
788.19	0.1
788.364	0.57
788.538	0.83
788.712	0.73
788.886	0.23
789.06	0.81
789.234	0.92
789.408	0.17
789.582	0.27
789.756	0.16
789.93	0.24
790.104	0.56
790.278	0.19
790.452	0.18
790.626	0.66
790.8	0.28
790.973	0.53
791.147	0.87
791.321	0.72
791.495	0.86
791.669	0.63
791.843	0.53
792.016	0.53
792.19	0.91
792.364	0.33
792.538	1.11
792.711	0.89
792.885	0.41
793.059	0.29
793.233	-0.01
793.406	0.65
793.58	0.53
793.754	0.79
793.927	0.26
794.101	0.69
794.274	0.47
794.448	0.51
794.622	0.17
794.795	0.93
794.969	0.22
795.142	0.79
795.316	0.27
795.489	0.49
795.663	1.04
795.836	0.43
796.009	0.06
796.183	0.97
796.356	0.58
796.53	0.54
796.703	0.53
796.876	1.09
797.05	0.46
797.223	0.32
797.396	0.58
797.57	0.47
797.743	0.9
797.916	0.46
798.09	0.47
798.263	0.94
798.436	0.72
798.609	0.33
798.782	0.63
798.956	0.6
799.129	0.69
799.302	0.4
799.475	0.24
799.648	0.46
799.821	0.44
799.994	0.48
800.167	0.23
800.34	0.46
800.514	0.47
800.687	0.48
800.86	0.48
801.033	0.4
801.206	1.04
801.379	0.36
801.551	1.07
801.724	0.89
801.897	1.19
802.07	0.53
802.243	-0.01
802.416	0.49
802.589	0.57
802.762	0.47
802.935	0.34
803.107	0.97
803.28	0.94
803.453	0.85
803.626	0.62
803.798	0.61
803.971	0.44
804.144	0.55
804.317	0.44
804.489	0.96
804.662	0.64
804.835	0.59
805.007	0.12
805.18	1.27
805.353	0.66
805.525	0.13
805.698	0.52
805.87	1.03
806.043	1.07
806.215	0.16
806.388	0.3
806.56	1.06
806.733	1.05
806.905	0.34
807.078	0.56
807.25	0.41
807.423	1.01
807.595	0.82
807.768	0.62
807.94	0.92
808.112	0.53
808.285	0.34
808.457	0.34
808.629	0.66
808.802	1.13
808.974	0.83
809.146	0.37
809.318	0.16
809.491	0.7
809.663	0.94
809.835	0.45
810.007	0.78
810.18	0.54
810.352	0.25
810.524	0.41
810.696	0.77
810.868	1.1
811.04	0.41
811.212	0.66
811.384	1.1
811.556	0.61
811.728	0.62
811.901	1.48
812.073	0.48
812.245	1.07
812.417	0.66
812.589	-0.15
812.76	0.68
812.932	0.92
813.104	0.88
813.276	0.71
813.448	1.09
813.62	0.76
813.792	0.69
813.964	0.43
814.136	0.86
814.307	0.63
814.479	0.67
814.651	0.15
814.823	1.81
814.995	0.66
815.166	0.86
815.338	0.44
815.51	0.31
815.681	1.81
815.853	0.76
816.025	0.76
816.196	1.53
816.368	1.51
816.54	0.14
816.711	0.37
816.883	1.15
817.054	1.97
817.226	0.12
817.398	0.83
817.569	0.23
817.741	1.04
817.912	0.63
818.084	0.43
818.255	1.18
818.426	0.37
818.598	0.25
818.769	0.33
818.941	1.49
819.112	1.56
819.283	0.84
819.455	0.01
819.626	0.28
819.798	0.76
819.969	0.64
820.14	0.65
820.311	0.93
820.483	1.3
820.654	0.59
820.825	0.65
820.996	0.57
821.168	0.35
821.339	0.62
821.51	0.41
821.681	0.66
821.852	0.79
822.023	-0.09
822.195	0.56
822.366	1.13
822.537	0.94
822.708	0.47
822.879	0.29
823.05	1.55
823.221	0.6
823.392	1.22
823.563	0.66
823.734	1.31
823.905	0.93
824.076	0.61
824.247	0.17
824.418	0.73
824.589	1.4
824.759	0.73
824.93	0.88
825.101	0.25
825.272	1.92
825.443	1.13
825.614	1.7
825.784	-0.05
825.955	2.01
826.126	1.32
826.297	0.81
826.467	1.92
826.638	2.3
826.809	-0.18
826.98	0.36
827.15	1.14
827.321	1.35
827.492	1.94
827.662	1.16
827.833	2.36
828.003	1.3
828.174	0.48
828.345	0.07
828.515	1.62
828.686	1.18
828.856	0.6
829.027	1.13
829.197	1.2
829.368	0.83
829.538	0.59
829.709	0.07
829.879	1
830.049	0.73
830.22	0.23
830.39	0.85
830.56	1.64
830.731	0.97
830.901	0.06
831.072	0.65
831.242	1.5
831.412	1.7
831.582	0.67
831.753	0.39
831.923	1.48
832.093	0.91
832.263	0.88
832.434	0.71
832.604	0.48
832.774	2.31
832.944	1.2
833.114	0.07
833.284	1.37
833.454	1.07
833.624	1.08
833.795	0.86
833.965	2.68
834.135	1.66
834.305	-0.22
834.475	0.27
834.645	1.53
834.815	0.23
834.985	-0.13
835.155	1.11
835.325	1.74
835.494	0.8
835.664	0.64
835.834	0.35
836.004	0.87
836.174	1.01
836.344	0.43
836.514	0.18
836.684	0.68
836.853	1.49
837.023	1
837.193	1.16
837.363	1.89
837.532	1.92
837.702	1.07
837.872	0.61
838.041	1.77
838.211	2.69
838.381	0.55
838.55	0.9
838.72	3.36
838.89	2.28
839.059	-0.37
839.229	0.46
839.398	2.51
839.568	1.2
839.738	0.63
839.907	2.22
840.077	1.37
840.246	0.5
840.416	-0.03
840.585	0.3
840.755	2.57
840.924	1.52
841.093	0
841.263	0.82
841.432	1.27
841.602	0.12
841.771	-0.2
841.94	1.47
842.11	3.96
842.279	2.87
842.448	0.19
842.617	0.42
842.787	2.75
842.956	-0.41
843.125	1.33
843.294	1.02
843.464	3.08
843.633	1.73
843.802	0.19
843.971	1.05
844.14	1.75
844.309	2.32
844.479	-0.97
844.648	0.62
844.817	0.83
844.986	1.27
845.155	0.74
845.324	0.78
845.493	1.26
845.662	0.12
845.831	1.2
846	1.72
846.169	0.65
846.338	2.55
846.507	1.54
846.676	1.23
846.844	1.53
847.013	1.98
847.182	1.22
847.351	0.67
847.52	1.27
847.689	2.2
847.858	0.34
848.026	0.82
848.195	2.45
848.364	1.15
848.533	0.55
848.701	0.47
848.87	1.03
849.039	2.35
849.207	2.53
849.376	2.57
849.545	3.06
849.713	0.53
849.882	0.67
850.051	0.56
850.219	1.53
850.388	1.88
850.556	0.68
850.725	0.53
850.893	1.54
851.062	1.71
851.23	1.74
851.399	0.21
851.567	1.63
851.736	1.21
851.904	0.44
852.073	2.23
852.241	2.87
852.41	1.3
852.578	1.21
852.746	0.86
852.915	2.9
853.083	1.38
853.251	0.73
853.42	0.88
853.588	1.62
853.756	2.92
853.924	1.88
854.093	1.59
854.261	1.21
854.429	-0.48
854.597	1.52
854.765	0.31
854.934	2.2
855.102	3.87
855.27	1.94
855.438	2.46
855.606	3.55
855.774	3.6
855.942	-0.34
856.11	-0.47
856.278	1.37
856.446	2.59
856.614	1.47
856.782	0.93
856.95	1.92
857.118	1.72
857.286	2.27
857.454	0.33
857.622	3.21
857.79	3.27
857.958	0.49
858.126	0.62
858.294	-1.08
858.462	1.65
858.629	0.36
858.797	1.03
858.965	2.65
859.133	0.8
859.301	2.18
859.468	1.54
859.636	0.96
859.804	4.97
859.971	2.44
860.139	0.13
860.307	2.64
860.474	2.48
860.642	1.61
860.81	0.46
860.977	2.5
861.145	2.89
861.313	1.04
861.48	0.77
861.648	3.16
861.815	1.16
861.983	-0.55
862.15	0.31
862.318	2.46
862.485	3.89
862.653	0.49
862.82	-0.09
862.988	3.72
863.155	2.85
863.322	0.49
863.49	0.48
863.657	2.08
863.824	3.72
863.992	2.53
864.159	2.31
864.326	3.81
864.494	0.79
864.661	3.68
864.828	-0.12
864.996	4.71
865.163	4.22
865.33	0.91
865.497	-1.07
865.664	0.22
865.832	-1.21
865.999	1.89
866.166	1.41
866.333	1
866.5	0.45
866.667	1.61
866.834	2.91
867.001	4.35
867.168	-0.4
867.335	0.7
867.502	-0.29
867.669	1.9
867.836	4.97
868.003	1.83
868.17	3.22
868.337	5.31
868.504	7.05
868.671	-1.22
868.838	0.23
869.005	3.17
869.172	3.04
869.339	1.2
869.505	0.51
869.672	2.54
869.839	4.44
870.006	2.41
870.173	0.94
870.339	2.09
870.506	4.41
870.673	1.19
870.84	3.38
871.006	3.32
871.173	3.62
871.34	1.94
871.506	-0.48
871.673	3.14
871.839	0.14
872.006	3.12
872.173	0.19
872.339	2.46
872.506	3.42
872.672	2.78
872.839	0.17
873.005	2.39
873.172	5.72
873.338	3.63
873.505	1.98
873.671	3.79
873.838	3.58
874.004	-0.06
874.171	2.23
874.337	1.82
874.503	3.89
874.67	1.9
874.836	3.52
875.002	5.9
875.169	4.19
875.335	2.83
875.501	1.6
875.668	5.08
875.834	1.92
876	1.27
876.166	2.44
876.332	4.6
876.499	5.98
876.665	0.79
876.831	2.64
876.997	6.5
877.163	3.48
877.329	2.82
877.495	0.99
877.662	2.53
877.828	4.2
877.994	0.43
878.16	-1.88
878.326	1.11
878.492	2.41
878.658	1.17
878.824	2.4
878.99	4.17
879.156	0.16
879.322	4.62
879.487	0.12
879.653	1.88
879.819	5.67
879.985	2.01
880.151	3.03
880.317	4.1
880.483	2.92
880.648	3.33
880.814	-0.33
880.98	5.03
881.146	-1.78
881.312	1.49
881.477	1
881.643	0.93
881.809	5.47
881.974	4.5
882.14	-0.16
882.306	1.23
882.471	5.94
882.637	1.51
882.803	3.55
882.968	4.53
883.134	5.95
883.299	2.62
883.465	1
883.63	3.66
883.796	3.06
883.961	3.38
884.127	3.21
884.292	-2.67
884.458	1.69
884.623	1.68
