Data from Apollo_Calib_20240827__AbsoluteIrradiance__846__13-15-00-434.txt Node

Date: Wed Aug 28 13:15:00 BST 2024
User: biology
Spectrometer: FLMT08252
Trigger mode: 0
Integration Time (sec): 5.000000E-1
Scans to average: 5
Electric dark correction enabled: true
Nonlinearity correction enabled: false
Boxcar width: 0
XAxis mode: Wavelengths
Number of Pixels in Spectrum: 3648
>>>>>Begin Spectral Data<<<<<
179.588	-0
179.809	-0
180.03	-0
180.251	-0
180.473	-0
180.694	0
180.915	0
181.136	-0
181.357	0
181.578	-0
181.799	-0
182.02	-0
182.241	-0
182.462	-0
182.683	0
182.904	-0
183.125	-0
183.346	0
183.567	0
183.788	0
184.009	0
184.23	0
184.451	0
184.672	0
184.892	0
185.113	0
185.334	0
185.555	0
185.776	0
185.996	0
186.217	0
186.438	0
186.659	0
186.879	0
187.1	0
187.321	0
187.541	0
187.762	0
187.983	0
188.203	0
188.424	0
188.644	0
188.865	0
189.086	0
189.306	0
189.527	0
189.747	0
189.968	0
190.188	0
190.409	0
190.629	0
190.849	0
191.07	0
191.29	0
191.511	0
191.731	0
191.951	0
192.172	0
192.392	0
192.612	0
192.833	0
193.053	0
193.273	0
193.493	0
193.714	0
193.934	0
194.154	0
194.374	0
194.594	0
194.815	0
195.035	0
195.255	0
195.475	0
195.695	0
195.915	0
196.135	0
196.355	0
196.575	0
196.795	0
197.015	0
197.235	0
197.455	0
197.675	0
197.895	0
198.115	0
198.335	0
198.555	0
198.775	0
198.995	0
199.214	0
199.434	0
199.654	0
199.874	0
200.094	3.78
200.313	2.71
200.533	1.72
200.753	1.46
200.973	3.42
201.192	3.38
201.412	1.17
201.632	1.56
201.851	3.62
202.071	1.67
202.291	1.21
202.51	1.01
202.73	2.98
202.95	2.02
203.169	1.42
203.389	1.82
203.608	2.4
203.828	1.81
204.047	1.38
204.267	1.97
204.486	1.98
204.706	2.08
204.925	1.63
205.145	1.16
205.364	2.2
205.583	2.57
205.803	1.25
206.022	0.98
206.242	1.97
206.461	1.75
206.68	1.3
206.9	1.4
207.119	2.37
207.338	2.03
207.557	1.25
207.777	1.26
207.996	1.16
208.215	2.2
208.434	1.02
208.654	0.81
208.873	1.72
209.092	2.3
209.311	1.23
209.53	1.04
209.749	1.18
209.968	1.13
210.187	0.73
210.407	0.58
210.626	1.26
210.845	1.74
211.064	1.25
211.283	0.66
211.502	1.54
211.721	1.1
211.94	1.18
212.159	1.17
212.377	1.49
212.596	1.55
212.815	1.17
213.034	1.26
213.253	1.48
213.472	1.32
213.691	0.82
213.91	0.7
214.128	0.67
214.347	1.49
214.566	0.65
214.785	0.63
215.003	0.9
215.222	1.02
215.441	0.74
215.66	0.54
215.878	0.81
216.097	1.05
216.316	0.76
216.534	0.8
216.753	1.12
216.972	0.99
217.19	0.81
217.409	0.56
217.627	0.77
217.846	0.89
218.064	0.83
218.283	0.48
218.501	1.58
218.72	1.2
218.938	0.61
219.157	0.62
219.375	1.22
219.594	1.11
219.812	0.51
220.031	0.66
220.249	1.24
220.467	1.21
220.686	0.62
220.904	0.42
221.122	0.6
221.341	1.22
221.559	0.79
221.777	0.58
221.995	0.9
222.214	0.93
222.432	0.48
222.65	0.71
222.868	0.79
223.086	0.91
223.305	0.94
223.523	0.66
223.741	1.24
223.959	0.68
224.177	0.33
224.395	0.49
224.613	0.68
224.831	0.85
225.049	0.41
225.267	0.58
225.485	0.9
225.703	0.62
225.921	0.52
226.139	0.58
226.357	0.88
226.575	0.78
226.793	0.65
227.011	1.71
227.229	0.7
227.447	0.89
227.665	0.37
227.883	0.42
228.1	0.68
228.318	0.77
228.536	0.31
228.754	0.47
228.972	0.79
229.189	0.63
229.407	0.57
229.625	0.54
229.843	0.96
230.06	0.81
230.278	0.45
230.496	0.63
230.713	0.6
230.931	0.81
231.149	0.48
231.366	0.34
231.584	0.41
231.801	1.02
232.019	0.5
232.236	0.3
232.454	0.44
232.671	0.66
232.889	0.48
233.106	0.4
233.324	0.44
233.541	0.39
233.759	0.51
233.976	0.34
234.194	0.62
234.411	0.54
234.628	0.44
234.846	0.53
235.063	0.58
235.28	0.54
235.498	0.44
235.715	0.38
235.932	0.67
236.149	0.44
236.367	0.36
236.584	0.5
236.801	0.38
237.018	0.66
237.236	0.39
237.453	0.43
237.67	0.7
237.887	0.43
238.104	0.44
238.321	0.39
238.538	0.28
238.755	0.71
238.973	0.28
239.19	0.45
239.407	0.61
239.624	0.5
239.841	0.37
240.058	0.37
240.275	0.46
240.492	0.5
240.709	0.42
240.925	0.42
241.142	0.48
241.359	0.32
241.576	0.26
241.793	0.33
242.01	0.41
242.227	0.63
242.444	0.55
242.66	0.57
242.877	0.51
243.094	0.45
243.311	0.46
243.527	0.35
243.744	0.55
243.961	0.54
244.178	0.35
244.394	0.37
244.611	0.63
244.828	0.75
245.044	0.24
245.261	0.4
245.477	0.49
245.694	0.5
245.911	0.25
246.127	0.52
246.344	0.69
246.56	0.52
246.777	0.33
246.993	0.48
247.21	0.43
247.426	0.6
247.643	0.3
247.859	0.23
248.076	0.34
248.292	0.67
248.508	0.29
248.725	0.47
248.941	0.47
249.157	0.49
249.374	0.27
249.59	0.42
249.806	0.39
250.023	0.59
250.239	0.27
250.455	0.34
250.671	0.41
250.888	0.44
251.104	0.43
251.32	0.3
251.536	0.39
251.752	0.41
251.969	0.36
252.185	0.36
252.401	0.58
252.617	0.48
252.833	0.33
253.049	0.39
253.265	0.46
253.481	0.46
253.697	0.22
253.913	0.28
254.129	0.48
254.345	0.52
254.561	0.34
254.777	0.34
254.993	0.44
255.209	0.44
255.425	0.4
255.641	0.3
255.857	0.51
256.073	0.46
256.288	0.24
256.504	0.27
256.72	0.39
256.936	0.64
257.152	0.35
257.367	0.37
257.583	0.41
257.799	0.5
258.015	0.3
258.23	0.36
258.446	0.51
258.662	0.36
258.877	0.27
259.093	0.27
259.309	0.39
259.524	0.43
259.74	0.35
259.955	0.24
260.171	0.34
260.387	0.37
260.602	0.46
260.818	0.39
261.033	0.32
261.249	0.43
261.464	0.34
261.68	0.22
261.895	0.39
262.11	0.48
262.326	0.34
262.541	0.19
262.757	0.47
262.972	0.39
263.187	0.34
263.403	0.4
263.618	0.49
263.833	0.37
264.049	0.23
264.264	0.33
264.479	0.32
264.694	0.54
264.91	0.19
265.125	0.3
265.34	0.39
265.555	0.61
265.77	0.4
265.986	0.31
266.201	0.46
266.416	0.48
266.631	0.25
266.846	0.27
267.061	0.38
267.276	0.42
267.491	0.22
267.706	0.41
267.921	0.38
268.136	0.35
268.351	0.31
268.566	0.21
268.781	0.45
268.996	0.43
269.211	0.32
269.426	0.24
269.641	0.36
269.856	0.39
270.071	0.24
270.285	0.16
270.5	0.43
270.715	0.44
270.93	0.32
271.145	0.34
271.359	0.41
271.574	0.25
271.789	0.31
272.004	0.28
272.218	0.27
272.433	0.41
272.648	0.22
272.862	0.4
273.077	0.34
273.292	0.38
273.506	0.27
273.721	0.33
273.936	0.38
274.15	0.43
274.365	0.24
274.579	0.32
274.794	0.4
275.008	0.35
275.223	0.23
275.437	0.25
275.652	0.44
275.866	0.4
276.081	0.34
276.295	0.31
276.509	0.31
276.724	0.39
276.938	0.32
277.153	0.37
277.367	0.36
277.581	0.31
277.796	0.25
278.01	0.22
278.224	0.39
278.438	0.45
278.653	0.23
278.867	0.23
279.081	0.14
279.295	0.32
279.51	0.33
279.724	0.21
279.938	0.4
280.152	0.36
280.366	0.21
280.58	0.27
280.794	0.4
281.008	0.4
281.222	0.38
281.437	0.48
281.651	0.37
281.865	0.4
282.079	0.28
282.293	0.18
282.507	0.26
282.721	0.29
282.935	0.3
283.148	0.19
283.362	0.3
283.576	0.25
283.79	0.31
284.004	0.23
284.218	0.35
284.432	0.3
284.646	0.27
284.859	0.25
285.073	0.29
285.287	0.32
285.501	0.29
285.714	0.3
285.928	0.27
286.142	0.36
286.356	0.24
286.569	0.28
286.783	0.37
286.997	0.38
287.21	0.31
287.424	0.31
287.637	0.28
287.851	0.26
288.065	0.34
288.278	0.24
288.492	0.32
288.705	0.26
288.919	0.31
289.132	0.17
289.346	0.36
289.559	0.19
289.773	0.16
289.986	0.27
290.2	0.22
290.413	0.34
290.626	0.22
290.84	0.27
291.053	0.29
291.267	0.39
291.48	0.28
291.693	0.24
291.906	0.19
292.12	0.28
292.333	0.23
292.546	0.25
292.76	0.35
292.973	0.32
293.186	0.32
293.399	0.23
293.612	0.33
293.826	0.3
294.039	0.27
294.252	0.26
294.465	0.37
294.678	0.26
294.891	0.26
295.104	0.22
295.317	0.24
295.53	0.31
295.743	0.27
295.956	0.28
296.169	0.37
296.382	0.31
296.595	0.25
296.808	0.18
297.021	0.37
297.234	0.34
297.447	0.26
297.66	0.33
297.873	0.35
298.086	0.34
298.299	0.21
298.511	0.16
298.724	0.27
298.937	0.21
299.15	0.17
299.363	0.24
299.575	0.34
299.788	0.31
300.001	0.21
300.213	0.25
300.426	0.26
300.639	0.25
300.852	0.17
301.064	0.28
301.277	0.38
301.489	0.3
301.702	0.25
301.915	0.21
302.127	0.24
302.34	0.29
302.552	0.31
302.765	0.16
302.977	0.32
303.19	0.24
303.402	0.23
303.615	0.24
303.827	0.26
304.04	0.26
304.252	0.32
304.464	0.22
304.677	0.43
304.889	0.25
305.102	0.19
305.314	0.24
305.526	0.26
305.739	0.25
305.951	0.22
306.163	0.24
306.375	0.37
306.588	0.25
306.8	0.23
307.012	0.17
307.224	0.32
307.436	0.3
307.649	0.18
307.861	0.25
308.073	0.27
308.285	0.24
308.497	0.19
308.709	0.21
308.921	0.25
309.133	0.3
309.346	0.19
309.558	0.24
309.77	0.33
309.982	0.34
310.194	0.29
310.406	0.19
310.617	0.36
310.829	0.32
311.041	0.3
311.253	0.19
311.465	0.28
311.677	0.26
311.889	0.24
312.101	0.19
312.313	0.32
312.524	0.37
312.736	0.18
312.948	0.23
313.16	0.36
313.372	0.3
313.583	0.25
313.795	0.25
314.007	0.19
314.218	0.29
314.43	0.27
314.642	0.19
314.853	0.19
315.065	0.33
315.277	0.25
315.488	0.28
315.7	0.28
315.912	0.31
316.123	0.24
316.335	0.24
316.546	0.33
316.758	0.23
316.969	0.24
317.181	0.24
317.392	0.25
317.604	0.35
317.815	0.15
318.026	0.17
318.238	0.28
318.449	0.33
318.661	0.13
318.872	0.16
319.083	0.21
319.295	0.31
319.506	0.23
319.717	0.23
319.929	0.29
320.14	0.27
320.351	0.24
320.562	0.18
320.774	0.3
320.985	0.26
321.196	0.24
321.407	0.18
321.618	0.29
321.829	0.25
322.041	0.27
322.252	0.24
322.463	0.28
322.674	0.28
322.885	0.19
323.096	0.23
323.307	0.24
323.518	0.27
323.729	0.19
323.94	0.19
324.151	0.26
324.362	0.23
324.573	0.24
324.784	0.22
324.995	0.33
325.206	0.25
325.417	0.23
325.628	0.2
325.838	0.28
326.049	0.27
326.26	0.25
326.471	0.21
326.682	0.28
326.892	0.26
327.103	0.18
327.314	0.15
327.525	0.36
327.735	0.28
327.946	0.22
328.157	0.18
328.368	0.31
328.578	0.28
328.789	0.28
328.999	0.28
329.21	0.22
329.421	0.31
329.631	0.19
329.842	0.17
330.052	0.24
330.263	0.28
330.473	0.31
330.684	0.22
330.894	0.26
331.105	0.3
331.315	0.24
331.526	0.2
331.736	0.32
331.947	0.3
332.157	0.25
332.367	0.16
332.578	0.35
332.788	0.32
332.999	0.28
333.209	0.24
333.419	0.18
333.629	0.29
333.84	0.25
334.05	0.23
334.26	0.32
334.47	0.28
334.681	0.29
334.891	0.2
335.101	0.3
335.311	0.36
335.521	0.27
335.732	0.22
335.942	0.35
336.152	0.24
336.362	0.27
336.572	0.3
336.782	0.26
336.992	0.21
337.202	0.24
337.412	0.24
337.622	0.26
337.832	0.26
338.042	0.24
338.252	0.21
338.462	0.25
338.672	0.23
338.882	0.22
339.092	0.22
339.302	0.38
339.511	0.28
339.721	0.23
339.931	0.19
340.141	0.3
340.351	0.36
340.561	0.27
340.77	0.27
340.98	0.28
341.19	0.26
341.4	0.2
341.609	0.2
341.819	0.19
342.029	0.21
342.238	0.26
342.448	0.21
342.658	0.31
342.867	0.23
343.077	0.23
343.286	0.28
343.496	0.24
343.706	0.35
343.915	0.2
344.125	0.26
344.334	0.27
344.544	0.22
344.753	0.17
344.963	0.26
345.172	0.19
345.381	0.26
345.591	0.18
345.8	0.27
346.01	0.33
346.219	0.29
346.428	0.11
346.638	0.26
346.847	0.19
347.056	0.3
347.266	0.24
347.475	0.24
347.684	0.25
347.893	0.28
348.103	0.26
348.312	0.22
348.521	0.27
348.73	0.28
348.94	0.25
349.149	0.23
349.358	0.26
349.567	0.18
349.776	0.19
349.985	0.21
350.194	0.29
350.403	0.33
350.612	0.14
350.821	0.19
351.03	0.22
351.239	0.2
351.448	0.21
351.657	0.2
351.866	0.36
352.075	0.28
352.284	0.28
352.493	0.19
352.702	0.32
352.911	0.26
353.12	0.22
353.329	0.25
353.538	0.27
353.746	0.23
353.955	0.19
354.164	0.26
354.373	0.25
354.582	0.27
354.79	0.24
354.999	0.26
355.208	0.25
355.416	0.34
355.625	0.19
355.834	0.22
356.042	0.28
356.251	0.26
356.46	0.19
356.668	0.25
356.877	0.34
357.085	0.29
357.294	0.17
357.503	0.26
357.711	0.25
357.92	0.44
358.128	0.25
358.337	0.23
358.545	0.28
358.754	0.2
358.962	0.29
359.17	0.24
359.379	0.26
359.587	0.26
359.796	0.23
360.004	0.27
360.212	0.3
360.421	0.34
360.629	0.24
360.837	0.22
361.046	0.28
361.254	0.41
361.462	0.2
361.67	0.2
361.879	0.27
362.087	0.32
362.295	0.24
362.503	0.2
362.711	0.19
362.92	0.23
363.128	0.21
363.336	0.17
363.544	0.2
363.752	0.25
363.96	0.25
364.168	0.2
364.376	0.3
364.584	0.27
364.792	0.31
365	0.25
365.208	0.23
365.416	0.3
365.624	0.28
365.832	0.23
366.04	0.35
366.248	0.24
366.456	0.25
366.664	0.28
366.872	0.28
367.079	0.21
367.287	0.22
367.495	0.24
367.703	0.23
367.911	0.24
368.118	0.22
368.326	0.25
368.534	0.21
368.742	0.31
368.949	0.19
369.157	0.22
369.365	0.25
369.572	0.23
369.78	0.2
369.988	0.28
370.195	0.3
370.403	0.31
370.61	0.21
370.818	0.23
371.026	0.34
371.233	0.2
371.441	0.25
371.648	0.25
371.856	0.27
372.063	0.27
372.271	0.23
372.478	0.22
372.685	0.24
372.893	0.32
373.1	0.24
373.308	0.21
373.515	0.39
373.722	0.31
373.93	0.23
374.137	0.27
374.344	0.36
374.552	0.3
374.759	0.29
374.966	0.22
375.173	0.27
375.381	0.32
375.588	0.19
375.795	0.16
376.002	0.24
376.209	0.18
376.417	0.2
376.624	0.23
376.831	0.3
377.038	0.23
377.245	0.12
377.452	0.22
377.659	0.28
377.866	0.2
378.073	0.23
378.28	0.22
378.487	0.27
378.694	0.34
378.901	0.23
379.108	0.25
379.315	0.32
379.522	0.35
379.729	0.27
379.936	0.22
380.143	0.29
380.35	0.3
380.557	0.25
380.763	0.28
380.97	0.29
381.177	0.3
381.384	0.29
381.591	0.26
381.797	0.28
382.004	0.32
382.211	0.27
382.418	0.21
382.624	0.31
382.831	0.28
383.038	0.22
383.244	0.28
383.451	0.24
383.658	0.31
383.864	0.24
384.071	0.22
384.277	0.35
384.484	0.29
384.69	0.32
384.897	0.21
385.103	0.26
385.31	0.22
385.516	0.25
385.723	0.24
385.929	0.27
386.136	0.25
386.342	0.29
386.549	0.23
386.755	0.36
386.961	0.32
387.168	0.26
387.374	0.25
387.58	0.33
387.787	0.34
387.993	0.35
388.199	0.29
388.406	0.25
388.612	0.3
388.818	0.26
389.024	0.21
389.231	0.27
389.437	0.37
389.643	0.33
389.849	0.27
390.055	0.29
390.261	0.29
390.467	0.33
390.674	0.27
390.88	0.29
391.086	0.33
391.292	0.26
391.498	0.35
391.704	0.31
391.91	0.3
392.116	0.24
392.322	0.17
392.528	0.36
392.734	0.27
392.94	0.28
393.146	0.26
393.352	0.34
393.557	0.26
393.763	0.26
393.969	0.35
394.175	0.3
394.381	0.29
394.587	0.24
394.792	0.33
394.998	0.37
395.204	0.34
395.41	0.28
395.615	0.31
395.821	0.36
396.027	0.35
396.233	0.26
396.438	0.34
396.644	0.43
396.85	0.36
397.055	0.34
397.261	0.35
397.466	0.45
397.672	0.29
397.878	0.38
398.083	0.35
398.289	0.27
398.494	0.4
398.7	0.38
398.905	0.24
399.111	0.37
399.316	0.25
399.522	0.37
399.727	0.29
399.932	0.32
400.138	0.27
400.343	0.35
400.549	0.31
400.754	0.35
400.959	0.41
401.165	0.31
401.37	0.37
401.575	0.33
401.78	0.37
401.986	0.32
402.191	0.34
402.396	0.36
402.601	0.38
402.807	0.4
403.012	0.37
403.217	0.44
403.422	0.37
403.627	0.44
403.832	0.35
404.037	0.41
404.243	0.39
404.448	0.39
404.653	0.4
404.858	0.43
405.063	0.48
405.268	0.4
405.473	0.4
405.678	0.43
405.883	0.64
406.088	0.5
406.293	0.39
406.498	0.43
406.703	0.53
406.907	0.48
407.112	0.4
407.317	0.49
407.522	0.62
407.727	0.48
407.932	0.51
408.136	0.65
408.341	0.5
408.546	0.57
408.751	0.54
408.956	0.54
409.16	0.71
409.365	0.6
409.57	0.61
409.774	0.61
409.979	0.7
410.184	0.73
410.388	0.64
410.593	0.74
410.798	0.73
411.002	0.73
411.207	0.79
411.411	0.76
411.616	0.74
411.82	0.84
412.025	0.83
412.229	0.88
412.434	0.93
412.638	0.9
412.843	0.93
413.047	0.96
413.252	0.92
413.456	1.01
413.66	1.05
413.865	1.05
414.069	1.16
414.273	1.11
414.478	1.1
414.682	1.17
414.886	1.19
415.091	1.14
415.295	1.23
415.499	1.37
415.703	1.36
415.908	1.42
416.112	1.33
416.316	1.54
416.52	1.58
416.724	1.54
416.929	1.6
417.133	1.85
417.337	1.71
417.541	1.83
417.745	1.83
417.949	1.93
418.153	2
418.357	1.98
418.561	2.24
418.765	2.18
418.969	2.3
419.173	2.41
419.377	2.34
419.581	2.62
419.785	2.63
419.989	2.56
420.193	2.72
420.397	2.86
420.601	3.01
420.804	3.08
421.008	3.02
421.212	3.19
421.416	3.18
421.62	3.16
421.823	3.36
422.027	3.48
422.231	3.37
422.435	3.45
422.638	3.47
422.842	3.61
423.046	3.67
423.249	3.87
423.453	3.85
423.657	4.03
423.86	4.15
424.064	4.23
424.268	4.47
424.471	4.4
424.675	4.7
424.878	4.74
425.082	4.82
425.285	5.08
425.489	5.07
425.692	5.17
425.896	5.08
426.099	5.34
426.303	5.58
426.506	5.63
426.71	5.97
426.913	6.08
427.116	6.18
427.32	6.15
427.523	6.31
427.726	6.55
427.93	6.74
428.133	6.92
428.336	7.04
428.54	7.33
428.743	7.59
428.946	7.78
429.149	7.84
429.353	7.8
429.556	7.93
429.759	7.97
429.962	8.01
430.165	8.27
430.368	7.83
430.571	7.99
430.775	8
430.978	8.01
431.181	8.04
431.384	8.17
431.587	8.27
431.79	8.63
431.993	8.44
432.196	8.83
432.399	9.19
432.602	9.35
432.805	9.41
433.008	9.99
433.211	9.86
433.414	10.11
433.616	10.13
433.819	10.11
434.022	10.4
434.225	10.65
434.428	10.48
434.631	10.96
434.833	10.82
435.036	10.93
435.239	11.25
435.442	11.25
435.645	11.34
435.847	11.41
436.05	11.74
436.253	12.03
436.455	12.01
436.658	11.95
436.861	12.19
437.063	12.35
437.266	12.34
437.468	12.64
437.671	12.91
437.874	12.99
438.076	12.84
438.279	13.32
438.481	13.29
438.684	14.11
438.886	13.63
439.089	14.08
439.291	14.12
439.494	14.58
439.696	14.62
439.899	15.07
440.101	15.57
440.303	15.74
440.506	16.34
440.708	16.11
440.91	16.29
441.113	16.49
441.315	16.8
441.517	16.64
441.72	17.01
441.922	16.63
442.124	16.68
442.326	16.99
442.529	17.32
442.731	17.24
442.933	17.56
443.135	17.31
443.337	17.39
443.539	17.76
443.742	17.4
443.944	18.21
444.146	17.87
444.348	17.97
444.55	17.67
444.752	17.93
444.954	18.08
445.156	17.93
445.358	18.33
445.56	18.48
445.762	18.4
445.964	18.68
446.166	18.44
446.368	18.44
446.57	18.51
446.772	17.96
446.974	17.87
447.175	18.14
447.377	17.9
447.579	18.33
447.781	17.86
447.983	17.56
448.184	17.25
448.386	17.6
448.588	17.14
448.79	16.95
448.991	17.35
449.193	17.41
449.395	16.75
449.597	16.51
449.798	16.46
450	15.81
450.202	15.79
450.403	15.93
450.605	15.67
450.806	15.33
451.008	15.15
451.21	14.86
451.411	14.52
451.613	13.76
451.814	14.04
452.016	14.1
452.217	13.26
452.419	13.17
452.62	12.99
452.821	12.74
453.023	12.51
453.224	12.24
453.426	11.86
453.627	11.06
453.828	11.38
454.03	11.31
454.231	11.26
454.432	10.99
454.634	10.86
454.835	10.54
455.036	10.44
455.238	10.04
455.439	9.78
455.64	9.62
455.841	9.43
456.042	9.63
456.244	9.27
456.445	8.99
456.646	8.66
456.847	8.64
457.048	8.52
457.249	8.55
457.45	8.32
457.651	7.76
457.852	7.68
458.054	7.18
458.255	7.28
458.456	7.33
458.657	7.21
458.858	6.76
459.058	6.7
459.259	6.76
459.46	6.45
459.661	6.44
459.862	6.55
460.063	6.38
460.264	6.26
460.465	6
460.666	6.04
460.866	5.76
461.067	5.57
461.268	5.6
461.469	5.53
461.67	5.4
461.87	5.27
462.071	5.37
462.272	5.17
462.473	5.1
462.673	5.3
462.874	5.22
463.075	5.15
463.275	5.1
463.476	5.07
463.676	5.12
463.877	4.88
464.078	4.97
464.278	5
464.479	4.88
464.679	4.75
464.88	4.68
465.08	4.73
465.281	4.58
465.481	4.31
465.682	4.19
465.882	4.15
466.083	4.11
466.283	4.03
466.483	3.92
466.684	3.8
466.884	3.68
467.085	3.69
467.285	3.78
467.485	3.59
467.686	3.5
467.886	3.43
468.086	3.39
468.286	3.33
468.487	3.44
468.687	3.26
468.887	3.24
469.087	3.28
469.287	3.27
469.488	3.05
469.688	3.25
469.888	3.22
470.088	3.07
470.288	3.09
470.488	3.09
470.688	2.92
470.888	2.86
471.088	2.68
471.288	2.84
471.488	2.81
471.688	2.73
471.888	2.74
472.088	2.87
472.288	2.81
472.488	2.65
472.688	2.59
472.888	2.66
473.088	2.65
473.288	2.51
473.488	2.43
473.688	2.64
473.887	2.49
474.087	2.43
474.287	2.51
474.487	2.43
474.687	2.45
474.886	2.38
475.086	2.25
475.286	2.29
475.486	2.32
475.685	2.23
475.885	2.24
476.085	2.28
476.284	2.29
476.484	2.33
476.684	2.21
476.883	2.32
477.083	2.21
477.282	2.15
477.482	2.22
477.681	2.15
477.881	2.09
478.08	2.1
478.28	2.1
478.479	2.12
478.679	2.18
478.878	2.05
479.078	2
479.277	2.08
479.477	2.05
479.676	2.03
479.875	2.06
480.075	1.97
480.274	2.02
480.473	2.07
480.673	1.98
480.872	2.09
481.071	2.09
481.271	2.06
481.47	2.01
481.669	1.98
481.868	1.94
482.067	2.02
482.267	1.95
482.466	1.92
482.665	1.9
482.864	1.98
483.063	1.93
483.262	2.02
483.461	2.06
483.661	2.07
483.86	2.01
484.059	2.06
484.258	2.04
484.457	2
484.656	2.01
484.855	2.12
485.054	1.88
485.253	1.99
485.452	1.95
485.651	2.06
485.849	2
486.048	1.98
486.247	2.1
486.446	2.11
486.645	2.05
486.844	2.07
487.043	2.04
487.241	2.09
487.44	2.06
487.639	2.16
487.838	2.15
488.037	2.14
488.235	2.23
488.434	2.11
488.633	2.04
488.831	2.23
489.03	2.2
489.229	2.24
489.427	2.18
489.626	2.29
489.825	2.25
490.023	2.27
490.222	2.27
490.42	2.3
490.619	2.39
490.817	2.36
491.016	2.35
491.214	2.39
491.413	2.42
491.611	2.36
491.81	2.35
492.008	2.44
492.207	2.53
492.405	2.55
492.604	2.47
492.802	2.5
493	2.62
493.199	2.59
493.397	2.62
493.595	2.71
493.794	2.66
493.992	2.78
494.19	2.74
494.388	2.84
494.587	2.75
494.785	2.78
494.983	2.71
495.181	2.86
495.379	2.86
495.578	2.98
495.776	2.93
495.974	2.92
496.172	2.98
496.37	3.1
496.568	3.08
496.766	3.03
496.964	3.2
497.162	3.19
497.36	3.19
497.558	3.24
497.756	3.26
497.954	3.32
498.152	3.36
498.35	3.43
498.548	3.32
498.746	3.4
498.944	3.37
499.142	3.45
499.34	3.52
499.538	3.66
499.736	3.45
499.933	3.64
500.131	3.63
500.329	3.73
500.527	3.76
500.725	3.85
500.922	3.87
501.12	3.79
501.318	3.94
501.516	3.9
501.713	4.02
501.911	4.01
502.109	3.95
502.306	4.05
502.504	3.98
502.701	4.04
502.899	4.17
503.097	4.36
503.294	4.2
503.492	4.32
503.689	4.38
503.887	4.35
504.084	4.41
504.282	4.44
504.479	4.38
504.677	4.58
504.874	4.5
505.072	4.43
505.269	4.67
505.466	4.67
505.664	4.71
505.861	4.65
506.059	4.73
506.256	4.78
506.453	4.84
506.651	4.95
506.848	4.97
507.045	4.93
507.242	4.99
507.44	4.97
507.637	5.09
507.834	4.98
508.031	5.23
508.229	5.09
508.426	5.06
508.623	5.28
508.82	5.28
509.017	5.18
509.214	5.24
509.411	5.43
509.608	5.31
509.805	5.48
510.003	5.42
510.2	5.47
510.397	5.63
510.594	5.52
510.791	5.6
510.988	5.65
511.184	5.63
511.381	5.48
511.578	5.62
511.775	5.79
511.972	5.74
512.169	5.81
512.366	5.76
512.563	5.89
512.76	5.96
512.956	6.04
513.153	5.93
513.35	5.89
513.547	5.89
513.744	6.04
513.94	5.97
514.137	6.14
514.334	6.1
514.53	6.12
514.727	6.34
514.924	6.23
515.12	6.19
515.317	6.25
515.514	6.2
515.71	6.18
515.907	6.39
516.103	6.4
516.3	6.3
516.497	6.42
516.693	6.46
516.89	6.45
517.086	6.5
517.283	6.46
517.479	6.39
517.676	6.61
517.872	6.66
518.068	6.56
518.265	6.59
518.461	6.54
518.658	6.74
518.854	6.67
519.05	6.79
519.247	6.76
519.443	6.79
519.639	6.9
519.836	6.75
520.032	6.69
520.228	6.89
520.424	6.87
520.621	6.88
520.817	6.98
521.013	6.9
521.209	7.11
521.405	7.05
521.601	7
521.798	6.98
521.994	6.99
522.19	6.92
522.386	6.94
522.582	7.02
522.778	7.18
522.974	7.07
523.17	7.11
523.366	7.1
523.562	7.22
523.758	7.17
523.954	6.97
524.15	7.19
524.346	7.24
524.542	7.23
524.738	7.18
524.934	7.34
525.129	7.25
525.325	7.22
525.521	7.2
525.717	7.48
525.913	7.34
526.109	7.32
526.304	7.45
526.5	7.39
526.696	7.45
526.892	7.39
527.087	7.57
527.283	7.52
527.479	7.45
527.674	7.28
527.87	7.49
528.066	7.47
528.261	7.53
528.457	7.37
528.653	7.53
528.848	7.56
529.044	7.66
529.239	7.48
529.435	7.56
529.63	7.49
529.826	7.53
530.021	7.52
530.217	7.57
530.412	7.62
530.608	7.58
530.803	7.58
530.999	7.53
531.194	7.64
531.389	7.72
531.585	7.63
531.78	7.77
531.975	7.68
532.171	7.75
532.366	7.74
532.561	7.7
532.757	7.73
532.952	7.89
533.147	7.58
533.342	7.76
533.538	7.62
533.733	7.83
533.928	7.58
534.123	7.74
534.318	7.81
534.513	7.71
534.709	7.81
534.904	7.81
535.099	7.86
535.294	7.91
535.489	7.88
535.684	7.84
535.879	7.74
536.074	7.94
536.269	7.87
536.464	7.91
536.659	7.83
536.854	7.87
537.049	7.96
537.244	7.92
537.439	7.89
537.634	7.89
537.828	7.99
538.023	7.89
538.218	7.89
538.413	7.83
538.608	7.89
538.803	7.88
538.997	7.91
539.192	7.95
539.387	7.9
539.582	7.84
539.776	7.82
539.971	7.98
540.166	8.03
540.36	7.9
540.555	8.08
540.75	7.95
540.944	7.99
541.139	8.05
541.334	7.96
541.528	8
541.723	8.13
541.917	8.11
542.112	7.97
542.306	7.82
542.501	7.88
542.695	7.96
542.89	7.91
543.084	7.95
543.279	7.99
543.473	8.03
543.668	8.03
543.862	7.85
544.056	7.85
544.251	8.05
544.445	8.05
544.64	8.09
544.834	7.77
545.028	7.7
545.222	8.04
545.417	8.18
545.611	8.04
545.805	8
546	7.82
546.194	8.09
546.388	8.09
546.582	7.93
546.776	7.99
546.97	8.07
547.165	8.01
547.359	8
547.553	7.92
547.747	8.05
547.941	8.2
548.135	8.04
548.329	8.07
548.523	8.07
548.717	7.99
548.911	8.02
549.105	7.97
549.299	8.11
549.493	8.04
549.687	7.93
549.881	8.18
550.075	8.06
550.269	7.97
550.463	8.08
550.657	8.06
550.85	8.08
551.044	8
551.238	8.1
551.432	8
551.626	8.12
551.82	8.1
552.013	7.97
552.207	8.19
552.401	8.17
552.594	8.06
552.788	7.96
552.982	7.97
553.176	7.98
553.369	8.24
553.563	8.1
553.756	8
553.95	8.11
554.144	8.13
554.337	8.12
554.531	7.88
554.724	8.11
554.918	8.16
555.111	8.04
555.305	8.14
555.498	8.08
555.692	8.16
555.885	8.12
556.079	8.04
556.272	8.07
556.466	8.1
556.659	8.05
556.852	8.19
557.046	7.95
557.239	7.95
557.432	8.03
557.626	8.12
557.819	8.14
558.012	8.11
558.206	8.1
558.399	8.11
558.592	8.05
558.785	8.04
558.979	8.07
559.172	8.12
559.365	8.05
559.558	8.07
559.751	7.99
559.944	8.16
560.138	8.07
560.331	8.09
560.524	8.13
560.717	8.09
560.91	8.07
561.103	8.16
561.296	7.92
561.489	8.1
561.682	8.19
561.875	8.16
562.068	8.2
562.261	7.94
562.454	8.2
562.647	8
562.84	8.02
563.032	8.1
563.225	8.04
563.418	8.06
563.611	8.14
563.804	8.16
563.997	7.97
564.19	7.8
564.382	8.19
564.575	8.09
564.768	8
564.961	8.12
565.153	8.01
565.346	8.02
565.539	8.16
565.731	8.08
565.924	8.12
566.117	8.29
566.309	8.08
566.502	8.05
566.695	7.96
566.887	8.11
567.08	8.11
567.272	8.08
567.465	8
567.657	8.09
567.85	7.95
568.042	8.04
568.235	8.1
568.427	7.92
568.62	8.07
568.812	8
569.005	8.14
569.197	7.99
569.389	8.08
569.582	8.02
569.774	8.04
569.966	7.97
570.159	7.94
570.351	7.95
570.543	8.05
570.736	8.06
570.928	7.84
571.12	8.01
571.312	7.9
571.505	7.76
571.697	8.08
571.889	7.96
572.081	7.95
572.273	7.85
572.465	7.98
572.658	7.97
572.85	7.95
573.042	7.97
573.234	7.87
573.426	7.92
573.618	7.95
573.81	7.96
574.002	7.92
574.194	8.04
574.386	7.9
574.578	7.79
574.77	7.89
574.962	7.97
575.154	7.77
575.346	7.83
575.538	7.88
575.729	7.8
575.921	7.89
576.113	7.94
576.305	7.89
576.497	7.99
576.689	7.81
576.88	7.79
577.072	7.95
577.264	7.83
577.456	7.83
577.647	7.85
577.839	7.93
578.031	7.81
578.223	7.75
578.414	7.64
578.606	7.78
578.798	7.93
578.989	7.85
579.181	7.9
579.372	7.76
579.564	7.79
579.755	7.78
579.947	7.66
580.139	7.79
580.33	7.6
580.522	7.8
580.713	7.71
580.905	7.72
581.096	7.81
581.287	7.71
581.479	7.65
581.67	7.76
581.862	7.61
582.053	7.7
582.244	7.61
582.436	7.76
582.627	7.66
582.818	7.62
583.01	7.6
583.201	7.65
583.392	7.61
583.583	7.58
583.775	7.41
583.966	7.57
584.157	7.58
584.348	7.66
584.54	7.51
584.731	7.57
584.922	7.56
585.113	7.46
585.304	7.58
585.495	7.57
585.686	7.6
585.877	7.54
586.068	7.61
586.259	7.53
586.45	7.53
586.641	7.42
586.832	7.59
587.023	7.38
587.214	7.45
587.405	7.5
587.596	7.41
587.787	7.36
587.978	7.45
588.169	7.4
588.36	7.36
588.551	7.43
588.742	7.37
588.932	7.5
589.123	7.17
589.314	7.49
589.505	7.31
589.696	7.38
589.886	7.3
590.077	7.33
590.268	7.33
590.458	7.19
590.649	7.1
590.84	7.25
591.03	7.29
591.221	7.26
591.412	7.15
591.602	7.36
591.793	7.21
591.984	7.26
592.174	7.15
592.365	7.39
592.555	7.06
592.746	7.16
592.936	7.13
593.127	7.17
593.317	7.24
593.508	7.18
593.698	7.07
593.889	7.1
594.079	7.1
594.269	6.96
594.46	7.03
594.65	7.03
594.84	7.01
595.031	6.92
595.221	7
595.411	6.97
595.602	7.03
595.792	6.87
595.982	6.86
596.172	7.02
596.363	6.87
596.553	6.87
596.743	6.89
596.933	6.88
597.123	6.83
597.314	6.75
597.504	6.72
597.694	6.92
597.884	6.85
598.074	6.78
598.264	6.79
598.454	6.78
598.644	6.75
598.834	6.78
599.024	6.68
599.214	6.67
599.404	6.75
599.594	6.7
599.784	6.56
599.974	6.72
600.164	6.65
600.354	6.6
600.544	6.52
600.734	6.56
600.924	6.59
601.114	6.56
601.303	6.59
601.493	6.58
601.683	6.54
601.873	6.57
602.063	6.47
602.252	6.51
602.442	6.43
602.632	6.38
602.821	6.37
603.011	6.45
603.201	6.4
603.39	6.38
603.58	6.24
603.77	6.38
603.959	6.45
604.149	6.3
604.339	6.34
604.528	6.45
604.718	6.37
604.907	6.25
605.097	6.23
605.286	6.23
605.476	6.23
605.665	6.26
605.855	6.11
606.044	6.26
606.234	6.21
606.423	6.16
606.612	6.17
606.802	6.13
606.991	6.19
607.181	6.18
607.37	6.1
607.559	5.9
607.749	6.07
607.938	6
608.127	5.97
608.316	6
608.506	6.04
608.695	6.06
608.884	5.91
609.073	5.98
609.263	6.04
609.452	6.01
609.641	5.79
609.83	5.81
610.019	5.96
610.208	5.84
610.397	5.85
610.586	5.83
610.775	5.75
610.965	5.73
611.154	5.7
611.343	5.8
611.532	5.67
611.721	5.81
611.91	5.7
612.099	5.67
612.287	5.63
612.476	5.55
612.665	5.69
612.854	5.57
613.043	5.56
613.232	5.64
613.421	5.51
613.61	5.6
613.798	5.52
613.987	5.61
614.176	5.54
614.365	5.54
614.554	5.5
614.742	5.51
614.931	5.32
615.12	5.51
615.309	5.43
615.497	5.37
615.686	5.31
615.875	5.36
616.063	5.37
616.252	5.31
616.44	5.32
616.629	5.3
616.818	5.3
617.006	5.32
617.195	5.2
617.383	5.22
617.572	5.14
617.76	5.14
617.949	5.18
618.137	5.28
618.326	5.25
618.514	5.02
618.703	4.96
618.891	5.22
619.079	5.04
619.268	5.14
619.456	4.98
619.644	5.11
619.833	4.95
620.021	4.89
620.209	4.87
620.398	4.96
620.586	4.86
620.774	4.94
620.962	4.89
621.151	5.02
621.339	4.87
621.527	4.8
621.715	4.78
621.903	4.82
622.092	4.74
622.28	4.91
622.468	4.65
622.656	4.76
622.844	4.73
623.032	4.73
623.22	4.62
623.408	4.76
623.596	4.72
623.784	4.74
623.972	4.57
624.16	4.65
624.348	4.68
624.536	4.67
624.724	4.54
624.912	4.61
625.1	4.59
625.288	4.6
625.476	4.5
625.664	4.57
625.851	4.47
626.039	4.58
626.227	4.46
626.415	4.5
626.603	4.36
626.79	4.47
626.978	4.39
627.166	4.47
627.354	4.35
627.541	4.39
627.729	4.22
627.917	4.47
628.104	4.4
628.292	4.29
628.48	4.29
628.667	4.23
628.855	4.32
629.042	4.32
629.23	4.24
629.418	4.31
629.605	4.26
629.793	4.17
629.98	4.18
630.168	4.18
630.355	4.23
630.543	4.18
630.73	4.04
630.917	4.09
631.105	4.16
631.292	4.13
631.48	4.06
631.667	4.18
631.854	4.03
632.042	4.02
632.229	3.94
632.416	3.98
632.604	3.97
632.791	3.83
632.978	3.98
633.165	3.94
633.353	3.96
633.54	4.02
633.727	3.81
633.914	3.79
634.101	3.78
634.289	3.94
634.476	3.76
634.663	3.75
634.85	3.81
635.037	3.76
635.224	3.68
635.411	3.83
635.598	3.7
635.785	3.69
635.972	3.67
636.159	3.76
636.346	3.64
636.533	3.61
636.72	3.62
636.907	3.6
637.094	3.58
637.281	3.48
637.468	3.55
637.655	3.64
637.842	3.57
638.029	3.5
638.215	3.49
638.402	3.54
638.589	3.43
638.776	3.48
638.963	3.4
639.149	3.54
639.336	3.5
639.523	3.45
639.709	3.4
639.896	3.37
640.083	3.4
640.27	3.46
640.456	3.35
640.643	3.34
640.829	3.23
641.016	3.24
641.203	3.2
641.389	3.3
641.576	3.27
641.762	3.22
641.949	3.19
642.135	3.27
642.322	3.25
642.508	3.11
642.695	3.14
642.881	3.16
643.068	3.09
643.254	3.13
643.441	3.14
643.627	3.15
643.813	3
644	3.11
644.186	3.04
644.372	3.05
644.559	3.04
644.745	3.02
644.931	2.9
645.118	3.01
645.304	3.04
645.49	2.98
645.676	2.95
645.862	3.02
646.049	3.03
646.235	2.94
646.421	3.04
646.607	3.05
646.793	2.89
646.979	2.82
647.165	2.92
647.352	2.89
647.538	2.88
647.724	2.84
647.91	2.81
648.096	2.86
648.282	2.84
648.468	2.77
648.654	2.8
648.84	2.8
649.026	2.77
649.212	2.69
649.397	2.68
649.583	2.69
649.769	2.76
649.955	2.71
650.141	2.69
650.327	2.72
650.513	2.64
650.698	2.68
650.884	2.53
651.07	2.71
651.256	2.62
651.442	2.57
651.627	2.49
651.813	2.61
651.999	2.52
652.184	2.57
652.37	2.52
652.556	2.52
652.741	2.59
652.927	2.46
653.113	2.48
653.298	2.52
653.484	2.5
653.669	2.42
653.855	2.48
654.04	2.5
654.226	2.46
654.412	2.4
654.597	2.31
654.782	2.46
654.968	2.47
655.153	2.39
655.339	2.36
655.524	2.3
655.71	2.4
655.895	2.34
656.08	2.33
656.266	2.42
656.451	2.26
656.636	2.28
656.822	2.28
657.007	2.28
657.192	2.27
657.378	2.21
657.563	2.22
657.748	2.25
657.933	2.24
658.118	2.17
658.304	2.2
658.489	2.21
658.674	2.18
658.859	2.15
659.044	2.15
659.229	2.17
659.414	2.13
659.599	2.12
659.785	2.09
659.97	2.13
660.155	2.12
660.34	2.16
660.525	2.11
660.71	2.04
660.895	2.09
661.08	2.08
661.264	1.93
661.449	2.1
661.634	2.07
661.819	2.07
662.004	2.07
662.189	1.93
662.374	1.96
662.559	1.92
662.743	1.92
662.928	1.97
663.113	1.95
663.298	1.9
663.483	1.92
663.667	1.92
663.852	1.92
664.037	1.93
664.221	1.87
664.406	1.97
664.591	1.97
664.775	1.9
664.96	1.92
665.145	1.85
665.329	1.93
665.514	1.8
665.698	1.77
665.883	1.78
666.068	1.86
666.252	1.84
666.437	1.77
666.621	1.81
666.806	1.79
666.99	1.79
667.174	1.68
667.359	1.84
667.543	1.74
667.728	1.79
667.912	1.64
668.096	1.77
668.281	1.71
668.465	1.78
668.649	1.69
668.834	1.65
669.018	1.7
669.202	1.65
669.387	1.63
669.571	1.75
669.755	1.68
669.939	1.65
670.124	1.66
670.308	1.74
670.492	1.63
670.676	1.64
670.86	1.59
671.044	1.56
671.228	1.67
671.413	1.52
671.597	1.53
671.781	1.59
671.965	1.66
672.149	1.56
672.333	1.54
672.517	1.55
672.701	1.61
672.885	1.53
673.069	1.45
673.253	1.62
673.437	1.55
673.621	1.53
673.804	1.56
673.988	1.52
674.172	1.54
674.356	1.4
674.54	1.49
674.724	1.66
674.908	1.5
675.091	1.53
675.275	1.45
675.459	1.51
675.643	1.47
675.826	1.47
676.01	1.44
676.194	1.42
676.377	1.47
676.561	1.48
676.745	1.45
676.928	1.51
677.112	1.49
677.296	1.39
677.479	1.38
677.663	1.35
677.846	1.41
678.03	1.35
678.213	1.33
678.397	1.42
678.58	1.34
678.764	1.32
678.947	1.24
679.131	1.35
679.314	1.48
679.498	1.34
679.681	1.33
679.865	1.4
680.048	1.25
680.231	1.28
680.415	1.27
680.598	1.32
680.781	1.22
680.965	1.3
681.148	1.27
681.331	1.2
681.514	1.35
681.698	1.22
681.881	1.27
682.064	1.31
682.247	1.27
682.43	1.19
682.614	1.22
682.797	1.27
682.98	1.27
683.163	1.15
683.346	1.22
683.529	1.19
683.712	1.15
683.895	1.21
684.078	1.12
684.261	1.12
684.444	1.25
684.627	1.2
684.81	1.09
684.993	1.2
685.176	1.21
685.359	1.04
685.542	1.08
685.725	1.26
685.908	1.15
686.091	1.13
686.274	1.19
686.457	1.18
686.639	1.09
686.822	1.18
687.005	1.07
687.188	1.2
687.371	1.21
687.553	1.14
687.736	1.08
687.919	1.24
688.102	1.15
688.284	1.06
688.467	1.03
688.65	1.07
688.832	0.99
689.015	1.04
689.197	0.95
689.38	1.17
689.563	1.17
689.745	0.94
689.928	0.96
690.11	1.02
690.293	1.01
690.475	0.9
690.658	1.01
690.84	1.01
691.023	0.98
691.205	0.91
691.388	0.94
691.57	1.09
691.752	1.07
691.935	0.91
692.117	0.92
692.3	0.95
692.482	0.99
692.664	0.9
692.847	0.99
693.029	1.13
693.211	1
693.393	0.96
693.576	0.94
693.758	1.03
693.94	0.97
694.122	0.95
694.304	0.89
694.487	0.92
694.669	0.99
694.851	0.85
695.033	0.88
695.215	0.92
695.397	0.89
695.579	0.86
695.761	0.88
695.943	0.8
696.125	1
696.308	0.98
696.49	0.79
696.671	1.05
696.853	0.92
697.035	1.09
697.217	0.84
697.399	0.98
697.581	0.83
697.763	0.87
697.945	0.79
698.127	0.88
698.309	0.97
698.491	0.88
698.672	0.9
698.854	0.89
699.036	0.92
699.218	0.84
699.399	0.91
699.581	0.89
699.763	0.83
699.945	0.79
700.126	0.75
700.308	0.85
700.49	0.77
700.671	0.67
700.853	0.72
701.035	0.78
701.216	0.84
701.398	0.76
701.579	0.77
701.761	0.84
701.943	0.78
702.124	0.75
702.306	0.8
702.487	0.95
702.669	0.76
702.85	0.74
703.031	0.67
703.213	0.88
703.394	0.86
703.576	0.69
703.757	0.92
703.938	0.84
704.12	0.99
704.301	0.72
704.483	0.65
704.664	0.82
704.845	0.89
705.026	0.74
705.208	0.76
705.389	0.79
705.57	0.72
705.751	0.77
705.933	0.68
706.114	0.81
706.295	0.71
706.476	0.62
706.657	0.84
706.838	0.79
707.02	0.79
707.201	0.73
707.382	0.61
707.563	0.79
707.744	0.69
707.925	0.64
708.106	0.66
708.287	0.75
708.468	0.8
708.649	0.69
708.83	0.7
709.011	0.59
709.192	0.76
709.373	0.64
709.554	0.6
709.734	0.79
709.915	0.75
710.096	0.64
710.277	0.51
710.458	0.69
710.639	0.7
710.819	0.52
711	0.62
711.181	0.73
711.362	0.67
711.542	0.66
711.723	0.58
711.904	0.71
712.085	0.69
712.265	0.65
712.446	0.57
712.627	0.56
712.807	0.62
712.988	0.6
713.168	0.54
713.349	0.65
713.53	0.53
713.71	0.58
713.891	0.52
714.071	0.6
714.252	0.59
714.432	0.56
714.613	0.42
714.793	0.61
714.974	0.69
715.154	0.65
715.334	0.65
715.515	0.76
715.695	0.54
715.876	0.6
716.056	0.54
716.236	0.55
716.417	0.58
716.597	0.58
716.777	0.82
716.957	0.61
717.138	0.57
717.318	0.52
717.498	0.46
717.678	0.62
717.859	0.56
718.039	0.49
718.219	0.57
718.399	0.52
718.579	0.52
718.759	0.5
718.939	0.59
719.12	0.56
719.3	0.57
719.48	0.48
719.66	0.45
719.84	0.64
720.02	0.56
720.2	0.55
720.38	0.54
720.56	0.81
720.74	0.45
720.92	0.52
721.1	0.74
721.279	0.64
721.459	0.53
721.639	0.48
721.819	0.49
721.999	0.55
722.179	0.56
722.359	0.44
722.538	0.56
722.718	0.56
722.898	0.49
723.078	0.51
723.257	0.51
723.437	0.56
723.617	0.6
723.797	0.51
723.976	0.49
724.156	0.64
724.336	0.61
724.515	0.76
724.695	0.42
724.874	0.48
725.054	0.61
725.234	0.49
725.413	0.54
725.593	0.51
725.772	0.52
725.952	0.49
726.131	0.43
726.311	0.53
726.49	0.55
726.67	0.45
726.849	0.47
727.028	0.53
727.208	0.46
727.387	0.53
727.567	0.38
727.746	0.41
727.925	0.48
728.105	0.3
728.284	0.5
728.463	0.4
728.643	0.56
728.822	0.31
729.001	0.4
729.18	0.5
729.359	0.6
729.539	0.48
729.718	0.49
729.897	0.56
730.076	0.42
730.255	0.41
730.434	0.48
730.614	0.68
730.793	0.59
730.972	0.41
731.151	0.42
731.33	0.53
731.509	0.58
731.688	0.59
731.867	0.44
732.046	0.3
732.225	0.75
732.404	0.45
732.583	0.37
732.762	0.49
732.941	0.64
733.12	0.53
733.298	0.48
733.477	0.55
733.656	0.46
733.835	0.31
734.014	0.49
734.193	0.51
734.371	0.54
734.55	0.55
734.729	0.31
734.908	0.47
735.086	0.45
735.265	0.55
735.444	0.28
735.623	0.4
735.801	0.33
735.98	0.48
736.159	0.48
736.337	0.59
736.516	0.5
736.694	0.54
736.873	0.44
737.052	0.72
737.23	0.7
737.409	0.48
737.587	0.67
737.766	0.27
737.944	0.41
738.123	0.51
738.301	0.59
738.479	0.51
738.658	0.46
738.836	0.27
739.015	0.44
739.193	0.55
739.371	0.38
739.55	0.34
739.728	0.38
739.906	0.7
740.085	0.6
740.263	0.46
740.441	0.22
740.62	0.78
740.798	0.55
740.976	0.31
741.154	0.32
741.332	0.68
741.511	0.41
741.689	0.47
741.867	0.56
742.045	0.58
742.223	0.43
742.401	0.31
742.579	0.3
742.757	0.57
742.935	0.28
743.114	0.33
743.292	0.47
743.47	0.48
743.648	0.49
743.826	0.48
744.004	0.38
744.181	0.57
744.359	0.46
744.537	0.46
744.715	0.49
744.893	0.46
745.071	0.49
745.249	0.37
745.427	0.47
745.605	0.6
745.782	0.48
745.96	0.49
746.138	0.56
746.316	0.61
746.493	0.44
746.671	0.35
746.849	0.43
747.027	0.67
747.204	0.34
747.382	0.43
747.56	0.32
747.737	0.42
747.915	0.43
748.093	0.43
748.27	0.32
748.448	0.39
748.625	0.19
748.803	0.35
748.98	0.27
749.158	0.52
749.335	0.46
749.513	0.3
749.69	0.4
749.868	0.41
750.045	0.53
750.223	0.29
750.4	0.11
750.578	0.67
750.755	0.4
750.932	0.16
751.11	0.37
751.287	0.29
751.464	0.65
751.642	0.26
751.819	0.47
751.996	0.45
752.173	0.31
752.351	0.28
752.528	0.3
752.705	0.36
752.882	0.3
753.06	0.5
753.237	0.44
753.414	0.59
753.591	0.67
753.768	0.52
753.945	0.27
754.122	0.36
754.299	0.5
754.476	0.31
754.654	0.29
754.831	0.49
755.008	0.48
755.185	0.27
755.362	0.33
755.539	0.46
755.716	0.38
755.892	0.31
756.069	0.36
756.246	0.38
756.423	0.37
756.6	0.57
756.777	0.25
756.954	0.48
757.131	0.38
757.307	0.3
757.484	0.23
757.661	0.33
757.838	0.5
758.015	0.22
758.191	0.41
758.368	0.49
758.545	0.47
758.721	0.37
758.898	0.22
759.075	0.4
759.251	0.53
759.428	0.41
759.605	0.08
759.781	0.32
759.958	0.48
760.134	0.37
760.311	0.31
760.488	0.39
760.664	0.59
760.841	0.34
761.017	0.19
761.194	0.39
761.37	0.51
761.547	0.42
761.723	0.26
761.899	0.61
762.076	0.34
762.252	0.19
762.429	0.3
762.605	0.54
762.781	0.36
762.958	0.35
763.134	0.3
763.31	0.24
763.486	0.52
763.663	0.06
763.839	0.4
764.015	0.12
764.191	0.21
764.368	0.34
764.544	0.22
764.72	0.42
764.896	0.51
765.072	0.41
765.248	0.27
765.425	0.31
765.601	0.36
765.777	0.31
765.953	0.11
766.129	0.26
766.305	0.25
766.481	0.45
766.657	0.34
766.833	0.49
767.009	0.14
767.185	0.26
767.361	0.3
767.537	0.23
767.713	0.66
767.889	0.27
768.065	0.31
768.24	0.48
768.416	0.55
768.592	0.16
768.768	0.27
768.944	0.36
769.12	0.23
769.295	0.33
769.471	0.26
769.647	0.49
769.823	0.56
769.998	0.25
770.174	0.24
770.35	0.7
770.525	0.68
770.701	0.33
770.877	0.44
771.052	0.31
771.228	0.63
771.403	0.39
771.579	0.27
771.755	0.82
771.93	0.18
772.106	0.25
772.281	0.04
772.457	0.38
772.632	0.46
772.808	0.14
772.983	0.3
773.159	0.21
773.334	0.48
773.509	0.25
773.685	0.27
773.86	0.8
774.036	0.45
774.211	0.4
774.386	0.31
774.562	0.37
774.737	0.56
774.912	0.24
775.087	0.36
775.263	0.32
775.438	0.5
775.613	0.21
775.788	0.26
775.964	0.51
776.139	0.93
776.314	0.14
776.489	0.52
776.664	0.39
776.839	0.14
777.014	0.31
777.19	0.59
777.365	0.71
777.54	0.62
777.715	0.18
777.89	0.31
778.065	0.33
778.24	0.46
778.415	0.46
778.59	0.23
778.765	0.39
778.94	0.53
779.115	0.35
779.289	0.24
779.464	0.46
779.639	0.27
779.814	0.01
779.989	0.16
780.164	0.7
780.339	0.52
780.513	0.25
780.688	0.14
780.863	0.5
781.038	0.67
781.212	0.24
781.387	0.24
781.562	0.61
781.737	0.26
781.911	0.8
782.086	0.19
782.261	0.4
782.435	0.67
782.61	0.41
782.784	0.39
782.959	0.61
783.134	0.38
783.308	0.13
783.483	0.12
783.657	0.98
783.832	0.49
784.006	0
784.181	0.51
784.355	0.6
784.53	0.22
784.704	0.28
784.878	0.75
785.053	0.6
785.227	0.83
785.402	1.05
785.576	0.19
785.75	0.52
785.925	0.44
786.099	0.63
786.273	0.34
786.448	0.76
786.622	0.76
786.796	0.33
786.97	0.37
787.145	1.09
787.319	-0
787.493	0.36
787.667	0.04
787.841	0.34
788.015	0.84
788.19	0.3
788.364	0.24
788.538	0.58
788.712	0.52
788.886	0.44
789.06	0.54
789.234	0.58
789.408	0.13
789.582	0.46
789.756	0.13
789.93	0.17
790.104	0.48
790.278	0.53
790.452	0.29
790.626	0.59
790.8	0.26
790.973	0.67
791.147	0.76
791.321	0.79
791.495	0.66
791.669	0.41
791.843	0.51
792.016	0.44
792.19	0.96
792.364	0.03
792.538	1.02
792.711	0.88
792.885	0.23
793.059	0.25
793.233	-0.13
793.406	0.49
793.58	0.38
793.754	0.58
793.927	0.32
794.101	0.79
794.274	0.37
794.448	0.68
794.622	0.01
794.795	0.92
794.969	0.1
795.142	0.71
795.316	0.4
795.489	0.32
795.663	1.01
795.836	0.41
796.009	0.08
796.183	0.9
796.356	0.41
796.53	0.76
796.703	0.77
796.876	1.1
797.05	0.27
797.223	0.21
797.396	0.5
797.57	0.42
797.743	1.06
797.916	0.58
798.09	0.24
798.263	0.8
798.436	0.64
798.609	0.27
798.782	0.12
798.956	0.54
799.129	0.65
799.302	0.25
799.475	0.3
799.648	0.23
799.821	0.37
799.994	0.49
800.167	-0.03
800.34	0.55
800.514	0.56
800.687	0.38
800.86	0.16
801.033	0.5
801.206	0.9
801.379	0.1
801.551	0.86
801.724	0.6
801.897	1.09
802.07	0.6
802.243	0.32
802.416	0.69
802.589	0.65
802.762	0.77
802.935	0.64
803.107	1.11
803.28	0.98
803.453	0.78
803.626	0.18
803.798	0.43
803.971	0.16
804.144	0.55
804.317	0.42
804.489	0.77
804.662	0.6
804.835	0.33
805.007	0.35
805.18	1.2
805.353	0.41
805.525	0.13
805.698	0.14
805.87	0.95
806.043	0.9
806.215	0.04
806.388	-0.03
806.56	0.63
806.733	1.03
806.905	0.54
807.078	0.28
807.25	0.25
807.423	0.82
807.595	0.44
807.768	0.62
807.94	0.94
808.112	0.87
808.285	0.53
808.457	-0.01
808.629	0.54
808.802	0.79
808.974	0.31
809.146	0.39
809.318	0.33
809.491	0.78
809.663	1.02
809.835	0.19
810.007	0.68
810.18	0.6
810.352	0.15
810.524	0.37
810.696	0.93
810.868	1.04
811.04	0.03
811.212	0.54
811.384	0.85
811.556	0.45
811.728	0.48
811.901	1.25
812.073	0.44
812.245	0.65
812.417	0.21
812.589	-0.27
812.76	0.85
812.932	0.8
813.104	1.03
813.276	0.17
813.448	0.78
813.62	0.87
813.792	0.62
813.964	0.5
814.136	0.5
814.307	0.33
814.479	0.05
814.651	0.19
814.823	1.46
814.995	0.37
815.166	0.55
815.338	0.23
815.51	0.18
815.681	1.72
815.853	0.59
816.025	0.38
816.196	1.54
816.368	1.43
816.54	-0.04
816.711	0.29
816.883	0.92
817.054	1.8
817.226	-0.21
817.398	0.93
817.569	0.32
817.741	0.77
817.912	0.43
818.084	0.46
818.255	1.22
818.426	0.44
818.598	0.85
818.769	0.34
818.941	1.07
819.112	1.43
819.283	0.62
819.455	-0.2
819.626	0.66
819.798	1.07
819.969	1.16
820.14	0.02
820.311	0.72
820.483	1.01
820.654	1.1
820.825	0.42
820.996	0.58
821.168	-0.17
821.339	0.66
821.51	-0.21
821.681	0.76
821.852	0.92
822.023	-0.24
822.195	-0.05
822.366	1.26
822.537	0.67
822.708	0.63
822.879	0.2
823.05	1.5
823.221	0.54
823.392	0.64
823.563	0.73
823.734	0.88
823.905	0.8
824.076	0.27
824.247	0.11
824.418	0.85
824.589	1.71
824.759	0.48
824.93	0.39
825.101	-0.05
825.272	1.45
825.443	1.84
825.614	1.29
825.784	-0.56
825.955	2.38
826.126	1.55
826.297	0.75
826.467	1.73
826.638	2.28
826.809	0.19
826.98	1.02
827.15	1.2
827.321	1.23
827.492	1.68
827.662	0.69
827.833	2.47
828.003	1.28
828.174	0.29
828.345	0.26
828.515	1.62
828.686	1.32
828.856	0.57
829.027	0.52
829.197	0.59
829.368	0.41
829.538	0.36
829.709	-0.02
829.879	1.16
830.049	1.73
830.22	0.47
830.39	0.7
830.56	1.27
830.731	0.69
830.901	0.24
831.072	0.36
831.242	1.52
831.412	1.04
831.582	0.39
831.753	-0.25
831.923	1.53
832.093	1.48
832.263	1.17
832.434	-0.06
832.604	0.28
832.774	1.43
832.944	0.35
833.114	-0.14
833.284	0.71
833.454	0.64
833.624	0.26
833.795	0.29
833.965	1.74
834.135	1.91
834.305	-0.64
834.475	0.24
834.645	1.57
834.815	0.46
834.985	0.36
835.155	0.01
835.325	1.19
835.494	1.77
835.664	0.2
835.834	0.04
836.004	0.84
836.174	0.66
836.344	1.05
836.514	-0.47
836.684	-0.29
836.853	1.02
837.023	1.32
837.193	-0.03
837.363	1.94
837.532	1.92
837.702	0.73
837.872	0.53
838.041	1.69
838.211	2.9
838.381	-0.22
838.55	0.44
838.72	3.37
838.89	2.73
839.059	0.88
839.229	-0.06
839.398	3.56
839.568	1.18
839.738	0.51
839.907	1.93
840.077	1.27
840.246	0.38
840.416	0.49
840.585	-0.32
840.755	2.35
840.924	2.86
841.093	-0.07
841.263	0.46
841.432	1.43
841.602	0.32
841.771	-0.33
841.94	0.6
842.11	3.38
842.279	2.61
842.448	-0
842.617	0.25
842.787	2.23
842.956	0.57
843.125	0.74
843.294	0.11
843.464	2.22
843.633	0.57
843.802	-0.29
843.971	1.06
844.14	0.87
844.309	2.7
844.479	-1.36
844.648	-0.19
844.817	1.16
844.986	0.75
845.155	0.8
845.324	0.53
845.493	1.21
845.662	1.25
845.831	1.91
846	1.61
846.169	0.64
846.338	2.63
846.507	1.72
846.676	1.2
846.844	1.47
847.013	0.8
847.182	1.49
847.351	0.3
847.52	1.08
847.689	1.17
847.858	0.57
848.026	0.44
848.195	1.78
848.364	0.82
848.533	0.89
848.701	-0.43
848.87	1.11
849.039	2.35
849.207	1.5
849.376	1.77
849.545	3.06
849.713	0.42
849.882	-0.1
850.051	0.42
850.219	1.77
850.388	2.67
850.556	-0.17
850.725	0.24
850.893	0.66
851.062	0.96
851.23	1.64
851.399	-0.7
851.567	1.49
851.736	0.86
851.904	0.1
852.073	0.64
852.241	1.88
852.41	1.29
852.578	0.71
852.746	-0.62
852.915	1.11
853.083	1.22
853.251	-0.5
853.42	0.63
853.588	0.85
853.756	2.7
853.924	0.69
854.093	0.77
854.261	-0.26
854.429	-0.9
854.597	1.87
854.765	-0.32
854.934	3.05
855.102	2.13
855.27	1.37
855.438	2
855.606	2.77
855.774	3.03
855.942	0.74
856.11	0.26
856.278	2.05
856.446	2.71
856.614	1.13
856.782	0.73
856.95	3.49
857.118	1.76
857.286	2.67
857.454	0.9
857.622	2.89
857.79	2.53
857.958	-0.7
858.126	0.8
858.294	-0.99
858.462	0.88
858.629	0.16
858.797	-0.48
858.965	2.75
859.133	1.09
859.301	1.01
859.468	1.75
859.636	0.86
859.804	3.4
859.971	3.52
860.139	0.55
860.307	2.88
860.474	2.05
860.642	0.97
860.81	0.25
860.977	1.16
861.145	2.61
861.313	0.22
861.48	1.26
861.648	2.62
861.815	0.87
861.983	0.35
862.15	0.28
862.318	3.32
862.485	2.58
862.653	0.48
862.82	-0.03
862.988	3.19
863.155	3.3
863.322	1.56
863.49	0.38
863.657	1.73
863.824	4.23
863.992	1.38
864.159	2.17
864.326	4.27
864.494	0.51
864.661	3.81
864.828	-0.61
864.996	2.87
865.163	5.08
865.33	-0.17
865.497	-1.26
865.664	1.15
865.832	-0.12
865.999	1.01
866.166	0.32
866.333	1.1
866.5	1.92
866.667	-0.51
866.834	2.11
867.001	3.24
867.168	-1.86
867.335	1.32
867.502	-1.05
867.669	1.91
867.836	3.99
868.003	1.15
868.17	2.97
868.337	0.6
868.504	5.75
868.671	-0.56
868.838	0.17
869.005	3.07
869.172	2.96
869.339	2.87
869.505	0.01
869.672	1.71
869.839	5.05
870.006	1.97
870.173	0.53
870.339	3.7
870.506	4.32
870.673	-0.63
870.84	2.46
871.006	2.74
871.173	2.98
871.34	0.72
871.506	-0.76
871.673	3.15
871.839	-1.01
872.006	1.6
872.173	0.84
872.339	4.09
872.506	3.84
872.672	1.03
872.839	0.03
873.005	1.88
873.172	6.25
873.338	2.75
873.505	1.69
873.671	3.72
873.838	2.08
874.004	-1.14
874.171	-0.62
874.337	2.34
874.503	3.78
874.67	1.17
874.836	1.21
875.002	3.39
875.169	3.56
875.335	0.59
875.501	1.26
875.668	2.85
875.834	1.38
876	-0.2
876.166	2.13
876.332	3.27
876.499	6.15
876.665	0.98
876.831	1.39
876.997	6.29
877.163	3.95
877.329	2.29
877.495	3.13
877.662	3.9
877.828	2.97
877.994	1.05
878.16	-1.37
878.326	0.46
878.492	2.81
878.658	0.94
878.824	4.94
878.99	2.73
879.156	2.14
879.322	3.77
879.487	2.11
879.653	1.19
879.819	4.21
879.985	-0.47
880.151	1.88
880.317	2.84
880.483	2.67
880.648	4.26
880.814	0.33
880.98	3.11
881.146	-1.62
881.312	-0.21
881.477	2.33
881.643	1.11
881.809	3.46
881.974	4.25
882.14	-0.83
882.306	3.8
882.471	7.12
882.637	0.79
882.803	2.6
882.968	4.17
883.134	5.33
883.299	1.94
883.465	1.4
883.63	4.16
883.796	4.1
883.961	3.44
884.127	2.51
884.292	-1.97
884.458	0.09
884.623	0.09
