Data from Apollo_Calib_20240827__AbsoluteIrradiance__15__23-24-02-640.txt Node

Date: Tue Aug 27 23:24:02 BST 2024
User: biology
Spectrometer: FLMT08252
Trigger mode: 0
Integration Time (sec): 5.000000E-1
Scans to average: 5
Electric dark correction enabled: true
Nonlinearity correction enabled: false
Boxcar width: 0
XAxis mode: Wavelengths
Number of Pixels in Spectrum: 3648
>>>>>Begin Spectral Data<<<<<
179.588	-0
179.809	-0
180.03	-0
180.251	-0
180.473	-0
180.694	0
180.915	0
181.136	-0
181.357	-0
181.578	-0
181.799	0
182.02	-0
182.241	0
182.462	-0
182.683	0
182.904	-0
183.125	0
183.346	0
183.567	0
183.788	0
184.009	0
184.23	0
184.451	0
184.672	0
184.892	0
185.113	0
185.334	0
185.555	0
185.776	0
185.996	0
186.217	0
186.438	0
186.659	0
186.879	0
187.1	0
187.321	0
187.541	0
187.762	0
187.983	0
188.203	0
188.424	0
188.644	0
188.865	0
189.086	0
189.306	0
189.527	0
189.747	0
189.968	0
190.188	0
190.409	0
190.629	0
190.849	0
191.07	0
191.29	0
191.511	0
191.731	0
191.951	0
192.172	0
192.392	0
192.612	0
192.833	0
193.053	0
193.273	0
193.493	0
193.714	0
193.934	0
194.154	0
194.374	0
194.594	0
194.815	0
195.035	0
195.255	0
195.475	0
195.695	0
195.915	0
196.135	0
196.355	0
196.575	0
196.795	0
197.015	0
197.235	0
197.455	0
197.675	0
197.895	0
198.115	0
198.335	0
198.555	0
198.775	0
198.995	0
199.214	0
199.434	0
199.654	0
199.874	0
200.094	3.68
200.313	2.85
200.533	3
200.753	2.2
200.973	3.31
201.192	3.27
201.412	2.13
201.632	2.2
201.851	2.98
202.071	2.36
202.291	2.11
202.51	1.74
202.73	2.65
202.95	2.42
203.169	2.1
203.389	2.01
203.608	2.33
203.828	1.87
204.047	2.05
204.267	2.04
204.486	2.05
204.706	2.32
204.925	1.84
205.145	1.67
205.364	1.79
205.583	2.56
205.803	1.9
206.022	1.17
206.242	2.16
206.461	2.08
206.68	1.48
206.9	1.7
207.119	2.54
207.338	2.19
207.557	1.63
207.777	1.71
207.996	1.34
208.215	1.97
208.434	1.44
208.654	1.57
208.873	1.34
209.092	1.78
209.311	1.5
209.53	1.44
209.749	1.27
209.968	1.21
210.187	1.39
210.407	0.93
210.626	1.08
210.845	1.5
211.064	1.48
211.283	1.28
211.502	1.6
211.721	1.43
211.94	1.36
212.159	1.55
212.377	1.33
212.596	1.42
212.815	1.44
213.034	1.29
213.253	1.33
213.472	1.39
213.691	1.25
213.91	0.99
214.128	1.22
214.347	1.5
214.566	0.87
214.785	0.87
215.003	1
215.222	1.05
215.441	1.08
215.66	0.9
215.878	1.18
216.097	1.16
216.316	0.69
216.534	0.99
216.753	1.02
216.972	0.89
217.19	0.97
217.409	0.81
217.627	0.88
217.846	0.84
218.064	0.95
218.283	0.67
218.501	1.53
218.72	1.34
218.938	0.79
219.157	0.74
219.375	1.19
219.594	0.97
219.812	0.65
220.031	0.84
220.249	1.17
220.467	1.02
220.686	0.83
220.904	0.6
221.122	0.56
221.341	1.25
221.559	0.97
221.777	0.67
221.995	1.07
222.214	1.05
222.432	0.9
222.65	1.17
222.868	0.76
223.086	0.94
223.305	0.93
223.523	0.74
223.741	0.94
223.959	0.61
224.177	0.54
224.395	0.66
224.613	0.86
224.831	1.01
225.049	0.69
225.267	0.61
225.485	0.69
225.703	0.78
225.921	0.61
226.139	0.72
226.357	0.88
226.575	0.61
226.793	0.63
227.011	1.28
227.229	0.75
227.447	0.87
227.665	0.64
227.883	0.51
228.1	0.79
228.318	0.69
228.536	0.42
228.754	0.64
228.972	0.69
229.189	0.82
229.407	0.61
229.625	0.6
229.843	0.71
230.06	0.77
230.278	0.58
230.496	0.75
230.713	0.67
230.931	0.8
231.149	0.62
231.366	0.43
231.584	0.64
231.801	0.89
232.019	0.57
232.236	0.48
232.454	0.61
232.671	0.65
232.889	0.66
233.106	0.5
233.324	0.64
233.541	0.62
233.759	0.62
233.976	0.55
234.194	0.56
234.411	0.59
234.628	0.43
234.846	0.62
235.063	0.65
235.28	0.68
235.498	0.65
235.715	0.44
235.932	0.69
236.149	0.57
236.367	0.43
236.584	0.49
236.801	0.5
237.018	0.65
237.236	0.64
237.453	0.5
237.67	0.63
237.887	0.51
238.104	0.46
238.321	0.39
238.538	0.52
238.755	0.69
238.973	0.46
239.19	0.59
239.407	0.52
239.624	0.41
239.841	0.38
240.058	0.58
240.275	0.59
240.492	0.48
240.709	0.55
240.925	0.42
241.142	0.54
241.359	0.46
241.576	0.46
241.793	0.55
242.01	0.59
242.227	0.49
242.444	0.6
242.66	0.66
242.877	0.53
243.094	0.6
243.311	0.47
243.527	0.5
243.744	0.58
243.961	0.52
244.178	0.43
244.394	0.42
244.611	0.6
244.828	0.62
245.044	0.32
245.261	0.48
245.477	0.47
245.694	0.57
245.911	0.36
246.127	0.47
246.344	0.59
246.56	0.52
246.777	0.45
246.993	0.48
247.21	0.58
247.426	0.5
247.643	0.43
247.859	0.41
248.076	0.47
248.292	0.57
248.508	0.41
248.725	0.47
248.941	0.53
249.157	0.53
249.374	0.3
249.59	0.51
249.806	0.45
250.023	0.51
250.239	0.4
250.455	0.38
250.671	0.47
250.888	0.53
251.104	0.43
251.32	0.4
251.536	0.4
251.752	0.4
251.969	0.49
252.185	0.5
252.401	0.63
252.617	0.38
252.833	0.42
253.049	0.45
253.265	0.44
253.481	0.5
253.697	0.4
253.913	0.39
254.129	0.34
254.345	0.43
254.561	0.43
254.777	0.38
254.993	0.48
255.209	0.48
255.425	0.38
255.641	0.35
255.857	0.51
256.073	0.4
256.288	0.34
256.504	0.43
256.72	0.44
256.936	0.55
257.152	0.41
257.367	0.36
257.583	0.4
257.799	0.5
258.015	0.34
258.23	0.42
258.446	0.51
258.662	0.45
258.877	0.32
259.093	0.39
259.309	0.39
259.524	0.47
259.74	0.39
259.955	0.35
260.171	0.44
260.387	0.39
260.602	0.51
260.818	0.43
261.033	0.37
261.249	0.36
261.464	0.4
261.68	0.32
261.895	0.41
262.11	0.5
262.326	0.35
262.541	0.31
262.757	0.48
262.972	0.43
263.187	0.37
263.403	0.42
263.618	0.4
263.833	0.38
264.049	0.36
264.264	0.32
264.479	0.5
264.694	0.44
264.91	0.32
265.125	0.4
265.34	0.49
265.555	0.57
265.77	0.4
265.986	0.35
266.201	0.45
266.416	0.5
266.631	0.32
266.846	0.37
267.061	0.47
267.276	0.43
267.491	0.25
267.706	0.44
267.921	0.42
268.136	0.37
268.351	0.39
268.566	0.31
268.781	0.43
268.996	0.42
269.211	0.4
269.426	0.33
269.641	0.33
269.856	0.45
270.071	0.27
270.285	0.25
270.5	0.45
270.715	0.38
270.93	0.3
271.145	0.42
271.359	0.37
271.574	0.29
271.789	0.33
272.004	0.41
272.218	0.36
272.433	0.37
272.648	0.27
272.862	0.45
273.077	0.36
273.292	0.37
273.506	0.38
273.721	0.32
273.936	0.44
274.15	0.4
274.365	0.37
274.579	0.42
274.794	0.31
275.008	0.43
275.223	0.27
275.437	0.38
275.652	0.47
275.866	0.41
276.081	0.32
276.295	0.4
276.509	0.35
276.724	0.35
276.938	0.39
277.153	0.43
277.367	0.41
277.581	0.3
277.796	0.31
278.01	0.28
278.224	0.39
278.438	0.44
278.653	0.29
278.867	0.3
279.081	0.2
279.295	0.35
279.51	0.36
279.724	0.25
279.938	0.36
280.152	0.34
280.366	0.3
280.58	0.32
280.794	0.42
281.008	0.33
281.222	0.38
281.437	0.48
281.651	0.39
281.865	0.32
282.079	0.29
282.293	0.21
282.507	0.3
282.721	0.32
282.935	0.37
283.148	0.26
283.362	0.31
283.576	0.24
283.79	0.3
284.004	0.27
284.218	0.39
284.432	0.28
284.646	0.3
284.859	0.3
285.073	0.33
285.287	0.36
285.501	0.3
285.714	0.33
285.928	0.34
286.142	0.32
286.356	0.25
286.569	0.27
286.783	0.4
286.997	0.4
287.21	0.28
287.424	0.29
287.637	0.24
287.851	0.29
288.065	0.33
288.278	0.3
288.492	0.36
288.705	0.32
288.919	0.34
289.132	0.23
289.346	0.35
289.559	0.28
289.773	0.24
289.986	0.3
290.2	0.33
290.413	0.4
290.626	0.27
290.84	0.33
291.053	0.29
291.267	0.37
291.48	0.32
291.693	0.32
291.906	0.26
292.12	0.29
292.333	0.28
292.546	0.25
292.76	0.4
292.973	0.33
293.186	0.28
293.399	0.24
293.612	0.37
293.826	0.27
294.039	0.28
294.252	0.29
294.465	0.35
294.678	0.31
294.891	0.34
295.104	0.27
295.317	0.34
295.53	0.31
295.743	0.27
295.956	0.27
296.169	0.34
296.382	0.33
296.595	0.27
296.808	0.26
297.021	0.34
297.234	0.36
297.447	0.24
297.66	0.26
297.873	0.33
298.086	0.31
298.299	0.23
298.511	0.22
298.724	0.29
298.937	0.23
299.15	0.25
299.363	0.28
299.575	0.36
299.788	0.32
300.001	0.23
300.213	0.24
300.426	0.27
300.639	0.23
300.852	0.29
301.064	0.31
301.277	0.33
301.489	0.31
301.702	0.29
301.915	0.33
302.127	0.26
302.34	0.27
302.552	0.3
302.765	0.26
302.977	0.34
303.19	0.24
303.402	0.24
303.615	0.25
303.827	0.22
304.04	0.26
304.252	0.3
304.464	0.25
304.677	0.33
304.889	0.27
305.102	0.28
305.314	0.28
305.526	0.33
305.739	0.28
305.951	0.24
306.163	0.27
306.375	0.32
306.588	0.27
306.8	0.22
307.012	0.19
307.224	0.27
307.436	0.34
307.649	0.19
307.861	0.27
308.073	0.31
308.285	0.23
308.497	0.21
308.709	0.25
308.921	0.28
309.133	0.29
309.346	0.32
309.558	0.27
309.77	0.31
309.982	0.29
310.194	0.36
310.406	0.27
310.617	0.33
310.829	0.28
311.041	0.28
311.253	0.25
311.465	0.24
311.677	0.25
311.889	0.29
312.101	0.24
312.313	0.3
312.524	0.29
312.736	0.19
312.948	0.27
313.16	0.36
313.372	0.28
313.583	0.32
313.795	0.22
314.007	0.21
314.218	0.29
314.43	0.28
314.642	0.26
314.853	0.22
315.065	0.31
315.277	0.26
315.488	0.27
315.7	0.32
315.912	0.26
316.123	0.22
316.335	0.27
316.546	0.35
316.758	0.27
316.969	0.25
317.181	0.28
317.392	0.28
317.604	0.33
317.815	0.2
318.026	0.23
318.238	0.29
318.449	0.31
318.661	0.15
318.872	0.22
319.083	0.22
319.295	0.29
319.506	0.27
319.717	0.29
319.929	0.27
320.14	0.28
320.351	0.32
320.562	0.27
320.774	0.28
320.985	0.27
321.196	0.22
321.407	0.22
321.618	0.33
321.829	0.28
322.041	0.32
322.252	0.28
322.463	0.29
322.674	0.3
322.885	0.24
323.096	0.27
323.307	0.28
323.518	0.24
323.729	0.23
323.94	0.32
324.151	0.25
324.362	0.23
324.573	0.3
324.784	0.24
324.995	0.3
325.206	0.31
325.417	0.2
325.628	0.24
325.838	0.26
326.049	0.27
326.26	0.32
326.471	0.25
326.682	0.28
326.892	0.29
327.103	0.22
327.314	0.24
327.525	0.31
327.735	0.26
327.946	0.27
328.157	0.24
328.368	0.31
328.578	0.25
328.789	0.39
328.999	0.25
329.21	0.25
329.421	0.34
329.631	0.26
329.842	0.21
330.052	0.27
330.263	0.3
330.473	0.33
330.684	0.32
330.894	0.26
331.105	0.31
331.315	0.29
331.526	0.2
331.736	0.33
331.947	0.26
332.157	0.32
332.367	0.23
332.578	0.34
332.788	0.34
332.999	0.31
333.209	0.25
333.419	0.23
333.629	0.28
333.84	0.26
334.05	0.26
334.26	0.35
334.47	0.33
334.681	0.31
334.891	0.24
335.101	0.33
335.311	0.33
335.521	0.32
335.732	0.23
335.942	0.31
336.152	0.3
336.362	0.27
336.572	0.27
336.782	0.28
336.992	0.23
337.202	0.24
337.412	0.24
337.622	0.28
337.832	0.31
338.042	0.29
338.252	0.23
338.462	0.28
338.672	0.29
338.882	0.26
339.092	0.22
339.302	0.31
339.511	0.26
339.721	0.25
339.931	0.21
340.141	0.29
340.351	0.26
340.561	0.29
340.77	0.29
340.98	0.26
341.19	0.28
341.4	0.23
341.609	0.26
341.819	0.25
342.029	0.22
342.238	0.26
342.448	0.24
342.658	0.31
342.867	0.29
343.077	0.28
343.286	0.31
343.496	0.27
343.706	0.31
343.915	0.22
344.125	0.28
344.334	0.27
344.544	0.22
344.753	0.26
344.963	0.26
345.172	0.27
345.381	0.22
345.591	0.24
345.8	0.3
346.01	0.32
346.219	0.23
346.428	0.16
346.638	0.23
346.847	0.29
347.056	0.35
347.266	0.27
347.475	0.27
347.684	0.28
347.893	0.27
348.103	0.3
348.312	0.25
348.521	0.27
348.73	0.26
348.94	0.29
349.149	0.23
349.358	0.26
349.567	0.25
349.776	0.2
349.985	0.27
350.194	0.29
350.403	0.29
350.612	0.19
350.821	0.26
351.03	0.25
351.239	0.25
351.448	0.25
351.657	0.2
351.866	0.36
352.075	0.24
352.284	0.31
352.493	0.19
352.702	0.29
352.911	0.29
353.12	0.24
353.329	0.21
353.538	0.25
353.746	0.22
353.955	0.2
354.164	0.29
354.373	0.23
354.582	0.28
354.79	0.3
354.999	0.27
355.208	0.24
355.416	0.27
355.625	0.19
355.834	0.24
356.042	0.28
356.251	0.24
356.46	0.23
356.668	0.25
356.877	0.33
357.085	0.31
357.294	0.21
357.503	0.31
357.711	0.2
357.92	0.39
358.128	0.28
358.337	0.27
358.545	0.25
358.754	0.26
358.962	0.31
359.17	0.27
359.379	0.23
359.587	0.3
359.796	0.26
360.004	0.3
360.212	0.26
360.421	0.29
360.629	0.25
360.837	0.26
361.046	0.25
361.254	0.35
361.462	0.29
361.67	0.24
361.879	0.29
362.087	0.27
362.295	0.27
362.503	0.23
362.711	0.24
362.92	0.27
363.128	0.21
363.336	0.24
363.544	0.21
363.752	0.25
363.96	0.27
364.168	0.23
364.376	0.24
364.584	0.27
364.792	0.29
365	0.26
365.208	0.26
365.416	0.28
365.624	0.3
365.832	0.23
366.04	0.28
366.248	0.27
366.456	0.28
366.664	0.27
366.872	0.24
367.079	0.25
367.287	0.25
367.495	0.23
367.703	0.25
367.911	0.2
368.118	0.27
368.326	0.28
368.534	0.24
368.742	0.31
368.949	0.23
369.157	0.27
369.365	0.28
369.572	0.25
369.78	0.22
369.988	0.31
370.195	0.31
370.403	0.29
370.61	0.24
370.818	0.26
371.026	0.36
371.233	0.24
371.441	0.31
371.648	0.22
371.856	0.26
372.063	0.24
372.271	0.25
372.478	0.3
372.685	0.29
372.893	0.29
373.1	0.28
373.308	0.29
373.515	0.36
373.722	0.3
373.93	0.31
374.137	0.33
374.344	0.31
374.552	0.29
374.759	0.28
374.966	0.27
375.173	0.25
375.381	0.32
375.588	0.25
375.795	0.21
376.002	0.24
376.209	0.26
376.417	0.25
376.624	0.33
376.831	0.26
377.038	0.27
377.245	0.2
377.452	0.26
377.659	0.27
377.866	0.23
378.073	0.28
378.28	0.3
378.487	0.31
378.694	0.31
378.901	0.27
379.108	0.26
379.315	0.3
379.522	0.37
379.729	0.29
379.936	0.26
380.143	0.3
380.35	0.3
380.557	0.28
380.763	0.31
380.97	0.25
381.177	0.29
381.384	0.25
381.591	0.26
381.797	0.24
382.004	0.28
382.211	0.31
382.418	0.3
382.624	0.32
382.831	0.3
383.038	0.27
383.244	0.29
383.451	0.24
383.658	0.29
383.864	0.32
384.071	0.23
384.277	0.35
384.484	0.24
384.69	0.3
384.897	0.24
385.103	0.3
385.31	0.27
385.516	0.24
385.723	0.26
385.929	0.27
386.136	0.28
386.342	0.28
386.549	0.24
386.755	0.31
386.961	0.33
387.168	0.28
387.374	0.29
387.58	0.34
387.787	0.3
387.993	0.37
388.199	0.27
388.406	0.26
388.612	0.32
388.818	0.27
389.024	0.3
389.231	0.34
389.437	0.38
389.643	0.34
389.849	0.33
390.055	0.35
390.261	0.32
390.467	0.34
390.674	0.27
390.88	0.34
391.086	0.35
391.292	0.27
391.498	0.35
391.704	0.3
391.91	0.3
392.116	0.27
392.322	0.2
392.528	0.35
392.734	0.28
392.94	0.31
393.146	0.32
393.352	0.32
393.557	0.3
393.763	0.29
393.969	0.36
394.175	0.32
394.381	0.35
394.587	0.29
394.792	0.32
394.998	0.35
395.204	0.39
395.41	0.3
395.615	0.35
395.821	0.42
396.027	0.4
396.233	0.31
396.438	0.32
396.644	0.44
396.85	0.39
397.055	0.38
397.261	0.38
397.466	0.41
397.672	0.35
397.878	0.42
398.083	0.38
398.289	0.35
398.494	0.37
398.7	0.35
398.905	0.26
399.111	0.44
399.316	0.28
399.522	0.39
399.727	0.34
399.932	0.35
400.138	0.33
400.343	0.38
400.549	0.35
400.754	0.34
400.959	0.36
401.165	0.36
401.37	0.37
401.575	0.49
401.78	0.35
401.986	0.39
402.191	0.37
402.396	0.41
402.601	0.42
402.807	0.42
403.012	0.4
403.217	0.42
403.422	0.41
403.627	0.39
403.832	0.39
404.037	0.48
404.243	0.42
404.448	0.4
404.653	0.47
404.858	0.47
405.063	0.47
405.268	0.45
405.473	0.46
405.678	0.43
405.883	0.58
406.088	0.51
406.293	0.34
406.498	0.46
406.703	0.51
406.907	0.49
407.112	0.47
407.317	0.52
407.522	0.56
407.727	0.46
407.932	0.55
408.136	0.61
408.341	0.59
408.546	0.61
408.751	0.61
408.956	0.58
409.16	0.59
409.365	0.63
409.57	0.59
409.774	0.65
409.979	0.67
410.184	0.73
410.388	0.68
410.593	0.7
410.798	0.74
411.002	0.72
411.207	0.78
411.411	0.83
411.616	0.75
411.82	0.83
412.025	0.9
412.229	0.84
412.434	0.94
412.638	0.94
412.843	0.9
413.047	0.96
413.252	0.9
413.456	0.97
413.66	1.07
413.865	1.02
414.069	1.15
414.273	1.12
414.478	1.13
414.682	1.18
414.886	1.19
415.091	1.18
415.295	1.22
415.499	1.32
415.703	1.31
415.908	1.44
416.112	1.39
416.316	1.54
416.52	1.59
416.724	1.51
416.929	1.63
417.133	1.82
417.337	1.76
417.541	1.79
417.745	1.86
417.949	1.99
418.153	2
418.357	1.97
418.561	2.24
418.765	2.24
418.969	2.33
419.173	2.46
419.377	2.38
419.581	2.6
419.785	2.63
419.989	2.62
420.193	2.78
420.397	2.82
420.601	3.01
420.804	3.05
421.008	3.08
421.212	3.22
421.416	3.19
421.62	3.32
421.823	3.33
422.027	3.52
422.231	3.49
422.435	3.45
422.638	3.57
422.842	3.65
423.046	3.78
423.249	3.93
423.453	3.88
423.657	4.1
423.86	4.24
424.064	4.28
424.268	4.39
424.471	4.45
424.675	4.67
424.878	4.68
425.082	4.84
425.285	5.12
425.489	5.07
425.692	5.19
425.896	5.25
426.099	5.37
426.303	5.56
426.506	5.76
426.71	5.94
426.913	6.12
427.116	6.27
427.32	6.2
427.523	6.45
427.726	6.69
427.93	6.79
428.133	7.12
428.336	7.17
428.54	7.31
428.743	7.58
428.946	7.9
429.149	7.86
429.353	7.88
429.556	8
429.759	7.98
429.962	8.17
430.165	8.29
430.368	8.01
430.571	7.99
430.775	8.06
430.978	8
431.181	8.04
431.384	8.22
431.587	8.31
431.79	8.61
431.993	8.52
432.196	8.95
432.399	9.27
432.602	9.44
432.805	9.51
433.008	9.97
433.211	9.94
433.414	10.14
433.616	10.3
433.819	10.25
434.022	10.38
434.225	10.62
434.428	10.7
434.631	11.05
434.833	10.84
435.036	11.02
435.239	11.21
435.442	11.45
435.645	11.54
435.847	11.52
436.05	11.76
436.253	12.13
436.455	12.11
436.658	11.88
436.861	12.34
437.063	12.41
437.266	12.44
437.468	12.73
437.671	13.06
437.874	13.08
438.076	12.9
438.279	13.37
438.481	13.47
438.684	14.26
438.886	13.81
439.089	14.05
439.291	14.06
439.494	14.35
439.696	14.6
439.899	15.31
440.101	15.55
440.303	15.73
440.506	16.54
440.708	16.26
440.91	16.41
441.113	16.68
441.315	16.9
441.517	16.75
441.72	17.22
441.922	16.95
442.124	16.77
442.326	17.17
442.529	17.39
442.731	17.35
442.933	17.65
443.135	17.42
443.337	17.42
443.539	18.02
443.742	17.77
443.944	18.34
444.146	18.16
444.348	18.18
444.55	18.08
444.752	18.03
444.954	18.11
445.156	18.12
445.358	18.46
445.56	18.7
445.762	18.47
445.964	18.88
446.166	18.67
446.368	18.75
446.57	18.64
446.772	18.27
446.974	18
447.175	18.32
447.377	17.92
447.579	18.53
447.781	18.11
447.983	17.86
448.184	17.44
448.386	17.84
448.588	17.37
448.79	17.33
448.991	17.56
449.193	17.57
449.395	16.91
449.597	16.46
449.798	16.43
450	16.08
450.202	15.94
450.403	16.07
450.605	15.78
450.806	15.59
451.008	15.18
451.21	15.28
451.411	14.79
451.613	13.9
451.814	14.2
452.016	14.11
452.217	13.47
452.419	13.36
452.62	13.18
452.821	12.97
453.023	12.76
453.224	12.44
453.426	11.94
453.627	11.16
453.828	11.28
454.03	11.45
454.231	11.48
454.432	11.26
454.634	10.94
454.835	10.65
455.036	10.6
455.238	10.07
455.439	9.77
455.64	9.65
455.841	9.56
456.042	9.65
456.244	9.31
456.445	9.01
456.646	8.8
456.847	8.7
457.048	8.58
457.249	8.68
457.45	8.23
457.651	7.78
457.852	7.62
458.054	7.42
458.255	7.32
458.456	7.38
458.657	7.31
458.858	6.82
459.058	6.76
459.259	6.82
459.46	6.51
459.661	6.48
459.862	6.5
460.063	6.34
460.264	6.26
460.465	6.01
460.666	6.13
460.866	5.86
461.067	5.52
461.268	5.63
461.469	5.61
461.67	5.37
461.87	5.35
462.071	5.25
462.272	5.18
462.473	5.16
462.673	5.35
462.874	5.26
463.075	5.23
463.275	5.19
463.476	5.17
463.676	5.26
463.877	5.03
464.078	4.94
464.278	5.06
464.479	4.88
464.679	4.85
464.88	4.76
465.08	4.71
465.281	4.54
465.481	4.3
465.682	4.11
465.882	4.13
466.083	4.17
466.283	4.07
466.483	4.01
466.684	3.75
466.884	3.78
467.085	3.72
467.285	3.83
467.485	3.72
467.686	3.6
467.886	3.47
468.086	3.43
468.286	3.46
468.487	3.45
468.687	3.35
468.887	3.24
469.087	3.41
469.287	3.32
469.488	3.06
469.688	3.17
469.888	3.21
470.088	3.16
470.288	3.08
470.488	3.01
470.688	2.88
470.888	2.91
471.088	2.77
471.288	2.79
471.488	2.8
471.688	2.76
471.888	2.72
472.088	2.79
472.288	2.66
472.488	2.62
472.688	2.56
472.888	2.65
473.088	2.64
473.288	2.47
473.488	2.44
473.688	2.63
473.887	2.55
474.087	2.48
474.287	2.45
474.487	2.42
474.687	2.46
474.886	2.38
475.086	2.35
475.286	2.31
475.486	2.28
475.685	2.24
475.885	2.25
476.085	2.25
476.284	2.27
476.484	2.33
476.684	2.27
476.883	2.36
477.083	2.2
477.282	2.12
477.482	2.19
477.681	2.15
477.881	2.04
478.08	2.14
478.28	2.05
478.479	2.11
478.679	2.11
478.878	2.03
479.078	2.06
479.277	2.07
479.477	2.05
479.676	2.06
479.875	2.04
480.075	2.02
480.274	2.02
480.473	2.08
480.673	2.08
480.872	2.08
481.071	2.06
481.271	2.05
481.47	2.02
481.669	2
481.868	1.97
482.067	2
482.267	1.95
482.466	2.01
482.665	1.95
482.864	2.01
483.063	2.02
483.262	2.04
483.461	2.03
483.661	2.08
483.86	2.01
484.059	2.06
484.258	2.02
484.457	2
484.656	2.03
484.855	2.08
485.054	1.94
485.253	2.01
485.452	1.97
485.651	2.06
485.849	2.05
486.048	1.99
486.247	2.03
486.446	2.03
486.645	2.05
486.844	2.09
487.043	2.04
487.241	2.07
487.44	2.07
487.639	2.15
487.838	2.11
488.037	2.13
488.235	2.21
488.434	2.2
488.633	2.04
488.831	2.21
489.03	2.19
489.229	2.21
489.427	2.19
489.626	2.22
489.825	2.25
490.023	2.33
490.222	2.28
490.42	2.29
490.619	2.35
490.817	2.37
491.016	2.36
491.214	2.4
491.413	2.43
491.611	2.4
491.81	2.4
492.008	2.46
492.207	2.54
492.405	2.53
492.604	2.45
492.802	2.56
493	2.6
493.199	2.63
493.397	2.64
493.595	2.69
493.794	2.68
493.992	2.77
494.19	2.75
494.388	2.79
494.587	2.73
494.785	2.8
494.983	2.74
495.181	2.84
495.379	2.88
495.578	2.92
495.776	2.95
495.974	2.91
496.172	2.97
496.37	3.09
496.568	3.1
496.766	3.07
496.964	3.19
497.162	3.19
497.36	3.21
497.558	3.24
497.756	3.27
497.954	3.27
498.152	3.3
498.35	3.47
498.548	3.33
498.746	3.41
498.944	3.41
499.142	3.41
499.34	3.51
499.538	3.63
499.736	3.5
499.933	3.63
500.131	3.64
500.329	3.79
500.527	3.77
500.725	3.84
500.922	3.86
501.12	3.82
501.318	3.94
501.516	3.92
501.713	3.99
501.911	3.99
502.109	3.93
502.306	4.12
502.504	4.01
502.701	4.09
502.899	4.12
503.097	4.31
503.294	4.2
503.492	4.35
503.689	4.38
503.887	4.34
504.084	4.44
504.282	4.4
504.479	4.41
504.677	4.56
504.874	4.52
505.072	4.5
505.269	4.64
505.466	4.69
505.664	4.75
505.861	4.61
506.059	4.77
506.256	4.74
506.453	4.83
506.651	4.92
506.848	4.95
507.045	4.93
507.242	4.94
507.44	5.04
507.637	5.08
507.834	5.06
508.031	5.2
508.229	5.15
508.426	5.05
508.623	5.24
508.82	5.35
509.017	5.24
509.214	5.23
509.411	5.38
509.608	5.33
509.805	5.41
510.003	5.43
510.2	5.48
510.397	5.65
510.594	5.52
510.791	5.62
510.988	5.66
511.184	5.6
511.381	5.44
511.578	5.65
511.775	5.82
511.972	5.71
512.169	5.78
512.366	5.77
512.563	5.92
512.76	6.01
512.956	6.02
513.153	5.94
513.35	5.91
513.547	5.94
513.744	6.04
513.94	6.03
514.137	6.17
514.334	6.14
514.53	6.19
514.727	6.35
514.924	6.26
515.12	6.24
515.317	6.25
515.514	6.24
515.71	6.21
515.907	6.37
516.103	6.45
516.3	6.3
516.497	6.48
516.693	6.44
516.89	6.46
517.086	6.47
517.283	6.54
517.479	6.42
517.676	6.61
517.872	6.6
518.068	6.61
518.265	6.58
518.461	6.52
518.658	6.65
518.854	6.7
519.05	6.79
519.247	6.81
519.443	6.81
519.639	6.87
519.836	6.75
520.032	6.76
520.228	6.88
520.424	6.82
520.621	6.96
520.817	7
521.013	6.9
521.209	7.1
521.405	7.08
521.601	7
521.798	7
521.994	6.98
522.19	6.95
522.386	7
522.582	7.06
522.778	7.17
522.974	7.08
523.17	7.14
523.366	7.12
523.562	7.18
523.758	7.16
523.954	7.03
524.15	7.19
524.346	7.26
524.542	7.25
524.738	7.21
524.934	7.35
525.129	7.28
525.325	7.23
525.521	7.21
525.717	7.44
525.913	7.37
526.109	7.27
526.304	7.42
526.5	7.4
526.696	7.42
526.892	7.37
527.087	7.57
527.283	7.45
527.479	7.46
527.674	7.3
527.87	7.51
528.066	7.51
528.261	7.52
528.457	7.37
528.653	7.6
528.848	7.57
529.044	7.6
529.239	7.46
529.435	7.49
529.63	7.52
529.826	7.54
530.021	7.53
530.217	7.59
530.412	7.58
530.608	7.58
530.803	7.62
530.999	7.49
531.194	7.69
531.389	7.65
531.585	7.66
531.78	7.78
531.975	7.66
532.171	7.73
532.366	7.71
532.561	7.75
532.757	7.72
532.952	7.84
533.147	7.62
533.342	7.77
533.538	7.67
533.733	7.87
533.928	7.6
534.123	7.73
534.318	7.8
534.513	7.71
534.709	7.9
534.904	7.8
535.099	7.89
535.294	7.9
535.489	7.89
535.684	7.79
535.879	7.9
536.074	7.89
536.269	7.93
536.464	7.91
536.659	7.81
536.854	7.86
537.049	7.95
537.244	7.85
537.439	7.88
537.634	7.84
537.828	7.95
538.023	7.94
538.218	7.97
538.413	7.82
538.608	7.99
538.803	7.95
538.997	7.92
539.192	7.91
539.387	7.89
539.582	7.96
539.776	7.92
539.971	8.01
540.166	8.02
540.36	7.9
540.555	8.07
540.75	7.98
540.944	7.97
541.139	8.03
541.334	8.01
541.528	8
541.723	8.06
541.917	8.03
542.112	7.95
542.306	7.84
542.501	7.94
542.695	7.95
542.89	7.97
543.084	7.99
543.279	8.01
543.473	8.09
543.668	8.03
543.862	7.94
544.056	7.89
544.251	8.12
544.445	8.13
544.64	8.1
544.834	7.77
545.028	7.69
545.222	8
545.417	8.19
545.611	8.05
545.805	8.02
546	7.81
546.194	8.05
546.388	8.05
546.582	7.94
546.776	7.96
546.97	8.05
547.165	8.03
547.359	8.07
547.553	7.96
547.747	8
547.941	8.23
548.135	8.05
548.329	8.11
548.523	8.06
548.717	8.02
548.911	8.01
549.105	7.97
549.299	8.13
549.493	8.08
549.687	7.94
549.881	8.16
550.075	8.04
550.269	7.98
550.463	8.11
550.657	8.1
550.85	8.07
551.044	8.06
551.238	8.1
551.432	8.13
551.626	8.14
551.82	8.13
552.013	7.99
552.207	8.15
552.401	8.11
552.594	8.11
552.788	8.05
552.982	8.07
553.176	7.99
553.369	8.25
553.563	8.12
553.756	8.08
553.95	8.15
554.144	8.12
554.337	8.09
554.531	7.88
554.724	8.09
554.918	8.17
555.111	8.08
555.305	8.03
555.498	7.97
555.692	8.2
555.885	8.18
556.079	8.03
556.272	8.05
556.466	8.08
556.659	7.99
556.852	8.16
557.046	8.05
557.239	8.01
557.432	8.06
557.626	8.16
557.819	8.21
558.012	8.15
558.206	8.21
558.399	8.09
558.592	8.06
558.785	8.09
558.979	8.03
559.172	8.12
559.365	8.04
559.558	8.07
559.751	8.01
559.944	8.16
560.138	8.05
560.331	8.11
560.524	8.13
560.717	8.13
560.91	8.07
561.103	8.15
561.296	7.94
561.489	8.12
561.682	8.19
561.875	8.18
562.068	8.23
562.261	8.02
562.454	8.23
562.647	8.11
562.84	8.11
563.032	8.14
563.225	8.01
563.418	8.02
563.611	8.13
563.804	8.15
563.997	7.98
564.19	7.86
564.382	8.2
564.575	8.16
564.768	8.03
564.961	8.12
565.153	8.02
565.346	7.97
565.539	8.19
565.731	8.08
565.924	8.15
566.117	8.13
566.309	8.04
566.502	8.05
566.695	8
566.887	8.08
567.08	8.12
567.272	8.1
567.465	7.99
567.657	8.15
567.85	7.91
568.042	8.09
568.235	8.11
568.427	7.91
568.62	8.04
568.812	7.98
569.005	8.12
569.197	7.96
569.389	8.09
569.582	8.06
569.774	8.04
569.966	8.01
570.159	7.93
570.351	8
570.543	8.02
570.736	8.04
570.928	7.88
571.12	8.04
571.312	7.97
571.505	7.75
571.697	8.02
571.889	7.94
572.081	8.06
572.273	7.93
572.465	7.99
572.658	8.04
572.85	7.99
573.042	8.06
573.234	7.91
573.426	8
573.618	7.92
573.81	8
574.002	7.94
574.194	7.95
574.386	7.93
574.578	7.8
574.77	7.91
574.962	8
575.154	7.75
575.346	7.86
575.538	7.84
575.729	7.82
575.921	7.98
576.113	7.96
576.305	7.9
576.497	8.01
576.689	7.77
576.88	7.73
577.072	7.87
577.264	7.84
577.456	7.87
577.647	7.82
577.839	7.96
578.031	7.84
578.223	7.78
578.414	7.73
578.606	7.79
578.798	7.79
578.989	7.9
579.181	7.93
579.372	7.82
579.564	7.84
579.755	7.78
579.947	7.68
580.139	7.84
580.33	7.68
580.522	7.81
580.713	7.75
580.905	7.74
581.096	7.81
581.287	7.73
581.479	7.66
581.67	7.84
581.862	7.68
582.053	7.74
582.244	7.58
582.436	7.82
582.627	7.62
582.818	7.58
583.01	7.67
583.201	7.77
583.392	7.6
583.583	7.65
583.775	7.54
583.966	7.66
584.157	7.66
584.348	7.65
584.54	7.6
584.731	7.64
584.922	7.49
585.113	7.44
585.304	7.58
585.495	7.52
585.686	7.65
585.877	7.54
586.068	7.66
586.259	7.53
586.45	7.53
586.641	7.49
586.832	7.62
587.023	7.51
587.214	7.44
587.405	7.51
587.596	7.4
587.787	7.35
587.978	7.4
588.169	7.37
588.36	7.34
588.551	7.47
588.742	7.38
588.932	7.45
589.123	7.25
589.314	7.51
589.505	7.36
589.696	7.36
589.886	7.31
590.077	7.31
590.268	7.23
590.458	7.25
590.649	7.11
590.84	7.27
591.03	7.21
591.221	7.28
591.412	7.11
591.602	7.33
591.793	7.2
591.984	7.29
592.174	7.18
592.365	7.34
592.555	7.12
592.746	7.12
592.936	7.14
593.127	7.15
593.317	7.18
593.508	7.17
593.698	7.06
593.889	7.07
594.079	7.07
594.269	6.99
594.46	7.07
594.65	7.14
594.84	7
595.031	7
595.221	7.02
595.411	7
595.602	6.99
595.792	6.95
595.982	6.83
596.172	6.99
596.363	6.84
596.553	6.88
596.743	6.96
596.933	6.93
597.123	6.84
597.314	6.74
597.504	6.77
597.694	6.89
597.884	6.79
598.074	6.85
598.264	6.83
598.454	6.8
598.644	6.73
598.834	6.79
599.024	6.73
599.214	6.74
599.404	6.81
599.594	6.74
599.784	6.62
599.974	6.72
600.164	6.75
600.354	6.6
600.544	6.55
600.734	6.6
600.924	6.59
601.114	6.54
601.303	6.53
601.493	6.61
601.683	6.58
601.873	6.5
602.063	6.51
602.252	6.53
602.442	6.38
602.632	6.43
602.821	6.39
603.011	6.47
603.201	6.46
603.39	6.41
603.58	6.3
603.77	6.43
603.959	6.44
604.149	6.32
604.339	6.35
604.528	6.33
604.718	6.33
604.907	6.25
605.097	6.26
605.286	6.22
605.476	6.29
605.665	6.3
605.855	6.21
606.044	6.31
606.234	6.21
606.423	6.2
606.612	6.17
606.802	6.06
606.991	6.17
607.181	6.24
607.37	6.15
607.559	5.92
607.749	6.11
607.938	5.98
608.127	6.03
608.316	6.09
608.506	6
608.695	6.08
608.884	5.98
609.073	6
609.263	6.05
609.452	6.01
609.641	5.85
609.83	5.84
610.019	5.94
610.208	5.88
610.397	5.88
610.586	5.85
610.775	5.86
610.965	5.81
611.154	5.73
611.343	5.8
611.532	5.72
611.721	5.82
611.91	5.81
612.099	5.71
612.287	5.58
612.476	5.57
612.665	5.76
612.854	5.64
613.043	5.6
613.232	5.62
613.421	5.58
613.61	5.61
613.798	5.57
613.987	5.56
614.176	5.48
614.365	5.56
614.554	5.45
614.742	5.54
614.931	5.34
615.12	5.6
615.309	5.39
615.497	5.39
615.686	5.31
615.875	5.43
616.063	5.33
616.252	5.36
616.44	5.43
616.629	5.34
616.818	5.34
617.006	5.26
617.195	5.28
617.383	5.26
617.572	5.19
617.76	5.21
617.949	5.24
618.137	5.24
618.326	5.24
618.514	5.07
618.703	5.05
618.891	5.21
619.079	5.11
619.268	5.17
619.456	5.03
619.644	5.11
619.833	5.07
620.021	5.01
620.209	4.93
620.398	4.98
620.586	4.89
620.774	5.02
620.962	4.94
621.151	5.01
621.339	4.9
621.527	4.89
621.715	4.82
621.903	4.89
622.092	4.74
622.28	4.92
622.468	4.68
622.656	4.8
622.844	4.75
623.032	4.81
623.22	4.69
623.408	4.82
623.596	4.76
623.784	4.76
623.972	4.66
624.16	4.67
624.348	4.71
624.536	4.74
624.724	4.56
624.912	4.64
625.1	4.66
625.288	4.61
625.476	4.6
625.664	4.62
625.851	4.52
626.039	4.59
626.227	4.48
626.415	4.49
626.603	4.43
626.79	4.51
626.978	4.45
627.166	4.43
627.354	4.35
627.541	4.33
627.729	4.3
627.917	4.43
628.104	4.35
628.292	4.31
628.48	4.34
628.667	4.24
628.855	4.36
629.042	4.36
629.23	4.28
629.418	4.24
629.605	4.25
629.793	4.15
629.98	4.14
630.168	4.16
630.355	4.22
630.543	4.14
630.73	4.03
630.917	4.1
631.105	4.21
631.292	4.12
631.48	4.1
631.667	4.17
631.854	4.11
632.042	4.06
632.229	3.99
632.416	4
632.604	4.1
632.791	3.87
632.978	4.04
633.165	3.94
633.353	3.98
633.54	4.02
633.727	3.86
633.914	3.93
634.101	3.78
634.289	3.93
634.476	3.82
634.663	3.8
634.85	3.8
635.037	3.8
635.224	3.77
635.411	3.81
635.598	3.72
635.785	3.77
635.972	3.68
636.159	3.77
636.346	3.74
636.533	3.66
636.72	3.69
636.907	3.67
637.094	3.63
637.281	3.55
637.468	3.59
637.655	3.66
637.842	3.64
638.029	3.57
638.215	3.52
638.402	3.57
638.589	3.45
638.776	3.48
638.963	3.49
639.149	3.58
639.336	3.56
639.523	3.48
639.709	3.49
639.896	3.44
640.083	3.46
640.27	3.48
640.456	3.4
640.643	3.4
640.829	3.27
641.016	3.31
641.203	3.28
641.389	3.36
641.576	3.37
641.762	3.28
641.949	3.3
642.135	3.23
642.322	3.27
642.508	3.16
642.695	3.28
642.881	3.2
643.068	3.15
643.254	3.18
643.441	3.2
643.627	3.19
643.813	3.08
644	3.21
644.186	3.07
644.372	3.12
644.559	3.15
644.745	3.11
644.931	3.01
645.118	3.1
645.304	3.06
645.49	3.02
645.676	3.05
645.862	3.01
646.049	3.08
646.235	2.98
646.421	3.11
646.607	3.08
646.793	2.96
646.979	2.94
647.165	2.95
647.352	2.98
647.538	2.93
647.724	2.88
647.91	2.89
648.096	2.89
648.282	2.92
648.468	2.91
648.654	2.94
648.84	2.89
649.026	2.87
649.212	2.82
649.397	2.78
649.583	2.78
649.769	2.81
649.955	2.78
650.141	2.82
650.327	2.85
650.513	2.73
650.698	2.75
650.884	2.68
651.07	2.72
651.256	2.69
651.442	2.67
651.627	2.63
651.813	2.68
651.999	2.66
652.184	2.66
652.37	2.7
652.556	2.59
652.741	2.66
652.927	2.5
653.113	2.65
653.298	2.61
653.484	2.56
653.669	2.53
653.855	2.58
654.04	2.56
654.226	2.55
654.412	2.49
654.597	2.49
654.782	2.53
654.968	2.57
655.153	2.5
655.339	2.47
655.524	2.49
655.71	2.48
655.895	2.42
656.08	2.4
656.266	2.55
656.451	2.42
656.636	2.4
656.822	2.36
657.007	2.42
657.192	2.36
657.378	2.37
657.563	2.39
657.748	2.43
657.933	2.39
658.118	2.32
658.304	2.31
658.489	2.39
658.674	2.32
658.859	2.3
659.044	2.33
659.229	2.37
659.414	2.29
659.599	2.3
659.785	2.26
659.97	2.25
660.155	2.26
660.34	2.3
660.525	2.26
660.71	2.24
660.895	2.19
661.08	2.2
661.264	2.23
661.449	2.23
661.634	2.21
661.819	2.17
662.004	2.14
662.189	2.11
662.374	2.08
662.559	2.08
662.743	2.04
662.928	2.11
663.113	2.08
663.298	2.04
663.483	2.01
663.667	1.99
663.852	2.02
664.037	2.09
664.221	2.01
664.406	2.07
664.591	2.04
664.775	2.03
664.96	1.92
665.145	1.95
665.329	2.02
665.514	1.96
665.698	1.98
665.883	1.9
666.068	1.98
666.252	1.95
666.437	1.82
666.621	1.9
666.806	1.9
666.99	1.87
667.174	1.81
667.359	1.92
667.543	1.85
667.728	1.85
667.912	1.76
668.096	1.83
668.281	1.73
668.465	1.82
668.649	1.79
668.834	1.69
669.018	1.73
669.202	1.74
669.387	1.77
669.571	1.78
669.755	1.65
669.939	1.72
670.124	1.66
670.308	1.72
670.492	1.71
670.676	1.7
670.86	1.67
671.044	1.65
671.228	1.68
671.413	1.67
671.597	1.59
671.781	1.54
671.965	1.65
672.149	1.64
672.333	1.64
672.517	1.6
672.701	1.63
672.885	1.62
673.069	1.55
673.253	1.59
673.437	1.57
673.621	1.58
673.804	1.55
673.988	1.53
674.172	1.54
674.356	1.46
674.54	1.62
674.724	1.56
674.908	1.48
675.091	1.55
675.275	1.52
675.459	1.55
675.643	1.49
675.826	1.5
676.01	1.42
676.194	1.48
676.377	1.44
676.561	1.5
676.745	1.44
676.928	1.49
677.112	1.55
677.296	1.41
677.479	1.43
677.663	1.4
677.846	1.35
678.03	1.41
678.213	1.39
678.397	1.43
678.58	1.35
678.764	1.41
678.947	1.32
679.131	1.41
679.314	1.43
679.498	1.33
679.681	1.41
679.865	1.45
680.048	1.35
680.231	1.32
680.415	1.33
680.598	1.32
680.781	1.27
680.965	1.35
681.148	1.32
681.331	1.26
681.514	1.29
681.698	1.3
681.881	1.3
682.064	1.27
682.247	1.28
682.43	1.2
682.614	1.25
682.797	1.27
682.98	1.29
683.163	1.17
683.346	1.26
683.529	1.26
683.712	1.18
683.895	1.27
684.078	1.18
684.261	1.15
684.444	1.25
684.627	1.2
684.81	1.18
684.993	1.11
685.176	1.26
685.359	1.17
685.542	1.18
685.725	1.18
685.908	1.15
686.091	1.1
686.274	1.25
686.457	1.18
686.639	1.18
686.822	1.19
687.005	1.18
687.188	1.15
687.371	1.17
687.553	1.19
687.736	1.22
687.919	1.2
688.102	1.12
688.284	1.14
688.467	1.09
688.65	1.07
688.832	1.03
689.015	1.1
689.197	0.99
689.38	1.09
689.563	1.15
689.745	0.99
689.928	1.05
690.11	1.02
690.293	1.09
690.475	0.95
690.658	1.13
690.84	1.01
691.023	1.06
691.205	0.98
691.388	0.99
691.57	1.07
691.752	1.01
691.935	0.99
692.117	0.99
692.3	1.01
692.482	0.95
692.664	1
692.847	0.96
693.029	1.03
693.211	0.98
693.393	0.96
693.576	0.94
693.758	0.96
693.94	1.02
694.122	0.98
694.304	0.92
694.487	0.86
694.669	0.94
694.851	0.91
695.033	0.96
695.215	0.9
695.397	0.92
695.579	0.94
695.761	0.9
695.943	0.91
696.125	0.98
696.308	0.91
696.49	0.82
696.671	1.02
696.853	0.94
697.035	1.11
697.217	0.85
697.399	0.95
697.581	0.84
697.763	0.96
697.945	0.9
698.127	0.84
698.309	1
698.491	0.92
698.672	0.92
698.854	0.9
699.036	0.88
699.218	0.82
699.399	0.88
699.581	0.87
699.763	0.81
699.945	0.87
700.126	0.78
700.308	0.88
700.49	0.76
700.671	0.8
700.853	0.8
701.035	0.84
701.216	0.78
701.398	0.77
701.579	0.84
701.761	0.86
701.943	0.78
702.124	0.75
702.306	0.79
702.487	0.9
702.669	0.75
702.85	0.75
703.031	0.74
703.213	0.91
703.394	0.81
703.576	0.78
703.757	0.86
703.938	0.81
704.12	0.93
704.301	0.85
704.483	0.74
704.664	0.84
704.845	0.92
705.026	0.88
705.208	0.81
705.389	0.82
705.57	0.83
705.751	0.73
705.933	0.8
706.114	0.86
706.295	0.82
706.476	0.76
706.657	0.84
706.838	0.72
707.02	0.78
707.201	0.75
707.382	0.73
707.563	0.81
707.744	0.71
707.925	0.7
708.106	0.65
708.287	0.77
708.468	0.79
708.649	0.72
708.83	0.79
709.011	0.73
709.192	0.81
709.373	0.65
709.554	0.69
709.734	0.79
709.915	0.74
710.096	0.76
710.277	0.61
710.458	0.69
710.639	0.69
710.819	0.67
711	0.69
711.181	0.71
711.362	0.7
711.542	0.68
711.723	0.65
711.904	0.7
712.085	0.71
712.265	0.69
712.446	0.67
712.627	0.62
712.807	0.67
712.988	0.7
713.168	0.67
713.349	0.78
713.53	0.52
713.71	0.66
713.891	0.7
714.071	0.67
714.252	0.61
714.432	0.66
714.613	0.52
714.793	0.67
714.974	0.74
715.154	0.77
715.334	0.75
715.515	0.74
715.695	0.57
715.876	0.71
716.056	0.64
716.236	0.61
716.417	0.61
716.597	0.61
716.777	0.8
716.957	0.62
717.138	0.63
717.318	0.67
717.498	0.54
717.678	0.6
717.859	0.63
718.039	0.55
718.219	0.65
718.399	0.67
718.579	0.54
718.759	0.61
718.939	0.67
719.12	0.63
719.3	0.6
719.48	0.51
719.66	0.51
719.84	0.69
720.02	0.69
720.2	0.6
720.38	0.63
720.56	0.83
720.74	0.58
720.92	0.65
721.1	0.73
721.279	0.68
721.459	0.58
721.639	0.59
721.819	0.59
721.999	0.6
722.179	0.66
722.359	0.54
722.538	0.62
722.718	0.61
722.898	0.55
723.078	0.64
723.257	0.53
723.437	0.61
723.617	0.62
723.797	0.63
723.976	0.59
724.156	0.6
724.336	0.71
724.515	0.72
724.695	0.5
724.874	0.59
725.054	0.62
725.234	0.63
725.413	0.67
725.593	0.59
725.772	0.59
725.952	0.55
726.131	0.58
726.311	0.63
726.49	0.56
726.67	0.48
726.849	0.55
727.028	0.63
727.208	0.62
727.387	0.63
727.567	0.46
727.746	0.67
727.925	0.52
728.105	0.54
728.284	0.52
728.463	0.49
728.643	0.62
728.822	0.45
729.001	0.59
729.18	0.62
729.359	0.73
729.539	0.66
729.718	0.64
729.897	0.6
730.076	0.59
730.255	0.54
730.434	0.55
730.614	0.61
730.793	0.67
730.972	0.53
731.151	0.6
731.33	0.7
731.509	0.61
731.688	0.68
731.867	0.64
732.046	0.5
732.225	0.78
732.404	0.5
732.583	0.55
732.762	0.6
732.941	0.78
733.12	0.55
733.298	0.55
733.477	0.67
733.656	0.59
733.835	0.47
734.014	0.69
734.193	0.58
734.371	0.7
734.55	0.7
734.729	0.58
734.908	0.67
735.086	0.65
735.265	0.66
735.444	0.49
735.623	0.45
735.801	0.57
735.98	0.61
736.159	0.68
736.337	0.62
736.516	0.51
736.694	0.62
736.873	0.66
737.052	0.78
737.23	0.78
737.409	0.64
737.587	0.85
737.766	0.52
737.944	0.6
738.123	0.74
738.301	0.68
738.479	0.52
738.658	0.67
738.836	0.47
739.015	0.73
739.193	0.67
739.371	0.48
739.55	0.51
739.728	0.44
739.906	0.74
740.085	0.77
740.263	0.63
740.441	0.45
740.62	0.71
740.798	0.67
740.976	0.61
741.154	0.43
741.332	0.78
741.511	0.62
741.689	0.68
741.867	0.63
742.045	0.61
742.223	0.58
742.401	0.47
742.579	0.48
742.757	0.64
742.935	0.4
743.114	0.54
743.292	0.53
743.47	0.61
743.648	0.58
743.826	0.35
744.004	0.57
744.181	0.62
744.359	0.46
744.537	0.54
744.715	0.58
744.893	0.54
745.071	0.52
745.249	0.5
745.427	0.5
745.605	0.56
745.782	0.36
745.96	0.6
746.138	0.56
746.316	0.53
746.493	0.43
746.671	0.53
746.849	0.41
747.027	0.58
747.204	0.38
747.382	0.52
747.56	0.32
747.737	0.39
747.915	0.54
748.093	0.51
748.27	0.4
748.448	0.46
748.625	0.43
748.803	0.41
748.98	0.47
749.158	0.49
749.335	0.57
749.513	0.37
749.69	0.48
749.868	0.51
750.045	0.57
750.223	0.5
750.4	0.28
750.578	0.67
750.755	0.42
750.932	0.25
751.11	0.63
751.287	0.34
751.464	0.55
751.642	0.36
751.819	0.57
751.996	0.45
752.173	0.44
752.351	0.4
752.528	0.4
752.705	0.51
752.882	0.37
753.06	0.5
753.237	0.37
753.414	0.57
753.591	0.65
753.768	0.42
753.945	0.37
754.122	0.26
754.299	0.41
754.476	0.32
754.654	0.5
754.831	0.54
755.008	0.39
755.185	0.28
755.362	0.36
755.539	0.38
755.716	0.57
755.892	0.44
756.069	0.42
756.246	0.48
756.423	0.4
756.6	0.67
756.777	0.44
756.954	0.56
757.131	0.39
757.307	0.32
757.484	0.3
757.661	0.54
757.838	0.54
758.015	0.24
758.191	0.49
758.368	0.43
758.545	0.54
758.721	0.53
758.898	0.2
759.075	0.55
759.251	0.55
759.428	0.6
759.605	0.33
759.781	0.43
759.958	0.45
760.134	0.45
760.311	0.46
760.488	0.48
760.664	0.49
760.841	0.42
761.017	0.26
761.194	0.48
761.37	0.43
761.547	0.4
761.723	0.33
761.899	0.42
762.076	0.39
762.252	0.35
762.429	0.39
762.605	0.59
762.781	0.43
762.958	0.45
763.134	0.38
763.31	0.39
763.486	0.6
763.663	0.26
763.839	0.55
764.015	0.18
764.191	0.25
764.368	0.39
764.544	0.3
764.72	0.42
764.896	0.43
765.072	0.48
765.248	0.45
765.425	0.39
765.601	0.4
765.777	0.39
765.953	0.18
766.129	0.42
766.305	0.28
766.481	0.47
766.657	0.38
766.833	0.48
767.009	0.37
767.185	0.35
767.361	0.37
767.537	0.34
767.713	0.51
767.889	0.35
768.065	0.37
768.24	0.51
768.416	0.49
768.592	0.41
768.768	0.43
768.944	0.48
769.12	0.36
769.295	0.37
769.471	0.5
769.647	0.45
769.823	0.61
769.998	0.4
770.174	0.32
770.35	0.77
770.525	0.66
770.701	0.43
770.877	0.43
771.052	0.48
771.228	0.48
771.403	0.34
771.579	0.5
771.755	0.77
771.93	0.24
772.106	0.25
772.281	0.13
772.457	0.35
772.632	0.53
772.808	0.26
772.983	0.38
773.159	0.29
773.334	0.56
773.509	0.42
773.685	0.49
773.86	0.74
774.036	0.7
774.211	0.42
774.386	0.32
774.562	0.49
774.737	0.59
774.912	0.26
775.087	0.56
775.263	0.57
775.438	0.49
775.613	0.31
775.788	0.24
775.964	0.57
776.139	0.72
776.314	0.32
776.489	0.5
776.664	0.54
776.839	0.35
777.014	0.6
777.19	0.43
777.365	0.56
777.54	0.59
777.715	0.44
777.89	0.51
778.065	0.21
778.24	0.33
778.415	0.52
778.59	0.14
778.765	0.38
778.94	0.53
779.115	0.48
779.289	0.29
779.464	0.34
779.639	0.36
779.814	0.19
779.989	0.26
780.164	0.53
780.339	0.57
780.513	0.26
780.688	0.38
780.863	0.41
781.038	0.51
781.212	0.35
781.387	0.43
781.562	0.64
781.737	0.55
781.911	0.72
782.086	0.29
782.261	0.5
782.435	0.71
782.61	0.44
782.784	0.24
782.959	0.78
783.134	0.34
783.308	0.37
783.483	0.36
783.657	1.13
783.832	0.6
784.006	0.39
784.181	0.64
784.355	0.67
784.53	0.68
784.704	0.45
784.878	0.74
785.053	0.61
785.227	0.71
785.402	0.84
785.576	0.28
785.75	0.42
785.925	0.19
786.099	0.62
786.273	0.46
786.448	0.66
786.622	0.55
786.796	0.55
786.97	0.38
787.145	0.95
787.319	0.44
787.493	0.45
787.667	0.5
787.841	0.51
788.015	0.61
788.19	0.47
788.364	0.47
788.538	0.3
788.712	0.86
788.886	0.58
789.06	0.67
789.234	0.64
789.408	0.27
789.582	0.54
789.756	0.69
789.93	0.37
790.104	0.46
790.278	0.24
790.452	0.47
790.626	0.77
790.8	0.25
790.973	0.59
791.147	0.72
791.321	0.87
791.495	0.58
791.669	0.42
791.843	0.58
792.016	0.59
792.19	0.99
792.364	0.31
792.538	0.99
792.711	0.81
792.885	0.42
793.059	0.4
793.233	-0
793.406	0.58
793.58	0.54
793.754	0.64
793.927	0.26
794.101	1.1
794.274	0.7
794.448	0.67
794.622	0.46
794.795	0.8
794.969	0.21
795.142	0.8
795.316	0.4
795.489	0.59
795.663	0.93
795.836	0.34
796.009	0.4
796.183	0.83
796.356	0.83
796.53	0.5
796.703	0.44
796.876	0.95
797.05	0.36
797.223	0.64
797.396	0.81
797.57	0.74
797.743	1.02
797.916	0.49
798.09	0.6
798.263	0.72
798.436	0.65
798.609	0.25
798.782	0.62
798.956	0.75
799.129	0.57
799.302	0.77
799.475	0.65
799.648	0.36
799.821	0.58
799.994	0.53
800.167	0.12
800.34	0.63
800.514	0.58
800.687	0.58
800.86	0.19
801.033	0.41
801.206	0.61
801.379	0.4
801.551	0.95
801.724	0.85
801.897	0.93
802.07	0.52
802.243	0.31
802.416	0.43
802.589	0.26
802.762	0.76
802.935	0.54
803.107	0.88
803.28	0.95
803.453	0.63
803.626	0.71
803.798	0.6
803.971	0.58
804.144	0.68
804.317	0.8
804.489	0.83
804.662	0.74
804.835	0.81
805.007	0.42
805.18	0.93
805.353	0.96
805.525	0.49
805.698	0.66
805.87	0.79
806.043	0.81
806.215	0.78
806.388	0.36
806.56	0.95
806.733	0.85
806.905	0.88
807.078	0.84
807.25	0.64
807.423	0.88
807.595	0.73
807.768	0.6
807.94	1.12
808.112	0.5
808.285	0.55
808.457	0.81
808.629	0.78
808.802	1.05
808.974	0.61
809.146	0.53
809.318	0.51
809.491	0.59
809.663	1.09
809.835	0.85
810.007	1.08
810.18	0.38
810.352	0.66
810.524	0.53
810.696	0.64
810.868	1.19
811.04	0.4
811.212	0.5
811.384	0.65
811.556	0.65
811.728	0.54
811.901	1.3
812.073	0.87
812.245	0.7
812.417	0.77
812.589	0.09
812.76	0.8
812.932	0.94
813.104	1.06
813.276	0.91
813.448	0.89
813.62	0.44
813.792	0.95
813.964	0.88
814.136	0.86
814.307	0.77
814.479	0.47
814.651	0.73
814.823	1.65
814.995	0.68
815.166	0.99
815.338	0.55
815.51	0.33
815.681	1.83
815.853	0.47
816.025	0.75
816.196	1.45
816.368	0.97
816.54	0.52
816.711	0.7
816.883	1.24
817.054	1.47
817.226	0.13
817.398	1.14
817.569	0.32
817.741	0.74
817.912	0.75
818.084	0.84
818.255	1.12
818.426	0.56
818.598	0.79
818.769	0.62
818.941	0.49
819.112	1.24
819.283	1.31
819.455	0.14
819.626	0.86
819.798	1.28
819.969	0.87
820.14	0.7
820.311	0.53
820.483	0.66
820.654	1.09
820.825	0.66
820.996	0.4
821.168	0.52
821.339	0.8
821.51	0.74
821.681	0.76
821.852	1.04
822.023	0.52
822.195	0.58
822.366	1.31
822.537	1.1
822.708	0.99
822.879	0.62
823.05	1.24
823.221	0.82
823.392	1.23
823.563	1.03
823.734	1.28
823.905	1.2
824.076	1
824.247	0.33
824.418	0.85
824.589	1.33
824.759	1.01
824.93	0.65
825.101	1.2
825.272	1.51
825.443	2.06
825.614	1.22
825.784	0.2
825.955	2.15
826.126	2.01
826.297	1.4
826.467	1.78
826.638	1.53
826.809	0.8
826.98	1.32
827.15	1.34
827.321	1.51
827.492	1.83
827.662	1.46
827.833	1.87
828.003	1.49
828.174	0.3
828.345	0.37
828.515	1.18
828.686	1.32
828.856	-0.26
829.027	1.25
829.197	1.05
829.368	1.04
829.538	0.95
829.709	0.6
829.879	1.54
830.049	1.75
830.22	0.91
830.39	0.8
830.56	1.84
830.731	0.56
830.901	0.48
831.072	1.18
831.242	1.45
831.412	1.11
831.582	0.77
831.753	0.03
831.923	1.18
832.093	1.23
832.263	0.58
832.434	0.34
832.604	0.56
832.774	1.14
832.944	0.89
833.114	0.62
833.284	1.49
833.454	0.53
833.624	0.72
833.795	0.82
833.965	2.11
834.135	1.77
834.305	0.34
834.475	0.7
834.645	1
834.815	1.03
834.985	0.62
835.155	1.16
835.325	1.15
835.494	1.26
835.664	1.55
835.834	0.68
836.004	1.27
836.174	1.84
836.344	1.41
836.514	0.76
836.684	0.82
836.853	1.67
837.023	0.96
837.193	0.4
837.363	1.14
837.532	1.86
837.702	1.4
837.872	0.32
838.041	1.96
838.211	1.6
838.381	0.68
838.55	1.17
838.72	2.23
838.89	2.3
839.059	1.32
839.229	0.07
839.398	2.7
839.568	1.15
839.738	1.13
839.907	2.16
840.077	1.25
840.246	0.71
840.416	0.4
840.585	0.47
840.755	1.95
840.924	2.77
841.093	0.64
841.263	1.03
841.432	1.47
841.602	0.58
841.771	0.59
841.94	1.16
842.11	2.54
842.279	2.42
842.448	0.48
842.617	0.91
842.787	1.79
842.956	0.08
843.125	1.24
843.294	1.57
843.464	2.35
843.633	1.35
843.802	0.96
843.971	1.04
844.14	1.18
844.309	2.21
844.479	0.8
844.648	1.03
844.817	0.6
844.986	1.1
845.155	1.27
845.324	0.59
845.493	1.03
845.662	0.33
845.831	2.22
846	2.2
846.169	1.33
846.338	2.59
846.507	1.8
846.676	1.32
846.844	0.97
847.013	1.52
847.182	1.48
847.351	1.43
847.52	1.09
847.689	1.84
847.858	1.3
848.026	0.92
848.195	1.1
848.364	1.09
848.533	1.53
848.701	0.7
848.87	1.64
849.039	1.99
849.207	2.84
849.376	1.87
849.545	2.62
849.713	0.44
849.882	1.49
850.051	1.43
850.219	1.38
850.388	1.57
850.556	1.06
850.725	1.47
850.893	1.9
851.062	1.09
851.23	2.18
851.399	0.55
851.567	0.58
851.736	0.9
851.904	1.22
852.073	1.75
852.241	1.99
852.41	2.22
852.578	1.95
852.746	1.35
852.915	2.71
853.083	1.17
853.251	0.46
853.42	0.75
853.588	1.79
853.756	2.98
853.924	1.54
854.093	1.96
854.261	1.84
854.429	-0.09
854.597	2.67
854.765	0.21
854.934	2.14
855.102	3.12
855.27	1.41
855.438	2.2
855.606	3.09
855.774	2.49
855.942	1.79
856.11	0.57
856.278	1.73
856.446	2.38
856.614	2.02
856.782	2.28
856.95	3.62
857.118	1.46
857.286	3.16
857.454	2.08
857.622	3.31
857.79	2.61
857.958	1.28
858.126	1.37
858.294	1.14
858.462	1.83
858.629	1.47
858.797	1
858.965	1.14
859.133	1.95
859.301	1.91
859.468	2.14
859.636	0.73
859.804	2.61
859.971	2.71
860.139	1.25
860.307	3.59
860.474	2
860.642	1.62
860.81	1.94
860.977	1.93
861.145	1.48
861.313	3.09
861.48	2.14
861.648	3.07
861.815	1.26
861.983	0.43
862.15	1.5
862.318	2.44
862.485	2.55
862.653	1.74
862.82	1.75
862.988	3.46
863.155	2.61
863.322	0.56
863.49	1.23
863.657	0.5
863.824	3.56
863.992	2.55
864.159	3.7
864.326	3.68
864.494	0.34
864.661	5.11
864.828	0.11
864.996	3.33
865.163	3.65
865.33	1.88
865.497	-0.26
865.664	0.59
865.832	1.56
865.999	2.18
866.166	0.62
866.333	0.62
866.5	2.42
866.667	3.16
866.834	1.75
867.001	3.72
867.168	1.38
867.335	2.29
867.502	0.38
867.669	2.53
867.836	5.15
868.003	2.81
868.17	4.5
868.337	1.27
868.504	4.92
868.671	2.12
868.838	0.85
869.005	3.21
869.172	1.66
869.339	2.14
869.505	2.77
869.672	1.61
869.839	3.24
870.006	2.03
870.173	0.85
870.339	4.13
870.506	4.51
870.673	0.96
870.84	3.64
871.006	2.1
871.173	2.94
871.34	2.44
871.506	0.86
871.673	3.65
871.839	0.86
872.006	3.4
872.173	2.07
872.339	1.41
872.506	4.63
872.672	2.16
872.839	0.26
873.005	3.39
873.172	5.78
873.338	3.06
873.505	3.52
873.671	4.04
873.838	2.01
874.004	0.01
874.171	2.29
874.337	3.01
874.503	2.13
874.67	3.06
874.836	1.19
875.002	3.88
875.169	2.64
875.335	2.25
875.501	1.1
875.668	2.69
875.834	2.23
876	1.81
876.166	2.91
876.332	2.67
876.499	5.35
876.665	2.23
876.831	3.98
876.997	6.82
877.163	2.95
877.329	3.33
877.495	1.42
877.662	2.78
877.828	3.16
877.994	2.72
878.16	1.58
878.326	1.57
878.492	2.92
878.658	0.44
878.824	3.24
878.99	3.32
879.156	1.24
879.322	4.4
879.487	3.36
879.653	3.77
879.819	4
879.985	3.01
880.151	3.17
880.317	3.57
880.483	2.16
880.648	1.92
880.814	0.72
880.98	4.7
881.146	0.93
881.312	2.55
881.477	1.57
881.643	2.53
881.809	3.14
881.974	3.25
882.14	0.58
882.306	5.28
882.471	5.89
882.637	1.27
882.803	2.92
882.968	3.88
883.134	4.71
883.299	2.65
883.465	3.24
883.63	4.42
883.796	3.7
883.961	4.16
884.127	3.47
884.292	-0.19
884.458	1.05
884.623	1.05
