Data from Apollo_Calib_20240827__AbsoluteIrradiance__36__23-45-00-191.txt Node

Date: Tue Aug 27 23:45:00 BST 2024
User: biology
Spectrometer: FLMT08252
Trigger mode: 0
Integration Time (sec): 5.000000E-1
Scans to average: 5
Electric dark correction enabled: true
Nonlinearity correction enabled: false
Boxcar width: 0
XAxis mode: Wavelengths
Number of Pixels in Spectrum: 3648
>>>>>Begin Spectral Data<<<<<
179.588	-0
179.809	-0
180.03	-0
180.251	-0
180.473	-0
180.694	0
180.915	0
181.136	-0
181.357	0
181.578	0
181.799	0
182.02	-0
182.241	-0
182.462	-0
182.683	0
182.904	-0
183.125	-0
183.346	0
183.567	0
183.788	0
184.009	0
184.23	0
184.451	0
184.672	0
184.892	0
185.113	0
185.334	0
185.555	0
185.776	0
185.996	0
186.217	0
186.438	0
186.659	0
186.879	0
187.1	0
187.321	0
187.541	0
187.762	0
187.983	0
188.203	0
188.424	0
188.644	0
188.865	0
189.086	0
189.306	0
189.527	0
189.747	0
189.968	0
190.188	0
190.409	0
190.629	0
190.849	0
191.07	0
191.29	0
191.511	0
191.731	0
191.951	0
192.172	0
192.392	0
192.612	0
192.833	0
193.053	0
193.273	0
193.493	0
193.714	0
193.934	0
194.154	0
194.374	0
194.594	0
194.815	0
195.035	0
195.255	0
195.475	0
195.695	0
195.915	0
196.135	0
196.355	0
196.575	0
196.795	0
197.015	0
197.235	0
197.455	0
197.675	0
197.895	0
198.115	0
198.335	0
198.555	0
198.775	0
198.995	0
199.214	0
199.434	0
199.654	0
199.874	0
200.094	3.59
200.313	2.28
200.533	1.99
200.753	1.76
200.973	3.68
201.192	3.49
201.412	1.25
201.632	2.44
201.851	3.53
202.071	1.83
202.291	1.89
202.51	2.08
202.73	2.8
202.95	2.15
203.169	1.49
203.389	1.86
203.608	2.2
203.828	1.3
204.047	1.72
204.267	2.37
204.486	2.3
204.706	1.94
204.925	1.64
205.145	1.57
205.364	2.37
205.583	2.31
205.803	1.96
206.022	1.39
206.242	2.41
206.461	1.68
206.68	1.73
206.9	1.92
207.119	2.34
207.338	2.39
207.557	1.13
207.777	1.46
207.996	1.6
208.215	2.4
208.434	1
208.654	0.97
208.873	1.5
209.092	1.92
209.311	1.33
209.53	1.34
209.749	1.22
209.968	0.93
210.187	1.36
210.407	1
210.626	1.31
210.845	1.68
211.064	1.3
211.283	1.08
211.502	1.64
211.721	1.24
211.94	0.99
212.159	1.25
212.377	1.34
212.596	1.64
212.815	1.2
213.034	1.27
213.253	1.3
213.472	1.34
213.691	0.92
213.91	0.86
214.128	0.83
214.347	1.52
214.566	0.7
214.785	0.42
215.003	1.33
215.222	1.24
215.441	0.96
215.66	0.71
215.878	0.88
216.097	1.35
216.316	0.86
216.534	0.76
216.753	0.82
216.972	0.86
217.19	0.92
217.409	0.81
217.627	0.89
217.846	1.02
218.064	0.87
218.283	0.67
218.501	1.29
218.72	1.06
218.938	0.59
219.157	0.86
219.375	0.8
219.594	1.01
219.812	0.51
220.031	0.65
220.249	1.23
220.467	1.06
220.686	0.7
220.904	0.72
221.122	0.66
221.341	1.23
221.559	0.8
221.777	0.47
221.995	0.85
222.214	0.86
222.432	0.58
222.65	0.85
222.868	0.74
223.086	0.84
223.305	0.91
223.523	0.67
223.741	1.04
223.959	0.55
224.177	0.37
224.395	0.67
224.613	0.81
224.831	0.89
225.049	0.37
225.267	0.61
225.485	0.75
225.703	0.63
225.921	0.7
226.139	0.65
226.357	0.84
226.575	0.73
226.793	0.52
227.011	1.31
227.229	0.65
227.447	0.92
227.665	0.71
227.883	0.37
228.1	0.71
228.318	0.81
228.536	0.38
228.754	0.59
228.972	0.82
229.189	0.86
229.407	0.55
229.625	0.65
229.843	0.89
230.06	0.64
230.278	0.53
230.496	0.65
230.713	0.82
230.931	0.77
231.149	0.52
231.366	0.31
231.584	0.6
231.801	1.07
232.019	0.52
232.236	0.42
232.454	0.56
232.671	0.69
232.889	0.57
233.106	0.47
233.324	0.52
233.541	0.68
233.759	0.57
233.976	0.49
234.194	0.5
234.411	0.59
234.628	0.45
234.846	0.48
235.063	0.53
235.28	0.45
235.498	0.68
235.715	0.39
235.932	0.6
236.149	0.57
236.367	0.52
236.584	0.57
236.801	0.52
237.018	0.58
237.236	0.51
237.453	0.28
237.67	0.63
237.887	0.43
238.104	0.53
238.321	0.37
238.538	0.58
238.755	0.62
238.973	0.34
239.19	0.54
239.407	0.55
239.624	0.51
239.841	0.37
240.058	0.36
240.275	0.67
240.492	0.57
240.709	0.48
240.925	0.41
241.142	0.64
241.359	0.41
241.576	0.38
241.793	0.44
242.01	0.53
242.227	0.61
242.444	0.64
242.66	0.73
242.877	0.46
243.094	0.45
243.311	0.42
243.527	0.48
243.744	0.57
243.961	0.55
244.178	0.45
244.394	0.37
244.611	0.55
244.828	0.63
245.044	0.36
245.261	0.46
245.477	0.46
245.694	0.55
245.911	0.37
246.127	0.52
246.344	0.55
246.56	0.58
246.777	0.37
246.993	0.43
247.21	0.48
247.426	0.63
247.643	0.39
247.859	0.29
248.076	0.41
248.292	0.69
248.508	0.37
248.725	0.48
248.941	0.6
249.157	0.56
249.374	0.36
249.59	0.44
249.806	0.4
250.023	0.41
250.239	0.35
250.455	0.38
250.671	0.45
250.888	0.5
251.104	0.42
251.32	0.44
251.536	0.54
251.752	0.39
251.969	0.41
252.185	0.5
252.401	0.6
252.617	0.46
252.833	0.42
253.049	0.37
253.265	0.43
253.481	0.44
253.697	0.39
253.913	0.36
254.129	0.45
254.345	0.4
254.561	0.42
254.777	0.4
254.993	0.57
255.209	0.42
255.425	0.43
255.641	0.39
255.857	0.52
256.073	0.45
256.288	0.36
256.504	0.43
256.72	0.44
256.936	0.52
257.152	0.41
257.367	0.31
257.583	0.4
257.799	0.47
258.015	0.32
258.23	0.4
258.446	0.61
258.662	0.39
258.877	0.34
259.093	0.34
259.309	0.43
259.524	0.44
259.74	0.35
259.955	0.32
260.171	0.42
260.387	0.37
260.602	0.43
260.818	0.42
261.033	0.3
261.249	0.29
261.464	0.37
261.68	0.26
261.895	0.4
262.11	0.42
262.326	0.4
262.541	0.31
262.757	0.43
262.972	0.37
263.187	0.4
263.403	0.44
263.618	0.44
263.833	0.41
264.049	0.31
264.264	0.34
264.479	0.47
264.694	0.5
264.91	0.38
265.125	0.37
265.34	0.42
265.555	0.56
265.77	0.41
265.986	0.31
266.201	0.42
266.416	0.46
266.631	0.37
266.846	0.36
267.061	0.39
267.276	0.43
267.491	0.26
267.706	0.44
267.921	0.41
268.136	0.39
268.351	0.42
268.566	0.25
268.781	0.43
268.996	0.36
269.211	0.36
269.426	0.33
269.641	0.34
269.856	0.39
270.071	0.25
270.285	0.25
270.5	0.41
270.715	0.44
270.93	0.38
271.145	0.38
271.359	0.42
271.574	0.34
271.789	0.35
272.004	0.3
272.218	0.31
272.433	0.39
272.648	0.24
272.862	0.45
273.077	0.33
273.292	0.36
273.506	0.28
273.721	0.33
273.936	0.43
274.15	0.33
274.365	0.35
274.579	0.41
274.794	0.37
275.008	0.43
275.223	0.26
275.437	0.31
275.652	0.51
275.866	0.35
276.081	0.38
276.295	0.44
276.509	0.4
276.724	0.3
276.938	0.35
277.153	0.37
277.367	0.35
277.581	0.28
277.796	0.29
278.01	0.23
278.224	0.37
278.438	0.5
278.653	0.25
278.867	0.29
279.081	0.2
279.295	0.3
279.51	0.33
279.724	0.21
279.938	0.37
280.152	0.39
280.366	0.25
280.58	0.34
280.794	0.39
281.008	0.36
281.222	0.36
281.437	0.47
281.651	0.35
281.865	0.4
282.079	0.28
282.293	0.21
282.507	0.25
282.721	0.28
282.935	0.29
283.148	0.25
283.362	0.28
283.576	0.21
283.79	0.31
284.004	0.24
284.218	0.32
284.432	0.25
284.646	0.34
284.859	0.26
285.073	0.32
285.287	0.31
285.501	0.26
285.714	0.28
285.928	0.32
286.142	0.31
286.356	0.29
286.569	0.29
286.783	0.37
286.997	0.32
287.21	0.32
287.424	0.28
287.637	0.29
287.851	0.31
288.065	0.31
288.278	0.3
288.492	0.33
288.705	0.24
288.919	0.32
289.132	0.26
289.346	0.36
289.559	0.21
289.773	0.24
289.986	0.27
290.2	0.25
290.413	0.32
290.626	0.28
290.84	0.25
291.053	0.26
291.267	0.36
291.48	0.31
291.693	0.29
291.906	0.29
292.12	0.28
292.333	0.29
292.546	0.26
292.76	0.34
292.973	0.31
293.186	0.33
293.399	0.29
293.612	0.34
293.826	0.27
294.039	0.28
294.252	0.27
294.465	0.35
294.678	0.3
294.891	0.27
295.104	0.23
295.317	0.3
295.53	0.3
295.743	0.3
295.956	0.27
296.169	0.37
296.382	0.36
296.595	0.31
296.808	0.22
297.021	0.33
297.234	0.35
297.447	0.28
297.66	0.27
297.873	0.33
298.086	0.33
298.299	0.27
298.511	0.19
298.724	0.33
298.937	0.21
299.15	0.19
299.363	0.25
299.575	0.32
299.788	0.28
300.001	0.29
300.213	0.29
300.426	0.24
300.639	0.24
300.852	0.29
301.064	0.28
301.277	0.3
301.489	0.29
301.702	0.3
301.915	0.24
302.127	0.28
302.34	0.25
302.552	0.3
302.765	0.22
302.977	0.33
303.19	0.23
303.402	0.26
303.615	0.27
303.827	0.23
304.04	0.24
304.252	0.29
304.464	0.29
304.677	0.35
304.889	0.27
305.102	0.21
305.314	0.24
305.526	0.3
305.739	0.28
305.951	0.18
306.163	0.22
306.375	0.36
306.588	0.19
306.8	0.23
307.012	0.23
307.224	0.3
307.436	0.36
307.649	0.16
307.861	0.29
308.073	0.28
308.285	0.27
308.497	0.25
308.709	0.23
308.921	0.29
309.133	0.35
309.346	0.26
309.558	0.23
309.77	0.3
309.982	0.32
310.194	0.29
310.406	0.24
310.617	0.31
310.829	0.28
311.041	0.25
311.253	0.22
311.465	0.22
311.677	0.28
311.889	0.28
312.101	0.2
312.313	0.3
312.524	0.32
312.736	0.2
312.948	0.24
313.16	0.36
313.372	0.28
313.583	0.24
313.795	0.27
314.007	0.19
314.218	0.3
314.43	0.27
314.642	0.22
314.853	0.2
315.065	0.31
315.277	0.28
315.488	0.3
315.7	0.33
315.912	0.28
316.123	0.28
316.335	0.22
316.546	0.34
316.758	0.25
316.969	0.24
317.181	0.29
317.392	0.25
317.604	0.32
317.815	0.23
318.026	0.24
318.238	0.26
318.449	0.27
318.661	0.2
318.872	0.19
319.083	0.16
319.295	0.34
319.506	0.23
319.717	0.25
319.929	0.23
320.14	0.3
320.351	0.25
320.562	0.26
320.774	0.28
320.985	0.27
321.196	0.21
321.407	0.18
321.618	0.34
321.829	0.3
322.041	0.29
322.252	0.29
322.463	0.23
322.674	0.29
322.885	0.23
323.096	0.23
323.307	0.25
323.518	0.27
323.729	0.22
323.94	0.27
324.151	0.26
324.362	0.26
324.573	0.3
324.784	0.25
324.995	0.26
325.206	0.29
325.417	0.22
325.628	0.22
325.838	0.22
326.049	0.3
326.26	0.28
326.471	0.25
326.682	0.27
326.892	0.28
327.103	0.2
327.314	0.2
327.525	0.3
327.735	0.32
327.946	0.26
328.157	0.23
328.368	0.33
328.578	0.22
328.789	0.3
328.999	0.25
329.21	0.27
329.421	0.29
329.631	0.21
329.842	0.2
330.052	0.25
330.263	0.25
330.473	0.29
330.684	0.27
330.894	0.22
331.105	0.29
331.315	0.27
331.526	0.2
331.736	0.38
331.947	0.26
332.157	0.29
332.367	0.23
332.578	0.3
332.788	0.31
332.999	0.3
333.209	0.26
333.419	0.21
333.629	0.29
333.84	0.29
334.05	0.3
334.26	0.34
334.47	0.33
334.681	0.3
334.891	0.29
335.101	0.25
335.311	0.38
335.521	0.26
335.732	0.26
335.942	0.28
336.152	0.24
336.362	0.29
336.572	0.29
336.782	0.32
336.992	0.22
337.202	0.21
337.412	0.26
337.622	0.26
337.832	0.24
338.042	0.24
338.252	0.24
338.462	0.25
338.672	0.26
338.882	0.27
339.092	0.26
339.302	0.35
339.511	0.29
339.721	0.23
339.931	0.26
340.141	0.33
340.351	0.33
340.561	0.25
340.77	0.31
340.98	0.29
341.19	0.28
341.4	0.24
341.609	0.23
341.819	0.22
342.029	0.23
342.238	0.27
342.448	0.21
342.658	0.26
342.867	0.27
343.077	0.24
343.286	0.27
343.496	0.2
343.706	0.35
343.915	0.17
344.125	0.25
344.334	0.29
344.544	0.14
344.753	0.25
344.963	0.23
345.172	0.26
345.381	0.21
345.591	0.26
345.8	0.25
346.01	0.32
346.219	0.27
346.428	0.13
346.638	0.25
346.847	0.28
347.056	0.31
347.266	0.21
347.475	0.27
347.684	0.3
347.893	0.29
348.103	0.25
348.312	0.27
348.521	0.25
348.73	0.26
348.94	0.28
349.149	0.23
349.358	0.26
349.567	0.22
349.776	0.2
349.985	0.23
350.194	0.27
350.403	0.32
350.612	0.17
350.821	0.24
351.03	0.23
351.239	0.19
351.448	0.27
351.657	0.26
351.866	0.33
352.075	0.26
352.284	0.29
352.493	0.22
352.702	0.33
352.911	0.27
353.12	0.28
353.329	0.23
353.538	0.26
353.746	0.25
353.955	0.21
354.164	0.24
354.373	0.25
354.582	0.29
354.79	0.26
354.999	0.22
355.208	0.26
355.416	0.28
355.625	0.23
355.834	0.22
356.042	0.21
356.251	0.23
356.46	0.2
356.668	0.3
356.877	0.29
357.085	0.31
357.294	0.22
357.503	0.22
357.711	0.26
357.92	0.41
358.128	0.29
358.337	0.23
358.545	0.26
358.754	0.26
358.962	0.27
359.17	0.23
359.379	0.24
359.587	0.3
359.796	0.22
360.004	0.28
360.212	0.28
360.421	0.32
360.629	0.21
360.837	0.24
361.046	0.3
361.254	0.38
361.462	0.23
361.67	0.23
361.879	0.27
362.087	0.34
362.295	0.25
362.503	0.24
362.711	0.16
362.92	0.26
363.128	0.21
363.336	0.22
363.544	0.21
363.752	0.25
363.96	0.21
364.168	0.22
364.376	0.26
364.584	0.25
364.792	0.32
365	0.28
365.208	0.25
365.416	0.31
365.624	0.29
365.832	0.22
366.04	0.27
366.248	0.24
366.456	0.24
366.664	0.26
366.872	0.25
367.079	0.24
367.287	0.24
367.495	0.26
367.703	0.22
367.911	0.25
368.118	0.24
368.326	0.27
368.534	0.21
368.742	0.3
368.949	0.22
369.157	0.22
369.365	0.31
369.572	0.22
369.78	0.15
369.988	0.33
370.195	0.27
370.403	0.28
370.61	0.22
370.818	0.27
371.026	0.29
371.233	0.24
371.441	0.25
371.648	0.26
371.856	0.27
372.063	0.23
372.271	0.26
372.478	0.23
372.685	0.23
372.893	0.28
373.1	0.25
373.308	0.25
373.515	0.34
373.722	0.3
373.93	0.26
374.137	0.29
374.344	0.33
374.552	0.27
374.759	0.33
374.966	0.28
375.173	0.23
375.381	0.3
375.588	0.27
375.795	0.19
376.002	0.23
376.209	0.28
376.417	0.24
376.624	0.31
376.831	0.28
377.038	0.21
377.245	0.22
377.452	0.25
377.659	0.24
377.866	0.25
378.073	0.25
378.28	0.27
378.487	0.3
378.694	0.3
378.901	0.27
379.108	0.26
379.315	0.31
379.522	0.34
379.729	0.28
379.936	0.24
380.143	0.29
380.35	0.27
380.557	0.28
380.763	0.29
380.97	0.26
381.177	0.25
381.384	0.29
381.591	0.27
381.797	0.25
382.004	0.32
382.211	0.27
382.418	0.27
382.624	0.29
382.831	0.3
383.038	0.22
383.244	0.28
383.451	0.25
383.658	0.28
383.864	0.25
384.071	0.23
384.277	0.35
384.484	0.3
384.69	0.32
384.897	0.25
385.103	0.21
385.31	0.27
385.516	0.26
385.723	0.23
385.929	0.3
386.136	0.3
386.342	0.28
386.549	0.32
386.755	0.39
386.961	0.32
387.168	0.26
387.374	0.31
387.58	0.29
387.787	0.27
387.993	0.3
388.199	0.28
388.406	0.25
388.612	0.27
388.818	0.25
389.024	0.26
389.231	0.31
389.437	0.33
389.643	0.34
389.849	0.27
390.055	0.34
390.261	0.29
390.467	0.35
390.674	0.26
390.88	0.3
391.086	0.32
391.292	0.28
391.498	0.38
391.704	0.36
391.91	0.27
392.116	0.31
392.322	0.2
392.528	0.31
392.734	0.31
392.94	0.38
393.146	0.28
393.352	0.32
393.557	0.29
393.763	0.32
393.969	0.36
394.175	0.32
394.381	0.36
394.587	0.25
394.792	0.3
394.998	0.36
395.204	0.34
395.41	0.26
395.615	0.34
395.821	0.33
396.027	0.33
396.233	0.29
396.438	0.34
396.644	0.43
396.85	0.34
397.055	0.34
397.261	0.35
397.466	0.45
397.672	0.31
397.878	0.36
398.083	0.33
398.289	0.33
398.494	0.39
398.7	0.38
398.905	0.27
399.111	0.42
399.316	0.32
399.522	0.38
399.727	0.37
399.932	0.3
400.138	0.34
400.343	0.39
400.549	0.32
400.754	0.39
400.959	0.42
401.165	0.37
401.37	0.42
401.575	0.48
401.78	0.39
401.986	0.38
402.191	0.36
402.396	0.36
402.601	0.4
402.807	0.41
403.012	0.41
403.217	0.48
403.422	0.35
403.627	0.43
403.832	0.43
404.037	0.45
404.243	0.44
404.448	0.39
404.653	0.47
404.858	0.42
405.063	0.52
405.268	0.39
405.473	0.38
405.678	0.44
405.883	0.59
406.088	0.49
406.293	0.42
406.498	0.43
406.703	0.47
406.907	0.5
407.112	0.48
407.317	0.55
407.522	0.58
407.727	0.47
407.932	0.56
408.136	0.61
408.341	0.51
408.546	0.55
408.751	0.59
408.956	0.62
409.16	0.64
409.365	0.62
409.57	0.64
409.774	0.62
409.979	0.67
410.184	0.71
410.388	0.65
410.593	0.74
410.798	0.72
411.002	0.72
411.207	0.83
411.411	0.74
411.616	0.75
411.82	0.82
412.025	0.9
412.229	0.91
412.434	0.94
412.638	0.98
412.843	0.91
413.047	0.98
413.252	0.92
413.456	1
413.66	1.06
413.865	1.05
414.069	1.09
414.273	1.08
414.478	1.13
414.682	1.2
414.886	1.25
415.091	1.23
415.295	1.23
415.499	1.48
415.703	1.37
415.908	1.46
416.112	1.38
416.316	1.59
416.52	1.54
416.724	1.53
416.929	1.61
417.133	1.8
417.337	1.75
417.541	1.8
417.745	1.86
417.949	2
418.153	2.01
418.357	2.03
418.561	2.23
418.765	2.26
418.969	2.39
419.173	2.43
419.377	2.41
419.581	2.6
419.785	2.69
419.989	2.66
420.193	2.78
420.397	2.98
420.601	2.99
420.804	3.11
421.008	3.15
421.212	3.23
421.416	3.28
421.62	3.28
421.823	3.36
422.027	3.54
422.231	3.51
422.435	3.58
422.638	3.54
422.842	3.73
423.046	3.73
423.249	3.94
423.453	4
423.657	4.12
423.86	4.26
424.064	4.32
424.268	4.51
424.471	4.47
424.675	4.73
424.878	4.84
425.082	4.91
425.285	5.21
425.489	5.14
425.692	5.21
425.896	5.27
426.099	5.53
426.303	5.65
426.506	5.84
426.71	5.98
426.913	6.15
427.116	6.4
427.32	6.34
427.523	6.44
427.726	6.7
427.93	6.82
428.133	7.12
428.336	7.26
428.54	7.37
428.743	7.59
428.946	8
429.149	7.89
429.353	7.91
429.556	8.09
429.759	8.05
429.962	8.16
430.165	8.37
430.368	8
430.571	8.04
430.775	8.12
430.978	8.19
431.181	8.14
431.384	8.34
431.587	8.33
431.79	8.79
431.993	8.68
432.196	8.95
432.399	9.38
432.602	9.46
432.805	9.52
433.008	10.03
433.211	10.03
433.414	10.27
433.616	10.35
433.819	10.29
434.022	10.47
434.225	10.61
434.428	10.62
434.631	11.13
434.833	10.83
435.036	11.1
435.239	11.32
435.442	11.38
435.645	11.53
435.847	11.57
436.05	11.92
436.253	12.15
436.455	12.14
436.658	12.07
436.861	12.38
437.063	12.52
437.266	12.39
437.468	12.85
437.671	13.03
437.874	13.11
438.076	13.04
438.279	13.45
438.481	13.5
438.684	14.23
438.886	14
439.089	14.11
439.291	14.13
439.494	14.55
439.696	14.62
439.899	15.35
440.101	15.64
440.303	15.86
440.506	16.63
440.708	16.28
440.91	16.64
441.113	16.81
441.315	16.95
441.517	16.76
441.72	17.21
441.922	16.93
442.124	16.79
442.326	17.26
442.529	17.39
442.731	17.49
442.933	17.72
443.135	17.53
443.337	17.55
443.539	18.11
443.742	17.77
443.944	18.39
444.146	18.14
444.348	18.15
444.55	17.97
444.752	18.26
444.954	18.15
445.156	18.17
445.358	18.54
445.56	18.72
445.762	18.48
445.964	18.91
446.166	18.78
446.368	18.57
446.57	18.57
446.772	18.22
446.974	17.96
447.175	18.29
447.377	18
447.579	18.4
447.781	18.01
447.983	17.91
448.184	17.5
448.386	17.85
448.588	17.37
448.79	17.29
448.991	17.55
449.193	17.52
449.395	16.98
449.597	16.49
449.798	16.44
450	15.99
450.202	15.94
450.403	15.95
450.605	15.8
450.806	15.5
451.008	15.37
451.21	15.01
451.411	14.54
451.613	13.93
451.814	14.16
452.016	13.99
452.217	13.42
452.419	13.25
452.62	12.95
452.821	12.82
453.023	12.75
453.224	12.28
453.426	11.85
453.627	11.13
453.828	11.27
454.03	11.34
454.231	11.34
454.432	11.08
454.634	10.84
454.835	10.67
455.036	10.45
455.238	10.12
455.439	9.88
455.64	9.52
455.841	9.41
456.042	9.6
456.244	9.18
456.445	8.89
456.646	8.64
456.847	8.58
457.048	8.5
457.249	8.45
457.45	8.26
457.651	7.78
457.852	7.57
458.054	7.21
458.255	7.23
458.456	7.29
458.657	7.12
458.858	6.62
459.058	6.72
459.259	6.78
459.46	6.42
459.661	6.45
459.862	6.43
460.063	6.33
460.264	6.26
460.465	5.94
460.666	6.11
460.866	5.84
461.067	5.55
461.268	5.62
461.469	5.45
461.67	5.37
461.87	5.22
462.071	5.27
462.272	5.23
462.473	5.09
462.673	5.23
462.874	5.12
463.075	5.17
463.275	5.11
463.476	5.17
463.676	5.1
463.877	4.95
464.078	4.96
464.278	5.01
464.479	4.88
464.679	4.8
464.88	4.65
465.08	4.61
465.281	4.52
465.481	4.31
465.682	4.17
465.882	4.16
466.083	4.13
466.283	4.05
466.483	3.89
466.684	3.74
466.884	3.7
467.085	3.69
467.285	3.73
467.485	3.69
467.686	3.52
467.886	3.52
468.086	3.4
468.286	3.38
468.487	3.44
468.687	3.3
468.887	3.23
469.087	3.32
469.287	3.31
469.488	3.06
469.688	3.17
469.888	3.18
470.088	3.14
470.288	3.11
470.488	3.08
470.688	2.88
470.888	2.81
471.088	2.65
471.288	2.87
471.488	2.78
471.688	2.78
471.888	2.74
472.088	2.79
472.288	2.67
472.488	2.53
472.688	2.58
472.888	2.58
473.088	2.57
473.288	2.5
473.488	2.48
473.688	2.62
473.887	2.44
474.087	2.4
474.287	2.45
474.487	2.38
474.687	2.41
474.886	2.35
475.086	2.29
475.286	2.37
475.486	2.25
475.685	2.25
475.885	2.23
476.085	2.27
476.284	2.26
476.484	2.3
476.684	2.19
476.883	2.28
477.083	2.2
477.282	2.15
477.482	2.2
477.681	2.13
477.881	2.02
478.08	2.06
478.28	2.05
478.479	2.1
478.679	2.15
478.878	2.07
479.078	2.02
479.277	2.07
479.477	2.11
479.676	2.01
479.875	2.02
480.075	2
480.274	2
480.473	2.07
480.673	1.99
480.872	2.07
481.071	2.07
481.271	2.08
481.47	2.02
481.669	1.97
481.868	1.95
482.067	1.99
482.267	1.92
482.466	1.99
482.665	1.89
482.864	1.94
483.063	1.95
483.262	2.01
483.461	2.03
483.661	2.09
483.86	2.04
484.059	2.06
484.258	2.05
484.457	2.02
484.656	1.98
484.855	2.07
485.054	1.92
485.253	1.95
485.452	1.99
485.651	2.04
485.849	2
486.048	1.99
486.247	2.01
486.446	2.04
486.645	2.06
486.844	2.05
487.043	2.05
487.241	2.06
487.44	2.12
487.639	2.15
487.838	2.12
488.037	2.12
488.235	2.2
488.434	2.17
488.633	2.04
488.831	2.2
489.03	2.22
489.229	2.24
489.427	2.19
489.626	2.27
489.825	2.3
490.023	2.28
490.222	2.26
490.42	2.32
490.619	2.35
490.817	2.36
491.016	2.34
491.214	2.42
491.413	2.4
491.611	2.35
491.81	2.37
492.008	2.42
492.207	2.53
492.405	2.52
492.604	2.44
492.802	2.52
493	2.59
493.199	2.63
493.397	2.62
493.595	2.69
493.794	2.65
493.992	2.75
494.19	2.73
494.388	2.82
494.587	2.76
494.785	2.78
494.983	2.76
495.181	2.83
495.379	2.88
495.578	2.98
495.776	2.92
495.974	2.93
496.172	2.95
496.37	3.09
496.568	3.14
496.766	3.08
496.964	3.14
497.162	3.17
497.36	3.19
497.558	3.19
497.756	3.29
497.954	3.3
498.152	3.34
498.35	3.42
498.548	3.37
498.746	3.38
498.944	3.41
499.142	3.49
499.34	3.55
499.538	3.59
499.736	3.5
499.933	3.61
500.131	3.63
500.329	3.71
500.527	3.71
500.725	3.84
500.922	3.84
501.12	3.86
501.318	3.93
501.516	3.92
501.713	3.99
501.911	3.95
502.109	3.92
502.306	4.12
502.504	3.98
502.701	4.14
502.899	4.15
503.097	4.32
503.294	4.16
503.492	4.28
503.689	4.36
503.887	4.32
504.084	4.45
504.282	4.41
504.479	4.38
504.677	4.55
504.874	4.5
505.072	4.4
505.269	4.72
505.466	4.7
505.664	4.73
505.861	4.6
506.059	4.81
506.256	4.77
506.453	4.85
506.651	4.93
506.848	4.98
507.045	4.98
507.242	4.96
507.44	5.03
507.637	5.07
507.834	5.02
508.031	5.27
508.229	5.13
508.426	5.05
508.623	5.25
508.82	5.3
509.017	5.26
509.214	5.28
509.411	5.43
509.608	5.35
509.805	5.52
510.003	5.46
510.2	5.48
510.397	5.61
510.594	5.51
510.791	5.68
510.988	5.62
511.184	5.63
511.381	5.54
511.578	5.68
511.775	5.76
511.972	5.66
512.169	5.85
512.366	5.82
512.563	5.93
512.76	5.96
512.956	5.99
513.153	5.95
513.35	5.92
513.547	5.96
513.744	6.06
513.94	6.02
514.137	6.13
514.334	6.16
514.53	6.2
514.727	6.42
514.924	6.24
515.12	6.21
515.317	6.29
515.514	6.22
515.71	6.22
515.907	6.44
516.103	6.41
516.3	6.34
516.497	6.45
516.693	6.48
516.89	6.49
517.086	6.54
517.283	6.54
517.479	6.39
517.676	6.59
517.872	6.63
518.068	6.65
518.265	6.65
518.461	6.53
518.658	6.72
518.854	6.75
519.05	6.8
519.247	6.79
519.443	6.77
519.639	6.87
519.836	6.76
520.032	6.73
520.228	6.86
520.424	6.8
520.621	6.92
520.817	7.01
521.013	6.91
521.209	7.1
521.405	7.08
521.601	6.97
521.798	6.97
521.994	7.01
522.19	6.93
522.386	7.01
522.582	7.18
522.778	7.25
522.974	7.14
523.17	7.15
523.366	7.07
523.562	7.21
523.758	7.2
523.954	7.03
524.15	7.24
524.346	7.24
524.542	7.24
524.738	7.2
524.934	7.37
525.129	7.34
525.325	7.26
525.521	7.24
525.717	7.5
525.913	7.3
526.109	7.3
526.304	7.43
526.5	7.46
526.696	7.39
526.892	7.37
527.087	7.64
527.283	7.51
527.479	7.53
527.674	7.32
527.87	7.5
528.066	7.5
528.261	7.59
528.457	7.47
528.653	7.63
528.848	7.54
529.044	7.66
529.239	7.52
529.435	7.54
529.63	7.48
529.826	7.57
530.021	7.51
530.217	7.63
530.412	7.56
530.608	7.63
530.803	7.65
530.999	7.46
531.194	7.63
531.389	7.72
531.585	7.68
531.78	7.8
531.975	7.65
532.171	7.75
532.366	7.75
532.561	7.76
532.757	7.66
532.952	7.86
533.147	7.59
533.342	7.8
533.538	7.7
533.733	7.87
533.928	7.62
534.123	7.79
534.318	7.82
534.513	7.75
534.709	7.89
534.904	7.86
535.099	7.87
535.294	7.9
535.489	7.93
535.684	7.84
535.879	7.89
536.074	7.88
536.269	7.88
536.464	7.97
536.659	7.88
536.854	7.89
537.049	7.97
537.244	7.87
537.439	7.9
537.634	7.89
537.828	8
538.023	7.93
538.218	7.88
538.413	7.84
538.608	7.96
538.803	7.9
538.997	7.89
539.192	7.95
539.387	7.88
539.582	7.96
539.776	7.82
539.971	7.97
540.166	8.04
540.36	7.88
540.555	8.05
540.75	8.02
540.944	8
541.139	7.98
541.334	7.98
541.528	8.01
541.723	8.01
541.917	8.1
542.112	7.96
542.306	7.85
542.501	7.93
542.695	7.94
542.89	7.89
543.084	8.01
543.279	8.08
543.473	8.04
543.668	8.11
543.862	7.88
544.056	7.9
544.251	8.09
544.445	8.11
544.64	8.21
544.834	7.79
545.028	7.7
545.222	8.01
545.417	8.28
545.611	8.14
545.805	8.01
546	7.89
546.194	8.07
546.388	8.1
546.582	8.02
546.776	8.05
546.97	8.08
547.165	8.05
547.359	8
547.553	7.91
547.747	8.04
547.941	8.26
548.135	8.02
548.329	8.04
548.523	8.08
548.717	8.03
548.911	8.01
549.105	7.96
549.299	8.16
549.493	8.17
549.687	8
549.881	8.18
550.075	8.06
550.269	7.95
550.463	8.12
550.657	8.08
550.85	8.04
551.044	8.01
551.238	8.12
551.432	8.09
551.626	8.09
551.82	8.08
552.013	8.01
552.207	8.21
552.401	8.2
552.594	8.05
552.788	8.01
552.982	8.02
553.176	8.09
553.369	8.23
553.563	8.15
553.756	8.03
553.95	8.12
554.144	8.16
554.337	8.15
554.531	7.92
554.724	8.09
554.918	8.1
555.111	8.08
555.305	8.09
555.498	8
555.692	8.2
555.885	8.1
556.079	8.08
556.272	8.07
556.466	8.08
556.659	8.05
556.852	8.22
557.046	8
557.239	7.95
557.432	8.08
557.626	8.13
557.819	8.11
558.012	8.16
558.206	8.18
558.399	8.11
558.592	8.04
558.785	8.03
558.979	8.11
559.172	8.1
559.365	8.1
559.558	8.08
559.751	8.02
559.944	8.22
560.138	8.09
560.331	8.08
560.524	8.17
560.717	8.08
560.91	8.12
561.103	8.06
561.296	7.96
561.489	8.13
561.682	8.27
561.875	8.16
562.068	8.21
562.261	7.99
562.454	8.2
562.647	8.16
562.84	8.11
563.032	8.12
563.225	8.03
563.418	8.07
563.611	8.15
563.804	8.14
563.997	7.95
564.19	7.82
564.382	8.24
564.575	8.12
564.768	8.11
564.961	8.08
565.153	8.02
565.346	8.02
565.539	8.2
565.731	8.09
565.924	8.11
566.117	8.26
566.309	8.13
566.502	8.03
566.695	8.01
566.887	8.1
567.08	8.11
567.272	8.17
567.465	7.93
567.657	8.12
567.85	7.97
568.042	8.14
568.235	8.1
568.427	7.92
568.62	8.04
568.812	8.02
569.005	8.16
569.197	7.98
569.389	8.06
569.582	8.05
569.774	8.09
569.966	8.02
570.159	7.95
570.351	7.95
570.543	8.02
570.736	8.03
570.928	7.86
571.12	8.04
571.312	7.99
571.505	7.77
571.697	8.01
571.889	7.94
572.081	8.03
572.273	7.93
572.465	8.02
572.658	8.02
572.85	8.05
573.042	8
573.234	7.91
573.426	7.9
573.618	7.87
573.81	8.01
574.002	7.98
574.194	7.96
574.386	7.93
574.578	7.82
574.77	7.91
574.962	7.99
575.154	7.8
575.346	7.85
575.538	7.85
575.729	7.86
575.921	7.91
576.113	8
576.305	7.85
576.497	7.98
576.689	7.82
576.88	7.74
577.072	8.01
577.264	7.85
577.456	7.94
577.647	7.77
577.839	7.95
578.031	7.78
578.223	7.77
578.414	7.73
578.606	7.8
578.798	7.91
578.989	7.86
579.181	7.87
579.372	7.77
579.564	7.79
579.755	7.79
579.947	7.69
580.139	7.86
580.33	7.67
580.522	7.76
580.713	7.69
580.905	7.73
581.096	7.79
581.287	7.72
581.479	7.68
581.67	7.77
581.862	7.63
582.053	7.74
582.244	7.59
582.436	7.83
582.627	7.63
582.818	7.69
583.01	7.64
583.201	7.68
583.392	7.59
583.583	7.66
583.775	7.43
583.966	7.6
584.157	7.65
584.348	7.68
584.54	7.63
584.731	7.58
584.922	7.58
585.113	7.42
585.304	7.62
585.495	7.52
585.686	7.63
585.877	7.58
586.068	7.71
586.259	7.58
586.45	7.49
586.641	7.53
586.832	7.61
587.023	7.55
587.214	7.47
587.405	7.57
587.596	7.42
587.787	7.36
587.978	7.45
588.169	7.41
588.36	7.4
588.551	7.4
588.742	7.47
588.932	7.5
589.123	7.23
589.314	7.5
589.505	7.39
589.696	7.32
589.886	7.39
590.077	7.3
590.268	7.28
590.458	7.23
590.649	7.19
590.84	7.26
591.03	7.24
591.221	7.21
591.412	7.14
591.602	7.35
591.793	7.24
591.984	7.26
592.174	7.24
592.365	7.29
592.555	7.09
592.746	7.17
592.936	7.17
593.127	7.15
593.317	7.17
593.508	7.19
593.698	7.11
593.889	7.09
594.079	7.07
594.269	7.01
594.46	7.05
594.65	7.07
594.84	7.03
595.031	6.89
595.221	6.96
595.411	7.01
595.602	6.99
595.792	6.92
595.982	6.91
596.172	7.02
596.363	6.89
596.553	6.9
596.743	6.95
596.933	6.87
597.123	6.85
597.314	6.75
597.504	6.73
597.694	6.85
597.884	6.78
598.074	6.87
598.264	6.86
598.454	6.81
598.644	6.76
598.834	6.75
599.024	6.68
599.214	6.68
599.404	6.77
599.594	6.76
599.784	6.63
599.974	6.75
600.164	6.71
600.354	6.64
600.544	6.54
600.734	6.67
600.924	6.6
601.114	6.59
601.303	6.51
601.493	6.53
601.683	6.59
601.873	6.6
602.063	6.48
602.252	6.53
602.442	6.38
602.632	6.36
602.821	6.38
603.011	6.56
603.201	6.42
603.39	6.4
603.58	6.36
603.77	6.41
603.959	6.43
604.149	6.44
604.339	6.33
604.528	6.4
604.718	6.42
604.907	6.25
605.097	6.22
605.286	6.24
605.476	6.27
605.665	6.23
605.855	6.19
606.044	6.3
606.234	6.27
606.423	6.15
606.612	6.1
606.802	6.18
606.991	6.19
607.181	6.23
607.37	6.16
607.559	5.93
607.749	6.09
607.938	6.01
608.127	6.07
608.316	6.06
608.506	5.99
608.695	6.01
608.884	5.98
609.073	6.03
609.263	6.07
609.452	6.03
609.641	5.87
609.83	5.83
610.019	5.92
610.208	5.84
610.397	5.83
610.586	5.82
610.775	5.78
610.965	5.88
611.154	5.7
611.343	5.81
611.532	5.71
611.721	5.83
611.91	5.71
612.099	5.69
612.287	5.54
612.476	5.59
612.665	5.77
612.854	5.58
613.043	5.62
613.232	5.63
613.421	5.51
613.61	5.58
613.798	5.61
613.987	5.56
614.176	5.51
614.365	5.59
614.554	5.52
614.742	5.63
614.931	5.39
615.12	5.5
615.309	5.48
615.497	5.44
615.686	5.29
615.875	5.42
616.063	5.32
616.252	5.36
616.44	5.42
616.629	5.32
616.818	5.33
617.006	5.24
617.195	5.25
617.383	5.2
617.572	5.16
617.76	5.17
617.949	5.2
618.137	5.27
618.326	5.23
618.514	5.15
618.703	5
618.891	5.17
619.079	5.12
619.268	5.18
619.456	5.01
619.644	5.13
619.833	4.99
620.021	5
620.209	4.91
620.398	5.03
620.586	4.97
620.774	4.96
620.962	4.95
621.151	4.96
621.339	4.94
621.527	4.81
621.715	4.82
621.903	4.87
622.092	4.79
622.28	4.93
622.468	4.68
622.656	4.86
622.844	4.73
623.032	4.81
623.22	4.71
623.408	4.81
623.596	4.72
623.784	4.76
623.972	4.64
624.16	4.7
624.348	4.72
624.536	4.71
624.724	4.55
624.912	4.62
625.1	4.64
625.288	4.6
625.476	4.5
625.664	4.61
625.851	4.55
626.039	4.6
626.227	4.45
626.415	4.51
626.603	4.43
626.79	4.46
626.978	4.4
627.166	4.47
627.354	4.38
627.541	4.37
627.729	4.27
627.917	4.5
628.104	4.41
628.292	4.31
628.48	4.28
628.667	4.29
628.855	4.34
629.042	4.35
629.23	4.26
629.418	4.24
629.605	4.29
629.793	4.18
629.98	4.22
630.168	4.19
630.355	4.21
630.543	4.21
630.73	4.11
630.917	4.13
631.105	4.22
631.292	4.12
631.48	4.02
631.667	4.15
631.854	4.07
632.042	4.05
632.229	3.96
632.416	4.07
632.604	4
632.791	3.89
632.978	4.01
633.165	3.95
633.353	3.94
633.54	4.02
633.727	3.84
633.914	3.88
634.101	3.83
634.289	3.94
634.476	3.82
634.663	3.83
634.85	3.86
635.037	3.78
635.224	3.73
635.411	3.84
635.598	3.74
635.785	3.76
635.972	3.69
636.159	3.73
636.346	3.69
636.533	3.69
636.72	3.69
636.907	3.68
637.094	3.67
637.281	3.53
637.468	3.58
637.655	3.65
637.842	3.55
638.029	3.51
638.215	3.55
638.402	3.57
638.589	3.5
638.776	3.48
638.963	3.41
639.149	3.57
639.336	3.57
639.523	3.41
639.709	3.43
639.896	3.45
640.083	3.44
640.27	3.42
640.456	3.35
640.643	3.41
640.829	3.24
641.016	3.33
641.203	3.26
641.389	3.35
641.576	3.28
641.762	3.24
641.949	3.22
642.135	3.27
642.322	3.27
642.508	3.23
642.695	3.27
642.881	3.23
643.068	3.17
643.254	3.21
643.441	3.14
643.627	3.19
643.813	3.12
644	3.2
644.186	3.03
644.372	3.07
644.559	3.12
644.745	3.08
644.931	3.02
645.118	3.07
645.304	3.09
645.49	3.05
645.676	2.99
645.862	3.07
646.049	3.09
646.235	3.02
646.421	3.13
646.607	3.09
646.793	2.97
646.979	2.9
647.165	2.99
647.352	2.96
647.538	2.9
647.724	2.93
647.91	2.9
648.096	2.95
648.282	2.9
648.468	2.9
648.654	2.9
648.84	2.86
649.026	2.84
649.212	2.8
649.397	2.76
649.583	2.78
649.769	2.81
649.955	2.8
650.141	2.86
650.327	2.82
650.513	2.71
650.698	2.75
650.884	2.66
651.07	2.78
651.256	2.64
651.442	2.72
651.627	2.63
651.813	2.7
651.999	2.62
652.184	2.64
652.37	2.64
652.556	2.64
652.741	2.66
652.927	2.5
653.113	2.61
653.298	2.64
653.484	2.57
653.669	2.55
653.855	2.54
654.04	2.58
654.226	2.56
654.412	2.55
654.597	2.49
654.782	2.54
654.968	2.51
655.153	2.51
655.339	2.49
655.524	2.49
655.71	2.53
655.895	2.52
656.08	2.47
656.266	2.47
656.451	2.43
656.636	2.43
656.822	2.47
657.007	2.42
657.192	2.4
657.378	2.4
657.563	2.35
657.748	2.39
657.933	2.4
658.118	2.27
658.304	2.37
658.489	2.42
658.674	2.37
658.859	2.3
659.044	2.3
659.229	2.37
659.414	2.27
659.599	2.3
659.785	2.26
659.97	2.24
660.155	2.29
660.34	2.34
660.525	2.2
660.71	2.24
660.895	2.25
661.08	2.2
661.264	2.15
661.449	2.29
661.634	2.18
661.819	2.2
662.004	2.15
662.189	2.11
662.374	2.14
662.559	2.07
662.743	2.07
662.928	2.08
663.113	2.06
663.298	1.99
663.483	2.02
663.667	2.03
663.852	2
664.037	2.07
664.221	2.01
664.406	2.04
664.591	2.03
664.775	2.03
664.96	2.02
665.145	1.91
665.329	1.97
665.514	1.95
665.698	1.89
665.883	1.92
666.068	1.96
666.252	1.96
666.437	1.86
666.621	1.83
666.806	1.9
666.99	1.82
667.174	1.83
667.359	1.84
667.543	1.83
667.728	1.83
667.912	1.76
668.096	1.79
668.281	1.76
668.465	1.74
668.649	1.74
668.834	1.72
669.018	1.76
669.202	1.78
669.387	1.69
669.571	1.77
669.755	1.68
669.939	1.68
670.124	1.64
670.308	1.74
670.492	1.69
670.676	1.69
670.86	1.65
671.044	1.66
671.228	1.72
671.413	1.6
671.597	1.57
671.781	1.61
671.965	1.67
672.149	1.61
672.333	1.61
672.517	1.6
672.701	1.57
672.885	1.56
673.069	1.46
673.253	1.64
673.437	1.55
673.621	1.57
673.804	1.57
673.988	1.57
674.172	1.48
674.356	1.45
674.54	1.47
674.724	1.62
674.908	1.49
675.091	1.54
675.275	1.51
675.459	1.54
675.643	1.55
675.826	1.52
676.01	1.42
676.194	1.5
676.377	1.48
676.561	1.46
676.745	1.47
676.928	1.43
677.112	1.44
677.296	1.43
677.479	1.39
677.663	1.39
677.846	1.46
678.03	1.43
678.213	1.33
678.397	1.4
678.58	1.36
678.764	1.36
678.947	1.3
679.131	1.37
679.314	1.41
679.498	1.36
679.681	1.33
679.865	1.42
680.048	1.34
680.231	1.34
680.415	1.35
680.598	1.33
680.781	1.3
680.965	1.27
681.148	1.33
681.331	1.26
681.514	1.27
681.698	1.25
681.881	1.26
682.064	1.27
682.247	1.23
682.43	1.2
682.614	1.29
682.797	1.32
682.98	1.28
683.163	1.15
683.346	1.28
683.529	1.22
683.712	1.18
683.895	1.2
684.078	1.17
684.261	1.18
684.444	1.21
684.627	1.2
684.81	1.16
684.993	1.21
685.176	1.21
685.359	1.14
685.542	1.14
685.725	1.2
685.908	1.11
686.091	1.17
686.274	1.21
686.457	1.17
686.639	1.13
686.822	1.16
687.005	1.12
687.188	1.16
687.371	1.26
687.553	1.19
687.736	1.17
687.919	1.19
688.102	1.13
688.284	1.08
688.467	1.1
688.65	1.11
688.832	1.03
689.015	1.1
689.197	0.97
689.38	1.2
689.563	1.14
689.745	1.04
689.928	1.04
690.11	1.05
690.293	1.08
690.475	0.98
690.658	1.04
690.84	1.02
691.023	1.06
691.205	0.96
691.388	1.07
691.57	1.06
691.752	1.07
691.935	0.9
692.117	0.99
692.3	1.08
692.482	0.98
692.664	0.93
692.847	0.97
693.029	1
693.211	1.07
693.393	0.96
693.576	0.96
693.758	0.97
693.94	0.96
694.122	0.94
694.304	0.92
694.487	0.92
694.669	0.97
694.851	0.88
695.033	0.97
695.215	0.91
695.397	0.87
695.579	0.91
695.761	0.84
695.943	0.89
696.125	0.98
696.308	0.93
696.49	0.77
696.671	1.03
696.853	0.88
697.035	1.1
697.217	0.92
697.399	0.97
697.581	0.89
697.763	0.86
697.945	0.79
698.127	0.98
698.309	0.93
698.491	0.91
698.672	0.91
698.854	0.92
699.036	0.87
699.218	0.87
699.399	0.87
699.581	0.88
699.763	0.81
699.945	0.82
700.126	0.72
700.308	0.83
700.49	0.79
700.671	0.76
700.853	0.78
701.035	0.79
701.216	0.8
701.398	0.76
701.579	0.82
701.761	0.87
701.943	0.73
702.124	0.74
702.306	0.74
702.487	0.91
702.669	0.79
702.85	0.85
703.031	0.79
703.213	0.91
703.394	0.84
703.576	0.84
703.757	0.96
703.938	0.9
704.12	0.91
704.301	0.79
704.483	0.72
704.664	0.82
704.845	0.9
705.026	0.81
705.208	0.77
705.389	0.78
705.57	0.71
705.751	0.8
705.933	0.73
706.114	0.8
706.295	0.76
706.476	0.65
706.657	0.85
706.838	0.76
707.02	0.78
707.201	0.7
707.382	0.65
707.563	0.82
707.744	0.74
707.925	0.64
708.106	0.63
708.287	0.75
708.468	0.81
708.649	0.75
708.83	0.77
709.011	0.73
709.192	0.75
709.373	0.62
709.554	0.68
709.734	0.76
709.915	0.81
710.096	0.69
710.277	0.61
710.458	0.72
710.639	0.71
710.819	0.61
711	0.68
711.181	0.77
711.362	0.79
711.542	0.73
711.723	0.7
711.904	0.73
712.085	0.67
712.265	0.73
712.446	0.56
712.627	0.62
712.807	0.65
712.988	0.64
713.168	0.57
713.349	0.71
713.53	0.56
713.71	0.69
713.891	0.57
714.071	0.68
714.252	0.61
714.432	0.64
714.613	0.56
714.793	0.69
714.974	0.7
715.154	0.76
715.334	0.78
715.515	0.72
715.695	0.63
715.876	0.65
716.056	0.65
716.236	0.59
716.417	0.66
716.597	0.57
716.777	0.82
716.957	0.6
717.138	0.66
717.318	0.64
717.498	0.49
717.678	0.67
717.859	0.62
718.039	0.52
718.219	0.57
718.399	0.65
718.579	0.57
718.759	0.56
718.939	0.66
719.12	0.68
719.3	0.61
719.48	0.46
719.66	0.47
719.84	0.73
720.02	0.68
720.2	0.54
720.38	0.69
720.56	0.67
720.74	0.52
720.92	0.65
721.1	0.75
721.279	0.59
721.459	0.66
721.639	0.53
721.819	0.66
721.999	0.57
722.179	0.68
722.359	0.52
722.538	0.58
722.718	0.58
722.898	0.61
723.078	0.59
723.257	0.55
723.437	0.61
723.617	0.58
723.797	0.53
723.976	0.64
724.156	0.57
724.336	0.55
724.515	0.82
724.695	0.49
724.874	0.62
725.054	0.7
725.234	0.64
725.413	0.66
725.593	0.6
725.772	0.61
725.952	0.62
726.131	0.51
726.311	0.58
726.49	0.61
726.67	0.56
726.849	0.61
727.028	0.67
727.208	0.58
727.387	0.64
727.567	0.52
727.746	0.63
727.925	0.58
728.105	0.4
728.284	0.51
728.463	0.65
728.643	0.6
728.822	0.5
729.001	0.55
729.18	0.53
729.359	0.61
729.539	0.55
729.718	0.56
729.897	0.6
730.076	0.55
730.255	0.49
730.434	0.61
730.614	0.57
730.793	0.68
730.972	0.57
731.151	0.57
731.33	0.69
731.509	0.68
731.688	0.7
731.867	0.6
732.046	0.43
732.225	0.7
732.404	0.5
732.583	0.49
732.762	0.62
732.941	0.58
733.12	0.56
733.298	0.51
733.477	0.7
733.656	0.53
733.835	0.55
734.014	0.69
734.193	0.52
734.371	0.66
734.55	0.64
734.729	0.52
734.908	0.68
735.086	0.65
735.265	0.71
735.444	0.45
735.623	0.47
735.801	0.48
735.98	0.56
736.159	0.63
736.337	0.66
736.516	0.61
736.694	0.66
736.873	0.59
737.052	0.77
737.23	0.76
737.409	0.56
737.587	0.8
737.766	0.49
737.944	0.47
738.123	0.75
738.301	0.63
738.479	0.65
738.658	0.63
738.836	0.44
739.015	0.61
739.193	0.67
739.371	0.43
739.55	0.54
739.728	0.59
739.906	0.8
740.085	0.67
740.263	0.67
740.441	0.47
740.62	0.87
740.798	0.63
740.976	0.6
741.154	0.51
741.332	0.79
741.511	0.56
741.689	0.49
741.867	0.72
742.045	0.6
742.223	0.52
742.401	0.54
742.579	0.48
742.757	0.65
742.935	0.46
743.114	0.47
743.292	0.47
743.47	0.52
743.648	0.57
743.826	0.54
744.004	0.74
744.181	0.65
744.359	0.47
744.537	0.58
744.715	0.49
744.893	0.55
745.071	0.5
745.249	0.52
745.427	0.53
745.605	0.53
745.782	0.47
745.96	0.57
746.138	0.52
746.316	0.55
746.493	0.51
746.671	0.47
746.849	0.45
747.027	0.54
747.204	0.45
747.382	0.53
747.56	0.33
747.737	0.39
747.915	0.43
748.093	0.55
748.27	0.43
748.448	0.4
748.625	0.29
748.803	0.37
748.98	0.44
749.158	0.51
749.335	0.43
749.513	0.39
749.69	0.37
749.868	0.43
750.045	0.51
750.223	0.4
750.4	0.19
750.578	0.6
750.755	0.45
750.932	0.25
751.11	0.66
751.287	0.29
751.464	0.59
751.642	0.31
751.819	0.58
751.996	0.39
752.173	0.37
752.351	0.23
752.528	0.37
752.705	0.4
752.882	0.43
753.06	0.47
753.237	0.48
753.414	0.59
753.591	0.56
753.768	0.39
753.945	0.36
754.122	0.46
754.299	0.45
754.476	0.3
754.654	0.48
754.831	0.48
755.008	0.41
755.185	0.39
755.362	0.27
755.539	0.42
755.716	0.57
755.892	0.35
756.069	0.4
756.246	0.41
756.423	0.39
756.6	0.52
756.777	0.36
756.954	0.49
757.131	0.41
757.307	0.25
757.484	0.32
757.661	0.32
757.838	0.56
758.015	0.33
758.191	0.54
758.368	0.42
758.545	0.72
758.721	0.46
758.898	0.44
759.075	0.54
759.251	0.52
759.428	0.44
759.605	0.28
759.781	0.29
759.958	0.47
760.134	0.42
760.311	0.42
760.488	0.62
760.664	0.59
760.841	0.38
761.017	0.25
761.194	0.56
761.37	0.51
761.547	0.36
761.723	0.27
761.899	0.5
762.076	0.31
762.252	0.26
762.429	0.28
762.605	0.59
762.781	0.41
762.958	0.55
763.134	0.3
763.31	0.32
763.486	0.53
763.663	0.26
763.839	0.34
764.015	0.15
764.191	0.44
764.368	0.32
764.544	0.32
764.72	0.4
764.896	0.46
765.072	0.36
765.248	0.22
765.425	0.38
765.601	0.39
765.777	0.38
765.953	0.16
766.129	0.37
766.305	0.2
766.481	0.44
766.657	0.43
766.833	0.58
767.009	0.28
767.185	0.31
767.361	0.32
767.537	0.31
767.713	0.49
767.889	0.26
768.065	0.4
768.24	0.41
768.416	0.46
768.592	0.4
768.768	0.39
768.944	0.44
769.12	0.42
769.295	0.27
769.471	0.32
769.647	0.31
769.823	0.54
769.998	0.23
770.174	0.29
770.35	0.75
770.525	0.64
770.701	0.34
770.877	0.32
771.052	0.33
771.228	0.41
771.403	0.4
771.579	0.45
771.755	0.76
771.93	0.27
772.106	0.19
772.281	0.33
772.457	0.41
772.632	0.41
772.808	0.23
772.983	0.42
773.159	0.35
773.334	0.64
773.509	0.31
773.685	0.28
773.86	0.72
774.036	0.46
774.211	0.42
774.386	0.44
774.562	0.43
774.737	0.54
774.912	0.25
775.087	0.47
775.263	0.45
775.438	0.4
775.613	0.34
775.788	0.27
775.964	0.41
776.139	0.83
776.314	0.21
776.489	0.44
776.664	0.41
776.839	0.24
777.014	0.48
777.19	0.37
777.365	0.59
777.54	0.77
777.715	0.37
777.89	0.49
778.065	0.42
778.24	0.35
778.415	0.67
778.59	0.2
778.765	0.43
778.94	0.42
779.115	0.44
779.289	0.27
779.464	0.4
779.639	0.31
779.814	0.08
779.989	0.21
780.164	0.5
780.339	0.43
780.513	0.26
780.688	0.3
780.863	0.29
781.038	0.47
781.212	0.1
781.387	0.29
781.562	0.63
781.737	0.72
781.911	0.5
782.086	0.21
782.261	0.3
782.435	0.76
782.61	0.48
782.784	0.52
782.959	0.67
783.134	0.16
783.308	0.22
783.483	0.3
783.657	0.68
783.832	0.58
784.006	0.13
784.181	0.48
784.355	0.56
784.53	0.45
784.704	0.41
784.878	0.61
785.053	0.47
785.227	0.78
785.402	0.82
785.576	0.25
785.75	0.51
785.925	0.28
786.099	0.47
786.273	0.45
786.448	0.67
786.622	0.61
786.796	0.69
786.97	0.44
787.145	1.04
787.319	0.31
787.493	0.23
787.667	0.18
787.841	0.44
788.015	0.68
788.19	0.27
788.364	0.42
788.538	0.64
788.712	0.73
788.886	0.35
789.06	0.62
789.234	0.59
789.408	0.17
789.582	0.35
789.756	0.69
789.93	0.01
790.104	0.38
790.278	0.39
790.452	0.27
790.626	0.67
790.8	0.27
790.973	0.57
791.147	0.73
791.321	0.61
791.495	0.68
791.669	0.66
791.843	0.45
792.016	0.74
792.19	0.77
792.364	0.25
792.538	0.96
792.711	0.65
792.885	0.39
793.059	0.22
793.233	-0
793.406	0.6
793.58	0.5
793.754	0.52
793.927	0.37
794.101	0.66
794.274	0.76
794.448	0.85
794.622	0.27
794.795	0.77
794.969	0.42
795.142	0.92
795.316	0.38
795.489	0.17
795.663	0.86
795.836	0.32
796.009	0.42
796.183	0.65
796.356	0.66
796.53	0.43
796.703	0.2
796.876	0.98
797.05	0.5
797.223	0.38
797.396	0.43
797.57	0.22
797.743	0.79
797.916	0.51
798.09	0.58
798.263	0.79
798.436	0.75
798.609	0.39
798.782	0.29
798.956	0.68
799.129	0.57
799.302	0.5
799.475	0.37
799.648	0.33
799.821	0.26
799.994	0.46
800.167	0.19
800.34	0.49
800.514	0.55
800.687	0.59
800.86	0.5
801.033	0.37
801.206	0.78
801.379	0.3
801.551	0.79
801.724	0.92
801.897	1.07
802.07	0.54
802.243	0.22
802.416	0.81
802.589	0.36
802.762	0.6
802.935	0.53
803.107	0.94
803.28	1.01
803.453	1.04
803.626	0.41
803.798	0.67
803.971	0.6
804.144	0.46
804.317	0.63
804.489	0.84
804.662	0.51
804.835	0.76
805.007	0.09
805.18	1.1
805.353	0.55
805.525	0.35
805.698	0.41
805.87	0.99
806.043	0.75
806.215	0.44
806.388	0.24
806.56	0.84
806.733	1.02
806.905	0.55
807.078	0.34
807.25	0.78
807.423	0.77
807.595	0.47
807.768	0.5
807.94	1.01
808.112	0.51
808.285	0.32
808.457	0.35
808.629	0.88
808.802	0.9
808.974	0.65
809.146	0.51
809.318	0.14
809.491	0.45
809.663	0.92
809.835	0.49
810.007	0.53
810.18	0.89
810.352	0.04
810.524	0.64
810.696	0.68
810.868	0.81
811.04	0.63
811.212	0.47
811.384	1.18
811.556	0.66
811.728	0.87
811.901	1.15
812.073	0.72
812.245	0.74
812.417	0.96
812.589	-0.09
812.76	0.52
812.932	1.29
813.104	1.3
813.276	0.56
813.448	1.1
813.62	0.84
813.792	0.81
813.964	0.52
814.136	0.74
814.307	0.6
814.479	0.65
814.651	0.47
814.823	1.39
814.995	0.82
815.166	0.65
815.338	0.21
815.51	0.07
815.681	1.55
815.853	1.02
816.025	0.66
816.196	1.39
816.368	0.78
816.54	0.26
816.711	0.35
816.883	0.8
817.054	1.61
817.226	0.06
817.398	1.21
817.569	0.12
817.741	0.93
817.912	0.77
818.084	0.6
818.255	1.45
818.426	0.53
818.598	0.71
818.769	0.85
818.941	0.73
819.112	1.49
819.283	0.76
819.455	0.16
819.626	0.37
819.798	1.43
819.969	0.93
820.14	0.77
820.311	0.63
820.483	0.68
820.654	0.95
820.825	0.63
820.996	0.86
821.168	0.7
821.339	0.66
821.51	0.26
821.681	0.6
821.852	0.97
822.023	0.07
822.195	0.24
822.366	1.06
822.537	1.03
822.708	0.8
822.879	0.16
823.05	1.39
823.221	0.71
823.392	1.56
823.563	0.78
823.734	1.09
823.905	1.18
824.076	0.23
824.247	0.07
824.418	0.54
824.589	1.53
824.759	0.69
824.93	0.59
825.101	0.25
825.272	1.72
825.443	1.98
825.614	1.1
825.784	0.4
825.955	2.01
826.126	1.87
826.297	1.13
826.467	2.17
826.638	1.55
826.809	0.78
826.98	1.19
827.15	0.94
827.321	0.97
827.492	1.88
827.662	0.81
827.833	1.94
828.003	1.77
828.174	0.4
828.345	0.51
828.515	1.57
828.686	0.78
828.856	0.96
829.027	0.95
829.197	0.89
829.368	1
829.538	0.62
829.709	0.57
829.879	1.33
830.049	1.17
830.22	0.77
830.39	0.64
830.56	1.38
830.731	0.55
830.901	0.28
831.072	0.76
831.242	1.08
831.412	1.47
831.582	0.78
831.753	0.47
831.923	1.55
832.093	1.38
832.263	0.96
832.434	0.03
832.604	0.94
832.774	1.86
832.944	0.52
833.114	0.89
833.284	1.46
833.454	0.27
833.624	0.6
833.795	0.11
833.965	2.07
834.135	1.09
834.305	0.08
834.475	0.35
834.645	0.78
834.815	0.94
834.985	0.2
835.155	0.76
835.325	0.86
835.494	1.25
835.664	0.69
835.834	0.83
836.004	1.18
836.174	1.56
836.344	1.52
836.514	0.6
836.684	1.02
836.853	1.11
837.023	0.96
837.193	0.23
837.363	1.14
837.532	1.71
837.702	0.71
837.872	0.52
838.041	1.69
838.211	2.54
838.381	0.54
838.55	1.13
838.72	3.06
838.89	2.49
839.059	1.02
839.229	1.02
839.398	2.6
839.568	1.36
839.738	0.42
839.907	2.04
840.077	1.98
840.246	0.43
840.416	0.74
840.585	0.24
840.755	1.97
840.924	1.43
841.093	0.88
841.263	1.36
841.432	1.49
841.602	1.03
841.771	0.8
841.94	1.06
842.11	2.77
842.279	1.92
842.448	0.01
842.617	1.27
842.787	1.68
842.956	0.32
843.125	0.78
843.294	1.82
843.464	2.11
843.633	1.83
843.802	0.49
843.971	1.94
844.14	1.63
844.309	1.73
844.479	-0.14
844.648	0.54
844.817	1.24
844.986	2
845.155	1.15
845.324	1.45
845.493	1.33
845.662	1.29
845.831	1.26
846	1.72
846.169	1.1
846.338	2.28
846.507	0.58
846.676	1.86
846.844	1.19
847.013	1.88
847.182	1.12
847.351	0.91
847.52	1.21
847.689	1.46
847.858	1.47
848.026	-0.43
848.195	1.17
848.364	1.22
848.533	0.58
848.701	0.85
848.87	0.81
849.039	2.46
849.207	1.83
849.376	2.16
849.545	2.26
849.713	0.98
849.882	0.99
850.051	1.23
850.219	1.94
850.388	2.36
850.556	0.83
850.725	0.95
850.893	2.03
851.062	1.89
851.23	1.57
851.399	0.34
851.567	0.67
851.736	1.45
851.904	0.41
852.073	1
852.241	2.3
852.41	1.8
852.578	2.14
852.746	1.83
852.915	2.32
853.083	0.56
853.251	0.51
853.42	1.1
853.588	1.43
853.756	2.52
853.924	1.48
854.093	1.39
854.261	0.56
854.429	0.18
854.597	1.74
854.765	1.08
854.934	1.33
855.102	2.9
855.27	0.82
855.438	1.41
855.606	2.67
855.774	1.7
855.942	0.75
856.11	1.63
856.278	1.99
856.446	2.4
856.614	1.64
856.782	0.93
856.95	2
857.118	1.91
857.286	1.3
857.454	2.01
857.622	2.74
857.79	2.74
857.958	0.19
858.126	1.67
858.294	-0.37
858.462	1.98
858.629	0.53
858.797	1.49
858.965	1.36
859.133	1.72
859.301	1.04
859.468	2.04
859.636	1.05
859.804	4.42
859.971	2.92
860.139	1.29
860.307	2.49
860.474	1.76
860.642	0.84
860.81	0.8
860.977	1.02
861.145	2.91
861.313	0.01
861.48	1.85
861.648	2.9
861.815	0.76
861.983	0.17
862.15	1.67
862.318	2.84
862.485	2.09
862.653	-0.1
862.82	1.03
862.988	3.11
863.155	3.04
863.322	1.15
863.49	-0.28
863.657	0
863.824	4.25
863.992	3.16
864.159	1.66
864.326	3.29
864.494	2.14
864.661	4.8
864.828	-0.08
864.996	2.33
865.163	3.1
865.33	1.15
865.497	0.47
865.664	1.08
865.832	-0.2
865.999	2.12
866.166	1.51
866.333	1.87
866.5	1.34
866.667	2.03
866.834	2.83
867.001	3.21
867.168	0.14
867.335	1.83
867.502	0.83
867.669	1.22
867.836	4.45
868.003	1.2
868.17	3.63
868.337	0.82
868.504	5.57
868.671	0.05
868.838	0.87
869.005	1.87
869.172	3.88
869.339	3
869.505	3.08
869.672	1.96
869.839	2.91
870.006	1.94
870.173	-0.06
870.339	2.57
870.506	4.42
870.673	1.14
870.84	4.11
871.006	1.11
871.173	2.31
871.34	0.91
871.506	0.44
871.673	3.37
871.839	0.88
872.006	2.93
872.173	2.65
872.339	1.83
872.506	4.71
872.672	2.35
872.839	0.77
873.005	1.2
873.172	5.64
873.338	4.39
873.505	1.34
873.671	4.41
873.838	2.82
874.004	1.02
874.171	1.83
874.337	3.12
874.503	3.35
874.67	2.93
874.836	1.37
875.002	5.1
875.169	2.35
875.335	1.71
875.501	2.41
875.668	4.83
875.834	2.84
876	1.51
876.166	3.1
876.332	2.41
876.499	4.64
876.665	3.67
876.831	1.77
876.997	7.53
877.163	4.81
877.329	1.36
877.495	3.61
877.662	4.36
877.828	3.35
877.994	2.21
878.16	-0.09
878.326	2.35
878.492	3.32
878.658	1
878.824	3.22
878.99	4.78
879.156	0.3
879.322	5.1
879.487	1.91
879.653	3.11
879.819	2.44
879.985	1.68
880.151	1.5
880.317	3.87
880.483	2.9
880.648	3.51
880.814	0.71
880.98	1.71
881.146	-0.26
881.312	-0.15
881.477	2.43
881.643	2.73
881.809	3.86
881.974	3.05
882.14	1.04
882.306	3.45
882.471	5.65
882.637	-0.22
882.803	2.4
882.968	4.6
883.134	7.05
883.299	1.72
883.465	1.12
883.63	4.07
883.796	1.49
883.961	3.43
884.127	1.32
884.292	-1.11
884.458	-1.34
884.623	-1.34
