Data from Apollo_Calib_20240827__AbsoluteIrradiance__769__11-58-03-009.txt Node

Date: Wed Aug 28 11:58:03 BST 2024
User: biology
Spectrometer: FLMT08252
Trigger mode: 0
Integration Time (sec): 5.000000E-1
Scans to average: 5
Electric dark correction enabled: true
Nonlinearity correction enabled: false
Boxcar width: 0
XAxis mode: Wavelengths
Number of Pixels in Spectrum: 3648
>>>>>Begin Spectral Data<<<<<
179.588	-0
179.809	-0
180.03	-0
180.251	-0
180.473	-0
180.694	0
180.915	0
181.136	-0
181.357	-0
181.578	-0
181.799	0
182.02	-0
182.241	-0
182.462	-0
182.683	0
182.904	-0
183.125	0
183.346	0
183.567	0
183.788	0
184.009	0
184.23	0
184.451	0
184.672	0
184.892	0
185.113	0
185.334	0
185.555	0
185.776	0
185.996	0
186.217	0
186.438	0
186.659	0
186.879	0
187.1	0
187.321	0
187.541	0
187.762	0
187.983	0
188.203	0
188.424	0
188.644	0
188.865	0
189.086	0
189.306	0
189.527	0
189.747	0
189.968	0
190.188	0
190.409	0
190.629	0
190.849	0
191.07	0
191.29	0
191.511	0
191.731	0
191.951	0
192.172	0
192.392	0
192.612	0
192.833	0
193.053	0
193.273	0
193.493	0
193.714	0
193.934	0
194.154	0
194.374	0
194.594	0
194.815	0
195.035	0
195.255	0
195.475	0
195.695	0
195.915	0
196.135	0
196.355	0
196.575	0
196.795	0
197.015	0
197.235	0
197.455	0
197.675	0
197.895	0
198.115	0
198.335	0
198.555	0
198.775	0
198.995	0
199.214	0
199.434	0
199.654	0
199.874	0
200.094	3.8
200.313	2.18
200.533	1.79
200.753	2
200.973	3.2
201.192	2.95
201.412	1.07
201.632	2.04
201.851	3.11
202.071	2.38
202.291	1.69
202.51	1.42
202.73	2.76
202.95	1.76
203.169	1.49
203.389	1.76
203.608	2.2
203.828	1.51
204.047	1.81
204.267	2.51
204.486	2.01
204.706	2.56
204.925	1.69
205.145	1.59
205.364	1.99
205.583	2.62
205.803	1.33
206.022	1.05
206.242	1.4
206.461	1.35
206.68	1.15
206.9	1.68
207.119	2.14
207.338	2.17
207.557	1.19
207.777	1.31
207.996	1.34
208.215	2.18
208.434	1.18
208.654	1.04
208.873	1.64
209.092	1.93
209.311	1.06
209.53	1.31
209.749	1.32
209.968	0.99
210.187	1.12
210.407	0.8
210.626	1.26
210.845	1.86
211.064	1.17
211.283	0.87
211.502	1.65
211.721	1.36
211.94	0.85
212.159	1.23
212.377	1.39
212.596	1.52
212.815	1.23
213.034	1.13
213.253	1.45
213.472	1.44
213.691	0.94
213.91	0.75
214.128	0.65
214.347	1.62
214.566	0.57
214.785	0.57
215.003	1.19
215.222	1.32
215.441	0.9
215.66	0.58
215.878	0.96
216.097	1.14
216.316	0.66
216.534	0.87
216.753	0.94
216.972	0.82
217.19	0.89
217.409	0.83
217.627	0.78
217.846	0.85
218.064	0.7
218.283	0.66
218.501	1.27
218.72	1.22
218.938	0.79
219.157	0.63
219.375	0.86
219.594	0.98
219.812	0.55
220.031	0.51
220.249	1.21
220.467	1.23
220.686	0.73
220.904	0.46
221.122	0.76
221.341	1.13
221.559	0.89
221.777	0.58
221.995	0.72
222.214	0.96
222.432	0.6
222.65	0.9
222.868	0.77
223.086	0.8
223.305	0.89
223.523	0.69
223.741	0.91
223.959	0.61
224.177	0.43
224.395	0.49
224.613	0.69
224.831	0.95
225.049	0.46
225.267	0.54
225.485	0.65
225.703	0.6
225.921	0.6
226.139	0.47
226.357	0.86
226.575	0.79
226.793	0.59
227.011	1.46
227.229	0.68
227.447	0.87
227.665	0.62
227.883	0.29
228.1	0.58
228.318	0.65
228.536	0.28
228.754	0.42
228.972	0.68
229.189	0.63
229.407	0.61
229.625	0.55
229.843	0.84
230.06	0.65
230.278	0.5
230.496	0.56
230.713	0.72
230.931	0.76
231.149	0.58
231.366	0.42
231.584	0.52
231.801	0.93
232.019	0.58
232.236	0.42
232.454	0.38
232.671	0.78
232.889	0.36
233.106	0.38
233.324	0.67
233.541	0.59
233.759	0.57
233.976	0.44
234.194	0.49
234.411	0.47
234.628	0.38
234.846	0.41
235.063	0.5
235.28	0.61
235.498	0.37
235.715	0.29
235.932	0.71
236.149	0.52
236.367	0.4
236.584	0.58
236.801	0.44
237.018	0.52
237.236	0.55
237.453	0.32
237.67	0.69
237.887	0.47
238.104	0.45
238.321	0.34
238.538	0.42
238.755	0.75
238.973	0.34
239.19	0.4
239.407	0.56
239.624	0.58
239.841	0.4
240.058	0.41
240.275	0.43
240.492	0.52
240.709	0.44
240.925	0.43
241.142	0.54
241.359	0.29
241.576	0.33
241.793	0.4
242.01	0.43
242.227	0.55
242.444	0.57
242.66	0.57
242.877	0.51
243.094	0.38
243.311	0.39
243.527	0.38
243.744	0.49
243.961	0.48
244.178	0.38
244.394	0.37
244.611	0.56
244.828	0.7
245.044	0.36
245.261	0.45
245.477	0.48
245.694	0.55
245.911	0.32
246.127	0.55
246.344	0.54
246.56	0.47
246.777	0.41
246.993	0.42
247.21	0.41
247.426	0.6
247.643	0.35
247.859	0.33
248.076	0.31
248.292	0.66
248.508	0.34
248.725	0.39
248.941	0.47
249.157	0.59
249.374	0.29
249.59	0.31
249.806	0.39
250.023	0.52
250.239	0.35
250.455	0.35
250.671	0.43
250.888	0.45
251.104	0.56
251.32	0.34
251.536	0.36
251.752	0.34
251.969	0.49
252.185	0.39
252.401	0.63
252.617	0.46
252.833	0.41
253.049	0.42
253.265	0.33
253.481	0.48
253.697	0.35
253.913	0.35
254.129	0.47
254.345	0.4
254.561	0.32
254.777	0.42
254.993	0.46
255.209	0.4
255.425	0.34
255.641	0.23
255.857	0.45
256.073	0.44
256.288	0.21
256.504	0.35
256.72	0.42
256.936	0.55
257.152	0.34
257.367	0.38
257.583	0.36
257.799	0.52
258.015	0.31
258.23	0.32
258.446	0.51
258.662	0.4
258.877	0.33
259.093	0.28
259.309	0.43
259.524	0.42
259.74	0.32
259.955	0.25
260.171	0.36
260.387	0.44
260.602	0.5
260.818	0.4
261.033	0.3
261.249	0.39
261.464	0.32
261.68	0.3
261.895	0.42
262.11	0.41
262.326	0.31
262.541	0.24
262.757	0.48
262.972	0.41
263.187	0.44
263.403	0.37
263.618	0.45
263.833	0.39
264.049	0.28
264.264	0.29
264.479	0.4
264.694	0.52
264.91	0.27
265.125	0.34
265.34	0.41
265.555	0.61
265.77	0.36
265.986	0.33
266.201	0.44
266.416	0.49
266.631	0.34
266.846	0.33
267.061	0.44
267.276	0.41
267.491	0.26
267.706	0.34
267.921	0.4
268.136	0.36
268.351	0.3
268.566	0.21
268.781	0.44
268.996	0.4
269.211	0.36
269.426	0.25
269.641	0.35
269.856	0.37
270.071	0.27
270.285	0.22
270.5	0.39
270.715	0.41
270.93	0.29
271.145	0.38
271.359	0.4
271.574	0.26
271.789	0.33
272.004	0.25
272.218	0.3
272.433	0.45
272.648	0.24
272.862	0.37
273.077	0.36
273.292	0.35
273.506	0.26
273.721	0.25
273.936	0.36
274.15	0.42
274.365	0.28
274.579	0.35
274.794	0.39
275.008	0.38
275.223	0.24
275.437	0.31
275.652	0.47
275.866	0.35
276.081	0.31
276.295	0.38
276.509	0.37
276.724	0.35
276.938	0.37
277.153	0.32
277.367	0.33
277.581	0.3
277.796	0.28
278.01	0.18
278.224	0.37
278.438	0.5
278.653	0.26
278.867	0.26
279.081	0.21
279.295	0.31
279.51	0.31
279.724	0.22
279.938	0.37
280.152	0.4
280.366	0.23
280.58	0.31
280.794	0.43
281.008	0.34
281.222	0.36
281.437	0.42
281.651	0.33
281.865	0.39
282.079	0.28
282.293	0.14
282.507	0.25
282.721	0.33
282.935	0.28
283.148	0.24
283.362	0.28
283.576	0.28
283.79	0.31
284.004	0.25
284.218	0.37
284.432	0.24
284.646	0.33
284.859	0.22
285.073	0.27
285.287	0.3
285.501	0.32
285.714	0.28
285.928	0.3
286.142	0.31
286.356	0.24
286.569	0.25
286.783	0.43
286.997	0.36
287.21	0.24
287.424	0.31
287.637	0.28
287.851	0.21
288.065	0.39
288.278	0.28
288.492	0.27
288.705	0.22
288.919	0.25
289.132	0.19
289.346	0.33
289.559	0.17
289.773	0.22
289.986	0.25
290.2	0.25
290.413	0.37
290.626	0.2
290.84	0.24
291.053	0.32
291.267	0.39
291.48	0.22
291.693	0.21
291.906	0.26
292.12	0.26
292.333	0.26
292.546	0.25
292.76	0.38
292.973	0.29
293.186	0.28
293.399	0.21
293.612	0.32
293.826	0.24
294.039	0.27
294.252	0.27
294.465	0.34
294.678	0.29
294.891	0.24
295.104	0.21
295.317	0.24
295.53	0.26
295.743	0.27
295.956	0.29
296.169	0.34
296.382	0.34
296.595	0.22
296.808	0.19
297.021	0.32
297.234	0.37
297.447	0.27
297.66	0.33
297.873	0.35
298.086	0.31
298.299	0.21
298.511	0.18
298.724	0.25
298.937	0.21
299.15	0.19
299.363	0.24
299.575	0.3
299.788	0.3
300.001	0.23
300.213	0.21
300.426	0.26
300.639	0.22
300.852	0.19
301.064	0.29
301.277	0.37
301.489	0.27
301.702	0.27
301.915	0.25
302.127	0.28
302.34	0.25
302.552	0.28
302.765	0.22
302.977	0.31
303.19	0.23
303.402	0.25
303.615	0.27
303.827	0.22
304.04	0.28
304.252	0.28
304.464	0.23
304.677	0.37
304.889	0.28
305.102	0.28
305.314	0.21
305.526	0.3
305.739	0.27
305.951	0.21
306.163	0.21
306.375	0.35
306.588	0.27
306.8	0.22
307.012	0.19
307.224	0.26
307.436	0.31
307.649	0.17
307.861	0.25
308.073	0.28
308.285	0.26
308.497	0.19
308.709	0.2
308.921	0.27
309.133	0.32
309.346	0.25
309.558	0.21
309.77	0.28
309.982	0.34
310.194	0.32
310.406	0.21
310.617	0.35
310.829	0.28
311.041	0.29
311.253	0.16
311.465	0.25
311.677	0.28
311.889	0.25
312.101	0.2
312.313	0.29
312.524	0.33
312.736	0.18
312.948	0.22
313.16	0.36
313.372	0.32
313.583	0.28
313.795	0.22
314.007	0.24
314.218	0.28
314.43	0.23
314.642	0.19
314.853	0.17
315.065	0.31
315.277	0.27
315.488	0.28
315.7	0.3
315.912	0.25
316.123	0.26
316.335	0.24
316.546	0.33
316.758	0.24
316.969	0.24
317.181	0.26
317.392	0.26
317.604	0.33
317.815	0.16
318.026	0.22
318.238	0.24
318.449	0.33
318.661	0.17
318.872	0.19
319.083	0.2
319.295	0.29
319.506	0.22
319.717	0.25
319.929	0.23
320.14	0.26
320.351	0.24
320.562	0.25
320.774	0.29
320.985	0.29
321.196	0.22
321.407	0.16
321.618	0.26
321.829	0.24
322.041	0.3
322.252	0.24
322.463	0.29
322.674	0.3
322.885	0.18
323.096	0.23
323.307	0.25
323.518	0.29
323.729	0.19
323.94	0.24
324.151	0.23
324.362	0.23
324.573	0.31
324.784	0.24
324.995	0.27
325.206	0.29
325.417	0.24
325.628	0.19
325.838	0.27
326.049	0.27
326.26	0.26
326.471	0.18
326.682	0.29
326.892	0.29
327.103	0.15
327.314	0.18
327.525	0.36
327.735	0.3
327.946	0.24
328.157	0.18
328.368	0.33
328.578	0.23
328.789	0.32
328.999	0.29
329.21	0.22
329.421	0.3
329.631	0.24
329.842	0.27
330.052	0.29
330.263	0.32
330.473	0.31
330.684	0.23
330.894	0.24
331.105	0.26
331.315	0.26
331.526	0.18
331.736	0.34
331.947	0.28
332.157	0.28
332.367	0.19
332.578	0.26
332.788	0.37
332.999	0.28
333.209	0.25
333.419	0.18
333.629	0.3
333.84	0.22
334.05	0.24
334.26	0.3
334.47	0.24
334.681	0.29
334.891	0.17
335.101	0.27
335.311	0.35
335.521	0.25
335.732	0.21
335.942	0.34
336.152	0.28
336.362	0.25
336.572	0.24
336.782	0.3
336.992	0.23
337.202	0.28
337.412	0.23
337.622	0.3
337.832	0.27
338.042	0.26
338.252	0.19
338.462	0.21
338.672	0.25
338.882	0.19
339.092	0.3
339.302	0.32
339.511	0.28
339.721	0.22
339.931	0.17
340.141	0.27
340.351	0.33
340.561	0.24
340.77	0.27
340.98	0.25
341.19	0.29
341.4	0.23
341.609	0.2
341.819	0.25
342.029	0.18
342.238	0.26
342.448	0.21
342.658	0.27
342.867	0.21
343.077	0.24
343.286	0.2
343.496	0.26
343.706	0.32
343.915	0.18
344.125	0.21
344.334	0.29
344.544	0.23
344.753	0.25
344.963	0.17
345.172	0.21
345.381	0.21
345.591	0.16
345.8	0.24
346.01	0.31
346.219	0.33
346.428	0.07
346.638	0.22
346.847	0.23
347.056	0.31
347.266	0.23
347.475	0.2
347.684	0.29
347.893	0.29
348.103	0.29
348.312	0.24
348.521	0.23
348.73	0.28
348.94	0.24
349.149	0.24
349.358	0.22
349.567	0.22
349.776	0.2
349.985	0.22
350.194	0.3
350.403	0.29
350.612	0.17
350.821	0.2
351.03	0.25
351.239	0.2
351.448	0.23
351.657	0.2
351.866	0.33
352.075	0.3
352.284	0.21
352.493	0.22
352.702	0.35
352.911	0.25
353.12	0.25
353.329	0.23
353.538	0.28
353.746	0.25
353.955	0.19
354.164	0.29
354.373	0.23
354.582	0.24
354.79	0.25
354.999	0.26
355.208	0.28
355.416	0.28
355.625	0.22
355.834	0.2
356.042	0.28
356.251	0.26
356.46	0.2
356.668	0.23
356.877	0.35
357.085	0.31
357.294	0.19
357.503	0.24
357.711	0.26
357.92	0.43
358.128	0.28
358.337	0.23
358.545	0.3
358.754	0.21
358.962	0.26
359.17	0.24
359.379	0.23
359.587	0.27
359.796	0.23
360.004	0.29
360.212	0.3
360.421	0.31
360.629	0.24
360.837	0.23
361.046	0.3
361.254	0.35
361.462	0.26
361.67	0.2
361.879	0.24
362.087	0.36
362.295	0.26
362.503	0.19
362.711	0.23
362.92	0.27
363.128	0.22
363.336	0.2
363.544	0.23
363.752	0.25
363.96	0.22
364.168	0.2
364.376	0.24
364.584	0.26
364.792	0.29
365	0.29
365.208	0.28
365.416	0.32
365.624	0.33
365.832	0.23
366.04	0.31
366.248	0.29
366.456	0.19
366.664	0.27
366.872	0.22
367.079	0.25
367.287	0.23
367.495	0.25
367.703	0.25
367.911	0.22
368.118	0.2
368.326	0.19
368.534	0.22
368.742	0.27
368.949	0.18
369.157	0.22
369.365	0.28
369.572	0.2
369.78	0.2
369.988	0.32
370.195	0.29
370.403	0.35
370.61	0.23
370.818	0.22
371.026	0.35
371.233	0.25
371.441	0.24
371.648	0.22
371.856	0.28
372.063	0.26
372.271	0.21
372.478	0.22
372.685	0.21
372.893	0.3
373.1	0.26
373.308	0.24
373.515	0.35
373.722	0.32
373.93	0.28
374.137	0.3
374.344	0.32
374.552	0.3
374.759	0.3
374.966	0.26
375.173	0.19
375.381	0.31
375.588	0.24
375.795	0.17
376.002	0.25
376.209	0.24
376.417	0.25
376.624	0.26
376.831	0.29
377.038	0.23
377.245	0.18
377.452	0.23
377.659	0.28
377.866	0.24
378.073	0.26
378.28	0.26
378.487	0.31
378.694	0.27
378.901	0.27
379.108	0.24
379.315	0.29
379.522	0.37
379.729	0.31
379.936	0.26
380.143	0.26
380.35	0.31
380.557	0.26
380.763	0.25
380.97	0.28
381.177	0.29
381.384	0.29
381.591	0.24
381.797	0.29
382.004	0.31
382.211	0.28
382.418	0.22
382.624	0.33
382.831	0.34
383.038	0.24
383.244	0.29
383.451	0.3
383.658	0.29
383.864	0.25
384.071	0.25
384.277	0.38
384.484	0.28
384.69	0.33
384.897	0.25
385.103	0.27
385.31	0.23
385.516	0.22
385.723	0.2
385.929	0.24
386.136	0.23
386.342	0.31
386.549	0.27
386.755	0.34
386.961	0.33
387.168	0.24
387.374	0.29
387.58	0.28
387.787	0.29
387.993	0.28
388.199	0.28
388.406	0.27
388.612	0.32
388.818	0.27
389.024	0.25
389.231	0.33
389.437	0.39
389.643	0.32
389.849	0.27
390.055	0.3
390.261	0.3
390.467	0.26
390.674	0.24
390.88	0.25
391.086	0.3
391.292	0.21
391.498	0.3
391.704	0.28
391.91	0.21
392.116	0.28
392.322	0.2
392.528	0.34
392.734	0.3
392.94	0.25
393.146	0.29
393.352	0.32
393.557	0.28
393.763	0.32
393.969	0.37
394.175	0.29
394.381	0.29
394.587	0.2
394.792	0.31
394.998	0.34
395.204	0.33
395.41	0.27
395.615	0.34
395.821	0.34
396.027	0.35
396.233	0.27
396.438	0.31
396.644	0.37
396.85	0.37
397.055	0.32
397.261	0.33
397.466	0.36
397.672	0.38
397.878	0.34
398.083	0.37
398.289	0.31
398.494	0.42
398.7	0.37
398.905	0.23
399.111	0.43
399.316	0.29
399.522	0.32
399.727	0.34
399.932	0.32
400.138	0.27
400.343	0.34
400.549	0.35
400.754	0.36
400.959	0.38
401.165	0.33
401.37	0.34
401.575	0.49
401.78	0.4
401.986	0.32
402.191	0.29
402.396	0.4
402.601	0.41
402.807	0.41
403.012	0.42
403.217	0.44
403.422	0.41
403.627	0.38
403.832	0.36
404.037	0.44
404.243	0.44
404.448	0.41
404.653	0.41
404.858	0.41
405.063	0.47
405.268	0.36
405.473	0.38
405.678	0.43
405.883	0.63
406.088	0.49
406.293	0.41
406.498	0.44
406.703	0.48
406.907	0.45
407.112	0.42
407.317	0.5
407.522	0.58
407.727	0.53
407.932	0.5
408.136	0.62
408.341	0.54
408.546	0.59
408.751	0.55
408.956	0.61
409.16	0.64
409.365	0.57
409.57	0.57
409.774	0.61
409.979	0.65
410.184	0.66
410.388	0.62
410.593	0.73
410.798	0.7
411.002	0.72
411.207	0.83
411.411	0.81
411.616	0.78
411.82	0.76
412.025	0.85
412.229	0.78
412.434	0.9
412.638	0.89
412.843	0.89
413.047	0.96
413.252	0.92
413.456	0.94
413.66	1.06
413.865	1.02
414.069	1.13
414.273	1.05
414.478	1.05
414.682	1.11
414.886	1.16
415.091	1.17
415.295	1.17
415.499	1.33
415.703	1.28
415.908	1.38
416.112	1.25
416.316	1.5
416.52	1.48
416.724	1.49
416.929	1.57
417.133	1.78
417.337	1.61
417.541	1.73
417.745	1.73
417.949	1.85
418.153	1.93
418.357	1.87
418.561	2.17
418.765	2.03
418.969	2.21
419.173	2.32
419.377	2.32
419.581	2.51
419.785	2.53
419.989	2.52
420.193	2.63
420.397	2.74
420.601	2.91
420.804	2.92
421.008	2.89
421.212	3.15
421.416	3.12
421.62	3.12
421.823	3.17
422.027	3.28
422.231	3.29
422.435	3.32
422.638	3.39
422.842	3.45
423.046	3.51
423.249	3.75
423.453	3.75
423.657	3.95
423.86	3.99
424.064	4.06
424.268	4.19
424.471	4.32
424.675	4.42
424.878	4.47
425.082	4.6
425.285	4.92
425.489	4.81
425.692	4.95
425.896	4.96
426.099	5.14
426.303	5.31
426.506	5.47
426.71	5.69
426.913	5.88
427.116	6
427.32	6.11
427.523	6.09
427.726	6.44
427.93	6.49
428.133	6.8
428.336	6.95
428.54	7.07
428.743	7.35
428.946	7.48
429.149	7.52
429.353	7.55
429.556	7.63
429.759	7.71
429.962	7.81
430.165	8
430.368	7.62
430.571	7.74
430.775	7.77
430.978	7.89
431.181	7.83
431.384	7.95
431.587	8.02
431.79	8.44
431.993	8.36
432.196	8.63
432.399	8.99
432.602	9.17
432.805	9.13
433.008	9.74
433.211	9.62
433.414	9.94
433.616	10.14
433.819	9.94
434.022	10.04
434.225	10.23
434.428	10.35
434.631	10.81
434.833	10.58
435.036	10.82
435.239	10.92
435.442	11.03
435.645	11.2
435.847	11.25
436.05	11.57
436.253	11.9
436.455	11.85
436.658	11.79
436.861	12.08
437.063	12.06
437.266	12.12
437.468	12.55
437.671	12.7
437.874	12.85
438.076	12.59
438.279	13.11
438.481	13.13
438.684	14.04
438.886	13.48
439.089	13.72
439.291	13.8
439.494	14.1
439.696	14.26
439.899	14.8
440.101	15.16
440.303	15.4
440.506	16.06
440.708	15.84
440.91	16.11
441.113	16.3
441.315	16.63
441.517	16.37
441.72	16.84
441.922	16.51
442.124	16.55
442.326	16.65
442.529	16.92
442.731	16.99
442.933	17.3
443.135	17.07
443.337	17.09
443.539	17.65
443.742	17.28
443.944	17.9
444.146	17.71
444.348	17.71
444.55	17.65
444.752	17.83
444.954	17.76
445.156	17.82
445.358	18.23
445.56	18.36
445.762	18.23
445.964	18.55
446.166	18.37
446.368	18.39
446.57	18.39
446.772	17.88
446.974	17.83
447.175	18.09
447.377	17.8
447.579	18.1
447.781	17.99
447.983	17.62
448.184	17.29
448.386	17.59
448.588	17.22
448.79	17.21
448.991	17.47
449.193	17.48
449.395	16.8
449.597	16.42
449.798	16.52
450	15.99
450.202	15.83
450.403	15.9
450.605	15.78
450.806	15.49
451.008	15.39
451.21	15.19
451.411	14.64
451.613	13.88
451.814	14.21
452.016	14.2
452.217	13.61
452.419	13.59
452.62	13.09
452.821	12.93
453.023	12.87
453.224	12.49
453.426	12.11
453.627	11.33
453.828	11.55
454.03	11.47
454.231	11.57
454.432	11.34
454.634	11.11
454.835	10.72
455.036	10.8
455.238	10.22
455.439	10.08
455.64	9.78
455.841	9.77
456.042	9.77
456.244	9.44
456.445	9.23
456.646	8.75
456.847	8.79
457.048	8.74
457.249	8.66
457.45	8.45
457.651	7.98
457.852	7.81
458.054	7.55
458.255	7.48
458.456	7.41
458.657	7.31
458.858	6.89
459.058	6.85
459.259	6.93
459.46	6.61
459.661	6.57
459.862	6.63
460.063	6.55
460.264	6.37
460.465	6.13
460.666	6.28
460.866	5.98
461.067	5.71
461.268	5.74
461.469	5.65
461.67	5.54
461.87	5.4
462.071	5.43
462.272	5.2
462.473	5.22
462.673	5.39
462.874	5.34
463.075	5.24
463.275	5.24
463.476	5.35
463.676	5.23
463.877	5.01
464.078	5.06
464.278	5.06
464.479	4.96
464.679	4.85
464.88	4.87
465.08	4.79
465.281	4.58
465.481	4.44
465.682	4.23
465.882	4.27
466.083	4.17
466.283	4.16
466.483	4.02
466.684	3.85
466.884	3.74
467.085	3.82
467.285	3.88
467.485	3.7
467.686	3.63
467.886	3.54
468.086	3.53
468.286	3.46
468.487	3.6
468.687	3.35
468.887	3.32
469.087	3.47
469.287	3.34
469.488	3.18
469.688	3.28
469.888	3.34
470.088	3.25
470.288	3.14
470.488	3.15
470.688	2.98
470.888	2.92
471.088	2.82
471.288	2.87
471.488	2.87
471.688	2.84
471.888	2.71
472.088	2.98
472.288	2.83
472.488	2.69
472.688	2.69
472.888	2.65
473.088	2.73
473.288	2.62
473.488	2.57
473.688	2.66
473.887	2.57
474.087	2.51
474.287	2.51
474.487	2.42
474.687	2.5
474.886	2.41
475.086	2.39
475.286	2.37
475.486	2.37
475.685	2.3
475.885	2.3
476.085	2.29
476.284	2.3
476.484	2.32
476.684	2.31
476.883	2.35
477.083	2.25
477.282	2.25
477.482	2.25
477.681	2.2
477.881	2.12
478.08	2.16
478.28	2.09
478.479	2.18
478.679	2.2
478.878	2.13
479.078	2.03
479.277	2.16
479.477	2.1
479.676	2.1
479.875	2.04
480.075	2.01
480.274	2.03
480.473	2.06
480.673	2.01
480.872	2.15
481.071	2.11
481.271	2.11
481.47	2
481.669	2
481.868	2
482.067	2.05
482.267	1.99
482.466	2.02
482.665	1.98
482.864	1.98
483.063	2
483.262	2.07
483.461	2.07
483.661	2.11
483.86	2.03
484.059	2.12
484.258	2.09
484.457	1.99
484.656	2.02
484.855	2.11
485.054	1.94
485.253	2.01
485.452	2.01
485.651	2.1
485.849	2.04
486.048	2
486.247	2.02
486.446	2.11
486.645	2.06
486.844	2.1
487.043	2.06
487.241	2.13
487.44	2.15
487.639	2.19
487.838	2.18
488.037	2.13
488.235	2.21
488.434	2.22
488.633	2.1
488.831	2.27
489.03	2.25
489.229	2.23
489.427	2.18
489.626	2.26
489.825	2.31
490.023	2.34
490.222	2.27
490.42	2.34
490.619	2.39
490.817	2.36
491.016	2.4
491.214	2.45
491.413	2.44
491.611	2.36
491.81	2.43
492.008	2.44
492.207	2.56
492.405	2.52
492.604	2.5
492.802	2.58
493	2.65
493.199	2.61
493.397	2.67
493.595	2.71
493.794	2.66
493.992	2.79
494.19	2.76
494.388	2.82
494.587	2.73
494.785	2.78
494.983	2.69
495.181	2.88
495.379	2.92
495.578	2.95
495.776	2.91
495.974	2.95
496.172	2.97
496.37	3.09
496.568	3.13
496.766	3.08
496.964	3.14
497.162	3.19
497.36	3.18
497.558	3.25
497.756	3.37
497.954	3.26
498.152	3.34
498.35	3.44
498.548	3.37
498.746	3.35
498.944	3.4
499.142	3.42
499.34	3.55
499.538	3.61
499.736	3.51
499.933	3.61
500.131	3.64
500.329	3.74
500.527	3.74
500.725	3.83
500.922	3.89
501.12	3.86
501.318	3.92
501.516	3.93
501.713	4.01
501.911	3.98
502.109	3.97
502.306	4.12
502.504	3.98
502.701	4.07
502.899	4.17
503.097	4.35
503.294	4.19
503.492	4.35
503.689	4.34
503.887	4.28
504.084	4.46
504.282	4.45
504.479	4.4
504.677	4.55
504.874	4.5
505.072	4.44
505.269	4.73
505.466	4.68
505.664	4.75
505.861	4.61
506.059	4.72
506.256	4.71
506.453	4.84
506.651	4.96
506.848	4.97
507.045	4.94
507.242	4.95
507.44	4.99
507.637	5.08
507.834	5.03
508.031	5.21
508.229	5.1
508.426	5.07
508.623	5.27
508.82	5.27
509.017	5.29
509.214	5.24
509.411	5.41
509.608	5.34
509.805	5.47
510.003	5.42
510.2	5.49
510.397	5.66
510.594	5.51
510.791	5.58
510.988	5.61
511.184	5.55
511.381	5.5
511.578	5.65
511.775	5.8
511.972	5.71
512.169	5.76
512.366	5.8
512.563	5.92
512.76	5.96
512.956	5.95
513.153	5.91
513.35	5.86
513.547	5.89
513.744	6.04
513.94	6.05
514.137	6.16
514.334	6.07
514.53	6.08
514.727	6.29
514.924	6.23
515.12	6.24
515.317	6.22
515.514	6.19
515.71	6.15
515.907	6.43
516.103	6.36
516.3	6.32
516.497	6.44
516.693	6.47
516.89	6.41
517.086	6.44
517.283	6.51
517.479	6.36
517.676	6.61
517.872	6.64
518.068	6.56
518.265	6.61
518.461	6.48
518.658	6.67
518.854	6.66
519.05	6.76
519.247	6.81
519.443	6.74
519.639	6.86
519.836	6.71
520.032	6.7
520.228	6.83
520.424	6.82
520.621	6.88
520.817	6.96
521.013	6.87
521.209	7.08
521.405	7.04
521.601	7.02
521.798	6.98
521.994	7.01
522.19	6.94
522.386	7
522.582	7.09
522.778	7.22
522.974	7.07
523.17	7.12
523.366	7.14
523.562	7.14
523.758	7.11
523.954	7.02
524.15	7.18
524.346	7.2
524.542	7.26
524.738	7.14
524.934	7.34
525.129	7.31
525.325	7.2
525.521	7.25
525.717	7.46
525.913	7.26
526.109	7.3
526.304	7.43
526.5	7.45
526.696	7.43
526.892	7.37
527.087	7.6
527.283	7.51
527.479	7.48
527.674	7.34
527.87	7.52
528.066	7.43
528.261	7.52
528.457	7.4
528.653	7.6
528.848	7.55
529.044	7.62
529.239	7.54
529.435	7.52
529.63	7.49
529.826	7.58
530.021	7.45
530.217	7.61
530.412	7.58
530.608	7.65
530.803	7.6
530.999	7.45
531.194	7.65
531.389	7.68
531.585	7.63
531.78	7.78
531.975	7.67
532.171	7.73
532.366	7.63
532.561	7.74
532.757	7.65
532.952	7.77
533.147	7.6
533.342	7.74
533.538	7.66
533.733	7.85
533.928	7.61
534.123	7.81
534.318	7.82
534.513	7.66
534.709	7.81
534.904	7.79
535.099	7.88
535.294	7.87
535.489	7.88
535.684	7.76
535.879	7.78
536.074	7.84
536.269	7.83
536.464	7.91
536.659	7.87
536.854	7.89
537.049	7.92
537.244	7.89
537.439	7.85
537.634	7.86
537.828	8.01
538.023	7.9
538.218	7.88
538.413	7.85
538.608	7.88
538.803	7.89
538.997	7.91
539.192	7.89
539.387	7.91
539.582	7.9
539.776	7.81
539.971	7.98
540.166	8.01
540.36	7.87
540.555	8.09
540.75	7.97
540.944	7.97
541.139	7.96
541.334	7.97
541.528	7.99
541.723	8.04
541.917	8.06
542.112	7.98
542.306	7.88
542.501	7.91
542.695	7.95
542.89	7.89
543.084	8
543.279	8
543.473	8.02
543.668	8.06
543.862	7.88
544.056	7.9
544.251	8.06
544.445	8.1
544.64	8.12
544.834	7.77
545.028	7.66
545.222	7.99
545.417	8.14
545.611	8.08
545.805	7.99
546	7.84
546.194	8.06
546.388	8.03
546.582	8.01
546.776	7.99
546.97	8.03
547.165	8.01
547.359	8
547.553	7.95
547.747	8.01
547.941	8.18
548.135	7.99
548.329	8.04
548.523	8.08
548.717	8
548.911	7.97
549.105	8.03
549.299	8.13
549.493	8.15
549.687	7.98
549.881	8.14
550.075	8.09
550.269	7.97
550.463	8.1
550.657	8.09
550.85	8
551.044	8.07
551.238	8.11
551.432	8.07
551.626	8.17
551.82	8.11
552.013	8
552.207	8.08
552.401	8.18
552.594	8.01
552.788	8.06
552.982	8
553.176	7.96
553.369	8.23
553.563	8.13
553.756	8.06
553.95	8.13
554.144	8.09
554.337	8.11
554.531	7.94
554.724	8.13
554.918	8.16
555.111	8.05
555.305	8.11
555.498	8.04
555.692	8.13
555.885	8.16
556.079	8.02
556.272	8.09
556.466	8.11
556.659	8.06
556.852	8.17
557.046	8
557.239	7.92
557.432	8.02
557.626	8.11
557.819	8.15
558.012	8.11
558.206	8.16
558.399	8.16
558.592	8.09
558.785	8.03
558.979	8.02
559.172	8.06
559.365	8.11
559.558	8.04
559.751	8.06
559.944	8.17
560.138	8.05
560.331	8.13
560.524	8.02
560.717	8.03
560.91	8.1
561.103	8.13
561.296	7.96
561.489	8.09
561.682	8.2
561.875	8.08
562.068	8.16
562.261	7.94
562.454	8.27
562.647	8.04
562.84	8.1
563.032	8.16
563.225	7.96
563.418	8.04
563.611	8.17
563.804	8.1
563.997	7.94
564.19	7.89
564.382	8.16
564.575	8.05
564.768	8.02
564.961	8.13
565.153	8.05
565.346	7.96
565.539	8.14
565.731	8.06
565.924	8.13
566.117	8.26
566.309	8.1
566.502	8.07
566.695	8
566.887	8.07
567.08	8.08
567.272	8.09
567.465	8
567.657	8.11
567.85	8.04
568.042	8.07
568.235	8.15
568.427	7.95
568.62	8.06
568.812	7.96
569.005	8.06
569.197	7.99
569.389	8.04
569.582	8.02
569.774	8.04
569.966	7.98
570.159	7.85
570.351	7.92
570.543	8
570.736	7.97
570.928	7.87
571.12	8.02
571.312	7.96
571.505	7.75
571.697	7.96
571.889	7.99
572.081	7.96
572.273	7.88
572.465	7.99
572.658	7.93
572.85	7.97
573.042	7.97
573.234	7.87
573.426	7.94
573.618	7.9
573.81	7.95
574.002	7.97
574.194	7.99
574.386	7.86
574.578	7.79
574.77	7.93
574.962	7.95
575.154	7.74
575.346	7.83
575.538	7.85
575.729	7.85
575.921	7.93
576.113	7.97
576.305	7.91
576.497	7.99
576.689	7.76
576.88	7.72
577.072	7.92
577.264	7.87
577.456	7.79
577.647	7.83
577.839	7.93
578.031	7.81
578.223	7.76
578.414	7.74
578.606	7.83
578.798	7.83
578.989	7.78
579.181	7.84
579.372	7.82
579.564	7.79
579.755	7.75
579.947	7.68
580.139	7.85
580.33	7.57
580.522	7.73
580.713	7.72
580.905	7.7
581.096	7.82
581.287	7.68
581.479	7.66
581.67	7.73
581.862	7.63
582.053	7.72
582.244	7.51
582.436	7.72
582.627	7.6
582.818	7.65
583.01	7.61
583.201	7.73
583.392	7.59
583.583	7.53
583.775	7.43
583.966	7.55
584.157	7.62
584.348	7.7
584.54	7.51
584.731	7.59
584.922	7.52
585.113	7.41
585.304	7.5
585.495	7.51
585.686	7.63
585.877	7.56
586.068	7.58
586.259	7.58
586.45	7.46
586.641	7.48
586.832	7.56
587.023	7.49
587.214	7.35
587.405	7.5
587.596	7.4
587.787	7.36
587.978	7.44
588.169	7.36
588.36	7.26
588.551	7.43
588.742	7.37
588.932	7.49
589.123	7.24
589.314	7.47
589.505	7.3
589.696	7.34
589.886	7.3
590.077	7.38
590.268	7.23
590.458	7.18
590.649	7.1
590.84	7.28
591.03	7.24
591.221	7.25
591.412	7.12
591.602	7.3
591.793	7.16
591.984	7.19
592.174	7.15
592.365	7.37
592.555	7.09
592.746	7.11
592.936	7.12
593.127	7.17
593.317	7.15
593.508	7.13
593.698	6.98
593.889	7.07
594.079	7.07
594.269	6.95
594.46	6.97
594.65	7.03
594.84	6.98
595.031	6.83
595.221	6.96
595.411	7.02
595.602	7
595.792	6.89
595.982	6.81
596.172	7.01
596.363	6.85
596.553	6.9
596.743	6.88
596.933	6.91
597.123	6.82
597.314	6.66
597.504	6.73
597.694	6.93
597.884	6.73
598.074	6.8
598.264	6.74
598.454	6.8
598.644	6.76
598.834	6.75
599.024	6.65
599.214	6.74
599.404	6.71
599.594	6.68
599.784	6.56
599.974	6.74
600.164	6.71
600.354	6.6
600.544	6.5
600.734	6.62
600.924	6.58
601.114	6.45
601.303	6.48
601.493	6.57
601.683	6.55
601.873	6.53
602.063	6.44
602.252	6.49
602.442	6.4
602.632	6.35
602.821	6.36
603.011	6.46
603.201	6.47
603.39	6.36
603.58	6.22
603.77	6.35
603.959	6.38
604.149	6.38
604.339	6.29
604.528	6.38
604.718	6.36
604.907	6.28
605.097	6.15
605.286	6.25
605.476	6.22
605.665	6.23
605.855	6.17
606.044	6.24
606.234	6.23
606.423	6.18
606.612	6.11
606.802	6.08
606.991	6.21
607.181	6.19
607.37	6.07
607.559	5.87
607.749	5.96
607.938	5.94
608.127	6.05
608.316	6.01
608.506	5.92
608.695	5.98
608.884	5.96
609.073	5.99
609.263	6.03
609.452	5.96
609.641	5.82
609.83	5.82
610.019	5.9
610.208	5.86
610.397	5.8
610.586	5.88
610.775	5.81
610.965	5.79
611.154	5.68
611.343	5.8
611.532	5.7
611.721	5.79
611.91	5.66
612.099	5.67
612.287	5.6
612.476	5.52
612.665	5.73
612.854	5.6
613.043	5.65
613.232	5.57
613.421	5.48
613.61	5.52
613.798	5.51
613.987	5.53
614.176	5.47
614.365	5.51
614.554	5.49
614.742	5.4
614.931	5.36
615.12	5.53
615.309	5.4
615.497	5.37
615.686	5.29
615.875	5.38
616.063	5.34
616.252	5.33
616.44	5.3
616.629	5.26
616.818	5.25
617.006	5.15
617.195	5.24
617.383	5.18
617.572	5.09
617.76	5.12
617.949	5.16
618.137	5.24
618.326	5.25
618.514	4.95
618.703	4.98
618.891	5.12
619.079	5.01
619.268	5.14
619.456	4.99
619.644	5.14
619.833	5.05
620.021	5
620.209	4.89
620.398	5.03
620.586	4.91
620.774	4.93
620.962	4.95
621.151	4.92
621.339	4.87
621.527	4.78
621.715	4.82
621.903	4.86
622.092	4.73
622.28	4.93
622.468	4.62
622.656	4.79
622.844	4.78
623.032	4.81
623.22	4.63
623.408	4.86
623.596	4.71
623.784	4.72
623.972	4.61
624.16	4.67
624.348	4.65
624.536	4.7
624.724	4.5
624.912	4.61
625.1	4.6
625.288	4.63
625.476	4.48
625.664	4.63
625.851	4.47
626.039	4.5
626.227	4.44
626.415	4.4
626.603	4.35
626.79	4.44
626.978	4.4
627.166	4.52
627.354	4.35
627.541	4.34
627.729	4.22
627.917	4.46
628.104	4.44
628.292	4.29
628.48	4.32
628.667	4.25
628.855	4.4
629.042	4.32
629.23	4.21
629.418	4.24
629.605	4.24
629.793	4.17
629.98	4.17
630.168	4.08
630.355	4.19
630.543	4.19
630.73	4.1
630.917	4.04
631.105	4.19
631.292	4.06
631.48	4.08
631.667	4.22
631.854	3.98
632.042	3.99
632.229	3.92
632.416	4.01
632.604	3.96
632.791	3.88
632.978	3.96
633.165	3.92
633.353	3.98
633.54	3.93
633.727	3.82
633.914	3.84
634.101	3.8
634.289	3.92
634.476	3.83
634.663	3.78
634.85	3.74
635.037	3.78
635.224	3.67
635.411	3.79
635.598	3.72
635.785	3.72
635.972	3.69
636.159	3.7
636.346	3.64
636.533	3.62
636.72	3.61
636.907	3.6
637.094	3.6
637.281	3.48
637.468	3.55
637.655	3.54
637.842	3.57
638.029	3.48
638.215	3.51
638.402	3.52
638.589	3.47
638.776	3.44
638.963	3.47
639.149	3.47
639.336	3.49
639.523	3.45
639.709	3.4
639.896	3.37
640.083	3.35
640.27	3.4
640.456	3.39
640.643	3.36
640.829	3.23
641.016	3.3
641.203	3.26
641.389	3.32
641.576	3.27
641.762	3.25
641.949	3.22
642.135	3.28
642.322	3.2
642.508	3.14
642.695	3.16
642.881	3.12
643.068	3.13
643.254	3.13
643.441	3.18
643.627	3.2
643.813	3.04
644	3.09
644.186	2.96
644.372	3.11
644.559	3.06
644.745	3
644.931	3
645.118	3.04
645.304	3.03
645.49	2.95
645.676	2.95
645.862	2.94
646.049	2.99
646.235	2.94
646.421	3.09
646.607	3.05
646.793	2.84
646.979	2.83
647.165	2.91
647.352	2.84
647.538	2.88
647.724	2.82
647.91	2.76
648.096	2.85
648.282	2.9
648.468	2.75
648.654	2.83
648.84	2.81
649.026	2.73
649.212	2.68
649.397	2.72
649.583	2.68
649.769	2.71
649.955	2.66
650.141	2.72
650.327	2.67
650.513	2.58
650.698	2.65
650.884	2.53
651.07	2.67
651.256	2.61
651.442	2.58
651.627	2.54
651.813	2.58
651.999	2.54
652.184	2.56
652.37	2.56
652.556	2.53
652.741	2.56
652.927	2.4
653.113	2.5
653.298	2.46
653.484	2.47
653.669	2.44
653.855	2.46
654.04	2.5
654.226	2.47
654.412	2.41
654.597	2.3
654.782	2.4
654.968	2.46
655.153	2.39
655.339	2.32
655.524	2.38
655.71	2.38
655.895	2.36
656.08	2.3
656.266	2.38
656.451	2.32
656.636	2.27
656.822	2.31
657.007	2.3
657.192	2.27
657.378	2.22
657.563	2.23
657.748	2.25
657.933	2.24
658.118	2.18
658.304	2.2
658.489	2.26
658.674	2.23
658.859	2.18
659.044	2.17
659.229	2.19
659.414	2.18
659.599	2.14
659.785	2.1
659.97	2.12
660.155	2.17
660.34	2.19
660.525	2.09
660.71	2.02
660.895	2.15
661.08	2.02
661.264	1.96
661.449	2.12
661.634	2.06
661.819	2.1
662.004	2.01
662.189	1.95
662.374	1.97
662.559	2.02
662.743	1.92
662.928	1.96
663.113	1.94
663.298	1.93
663.483	1.93
663.667	1.97
663.852	1.89
664.037	1.98
664.221	1.89
664.406	1.99
664.591	1.97
664.775	1.92
664.96	1.87
665.145	1.9
665.329	1.88
665.514	1.85
665.698	1.82
665.883	1.77
666.068	1.91
666.252	1.87
666.437	1.8
666.621	1.81
666.806	1.83
666.99	1.76
667.174	1.75
667.359	1.82
667.543	1.72
667.728	1.67
667.912	1.66
668.096	1.74
668.281	1.72
668.465	1.7
668.649	1.72
668.834	1.68
669.018	1.71
669.202	1.68
669.387	1.62
669.571	1.72
669.755	1.63
669.939	1.66
670.124	1.65
670.308	1.72
670.492	1.71
670.676	1.65
670.86	1.63
671.044	1.57
671.228	1.7
671.413	1.54
671.597	1.57
671.781	1.56
671.965	1.61
672.149	1.59
672.333	1.59
672.517	1.51
672.701	1.61
672.885	1.56
673.069	1.5
673.253	1.6
673.437	1.54
673.621	1.52
673.804	1.51
673.988	1.52
674.172	1.47
674.356	1.43
674.54	1.5
674.724	1.58
674.908	1.41
675.091	1.48
675.275	1.51
675.459	1.5
675.643	1.45
675.826	1.48
676.01	1.43
676.194	1.46
676.377	1.44
676.561	1.51
676.745	1.46
676.928	1.46
677.112	1.45
677.296	1.38
677.479	1.35
677.663	1.37
677.846	1.43
678.03	1.42
678.213	1.28
678.397	1.38
678.58	1.4
678.764	1.35
678.947	1.29
679.131	1.34
679.314	1.37
679.498	1.35
679.681	1.31
679.865	1.43
680.048	1.32
680.231	1.35
680.415	1.27
680.598	1.27
680.781	1.32
680.965	1.24
681.148	1.28
681.331	1.26
681.514	1.32
681.698	1.25
681.881	1.24
682.064	1.27
682.247	1.3
682.43	1.16
682.614	1.23
682.797	1.27
682.98	1.3
683.163	1.14
683.346	1.24
683.529	1.17
683.712	1.15
683.895	1.21
684.078	1.17
684.261	1.22
684.444	1.25
684.627	1.21
684.81	1.08
684.993	1.12
685.176	1.23
685.359	1.1
685.542	1.14
685.725	1.22
685.908	1.14
686.091	1.12
686.274	1.17
686.457	1.2
686.639	1.14
686.822	1.12
687.005	1.15
687.188	1.2
687.371	1.26
687.553	1.23
687.736	1.14
687.919	1.21
688.102	1.1
688.284	1.05
688.467	1.05
688.65	1.13
688.832	1.02
689.015	1.03
689.197	1
689.38	1.2
689.563	1.13
689.745	0.94
689.928	1
690.11	1.03
690.293	1.07
690.475	0.9
690.658	1.03
690.84	1.02
691.023	1.01
691.205	1.01
691.388	0.99
691.57	1.05
691.752	1.03
691.935	0.84
692.117	0.92
692.3	0.99
692.482	1.01
692.664	0.94
692.847	1
693.029	1.01
693.211	1.02
693.393	0.99
693.576	0.97
693.758	0.96
693.94	0.96
694.122	0.94
694.304	0.94
694.487	0.96
694.669	1.03
694.851	0.89
695.033	0.87
695.215	0.88
695.397	0.88
695.579	0.95
695.761	0.77
695.943	0.77
696.125	0.97
696.308	0.91
696.49	0.74
696.671	1.04
696.853	0.86
697.035	1.06
697.217	0.85
697.399	0.93
697.581	0.87
697.763	0.87
697.945	0.83
698.127	0.84
698.309	0.94
698.491	0.84
698.672	0.83
698.854	0.92
699.036	0.93
699.218	0.76
699.399	0.85
699.581	0.91
699.763	0.86
699.945	0.76
700.126	0.75
700.308	0.85
700.49	0.78
700.671	0.74
700.853	0.8
701.035	0.79
701.216	0.81
701.398	0.72
701.579	0.76
701.761	0.81
701.943	0.79
702.124	0.78
702.306	0.78
702.487	0.92
702.669	0.77
702.85	0.68
703.031	0.71
703.213	0.84
703.394	0.84
703.576	0.72
703.757	0.9
703.938	0.8
704.12	0.99
704.301	0.72
704.483	0.66
704.664	0.78
704.845	0.85
705.026	0.82
705.208	0.69
705.389	0.77
705.57	0.84
705.751	0.74
705.933	0.75
706.114	0.85
706.295	0.75
706.476	0.67
706.657	0.84
706.838	0.8
707.02	0.75
707.201	0.69
707.382	0.66
707.563	0.8
707.744	0.68
707.925	0.69
708.106	0.63
708.287	0.68
708.468	0.78
708.649	0.75
708.83	0.74
709.011	0.72
709.192	0.73
709.373	0.56
709.554	0.65
709.734	0.8
709.915	0.73
710.096	0.64
710.277	0.55
710.458	0.69
710.639	0.75
710.819	0.57
711	0.57
711.181	0.63
711.362	0.71
711.542	0.65
711.723	0.59
711.904	0.7
712.085	0.62
712.265	0.72
712.446	0.58
712.627	0.62
712.807	0.6
712.988	0.66
713.168	0.51
713.349	0.73
713.53	0.55
713.71	0.62
713.891	0.55
714.071	0.56
714.252	0.62
714.432	0.59
714.613	0.51
714.793	0.58
714.974	0.74
715.154	0.62
715.334	0.66
715.515	0.77
715.695	0.62
715.876	0.59
716.056	0.56
716.236	0.54
716.417	0.66
716.597	0.49
716.777	0.83
716.957	0.55
717.138	0.6
717.318	0.51
717.498	0.51
717.678	0.57
717.859	0.62
718.039	0.53
718.219	0.57
718.399	0.58
718.579	0.53
718.759	0.47
718.939	0.65
719.12	0.52
719.3	0.58
719.48	0.48
719.66	0.49
719.84	0.6
720.02	0.53
720.2	0.43
720.38	0.57
720.56	0.67
720.74	0.41
720.92	0.6
721.1	0.64
721.279	0.66
721.459	0.54
721.639	0.43
721.819	0.6
721.999	0.44
722.179	0.68
722.359	0.34
722.538	0.44
722.718	0.52
722.898	0.54
723.078	0.52
723.257	0.5
723.437	0.54
723.617	0.59
723.797	0.53
723.976	0.55
724.156	0.5
724.336	0.64
724.515	0.74
724.695	0.42
724.874	0.5
725.054	0.59
725.234	0.45
725.413	0.51
725.593	0.45
725.772	0.49
725.952	0.46
726.131	0.46
726.311	0.51
726.49	0.48
726.67	0.46
726.849	0.51
727.028	0.53
727.208	0.5
727.387	0.52
727.567	0.42
727.746	0.45
727.925	0.5
728.105	0.39
728.284	0.5
728.463	0.42
728.643	0.51
728.822	0.38
729.001	0.48
729.18	0.49
729.359	0.61
729.539	0.48
729.718	0.51
729.897	0.54
730.076	0.41
730.255	0.39
730.434	0.49
730.614	0.54
730.793	0.67
730.972	0.47
731.151	0.51
731.33	0.54
731.509	0.58
731.688	0.47
731.867	0.5
732.046	0.38
732.225	0.67
732.404	0.25
732.583	0.32
732.762	0.48
732.941	0.58
733.12	0.47
733.298	0.49
733.477	0.48
733.656	0.52
733.835	0.46
734.014	0.57
734.193	0.53
734.371	0.53
734.55	0.51
734.729	0.31
734.908	0.54
735.086	0.48
735.265	0.61
735.444	0.24
735.623	0.36
735.801	0.33
735.98	0.51
736.159	0.52
736.337	0.55
736.516	0.51
736.694	0.44
736.873	0.41
737.052	0.65
737.23	0.67
737.409	0.35
737.587	0.8
737.766	0.33
737.944	0.47
738.123	0.66
738.301	0.51
738.479	0.51
738.658	0.58
738.836	0.26
739.015	0.44
739.193	0.78
739.371	0.42
739.55	0.39
739.728	0.33
739.906	0.63
740.085	0.69
740.263	0.55
740.441	0.26
740.62	0.77
740.798	0.54
740.976	0.4
741.154	0.28
741.332	0.57
741.511	0.46
741.689	0.45
741.867	0.48
742.045	0.53
742.223	0.49
742.401	0.27
742.579	0.51
742.757	0.48
742.935	0.33
743.114	0.47
743.292	0.41
743.47	0.4
743.648	0.47
743.826	0.37
744.004	0.51
744.181	0.51
744.359	0.42
744.537	0.43
744.715	0.46
744.893	0.47
745.071	0.48
745.249	0.41
745.427	0.38
745.605	0.5
745.782	0.4
745.96	0.51
746.138	0.48
746.316	0.45
746.493	0.48
746.671	0.43
746.849	0.32
747.027	0.58
747.204	0.28
747.382	0.5
747.56	0.27
747.737	0.48
747.915	0.4
748.093	0.42
748.27	0.29
748.448	0.39
748.625	0.24
748.803	0.29
748.98	0.33
749.158	0.39
749.335	0.41
749.513	0.41
749.69	0.39
749.868	0.46
750.045	0.42
750.223	0.33
750.4	0.23
750.578	0.53
750.755	0.39
750.932	0.27
751.11	0.5
751.287	0.25
751.464	0.48
751.642	0.32
751.819	0.44
751.996	0.38
752.173	0.42
752.351	0.25
752.528	0.35
752.705	0.27
752.882	0.29
753.06	0.37
753.237	0.4
753.414	0.51
753.591	0.57
753.768	0.45
753.945	0.24
754.122	0.39
754.299	0.46
754.476	0.29
754.654	0.26
754.831	0.54
755.008	0.56
755.185	0.28
755.362	0.21
755.539	0.42
755.716	0.4
755.892	0.28
756.069	0.35
756.246	0.4
756.423	0.45
756.6	0.51
756.777	0.29
756.954	0.52
757.131	0.42
757.307	0.22
757.484	0.2
757.661	0.41
757.838	0.44
758.015	0.17
758.191	0.4
758.368	0.45
758.545	0.57
758.721	0.37
758.898	0.18
759.075	0.45
759.251	0.43
759.428	0.37
759.605	0.2
759.781	0.37
759.958	0.43
760.134	0.4
760.311	0.36
760.488	0.5
760.664	0.56
760.841	0.28
761.017	0.2
761.194	0.38
761.37	0.54
761.547	0.39
761.723	0.38
761.899	0.49
762.076	0.24
762.252	0.31
762.429	0.27
762.605	0.46
762.781	0.32
762.958	0.46
763.134	0.29
763.31	0.38
763.486	0.5
763.663	0.19
763.839	0.45
764.015	0.1
764.191	0.38
764.368	0.23
764.544	0.2
764.72	0.35
764.896	0.38
765.072	0.39
765.248	0.25
765.425	0.37
765.601	0.38
765.777	0.4
765.953	0.16
766.129	0.31
766.305	0.14
766.481	0.41
766.657	0.27
766.833	0.51
767.009	0.3
767.185	0.29
767.361	0.32
767.537	0.12
767.713	0.49
767.889	0.32
768.065	0.27
768.24	0.18
768.416	0.48
768.592	0.38
768.768	0.37
768.944	0.46
769.12	0.21
769.295	0.28
769.471	0.37
769.647	0.34
769.823	0.64
769.998	0.23
770.174	0.21
770.35	0.69
770.525	0.59
770.701	0.49
770.877	0.26
771.052	0.24
771.228	0.5
771.403	0.21
771.579	0.48
771.755	0.77
771.93	0.23
772.106	0.3
772.281	0.13
772.457	0.33
772.632	0.46
772.808	0.04
772.983	0.26
773.159	0.15
773.334	0.52
773.509	0.37
773.685	0.28
773.86	0.7
774.036	0.74
774.211	0.37
774.386	0.18
774.562	0.41
774.737	0.48
774.912	0.23
775.087	0.36
775.263	0.28
775.438	0.45
775.613	0.21
775.788	0.23
775.964	0.58
776.139	0.99
776.314	0.26
776.489	0.46
776.664	0.27
776.839	0.24
777.014	0.43
777.19	0.58
777.365	0.6
777.54	0.62
777.715	0.21
777.89	0.38
778.065	0.42
778.24	0.37
778.415	0.52
778.59	0.04
778.765	0.38
778.94	0.53
779.115	0.3
779.289	0.35
779.464	0.34
779.639	0.39
779.814	0.11
779.989	0.28
780.164	0.6
780.339	0.59
780.513	0.18
780.688	0.21
780.863	0.36
781.038	0.57
781.212	0.25
781.387	0.34
781.562	0.71
781.737	0.34
781.911	0.52
782.086	0.29
782.261	0.35
782.435	0.66
782.61	0.25
782.784	0.41
782.959	0.58
783.134	0.25
783.308	0.1
783.483	0.26
783.657	0.96
783.832	0.73
784.006	0.14
784.181	0.46
784.355	0.59
784.53	0.28
784.704	0.21
784.878	0.42
785.053	0.5
785.227	0.7
785.402	0.65
785.576	0.19
785.75	0.29
785.925	0.47
786.099	0.4
786.273	0.43
786.448	0.71
786.622	0.54
786.796	0.29
786.97	0.22
787.145	0.99
787.319	-0.02
787.493	0.41
787.667	0.03
787.841	0.67
788.015	0.66
788.19	0.4
788.364	0.3
788.538	0.69
788.712	0.6
788.886	0.38
789.06	0.58
789.234	0.52
789.408	0.22
789.582	0.4
789.756	0.39
789.93	0.6
790.104	0.41
790.278	0.18
790.452	0.17
790.626	0.45
790.8	0.3
790.973	0.43
791.147	0.72
791.321	0.95
791.495	0.55
791.669	0.44
791.843	0.49
792.016	0.55
792.19	0.82
792.364	0.17
792.538	0.95
792.711	0.82
792.885	0.23
793.059	0.24
793.233	-0.15
793.406	0.74
793.58	0.42
793.754	0.4
793.927	0.32
794.101	0.92
794.274	0.35
794.448	0.68
794.622	0.13
794.795	0.98
794.969	0.35
795.142	0.87
795.316	0.18
795.489	0.23
795.663	0.72
795.836	0.52
796.009	0.13
796.183	0.78
796.356	0.66
796.53	0.64
796.703	0.21
796.876	1.07
797.05	0.23
797.223	0.47
797.396	0.48
797.57	0.4
797.743	1.08
797.916	0.61
798.09	0.51
798.263	0.76
798.436	0.47
798.609	0.27
798.782	0.31
798.956	0.65
799.129	0.57
799.302	0.43
799.475	0.13
799.648	0.43
799.821	0.24
799.994	0.47
800.167	0.05
800.34	0.58
800.514	0.44
800.687	0.32
800.86	0.39
801.033	0.61
801.206	0.39
801.379	0.28
801.551	1.1
801.724	0.71
801.897	0.69
802.07	0.5
802.243	-0.02
802.416	0.46
802.589	0.34
802.762	1
802.935	0.28
803.107	0.9
803.28	0.88
803.453	1.05
803.626	0.3
803.798	0.55
803.971	0.36
804.144	0.55
804.317	0.57
804.489	0.83
804.662	0.58
804.835	0.49
805.007	0.01
805.18	1.07
805.353	0.52
805.525	0.5
805.698	0.11
805.87	1.04
806.043	0.82
806.215	0.12
806.388	0.21
806.56	0.66
806.733	1.03
806.905	0.46
807.078	0.49
807.25	0.35
807.423	0.77
807.595	0.35
807.768	0.61
807.94	0.98
808.112	0.74
808.285	0.35
808.457	0.17
808.629	0.38
808.802	0.72
808.974	0.66
809.146	0.48
809.318	0.19
809.491	0.29
809.663	0.63
809.835	0.17
810.007	0.73
810.18	0.73
810.352	-0.04
810.524	0.42
810.696	0.87
810.868	1.06
811.04	0.39
811.212	0.28
811.384	0.83
811.556	0.5
811.728	0.63
811.901	1.26
812.073	0.39
812.245	0.8
812.417	0.65
812.589	-0.1
812.76	0.87
812.932	0.79
813.104	0.94
813.276	0.44
813.448	1.17
813.62	0.64
813.792	0.58
813.964	0.9
814.136	0.35
814.307	0.39
814.479	0.14
814.651	0.54
814.823	1.65
814.995	0.53
815.166	0.62
815.338	0.36
815.51	0.01
815.681	1.35
815.853	1.14
816.025	0.76
816.196	1.43
816.368	1.26
816.54	-0.11
816.711	0.31
816.883	0.63
817.054	1.59
817.226	-0.05
817.398	0.64
817.569	0.41
817.741	0.99
817.912	0.93
818.084	0.46
818.255	1.72
818.426	0.02
818.598	0.4
818.769	0.12
818.941	0.98
819.112	1.23
819.283	0.77
819.455	-0.07
819.626	0.75
819.798	1.24
819.969	0.56
820.14	0.79
820.311	0.69
820.483	0.71
820.654	1.04
820.825	0.58
820.996	0.48
821.168	0.1
821.339	0.92
821.51	0.05
821.681	0.51
821.852	0.69
822.023	-0.19
822.195	0.31
822.366	1.03
822.537	0.99
822.708	1.03
822.879	0.68
823.05	1.44
823.221	0.54
823.392	1.05
823.563	0.56
823.734	0.81
823.905	1.13
824.076	0.29
824.247	-0.04
824.418	0.56
824.589	1.82
824.759	0.87
824.93	0.37
825.101	0.15
825.272	0.75
825.443	1.17
825.614	1.36
825.784	0.14
825.955	2.1
826.126	1.38
826.297	0.74
826.467	1.77
826.638	1.84
826.809	0.31
826.98	0.48
827.15	1.57
827.321	1.29
827.492	1.44
827.662	0.55
827.833	1.83
828.003	1.2
828.174	0.09
828.345	0.19
828.515	1.64
828.686	0.79
828.856	0.93
829.027	0.54
829.197	1.02
829.368	1.04
829.538	0.74
829.709	0.28
829.879	0.93
830.049	0.85
830.22	0.47
830.39	0.63
830.56	1.06
830.731	0.52
830.901	0.44
831.072	0.99
831.242	1.48
831.412	1.62
831.582	0.85
831.753	0.13
831.923	1.53
832.093	1.4
832.263	0.05
832.434	-0.3
832.604	0.64
832.774	0.85
832.944	0.82
833.114	0.6
833.284	0.95
833.454	0.1
833.624	0.74
833.795	0.55
833.965	1.83
834.135	2.09
834.305	-0.72
834.475	0.24
834.645	1.38
834.815	0.6
834.985	0.67
835.155	0.44
835.325	1.3
835.494	1.66
835.664	0.72
835.834	-0.06
836.004	1.32
836.174	1.27
836.344	0.59
836.514	0.03
836.684	0.41
836.853	1.14
837.023	1.55
837.193	1.24
837.363	1.62
837.532	1.78
837.702	1.03
837.872	0.27
838.041	1.65
838.211	2.62
838.381	0.85
838.55	0.78
838.72	3.75
838.89	1.92
839.059	0.04
839.229	0.4
839.398	3.07
839.568	0.75
839.738	0.05
839.907	1.72
840.077	1.71
840.246	0.14
840.416	0.16
840.585	-0.05
840.755	3.06
840.924	1.99
841.093	0.03
841.263	0.4
841.432	1.24
841.602	0.88
841.771	-0.03
841.94	0.65
842.11	2.6
842.279	2.19
842.448	0.06
842.617	0.16
842.787	2.23
842.956	0.68
843.125	0.9
843.294	0.6
843.464	2.32
843.633	1.16
843.802	0.7
843.971	0.57
844.14	1.6
844.309	1.26
844.479	-1
844.648	0.72
844.817	0.91
844.986	1.95
845.155	0.63
845.324	0.48
845.493	1.03
845.662	0.49
845.831	1.92
846	0.69
846.169	0.96
846.338	2.19
846.507	1.51
846.676	1.46
846.844	0.88
847.013	1.56
847.182	1.39
847.351	-0.27
847.52	1.57
847.689	1.81
847.858	0.19
848.026	0.28
848.195	1.73
848.364	1.36
848.533	0.15
848.701	-0.02
848.87	1.89
849.039	2.43
849.207	2.32
849.376	2.86
849.545	2.2
849.713	0.72
849.882	0.1
850.051	0.7
850.219	1.27
850.388	2.53
850.556	0.28
850.725	0.91
850.893	1.47
851.062	0.35
851.23	2.08
851.399	0.5
851.567	0.07
851.736	1.05
851.904	-0.45
852.073	1.47
852.241	2.14
852.41	1.31
852.578	1.02
852.746	0.45
852.915	1.84
853.083	1.64
853.251	-0.61
853.42	0.04
853.588	1.79
853.756	2.75
853.924	0.66
854.093	0.83
854.261	1.11
854.429	-0.37
854.597	1.05
854.765	1
854.934	2.68
855.102	1.2
855.27	1.78
855.438	1.03
855.606	2.59
855.774	2.92
855.942	0.42
856.11	-0.79
856.278	1.84
856.446	1.4
856.614	1.29
856.782	1.08
856.95	1.86
857.118	1.51
857.286	1.24
857.454	1.42
857.622	2.39
857.79	1.87
857.958	0.91
858.126	1.02
858.294	-1.28
858.462	-0.41
858.629	-0.04
858.797	-0.6
858.965	1.15
859.133	1.25
859.301	0.14
859.468	1.73
859.636	0.78
859.804	3.45
859.971	1.72
860.139	0.01
860.307	2.32
860.474	0.93
860.642	1.91
860.81	0.69
860.977	1.62
861.145	2.43
861.313	1.97
861.48	1.78
861.648	1.79
861.815	0.17
861.983	0.4
862.15	0.61
862.318	2.78
862.485	3
862.653	-0.55
862.82	0.44
862.988	4.31
863.155	2.63
863.322	0.59
863.49	-0.46
863.657	0.68
863.824	3.16
863.992	3.06
864.159	2.13
864.326	2.83
864.494	0.85
864.661	4.52
864.828	-0.09
864.996	3.4
865.163	2.65
865.33	1.71
865.497	-1.19
865.664	1.39
865.832	-0.31
865.999	1.36
866.166	1.25
866.333	2.26
866.5	-0.83
866.667	1.14
866.834	0.88
867.001	3.81
867.168	0.1
867.335	1.31
867.502	0.08
867.669	0.94
867.836	3.94
868.003	0.07
868.17	3.15
868.337	0.58
868.504	5.85
868.671	0.04
868.838	0.22
869.005	2.67
869.172	3.23
869.339	1.39
869.505	0.72
869.672	1.8
869.839	4.65
870.006	0.67
870.173	0.53
870.339	2.88
870.506	5.47
870.673	0.93
870.84	1.87
871.006	2.34
871.173	2.32
871.34	3.2
871.506	0.27
871.673	1.9
871.839	0.19
872.006	2.66
872.173	2
872.339	2.82
872.506	4.2
872.672	0.26
872.839	-1.05
873.005	1.83
873.172	5.35
873.338	3.23
873.505	2.06
873.671	0.15
873.838	1.79
874.004	-0.26
874.171	-0.45
874.337	1.83
874.503	2.43
874.67	1.35
874.836	1.91
875.002	3.45
875.169	3.83
875.335	2.14
875.501	0.33
875.668	2.92
875.834	2.07
876	1.86
876.166	3.37
876.332	2.51
876.499	4.22
876.665	0.79
876.831	3.08
876.997	5.94
877.163	3.32
877.329	1.27
877.495	1.24
877.662	2.67
877.828	2.58
877.994	2.96
878.16	-0.65
878.326	1.12
878.492	2.7
878.658	1.77
878.824	0.63
878.99	3.53
879.156	3.59
879.322	4.68
879.487	2.46
879.653	3.02
879.819	3.18
879.985	-0.62
880.151	3.52
880.317	3.3
880.483	1.47
880.648	2.93
880.814	-0.58
880.98	3.35
881.146	-1
881.312	1.21
881.477	0.76
881.643	1.78
881.809	4.61
881.974	5.75
882.14	0.24
882.306	2.38
882.471	6.19
882.637	-0.49
882.803	2.15
882.968	4.5
883.134	6.61
883.299	1.02
883.465	1.3
883.63	4.45
883.796	2.62
883.961	3.08
884.127	3.9
884.292	-2.6
884.458	-0.56
884.623	-0.56
