Data from Apollo_Calib_20240827__AbsoluteIrradiance__861__13-30-02-799.txt Node

Date: Wed Aug 28 13:30:02 BST 2024
User: biology
Spectrometer: FLMT08252
Trigger mode: 0
Integration Time (sec): 5.000000E-1
Scans to average: 5
Electric dark correction enabled: true
Nonlinearity correction enabled: false
Boxcar width: 0
XAxis mode: Wavelengths
Number of Pixels in Spectrum: 3648
>>>>>Begin Spectral Data<<<<<
179.588	-0
179.809	-0
180.03	-0
180.251	-0
180.473	-0
180.694	0
180.915	0
181.136	-0
181.357	0
181.578	-0
181.799	-0
182.02	-0
182.241	-0
182.462	-0
182.683	0
182.904	-0
183.125	-0
183.346	0
183.567	0
183.788	0
184.009	0
184.23	0
184.451	0
184.672	0
184.892	0
185.113	0
185.334	0
185.555	0
185.776	0
185.996	0
186.217	0
186.438	0
186.659	0
186.879	0
187.1	0
187.321	0
187.541	0
187.762	0
187.983	0
188.203	0
188.424	0
188.644	0
188.865	0
189.086	0
189.306	0
189.527	0
189.747	0
189.968	0
190.188	0
190.409	0
190.629	0
190.849	0
191.07	0
191.29	0
191.511	0
191.731	0
191.951	0
192.172	0
192.392	0
192.612	0
192.833	0
193.053	0
193.273	0
193.493	0
193.714	0
193.934	0
194.154	0
194.374	0
194.594	0
194.815	0
195.035	0
195.255	0
195.475	0
195.695	0
195.915	0
196.135	0
196.355	0
196.575	0
196.795	0
197.015	0
197.235	0
197.455	0
197.675	0
197.895	0
198.115	0
198.335	0
198.555	0
198.775	0
198.995	0
199.214	0
199.434	0
199.654	0
199.874	0
200.094	3.99
200.313	2.05
200.533	1.81
200.753	1.28
200.973	3.33
201.192	3.24
201.412	1.13
201.632	0.97
201.851	3.8
202.071	1.95
202.291	1.4
202.51	1.11
202.73	2.6
202.95	1.56
203.169	1
203.389	1.35
203.608	2.28
203.828	1.7
204.047	1.2
204.267	2.03
204.486	1.77
204.706	2
204.925	1.72
205.145	1.53
205.364	2.07
205.583	2.84
205.803	1.37
206.022	1.07
206.242	1.73
206.461	1.83
206.68	1.21
206.9	1.18
207.119	2.78
207.338	2.37
207.557	1.16
207.777	1.36
207.996	1.25
208.215	2.17
208.434	1.06
208.654	0.85
208.873	1.38
209.092	2.02
209.311	0.98
209.53	1.01
209.749	1.33
209.968	0.86
210.187	1.1
210.407	0.48
210.626	1.22
210.845	1.61
211.064	1.15
211.283	0.75
211.502	1.66
211.721	1.13
211.94	0.73
212.159	1.32
212.377	1.44
212.596	1.56
212.815	1.24
213.034	1.12
213.253	1.52
213.472	1.26
213.691	0.95
213.91	0.68
214.128	0.63
214.347	1.55
214.566	0.56
214.785	0.58
215.003	1.41
215.222	1.11
215.441	0.79
215.66	0.41
215.878	0.91
216.097	1.32
216.316	0.67
216.534	0.93
216.753	1.11
216.972	1.05
217.19	0.88
217.409	0.53
217.627	0.82
217.846	0.92
218.064	0.89
218.283	0.72
218.501	1.33
218.72	1.14
218.938	0.53
219.157	0.61
219.375	0.98
219.594	0.96
219.812	0.38
220.031	0.45
220.249	1.11
220.467	1.23
220.686	0.7
220.904	0.38
221.122	0.53
221.341	1.21
221.559	0.7
221.777	0.49
221.995	0.72
222.214	0.81
222.432	0.62
222.65	0.75
222.868	0.5
223.086	0.87
223.305	0.95
223.523	0.64
223.741	1.03
223.959	0.55
224.177	0.41
224.395	0.67
224.613	0.87
224.831	1.03
225.049	0.41
225.267	0.6
225.485	0.98
225.703	0.68
225.921	0.54
226.139	0.4
226.357	0.92
226.575	0.73
226.793	0.43
227.011	1.57
227.229	0.68
227.447	0.85
227.665	0.49
227.883	0.28
228.1	0.71
228.318	0.65
228.536	0.3
228.754	0.56
228.972	0.74
229.189	0.82
229.407	0.56
229.625	0.58
229.843	0.73
230.06	0.82
230.278	0.47
230.496	0.54
230.713	0.58
230.931	0.93
231.149	0.35
231.366	0.29
231.584	0.61
231.801	1.05
232.019	0.51
232.236	0.33
232.454	0.37
232.671	0.71
232.889	0.43
233.106	0.33
233.324	0.61
233.541	0.54
233.759	0.52
233.976	0.52
234.194	0.59
234.411	0.55
234.628	0.45
234.846	0.46
235.063	0.51
235.28	0.54
235.498	0.64
235.715	0.34
235.932	0.77
236.149	0.54
236.367	0.41
236.584	0.47
236.801	0.42
237.018	0.65
237.236	0.55
237.453	0.19
237.67	0.7
237.887	0.49
238.104	0.53
238.321	0.41
238.538	0.44
238.755	0.66
238.973	0.4
239.19	0.41
239.407	0.61
239.624	0.49
239.841	0.29
240.058	0.36
240.275	0.52
240.492	0.51
240.709	0.47
240.925	0.37
241.142	0.4
241.359	0.36
241.576	0.35
241.793	0.39
242.01	0.52
242.227	0.59
242.444	0.44
242.66	0.62
242.877	0.47
243.094	0.43
243.311	0.39
243.527	0.4
243.744	0.46
243.961	0.48
244.178	0.31
244.394	0.44
244.611	0.62
244.828	0.69
245.044	0.27
245.261	0.38
245.477	0.47
245.694	0.49
245.911	0.33
246.127	0.36
246.344	0.7
246.56	0.55
246.777	0.44
246.993	0.41
247.21	0.54
247.426	0.6
247.643	0.31
247.859	0.32
248.076	0.28
248.292	0.69
248.508	0.35
248.725	0.45
248.941	0.5
249.157	0.6
249.374	0.33
249.59	0.39
249.806	0.45
250.023	0.59
250.239	0.33
250.455	0.39
250.671	0.32
250.888	0.41
251.104	0.44
251.32	0.29
251.536	0.4
251.752	0.36
251.969	0.39
252.185	0.42
252.401	0.7
252.617	0.52
252.833	0.28
253.049	0.4
253.265	0.4
253.481	0.44
253.697	0.34
253.913	0.29
254.129	0.47
254.345	0.47
254.561	0.35
254.777	0.34
254.993	0.49
255.209	0.34
255.425	0.28
255.641	0.31
255.857	0.46
256.073	0.47
256.288	0.26
256.504	0.35
256.72	0.41
256.936	0.56
257.152	0.31
257.367	0.28
257.583	0.45
257.799	0.47
258.015	0.31
258.23	0.37
258.446	0.61
258.662	0.37
258.877	0.29
259.093	0.26
259.309	0.35
259.524	0.39
259.74	0.27
259.955	0.23
260.171	0.43
260.387	0.42
260.602	0.43
260.818	0.45
261.033	0.23
261.249	0.38
261.464	0.31
261.68	0.28
261.895	0.4
262.11	0.46
262.326	0.34
262.541	0.21
262.757	0.5
262.972	0.5
263.187	0.37
263.403	0.33
263.618	0.48
263.833	0.38
264.049	0.26
264.264	0.3
264.479	0.45
264.694	0.51
264.91	0.23
265.125	0.31
265.34	0.41
265.555	0.56
265.77	0.42
265.986	0.27
266.201	0.39
266.416	0.46
266.631	0.24
266.846	0.31
267.061	0.42
267.276	0.4
267.491	0.19
267.706	0.39
267.921	0.4
268.136	0.41
268.351	0.34
268.566	0.19
268.781	0.46
268.996	0.48
269.211	0.32
269.426	0.24
269.641	0.33
269.856	0.45
270.071	0.28
270.285	0.24
270.5	0.38
270.715	0.43
270.93	0.35
271.145	0.39
271.359	0.42
271.574	0.29
271.789	0.34
272.004	0.34
272.218	0.29
272.433	0.37
272.648	0.28
272.862	0.33
273.077	0.3
273.292	0.41
273.506	0.26
273.721	0.33
273.936	0.39
274.15	0.42
274.365	0.28
274.579	0.39
274.794	0.42
275.008	0.41
275.223	0.17
275.437	0.27
275.652	0.48
275.866	0.34
276.081	0.26
276.295	0.32
276.509	0.39
276.724	0.3
276.938	0.3
277.153	0.35
277.367	0.39
277.581	0.22
277.796	0.24
278.01	0.25
278.224	0.39
278.438	0.44
278.653	0.24
278.867	0.25
279.081	0.42
279.295	0.31
279.51	0.34
279.724	0.21
279.938	0.39
280.152	0.33
280.366	0.27
280.58	0.31
280.794	0.38
281.008	0.34
281.222	0.29
281.437	0.46
281.651	0.3
281.865	0.41
282.079	0.34
282.293	0.18
282.507	0.22
282.721	0.3
282.935	0.3
283.148	0.23
283.362	0.28
283.576	0.22
283.79	0.33
284.004	0.28
284.218	0.35
284.432	0.26
284.646	0.28
284.859	0.27
285.073	0.27
285.287	0.32
285.501	0.29
285.714	0.22
285.928	0.3
286.142	0.33
286.356	0.2
286.569	0.21
286.783	0.42
286.997	0.38
287.21	0.32
287.424	0.27
287.637	0.28
287.851	0.28
288.065	0.36
288.278	0.24
288.492	0.3
288.705	0.3
288.919	0.31
289.132	0.19
289.346	0.35
289.559	0.22
289.773	0.25
289.986	0.25
290.2	0.25
290.413	0.33
290.626	0.22
290.84	0.23
291.053	0.28
291.267	0.41
291.48	0.28
291.693	0.27
291.906	0.3
292.12	0.33
292.333	0.21
292.546	0.19
292.76	0.35
292.973	0.32
293.186	0.3
293.399	0.26
293.612	0.32
293.826	0.26
294.039	0.29
294.252	0.22
294.465	0.32
294.678	0.32
294.891	0.27
295.104	0.19
295.317	0.26
295.53	0.27
295.743	0.27
295.956	0.24
296.169	0.33
296.382	0.33
296.595	0.24
296.808	0.23
297.021	0.39
297.234	0.33
297.447	0.23
297.66	0.29
297.873	0.35
298.086	0.31
298.299	0.24
298.511	0.13
298.724	0.28
298.937	0.24
299.15	0.18
299.363	0.21
299.575	0.33
299.788	0.33
300.001	0.27
300.213	0.23
300.426	0.23
300.639	0.22
300.852	0.21
301.064	0.27
301.277	0.34
301.489	0.3
301.702	0.29
301.915	0.23
302.127	0.29
302.34	0.28
302.552	0.3
302.765	0.21
302.977	0.32
303.19	0.18
303.402	0.24
303.615	0.25
303.827	0.22
304.04	0.26
304.252	0.3
304.464	0.23
304.677	0.41
304.889	0.26
305.102	0.23
305.314	0.19
305.526	0.31
305.739	0.29
305.951	0.19
306.163	0.25
306.375	0.36
306.588	0.23
306.8	0.22
307.012	0.18
307.224	0.23
307.436	0.34
307.649	0.19
307.861	0.25
308.073	0.27
308.285	0.21
308.497	0.18
308.709	0.2
308.921	0.23
309.133	0.36
309.346	0.25
309.558	0.23
309.77	0.29
309.982	0.31
310.194	0.3
310.406	0.15
310.617	0.36
310.829	0.26
311.041	0.3
311.253	0.21
311.465	0.24
311.677	0.27
311.889	0.27
312.101	0.23
312.313	0.33
312.524	0.36
312.736	0.2
312.948	0.25
313.16	0.4
313.372	0.27
313.583	0.25
313.795	0.27
314.007	0.29
314.218	0.31
314.43	0.25
314.642	0.23
314.853	0.21
315.065	0.3
315.277	0.24
315.488	0.31
315.7	0.29
315.912	0.32
316.123	0.21
316.335	0.22
316.546	0.38
316.758	0.23
316.969	0.25
317.181	0.23
317.392	0.29
317.604	0.36
317.815	0.22
318.026	0.21
318.238	0.24
318.449	0.32
318.661	0.17
318.872	0.16
319.083	0.2
319.295	0.28
319.506	0.2
319.717	0.23
319.929	0.33
320.14	0.25
320.351	0.21
320.562	0.21
320.774	0.31
320.985	0.26
321.196	0.2
321.407	0.16
321.618	0.26
321.829	0.24
322.041	0.3
322.252	0.28
322.463	0.32
322.674	0.29
322.885	0.21
323.096	0.24
323.307	0.3
323.518	0.25
323.729	0.22
323.94	0.22
324.151	0.24
324.362	0.3
324.573	0.21
324.784	0.24
324.995	0.3
325.206	0.26
325.417	0.19
325.628	0.18
325.838	0.24
326.049	0.32
326.26	0.29
326.471	0.2
326.682	0.29
326.892	0.28
327.103	0.19
327.314	0.24
327.525	0.32
327.735	0.24
327.946	0.28
328.157	0.18
328.368	0.29
328.578	0.28
328.789	0.3
328.999	0.26
329.21	0.23
329.421	0.3
329.631	0.23
329.842	0.19
330.052	0.28
330.263	0.29
330.473	0.3
330.684	0.23
330.894	0.26
331.105	0.26
331.315	0.26
331.526	0.16
331.736	0.35
331.947	0.29
332.157	0.28
332.367	0.18
332.578	0.28
332.788	0.33
332.999	0.27
333.209	0.24
333.419	0.16
333.629	0.31
333.84	0.25
334.05	0.26
334.26	0.41
334.47	0.26
334.681	0.27
334.891	0.21
335.101	0.3
335.311	0.31
335.521	0.23
335.732	0.2
335.942	0.35
336.152	0.27
336.362	0.29
336.572	0.26
336.782	0.32
336.992	0.25
337.202	0.23
337.412	0.19
337.622	0.29
337.832	0.27
338.042	0.26
338.252	0.23
338.462	0.23
338.672	0.21
338.882	0.18
339.092	0.25
339.302	0.34
339.511	0.3
339.721	0.19
339.931	0.17
340.141	0.31
340.351	0.33
340.561	0.27
340.77	0.27
340.98	0.27
341.19	0.29
341.4	0.22
341.609	0.21
341.819	0.23
342.029	0.18
342.238	0.21
342.448	0.23
342.658	0.29
342.867	0.23
343.077	0.22
343.286	0.26
343.496	0.29
343.706	0.33
343.915	0.2
344.125	0.23
344.334	0.27
344.544	0.2
344.753	0.24
344.963	0.21
345.172	0.21
345.381	0.23
345.591	0.2
345.8	0.23
346.01	0.34
346.219	0.26
346.428	0.1
346.638	0.25
346.847	0.28
347.056	0.31
347.266	0.18
347.475	0.23
347.684	0.34
347.893	0.29
348.103	0.28
348.312	0.26
348.521	0.27
348.73	0.26
348.94	0.24
349.149	0.19
349.358	0.23
349.567	0.21
349.776	0.17
349.985	0.19
350.194	0.31
350.403	0.34
350.612	0.14
350.821	0.19
351.03	0.29
351.239	0.15
351.448	0.28
351.657	0.18
351.866	0.32
352.075	0.24
352.284	0.32
352.493	0.18
352.702	0.31
352.911	0.23
353.12	0.26
353.329	0.24
353.538	0.28
353.746	0.27
353.955	0.18
354.164	0.23
354.373	0.24
354.582	0.32
354.79	0.24
354.999	0.25
355.208	0.23
355.416	0.35
355.625	0.15
355.834	0.19
356.042	0.29
356.251	0.2
356.46	0.21
356.668	0.28
356.877	0.33
357.085	0.32
357.294	0.12
357.503	0.24
357.711	0.24
357.92	0.43
358.128	0.28
358.337	0.22
358.545	0.28
358.754	0.19
358.962	0.27
359.17	0.25
359.379	0.26
359.587	0.27
359.796	0.24
360.004	0.29
360.212	0.26
360.421	0.32
360.629	0.23
360.837	0.2
361.046	0.29
361.254	0.38
361.462	0.2
361.67	0.23
361.879	0.27
362.087	0.3
362.295	0.21
362.503	0.21
362.711	0.21
362.92	0.21
363.128	0.17
363.336	0.23
363.544	0.18
363.752	0.26
363.96	0.22
364.168	0.26
364.376	0.25
364.584	0.25
364.792	0.33
365	0.23
365.208	0.29
365.416	0.27
365.624	0.31
365.832	0.25
366.04	0.35
366.248	0.25
366.456	0.24
366.664	0.24
366.872	0.22
367.079	0.25
367.287	0.19
367.495	0.23
367.703	0.26
367.911	0.24
368.118	0.28
368.326	0.26
368.534	0.22
368.742	0.35
368.949	0.19
369.157	0.21
369.365	0.28
369.572	0.25
369.78	0.21
369.988	0.28
370.195	0.27
370.403	0.29
370.61	0.18
370.818	0.27
371.026	0.4
371.233	0.2
371.441	0.22
371.648	0.2
371.856	0.23
372.063	0.28
372.271	0.23
372.478	0.21
372.685	0.2
372.893	0.32
373.1	0.24
373.308	0.2
373.515	0.38
373.722	0.3
373.93	0.21
374.137	0.27
374.344	0.31
374.552	0.33
374.759	0.29
374.966	0.22
375.173	0.2
375.381	0.32
375.588	0.21
375.795	0.21
376.002	0.27
376.209	0.27
376.417	0.26
376.624	0.3
376.831	0.3
377.038	0.26
377.245	0.17
377.452	0.23
377.659	0.26
377.866	0.22
378.073	0.22
378.28	0.23
378.487	0.31
378.694	0.31
378.901	0.23
379.108	0.24
379.315	0.33
379.522	0.36
379.729	0.27
379.936	0.28
380.143	0.29
380.35	0.27
380.557	0.25
380.763	0.24
380.97	0.26
381.177	0.28
381.384	0.27
381.591	0.19
381.797	0.29
382.004	0.3
382.211	0.29
382.418	0.19
382.624	0.29
382.831	0.31
383.038	0.24
383.244	0.3
383.451	0.28
383.658	0.27
383.864	0.25
384.071	0.24
384.277	0.36
384.484	0.27
384.69	0.34
384.897	0.23
385.103	0.3
385.31	0.22
385.516	0.25
385.723	0.2
385.929	0.3
386.136	0.26
386.342	0.26
386.549	0.26
386.755	0.36
386.961	0.28
387.168	0.25
387.374	0.27
387.58	0.34
387.787	0.27
387.993	0.3
388.199	0.27
388.406	0.25
388.612	0.24
388.818	0.25
389.024	0.21
389.231	0.27
389.437	0.36
389.643	0.3
389.849	0.27
390.055	0.35
390.261	0.31
390.467	0.33
390.674	0.26
390.88	0.29
391.086	0.38
391.292	0.22
391.498	0.33
391.704	0.29
391.91	0.33
392.116	0.27
392.322	0.18
392.528	0.33
392.734	0.3
392.94	0.3
393.146	0.3
393.352	0.36
393.557	0.3
393.763	0.25
393.969	0.34
394.175	0.3
394.381	0.31
394.587	0.29
394.792	0.31
394.998	0.38
395.204	0.38
395.41	0.29
395.615	0.29
395.821	0.31
396.027	0.35
396.233	0.26
396.438	0.39
396.644	0.37
396.85	0.31
397.055	0.35
397.261	0.36
397.466	0.43
397.672	0.35
397.878	0.39
398.083	0.38
398.289	0.32
398.494	0.41
398.7	0.37
398.905	0.2
399.111	0.44
399.316	0.29
399.522	0.36
399.727	0.32
399.932	0.29
400.138	0.34
400.343	0.4
400.549	0.34
400.754	0.37
400.959	0.41
401.165	0.32
401.37	0.38
401.575	0.34
401.78	0.41
401.986	0.33
402.191	0.32
402.396	0.4
402.601	0.4
402.807	0.39
403.012	0.37
403.217	0.4
403.422	0.43
403.627	0.44
403.832	0.34
404.037	0.45
404.243	0.44
404.448	0.35
404.653	0.43
404.858	0.45
405.063	0.45
405.268	0.4
405.473	0.4
405.678	0.46
405.883	0.7
406.088	0.47
406.293	0.4
406.498	0.44
406.703	0.52
406.907	0.51
407.112	0.43
407.317	0.51
407.522	0.61
407.727	0.42
407.932	0.54
408.136	0.65
408.341	0.53
408.546	0.59
408.751	0.58
408.956	0.59
409.16	0.66
409.365	0.63
409.57	0.62
409.774	0.63
409.979	0.66
410.184	0.69
410.388	0.61
410.593	0.77
410.798	0.73
411.002	0.73
411.207	0.84
411.411	0.8
411.616	0.78
411.82	0.82
412.025	0.86
412.229	0.81
412.434	0.95
412.638	0.88
412.843	0.92
413.047	1
413.252	0.97
413.456	1.02
413.66	1.04
413.865	1.07
414.069	1.22
414.273	1.06
414.478	1.1
414.682	1.12
414.886	1.19
415.091	1.18
415.295	1.21
415.499	1.44
415.703	1.34
415.908	1.45
416.112	1.34
416.316	1.54
416.52	1.6
416.724	1.55
416.929	1.61
417.133	1.84
417.337	1.65
417.541	1.72
417.745	1.81
417.949	2.01
418.153	1.94
418.357	2.03
418.561	2.26
418.765	2.21
418.969	2.4
419.173	2.44
419.377	2.38
419.581	2.64
419.785	2.58
419.989	2.67
420.193	2.75
420.397	2.85
420.601	2.99
420.804	3.08
421.008	3.06
421.212	3.21
421.416	3.23
421.62	3.28
421.823	3.32
422.027	3.55
422.231	3.51
422.435	3.5
422.638	3.54
422.842	3.71
423.046	3.74
423.249	3.91
423.453	3.96
423.657	4.13
423.86	4.18
424.064	4.29
424.268	4.55
424.471	4.45
424.675	4.71
424.878	4.73
425.082	4.83
425.285	5.17
425.489	5.14
425.692	5.23
425.896	5.23
426.099	5.41
426.303	5.56
426.506	5.64
426.71	5.92
426.913	6.23
427.116	6.27
427.32	6.35
427.523	6.41
427.726	6.61
427.93	6.77
428.133	7.21
428.336	7.26
428.54	7.33
428.743	7.65
428.946	7.76
429.149	7.9
429.353	7.94
429.556	8
429.759	8.1
429.962	8.13
430.165	8.35
430.368	7.92
430.571	8.02
430.775	8.13
430.978	8.04
431.181	8.16
431.384	8.29
431.587	8.32
431.79	8.74
431.993	8.66
432.196	8.92
432.399	9.22
432.602	9.54
432.805	9.55
433.008	10.01
433.211	9.85
433.414	10.24
433.616	10.32
433.819	10.28
434.022	10.45
434.225	10.61
434.428	10.64
434.631	11.01
434.833	10.72
435.036	11.05
435.239	11.28
435.442	11.36
435.645	11.52
435.847	11.43
436.05	11.84
436.253	12.02
436.455	12.1
436.658	11.97
436.861	12.37
437.063	12.51
437.266	12.37
437.468	12.79
437.671	13.05
437.874	13.12
438.076	12.86
438.279	13.43
438.481	13.44
438.684	14.25
438.886	13.76
439.089	14.11
439.291	14.14
439.494	14.55
439.696	14.64
439.899	15.24
440.101	15.69
440.303	15.73
440.506	16.59
440.708	16.28
440.91	16.51
441.113	16.73
441.315	16.93
441.517	16.7
441.72	17.19
441.922	16.82
442.124	16.79
442.326	17.11
442.529	17.42
442.731	17.36
442.933	17.65
443.135	17.45
443.337	17.43
443.539	17.99
443.742	17.55
443.944	18.32
444.146	18.01
444.348	17.92
444.55	17.88
444.752	18.16
444.954	18.16
445.156	18.04
445.358	18.47
445.56	18.7
445.762	18.58
445.964	18.73
446.166	18.59
446.368	18.62
446.57	18.54
446.772	18.02
446.974	17.98
447.175	18.29
447.377	17.93
447.579	18.33
447.781	18
447.983	17.8
448.184	17.38
448.386	17.7
448.588	17.25
448.79	17.17
448.991	17.43
449.193	17.48
449.395	16.74
449.597	16.36
449.798	16.43
450	15.93
450.202	15.76
450.403	15.93
450.605	15.83
450.806	15.32
451.008	15.12
451.21	14.98
451.411	14.54
451.613	13.79
451.814	14.08
452.016	14.01
452.217	13.25
452.419	13.42
452.62	12.97
452.821	12.77
453.023	12.57
453.224	12.28
453.426	11.96
453.627	11.23
453.828	11.3
454.03	11.22
454.231	11.27
454.432	11.11
454.634	10.88
454.835	10.48
455.036	10.32
455.238	10.04
455.439	9.82
455.64	9.49
455.841	9.42
456.042	9.62
456.244	9.19
456.445	8.96
456.646	8.65
456.847	8.56
457.048	8.43
457.249	8.46
457.45	8.32
457.651	7.65
457.852	7.56
458.054	7.25
458.255	7.11
458.456	7.25
458.657	7.14
458.858	6.7
459.058	6.64
459.259	6.71
459.46	6.42
459.661	6.32
459.862	6.55
460.063	6.38
460.264	6.28
460.465	6.03
460.666	6.04
460.866	5.73
461.067	5.43
461.268	5.56
461.469	5.42
461.67	5.35
461.87	5.24
462.071	5.23
462.272	5.13
462.473	5.04
462.673	5.3
462.874	5.13
463.075	5.08
463.275	5.1
463.476	5.21
463.676	5.13
463.877	4.91
464.078	4.98
464.278	4.96
464.479	4.81
464.679	4.82
464.88	4.7
465.08	4.73
465.281	4.58
465.481	4.28
465.682	4.12
465.882	4.13
466.083	4.13
466.283	4
466.483	3.89
466.684	3.73
466.884	3.62
467.085	3.71
467.285	3.74
467.485	3.63
467.686	3.54
467.886	3.48
468.086	3.39
468.286	3.33
468.487	3.37
468.687	3.28
468.887	3.18
469.087	3.36
469.287	3.26
469.488	3.05
469.688	3.17
469.888	3.17
470.088	3.15
470.288	3.06
470.488	3.06
470.688	2.88
470.888	2.91
471.088	2.71
471.288	2.82
471.488	2.77
471.688	2.77
471.888	2.69
472.088	2.84
472.288	2.75
472.488	2.61
472.688	2.53
472.888	2.61
473.088	2.59
473.288	2.55
473.488	2.42
473.688	2.59
473.887	2.49
474.087	2.44
474.287	2.49
474.487	2.4
474.687	2.45
474.886	2.36
475.086	2.29
475.286	2.34
475.486	2.29
475.685	2.28
475.885	2.25
476.085	2.29
476.284	2.27
476.484	2.25
476.684	2.22
476.883	2.3
477.083	2.2
477.282	2.18
477.482	2.22
477.681	2.11
477.881	2.08
478.08	2.08
478.28	2.07
478.479	2.08
478.679	2.14
478.878	2.03
479.078	2.03
479.277	2.11
479.477	2.09
479.676	2
479.875	1.99
480.075	1.96
480.274	2.04
480.473	2.07
480.673	2.07
480.872	2.1
481.071	2.09
481.271	2.04
481.47	1.99
481.669	1.97
481.868	1.95
482.067	1.99
482.267	1.92
482.466	1.91
482.665	1.93
482.864	1.93
483.063	1.94
483.262	1.98
483.461	2.03
483.661	2.04
483.86	2.02
484.059	2.07
484.258	2.01
484.457	2.02
484.656	2.01
484.855	2.13
485.054	1.95
485.253	1.98
485.452	1.94
485.651	2.1
485.849	2.04
486.048	2.01
486.247	1.99
486.446	2.1
486.645	2.02
486.844	2.1
487.043	2.06
487.241	2.1
487.44	2.05
487.639	2.14
487.838	2.11
488.037	2.11
488.235	2.19
488.434	2.19
488.633	2.04
488.831	2.21
489.03	2.24
489.229	2.25
489.427	2.22
489.626	2.29
489.825	2.29
490.023	2.32
490.222	2.25
490.42	2.33
490.619	2.32
490.817	2.34
491.016	2.35
491.214	2.4
491.413	2.4
491.611	2.34
491.81	2.38
492.008	2.5
492.207	2.57
492.405	2.5
492.604	2.48
492.802	2.53
493	2.62
493.199	2.61
493.397	2.6
493.595	2.72
493.794	2.7
493.992	2.82
494.19	2.7
494.388	2.82
494.587	2.76
494.785	2.77
494.983	2.76
495.181	2.87
495.379	2.93
495.578	2.98
495.776	2.96
495.974	2.95
496.172	2.97
496.37	3.09
496.568	3.07
496.766	3.1
496.964	3.19
497.162	3.15
497.36	3.17
497.558	3.25
497.756	3.3
497.954	3.31
498.152	3.36
498.35	3.42
498.548	3.35
498.746	3.4
498.944	3.42
499.142	3.46
499.34	3.52
499.538	3.63
499.736	3.47
499.933	3.68
500.131	3.68
500.329	3.79
500.527	3.71
500.725	3.87
500.922	3.86
501.12	3.87
501.318	3.95
501.516	3.95
501.713	4.01
501.911	3.97
502.109	3.89
502.306	4.09
502.504	4.03
502.701	4.08
502.899	4.17
503.097	4.38
503.294	4.24
503.492	4.34
503.689	4.37
503.887	4.3
504.084	4.53
504.282	4.4
504.479	4.43
504.677	4.57
504.874	4.56
505.072	4.46
505.269	4.71
505.466	4.66
505.664	4.74
505.861	4.67
506.059	4.78
506.256	4.78
506.453	4.83
506.651	4.97
506.848	5
507.045	4.97
507.242	5
507.44	5.06
507.637	5.07
507.834	5.04
508.031	5.22
508.229	5.16
508.426	5.13
508.623	5.31
508.82	5.28
509.017	5.23
509.214	5.29
509.411	5.39
509.608	5.35
509.805	5.51
510.003	5.47
510.2	5.53
510.397	5.67
510.594	5.55
510.791	5.68
510.988	5.64
511.184	5.6
511.381	5.51
511.578	5.72
511.775	5.77
511.972	5.77
512.169	5.83
512.366	5.82
512.563	5.99
512.76	5.98
512.956	6.02
513.153	5.98
513.35	5.93
513.547	5.91
513.744	6.03
513.94	5.97
514.137	6.14
514.334	6.14
514.53	6.18
514.727	6.37
514.924	6.36
515.12	6.22
515.317	6.25
515.514	6.26
515.71	6.17
515.907	6.43
516.103	6.45
516.3	6.32
516.497	6.45
516.693	6.49
516.89	6.44
517.086	6.5
517.283	6.51
517.479	6.44
517.676	6.63
517.872	6.67
518.068	6.62
518.265	6.64
518.461	6.56
518.658	6.69
518.854	6.68
519.05	6.82
519.247	6.82
519.443	6.79
519.639	6.91
519.836	6.8
520.032	6.72
520.228	6.93
520.424	6.88
520.621	6.94
520.817	6.92
521.013	6.92
521.209	7.1
521.405	7.1
521.601	6.99
521.798	6.97
521.994	7.04
522.19	7.04
522.386	7.02
522.582	7.11
522.778	7.27
522.974	7.09
523.17	7.13
523.366	7.09
523.562	7.19
523.758	7.18
523.954	7.02
524.15	7.25
524.346	7.27
524.542	7.25
524.738	7.26
524.934	7.37
525.129	7.31
525.325	7.24
525.521	7.26
525.717	7.5
525.913	7.32
526.109	7.31
526.304	7.44
526.5	7.41
526.696	7.45
526.892	7.35
527.087	7.6
527.283	7.48
527.479	7.53
527.674	7.29
527.87	7.51
528.066	7.48
528.261	7.55
528.457	7.5
528.653	7.58
528.848	7.63
529.044	7.67
529.239	7.49
529.435	7.6
529.63	7.47
529.826	7.66
530.021	7.58
530.217	7.67
530.412	7.6
530.608	7.63
530.803	7.6
530.999	7.52
531.194	7.63
531.389	7.7
531.585	7.67
531.78	7.78
531.975	7.65
532.171	7.81
532.366	7.76
532.561	7.72
532.757	7.68
532.952	7.88
533.147	7.65
533.342	7.79
533.538	7.75
533.733	7.89
533.928	7.55
534.123	7.79
534.318	7.82
534.513	7.72
534.709	7.91
534.904	7.83
535.099	7.97
535.294	7.84
535.489	7.88
535.684	7.82
535.879	7.83
536.074	7.89
536.269	7.89
536.464	7.94
536.659	7.87
536.854	7.87
537.049	7.95
537.244	7.92
537.439	7.89
537.634	7.89
537.828	7.95
538.023	7.99
538.218	7.94
538.413	7.85
538.608	7.94
538.803	7.97
538.997	7.86
539.192	7.9
539.387	7.9
539.582	7.93
539.776	7.86
539.971	8.03
540.166	8.06
540.36	7.97
540.555	8.07
540.75	8.02
540.944	8.04
541.139	8.05
541.334	8.02
541.528	8
541.723	8.08
541.917	8.1
542.112	7.91
542.306	7.83
542.501	7.9
542.695	7.94
542.89	7.87
543.084	8.05
543.279	7.97
543.473	8.06
543.668	8.12
543.862	7.91
544.056	7.93
544.251	8.04
544.445	8.12
544.64	8.2
544.834	7.83
545.028	7.64
545.222	8.07
545.417	8.24
545.611	8.11
545.805	8.05
546	7.87
546.194	8.07
546.388	8.09
546.582	7.98
546.776	7.97
546.97	8.1
547.165	8.03
547.359	8.01
547.553	8.01
547.747	8.06
547.941	8.25
548.135	8.03
548.329	8.06
548.523	8.06
548.717	8.01
548.911	8.06
549.105	8.05
549.299	8.18
549.493	8.13
549.687	8.03
549.881	8.18
550.075	8.15
550.269	7.96
550.463	8.15
550.657	8.11
550.85	8.04
551.044	8.1
551.238	8.17
551.432	8.13
551.626	8.18
551.82	8.15
552.013	8.03
552.207	8.2
552.401	8.2
552.594	8.03
552.788	8.02
552.982	8.12
553.176	8.02
553.369	8.2
553.563	8.17
553.756	8.02
553.95	8.11
554.144	8.17
554.337	8.18
554.531	7.95
554.724	8.17
554.918	8.23
555.111	8.11
555.305	8.13
555.498	8.09
555.692	8.18
555.885	8.14
556.079	8.05
556.272	8.09
556.466	8.11
556.659	8.11
556.852	8.19
557.046	8.02
557.239	8.02
557.432	8.06
557.626	8.11
557.819	8.2
558.012	8.17
558.206	8.23
558.399	8.12
558.592	8.01
558.785	8.08
558.979	8.09
559.172	8.12
559.365	8.1
559.558	8.04
559.751	8.04
559.944	8.16
560.138	8.04
560.331	8.14
560.524	8.15
560.717	8.07
560.91	8.12
561.103	8.1
561.296	7.95
561.489	8.18
561.682	8.2
561.875	8.18
562.068	8.23
562.261	7.99
562.454	8.27
562.647	8.1
562.84	8.15
563.032	8.17
563.225	8.08
563.418	8.01
563.611	8.13
563.804	8.14
563.997	8.02
564.19	7.88
564.382	8.18
564.575	8.07
564.768	8.04
564.961	8.17
565.153	8.05
565.346	7.98
565.539	8.2
565.731	8.1
565.924	8.15
566.117	8.26
566.309	8.16
566.502	8.04
566.695	8
566.887	8.13
567.08	8.07
567.272	8.12
567.465	7.99
567.657	8.16
567.85	8
568.042	8.1
568.235	8.18
568.427	8
568.62	8.02
568.812	8.04
569.005	8.13
569.197	7.96
569.389	8.12
569.582	8.09
569.774	8.06
569.966	7.94
570.159	7.89
570.351	7.93
570.543	8.03
570.736	8.06
570.928	7.86
571.12	8.08
571.312	7.98
571.505	7.83
571.697	8.05
571.889	7.99
572.081	8.01
572.273	7.9
572.465	8.02
572.658	8.08
572.85	8.01
573.042	8.01
573.234	7.92
573.426	7.91
573.618	7.92
573.81	8.06
574.002	8
574.194	8.01
574.386	7.9
574.578	7.78
574.77	7.87
574.962	7.95
575.154	7.82
575.346	7.83
575.538	7.86
575.729	7.82
575.921	7.95
576.113	7.99
576.305	7.95
576.497	7.98
576.689	7.74
576.88	7.78
577.072	7.99
577.264	7.83
577.456	7.9
577.647	7.85
577.839	7.98
578.031	7.81
578.223	7.82
578.414	7.71
578.606	7.88
578.798	7.86
578.989	7.84
579.181	7.88
579.372	7.79
579.564	7.83
579.755	7.72
579.947	7.71
580.139	7.85
580.33	7.69
580.522	7.78
580.713	7.69
580.905	7.71
581.096	7.79
581.287	7.78
581.479	7.68
581.67	7.78
581.862	7.68
582.053	7.71
582.244	7.6
582.436	7.8
582.627	7.65
582.818	7.67
583.01	7.63
583.201	7.75
583.392	7.7
583.583	7.62
583.775	7.44
583.966	7.58
584.157	7.61
584.348	7.64
584.54	7.59
584.731	7.67
584.922	7.53
585.113	7.4
585.304	7.53
585.495	7.59
585.686	7.69
585.877	7.63
586.068	7.72
586.259	7.56
586.45	7.54
586.641	7.55
586.832	7.55
587.023	7.53
587.214	7.5
587.405	7.51
587.596	7.39
587.787	7.35
587.978	7.47
588.169	7.47
588.36	7.37
588.551	7.42
588.742	7.46
588.932	7.48
589.123	7.26
589.314	7.53
589.505	7.31
589.696	7.41
589.886	7.37
590.077	7.4
590.268	7.34
590.458	7.25
590.649	7.13
590.84	7.34
591.03	7.26
591.221	7.26
591.412	7.17
591.602	7.42
591.793	7.27
591.984	7.25
592.174	7.19
592.365	7.38
592.555	7.12
592.746	7.15
592.936	7.18
593.127	7.3
593.317	7.19
593.508	7.19
593.698	7.11
593.889	7.1
594.079	7.09
594.269	7.02
594.46	7.01
594.65	7.08
594.84	7.07
595.031	6.88
595.221	6.99
595.411	7.07
595.602	7.03
595.792	7.02
595.982	6.9
596.172	7.11
596.363	6.92
596.553	6.94
596.743	6.94
596.933	6.97
597.123	6.84
597.314	6.77
597.504	6.78
597.694	6.92
597.884	6.82
598.074	6.9
598.264	6.84
598.454	6.75
598.644	6.74
598.834	6.8
599.024	6.66
599.214	6.66
599.404	6.77
599.594	6.75
599.784	6.62
599.974	6.76
600.164	6.73
600.354	6.59
600.544	6.52
600.734	6.66
600.924	6.56
601.114	6.52
601.303	6.56
601.493	6.56
601.683	6.63
601.873	6.58
602.063	6.43
602.252	6.5
602.442	6.39
602.632	6.45
602.821	6.41
603.011	6.43
603.201	6.43
603.39	6.43
603.58	6.35
603.77	6.45
603.959	6.47
604.149	6.33
604.339	6.33
604.528	6.47
604.718	6.32
604.907	6.25
605.097	6.21
605.286	6.19
605.476	6.26
605.665	6.32
605.855	6.27
606.044	6.28
606.234	6.28
606.423	6.18
606.612	6.22
606.802	6.11
606.991	6.14
607.181	6.19
607.37	6.17
607.559	5.96
607.749	6.08
607.938	5.96
608.127	6.04
608.316	6.09
608.506	6
608.695	6.06
608.884	5.96
609.073	5.96
609.263	6.05
609.452	6
609.641	5.92
609.83	5.83
610.019	5.99
610.208	5.83
610.397	5.84
610.586	5.96
610.775	5.81
610.965	5.86
611.154	5.69
611.343	5.81
611.532	5.72
611.721	5.83
611.91	5.72
612.099	5.8
612.287	5.59
612.476	5.62
612.665	5.74
612.854	5.59
613.043	5.73
613.232	5.67
613.421	5.48
613.61	5.63
613.798	5.56
613.987	5.61
614.176	5.54
614.365	5.56
614.554	5.52
614.742	5.53
614.931	5.4
615.12	5.52
615.309	5.48
615.497	5.45
615.686	5.31
615.875	5.46
616.063	5.41
616.252	5.32
616.44	5.32
616.629	5.27
616.818	5.34
617.006	5.22
617.195	5.23
617.383	5.27
617.572	5.2
617.76	5.17
617.949	5.19
618.137	5.21
618.326	5.26
618.514	4.97
618.703	5.06
618.891	5.23
619.079	5.04
619.268	5.13
619.456	4.95
619.644	5.19
619.833	5.02
620.021	5.06
620.209	4.91
620.398	5.01
620.586	4.93
620.774	5.01
620.962	4.92
621.151	5.02
621.339	4.86
621.527	4.84
621.715	4.8
621.903	4.87
622.092	4.76
622.28	4.86
622.468	4.61
622.656	4.8
622.844	4.76
623.032	4.86
623.22	4.63
623.408	4.84
623.596	4.67
623.784	4.74
623.972	4.66
624.16	4.63
624.348	4.77
624.536	4.73
624.724	4.6
624.912	4.6
625.1	4.68
625.288	4.65
625.476	4.48
625.664	4.61
625.851	4.45
626.039	4.54
626.227	4.42
626.415	4.51
626.603	4.38
626.79	4.47
626.978	4.44
627.166	4.49
627.354	4.4
627.541	4.44
627.729	4.21
627.917	4.51
628.104	4.41
628.292	4.31
628.48	4.34
628.667	4.31
628.855	4.36
629.042	4.37
629.23	4.27
629.418	4.28
629.605	4.23
629.793	4.18
629.98	4.19
630.168	4.18
630.355	4.22
630.543	4.15
630.73	4.09
630.917	4.14
631.105	4.21
631.292	4.09
631.48	4.1
631.667	4.2
631.854	4.02
632.042	3.98
632.229	3.92
632.416	4.01
632.604	4.02
632.791	3.83
632.978	3.91
633.165	3.94
633.353	4.02
633.54	4.02
633.727	3.82
633.914	3.79
634.101	3.79
634.289	3.93
634.476	3.79
634.663	3.76
634.85	3.83
635.037	3.77
635.224	3.68
635.411	3.8
635.598	3.69
635.785	3.7
635.972	3.67
636.159	3.67
636.346	3.7
636.533	3.59
636.72	3.6
636.907	3.63
637.094	3.64
637.281	3.49
637.468	3.58
637.655	3.61
637.842	3.64
638.029	3.53
638.215	3.49
638.402	3.56
638.589	3.47
638.776	3.47
638.963	3.49
639.149	3.49
639.336	3.56
639.523	3.42
639.709	3.42
639.896	3.36
640.083	3.36
640.27	3.41
640.456	3.36
640.643	3.36
640.829	3.23
641.016	3.26
641.203	3.2
641.389	3.3
641.576	3.3
641.762	3.24
641.949	3.19
642.135	3.28
642.322	3.22
642.508	3.16
642.695	3.21
642.881	3.17
643.068	3.19
643.254	3.17
643.441	3.15
643.627	3.16
643.813	3.08
644	3.19
644.186	3
644.372	3.06
644.559	3.14
644.745	3.01
644.931	2.96
645.118	3.05
645.304	3.03
645.49	3.01
645.676	2.97
645.862	2.97
646.049	3.05
646.235	2.95
646.421	3.07
646.607	3.04
646.793	2.93
646.979	2.8
647.165	2.91
647.352	2.89
647.538	2.86
647.724	2.81
647.91	2.78
648.096	2.92
648.282	2.87
648.468	2.79
648.654	2.8
648.84	2.81
649.026	2.8
649.212	2.73
649.397	2.69
649.583	2.67
649.769	2.79
649.955	2.68
650.141	2.73
650.327	2.77
650.513	2.65
650.698	2.71
650.884	2.52
651.07	2.68
651.256	2.61
651.442	2.64
651.627	2.54
651.813	2.65
651.999	2.52
652.184	2.59
652.37	2.55
652.556	2.52
652.741	2.6
652.927	2.37
653.113	2.48
653.298	2.5
653.484	2.49
653.669	2.47
653.855	2.49
654.04	2.51
654.226	2.43
654.412	2.44
654.597	2.37
654.782	2.45
654.968	2.45
655.153	2.41
655.339	2.36
655.524	2.35
655.71	2.41
655.895	2.33
656.08	2.31
656.266	2.42
656.451	2.29
656.636	2.28
656.822	2.3
657.007	2.29
657.192	2.31
657.378	2.2
657.563	2.23
657.748	2.3
657.933	2.28
658.118	2.22
658.304	2.23
658.489	2.27
658.674	2.21
658.859	2.14
659.044	2.22
659.229	2.23
659.414	2.13
659.599	2.15
659.785	2.07
659.97	2.15
660.155	2.14
660.34	2.14
660.525	2.05
660.71	2.04
660.895	2.12
661.08	2.1
661.264	2.03
661.449	2.13
661.634	2.07
661.819	2.1
662.004	2.06
662.189	1.97
662.374	1.98
662.559	2.04
662.743	1.89
662.928	2.04
663.113	1.94
663.298	1.92
663.483	1.95
663.667	1.97
663.852	1.87
664.037	1.89
664.221	1.91
664.406	2.01
664.591	1.99
664.775	1.96
664.96	1.92
665.145	1.89
665.329	1.91
665.514	1.83
665.698	1.79
665.883	1.75
666.068	1.98
666.252	1.87
666.437	1.8
666.621	1.82
666.806	1.87
666.99	1.76
667.174	1.78
667.359	1.85
667.543	1.72
667.728	1.79
667.912	1.64
668.096	1.81
668.281	1.75
668.465	1.76
668.649	1.69
668.834	1.7
669.018	1.7
669.202	1.68
669.387	1.7
669.571	1.74
669.755	1.65
669.939	1.7
670.124	1.67
670.308	1.71
670.492	1.67
670.676	1.64
670.86	1.64
671.044	1.59
671.228	1.64
671.413	1.57
671.597	1.52
671.781	1.59
671.965	1.62
672.149	1.56
672.333	1.58
672.517	1.51
672.701	1.58
672.885	1.53
673.069	1.4
673.253	1.65
673.437	1.49
673.621	1.52
673.804	1.59
673.988	1.54
674.172	1.57
674.356	1.47
674.54	1.48
674.724	1.59
674.908	1.46
675.091	1.5
675.275	1.48
675.459	1.54
675.643	1.55
675.826	1.44
676.01	1.39
676.194	1.47
676.377	1.44
676.561	1.44
676.745	1.45
676.928	1.41
677.112	1.45
677.296	1.43
677.479	1.45
677.663	1.38
677.846	1.46
678.03	1.37
678.213	1.31
678.397	1.38
678.58	1.33
678.764	1.38
678.947	1.3
679.131	1.44
679.314	1.39
679.498	1.36
679.681	1.32
679.865	1.44
680.048	1.34
680.231	1.31
680.415	1.25
680.598	1.27
680.781	1.3
680.965	1.31
681.148	1.32
681.331	1.21
681.514	1.33
681.698	1.19
681.881	1.24
682.064	1.27
682.247	1.34
682.43	1.16
682.614	1.23
682.797	1.29
682.98	1.27
683.163	1.15
683.346	1.24
683.529	1.2
683.712	1.2
683.895	1.19
684.078	1.12
684.261	1.17
684.444	1.21
684.627	1.19
684.81	1.14
684.993	1.22
685.176	1.2
685.359	1.06
685.542	1.14
685.725	1.25
685.908	1.14
686.091	1.1
686.274	1.17
686.457	1.18
686.639	1.16
686.822	1.15
687.005	1.1
687.188	1.17
687.371	1.29
687.553	1.16
687.736	1.1
687.919	1.22
688.102	1.23
688.284	1.07
688.467	1.08
688.65	1.09
688.832	1.03
689.015	1.03
689.197	0.97
689.38	1.15
689.563	1.24
689.745	1
689.928	0.98
690.11	1.08
690.293	1.05
690.475	0.9
690.658	1.09
690.84	1.03
691.023	1.03
691.205	0.98
691.388	1.04
691.57	1.08
691.752	1.02
691.935	0.9
692.117	0.99
692.3	1.03
692.482	0.95
692.664	0.94
692.847	0.9
693.029	1.08
693.211	1.02
693.393	0.88
693.576	0.9
693.758	0.99
693.94	0.99
694.122	0.91
694.304	0.85
694.487	0.93
694.669	1.01
694.851	0.85
695.033	0.87
695.215	0.89
695.397	0.9
695.579	0.89
695.761	0.84
695.943	0.82
696.125	1.04
696.308	0.93
696.49	0.77
696.671	1.05
696.853	0.9
697.035	1.17
697.217	0.82
697.399	1.01
697.581	0.82
697.763	0.9
697.945	0.77
698.127	0.91
698.309	0.94
698.491	0.93
698.672	0.89
698.854	0.95
699.036	0.92
699.218	0.78
699.399	0.88
699.581	0.91
699.763	0.83
699.945	0.75
700.126	0.76
700.308	0.82
700.49	0.78
700.671	0.68
700.853	0.76
701.035	0.82
701.216	0.86
701.398	0.72
701.579	0.76
701.761	0.82
701.943	0.73
702.124	0.72
702.306	0.79
702.487	0.95
702.669	0.83
702.85	0.72
703.031	0.73
703.213	0.91
703.394	0.91
703.576	0.76
703.757	0.9
703.938	0.89
704.12	0.99
704.301	0.79
704.483	0.73
704.664	0.79
704.845	0.89
705.026	0.82
705.208	0.71
705.389	0.84
705.57	0.74
705.751	0.79
705.933	0.7
706.114	0.78
706.295	0.75
706.476	0.64
706.657	0.82
706.838	0.8
707.02	0.8
707.201	0.71
707.382	0.7
707.563	0.72
707.744	0.65
707.925	0.6
708.106	0.67
708.287	0.71
708.468	0.82
708.649	0.73
708.83	0.75
709.011	0.66
709.192	0.72
709.373	0.58
709.554	0.65
709.734	0.83
709.915	0.79
710.096	0.68
710.277	0.57
710.458	0.68
710.639	0.73
710.819	0.59
711	0.58
711.181	0.75
711.362	0.73
711.542	0.7
711.723	0.64
711.904	0.77
712.085	0.77
712.265	0.64
712.446	0.58
712.627	0.61
712.807	0.59
712.988	0.61
713.168	0.54
713.349	0.73
713.53	0.49
713.71	0.6
713.891	0.5
714.071	0.65
714.252	0.53
714.432	0.64
714.613	0.53
714.793	0.62
714.974	0.73
715.154	0.7
715.334	0.59
715.515	0.84
715.695	0.58
715.876	0.63
716.056	0.54
716.236	0.55
716.417	0.59
716.597	0.6
716.777	0.87
716.957	0.57
717.138	0.65
717.318	0.54
717.498	0.42
717.678	0.61
717.859	0.61
718.039	0.44
718.219	0.54
718.399	0.57
718.579	0.54
718.759	0.46
718.939	0.6
719.12	0.56
719.3	0.59
719.48	0.41
719.66	0.43
719.84	0.67
720.02	0.57
720.2	0.52
720.38	0.55
720.56	0.72
720.74	0.42
720.92	0.53
721.1	0.66
721.279	0.58
721.459	0.54
721.639	0.45
721.819	0.54
721.999	0.55
722.179	0.67
722.359	0.4
722.538	0.5
722.718	0.54
722.898	0.54
723.078	0.51
723.257	0.44
723.437	0.6
723.617	0.46
723.797	0.53
723.976	0.55
724.156	0.67
724.336	0.64
724.515	0.69
724.695	0.38
724.874	0.52
725.054	0.58
725.234	0.51
725.413	0.59
725.593	0.56
725.772	0.51
725.952	0.55
726.131	0.49
726.311	0.5
726.49	0.49
726.67	0.36
726.849	0.58
727.028	0.52
727.208	0.49
727.387	0.57
727.567	0.34
727.746	0.36
727.925	0.52
728.105	0.37
728.284	0.41
728.463	0.42
728.643	0.55
728.822	0.41
729.001	0.38
729.18	0.49
729.359	0.58
729.539	0.43
729.718	0.48
729.897	0.59
730.076	0.45
730.255	0.36
730.434	0.48
730.614	0.54
730.793	0.63
730.972	0.41
731.151	0.45
731.33	0.55
731.509	0.62
731.688	0.42
731.867	0.45
732.046	0.31
732.225	0.75
732.404	0.33
732.583	0.33
732.762	0.52
732.941	0.58
733.12	0.41
733.298	0.36
733.477	0.62
733.656	0.46
733.835	0.36
734.014	0.46
734.193	0.46
734.371	0.58
734.55	0.51
734.729	0.37
734.908	0.46
735.086	0.55
735.265	0.61
735.444	0.32
735.623	0.44
735.801	0.4
735.98	0.38
736.159	0.4
736.337	0.66
736.516	0.57
736.694	0.46
736.873	0.42
737.052	0.74
737.23	0.69
737.409	0.42
737.587	0.7
737.766	0.36
737.944	0.51
738.123	0.53
738.301	0.53
738.479	0.37
738.658	0.52
738.836	0.26
739.015	0.44
739.193	0.59
739.371	0.32
739.55	0.38
739.728	0.38
739.906	0.64
740.085	0.68
740.263	0.48
740.441	0.24
740.62	0.78
740.798	0.49
740.976	0.32
741.154	0.38
741.332	0.69
741.511	0.46
741.689	0.53
741.867	0.52
742.045	0.57
742.223	0.48
742.401	0.46
742.579	0.22
742.757	0.67
742.935	0.32
743.114	0.36
743.292	0.36
743.47	0.46
743.648	0.5
743.826	0.48
744.004	0.47
744.181	0.57
744.359	0.45
744.537	0.44
744.715	0.46
744.893	0.46
745.071	0.49
745.249	0.39
745.427	0.4
745.605	0.59
745.782	0.46
745.96	0.41
746.138	0.52
746.316	0.6
746.493	0.39
746.671	0.34
746.849	0.41
747.027	0.58
747.204	0.44
747.382	0.55
747.56	0.31
747.737	0.45
747.915	0.37
748.093	0.59
748.27	0.36
748.448	0.4
748.625	0.28
748.803	0.3
748.98	0.29
749.158	0.47
749.335	0.49
749.513	0.36
749.69	0.25
749.868	0.29
750.045	0.44
750.223	0.32
750.4	0.16
750.578	0.59
750.755	0.4
750.932	0.33
751.11	0.45
751.287	0.27
751.464	0.69
751.642	0.27
751.819	0.43
751.996	0.51
752.173	0.44
752.351	0.25
752.528	0.34
752.705	0.36
752.882	0.22
753.06	0.27
753.237	0.48
753.414	0.62
753.591	0.65
753.768	0.51
753.945	0.36
754.122	0.33
754.299	0.48
754.476	0.24
754.654	0.32
754.831	0.54
755.008	0.55
755.185	0.32
755.362	0.31
755.539	0.47
755.716	0.3
755.892	0.33
756.069	0.35
756.246	0.48
756.423	0.47
756.6	0.53
756.777	0.32
756.954	0.48
757.131	0.35
757.307	0.31
757.484	0.18
757.661	0.4
757.838	0.51
758.015	0.29
758.191	0.38
758.368	0.44
758.545	0.55
758.721	0.46
758.898	0.3
759.075	0.43
759.251	0.4
759.428	0.38
759.605	0.24
759.781	0.33
759.958	0.47
760.134	0.32
760.311	0.24
760.488	0.59
760.664	0.59
760.841	0.44
761.017	0.18
761.194	0.49
761.37	0.51
761.547	0.42
761.723	0.26
761.899	0.49
762.076	0.32
762.252	0.18
762.429	0.31
762.605	0.5
762.781	0.37
762.958	0.4
763.134	0.22
763.31	0.22
763.486	0.58
763.663	0.11
763.839	0.44
764.015	0.16
764.191	0.31
764.368	0.29
764.544	0.19
764.72	0.41
764.896	0.51
765.072	0.41
765.248	0.28
765.425	0.25
765.601	0.35
765.777	0.34
765.953	0.18
766.129	0.26
766.305	0.3
766.481	0.38
766.657	0.37
766.833	0.55
767.009	0.2
767.185	0.35
767.361	0.23
767.537	0.21
767.713	0.67
767.889	0.25
768.065	0.32
768.24	0.23
768.416	0.49
768.592	0.27
768.768	0.34
768.944	0.51
769.12	0.24
769.295	0.33
769.471	0.38
769.647	0.35
769.823	0.57
769.998	0.13
770.174	0.15
770.35	0.83
770.525	0.75
770.701	0.49
770.877	0.17
771.052	0.3
771.228	0.66
771.403	0.34
771.579	0.48
771.755	0.87
771.93	0.36
772.106	0.24
772.281	-0.03
772.457	0.36
772.632	0.38
772.808	0.09
772.983	0.37
773.159	0.07
773.334	0.67
773.509	0.27
773.685	0.07
773.86	0.87
774.036	0.48
774.211	0.36
774.386	0.23
774.562	0.55
774.737	0.54
774.912	0.18
775.087	0.59
775.263	0.4
775.438	0.43
775.613	0.25
775.788	0.24
775.964	0.7
776.139	0.96
776.314	0.27
776.489	0.42
776.664	0.55
776.839	0.32
777.014	0.51
777.19	0.52
777.365	0.59
777.54	0.62
777.715	0.28
777.89	0.28
778.065	0.24
778.24	0.19
778.415	0.43
778.59	0.23
778.765	0.36
778.94	0.59
779.115	0.34
779.289	0.32
779.464	0.4
779.639	0.33
779.814	0.06
779.989	0.17
780.164	0.55
780.339	0.37
780.513	0.24
780.688	0.15
780.863	0.34
781.038	0.5
781.212	0.11
781.387	0.39
781.562	0.86
781.737	0.25
781.911	0.5
782.086	0.28
782.261	0.22
782.435	0.85
782.61	0.35
782.784	0.37
782.959	0.7
783.134	0.26
783.308	0.34
783.483	0.32
783.657	1
783.832	0.64
784.006	-0.04
784.181	0.57
784.355	0.77
784.53	0.1
784.704	0.2
784.878	0.7
785.053	0.66
785.227	0.71
785.402	0.79
785.576	0.21
785.75	0.33
785.925	0.43
786.099	0.41
786.273	0.34
786.448	0.84
786.622	0.84
786.796	0.41
786.97	0.32
787.145	1.14
787.319	0.13
787.493	0.21
787.667	-0.09
787.841	0.47
788.015	0.77
788.19	0.22
788.364	0.36
788.538	0.78
788.712	0.49
788.886	0.3
789.06	0.48
789.234	0.54
789.408	0.22
789.582	0.18
789.756	0.31
789.93	0.34
790.104	0.33
790.278	0.5
790.452	0.11
790.626	0.54
790.8	0.26
790.973	0.51
791.147	0.61
791.321	0.75
791.495	0.85
791.669	0.48
791.843	0.57
792.016	0.72
792.19	1.02
792.364	0.22
792.538	1.21
792.711	0.74
792.885	0.22
793.059	0.16
793.233	-0.15
793.406	0.73
793.58	0.49
793.754	0.58
793.927	0.34
794.101	0.9
794.274	0.51
794.448	0.63
794.622	-0.07
794.795	0.95
794.969	0.58
795.142	0.87
795.316	0.19
795.489	0.45
795.663	0.91
795.836	0.37
796.009	0.23
796.183	0.9
796.356	0.75
796.53	0.4
796.703	0.31
796.876	1.33
797.05	0.31
797.223	0.28
797.396	0.29
797.57	0.48
797.743	0.96
797.916	0.42
798.09	0.45
798.263	1
798.436	0.65
798.609	0.28
798.782	0.23
798.956	0.7
799.129	0.6
799.302	0.44
799.475	0.35
799.648	0.35
799.821	0.11
799.994	0.31
800.167	-0.13
800.34	0.5
800.514	0.65
800.687	0.29
800.86	0.16
801.033	0.84
801.206	0.61
801.379	0.11
801.551	0.57
801.724	0.33
801.897	1
802.07	0.53
802.243	-0.03
802.416	0.41
802.589	0.59
802.762	0.68
802.935	0.5
803.107	1
803.28	0.78
803.453	0.63
803.626	0.15
803.798	0.39
803.971	0.34
804.144	0.52
804.317	0.47
804.489	0.79
804.662	0.73
804.835	0.57
805.007	0.02
805.18	1.08
805.353	0.71
805.525	0.25
805.698	0.23
805.87	0.8
806.043	0.88
806.215	-0.06
806.388	0.36
806.56	0.62
806.733	1.03
806.905	0.7
807.078	0.27
807.25	0.5
807.423	0.86
807.595	0.56
807.768	0.27
807.94	0.95
808.112	0.6
808.285	0.42
808.457	0.39
808.629	0.6
808.802	0.87
808.974	0.4
809.146	0.32
809.318	0.47
809.491	0.8
809.663	0.55
809.835	0.21
810.007	0.73
810.18	0.68
810.352	-0.04
810.524	0.5
810.696	0.91
810.868	1.05
811.04	0.41
811.212	0.3
811.384	0.83
811.556	0.81
811.728	0.7
811.901	1.58
812.073	0.49
812.245	0.82
812.417	0.33
812.589	0.04
812.76	0.79
812.932	0.57
813.104	0.55
813.276	0.64
813.448	0.83
813.62	0.89
813.792	0.33
813.964	0.33
814.136	0.72
814.307	0.69
814.479	0.06
814.651	0.24
814.823	1.46
814.995	0.51
815.166	0.94
815.338	0.32
815.51	0.05
815.681	1.34
815.853	0.48
816.025	0.53
816.196	1.51
816.368	1.1
816.54	0.14
816.711	0.48
816.883	1.37
817.054	2.18
817.226	0.02
817.398	0.99
817.569	0.45
817.741	0.94
817.912	0.38
818.084	0.19
818.255	1.58
818.426	0.51
818.598	0.54
818.769	0.33
818.941	1.12
819.112	1.36
819.283	0.98
819.455	0.18
819.626	0.48
819.798	0.87
819.969	0.92
820.14	0.39
820.311	0.93
820.483	1.25
820.654	0.87
820.825	0.63
820.996	0.91
821.168	0.13
821.339	0.74
821.51	-0.05
821.681	0.38
821.852	0.92
822.023	0.17
822.195	0.37
822.366	1.31
822.537	0.47
822.708	0.91
822.879	0.56
823.05	1.62
823.221	0.47
823.392	1.02
823.563	0.52
823.734	0.84
823.905	0.82
824.076	0.5
824.247	0.22
824.418	1.22
824.589	1.72
824.759	0.48
824.93	0.68
825.101	0.25
825.272	1.46
825.443	1.46
825.614	1.26
825.784	0.22
825.955	1.6
826.126	1.71
826.297	0.99
826.467	2.1
826.638	2.38
826.809	0.28
826.98	0.93
827.15	1.47
827.321	1.11
827.492	1.02
827.662	0.36
827.833	2.34
828.003	1.5
828.174	0.35
828.345	-0.03
828.515	2.06
828.686	0.88
828.856	0.23
829.027	0.06
829.197	1.42
829.368	1.33
829.538	0.46
829.709	0.28
829.879	0.83
830.049	0.68
830.22	0.57
830.39	0.44
830.56	1.63
830.731	0.61
830.901	0.32
831.072	0.59
831.242	0.47
831.412	1.78
831.582	0.64
831.753	-0.04
831.923	1.62
832.093	0.95
832.263	0.78
832.434	-0.08
832.604	0
832.774	1.35
832.944	0.93
833.114	0.37
833.284	1.19
833.454	0.15
833.624	0.82
833.795	0.49
833.965	1.98
834.135	2.03
834.305	-0.32
834.475	-0.52
834.645	1.05
834.815	0.66
834.985	0.7
835.155	0.69
835.325	1.33
835.494	1.18
835.664	0.4
835.834	0.74
836.004	0.57
836.174	1.11
836.344	1.16
836.514	-0.06
836.684	0.52
836.853	0.4
837.023	1.24
837.193	0.29
837.363	2.12
837.532	1.3
837.702	1.32
837.872	-0.25
838.041	1.51
838.211	2.28
838.381	0.02
838.55	0.16
838.72	4.1
838.89	2.62
839.059	0.26
839.229	0.53
839.398	2.47
839.568	0.79
839.738	0.8
839.907	2.15
840.077	0.66
840.246	-0.23
840.416	0.2
840.585	-0.01
840.755	2.04
840.924	2.2
841.093	0.6
841.263	0.32
841.432	1.22
841.602	0.08
841.771	0.38
841.94	0.71
842.11	3.11
842.279	2.7
842.448	0.43
842.617	-0.06
842.787	2.61
842.956	0.13
843.125	0.58
843.294	0.14
843.464	2.32
843.633	1.46
843.802	0.41
843.971	0.97
844.14	2.23
844.309	1.94
844.479	-0.32
844.648	-0.93
844.817	0.63
844.986	2.11
845.155	-0.25
845.324	1
845.493	1.26
845.662	0.85
845.831	2.04
846	2.21
846.169	0.79
846.338	3.42
846.507	1.79
846.676	0.91
846.844	0.33
847.013	1.94
847.182	1.35
847.351	0.31
847.52	1.61
847.689	1.16
847.858	0.29
848.026	0.6
848.195	1.49
848.364	0.65
848.533	0.64
848.701	0.52
848.87	1.17
849.039	2.07
849.207	2.04
849.376	3.41
849.545	3.27
849.713	0.35
849.882	1.44
850.051	1.28
850.219	1.85
850.388	2.35
850.556	0.45
850.725	0.53
850.893	0.84
851.062	0.54
851.23	2.18
851.399	0.19
851.567	0.96
851.736	0.59
851.904	0.05
852.073	1.18
852.241	3.2
852.41	1.75
852.578	1.23
852.746	-0.02
852.915	2.45
853.083	1.54
853.251	-0.12
853.42	1.18
853.588	1.95
853.756	2.94
853.924	0.94
854.093	1.52
854.261	1.2
854.429	0.51
854.597	1.25
854.765	-0.07
854.934	2.71
855.102	3.24
855.27	1.06
855.438	3.45
855.606	3
855.774	3.65
855.942	-0.48
856.11	0.11
856.278	0.98
856.446	2.2
856.614	0.89
856.782	-0.24
856.95	2.98
857.118	2.76
857.286	1.04
857.454	1.32
857.622	3.08
857.79	2.32
857.958	-0.12
858.126	0.36
858.294	-0.7
858.462	1.64
858.629	0.14
858.797	0.06
858.965	1.65
859.133	2.38
859.301	1.14
859.468	2.76
859.636	0.48
859.804	4.06
859.971	1.48
860.139	0.59
860.307	3.33
860.474	1.66
860.642	-0.61
860.81	0.2
860.977	0.88
861.145	2.23
861.313	0.91
861.48	2.13
861.648	2.55
861.815	2.44
861.983	0.26
862.15	0.26
862.318	1.73
862.485	3.8
862.653	-0.49
862.82	0.28
862.988	3.11
863.155	0.42
863.322	0.05
863.49	-0.7
863.657	1.89
863.824	4.78
863.992	2.27
864.159	1.31
864.326	3.56
864.494	1.57
864.661	3.97
864.828	0.81
864.996	3.59
865.163	4.66
865.33	0.9
865.497	-1.24
865.664	0.34
865.832	-0.83
865.999	1.67
866.166	1.47
866.333	1.54
866.5	1.18
866.667	0.83
866.834	1.26
867.001	3.54
867.168	0.14
867.335	1.04
867.502	-1.22
867.669	2.07
867.836	3.46
868.003	1.24
868.17	1.97
868.337	5.3
868.504	6.05
868.671	-0.69
868.838	1.23
869.005	3.93
869.172	2.9
869.339	1.17
869.505	2.21
869.672	2.41
869.839	2.51
870.006	1.17
870.173	-0.64
870.339	1.44
870.506	5.47
870.673	0.8
870.84	2.48
871.006	0.53
871.173	1.87
871.34	1.68
871.506	-0.31
871.673	2.91
871.839	-1.69
872.006	1.94
872.173	1.52
872.339	2.07
872.506	4.1
872.672	0.82
872.839	0.72
873.005	3.89
873.172	4.89
873.338	3.89
873.505	2.66
873.671	5.28
873.838	2.24
874.004	-0.52
874.171	1.15
874.337	4.01
874.503	2.4
874.67	0.73
874.836	1.97
875.002	4.45
875.169	3.72
875.335	2.01
875.501	-0.31
875.668	4.57
875.834	1.96
876	-0.28
876.166	1.19
876.332	4.28
876.499	5.29
876.665	1.26
876.831	2.51
876.997	6.25
877.163	2.25
877.329	0.03
877.495	1.47
877.662	4
877.828	4.24
877.994	2.38
878.16	-2.3
878.326	2.56
878.492	2.66
878.658	1.25
878.824	2.63
878.99	2.8
879.156	2.21
879.322	5.38
879.487	-0.03
879.653	2.79
879.819	3.85
879.985	0.29
880.151	2.84
880.317	3.41
880.483	1.84
880.648	3.46
880.814	1.46
880.98	2.95
881.146	-1.57
881.312	0.85
881.477	1.53
881.643	1.1
881.809	3.28
881.974	3.77
882.14	-1.93
882.306	3.08
882.471	7.24
882.637	0.38
882.803	3.04
882.968	4.68
883.134	5.9
883.299	1.95
883.465	2.34
883.63	4.11
883.796	3.74
883.961	3.64
884.127	3.62
884.292	-3.37
884.458	0.43
884.623	0.43
