Data from Apollo_Calib_20240827__AbsoluteIrradiance__825__12-54-02-881.txt Node

Date: Wed Aug 28 12:54:02 BST 2024
User: biology
Spectrometer: FLMT08252
Trigger mode: 0
Integration Time (sec): 5.000000E-1
Scans to average: 5
Electric dark correction enabled: true
Nonlinearity correction enabled: false
Boxcar width: 0
XAxis mode: Wavelengths
Number of Pixels in Spectrum: 3648
>>>>>Begin Spectral Data<<<<<
179.588	-0
179.809	-0
180.03	-0
180.251	-0
180.473	-0
180.694	0
180.915	0
181.136	-0
181.357	0
181.578	0
181.799	-0
182.02	-0
182.241	-0
182.462	0
182.683	0
182.904	-0
183.125	-0
183.346	0
183.567	0
183.788	0
184.009	0
184.23	0
184.451	0
184.672	0
184.892	0
185.113	0
185.334	0
185.555	0
185.776	0
185.996	0
186.217	0
186.438	0
186.659	0
186.879	0
187.1	0
187.321	0
187.541	0
187.762	0
187.983	0
188.203	0
188.424	0
188.644	0
188.865	0
189.086	0
189.306	0
189.527	0
189.747	0
189.968	0
190.188	0
190.409	0
190.629	0
190.849	0
191.07	0
191.29	0
191.511	0
191.731	0
191.951	0
192.172	0
192.392	0
192.612	0
192.833	0
193.053	0
193.273	0
193.493	0
193.714	0
193.934	0
194.154	0
194.374	0
194.594	0
194.815	0
195.035	0
195.255	0
195.475	0
195.695	0
195.915	0
196.135	0
196.355	0
196.575	0
196.795	0
197.015	0
197.235	0
197.455	0
197.675	0
197.895	0
198.115	0
198.335	0
198.555	0
198.775	0
198.995	0
199.214	0
199.434	0
199.654	0
199.874	0
200.094	3.93
200.313	2
200.533	2.04
200.753	1.11
200.973	3.8
201.192	3.48
201.412	1.32
201.632	1.5
201.851	3.48
202.071	1.61
202.291	1.76
202.51	1.21
202.73	2.4
202.95	1.96
203.169	1.04
203.389	1.9
203.608	2.34
203.828	1.77
204.047	1.43
204.267	2.32
204.486	2.23
204.706	2.24
204.925	2
205.145	1.3
205.364	2.23
205.583	2.47
205.803	1.39
206.022	0.95
206.242	1.73
206.461	1.94
206.68	1.36
206.9	1.72
207.119	2.68
207.338	1.96
207.557	1.29
207.777	1.22
207.996	1.04
208.215	2.31
208.434	0.99
208.654	0.92
208.873	1.38
209.092	2.05
209.311	1.05
209.53	0.96
209.749	1.12
209.968	1.2
210.187	0.86
210.407	0.65
210.626	1.17
210.845	1.64
211.064	1.12
211.283	0.69
211.502	1.34
211.721	1.17
211.94	1.16
212.159	1.12
212.377	1.38
212.596	1.49
212.815	1.12
213.034	1.12
213.253	1.48
213.472	1.34
213.691	0.91
213.91	0.58
214.128	0.71
214.347	1.29
214.566	0.45
214.785	0.5
215.003	1.31
215.222	1.4
215.441	0.85
215.66	0.42
215.878	0.85
216.097	1.23
216.316	0.69
216.534	0.74
216.753	1
216.972	0.8
217.19	0.75
217.409	0.46
217.627	0.73
217.846	0.73
218.064	0.82
218.283	0.5
218.501	1.35
218.72	1.07
218.938	0.42
219.157	0.6
219.375	0.96
219.594	0.92
219.812	0.45
220.031	0.5
220.249	1.35
220.467	1.28
220.686	0.58
220.904	0.37
221.122	0.65
221.341	1.05
221.559	0.8
221.777	0.44
221.995	0.71
222.214	1.07
222.432	0.4
222.65	0.86
222.868	0.7
223.086	0.92
223.305	0.86
223.523	0.62
223.741	1.16
223.959	0.65
224.177	0.24
224.395	0.48
224.613	0.85
224.831	0.89
225.049	0.45
225.267	0.57
225.485	0.84
225.703	0.62
225.921	0.48
226.139	0.53
226.357	0.85
226.575	0.83
226.793	0.49
227.011	1.62
227.229	0.7
227.447	0.86
227.665	0.65
227.883	0.46
228.1	0.59
228.318	0.68
228.536	0.25
228.754	0.45
228.972	0.71
229.189	0.89
229.407	0.48
229.625	0.51
229.843	0.81
230.06	0.73
230.278	0.54
230.496	0.52
230.713	0.57
230.931	0.64
231.149	0.42
231.366	0.32
231.584	0.69
231.801	1.09
232.019	0.41
232.236	0.36
232.454	0.48
232.671	0.68
232.889	0.31
233.106	0.35
233.324	0.56
233.541	0.49
233.759	0.43
233.976	0.39
234.194	0.5
234.411	0.59
234.628	0.37
234.846	0.43
235.063	0.53
235.28	0.51
235.498	0.39
235.715	0.32
235.932	0.84
236.149	0.51
236.367	0.43
236.584	0.59
236.801	0.37
237.018	0.59
237.236	0.49
237.453	0.21
237.67	0.67
237.887	0.53
238.104	0.45
238.321	0.26
238.538	0.34
238.755	0.63
238.973	0.26
239.19	0.47
239.407	0.51
239.624	0.44
239.841	0.38
240.058	0.35
240.275	0.48
240.492	0.41
240.709	0.43
240.925	0.4
241.142	0.54
241.359	0.39
241.576	0.34
241.793	0.37
242.01	0.48
242.227	0.62
242.444	0.47
242.66	0.7
242.877	0.49
243.094	0.41
243.311	0.48
243.527	0.39
243.744	0.58
243.961	0.52
244.178	0.36
244.394	0.34
244.611	0.55
244.828	0.81
245.044	0.33
245.261	0.37
245.477	0.46
245.694	0.55
245.911	0.41
246.127	0.35
246.344	0.64
246.56	0.49
246.777	0.37
246.993	0.43
247.21	0.48
247.426	0.47
247.643	0.31
247.859	0.24
248.076	0.26
248.292	0.72
248.508	0.35
248.725	0.39
248.941	0.52
249.157	0.59
249.374	0.29
249.59	0.3
249.806	0.44
250.023	0.56
250.239	0.22
250.455	0.3
250.671	0.44
250.888	0.47
251.104	0.49
251.32	0.28
251.536	0.36
251.752	0.44
251.969	0.39
252.185	0.36
252.401	0.64
252.617	0.37
252.833	0.4
253.049	0.37
253.265	0.45
253.481	0.45
253.697	0.3
253.913	0.35
254.129	0.44
254.345	0.44
254.561	0.3
254.777	0.3
254.993	0.39
255.209	0.38
255.425	0.31
255.641	0.37
255.857	0.53
256.073	0.44
256.288	0.23
256.504	0.31
256.72	0.42
256.936	0.55
257.152	0.32
257.367	0.33
257.583	0.42
257.799	0.49
258.015	0.31
258.23	0.31
258.446	0.5
258.662	0.39
258.877	0.26
259.093	0.21
259.309	0.36
259.524	0.45
259.74	0.27
259.955	0.27
260.171	0.41
260.387	0.43
260.602	0.4
260.818	0.46
261.033	0.33
261.249	0.37
261.464	0.24
261.68	0.21
261.895	0.4
262.11	0.42
262.326	0.32
262.541	0.17
262.757	0.42
262.972	0.46
263.187	0.37
263.403	0.4
263.618	0.52
263.833	0.38
264.049	0.29
264.264	0.3
264.479	0.38
264.694	0.47
264.91	0.29
265.125	0.37
265.34	0.42
265.555	0.52
265.77	0.38
265.986	0.3
266.201	0.36
266.416	0.45
266.631	0.31
266.846	0.29
267.061	0.5
267.276	0.38
267.491	0.23
267.706	0.38
267.921	0.41
268.136	0.31
268.351	0.29
268.566	0.19
268.781	0.44
268.996	0.51
269.211	0.24
269.426	0.23
269.641	0.31
269.856	0.44
270.071	0.27
270.285	0.2
270.5	0.45
270.715	0.37
270.93	0.33
271.145	0.34
271.359	0.44
271.574	0.32
271.789	0.27
272.004	0.28
272.218	0.37
272.433	0.36
272.648	0.29
272.862	0.35
273.077	0.37
273.292	0.33
273.506	0.27
273.721	0.26
273.936	0.42
274.15	0.48
274.365	0.26
274.579	0.38
274.794	0.36
275.008	0.4
275.223	0.19
275.437	0.32
275.652	0.4
275.866	0.44
276.081	0.25
276.295	0.38
276.509	0.29
276.724	0.33
276.938	0.26
277.153	0.28
277.367	0.36
277.581	0.24
277.796	0.23
278.01	0.2
278.224	0.37
278.438	0.41
278.653	0.25
278.867	0.18
279.081	0.19
279.295	0.29
279.51	0.32
279.724	0.14
279.938	0.38
280.152	0.35
280.366	0.27
280.58	0.36
280.794	0.46
281.008	0.36
281.222	0.36
281.437	0.5
281.651	0.3
281.865	0.46
282.079	0.29
282.293	0.17
282.507	0.26
282.721	0.32
282.935	0.29
283.148	0.2
283.362	0.24
283.576	0.23
283.79	0.29
284.004	0.25
284.218	0.36
284.432	0.2
284.646	0.27
284.859	0.29
285.073	0.22
285.287	0.29
285.501	0.29
285.714	0.22
285.928	0.25
286.142	0.31
286.356	0.18
286.569	0.25
286.783	0.39
286.997	0.38
287.21	0.31
287.424	0.29
287.637	0.29
287.851	0.26
288.065	0.32
288.278	0.25
288.492	0.29
288.705	0.24
288.919	0.3
289.132	0.18
289.346	0.33
289.559	0.21
289.773	0.19
289.986	0.26
290.2	0.29
290.413	0.35
290.626	0.23
290.84	0.23
291.053	0.28
291.267	0.38
291.48	0.28
291.693	0.27
291.906	0.19
292.12	0.32
292.333	0.26
292.546	0.24
292.76	0.35
292.973	0.31
293.186	0.32
293.399	0.22
293.612	0.32
293.826	0.21
294.039	0.31
294.252	0.24
294.465	0.3
294.678	0.28
294.891	0.3
295.104	0.19
295.317	0.25
295.53	0.35
295.743	0.24
295.956	0.24
296.169	0.36
296.382	0.3
296.595	0.21
296.808	0.2
297.021	0.29
297.234	0.38
297.447	0.26
297.66	0.27
297.873	0.32
298.086	0.32
298.299	0.25
298.511	0.17
298.724	0.27
298.937	0.19
299.15	0.17
299.363	0.24
299.575	0.31
299.788	0.29
300.001	0.24
300.213	0.19
300.426	0.2
300.639	0.25
300.852	0.18
301.064	0.27
301.277	0.35
301.489	0.29
301.702	0.27
301.915	0.27
302.127	0.24
302.34	0.26
302.552	0.28
302.765	0.23
302.977	0.31
303.19	0.25
303.402	0.21
303.615	0.21
303.827	0.24
304.04	0.22
304.252	0.3
304.464	0.27
304.677	0.39
304.889	0.32
305.102	0.25
305.314	0.21
305.526	0.3
305.739	0.3
305.951	0.18
306.163	0.23
306.375	0.33
306.588	0.24
306.8	0.23
307.012	0.15
307.224	0.23
307.436	0.32
307.649	0.15
307.861	0.25
308.073	0.27
308.285	0.25
308.497	0.17
308.709	0.19
308.921	0.26
309.133	0.3
309.346	0.22
309.558	0.22
309.77	0.32
309.982	0.33
310.194	0.28
310.406	0.23
310.617	0.34
310.829	0.27
311.041	0.31
311.253	0.21
311.465	0.22
311.677	0.27
311.889	0.26
312.101	0.22
312.313	0.31
312.524	0.33
312.736	0.2
312.948	0.25
313.16	0.33
313.372	0.28
313.583	0.27
313.795	0.26
314.007	0.21
314.218	0.3
314.43	0.26
314.642	0.25
314.853	0.18
315.065	0.28
315.277	0.22
315.488	0.27
315.7	0.36
315.912	0.28
316.123	0.21
316.335	0.23
316.546	0.35
316.758	0.22
316.969	0.21
317.181	0.27
317.392	0.22
317.604	0.36
317.815	0.2
318.026	0.22
318.238	0.23
318.449	0.31
318.661	0.19
318.872	0.19
319.083	0.22
319.295	0.26
319.506	0.28
319.717	0.21
319.929	0.32
320.14	0.26
320.351	0.23
320.562	0.23
320.774	0.28
320.985	0.25
321.196	0.21
321.407	0.15
321.618	0.32
321.829	0.21
322.041	0.29
322.252	0.22
322.463	0.26
322.674	0.3
322.885	0.2
323.096	0.23
323.307	0.26
323.518	0.27
323.729	0.24
323.94	0.21
324.151	0.25
324.362	0.29
324.573	0.24
324.784	0.24
324.995	0.33
325.206	0.3
325.417	0.29
325.628	0.21
325.838	0.28
326.049	0.25
326.26	0.26
326.471	0.23
326.682	0.25
326.892	0.25
327.103	0.12
327.314	0.16
327.525	0.34
327.735	0.33
327.946	0.22
328.157	0.21
328.368	0.33
328.578	0.23
328.789	0.32
328.999	0.23
329.21	0.24
329.421	0.27
329.631	0.26
329.842	0.21
330.052	0.26
330.263	0.27
330.473	0.28
330.684	0.21
330.894	0.24
331.105	0.28
331.315	0.26
331.526	0.2
331.736	0.37
331.947	0.27
332.157	0.3
332.367	0.2
332.578	0.28
332.788	0.29
332.999	0.35
333.209	0.27
333.419	0.21
333.629	0.27
333.84	0.25
334.05	0.25
334.26	0.34
334.47	0.26
334.681	0.3
334.891	0.25
335.101	0.31
335.311	0.36
335.521	0.24
335.732	0.17
335.942	0.34
336.152	0.25
336.362	0.25
336.572	0.26
336.782	0.31
336.992	0.21
337.202	0.23
337.412	0.22
337.622	0.28
337.832	0.26
338.042	0.22
338.252	0.16
338.462	0.2
338.672	0.28
338.882	0.21
339.092	0.26
339.302	0.35
339.511	0.32
339.721	0.22
339.931	0.18
340.141	0.34
340.351	0.28
340.561	0.29
340.77	0.26
340.98	0.23
341.19	0.29
341.4	0.2
341.609	0.21
341.819	0.24
342.029	0.14
342.238	0.25
342.448	0.22
342.658	0.33
342.867	0.27
343.077	0.21
343.286	0.24
343.496	0.29
343.706	0.34
343.915	0.19
344.125	0.25
344.334	0.32
344.544	0.2
344.753	0.21
344.963	0.22
345.172	0.18
345.381	0.24
345.591	0.17
345.8	0.23
346.01	0.29
346.219	0.33
346.428	0.24
346.638	0.24
346.847	0.29
347.056	0.32
347.266	0.2
347.475	0.21
347.684	0.32
347.893	0.26
348.103	0.25
348.312	0.23
348.521	0.27
348.73	0.29
348.94	0.26
349.149	0.21
349.358	0.24
349.567	0.19
349.776	0.18
349.985	0.19
350.194	0.3
350.403	0.32
350.612	0.18
350.821	0.19
351.03	0.27
351.239	0.21
351.448	0.23
351.657	0.19
351.866	0.31
352.075	0.27
352.284	0.32
352.493	0.17
352.702	0.3
352.911	0.31
353.12	0.24
353.329	0.23
353.538	0.29
353.746	0.25
353.955	0.19
354.164	0.29
354.373	0.23
354.582	0.3
354.79	0.26
354.999	0.28
355.208	0.24
355.416	0.33
355.625	0.2
355.834	0.23
356.042	0.26
356.251	0.23
356.46	0.22
356.668	0.24
356.877	0.34
357.085	0.3
357.294	0.14
357.503	0.24
357.711	0.22
357.92	0.46
358.128	0.23
358.337	0.23
358.545	0.31
358.754	0.21
358.962	0.28
359.17	0.2
359.379	0.28
359.587	0.26
359.796	0.23
360.004	0.29
360.212	0.34
360.421	0.3
360.629	0.24
360.837	0.19
361.046	0.27
361.254	0.36
361.462	0.23
361.67	0.17
361.879	0.27
362.087	0.32
362.295	0.26
362.503	0.23
362.711	0.17
362.92	0.24
363.128	0.19
363.336	0.2
363.544	0.18
363.752	0.24
363.96	0.2
364.168	0.2
364.376	0.26
364.584	0.27
364.792	0.29
365	0.27
365.208	0.27
365.416	0.26
365.624	0.28
365.832	0.19
366.04	0.34
366.248	0.29
366.456	0.28
366.664	0.26
366.872	0.26
367.079	0.25
367.287	0.26
367.495	0.29
367.703	0.25
367.911	0.21
368.118	0.26
368.326	0.25
368.534	0.21
368.742	0.34
368.949	0.22
369.157	0.19
369.365	0.26
369.572	0.26
369.78	0.21
369.988	0.27
370.195	0.25
370.403	0.32
370.61	0.2
370.818	0.2
371.026	0.28
371.233	0.21
371.441	0.22
371.648	0.22
371.856	0.27
372.063	0.29
372.271	0.25
372.478	0.29
372.685	0.23
372.893	0.28
373.1	0.2
373.308	0.22
373.515	0.37
373.722	0.3
373.93	0.23
374.137	0.25
374.344	0.35
374.552	0.36
374.759	0.27
374.966	0.26
375.173	0.22
375.381	0.33
375.588	0.24
375.795	0.17
376.002	0.24
376.209	0.2
376.417	0.25
376.624	0.28
376.831	0.3
377.038	0.25
377.245	0.19
377.452	0.19
377.659	0.28
377.866	0.2
378.073	0.2
378.28	0.24
378.487	0.33
378.694	0.32
378.901	0.25
379.108	0.24
379.315	0.34
379.522	0.39
379.729	0.27
379.936	0.22
380.143	0.29
380.35	0.29
380.557	0.24
380.763	0.24
380.97	0.24
381.177	0.27
381.384	0.25
381.591	0.21
381.797	0.29
382.004	0.31
382.211	0.31
382.418	0.18
382.624	0.31
382.831	0.32
383.038	0.24
383.244	0.28
383.451	0.28
383.658	0.34
383.864	0.26
384.071	0.22
384.277	0.34
384.484	0.25
384.69	0.35
384.897	0.23
385.103	0.28
385.31	0.25
385.516	0.22
385.723	0.22
385.929	0.23
386.136	0.24
386.342	0.3
386.549	0.23
386.755	0.34
386.961	0.33
387.168	0.23
387.374	0.25
387.58	0.29
387.787	0.26
387.993	0.35
388.199	0.27
388.406	0.23
388.612	0.25
388.818	0.23
389.024	0.22
389.231	0.31
389.437	0.4
389.643	0.29
389.849	0.27
390.055	0.3
390.261	0.28
390.467	0.32
390.674	0.26
390.88	0.26
391.086	0.36
391.292	0.19
391.498	0.34
391.704	0.29
391.91	0.31
392.116	0.22
392.322	0.21
392.528	0.31
392.734	0.28
392.94	0.31
393.146	0.25
393.352	0.3
393.557	0.28
393.763	0.26
393.969	0.31
394.175	0.29
394.381	0.3
394.587	0.25
394.792	0.3
394.998	0.38
395.204	0.35
395.41	0.25
395.615	0.32
395.821	0.38
396.027	0.34
396.233	0.27
396.438	0.34
396.644	0.38
396.85	0.34
397.055	0.28
397.261	0.33
397.466	0.32
397.672	0.36
397.878	0.36
398.083	0.36
398.289	0.28
398.494	0.43
398.7	0.37
398.905	0.24
399.111	0.39
399.316	0.24
399.522	0.36
399.727	0.34
399.932	0.35
400.138	0.34
400.343	0.36
400.549	0.32
400.754	0.33
400.959	0.39
401.165	0.37
401.37	0.38
401.575	0.27
401.78	0.35
401.986	0.36
402.191	0.31
402.396	0.35
402.601	0.43
402.807	0.41
403.012	0.38
403.217	0.42
403.422	0.44
403.627	0.42
403.832	0.36
404.037	0.44
404.243	0.45
404.448	0.42
404.653	0.35
404.858	0.42
405.063	0.43
405.268	0.39
405.473	0.39
405.678	0.42
405.883	0.6
406.088	0.49
406.293	0.38
406.498	0.44
406.703	0.53
406.907	0.48
407.112	0.42
407.317	0.52
407.522	0.57
407.727	0.45
407.932	0.54
408.136	0.6
408.341	0.52
408.546	0.56
408.751	0.57
408.956	0.58
409.16	0.67
409.365	0.56
409.57	0.6
409.774	0.6
409.979	0.68
410.184	0.67
410.388	0.56
410.593	0.74
410.798	0.71
411.002	0.71
411.207	0.79
411.411	0.8
411.616	0.72
411.82	0.77
412.025	0.8
412.229	0.8
412.434	0.88
412.638	0.86
412.843	0.88
413.047	0.94
413.252	0.91
413.456	0.94
413.66	0.96
413.865	1.01
414.069	1.11
414.273	1.02
414.478	0.97
414.682	1.09
414.886	1.17
415.091	1.11
415.295	1.18
415.499	1.35
415.703	1.27
415.908	1.34
416.112	1.28
416.316	1.53
416.52	1.48
416.724	1.44
416.929	1.48
417.133	1.77
417.337	1.63
417.541	1.67
417.745	1.71
417.949	1.85
418.153	1.92
418.357	1.95
418.561	2.14
418.765	1.98
418.969	2.2
419.173	2.24
419.377	2.24
419.581	2.57
419.785	2.48
419.989	2.44
420.193	2.61
420.397	2.7
420.601	2.89
420.804	2.92
421.008	2.94
421.212	3.03
421.416	3.03
421.62	3.04
421.823	3.13
422.027	3.29
422.231	3.26
422.435	3.28
422.638	3.26
422.842	3.47
423.046	3.54
423.249	3.74
423.453	3.69
423.657	3.82
423.86	3.89
424.064	4.02
424.268	4.21
424.471	4.15
424.675	4.41
424.878	4.44
425.082	4.52
425.285	4.76
425.489	4.75
425.692	4.94
425.896	4.92
426.099	5.13
426.303	5.26
426.506	5.34
426.71	5.59
426.913	5.8
427.116	6
427.32	5.91
427.523	6.12
427.726	6.4
427.93	6.39
428.133	6.67
428.336	6.8
428.54	7
428.743	7.13
428.946	7.4
429.149	7.48
429.353	7.46
429.556	7.52
429.759	7.64
429.962	7.74
430.165	7.9
430.368	7.58
430.571	7.62
430.775	7.59
430.978	7.73
431.181	7.77
431.384	7.81
431.587	7.89
431.79	8.33
431.993	8.22
432.196	8.52
432.399	8.97
432.602	9.13
432.805	9.12
433.008	9.72
433.211	9.5
433.414	9.89
433.616	9.93
433.819	9.78
434.022	10.11
434.225	10.25
434.428	10.22
434.631	10.62
434.833	10.49
435.036	10.76
435.239	10.9
435.442	11.03
435.645	11.14
435.847	11.17
436.05	11.5
436.253	11.82
436.455	11.8
436.658	11.58
436.861	12.04
437.063	12.13
437.266	12.01
437.468	12.43
437.671	12.66
437.874	12.78
438.076	12.5
438.279	13.09
438.481	13.13
438.684	13.75
438.886	13.37
439.089	13.71
439.291	13.77
439.494	14.13
439.696	14.24
439.899	14.78
440.101	15.12
440.303	15.2
440.506	16.11
440.708	15.85
440.91	16.03
441.113	16.17
441.315	16.41
441.517	16.22
441.72	16.8
441.922	16.32
442.124	16.44
442.326	16.69
442.529	16.98
442.731	16.89
442.933	17.13
443.135	16.85
443.337	16.94
443.539	17.43
443.742	17.12
443.944	17.78
444.146	17.52
444.348	17.59
444.55	17.52
444.752	17.71
444.954	17.58
445.156	17.5
445.358	18.2
445.56	18.26
445.762	18.12
445.964	18.33
446.166	18.23
446.368	18.24
446.57	18.3
446.772	17.81
446.974	17.74
447.175	17.99
447.377	17.56
447.579	18.14
447.781	17.84
447.983	17.66
448.184	17.24
448.386	17.54
448.588	17.27
448.79	17.16
448.991	17.32
449.193	17.38
449.395	16.7
449.597	16.45
449.798	16.37
450	15.81
450.202	15.87
450.403	15.94
450.605	15.79
450.806	15.55
451.008	15.35
451.21	15.24
451.411	14.7
451.613	14.03
451.814	14.34
452.016	14.29
452.217	13.57
452.419	13.6
452.62	13.35
452.821	13.05
453.023	12.95
453.224	12.58
453.426	12.12
453.627	11.46
453.828	11.56
454.03	11.62
454.231	11.65
454.432	11.44
454.634	11.17
454.835	10.91
455.036	10.79
455.238	10.42
455.439	10.18
455.64	9.76
455.841	9.74
456.042	9.9
456.244	9.47
456.445	9.15
456.646	8.93
456.847	8.95
457.048	8.8
457.249	8.8
457.45	8.57
457.651	8.05
457.852	7.94
458.054	7.59
458.255	7.47
458.456	7.48
458.657	7.34
458.858	7
459.058	6.9
459.259	7.02
459.46	6.63
459.661	6.64
459.862	6.74
460.063	6.56
460.264	6.57
460.465	6.3
460.666	6.27
460.866	5.92
461.067	5.7
461.268	5.73
461.469	5.66
461.67	5.48
461.87	5.38
462.071	5.41
462.272	5.41
462.473	5.28
462.673	5.42
462.874	5.29
463.075	5.32
463.275	5.3
463.476	5.33
463.676	5.25
463.877	5.06
464.078	5.08
464.278	5.2
464.479	4.98
464.679	4.84
464.88	4.86
465.08	4.86
465.281	4.6
465.481	4.48
465.682	4.29
465.882	4.29
466.083	4.28
466.283	4.16
466.483	3.97
466.684	3.89
466.884	3.73
467.085	3.79
467.285	3.85
467.485	3.73
467.686	3.66
467.886	3.6
468.086	3.49
468.286	3.49
468.487	3.6
468.687	3.38
468.887	3.37
469.087	3.51
469.287	3.38
469.488	3.18
469.688	3.36
469.888	3.31
470.088	3.26
470.288	3.23
470.488	3.18
470.688	3.04
470.888	2.98
471.088	2.75
471.288	2.93
471.488	2.87
471.688	2.92
471.888	2.69
472.088	2.95
472.288	2.79
472.488	2.81
472.688	2.62
472.888	2.69
473.088	2.71
473.288	2.57
473.488	2.55
473.688	2.74
473.887	2.57
474.087	2.54
474.287	2.57
474.487	2.51
474.687	2.57
474.886	2.42
475.086	2.37
475.286	2.41
475.486	2.4
475.685	2.38
475.885	2.26
476.085	2.34
476.284	2.31
476.484	2.33
476.684	2.28
476.883	2.38
477.083	2.28
477.282	2.21
477.482	2.28
477.681	2.24
477.881	2.2
478.08	2.19
478.28	2.1
478.479	2.21
478.679	2.19
478.878	2.14
479.078	2.12
479.277	2.08
479.477	2.13
479.676	2.1
479.875	2.04
480.075	2.05
480.274	2.13
480.473	2.1
480.673	2.14
480.872	2.15
481.071	2.1
481.271	2.08
481.47	2
481.669	2.06
481.868	2.03
482.067	2.05
482.267	1.96
482.466	1.99
482.665	1.96
482.864	1.99
483.063	2.01
483.262	2.06
483.461	2.11
483.661	2.13
483.86	2.08
484.059	2.1
484.258	2.07
484.457	2.08
484.656	2.07
484.855	2.16
485.054	1.92
485.253	2.03
485.452	2.01
485.651	2.11
485.849	2.09
486.048	2.04
486.247	2.06
486.446	2.12
486.645	2.03
486.844	2.12
487.043	2.11
487.241	2.13
487.44	2.1
487.639	2.2
487.838	2.13
488.037	2.16
488.235	2.28
488.434	2.21
488.633	2.08
488.831	2.3
489.03	2.24
489.229	2.24
489.427	2.28
489.626	2.3
489.825	2.32
490.023	2.3
490.222	2.32
490.42	2.33
490.619	2.42
490.817	2.38
491.016	2.38
491.214	2.46
491.413	2.44
491.611	2.38
491.81	2.44
492.008	2.47
492.207	2.57
492.405	2.53
492.604	2.49
492.802	2.59
493	2.61
493.199	2.66
493.397	2.64
493.595	2.72
493.794	2.73
493.992	2.77
494.19	2.7
494.388	2.85
494.587	2.72
494.785	2.77
494.983	2.71
495.181	2.88
495.379	2.94
495.578	2.96
495.776	2.95
495.974	2.94
496.172	2.97
496.37	3.11
496.568	3.1
496.766	3.1
496.964	3.19
497.162	3.21
497.36	3.17
497.558	3.26
497.756	3.28
497.954	3.26
498.152	3.29
498.35	3.44
498.548	3.39
498.746	3.4
498.944	3.36
499.142	3.4
499.34	3.53
499.538	3.65
499.736	3.47
499.933	3.64
500.131	3.63
500.329	3.75
500.527	3.78
500.725	3.84
500.922	3.87
501.12	3.88
501.318	3.94
501.516	3.92
501.713	3.97
501.911	4.01
502.109	3.97
502.306	4.08
502.504	4.02
502.701	4.08
502.899	4.13
503.097	4.33
503.294	4.15
503.492	4.31
503.689	4.34
503.887	4.37
504.084	4.43
504.282	4.4
504.479	4.34
504.677	4.57
504.874	4.54
505.072	4.46
505.269	4.67
505.466	4.61
505.664	4.69
505.861	4.61
506.059	4.72
506.256	4.71
506.453	4.8
506.651	4.97
506.848	4.98
507.045	4.91
507.242	4.94
507.44	4.98
507.637	5.09
507.834	4.99
508.031	5.18
508.229	5.1
508.426	5.05
508.623	5.22
508.82	5.28
509.017	5.17
509.214	5.18
509.411	5.31
509.608	5.32
509.805	5.48
510.003	5.44
510.2	5.46
510.397	5.59
510.594	5.51
510.791	5.61
510.988	5.55
511.184	5.55
511.381	5.43
511.578	5.59
511.775	5.78
511.972	5.69
512.169	5.76
512.366	5.76
512.563	5.89
512.76	5.94
512.956	5.92
513.153	5.89
513.35	5.83
513.547	5.9
513.744	5.96
513.94	5.98
514.137	6.13
514.334	6.04
514.53	6.08
514.727	6.26
514.924	6.21
515.12	6.23
515.317	6.2
515.514	6.18
515.71	6.12
515.907	6.35
516.103	6.43
516.3	6.32
516.497	6.46
516.693	6.49
516.89	6.39
517.086	6.44
517.283	6.39
517.479	6.39
517.676	6.58
517.872	6.59
518.068	6.55
518.265	6.57
518.461	6.46
518.658	6.67
518.854	6.61
519.05	6.75
519.247	6.78
519.443	6.7
519.639	6.83
519.836	6.74
520.032	6.72
520.228	6.85
520.424	6.86
520.621	6.86
520.817	6.88
521.013	6.86
521.209	7.01
521.405	7.01
521.601	6.96
521.798	6.9
521.994	7.05
522.19	6.92
522.386	7.01
522.582	7.07
522.778	7.18
522.974	7.03
523.17	7.08
523.366	7.07
523.562	7.12
523.758	7.07
523.954	6.99
524.15	7.12
524.346	7.2
524.542	7.17
524.738	7.17
524.934	7.3
525.129	7.18
525.325	7.16
525.521	7.25
525.717	7.41
525.913	7.22
526.109	7.3
526.304	7.4
526.5	7.35
526.696	7.37
526.892	7.34
527.087	7.57
527.283	7.48
527.479	7.47
527.674	7.23
527.87	7.49
528.066	7.47
528.261	7.45
528.457	7.38
528.653	7.6
528.848	7.52
529.044	7.56
529.239	7.45
529.435	7.45
529.63	7.4
529.826	7.5
530.021	7.57
530.217	7.58
530.412	7.49
530.608	7.57
530.803	7.59
530.999	7.45
531.194	7.58
531.389	7.69
531.585	7.66
531.78	7.76
531.975	7.64
532.171	7.73
532.366	7.72
532.561	7.71
532.757	7.65
532.952	7.85
533.147	7.64
533.342	7.76
533.538	7.65
533.733	7.85
533.928	7.56
534.123	7.68
534.318	7.8
534.513	7.7
534.709	7.85
534.904	7.76
535.099	7.86
535.294	7.86
535.489	7.9
535.684	7.77
535.879	7.86
536.074	7.86
536.269	7.85
536.464	7.87
536.659	7.83
536.854	7.86
537.049	7.9
537.244	7.88
537.439	7.87
537.634	7.84
537.828	7.96
538.023	7.89
538.218	7.93
538.413	7.79
538.608	7.87
538.803	7.88
538.997	7.86
539.192	7.96
539.387	7.86
539.582	7.9
539.776	7.77
539.971	7.97
540.166	7.97
540.36	7.89
540.555	8.06
540.75	7.95
540.944	8.06
541.139	8.01
541.334	7.87
541.528	8.01
541.723	8.05
541.917	8.02
542.112	7.89
542.306	7.82
542.501	7.95
542.695	7.93
542.89	7.88
543.084	7.9
543.279	7.97
543.473	7.99
543.668	8.04
543.862	7.84
544.056	7.87
544.251	8.08
544.445	8.09
544.64	8.06
544.834	7.76
545.028	7.6
545.222	7.96
545.417	8.14
545.611	8.06
545.805	8
546	7.84
546.194	8.08
546.388	8.03
546.582	7.98
546.776	7.96
546.97	8.01
547.165	8.02
547.359	7.99
547.553	7.94
547.747	7.99
547.941	8.2
548.135	8.03
548.329	8.09
548.523	8
548.717	7.99
548.911	7.97
549.105	7.97
549.299	8.09
549.493	8.02
549.687	7.88
549.881	8.1
550.075	8.06
550.269	7.95
550.463	8.1
550.657	8.04
550.85	8.02
551.044	8.07
551.238	8.08
551.432	8.03
551.626	8.11
551.82	8.1
552.013	7.95
552.207	8.16
552.401	8.17
552.594	8.03
552.788	7.97
552.982	8.04
553.176	7.96
553.369	8.21
553.563	8.13
553.756	8
553.95	8.13
554.144	8.1
554.337	8.1
554.531	7.94
554.724	8.1
554.918	8.19
555.111	8.03
555.305	8.06
555.498	8.08
555.692	8.13
555.885	8.03
556.079	8.07
556.272	8.1
556.466	8.1
556.659	8
556.852	8.12
557.046	8.02
557.239	7.91
557.432	7.99
557.626	8.1
557.819	8.1
558.012	8.07
558.206	8.16
558.399	8.07
558.592	8.05
558.785	8.01
558.979	8.09
559.172	8.16
559.365	8.04
559.558	8.03
559.751	7.96
559.944	8.17
560.138	8
560.331	8.06
560.524	8.1
560.717	8.09
560.91	8.1
561.103	8.12
561.296	7.94
561.489	8.11
561.682	8.14
561.875	8.14
562.068	8.19
562.261	7.99
562.454	8.18
562.647	8.09
562.84	8.11
563.032	8.07
563.225	7.99
563.418	8.04
563.611	8.12
563.804	8.04
563.997	7.92
564.19	7.86
564.382	8.11
564.575	8.08
564.768	7.96
564.961	8.11
565.153	7.95
565.346	7.97
565.539	8.11
565.731	7.98
565.924	8.13
566.117	8.19
566.309	8.03
566.502	8.04
566.695	7.99
566.887	8.12
567.08	8.01
567.272	8.08
567.465	7.98
567.657	8.07
567.85	7.91
568.042	8.08
568.235	8.11
568.427	7.87
568.62	8.08
568.812	8
569.005	8.06
569.197	7.95
569.389	8.03
569.582	8.01
569.774	8.03
569.966	7.99
570.159	7.86
570.351	7.9
570.543	7.99
570.736	7.94
570.928	7.82
571.12	8.07
571.312	7.9
571.505	7.76
571.697	8.02
571.889	7.99
572.081	7.98
572.273	7.91
572.465	7.93
572.658	8.01
572.85	7.89
573.042	7.97
573.234	7.91
573.426	7.9
573.618	7.92
573.81	7.97
574.002	7.88
574.194	7.95
574.386	7.82
574.578	7.76
574.77	7.85
574.962	7.86
575.154	7.73
575.346	7.8
575.538	7.79
575.729	7.82
575.921	7.9
576.113	7.95
576.305	7.86
576.497	7.93
576.689	7.7
576.88	7.71
577.072	7.9
577.264	7.8
577.456	7.82
577.647	7.78
577.839	7.93
578.031	7.81
578.223	7.73
578.414	7.57
578.606	7.84
578.798	7.85
578.989	7.8
579.181	7.87
579.372	7.77
579.564	7.81
579.755	7.73
579.947	7.69
580.139	7.81
580.33	7.59
580.522	7.7
580.713	7.66
580.905	7.72
581.096	7.77
581.287	7.63
581.479	7.68
581.67	7.76
581.862	7.64
582.053	7.71
582.244	7.56
582.436	7.75
582.627	7.63
582.818	7.61
583.01	7.56
583.201	7.69
583.392	7.61
583.583	7.5
583.775	7.42
583.966	7.55
584.157	7.65
584.348	7.64
584.54	7.51
584.731	7.63
584.922	7.5
585.113	7.43
585.304	7.55
585.495	7.48
585.686	7.57
585.877	7.53
586.068	7.61
586.259	7.58
586.45	7.42
586.641	7.36
586.832	7.51
587.023	7.44
587.214	7.41
587.405	7.47
587.596	7.31
587.787	7.33
587.978	7.41
588.169	7.38
588.36	7.31
588.551	7.34
588.742	7.34
588.932	7.41
589.123	7.18
589.314	7.43
589.505	7.32
589.696	7.36
589.886	7.29
590.077	7.3
590.268	7.21
590.458	7.16
590.649	7.09
590.84	7.27
591.03	7.21
591.221	7.28
591.412	7.14
591.602	7.28
591.793	7.19
591.984	7.21
592.174	7.16
592.365	7.31
592.555	7.09
592.746	7.08
592.936	7.12
593.127	7.11
593.317	7.18
593.508	7.2
593.698	7
593.889	7.06
594.079	7.08
594.269	6.99
594.46	6.96
594.65	6.98
594.84	6.99
595.031	6.89
595.221	6.97
595.411	6.98
595.602	6.95
595.792	6.88
595.982	6.83
596.172	6.96
596.363	6.88
596.553	6.87
596.743	6.87
596.933	6.77
597.123	6.83
597.314	6.71
597.504	6.71
597.694	6.91
597.884	6.73
598.074	6.74
598.264	6.79
598.454	6.75
598.644	6.62
598.834	6.73
599.024	6.65
599.214	6.67
599.404	6.76
599.594	6.68
599.784	6.62
599.974	6.65
600.164	6.65
600.354	6.58
600.544	6.47
600.734	6.58
600.924	6.53
601.114	6.4
601.303	6.48
601.493	6.52
601.683	6.5
601.873	6.47
602.063	6.41
602.252	6.49
602.442	6.36
602.632	6.42
602.821	6.38
603.011	6.47
603.201	6.38
603.39	6.37
603.58	6.26
603.77	6.38
603.959	6.45
604.149	6.32
604.339	6.31
604.528	6.38
604.718	6.26
604.907	6.22
605.097	6.21
605.286	6.18
605.476	6.2
605.665	6.23
605.855	6.11
606.044	6.27
606.234	6.21
606.423	6.1
606.612	6.08
606.802	6.14
606.991	6.06
607.181	6.13
607.37	6.09
607.559	5.86
607.749	6.07
607.938	5.96
608.127	5.99
608.316	5.97
608.506	5.95
608.695	6.02
608.884	5.87
609.073	5.94
609.263	6.01
609.452	5.93
609.641	5.83
609.83	5.83
610.019	5.94
610.208	5.83
610.397	5.76
610.586	5.87
610.775	5.71
610.965	5.83
611.154	5.67
611.343	5.74
611.532	5.68
611.721	5.79
611.91	5.69
612.099	5.7
612.287	5.5
612.476	5.56
612.665	5.69
612.854	5.57
613.043	5.57
613.232	5.56
613.421	5.49
613.61	5.59
613.798	5.57
613.987	5.52
614.176	5.47
614.365	5.52
614.554	5.5
614.742	5.47
614.931	5.4
615.12	5.49
615.309	5.37
615.497	5.29
615.686	5.22
615.875	5.35
616.063	5.32
616.252	5.26
616.44	5.27
616.629	5.29
616.818	5.29
617.006	5.25
617.195	5.24
617.383	5.2
617.572	5.11
617.76	5.12
617.949	5.12
618.137	5.23
618.326	5.19
618.514	4.99
618.703	4.99
618.891	5.17
619.079	5.01
619.268	5.07
619.456	4.95
619.644	5.14
619.833	5.04
620.021	4.95
620.209	4.93
620.398	4.96
620.586	4.87
620.774	4.96
620.962	4.85
621.151	4.97
621.339	4.87
621.527	4.86
621.715	4.8
621.903	4.83
622.092	4.79
622.28	4.87
622.468	4.59
622.656	4.74
622.844	4.76
623.032	4.79
623.22	4.62
623.408	4.77
623.596	4.72
623.784	4.73
623.972	4.6
624.16	4.65
624.348	4.67
624.536	4.7
624.724	4.53
624.912	4.58
625.1	4.62
625.288	4.6
625.476	4.45
625.664	4.6
625.851	4.54
626.039	4.55
626.227	4.46
626.415	4.49
626.603	4.35
626.79	4.47
626.978	4.44
627.166	4.42
627.354	4.29
627.541	4.33
627.729	4.2
627.917	4.45
628.104	4.38
628.292	4.28
628.48	4.28
628.667	4.19
628.855	4.35
629.042	4.32
629.23	4.25
629.418	4.22
629.605	4.26
629.793	4.12
629.98	4.14
630.168	4.15
630.355	4.15
630.543	4.1
630.73	4.01
630.917	4.03
631.105	4.21
631.292	4.08
631.48	4.06
631.667	4.15
631.854	4.03
632.042	3.96
632.229	4
632.416	4.03
632.604	4
632.791	3.79
632.978	3.94
633.165	3.93
633.353	3.99
633.54	3.97
633.727	3.79
633.914	3.79
634.101	3.78
634.289	3.88
634.476	3.79
634.663	3.72
634.85	3.81
635.037	3.7
635.224	3.67
635.411	3.8
635.598	3.66
635.785	3.65
635.972	3.64
636.159	3.74
636.346	3.66
636.533	3.61
636.72	3.64
636.907	3.61
637.094	3.62
637.281	3.53
637.468	3.55
637.655	3.51
637.842	3.53
638.029	3.49
638.215	3.5
638.402	3.5
638.589	3.4
638.776	3.42
638.963	3.42
639.149	3.46
639.336	3.53
639.523	3.44
639.709	3.37
639.896	3.37
640.083	3.38
640.27	3.38
640.456	3.34
640.643	3.32
640.829	3.23
641.016	3.29
641.203	3.14
641.389	3.31
641.576	3.27
641.762	3.26
641.949	3.23
642.135	3.28
642.322	3.19
642.508	3.11
642.695	3.19
642.881	3.09
643.068	3.14
643.254	3.1
643.441	3.13
643.627	3.2
643.813	2.95
644	3.14
644.186	2.94
644.372	3.12
644.559	3.07
644.745	3.06
644.931	2.92
645.118	2.99
645.304	2.99
645.49	2.94
645.676	2.94
645.862	2.99
646.049	2.99
646.235	2.9
646.421	3.05
646.607	2.97
646.793	2.87
646.979	2.84
647.165	2.84
647.352	2.87
647.538	2.89
647.724	2.81
647.91	2.75
648.096	2.83
648.282	2.8
648.468	2.77
648.654	2.73
648.84	2.81
649.026	2.74
649.212	2.75
649.397	2.66
649.583	2.69
649.769	2.66
649.955	2.67
650.141	2.67
650.327	2.71
650.513	2.66
650.698	2.64
650.884	2.53
651.07	2.67
651.256	2.63
651.442	2.59
651.627	2.52
651.813	2.58
651.999	2.53
652.184	2.52
652.37	2.56
652.556	2.55
652.741	2.64
652.927	2.38
653.113	2.47
653.298	2.5
653.484	2.48
653.669	2.45
653.855	2.43
654.04	2.49
654.226	2.41
654.412	2.42
654.597	2.33
654.782	2.39
654.968	2.43
655.153	2.39
655.339	2.37
655.524	2.33
655.71	2.42
655.895	2.31
656.08	2.28
656.266	2.38
656.451	2.3
656.636	2.19
656.822	2.29
657.007	2.25
657.192	2.25
657.378	2.27
657.563	2.22
657.748	2.27
657.933	2.27
658.118	2.15
658.304	2.2
658.489	2.29
658.674	2.19
658.859	2.17
659.044	2.15
659.229	2.21
659.414	2.09
659.599	2.14
659.785	2.05
659.97	2.15
660.155	2.14
660.34	2.12
660.525	2.07
660.71	2.07
660.895	2.12
661.08	1.98
661.264	2
661.449	2.11
661.634	2.02
661.819	2.1
662.004	2.01
662.189	1.96
662.374	1.95
662.559	1.93
662.743	1.9
662.928	1.98
663.113	1.92
663.298	1.94
663.483	1.93
663.667	1.94
663.852	1.9
664.037	1.97
664.221	1.84
664.406	1.99
664.591	1.94
664.775	1.91
664.96	1.82
665.145	1.88
665.329	1.91
665.514	1.88
665.698	1.78
665.883	1.75
666.068	1.87
666.252	1.81
666.437	1.76
666.621	1.82
666.806	1.84
666.99	1.76
667.174	1.71
667.359	1.88
667.543	1.72
667.728	1.74
667.912	1.64
668.096	1.76
668.281	1.71
668.465	1.73
668.649	1.69
668.834	1.71
669.018	1.66
669.202	1.67
669.387	1.66
669.571	1.76
669.755	1.63
669.939	1.7
670.124	1.64
670.308	1.69
670.492	1.69
670.676	1.64
670.86	1.59
671.044	1.56
671.228	1.68
671.413	1.57
671.597	1.57
671.781	1.59
671.965	1.58
672.149	1.54
672.333	1.57
672.517	1.55
672.701	1.55
672.885	1.52
673.069	1.46
673.253	1.59
673.437	1.55
673.621	1.54
673.804	1.5
673.988	1.56
674.172	1.5
674.356	1.4
674.54	1.49
674.724	1.66
674.908	1.44
675.091	1.5
675.275	1.43
675.459	1.57
675.643	1.56
675.826	1.48
676.01	1.43
676.194	1.49
676.377	1.51
676.561	1.43
676.745	1.4
676.928	1.45
677.112	1.48
677.296	1.41
677.479	1.34
677.663	1.36
677.846	1.46
678.03	1.39
678.213	1.31
678.397	1.41
678.58	1.34
678.764	1.41
678.947	1.35
679.131	1.3
679.314	1.41
679.498	1.29
679.681	1.41
679.865	1.45
680.048	1.32
680.231	1.3
680.415	1.28
680.598	1.32
680.781	1.25
680.965	1.24
681.148	1.31
681.331	1.21
681.514	1.33
681.698	1.21
681.881	1.32
682.064	1.25
682.247	1.27
682.43	1.19
682.614	1.26
682.797	1.27
682.98	1.33
683.163	1.18
683.346	1.21
683.529	1.21
683.712	1.1
683.895	1.3
684.078	1.12
684.261	1.19
684.444	1.26
684.627	1.21
684.81	1.13
684.993	1.14
685.176	1.22
685.359	1.06
685.542	1.08
685.725	1.25
685.908	1.11
686.091	1.12
686.274	1.2
686.457	1.17
686.639	1.14
686.822	1.15
687.005	1.13
687.188	1.2
687.371	1.29
687.553	1.17
687.736	1.14
687.919	1.21
688.102	1.19
688.284	1.09
688.467	1.08
688.65	1.04
688.832	1.01
689.015	1
689.197	0.97
689.38	1.18
689.563	1.23
689.745	0.98
689.928	1.01
690.11	1
690.293	1.04
690.475	0.96
690.658	1.04
690.84	1.01
691.023	0.95
691.205	0.92
691.388	1.03
691.57	1.05
691.752	1.02
691.935	0.91
692.117	0.91
692.3	1.02
692.482	0.89
692.664	0.93
692.847	0.92
693.029	1.08
693.211	1.01
693.393	0.99
693.576	0.9
693.758	0.93
693.94	0.96
694.122	0.88
694.304	0.87
694.487	0.86
694.669	1.01
694.851	0.86
695.033	0.88
695.215	0.89
695.397	0.9
695.579	0.94
695.761	0.83
695.943	0.86
696.125	1.03
696.308	0.88
696.49	0.79
696.671	1.06
696.853	0.86
697.035	1.14
697.217	0.89
697.399	0.96
697.581	0.86
697.763	0.9
697.945	0.76
698.127	0.86
698.309	0.94
698.491	0.87
698.672	0.91
698.854	0.89
699.036	0.93
699.218	0.82
699.399	0.86
699.581	0.9
699.763	0.83
699.945	0.74
700.126	0.73
700.308	0.85
700.49	0.76
700.671	0.71
700.853	0.78
701.035	0.73
701.216	0.82
701.398	0.72
701.579	0.76
701.761	0.89
701.943	0.77
702.124	0.74
702.306	0.71
702.487	0.94
702.669	0.84
702.85	0.75
703.031	0.64
703.213	0.87
703.394	0.83
703.576	0.73
703.757	0.91
703.938	0.84
704.12	0.97
704.301	0.76
704.483	0.71
704.664	0.79
704.845	0.88
705.026	0.83
705.208	0.68
705.389	0.79
705.57	0.77
705.751	0.7
705.933	0.66
706.114	0.79
706.295	0.79
706.476	0.63
706.657	0.83
706.838	0.8
707.02	0.8
707.201	0.63
707.382	0.65
707.563	0.72
707.744	0.68
707.925	0.64
708.106	0.63
708.287	0.71
708.468	0.79
708.649	0.72
708.83	0.76
709.011	0.67
709.192	0.84
709.373	0.7
709.554	0.67
709.734	0.75
709.915	0.76
710.096	0.68
710.277	0.52
710.458	0.65
710.639	0.7
710.819	0.54
711	0.63
711.181	0.71
711.362	0.77
711.542	0.68
711.723	0.65
711.904	0.76
712.085	0.73
712.265	0.63
712.446	0.54
712.627	0.6
712.807	0.61
712.988	0.71
713.168	0.52
713.349	0.61
713.53	0.48
713.71	0.52
713.891	0.57
714.071	0.62
714.252	0.6
714.432	0.6
714.613	0.51
714.793	0.69
714.974	0.7
715.154	0.74
715.334	0.68
715.515	0.74
715.695	0.54
715.876	0.59
716.056	0.62
716.236	0.6
716.417	0.63
716.597	0.54
716.777	0.84
716.957	0.59
717.138	0.6
717.318	0.53
717.498	0.48
717.678	0.55
717.859	0.62
718.039	0.41
718.219	0.55
718.399	0.53
718.579	0.53
718.759	0.46
718.939	0.55
719.12	0.62
719.3	0.6
719.48	0.4
719.66	0.42
719.84	0.69
720.02	0.57
720.2	0.54
720.38	0.5
720.56	0.65
720.74	0.45
720.92	0.52
721.1	0.74
721.279	0.64
721.459	0.56
721.639	0.39
721.819	0.59
721.999	0.53
722.179	0.66
722.359	0.43
722.538	0.58
722.718	0.6
722.898	0.51
723.078	0.46
723.257	0.4
723.437	0.57
723.617	0.57
723.797	0.59
723.976	0.48
724.156	0.56
724.336	0.67
724.515	0.75
724.695	0.38
724.874	0.53
725.054	0.61
725.234	0.5
725.413	0.53
725.593	0.47
725.772	0.55
725.952	0.47
726.131	0.45
726.311	0.49
726.49	0.53
726.67	0.37
726.849	0.38
727.028	0.57
727.208	0.55
727.387	0.5
727.567	0.42
727.746	0.45
727.925	0.49
728.105	0.37
728.284	0.49
728.463	0.47
728.643	0.58
728.822	0.41
729.001	0.52
729.18	0.53
729.359	0.68
729.539	0.53
729.718	0.46
729.897	0.62
730.076	0.46
730.255	0.44
730.434	0.49
730.614	0.54
730.793	0.65
730.972	0.45
731.151	0.48
731.33	0.62
731.509	0.57
731.688	0.48
731.867	0.49
732.046	0.24
732.225	0.82
732.404	0.39
732.583	0.43
732.762	0.46
732.941	0.56
733.12	0.51
733.298	0.51
733.477	0.5
733.656	0.52
733.835	0.46
734.014	0.62
734.193	0.53
734.371	0.54
734.55	0.56
734.729	0.39
734.908	0.5
735.086	0.63
735.265	0.58
735.444	0.27
735.623	0.33
735.801	0.41
735.98	0.42
736.159	0.42
736.337	0.51
736.516	0.56
736.694	0.46
736.873	0.38
737.052	0.69
737.23	0.63
737.409	0.43
737.587	0.7
737.766	0.39
737.944	0.51
738.123	0.55
738.301	0.56
738.479	0.51
738.658	0.46
738.836	0.16
739.015	0.45
739.193	0.58
739.371	0.31
739.55	0.45
739.728	0.4
739.906	0.63
740.085	0.73
740.263	0.51
740.441	0.13
740.62	0.7
740.798	0.53
740.976	0.41
741.154	0.4
741.332	0.54
741.511	0.41
741.689	0.46
741.867	0.49
742.045	0.53
742.223	0.39
742.401	0.39
742.579	0.39
742.757	0.59
742.935	0.34
743.114	0.42
743.292	0.41
743.47	0.53
743.648	0.49
743.826	0.36
744.004	0.55
744.181	0.62
744.359	0.31
744.537	0.49
744.715	0.36
744.893	0.38
745.071	0.55
745.249	0.39
745.427	0.4
745.605	0.57
745.782	0.48
745.96	0.45
746.138	0.56
746.316	0.55
746.493	0.4
746.671	0.36
746.849	0.31
747.027	0.73
747.204	0.3
747.382	0.59
747.56	0.23
747.737	0.5
747.915	0.41
748.093	0.38
748.27	0.3
748.448	0.36
748.625	0.31
748.803	0.33
748.98	0.32
749.158	0.43
749.335	0.57
749.513	0.34
749.69	0.34
749.868	0.4
750.045	0.49
750.223	0.33
750.4	0.23
750.578	0.64
750.755	0.43
750.932	0.27
751.11	0.5
751.287	0.26
751.464	0.56
751.642	0.28
751.819	0.39
751.996	0.36
752.173	0.35
752.351	0.3
752.528	0.43
752.705	0.37
752.882	0.34
753.06	0.38
753.237	0.4
753.414	0.66
753.591	0.72
753.768	0.41
753.945	0.26
754.122	0.38
754.299	0.48
754.476	0.29
754.654	0.36
754.831	0.57
755.008	0.5
755.185	0.32
755.362	0.36
755.539	0.41
755.716	0.32
755.892	0.46
756.069	0.35
756.246	0.34
756.423	0.31
756.6	0.65
756.777	0.29
756.954	0.58
757.131	0.31
757.307	0.24
757.484	0.25
757.661	0.49
757.838	0.48
758.015	0.33
758.191	0.36
758.368	0.42
758.545	0.58
758.721	0.49
758.898	0.21
759.075	0.39
759.251	0.42
759.428	0.47
759.605	0.14
759.781	0.48
759.958	0.49
760.134	0.37
760.311	0.32
760.488	0.49
760.664	0.6
760.841	0.28
761.017	0.28
761.194	0.4
761.37	0.54
761.547	0.35
761.723	0.33
761.899	0.65
762.076	0.27
762.252	0.31
762.429	0.17
762.605	0.43
762.781	0.24
762.958	0.46
763.134	0.35
763.31	0.24
763.486	0.47
763.663	0.16
763.839	0.52
764.015	0.16
764.191	0.25
764.368	0.43
764.544	0.25
764.72	0.4
764.896	0.41
765.072	0.48
765.248	0.29
765.425	0.24
765.601	0.47
765.777	0.34
765.953	-0.01
766.129	0.26
766.305	0.32
766.481	0.46
766.657	0.35
766.833	0.48
767.009	0.19
767.185	0.32
767.361	0.39
767.537	0.31
767.713	0.67
767.889	0.24
768.065	0.31
768.24	0.42
768.416	0.48
768.592	0.38
768.768	0.24
768.944	0.38
769.12	0.31
769.295	0.26
769.471	0.43
769.647	0.29
769.823	0.57
769.998	0.22
770.174	0.23
770.35	0.81
770.525	0.64
770.701	0.38
770.877	0.2
771.052	0.21
771.228	0.51
771.403	0.42
771.579	0.52
771.755	0.86
771.93	0.26
772.106	0.32
772.281	0.06
772.457	0.3
772.632	0.52
772.808	0.16
772.983	0.43
773.159	0.15
773.334	0.75
773.509	0.43
773.685	0.1
773.86	0.7
774.036	0.55
774.211	0.4
774.386	0.27
774.562	0.47
774.737	0.45
774.912	0.18
775.087	0.37
775.263	0.46
775.438	0.42
775.613	0.09
775.788	0.4
775.964	0.56
776.139	0.93
776.314	0.2
776.489	0.45
776.664	0.52
776.839	0.4
777.014	0.51
777.19	0.47
777.365	0.57
777.54	0.62
777.715	0.37
777.89	0.33
778.065	0.26
778.24	0.47
778.415	0.56
778.59	0.07
778.765	0.39
778.94	0.57
779.115	0.35
779.289	0.28
779.464	0.33
779.639	0.32
779.814	0.13
779.989	0.11
780.164	0.55
780.339	0.49
780.513	0.21
780.688	0.05
780.863	0.35
781.038	0.59
781.212	0.23
781.387	0.36
781.562	0.72
781.737	0.19
781.911	0.72
782.086	0.32
782.261	0.25
782.435	0.59
782.61	0.24
782.784	0.36
782.959	0.66
783.134	0.28
783.308	0.08
783.483	0.29
783.657	1.03
783.832	0.66
784.006	0.05
784.181	0.52
784.355	0.64
784.53	0.29
784.704	0.25
784.878	0.81
785.053	0.47
785.227	0.7
785.402	0.73
785.576	0.19
785.75	0.39
785.925	0.31
786.099	0.36
786.273	0.42
786.448	0.61
786.622	0.69
786.796	0.3
786.97	0.36
787.145	1.12
787.319	-0.05
787.493	0.39
787.667	0.11
787.841	0.48
788.015	0.74
788.19	0.3
788.364	0.27
788.538	0.81
788.712	0.48
788.886	0.24
789.06	0.58
789.234	0.68
789.408	0.22
789.582	0.41
789.756	0.37
789.93	0.42
790.104	0.39
790.278	0.43
790.452	0.27
790.626	0.48
790.8	0.31
790.973	0.49
791.147	0.65
791.321	0.91
791.495	0.83
791.669	0.76
791.843	0.34
792.016	0.48
792.19	0.88
792.364	0.08
792.538	1
792.711	0.62
792.885	0.2
793.059	0.14
793.233	-0.1
793.406	0.84
793.58	0.66
793.754	0.34
793.927	0.42
794.101	0.77
794.274	0.53
794.448	0.7
794.622	0.21
794.795	0.79
794.969	0.19
795.142	0.94
795.316	0.03
795.489	0.31
795.663	1.04
795.836	0.19
796.009	0.38
796.183	0.93
796.356	0.4
796.53	0.39
796.703	0.18
796.876	1.37
797.05	0.42
797.223	0.22
797.396	0.5
797.57	0.59
797.743	0.85
797.916	0.4
798.09	0.43
798.263	0.68
798.436	0.91
798.609	0.06
798.782	0.21
798.956	0.62
799.129	0.64
799.302	0.15
799.475	0.34
799.648	0.54
799.821	0.29
799.994	0.21
800.167	-0.09
800.34	0.58
800.514	0.26
800.687	0.23
800.86	0.28
801.033	0.45
801.206	0.87
801.379	0.19
801.551	0.85
801.724	0.58
801.897	1.16
802.07	0.45
802.243	-0.08
802.416	0.45
802.589	0.55
802.762	0.61
802.935	0.56
803.107	1.22
803.28	1.05
803.453	0.53
803.626	0.29
803.798	0.83
803.971	0.43
804.144	0.68
804.317	0.48
804.489	0.98
804.662	0.48
804.835	0.57
805.007	0.22
805.18	1.13
805.353	0.45
805.525	0.01
805.698	0.27
805.87	0.73
806.043	0.81
806.215	-0.04
806.388	0.07
806.56	0.77
806.733	1.04
806.905	0.49
807.078	0.18
807.25	0.25
807.423	0.71
807.595	0.04
807.768	0.58
807.94	0.89
808.112	0.83
808.285	0.7
808.457	0.07
808.629	0.76
808.802	0.8
808.974	0.53
809.146	0
809.318	0.27
809.491	0.68
809.663	0.93
809.835	0.53
810.007	0.35
810.18	0.28
810.352	0.22
810.524	0.27
810.696	0.97
810.868	1.43
811.04	0.45
811.212	0.55
811.384	0.8
811.556	0.66
811.728	0.19
811.901	1.49
812.073	0.53
812.245	1.01
812.417	0.68
812.589	-0.3
812.76	0.66
812.932	0.92
813.104	0.83
813.276	0.24
813.448	1.08
813.62	0.71
813.792	0.36
813.964	0.46
814.136	0.96
814.307	0.23
814.479	0.18
814.651	0.36
814.823	1.55
814.995	0.85
815.166	0.84
815.338	0.32
815.51	0.23
815.681	1.92
815.853	0.51
816.025	0.32
816.196	1.77
816.368	1.63
816.54	0.16
816.711	0.39
816.883	0.78
817.054	1.57
817.226	-0.12
817.398	0.9
817.569	0.41
817.741	0.77
817.912	0.45
818.084	0.77
818.255	1.23
818.426	0.32
818.598	0.72
818.769	0.23
818.941	1.02
819.112	1.74
819.283	0.9
819.455	0.19
819.626	0.62
819.798	1.15
819.969	0.65
820.14	0.18
820.311	0.88
820.483	0.96
820.654	0.89
820.825	0.53
820.996	0.8
821.168	-0.12
821.339	0.12
821.51	-0.03
821.681	0.34
821.852	0.61
822.023	0.3
822.195	0.46
822.366	1.68
822.537	0.81
822.708	0.81
822.879	0.34
823.05	1.24
823.221	0.63
823.392	0.91
823.563	0.9
823.734	0.89
823.905	0.56
824.076	-0.13
824.247	0.29
824.418	0.47
824.589	1.52
824.759	1.01
824.93	0.39
825.101	0.21
825.272	1.86
825.443	1.48
825.614	1.7
825.784	-0.16
825.955	2.32
826.126	1.85
826.297	0.34
826.467	1.8
826.638	2.33
826.809	0.05
826.98	1.07
827.15	1.27
827.321	1.18
827.492	2.04
827.662	0.47
827.833	2.35
828.003	1.37
828.174	-0.49
828.345	-0.41
828.515	1.91
828.686	0.97
828.856	0.96
829.027	0.94
829.197	1.11
829.368	1.33
829.538	0.01
829.709	0.35
829.879	0.8
830.049	1.23
830.22	0.5
830.39	0.65
830.56	2
830.731	0.49
830.901	0.54
831.072	0.27
831.242	0.87
831.412	1.47
831.582	0.47
831.753	-0.07
831.923	1.81
832.093	1.3
832.263	0.73
832.434	-0.03
832.604	0.41
832.774	1.89
832.944	0.53
833.114	0.71
833.284	1.22
833.454	0.74
833.624	-0.05
833.795	0.18
833.965	1.74
834.135	1.49
834.305	-0.38
834.475	-0.13
834.645	1.12
834.815	0.65
834.985	0.49
835.155	0.53
835.325	1.35
835.494	1.12
835.664	0.81
835.834	0.26
836.004	1
836.174	1.23
836.344	0.63
836.514	-0.1
836.684	0.84
836.853	0.86
837.023	1.01
837.193	0.29
837.363	1.96
837.532	2.04
837.702	0.91
837.872	0.38
838.041	1.06
838.211	2.79
838.381	-0.62
838.55	0.7
838.72	3.4
838.89	3.15
839.059	0.66
839.229	-0.3
839.398	2.3
839.568	1.77
839.738	1.24
839.907	1.82
840.077	0.76
840.246	0.3
840.416	0.27
840.585	-0.44
840.755	2.92
840.924	2.11
841.093	-0.07
841.263	0.78
841.432	1.22
841.602	0.62
841.771	0.46
841.94	0.72
842.11	2.56
842.279	2.62
842.448	0.75
842.617	-0.43
842.787	2.29
842.956	0.34
843.125	0.59
843.294	0.44
843.464	1.31
843.633	1.58
843.802	-0.21
843.971	0.43
844.14	2.06
844.309	1.4
844.479	-0.78
844.648	0.81
844.817	1.14
844.986	1.17
845.155	1.15
845.324	0.93
845.493	0.8
845.662	1.04
845.831	2.09
846	1.25
846.169	0.66
846.338	2.5
846.507	1.01
846.676	1.11
846.844	1.14
847.013	0.73
847.182	1.3
847.351	0.49
847.52	1.44
847.689	1.11
847.858	1.4
848.026	0.71
848.195	1.57
848.364	0.6
848.533	0.18
848.701	0.25
848.87	2.14
849.039	2.68
849.207	2.09
849.376	2.46
849.545	2.9
849.713	0.82
849.882	0.01
850.051	0.77
850.219	2.34
850.388	1.8
850.556	0.75
850.725	0.83
850.893	2.28
851.062	0.46
851.23	2.17
851.399	-0.67
851.567	0.97
851.736	1.19
851.904	0.01
852.073	0.75
852.241	2.55
852.41	1.78
852.578	0.65
852.746	0.68
852.915	2.29
853.083	1.15
853.251	-0.31
853.42	0.13
853.588	0.91
853.756	2
853.924	2.34
854.093	0.86
854.261	0.33
854.429	-0.28
854.597	1.51
854.765	-0.25
854.934	1.72
855.102	2.55
855.27	0.92
855.438	2.83
855.606	2.8
855.774	2.66
855.942	-0.12
856.11	1.21
856.278	2.11
856.446	2.96
856.614	1.38
856.782	0.67
856.95	2.59
857.118	1.93
857.286	1.32
857.454	0.85
857.622	2.35
857.79	2.01
857.958	0.81
858.126	-0.96
858.294	-1.28
858.462	0.21
858.629	0.1
858.797	0.69
858.965	2.64
859.133	1.91
859.301	0.38
859.468	2.5
859.636	-0.2
859.804	3.88
859.971	2.02
860.139	1.45
860.307	2.34
860.474	2.3
860.642	0.96
860.81	0.25
860.977	0.76
861.145	2.52
861.313	0.9
861.48	0.84
861.648	3.7
861.815	0.26
861.983	-1.25
862.15	0.39
862.318	3.63
862.485	3.14
862.653	0.03
862.82	-0.37
862.988	3.75
863.155	1.15
863.322	0.01
863.49	0.08
863.657	0.36
863.824	4.5
863.992	3.43
864.159	0.7
864.326	4.27
864.494	1.19
864.661	5.25
864.828	1.08
864.996	3.58
865.163	3.21
865.33	0.38
865.497	-2.24
865.664	-0.01
865.832	-0.89
865.999	1.13
866.166	-0.36
866.333	1.19
866.5	0.58
866.667	1.27
866.834	1.57
867.001	4.81
867.168	-0.5
867.335	1.61
867.502	-1.21
867.669	1.25
867.836	5.45
868.003	0.19
868.17	3.8
868.337	5.27
868.504	5.67
868.671	-1.66
868.838	0.36
869.005	2.94
869.172	3.54
869.339	1.91
869.505	-0.38
869.672	2.4
869.839	3.42
870.006	3.22
870.173	-0.78
870.339	3.6
870.506	6.61
870.673	-0.51
870.84	2.08
871.006	1.48
871.173	1.01
871.34	1.91
871.506	-1.69
871.673	2.66
871.839	-0.19
872.006	1.48
872.173	1.05
872.339	1.16
872.506	4.68
872.672	1.19
872.839	-0.19
873.005	3.16
873.172	5.34
873.338	3.06
873.505	1.64
873.671	1.69
873.838	4.72
874.004	-0.57
874.171	0.13
874.337	3.09
874.503	3.03
874.67	0.25
874.836	1.72
875.002	4.97
875.169	4.18
875.335	0.48
875.501	1.24
875.668	4.15
875.834	1.16
876	2.23
876.166	1.82
876.332	3.4
876.499	5.41
876.665	1.21
876.831	1.51
876.997	5.87
877.163	2.6
877.329	0.29
877.495	2.02
877.662	4.66
877.828	2.68
877.994	2.31
878.16	-3.7
878.326	1.41
878.492	4.12
878.658	3.01
878.824	3.37
878.99	4.79
879.156	-0.62
879.322	6.36
879.487	1.86
879.653	3.23
879.819	2.6
879.985	2.26
880.151	2.53
880.317	3.94
880.483	2.33
880.648	4.6
880.814	-0.51
880.98	2.26
881.146	-0.8
881.312	0.65
881.477	1.33
881.643	1.18
881.809	3.74
881.974	2.93
882.14	-1.9
882.306	1.82
882.471	6.57
882.637	1.7
882.803	2.73
882.968	6.26
883.134	6.16
883.299	4.03
883.465	2.51
883.63	4.32
883.796	4.71
883.961	4.34
884.127	2.43
884.292	-3.52
884.458	-0.89
884.623	-0.89
