Data from Apollo_Calib_20240827__AbsoluteIrradiance__817__12-46-02-898.txt Node

Date: Wed Aug 28 12:46:02 BST 2024
User: biology
Spectrometer: FLMT08252
Trigger mode: 0
Integration Time (sec): 5.000000E-1
Scans to average: 5
Electric dark correction enabled: true
Nonlinearity correction enabled: false
Boxcar width: 0
XAxis mode: Wavelengths
Number of Pixels in Spectrum: 3648
>>>>>Begin Spectral Data<<<<<
179.588	-0
179.809	-0
180.03	-0
180.251	-0
180.473	-0
180.694	0
180.915	0
181.136	-0
181.357	0
181.578	0
181.799	0
182.02	-0
182.241	-0
182.462	-0
182.683	0
182.904	-0
183.125	-0
183.346	0
183.567	0
183.788	0
184.009	0
184.23	0
184.451	0
184.672	0
184.892	0
185.113	0
185.334	0
185.555	0
185.776	0
185.996	0
186.217	0
186.438	0
186.659	0
186.879	0
187.1	0
187.321	0
187.541	0
187.762	0
187.983	0
188.203	0
188.424	0
188.644	0
188.865	0
189.086	0
189.306	0
189.527	0
189.747	0
189.968	0
190.188	0
190.409	0
190.629	0
190.849	0
191.07	0
191.29	0
191.511	0
191.731	0
191.951	0
192.172	0
192.392	0
192.612	0
192.833	0
193.053	0
193.273	0
193.493	0
193.714	0
193.934	0
194.154	0
194.374	0
194.594	0
194.815	0
195.035	0
195.255	0
195.475	0
195.695	0
195.915	0
196.135	0
196.355	0
196.575	0
196.795	0
197.015	0
197.235	0
197.455	0
197.675	0
197.895	0
198.115	0
198.335	0
198.555	0
198.775	0
198.995	0
199.214	0
199.434	0
199.654	0
199.874	0
200.094	3.57
200.313	1.88
200.533	1.9
200.753	1.33
200.973	3.9
201.192	3.12
201.412	1.2
201.632	1.6
201.851	3
202.071	1.62
202.291	1.93
202.51	1.27
202.73	2.85
202.95	1.66
203.169	1.53
203.389	1.6
203.608	2.07
203.828	1.65
204.047	1.41
204.267	2.46
204.486	2.01
204.706	2.63
204.925	1.57
205.145	1.31
205.364	2.41
205.583	2.49
205.803	1.15
206.022	1
206.242	1.52
206.461	1.8
206.68	1.34
206.9	1.68
207.119	2.57
207.338	2.16
207.557	1.13
207.777	1.3
207.996	1.59
208.215	2.03
208.434	1.04
208.654	0.79
208.873	1.47
209.092	2.16
209.311	1.22
209.53	1.09
209.749	1.45
209.968	0.97
210.187	0.92
210.407	0.67
210.626	1.11
210.845	1.52
211.064	1.33
211.283	0.63
211.502	1.64
211.721	1.18
211.94	1.07
212.159	1.37
212.377	1.56
212.596	1.82
212.815	1.23
213.034	0.98
213.253	1.52
213.472	1.25
213.691	1.01
213.91	0.8
214.128	0.86
214.347	1.66
214.566	0.37
214.785	0.42
215.003	1.43
215.222	1.15
215.441	0.84
215.66	0.54
215.878	1.01
216.097	1.15
216.316	0.6
216.534	0.92
216.753	1.21
216.972	0.9
217.19	0.76
217.409	0.63
217.627	0.83
217.846	0.82
218.064	0.78
218.283	0.71
218.501	1.35
218.72	1.13
218.938	0.63
219.157	0.82
219.375	1.16
219.594	0.98
219.812	0.33
220.031	0.41
220.249	1.25
220.467	1.19
220.686	0.59
220.904	0.5
221.122	0.62
221.341	1.33
221.559	0.78
221.777	0.57
221.995	0.97
222.214	1
222.432	0.54
222.65	0.84
222.868	0.73
223.086	0.83
223.305	0.85
223.523	0.74
223.741	1.19
223.959	0.65
224.177	0.32
224.395	0.36
224.613	0.86
224.831	0.99
225.049	0.34
225.267	0.58
225.485	0.89
225.703	0.61
225.921	0.5
226.139	0.55
226.357	0.85
226.575	0.89
226.793	0.65
227.011	1.67
227.229	0.67
227.447	0.89
227.665	0.51
227.883	0.49
228.1	0.59
228.318	0.84
228.536	0.21
228.754	0.44
228.972	0.76
229.189	0.85
229.407	0.51
229.625	0.6
229.843	0.9
230.06	0.82
230.278	0.38
230.496	0.55
230.713	0.8
230.931	0.74
231.149	0.5
231.366	0.35
231.584	0.63
231.801	0.94
232.019	0.35
232.236	0.33
232.454	0.46
232.671	0.62
232.889	0.48
233.106	0.36
233.324	0.55
233.541	0.52
233.759	0.58
233.976	0.36
234.194	0.48
234.411	0.55
234.628	0.33
234.846	0.45
235.063	0.66
235.28	0.6
235.498	0.47
235.715	0.29
235.932	0.78
236.149	0.5
236.367	0.43
236.584	0.61
236.801	0.57
237.018	0.6
237.236	0.5
237.453	0.33
237.67	0.74
237.887	0.57
238.104	0.45
238.321	0.41
238.538	0.44
238.755	0.67
238.973	0.3
239.19	0.48
239.407	0.59
239.624	0.59
239.841	0.34
240.058	0.41
240.275	0.63
240.492	0.49
240.709	0.55
240.925	0.34
241.142	0.48
241.359	0.36
241.576	0.27
241.793	0.42
242.01	0.55
242.227	0.58
242.444	0.51
242.66	0.58
242.877	0.5
243.094	0.42
243.311	0.43
243.527	0.43
243.744	0.55
243.961	0.51
244.178	0.34
244.394	0.36
244.611	0.63
244.828	0.63
245.044	0.3
245.261	0.37
245.477	0.54
245.694	0.52
245.911	0.42
246.127	0.4
246.344	0.6
246.56	0.65
246.777	0.39
246.993	0.37
247.21	0.45
247.426	0.51
247.643	0.32
247.859	0.27
248.076	0.35
248.292	0.68
248.508	0.25
248.725	0.44
248.941	0.45
249.157	0.6
249.374	0.34
249.59	0.35
249.806	0.39
250.023	0.44
250.239	0.35
250.455	0.36
250.671	0.38
250.888	0.49
251.104	0.5
251.32	0.29
251.536	0.36
251.752	0.33
251.969	0.4
252.185	0.35
252.401	0.72
252.617	0.4
252.833	0.42
253.049	0.38
253.265	0.45
253.481	0.45
253.697	0.39
253.913	0.36
254.129	0.52
254.345	0.39
254.561	0.27
254.777	0.42
254.993	0.5
255.209	0.43
255.425	0.33
255.641	0.29
255.857	0.54
256.073	0.45
256.288	0.26
256.504	0.36
256.72	0.45
256.936	0.55
257.152	0.4
257.367	0.22
257.583	0.46
257.799	0.52
258.015	0.27
258.23	0.3
258.446	0.51
258.662	0.43
258.877	0.24
259.093	0.25
259.309	0.41
259.524	0.4
259.74	0.3
259.955	0.31
260.171	0.44
260.387	0.38
260.602	0.47
260.818	0.44
261.033	0.24
261.249	0.37
261.464	0.31
261.68	0.26
261.895	0.4
262.11	0.43
262.326	0.31
262.541	0.3
262.757	0.52
262.972	0.4
263.187	0.38
263.403	0.41
263.618	0.45
263.833	0.43
264.049	0.29
264.264	0.35
264.479	0.36
264.694	0.47
264.91	0.31
265.125	0.31
265.34	0.49
265.555	0.6
265.77	0.42
265.986	0.25
266.201	0.39
266.416	0.51
266.631	0.32
266.846	0.34
267.061	0.42
267.276	0.5
267.491	0.24
267.706	0.39
267.921	0.41
268.136	0.4
268.351	0.36
268.566	0.18
268.781	0.46
268.996	0.45
269.211	0.37
269.426	0.26
269.641	0.27
269.856	0.42
270.071	0.26
270.285	0.24
270.5	0.48
270.715	0.4
270.93	0.35
271.145	0.37
271.359	0.47
271.574	0.33
271.789	0.3
272.004	0.26
272.218	0.39
272.433	0.37
272.648	0.26
272.862	0.38
273.077	0.36
273.292	0.36
273.506	0.23
273.721	0.26
273.936	0.4
274.15	0.44
274.365	0.31
274.579	0.4
274.794	0.35
275.008	0.45
275.223	0.24
275.437	0.35
275.652	0.42
275.866	0.42
276.081	0.35
276.295	0.38
276.509	0.36
276.724	0.36
276.938	0.32
277.153	0.34
277.367	0.43
277.581	0.31
277.796	0.24
278.01	0.24
278.224	0.43
278.438	0.54
278.653	0.25
278.867	0.3
279.081	0.44
279.295	0.32
279.51	0.29
279.724	0.18
279.938	0.39
280.152	0.42
280.366	0.31
280.58	0.34
280.794	0.41
281.008	0.36
281.222	0.41
281.437	0.5
281.651	0.32
281.865	0.44
282.079	0.33
282.293	0.13
282.507	0.31
282.721	0.29
282.935	0.34
283.148	0.14
283.362	0.29
283.576	0.21
283.79	0.26
284.004	0.27
284.218	0.39
284.432	0.29
284.646	0.27
284.859	0.26
285.073	0.26
285.287	0.32
285.501	0.34
285.714	0.29
285.928	0.33
286.142	0.36
286.356	0.22
286.569	0.34
286.783	0.43
286.997	0.35
287.21	0.26
287.424	0.27
287.637	0.28
287.851	0.29
288.065	0.36
288.278	0.25
288.492	0.29
288.705	0.33
288.919	0.28
289.132	0.21
289.346	0.41
289.559	0.19
289.773	0.21
289.986	0.26
290.2	0.27
290.413	0.33
290.626	0.24
290.84	0.24
291.053	0.28
291.267	0.39
291.48	0.26
291.693	0.27
291.906	0.2
292.12	0.27
292.333	0.24
292.546	0.25
292.76	0.4
292.973	0.28
293.186	0.31
293.399	0.22
293.612	0.34
293.826	0.34
294.039	0.28
294.252	0.22
294.465	0.35
294.678	0.28
294.891	0.3
295.104	0.2
295.317	0.26
295.53	0.29
295.743	0.31
295.956	0.22
296.169	0.38
296.382	0.3
296.595	0.25
296.808	0.19
297.021	0.35
297.234	0.35
297.447	0.29
297.66	0.3
297.873	0.33
298.086	0.34
298.299	0.21
298.511	0.17
298.724	0.27
298.937	0.2
299.15	0.23
299.363	0.25
299.575	0.35
299.788	0.31
300.001	0.22
300.213	0.2
300.426	0.22
300.639	0.22
300.852	0.22
301.064	0.26
301.277	0.35
301.489	0.34
301.702	0.27
301.915	0.28
302.127	0.25
302.34	0.25
302.552	0.28
302.765	0.23
302.977	0.3
303.19	0.23
303.402	0.2
303.615	0.27
303.827	0.3
304.04	0.25
304.252	0.3
304.464	0.25
304.677	0.41
304.889	0.24
305.102	0.19
305.314	0.24
305.526	0.3
305.739	0.29
305.951	0.17
306.163	0.23
306.375	0.34
306.588	0.28
306.8	0.19
307.012	0.2
307.224	0.27
307.436	0.37
307.649	0.16
307.861	0.21
308.073	0.31
308.285	0.23
308.497	0.21
308.709	0.23
308.921	0.25
309.133	0.33
309.346	0.25
309.558	0.25
309.77	0.32
309.982	0.36
310.194	0.3
310.406	0.2
310.617	0.35
310.829	0.31
311.041	0.29
311.253	0.16
311.465	0.25
311.677	0.28
311.889	0.25
312.101	0.2
312.313	0.3
312.524	0.32
312.736	0.2
312.948	0.24
313.16	0.38
313.372	0.29
313.583	0.25
313.795	0.24
314.007	0.22
314.218	0.31
314.43	0.25
314.642	0.27
314.853	0.18
315.065	0.3
315.277	0.23
315.488	0.31
315.7	0.33
315.912	0.3
316.123	0.3
316.335	0.27
316.546	0.4
316.758	0.26
316.969	0.26
317.181	0.27
317.392	0.25
317.604	0.33
317.815	0.2
318.026	0.21
318.238	0.18
318.449	0.3
318.661	0.16
318.872	0.18
319.083	0.2
319.295	0.25
319.506	0.24
319.717	0.29
319.929	0.32
320.14	0.24
320.351	0.25
320.562	0.24
320.774	0.28
320.985	0.25
321.196	0.26
321.407	0.15
321.618	0.31
321.829	0.29
322.041	0.25
322.252	0.28
322.463	0.28
322.674	0.31
322.885	0.19
323.096	0.23
323.307	0.32
323.518	0.26
323.729	0.22
323.94	0.18
324.151	0.25
324.362	0.28
324.573	0.26
324.784	0.22
324.995	0.34
325.206	0.31
325.417	0.2
325.628	0.22
325.838	0.27
326.049	0.24
326.26	0.28
326.471	0.22
326.682	0.27
326.892	0.27
327.103	0.13
327.314	0.22
327.525	0.33
327.735	0.31
327.946	0.24
328.157	0.18
328.368	0.28
328.578	0.29
328.789	0.3
328.999	0.24
329.21	0.22
329.421	0.32
329.631	0.28
329.842	0.2
330.052	0.25
330.263	0.32
330.473	0.3
330.684	0.25
330.894	0.23
331.105	0.32
331.315	0.26
331.526	0.2
331.736	0.39
331.947	0.27
332.157	0.25
332.367	0.18
332.578	0.29
332.788	0.34
332.999	0.28
333.209	0.26
333.419	0.17
333.629	0.31
333.84	0.3
334.05	0.28
334.26	0.36
334.47	0.25
334.681	0.26
334.891	0.17
335.101	0.3
335.311	0.41
335.521	0.24
335.732	0.23
335.942	0.3
336.152	0.28
336.362	0.23
336.572	0.26
336.782	0.31
336.992	0.25
337.202	0.27
337.412	0.26
337.622	0.27
337.832	0.26
338.042	0.23
338.252	0.18
338.462	0.23
338.672	0.26
338.882	0.23
339.092	0.22
339.302	0.39
339.511	0.3
339.721	0.22
339.931	0.2
340.141	0.35
340.351	0.31
340.561	0.26
340.77	0.26
340.98	0.23
341.19	0.28
341.4	0.19
341.609	0.25
341.819	0.25
342.029	0.18
342.238	0.29
342.448	0.22
342.658	0.27
342.867	0.27
343.077	0.25
343.286	0.26
343.496	0.3
343.706	0.32
343.915	0.24
344.125	0.26
344.334	0.3
344.544	0.21
344.753	0.23
344.963	0.17
345.172	0.23
345.381	0.24
345.591	0.19
345.8	0.24
346.01	0.35
346.219	0.33
346.428	0.23
346.638	0.22
346.847	0.27
347.056	0.35
347.266	0.22
347.475	0.23
347.684	0.33
347.893	0.3
348.103	0.25
348.312	0.22
348.521	0.27
348.73	0.28
348.94	0.29
349.149	0.25
349.358	0.27
349.567	0.2
349.776	0.16
349.985	0.21
350.194	0.34
350.403	0.27
350.612	0.2
350.821	0.19
351.03	0.21
351.239	0.2
351.448	0.28
351.657	0.2
351.866	0.35
352.075	0.25
352.284	0.17
352.493	0.2
352.702	0.31
352.911	0.25
353.12	0.26
353.329	0.21
353.538	0.26
353.746	0.27
353.955	0.21
354.164	0.22
354.373	0.22
354.582	0.26
354.79	0.23
354.999	0.32
355.208	0.24
355.416	0.33
355.625	0.19
355.834	0.23
356.042	0.27
356.251	0.21
356.46	0.16
356.668	0.24
356.877	0.35
357.085	0.32
357.294	0.17
357.503	0.26
357.711	0.26
357.92	0.41
358.128	0.25
358.337	0.19
358.545	0.27
358.754	0.22
358.962	0.31
359.17	0.24
359.379	0.28
359.587	0.28
359.796	0.22
360.004	0.3
360.212	0.31
360.421	0.28
360.629	0.24
360.837	0.24
361.046	0.34
361.254	0.36
361.462	0.23
361.67	0.2
361.879	0.23
362.087	0.33
362.295	0.29
362.503	0.24
362.711	0.18
362.92	0.21
363.128	0.21
363.336	0.17
363.544	0.18
363.752	0.26
363.96	0.26
364.168	0.21
364.376	0.25
364.584	0.29
364.792	0.31
365	0.25
365.208	0.22
365.416	0.34
365.624	0.29
365.832	0.2
366.04	0.31
366.248	0.28
366.456	0.25
366.664	0.22
366.872	0.23
367.079	0.29
367.287	0.24
367.495	0.25
367.703	0.23
367.911	0.25
368.118	0.22
368.326	0.22
368.534	0.23
368.742	0.32
368.949	0.23
369.157	0.18
369.365	0.27
369.572	0.23
369.78	0.19
369.988	0.25
370.195	0.25
370.403	0.33
370.61	0.21
370.818	0.3
371.026	0.36
371.233	0.22
371.441	0.26
371.648	0.23
371.856	0.26
372.063	0.27
372.271	0.24
372.478	0.23
372.685	0.23
372.893	0.31
373.1	0.26
373.308	0.24
373.515	0.36
373.722	0.33
373.93	0.22
374.137	0.32
374.344	0.35
374.552	0.32
374.759	0.26
374.966	0.26
375.173	0.29
375.381	0.31
375.588	0.27
375.795	0.18
376.002	0.23
376.209	0.22
376.417	0.27
376.624	0.27
376.831	0.28
377.038	0.28
377.245	0.17
377.452	0.23
377.659	0.26
377.866	0.19
378.073	0.28
378.28	0.24
378.487	0.35
378.694	0.3
378.901	0.25
379.108	0.25
379.315	0.31
379.522	0.37
379.729	0.29
379.936	0.27
380.143	0.27
380.35	0.27
380.557	0.24
380.763	0.25
380.97	0.3
381.177	0.28
381.384	0.28
381.591	0.24
381.797	0.28
382.004	0.32
382.211	0.31
382.418	0.22
382.624	0.29
382.831	0.33
383.038	0.27
383.244	0.25
383.451	0.26
383.658	0.29
383.864	0.25
384.071	0.22
384.277	0.35
384.484	0.25
384.69	0.33
384.897	0.21
385.103	0.25
385.31	0.26
385.516	0.23
385.723	0.28
385.929	0.3
386.136	0.25
386.342	0.32
386.549	0.29
386.755	0.31
386.961	0.3
387.168	0.25
387.374	0.24
387.58	0.31
387.787	0.28
387.993	0.24
388.199	0.27
388.406	0.27
388.612	0.27
388.818	0.25
389.024	0.25
389.231	0.31
389.437	0.42
389.643	0.3
389.849	0.3
390.055	0.29
390.261	0.27
390.467	0.33
390.674	0.24
390.88	0.27
391.086	0.32
391.292	0.26
391.498	0.3
391.704	0.33
391.91	0.31
392.116	0.25
392.322	0.17
392.528	0.34
392.734	0.29
392.94	0.31
393.146	0.26
393.352	0.32
393.557	0.29
393.763	0.34
393.969	0.35
394.175	0.34
394.381	0.31
394.587	0.24
394.792	0.31
394.998	0.38
395.204	0.36
395.41	0.29
395.615	0.33
395.821	0.34
396.027	0.4
396.233	0.26
396.438	0.36
396.644	0.36
396.85	0.31
397.055	0.32
397.261	0.36
397.466	0.46
397.672	0.35
397.878	0.41
398.083	0.39
398.289	0.28
398.494	0.4
398.7	0.36
398.905	0.23
399.111	0.44
399.316	0.25
399.522	0.35
399.727	0.34
399.932	0.32
400.138	0.34
400.343	0.33
400.549	0.33
400.754	0.35
400.959	0.37
401.165	0.38
401.37	0.35
401.575	0.5
401.78	0.35
401.986	0.35
402.191	0.35
402.396	0.38
402.601	0.44
402.807	0.4
403.012	0.37
403.217	0.46
403.422	0.41
403.627	0.43
403.832	0.4
404.037	0.47
404.243	0.42
404.448	0.4
404.653	0.41
404.858	0.48
405.063	0.46
405.268	0.42
405.473	0.41
405.678	0.38
405.883	0.64
406.088	0.52
406.293	0.42
406.498	0.48
406.703	0.5
406.907	0.46
407.112	0.41
407.317	0.51
407.522	0.62
407.727	0.45
407.932	0.52
408.136	0.64
408.341	0.55
408.546	0.56
408.751	0.54
408.956	0.58
409.16	0.64
409.365	0.6
409.57	0.6
409.774	0.64
409.979	0.66
410.184	0.66
410.388	0.63
410.593	0.71
410.798	0.7
411.002	0.72
411.207	0.76
411.411	0.78
411.616	0.81
411.82	0.82
412.025	0.81
412.229	0.84
412.434	0.95
412.638	0.94
412.843	0.9
413.047	0.95
413.252	0.9
413.456	0.98
413.66	1.05
413.865	1.05
414.069	1.11
414.273	1.05
414.478	1.08
414.682	1.12
414.886	1.2
415.091	1.17
415.295	1.26
415.499	1.39
415.703	1.28
415.908	1.44
416.112	1.32
416.316	1.56
416.52	1.53
416.724	1.44
416.929	1.57
417.133	1.79
417.337	1.71
417.541	1.74
417.745	1.72
417.949	1.94
418.153	1.99
418.357	2.04
418.561	2.21
418.765	2.12
418.969	2.3
419.173	2.35
419.377	2.32
419.581	2.58
419.785	2.5
419.989	2.58
420.193	2.71
420.397	2.79
420.601	2.93
420.804	3.07
421.008	2.98
421.212	3.15
421.416	3.15
421.62	3.13
421.823	3.26
422.027	3.44
422.231	3.39
422.435	3.41
422.638	3.44
422.842	3.62
423.046	3.58
423.249	3.78
423.453	3.77
423.657	4.03
423.86	4.07
424.064	4.17
424.268	4.31
424.471	4.34
424.675	4.54
424.878	4.62
425.082	4.72
425.285	5.06
425.489	5.01
425.692	4.99
425.896	5.05
426.099	5.27
426.303	5.43
426.506	5.55
426.71	5.75
426.913	5.92
427.116	6.13
427.32	6.11
427.523	6.19
427.726	6.55
427.93	6.58
428.133	6.93
428.336	7.07
428.54	7.14
428.743	7.36
428.946	7.71
429.149	7.72
429.353	7.69
429.556	7.78
429.759	7.8
429.962	7.93
430.165	8.08
430.368	7.73
430.571	7.86
430.775	7.91
430.978	7.88
431.181	7.92
431.384	8.11
431.587	8.07
431.79	8.48
431.993	8.4
432.196	8.76
432.399	9.05
432.602	9.26
432.805	9.37
433.008	9.78
433.211	9.65
433.414	10.11
433.616	10.18
433.819	10.08
434.022	10.2
434.225	10.35
434.428	10.44
434.631	10.87
434.833	10.72
435.036	10.92
435.239	11.12
435.442	11.06
435.645	11.39
435.847	11.39
436.05	11.71
436.253	11.92
436.455	11.93
436.658	11.8
436.861	12.23
437.063	12.2
437.266	12.15
437.468	12.6
437.671	12.83
437.874	13
438.076	12.66
438.279	13.16
438.481	13.36
438.684	14.05
438.886	13.62
439.089	14.03
439.291	13.94
439.494	14.29
439.696	14.42
439.899	14.92
440.101	15.47
440.303	15.54
440.506	16.23
440.708	15.92
440.91	16.27
441.113	16.5
441.315	16.5
441.517	16.43
441.72	16.93
441.922	16.6
442.124	16.42
442.326	16.9
442.529	17.09
442.731	17.05
442.933	17.53
443.135	17.2
443.337	17.09
443.539	17.81
443.742	17.34
443.944	17.97
444.146	17.92
444.348	17.77
444.55	17.58
444.752	17.86
444.954	17.83
445.156	17.66
445.358	18.19
445.56	18.52
445.762	18.29
445.964	18.73
446.166	18.45
446.368	18.37
446.57	18.46
446.772	17.89
446.974	17.84
447.175	18.02
447.377	17.84
447.579	18.23
447.781	17.75
447.983	17.78
448.184	17.28
448.386	17.67
448.588	17.18
448.79	17.11
448.991	17.46
449.193	17.48
449.395	16.92
449.597	16.46
449.798	16.36
450	15.99
450.202	15.82
450.403	15.76
450.605	15.79
450.806	15.26
451.008	15.33
451.21	14.96
451.411	14.58
451.613	13.85
451.814	14.09
452.016	14.11
452.217	13.4
452.419	13.35
452.62	13.11
452.821	12.85
453.023	12.78
453.224	12.29
453.426	11.91
453.627	11.19
453.828	11.37
454.03	11.23
454.231	11.34
454.432	11.21
454.634	10.91
454.835	10.68
455.036	10.56
455.238	10.11
455.439	9.93
455.64	9.64
455.841	9.56
456.042	9.7
456.244	9.32
456.445	9.01
456.646	8.63
456.847	8.72
457.048	8.6
457.249	8.65
457.45	8.38
457.651	7.87
457.852	7.83
458.054	7.35
458.255	7.29
458.456	7.33
458.657	7.26
458.858	6.8
459.058	6.76
459.259	6.83
459.46	6.51
459.661	6.47
459.862	6.57
460.063	6.43
460.264	6.29
460.465	6.07
460.666	6.01
460.866	5.85
461.067	5.6
461.268	5.66
461.469	5.5
461.67	5.41
461.87	5.29
462.071	5.3
462.272	5.23
462.473	5.14
462.673	5.33
462.874	5.21
463.075	5.25
463.275	5.18
463.476	5.26
463.676	5.14
463.877	4.93
464.078	4.95
464.278	5.06
464.479	4.87
464.679	4.75
464.88	4.78
465.08	4.66
465.281	4.49
465.481	4.34
465.682	4.18
465.882	4.15
466.083	4.12
466.283	4.11
466.483	4
466.684	3.8
466.884	3.75
467.085	3.72
467.285	3.79
467.485	3.66
467.686	3.66
467.886	3.43
468.086	3.4
468.286	3.43
468.487	3.49
468.687	3.32
468.887	3.29
469.087	3.38
469.287	3.27
469.488	3.1
469.688	3.25
469.888	3.24
470.088	3.18
470.288	3.08
470.488	3.13
470.688	2.94
470.888	2.91
471.088	2.74
471.288	2.85
471.488	2.87
471.688	2.79
471.888	2.71
472.088	2.85
472.288	2.81
472.488	2.66
472.688	2.63
472.888	2.69
473.088	2.6
473.288	2.56
473.488	2.52
473.688	2.63
473.887	2.54
474.087	2.48
474.287	2.44
474.487	2.39
474.687	2.45
474.886	2.34
475.086	2.35
475.286	2.35
475.486	2.29
475.685	2.29
475.885	2.26
476.085	2.3
476.284	2.27
476.484	2.3
476.684	2.25
476.883	2.34
477.083	2.23
477.282	2.23
477.482	2.22
477.681	2.15
477.881	2.08
478.08	2.08
478.28	2.12
478.479	2.17
478.679	2.18
478.878	2.06
479.078	2.01
479.277	2.15
479.477	2.1
479.676	2.08
479.875	2.05
480.075	2.01
480.274	2.05
480.473	2.12
480.673	2.02
480.872	2.11
481.071	2.07
481.271	2.1
481.47	2.05
481.669	2.03
481.868	2.01
482.067	2.02
482.267	1.95
482.466	1.94
482.665	1.98
482.864	1.95
483.063	1.96
483.262	2.05
483.461	2.06
483.661	2.04
483.86	2
484.059	2.07
484.258	2.07
484.457	2.04
484.656	2.01
484.855	2.15
485.054	1.99
485.253	1.99
485.452	1.99
485.651	2.08
485.849	2.02
486.048	2.05
486.247	2.02
486.446	2.08
486.645	2.02
486.844	2.03
487.043	2.02
487.241	2.11
487.44	2.11
487.639	2.17
487.838	2.16
488.037	2.13
488.235	2.23
488.434	2.16
488.633	2.09
488.831	2.25
489.03	2.25
489.229	2.19
489.427	2.25
489.626	2.26
489.825	2.35
490.023	2.3
490.222	2.28
490.42	2.33
490.619	2.36
490.817	2.41
491.016	2.36
491.214	2.37
491.413	2.44
491.611	2.39
491.81	2.42
492.008	2.46
492.207	2.53
492.405	2.52
492.604	2.45
492.802	2.52
493	2.6
493.199	2.59
493.397	2.64
493.595	2.7
493.794	2.65
493.992	2.79
494.19	2.7
494.388	2.82
494.587	2.76
494.785	2.83
494.983	2.71
495.181	2.84
495.379	2.92
495.578	2.93
495.776	2.97
495.974	2.9
496.172	2.96
496.37	3.1
496.568	3.1
496.766	3.06
496.964	3.14
497.162	3.15
497.36	3.17
497.558	3.22
497.756	3.31
497.954	3.23
498.152	3.38
498.35	3.47
498.548	3.34
498.746	3.41
498.944	3.38
499.142	3.46
499.34	3.52
499.538	3.61
499.736	3.5
499.933	3.59
500.131	3.61
500.329	3.74
500.527	3.77
500.725	3.83
500.922	3.88
501.12	3.85
501.318	3.95
501.516	3.93
501.713	4.03
501.911	4
502.109	3.94
502.306	4.09
502.504	4.01
502.701	4.08
502.899	4.12
503.097	4.31
503.294	4.2
503.492	4.35
503.689	4.32
503.887	4.33
504.084	4.43
504.282	4.38
504.479	4.41
504.677	4.6
504.874	4.6
505.072	4.42
505.269	4.63
505.466	4.67
505.664	4.72
505.861	4.61
506.059	4.74
506.256	4.82
506.453	4.81
506.651	4.94
506.848	4.97
507.045	4.94
507.242	4.95
507.44	4.92
507.637	5.08
507.834	5.02
508.031	5.16
508.229	5.05
508.426	5.08
508.623	5.28
508.82	5.3
509.017	5.22
509.214	5.22
509.411	5.36
509.608	5.3
509.805	5.44
510.003	5.37
510.2	5.44
510.397	5.64
510.594	5.47
510.791	5.59
510.988	5.68
511.184	5.6
511.381	5.51
511.578	5.67
511.775	5.75
511.972	5.71
512.169	5.75
512.366	5.77
512.563	5.93
512.76	5.93
512.956	6
513.153	5.88
513.35	5.88
513.547	5.89
513.744	5.95
513.94	5.99
514.137	6.16
514.334	6.07
514.53	6.12
514.727	6.34
514.924	6.26
515.12	6.18
515.317	6.24
515.514	6.17
515.71	6.19
515.907	6.47
516.103	6.37
516.3	6.31
516.497	6.45
516.693	6.48
516.89	6.44
517.086	6.49
517.283	6.59
517.479	6.42
517.676	6.55
517.872	6.59
518.068	6.62
518.265	6.61
518.461	6.51
518.658	6.63
518.854	6.64
519.05	6.78
519.247	6.75
519.443	6.74
519.639	6.81
519.836	6.76
520.032	6.71
520.228	6.89
520.424	6.83
520.621	6.87
520.817	6.89
521.013	6.88
521.209	7.08
521.405	7.03
521.601	6.94
521.798	6.97
521.994	6.98
522.19	6.92
522.386	6.96
522.582	7.07
522.778	7.21
522.974	7.09
523.17	7.08
523.366	7.08
523.562	7.05
523.758	7.18
523.954	7.01
524.15	7.15
524.346	7.21
524.542	7.24
524.738	7.21
524.934	7.33
525.129	7.26
525.325	7.22
525.521	7.14
525.717	7.5
525.913	7.28
526.109	7.34
526.304	7.38
526.5	7.34
526.696	7.43
526.892	7.32
527.087	7.56
527.283	7.46
527.479	7.47
527.674	7.28
527.87	7.47
528.066	7.47
528.261	7.51
528.457	7.4
528.653	7.6
528.848	7.55
529.044	7.64
529.239	7.5
529.435	7.52
529.63	7.47
529.826	7.52
530.021	7.49
530.217	7.56
530.412	7.54
530.608	7.57
530.803	7.62
530.999	7.47
531.194	7.59
531.389	7.71
531.585	7.58
531.78	7.75
531.975	7.66
532.171	7.75
532.366	7.66
532.561	7.72
532.757	7.63
532.952	7.86
533.147	7.63
533.342	7.71
533.538	7.62
533.733	7.89
533.928	7.53
534.123	7.72
534.318	7.77
534.513	7.67
534.709	7.86
534.904	7.81
535.099	7.83
535.294	7.84
535.489	7.86
535.684	7.81
535.879	7.82
536.074	7.87
536.269	7.87
536.464	7.92
536.659	7.73
536.854	7.82
537.049	7.95
537.244	7.82
537.439	7.83
537.634	7.85
537.828	7.93
538.023	7.91
538.218	7.85
538.413	7.81
538.608	7.89
538.803	7.9
538.997	7.89
539.192	7.87
539.387	7.91
539.582	7.91
539.776	7.83
539.971	7.97
540.166	8
540.36	7.92
540.555	8.03
540.75	7.95
540.944	7.98
541.139	7.96
541.334	7.95
541.528	7.98
541.723	8.06
541.917	8.05
542.112	7.88
542.306	7.83
542.501	7.86
542.695	7.94
542.89	7.89
543.084	8.01
543.279	7.92
543.473	8
543.668	8.09
543.862	7.91
544.056	7.88
544.251	8
544.445	8.07
544.64	8.06
544.834	7.76
545.028	7.69
545.222	8.02
545.417	8.18
545.611	8.09
545.805	8.02
546	7.83
546.194	8.01
546.388	8.08
546.582	7.87
546.776	7.93
546.97	8.04
547.165	8.06
547.359	8.02
547.553	7.98
547.747	8.05
547.941	8.2
548.135	7.96
548.329	8.07
548.523	8.09
548.717	8.01
548.911	7.99
549.105	7.98
549.299	8.17
549.493	8.04
549.687	7.94
549.881	8.13
550.075	8.06
550.269	7.97
550.463	8.09
550.657	8.07
550.85	8.06
551.044	8.02
551.238	8.11
551.432	7.98
551.626	8.13
551.82	8.06
552.013	7.97
552.207	8.17
552.401	8.13
552.594	8.03
552.788	8.01
552.982	8.01
553.176	7.95
553.369	8.23
553.563	8.08
553.756	8.08
553.95	8.1
554.144	8.08
554.337	8.12
554.531	7.99
554.724	8.05
554.918	8.14
555.111	8.03
555.305	8.07
555.498	8.1
555.692	8.16
555.885	8.09
556.079	8.05
556.272	8.04
556.466	8.06
556.659	8.05
556.852	8.12
557.046	7.99
557.239	7.89
557.432	8
557.626	8.13
557.819	8.14
558.012	8.14
558.206	8.17
558.399	8.03
558.592	8.04
558.785	8.06
558.979	8.03
559.172	8.1
559.365	8.06
559.558	8.03
559.751	7.93
559.944	8.19
560.138	8.08
560.331	8.13
560.524	8.14
560.717	8.09
560.91	8
561.103	8.05
561.296	8.03
561.489	8.15
561.682	8.15
561.875	8.1
562.068	8.18
562.261	7.96
562.454	8.25
562.647	8.09
562.84	8.13
563.032	8.12
563.225	8.03
563.418	8.01
563.611	8.07
563.804	8.1
563.997	8
564.19	7.85
564.382	8.08
564.575	8.1
564.768	7.95
564.961	8.12
565.153	8.05
565.346	7.95
565.539	8.17
565.731	8.06
565.924	8.1
566.117	8.22
566.309	8.14
566.502	7.99
566.695	8.01
566.887	8.16
567.08	8.07
567.272	8.01
567.465	7.91
567.657	8.12
567.85	7.92
568.042	8.07
568.235	8.1
568.427	7.85
568.62	7.98
568.812	8.06
569.005	8.09
569.197	7.92
569.389	8.07
569.582	8.01
569.774	8.04
569.966	7.84
570.159	8
570.351	7.9
570.543	7.97
570.736	7.99
570.928	7.92
571.12	8.02
571.312	7.96
571.505	7.74
571.697	8
571.889	7.96
572.081	8
572.273	7.97
572.465	7.93
572.658	7.99
572.85	7.93
573.042	7.98
573.234	7.87
573.426	7.93
573.618	7.89
573.81	7.95
574.002	7.9
574.194	7.95
574.386	7.84
574.578	7.72
574.77	7.9
574.962	7.86
575.154	7.74
575.346	7.77
575.538	7.78
575.729	7.77
575.921	7.88
576.113	7.92
576.305	7.88
576.497	7.93
576.689	7.81
576.88	7.68
577.072	7.91
577.264	7.83
577.456	7.82
577.647	7.75
577.839	7.9
578.031	7.84
578.223	7.8
578.414	7.72
578.606	7.81
578.798	7.86
578.989	7.74
579.181	7.86
579.372	7.75
579.564	7.86
579.755	7.76
579.947	7.66
580.139	7.82
580.33	7.66
580.522	7.72
580.713	7.65
580.905	7.71
581.096	7.78
581.287	7.67
581.479	7.67
581.67	7.77
581.862	7.67
582.053	7.72
582.244	7.57
582.436	7.76
582.627	7.62
582.818	7.57
583.01	7.61
583.201	7.65
583.392	7.64
583.583	7.54
583.775	7.44
583.966	7.61
584.157	7.57
584.348	7.71
584.54	7.51
584.731	7.58
584.922	7.5
585.113	7.38
585.304	7.59
585.495	7.54
585.686	7.51
585.877	7.59
586.068	7.58
586.259	7.56
586.45	7.48
586.641	7.42
586.832	7.51
587.023	7.44
587.214	7.45
587.405	7.51
587.596	7.41
587.787	7.34
587.978	7.42
588.169	7.34
588.36	7.34
588.551	7.38
588.742	7.41
588.932	7.47
589.123	7.16
589.314	7.44
589.505	7.38
589.696	7.3
589.886	7.29
590.077	7.31
590.268	7.21
590.458	7.22
590.649	7.08
590.84	7.31
591.03	7.26
591.221	7.22
591.412	7.12
591.602	7.36
591.793	7.2
591.984	7.25
592.174	7.19
592.365	7.34
592.555	7.04
592.746	7.11
592.936	7.06
593.127	7.2
593.317	7.18
593.508	7.16
593.698	7.04
593.889	7.09
594.079	7.05
594.269	6.94
594.46	7.01
594.65	7.09
594.84	7.04
595.031	6.89
595.221	6.96
595.411	7.04
595.602	7.07
595.792	6.91
595.982	6.83
596.172	7
596.363	6.78
596.553	6.84
596.743	6.9
596.933	6.89
597.123	6.86
597.314	6.71
597.504	6.77
597.694	6.88
597.884	6.76
598.074	6.78
598.264	6.8
598.454	6.83
598.644	6.71
598.834	6.74
599.024	6.62
599.214	6.69
599.404	6.77
599.594	6.67
599.784	6.61
599.974	6.67
600.164	6.64
600.354	6.65
600.544	6.55
600.734	6.54
600.924	6.54
601.114	6.51
601.303	6.48
601.493	6.54
601.683	6.56
601.873	6.51
602.063	6.42
602.252	6.43
602.442	6.34
602.632	6.4
602.821	6.34
603.011	6.47
603.201	6.35
603.39	6.36
603.58	6.25
603.77	6.39
603.959	6.41
604.149	6.29
604.339	6.36
604.528	6.43
604.718	6.33
604.907	6.25
605.097	6.21
605.286	6.21
605.476	6.23
605.665	6.24
605.855	6.16
606.044	6.22
606.234	6.2
606.423	6.15
606.612	6.11
606.802	6.1
606.991	6.17
607.181	6.19
607.37	6.15
607.559	5.88
607.749	6.04
607.938	5.96
608.127	6.02
608.316	5.99
608.506	6.03
608.695	6.04
608.884	5.96
609.073	5.96
609.263	6.07
609.452	6
609.641	5.83
609.83	5.82
610.019	5.92
610.208	5.81
610.397	5.81
610.586	5.79
610.775	5.75
610.965	5.75
611.154	5.68
611.343	5.76
611.532	5.7
611.721	5.74
611.91	5.66
612.099	5.59
612.287	5.58
612.476	5.56
612.665	5.72
612.854	5.58
613.043	5.64
613.232	5.57
613.421	5.47
613.61	5.51
613.798	5.56
613.987	5.56
614.176	5.52
614.365	5.56
614.554	5.47
614.742	5.53
614.931	5.29
615.12	5.46
615.309	5.44
615.497	5.36
615.686	5.28
615.875	5.37
616.063	5.33
616.252	5.33
616.44	5.32
616.629	5.33
616.818	5.26
617.006	5.24
617.195	5.11
617.383	5.2
617.572	5.23
617.76	5.17
617.949	5.24
618.137	5.22
618.326	5.27
618.514	4.98
618.703	4.98
618.891	5.13
619.079	5.07
619.268	5.12
619.456	5.02
619.644	5.09
619.833	4.98
620.021	4.96
620.209	4.85
620.398	5.02
620.586	4.93
620.774	4.93
620.962	4.93
621.151	4.97
621.339	4.86
621.527	4.73
621.715	4.8
621.903	4.78
622.092	4.76
622.28	4.84
622.468	4.69
622.656	4.75
622.844	4.76
623.032	4.79
623.22	4.63
623.408	4.83
623.596	4.74
623.784	4.7
623.972	4.64
624.16	4.65
624.348	4.66
624.536	4.7
624.724	4.5
624.912	4.6
625.1	4.54
625.288	4.59
625.476	4.53
625.664	4.6
625.851	4.46
626.039	4.53
626.227	4.44
626.415	4.46
626.603	4.39
626.79	4.46
626.978	4.35
627.166	4.49
627.354	4.26
627.541	4.38
627.729	4.24
627.917	4.43
628.104	4.45
628.292	4.26
628.48	4.29
628.667	4.25
628.855	4.36
629.042	4.34
629.23	4.25
629.418	4.21
629.605	4.17
629.793	4.14
629.98	4.14
630.168	4.17
630.355	4.19
630.543	4.16
630.73	4.07
630.917	4.09
631.105	4.2
631.292	4.08
631.48	4.1
631.667	4.16
631.854	4.07
632.042	3.98
632.229	3.96
632.416	4
632.604	4.02
632.791	3.87
632.978	3.99
633.165	3.89
633.353	3.96
633.54	4
633.727	3.77
633.914	3.78
634.101	3.8
634.289	3.93
634.476	3.75
634.663	3.78
634.85	3.81
635.037	3.75
635.224	3.69
635.411	3.82
635.598	3.71
635.785	3.64
635.972	3.68
636.159	3.68
636.346	3.68
636.533	3.62
636.72	3.62
636.907	3.58
637.094	3.62
637.281	3.44
637.468	3.59
637.655	3.54
637.842	3.56
638.029	3.53
638.215	3.47
638.402	3.51
638.589	3.44
638.776	3.45
638.963	3.4
639.149	3.49
639.336	3.52
639.523	3.43
639.709	3.4
639.896	3.41
640.083	3.37
640.27	3.34
640.456	3.31
640.643	3.37
640.829	3.19
641.016	3.26
641.203	3.21
641.389	3.3
641.576	3.26
641.762	3.25
641.949	3.14
642.135	3.25
642.322	3.2
642.508	3.1
642.695	3.2
642.881	3.14
643.068	3.04
643.254	3.11
643.441	3.15
643.627	3.16
643.813	3.07
644	3.13
644.186	3.02
644.372	3.06
644.559	3.05
644.745	3
644.931	2.97
645.118	3.03
645.304	3.02
645.49	2.96
645.676	2.97
645.862	2.96
646.049	3.05
646.235	2.96
646.421	3.05
646.607	3.03
646.793	2.84
646.979	2.82
647.165	2.88
647.352	2.89
647.538	2.92
647.724	2.86
647.91	2.78
648.096	2.86
648.282	2.81
648.468	2.77
648.654	2.84
648.84	2.78
649.026	2.8
649.212	2.66
649.397	2.69
649.583	2.69
649.769	2.76
649.955	2.73
650.141	2.69
650.327	2.72
650.513	2.7
650.698	2.65
650.884	2.54
651.07	2.67
651.256	2.6
651.442	2.59
651.627	2.53
651.813	2.61
651.999	2.52
652.184	2.51
652.37	2.56
652.556	2.55
652.741	2.61
652.927	2.41
653.113	2.48
653.298	2.49
653.484	2.48
653.669	2.39
653.855	2.46
654.04	2.5
654.226	2.47
654.412	2.44
654.597	2.38
654.782	2.45
654.968	2.43
655.153	2.37
655.339	2.37
655.524	2.35
655.71	2.39
655.895	2.35
656.08	2.33
656.266	2.4
656.451	2.32
656.636	2.21
656.822	2.28
657.007	2.28
657.192	2.25
657.378	2.2
657.563	2.2
657.748	2.26
657.933	2.2
658.118	2.17
658.304	2.2
658.489	2.28
658.674	2.26
658.859	2.19
659.044	2.18
659.229	2.22
659.414	2.19
659.599	2.16
659.785	2.08
659.97	2.14
660.155	2.14
660.34	2.17
660.525	2.07
660.71	2.03
660.895	2.11
661.08	2.09
661.264	2.02
661.449	2.05
661.634	2.05
661.819	2.07
662.004	1.98
662.189	1.93
662.374	1.97
662.559	1.95
662.743	1.94
662.928	2.01
663.113	1.95
663.298	1.87
663.483	1.9
663.667	1.97
663.852	1.92
664.037	1.94
664.221	1.89
664.406	1.99
664.591	1.92
664.775	1.89
664.96	1.91
665.145	1.89
665.329	1.91
665.514	1.85
665.698	1.77
665.883	1.75
666.068	1.91
666.252	1.81
666.437	1.76
666.621	1.79
666.806	1.84
666.99	1.79
667.174	1.76
667.359	1.84
667.543	1.74
667.728	1.75
667.912	1.68
668.096	1.78
668.281	1.72
668.465	1.73
668.649	1.7
668.834	1.67
669.018	1.72
669.202	1.71
669.387	1.63
669.571	1.75
669.755	1.64
669.939	1.67
670.124	1.64
670.308	1.68
670.492	1.71
670.676	1.66
670.86	1.59
671.044	1.53
671.228	1.71
671.413	1.57
671.597	1.55
671.781	1.58
671.965	1.59
672.149	1.57
672.333	1.59
672.517	1.53
672.701	1.57
672.885	1.53
673.069	1.44
673.253	1.61
673.437	1.52
673.621	1.49
673.804	1.53
673.988	1.53
674.172	1.49
674.356	1.36
674.54	1.59
674.724	1.59
674.908	1.49
675.091	1.52
675.275	1.44
675.459	1.54
675.643	1.55
675.826	1.43
676.01	1.5
676.194	1.42
676.377	1.53
676.561	1.46
676.745	1.42
676.928	1.43
677.112	1.58
677.296	1.42
677.479	1.39
677.663	1.4
677.846	1.41
678.03	1.44
678.213	1.29
678.397	1.41
678.58	1.36
678.764	1.32
678.947	1.28
679.131	1.34
679.314	1.39
679.498	1.27
679.681	1.36
679.865	1.38
680.048	1.31
680.231	1.31
680.415	1.3
680.598	1.27
680.781	1.23
680.965	1.27
681.148	1.27
681.331	1.24
681.514	1.29
681.698	1.23
681.881	1.22
682.064	1.29
682.247	1.29
682.43	1.09
682.614	1.2
682.797	1.3
682.98	1.33
683.163	1.19
683.346	1.24
683.529	1.19
683.712	1.16
683.895	1.22
684.078	1.13
684.261	1.2
684.444	1.19
684.627	1.2
684.81	1.13
684.993	1.18
685.176	1.23
685.359	1.1
685.542	1.09
685.725	1.28
685.908	1.16
686.091	1.14
686.274	1.2
686.457	1.24
686.639	1.05
686.822	1.18
687.005	1.14
687.188	1.15
687.371	1.25
687.553	1.18
687.736	1.13
687.919	1.22
688.102	1.22
688.284	1.04
688.467	1.03
688.65	1.08
688.832	1.01
689.015	1.07
689.197	0.99
689.38	1.13
689.563	1.2
689.745	0.98
689.928	1.01
690.11	1.03
690.293	1.07
690.475	0.92
690.658	1.07
690.84	1.03
691.023	0.98
691.205	0.99
691.388	1
691.57	1.11
691.752	1.1
691.935	0.87
692.117	0.96
692.3	1.03
692.482	0.93
692.664	0.93
692.847	0.99
693.029	1.06
693.211	1.06
693.393	0.89
693.576	0.93
693.758	0.96
693.94	0.95
694.122	0.96
694.304	0.91
694.487	0.9
694.669	1.03
694.851	0.87
695.033	0.86
695.215	0.9
695.397	0.84
695.579	0.91
695.761	0.84
695.943	0.84
696.125	1.01
696.308	0.98
696.49	0.77
696.671	1
696.853	0.89
697.035	1.15
697.217	0.86
697.399	0.98
697.581	0.85
697.763	0.85
697.945	0.78
698.127	0.86
698.309	0.93
698.491	0.89
698.672	0.95
698.854	0.9
699.036	0.84
699.218	0.84
699.399	0.85
699.581	0.92
699.763	0.78
699.945	0.8
700.126	0.73
700.308	0.86
700.49	0.84
700.671	0.71
700.853	0.78
701.035	0.79
701.216	0.79
701.398	0.73
701.579	0.77
701.761	0.89
701.943	0.76
702.124	0.74
702.306	0.74
702.487	1.03
702.669	0.8
702.85	0.75
703.031	0.67
703.213	0.88
703.394	0.84
703.576	0.7
703.757	0.9
703.938	0.83
704.12	0.95
704.301	0.77
704.483	0.68
704.664	0.8
704.845	0.92
705.026	0.74
705.208	0.69
705.389	0.76
705.57	0.74
705.751	0.72
705.933	0.76
706.114	0.92
706.295	0.78
706.476	0.63
706.657	0.8
706.838	0.82
707.02	0.84
707.201	0.69
707.382	0.67
707.563	0.76
707.744	0.7
707.925	0.67
708.106	0.65
708.287	0.7
708.468	0.79
708.649	0.76
708.83	0.74
709.011	0.67
709.192	0.74
709.373	0.61
709.554	0.69
709.734	0.77
709.915	0.75
710.096	0.76
710.277	0.52
710.458	0.72
710.639	0.77
710.819	0.52
711	0.6
711.181	0.72
711.362	0.76
711.542	0.64
711.723	0.64
711.904	0.79
712.085	0.71
712.265	0.59
712.446	0.43
712.627	0.65
712.807	0.62
712.988	0.64
713.168	0.52
713.349	0.64
713.53	0.5
713.71	0.58
713.891	0.54
714.071	0.66
714.252	0.61
714.432	0.6
714.613	0.51
714.793	0.6
714.974	0.8
715.154	0.7
715.334	0.59
715.515	0.74
715.695	0.5
715.876	0.69
716.056	0.57
716.236	0.52
716.417	0.62
716.597	0.51
716.777	0.78
716.957	0.59
717.138	0.58
717.318	0.57
717.498	0.43
717.678	0.62
717.859	0.64
718.039	0.47
718.219	0.59
718.399	0.64
718.579	0.5
718.759	0.47
718.939	0.59
719.12	0.62
719.3	0.6
719.48	0.44
719.66	0.42
719.84	0.66
720.02	0.56
720.2	0.58
720.38	0.51
720.56	0.81
720.74	0.44
720.92	0.56
721.1	0.7
721.279	0.57
721.459	0.56
721.639	0.45
721.819	0.6
721.999	0.55
722.179	0.66
722.359	0.5
722.538	0.58
722.718	0.59
722.898	0.52
723.078	0.44
723.257	0.44
723.437	0.6
723.617	0.54
723.797	0.5
723.976	0.54
724.156	0.69
724.336	0.62
724.515	0.68
724.695	0.42
724.874	0.5
725.054	0.59
725.234	0.48
725.413	0.46
725.593	0.54
725.772	0.52
725.952	0.43
726.131	0.47
726.311	0.53
726.49	0.52
726.67	0.39
726.849	0.39
727.028	0.52
727.208	0.48
727.387	0.62
727.567	0.38
727.746	0.47
727.925	0.41
728.105	0.43
728.284	0.52
728.463	0.41
728.643	0.56
728.822	0.44
729.001	0.53
729.18	0.48
729.359	0.57
729.539	0.49
729.718	0.56
729.897	0.61
730.076	0.49
730.255	0.31
730.434	0.5
730.614	0.61
730.793	0.61
730.972	0.38
731.151	0.4
731.33	0.61
731.509	0.58
731.688	0.51
731.867	0.52
732.046	0.34
732.225	0.67
732.404	0.43
732.583	0.37
732.762	0.5
732.941	0.59
733.12	0.44
733.298	0.52
733.477	0.73
733.656	0.4
733.835	0.38
734.014	0.68
734.193	0.48
734.371	0.46
734.55	0.54
734.729	0.39
734.908	0.58
735.086	0.57
735.265	0.56
735.444	0.35
735.623	0.42
735.801	0.36
735.98	0.59
736.159	0.51
736.337	0.57
736.516	0.54
736.694	0.52
736.873	0.31
737.052	0.74
737.23	0.76
737.409	0.48
737.587	0.73
737.766	0.28
737.944	0.52
738.123	0.52
738.301	0.53
738.479	0.46
738.658	0.57
738.836	0.28
739.015	0.47
739.193	0.55
739.371	0.29
739.55	0.43
739.728	0.41
739.906	0.66
740.085	0.6
740.263	0.55
740.441	0.33
740.62	0.76
740.798	0.52
740.976	0.4
741.154	0.33
741.332	0.79
741.511	0.38
741.689	0.48
741.867	0.49
742.045	0.51
742.223	0.45
742.401	0.26
742.579	0.25
742.757	0.63
742.935	0.39
743.114	0.31
743.292	0.45
743.47	0.56
743.648	0.45
743.826	0.43
744.004	0.5
744.181	0.64
744.359	0.39
744.537	0.52
744.715	0.34
744.893	0.49
745.071	0.61
745.249	0.38
745.427	0.49
745.605	0.57
745.782	0.52
745.96	0.51
746.138	0.54
746.316	0.58
746.493	0.42
746.671	0.45
746.849	0.43
747.027	0.64
747.204	0.37
747.382	0.46
747.56	0.18
747.737	0.34
747.915	0.34
748.093	0.55
748.27	0.3
748.448	0.38
748.625	0.28
748.803	0.32
748.98	0.32
749.158	0.42
749.335	0.49
749.513	0.45
749.69	0.36
749.868	0.5
750.045	0.4
750.223	0.36
750.4	0.14
750.578	0.61
750.755	0.44
750.932	0.24
751.11	0.53
751.287	0.37
751.464	0.62
751.642	0.3
751.819	0.44
751.996	0.54
752.173	0.47
752.351	0.37
752.528	0.45
752.705	0.31
752.882	0.35
753.06	0.46
753.237	0.42
753.414	0.55
753.591	0.73
753.768	0.44
753.945	0.3
754.122	0.39
754.299	0.48
754.476	0.31
754.654	0.46
754.831	0.52
755.008	0.58
755.185	0.31
755.362	0.36
755.539	0.55
755.716	0.26
755.892	0.39
756.069	0.37
756.246	0.51
756.423	0.41
756.6	0.49
756.777	0.22
756.954	0.64
757.131	0.32
757.307	0.21
757.484	0.3
757.661	0.43
757.838	0.37
758.015	0.22
758.191	0.33
758.368	0.53
758.545	0.56
758.721	0.39
758.898	0.3
759.075	0.5
759.251	0.46
759.428	0.38
759.605	0.17
759.781	0.4
759.958	0.47
760.134	0.37
760.311	0.26
760.488	0.53
760.664	0.55
760.841	0.38
761.017	0.25
761.194	0.52
761.37	0.49
761.547	0.51
761.723	0.45
761.899	0.53
762.076	0.31
762.252	0.38
762.429	0.34
762.605	0.5
762.781	0.27
762.958	0.47
763.134	0.32
763.31	0.32
763.486	0.51
763.663	0.17
763.839	0.36
764.015	0.17
764.191	0.34
764.368	0.39
764.544	0.25
764.72	0.36
764.896	0.46
765.072	0.33
765.248	0.4
765.425	0.32
765.601	0.42
765.777	0.36
765.953	0.17
766.129	0.23
766.305	0.22
766.481	0.51
766.657	0.36
766.833	0.57
767.009	0.28
767.185	0.38
767.361	0.31
767.537	0.22
767.713	0.62
767.889	0.23
768.065	0.49
768.24	0.48
768.416	0.36
768.592	0.41
768.768	0.41
768.944	0.49
769.12	0.28
769.295	0.33
769.471	0.33
769.647	0.47
769.823	0.65
769.998	0.2
770.174	0.17
770.35	0.75
770.525	0.87
770.701	0.4
770.877	0.36
771.052	0.13
771.228	0.59
771.403	0.42
771.579	0.47
771.755	0.67
771.93	0.26
772.106	0.2
772.281	0.04
772.457	0.53
772.632	0.49
772.808	0.23
772.983	0.25
773.159	0.11
773.334	0.68
773.509	0.47
773.685	0.14
773.86	0.75
774.036	0.64
774.211	0.32
774.386	0.31
774.562	0.41
774.737	0.47
774.912	0.15
775.087	0.57
775.263	0.45
775.438	0.31
775.613	0.2
775.788	0.24
775.964	0.61
776.139	0.93
776.314	0.15
776.489	0.49
776.664	0.62
776.839	0.32
777.014	0.51
777.19	0.46
777.365	0.8
777.54	0.74
777.715	0.07
777.89	0.32
778.065	0.3
778.24	0.28
778.415	0.54
778.59	0.2
778.765	0.48
778.94	0.52
779.115	0.5
779.289	0.31
779.464	0.27
779.639	0.37
779.814	0.06
779.989	-0.04
780.164	0.63
780.339	0.39
780.513	0.42
780.688	0.13
780.863	0.41
781.038	0.77
781.212	0.32
781.387	0.32
781.562	0.7
781.737	0.3
781.911	0.67
782.086	0.2
782.261	0.42
782.435	0.81
782.61	0.36
782.784	0.44
782.959	0.84
783.134	0.31
783.308	0.1
783.483	0.24
783.657	0.98
783.832	0.62
784.006	0.06
784.181	0.45
784.355	0.57
784.53	0.39
784.704	0.26
784.878	0.69
785.053	0.53
785.227	0.85
785.402	0.81
785.576	0.22
785.75	0.55
785.925	0.35
786.099	0.41
786.273	0.54
786.448	0.54
786.622	0.67
786.796	0.42
786.97	0.49
787.145	1.07
787.319	0.23
787.493	0.37
787.667	0.15
787.841	0.46
788.015	0.78
788.19	0.36
788.364	0.25
788.538	0.71
788.712	0.81
788.886	0.26
789.06	0.55
789.234	0.82
789.408	0.1
789.582	0.47
789.756	0.44
789.93	0.32
790.104	0.25
790.278	0.28
790.452	0.06
790.626	0.55
790.8	0.33
790.973	0.57
791.147	0.98
791.321	0.87
791.495	0.72
791.669	0.6
791.843	0.65
792.016	0.51
792.19	1.03
792.364	0.26
792.538	1.18
792.711	0.75
792.885	0.25
793.059	0.32
793.233	-0.05
793.406	0.64
793.58	0.7
793.754	0.63
793.927	0.39
794.101	0.69
794.274	0.47
794.448	0.88
794.622	0.09
794.795	0.9
794.969	0.32
795.142	0.83
795.316	0.2
795.489	0.35
795.663	1.1
795.836	0.62
796.009	0.33
796.183	1.03
796.356	0.54
796.53	0.53
796.703	0.3
796.876	1.2
797.05	0.53
797.223	0.2
797.396	0.59
797.57	0.58
797.743	0.94
797.916	0.6
798.09	0.26
798.263	0.92
798.436	0.63
798.609	0.48
798.782	0.3
798.956	0.69
799.129	0.43
799.302	0.53
799.475	0.28
799.648	0.36
799.821	0.3
799.994	0.53
800.167	0.21
800.34	0.58
800.514	0.45
800.687	0.36
800.86	0.29
801.033	0.67
801.206	1.03
801.379	0.12
801.551	0.76
801.724	0.57
801.897	1.07
802.07	0.54
802.243	-0.06
802.416	0.81
802.589	0.8
802.762	0.77
802.935	0.65
803.107	0.95
803.28	0.68
803.453	0.98
803.626	0.18
803.798	0.53
803.971	0.42
804.144	0.67
804.317	0.9
804.489	1.09
804.662	0.9
804.835	0.76
805.007	0.15
805.18	1.4
805.353	0.43
805.525	0.45
805.698	0.23
805.87	1.06
806.043	0.99
806.215	0.19
806.388	0.2
806.56	0.68
806.733	0.97
806.905	0.68
807.078	0.18
807.25	0.17
807.423	0.75
807.595	0.45
807.768	0.79
807.94	0.86
808.112	0.73
808.285	0.76
808.457	0.37
808.629	0.66
808.802	0.41
808.974	0.76
809.146	0.05
809.318	0.27
809.491	0.96
809.663	0.78
809.835	0.37
810.007	0.67
810.18	0.52
810.352	-0.11
810.524	0.17
810.696	0.91
810.868	1.39
811.04	0.59
811.212	0.64
811.384	1.12
811.556	1.06
811.728	0.22
811.901	1.47
812.073	0.55
812.245	1.1
812.417	0.16
812.589	0.13
812.76	0.8
812.932	0.56
813.104	0.82
813.276	0.33
813.448	1.03
813.62	0.63
813.792	0.6
813.964	0.54
814.136	0.53
814.307	0.57
814.479	0.14
814.651	0.62
814.823	1.67
814.995	0.91
815.166	0.66
815.338	0.76
815.51	0.29
815.681	1.62
815.853	0.91
816.025	0.63
816.196	1.21
816.368	1.29
816.54	-0.2
816.711	0.42
816.883	0.66
817.054	1.87
817.226	0.1
817.398	0.75
817.569	0.43
817.741	0.41
817.912	0.4
818.084	0.45
818.255	1.25
818.426	0.31
818.598	0.48
818.769	0.28
818.941	0.87
819.112	1.25
819.283	0.82
819.455	0.15
819.626	0.64
819.798	0.89
819.969	0.78
820.14	0.12
820.311	0.72
820.483	1.09
820.654	0.91
820.825	0.31
820.996	0.61
821.168	-0.14
821.339	0.33
821.51	0.2
821.681	0.6
821.852	1.08
822.023	0.3
822.195	0.66
822.366	1.54
822.537	1.21
822.708	0.64
822.879	0.36
823.05	1.16
823.221	0.6
823.392	0.92
823.563	0.67
823.734	0.71
823.905	0.58
824.076	0.62
824.247	0.11
824.418	0.89
824.589	1.16
824.759	0.59
824.93	0.82
825.101	-0.47
825.272	1.47
825.443	1.38
825.614	1.18
825.784	0.25
825.955	1.86
826.126	1.59
826.297	0.01
826.467	1.34
826.638	2.27
826.809	-0.05
826.98	0.75
827.15	1.27
827.321	0.85
827.492	1.7
827.662	1.11
827.833	2.48
828.003	1.46
828.174	0.17
828.345	0.38
828.515	1.71
828.686	1.04
828.856	0.57
829.027	0.89
829.197	1.14
829.368	1.22
829.538	0.82
829.709	0.02
829.879	0.88
830.049	1.21
830.22	0.5
830.39	0.85
830.56	1.85
830.731	0.8
830.901	-0.23
831.072	0.71
831.242	1.39
831.412	1.16
831.582	0.8
831.753	-0.05
831.923	1.46
832.093	1.42
832.263	0.65
832.434	-0.07
832.604	0.3
832.774	0.8
832.944	0.63
833.114	0.49
833.284	1.28
833.454	1.12
833.624	0.6
833.795	0.64
833.965	1.32
834.135	2.21
834.305	-1.13
834.475	-0.34
834.645	1.18
834.815	1.23
834.985	0.71
835.155	0.2
835.325	1.18
835.494	1.55
835.664	1.14
835.834	0.12
836.004	1.52
836.174	1.58
836.344	1.13
836.514	0.67
836.684	0.85
836.853	0.47
837.023	1.11
837.193	0.6
837.363	1.91
837.532	2.43
837.702	0.83
837.872	0.56
838.041	1.55
838.211	2.61
838.381	0.78
838.55	1.13
838.72	3.1
838.89	2.76
839.059	0.34
839.229	0.2
839.398	3.04
839.568	0.72
839.738	0.69
839.907	1.28
840.077	0.79
840.246	0.9
840.416	0.04
840.585	0.9
840.755	2.28
840.924	2.57
841.093	0.1
841.263	0.71
841.432	0.85
841.602	0.59
841.771	0.4
841.94	0.81
842.11	3.58
842.279	2.36
842.448	-0.12
842.617	0.42
842.787	2.87
842.956	0.56
843.125	0.81
843.294	1.1
843.464	2.8
843.633	2.21
843.802	0.33
843.971	-0.3
844.14	1.81
844.309	2.16
844.479	-0.4
844.648	0.25
844.817	0.76
844.986	0.77
845.155	0.21
845.324	0.56
845.493	0.18
845.662	1.31
845.831	1.13
846	1.32
846.169	0.57
846.338	2.2
846.507	1.42
846.676	1.29
846.844	1.64
847.013	1.38
847.182	1.37
847.351	0.31
847.52	2.03
847.689	1.65
847.858	1.09
848.026	0.35
848.195	1.39
848.364	1.7
848.533	-0.12
848.701	0.65
848.87	1.84
849.039	3.49
849.207	2.1
849.376	2.33
849.545	3.19
849.713	0.78
849.882	0.87
850.051	0.79
850.219	0.74
850.388	1.77
850.556	1.04
850.725	1.32
850.893	1.25
851.062	1.06
851.23	2.34
851.399	-0.47
851.567	1.6
851.736	2.14
851.904	0.51
852.073	1.33
852.241	2.76
852.41	1.56
852.578	0.8
852.746	0.78
852.915	2.52
853.083	2.06
853.251	-0.51
853.42	1.41
853.588	1.9
853.756	3.69
853.924	1.78
854.093	1.51
854.261	0.81
854.429	-0.23
854.597	2.65
854.765	-0.04
854.934	2.78
855.102	2.71
855.27	0.85
855.438	1.65
855.606	3.16
855.774	4.27
855.942	-1.52
856.11	0.56
856.278	1.23
856.446	2.07
856.614	1.66
856.782	0.93
856.95	2.35
857.118	2.31
857.286	1.31
857.454	1.14
857.622	3.29
857.79	2.78
857.958	0.68
858.126	0.76
858.294	-1.62
858.462	0.33
858.629	0.82
858.797	0.49
858.965	1.52
859.133	2.16
859.301	1.2
859.468	2.02
859.636	0.73
859.804	5.05
859.971	2.95
860.139	0.84
860.307	3.1
860.474	2.24
860.642	0.37
860.81	0.51
860.977	1.41
861.145	2.61
861.313	0.35
861.48	1.89
861.648	2.64
861.815	1.15
861.983	0.38
862.15	0.29
862.318	2.57
862.485	4.16
862.653	0.2
862.82	0.88
862.988	3.53
863.155	0.62
863.322	1.2
863.49	-0.43
863.657	1.28
863.824	4.54
863.992	2.73
864.159	2.01
864.326	4.36
864.494	0.76
864.661	4.38
864.828	-0.03
864.996	3.29
865.163	5.12
865.33	2.03
865.497	-0.33
865.664	0.13
865.832	0.06
865.999	1.21
866.166	0.18
866.333	1.01
866.5	0.76
866.667	1.32
866.834	1.54
867.001	4.3
867.168	-1.76
867.335	2.52
867.502	-1.76
867.669	2.25
867.836	6
868.003	1.41
868.17	1.65
868.337	4.79
868.504	7.15
868.671	-1.97
868.838	0.95
869.005	2.7
869.172	3.61
869.339	0.78
869.505	1.21
869.672	1.58
869.839	5.93
870.006	2.61
870.173	-0.54
870.339	2.21
870.506	5.16
870.673	0.05
870.84	3.09
871.006	1.95
871.173	1.51
871.34	1.92
871.506	0.11
871.673	3.28
871.839	-0.38
872.006	2.47
872.173	1.38
872.339	2.79
872.506	3.94
872.672	0.67
872.839	0.67
873.005	4.93
873.172	6.5
873.338	3.04
873.505	2.6
873.671	3.32
873.838	2.07
874.004	-0.94
874.171	0.8
874.337	2.21
874.503	2.78
874.67	1.79
874.836	0.72
875.002	4.49
875.169	4.17
875.335	2.18
875.501	1.91
875.668	3.98
875.834	2.02
876	1.42
876.166	3.59
876.332	3.16
876.499	5.47
876.665	2.25
876.831	2.12
876.997	5.38
877.163	3.29
877.329	1.7
877.495	3.15
877.662	3.96
877.828	0.95
877.994	0.53
878.16	-0.61
878.326	2.57
878.492	2.46
878.658	-0.11
878.824	3.01
878.99	3.44
879.156	1.47
879.322	5.64
879.487	1.1
879.653	4.17
879.819	4.04
879.985	0.85
880.151	2.78
880.317	3.72
880.483	1.42
880.648	3.34
880.814	0.06
880.98	2.68
881.146	-1.28
881.312	0.84
881.477	2.08
881.643	1.71
881.809	5.29
881.974	3.25
882.14	-0.38
882.306	2.28
882.471	5.67
882.637	0.64
882.803	1.78
882.968	6.36
883.134	7.97
883.299	1.31
883.465	1.55
883.63	4.76
883.796	3.24
883.961	1.73
884.127	3.57
884.292	-1.6
884.458	0.59
884.623	0.59
