Data from Apollo_Calib_20240827__AbsoluteIrradiance__801__12-30-02-936.txt Node

Date: Wed Aug 28 12:30:02 BST 2024
User: biology
Spectrometer: FLMT08252
Trigger mode: 0
Integration Time (sec): 5.000000E-1
Scans to average: 5
Electric dark correction enabled: true
Nonlinearity correction enabled: false
Boxcar width: 0
XAxis mode: Wavelengths
Number of Pixels in Spectrum: 3648
>>>>>Begin Spectral Data<<<<<
179.588	-0
179.809	-0
180.03	-0
180.251	-0
180.473	-0
180.694	0
180.915	0
181.136	-0
181.357	0
181.578	-0
181.799	0
182.02	-0
182.241	-0
182.462	-0
182.683	0
182.904	-0
183.125	-0
183.346	0
183.567	0
183.788	0
184.009	0
184.23	0
184.451	0
184.672	0
184.892	0
185.113	0
185.334	0
185.555	0
185.776	0
185.996	0
186.217	0
186.438	0
186.659	0
186.879	0
187.1	0
187.321	0
187.541	0
187.762	0
187.983	0
188.203	0
188.424	0
188.644	0
188.865	0
189.086	0
189.306	0
189.527	0
189.747	0
189.968	0
190.188	0
190.409	0
190.629	0
190.849	0
191.07	0
191.29	0
191.511	0
191.731	0
191.951	0
192.172	0
192.392	0
192.612	0
192.833	0
193.053	0
193.273	0
193.493	0
193.714	0
193.934	0
194.154	0
194.374	0
194.594	0
194.815	0
195.035	0
195.255	0
195.475	0
195.695	0
195.915	0
196.135	0
196.355	0
196.575	0
196.795	0
197.015	0
197.235	0
197.455	0
197.675	0
197.895	0
198.115	0
198.335	0
198.555	0
198.775	0
198.995	0
199.214	0
199.434	0
199.654	0
199.874	0
200.094	4.13
200.313	2.04
200.533	2.03
200.753	1.83
200.973	3.7
201.192	3.4
201.412	1.12
201.632	1.64
201.851	3.39
202.071	1.55
202.291	1.36
202.51	1.32
202.73	2.32
202.95	2.14
203.169	1.26
203.389	1.9
203.608	1.98
203.828	1.93
204.047	1.3
204.267	2.04
204.486	2.09
204.706	1.97
204.925	1.64
205.145	1.26
205.364	2.12
205.583	2.61
205.803	1.36
206.022	1.06
206.242	1.73
206.461	1.16
206.68	1.29
206.9	1.67
207.119	2.32
207.338	2.3
207.557	1.17
207.777	1.14
207.996	1.1
208.215	2.23
208.434	1.02
208.654	0.9
208.873	1.61
209.092	2.07
209.311	1.06
209.53	1.01
209.749	1.29
209.968	1.07
210.187	1.21
210.407	0.49
210.626	1.36
210.845	1.68
211.064	1.25
211.283	0.68
211.502	1.53
211.721	0.86
211.94	1.16
212.159	1.36
212.377	1.31
212.596	1.6
212.815	1.27
213.034	1.12
213.253	1.66
213.472	1.29
213.691	0.89
213.91	0.73
214.128	0.56
214.347	1.54
214.566	0.57
214.785	0.5
215.003	1.32
215.222	1.13
215.441	0.89
215.66	0.5
215.878	1.02
216.097	1.01
216.316	0.7
216.534	0.87
216.753	1.19
216.972	0.93
217.19	0.8
217.409	0.72
217.627	0.8
217.846	0.81
218.064	0.83
218.283	0.54
218.501	1.23
218.72	1.18
218.938	0.58
219.157	0.64
219.375	1.05
219.594	1.01
219.812	0.48
220.031	0.63
220.249	1.18
220.467	1.05
220.686	0.74
220.904	0.43
221.122	0.61
221.341	1.16
221.559	0.87
221.777	0.37
221.995	0.81
222.214	1.02
222.432	0.61
222.65	0.71
222.868	0.93
223.086	0.8
223.305	0.96
223.523	0.54
223.741	1.17
223.959	0.68
224.177	0.31
224.395	0.6
224.613	0.77
224.831	0.9
225.049	0.36
225.267	0.53
225.485	0.7
225.703	0.52
225.921	0.53
226.139	0.55
226.357	0.81
226.575	0.67
226.793	0.39
227.011	1.5
227.229	0.82
227.447	0.76
227.665	0.41
227.883	0.25
228.1	0.67
228.318	0.74
228.536	0.28
228.754	0.45
228.972	0.65
229.189	0.82
229.407	0.49
229.625	0.6
229.843	0.88
230.06	0.82
230.278	0.5
230.496	0.61
230.713	0.67
230.931	0.81
231.149	0.53
231.366	0.35
231.584	0.61
231.801	1.03
232.019	0.43
232.236	0.34
232.454	0.42
232.671	0.58
232.889	0.43
233.106	0.32
233.324	0.74
233.541	0.62
233.759	0.5
233.976	0.39
234.194	0.56
234.411	0.53
234.628	0.42
234.846	0.43
235.063	0.53
235.28	0.49
235.498	0.5
235.715	0.33
235.932	0.73
236.149	0.46
236.367	0.31
236.584	0.56
236.801	0.39
237.018	0.56
237.236	0.4
237.453	0.29
237.67	0.66
237.887	0.51
238.104	0.47
238.321	0.32
238.538	0.38
238.755	0.69
238.973	0.3
239.19	0.57
239.407	0.58
239.624	0.54
239.841	0.39
240.058	0.29
240.275	0.43
240.492	0.39
240.709	0.46
240.925	0.36
241.142	0.53
241.359	0.4
241.576	0.32
241.793	0.4
242.01	0.42
242.227	0.61
242.444	0.47
242.66	0.61
242.877	0.55
243.094	0.37
243.311	0.47
243.527	0.45
243.744	0.57
243.961	0.52
244.178	0.37
244.394	0.49
244.611	0.62
244.828	0.69
245.044	0.35
245.261	0.38
245.477	0.47
245.694	0.67
245.911	0.31
246.127	0.44
246.344	0.61
246.56	0.65
246.777	0.35
246.993	0.44
247.21	0.54
247.426	0.57
247.643	0.31
247.859	0.27
248.076	0.32
248.292	0.66
248.508	0.33
248.725	0.42
248.941	0.47
249.157	0.57
249.374	0.35
249.59	0.33
249.806	0.4
250.023	0.47
250.239	0.31
250.455	0.34
250.671	0.44
250.888	0.4
251.104	0.43
251.32	0.38
251.536	0.46
251.752	0.41
251.969	0.38
252.185	0.41
252.401	0.63
252.617	0.36
252.833	0.41
253.049	0.41
253.265	0.4
253.481	0.49
253.697	0.37
253.913	0.33
254.129	0.42
254.345	0.46
254.561	0.35
254.777	0.32
254.993	0.52
255.209	0.43
255.425	0.42
255.641	0.31
255.857	0.48
256.073	0.45
256.288	0.27
256.504	0.28
256.72	0.41
256.936	0.58
257.152	0.35
257.367	0.3
257.583	0.43
257.799	0.47
258.015	0.35
258.23	0.25
258.446	0.6
258.662	0.38
258.877	0.34
259.093	0.28
259.309	0.41
259.524	0.45
259.74	0.33
259.955	0.25
260.171	0.39
260.387	0.39
260.602	0.49
260.818	0.37
261.033	0.32
261.249	0.35
261.464	0.28
261.68	0.24
261.895	0.45
262.11	0.46
262.326	0.35
262.541	0.21
262.757	0.44
262.972	0.39
263.187	0.37
263.403	0.38
263.618	0.51
263.833	0.34
264.049	0.3
264.264	0.3
264.479	0.42
264.694	0.51
264.91	0.23
265.125	0.25
265.34	0.47
265.555	0.57
265.77	0.35
265.986	0.3
266.201	0.41
266.416	0.56
266.631	0.3
266.846	0.35
267.061	0.4
267.276	0.41
267.491	0.2
267.706	0.38
267.921	0.4
268.136	0.4
268.351	0.34
268.566	0.28
268.781	0.4
268.996	0.43
269.211	0.34
269.426	0.26
269.641	0.35
269.856	0.47
270.071	0.21
270.285	0.26
270.5	0.46
270.715	0.44
270.93	0.3
271.145	0.36
271.359	0.49
271.574	0.28
271.789	0.31
272.004	0.26
272.218	0.29
272.433	0.42
272.648	0.31
272.862	0.44
273.077	0.37
273.292	0.29
273.506	0.31
273.721	0.22
273.936	0.37
274.15	0.44
274.365	0.27
274.579	0.35
274.794	0.36
275.008	0.35
275.223	0.25
275.437	0.29
275.652	0.36
275.866	0.36
276.081	0.3
276.295	0.43
276.509	0.34
276.724	0.29
276.938	0.35
277.153	0.35
277.367	0.39
277.581	0.29
277.796	0.25
278.01	0.24
278.224	0.42
278.438	0.53
278.653	0.25
278.867	0.29
279.081	0.4
279.295	0.32
279.51	0.36
279.724	0.2
279.938	0.35
280.152	0.34
280.366	0.24
280.58	0.27
280.794	0.48
281.008	0.33
281.222	0.33
281.437	0.47
281.651	0.31
281.865	0.42
282.079	0.25
282.293	0.15
282.507	0.28
282.721	0.28
282.935	0.27
283.148	0.17
283.362	0.28
283.576	0.22
283.79	0.27
284.004	0.25
284.218	0.43
284.432	0.28
284.646	0.26
284.859	0.24
285.073	0.24
285.287	0.34
285.501	0.3
285.714	0.29
285.928	0.31
286.142	0.32
286.356	0.25
286.569	0.26
286.783	0.42
286.997	0.38
287.21	0.28
287.424	0.31
287.637	0.25
287.851	0.32
288.065	0.35
288.278	0.31
288.492	0.32
288.705	0.28
288.919	0.29
289.132	0.17
289.346	0.35
289.559	0.16
289.773	0.18
289.986	0.25
290.2	0.27
290.413	0.37
290.626	0.28
290.84	0.23
291.053	0.27
291.267	0.35
291.48	0.29
291.693	0.26
291.906	0.18
292.12	0.27
292.333	0.22
292.546	0.24
292.76	0.34
292.973	0.27
293.186	0.26
293.399	0.27
293.612	0.32
293.826	0.29
294.039	0.27
294.252	0.21
294.465	0.38
294.678	0.28
294.891	0.29
295.104	0.22
295.317	0.22
295.53	0.24
295.743	0.22
295.956	0.27
296.169	0.33
296.382	0.3
296.595	0.21
296.808	0.25
297.021	0.32
297.234	0.29
297.447	0.26
297.66	0.28
297.873	0.34
298.086	0.32
298.299	0.23
298.511	0.18
298.724	0.28
298.937	0.24
299.15	0.2
299.363	0.25
299.575	0.36
299.788	0.28
300.001	0.29
300.213	0.25
300.426	0.26
300.639	0.2
300.852	0.2
301.064	0.31
301.277	0.33
301.489	0.32
301.702	0.27
301.915	0.23
302.127	0.29
302.34	0.28
302.552	0.25
302.765	0.18
302.977	0.34
303.19	0.17
303.402	0.23
303.615	0.23
303.827	0.22
304.04	0.23
304.252	0.3
304.464	0.27
304.677	0.42
304.889	0.29
305.102	0.23
305.314	0.22
305.526	0.29
305.739	0.29
305.951	0.18
306.163	0.24
306.375	0.37
306.588	0.23
306.8	0.21
307.012	0.2
307.224	0.29
307.436	0.31
307.649	0.18
307.861	0.27
308.073	0.33
308.285	0.28
308.497	0.19
308.709	0.2
308.921	0.28
309.133	0.32
309.346	0.24
309.558	0.25
309.77	0.33
309.982	0.36
310.194	0.24
310.406	0.23
310.617	0.37
310.829	0.26
311.041	0.27
311.253	0.24
311.465	0.24
311.677	0.26
311.889	0.2
312.101	0.24
312.313	0.29
312.524	0.4
312.736	0.21
312.948	0.23
313.16	0.34
313.372	0.31
313.583	0.25
313.795	0.26
314.007	0.25
314.218	0.33
314.43	0.28
314.642	0.21
314.853	0.18
315.065	0.35
315.277	0.28
315.488	0.25
315.7	0.3
315.912	0.28
316.123	0.31
316.335	0.25
316.546	0.38
316.758	0.25
316.969	0.21
317.181	0.25
317.392	0.25
317.604	0.31
317.815	0.2
318.026	0.21
318.238	0.26
318.449	0.28
318.661	0.18
318.872	0.18
319.083	0.23
319.295	0.32
319.506	0.2
319.717	0.2
319.929	0.28
320.14	0.27
320.351	0.27
320.562	0.18
320.774	0.28
320.985	0.26
321.196	0.23
321.407	0.19
321.618	0.32
321.829	0.29
322.041	0.24
322.252	0.26
322.463	0.25
322.674	0.33
322.885	0.22
323.096	0.22
323.307	0.3
323.518	0.29
323.729	0.25
323.94	0.24
324.151	0.25
324.362	0.27
324.573	0.26
324.784	0.22
324.995	0.31
325.206	0.29
325.417	0.2
325.628	0.24
325.838	0.24
326.049	0.29
326.26	0.28
326.471	0.22
326.682	0.29
326.892	0.26
327.103	0.19
327.314	0.2
327.525	0.31
327.735	0.26
327.946	0.25
328.157	0.16
328.368	0.32
328.578	0.26
328.789	0.29
328.999	0.24
329.21	0.25
329.421	0.31
329.631	0.23
329.842	0.2
330.052	0.26
330.263	0.28
330.473	0.3
330.684	0.2
330.894	0.25
331.105	0.27
331.315	0.27
331.526	0.12
331.736	0.35
331.947	0.29
332.157	0.26
332.367	0.19
332.578	0.33
332.788	0.34
332.999	0.26
333.209	0.23
333.419	0.21
333.629	0.31
333.84	0.25
334.05	0.24
334.26	0.3
334.47	0.25
334.681	0.31
334.891	0.2
335.101	0.29
335.311	0.38
335.521	0.24
335.732	0.21
335.942	0.33
336.152	0.29
336.362	0.26
336.572	0.32
336.782	0.31
336.992	0.22
337.202	0.25
337.412	0.24
337.622	0.27
337.832	0.23
338.042	0.23
338.252	0.24
338.462	0.23
338.672	0.25
338.882	0.23
339.092	0.2
339.302	0.34
339.511	0.3
339.721	0.24
339.931	0.15
340.141	0.28
340.351	0.28
340.561	0.28
340.77	0.28
340.98	0.29
341.19	0.29
341.4	0.21
341.609	0.17
341.819	0.21
342.029	0.22
342.238	0.26
342.448	0.21
342.658	0.26
342.867	0.24
343.077	0.22
343.286	0.24
343.496	0.29
343.706	0.32
343.915	0.2
344.125	0.25
344.334	0.28
344.544	0.19
344.753	0.21
344.963	0.27
345.172	0.17
345.381	0.23
345.591	0.18
345.8	0.28
346.01	0.34
346.219	0.32
346.428	0.11
346.638	0.22
346.847	0.25
347.056	0.34
347.266	0.23
347.475	0.24
347.684	0.33
347.893	0.3
348.103	0.26
348.312	0.2
348.521	0.25
348.73	0.27
348.94	0.26
349.149	0.21
349.358	0.23
349.567	0.19
349.776	0.19
349.985	0.2
350.194	0.31
350.403	0.31
350.612	0.15
350.821	0.18
351.03	0.28
351.239	0.19
351.448	0.25
351.657	0.25
351.866	0.36
352.075	0.27
352.284	0.25
352.493	0.21
352.702	0.28
352.911	0.29
353.12	0.32
353.329	0.19
353.538	0.26
353.746	0.24
353.955	0.21
354.164	0.29
354.373	0.21
354.582	0.28
354.79	0.22
354.999	0.25
355.208	0.24
355.416	0.38
355.625	0.22
355.834	0.22
356.042	0.23
356.251	0.21
356.46	0.17
356.668	0.23
356.877	0.38
357.085	0.27
357.294	0.15
357.503	0.23
357.711	0.25
357.92	0.36
358.128	0.24
358.337	0.21
358.545	0.27
358.754	0.2
358.962	0.28
359.17	0.25
359.379	0.23
359.587	0.26
359.796	0.22
360.004	0.3
360.212	0.26
360.421	0.3
360.629	0.27
360.837	0.22
361.046	0.35
361.254	0.39
361.462	0.23
361.67	0.21
361.879	0.32
362.087	0.3
362.295	0.2
362.503	0.2
362.711	0.19
362.92	0.24
363.128	0.21
363.336	0.19
363.544	0.2
363.752	0.25
363.96	0.25
364.168	0.18
364.376	0.26
364.584	0.26
364.792	0.28
365	0.26
365.208	0.28
365.416	0.26
365.624	0.3
365.832	0.21
366.04	0.32
366.248	0.25
366.456	0.24
366.664	0.25
366.872	0.25
367.079	0.25
367.287	0.26
367.495	0.27
367.703	0.25
367.911	0.25
368.118	0.24
368.326	0.26
368.534	0.18
368.742	0.32
368.949	0.19
369.157	0.21
369.365	0.28
369.572	0.26
369.78	0.2
369.988	0.3
370.195	0.26
370.403	0.28
370.61	0.2
370.818	0.26
371.026	0.37
371.233	0.21
371.441	0.24
371.648	0.22
371.856	0.27
372.063	0.26
372.271	0.21
372.478	0.25
372.685	0.22
372.893	0.32
373.1	0.21
373.308	0.19
373.515	0.37
373.722	0.35
373.93	0.25
374.137	0.27
374.344	0.31
374.552	0.26
374.759	0.29
374.966	0.25
375.173	0.22
375.381	0.35
375.588	0.24
375.795	0.2
376.002	0.21
376.209	0.23
376.417	0.26
376.624	0.21
376.831	0.29
377.038	0.23
377.245	0.15
377.452	0.21
377.659	0.23
377.866	0.25
378.073	0.23
378.28	0.22
378.487	0.26
378.694	0.29
378.901	0.23
379.108	0.26
379.315	0.32
379.522	0.38
379.729	0.27
379.936	0.26
380.143	0.25
380.35	0.3
380.557	0.3
380.763	0.28
380.97	0.24
381.177	0.29
381.384	0.28
381.591	0.2
381.797	0.29
382.004	0.33
382.211	0.3
382.418	0.19
382.624	0.34
382.831	0.29
383.038	0.21
383.244	0.3
383.451	0.2
383.658	0.3
383.864	0.24
384.071	0.24
384.277	0.34
384.484	0.27
384.69	0.32
384.897	0.25
385.103	0.31
385.31	0.22
385.516	0.22
385.723	0.22
385.929	0.31
386.136	0.23
386.342	0.28
386.549	0.25
386.755	0.32
386.961	0.36
387.168	0.27
387.374	0.29
387.58	0.31
387.787	0.3
387.993	0.26
388.199	0.25
388.406	0.24
388.612	0.32
388.818	0.23
389.024	0.25
389.231	0.31
389.437	0.41
389.643	0.29
389.849	0.27
390.055	0.29
390.261	0.3
390.467	0.28
390.674	0.28
390.88	0.31
391.086	0.37
391.292	0.28
391.498	0.37
391.704	0.34
391.91	0.28
392.116	0.3
392.322	0.2
392.528	0.37
392.734	0.29
392.94	0.3
393.146	0.29
393.352	0.31
393.557	0.27
393.763	0.28
393.969	0.34
394.175	0.3
394.381	0.31
394.587	0.26
394.792	0.27
394.998	0.33
395.204	0.33
395.41	0.26
395.615	0.31
395.821	0.32
396.027	0.34
396.233	0.25
396.438	0.38
396.644	0.38
396.85	0.32
397.055	0.33
397.261	0.36
397.466	0.43
397.672	0.35
397.878	0.39
398.083	0.35
398.289	0.3
398.494	0.39
398.7	0.38
398.905	0.26
399.111	0.42
399.316	0.28
399.522	0.35
399.727	0.31
399.932	0.32
400.138	0.34
400.343	0.35
400.549	0.3
400.754	0.34
400.959	0.38
401.165	0.38
401.37	0.33
401.575	0.38
401.78	0.39
401.986	0.36
402.191	0.35
402.396	0.42
402.601	0.41
402.807	0.4
403.012	0.38
403.217	0.47
403.422	0.42
403.627	0.36
403.832	0.38
404.037	0.48
404.243	0.41
404.448	0.42
404.653	0.4
404.858	0.49
405.063	0.49
405.268	0.38
405.473	0.38
405.678	0.43
405.883	0.62
406.088	0.53
406.293	0.36
406.498	0.45
406.703	0.5
406.907	0.47
407.112	0.45
407.317	0.53
407.522	0.59
407.727	0.49
407.932	0.51
408.136	0.63
408.341	0.53
408.546	0.61
408.751	0.58
408.956	0.63
409.16	0.68
409.365	0.63
409.57	0.55
409.774	0.6
409.979	0.67
410.184	0.67
410.388	0.59
410.593	0.78
410.798	0.71
411.002	0.72
411.207	0.84
411.411	0.84
411.616	0.75
411.82	0.78
412.025	0.81
412.229	0.85
412.434	1.03
412.638	0.85
412.843	0.89
413.047	1.01
413.252	0.93
413.456	0.94
413.66	1.07
413.865	1.06
414.069	1.18
414.273	1.13
414.478	1.1
414.682	1.19
414.886	1.25
415.091	1.16
415.295	1.25
415.499	1.47
415.703	1.36
415.908	1.45
416.112	1.38
416.316	1.54
416.52	1.53
416.724	1.52
416.929	1.61
417.133	1.83
417.337	1.75
417.541	1.73
417.745	1.87
417.949	1.94
418.153	2
418.357	1.99
418.561	2.22
418.765	2.12
418.969	2.36
419.173	2.39
419.377	2.41
419.581	2.68
419.785	2.6
419.989	2.58
420.193	2.75
420.397	2.89
420.601	3.04
420.804	3.11
421.008	3.05
421.212	3.32
421.416	3.25
421.62	3.25
421.823	3.3
422.027	3.46
422.231	3.43
422.435	3.46
422.638	3.49
422.842	3.67
423.046	3.72
423.249	3.96
423.453	3.97
423.657	4.13
423.86	4.15
424.064	4.31
424.268	4.4
424.471	4.4
424.675	4.66
424.878	4.8
425.082	4.79
425.285	5.14
425.489	5.08
425.692	5.22
425.896	5.28
426.099	5.43
426.303	5.58
426.506	5.71
426.71	5.92
426.913	6.19
427.116	6.3
427.32	6.34
427.523	6.42
427.726	6.61
427.93	6.75
428.133	7.07
428.336	7.19
428.54	7.39
428.743	7.61
428.946	7.85
429.149	7.83
429.353	7.96
429.556	7.97
429.759	8.05
429.962	8.12
430.165	8.28
430.368	7.99
430.571	7.96
430.775	8.18
430.978	8.07
431.181	8.24
431.384	8.12
431.587	8.25
431.79	8.76
431.993	8.73
432.196	8.99
432.399	9.28
432.602	9.44
432.805	9.36
433.008	9.96
433.211	9.97
433.414	10.28
433.616	10.22
433.819	10.18
434.022	10.35
434.225	10.64
434.428	10.73
434.631	10.96
434.833	10.76
435.036	11.02
435.239	11.24
435.442	11.3
435.645	11.43
435.847	11.59
436.05	11.9
436.253	12.08
436.455	12.06
436.658	12.04
436.861	12.44
437.063	12.42
437.266	12.41
437.468	12.8
437.671	13.12
437.874	13.14
438.076	12.99
438.279	13.4
438.481	13.57
438.684	14.26
438.886	13.89
439.089	14.14
439.291	14.16
439.494	14.52
439.696	14.74
439.899	15.31
440.101	15.53
440.303	15.77
440.506	16.43
440.708	16.24
440.91	16.52
441.113	16.62
441.315	17.03
441.517	16.66
441.72	17.2
441.922	16.8
442.124	16.74
442.326	17.27
442.529	17.34
442.731	17.39
442.933	17.63
443.135	17.45
443.337	17.48
443.539	18.04
443.742	17.52
443.944	18.4
444.146	17.98
444.348	18.03
444.55	17.85
444.752	18.01
444.954	18.06
445.156	17.95
445.358	18.44
445.56	18.64
445.762	18.41
445.964	18.81
446.166	18.55
446.368	18.53
446.57	18.46
446.772	18.16
446.974	18.04
447.175	18.28
447.377	17.85
447.579	18.38
447.781	18
447.983	17.79
448.184	17.29
448.386	17.73
448.588	17.18
448.79	17.19
448.991	17.48
449.193	17.52
449.395	16.74
449.597	16.51
449.798	16.46
450	16
450.202	15.8
450.403	15.82
450.605	15.71
450.806	15.35
451.008	15.27
451.21	14.94
451.411	14.61
451.613	13.85
451.814	14.08
452.016	14.14
452.217	13.44
452.419	13.25
452.62	12.94
452.821	12.75
453.023	12.61
453.224	12.23
453.426	11.8
453.627	11.07
453.828	11.32
454.03	11.24
454.231	11.32
454.432	11.03
454.634	10.84
454.835	10.65
455.036	10.42
455.238	10.07
455.439	9.85
455.64	9.51
455.841	9.38
456.042	9.46
456.244	9.21
456.445	8.88
456.646	8.59
456.847	8.54
457.048	8.52
457.249	8.5
457.45	8.33
457.651	7.71
457.852	7.62
458.054	7.27
458.255	7.23
458.456	7.36
458.657	7.22
458.858	6.71
459.058	6.61
459.259	6.66
459.46	6.42
459.661	6.37
459.862	6.47
460.063	6.36
460.264	6.3
460.465	6.05
460.666	6.08
460.866	5.79
461.067	5.48
461.268	5.56
461.469	5.52
461.67	5.4
461.87	5.25
462.071	5.22
462.272	5.06
462.473	5.09
462.673	5.26
462.874	5.13
463.075	5.13
463.275	5.18
463.476	5.24
463.676	5.12
463.877	4.91
464.078	4.94
464.278	4.99
464.479	4.9
464.679	4.68
464.88	4.71
465.08	4.66
465.281	4.48
465.481	4.32
465.682	4.1
465.882	4.29
466.083	4.03
466.283	4.09
466.483	3.92
466.684	3.77
466.884	3.68
467.085	3.72
467.285	3.8
467.485	3.63
467.686	3.6
467.886	3.44
468.086	3.39
468.286	3.38
468.487	3.47
468.687	3.27
468.887	3.22
469.087	3.35
469.287	3.23
469.488	3.03
469.688	3.22
469.888	3.2
470.088	3.12
470.288	3.04
470.488	3.02
470.688	2.89
470.888	2.81
471.088	2.76
471.288	2.8
471.488	2.78
471.688	2.77
471.888	2.65
472.088	2.84
472.288	2.68
472.488	2.6
472.688	2.57
472.888	2.63
473.088	2.62
473.288	2.49
473.488	2.42
473.688	2.62
473.887	2.48
474.087	2.42
474.287	2.43
474.487	2.33
474.687	2.4
474.886	2.42
475.086	2.29
475.286	2.32
475.486	2.31
475.685	2.2
475.885	2.19
476.085	2.32
476.284	2.21
476.484	2.3
476.684	2.17
476.883	2.26
477.083	2.21
477.282	2.13
477.482	2.22
477.681	2.13
477.881	2.04
478.08	2.11
478.28	2.03
478.479	2.09
478.679	2.21
478.878	2.05
479.078	2.04
479.277	2.09
479.477	2.09
479.676	2.03
479.875	2.01
480.075	1.95
480.274	2
480.473	2.08
480.673	1.99
480.872	2.08
481.071	2.05
481.271	2.07
481.47	2.02
481.669	2.02
481.868	1.95
482.067	1.96
482.267	1.97
482.466	1.93
482.665	1.96
482.864	1.96
483.063	1.96
483.262	2.03
483.461	2.06
483.661	2.08
483.86	1.98
484.059	2.08
484.258	2.01
484.457	2.01
484.656	2.04
484.855	2.1
485.054	1.93
485.253	1.98
485.452	1.96
485.651	2.07
485.849	2.05
486.048	2.01
486.247	2
486.446	2.08
486.645	2.04
486.844	2.04
487.043	2.05
487.241	2.09
487.44	2.11
487.639	2.13
487.838	2.12
488.037	2.1
488.235	2.24
488.434	2.17
488.633	2.03
488.831	2.29
489.03	2.19
489.229	2.24
489.427	2.2
489.626	2.28
489.825	2.32
490.023	2.28
490.222	2.24
490.42	2.32
490.619	2.36
490.817	2.38
491.016	2.36
491.214	2.42
491.413	2.42
491.611	2.37
491.81	2.4
492.008	2.48
492.207	2.58
492.405	2.5
492.604	2.47
492.802	2.54
493	2.59
493.199	2.64
493.397	2.61
493.595	2.73
493.794	2.62
493.992	2.79
494.19	2.75
494.388	2.84
494.587	2.73
494.785	2.79
494.983	2.72
495.181	2.85
495.379	2.88
495.578	2.99
495.776	2.97
495.974	2.9
496.172	2.95
496.37	3.07
496.568	3.09
496.766	3.07
496.964	3.2
497.162	3.19
497.36	3.26
497.558	3.27
497.756	3.32
497.954	3.32
498.152	3.35
498.35	3.45
498.548	3.37
498.746	3.41
498.944	3.4
499.142	3.43
499.34	3.54
499.538	3.63
499.736	3.55
499.933	3.63
500.131	3.65
500.329	3.78
500.527	3.8
500.725	3.86
500.922	3.89
501.12	3.87
501.318	3.98
501.516	3.92
501.713	4.03
501.911	3.98
502.109	3.95
502.306	4.08
502.504	3.99
502.701	4.11
502.899	4.19
503.097	4.35
503.294	4.26
503.492	4.37
503.689	4.4
503.887	4.43
504.084	4.45
504.282	4.45
504.479	4.42
504.677	4.59
504.874	4.54
505.072	4.42
505.269	4.68
505.466	4.65
505.664	4.72
505.861	4.66
506.059	4.75
506.256	4.82
506.453	4.85
506.651	4.95
506.848	5.03
507.045	4.91
507.242	5
507.44	5.03
507.637	5.06
507.834	5.05
508.031	5.16
508.229	5.1
508.426	5.11
508.623	5.24
508.82	5.32
509.017	5.28
509.214	5.28
509.411	5.43
509.608	5.35
509.805	5.49
510.003	5.45
510.2	5.52
510.397	5.68
510.594	5.57
510.791	5.62
510.988	5.63
511.184	5.65
511.381	5.55
511.578	5.66
511.775	5.85
511.972	5.74
512.169	5.82
512.366	5.8
512.563	5.93
512.76	6.01
512.956	6.06
513.153	5.97
513.35	5.98
513.547	5.99
513.744	6.06
513.94	6.05
514.137	6.15
514.334	6.12
514.53	6.18
514.727	6.35
514.924	6.25
515.12	6.27
515.317	6.26
515.514	6.22
515.71	6.23
515.907	6.43
516.103	6.39
516.3	6.4
516.497	6.49
516.693	6.49
516.89	6.51
517.086	6.51
517.283	6.56
517.479	6.39
517.676	6.64
517.872	6.61
518.068	6.63
518.265	6.64
518.461	6.59
518.658	6.69
518.854	6.72
519.05	6.77
519.247	6.83
519.443	6.74
519.639	6.92
519.836	6.82
520.032	6.77
520.228	6.94
520.424	6.91
520.621	6.96
520.817	6.95
521.013	6.92
521.209	7.07
521.405	7.07
521.601	7.01
521.798	7.02
521.994	7.06
522.19	7.05
522.386	6.99
522.582	7.14
522.778	7.26
522.974	7.08
523.17	7.2
523.366	7.1
523.562	7.21
523.758	7.18
523.954	7.06
524.15	7.23
524.346	7.24
524.542	7.3
524.738	7.24
524.934	7.43
525.129	7.24
525.325	7.24
525.521	7.27
525.717	7.53
525.913	7.36
526.109	7.36
526.304	7.43
526.5	7.48
526.696	7.48
526.892	7.4
527.087	7.64
527.283	7.53
527.479	7.49
527.674	7.32
527.87	7.51
528.066	7.48
528.261	7.49
528.457	7.49
528.653	7.63
528.848	7.58
529.044	7.67
529.239	7.5
529.435	7.54
529.63	7.51
529.826	7.63
530.021	7.55
530.217	7.65
530.412	7.59
530.608	7.68
530.803	7.59
530.999	7.51
531.194	7.65
531.389	7.72
531.585	7.73
531.78	7.81
531.975	7.69
532.171	7.72
532.366	7.69
532.561	7.74
532.757	7.74
532.952	7.89
533.147	7.65
533.342	7.82
533.538	7.71
533.733	7.88
533.928	7.63
534.123	7.77
534.318	7.89
534.513	7.68
534.709	7.91
534.904	7.87
535.099	7.93
535.294	7.88
535.489	7.9
535.684	7.82
535.879	7.83
536.074	7.87
536.269	7.96
536.464	7.98
536.659	7.85
536.854	7.93
537.049	8.02
537.244	7.92
537.439	7.83
537.634	7.94
537.828	8
538.023	7.96
538.218	8
538.413	7.88
538.608	7.94
538.803	8
538.997	7.89
539.192	8
539.387	7.94
539.582	7.93
539.776	7.92
539.971	7.96
540.166	8.03
540.36	7.87
540.555	8.1
540.75	7.99
540.944	8.06
541.139	7.98
541.334	7.98
541.528	7.97
541.723	8.12
541.917	8.06
542.112	7.94
542.306	7.88
542.501	7.91
542.695	8.01
542.89	7.96
543.084	8.03
543.279	8.06
543.473	8.11
543.668	8.06
543.862	7.93
544.056	7.92
544.251	8.11
544.445	8.13
544.64	8.11
544.834	7.84
545.028	7.73
545.222	8.07
545.417	8.29
545.611	8.09
545.805	8.07
546	7.86
546.194	8.08
546.388	8.07
546.582	8
546.776	8
546.97	8.03
547.165	8.01
547.359	8.01
547.553	7.98
547.747	8.01
547.941	8.32
548.135	8.03
548.329	8.08
548.523	8.1
548.717	8.04
548.911	7.94
549.105	7.95
549.299	8.12
549.493	8.11
549.687	7.98
549.881	8.13
550.075	8.15
550.269	7.96
550.463	8.16
550.657	8.1
550.85	8.03
551.044	8.05
551.238	8.12
551.432	8.11
551.626	8.1
551.82	8.1
552.013	8.05
552.207	8.16
552.401	8.18
552.594	8.05
552.788	7.99
552.982	8.13
553.176	7.96
553.369	8.27
553.563	8.2
553.756	8.03
553.95	8.12
554.144	8.16
554.337	8.16
554.531	7.96
554.724	8.1
554.918	8.23
555.111	8.07
555.305	8.14
555.498	8.02
555.692	8.16
555.885	8.2
556.079	8.09
556.272	8.1
556.466	8.1
556.659	8.11
556.852	8.17
557.046	8.01
557.239	7.96
557.432	8.01
557.626	8.23
557.819	8.18
558.012	8.14
558.206	8.2
558.399	8.15
558.592	8.01
558.785	8.02
558.979	8.08
559.172	8.11
559.365	8.1
559.558	8.05
559.751	8.01
559.944	8.22
560.138	7.99
560.331	8.12
560.524	8.14
560.717	8.12
560.91	8.14
561.103	8.14
561.296	7.95
561.489	8.18
561.682	8.18
561.875	8.17
562.068	8.22
562.261	7.93
562.454	8.29
562.647	8.12
562.84	8.15
563.032	8.11
563.225	8.01
563.418	8.05
563.611	8.12
563.804	8.15
563.997	7.95
564.19	7.9
564.382	8.19
564.575	8.07
564.768	8.06
564.961	8.23
565.153	8.05
565.346	8.02
565.539	8.23
565.731	8.14
565.924	8.19
566.117	8.19
566.309	8.08
566.502	8.05
566.695	8.02
566.887	8.19
567.08	8.12
567.272	8.12
567.465	7.99
567.657	8.14
567.85	8
568.042	8.11
568.235	8.17
568.427	7.91
568.62	8.1
568.812	8.01
569.005	8.09
569.197	8.01
569.389	8
569.582	8.1
569.774	8.13
569.966	7.97
570.159	7.91
570.351	8
570.543	8
570.736	8.03
570.928	7.88
571.12	8.11
571.312	8
571.505	7.75
571.697	8.06
571.889	8.01
572.081	8
572.273	7.86
572.465	8.11
572.658	7.99
572.85	8.01
573.042	8.05
573.234	7.93
573.426	7.89
573.618	7.94
573.81	7.97
574.002	7.92
574.194	7.96
574.386	7.91
574.578	7.82
574.77	7.9
574.962	7.93
575.154	7.8
575.346	7.89
575.538	7.8
575.729	7.81
575.921	7.95
576.113	7.98
576.305	7.88
576.497	8.02
576.689	7.74
576.88	7.78
577.072	7.95
577.264	7.91
577.456	7.81
577.647	7.77
577.839	7.96
578.031	7.79
578.223	7.86
578.414	7.68
578.606	7.87
578.798	7.88
578.989	7.81
579.181	7.86
579.372	7.85
579.564	7.89
579.755	7.77
579.947	7.72
580.139	7.81
580.33	7.67
580.522	7.76
580.713	7.68
580.905	7.72
581.096	7.84
581.287	7.73
581.479	7.7
581.67	7.87
581.862	7.66
582.053	7.7
582.244	7.59
582.436	7.82
582.627	7.66
582.818	7.66
583.01	7.62
583.201	7.73
583.392	7.69
583.583	7.62
583.775	7.44
583.966	7.59
584.157	7.68
584.348	7.74
584.54	7.51
584.731	7.6
584.922	7.55
585.113	7.48
585.304	7.58
585.495	7.52
585.686	7.67
585.877	7.65
586.068	7.7
586.259	7.56
586.45	7.55
586.641	7.51
586.832	7.62
587.023	7.51
587.214	7.41
587.405	7.52
587.596	7.36
587.787	7.32
587.978	7.46
588.169	7.36
588.36	7.35
588.551	7.38
588.742	7.39
588.932	7.45
589.123	7.3
589.314	7.49
589.505	7.31
589.696	7.36
589.886	7.37
590.077	7.31
590.268	7.27
590.458	7.19
590.649	7.11
590.84	7.3
591.03	7.3
591.221	7.26
591.412	7.15
591.602	7.36
591.793	7.25
591.984	7.3
592.174	7.2
592.365	7.35
592.555	7.13
592.746	7.11
592.936	7.12
593.127	7.24
593.317	7.21
593.508	7.18
593.698	7.11
593.889	7.19
594.079	7.1
594.269	7.07
594.46	7.03
594.65	7.09
594.84	7.06
595.031	6.94
595.221	6.99
595.411	7.04
595.602	7.09
595.792	6.97
595.982	6.97
596.172	7.09
596.363	6.89
596.553	6.87
596.743	7
596.933	6.89
597.123	6.9
597.314	6.72
597.504	6.78
597.694	6.92
597.884	6.9
598.074	6.92
598.264	6.86
598.454	6.83
598.644	6.75
598.834	6.7
599.024	6.7
599.214	6.71
599.404	6.82
599.594	6.75
599.784	6.71
599.974	6.7
600.164	6.71
600.354	6.64
600.544	6.49
600.734	6.61
600.924	6.61
601.114	6.56
601.303	6.43
601.493	6.63
601.683	6.62
601.873	6.51
602.063	6.43
602.252	6.55
602.442	6.42
602.632	6.43
602.821	6.44
603.011	6.5
603.201	6.42
603.39	6.4
603.58	6.25
603.77	6.4
603.959	6.44
604.149	6.32
604.339	6.37
604.528	6.42
604.718	6.41
604.907	6.24
605.097	6.21
605.286	6.24
605.476	6.26
605.665	6.27
605.855	6.19
606.044	6.28
606.234	6.22
606.423	6.15
606.612	6.1
606.802	6.13
606.991	6.16
607.181	6.19
607.37	6.12
607.559	5.94
607.749	6.08
607.938	6.05
608.127	6.02
608.316	6.01
608.506	6.01
608.695	6.03
608.884	5.99
609.073	6
609.263	6.07
609.452	6.01
609.641	5.82
609.83	5.86
610.019	5.92
610.208	5.83
610.397	5.8
610.586	5.85
610.775	5.81
610.965	5.87
611.154	5.7
611.343	5.82
611.532	5.72
611.721	5.82
611.91	5.72
612.099	5.71
612.287	5.66
612.476	5.57
612.665	5.77
612.854	5.58
613.043	5.67
613.232	5.58
613.421	5.51
613.61	5.59
613.798	5.55
613.987	5.65
614.176	5.51
614.365	5.58
614.554	5.55
614.742	5.58
614.931	5.33
615.12	5.59
615.309	5.46
615.497	5.43
615.686	5.29
615.875	5.4
616.063	5.33
616.252	5.32
616.44	5.34
616.629	5.29
616.818	5.37
617.006	5.31
617.195	5.27
617.383	5.24
617.572	5.13
617.76	5.22
617.949	5.22
618.137	5.24
618.326	5.24
618.514	5.02
618.703	5.03
618.891	5.19
619.079	5.03
619.268	5.21
619.456	4.95
619.644	5.18
619.833	5.01
620.021	5.03
620.209	4.86
620.398	4.99
620.586	4.94
620.774	4.99
620.962	4.94
621.151	5.05
621.339	4.91
621.527	4.8
621.715	4.79
621.903	4.82
622.092	4.81
622.28	4.93
622.468	4.67
622.656	4.83
622.844	4.75
623.032	4.81
623.22	4.58
623.408	4.82
623.596	4.7
623.784	4.79
623.972	4.61
624.16	4.63
624.348	4.7
624.536	4.7
624.724	4.56
624.912	4.69
625.1	4.69
625.288	4.57
625.476	4.52
625.664	4.59
625.851	4.52
626.039	4.55
626.227	4.52
626.415	4.43
626.603	4.36
626.79	4.49
626.978	4.42
627.166	4.48
627.354	4.4
627.541	4.42
627.729	4.25
627.917	4.44
628.104	4.5
628.292	4.21
628.48	4.33
628.667	4.27
628.855	4.39
629.042	4.37
629.23	4.22
629.418	4.27
629.605	4.28
629.793	4.16
629.98	4.15
630.168	4.17
630.355	4.2
630.543	4.18
630.73	4
630.917	4.1
631.105	4.2
631.292	4.11
631.48	4.05
631.667	4.19
631.854	4.06
632.042	3.99
632.229	3.94
632.416	4.07
632.604	4.01
632.791	3.85
632.978	3.99
633.165	3.99
633.353	3.99
633.54	3.98
633.727	3.81
633.914	3.83
634.101	3.79
634.289	3.91
634.476	3.82
634.663	3.78
634.85	3.77
635.037	3.72
635.224	3.71
635.411	3.85
635.598	3.75
635.785	3.7
635.972	3.73
636.159	3.71
636.346	3.68
636.533	3.63
636.72	3.64
636.907	3.64
637.094	3.67
637.281	3.49
637.468	3.59
637.655	3.58
637.842	3.57
638.029	3.55
638.215	3.54
638.402	3.52
638.589	3.41
638.776	3.47
638.963	3.4
639.149	3.52
639.336	3.54
639.523	3.42
639.709	3.4
639.896	3.41
640.083	3.44
640.27	3.42
640.456	3.33
640.643	3.33
640.829	3.23
641.016	3.28
641.203	3.21
641.389	3.34
641.576	3.28
641.762	3.25
641.949	3.22
642.135	3.25
642.322	3.23
642.508	3.12
642.695	3.24
642.881	3.13
643.068	3.15
643.254	3.12
643.441	3.21
643.627	3.16
643.813	3.05
644	3.16
644.186	3.03
644.372	3.1
644.559	3.07
644.745	3.02
644.931	2.96
645.118	3.01
645.304	3
645.49	2.98
645.676	2.94
645.862	2.92
646.049	3.04
646.235	2.95
646.421	3.06
646.607	3.05
646.793	2.91
646.979	2.87
647.165	2.92
647.352	2.91
647.538	2.89
647.724	2.86
647.91	2.77
648.096	2.84
648.282	2.87
648.468	2.77
648.654	2.8
648.84	2.8
649.026	2.79
649.212	2.75
649.397	2.67
649.583	2.74
649.769	2.79
649.955	2.72
650.141	2.74
650.327	2.74
650.513	2.65
650.698	2.68
650.884	2.62
651.07	2.67
651.256	2.64
651.442	2.64
651.627	2.48
651.813	2.67
651.999	2.56
652.184	2.52
652.37	2.55
652.556	2.56
652.741	2.64
652.927	2.47
653.113	2.5
653.298	2.52
653.484	2.51
653.669	2.44
653.855	2.42
654.04	2.51
654.226	2.49
654.412	2.43
654.597	2.33
654.782	2.43
654.968	2.5
655.153	2.43
655.339	2.33
655.524	2.32
655.71	2.38
655.895	2.32
656.08	2.35
656.266	2.39
656.451	2.36
656.636	2.24
656.822	2.3
657.007	2.26
657.192	2.27
657.378	2.24
657.563	2.24
657.748	2.23
657.933	2.29
658.118	2.17
658.304	2.19
658.489	2.22
658.674	2.21
658.859	2.13
659.044	2.18
659.229	2.22
659.414	2.16
659.599	2.14
659.785	2.04
659.97	2.14
660.155	2.13
660.34	2.16
660.525	2.08
660.71	2.04
660.895	2.19
661.08	2.07
661.264	2.01
661.449	2.14
661.634	2.06
661.819	2.08
662.004	2.05
662.189	1.97
662.374	1.97
662.559	2.01
662.743	1.92
662.928	2
663.113	1.98
663.298	1.92
663.483	1.91
663.667	1.98
663.852	1.91
664.037	2
664.221	1.93
664.406	1.95
664.591	1.94
664.775	1.92
664.96	1.9
665.145	1.89
665.329	1.92
665.514	1.85
665.698	1.81
665.883	1.74
666.068	1.93
666.252	1.85
666.437	1.76
666.621	1.79
666.806	1.88
666.99	1.78
667.174	1.73
667.359	1.85
667.543	1.79
667.728	1.77
667.912	1.63
668.096	1.78
668.281	1.71
668.465	1.75
668.649	1.68
668.834	1.7
669.018	1.73
669.202	1.68
669.387	1.66
669.571	1.75
669.755	1.65
669.939	1.66
670.124	1.61
670.308	1.76
670.492	1.68
670.676	1.65
670.86	1.62
671.044	1.59
671.228	1.66
671.413	1.58
671.597	1.58
671.781	1.54
671.965	1.59
672.149	1.58
672.333	1.58
672.517	1.55
672.701	1.61
672.885	1.56
673.069	1.45
673.253	1.65
673.437	1.54
673.621	1.53
673.804	1.54
673.988	1.57
674.172	1.53
674.356	1.39
674.54	1.53
674.724	1.6
674.908	1.5
675.091	1.54
675.275	1.43
675.459	1.49
675.643	1.44
675.826	1.47
676.01	1.43
676.194	1.51
676.377	1.46
676.561	1.51
676.745	1.4
676.928	1.45
677.112	1.51
677.296	1.38
677.479	1.37
677.663	1.42
677.846	1.45
678.03	1.4
678.213	1.28
678.397	1.44
678.58	1.34
678.764	1.34
678.947	1.28
679.131	1.36
679.314	1.38
679.498	1.35
679.681	1.35
679.865	1.42
680.048	1.27
680.231	1.3
680.415	1.28
680.598	1.37
680.781	1.2
680.965	1.27
681.148	1.26
681.331	1.27
681.514	1.28
681.698	1.22
681.881	1.28
682.064	1.26
682.247	1.32
682.43	1.12
682.614	1.27
682.797	1.25
682.98	1.27
683.163	1.11
683.346	1.24
683.529	1.21
683.712	1.16
683.895	1.22
684.078	1.15
684.261	1.21
684.444	1.24
684.627	1.19
684.81	1.18
684.993	1.17
685.176	1.29
685.359	1.13
685.542	1.15
685.725	1.22
685.908	1.2
686.091	1.11
686.274	1.13
686.457	1.14
686.639	1.11
686.822	1.16
687.005	1.11
687.188	1.13
687.371	1.25
687.553	1.12
687.736	1.15
687.919	1.28
688.102	1.2
688.284	1.11
688.467	1.06
688.65	1.02
688.832	1
689.015	1.02
689.197	0.95
689.38	1.14
689.563	1.21
689.745	0.94
689.928	1.01
690.11	1.04
690.293	1.05
690.475	0.97
690.658	1.05
690.84	1.03
691.023	1.01
691.205	0.98
691.388	1.03
691.57	1.09
691.752	1.06
691.935	0.93
692.117	0.91
692.3	0.99
692.482	0.96
692.664	0.95
692.847	0.97
693.029	1.1
693.211	0.96
693.393	0.94
693.576	0.88
693.758	0.96
693.94	0.96
694.122	0.93
694.304	0.9
694.487	0.91
694.669	1.02
694.851	0.83
695.033	0.88
695.215	0.87
695.397	0.93
695.579	0.87
695.761	0.83
695.943	0.85
696.125	1.01
696.308	0.92
696.49	0.79
696.671	1.06
696.853	0.88
697.035	1.09
697.217	0.83
697.399	0.94
697.581	0.88
697.763	0.89
697.945	0.77
698.127	0.92
698.309	0.94
698.491	0.86
698.672	0.89
698.854	0.89
699.036	0.94
699.218	0.75
699.399	0.86
699.581	0.94
699.763	0.78
699.945	0.75
700.126	0.69
700.308	0.84
700.49	0.84
700.671	0.77
700.853	0.76
701.035	0.82
701.216	0.81
701.398	0.74
701.579	0.77
701.761	0.89
701.943	0.78
702.124	0.74
702.306	0.76
702.487	1
702.669	0.8
702.85	0.81
703.031	0.71
703.213	0.84
703.394	0.86
703.576	0.77
703.757	0.95
703.938	0.87
704.12	0.94
704.301	0.73
704.483	0.76
704.664	0.74
704.845	0.85
705.026	0.86
705.208	0.71
705.389	0.82
705.57	0.79
705.751	0.79
705.933	0.7
706.114	0.86
706.295	0.68
706.476	0.65
706.657	0.83
706.838	0.74
707.02	0.82
707.201	0.68
707.382	0.65
707.563	0.76
707.744	0.68
707.925	0.6
708.106	0.69
708.287	0.75
708.468	0.81
708.649	0.71
708.83	0.73
709.011	0.65
709.192	0.73
709.373	0.57
709.554	0.71
709.734	0.8
709.915	0.78
710.096	0.71
710.277	0.53
710.458	0.72
710.639	0.71
710.819	0.53
711	0.62
711.181	0.7
711.362	0.75
711.542	0.63
711.723	0.62
711.904	0.8
712.085	0.69
712.265	0.66
712.446	0.58
712.627	0.61
712.807	0.6
712.988	0.56
713.168	0.5
713.349	0.67
713.53	0.42
713.71	0.5
713.891	0.52
714.071	0.65
714.252	0.57
714.432	0.58
714.613	0.48
714.793	0.61
714.974	0.71
715.154	0.68
715.334	0.64
715.515	0.73
715.695	0.57
715.876	0.6
716.056	0.52
716.236	0.59
716.417	0.52
716.597	0.51
716.777	0.8
716.957	0.6
717.138	0.66
717.318	0.48
717.498	0.37
717.678	0.55
717.859	0.61
718.039	0.54
718.219	0.66
718.399	0.62
718.579	0.49
718.759	0.51
718.939	0.62
719.12	0.61
719.3	0.52
719.48	0.41
719.66	0.42
719.84	0.66
720.02	0.56
720.2	0.47
720.38	0.62
720.56	0.69
720.74	0.5
720.92	0.6
721.1	0.62
721.279	0.64
721.459	0.6
721.639	0.46
721.819	0.51
721.999	0.52
722.179	0.61
722.359	0.48
722.538	0.47
722.718	0.51
722.898	0.51
723.078	0.55
723.257	0.5
723.437	0.54
723.617	0.56
723.797	0.45
723.976	0.55
724.156	0.59
724.336	0.65
724.515	0.75
724.695	0.38
724.874	0.55
725.054	0.64
725.234	0.48
725.413	0.6
725.593	0.49
725.772	0.52
725.952	0.49
726.131	0.44
726.311	0.5
726.49	0.51
726.67	0.46
726.849	0.5
727.028	0.5
727.208	0.41
727.387	0.55
727.567	0.36
727.746	0.43
727.925	0.53
728.105	0.34
728.284	0.43
728.463	0.4
728.643	0.6
728.822	0.33
729.001	0.46
729.18	0.45
729.359	0.59
729.539	0.49
729.718	0.55
729.897	0.63
730.076	0.42
730.255	0.32
730.434	0.46
730.614	0.54
730.793	0.65
730.972	0.38
731.151	0.44
731.33	0.61
731.509	0.55
731.688	0.43
731.867	0.52
732.046	0.26
732.225	0.67
732.404	0.35
732.583	0.33
732.762	0.53
732.941	0.6
733.12	0.45
733.298	0.48
733.477	0.61
733.656	0.32
733.835	0.34
734.014	0.5
734.193	0.52
734.371	0.53
734.55	0.56
734.729	0.35
734.908	0.52
735.086	0.46
735.265	0.57
735.444	0.27
735.623	0.38
735.801	0.41
735.98	0.4
736.159	0.41
736.337	0.59
736.516	0.49
736.694	0.49
736.873	0.33
737.052	0.79
737.23	0.67
737.409	0.45
737.587	0.73
737.766	0.3
737.944	0.48
738.123	0.56
738.301	0.61
738.479	0.54
738.658	0.52
738.836	0.23
739.015	0.47
739.193	0.66
739.371	0.34
739.55	0.46
739.728	0.37
739.906	0.59
740.085	0.6
740.263	0.52
740.441	0.22
740.62	0.75
740.798	0.63
740.976	0.42
741.154	0.19
741.332	0.74
741.511	0.46
741.689	0.55
741.867	0.57
742.045	0.51
742.223	0.43
742.401	0.34
742.579	0.4
742.757	0.59
742.935	0.32
743.114	0.41
743.292	0.4
743.47	0.46
743.648	0.51
743.826	0.52
744.004	0.49
744.181	0.62
744.359	0.45
744.537	0.46
744.715	0.35
744.893	0.47
745.071	0.42
745.249	0.31
745.427	0.3
745.605	0.57
745.782	0.39
745.96	0.6
746.138	0.42
746.316	0.46
746.493	0.43
746.671	0.46
746.849	0.41
747.027	0.59
747.204	0.4
747.382	0.49
747.56	0.29
747.737	0.44
747.915	0.33
748.093	0.46
748.27	0.35
748.448	0.5
748.625	0.28
748.803	0.31
748.98	0.4
749.158	0.55
749.335	0.54
749.513	0.37
749.69	0.44
749.868	0.32
750.045	0.48
750.223	0.28
750.4	0.23
750.578	0.55
750.755	0.45
750.932	0.26
751.11	0.51
751.287	0.29
751.464	0.61
751.642	0.22
751.819	0.52
751.996	0.47
752.173	0.34
752.351	0.32
752.528	0.35
752.705	0.43
752.882	0.2
753.06	0.45
753.237	0.56
753.414	0.56
753.591	0.59
753.768	0.4
753.945	0.26
754.122	0.4
754.299	0.51
754.476	0.24
754.654	0.33
754.831	0.5
755.008	0.45
755.185	0.29
755.362	0.23
755.539	0.36
755.716	0.32
755.892	0.33
756.069	0.42
756.246	0.37
756.423	0.32
756.6	0.55
756.777	0.31
756.954	0.63
757.131	0.46
757.307	0.25
757.484	0.31
757.661	0.45
757.838	0.52
758.015	0.18
758.191	0.4
758.368	0.38
758.545	0.6
758.721	0.43
758.898	0.26
759.075	0.42
759.251	0.54
759.428	0.43
759.605	0.21
759.781	0.31
759.958	0.43
760.134	0.41
760.311	0.28
760.488	0.48
760.664	0.64
760.841	0.31
761.017	0.23
761.194	0.44
761.37	0.5
761.547	0.42
761.723	0.28
761.899	0.46
762.076	0.42
762.252	0.18
762.429	0.26
762.605	0.5
762.781	0.25
762.958	0.34
763.134	0.3
763.31	0.24
763.486	0.51
763.663	0.09
763.839	0.35
764.015	0.08
764.191	0.18
764.368	0.28
764.544	0.27
764.72	0.42
764.896	0.38
765.072	0.38
765.248	0.35
765.425	0.39
765.601	0.4
765.777	0.34
765.953	-0.03
766.129	0.28
766.305	0.28
766.481	0.55
766.657	0.39
766.833	0.41
767.009	0.22
767.185	0.35
767.361	0.43
767.537	0.32
767.713	0.53
767.889	0.19
768.065	0.3
768.24	0.25
768.416	0.43
768.592	0.27
768.768	0.32
768.944	0.5
769.12	0.3
769.295	0.4
769.471	0.28
769.647	0.34
769.823	0.62
769.998	0.24
770.174	0.22
770.35	0.72
770.525	0.67
770.701	0.44
770.877	0.31
771.052	0.26
771.228	0.52
771.403	0.28
771.579	0.32
771.755	0.89
771.93	0.29
772.106	0.34
772.281	0.12
772.457	0.41
772.632	0.42
772.808	0.18
772.983	0.29
773.159	0.31
773.334	0.64
773.509	0.47
773.685	0.31
773.86	0.89
774.036	0.53
774.211	0.34
774.386	0.2
774.562	0.4
774.737	0.64
774.912	0.17
775.087	0.38
775.263	0.42
775.438	0.32
775.613	0.3
775.788	0.35
775.964	0.55
776.139	0.9
776.314	0.22
776.489	0.5
776.664	0.38
776.839	0.2
777.014	0.32
777.19	0.64
777.365	0.68
777.54	0.7
777.715	0.19
777.89	0.3
778.065	0.18
778.24	0.42
778.415	0.5
778.59	0.15
778.765	0.34
778.94	0.4
779.115	0.3
779.289	0.32
779.464	0.16
779.639	0.38
779.814	0.23
779.989	0.15
780.164	0.66
780.339	0.5
780.513	0.28
780.688	0.11
780.863	0.52
781.038	0.63
781.212	0.29
781.387	0.48
781.562	0.75
781.737	0.33
781.911	0.55
782.086	0.29
782.261	0.37
782.435	0.6
782.61	0.23
782.784	0.29
782.959	0.77
783.134	0.35
783.308	0.24
783.483	0.38
783.657	0.99
783.832	0.6
784.006	0.1
784.181	0.35
784.355	0.87
784.53	0.29
784.704	0.14
784.878	0.83
785.053	0.81
785.227	0.57
785.402	0.68
785.576	0.2
785.75	0.65
785.925	0.52
786.099	0.42
786.273	0.38
786.448	0.74
786.622	0.61
786.796	0.4
786.97	0.31
787.145	0.95
787.319	0.14
787.493	0.11
787.667	-0.07
787.841	0.5
788.015	0.77
788.19	0.3
788.364	0.35
788.538	0.71
788.712	0.62
788.886	0.28
789.06	0.39
789.234	0.62
789.408	0.16
789.582	0.29
789.756	0.21
789.93	0.32
790.104	0.39
790.278	0.31
790.452	0.15
790.626	0.62
790.8	0.2
790.973	0.79
791.147	0.71
791.321	0.81
791.495	0.78
791.669	0.45
791.843	0.45
792.016	0.3
792.19	0.86
792.364	0.26
792.538	1.15
792.711	0.69
792.885	0.31
793.059	0.01
793.233	-0.11
793.406	0.69
793.58	0.53
793.754	0.61
793.927	0.43
794.101	0.7
794.274	0.33
794.448	0.64
794.622	0.19
794.795	0.93
794.969	0.18
795.142	0.93
795.316	0.3
795.489	0.36
795.663	0.84
795.836	0.52
796.009	0.26
796.183	1.02
796.356	0.36
796.53	0.37
796.703	0.3
796.876	1.18
797.05	0.59
797.223	0.29
797.396	0.55
797.57	0.72
797.743	1.01
797.916	0.61
798.09	0.41
798.263	0.81
798.436	0.47
798.609	0.28
798.782	0.27
798.956	0.72
799.129	0.63
799.302	0.3
799.475	0.25
799.648	0.4
799.821	0.39
799.994	0.39
800.167	0.05
800.34	0.44
800.514	0.58
800.687	0.34
800.86	0.4
801.033	0.63
801.206	0.71
801.379	0.15
801.551	0.82
801.724	0.56
801.897	0.83
802.07	0.36
802.243	-0.2
802.416	0.51
802.589	0.46
802.762	0.42
802.935	0.34
803.107	0.91
803.28	0.91
803.453	1.02
803.626	0.12
803.798	0.68
803.971	0.43
804.144	0.59
804.317	0.74
804.489	0.98
804.662	0.48
804.835	0.38
805.007	0.16
805.18	0.88
805.353	0.54
805.525	0.31
805.698	0.22
805.87	0.73
806.043	0.87
806.215	0.06
806.388	0.24
806.56	0.73
806.733	0.98
806.905	0.79
807.078	0.26
807.25	0.46
807.423	0.76
807.595	0.62
807.768	0.56
807.94	1.08
808.112	0.64
808.285	0.87
808.457	0.59
808.629	0.39
808.802	0.79
808.974	0.62
809.146	0.28
809.318	0.21
809.491	0.49
809.663	0.97
809.835	0.45
810.007	0.77
810.18	0.53
810.352	0.28
810.524	0.39
810.696	0.85
810.868	1.44
811.04	0.39
811.212	0.44
811.384	0.91
811.556	0.61
811.728	0.74
811.901	1.76
812.073	0.42
812.245	1.21
812.417	0.71
812.589	-0.08
812.76	0.71
812.932	1.06
813.104	1.01
813.276	0.53
813.448	1.12
813.62	0.13
813.792	0.83
813.964	0.41
814.136	0.95
814.307	0.39
814.479	0.68
814.651	0.51
814.823	1.76
814.995	0.37
815.166	0.87
815.338	0.21
815.51	-0
815.681	1.62
815.853	1.02
816.025	0.6
816.196	1.78
816.368	0.98
816.54	0.19
816.711	0.29
816.883	1.25
817.054	1.78
817.226	0.35
817.398	0.91
817.569	0.4
817.741	0.44
817.912	0.09
818.084	0.43
818.255	1.33
818.426	0.21
818.598	0.44
818.769	0.23
818.941	0.85
819.112	1.36
819.283	0.56
819.455	0.08
819.626	0.89
819.798	1.3
819.969	0.94
820.14	0.16
820.311	1.21
820.483	1.25
820.654	0.44
820.825	0.73
820.996	0.58
821.168	0.26
821.339	0.75
821.51	0.2
821.681	0.46
821.852	0.65
822.023	0.74
822.195	-0.12
822.366	1.07
822.537	1.31
822.708	0.76
822.879	-0.06
823.05	1.46
823.221	0.72
823.392	0.61
823.563	0.75
823.734	0.61
823.905	0.35
824.076	0.36
824.247	0.05
824.418	0.7
824.589	1.46
824.759	0.7
824.93	0.76
825.101	0.09
825.272	1.54
825.443	1.36
825.614	1.3
825.784	-0.34
825.955	2.3
826.126	1.37
826.297	1.23
826.467	1.98
826.638	2.14
826.809	-0.06
826.98	0.98
827.15	1.53
827.321	0.94
827.492	1.16
827.662	0.51
827.833	1.74
828.003	0.93
828.174	0.09
828.345	-0.01
828.515	1.71
828.686	0.66
828.856	0.32
829.027	0.48
829.197	1.26
829.368	1.31
829.538	0.57
829.709	0.22
829.879	0.37
830.049	1.46
830.22	1.17
830.39	0.35
830.56	1.45
830.731	0.73
830.901	0.45
831.072	0.51
831.242	0.89
831.412	0.84
831.582	0.88
831.753	0.01
831.923	1.53
832.093	1.18
832.263	0.6
832.434	-0.13
832.604	0.58
832.774	1.49
832.944	0.06
833.114	0.47
833.284	1.14
833.454	0.37
833.624	0.55
833.795	0.88
833.965	1.71
834.135	2.1
834.305	-0.06
834.475	-0.23
834.645	1.24
834.815	0.72
834.985	-0.06
835.155	0.47
835.325	1.1
835.494	1.51
835.664	0.4
835.834	0.23
836.004	1.06
836.174	1.64
836.344	0.84
836.514	0.4
836.684	0.9
836.853	0.98
837.023	1.57
837.193	0.38
837.363	1.62
837.532	2.06
837.702	0.64
837.872	0.11
838.041	1.91
838.211	2.84
838.381	-0.29
838.55	1.17
838.72	3.32
838.89	2.57
839.059	1.04
839.229	-0.1
839.398	2.69
839.568	0.77
839.738	0.62
839.907	1.99
840.077	1.23
840.246	0.78
840.416	0.42
840.585	-0
840.755	2.19
840.924	2.13
841.093	0.8
841.263	0.25
841.432	1.54
841.602	0.3
841.771	0.35
841.94	1.72
842.11	3.17
842.279	3.14
842.448	0.38
842.617	-0.18
842.787	2.7
842.956	-0.34
843.125	0.89
843.294	1.03
843.464	2.11
843.633	0.71
843.802	0.34
843.971	0.98
844.14	2.18
844.309	2.12
844.479	-0.77
844.648	0.3
844.817	1.19
844.986	1.03
845.155	-0.07
845.324	0.19
845.493	0.98
845.662	0.45
845.831	1.15
846	1.99
846.169	0.86
846.338	2.69
846.507	1.65
846.676	0.28
846.844	0.75
847.013	2.61
847.182	1.43
847.351	0.19
847.52	1.6
847.689	1.58
847.858	-0.04
848.026	0.8
848.195	1.49
848.364	0.76
848.533	0.34
848.701	0.78
848.87	1.06
849.039	2.77
849.207	1.79
849.376	2.37
849.545	2.84
849.713	-0.43
849.882	1.13
850.051	0.63
850.219	1.56
850.388	2.1
850.556	0.08
850.725	0.45
850.893	2.68
851.062	1.17
851.23	1.02
851.399	-0.39
851.567	1.85
851.736	0.45
851.904	0.18
852.073	1.01
852.241	2.02
852.41	2.54
852.578	0.26
852.746	0.29
852.915	1.3
853.083	0.98
853.251	-0.52
853.42	1.76
853.588	1.41
853.756	2.05
853.924	1.64
854.093	1.53
854.261	0.77
854.429	-0.31
854.597	1.49
854.765	0.3
854.934	1.03
855.102	2.7
855.27	0.69
855.438	3.21
855.606	2.89
855.774	3.17
855.942	-0.24
856.11	0.63
856.278	1.01
856.446	3.03
856.614	0.94
856.782	-0.03
856.95	2.23
857.118	2.45
857.286	1.62
857.454	0.23
857.622	3.35
857.79	3.46
857.958	0.39
858.126	1.1
858.294	-0.99
858.462	-0.07
858.629	1.23
858.797	-0.02
858.965	1.75
859.133	1.12
859.301	0.99
859.468	2.28
859.636	0.22
859.804	3.86
859.971	1.58
860.139	1.2
860.307	2.41
860.474	1.04
860.642	0.52
860.81	1.91
860.977	2.04
861.145	2.65
861.313	1.36
861.48	0.66
861.648	2.53
861.815	1.56
861.983	0.76
862.15	0.85
862.318	3.9
862.485	4.03
862.653	0.26
862.82	-0.94
862.988	4.66
863.155	2.75
863.322	0.49
863.49	0.21
863.657	1.1
863.824	3.62
863.992	2.45
864.159	1.18
864.326	3.42
864.494	0.48
864.661	4.5
864.828	-0.08
864.996	4.51
865.163	3.97
865.33	1.67
865.497	-1.26
865.664	1.21
865.832	0.3
865.999	0.96
866.166	-0.55
866.333	2.25
866.5	0.73
866.667	1.1
866.834	1.76
867.001	3.42
867.168	-0.82
867.335	1.76
867.502	-0.64
867.669	1.24
867.836	4.04
868.003	1.47
868.17	3.22
868.337	5.14
868.504	4.76
868.671	-1.88
868.838	0.48
869.005	3.1
869.172	3
869.339	1.54
869.505	0.8
869.672	2.97
869.839	5.44
870.006	1.25
870.173	-0.02
870.339	3.45
870.506	5.09
870.673	1.24
870.84	2.85
871.006	2.36
871.173	3.39
871.34	1.93
871.506	-0.62
871.673	3.42
871.839	-1.07
872.006	0.86
872.173	0.24
872.339	3.64
872.506	3.5
872.672	1.79
872.839	-0.32
873.005	3.61
873.172	5.49
873.338	2.98
873.505	3.16
873.671	3.34
873.838	3.4
874.004	-2.07
874.171	1.58
874.337	3.97
874.503	3.74
874.67	1.99
874.836	2.92
875.002	3.86
875.169	3.94
875.335	0.17
875.501	1.33
875.668	3.6
875.834	-0.11
876	1.2
876.166	3.3
876.332	4.1
876.499	5.23
876.665	1.53
876.831	2.04
876.997	6.84
877.163	2.86
877.329	-0.1
877.495	1.53
877.662	4.53
877.828	3.73
877.994	1.23
878.16	-0.65
878.326	2.45
878.492	4.14
878.658	2.03
878.824	2.83
878.99	4.42
879.156	1.37
879.322	5.33
879.487	1.19
879.653	3.24
879.819	3.57
879.985	0.23
880.151	3.09
880.317	2.12
880.483	3.41
880.648	4.32
880.814	0.53
880.98	1.29
881.146	-2.11
881.312	0.4
881.477	1.02
881.643	2.19
881.809	2.5
881.974	3.92
882.14	-1.38
882.306	1.59
882.471	7.23
882.637	2.58
882.803	3.03
882.968	5.28
883.134	6.24
883.299	0.33
883.465	1.45
883.63	3.48
883.796	3.31
883.961	1.84
884.127	3.19
884.292	-1.46
884.458	1.04
884.623	1.04
