Data from Apollo_Calib_20240827__AbsoluteIrradiance__44__23-53-00-175.txt Node

Date: Tue Aug 27 23:53:00 BST 2024
User: biology
Spectrometer: FLMT08252
Trigger mode: 0
Integration Time (sec): 5.000000E-1
Scans to average: 5
Electric dark correction enabled: true
Nonlinearity correction enabled: false
Boxcar width: 0
XAxis mode: Wavelengths
Number of Pixels in Spectrum: 3648
>>>>>Begin Spectral Data<<<<<
179.588	-0
179.809	-0
180.03	-0
180.251	-0
180.473	-0
180.694	0
180.915	0
181.136	-0
181.357	0
181.578	0
181.799	-0
182.02	-0
182.241	-0
182.462	-0
182.683	0
182.904	-0
183.125	-0
183.346	0
183.567	0
183.788	0
184.009	0
184.23	0
184.451	0
184.672	0
184.892	0
185.113	0
185.334	0
185.555	0
185.776	0
185.996	0
186.217	0
186.438	0
186.659	0
186.879	0
187.1	0
187.321	0
187.541	0
187.762	0
187.983	0
188.203	0
188.424	0
188.644	0
188.865	0
189.086	0
189.306	0
189.527	0
189.747	0
189.968	0
190.188	0
190.409	0
190.629	0
190.849	0
191.07	0
191.29	0
191.511	0
191.731	0
191.951	0
192.172	0
192.392	0
192.612	0
192.833	0
193.053	0
193.273	0
193.493	0
193.714	0
193.934	0
194.154	0
194.374	0
194.594	0
194.815	0
195.035	0
195.255	0
195.475	0
195.695	0
195.915	0
196.135	0
196.355	0
196.575	0
196.795	0
197.015	0
197.235	0
197.455	0
197.675	0
197.895	0
198.115	0
198.335	0
198.555	0
198.775	0
198.995	0
199.214	0
199.434	0
199.654	0
199.874	0
200.094	4.06
200.313	2.7
200.533	2.04
200.753	2.16
200.973	3.69
201.192	3.36
201.412	1.66
201.632	2.29
201.851	3.4
202.071	1.84
202.291	1.74
202.51	1.64
202.73	2.84
202.95	2.46
203.169	1.69
203.389	1.47
203.608	1.95
203.828	1.69
204.047	1.76
204.267	2.14
204.486	2.03
204.706	2.26
204.925	1.66
205.145	1.83
205.364	2.34
205.583	2.57
205.803	1.17
206.022	1.41
206.242	1.62
206.461	1.67
206.68	1.28
206.9	1.87
207.119	2.4
207.338	1.92
207.557	1.43
207.777	1.38
207.996	1.28
208.215	1.88
208.434	1.01
208.654	0.89
208.873	1.67
209.092	1.95
209.311	1.37
209.53	1.13
209.749	1.27
209.968	0.95
210.187	0.96
210.407	0.84
210.626	1.17
210.845	1.33
211.064	1.32
211.283	0.72
211.502	1.55
211.721	1.24
211.94	1.09
212.159	1.2
212.377	1.34
212.596	1.37
212.815	1.19
213.034	1.05
213.253	1.35
213.472	1.26
213.691	1.11
213.91	0.88
214.128	0.78
214.347	1.44
214.566	0.7
214.785	0.77
215.003	1.2
215.222	0.96
215.441	1.01
215.66	0.75
215.878	0.91
216.097	1.17
216.316	0.79
216.534	0.89
216.753	1.01
216.972	0.75
217.19	0.95
217.409	0.64
217.627	0.78
217.846	0.9
218.064	1.06
218.283	0.7
218.501	1.33
218.72	1.13
218.938	0.63
219.157	0.62
219.375	1.2
219.594	1.05
219.812	0.53
220.031	0.67
220.249	1.35
220.467	1.09
220.686	0.65
220.904	0.59
221.122	0.61
221.341	1.16
221.559	0.83
221.777	0.54
221.995	0.87
222.214	0.9
222.432	0.6
222.65	0.92
222.868	0.68
223.086	0.82
223.305	0.82
223.523	0.87
223.741	0.99
223.959	0.65
224.177	0.48
224.395	0.5
224.613	0.84
224.831	0.99
225.049	0.59
225.267	0.61
225.485	0.83
225.703	0.67
225.921	0.68
226.139	0.56
226.357	0.83
226.575	0.59
226.793	0.62
227.011	1.4
227.229	0.73
227.447	0.89
227.665	0.53
227.883	0.48
228.1	0.57
228.318	0.74
228.536	0.44
228.754	0.5
228.972	0.72
229.189	0.86
229.407	0.61
229.625	0.69
229.843	0.8
230.06	0.83
230.278	0.55
230.496	0.59
230.713	0.78
230.931	0.67
231.149	0.51
231.366	0.41
231.584	0.67
231.801	0.9
232.019	0.52
232.236	0.46
232.454	0.52
232.671	0.69
232.889	0.5
233.106	0.47
233.324	0.57
233.541	0.56
233.759	0.55
233.976	0.58
234.194	0.59
234.411	0.77
234.628	0.48
234.846	0.57
235.063	0.55
235.28	0.55
235.498	0.57
235.715	0.46
235.932	0.66
236.149	0.57
236.367	0.48
236.584	0.55
236.801	0.44
237.018	0.72
237.236	0.54
237.453	0.33
237.67	0.57
237.887	0.58
238.104	0.53
238.321	0.44
238.538	0.48
238.755	0.63
238.973	0.38
239.19	0.5
239.407	0.54
239.624	0.55
239.841	0.44
240.058	0.39
240.275	0.54
240.492	0.43
240.709	0.53
240.925	0.33
241.142	0.5
241.359	0.33
241.576	0.43
241.793	0.43
242.01	0.59
242.227	0.57
242.444	0.57
242.66	0.55
242.877	0.48
243.094	0.4
243.311	0.46
243.527	0.46
243.744	0.53
243.961	0.54
244.178	0.41
244.394	0.38
244.611	0.62
244.828	0.71
245.044	0.41
245.261	0.36
245.477	0.39
245.694	0.52
245.911	0.34
246.127	0.47
246.344	0.67
246.56	0.62
246.777	0.37
246.993	0.41
247.21	0.48
247.426	0.56
247.643	0.4
247.859	0.32
248.076	0.39
248.292	0.67
248.508	0.4
248.725	0.43
248.941	0.41
249.157	0.63
249.374	0.39
249.59	0.42
249.806	0.41
250.023	0.49
250.239	0.34
250.455	0.34
250.671	0.41
250.888	0.48
251.104	0.46
251.32	0.37
251.536	0.45
251.752	0.43
251.969	0.41
252.185	0.51
252.401	0.62
252.617	0.51
252.833	0.31
253.049	0.39
253.265	0.37
253.481	0.5
253.697	0.35
253.913	0.37
254.129	0.49
254.345	0.44
254.561	0.34
254.777	0.39
254.993	0.43
255.209	0.46
255.425	0.43
255.641	0.38
255.857	0.52
256.073	0.45
256.288	0.3
256.504	0.32
256.72	0.36
256.936	0.51
257.152	0.39
257.367	0.37
257.583	0.43
257.799	0.47
258.015	0.31
258.23	0.29
258.446	0.5
258.662	0.44
258.877	0.35
259.093	0.35
259.309	0.42
259.524	0.42
259.74	0.37
259.955	0.28
260.171	0.39
260.387	0.36
260.602	0.42
260.818	0.49
261.033	0.24
261.249	0.35
261.464	0.39
261.68	0.28
261.895	0.41
262.11	0.48
262.326	0.32
262.541	0.28
262.757	0.44
262.972	0.41
263.187	0.4
263.403	0.37
263.618	0.47
263.833	0.37
264.049	0.34
264.264	0.32
264.479	0.4
264.694	0.48
264.91	0.27
265.125	0.36
265.34	0.45
265.555	0.49
265.77	0.42
265.986	0.35
266.201	0.44
266.416	0.46
266.631	0.33
266.846	0.41
267.061	0.41
267.276	0.45
267.491	0.22
267.706	0.42
267.921	0.37
268.136	0.4
268.351	0.37
268.566	0.34
268.781	0.47
268.996	0.36
269.211	0.37
269.426	0.27
269.641	0.33
269.856	0.45
270.071	0.27
270.285	0.24
270.5	0.46
270.715	0.47
270.93	0.32
271.145	0.44
271.359	0.46
271.574	0.23
271.789	0.34
272.004	0.37
272.218	0.27
272.433	0.4
272.648	0.29
272.862	0.44
273.077	0.37
273.292	0.35
273.506	0.3
273.721	0.28
273.936	0.27
274.15	0.4
274.365	0.29
274.579	0.39
274.794	0.35
275.008	0.47
275.223	0.31
275.437	0.29
275.652	0.51
275.866	0.37
276.081	0.34
276.295	0.39
276.509	0.34
276.724	0.3
276.938	0.35
277.153	0.32
277.367	0.31
277.581	0.25
277.796	0.28
278.01	0.25
278.224	0.41
278.438	0.47
278.653	0.3
278.867	0.24
279.081	0.1
279.295	0.33
279.51	0.32
279.724	0.19
279.938	0.38
280.152	0.33
280.366	0.23
280.58	0.36
280.794	0.39
281.008	0.33
281.222	0.36
281.437	0.42
281.651	0.38
281.865	0.39
282.079	0.28
282.293	0.19
282.507	0.3
282.721	0.34
282.935	0.32
283.148	0.2
283.362	0.24
283.576	0.25
283.79	0.35
284.004	0.22
284.218	0.34
284.432	0.27
284.646	0.28
284.859	0.27
285.073	0.28
285.287	0.34
285.501	0.33
285.714	0.28
285.928	0.28
286.142	0.34
286.356	0.31
286.569	0.32
286.783	0.4
286.997	0.38
287.21	0.3
287.424	0.27
287.637	0.27
287.851	0.24
288.065	0.3
288.278	0.26
288.492	0.31
288.705	0.29
288.919	0.32
289.132	0.2
289.346	0.33
289.559	0.2
289.773	0.16
289.986	0.27
290.2	0.3
290.413	0.39
290.626	0.26
290.84	0.28
291.053	0.3
291.267	0.35
291.48	0.28
291.693	0.3
291.906	0.31
292.12	0.29
292.333	0.25
292.546	0.27
292.76	0.36
292.973	0.3
293.186	0.34
293.399	0.26
293.612	0.32
293.826	0.26
294.039	0.27
294.252	0.29
294.465	0.3
294.678	0.32
294.891	0.24
295.104	0.21
295.317	0.28
295.53	0.28
295.743	0.25
295.956	0.24
296.169	0.33
296.382	0.32
296.595	0.25
296.808	0.22
297.021	0.3
297.234	0.3
297.447	0.26
297.66	0.29
297.873	0.34
298.086	0.28
298.299	0.24
298.511	0.17
298.724	0.28
298.937	0.25
299.15	0.22
299.363	0.25
299.575	0.35
299.788	0.3
300.001	0.24
300.213	0.21
300.426	0.25
300.639	0.28
300.852	0.27
301.064	0.27
301.277	0.34
301.489	0.3
301.702	0.32
301.915	0.24
302.127	0.25
302.34	0.26
302.552	0.29
302.765	0.24
302.977	0.33
303.19	0.24
303.402	0.25
303.615	0.27
303.827	0.24
304.04	0.25
304.252	0.3
304.464	0.22
304.677	0.33
304.889	0.3
305.102	0.24
305.314	0.22
305.526	0.28
305.739	0.23
305.951	0.18
306.163	0.28
306.375	0.32
306.588	0.24
306.8	0.26
307.012	0.2
307.224	0.23
307.436	0.35
307.649	0.19
307.861	0.29
308.073	0.31
308.285	0.23
308.497	0.19
308.709	0.24
308.921	0.3
309.133	0.29
309.346	0.26
309.558	0.24
309.77	0.26
309.982	0.34
310.194	0.26
310.406	0.26
310.617	0.35
310.829	0.3
311.041	0.27
311.253	0.24
311.465	0.3
311.677	0.23
311.889	0.24
312.101	0.2
312.313	0.29
312.524	0.29
312.736	0.19
312.948	0.25
313.16	0.36
313.372	0.27
313.583	0.29
313.795	0.22
314.007	0.23
314.218	0.3
314.43	0.29
314.642	0.23
314.853	0.14
315.065	0.3
315.277	0.26
315.488	0.28
315.7	0.3
315.912	0.29
316.123	0.24
316.335	0.25
316.546	0.35
316.758	0.27
316.969	0.22
317.181	0.23
317.392	0.25
317.604	0.32
317.815	0.21
318.026	0.2
318.238	0.24
318.449	0.3
318.661	0.2
318.872	0.21
319.083	0.23
319.295	0.27
319.506	0.24
319.717	0.27
319.929	0.28
320.14	0.27
320.351	0.25
320.562	0.25
320.774	0.27
320.985	0.26
321.196	0.25
321.407	0.19
321.618	0.26
321.829	0.28
322.041	0.26
322.252	0.26
322.463	0.27
322.674	0.29
322.885	0.2
323.096	0.27
323.307	0.26
323.518	0.27
323.729	0.21
323.94	0.25
324.151	0.25
324.362	0.27
324.573	0.24
324.784	0.23
324.995	0.31
325.206	0.31
325.417	0.19
325.628	0.19
325.838	0.26
326.049	0.28
326.26	0.28
326.471	0.25
326.682	0.26
326.892	0.27
327.103	0.21
327.314	0.19
327.525	0.32
327.735	0.28
327.946	0.25
328.157	0.21
328.368	0.31
328.578	0.24
328.789	0.28
328.999	0.28
329.21	0.24
329.421	0.29
329.631	0.23
329.842	0.23
330.052	0.29
330.263	0.31
330.473	0.3
330.684	0.25
330.894	0.27
331.105	0.24
331.315	0.26
331.526	0.23
331.736	0.3
331.947	0.3
332.157	0.3
332.367	0.2
332.578	0.31
332.788	0.34
332.999	0.3
333.209	0.26
333.419	0.2
333.629	0.25
333.84	0.25
334.05	0.26
334.26	0.32
334.47	0.34
334.681	0.29
334.891	0.23
335.101	0.28
335.311	0.35
335.521	0.24
335.732	0.2
335.942	0.37
336.152	0.29
336.362	0.26
336.572	0.27
336.782	0.29
336.992	0.23
337.202	0.22
337.412	0.21
337.622	0.28
337.832	0.28
338.042	0.22
338.252	0.24
338.462	0.21
338.672	0.25
338.882	0.19
339.092	0.23
339.302	0.32
339.511	0.28
339.721	0.19
339.931	0.21
340.141	0.33
340.351	0.29
340.561	0.26
340.77	0.29
340.98	0.27
341.19	0.28
341.4	0.27
341.609	0.22
341.819	0.26
342.029	0.21
342.238	0.27
342.448	0.21
342.658	0.32
342.867	0.22
343.077	0.23
343.286	0.28
343.496	0.29
343.706	0.31
343.915	0.22
344.125	0.26
344.334	0.31
344.544	0.22
344.753	0.22
344.963	0.27
345.172	0.21
345.381	0.2
345.591	0.19
345.8	0.25
346.01	0.34
346.219	0.27
346.428	0.11
346.638	0.29
346.847	0.27
347.056	0.35
347.266	0.28
347.475	0.3
347.684	0.31
347.893	0.3
348.103	0.28
348.312	0.23
348.521	0.26
348.73	0.25
348.94	0.27
349.149	0.23
349.358	0.23
349.567	0.22
349.776	0.15
349.985	0.24
350.194	0.27
350.403	0.31
350.612	0.2
350.821	0.23
351.03	0.24
351.239	0.23
351.448	0.22
351.657	0.25
351.866	0.35
352.075	0.22
352.284	0.31
352.493	0.17
352.702	0.3
352.911	0.28
353.12	0.26
353.329	0.26
353.538	0.29
353.746	0.26
353.955	0.17
354.164	0.26
354.373	0.27
354.582	0.27
354.79	0.23
354.999	0.26
355.208	0.28
355.416	0.33
355.625	0.23
355.834	0.24
356.042	0.26
356.251	0.19
356.46	0.22
356.668	0.26
356.877	0.31
357.085	0.3
357.294	0.18
357.503	0.27
357.711	0.24
357.92	0.36
358.128	0.24
358.337	0.25
358.545	0.27
358.754	0.22
358.962	0.3
359.17	0.22
359.379	0.23
359.587	0.29
359.796	0.26
360.004	0.34
360.212	0.28
360.421	0.32
360.629	0.25
360.837	0.26
361.046	0.31
361.254	0.38
361.462	0.27
361.67	0.22
361.879	0.28
362.087	0.32
362.295	0.24
362.503	0.24
362.711	0.19
362.92	0.23
363.128	0.22
363.336	0.23
363.544	0.23
363.752	0.21
363.96	0.27
364.168	0.2
364.376	0.22
364.584	0.26
364.792	0.3
365	0.25
365.208	0.26
365.416	0.26
365.624	0.29
365.832	0.21
366.04	0.31
366.248	0.22
366.456	0.24
366.664	0.27
366.872	0.26
367.079	0.23
367.287	0.22
367.495	0.28
367.703	0.29
367.911	0.21
368.118	0.26
368.326	0.26
368.534	0.22
368.742	0.32
368.949	0.19
369.157	0.23
369.365	0.28
369.572	0.23
369.78	0.2
369.988	0.28
370.195	0.24
370.403	0.29
370.61	0.26
370.818	0.24
371.026	0.33
371.233	0.2
371.441	0.25
371.648	0.22
371.856	0.24
372.063	0.24
372.271	0.24
372.478	0.21
372.685	0.22
372.893	0.28
373.1	0.22
373.308	0.25
373.515	0.36
373.722	0.29
373.93	0.24
374.137	0.25
374.344	0.34
374.552	0.31
374.759	0.27
374.966	0.26
375.173	0.25
375.381	0.34
375.588	0.26
375.795	0.22
376.002	0.25
376.209	0.24
376.417	0.3
376.624	0.33
376.831	0.26
377.038	0.27
377.245	0.2
377.452	0.31
377.659	0.29
377.866	0.25
378.073	0.25
378.28	0.26
378.487	0.33
378.694	0.32
378.901	0.25
379.108	0.24
379.315	0.29
379.522	0.34
379.729	0.28
379.936	0.26
380.143	0.28
380.35	0.34
380.557	0.28
380.763	0.31
380.97	0.24
381.177	0.28
381.384	0.25
381.591	0.23
381.797	0.33
382.004	0.25
382.211	0.27
382.418	0.29
382.624	0.3
382.831	0.26
383.038	0.27
383.244	0.31
383.451	0.25
383.658	0.33
383.864	0.26
384.071	0.25
384.277	0.34
384.484	0.25
384.69	0.32
384.897	0.25
385.103	0.3
385.31	0.22
385.516	0.25
385.723	0.22
385.929	0.28
386.136	0.24
386.342	0.31
386.549	0.29
386.755	0.36
386.961	0.32
387.168	0.25
387.374	0.3
387.58	0.28
387.787	0.35
387.993	0.3
388.199	0.26
388.406	0.26
388.612	0.27
388.818	0.25
389.024	0.29
389.231	0.32
389.437	0.38
389.643	0.31
389.849	0.26
390.055	0.3
390.261	0.3
390.467	0.32
390.674	0.24
390.88	0.26
391.086	0.35
391.292	0.25
391.498	0.35
391.704	0.33
391.91	0.33
392.116	0.27
392.322	0.21
392.528	0.34
392.734	0.31
392.94	0.31
393.146	0.28
393.352	0.33
393.557	0.27
393.763	0.31
393.969	0.31
394.175	0.32
394.381	0.33
394.587	0.25
394.792	0.28
394.998	0.38
395.204	0.37
395.41	0.29
395.615	0.34
395.821	0.3
396.027	0.37
396.233	0.29
396.438	0.34
396.644	0.41
396.85	0.3
397.055	0.34
397.261	0.36
397.466	0.41
397.672	0.39
397.878	0.37
398.083	0.34
398.289	0.3
398.494	0.44
398.7	0.38
398.905	0.3
399.111	0.41
399.316	0.3
399.522	0.38
399.727	0.33
399.932	0.34
400.138	0.3
400.343	0.39
400.549	0.32
400.754	0.39
400.959	0.38
401.165	0.38
401.37	0.4
401.575	0.46
401.78	0.37
401.986	0.34
402.191	0.37
402.396	0.39
402.601	0.35
402.807	0.44
403.012	0.44
403.217	0.44
403.422	0.4
403.627	0.42
403.832	0.39
404.037	0.44
404.243	0.38
404.448	0.42
404.653	0.41
404.858	0.43
405.063	0.44
405.268	0.45
405.473	0.44
405.678	0.39
405.883	0.6
406.088	0.49
406.293	0.42
406.498	0.45
406.703	0.48
406.907	0.53
407.112	0.46
407.317	0.51
407.522	0.62
407.727	0.47
407.932	0.54
408.136	0.63
408.341	0.56
408.546	0.59
408.751	0.58
408.956	0.57
409.16	0.62
409.365	0.59
409.57	0.66
409.774	0.63
409.979	0.72
410.184	0.69
410.388	0.66
410.593	0.69
410.798	0.77
411.002	0.7
411.207	0.8
411.411	0.82
411.616	0.8
411.82	0.84
412.025	0.86
412.229	0.86
412.434	0.93
412.638	0.88
412.843	0.97
413.047	0.94
413.252	0.94
413.456	1.02
413.66	1.13
413.865	1.04
414.069	1.12
414.273	1.1
414.478	1.14
414.682	1.22
414.886	1.23
415.091	1.23
415.295	1.24
415.499	1.4
415.703	1.35
415.908	1.48
416.112	1.37
416.316	1.63
416.52	1.47
416.724	1.55
416.929	1.62
417.133	1.87
417.337	1.79
417.541	1.78
417.745	1.89
417.949	2.02
418.153	1.99
418.357	2.06
418.561	2.24
418.765	2.17
418.969	2.33
419.173	2.41
419.377	2.46
419.581	2.66
419.785	2.57
419.989	2.67
420.193	2.81
420.397	2.92
420.601	3.02
420.804	3.16
421.008	3.08
421.212	3.25
421.416	3.3
421.62	3.36
421.823	3.4
422.027	3.56
422.231	3.49
422.435	3.48
422.638	3.59
422.842	3.71
423.046	3.86
423.249	4
423.453	3.97
423.657	4.15
423.86	4.26
424.064	4.4
424.268	4.49
424.471	4.53
424.675	4.71
424.878	4.73
425.082	4.89
425.285	5.27
425.489	5.22
425.692	5.22
425.896	5.32
426.099	5.57
426.303	5.64
426.506	5.75
426.71	6.03
426.913	6.2
427.116	6.36
427.32	6.3
427.523	6.5
427.726	6.76
427.93	6.82
428.133	7.17
428.336	7.27
428.54	7.52
428.743	7.7
428.946	7.94
429.149	7.87
429.353	8.01
429.556	8.14
429.759	8.08
429.962	8.18
430.165	8.41
430.368	8
430.571	8.18
430.775	8.25
430.978	8.11
431.181	8.19
431.384	8.28
431.587	8.35
431.79	8.82
431.993	8.71
432.196	9
432.399	9.36
432.602	9.43
432.805	9.59
433.008	10.13
433.211	10.01
433.414	10.38
433.616	10.21
433.819	10.28
434.022	10.54
434.225	10.6
434.428	10.69
434.631	11.19
434.833	10.89
435.036	11.23
435.239	11.35
435.442	11.53
435.645	11.62
435.847	11.62
436.05	11.92
436.253	12.21
436.455	12.23
436.658	12.12
436.861	12.41
437.063	12.6
437.266	12.45
437.468	12.73
437.671	13.02
437.874	13.22
438.076	13.17
438.279	13.49
438.481	13.47
438.684	14.32
438.886	13.99
439.089	14.29
439.291	14.26
439.494	14.56
439.696	14.8
439.899	15.32
440.101	15.74
440.303	16.03
440.506	16.69
440.708	16.39
440.91	16.5
441.113	16.75
441.315	17.14
441.517	16.85
441.72	17.35
441.922	16.95
442.124	17.03
442.326	17.38
442.529	17.47
442.731	17.54
442.933	17.89
443.135	17.59
443.337	17.46
443.539	18.05
443.742	17.87
443.944	18.44
444.146	18.24
444.348	18.2
444.55	18.08
444.752	18.21
444.954	18.17
445.156	18.18
445.358	18.49
445.56	18.89
445.762	18.68
445.964	18.86
446.166	18.74
446.368	18.88
446.57	18.65
446.772	18.37
446.974	18.15
447.175	18.29
447.377	18.05
447.579	18.56
447.781	18.11
447.983	17.94
448.184	17.45
448.386	17.8
448.588	17.44
448.79	17.28
448.991	17.49
449.193	17.61
449.395	16.91
449.597	16.52
449.798	16.31
450	16.02
450.202	15.97
450.403	15.97
450.605	15.69
450.806	15.36
451.008	15.35
451.21	15.01
451.411	14.62
451.613	13.77
451.814	14.21
452.016	13.98
452.217	13.31
452.419	13.35
452.62	13.01
452.821	12.93
453.023	12.64
453.224	12.25
453.426	11.98
453.627	11.13
453.828	11.33
454.03	11.29
454.231	11.29
454.432	11.08
454.634	10.84
454.835	10.6
455.036	10.48
455.238	10.1
455.439	9.8
455.64	9.59
455.841	9.42
456.042	9.48
456.244	9.17
456.445	8.86
456.646	8.65
456.847	8.53
457.048	8.48
457.249	8.47
457.45	8.12
457.651	7.77
457.852	7.59
458.054	7.16
458.255	7.18
458.456	7.25
458.657	7.06
458.858	6.77
459.058	6.59
459.259	6.72
459.46	6.43
459.661	6.37
459.862	6.42
460.063	6.31
460.264	6.26
460.465	6.05
460.666	6.03
460.866	5.81
461.067	5.55
461.268	5.6
461.469	5.52
461.67	5.3
461.87	5.18
462.071	5.26
462.272	5.16
462.473	5.04
462.673	5.26
462.874	5.16
463.075	5.13
463.275	5.12
463.476	5.17
463.676	5.09
463.877	4.96
464.078	4.98
464.278	5.01
464.479	4.87
464.679	4.72
464.88	4.66
465.08	4.65
465.281	4.52
465.481	4.38
465.682	4.08
465.882	4.13
466.083	4.16
466.283	4.02
466.483	3.84
466.684	3.78
466.884	3.75
467.085	3.62
467.285	3.8
467.485	3.56
467.686	3.56
467.886	3.44
468.086	3.35
468.286	3.28
468.487	3.45
468.687	3.26
468.887	3.2
469.087	3.32
469.287	3.26
469.488	3.03
469.688	3.22
469.888	3.16
470.088	3.15
470.288	3.04
470.488	2.95
470.688	2.84
470.888	2.86
471.088	2.75
471.288	2.82
471.488	2.77
471.688	2.78
471.888	2.64
472.088	2.81
472.288	2.72
472.488	2.6
472.688	2.54
472.888	2.61
473.088	2.6
473.288	2.44
473.488	2.48
473.688	2.61
473.887	2.46
474.087	2.37
474.287	2.41
474.487	2.32
474.687	2.4
474.886	2.36
475.086	2.31
475.286	2.34
475.486	2.37
475.685	2.21
475.885	2.18
476.085	2.22
476.284	2.2
476.484	2.24
476.684	2.22
476.883	2.3
477.083	2.19
477.282	2.13
477.482	2.16
477.681	2.14
477.881	2.05
478.08	2.09
478.28	2.01
478.479	2.09
478.679	2.13
478.878	2.09
479.078	2
479.277	2.08
479.477	2.04
479.676	2
479.875	2.01
480.075	2
480.274	2.04
480.473	2.04
480.673	2.04
480.872	2.04
481.071	2.02
481.271	2.05
481.47	1.96
481.669	1.99
481.868	1.99
482.067	1.99
482.267	1.93
482.466	1.92
482.665	1.87
482.864	1.95
483.063	1.95
483.262	2.03
483.461	2.06
483.661	2.08
483.86	2
484.059	2.06
484.258	2.03
484.457	1.98
484.656	2.02
484.855	2.05
485.054	1.94
485.253	1.99
485.452	1.93
485.651	2.07
485.849	2.01
486.048	1.99
486.247	2.01
486.446	2.06
486.645	2.01
486.844	2.05
487.043	2.04
487.241	2.11
487.44	2.04
487.639	2.14
487.838	2.1
488.037	2.08
488.235	2.15
488.434	2.16
488.633	2.04
488.831	2.2
489.03	2.2
489.229	2.18
489.427	2.23
489.626	2.25
489.825	2.23
490.023	2.29
490.222	2.26
490.42	2.29
490.619	2.33
490.817	2.4
491.016	2.34
491.214	2.37
491.413	2.39
491.611	2.33
491.81	2.4
492.008	2.45
492.207	2.54
492.405	2.51
492.604	2.45
492.802	2.53
493	2.63
493.199	2.6
493.397	2.6
493.595	2.7
493.794	2.65
493.992	2.78
494.19	2.72
494.388	2.79
494.587	2.73
494.785	2.74
494.983	2.71
495.181	2.84
495.379	2.92
495.578	2.96
495.776	2.97
495.974	2.9
496.172	3
496.37	3.07
496.568	3.09
496.766	3.07
496.964	3.19
497.162	3.18
497.36	3.22
497.558	3.22
497.756	3.28
497.954	3.29
498.152	3.35
498.35	3.44
498.548	3.32
498.746	3.34
498.944	3.49
499.142	3.41
499.34	3.55
499.538	3.62
499.736	3.54
499.933	3.6
500.131	3.61
500.329	3.76
500.527	3.76
500.725	3.84
500.922	3.85
501.12	3.86
501.318	3.97
501.516	3.91
501.713	4
501.911	3.95
502.109	3.94
502.306	4.12
502.504	3.99
502.701	4.09
502.899	4.18
503.097	4.32
503.294	4.2
503.492	4.31
503.689	4.39
503.887	4.35
504.084	4.45
504.282	4.4
504.479	4.38
504.677	4.58
504.874	4.55
505.072	4.43
505.269	4.62
505.466	4.71
505.664	4.73
505.861	4.61
506.059	4.79
506.256	4.78
506.453	4.8
506.651	4.96
506.848	4.96
507.045	4.91
507.242	4.96
507.44	5.03
507.637	5.04
507.834	5.06
508.031	5.2
508.229	5.09
508.426	5.07
508.623	5.28
508.82	5.28
509.017	5.22
509.214	5.28
509.411	5.46
509.608	5.31
509.805	5.53
510.003	5.49
510.2	5.46
510.397	5.59
510.594	5.55
510.791	5.69
510.988	5.67
511.184	5.55
511.381	5.53
511.578	5.7
511.775	5.87
511.972	5.68
512.169	5.76
512.366	5.8
512.563	5.87
512.76	6
512.956	6.05
513.153	5.9
513.35	5.88
513.547	5.93
513.744	6.02
513.94	6.09
514.137	6.18
514.334	6.11
514.53	6.14
514.727	6.38
514.924	6.26
515.12	6.23
515.317	6.32
515.514	6.29
515.71	6.13
515.907	6.38
516.103	6.37
516.3	6.36
516.497	6.48
516.693	6.5
516.89	6.47
517.086	6.49
517.283	6.48
517.479	6.43
517.676	6.63
517.872	6.63
518.068	6.63
518.265	6.61
518.461	6.54
518.658	6.69
518.854	6.74
519.05	6.78
519.247	6.79
519.443	6.74
519.639	6.91
519.836	6.73
520.032	6.75
520.228	6.89
520.424	6.91
520.621	6.95
520.817	6.92
521.013	6.87
521.209	7.08
521.405	7.08
521.601	7.02
521.798	7.01
521.994	7.07
522.19	7.02
522.386	7.02
522.582	7.07
522.778	7.27
522.974	7.1
523.17	7.18
523.366	7.08
523.562	7.17
523.758	7.13
523.954	7.03
524.15	7.22
524.346	7.24
524.542	7.26
524.738	7.23
524.934	7.38
525.129	7.34
525.325	7.26
525.521	7.27
525.717	7.47
525.913	7.31
526.109	7.33
526.304	7.39
526.5	7.45
526.696	7.4
526.892	7.37
527.087	7.62
527.283	7.44
527.479	7.49
527.674	7.33
527.87	7.52
528.066	7.49
528.261	7.56
528.457	7.4
528.653	7.63
528.848	7.6
529.044	7.62
529.239	7.53
529.435	7.54
529.63	7.48
529.826	7.55
530.021	7.57
530.217	7.61
530.412	7.58
530.608	7.61
530.803	7.57
530.999	7.5
531.194	7.68
531.389	7.69
531.585	7.67
531.78	7.83
531.975	7.71
532.171	7.76
532.366	7.75
532.561	7.75
532.757	7.76
532.952	7.87
533.147	7.64
533.342	7.76
533.538	7.69
533.733	7.91
533.928	7.59
534.123	7.78
534.318	7.84
534.513	7.74
534.709	7.85
534.904	7.86
535.099	7.91
535.294	7.87
535.489	7.92
535.684	7.77
535.879	7.79
536.074	7.93
536.269	7.92
536.464	7.86
536.659	7.89
536.854	7.87
537.049	7.95
537.244	7.92
537.439	7.89
537.634	7.92
537.828	7.98
538.023	7.94
538.218	7.89
538.413	7.85
538.608	7.96
538.803	7.92
538.997	7.92
539.192	7.97
539.387	7.93
539.582	7.93
539.776	7.85
539.971	7.94
540.166	8.01
540.36	7.88
540.555	8.11
540.75	7.99
540.944	7.98
541.139	8.05
541.334	7.98
541.528	7.98
541.723	8.05
541.917	8.01
542.112	7.93
542.306	7.89
542.501	7.91
542.695	7.95
542.89	7.94
543.084	7.96
543.279	8.01
543.473	8.12
543.668	8.06
543.862	7.93
544.056	7.91
544.251	8.08
544.445	8.15
544.64	8.14
544.834	7.81
545.028	7.68
545.222	8.04
545.417	8.18
545.611	8.15
545.805	8.05
546	7.85
546.194	8.11
546.388	8.06
546.582	7.97
546.776	8.07
546.97	8.06
547.165	8.01
547.359	8
547.553	7.99
547.747	8.04
547.941	8.19
548.135	8.05
548.329	8.05
548.523	8.14
548.717	8.02
548.911	8.04
549.105	8
549.299	8.13
549.493	8.04
549.687	7.99
549.881	8.18
550.075	8.1
550.269	7.97
550.463	8.12
550.657	8.1
550.85	8.07
551.044	8.07
551.238	8.06
551.432	8.12
551.626	8.11
551.82	8.14
552.013	8.05
552.207	8.18
552.401	8.19
552.594	8.06
552.788	8.06
552.982	8.1
553.176	8.02
553.369	8.25
553.563	8.11
553.756	8.05
553.95	8.13
554.144	8.16
554.337	8.16
554.531	7.97
554.724	8.13
554.918	8.18
555.111	8.05
555.305	8.17
555.498	8.02
555.692	8.23
555.885	8.14
556.079	8.07
556.272	8.11
556.466	8.05
556.659	7.99
556.852	8.15
557.046	8.04
557.239	7.98
557.432	7.98
557.626	8.16
557.819	8.19
558.012	8.14
558.206	8.17
558.399	8.18
558.592	8.06
558.785	8.07
558.979	8.15
559.172	8.06
559.365	8.11
559.558	8.04
559.751	8.01
559.944	8.2
560.138	8.05
560.331	8.17
560.524	8.13
560.717	8.07
560.91	8.06
561.103	8.1
561.296	7.98
561.489	8.13
561.682	8.21
561.875	8.14
562.068	8.25
562.261	7.99
562.454	8.2
562.647	8.07
562.84	8.15
563.032	8.12
563.225	8.06
563.418	8.1
563.611	8.18
563.804	8.14
563.997	7.93
564.19	7.89
564.382	8.24
564.575	8.08
564.768	7.99
564.961	8.15
565.153	8
565.346	8
565.539	8.07
565.731	8.06
565.924	8.15
566.117	8.23
566.309	8.14
566.502	8.1
566.695	8.02
566.887	8.16
567.08	8.06
567.272	8.07
567.465	8
567.657	8.1
567.85	7.99
568.042	8.06
568.235	8.1
568.427	7.95
568.62	8.01
568.812	8.03
569.005	8.16
569.197	8
569.389	8.09
569.582	8.06
569.774	8.05
569.966	8
570.159	7.94
570.351	7.98
570.543	8.04
570.736	8.03
570.928	7.92
571.12	7.98
571.312	7.98
571.505	7.79
571.697	8.01
571.889	7.95
572.081	7.98
572.273	7.87
572.465	7.97
572.658	8.04
572.85	8.08
573.042	8.02
573.234	7.91
573.426	7.98
573.618	7.85
573.81	8.02
574.002	7.96
574.194	7.96
574.386	7.91
574.578	7.82
574.77	7.83
574.962	7.92
575.154	7.75
575.346	7.86
575.538	7.86
575.729	7.85
575.921	7.88
576.113	8
576.305	7.9
576.497	8.01
576.689	7.85
576.88	7.76
577.072	7.95
577.264	7.86
577.456	7.88
577.647	7.82
577.839	7.93
578.031	7.85
578.223	7.78
578.414	7.71
578.606	7.8
578.798	7.87
578.989	7.8
579.181	7.94
579.372	7.81
579.564	7.85
579.755	7.78
579.947	7.7
580.139	7.81
580.33	7.69
580.522	7.79
580.713	7.75
580.905	7.66
581.096	7.86
581.287	7.67
581.479	7.69
581.67	7.75
581.862	7.64
582.053	7.71
582.244	7.56
582.436	7.78
582.627	7.62
582.818	7.55
583.01	7.63
583.201	7.63
583.392	7.61
583.583	7.58
583.775	7.53
583.966	7.56
584.157	7.65
584.348	7.7
584.54	7.64
584.731	7.61
584.922	7.53
585.113	7.46
585.304	7.66
585.495	7.56
585.686	7.66
585.877	7.55
586.068	7.67
586.259	7.6
586.45	7.52
586.641	7.53
586.832	7.58
587.023	7.5
587.214	7.49
587.405	7.54
587.596	7.38
587.787	7.38
587.978	7.48
588.169	7.39
588.36	7.43
588.551	7.41
588.742	7.46
588.932	7.47
589.123	7.23
589.314	7.51
589.505	7.37
589.696	7.37
589.886	7.33
590.077	7.31
590.268	7.28
590.458	7.19
590.649	7.1
590.84	7.23
591.03	7.22
591.221	7.32
591.412	7.09
591.602	7.3
591.793	7.26
591.984	7.25
592.174	7.24
592.365	7.37
592.555	7.09
592.746	7.15
592.936	7.15
593.127	7.17
593.317	7.17
593.508	7.21
593.698	7.11
593.889	7.08
594.079	7.09
594.269	7
594.46	7.06
594.65	7.11
594.84	7.06
595.031	7.03
595.221	7.06
595.411	7.02
595.602	7.01
595.792	6.94
595.982	6.79
596.172	7.04
596.363	6.86
596.553	6.96
596.743	6.9
596.933	6.9
597.123	6.9
597.314	6.8
597.504	6.82
597.694	6.86
597.884	6.79
598.074	6.86
598.264	6.81
598.454	6.85
598.644	6.76
598.834	6.77
599.024	6.7
599.214	6.65
599.404	6.82
599.594	6.72
599.784	6.65
599.974	6.69
600.164	6.64
600.354	6.64
600.544	6.53
600.734	6.67
600.924	6.61
601.114	6.51
601.303	6.53
601.493	6.59
601.683	6.58
601.873	6.57
602.063	6.47
602.252	6.53
602.442	6.46
602.632	6.48
602.821	6.4
603.011	6.47
603.201	6.44
603.39	6.39
603.58	6.3
603.77	6.38
603.959	6.46
604.149	6.36
604.339	6.33
604.528	6.41
604.718	6.35
604.907	6.31
605.097	6.31
605.286	6.25
605.476	6.28
605.665	6.29
605.855	6.18
606.044	6.25
606.234	6.25
606.423	6.24
606.612	6.2
606.802	6.11
606.991	6.19
607.181	6.23
607.37	6.2
607.559	5.89
607.749	6.11
607.938	6.06
608.127	6.06
608.316	6.06
608.506	5.92
608.695	6.11
608.884	5.99
609.073	6
609.263	6.03
609.452	6.02
609.641	5.9
609.83	5.82
610.019	5.97
610.208	5.86
610.397	5.92
610.586	5.86
610.775	5.77
610.965	5.82
611.154	5.7
611.343	5.77
611.532	5.63
611.721	5.8
611.91	5.72
612.099	5.72
612.287	5.67
612.476	5.54
612.665	5.73
612.854	5.64
613.043	5.6
613.232	5.58
613.421	5.52
613.61	5.65
613.798	5.53
613.987	5.6
614.176	5.49
614.365	5.52
614.554	5.55
614.742	5.52
614.931	5.38
615.12	5.49
615.309	5.39
615.497	5.39
615.686	5.3
615.875	5.42
616.063	5.34
616.252	5.33
616.44	5.35
616.629	5.27
616.818	5.31
617.006	5.28
617.195	5.18
617.383	5.24
617.572	5.19
617.76	5.14
617.949	5.25
618.137	5.25
618.326	5.24
618.514	5.03
618.703	5.06
618.891	5.19
619.079	5.08
619.268	5.14
619.456	5.01
619.644	5.15
619.833	4.98
620.021	5.01
620.209	4.94
620.398	4.98
620.586	4.9
620.774	5.06
620.962	4.92
621.151	4.96
621.339	4.93
621.527	4.84
621.715	4.84
621.903	4.89
622.092	4.86
622.28	4.91
622.468	4.71
622.656	4.8
622.844	4.8
623.032	4.82
623.22	4.72
623.408	4.79
623.596	4.76
623.784	4.79
623.972	4.62
624.16	4.7
624.348	4.67
624.536	4.7
624.724	4.55
624.912	4.64
625.1	4.63
625.288	4.6
625.476	4.49
625.664	4.6
625.851	4.54
626.039	4.57
626.227	4.48
626.415	4.48
626.603	4.44
626.79	4.49
626.978	4.46
627.166	4.48
627.354	4.45
627.541	4.4
627.729	4.29
627.917	4.51
628.104	4.45
628.292	4.34
628.48	4.37
628.667	4.23
628.855	4.39
629.042	4.34
629.23	4.27
629.418	4.29
629.605	4.29
629.793	4.17
629.98	4.2
630.168	4.16
630.355	4.2
630.543	4.21
630.73	4.09
630.917	4.14
631.105	4.23
631.292	4.14
631.48	4.07
631.667	4.15
631.854	4.05
632.042	4.04
632.229	3.95
632.416	4.06
632.604	4.05
632.791	3.89
632.978	4.01
633.165	3.94
633.353	4.02
633.54	3.98
633.727	3.86
633.914	3.86
634.101	3.79
634.289	3.94
634.476	3.8
634.663	3.78
634.85	3.85
635.037	3.75
635.224	3.75
635.411	3.78
635.598	3.74
635.785	3.72
635.972	3.72
636.159	3.75
636.346	3.71
636.533	3.64
636.72	3.67
636.907	3.74
637.094	3.6
637.281	3.51
637.468	3.63
637.655	3.63
637.842	3.55
638.029	3.56
638.215	3.59
638.402	3.56
638.589	3.47
638.776	3.43
638.963	3.46
639.149	3.55
639.336	3.58
639.523	3.52
639.709	3.46
639.896	3.53
640.083	3.47
640.27	3.45
640.456	3.41
640.643	3.41
640.829	3.25
641.016	3.33
641.203	3.28
641.389	3.3
641.576	3.3
641.762	3.34
641.949	3.26
642.135	3.33
642.322	3.25
642.508	3.18
642.695	3.27
642.881	3.18
643.068	3.21
643.254	3.23
643.441	3.22
643.627	3.19
643.813	3.07
644	3.16
644.186	3.07
644.372	3.19
644.559	3.1
644.745	3.11
644.931	3.03
645.118	3.09
645.304	3.11
645.49	3.06
645.676	3.08
645.862	3.04
646.049	3.1
646.235	2.98
646.421	3.13
646.607	3.04
646.793	2.94
646.979	2.88
647.165	2.96
647.352	2.93
647.538	2.96
647.724	2.86
647.91	2.86
648.096	2.9
648.282	2.99
648.468	2.82
648.654	2.88
648.84	2.86
649.026	2.82
649.212	2.8
649.397	2.79
649.583	2.74
649.769	2.81
649.955	2.82
650.141	2.84
650.327	2.78
650.513	2.69
650.698	2.78
650.884	2.61
651.07	2.83
651.256	2.71
651.442	2.74
651.627	2.58
651.813	2.67
651.999	2.66
652.184	2.67
652.37	2.67
652.556	2.6
652.741	2.66
652.927	2.49
653.113	2.58
653.298	2.61
653.484	2.57
653.669	2.58
653.855	2.56
654.04	2.59
654.226	2.56
654.412	2.46
654.597	2.51
654.782	2.55
654.968	2.54
655.153	2.48
655.339	2.52
655.524	2.47
655.71	2.45
655.895	2.54
656.08	2.48
656.266	2.55
656.451	2.45
656.636	2.4
656.822	2.42
657.007	2.39
657.192	2.43
657.378	2.4
657.563	2.38
657.748	2.42
657.933	2.4
658.118	2.3
658.304	2.37
658.489	2.4
658.674	2.36
658.859	2.33
659.044	2.3
659.229	2.3
659.414	2.3
659.599	2.28
659.785	2.18
659.97	2.27
660.155	2.27
660.34	2.29
660.525	2.25
660.71	2.17
660.895	2.32
661.08	2.18
661.264	2.16
661.449	2.26
661.634	2.18
661.819	2.19
662.004	2.18
662.189	2.13
662.374	2.13
662.559	2.11
662.743	1.99
662.928	2.07
663.113	2.07
663.298	1.99
663.483	2.02
663.667	1.99
663.852	2.02
664.037	2.08
664.221	1.99
664.406	2.07
664.591	2.05
664.775	2.02
664.96	1.99
665.145	1.98
665.329	1.97
665.514	1.93
665.698	1.92
665.883	1.85
666.068	1.95
666.252	1.9
666.437	1.83
666.621	1.86
666.806	1.86
666.99	1.78
667.174	1.8
667.359	1.89
667.543	1.81
667.728	1.76
667.912	1.75
668.096	1.82
668.281	1.71
668.465	1.79
668.649	1.78
668.834	1.69
669.018	1.75
669.202	1.74
669.387	1.69
669.571	1.79
669.755	1.68
669.939	1.72
670.124	1.72
670.308	1.76
670.492	1.75
670.676	1.66
670.86	1.66
671.044	1.64
671.228	1.72
671.413	1.56
671.597	1.66
671.781	1.59
671.965	1.65
672.149	1.6
672.333	1.6
672.517	1.59
672.701	1.62
672.885	1.56
673.069	1.47
673.253	1.6
673.437	1.54
673.621	1.5
673.804	1.56
673.988	1.54
674.172	1.52
674.356	1.44
674.54	1.54
674.724	1.59
674.908	1.5
675.091	1.53
675.275	1.43
675.459	1.51
675.643	1.46
675.826	1.48
676.01	1.45
676.194	1.45
676.377	1.45
676.561	1.47
676.745	1.42
676.928	1.49
677.112	1.49
677.296	1.4
677.479	1.39
677.663	1.36
677.846	1.45
678.03	1.38
678.213	1.36
678.397	1.39
678.58	1.33
678.764	1.37
678.947	1.4
679.131	1.31
679.314	1.41
679.498	1.31
679.681	1.36
679.865	1.42
680.048	1.3
680.231	1.32
680.415	1.23
680.598	1.34
680.781	1.28
680.965	1.34
681.148	1.3
681.331	1.25
681.514	1.32
681.698	1.27
681.881	1.3
682.064	1.26
682.247	1.27
682.43	1.2
682.614	1.23
682.797	1.27
682.98	1.29
683.163	1.2
683.346	1.2
683.529	1.19
683.712	1.12
683.895	1.25
684.078	1.18
684.261	1.17
684.444	1.22
684.627	1.16
684.81	1.18
684.993	1.19
685.176	1.19
685.359	1.11
685.542	1.15
685.725	1.19
685.908	1.14
686.091	1.12
686.274	1.16
686.457	1.21
686.639	1.1
686.822	1.12
687.005	1.09
687.188	1.15
687.371	1.19
687.553	1.23
687.736	1.12
687.919	1.21
688.102	1.17
688.284	1.06
688.467	1.09
688.65	1.08
688.832	1.06
689.015	1.01
689.197	0.93
689.38	1.2
689.563	1.15
689.745	1.01
689.928	1.04
690.11	1.04
690.293	1.05
690.475	0.94
690.658	0.99
690.84	1.04
691.023	1.08
691.205	0.95
691.388	1.03
691.57	1.04
691.752	1.02
691.935	0.9
692.117	0.91
692.3	0.96
692.482	0.94
692.664	0.94
692.847	0.98
693.029	1.06
693.211	0.97
693.393	0.95
693.576	0.92
693.758	0.94
693.94	0.95
694.122	0.92
694.304	0.95
694.487	0.91
694.669	1.01
694.851	0.95
695.033	0.96
695.215	0.9
695.397	0.83
695.579	0.95
695.761	0.86
695.943	0.81
696.125	0.97
696.308	0.92
696.49	0.78
696.671	1.08
696.853	0.84
697.035	1.05
697.217	0.86
697.399	1.01
697.581	0.83
697.763	0.9
697.945	0.83
698.127	0.9
698.309	0.88
698.491	0.95
698.672	0.91
698.854	0.87
699.036	0.9
699.218	0.89
699.399	0.88
699.581	0.88
699.763	0.81
699.945	0.78
700.126	0.72
700.308	0.81
700.49	0.83
700.671	0.74
700.853	0.74
701.035	0.81
701.216	0.86
701.398	0.77
701.579	0.82
701.761	0.84
701.943	0.69
702.124	0.75
702.306	0.78
702.487	0.92
702.669	0.79
702.85	0.75
703.031	0.7
703.213	0.91
703.394	0.85
703.576	0.71
703.757	0.88
703.938	0.83
704.12	0.97
704.301	0.7
704.483	0.74
704.664	0.82
704.845	0.87
705.026	0.8
705.208	0.77
705.389	0.79
705.57	0.81
705.751	0.7
705.933	0.77
706.114	0.84
706.295	0.76
706.476	0.75
706.657	0.85
706.838	0.79
707.02	0.78
707.201	0.69
707.382	0.68
707.563	0.74
707.744	0.74
707.925	0.69
708.106	0.68
708.287	0.76
708.468	0.85
708.649	0.71
708.83	0.79
709.011	0.63
709.192	0.76
709.373	0.68
709.554	0.7
709.734	0.76
709.915	0.76
710.096	0.73
710.277	0.55
710.458	0.72
710.639	0.69
710.819	0.66
711	0.64
711.181	0.77
711.362	0.78
711.542	0.74
711.723	0.69
711.904	0.73
712.085	0.71
712.265	0.64
712.446	0.64
712.627	0.62
712.807	0.68
712.988	0.67
713.168	0.64
713.349	0.65
713.53	0.52
713.71	0.57
713.891	0.58
714.071	0.69
714.252	0.67
714.432	0.6
714.613	0.57
714.793	0.64
714.974	0.75
715.154	0.71
715.334	0.75
715.515	0.72
715.695	0.6
715.876	0.61
716.056	0.57
716.236	0.53
716.417	0.58
716.597	0.6
716.777	0.87
716.957	0.61
717.138	0.58
717.318	0.64
717.498	0.54
717.678	0.61
717.859	0.69
718.039	0.55
718.219	0.61
718.399	0.7
718.579	0.5
718.759	0.56
718.939	0.61
719.12	0.65
719.3	0.68
719.48	0.49
719.66	0.54
719.84	0.75
720.02	0.67
720.2	0.62
720.38	0.59
720.56	0.74
720.74	0.56
720.92	0.57
721.1	0.75
721.279	0.69
721.459	0.63
721.639	0.53
721.819	0.57
721.999	0.57
722.179	0.6
722.359	0.5
722.538	0.61
722.718	0.54
722.898	0.58
723.078	0.52
723.257	0.59
723.437	0.64
723.617	0.6
723.797	0.63
723.976	0.61
724.156	0.61
724.336	0.69
724.515	0.78
724.695	0.47
724.874	0.58
725.054	0.59
725.234	0.53
725.413	0.62
725.593	0.52
725.772	0.57
725.952	0.62
726.131	0.61
726.311	0.63
726.49	0.61
726.67	0.53
726.849	0.56
727.028	0.6
727.208	0.59
727.387	0.64
727.567	0.47
727.746	0.58
727.925	0.55
728.105	0.48
728.284	0.56
728.463	0.53
728.643	0.66
728.822	0.47
729.001	0.6
729.18	0.58
729.359	0.64
729.539	0.58
729.718	0.53
729.897	0.64
730.076	0.57
730.255	0.46
730.434	0.55
730.614	0.68
730.793	0.65
730.972	0.55
731.151	0.61
731.33	0.66
731.509	0.7
731.688	0.51
731.867	0.52
732.046	0.45
732.225	0.81
732.404	0.47
732.583	0.56
732.762	0.62
732.941	0.64
733.12	0.62
733.298	0.55
733.477	0.68
733.656	0.46
733.835	0.54
734.014	0.62
734.193	0.67
734.371	0.66
734.55	0.66
734.729	0.44
734.908	0.59
735.086	0.68
735.265	0.63
735.444	0.42
735.623	0.49
735.801	0.44
735.98	0.61
736.159	0.57
736.337	0.65
736.516	0.53
736.694	0.62
736.873	0.54
737.052	0.84
737.23	0.74
737.409	0.44
737.587	0.69
737.766	0.49
737.944	0.71
738.123	0.72
738.301	0.64
738.479	0.53
738.658	0.71
738.836	0.43
739.015	0.65
739.193	0.78
739.371	0.42
739.55	0.52
739.728	0.48
739.906	0.69
740.085	0.74
740.263	0.53
740.441	0.42
740.62	0.71
740.798	0.78
740.976	0.37
741.154	0.49
741.332	0.67
741.511	0.54
741.689	0.62
741.867	0.69
742.045	0.48
742.223	0.51
742.401	0.52
742.579	0.51
742.757	0.5
742.935	0.43
743.114	0.49
743.292	0.5
743.47	0.56
743.648	0.55
743.826	0.53
744.004	0.53
744.181	0.68
744.359	0.51
744.537	0.52
744.715	0.47
744.893	0.57
745.071	0.53
745.249	0.41
745.427	0.53
745.605	0.52
745.782	0.46
745.96	0.52
746.138	0.68
746.316	0.57
746.493	0.42
746.671	0.54
746.849	0.46
747.027	0.61
747.204	0.41
747.382	0.47
747.56	0.38
747.737	0.4
747.915	0.33
748.093	0.48
748.27	0.35
748.448	0.36
748.625	0.41
748.803	0.35
748.98	0.39
749.158	0.48
749.335	0.57
749.513	0.32
749.69	0.4
749.868	0.47
750.045	0.54
750.223	0.38
750.4	0.29
750.578	0.53
750.755	0.38
750.932	0.29
751.11	0.47
751.287	0.29
751.464	0.65
751.642	0.25
751.819	0.44
751.996	0.46
752.173	0.4
752.351	0.37
752.528	0.44
752.705	0.49
752.882	0.4
753.06	0.37
753.237	0.58
753.414	0.62
753.591	0.61
753.768	0.33
753.945	0.33
754.122	0.44
754.299	0.5
754.476	0.31
754.654	0.53
754.831	0.37
755.008	0.45
755.185	0.34
755.362	0.21
755.539	0.4
755.716	0.59
755.892	0.42
756.069	0.33
756.246	0.37
756.423	0.39
756.6	0.46
756.777	0.26
756.954	0.63
757.131	0.36
757.307	0.24
757.484	0.29
757.661	0.51
757.838	0.72
758.015	0.18
758.191	0.51
758.368	0.41
758.545	0.55
758.721	0.45
758.898	0.25
759.075	0.42
759.251	0.5
759.428	0.52
759.605	0.15
759.781	0.35
759.958	0.44
760.134	0.41
760.311	0.36
760.488	0.45
760.664	0.53
760.841	0.5
761.017	0.33
761.194	0.44
761.37	0.43
761.547	0.48
761.723	0.27
761.899	0.46
762.076	0.38
762.252	0.25
762.429	0.39
762.605	0.35
762.781	0.31
762.958	0.52
763.134	0.37
763.31	0.27
763.486	0.53
763.663	0.19
763.839	0.45
764.015	0.14
764.191	0.36
764.368	0.38
764.544	0.32
764.72	0.35
764.896	0.41
765.072	0.37
765.248	0.36
765.425	0.32
765.601	0.39
765.777	0.4
765.953	0.19
766.129	0.31
766.305	0.33
766.481	0.46
766.657	0.4
766.833	0.6
767.009	0.28
767.185	0.28
767.361	0.42
767.537	0.16
767.713	0.45
767.889	0.37
768.065	0.32
768.24	0.4
768.416	0.51
768.592	0.43
768.768	0.41
768.944	0.4
769.12	0.33
769.295	0.31
769.471	0.42
769.647	0.32
769.823	0.56
769.998	0.16
770.174	0.23
770.35	0.88
770.525	0.65
770.701	0.72
770.877	0.33
771.052	0.26
771.228	0.62
771.403	0.56
771.579	0.42
771.755	0.69
771.93	0.35
772.106	0.23
772.281	0.25
772.457	0.53
772.632	0.5
772.808	0.3
772.983	0.22
773.159	0.13
773.334	0.59
773.509	0.38
773.685	0.21
773.86	0.78
774.036	0.58
774.211	0.43
774.386	0.3
774.562	0.42
774.737	0.77
774.912	0.3
775.087	0.38
775.263	0.43
775.438	0.51
775.613	0.43
775.788	0.4
775.964	0.58
776.139	0.68
776.314	0.29
776.489	0.48
776.664	0.55
776.839	0.26
777.014	0.57
777.19	0.75
777.365	0.59
777.54	0.63
777.715	0.37
777.89	0.36
778.065	0.28
778.24	0.3
778.415	0.49
778.59	0.3
778.765	0.41
778.94	0.39
779.115	0.43
779.289	0.27
779.464	0.49
779.639	0.4
779.814	0.2
779.989	0.16
780.164	0.68
780.339	0.41
780.513	0.38
780.688	0.21
780.863	0.42
781.038	0.42
781.212	0.29
781.387	0.42
781.562	0.53
781.737	0.36
781.911	0.63
782.086	0.33
782.261	0.31
782.435	0.7
782.61	0.39
782.784	0.48
782.959	0.54
783.134	0.34
783.308	0.15
783.483	0.32
783.657	0.81
783.832	0.69
784.006	0.28
784.181	0.39
784.355	0.69
784.53	0.61
784.704	0.38
784.878	0.89
785.053	0.53
785.227	0.8
785.402	0.99
785.576	0.25
785.75	0.46
785.925	0.35
786.099	0.52
786.273	0.36
786.448	0.52
786.622	0.51
786.796	0.32
786.97	0.22
787.145	0.82
787.319	0.21
787.493	0.24
787.667	0.27
787.841	0.69
788.015	0.62
788.19	0.25
788.364	0.65
788.538	0.57
788.712	0.46
788.886	0.5
789.06	0.72
789.234	0.67
789.408	0.24
789.582	0.36
789.756	0.35
789.93	0.31
790.104	0.44
790.278	0.58
790.452	0.29
790.626	0.48
790.8	0.34
790.973	0.58
791.147	0.65
791.321	0.78
791.495	0.52
791.669	0.4
791.843	0.62
792.016	0.46
792.19	1.01
792.364	0.17
792.538	0.92
792.711	0.67
792.885	0.32
793.059	0.35
793.233	0.18
793.406	0.69
793.58	0.33
793.754	0.74
793.927	0.24
794.101	0.57
794.274	0.56
794.448	0.68
794.622	0.23
794.795	0.68
794.969	0.27
795.142	0.77
795.316	0.42
795.489	0.32
795.663	0.86
795.836	0.51
796.009	0.27
796.183	0.82
796.356	0.57
796.53	0.67
796.703	0.52
796.876	0.96
797.05	0.48
797.223	0.51
797.396	0.42
797.57	0.48
797.743	0.71
797.916	0.34
798.09	0.37
798.263	0.66
798.436	0.6
798.609	0.49
798.782	0.37
798.956	0.72
799.129	0.53
799.302	0.29
799.475	0.38
799.648	0.19
799.821	0.26
799.994	0.53
800.167	-0.02
800.34	0.41
800.514	0.56
800.687	0.45
800.86	0.45
801.033	0.79
801.206	0.59
801.379	0.3
801.551	0.81
801.724	0.6
801.897	1.07
802.07	0.5
802.243	-0.14
802.416	0.49
802.589	0.54
802.762	0.84
802.935	0.17
803.107	0.56
803.28	0.77
803.453	0.58
803.626	0.37
803.798	0.64
803.971	0.6
804.144	0.45
804.317	0.55
804.489	0.9
804.662	0.44
804.835	0.65
805.007	0.18
805.18	0.78
805.353	0.37
805.525	0.33
805.698	0.44
805.87	0.81
806.043	0.97
806.215	0.38
806.388	0.69
806.56	0.43
806.733	1.19
806.905	0.5
807.078	0.59
807.25	0.46
807.423	0.62
807.595	0.64
807.768	0.52
807.94	1.17
808.112	0.91
808.285	0.72
808.457	0.66
808.629	0.62
808.802	0.83
808.974	0.92
809.146	0.48
809.318	0.29
809.491	0.84
809.663	0.94
809.835	0.66
810.007	0.98
810.18	0.89
810.352	0.24
810.524	0.22
810.696	0.58
810.868	0.99
811.04	0.52
811.212	0.67
811.384	0.58
811.556	0.91
811.728	0.26
811.901	1.25
812.073	0.46
812.245	0.4
812.417	0.7
812.589	0.25
812.76	0.78
812.932	0.91
813.104	1.2
813.276	0.49
813.448	0.58
813.62	0.96
813.792	0.56
813.964	0.55
814.136	0.62
814.307	0.56
814.479	0.43
814.651	0.23
814.823	1.52
814.995	0.5
815.166	0.83
815.338	0.33
815.51	0.3
815.681	1.33
815.853	0.79
816.025	0.18
816.196	1.8
816.368	0.66
816.54	0.27
816.711	0.39
816.883	1.32
817.054	1.41
817.226	0.34
817.398	0.78
817.569	0.28
817.741	0.87
817.912	0.67
818.084	0.74
818.255	1.05
818.426	0.35
818.598	0.85
818.769	0.69
818.941	0.87
819.112	1.73
819.283	1.07
819.455	0.48
819.626	0.62
819.798	1.29
819.969	0.79
820.14	0.81
820.311	0.22
820.483	0.45
820.654	0.85
820.825	0.59
820.996	0.73
821.168	0.5
821.339	0.98
821.51	0.14
821.681	0.53
821.852	0.79
822.023	0.43
822.195	0.28
822.366	1.16
822.537	0.85
822.708	1.24
822.879	0.37
823.05	1.26
823.221	1.12
823.392	1.02
823.563	0.67
823.734	0.58
823.905	0.75
824.076	1.02
824.247	0.37
824.418	0.28
824.589	1.85
824.759	0.88
824.93	0.74
825.101	0.21
825.272	1.63
825.443	1.55
825.614	1.81
825.784	0.04
825.955	2.08
826.126	1.4
826.297	1.06
826.467	1.25
826.638	1.3
826.809	0.31
826.98	0.3
827.15	1.1
827.321	1.01
827.492	1.65
827.662	1.04
827.833	1.64
828.003	1.7
828.174	0.51
828.345	0.36
828.515	1.24
828.686	0.95
828.856	0.07
829.027	0.96
829.197	1.15
829.368	1.25
829.538	0.67
829.709	0.99
829.879	1.25
830.049	1.07
830.22	0.68
830.39	0.67
830.56	1.84
830.731	0.94
830.901	0.22
831.072	1.3
831.242	1.31
831.412	1
831.582	0.89
831.753	-0.17
831.923	1.29
832.093	0.74
832.263	0.41
832.434	0.17
832.604	0.61
832.774	1.79
832.944	0.45
833.114	0.61
833.284	1.21
833.454	0.56
833.624	0.72
833.795	0.29
833.965	1.25
834.135	1.96
834.305	0.02
834.475	0.83
834.645	1.06
834.815	0.48
834.985	0.37
835.155	0.36
835.325	1.22
835.494	0.82
835.664	0.24
835.834	0.42
836.004	0.83
836.174	1.19
836.344	0.93
836.514	0.43
836.684	0.89
836.853	0.98
837.023	1.62
837.193	0.76
837.363	2.23
837.532	1.5
837.702	1.11
837.872	0.58
838.041	1.93
838.211	2.28
838.381	0.62
838.55	0.83
838.72	3.38
838.89	2.2
839.059	1.27
839.229	0.95
839.398	2.29
839.568	1.12
839.738	0.65
839.907	1.86
840.077	1
840.246	1.39
840.416	-0.18
840.585	0.25
840.755	2.33
840.924	2.53
841.093	0.75
841.263	0.56
841.432	1.55
841.602	0.18
841.771	0.47
841.94	1.41
842.11	3.04
842.279	2.51
842.448	0.18
842.617	0.49
842.787	2.27
842.956	0.77
843.125	1.23
843.294	0.47
843.464	2.13
843.633	1.76
843.802	0.1
843.971	0.94
844.14	1.9
844.309	2.08
844.479	1.25
844.648	0.63
844.817	0.86
844.986	2.18
845.155	1.01
845.324	1.91
845.493	1.13
845.662	1.2
845.831	1.59
846	1.4
846.169	1.1
846.338	2.52
846.507	1.48
846.676	1.18
846.844	0.92
847.013	2.24
847.182	1.07
847.351	0.61
847.52	1.43
847.689	1.91
847.858	1.38
848.026	0.25
848.195	0.99
848.364	0.74
848.533	0.39
848.701	0.49
848.87	1.2
849.039	1.38
849.207	1.13
849.376	2.41
849.545	2.8
849.713	0.49
849.882	0.46
850.051	0.63
850.219	1.5
850.388	2.15
850.556	1.16
850.725	0.44
850.893	2.26
851.062	0.8
851.23	1.47
851.399	1.08
851.567	1.17
851.736	0.96
851.904	0.43
852.073	1.49
852.241	2.3
852.41	2.14
852.578	1.34
852.746	0.95
852.915	1.82
853.083	1.93
853.251	-0.35
853.42	1.65
853.588	1.86
853.756	2.47
853.924	1.08
854.093	1.02
854.261	1.28
854.429	0.31
854.597	1.17
854.765	0.62
854.934	2.74
855.102	2.35
855.27	1.8
855.438	1.95
855.606	2.08
855.774	3.72
855.942	-0.69
856.11	0.97
856.278	1.38
856.446	3.34
856.614	1.99
856.782	1.48
856.95	2.51
857.118	2.54
857.286	1.64
857.454	0.62
857.622	1.81
857.79	1.8
857.958	0.66
858.126	0.58
858.294	1.73
858.462	2.32
858.629	1.31
858.797	0.85
858.965	2.06
859.133	1.35
859.301	1.39
859.468	2.66
859.636	0.84
859.804	1.47
859.971	1.52
860.139	0.42
860.307	2.82
860.474	0.84
860.642	2.06
860.81	1.58
860.977	1.35
861.145	3.06
861.313	1.27
861.48	1.09
861.648	2.82
861.815	1.7
861.983	0.56
862.15	0.97
862.318	3.75
862.485	2.96
862.653	0.92
862.82	0.19
862.988	3.23
863.155	1.38
863.322	0.82
863.49	-0.28
863.657	1.09
863.824	4.84
863.992	2.46
864.159	1.54
864.326	3.68
864.494	1.2
864.661	3.08
864.828	0.2
864.996	1.49
865.163	2.82
865.33	0.19
865.497	-1.13
865.664	1.4
865.832	-0.56
865.999	1.77
866.166	0.36
866.333	1.08
866.5	1.86
866.667	2.39
866.834	3.19
867.001	3.75
867.168	-0.06
867.335	1.74
867.502	-0.07
867.669	2.18
867.836	3.22
868.003	3.2
868.17	2.96
868.337	-0.66
868.504	4.28
868.671	-0.19
868.838	1.33
869.005	1.9
869.172	3.01
869.339	1.62
869.505	1.17
869.672	0.92
869.839	3.1
870.006	1.53
870.173	0.74
870.339	2.1
870.506	4.57
870.673	-0.14
870.84	2.51
871.006	2.57
871.173	1.34
871.34	1.58
871.506	2.15
871.673	2.94
871.839	0.13
872.006	2.05
872.173	1.88
872.339	1.62
872.506	4.62
872.672	1.35
872.839	1
873.005	3
873.172	4.05
873.338	3.92
873.505	4.16
873.671	2.68
873.838	3.31
874.004	0.14
874.171	0.24
874.337	3.7
874.503	1.52
874.67	1.78
874.836	2.4
875.002	4.7
875.169	3.41
875.335	2.85
875.501	2.05
875.668	4.28
875.834	2.25
876	1.03
876.166	2.86
876.332	4.33
876.499	4.51
876.665	3
876.831	1.79
876.997	5.22
877.163	3.93
877.329	1.65
877.495	2.64
877.662	3.45
877.828	2.81
877.994	1.68
878.16	-1.73
878.326	0.87
878.492	3.58
878.658	2.41
878.824	3.25
878.99	3.54
879.156	1.7
879.322	4.28
879.487	1.54
879.653	2.75
879.819	2.89
879.985	0.15
880.151	2.58
880.317	3.8
880.483	2
880.648	4.32
880.814	0.4
880.98	3.08
881.146	-1.7
881.312	0.42
881.477	0.28
881.643	2.09
881.809	5.65
881.974	4.14
882.14	-0.03
882.306	2.56
882.471	6.71
882.637	2.05
882.803	2.49
882.968	4.87
883.134	6.59
883.299	0.12
883.465	0.68
883.63	3.21
883.796	2.89
883.961	0.98
884.127	2.14
884.292	-1.17
884.458	-1.14
884.623	-1.14
