Data from Apollo_Calib_20240827__AbsoluteIrradiance__824__12-53-02-083.txt Node

Date: Wed Aug 28 12:53:02 BST 2024
User: biology
Spectrometer: FLMT08252
Trigger mode: 0
Integration Time (sec): 5.000000E-1
Scans to average: 5
Electric dark correction enabled: true
Nonlinearity correction enabled: false
Boxcar width: 0
XAxis mode: Wavelengths
Number of Pixels in Spectrum: 3648
>>>>>Begin Spectral Data<<<<<
179.588	-0
179.809	-0
180.03	-0
180.251	-0
180.473	-0
180.694	0
180.915	0
181.136	-0
181.357	0
181.578	-0
181.799	0
182.02	-0
182.241	0
182.462	-0
182.683	0
182.904	-0
183.125	-0
183.346	0
183.567	0
183.788	0
184.009	0
184.23	0
184.451	0
184.672	0
184.892	0
185.113	0
185.334	0
185.555	0
185.776	0
185.996	0
186.217	0
186.438	0
186.659	0
186.879	0
187.1	0
187.321	0
187.541	0
187.762	0
187.983	0
188.203	0
188.424	0
188.644	0
188.865	0
189.086	0
189.306	0
189.527	0
189.747	0
189.968	0
190.188	0
190.409	0
190.629	0
190.849	0
191.07	0
191.29	0
191.511	0
191.731	0
191.951	0
192.172	0
192.392	0
192.612	0
192.833	0
193.053	0
193.273	0
193.493	0
193.714	0
193.934	0
194.154	0
194.374	0
194.594	0
194.815	0
195.035	0
195.255	0
195.475	0
195.695	0
195.915	0
196.135	0
196.355	0
196.575	0
196.795	0
197.015	0
197.235	0
197.455	0
197.675	0
197.895	0
198.115	0
198.335	0
198.555	0
198.775	0
198.995	0
199.214	0
199.434	0
199.654	0
199.874	0
200.094	4.71
200.313	2.75
200.533	1.72
200.753	1.78
200.973	3.48
201.192	3.68
201.412	0.94
201.632	1.52
201.851	3.2
202.071	2.16
202.291	1.19
202.51	1.74
202.73	2.79
202.95	1.81
203.169	0.95
203.389	1.58
203.608	2.17
203.828	1.96
204.047	1.77
204.267	2.49
204.486	1.92
204.706	2.15
204.925	1.97
205.145	1.47
205.364	2.25
205.583	3
205.803	1.35
206.022	1.05
206.242	1.97
206.461	2.01
206.68	1.26
206.9	1.59
207.119	2.75
207.338	2.15
207.557	1.29
207.777	1.39
207.996	1.31
208.215	2.28
208.434	1.24
208.654	0.42
208.873	1.74
209.092	1.98
209.311	1.08
209.53	1.34
209.749	0.99
209.968	0.95
210.187	1.11
210.407	0.85
210.626	1.12
210.845	1.64
211.064	0.91
211.283	0.72
211.502	1.53
211.721	1.39
211.94	0.75
212.159	1.45
212.377	1.43
212.596	1.52
212.815	1.02
213.034	1.5
213.253	1.56
213.472	1.45
213.691	1.1
213.91	0.68
214.128	0.52
214.347	1.3
214.566	0.42
214.785	0.47
215.003	0.91
215.222	1.2
215.441	0.99
215.66	0.59
215.878	0.89
216.097	1.46
216.316	0.85
216.534	0.91
216.753	0.98
216.972	1.01
217.19	0.85
217.409	0.73
217.627	0.94
217.846	0.72
218.064	0.91
218.283	0.7
218.501	1.46
218.72	1.23
218.938	0.63
219.157	0.66
219.375	1.19
219.594	0.95
219.812	0.59
220.031	0.64
220.249	1.24
220.467	1.09
220.686	0.52
220.904	0.47
221.122	0.68
221.341	1.17
221.559	0.8
221.777	0.51
221.995	0.81
222.214	0.9
222.432	0.55
222.65	1.01
222.868	0.86
223.086	0.85
223.305	0.86
223.523	0.64
223.741	1.25
223.959	0.81
224.177	0.31
224.395	0.5
224.613	0.78
224.831	0.98
225.049	0.45
225.267	0.67
225.485	0.83
225.703	0.57
225.921	0.66
226.139	0.48
226.357	0.8
226.575	0.78
226.793	0.59
227.011	1.43
227.229	0.93
227.447	0.94
227.665	0.39
227.883	0.38
228.1	0.63
228.318	0.71
228.536	0.3
228.754	0.51
228.972	0.73
229.189	0.98
229.407	0.61
229.625	0.61
229.843	0.85
230.06	0.83
230.278	0.56
230.496	0.69
230.713	0.6
230.931	0.84
231.149	0.59
231.366	0.25
231.584	0.64
231.801	1.07
232.019	0.5
232.236	0.43
232.454	0.44
232.671	0.76
232.889	0.59
233.106	0.3
233.324	0.72
233.541	0.51
233.759	0.44
233.976	0.36
234.194	0.56
234.411	0.63
234.628	0.4
234.846	0.63
235.063	0.53
235.28	0.49
235.498	0.58
235.715	0.35
235.932	0.87
236.149	0.5
236.367	0.3
236.584	0.56
236.801	0.41
237.018	0.69
237.236	0.4
237.453	0.34
237.67	0.7
237.887	0.52
238.104	0.46
238.321	0.39
238.538	0.42
238.755	0.61
238.973	0.33
239.19	0.45
239.407	0.62
239.624	0.64
239.841	0.41
240.058	0.45
240.275	0.59
240.492	0.6
240.709	0.4
240.925	0.41
241.142	0.48
241.359	0.31
241.576	0.31
241.793	0.37
242.01	0.51
242.227	0.7
242.444	0.53
242.66	0.57
242.877	0.55
243.094	0.44
243.311	0.4
243.527	0.35
243.744	0.55
243.961	0.61
244.178	0.37
244.394	0.43
244.611	0.6
244.828	0.72
245.044	0.35
245.261	0.37
245.477	0.46
245.694	0.58
245.911	0.39
246.127	0.5
246.344	0.72
246.56	0.56
246.777	0.35
246.993	0.43
247.21	0.52
247.426	0.64
247.643	0.41
247.859	0.28
248.076	0.39
248.292	0.64
248.508	0.3
248.725	0.42
248.941	0.41
249.157	0.66
249.374	0.38
249.59	0.37
249.806	0.4
250.023	0.54
250.239	0.33
250.455	0.39
250.671	0.48
250.888	0.44
251.104	0.5
251.32	0.34
251.536	0.43
251.752	0.4
251.969	0.47
252.185	0.35
252.401	0.7
252.617	0.4
252.833	0.3
253.049	0.43
253.265	0.47
253.481	0.46
253.697	0.34
253.913	0.24
254.129	0.52
254.345	0.43
254.561	0.28
254.777	0.33
254.993	0.51
255.209	0.43
255.425	0.38
255.641	0.3
255.857	0.53
256.073	0.4
256.288	0.28
256.504	0.33
256.72	0.42
256.936	0.55
257.152	0.33
257.367	0.27
257.583	0.44
257.799	0.52
258.015	0.28
258.23	0.33
258.446	0.64
258.662	0.36
258.877	0.25
259.093	0.3
259.309	0.33
259.524	0.41
259.74	0.33
259.955	0.21
260.171	0.44
260.387	0.43
260.602	0.48
260.818	0.47
261.033	0.25
261.249	0.33
261.464	0.31
261.68	0.25
261.895	0.46
262.11	0.49
262.326	0.35
262.541	0.26
262.757	0.45
262.972	0.45
263.187	0.36
263.403	0.4
263.618	0.49
263.833	0.32
264.049	0.24
264.264	0.3
264.479	0.41
264.694	0.49
264.91	0.24
265.125	0.29
265.34	0.55
265.555	0.58
265.77	0.41
265.986	0.3
266.201	0.49
266.416	0.49
266.631	0.28
266.846	0.29
267.061	0.46
267.276	0.39
267.491	0.21
267.706	0.42
267.921	0.33
268.136	0.4
268.351	0.3
268.566	0.23
268.781	0.52
268.996	0.47
269.211	0.33
269.426	0.23
269.641	0.28
269.856	0.43
270.071	0.22
270.285	0.25
270.5	0.46
270.715	0.44
270.93	0.33
271.145	0.46
271.359	0.44
271.574	0.29
271.789	0.35
272.004	0.3
272.218	0.31
272.433	0.37
272.648	0.31
272.862	0.44
273.077	0.42
273.292	0.34
273.506	0.25
273.721	0.33
273.936	0.36
274.15	0.44
274.365	0.31
274.579	0.38
274.794	0.37
275.008	0.47
275.223	0.21
275.437	0.32
275.652	0.43
275.866	0.46
276.081	0.37
276.295	0.33
276.509	0.41
276.724	0.31
276.938	0.31
277.153	0.38
277.367	0.37
277.581	0.26
277.796	0.26
278.01	0.27
278.224	0.41
278.438	0.47
278.653	0.24
278.867	0.27
279.081	0.44
279.295	0.32
279.51	0.31
279.724	0.25
279.938	0.36
280.152	0.42
280.366	0.25
280.58	0.34
280.794	0.42
281.008	0.38
281.222	0.36
281.437	0.48
281.651	0.33
281.865	0.39
282.079	0.24
282.293	0.18
282.507	0.31
282.721	0.31
282.935	0.29
283.148	0.2
283.362	0.24
283.576	0.22
283.79	0.28
284.004	0.23
284.218	0.37
284.432	0.26
284.646	0.24
284.859	0.27
285.073	0.3
285.287	0.37
285.501	0.27
285.714	0.27
285.928	0.33
286.142	0.32
286.356	0.24
286.569	0.2
286.783	0.43
286.997	0.36
287.21	0.31
287.424	0.29
287.637	0.3
287.851	0.26
288.065	0.29
288.278	0.27
288.492	0.35
288.705	0.28
288.919	0.29
289.132	0.13
289.346	0.33
289.559	0.2
289.773	0.25
289.986	0.26
290.2	0.3
290.413	0.36
290.626	0.26
290.84	0.25
291.053	0.26
291.267	0.39
291.48	0.26
291.693	0.26
291.906	0.26
292.12	0.3
292.333	0.26
292.546	0.24
292.76	0.38
292.973	0.32
293.186	0.3
293.399	0.28
293.612	0.32
293.826	0.27
294.039	0.28
294.252	0.27
294.465	0.3
294.678	0.31
294.891	0.23
295.104	0.17
295.317	0.28
295.53	0.28
295.743	0.27
295.956	0.24
296.169	0.42
296.382	0.34
296.595	0.28
296.808	0.2
297.021	0.35
297.234	0.33
297.447	0.21
297.66	0.28
297.873	0.36
298.086	0.33
298.299	0.21
298.511	0.18
298.724	0.28
298.937	0.2
299.15	0.16
299.363	0.29
299.575	0.29
299.788	0.26
300.001	0.22
300.213	0.23
300.426	0.28
300.639	0.21
300.852	0.21
301.064	0.29
301.277	0.4
301.489	0.34
301.702	0.29
301.915	0.26
302.127	0.24
302.34	0.24
302.552	0.3
302.765	0.19
302.977	0.34
303.19	0.25
303.402	0.27
303.615	0.25
303.827	0.22
304.04	0.24
304.252	0.3
304.464	0.22
304.677	0.38
304.889	0.29
305.102	0.22
305.314	0.25
305.526	0.28
305.739	0.34
305.951	0.23
306.163	0.24
306.375	0.34
306.588	0.24
306.8	0.21
307.012	0.22
307.224	0.32
307.436	0.35
307.649	0.2
307.861	0.25
308.073	0.29
308.285	0.3
308.497	0.23
308.709	0.22
308.921	0.24
309.133	0.36
309.346	0.24
309.558	0.25
309.77	0.32
309.982	0.37
310.194	0.28
310.406	0.2
310.617	0.41
310.829	0.28
311.041	0.29
311.253	0.22
311.465	0.26
311.677	0.25
311.889	0.24
312.101	0.18
312.313	0.33
312.524	0.33
312.736	0.19
312.948	0.18
313.16	0.36
313.372	0.33
313.583	0.32
313.795	0.23
314.007	0.22
314.218	0.29
314.43	0.25
314.642	0.19
314.853	0.22
315.065	0.37
315.277	0.22
315.488	0.28
315.7	0.33
315.912	0.29
316.123	0.22
316.335	0.23
316.546	0.37
316.758	0.26
316.969	0.21
317.181	0.25
317.392	0.26
317.604	0.36
317.815	0.19
318.026	0.22
318.238	0.26
318.449	0.32
318.661	0.17
318.872	0.19
319.083	0.18
319.295	0.27
319.506	0.23
319.717	0.24
319.929	0.29
320.14	0.31
320.351	0.3
320.562	0.21
320.774	0.32
320.985	0.3
321.196	0.24
321.407	0.18
321.618	0.33
321.829	0.3
322.041	0.29
322.252	0.25
322.463	0.29
322.674	0.27
322.885	0.22
323.096	0.23
323.307	0.26
323.518	0.31
323.729	0.2
323.94	0.21
324.151	0.22
324.362	0.32
324.573	0.28
324.784	0.23
324.995	0.31
325.206	0.27
325.417	0.25
325.628	0.25
325.838	0.23
326.049	0.31
326.26	0.32
326.471	0.24
326.682	0.31
326.892	0.25
327.103	0.19
327.314	0.18
327.525	0.35
327.735	0.33
327.946	0.21
328.157	0.21
328.368	0.32
328.578	0.28
328.789	0.31
328.999	0.26
329.21	0.23
329.421	0.3
329.631	0.23
329.842	0.22
330.052	0.3
330.263	0.31
330.473	0.28
330.684	0.26
330.894	0.23
331.105	0.28
331.315	0.27
331.526	0.21
331.736	0.4
331.947	0.29
332.157	0.28
332.367	0.15
332.578	0.33
332.788	0.34
332.999	0.29
333.209	0.22
333.419	0.18
333.629	0.31
333.84	0.26
334.05	0.25
334.26	0.36
334.47	0.26
334.681	0.33
334.891	0.24
335.101	0.29
335.311	0.36
335.521	0.27
335.732	0.22
335.942	0.32
336.152	0.31
336.362	0.31
336.572	0.27
336.782	0.3
336.992	0.23
337.202	0.24
337.412	0.24
337.622	0.26
337.832	0.25
338.042	0.25
338.252	0.22
338.462	0.25
338.672	0.27
338.882	0.13
339.092	0.28
339.302	0.3
339.511	0.3
339.721	0.21
339.931	0.17
340.141	0.32
340.351	0.29
340.561	0.3
340.77	0.26
340.98	0.28
341.19	0.27
341.4	0.24
341.609	0.23
341.819	0.24
342.029	0.14
342.238	0.32
342.448	0.26
342.658	0.32
342.867	0.29
343.077	0.27
343.286	0.25
343.496	0.25
343.706	0.32
343.915	0.18
344.125	0.29
344.334	0.28
344.544	0.17
344.753	0.23
344.963	0.2
345.172	0.22
345.381	0.22
345.591	0.22
345.8	0.27
346.01	0.37
346.219	0.31
346.428	0.25
346.638	0.22
346.847	0.23
347.056	0.32
347.266	0.25
347.475	0.26
347.684	0.3
347.893	0.26
348.103	0.21
348.312	0.21
348.521	0.26
348.73	0.21
348.94	0.25
349.149	0.22
349.358	0.25
349.567	0.21
349.776	0.17
349.985	0.24
350.194	0.32
350.403	0.26
350.612	0.19
350.821	0.23
351.03	0.25
351.239	0.15
351.448	0.23
351.657	0.2
351.866	0.37
352.075	0.27
352.284	0.24
352.493	0.19
352.702	0.31
352.911	0.29
353.12	0.27
353.329	0.25
353.538	0.29
353.746	0.27
353.955	0.21
354.164	0.29
354.373	0.24
354.582	0.31
354.79	0.28
354.999	0.26
355.208	0.27
355.416	0.35
355.625	0.21
355.834	0.21
356.042	0.27
356.251	0.23
356.46	0.2
356.668	0.28
356.877	0.38
357.085	0.27
357.294	0.2
357.503	0.24
357.711	0.26
357.92	0.43
358.128	0.28
358.337	0.17
358.545	0.27
358.754	0.26
358.962	0.25
359.17	0.23
359.379	0.27
359.587	0.27
359.796	0.27
360.004	0.3
360.212	0.25
360.421	0.31
360.629	0.23
360.837	0.25
361.046	0.3
361.254	0.4
361.462	0.24
361.67	0.18
361.879	0.3
362.087	0.33
362.295	0.28
362.503	0.22
362.711	0.2
362.92	0.21
363.128	0.21
363.336	0.26
363.544	0.21
363.752	0.26
363.96	0.26
364.168	0.19
364.376	0.25
364.584	0.23
364.792	0.28
365	0.27
365.208	0.31
365.416	0.31
365.624	0.32
365.832	0.21
366.04	0.36
366.248	0.26
366.456	0.27
366.664	0.27
366.872	0.25
367.079	0.23
367.287	0.23
367.495	0.26
367.703	0.28
367.911	0.23
368.118	0.24
368.326	0.25
368.534	0.17
368.742	0.28
368.949	0.16
369.157	0.23
369.365	0.28
369.572	0.21
369.78	0.2
369.988	0.28
370.195	0.26
370.403	0.31
370.61	0.19
370.818	0.28
371.026	0.35
371.233	0.25
371.441	0.27
371.648	0.21
371.856	0.27
372.063	0.26
372.271	0.23
372.478	0.2
372.685	0.26
372.893	0.33
373.1	0.2
373.308	0.2
373.515	0.38
373.722	0.34
373.93	0.24
374.137	0.29
374.344	0.39
374.552	0.32
374.759	0.24
374.966	0.27
375.173	0.25
375.381	0.31
375.588	0.26
375.795	0.17
376.002	0.24
376.209	0.23
376.417	0.26
376.624	0.29
376.831	0.32
377.038	0.28
377.245	0.16
377.452	0.25
377.659	0.27
377.866	0.27
378.073	0.27
378.28	0.26
378.487	0.3
378.694	0.35
378.901	0.28
379.108	0.25
379.315	0.32
379.522	0.4
379.729	0.26
379.936	0.25
380.143	0.3
380.35	0.31
380.557	0.3
380.763	0.27
380.97	0.26
381.177	0.27
381.384	0.33
381.591	0.22
381.797	0.34
382.004	0.32
382.211	0.31
382.418	0.22
382.624	0.34
382.831	0.33
383.038	0.25
383.244	0.29
383.451	0.28
383.658	0.3
383.864	0.22
384.071	0.25
384.277	0.36
384.484	0.29
384.69	0.33
384.897	0.25
385.103	0.27
385.31	0.28
385.516	0.23
385.723	0.19
385.929	0.29
386.136	0.28
386.342	0.35
386.549	0.26
386.755	0.32
386.961	0.34
387.168	0.28
387.374	0.3
387.58	0.29
387.787	0.29
387.993	0.29
388.199	0.28
388.406	0.25
388.612	0.27
388.818	0.26
389.024	0.21
389.231	0.25
389.437	0.36
389.643	0.32
389.849	0.31
390.055	0.26
390.261	0.29
390.467	0.34
390.674	0.24
390.88	0.29
391.086	0.35
391.292	0.23
391.498	0.37
391.704	0.33
391.91	0.32
392.116	0.29
392.322	0.2
392.528	0.34
392.734	0.33
392.94	0.32
393.146	0.32
393.352	0.36
393.557	0.26
393.763	0.31
393.969	0.37
394.175	0.29
394.381	0.31
394.587	0.26
394.792	0.3
394.998	0.34
395.204	0.37
395.41	0.27
395.615	0.31
395.821	0.36
396.027	0.37
396.233	0.28
396.438	0.32
396.644	0.38
396.85	0.32
397.055	0.3
397.261	0.36
397.466	0.43
397.672	0.35
397.878	0.4
398.083	0.35
398.289	0.32
398.494	0.42
398.7	0.37
398.905	0.28
399.111	0.48
399.316	0.27
399.522	0.33
399.727	0.35
399.932	0.36
400.138	0.33
400.343	0.38
400.549	0.33
400.754	0.4
400.959	0.39
401.165	0.34
401.37	0.36
401.575	0.43
401.78	0.34
401.986	0.37
402.191	0.35
402.396	0.35
402.601	0.45
402.807	0.37
403.012	0.39
403.217	0.43
403.422	0.43
403.627	0.43
403.832	0.42
404.037	0.51
404.243	0.43
404.448	0.41
404.653	0.4
404.858	0.46
405.063	0.45
405.268	0.42
405.473	0.41
405.678	0.39
405.883	0.63
406.088	0.48
406.293	0.45
406.498	0.45
406.703	0.47
406.907	0.49
407.112	0.42
407.317	0.53
407.522	0.57
407.727	0.45
407.932	0.53
408.136	0.64
408.341	0.49
408.546	0.53
408.751	0.51
408.956	0.54
409.16	0.66
409.365	0.61
409.57	0.54
409.774	0.61
409.979	0.7
410.184	0.66
410.388	0.61
410.593	0.8
410.798	0.7
411.002	0.7
411.207	0.81
411.411	0.78
411.616	0.71
411.82	0.75
412.025	0.86
412.229	0.8
412.434	0.91
412.638	0.81
412.843	0.87
413.047	0.91
413.252	0.91
413.456	0.98
413.66	1.01
413.865	1
414.069	1.09
414.273	1.05
414.478	1.03
414.682	1.14
414.886	1.15
415.091	1.14
415.295	1.14
415.499	1.33
415.703	1.27
415.908	1.32
416.112	1.26
416.316	1.53
416.52	1.42
416.724	1.42
416.929	1.52
417.133	1.72
417.337	1.6
417.541	1.69
417.745	1.69
417.949	1.83
418.153	1.82
418.357	1.85
418.561	2.14
418.765	2.02
418.969	2.21
419.173	2.26
419.377	2.19
419.581	2.42
419.785	2.41
419.989	2.45
420.193	2.52
420.397	2.61
420.601	2.79
420.804	2.89
421.008	2.74
421.212	2.93
421.416	3.02
421.62	2.93
421.823	3.03
422.027	3.21
422.231	3.16
422.435	3.2
422.638	3.25
422.842	3.34
423.046	3.4
423.249	3.51
423.453	3.6
423.657	3.83
423.86	3.8
424.064	3.91
424.268	4.15
424.471	4.14
424.675	4.31
424.878	4.44
425.082	4.5
425.285	4.85
425.489	4.72
425.692	4.82
425.896	4.76
426.099	4.97
426.303	5.11
426.506	5.23
426.71	5.56
426.913	5.8
427.116	5.83
427.32	5.81
427.523	5.9
427.726	6.2
427.93	6.29
428.133	6.57
428.336	6.7
428.54	6.84
428.743	7.07
428.946	7.29
429.149	7.27
429.353	7.42
429.556	7.42
429.759	7.52
429.962	7.59
430.165	7.75
430.368	7.47
430.571	7.47
430.775	7.53
430.978	7.58
431.181	7.69
431.384	7.73
431.587	7.81
431.79	8.18
431.993	8.17
432.196	8.53
432.399	8.81
432.602	8.96
432.805	8.93
433.008	9.5
433.211	9.41
433.414	9.76
433.616	9.8
433.819	9.75
434.022	9.95
434.225	10.14
434.428	10.01
434.631	10.56
434.833	10.38
435.036	10.59
435.239	10.75
435.442	10.85
435.645	11
435.847	11.11
436.05	11.25
436.253	11.59
436.455	11.62
436.658	11.52
436.861	11.75
437.063	11.86
437.266	11.85
437.468	12.3
437.671	12.6
437.874	12.57
438.076	12.33
438.279	12.85
438.481	12.82
438.684	13.61
438.886	13.17
439.089	13.57
439.291	13.53
439.494	13.93
439.696	14.03
439.899	14.61
440.101	14.93
440.303	15.07
440.506	15.83
440.708	15.6
440.91	15.67
441.113	15.93
441.315	16.3
441.517	15.98
441.72	16.5
441.922	16.04
442.124	16.06
442.326	16.39
442.529	16.74
442.731	16.61
442.933	16.93
443.135	16.69
443.337	16.7
443.539	17.26
443.742	16.96
443.944	17.61
444.146	17.32
444.348	17.38
444.55	17.33
444.752	17.5
444.954	17.54
445.156	17.34
445.358	17.98
445.56	18.11
445.762	18.05
445.964	18.3
446.166	18.08
446.368	17.99
446.57	18.15
446.772	17.69
446.974	17.54
447.175	17.9
447.377	17.57
447.579	18.08
447.781	17.72
447.983	17.44
448.184	17.16
448.386	17.52
448.588	17.1
448.79	17.01
448.991	17.46
449.193	17.35
449.395	16.67
449.597	16.54
449.798	16.46
450	15.97
450.202	15.86
450.403	15.95
450.605	15.86
450.806	15.46
451.008	15.32
451.21	15.15
451.411	14.77
451.613	13.86
451.814	14.36
452.016	14.25
452.217	13.7
452.419	13.63
452.62	13.23
452.821	13.09
453.023	12.96
453.224	12.65
453.426	12.21
453.627	11.46
453.828	11.57
454.03	11.69
454.231	11.66
454.432	11.44
454.634	11.27
454.835	10.99
455.036	10.88
455.238	10.45
455.439	10.29
455.64	10.04
455.841	9.81
456.042	9.88
456.244	9.63
456.445	9.34
456.646	9.06
456.847	8.99
457.048	8.88
457.249	8.89
457.45	8.69
457.651	8.18
457.852	7.96
458.054	7.67
458.255	7.57
458.456	7.72
458.657	7.48
458.858	7.08
459.058	6.98
459.259	7.1
459.46	6.75
459.661	6.63
459.862	6.85
460.063	6.71
460.264	6.55
460.465	6.27
460.666	6.32
460.866	6.01
461.067	5.81
461.268	5.82
461.469	5.75
461.67	5.62
461.87	5.43
462.071	5.44
462.272	5.35
462.473	5.32
462.673	5.6
462.874	5.38
463.075	5.38
463.275	5.39
463.476	5.42
463.676	5.28
463.877	5.24
464.078	5.21
464.278	5.16
464.479	5.12
464.679	4.98
464.88	4.91
465.08	4.89
465.281	4.73
465.481	4.54
465.682	4.38
465.882	4.35
466.083	4.28
466.283	4.3
466.483	4.11
466.684	3.78
466.884	3.8
467.085	3.83
467.285	3.96
467.485	3.8
467.686	3.65
467.886	3.6
468.086	3.61
468.286	3.57
468.487	3.64
468.687	3.42
468.887	3.33
469.087	3.52
469.287	3.31
469.488	3.27
469.688	3.37
469.888	3.34
470.088	3.35
470.288	3.23
470.488	3.23
470.688	3.04
470.888	3.02
471.088	2.86
471.288	2.94
471.488	2.93
471.688	2.91
471.888	2.83
472.088	2.92
472.288	2.88
472.488	2.72
472.688	2.73
472.888	2.75
473.088	2.75
473.288	2.68
473.488	2.62
473.688	2.76
473.887	2.64
474.087	2.54
474.287	2.56
474.487	2.48
474.687	2.52
474.886	2.51
475.086	2.46
475.286	2.48
475.486	2.41
475.685	2.35
475.885	2.32
476.085	2.42
476.284	2.34
476.484	2.33
476.684	2.32
476.883	2.37
477.083	2.27
477.282	2.22
477.482	2.28
477.681	2.23
477.881	2.16
478.08	2.17
478.28	2.15
478.479	2.19
478.679	2.22
478.878	2.11
479.078	2.14
479.277	2.16
479.477	2.15
479.676	2.09
479.875	2.09
480.075	2.08
480.274	2.08
480.473	2.14
480.673	2.11
480.872	2.16
481.071	2.1
481.271	2.17
481.47	2.01
481.669	2.05
481.868	2.06
482.067	2.07
482.267	2.03
482.466	2.03
482.665	2.02
482.864	2.05
483.063	2.02
483.262	2.12
483.461	2.11
483.661	2.14
483.86	2.05
484.059	2.09
484.258	2.1
484.457	2.09
484.656	2.05
484.855	2.17
485.054	1.97
485.253	2.02
485.452	2.05
485.651	2.14
485.849	2.12
486.048	2.05
486.247	2.07
486.446	2.13
486.645	2.08
486.844	2.12
487.043	2.09
487.241	2.15
487.44	2.14
487.639	2.19
487.838	2.17
488.037	2.18
488.235	2.23
488.434	2.22
488.633	2.12
488.831	2.25
489.03	2.28
489.229	2.26
489.427	2.25
489.626	2.34
489.825	2.33
490.023	2.29
490.222	2.33
490.42	2.33
490.619	2.44
490.817	2.41
491.016	2.39
491.214	2.43
491.413	2.49
491.611	2.43
491.81	2.43
492.008	2.46
492.207	2.53
492.405	2.55
492.604	2.47
492.802	2.57
493	2.62
493.199	2.65
493.397	2.67
493.595	2.72
493.794	2.66
493.992	2.8
494.19	2.73
494.388	2.84
494.587	2.73
494.785	2.78
494.983	2.75
495.181	2.86
495.379	2.9
495.578	2.97
495.776	2.97
495.974	2.92
496.172	2.97
496.37	3.09
496.568	3.1
496.766	3.06
496.964	3.18
497.162	3.21
497.36	3.22
497.558	3.28
497.756	3.27
497.954	3.28
498.152	3.37
498.35	3.41
498.548	3.35
498.746	3.4
498.944	3.39
499.142	3.4
499.34	3.49
499.538	3.63
499.736	3.51
499.933	3.61
500.131	3.6
500.329	3.75
500.527	3.77
500.725	3.85
500.922	3.86
501.12	3.83
501.318	3.89
501.516	3.88
501.713	4
501.911	3.94
502.109	3.88
502.306	4.01
502.504	3.98
502.701	4.07
502.899	4.13
503.097	4.35
503.294	4.17
503.492	4.26
503.689	4.3
503.887	4.34
504.084	4.4
504.282	4.37
504.479	4.36
504.677	4.53
504.874	4.49
505.072	4.4
505.269	4.67
505.466	4.61
505.664	4.7
505.861	4.58
506.059	4.66
506.256	4.77
506.453	4.83
506.651	4.94
506.848	4.98
507.045	4.88
507.242	4.95
507.44	4.93
507.637	5.02
507.834	4.99
508.031	5.13
508.229	5.09
508.426	5.03
508.623	5.23
508.82	5.23
509.017	5.18
509.214	5.19
509.411	5.27
509.608	5.32
509.805	5.42
510.003	5.38
510.2	5.45
510.397	5.58
510.594	5.49
510.791	5.56
510.988	5.59
511.184	5.56
511.381	5.42
511.578	5.62
511.775	5.67
511.972	5.63
512.169	5.73
512.366	5.74
512.563	5.9
512.76	5.92
512.956	5.97
513.153	5.86
513.35	5.84
513.547	5.88
513.744	5.98
513.94	5.96
514.137	6.06
514.334	6.03
514.53	6.06
514.727	6.29
514.924	6.19
515.12	6.17
515.317	6.2
515.514	6.17
515.71	6.12
515.907	6.32
516.103	6.33
516.3	6.25
516.497	6.39
516.693	6.41
516.89	6.39
517.086	6.44
517.283	6.46
517.479	6.3
517.676	6.51
517.872	6.58
518.068	6.58
518.265	6.56
518.461	6.48
518.658	6.64
518.854	6.61
519.05	6.74
519.247	6.73
519.443	6.71
519.639	6.84
519.836	6.68
520.032	6.67
520.228	6.86
520.424	6.76
520.621	6.86
520.817	6.9
521.013	6.84
521.209	7
521.405	6.93
521.601	6.88
521.798	6.86
521.994	6.94
522.19	6.87
522.386	6.93
522.582	7.03
522.778	7.18
522.974	6.99
523.17	7.01
523.366	6.98
523.562	7.07
523.758	7.1
523.954	6.92
524.15	7.11
524.346	7.16
524.542	7.19
524.738	7.1
524.934	7.24
525.129	7.17
525.325	7.13
525.521	7.14
525.717	7.41
525.913	7.21
526.109	7.24
526.304	7.35
526.5	7.34
526.696	7.31
526.892	7.29
527.087	7.51
527.283	7.4
527.479	7.4
527.674	7.24
527.87	7.35
528.066	7.41
528.261	7.43
528.457	7.4
528.653	7.5
528.848	7.5
529.044	7.54
529.239	7.45
529.435	7.45
529.63	7.43
529.826	7.49
530.021	7.46
530.217	7.55
530.412	7.51
530.608	7.52
530.803	7.52
530.999	7.46
531.194	7.58
531.389	7.62
531.585	7.58
531.78	7.68
531.975	7.66
532.171	7.69
532.366	7.68
532.561	7.66
532.757	7.65
532.952	7.81
533.147	7.57
533.342	7.68
533.538	7.63
533.733	7.88
533.928	7.41
534.123	7.68
534.318	7.75
534.513	7.69
534.709	7.88
534.904	7.77
535.099	7.78
535.294	7.83
535.489	7.75
535.684	7.76
535.879	7.71
536.074	7.88
536.269	7.76
536.464	7.83
536.659	7.8
536.854	7.8
537.049	7.87
537.244	7.82
537.439	7.81
537.634	7.9
537.828	7.94
538.023	7.86
538.218	7.85
538.413	7.74
538.608	7.88
538.803	7.83
538.997	7.81
539.192	7.9
539.387	7.84
539.582	7.77
539.776	7.8
539.971	7.95
540.166	7.98
540.36	7.88
540.555	7.98
540.75	7.9
540.944	7.93
541.139	7.91
541.334	7.89
541.528	7.93
541.723	8.02
541.917	8.02
542.112	7.86
542.306	7.8
542.501	7.87
542.695	7.86
542.89	7.89
543.084	7.9
543.279	7.93
543.473	7.99
543.668	8.05
543.862	7.92
544.056	7.85
544.251	8
544.445	7.98
544.64	8.06
544.834	7.75
545.028	7.56
545.222	7.91
545.417	8.16
545.611	8
545.805	7.96
546	7.82
546.194	8.03
546.388	7.95
546.582	7.89
546.776	8
546.97	7.97
547.165	7.91
547.359	8
547.553	7.95
547.747	7.97
547.941	8.12
548.135	7.96
548.329	7.95
548.523	8.06
548.717	7.94
548.911	7.94
549.105	7.94
549.299	8.03
549.493	8.1
549.687	7.95
549.881	8.05
550.075	8.01
550.269	7.93
550.463	8.05
550.657	8.08
550.85	8
551.044	8
551.238	8.07
551.432	7.95
551.626	8.06
551.82	8.07
552.013	7.9
552.207	8.04
552.401	8.11
552.594	7.98
552.788	7.94
552.982	7.99
553.176	7.97
553.369	8.18
553.563	8.01
553.756	8.04
553.95	8.03
554.144	8.1
554.337	8.08
554.531	7.85
554.724	8.06
554.918	8.13
555.111	8
555.305	8.06
555.498	7.96
555.692	8.21
555.885	8.11
556.079	8.02
556.272	8.06
556.466	8.07
556.659	8
556.852	8.1
557.046	8.01
557.239	7.89
557.432	7.96
557.626	8.11
557.819	8.17
558.012	8.1
558.206	8.15
558.399	8.1
558.592	8.01
558.785	7.92
558.979	8.02
559.172	8.02
559.365	8.04
559.558	7.98
559.751	7.95
559.944	8.1
560.138	8.04
560.331	8.03
560.524	8.06
560.717	8.01
560.91	8
561.103	8.02
561.296	7.92
561.489	8.15
561.682	8.14
561.875	8.03
562.068	8.11
562.261	7.88
562.454	8.21
562.647	8.03
562.84	8.13
563.032	8.08
563.225	8
563.418	8.02
563.611	8.04
563.804	8.1
563.997	7.93
564.19	7.75
564.382	8.11
564.575	8.08
564.768	7.97
564.961	8.08
565.153	7.93
565.346	7.96
565.539	8.07
565.731	8.03
565.924	8.12
566.117	8.16
566.309	8.08
566.502	7.93
566.695	7.93
566.887	8.07
567.08	8.03
567.272	8.07
567.465	7.94
567.657	8.07
567.85	7.9
568.042	8.03
568.235	8.09
568.427	7.83
568.62	7.98
568.812	7.96
569.005	8.06
569.197	7.95
569.389	8.04
569.582	7.99
569.774	8.02
569.966	7.94
570.159	7.88
570.351	7.92
570.543	7.97
570.736	7.99
570.928	7.85
571.12	7.97
571.312	7.89
571.505	7.71
571.697	7.97
571.889	7.93
572.081	7.98
572.273	7.86
572.465	7.95
572.658	7.95
572.85	7.9
573.042	7.9
573.234	7.85
573.426	7.88
573.618	7.88
573.81	7.94
574.002	7.91
574.194	7.91
574.386	7.85
574.578	7.78
574.77	7.85
574.962	7.86
575.154	7.71
575.346	7.77
575.538	7.8
575.729	7.75
575.921	7.87
576.113	7.91
576.305	7.82
576.497	7.93
576.689	7.66
576.88	7.69
577.072	7.85
577.264	7.77
577.456	7.86
577.647	7.78
577.839	7.9
578.031	7.73
578.223	7.75
578.414	7.65
578.606	7.75
578.798	7.82
578.989	7.74
579.181	7.75
579.372	7.8
579.564	7.84
579.755	7.69
579.947	7.64
580.139	7.72
580.33	7.56
580.522	7.7
580.713	7.62
580.905	7.67
581.096	7.73
581.287	7.64
581.479	7.6
581.67	7.76
581.862	7.56
582.053	7.65
582.244	7.47
582.436	7.74
582.627	7.62
582.818	7.53
583.01	7.58
583.201	7.58
583.392	7.56
583.583	7.53
583.775	7.37
583.966	7.47
584.157	7.56
584.348	7.62
584.54	7.47
584.731	7.52
584.922	7.45
585.113	7.36
585.304	7.49
585.495	7.55
585.686	7.58
585.877	7.56
586.068	7.58
586.259	7.51
586.45	7.44
586.641	7.39
586.832	7.52
587.023	7.38
587.214	7.41
587.405	7.45
587.596	7.33
587.787	7.3
587.978	7.43
588.169	7.3
588.36	7.24
588.551	7.32
588.742	7.36
588.932	7.41
589.123	7.15
589.314	7.4
589.505	7.26
589.696	7.28
589.886	7.27
590.077	7.28
590.268	7.24
590.458	7.13
590.649	7
590.84	7.19
591.03	7.21
591.221	7.17
591.412	7.02
591.602	7.25
591.793	7.21
591.984	7.18
592.174	7.15
592.365	7.28
592.555	7.05
592.746	7.04
592.936	7.05
593.127	7.14
593.317	7.14
593.508	7.04
593.698	6.99
593.889	7.02
594.079	7.07
594.269	6.96
594.46	7.02
594.65	7.07
594.84	6.9
595.031	6.85
595.221	6.89
595.411	6.94
595.602	6.93
595.792	6.85
595.982	6.81
596.172	6.97
596.363	6.83
596.553	6.81
596.743	6.78
596.933	6.84
597.123	6.77
597.314	6.72
597.504	6.71
597.694	6.91
597.884	6.68
598.074	6.79
598.264	6.71
598.454	6.73
598.644	6.62
598.834	6.7
599.024	6.59
599.214	6.58
599.404	6.71
599.594	6.71
599.784	6.54
599.974	6.63
600.164	6.64
600.354	6.55
600.544	6.45
600.734	6.56
600.924	6.54
601.114	6.48
601.303	6.47
601.493	6.5
601.683	6.53
601.873	6.49
602.063	6.43
602.252	6.43
602.442	6.32
602.632	6.39
602.821	6.33
603.011	6.37
603.201	6.34
603.39	6.3
603.58	6.21
603.77	6.34
603.959	6.39
604.149	6.27
604.339	6.29
604.528	6.36
604.718	6.31
604.907	6.24
605.097	6.17
605.286	6.17
605.476	6.18
605.665	6.22
605.855	6.08
606.044	6.26
606.234	6.18
606.423	6.12
606.612	6.08
606.802	6.06
606.991	6.15
607.181	6.09
607.37	6.04
607.559	5.91
607.749	6.04
607.938	5.94
608.127	6
608.316	5.98
608.506	5.92
608.695	6.04
608.884	5.89
609.073	5.92
609.263	5.97
609.452	5.94
609.641	5.75
609.83	5.78
610.019	5.89
610.208	5.78
610.397	5.75
610.586	5.78
610.775	5.76
610.965	5.72
611.154	5.63
611.343	5.75
611.532	5.63
611.721	5.76
611.91	5.65
612.099	5.63
612.287	5.56
612.476	5.52
612.665	5.68
612.854	5.55
613.043	5.57
613.232	5.59
613.421	5.48
613.61	5.49
613.798	5.41
613.987	5.53
614.176	5.46
614.365	5.52
614.554	5.52
614.742	5.47
614.931	5.32
615.12	5.43
615.309	5.45
615.497	5.31
615.686	5.22
615.875	5.35
616.063	5.28
616.252	5.28
616.44	5.28
616.629	5.24
616.818	5.28
617.006	5.14
617.195	5.12
617.383	5.25
617.572	5.08
617.76	5.09
617.949	5.12
618.137	5.18
618.326	5.19
618.514	4.96
618.703	4.91
618.891	5.08
619.079	5.04
619.268	5.11
619.456	4.95
619.644	4.99
619.833	4.99
620.021	4.9
620.209	4.84
620.398	4.98
620.586	4.78
620.774	4.9
620.962	4.86
621.151	5.02
621.339	4.88
621.527	4.77
621.715	4.73
621.903	4.76
622.092	4.71
622.28	4.8
622.468	4.65
622.656	4.74
622.844	4.74
623.032	4.77
623.22	4.59
623.408	4.79
623.596	4.69
623.784	4.76
623.972	4.54
624.16	4.58
624.348	4.72
624.536	4.66
624.724	4.49
624.912	4.57
625.1	4.58
625.288	4.55
625.476	4.45
625.664	4.52
625.851	4.49
626.039	4.51
626.227	4.47
626.415	4.39
626.603	4.35
626.79	4.42
626.978	4.4
627.166	4.38
627.354	4.28
627.541	4.31
627.729	4.16
627.917	4.49
628.104	4.36
628.292	4.25
628.48	4.27
628.667	4.17
628.855	4.36
629.042	4.31
629.23	4.23
629.418	4.25
629.605	4.23
629.793	4.12
629.98	4.08
630.168	4.07
630.355	4.14
630.543	4.08
630.73	4.06
630.917	4.12
631.105	4.2
631.292	4.04
631.48	4.05
631.667	4.17
631.854	4.04
632.042	3.97
632.229	3.88
632.416	3.96
632.604	3.98
632.791	3.85
632.978	3.92
633.165	3.87
633.353	3.98
633.54	3.95
633.727	3.78
633.914	3.77
634.101	3.79
634.289	3.89
634.476	3.78
634.663	3.72
634.85	3.73
635.037	3.71
635.224	3.63
635.411	3.79
635.598	3.71
635.785	3.62
635.972	3.64
636.159	3.66
636.346	3.65
636.533	3.57
636.72	3.59
636.907	3.59
637.094	3.56
637.281	3.5
637.468	3.59
637.655	3.57
637.842	3.57
638.029	3.54
638.215	3.51
638.402	3.45
638.589	3.4
638.776	3.4
638.963	3.37
639.149	3.48
639.336	3.5
639.523	3.43
639.709	3.45
639.896	3.35
640.083	3.37
640.27	3.38
640.456	3.36
640.643	3.35
640.829	3.25
641.016	3.25
641.203	3.17
641.389	3.25
641.576	3.26
641.762	3.21
641.949	3.21
642.135	3.19
642.322	3.17
642.508	3.1
642.695	3.22
642.881	3.09
643.068	3.1
643.254	3.13
643.441	3.13
643.627	3.16
643.813	3.02
644	3.15
644.186	3.01
644.372	3.1
644.559	3.04
644.745	3.07
644.931	2.91
645.118	3
645.304	3.02
645.49	2.99
645.676	2.96
645.862	2.96
646.049	3.05
646.235	2.92
646.421	3.1
646.607	3.02
646.793	2.87
646.979	2.82
647.165	2.88
647.352	2.88
647.538	2.87
647.724	2.83
647.91	2.82
648.096	2.81
648.282	2.81
648.468	2.78
648.654	2.81
648.84	2.85
649.026	2.76
649.212	2.71
649.397	2.68
649.583	2.72
649.769	2.71
649.955	2.68
650.141	2.69
650.327	2.66
650.513	2.59
650.698	2.69
650.884	2.55
651.07	2.66
651.256	2.63
651.442	2.59
651.627	2.53
651.813	2.63
651.999	2.58
652.184	2.53
652.37	2.55
652.556	2.51
652.741	2.56
652.927	2.45
653.113	2.5
653.298	2.47
653.484	2.48
653.669	2.42
653.855	2.47
654.04	2.49
654.226	2.49
654.412	2.44
654.597	2.32
654.782	2.41
654.968	2.44
655.153	2.34
655.339	2.35
655.524	2.34
655.71	2.41
655.895	2.35
656.08	2.29
656.266	2.39
656.451	2.28
656.636	2.27
656.822	2.32
657.007	2.27
657.192	2.27
657.378	2.18
657.563	2.21
657.748	2.27
657.933	2.27
658.118	2.22
658.304	2.19
658.489	2.26
658.674	2.2
658.859	2.15
659.044	2.16
659.229	2.17
659.414	2.14
659.599	2.11
659.785	2.06
659.97	2.11
660.155	2.08
660.34	2.12
660.525	2.07
660.71	2.04
660.895	2.13
661.08	2.08
661.264	2
661.449	2.11
661.634	2.08
661.819	2.07
662.004	2.03
662.189	1.94
662.374	2.01
662.559	1.96
662.743	1.93
662.928	1.96
663.113	1.93
663.298	1.92
663.483	1.94
663.667	1.92
663.852	1.94
664.037	2.03
664.221	1.88
664.406	1.94
664.591	1.96
664.775	1.93
664.96	1.81
665.145	1.89
665.329	1.9
665.514	1.87
665.698	1.83
665.883	1.77
666.068	1.87
666.252	1.85
666.437	1.8
666.621	1.79
666.806	1.8
666.99	1.81
667.174	1.74
667.359	1.81
667.543	1.73
667.728	1.77
667.912	1.65
668.096	1.76
668.281	1.71
668.465	1.73
668.649	1.74
668.834	1.74
669.018	1.69
669.202	1.65
669.387	1.62
669.571	1.76
669.755	1.65
669.939	1.69
670.124	1.67
670.308	1.71
670.492	1.69
670.676	1.63
670.86	1.62
671.044	1.57
671.228	1.69
671.413	1.55
671.597	1.6
671.781	1.61
671.965	1.63
672.149	1.57
672.333	1.59
672.517	1.52
672.701	1.58
672.885	1.54
673.069	1.43
673.253	1.66
673.437	1.53
673.621	1.51
673.804	1.52
673.988	1.58
674.172	1.45
674.356	1.48
674.54	1.48
674.724	1.6
674.908	1.47
675.091	1.53
675.275	1.51
675.459	1.54
675.643	1.52
675.826	1.47
676.01	1.45
676.194	1.48
676.377	1.51
676.561	1.44
676.745	1.44
676.928	1.44
677.112	1.48
677.296	1.4
677.479	1.36
677.663	1.35
677.846	1.37
678.03	1.36
678.213	1.28
678.397	1.43
678.58	1.38
678.764	1.34
678.947	1.29
679.131	1.26
679.314	1.41
679.498	1.33
679.681	1.36
679.865	1.4
680.048	1.32
680.231	1.33
680.415	1.3
680.598	1.27
680.781	1.24
680.965	1.33
681.148	1.29
681.331	1.29
681.514	1.27
681.698	1.23
681.881	1.34
682.064	1.27
682.247	1.27
682.43	1.18
682.614	1.24
682.797	1.29
682.98	1.29
683.163	1.15
683.346	1.21
683.529	1.14
683.712	1.2
683.895	1.23
684.078	1.11
684.261	1.11
684.444	1.22
684.627	1.19
684.81	1.16
684.993	1.16
685.176	1.19
685.359	1.15
685.542	1.12
685.725	1.25
685.908	1.17
686.091	1.12
686.274	1.23
686.457	1.2
686.639	1.15
686.822	1.16
687.005	1.17
687.188	1.12
687.371	1.25
687.553	1.21
687.736	1.12
687.919	1.28
688.102	1.2
688.284	1.05
688.467	1.06
688.65	1.06
688.832	0.97
689.015	1.08
689.197	1.02
689.38	1.17
689.563	1.17
689.745	1
689.928	1
690.11	1.03
690.293	1.07
690.475	0.98
690.658	1.08
690.84	1.03
691.023	1.01
691.205	0.98
691.388	1.03
691.57	1.12
691.752	1.06
691.935	0.92
692.117	0.92
692.3	1.04
692.482	0.97
692.664	0.92
692.847	1.01
693.029	1.1
693.211	1.03
693.393	0.94
693.576	0.92
693.758	0.97
693.94	0.97
694.122	0.92
694.304	0.96
694.487	0.91
694.669	1.03
694.851	0.88
695.033	0.9
695.215	0.95
695.397	0.83
695.579	0.87
695.761	0.81
695.943	0.82
696.125	1.03
696.308	0.98
696.49	0.75
696.671	1.05
696.853	0.9
697.035	1.13
697.217	0.86
697.399	1
697.581	0.92
697.763	0.86
697.945	0.81
698.127	0.92
698.309	0.94
698.491	0.89
698.672	0.89
698.854	0.95
699.036	0.91
699.218	0.8
699.399	0.9
699.581	0.93
699.763	0.79
699.945	0.75
700.126	0.7
700.308	0.88
700.49	0.78
700.671	0.73
700.853	0.77
701.035	0.78
701.216	0.81
701.398	0.7
701.579	0.75
701.761	0.89
701.943	0.82
702.124	0.76
702.306	0.78
702.487	0.97
702.669	0.79
702.85	0.76
703.031	0.7
703.213	0.89
703.394	0.84
703.576	0.74
703.757	0.95
703.938	0.82
704.12	0.99
704.301	0.77
704.483	0.77
704.664	0.78
704.845	0.89
705.026	0.78
705.208	0.71
705.389	0.8
705.57	0.83
705.751	0.74
705.933	0.75
706.114	0.81
706.295	0.82
706.476	0.62
706.657	0.85
706.838	0.75
707.02	0.83
707.201	0.66
707.382	0.76
707.563	0.74
707.744	0.66
707.925	0.61
708.106	0.68
708.287	0.71
708.468	0.84
708.649	0.68
708.83	0.72
709.011	0.7
709.192	0.84
709.373	0.57
709.554	0.61
709.734	0.74
709.915	0.76
710.096	0.62
710.277	0.55
710.458	0.7
710.639	0.75
710.819	0.58
711	0.65
711.181	0.72
711.362	0.75
711.542	0.67
711.723	0.66
711.904	0.82
712.085	0.68
712.265	0.73
712.446	0.57
712.627	0.62
712.807	0.62
712.988	0.57
713.168	0.5
713.349	0.73
713.53	0.47
713.71	0.58
713.891	0.52
714.071	0.64
714.252	0.58
714.432	0.55
714.613	0.52
714.793	0.61
714.974	0.71
715.154	0.74
715.334	0.66
715.515	0.75
715.695	0.55
715.876	0.61
716.056	0.57
716.236	0.6
716.417	0.56
716.597	0.55
716.777	0.85
716.957	0.61
717.138	0.63
717.318	0.6
717.498	0.49
717.678	0.64
717.859	0.66
718.039	0.51
718.219	0.62
718.399	0.59
718.579	0.5
718.759	0.5
718.939	0.7
719.12	0.63
719.3	0.62
719.48	0.39
719.66	0.46
719.84	0.68
720.02	0.54
720.2	0.55
720.38	0.58
720.56	0.8
720.74	0.46
720.92	0.54
721.1	0.68
721.279	0.56
721.459	0.59
721.639	0.42
721.819	0.48
721.999	0.48
722.179	0.67
722.359	0.56
722.538	0.58
722.718	0.59
722.898	0.53
723.078	0.55
723.257	0.4
723.437	0.6
723.617	0.52
723.797	0.52
723.976	0.53
724.156	0.69
724.336	0.66
724.515	0.78
724.695	0.49
724.874	0.59
725.054	0.63
725.234	0.52
725.413	0.59
725.593	0.5
725.772	0.52
725.952	0.55
726.131	0.48
726.311	0.52
726.49	0.46
726.67	0.47
726.849	0.48
727.028	0.64
727.208	0.54
727.387	0.53
727.567	0.44
727.746	0.49
727.925	0.52
728.105	0.35
728.284	0.52
728.463	0.49
728.643	0.56
728.822	0.43
729.001	0.46
729.18	0.56
729.359	0.63
729.539	0.56
729.718	0.51
729.897	0.6
730.076	0.48
730.255	0.54
730.434	0.52
730.614	0.56
730.793	0.6
730.972	0.4
731.151	0.5
731.33	0.67
731.509	0.59
731.688	0.51
731.867	0.57
732.046	0.24
732.225	0.67
732.404	0.37
732.583	0.36
732.762	0.51
732.941	0.59
733.12	0.49
733.298	0.39
733.477	0.69
733.656	0.42
733.835	0.36
734.014	0.55
734.193	0.53
734.371	0.57
734.55	0.52
734.729	0.36
734.908	0.47
735.086	0.6
735.265	0.61
735.444	0.36
735.623	0.45
735.801	0.4
735.98	0.42
736.159	0.59
736.337	0.59
736.516	0.52
736.694	0.5
736.873	0.47
737.052	0.83
737.23	0.69
737.409	0.37
737.587	0.78
737.766	0.25
737.944	0.5
738.123	0.57
738.301	0.55
738.479	0.57
738.658	0.61
738.836	0.2
739.015	0.41
739.193	0.63
739.371	0.36
739.55	0.48
739.728	0.28
739.906	0.59
740.085	0.7
740.263	0.49
740.441	0.27
740.62	0.78
740.798	0.57
740.976	0.29
741.154	0.28
741.332	0.75
741.511	0.47
741.689	0.43
741.867	0.51
742.045	0.49
742.223	0.5
742.401	0.39
742.579	0.42
742.757	0.66
742.935	0.42
743.114	0.31
743.292	0.41
743.47	0.48
743.648	0.56
743.826	0.35
744.004	0.52
744.181	0.64
744.359	0.48
744.537	0.5
744.715	0.38
744.893	0.49
745.071	0.49
745.249	0.35
745.427	0.46
745.605	0.61
745.782	0.39
745.96	0.46
746.138	0.6
746.316	0.56
746.493	0.33
746.671	0.44
746.849	0.4
747.027	0.64
747.204	0.42
747.382	0.54
747.56	0.29
747.737	0.39
747.915	0.4
748.093	0.51
748.27	0.34
748.448	0.41
748.625	0.33
748.803	0.44
748.98	0.39
749.158	0.56
749.335	0.48
749.513	0.46
749.69	0.42
749.868	0.45
750.045	0.46
750.223	0.35
750.4	0.26
750.578	0.6
750.755	0.43
750.932	0.22
751.11	0.53
751.287	0.35
751.464	0.55
751.642	0.37
751.819	0.49
751.996	0.49
752.173	0.33
752.351	0.29
752.528	0.39
752.705	0.41
752.882	0.39
753.06	0.4
753.237	0.42
753.414	0.69
753.591	0.64
753.768	0.45
753.945	0.33
754.122	0.36
754.299	0.56
754.476	0.27
754.654	0.3
754.831	0.52
755.008	0.36
755.185	0.22
755.362	0.23
755.539	0.51
755.716	0.42
755.892	0.39
756.069	0.34
756.246	0.45
756.423	0.38
756.6	0.56
756.777	0.24
756.954	0.54
757.131	0.38
757.307	0.33
757.484	0.28
757.661	0.38
757.838	0.45
758.015	0.28
758.191	0.42
758.368	0.54
758.545	0.56
758.721	0.49
758.898	0.37
759.075	0.5
759.251	0.53
759.428	0.48
759.605	0.22
759.781	0.36
759.958	0.47
760.134	0.4
760.311	0.35
760.488	0.43
760.664	0.56
760.841	0.4
761.017	0.24
761.194	0.44
761.37	0.41
761.547	0.46
761.723	0.38
761.899	0.68
762.076	0.39
762.252	0.36
762.429	0.18
762.605	0.66
762.781	0.36
762.958	0.41
763.134	0.29
763.31	0.2
763.486	0.52
763.663	0.11
763.839	0.45
764.015	0.19
764.191	0.29
764.368	0.46
764.544	0.28
764.72	0.45
764.896	0.51
765.072	0.27
765.248	0.41
765.425	0.41
765.601	0.45
765.777	0.4
765.953	0.14
766.129	0.26
766.305	0.19
766.481	0.53
766.657	0.29
766.833	0.69
767.009	0.19
767.185	0.32
767.361	0.42
767.537	0.22
767.713	0.55
767.889	0.26
768.065	0.38
768.24	0.58
768.416	0.51
768.592	0.25
768.768	0.38
768.944	0.41
769.12	0.28
769.295	0.3
769.471	0.44
769.647	0.4
769.823	0.55
769.998	0.25
770.174	0.13
770.35	0.71
770.525	0.6
770.701	0.4
770.877	0.36
771.052	0.19
771.228	0.65
771.403	0.43
771.579	0.4
771.755	0.87
771.93	0.4
772.106	0.11
772.281	0.1
772.457	0.33
772.632	0.45
772.808	0.23
772.983	0.29
773.159	0.28
773.334	0.71
773.509	0.44
773.685	0.22
773.86	0.82
774.036	0.57
774.211	0.35
774.386	0.37
774.562	0.39
774.737	0.64
774.912	0.13
775.087	0.42
775.263	0.45
775.438	0.44
775.613	0.5
775.788	0.42
775.964	0.76
776.139	0.94
776.314	0.16
776.489	0.46
776.664	0.61
776.839	0.23
777.014	0.57
777.19	0.44
777.365	0.69
777.54	0.6
777.715	0.28
777.89	0.46
778.065	0.3
778.24	0.4
778.415	0.57
778.59	0.01
778.765	0.36
778.94	0.68
779.115	0.26
779.289	0.39
779.464	0.49
779.639	0.36
779.814	0.33
779.989	0.16
780.164	0.59
780.339	0.5
780.513	0.17
780.688	0.3
780.863	0.39
781.038	0.61
781.212	0.33
781.387	0.38
781.562	0.7
781.737	0.19
781.911	0.47
782.086	0.21
782.261	0.38
782.435	0.59
782.61	0.36
782.784	0.29
782.959	0.66
783.134	0.22
783.308	0.12
783.483	0.34
783.657	0.97
783.832	0.71
784.006	0.23
784.181	0.37
784.355	0.67
784.53	0.24
784.704	0.35
784.878	0.66
785.053	0.6
785.227	0.84
785.402	0.72
785.576	0.24
785.75	0.37
785.925	0.45
786.099	0.36
786.273	0.67
786.448	0.44
786.622	0.66
786.796	0.51
786.97	0.4
787.145	1.16
787.319	0.08
787.493	0.32
787.667	0.24
787.841	0.49
788.015	0.76
788.19	0.08
788.364	0.18
788.538	0.79
788.712	0.57
788.886	0.47
789.06	0.57
789.234	0.76
789.408	0.29
789.582	0.28
789.756	0.32
789.93	0.24
790.104	0.41
790.278	0.22
790.452	0.3
790.626	0.57
790.8	0.47
790.973	0.48
791.147	0.97
791.321	0.92
791.495	0.9
791.669	0.64
791.843	0.45
792.016	0.59
792.19	1.12
792.364	0.21
792.538	0.91
792.711	0.8
792.885	0.24
793.059	0.14
793.233	-0.25
793.406	0.7
793.58	0.5
793.754	0.54
793.927	0.42
794.101	0.99
794.274	0.42
794.448	0.44
794.622	0.06
794.795	0.97
794.969	0.34
795.142	0.77
795.316	0.34
795.489	0.35
795.663	0.82
795.836	0.3
796.009	0.34
796.183	1.05
796.356	0.67
796.53	0.5
796.703	0.38
796.876	1.35
797.05	0.34
797.223	0.39
797.396	0.49
797.57	0.56
797.743	1.1
797.916	0.75
798.09	0.63
798.263	0.77
798.436	0.83
798.609	0.29
798.782	0.47
798.956	0.5
799.129	0.57
799.302	0.52
799.475	0.31
799.648	0.42
799.821	0.35
799.994	0.43
800.167	0.23
800.34	0.36
800.514	0.67
800.687	0.27
800.86	0.15
801.033	0.81
801.206	0.72
801.379	0.42
801.551	1.02
801.724	0.73
801.897	1.03
802.07	0.5
802.243	-0.29
802.416	0.4
802.589	0.48
802.762	0.65
802.935	0.5
803.107	1.02
803.28	1.02
803.453	0.95
803.626	0.56
803.798	0.72
803.971	0.46
804.144	0.74
804.317	0.97
804.489	1.04
804.662	0.73
804.835	0.51
805.007	0.18
805.18	1.14
805.353	0.63
805.525	0.45
805.698	0.32
805.87	1.11
806.043	1.05
806.215	-0.06
806.388	0.38
806.56	0.83
806.733	1.1
806.905	0.51
807.078	0.5
807.25	0.78
807.423	0.99
807.595	0.61
807.768	0.53
807.94	1.09
808.112	0.87
808.285	0.76
808.457	0.55
808.629	0.46
808.802	1.02
808.974	0.63
809.146	0.08
809.318	0.3
809.491	0.81
809.663	0.46
809.835	0.54
810.007	0.55
810.18	0.65
810.352	0.13
810.524	0.57
810.696	0.84
810.868	1.25
811.04	0.4
811.212	0.62
811.384	0.86
811.556	0.84
811.728	0.45
811.901	1.78
812.073	0.75
812.245	1.07
812.417	0.49
812.589	-0.25
812.76	0.74
812.932	1.03
813.104	0.95
813.276	0.69
813.448	1.26
813.62	0.62
813.792	0.79
813.964	0.88
814.136	1.03
814.307	0.43
814.479	-0.14
814.651	0.52
814.823	1.71
814.995	0.85
815.166	0.79
815.338	0.4
815.51	-0.09
815.681	1.97
815.853	1.08
816.025	0.34
816.196	1.64
816.368	1.5
816.54	0.42
816.711	0.35
816.883	1.04
817.054	2.18
817.226	0.36
817.398	0.83
817.569	1.08
817.741	0.96
817.912	0.61
818.084	0.62
818.255	1.3
818.426	0.25
818.598	0.4
818.769	0.04
818.941	1.5
819.112	1.52
819.283	1.04
819.455	0.4
819.626	0.7
819.798	1.19
819.969	0.8
820.14	0.42
820.311	0.52
820.483	0.91
820.654	0.93
820.825	0.36
820.996	0.42
821.168	0.26
821.339	0.26
821.51	-0.06
821.681	0.52
821.852	1
822.023	-0.06
822.195	0.33
822.366	1.05
822.537	0.98
822.708	0.8
822.879	0.31
823.05	1.61
823.221	0.76
823.392	1.03
823.563	0.59
823.734	0.97
823.905	1.04
824.076	0.08
824.247	0.28
824.418	0.97
824.589	1.44
824.759	1.19
824.93	1.15
825.101	0.37
825.272	1.27
825.443	1.42
825.614	1.25
825.784	-0.17
825.955	1.96
826.126	1.95
826.297	0.85
826.467	1.18
826.638	2.18
826.809	0.14
826.98	0.86
827.15	1.75
827.321	1.13
827.492	1.76
827.662	0.43
827.833	2.63
828.003	1.87
828.174	0.59
828.345	-0.04
828.515	2.03
828.686	1.07
828.856	0.95
829.027	0.85
829.197	1.51
829.368	0.6
829.538	0.31
829.709	0.52
829.879	0.83
830.049	0.7
830.22	0.64
830.39	0.78
830.56	1.64
830.731	0.7
830.901	0.5
831.072	0.58
831.242	0.73
831.412	1.11
831.582	0.67
831.753	-0.09
831.923	1.64
832.093	1.46
832.263	0.99
832.434	0.3
832.604	0.98
832.774	1.69
832.944	0.7
833.114	0.64
833.284	1.16
833.454	0.76
833.624	-0.25
833.795	1
833.965	1.51
834.135	1.55
834.305	-0.37
834.475	-0.05
834.645	1.4
834.815	0.85
834.985	0.23
835.155	0.13
835.325	1.6
835.494	1.86
835.664	0.5
835.834	-0.11
836.004	1.07
836.174	1.82
836.344	0.9
836.514	0.18
836.684	0.51
836.853	1.13
837.023	1.61
837.193	0.04
837.363	2.71
837.532	2.02
837.702	1.06
837.872	0.14
838.041	1.91
838.211	3.3
838.381	-0
838.55	0.65
838.72	3.77
838.89	2.86
839.059	0.61
839.229	0.06
839.398	3.59
839.568	1.39
839.738	1.31
839.907	1.82
840.077	1.41
840.246	0.7
840.416	0.83
840.585	0.84
840.755	3.07
840.924	2.1
841.093	0.43
841.263	0.82
841.432	1.02
841.602	0.58
841.771	0.55
841.94	1.06
842.11	4.03
842.279	2.78
842.448	0.37
842.617	0.27
842.787	2.78
842.956	0.36
843.125	0.82
843.294	0.4
843.464	2.56
843.633	1.47
843.802	-0.04
843.971	1.03
844.14	2
844.309	2.85
844.479	-0.31
844.648	0.35
844.817	1.33
844.986	1.69
845.155	0.96
845.324	1.27
845.493	1.05
845.662	0.66
845.831	1.98
846	1.09
846.169	1.13
846.338	2.95
846.507	1.06
846.676	2.01
846.844	1.11
847.013	3.04
847.182	1.6
847.351	1.52
847.52	1.09
847.689	1.59
847.858	1.5
848.026	1.31
848.195	1.44
848.364	1.08
848.533	0.62
848.701	0.05
848.87	1.16
849.039	2.18
849.207	2.15
849.376	3.12
849.545	3.17
849.713	1.2
849.882	1.26
850.051	0.4
850.219	1.55
850.388	1.8
850.556	-0.03
850.725	0.58
850.893	0.98
851.062	0.28
851.23	2.04
851.399	0.21
851.567	1.77
851.736	1.44
851.904	0.16
852.073	1.76
852.241	3.41
852.41	1.29
852.578	0.41
852.746	0.47
852.915	2.43
853.083	1.33
853.251	-0.4
853.42	1.48
853.588	0.87
853.756	2.92
853.924	1.06
854.093	1.92
854.261	0.56
854.429	0.71
854.597	1.74
854.765	0.88
854.934	2.68
855.102	2.51
855.27	1.33
855.438	2.84
855.606	3.82
855.774	3.84
855.942	-0.74
856.11	0.42
856.278	1.93
856.446	2.84
856.614	0.49
856.782	-0.63
856.95	2.08
857.118	3.01
857.286	1.98
857.454	0.56
857.622	2.85
857.79	2.67
857.958	0.29
858.126	0.85
858.294	-1.3
858.462	1.34
858.629	0.72
858.797	0.07
858.965	2.6
859.133	2.45
859.301	1.48
859.468	2.87
859.636	1.36
859.804	4.14
859.971	2.57
860.139	1.35
860.307	2.52
860.474	1.87
860.642	0.78
860.81	0.46
860.977	1.54
861.145	3.81
861.313	1.55
861.48	2.7
861.648	2.99
861.815	0.81
861.983	-0.33
862.15	0.73
862.318	2.75
862.485	4.19
862.653	0.08
862.82	-0.29
862.988	2.83
863.155	-0.54
863.322	0.66
863.49	1.05
863.657	1.9
863.824	4.38
863.992	3.43
864.159	0.86
864.326	4.46
864.494	0.68
864.661	4.62
864.828	-0.06
864.996	5.06
865.163	4.09
865.33	0.49
865.497	-1.14
865.664	0.72
865.832	-0.82
865.999	0.79
866.166	0.6
866.333	2.29
866.5	1.11
866.667	0.83
866.834	2.6
867.001	4.52
867.168	1.02
867.335	1.93
867.502	0.7
867.669	2.27
867.836	5
868.003	1.19
868.17	2.61
868.337	5.6
868.504	6.4
868.671	-0.24
868.838	1.47
869.005	3.51
869.172	1.86
869.339	2.2
869.505	-0.01
869.672	3.1
869.839	5.01
870.006	2.56
870.173	0.79
870.339	2.32
870.506	5.44
870.673	-0.52
870.84	3.46
871.006	2.62
871.173	2.84
871.34	3.34
871.506	-1.04
871.673	3.4
871.839	-0.62
872.006	2.67
872.173	0.35
872.339	1.34
872.506	3.35
872.672	2.27
872.839	-0.21
873.005	4.73
873.172	6.84
873.338	3.63
873.505	2.42
873.671	1.6
873.838	4.48
874.004	-1.58
874.171	0.04
874.337	3.89
874.503	5.23
874.67	1.37
874.836	0.51
875.002	6.64
875.169	3.93
875.335	0.9
875.501	1.46
875.668	4.06
875.834	2.31
876	1.41
876.166	2.56
876.332	3.33
876.499	5.35
876.665	0.95
876.831	1.03
876.997	7.91
877.163	3.28
877.329	1.85
877.495	1.45
877.662	3.1
877.828	1.89
877.994	0.5
878.16	-2.01
878.326	1.32
878.492	2.56
878.658	1.27
878.824	3.26
878.99	2.31
879.156	1.7
879.322	4.94
879.487	1.37
879.653	2.36
879.819	4.12
879.985	1.59
880.151	2.52
880.317	2.83
880.483	3.57
880.648	2.77
880.814	-0.07
880.98	3.32
881.146	-1.18
881.312	1.11
881.477	1.21
881.643	2.22
881.809	4.34
881.974	3.69
882.14	-0.05
882.306	3.07
882.471	6.18
882.637	1.32
882.803	1.67
882.968	9.04
883.134	7.92
883.299	1.9
883.465	1.48
883.63	4.22
883.796	4.57
883.961	3.73
884.127	2.09
884.292	-1.2
884.458	0.02
884.623	0.02
