Data from Apollo_Calib_20240827__AbsoluteIrradiance__875__13-44-01-168.txt Node

Date: Wed Aug 28 13:44:01 BST 2024
User: biology
Spectrometer: FLMT08252
Trigger mode: 0
Integration Time (sec): 5.000000E-1
Scans to average: 5
Electric dark correction enabled: true
Nonlinearity correction enabled: false
Boxcar width: 0
XAxis mode: Wavelengths
Number of Pixels in Spectrum: 3648
>>>>>Begin Spectral Data<<<<<
179.588	-0
179.809	-0
180.03	-0
180.251	-0
180.473	-0
180.694	0
180.915	0
181.136	-0
181.357	0
181.578	0
181.799	0
182.02	-0
182.241	0
182.462	-0
182.683	0
182.904	-0
183.125	-0
183.346	0
183.567	0
183.788	0
184.009	0
184.23	0
184.451	0
184.672	0
184.892	0
185.113	0
185.334	0
185.555	0
185.776	0
185.996	0
186.217	0
186.438	0
186.659	0
186.879	0
187.1	0
187.321	0
187.541	0
187.762	0
187.983	0
188.203	0
188.424	0
188.644	0
188.865	0
189.086	0
189.306	0
189.527	0
189.747	0
189.968	0
190.188	0
190.409	0
190.629	0
190.849	0
191.07	0
191.29	0
191.511	0
191.731	0
191.951	0
192.172	0
192.392	0
192.612	0
192.833	0
193.053	0
193.273	0
193.493	0
193.714	0
193.934	0
194.154	0
194.374	0
194.594	0
194.815	0
195.035	0
195.255	0
195.475	0
195.695	0
195.915	0
196.135	0
196.355	0
196.575	0
196.795	0
197.015	0
197.235	0
197.455	0
197.675	0
197.895	0
198.115	0
198.335	0
198.555	0
198.775	0
198.995	0
199.214	0
199.434	0
199.654	0
199.874	0
200.094	4.68
200.313	2.64
200.533	1.99
200.753	1.15
200.973	3.8
201.192	3.61
201.412	1.61
201.632	1.82
201.851	3.82
202.071	1.65
202.291	1.77
202.51	1.66
202.73	2.92
202.95	2.13
203.169	1.21
203.389	1.89
203.608	2.11
203.828	1.46
204.047	1.53
204.267	1.85
204.486	2.09
204.706	2.34
204.925	1.42
205.145	1.63
205.364	2.29
205.583	2.63
205.803	1.2
206.022	0.91
206.242	2.2
206.461	2.16
206.68	1.29
206.9	1.76
207.119	2.43
207.338	2.46
207.557	1.16
207.777	1.54
207.996	1.64
208.215	2.36
208.434	1
208.654	1.08
208.873	1.44
209.092	2.4
209.311	1.04
209.53	1
209.749	1.04
209.968	1.23
210.187	0.85
210.407	0.67
210.626	1.28
210.845	1.58
211.064	1.04
211.283	0.91
211.502	1.36
211.721	1.08
211.94	1.13
212.159	1.22
212.377	1.41
212.596	1.74
212.815	1.13
213.034	1.18
213.253	1.63
213.472	1.5
213.691	0.75
213.91	0.81
214.128	0.74
214.347	1.52
214.566	0.61
214.785	0.53
215.003	1.45
215.222	1.22
215.441	0.9
215.66	0.48
215.878	1.14
216.097	1.32
216.316	0.63
216.534	0.67
216.753	1.22
216.972	0.69
217.19	0.54
217.409	0.75
217.627	0.78
217.846	0.87
218.064	0.99
218.283	0.42
218.501	1.25
218.72	1.15
218.938	0.71
219.157	0.73
219.375	1.14
219.594	0.92
219.812	0.51
220.031	0.48
220.249	1.36
220.467	1.18
220.686	0.71
220.904	0.42
221.122	0.78
221.341	1.29
221.559	0.81
221.777	0.38
221.995	0.68
222.214	1.01
222.432	0.64
222.65	0.93
222.868	0.65
223.086	0.77
223.305	0.88
223.523	0.53
223.741	1.09
223.959	0.75
224.177	0.45
224.395	0.54
224.613	0.66
224.831	1
225.049	0.44
225.267	0.53
225.485	0.79
225.703	0.7
225.921	0.59
226.139	0.65
226.357	0.97
226.575	0.85
226.793	0.42
227.011	1.72
227.229	0.8
227.447	0.85
227.665	0.45
227.883	0.41
228.1	0.67
228.318	0.71
228.536	0.24
228.754	0.61
228.972	0.73
229.189	0.8
229.407	0.62
229.625	0.51
229.843	0.78
230.06	0.88
230.278	0.39
230.496	0.57
230.713	0.73
230.931	0.9
231.149	0.44
231.366	0.31
231.584	0.59
231.801	1.04
232.019	0.48
232.236	0.33
232.454	0.57
232.671	0.67
232.889	0.48
233.106	0.32
233.324	0.69
233.541	0.51
233.759	0.56
233.976	0.44
234.194	0.46
234.411	0.53
234.628	0.4
234.846	0.39
235.063	0.55
235.28	0.69
235.498	0.49
235.715	0.37
235.932	0.75
236.149	0.54
236.367	0.33
236.584	0.6
236.801	0.6
237.018	0.69
237.236	0.5
237.453	0.27
237.67	0.74
237.887	0.57
238.104	0.48
238.321	0.4
238.538	0.42
238.755	0.68
238.973	0.3
239.19	0.49
239.407	0.64
239.624	0.52
239.841	0.22
240.058	0.34
240.275	0.54
240.492	0.41
240.709	0.45
240.925	0.37
241.142	0.44
241.359	0.37
241.576	0.28
241.793	0.42
242.01	0.52
242.227	0.66
242.444	0.53
242.66	0.54
242.877	0.54
243.094	0.45
243.311	0.47
243.527	0.39
243.744	0.54
243.961	0.59
244.178	0.37
244.394	0.4
244.611	0.59
244.828	0.61
245.044	0.38
245.261	0.24
245.477	0.61
245.694	0.58
245.911	0.32
246.127	0.46
246.344	0.68
246.56	0.57
246.777	0.31
246.993	0.38
247.21	0.48
247.426	0.54
247.643	0.28
247.859	0.34
248.076	0.38
248.292	0.73
248.508	0.33
248.725	0.51
248.941	0.5
249.157	0.59
249.374	0.32
249.59	0.35
249.806	0.48
250.023	0.57
250.239	0.32
250.455	0.3
250.671	0.49
250.888	0.46
251.104	0.46
251.32	0.35
251.536	0.44
251.752	0.42
251.969	0.42
252.185	0.4
252.401	0.75
252.617	0.42
252.833	0.39
253.049	0.44
253.265	0.38
253.481	0.51
253.697	0.32
253.913	0.24
254.129	0.52
254.345	0.53
254.561	0.38
254.777	0.28
254.993	0.42
255.209	0.49
255.425	0.4
255.641	0.29
255.857	0.43
256.073	0.44
256.288	0.27
256.504	0.25
256.72	0.48
256.936	0.63
257.152	0.38
257.367	0.3
257.583	0.44
257.799	0.49
258.015	0.38
258.23	0.32
258.446	0.62
258.662	0.34
258.877	0.31
259.093	0.27
259.309	0.4
259.524	0.52
259.74	0.27
259.955	0.24
260.171	0.39
260.387	0.4
260.602	0.43
260.818	0.37
261.033	0.27
261.249	0.42
261.464	0.31
261.68	0.23
261.895	0.41
262.11	0.52
262.326	0.31
262.541	0.25
262.757	0.47
262.972	0.47
263.187	0.32
263.403	0.37
263.618	0.46
263.833	0.37
264.049	0.35
264.264	0.31
264.479	0.44
264.694	0.55
264.91	0.25
265.125	0.31
265.34	0.48
265.555	0.54
265.77	0.41
265.986	0.24
266.201	0.42
266.416	0.5
266.631	0.31
266.846	0.29
267.061	0.45
267.276	0.43
267.491	0.22
267.706	0.43
267.921	0.36
268.136	0.39
268.351	0.35
268.566	0.23
268.781	0.46
268.996	0.46
269.211	0.32
269.426	0.22
269.641	0.35
269.856	0.42
270.071	0.25
270.285	0.19
270.5	0.44
270.715	0.42
270.93	0.38
271.145	0.36
271.359	0.46
271.574	0.33
271.789	0.31
272.004	0.3
272.218	0.26
272.433	0.41
272.648	0.28
272.862	0.38
273.077	0.42
273.292	0.34
273.506	0.27
273.721	0.27
273.936	0.39
274.15	0.43
274.365	0.31
274.579	0.4
274.794	0.35
275.008	0.43
275.223	0.17
275.437	0.37
275.652	0.39
275.866	0.41
276.081	0.27
276.295	0.37
276.509	0.38
276.724	0.32
276.938	0.29
277.153	0.34
277.367	0.39
277.581	0.27
277.796	0.26
278.01	0.23
278.224	0.42
278.438	0.52
278.653	0.28
278.867	0.23
279.081	0.21
279.295	0.32
279.51	0.29
279.724	0.2
279.938	0.4
280.152	0.36
280.366	0.3
280.58	0.31
280.794	0.44
281.008	0.42
281.222	0.28
281.437	0.51
281.651	0.33
281.865	0.42
282.079	0.29
282.293	0.17
282.507	0.28
282.721	0.34
282.935	0.3
283.148	0.2
283.362	0.33
283.576	0.24
283.79	0.25
284.004	0.24
284.218	0.46
284.432	0.32
284.646	0.33
284.859	0.25
285.073	0.27
285.287	0.28
285.501	0.29
285.714	0.31
285.928	0.3
286.142	0.37
286.356	0.25
286.569	0.26
286.783	0.42
286.997	0.41
287.21	0.29
287.424	0.26
287.637	0.28
287.851	0.24
288.065	0.37
288.278	0.26
288.492	0.36
288.705	0.28
288.919	0.32
289.132	0.19
289.346	0.39
289.559	0.19
289.773	0.21
289.986	0.25
290.2	0.25
290.413	0.38
290.626	0.24
290.84	0.21
291.053	0.31
291.267	0.37
291.48	0.33
291.693	0.27
291.906	0.23
292.12	0.32
292.333	0.22
292.546	0.25
292.76	0.35
292.973	0.32
293.186	0.31
293.399	0.25
293.612	0.34
293.826	0.26
294.039	0.25
294.252	0.27
294.465	0.39
294.678	0.35
294.891	0.26
295.104	0.22
295.317	0.27
295.53	0.28
295.743	0.26
295.956	0.23
296.169	0.44
296.382	0.33
296.595	0.25
296.808	0.22
297.021	0.37
297.234	0.35
297.447	0.26
297.66	0.28
297.873	0.34
298.086	0.32
298.299	0.24
298.511	0.21
298.724	0.27
298.937	0.2
299.15	0.2
299.363	0.24
299.575	0.34
299.788	0.32
300.001	0.27
300.213	0.23
300.426	0.27
300.639	0.25
300.852	0.22
301.064	0.28
301.277	0.4
301.489	0.35
301.702	0.24
301.915	0.24
302.127	0.24
302.34	0.34
302.552	0.29
302.765	0.22
302.977	0.34
303.19	0.24
303.402	0.24
303.615	0.24
303.827	0.29
304.04	0.26
304.252	0.29
304.464	0.25
304.677	0.4
304.889	0.3
305.102	0.23
305.314	0.2
305.526	0.29
305.739	0.28
305.951	0.16
306.163	0.24
306.375	0.36
306.588	0.23
306.8	0.18
307.012	0.19
307.224	0.27
307.436	0.35
307.649	0.17
307.861	0.2
308.073	0.29
308.285	0.25
308.497	0.19
308.709	0.24
308.921	0.27
309.133	0.35
309.346	0.2
309.558	0.27
309.77	0.29
309.982	0.33
310.194	0.28
310.406	0.19
310.617	0.36
310.829	0.27
311.041	0.34
311.253	0.24
311.465	0.29
311.677	0.29
311.889	0.24
312.101	0.22
312.313	0.34
312.524	0.36
312.736	0.15
312.948	0.23
313.16	0.37
313.372	0.3
313.583	0.28
313.795	0.22
314.007	0.25
314.218	0.32
314.43	0.25
314.642	0.18
314.853	0.15
315.065	0.3
315.277	0.25
315.488	0.22
315.7	0.36
315.912	0.32
316.123	0.24
316.335	0.26
316.546	0.37
316.758	0.27
316.969	0.22
317.181	0.27
317.392	0.25
317.604	0.33
317.815	0.22
318.026	0.22
318.238	0.28
318.449	0.29
318.661	0.17
318.872	0.16
319.083	0.21
319.295	0.29
319.506	0.21
319.717	0.25
319.929	0.31
320.14	0.28
320.351	0.24
320.562	0.21
320.774	0.3
320.985	0.26
321.196	0.22
321.407	0.18
321.618	0.32
321.829	0.27
322.041	0.25
322.252	0.26
322.463	0.3
322.674	0.29
322.885	0.19
323.096	0.24
323.307	0.24
323.518	0.29
323.729	0.23
323.94	0.22
324.151	0.22
324.362	0.3
324.573	0.27
324.784	0.24
324.995	0.35
325.206	0.3
325.417	0.26
325.628	0.18
325.838	0.18
326.049	0.27
326.26	0.31
326.471	0.19
326.682	0.28
326.892	0.31
327.103	0.2
327.314	0.2
327.525	0.35
327.735	0.26
327.946	0.21
328.157	0.21
328.368	0.33
328.578	0.29
328.789	0.31
328.999	0.25
329.21	0.26
329.421	0.31
329.631	0.2
329.842	0.2
330.052	0.28
330.263	0.3
330.473	0.29
330.684	0.25
330.894	0.29
331.105	0.28
331.315	0.28
331.526	0.19
331.736	0.37
331.947	0.3
332.157	0.27
332.367	0.16
332.578	0.31
332.788	0.34
332.999	0.3
333.209	0.22
333.419	0.18
333.629	0.32
333.84	0.29
334.05	0.23
334.26	0.39
334.47	0.26
334.681	0.31
334.891	0.2
335.101	0.35
335.311	0.37
335.521	0.27
335.732	0.21
335.942	0.35
336.152	0.31
336.362	0.25
336.572	0.26
336.782	0.34
336.992	0.25
337.202	0.23
337.412	0.26
337.622	0.28
337.832	0.29
338.042	0.24
338.252	0.21
338.462	0.26
338.672	0.28
338.882	0.23
339.092	0.27
339.302	0.38
339.511	0.27
339.721	0.23
339.931	0.18
340.141	0.34
340.351	0.34
340.561	0.27
340.77	0.24
340.98	0.29
341.19	0.28
341.4	0.27
341.609	0.22
341.819	0.28
342.029	0.21
342.238	0.24
342.448	0.2
342.658	0.28
342.867	0.23
343.077	0.28
343.286	0.26
343.496	0.25
343.706	0.34
343.915	0.2
344.125	0.22
344.334	0.27
344.544	0.26
344.753	0.23
344.963	0.17
345.172	0.2
345.381	0.21
345.591	0.2
345.8	0.26
346.01	0.35
346.219	0.33
346.428	0.1
346.638	0.22
346.847	0.22
347.056	0.32
347.266	0.23
347.475	0.24
347.684	0.3
347.893	0.29
348.103	0.28
348.312	0.18
348.521	0.28
348.73	0.24
348.94	0.28
349.149	0.24
349.358	0.25
349.567	0.16
349.776	0.17
349.985	0.22
350.194	0.29
350.403	0.3
350.612	0.19
350.821	0.24
351.03	0.27
351.239	0.22
351.448	0.24
351.657	0.23
351.866	0.35
352.075	0.27
352.284	0.31
352.493	0.21
352.702	0.28
352.911	0.31
353.12	0.23
353.329	0.23
353.538	0.28
353.746	0.25
353.955	0.21
354.164	0.22
354.373	0.2
354.582	0.28
354.79	0.23
354.999	0.25
355.208	0.24
355.416	0.34
355.625	0.17
355.834	0.25
356.042	0.28
356.251	0.25
356.46	0.23
356.668	0.27
356.877	0.37
357.085	0.3
357.294	0.14
357.503	0.27
357.711	0.24
357.92	0.42
358.128	0.3
358.337	0.24
358.545	0.29
358.754	0.21
358.962	0.33
359.17	0.22
359.379	0.29
359.587	0.25
359.796	0.22
360.004	0.35
360.212	0.26
360.421	0.3
360.629	0.25
360.837	0.22
361.046	0.29
361.254	0.41
361.462	0.23
361.67	0.22
361.879	0.28
362.087	0.34
362.295	0.24
362.503	0.22
362.711	0.22
362.92	0.21
363.128	0.19
363.336	0.18
363.544	0.17
363.752	0.27
363.96	0.21
364.168	0.24
364.376	0.23
364.584	0.3
364.792	0.32
365	0.29
365.208	0.29
365.416	0.31
365.624	0.31
365.832	0.23
366.04	0.32
366.248	0.27
366.456	0.28
366.664	0.29
366.872	0.25
367.079	0.28
367.287	0.25
367.495	0.27
367.703	0.23
367.911	0.22
368.118	0.24
368.326	0.26
368.534	0.21
368.742	0.33
368.949	0.18
369.157	0.19
369.365	0.32
369.572	0.25
369.78	0.21
369.988	0.3
370.195	0.25
370.403	0.31
370.61	0.25
370.818	0.27
371.026	0.4
371.233	0.23
371.441	0.26
371.648	0.21
371.856	0.28
372.063	0.26
372.271	0.22
372.478	0.2
372.685	0.23
372.893	0.29
373.1	0.27
373.308	0.23
373.515	0.39
373.722	0.33
373.93	0.24
374.137	0.31
374.344	0.35
374.552	0.32
374.759	0.26
374.966	0.29
375.173	0.24
375.381	0.33
375.588	0.25
375.795	0.2
376.002	0.21
376.209	0.21
376.417	0.27
376.624	0.24
376.831	0.29
377.038	0.26
377.245	0.18
377.452	0.26
377.659	0.28
377.866	0.21
378.073	0.19
378.28	0.25
378.487	0.34
378.694	0.34
378.901	0.28
379.108	0.21
379.315	0.37
379.522	0.38
379.729	0.32
379.936	0.2
380.143	0.29
380.35	0.32
380.557	0.24
380.763	0.28
380.97	0.3
381.177	0.3
381.384	0.3
381.591	0.27
381.797	0.32
382.004	0.33
382.211	0.28
382.418	0.22
382.624	0.31
382.831	0.36
383.038	0.22
383.244	0.32
383.451	0.29
383.658	0.31
383.864	0.21
384.071	0.2
384.277	0.38
384.484	0.26
384.69	0.33
384.897	0.22
385.103	0.22
385.31	0.26
385.516	0.24
385.723	0.23
385.929	0.28
386.136	0.27
386.342	0.33
386.549	0.23
386.755	0.36
386.961	0.31
387.168	0.3
387.374	0.3
387.58	0.37
387.787	0.31
387.993	0.32
388.199	0.28
388.406	0.26
388.612	0.24
388.818	0.22
389.024	0.26
389.231	0.32
389.437	0.37
389.643	0.31
389.849	0.31
390.055	0.32
390.261	0.3
390.467	0.36
390.674	0.26
390.88	0.28
391.086	0.34
391.292	0.24
391.498	0.32
391.704	0.32
391.91	0.32
392.116	0.28
392.322	0.19
392.528	0.36
392.734	0.31
392.94	0.34
393.146	0.3
393.352	0.38
393.557	0.23
393.763	0.23
393.969	0.36
394.175	0.31
394.381	0.35
394.587	0.26
394.792	0.28
394.998	0.4
395.204	0.39
395.41	0.28
395.615	0.29
395.821	0.34
396.027	0.34
396.233	0.29
396.438	0.38
396.644	0.41
396.85	0.35
397.055	0.34
397.261	0.4
397.466	0.46
397.672	0.33
397.878	0.39
398.083	0.35
398.289	0.33
398.494	0.42
398.7	0.4
398.905	0.23
399.111	0.45
399.316	0.27
399.522	0.37
399.727	0.35
399.932	0.35
400.138	0.33
400.343	0.36
400.549	0.35
400.754	0.38
400.959	0.39
401.165	0.34
401.37	0.37
401.575	0.47
401.78	0.37
401.986	0.34
402.191	0.41
402.396	0.38
402.601	0.37
402.807	0.38
403.012	0.39
403.217	0.49
403.422	0.46
403.627	0.38
403.832	0.37
404.037	0.51
404.243	0.45
404.448	0.37
404.653	0.4
404.858	0.46
405.063	0.51
405.268	0.4
405.473	0.36
405.678	0.41
405.883	0.68
406.088	0.51
406.293	0.42
406.498	0.47
406.703	0.52
406.907	0.48
407.112	0.42
407.317	0.56
407.522	0.58
407.727	0.48
407.932	0.55
408.136	0.64
408.341	0.55
408.546	0.58
408.751	0.59
408.956	0.57
409.16	0.69
409.365	0.58
409.57	0.6
409.774	0.66
409.979	0.71
410.184	0.71
410.388	0.62
410.593	0.74
410.798	0.73
411.002	0.78
411.207	0.83
411.411	0.77
411.616	0.71
411.82	0.82
412.025	0.87
412.229	0.84
412.434	1.03
412.638	0.91
412.843	0.93
413.047	0.93
413.252	0.93
413.456	1
413.66	1.05
413.865	1.07
414.069	1.13
414.273	1.07
414.478	1.16
414.682	1.22
414.886	1.22
415.091	1.2
415.295	1.25
415.499	1.43
415.703	1.36
415.908	1.49
416.112	1.36
416.316	1.61
416.52	1.61
416.724	1.58
416.929	1.62
417.133	1.89
417.337	1.74
417.541	1.79
417.745	1.79
417.949	2.07
418.153	2.03
418.357	2
418.561	2.33
418.765	2.19
418.969	2.34
419.173	2.5
419.377	2.42
419.581	2.67
419.785	2.67
419.989	2.67
420.193	2.81
420.397	2.88
420.601	3.05
420.804	3.22
421.008	3.1
421.212	3.28
421.416	3.27
421.62	3.3
421.823	3.35
422.027	3.52
422.231	3.55
422.435	3.5
422.638	3.6
422.842	3.7
423.046	3.78
423.249	3.95
423.453	4.03
423.657	4.15
423.86	4.21
424.064	4.29
424.268	4.58
424.471	4.53
424.675	4.77
424.878	4.79
425.082	4.89
425.285	5.2
425.489	5.15
425.692	5.26
425.896	5.27
426.099	5.52
426.303	5.62
426.506	5.73
426.71	6.04
426.913	6.24
427.116	6.4
427.32	6.32
427.523	6.43
427.726	6.87
427.93	6.79
428.133	7.01
428.336	7.28
428.54	7.29
428.743	7.68
428.946	7.82
429.149	7.92
429.353	7.89
429.556	8
429.759	8.07
429.962	8.16
430.165	8.35
430.368	8.1
430.571	8.08
430.775	8.11
430.978	7.99
431.181	8.19
431.384	8.24
431.587	8.36
431.79	8.65
431.993	8.55
432.196	9
432.399	9.38
432.602	9.5
432.805	9.56
433.008	10.09
433.211	9.91
433.414	10.29
433.616	10.39
433.819	10.3
434.022	10.39
434.225	10.61
434.428	10.58
434.631	11.02
434.833	10.86
435.036	11.06
435.239	11.34
435.442	11.36
435.645	11.49
435.847	11.54
436.05	11.93
436.253	12.12
436.455	12.13
436.658	12.07
436.861	12.45
437.063	12.46
437.266	12.28
437.468	12.78
437.671	13.11
437.874	13.07
438.076	13.06
438.279	13.4
438.481	13.51
438.684	14.23
438.886	13.89
439.089	14.17
439.291	14.13
439.494	14.44
439.696	14.76
439.899	15.15
440.101	15.57
440.303	15.75
440.506	16.54
440.708	16.27
440.91	16.56
441.113	16.65
441.315	16.96
441.517	16.59
441.72	17.32
441.922	16.9
442.124	16.9
442.326	17.25
442.529	17.4
442.731	17.52
442.933	17.87
443.135	17.44
443.337	17.52
443.539	17.94
443.742	17.64
443.944	18.29
444.146	18.1
444.348	18
444.55	17.84
444.752	18.05
444.954	18.18
445.156	18.03
445.358	18.47
445.56	18.69
445.762	18.42
445.964	18.89
446.166	18.55
446.368	18.72
446.57	18.56
446.772	18.15
446.974	17.92
447.175	18.22
447.377	17.91
447.579	18.35
447.781	17.96
447.983	17.87
448.184	17.34
448.386	17.69
448.588	17.15
448.79	17.09
448.991	17.52
449.193	17.4
449.395	16.75
449.597	16.27
449.798	16.29
450	15.83
450.202	15.77
450.403	15.78
450.605	15.73
450.806	15.34
451.008	15.17
451.21	14.89
451.411	14.46
451.613	13.71
451.814	13.91
452.016	13.93
452.217	13.23
452.419	13.25
452.62	12.87
452.821	12.55
453.023	12.6
453.224	12.17
453.426	11.7
453.627	11
453.828	11.2
454.03	11.22
454.231	11.18
454.432	11.04
454.634	10.66
454.835	10.37
455.036	10.38
455.238	9.98
455.439	9.75
455.64	9.42
455.841	9.25
456.042	9.49
456.244	9.11
456.445	8.88
456.646	8.64
456.847	8.51
457.048	8.46
457.249	8.48
457.45	8.19
457.651	7.61
457.852	7.56
458.054	7.14
458.255	7.2
458.456	7.22
458.657	7.07
458.858	6.66
459.058	6.58
459.259	6.73
459.46	6.36
459.661	6.42
459.862	6.42
460.063	6.37
460.264	6.33
460.465	6
460.666	6.08
460.866	5.72
461.067	5.52
461.268	5.51
461.469	5.4
461.67	5.34
461.87	5.26
462.071	5.22
462.272	5.13
462.473	5.06
462.673	5.19
462.874	5.1
463.075	5.15
463.275	5.05
463.476	5.07
463.676	5.02
463.877	4.88
464.078	4.86
464.278	4.99
464.479	4.81
464.679	4.81
464.88	4.65
465.08	4.61
465.281	4.47
465.481	4.26
465.682	4.05
465.882	4.2
466.083	4.08
466.283	3.99
466.483	3.84
466.684	3.71
466.884	3.64
467.085	3.65
467.285	3.65
467.485	3.6
467.686	3.46
467.886	3.44
468.086	3.32
468.286	3.38
468.487	3.42
468.687	3.26
468.887	3.21
469.087	3.4
469.287	3.28
469.488	3
469.688	3.14
469.888	3.22
470.088	3.14
470.288	3.1
470.488	3.07
470.688	2.86
470.888	2.74
471.088	2.68
471.288	2.93
471.488	2.79
471.688	2.74
471.888	2.67
472.088	2.82
472.288	2.74
472.488	2.64
472.688	2.6
472.888	2.57
473.088	2.55
473.288	2.48
473.488	2.48
473.688	2.64
473.887	2.53
474.087	2.36
474.287	2.39
474.487	2.36
474.687	2.42
474.886	2.35
475.086	2.32
475.286	2.34
475.486	2.25
475.685	2.2
475.885	2.17
476.085	2.26
476.284	2.26
476.484	2.27
476.684	2.25
476.883	2.3
477.083	2.2
477.282	2.08
477.482	2.16
477.681	2.17
477.881	2.07
478.08	2.04
478.28	2.03
478.479	2.11
478.679	2.16
478.878	1.98
479.078	1.98
479.277	2.12
479.477	2.03
479.676	2.05
479.875	2
480.075	1.92
480.274	2.01
480.473	2.08
480.673	2.02
480.872	2.1
481.071	2.07
481.271	2.05
481.47	1.99
481.669	2.01
481.868	1.97
482.067	1.96
482.267	1.93
482.466	1.96
482.665	1.89
482.864	1.94
483.063	1.91
483.262	2.01
483.461	2.05
483.661	2.06
483.86	1.95
484.059	2.06
484.258	1.98
484.457	2
484.656	1.98
484.855	2.14
485.054	1.92
485.253	2
485.452	1.93
485.651	2.06
485.849	2.07
486.048	2.01
486.247	2.03
486.446	2.06
486.645	2.01
486.844	2.09
487.043	2.03
487.241	2.09
487.44	2.08
487.639	2.12
487.838	2.11
488.037	2.11
488.235	2.2
488.434	2.15
488.633	2.02
488.831	2.18
489.03	2.24
489.229	2.2
489.427	2.24
489.626	2.28
489.825	2.29
490.023	2.28
490.222	2.25
490.42	2.32
490.619	2.39
490.817	2.35
491.016	2.34
491.214	2.4
491.413	2.42
491.611	2.37
491.81	2.35
492.008	2.47
492.207	2.54
492.405	2.53
492.604	2.43
492.802	2.52
493	2.63
493.199	2.59
493.397	2.64
493.595	2.66
493.794	2.64
493.992	2.78
494.19	2.7
494.388	2.82
494.587	2.73
494.785	2.8
494.983	2.72
495.181	2.88
495.379	2.88
495.578	2.92
495.776	2.92
495.974	2.9
496.172	2.97
496.37	3.09
496.568	3.1
496.766	3.02
496.964	3.18
497.162	3.17
497.36	3.15
497.558	3.25
497.756	3.3
497.954	3.28
498.152	3.31
498.35	3.41
498.548	3.34
498.746	3.38
498.944	3.42
499.142	3.44
499.34	3.53
499.538	3.66
499.736	3.48
499.933	3.61
500.131	3.66
500.329	3.76
500.527	3.77
500.725	3.84
500.922	3.84
501.12	3.89
501.318	3.95
501.516	3.96
501.713	4
501.911	3.99
502.109	3.95
502.306	4.08
502.504	4
502.701	4.1
502.899	4.17
503.097	4.37
503.294	4.18
503.492	4.36
503.689	4.36
503.887	4.39
504.084	4.48
504.282	4.39
504.479	4.36
504.677	4.54
504.874	4.5
505.072	4.47
505.269	4.68
505.466	4.68
505.664	4.7
505.861	4.66
506.059	4.77
506.256	4.84
506.453	4.85
506.651	5.01
506.848	4.98
507.045	4.92
507.242	4.98
507.44	4.98
507.637	5.14
507.834	5.04
508.031	5.26
508.229	5.18
508.426	5.09
508.623	5.32
508.82	5.31
509.017	5.3
509.214	5.19
509.411	5.37
509.608	5.3
509.805	5.5
510.003	5.48
510.2	5.48
510.397	5.67
510.594	5.58
510.791	5.62
510.988	5.67
511.184	5.61
511.381	5.49
511.578	5.7
511.775	5.82
511.972	5.79
512.169	5.79
512.366	5.78
512.563	5.93
512.76	5.99
512.956	6.02
513.153	5.92
513.35	5.91
513.547	5.98
513.744	6
513.94	6.01
514.137	6.16
514.334	6.11
514.53	6.15
514.727	6.37
514.924	6.27
515.12	6.22
515.317	6.27
515.514	6.21
515.71	6.18
515.907	6.49
516.103	6.39
516.3	6.29
516.497	6.48
516.693	6.49
516.89	6.49
517.086	6.48
517.283	6.54
517.479	6.37
517.676	6.67
517.872	6.64
518.068	6.63
518.265	6.6
518.461	6.51
518.658	6.7
518.854	6.71
519.05	6.81
519.247	6.79
519.443	6.75
519.639	6.88
519.836	6.75
520.032	6.74
520.228	6.93
520.424	6.85
520.621	6.93
520.817	7
521.013	6.89
521.209	7.06
521.405	7.06
521.601	7
521.798	6.99
521.994	7.06
522.19	6.92
522.386	7.01
522.582	7.14
522.778	7.23
522.974	7.08
523.17	7.08
523.366	7.09
523.562	7.18
523.758	7.2
523.954	7.03
524.15	7.24
524.346	7.29
524.542	7.24
524.738	7.17
524.934	7.36
525.129	7.35
525.325	7.2
525.521	7.26
525.717	7.48
525.913	7.31
526.109	7.32
526.304	7.45
526.5	7.41
526.696	7.45
526.892	7.38
527.087	7.61
527.283	7.47
527.479	7.5
527.674	7.34
527.87	7.5
528.066	7.46
528.261	7.49
528.457	7.46
528.653	7.6
528.848	7.54
529.044	7.68
529.239	7.5
529.435	7.49
529.63	7.53
529.826	7.55
530.021	7.54
530.217	7.65
530.412	7.56
530.608	7.6
530.803	7.62
530.999	7.52
531.194	7.64
531.389	7.72
531.585	7.65
531.78	7.82
531.975	7.63
532.171	7.77
532.366	7.73
532.561	7.76
532.757	7.7
532.952	7.85
533.147	7.64
533.342	7.81
533.538	7.71
533.733	7.93
533.928	7.59
534.123	7.76
534.318	7.87
534.513	7.66
534.709	7.94
534.904	7.81
535.099	7.88
535.294	7.95
535.489	7.89
535.684	7.82
535.879	7.88
536.074	7.89
536.269	7.92
536.464	7.97
536.659	7.86
536.854	7.81
537.049	7.97
537.244	7.91
537.439	7.85
537.634	7.92
537.828	7.9
538.023	7.93
538.218	7.97
538.413	7.8
538.608	7.91
538.803	7.9
538.997	7.86
539.192	7.95
539.387	7.85
539.582	7.94
539.776	7.8
539.971	7.97
540.166	8.06
540.36	7.93
540.555	8.07
540.75	7.96
540.944	8.05
541.139	8.02
541.334	7.96
541.528	8
541.723	8.09
541.917	8.07
542.112	7.98
542.306	7.88
542.501	7.97
542.695	7.93
542.89	7.91
543.084	8
543.279	8.04
543.473	8.04
543.668	8.02
543.862	7.94
544.056	7.94
544.251	8.05
544.445	8.09
544.64	8.14
544.834	7.79
545.028	7.65
545.222	8.07
545.417	8.19
545.611	8.12
545.805	8.02
546	7.85
546.194	8.07
546.388	8.06
546.582	7.96
546.776	8
546.97	8.04
547.165	8.03
547.359	8.04
547.553	7.99
547.747	8.02
547.941	8.21
548.135	8.01
548.329	8.08
548.523	8.07
548.717	8.01
548.911	8.01
549.105	7.99
549.299	8.13
549.493	8.11
549.687	8.02
549.881	8.14
550.075	8.13
550.269	7.99
550.463	8.15
550.657	8.11
550.85	8.03
551.044	8.08
551.238	8.16
551.432	8.05
551.626	8.15
551.82	8.12
552.013	7.94
552.207	8.17
552.401	8.15
552.594	8.07
552.788	7.97
552.982	8.07
553.176	8.02
553.369	8.22
553.563	8.14
553.756	8.08
553.95	8.16
554.144	8.1
554.337	8.13
554.531	7.93
554.724	8.13
554.918	8.17
555.111	8.1
555.305	8.07
555.498	8.17
555.692	8.2
555.885	8.16
556.079	8.05
556.272	8.09
556.466	8.1
556.659	7.99
556.852	8.08
557.046	8.02
557.239	7.98
557.432	8.01
557.626	8.12
557.819	8.16
558.012	8.1
558.206	8.2
558.399	8.13
558.592	8.06
558.785	8
558.979	8.09
559.172	8.1
559.365	8.12
559.558	8.08
559.751	8.01
559.944	8.26
560.138	8.13
560.331	8.17
560.524	8.14
560.717	8.08
560.91	8.09
561.103	8.07
561.296	7.99
561.489	8.14
561.682	8.19
561.875	8.16
562.068	8.2
562.261	7.98
562.454	8.26
562.647	8.08
562.84	8.12
563.032	8.15
563.225	8.05
563.418	8.1
563.611	8.17
563.804	8.07
563.997	7.99
564.19	7.89
564.382	8.18
564.575	8.07
564.768	8.02
564.961	8.17
565.153	8.06
565.346	7.95
565.539	8.16
565.731	8.14
565.924	8.14
566.117	8.23
566.309	8.12
566.502	8.06
566.695	8
566.887	8.13
567.08	8.06
567.272	8.15
567.465	7.97
567.657	8.13
567.85	7.98
568.042	8.14
568.235	8.1
568.427	7.93
568.62	8.08
568.812	8
569.005	8.11
569.197	7.97
569.389	8.02
569.582	8.05
569.774	8.05
569.966	7.96
570.159	7.92
570.351	7.9
570.543	7.94
570.736	8.06
570.928	7.84
571.12	8.02
571.312	7.9
571.505	7.72
571.697	8.04
571.889	8
572.081	8.03
572.273	7.95
572.465	8.05
572.658	7.97
572.85	8.02
573.042	8.02
573.234	7.84
573.426	7.98
573.618	7.87
573.81	7.95
574.002	7.93
574.194	7.92
574.386	7.96
574.578	7.79
574.77	7.87
574.962	7.92
575.154	7.82
575.346	7.86
575.538	7.84
575.729	7.76
575.921	7.98
576.113	7.97
576.305	7.89
576.497	8.01
576.689	7.81
576.88	7.7
577.072	7.98
577.264	7.85
577.456	7.87
577.647	7.76
577.839	8.01
578.031	7.82
578.223	7.78
578.414	7.68
578.606	7.82
578.798	7.9
578.989	7.84
579.181	7.86
579.372	7.86
579.564	7.8
579.755	7.76
579.947	7.69
580.139	7.88
580.33	7.65
580.522	7.75
580.713	7.69
580.905	7.79
581.096	7.83
581.287	7.68
581.479	7.72
581.67	7.81
581.862	7.73
582.053	7.78
582.244	7.52
582.436	7.85
582.627	7.61
582.818	7.63
583.01	7.57
583.201	7.71
583.392	7.6
583.583	7.62
583.775	7.43
583.966	7.54
584.157	7.67
584.348	7.61
584.54	7.55
584.731	7.59
584.922	7.52
585.113	7.42
585.304	7.55
585.495	7.51
585.686	7.64
585.877	7.59
586.068	7.63
586.259	7.54
586.45	7.56
586.641	7.49
586.832	7.59
587.023	7.49
587.214	7.49
587.405	7.52
587.596	7.4
587.787	7.4
587.978	7.54
588.169	7.39
588.36	7.31
588.551	7.38
588.742	7.41
588.932	7.46
589.123	7.27
589.314	7.51
589.505	7.3
589.696	7.37
589.886	7.37
590.077	7.31
590.268	7.22
590.458	7.21
590.649	7.1
590.84	7.29
591.03	7.27
591.221	7.28
591.412	7.16
591.602	7.39
591.793	7.33
591.984	7.25
592.174	7.19
592.365	7.37
592.555	7.13
592.746	7.12
592.936	7.19
593.127	7.2
593.317	7.23
593.508	7.21
593.698	7.09
593.889	7.07
594.079	7.06
594.269	7.02
594.46	7
594.65	7.05
594.84	7.05
595.031	6.92
595.221	6.98
595.411	7
595.602	7
595.792	6.94
595.982	6.87
596.172	7.02
596.363	6.92
596.553	6.88
596.743	6.92
596.933	6.88
597.123	6.85
597.314	6.77
597.504	6.75
597.694	6.93
597.884	6.85
598.074	6.88
598.264	6.76
598.454	6.78
598.644	6.74
598.834	6.79
599.024	6.68
599.214	6.72
599.404	6.78
599.594	6.69
599.784	6.66
599.974	6.8
600.164	6.68
600.354	6.59
600.544	6.57
600.734	6.67
600.924	6.6
601.114	6.48
601.303	6.62
601.493	6.52
601.683	6.51
601.873	6.59
602.063	6.43
602.252	6.51
602.442	6.45
602.632	6.45
602.821	6.37
603.011	6.47
603.201	6.48
603.39	6.35
603.58	6.23
603.77	6.41
603.959	6.49
604.149	6.38
604.339	6.37
604.528	6.45
604.718	6.41
604.907	6.28
605.097	6.2
605.286	6.23
605.476	6.26
605.665	6.2
605.855	6.15
606.044	6.33
606.234	6.27
606.423	6.18
606.612	6.13
606.802	6.1
606.991	6.21
607.181	6.16
607.37	6.12
607.559	5.89
607.749	6.17
607.938	5.97
608.127	6.01
608.316	6.03
608.506	6.02
608.695	6.03
608.884	6.01
609.073	6
609.263	6.07
609.452	5.99
609.641	5.87
609.83	5.81
610.019	5.97
610.208	5.83
610.397	5.82
610.586	5.9
610.775	5.83
610.965	5.75
611.154	5.68
611.343	5.81
611.532	5.73
611.721	5.83
611.91	5.71
612.099	5.73
612.287	5.61
612.476	5.61
612.665	5.8
612.854	5.54
613.043	5.59
613.232	5.63
613.421	5.5
613.61	5.59
613.798	5.6
613.987	5.57
614.176	5.58
614.365	5.53
614.554	5.46
614.742	5.49
614.931	5.35
615.12	5.57
615.309	5.47
615.497	5.35
615.686	5.28
615.875	5.34
616.063	5.31
616.252	5.31
616.44	5.29
616.629	5.33
616.818	5.33
617.006	5.26
617.195	5.26
617.383	5.29
617.572	5.21
617.76	5.16
617.949	5.12
618.137	5.23
618.326	5.18
618.514	5.01
618.703	5.02
618.891	5.19
619.079	5.07
619.268	5.16
619.456	5.04
619.644	5.15
619.833	5.04
620.021	4.91
620.209	4.95
620.398	4.96
620.586	4.89
620.774	4.99
620.962	4.93
621.151	5.03
621.339	4.88
621.527	4.82
621.715	4.78
621.903	4.85
622.092	4.78
622.28	4.93
622.468	4.67
622.656	4.72
622.844	4.72
623.032	4.81
623.22	4.63
623.408	4.83
623.596	4.72
623.784	4.78
623.972	4.67
624.16	4.65
624.348	4.7
624.536	4.7
624.724	4.55
624.912	4.63
625.1	4.63
625.288	4.6
625.476	4.56
625.664	4.6
625.851	4.5
626.039	4.59
626.227	4.45
626.415	4.5
626.603	4.37
626.79	4.45
626.978	4.48
627.166	4.48
627.354	4.34
627.541	4.32
627.729	4.25
627.917	4.5
628.104	4.43
628.292	4.29
628.48	4.34
628.667	4.24
628.855	4.34
629.042	4.33
629.23	4.23
629.418	4.21
629.605	4.28
629.793	4.17
629.98	4.19
630.168	4.13
630.355	4.22
630.543	4.13
630.73	4.07
630.917	4.08
631.105	4.24
631.292	4.09
631.48	4.09
631.667	4.16
631.854	4.04
632.042	4.01
632.229	3.94
632.416	4
632.604	3.95
632.791	3.87
632.978	3.95
633.165	3.98
633.353	4.03
633.54	3.97
633.727	3.81
633.914	3.81
634.101	3.78
634.289	3.9
634.476	3.74
634.663	3.8
634.85	3.84
635.037	3.77
635.224	3.66
635.411	3.85
635.598	3.72
635.785	3.7
635.972	3.66
636.159	3.77
636.346	3.62
636.533	3.64
636.72	3.6
636.907	3.66
637.094	3.63
637.281	3.53
637.468	3.57
637.655	3.58
637.842	3.62
638.029	3.51
638.215	3.53
638.402	3.57
638.589	3.38
638.776	3.48
638.963	3.47
639.149	3.51
639.336	3.54
639.523	3.45
639.709	3.42
639.896	3.38
640.083	3.42
640.27	3.39
640.456	3.32
640.643	3.39
640.829	3.24
641.016	3.31
641.203	3.23
641.389	3.32
641.576	3.31
641.762	3.27
641.949	3.22
642.135	3.24
642.322	3.24
642.508	3.12
642.695	3.21
642.881	3.15
643.068	3.08
643.254	3.15
643.441	3.17
643.627	3.23
643.813	3.05
644	3.18
644.186	3.03
644.372	3.04
644.559	3.11
644.745	3.01
644.931	2.96
645.118	3.03
645.304	2.98
645.49	2.97
645.676	2.91
645.862	2.97
646.049	3.08
646.235	2.92
646.421	3.11
646.607	3.08
646.793	2.91
646.979	2.87
647.165	2.9
647.352	2.93
647.538	2.87
647.724	2.84
647.91	2.83
648.096	2.86
648.282	2.84
648.468	2.82
648.654	2.8
648.84	2.8
649.026	2.82
649.212	2.73
649.397	2.73
649.583	2.72
649.769	2.71
649.955	2.74
650.141	2.73
650.327	2.74
650.513	2.68
650.698	2.67
650.884	2.55
651.07	2.65
651.256	2.58
651.442	2.63
651.627	2.5
651.813	2.66
651.999	2.55
652.184	2.54
652.37	2.5
652.556	2.54
652.741	2.64
652.927	2.4
653.113	2.48
653.298	2.49
653.484	2.48
653.669	2.44
653.855	2.4
654.04	2.57
654.226	2.44
654.412	2.39
654.597	2.3
654.782	2.46
654.968	2.44
655.153	2.42
655.339	2.36
655.524	2.4
655.71	2.38
655.895	2.32
656.08	2.33
656.266	2.4
656.451	2.33
656.636	2.26
656.822	2.35
657.007	2.29
657.192	2.26
657.378	2.22
657.563	2.27
657.748	2.23
657.933	2.29
658.118	2.15
658.304	2.23
658.489	2.31
658.674	2.17
658.859	2.11
659.044	2.17
659.229	2.25
659.414	2.16
659.599	2.16
659.785	2.04
659.97	2.12
660.155	2.11
660.34	2.1
660.525	2.08
660.71	2.04
660.895	2.15
661.08	2.04
661.264	2.04
661.449	2.14
661.634	2.06
661.819	2.08
662.004	2.01
662.189	1.95
662.374	1.99
662.559	1.96
662.743	1.9
662.928	2
663.113	1.9
663.298	1.93
663.483	1.91
663.667	1.98
663.852	1.88
664.037	2.01
664.221	1.89
664.406	2
664.591	1.92
664.775	1.94
664.96	1.86
665.145	1.9
665.329	1.96
665.514	1.84
665.698	1.86
665.883	1.74
666.068	1.92
666.252	1.89
666.437	1.76
666.621	1.85
666.806	1.87
666.99	1.77
667.174	1.78
667.359	1.85
667.543	1.71
667.728	1.77
667.912	1.68
668.096	1.76
668.281	1.74
668.465	1.77
668.649	1.74
668.834	1.68
669.018	1.74
669.202	1.7
669.387	1.68
669.571	1.78
669.755	1.66
669.939	1.72
670.124	1.64
670.308	1.71
670.492	1.73
670.676	1.63
670.86	1.61
671.044	1.56
671.228	1.72
671.413	1.63
671.597	1.61
671.781	1.59
671.965	1.64
672.149	1.61
672.333	1.6
672.517	1.55
672.701	1.61
672.885	1.57
673.069	1.44
673.253	1.61
673.437	1.52
673.621	1.51
673.804	1.53
673.988	1.59
674.172	1.52
674.356	1.4
674.54	1.5
674.724	1.64
674.908	1.44
675.091	1.53
675.275	1.49
675.459	1.58
675.643	1.47
675.826	1.48
676.01	1.47
676.194	1.43
676.377	1.47
676.561	1.52
676.745	1.46
676.928	1.48
677.112	1.46
677.296	1.45
677.479	1.36
677.663	1.4
677.846	1.47
678.03	1.37
678.213	1.32
678.397	1.45
678.58	1.36
678.764	1.34
678.947	1.3
679.131	1.35
679.314	1.39
679.498	1.34
679.681	1.31
679.865	1.4
680.048	1.34
680.231	1.31
680.415	1.29
680.598	1.27
680.781	1.22
680.965	1.29
681.148	1.28
681.331	1.24
681.514	1.3
681.698	1.19
681.881	1.31
682.064	1.3
682.247	1.31
682.43	1.14
682.614	1.28
682.797	1.32
682.98	1.26
683.163	1.14
683.346	1.26
683.529	1.18
683.712	1.17
683.895	1.26
684.078	1.11
684.261	1.15
684.444	1.22
684.627	1.19
684.81	1.14
684.993	1.24
685.176	1.21
685.359	1.11
685.542	1.14
685.725	1.25
685.908	1.18
686.091	1.1
686.274	1.22
686.457	1.17
686.639	1.14
686.822	1.15
687.005	1.12
687.188	1.16
687.371	1.23
687.553	1.16
687.736	1.14
687.919	1.25
688.102	1.19
688.284	1.12
688.467	1.02
688.65	1.11
688.832	1.01
689.015	1.06
689.197	0.92
689.38	1.19
689.563	1.18
689.745	0.99
689.928	0.98
690.11	1.09
690.293	1.06
690.475	0.96
690.658	1.08
690.84	1.08
691.023	1.01
691.205	0.95
691.388	0.99
691.57	1.03
691.752	1.05
691.935	0.86
692.117	0.92
692.3	1.07
692.482	0.97
692.664	0.9
692.847	0.99
693.029	1.08
693.211	1.04
693.393	0.99
693.576	0.88
693.758	0.93
693.94	0.98
694.122	0.96
694.304	0.94
694.487	0.93
694.669	1.08
694.851	0.88
695.033	0.92
695.215	0.88
695.397	0.92
695.579	0.86
695.761	0.88
695.943	0.85
696.125	1.01
696.308	0.96
696.49	0.81
696.671	1.06
696.853	0.92
697.035	1.13
697.217	0.85
697.399	0.93
697.581	0.86
697.763	0.92
697.945	0.8
698.127	0.94
698.309	0.74
698.491	0.89
698.672	0.91
698.854	0.94
699.036	0.93
699.218	0.84
699.399	0.91
699.581	0.96
699.763	0.83
699.945	0.83
700.126	0.76
700.308	0.86
700.49	0.86
700.671	0.71
700.853	0.76
701.035	0.77
701.216	0.84
701.398	0.75
701.579	0.76
701.761	0.92
701.943	0.74
702.124	0.76
702.306	0.77
702.487	0.96
702.669	0.74
702.85	0.74
703.031	0.7
703.213	0.88
703.394	0.83
703.576	0.75
703.757	0.97
703.938	0.81
704.12	1.04
704.301	0.73
704.483	0.76
704.664	0.78
704.845	0.84
705.026	0.79
705.208	0.73
705.389	0.8
705.57	0.79
705.751	0.68
705.933	0.74
706.114	0.77
706.295	0.77
706.476	0.61
706.657	0.85
706.838	0.74
707.02	0.79
707.201	0.72
707.382	0.64
707.563	0.84
707.744	0.72
707.925	0.63
708.106	0.64
708.287	0.78
708.468	0.9
708.649	0.74
708.83	0.75
709.011	0.67
709.192	0.77
709.373	0.59
709.554	0.65
709.734	0.83
709.915	0.74
710.096	0.72
710.277	0.53
710.458	0.72
710.639	0.78
710.819	0.54
711	0.65
711.181	0.74
711.362	0.79
711.542	0.68
711.723	0.66
711.904	0.75
712.085	0.74
712.265	0.66
712.446	0.57
712.627	0.6
712.807	0.68
712.988	0.56
713.168	0.49
713.349	0.65
713.53	0.49
713.71	0.6
713.891	0.54
714.071	0.65
714.252	0.6
714.432	0.56
714.613	0.52
714.793	0.62
714.974	0.73
715.154	0.71
715.334	0.61
715.515	0.7
715.695	0.53
715.876	0.64
716.056	0.56
716.236	0.59
716.417	0.61
716.597	0.53
716.777	0.89
716.957	0.55
717.138	0.67
717.318	0.55
717.498	0.47
717.678	0.64
717.859	0.62
718.039	0.52
718.219	0.54
718.399	0.64
718.579	0.52
718.759	0.46
718.939	0.57
719.12	0.66
719.3	0.56
719.48	0.4
719.66	0.47
719.84	0.69
720.02	0.57
720.2	0.48
720.38	0.57
720.56	0.67
720.74	0.47
720.92	0.58
721.1	0.72
721.279	0.62
721.459	0.67
721.639	0.49
721.819	0.61
721.999	0.5
722.179	0.6
722.359	0.48
722.538	0.58
722.718	0.53
722.898	0.52
723.078	0.5
723.257	0.53
723.437	0.57
723.617	0.56
723.797	0.54
723.976	0.53
724.156	0.58
724.336	0.64
724.515	0.76
724.695	0.3
724.874	0.54
725.054	0.64
725.234	0.44
725.413	0.52
725.593	0.57
725.772	0.61
725.952	0.48
726.131	0.46
726.311	0.49
726.49	0.55
726.67	0.37
726.849	0.41
727.028	0.61
727.208	0.45
727.387	0.54
727.567	0.37
727.746	0.46
727.925	0.44
728.105	0.48
728.284	0.53
728.463	0.51
728.643	0.53
728.822	0.44
729.001	0.4
729.18	0.55
729.359	0.56
729.539	0.55
729.718	0.51
729.897	0.62
730.076	0.39
730.255	0.43
730.434	0.47
730.614	0.63
730.793	0.59
730.972	0.39
731.151	0.46
731.33	0.63
731.509	0.57
731.688	0.53
731.867	0.53
732.046	0.3
732.225	0.74
732.404	0.45
732.583	0.35
732.762	0.5
732.941	0.63
733.12	0.56
733.298	0.42
733.477	0.59
733.656	0.46
733.835	0.33
734.014	0.5
734.193	0.43
734.371	0.54
734.55	0.59
734.729	0.32
734.908	0.45
735.086	0.52
735.265	0.55
735.444	0.26
735.623	0.36
735.801	0.47
735.98	0.33
736.159	0.43
736.337	0.6
736.516	0.5
736.694	0.49
736.873	0.4
737.052	0.72
737.23	0.59
737.409	0.51
737.587	0.82
737.766	0.4
737.944	0.59
738.123	0.56
738.301	0.45
738.479	0.54
738.658	0.5
738.836	0.19
739.015	0.46
739.193	0.76
739.371	0.34
739.55	0.39
739.728	0.33
739.906	0.65
740.085	0.74
740.263	0.59
740.441	0.27
740.62	0.77
740.798	0.6
740.976	0.36
741.154	0.34
741.332	0.75
741.511	0.43
741.689	0.56
741.867	0.51
742.045	0.52
742.223	0.4
742.401	0.42
742.579	0.34
742.757	0.61
742.935	0.32
743.114	0.34
743.292	0.31
743.47	0.49
743.648	0.56
743.826	0.53
744.004	0.52
744.181	0.65
744.359	0.5
744.537	0.47
744.715	0.31
744.893	0.41
745.071	0.47
745.249	0.37
745.427	0.52
745.605	0.52
745.782	0.45
745.96	0.49
746.138	0.57
746.316	0.58
746.493	0.4
746.671	0.36
746.849	0.34
747.027	0.7
747.204	0.34
747.382	0.5
747.56	0.31
747.737	0.57
747.915	0.34
748.093	0.46
748.27	0.36
748.448	0.38
748.625	0.21
748.803	0.32
748.98	0.33
749.158	0.61
749.335	0.57
749.513	0.37
749.69	0.32
749.868	0.45
750.045	0.48
750.223	0.32
750.4	0.32
750.578	0.64
750.755	0.44
750.932	0.24
751.11	0.52
751.287	0.39
751.464	0.65
751.642	0.31
751.819	0.36
751.996	0.32
752.173	0.33
752.351	0.27
752.528	0.32
752.705	0.43
752.882	0.26
753.06	0.37
753.237	0.37
753.414	0.55
753.591	0.67
753.768	0.38
753.945	0.28
754.122	0.41
754.299	0.52
754.476	0.32
754.654	0.45
754.831	0.55
755.008	0.53
755.185	0.29
755.362	0.29
755.539	0.44
755.716	0.35
755.892	0.34
756.069	0.32
756.246	0.36
756.423	0.53
756.6	0.59
756.777	0.22
756.954	0.41
757.131	0.38
757.307	0.3
757.484	0.22
757.661	0.45
757.838	0.57
758.015	0.19
758.191	0.45
758.368	0.27
758.545	0.52
758.721	0.41
758.898	0.34
759.075	0.43
759.251	0.51
759.428	0.43
759.605	0.24
759.781	0.25
759.958	0.47
760.134	0.36
760.311	0.2
760.488	0.67
760.664	0.56
760.841	0.37
761.017	0.22
761.194	0.5
761.37	0.61
761.547	0.44
761.723	0.19
761.899	0.63
762.076	0.28
762.252	0.17
762.429	0.34
762.605	0.54
762.781	0.3
762.958	0.48
763.134	0.25
763.31	0.24
763.486	0.65
763.663	0.23
763.839	0.39
764.015	0.18
764.191	0.29
764.368	0.36
764.544	0.26
764.72	0.35
764.896	0.49
765.072	0.43
765.248	0.36
765.425	0.26
765.601	0.49
765.777	0.48
765.953	0.1
766.129	0.25
766.305	0.31
766.481	0.49
766.657	0.56
766.833	0.55
767.009	0.24
767.185	0.3
767.361	0.35
767.537	0.15
767.713	0.6
767.889	0.18
768.065	0.32
768.24	0.39
768.416	0.52
768.592	0.36
768.768	0.45
768.944	0.48
769.12	0.26
769.295	0.47
769.471	0.32
769.647	0.32
769.823	0.6
769.998	0.26
770.174	0.22
770.35	0.78
770.525	0.79
770.701	0.37
770.877	0.32
771.052	0.29
771.228	0.68
771.403	0.33
771.579	0.43
771.755	0.72
771.93	0.21
772.106	0.2
772.281	-0.11
772.457	0.39
772.632	0.48
772.808	0.14
772.983	0.33
773.159	0.11
773.334	0.67
773.509	0.44
773.685	0.32
773.86	0.84
774.036	0.63
774.211	0.3
774.386	0.37
774.562	0.36
774.737	0.55
774.912	0.19
775.087	0.51
775.263	0.44
775.438	0.48
775.613	0.39
775.788	0.45
775.964	0.46
776.139	1.05
776.314	0.1
776.489	0.36
776.664	0.46
776.839	0.26
777.014	0.47
777.19	0.58
777.365	0.8
777.54	0.66
777.715	0.33
777.89	0.31
778.065	0.15
778.24	0.45
778.415	0.52
778.59	0.21
778.765	0.43
778.94	0.44
779.115	0.44
779.289	0.36
779.464	0.3
779.639	0.27
779.814	0.15
779.989	0.24
780.164	0.48
780.339	0.65
780.513	0.16
780.688	0.24
780.863	0.54
781.038	0.83
781.212	0.22
781.387	0.44
781.562	0.94
781.737	0.4
781.911	0.69
782.086	0.09
782.261	0.38
782.435	0.78
782.61	0.32
782.784	0.32
782.959	0.75
783.134	0.26
783.308	0.07
783.483	0.4
783.657	0.77
783.832	0.59
784.006	-0.05
784.181	0.56
784.355	0.68
784.53	0.38
784.704	0.23
784.878	0.58
785.053	0.75
785.227	0.63
785.402	0.75
785.576	0.15
785.75	0.44
785.925	0.38
786.099	0.47
786.273	0.55
786.448	0.68
786.622	0.68
786.796	0.46
786.97	0.3
787.145	1.13
787.319	0.13
787.493	0.39
787.667	-0.12
787.841	0.57
788.015	0.71
788.19	0.37
788.364	0.5
788.538	0.87
788.712	0.73
788.886	0.35
789.06	0.51
789.234	0.7
789.408	0.15
789.582	0.24
789.756	0.4
789.93	0.5
790.104	0.36
790.278	0.36
790.452	0.09
790.626	0.64
790.8	0.38
790.973	0.61
791.147	0.67
791.321	0.77
791.495	0.96
791.669	0.42
791.843	0.78
792.016	0.44
792.19	1.07
792.364	-0.03
792.538	1.17
792.711	0.7
792.885	0.35
793.059	0.11
793.233	-0.13
793.406	0.82
793.58	0.38
793.754	0.46
793.927	0.35
794.101	0.82
794.274	0.5
794.448	0.47
794.622	0.15
794.795	1.17
794.969	0.28
795.142	1.01
795.316	0.41
795.489	0.3
795.663	1.07
795.836	0.54
796.009	0.03
796.183	0.79
796.356	0.66
796.53	0.62
796.703	0.29
796.876	1.19
797.05	0.43
797.223	0.24
797.396	0.58
797.57	0.59
797.743	0.91
797.916	0.84
798.09	0.54
798.263	0.81
798.436	0.63
798.609	0.09
798.782	0.5
798.956	0.72
799.129	0.65
799.302	0.29
799.475	0.49
799.648	0.61
799.821	0.21
799.994	0.57
800.167	-0.05
800.34	0.29
800.514	0.39
800.687	0.28
800.86	0.28
801.033	0.83
801.206	0.94
801.379	0.04
801.551	0.74
801.724	0.82
801.897	1.32
802.07	0.57
802.243	0.07
802.416	0.7
802.589	0.96
802.762	0.75
802.935	0.54
803.107	0.88
803.28	1.05
803.453	0.9
803.626	0.05
803.798	0.53
803.971	0.22
804.144	0.75
804.317	0.58
804.489	0.75
804.662	0.72
804.835	0.67
805.007	0.29
805.18	1.02
805.353	0.61
805.525	0.25
805.698	0.3
805.87	0.81
806.043	1.12
806.215	0.22
806.388	0.16
806.56	0.56
806.733	1.02
806.905	0.63
807.078	0.26
807.25	0.42
807.423	0.88
807.595	0.68
807.768	0.51
807.94	0.83
808.112	0.85
808.285	0.61
808.457	0.2
808.629	0.87
808.802	0.91
808.974	0.8
809.146	0.14
809.318	0.45
809.491	0.76
809.663	0.63
809.835	0.21
810.007	0.66
810.18	0.64
810.352	0.05
810.524	0.18
810.696	0.99
810.868	1.36
811.04	0.57
811.212	0.68
811.384	0.94
811.556	1.15
811.728	0.62
811.901	1.5
812.073	0.48
812.245	0.85
812.417	0.46
812.589	-0.22
812.76	1.11
812.932	1.17
813.104	1.09
813.276	0.3
813.448	1.47
813.62	0.98
813.792	0.64
813.964	0.38
814.136	0.93
814.307	0.62
814.479	0.22
814.651	0.07
814.823	1.86
814.995	0.31
815.166	0.64
815.338	0.36
815.51	0.15
815.681	1.83
815.853	0.82
816.025	0.64
816.196	1.63
816.368	1.47
816.54	0.03
816.711	0.44
816.883	0.94
817.054	2.07
817.226	-0.03
817.398	1.09
817.569	0.44
817.741	0.92
817.912	0.79
818.084	0.75
818.255	0.8
818.426	0.45
818.598	0.26
818.769	0.05
818.941	1.18
819.112	1.76
819.283	0.58
819.455	0.04
819.626	0.5
819.798	1.29
819.969	0.99
820.14	0.54
820.311	0.85
820.483	1.15
820.654	0.88
820.825	0.64
820.996	0.87
821.168	0.35
821.339	0.56
821.51	0.07
821.681	0.94
821.852	1.27
822.023	-0.19
822.195	-0.39
822.366	1.57
822.537	0.51
822.708	0.79
822.879	0.09
823.05	0.95
823.221	0.62
823.392	1.01
823.563	0.76
823.734	1.19
823.905	0.73
824.076	0.55
824.247	0.18
824.418	0.69
824.589	1.48
824.759	0.97
824.93	0.69
825.101	-0.1
825.272	1.99
825.443	1.29
825.614	1.76
825.784	-0.26
825.955	2.01
826.126	2
826.297	1.04
826.467	1.8
826.638	2.33
826.809	0.82
826.98	0.63
827.15	1.55
827.321	1.1
827.492	1.36
827.662	0.36
827.833	2.66
828.003	1.6
828.174	0.06
828.345	0.28
828.515	2.08
828.686	1.07
828.856	0.73
829.027	0.69
829.197	1.11
829.368	1.51
829.538	0.43
829.709	0.01
829.879	0.96
830.049	0.99
830.22	1.13
830.39	0.64
830.56	1.55
830.731	0.74
830.901	0.76
831.072	0.76
831.242	0.99
831.412	1.13
831.582	0.69
831.753	-0.16
831.923	1.69
832.093	1.36
832.263	0.84
832.434	0.29
832.604	0.52
832.774	1.6
832.944	0.64
833.114	0.51
833.284	1.59
833.454	0.73
833.624	0.54
833.795	0.64
833.965	1.95
834.135	2.63
834.305	-0.85
834.475	0.29
834.645	1.44
834.815	0.6
834.985	0.77
835.155	0.17
835.325	1.37
835.494	1.58
835.664	0.78
835.834	0.57
836.004	0.7
836.174	1.68
836.344	1.25
836.514	0.07
836.684	0.89
836.853	0.93
837.023	1.55
837.193	0.25
837.363	2.16
837.532	1.96
837.702	0.55
837.872	-0.13
838.041	1.33
838.211	3.47
838.381	-0.45
838.55	0.68
838.72	3.09
838.89	1.96
839.059	1.08
839.229	0.05
839.398	2.77
839.568	1.66
839.738	0.61
839.907	2.62
840.077	1.35
840.246	0.06
840.416	0.37
840.585	-0.05
840.755	2.68
840.924	2.05
841.093	0.32
841.263	0.89
841.432	1.12
841.602	0.25
841.771	0.33
841.94	1.31
842.11	3.6
842.279	3.17
842.448	0.83
842.617	0.03
842.787	2.74
842.956	0.97
843.125	0.44
843.294	0.97
843.464	3.11
843.633	1.53
843.802	0.81
843.971	1.18
844.14	1.62
844.309	2.36
844.479	-0.6
844.648	-0.44
844.817	2.12
844.986	2.09
845.155	0.67
845.324	0.78
845.493	1.18
845.662	1.05
845.831	1.33
846	1.42
846.169	0.79
846.338	3.19
846.507	1.1
846.676	0.8
846.844	0.94
847.013	2.01
847.182	1.07
847.351	0.65
847.52	1.21
847.689	2.19
847.858	1.36
848.026	0.17
848.195	1.03
848.364	0.82
848.533	0.51
848.701	0.47
848.87	2.03
849.039	2.84
849.207	1.18
849.376	2.72
849.545	2.94
849.713	0.92
849.882	1
850.051	1.07
850.219	1.37
850.388	1.69
850.556	0.06
850.725	0.14
850.893	1.2
851.062	2.23
851.23	1.85
851.399	0.29
851.567	1.27
851.736	1.88
851.904	0.58
852.073	1.03
852.241	1.73
852.41	2.28
852.578	0.76
852.746	0.55
852.915	1.29
853.083	1.71
853.251	0.27
853.42	0.56
853.588	1.74
853.756	2.61
853.924	0.74
854.093	1.22
854.261	1.48
854.429	-0.33
854.597	1.46
854.765	0.04
854.934	3.05
855.102	2.89
855.27	1.92
855.438	3.61
855.606	2.71
855.774	4.77
855.942	-0.28
856.11	-0.41
856.278	2.06
856.446	2.94
856.614	0.63
856.782	-0.26
856.95	2.57
857.118	2.03
857.286	1.92
857.454	0.5
857.622	3.2
857.79	2.57
857.958	0.69
858.126	-0.6
858.294	-0.8
858.462	1.36
858.629	0.88
858.797	1.35
858.965	2.91
859.133	2.3
859.301	1.41
859.468	2.49
859.636	1.24
859.804	3.99
859.971	2.83
860.139	0.65
860.307	2.97
860.474	1.78
860.642	0.65
860.81	0.54
860.977	1.15
861.145	3.58
861.313	2.69
861.48	0.79
861.648	3.33
861.815	1.82
861.983	-1.32
862.15	0.77
862.318	2.72
862.485	4.04
862.653	0.42
862.82	-0.04
862.988	3.64
863.155	3.47
863.322	-0.56
863.49	0.84
863.657	1.94
863.824	5.27
863.992	1.71
864.159	2.96
864.326	4.22
864.494	0.66
864.661	3.77
864.828	-0.33
864.996	4.02
865.163	4.58
865.33	1.72
865.497	-1.24
865.664	-0.77
865.832	-0.62
865.999	1.86
866.166	1.04
866.333	0.85
866.5	0.63
866.667	1.23
866.834	1.8
867.001	5.1
867.168	0.55
867.335	0.51
867.502	0.27
867.669	2.66
867.836	5.77
868.003	2
868.17	4.21
868.337	0.6
868.504	6.65
868.671	-0.85
868.838	1.06
869.005	5.16
869.172	2.7
869.339	1.04
869.505	1.97
869.672	2.74
869.839	3.26
870.006	2.25
870.173	2.15
870.339	4.46
870.506	5.69
870.673	0.74
870.84	2.75
871.006	2.36
871.173	0.81
871.34	2.7
871.506	-0.19
871.673	3.22
871.839	-1.68
872.006	1.9
872.173	-0.76
872.339	3.27
872.506	4.14
872.672	1.25
872.839	-0.17
873.005	3.66
873.172	7.14
873.338	3.15
873.505	2.52
873.671	5.13
873.838	3.46
874.004	-1.27
874.171	2.29
874.337	3.6
874.503	3.3
874.67	1.62
874.836	0.67
875.002	5.6
875.169	2.82
875.335	2.62
875.501	0.3
875.668	4.28
875.834	0.3
876	2.31
876.166	3.74
876.332	4.24
876.499	7.45
876.665	1.33
876.831	0.84
876.997	6.04
877.163	3.99
877.329	1.69
877.495	1.65
877.662	4.32
877.828	1.47
877.994	0.83
878.16	-1.37
878.326	2.87
878.492	3.89
878.658	1.69
878.824	5.26
878.99	4.58
879.156	1.94
879.322	5.42
879.487	2.09
879.653	2.66
879.819	2.67
879.985	0.19
880.151	1.79
880.317	3.57
880.483	4.88
880.648	3.85
880.814	-0.65
880.98	1.3
881.146	-1.14
881.312	0.53
881.477	2.42
881.643	4.02
881.809	4.09
881.974	4.03
882.14	-1.5
882.306	2.34
882.471	6.09
882.637	-0.51
882.803	2.92
882.968	6.28
883.134	8.29
883.299	2.56
883.465	2.62
883.63	2.11
883.796	3.75
883.961	4.54
884.127	1.34
884.292	-2.54
884.458	-0.39
884.623	-0.39
