Data from Apollo_Calib_20240827__AbsoluteIrradiance__49__23-58-00-960.txt Node

Date: Tue Aug 27 23:58:00 BST 2024
User: biology
Spectrometer: FLMT08252
Trigger mode: 0
Integration Time (sec): 5.000000E-1
Scans to average: 5
Electric dark correction enabled: true
Nonlinearity correction enabled: false
Boxcar width: 0
XAxis mode: Wavelengths
Number of Pixels in Spectrum: 3648
>>>>>Begin Spectral Data<<<<<
179.588	-0
179.809	-0
180.03	-0
180.251	-0
180.473	-0
180.694	0
180.915	0
181.136	-0
181.357	0
181.578	-0
181.799	-0
182.02	-0
182.241	-0
182.462	-0
182.683	0
182.904	-0
183.125	0
183.346	-0
183.567	0
183.788	0
184.009	0
184.23	0
184.451	0
184.672	0
184.892	0
185.113	0
185.334	0
185.555	0
185.776	0
185.996	0
186.217	0
186.438	0
186.659	0
186.879	0
187.1	0
187.321	0
187.541	0
187.762	0
187.983	0
188.203	0
188.424	0
188.644	0
188.865	0
189.086	0
189.306	0
189.527	0
189.747	0
189.968	0
190.188	0
190.409	0
190.629	0
190.849	0
191.07	0
191.29	0
191.511	0
191.731	0
191.951	0
192.172	0
192.392	0
192.612	0
192.833	0
193.053	0
193.273	0
193.493	0
193.714	0
193.934	0
194.154	0
194.374	0
194.594	0
194.815	0
195.035	0
195.255	0
195.475	0
195.695	0
195.915	0
196.135	0
196.355	0
196.575	0
196.795	0
197.015	0
197.235	0
197.455	0
197.675	0
197.895	0
198.115	0
198.335	0
198.555	0
198.775	0
198.995	0
199.214	0
199.434	0
199.654	0
199.874	0
200.094	3.43
200.313	2.2
200.533	2.26
200.753	1.71
200.973	3.67
201.192	2.78
201.412	1.5
201.632	1.63
201.851	3.49
202.071	1.75
202.291	1.38
202.51	1.64
202.73	2.92
202.95	1.58
203.169	1.58
203.389	1.88
203.608	2.22
203.828	1.87
204.047	1.37
204.267	2.01
204.486	2.19
204.706	2
204.925	1.56
205.145	1.59
205.364	1.92
205.583	2.53
205.803	1.08
206.022	1.48
206.242	1.45
206.461	1.56
206.68	1.19
206.9	1.58
207.119	2.21
207.338	2.09
207.557	1.31
207.777	1.29
207.996	1.39
208.215	2.08
208.434	1.2
208.654	0.82
208.873	1.54
209.092	1.98
209.311	1.38
209.53	1.15
209.749	1.47
209.968	1.18
210.187	0.9
210.407	0.89
210.626	1.3
210.845	1.13
211.064	1.42
211.283	0.9
211.502	1.51
211.721	0.88
211.94	1.16
212.159	1.46
212.377	1.52
212.596	1.35
212.815	1.21
213.034	1.32
213.253	1.43
213.472	1.38
213.691	0.92
213.91	0.89
214.128	0.9
214.347	1.19
214.566	0.6
214.785	0.66
215.003	1.1
215.222	1.14
215.441	1.09
215.66	0.74
215.878	0.97
216.097	1.28
216.316	0.83
216.534	0.96
216.753	1.13
216.972	0.88
217.19	0.96
217.409	0.77
217.627	0.66
217.846	0.7
218.064	0.9
218.283	0.67
218.501	1.21
218.72	1.09
218.938	0.62
219.157	0.73
219.375	1.3
219.594	1.07
219.812	0.51
220.031	0.49
220.249	1.22
220.467	1.14
220.686	0.69
220.904	0.58
221.122	0.76
221.341	1.05
221.559	0.8
221.777	0.54
221.995	0.72
222.214	0.78
222.432	0.81
222.65	0.81
222.868	0.68
223.086	0.77
223.305	0.89
223.523	0.71
223.741	1.13
223.959	0.73
224.177	0.58
224.395	0.6
224.613	0.75
224.831	0.99
225.049	0.49
225.267	0.59
225.485	0.86
225.703	0.74
225.921	0.81
226.139	0.53
226.357	0.8
226.575	0.78
226.793	0.47
227.011	1.33
227.229	0.82
227.447	0.87
227.665	0.54
227.883	0.35
228.1	0.59
228.318	0.78
228.536	0.35
228.754	0.49
228.972	0.66
229.189	0.74
229.407	0.61
229.625	0.57
229.843	0.77
230.06	0.78
230.278	0.49
230.496	0.57
230.713	0.7
230.931	0.82
231.149	0.5
231.366	0.55
231.584	0.58
231.801	0.98
232.019	0.46
232.236	0.56
232.454	0.41
232.671	0.73
232.889	0.58
233.106	0.42
233.324	0.57
233.541	0.52
233.759	0.57
233.976	0.35
234.194	0.51
234.411	0.46
234.628	0.49
234.846	0.44
235.063	0.59
235.28	0.53
235.498	0.53
235.715	0.47
235.932	0.76
236.149	0.57
236.367	0.4
236.584	0.58
236.801	0.49
237.018	0.58
237.236	0.52
237.453	0.31
237.67	0.65
237.887	0.45
238.104	0.53
238.321	0.49
238.538	0.42
238.755	0.7
238.973	0.34
239.19	0.56
239.407	0.54
239.624	0.39
239.841	0.43
240.058	0.4
240.275	0.6
240.492	0.53
240.709	0.46
240.925	0.5
241.142	0.48
241.359	0.4
241.576	0.42
241.793	0.45
242.01	0.49
242.227	0.61
242.444	0.54
242.66	0.57
242.877	0.5
243.094	0.47
243.311	0.48
243.527	0.39
243.744	0.47
243.961	0.53
244.178	0.37
244.394	0.55
244.611	0.59
244.828	0.68
245.044	0.4
245.261	0.46
245.477	0.45
245.694	0.49
245.911	0.41
246.127	0.43
246.344	0.53
246.56	0.56
246.777	0.43
246.993	0.43
247.21	0.58
247.426	0.64
247.643	0.37
247.859	0.34
248.076	0.34
248.292	0.61
248.508	0.41
248.725	0.49
248.941	0.5
249.157	0.57
249.374	0.42
249.59	0.41
249.806	0.48
250.023	0.53
250.239	0.34
250.455	0.31
250.671	0.41
250.888	0.51
251.104	0.44
251.32	0.38
251.536	0.49
251.752	0.43
251.969	0.39
252.185	0.43
252.401	0.6
252.617	0.47
252.833	0.38
253.049	0.49
253.265	0.38
253.481	0.46
253.697	0.36
253.913	0.3
254.129	0.36
254.345	0.43
254.561	0.4
254.777	0.37
254.993	0.53
255.209	0.39
255.425	0.4
255.641	0.37
255.857	0.5
256.073	0.45
256.288	0.33
256.504	0.28
256.72	0.47
256.936	0.5
257.152	0.38
257.367	0.3
257.583	0.45
257.799	0.43
258.015	0.35
258.23	0.36
258.446	0.52
258.662	0.38
258.877	0.36
259.093	0.34
259.309	0.38
259.524	0.47
259.74	0.36
259.955	0.25
260.171	0.32
260.387	0.39
260.602	0.48
260.818	0.38
261.033	0.34
261.249	0.36
261.464	0.35
261.68	0.29
261.895	0.4
262.11	0.44
262.326	0.38
262.541	0.27
262.757	0.4
262.972	0.41
263.187	0.34
263.403	0.38
263.618	0.43
263.833	0.4
264.049	0.33
264.264	0.27
264.479	0.4
264.694	0.53
264.91	0.25
265.125	0.32
265.34	0.43
265.555	0.56
265.77	0.33
265.986	0.29
266.201	0.44
266.416	0.44
266.631	0.35
266.846	0.35
267.061	0.42
267.276	0.4
267.491	0.22
267.706	0.39
267.921	0.44
268.136	0.39
268.351	0.37
268.566	0.23
268.781	0.42
268.996	0.39
269.211	0.37
269.426	0.26
269.641	0.35
269.856	0.46
270.071	0.34
270.285	0.24
270.5	0.34
270.715	0.38
270.93	0.33
271.145	0.36
271.359	0.42
271.574	0.29
271.789	0.36
272.004	0.33
272.218	0.32
272.433	0.39
272.648	0.28
272.862	0.43
273.077	0.35
273.292	0.43
273.506	0.28
273.721	0.3
273.936	0.36
274.15	0.43
274.365	0.22
274.579	0.39
274.794	0.41
275.008	0.39
275.223	0.21
275.437	0.29
275.652	0.5
275.866	0.31
276.081	0.35
276.295	0.45
276.509	0.29
276.724	0.34
276.938	0.28
277.153	0.36
277.367	0.35
277.581	0.28
277.796	0.29
278.01	0.31
278.224	0.37
278.438	0.42
278.653	0.28
278.867	0.29
279.081	0.33
279.295	0.29
279.51	0.33
279.724	0.23
279.938	0.34
280.152	0.35
280.366	0.26
280.58	0.33
280.794	0.38
281.008	0.38
281.222	0.4
281.437	0.43
281.651	0.36
281.865	0.39
282.079	0.3
282.293	0.18
282.507	0.26
282.721	0.28
282.935	0.29
283.148	0.22
283.362	0.26
283.576	0.25
283.79	0.33
284.004	0.23
284.218	0.4
284.432	0.3
284.646	0.31
284.859	0.25
285.073	0.28
285.287	0.33
285.501	0.29
285.714	0.31
285.928	0.28
286.142	0.31
286.356	0.3
286.569	0.27
286.783	0.45
286.997	0.35
287.21	0.29
287.424	0.3
287.637	0.27
287.851	0.25
288.065	0.32
288.278	0.3
288.492	0.32
288.705	0.24
288.919	0.32
289.132	0.23
289.346	0.3
289.559	0.23
289.773	0.24
289.986	0.26
290.2	0.25
290.413	0.36
290.626	0.23
290.84	0.27
291.053	0.27
291.267	0.33
291.48	0.33
291.693	0.28
291.906	0.26
292.12	0.3
292.333	0.24
292.546	0.24
292.76	0.4
292.973	0.28
293.186	0.27
293.399	0.25
293.612	0.33
293.826	0.28
294.039	0.25
294.252	0.26
294.465	0.33
294.678	0.27
294.891	0.27
295.104	0.23
295.317	0.26
295.53	0.28
295.743	0.32
295.956	0.31
296.169	0.33
296.382	0.3
296.595	0.26
296.808	0.22
297.021	0.37
297.234	0.31
297.447	0.27
297.66	0.26
297.873	0.3
298.086	0.35
298.299	0.26
298.511	0.17
298.724	0.28
298.937	0.28
299.15	0.2
299.363	0.31
299.575	0.28
299.788	0.3
300.001	0.23
300.213	0.27
300.426	0.19
300.639	0.23
300.852	0.18
301.064	0.27
301.277	0.36
301.489	0.29
301.702	0.29
301.915	0.27
302.127	0.28
302.34	0.25
302.552	0.31
302.765	0.22
302.977	0.3
303.19	0.26
303.402	0.26
303.615	0.25
303.827	0.27
304.04	0.24
304.252	0.31
304.464	0.25
304.677	0.41
304.889	0.27
305.102	0.21
305.314	0.24
305.526	0.32
305.739	0.26
305.951	0.21
306.163	0.24
306.375	0.34
306.588	0.23
306.8	0.25
307.012	0.2
307.224	0.29
307.436	0.34
307.649	0.17
307.861	0.27
308.073	0.3
308.285	0.21
308.497	0.21
308.709	0.22
308.921	0.29
309.133	0.31
309.346	0.25
309.558	0.29
309.77	0.29
309.982	0.29
310.194	0.3
310.406	0.26
310.617	0.36
310.829	0.27
311.041	0.26
311.253	0.24
311.465	0.25
311.677	0.26
311.889	0.25
312.101	0.23
312.313	0.28
312.524	0.27
312.736	0.2
312.948	0.23
313.16	0.37
313.372	0.3
313.583	0.29
313.795	0.24
314.007	0.22
314.218	0.29
314.43	0.3
314.642	0.21
314.853	0.19
315.065	0.31
315.277	0.21
315.488	0.28
315.7	0.33
315.912	0.27
316.123	0.28
316.335	0.23
316.546	0.33
316.758	0.26
316.969	0.22
317.181	0.29
317.392	0.23
317.604	0.29
317.815	0.19
318.026	0.25
318.238	0.23
318.449	0.25
318.661	0.15
318.872	0.21
319.083	0.22
319.295	0.32
319.506	0.24
319.717	0.27
319.929	0.3
320.14	0.32
320.351	0.26
320.562	0.24
320.774	0.27
320.985	0.27
321.196	0.26
321.407	0.17
321.618	0.33
321.829	0.29
322.041	0.24
322.252	0.25
322.463	0.29
322.674	0.32
322.885	0.18
323.096	0.27
323.307	0.24
323.518	0.28
323.729	0.19
323.94	0.24
324.151	0.2
324.362	0.32
324.573	0.25
324.784	0.21
324.995	0.31
325.206	0.29
325.417	0.27
325.628	0.23
325.838	0.27
326.049	0.26
326.26	0.32
326.471	0.22
326.682	0.29
326.892	0.24
327.103	0.22
327.314	0.25
327.525	0.34
327.735	0.26
327.946	0.29
328.157	0.22
328.368	0.28
328.578	0.26
328.789	0.31
328.999	0.24
329.21	0.25
329.421	0.34
329.631	0.26
329.842	0.19
330.052	0.27
330.263	0.31
330.473	0.27
330.684	0.24
330.894	0.24
331.105	0.27
331.315	0.25
331.526	0.21
331.736	0.34
331.947	0.27
332.157	0.3
332.367	0.23
332.578	0.31
332.788	0.28
332.999	0.27
333.209	0.28
333.419	0.24
333.629	0.29
333.84	0.32
334.05	0.26
334.26	0.35
334.47	0.3
334.681	0.28
334.891	0.23
335.101	0.27
335.311	0.35
335.521	0.26
335.732	0.23
335.942	0.31
336.152	0.32
336.362	0.3
336.572	0.27
336.782	0.29
336.992	0.24
337.202	0.24
337.412	0.23
337.622	0.3
337.832	0.25
338.042	0.24
338.252	0.23
338.462	0.26
338.672	0.29
338.882	0.23
339.092	0.27
339.302	0.3
339.511	0.28
339.721	0.21
339.931	0.19
340.141	0.29
340.351	0.36
340.561	0.26
340.77	0.27
340.98	0.25
341.19	0.3
341.4	0.21
341.609	0.22
341.819	0.23
342.029	0.14
342.238	0.23
342.448	0.23
342.658	0.31
342.867	0.22
343.077	0.26
343.286	0.26
343.496	0.24
343.706	0.32
343.915	0.2
344.125	0.22
344.334	0.26
344.544	0.18
344.753	0.27
344.963	0.24
345.172	0.27
345.381	0.25
345.591	0.19
345.8	0.23
346.01	0.29
346.219	0.27
346.428	0.12
346.638	0.24
346.847	0.24
347.056	0.36
347.266	0.25
347.475	0.23
347.684	0.29
347.893	0.27
348.103	0.3
348.312	0.21
348.521	0.26
348.73	0.24
348.94	0.24
349.149	0.22
349.358	0.21
349.567	0.17
349.776	0.21
349.985	0.21
350.194	0.29
350.403	0.31
350.612	0.21
350.821	0.21
351.03	0.28
351.239	0.21
351.448	0.26
351.657	0.19
351.866	0.37
352.075	0.2
352.284	0.29
352.493	0.22
352.702	0.29
352.911	0.28
353.12	0.25
353.329	0.22
353.538	0.26
353.746	0.22
353.955	0.21
354.164	0.28
354.373	0.23
354.582	0.27
354.79	0.24
354.999	0.31
355.208	0.19
355.416	0.28
355.625	0.21
355.834	0.23
356.042	0.3
356.251	0.24
356.46	0.21
356.668	0.24
356.877	0.29
357.085	0.31
357.294	0.15
357.503	0.24
357.711	0.22
357.92	0.42
358.128	0.25
358.337	0.24
358.545	0.25
358.754	0.24
358.962	0.3
359.17	0.23
359.379	0.25
359.587	0.26
359.796	0.22
360.004	0.28
360.212	0.3
360.421	0.34
360.629	0.26
360.837	0.21
361.046	0.28
361.254	0.34
361.462	0.26
361.67	0.25
361.879	0.22
362.087	0.28
362.295	0.26
362.503	0.21
362.711	0.21
362.92	0.25
363.128	0.25
363.336	0.2
363.544	0.18
363.752	0.21
363.96	0.24
364.168	0.21
364.376	0.22
364.584	0.26
364.792	0.3
365	0.25
365.208	0.26
365.416	0.28
365.624	0.28
365.832	0.26
366.04	0.33
366.248	0.28
366.456	0.25
366.664	0.27
366.872	0.25
367.079	0.24
367.287	0.24
367.495	0.28
367.703	0.23
367.911	0.22
368.118	0.23
368.326	0.23
368.534	0.19
368.742	0.28
368.949	0.2
369.157	0.19
369.365	0.26
369.572	0.24
369.78	0.21
369.988	0.31
370.195	0.27
370.403	0.25
370.61	0.22
370.818	0.27
371.026	0.32
371.233	0.2
371.441	0.26
371.648	0.23
371.856	0.26
372.063	0.29
372.271	0.22
372.478	0.21
372.685	0.23
372.893	0.31
373.1	0.22
373.308	0.18
373.515	0.36
373.722	0.27
373.93	0.29
374.137	0.29
374.344	0.31
374.552	0.32
374.759	0.33
374.966	0.31
375.173	0.26
375.381	0.29
375.588	0.23
375.795	0.22
376.002	0.28
376.209	0.24
376.417	0.23
376.624	0.24
376.831	0.27
377.038	0.3
377.245	0.21
377.452	0.26
377.659	0.28
377.866	0.26
378.073	0.26
378.28	0.3
378.487	0.3
378.694	0.28
378.901	0.22
379.108	0.23
379.315	0.32
379.522	0.32
379.729	0.28
379.936	0.28
380.143	0.24
380.35	0.31
380.557	0.29
380.763	0.3
380.97	0.29
381.177	0.29
381.384	0.28
381.591	0.24
381.797	0.29
382.004	0.31
382.211	0.29
382.418	0.32
382.624	0.31
382.831	0.27
383.038	0.3
383.244	0.27
383.451	0.28
383.658	0.3
383.864	0.25
384.071	0.25
384.277	0.33
384.484	0.25
384.69	0.34
384.897	0.25
385.103	0.24
385.31	0.26
385.516	0.27
385.723	0.26
385.929	0.26
386.136	0.22
386.342	0.27
386.549	0.26
386.755	0.34
386.961	0.34
387.168	0.28
387.374	0.26
387.58	0.32
387.787	0.3
387.993	0.25
388.199	0.26
388.406	0.26
388.612	0.31
388.818	0.25
389.024	0.29
389.231	0.28
389.437	0.36
389.643	0.28
389.849	0.29
390.055	0.28
390.261	0.31
390.467	0.32
390.674	0.28
390.88	0.32
391.086	0.33
391.292	0.26
391.498	0.32
391.704	0.31
391.91	0.3
392.116	0.33
392.322	0.23
392.528	0.32
392.734	0.32
392.94	0.31
393.146	0.3
393.352	0.3
393.557	0.27
393.763	0.32
393.969	0.36
394.175	0.3
394.381	0.36
394.587	0.23
394.792	0.31
394.998	0.36
395.204	0.33
395.41	0.25
395.615	0.3
395.821	0.35
396.027	0.34
396.233	0.3
396.438	0.36
396.644	0.43
396.85	0.36
397.055	0.3
397.261	0.36
397.466	0.48
397.672	0.36
397.878	0.42
398.083	0.39
398.289	0.32
398.494	0.36
398.7	0.34
398.905	0.22
399.111	0.45
399.316	0.31
399.522	0.39
399.727	0.34
399.932	0.35
400.138	0.34
400.343	0.39
400.549	0.31
400.754	0.39
400.959	0.35
401.165	0.35
401.37	0.32
401.575	0.42
401.78	0.33
401.986	0.37
402.191	0.35
402.396	0.36
402.601	0.41
402.807	0.41
403.012	0.41
403.217	0.45
403.422	0.47
403.627	0.44
403.832	0.37
404.037	0.43
404.243	0.39
404.448	0.44
404.653	0.42
404.858	0.46
405.063	0.45
405.268	0.44
405.473	0.4
405.678	0.43
405.883	0.62
406.088	0.49
406.293	0.38
406.498	0.44
406.703	0.49
406.907	0.5
407.112	0.44
407.317	0.54
407.522	0.6
407.727	0.49
407.932	0.53
408.136	0.61
408.341	0.56
408.546	0.59
408.751	0.55
408.956	0.59
409.16	0.69
409.365	0.6
409.57	0.65
409.774	0.61
409.979	0.7
410.184	0.72
410.388	0.65
410.593	0.76
410.798	0.73
411.002	0.76
411.207	0.76
411.411	0.83
411.616	0.77
411.82	0.84
412.025	0.86
412.229	0.86
412.434	0.96
412.638	0.95
412.843	0.92
413.047	1
413.252	0.87
413.456	0.99
413.66	1.05
413.865	1
414.069	1.19
414.273	1.11
414.478	1.11
414.682	1.17
414.886	1.23
415.091	1.17
415.295	1.22
415.499	1.39
415.703	1.37
415.908	1.5
416.112	1.41
416.316	1.57
416.52	1.61
416.724	1.56
416.929	1.61
417.133	1.86
417.337	1.76
417.541	1.82
417.745	1.87
417.949	2.02
418.153	2.06
418.357	2.03
418.561	2.25
418.765	2.27
418.969	2.37
419.173	2.54
419.377	2.48
419.581	2.72
419.785	2.69
419.989	2.73
420.193	2.81
420.397	2.87
420.601	3.09
420.804	3.21
421.008	3.11
421.212	3.36
421.416	3.29
421.62	3.29
421.823	3.42
422.027	3.65
422.231	3.56
422.435	3.56
422.638	3.62
422.842	3.68
423.046	3.77
423.249	4.03
423.453	3.99
423.657	4.19
423.86	4.25
424.064	4.42
424.268	4.53
424.471	4.55
424.675	4.81
424.878	4.84
425.082	4.99
425.285	5.23
425.489	5.19
425.692	5.34
425.896	5.28
426.099	5.54
426.303	5.69
426.506	5.89
426.71	6.01
426.913	6.24
427.116	6.39
427.32	6.32
427.523	6.47
427.726	6.75
427.93	6.82
428.133	7.22
428.336	7.38
428.54	7.47
428.743	7.75
428.946	7.98
429.149	7.95
429.353	8.06
429.556	8.07
429.759	8.11
429.962	8.26
430.165	8.42
430.368	8.08
430.571	8.15
430.775	8.2
430.978	8.13
431.181	8.21
431.384	8.32
431.587	8.32
431.79	8.73
431.993	8.74
432.196	9
432.399	9.33
432.602	9.47
432.805	9.6
433.008	10.21
433.211	9.99
433.414	10.29
433.616	10.43
433.819	10.27
434.022	10.48
434.225	10.6
434.428	10.73
434.631	11.25
434.833	10.85
435.036	11.06
435.239	11.31
435.442	11.44
435.645	11.65
435.847	11.68
436.05	12
436.253	12.1
436.455	12.28
436.658	12.09
436.861	12.45
437.063	12.62
437.266	12.64
437.468	12.79
437.671	13.25
437.874	13.22
438.076	13.11
438.279	13.55
438.481	13.47
438.684	14.36
438.886	13.87
439.089	14.24
439.291	14.17
439.494	14.6
439.696	14.77
439.899	15.3
440.101	15.69
440.303	15.97
440.506	16.65
440.708	16.37
440.91	16.59
441.113	16.75
441.315	17.03
441.517	16.93
441.72	17.48
441.922	17.09
442.124	16.98
442.326	17.32
442.529	17.42
442.731	17.58
442.933	17.87
443.135	17.55
443.337	17.65
443.539	18.23
443.742	17.85
443.944	18.52
444.146	18.08
444.348	18.15
444.55	18.1
444.752	18.24
444.954	18.19
445.156	18.12
445.358	18.58
445.56	18.97
445.762	18.62
445.964	19.09
446.166	18.62
446.368	18.75
446.57	18.57
446.772	18.22
446.974	18.12
447.175	18.43
447.377	18.06
447.579	18.52
447.781	17.98
447.983	17.88
448.184	17.46
448.386	17.74
448.588	17.33
448.79	17.28
448.991	17.49
449.193	17.66
449.395	16.97
449.597	16.44
449.798	16.5
450	16.06
450.202	15.87
450.403	15.86
450.605	15.8
450.806	15.43
451.008	15.27
451.21	15.05
451.411	14.55
451.613	13.87
451.814	14.07
452.016	13.99
452.217	13.34
452.419	13.19
452.62	12.85
452.821	12.77
453.023	12.62
453.224	12.11
453.426	11.79
453.627	11.21
453.828	11.2
454.03	11.29
454.231	11.26
454.432	11.03
454.634	10.77
454.835	10.61
455.036	10.39
455.238	10.14
455.439	9.76
455.64	9.47
455.841	9.37
456.042	9.54
456.244	9.15
456.445	8.91
456.646	8.58
456.847	8.56
457.048	8.44
457.249	8.52
457.45	8.14
457.651	7.74
457.852	7.6
458.054	7.3
458.255	7.17
458.456	7.29
458.657	7.19
458.858	6.61
459.058	6.68
459.259	6.67
459.46	6.4
459.661	6.44
459.862	6.51
460.063	6.37
460.264	6.29
460.465	5.94
460.666	5.93
460.866	5.72
461.067	5.54
461.268	5.55
461.469	5.6
461.67	5.36
461.87	5.15
462.071	5.27
462.272	5.11
462.473	5.08
462.673	5.29
462.874	5.11
463.075	5.1
463.275	5.06
463.476	5.15
463.676	5.08
463.877	4.97
464.078	4.88
464.278	4.93
464.479	4.84
464.679	4.74
464.88	4.73
465.08	4.67
465.281	4.41
465.481	4.27
465.682	4.11
465.882	4.17
466.083	4.05
466.283	4.04
466.483	3.85
466.684	3.67
466.884	3.61
467.085	3.63
467.285	3.79
467.485	3.63
467.686	3.52
467.886	3.42
468.086	3.34
468.286	3.33
468.487	3.38
468.687	3.23
468.887	3.2
469.087	3.33
469.287	3.21
469.488	3.08
469.688	3.08
469.888	3.22
470.088	3.15
470.288	2.99
470.488	2.93
470.688	2.87
470.888	2.86
471.088	2.71
471.288	2.83
471.488	2.77
471.688	2.7
471.888	2.64
472.088	2.74
472.288	2.69
472.488	2.61
472.688	2.53
472.888	2.62
473.088	2.59
473.288	2.48
473.488	2.37
473.688	2.57
473.887	2.45
474.087	2.41
474.287	2.44
474.487	2.37
474.687	2.35
474.886	2.32
475.086	2.31
475.286	2.35
475.486	2.3
475.685	2.17
475.885	2.17
476.085	2.27
476.284	2.23
476.484	2.18
476.684	2.18
476.883	2.29
477.083	2.16
477.282	2.11
477.482	2.13
477.681	2.14
477.881	2.05
478.08	2.09
478.28	2.03
478.479	2.06
478.679	2.09
478.878	2.01
479.078	2.04
479.277	2.1
479.477	2.02
479.676	2.03
479.875	2.03
480.075	1.98
480.274	2.02
480.473	2.01
480.673	2
480.872	2.06
481.071	2.02
481.271	2.02
481.47	1.98
481.669	2.03
481.868	1.95
482.067	1.97
482.267	1.95
482.466	1.92
482.665	1.95
482.864	1.96
483.063	1.97
483.262	1.99
483.461	2.05
483.661	2.07
483.86	1.97
484.059	2.02
484.258	1.99
484.457	1.99
484.656	2.03
484.855	2.08
485.054	1.9
485.253	1.96
485.452	1.95
485.651	2.03
485.849	2.05
486.048	1.99
486.247	2.02
486.446	2.06
486.645	2.03
486.844	2.06
487.043	2.04
487.241	2.04
487.44	2.09
487.639	2.16
487.838	2.14
488.037	2.09
488.235	2.21
488.434	2.15
488.633	2.03
488.831	2.22
489.03	2.24
489.229	2.2
489.427	2.21
489.626	2.28
489.825	2.24
490.023	2.29
490.222	2.25
490.42	2.29
490.619	2.37
490.817	2.37
491.016	2.3
491.214	2.38
491.413	2.42
491.611	2.38
491.81	2.37
492.008	2.42
492.207	2.52
492.405	2.51
492.604	2.47
492.802	2.55
493	2.61
493.199	2.57
493.397	2.64
493.595	2.69
493.794	2.65
493.992	2.79
494.19	2.72
494.388	2.79
494.587	2.73
494.785	2.79
494.983	2.74
495.181	2.85
495.379	2.89
495.578	2.93
495.776	2.92
495.974	2.86
496.172	2.96
496.37	3.07
496.568	3.11
496.766	3.11
496.964	3.15
497.162	3.18
497.36	3.2
497.558	3.22
497.756	3.31
497.954	3.27
498.152	3.35
498.35	3.44
498.548	3.33
498.746	3.32
498.944	3.39
499.142	3.44
499.34	3.53
499.538	3.62
499.736	3.51
499.933	3.63
500.131	3.63
500.329	3.8
500.527	3.71
500.725	3.84
500.922	3.82
501.12	3.87
501.318	3.98
501.516	3.95
501.713	4
501.911	4
502.109	3.95
502.306	4.11
502.504	4.04
502.701	4.1
502.899	4.13
503.097	4.33
503.294	4.21
503.492	4.34
503.689	4.4
503.887	4.37
504.084	4.4
504.282	4.48
504.479	4.36
504.677	4.6
504.874	4.56
505.072	4.41
505.269	4.72
505.466	4.66
505.664	4.77
505.861	4.63
506.059	4.73
506.256	4.77
506.453	4.86
506.651	4.96
506.848	4.98
507.045	4.95
507.242	4.92
507.44	5.02
507.637	5.08
507.834	5.04
508.031	5.26
508.229	5.11
508.426	5.11
508.623	5.2
508.82	5.35
509.017	5.28
509.214	5.29
509.411	5.36
509.608	5.35
509.805	5.52
510.003	5.42
510.2	5.54
510.397	5.65
510.594	5.53
510.791	5.65
510.988	5.6
511.184	5.63
511.381	5.58
511.578	5.67
511.775	5.86
511.972	5.75
512.169	5.8
512.366	5.82
512.563	5.95
512.76	5.93
512.956	6.05
513.153	5.93
513.35	5.93
513.547	5.88
513.744	6
513.94	5.99
514.137	6.17
514.334	6.09
514.53	6.14
514.727	6.34
514.924	6.24
515.12	6.23
515.317	6.27
515.514	6.21
515.71	6.21
515.907	6.45
516.103	6.43
516.3	6.35
516.497	6.5
516.693	6.47
516.89	6.5
517.086	6.53
517.283	6.55
517.479	6.45
517.676	6.66
517.872	6.64
518.068	6.64
518.265	6.6
518.461	6.57
518.658	6.7
518.854	6.69
519.05	6.77
519.247	6.84
519.443	6.75
519.639	6.97
519.836	6.7
520.032	6.78
520.228	6.95
520.424	6.91
520.621	6.85
520.817	6.99
521.013	6.94
521.209	7.08
521.405	7.11
521.601	7.01
521.798	6.96
521.994	7.02
522.19	6.98
522.386	7.04
522.582	7.09
522.778	7.21
522.974	7.07
523.17	7.12
523.366	7.08
523.562	7.18
523.758	7.2
523.954	7.06
524.15	7.2
524.346	7.25
524.542	7.28
524.738	7.21
524.934	7.35
525.129	7.33
525.325	7.26
525.521	7.24
525.717	7.5
525.913	7.31
526.109	7.34
526.304	7.49
526.5	7.45
526.696	7.43
526.892	7.38
527.087	7.56
527.283	7.57
527.479	7.56
527.674	7.31
527.87	7.52
528.066	7.52
528.261	7.52
528.457	7.46
528.653	7.59
528.848	7.62
529.044	7.68
529.239	7.54
529.435	7.6
529.63	7.52
529.826	7.58
530.021	7.57
530.217	7.67
530.412	7.6
530.608	7.62
530.803	7.54
530.999	7.51
531.194	7.68
531.389	7.7
531.585	7.67
531.78	7.79
531.975	7.67
532.171	7.75
532.366	7.73
532.561	7.75
532.757	7.72
532.952	7.88
533.147	7.64
533.342	7.77
533.538	7.67
533.733	7.91
533.928	7.61
534.123	7.82
534.318	7.82
534.513	7.79
534.709	7.9
534.904	7.84
535.099	7.86
535.294	7.85
535.489	7.93
535.684	7.77
535.879	7.83
536.074	7.94
536.269	7.9
536.464	7.96
536.659	7.91
536.854	7.86
537.049	7.98
537.244	7.89
537.439	7.83
537.634	7.93
537.828	7.98
538.023	7.9
538.218	7.92
538.413	7.83
538.608	7.93
538.803	7.92
538.997	7.91
539.192	7.89
539.387	7.89
539.582	7.89
539.776	7.89
539.971	7.95
540.166	7.99
540.36	7.92
540.555	8.1
540.75	7.98
540.944	7.98
541.139	8.05
541.334	8.01
541.528	8
541.723	8.1
541.917	8.06
542.112	7.96
542.306	7.91
542.501	7.87
542.695	7.98
542.89	7.99
543.084	7.97
543.279	8.07
543.473	8.04
543.668	8.1
543.862	7.89
544.056	7.91
544.251	8.05
544.445	8.11
544.64	8.11
544.834	7.83
545.028	7.65
545.222	8.05
545.417	8.26
545.611	8.07
545.805	8.02
546	7.83
546.194	8.1
546.388	8.13
546.582	7.97
546.776	8.01
546.97	8.06
547.165	8.03
547.359	8.02
547.553	8
547.747	8.03
547.941	8.23
548.135	8
548.329	8.11
548.523	8.08
548.717	8.01
548.911	8.05
549.105	8.04
549.299	8.13
549.493	8.1
549.687	7.98
549.881	8.17
550.075	8.09
550.269	7.96
550.463	8.14
550.657	8.17
550.85	8.09
551.044	8.02
551.238	8.11
551.432	8.14
551.626	8.17
551.82	8.09
552.013	8.01
552.207	8.13
552.401	8.16
552.594	8.09
552.788	7.99
552.982	8.11
553.176	8.01
553.369	8.21
553.563	8.11
553.756	8.05
553.95	8.13
554.144	8.14
554.337	8.17
554.531	7.92
554.724	8.15
554.918	8.2
555.111	8.08
555.305	8.09
555.498	8.04
555.692	8.19
555.885	8.19
556.079	8.1
556.272	8.15
556.466	8.04
556.659	8.08
556.852	8.13
557.046	8.03
557.239	7.97
557.432	8.07
557.626	8.16
557.819	8.21
558.012	8.11
558.206	8.21
558.399	8.1
558.592	8.09
558.785	8
558.979	8.07
559.172	8.05
559.365	8.09
559.558	8.03
559.751	7.98
559.944	8.17
560.138	8.07
560.331	8.12
560.524	8.19
560.717	8.12
560.91	8.08
561.103	8.06
561.296	7.97
561.489	8.16
561.682	8.24
561.875	8.11
562.068	8.18
562.261	8.06
562.454	8.19
562.647	8.1
562.84	8.14
563.032	8.15
563.225	8.05
563.418	8.07
563.611	8.16
563.804	8.11
563.997	8.03
564.19	7.91
564.382	8.15
564.575	8.14
564.768	8
564.961	8.12
565.153	8.03
565.346	7.97
565.539	8.19
565.731	8.07
565.924	8.21
566.117	8.24
566.309	8.13
566.502	8.05
566.695	8.06
566.887	8.08
567.08	8.08
567.272	8.12
567.465	7.94
567.657	8.1
567.85	7.96
568.042	8.14
568.235	8.08
568.427	7.96
568.62	8.05
568.812	7.96
569.005	8.09
569.197	7.96
569.389	8.09
569.582	8.07
569.774	8.05
569.966	8
570.159	7.91
570.351	7.96
570.543	8.04
570.736	8
570.928	7.84
571.12	7.96
571.312	7.93
571.505	7.77
571.697	8.04
571.889	8.04
572.081	8.02
572.273	7.93
572.465	8
572.658	7.94
572.85	7.99
573.042	8.05
573.234	7.91
573.426	7.85
573.618	7.92
573.81	7.95
574.002	7.91
574.194	7.99
574.386	7.91
574.578	7.82
574.77	7.93
574.962	7.95
575.154	7.8
575.346	7.84
575.538	7.83
575.729	7.83
575.921	7.9
576.113	7.98
576.305	7.92
576.497	8.01
576.689	7.86
576.88	7.77
577.072	7.94
577.264	7.93
577.456	7.89
577.647	7.83
577.839	7.98
578.031	7.87
578.223	7.81
578.414	7.77
578.606	7.84
578.798	7.9
578.989	7.84
579.181	7.91
579.372	7.87
579.564	7.88
579.755	7.77
579.947	7.69
580.139	7.81
580.33	7.64
580.522	7.77
580.713	7.64
580.905	7.72
581.096	7.74
581.287	7.64
581.479	7.66
581.67	7.79
581.862	7.74
582.053	7.76
582.244	7.61
582.436	7.8
582.627	7.62
582.818	7.63
583.01	7.63
583.201	7.71
583.392	7.63
583.583	7.63
583.775	7.49
583.966	7.58
584.157	7.58
584.348	7.74
584.54	7.54
584.731	7.59
584.922	7.53
585.113	7.46
585.304	7.58
585.495	7.6
585.686	7.61
585.877	7.64
586.068	7.7
586.259	7.54
586.45	7.45
586.641	7.47
586.832	7.58
587.023	7.45
587.214	7.42
587.405	7.63
587.596	7.41
587.787	7.4
587.978	7.51
588.169	7.37
588.36	7.37
588.551	7.38
588.742	7.39
588.932	7.4
589.123	7.27
589.314	7.47
589.505	7.33
589.696	7.34
589.886	7.33
590.077	7.31
590.268	7.28
590.458	7.23
590.649	7.21
590.84	7.32
591.03	7.24
591.221	7.24
591.412	7.15
591.602	7.29
591.793	7.25
591.984	7.26
592.174	7.24
592.365	7.38
592.555	7.13
592.746	7.13
592.936	7.17
593.127	7.24
593.317	7.22
593.508	7.16
593.698	7.07
593.889	7.13
594.079	7.08
594.269	7.03
594.46	6.99
594.65	7.05
594.84	7.03
595.031	6.99
595.221	6.97
595.411	7.05
595.602	7.05
595.792	6.94
595.982	6.93
596.172	7.05
596.363	6.88
596.553	6.91
596.743	6.95
596.933	6.93
597.123	6.91
597.314	6.74
597.504	6.74
597.694	6.94
597.884	6.77
598.074	6.84
598.264	6.78
598.454	6.82
598.644	6.71
598.834	6.76
599.024	6.73
599.214	6.69
599.404	6.79
599.594	6.71
599.784	6.59
599.974	6.73
600.164	6.7
600.354	6.61
600.544	6.56
600.734	6.69
600.924	6.58
601.114	6.55
601.303	6.53
601.493	6.54
601.683	6.54
601.873	6.52
602.063	6.43
602.252	6.55
602.442	6.39
602.632	6.45
602.821	6.35
603.011	6.46
603.201	6.4
603.39	6.38
603.58	6.31
603.77	6.44
603.959	6.45
604.149	6.36
604.339	6.34
604.528	6.41
604.718	6.41
604.907	6.3
605.097	6.21
605.286	6.29
605.476	6.24
605.665	6.3
605.855	6.21
606.044	6.29
606.234	6.25
606.423	6.2
606.612	6.22
606.802	6.09
606.991	6.19
607.181	6.2
607.37	6.2
607.559	5.96
607.749	6.05
607.938	6.01
608.127	6.05
608.316	6
608.506	6.04
608.695	6.09
608.884	6.02
609.073	5.98
609.263	6
609.452	5.98
609.641	5.9
609.83	5.86
610.019	5.93
610.208	5.84
610.397	5.88
610.586	5.78
610.775	5.8
610.965	5.87
611.154	5.7
611.343	5.81
611.532	5.73
611.721	5.8
611.91	5.72
612.099	5.67
612.287	5.58
612.476	5.6
612.665	5.78
612.854	5.55
613.043	5.61
613.232	5.57
613.421	5.58
613.61	5.58
613.798	5.51
613.987	5.59
614.176	5.53
614.365	5.51
614.554	5.51
614.742	5.56
614.931	5.4
615.12	5.53
615.309	5.46
615.497	5.34
615.686	5.34
615.875	5.42
616.063	5.37
616.252	5.34
616.44	5.37
616.629	5.31
616.818	5.31
617.006	5.32
617.195	5.25
617.383	5.25
617.572	5.21
617.76	5.21
617.949	5.19
618.137	5.27
618.326	5.24
618.514	5
618.703	4.98
618.891	5.17
619.079	5.06
619.268	5.2
619.456	4.97
619.644	5.12
619.833	5.01
620.021	5.01
620.209	4.88
620.398	5.01
620.586	4.91
620.774	4.98
620.962	4.96
621.151	5.05
621.339	4.9
621.527	4.83
621.715	4.89
621.903	4.86
622.092	4.81
622.28	4.96
622.468	4.69
622.656	4.8
622.844	4.77
623.032	4.83
623.22	4.67
623.408	4.84
623.596	4.67
623.784	4.81
623.972	4.62
624.16	4.62
624.348	4.71
624.536	4.74
624.724	4.59
624.912	4.67
625.1	4.6
625.288	4.63
625.476	4.52
625.664	4.62
625.851	4.47
626.039	4.62
626.227	4.51
626.415	4.56
626.603	4.51
626.79	4.52
626.978	4.4
627.166	4.52
627.354	4.32
627.541	4.32
627.729	4.31
627.917	4.45
628.104	4.39
628.292	4.35
628.48	4.37
628.667	4.24
628.855	4.37
629.042	4.34
629.23	4.28
629.418	4.33
629.605	4.24
629.793	4.25
629.98	4.23
630.168	4.14
630.355	4.21
630.543	4.18
630.73	4.07
630.917	4.07
631.105	4.19
631.292	4.12
631.48	4.05
631.667	4.16
631.854	4.06
632.042	4.03
632.229	3.99
632.416	4.08
632.604	3.97
632.791	3.89
632.978	3.99
633.165	3.93
633.353	4.01
633.54	4.02
633.727	3.82
633.914	3.87
634.101	3.81
634.289	3.92
634.476	3.81
634.663	3.81
634.85	3.8
635.037	3.75
635.224	3.71
635.411	3.83
635.598	3.74
635.785	3.74
635.972	3.68
636.159	3.73
636.346	3.68
636.533	3.65
636.72	3.73
636.907	3.66
637.094	3.61
637.281	3.58
637.468	3.6
637.655	3.61
637.842	3.63
638.029	3.54
638.215	3.63
638.402	3.59
638.589	3.5
638.776	3.54
638.963	3.46
639.149	3.54
639.336	3.54
639.523	3.44
639.709	3.46
639.896	3.42
640.083	3.42
640.27	3.44
640.456	3.39
640.643	3.39
640.829	3.29
641.016	3.33
641.203	3.22
641.389	3.32
641.576	3.32
641.762	3.29
641.949	3.26
642.135	3.28
642.322	3.21
642.508	3.21
642.695	3.24
642.881	3.21
643.068	3.14
643.254	3.24
643.441	3.2
643.627	3.24
643.813	3.12
644	3.17
644.186	3.07
644.372	3.16
644.559	3.1
644.745	3.09
644.931	3.03
645.118	3.14
645.304	3.07
645.49	3.03
645.676	2.99
645.862	2.98
646.049	3.07
646.235	2.97
646.421	3.1
646.607	3.12
646.793	2.95
646.979	2.9
647.165	2.93
647.352	2.97
647.538	2.96
647.724	2.95
647.91	2.87
648.096	2.9
648.282	2.94
648.468	2.83
648.654	2.88
648.84	2.79
649.026	2.87
649.212	2.76
649.397	2.75
649.583	2.79
649.769	2.8
649.955	2.76
650.141	2.78
650.327	2.8
650.513	2.72
650.698	2.78
650.884	2.66
651.07	2.75
651.256	2.67
651.442	2.71
651.627	2.55
651.813	2.74
651.999	2.61
652.184	2.67
652.37	2.6
652.556	2.61
652.741	2.62
652.927	2.51
653.113	2.55
653.298	2.59
653.484	2.59
653.669	2.55
653.855	2.57
654.04	2.62
654.226	2.57
654.412	2.53
654.597	2.48
654.782	2.58
654.968	2.58
655.153	2.54
655.339	2.49
655.524	2.48
655.71	2.47
655.895	2.46
656.08	2.46
656.266	2.52
656.451	2.44
656.636	2.38
656.822	2.42
657.007	2.36
657.192	2.41
657.378	2.37
657.563	2.33
657.748	2.42
657.933	2.34
658.118	2.31
658.304	2.32
658.489	2.41
658.674	2.36
658.859	2.31
659.044	2.3
659.229	2.38
659.414	2.34
659.599	2.32
659.785	2.26
659.97	2.23
660.155	2.28
660.34	2.28
660.525	2.19
660.71	2.23
660.895	2.27
661.08	2.18
661.264	2.16
661.449	2.24
661.634	2.19
661.819	2.2
662.004	2.18
662.189	2.11
662.374	2.12
662.559	2.05
662.743	2.08
662.928	2.07
663.113	2.03
663.298	2.02
663.483	2.05
663.667	2.07
663.852	1.99
664.037	2.06
664.221	2.03
664.406	2.08
664.591	2.06
664.775	2.04
664.96	1.93
665.145	1.95
665.329	1.96
665.514	1.95
665.698	1.91
665.883	1.86
666.068	1.93
666.252	1.91
666.437	1.83
666.621	1.87
666.806	1.85
666.99	1.83
667.174	1.84
667.359	1.87
667.543	1.8
667.728	1.8
667.912	1.74
668.096	1.79
668.281	1.73
668.465	1.77
668.649	1.76
668.834	1.69
669.018	1.73
669.202	1.74
669.387	1.66
669.571	1.76
669.755	1.66
669.939	1.67
670.124	1.67
670.308	1.72
670.492	1.72
670.676	1.69
670.86	1.68
671.044	1.6
671.228	1.74
671.413	1.61
671.597	1.63
671.781	1.62
671.965	1.64
672.149	1.59
672.333	1.58
672.517	1.58
672.701	1.6
672.885	1.58
673.069	1.47
673.253	1.64
673.437	1.54
673.621	1.48
673.804	1.57
673.988	1.55
674.172	1.51
674.356	1.39
674.54	1.48
674.724	1.61
674.908	1.49
675.091	1.5
675.275	1.46
675.459	1.51
675.643	1.51
675.826	1.49
676.01	1.46
676.194	1.4
676.377	1.45
676.561	1.5
676.745	1.45
676.928	1.48
677.112	1.49
677.296	1.42
677.479	1.36
677.663	1.39
677.846	1.43
678.03	1.4
678.213	1.36
678.397	1.41
678.58	1.39
678.764	1.36
678.947	1.31
679.131	1.36
679.314	1.36
679.498	1.35
679.681	1.36
679.865	1.43
680.048	1.35
680.231	1.34
680.415	1.31
680.598	1.3
680.781	1.28
680.965	1.32
681.148	1.34
681.331	1.23
681.514	1.3
681.698	1.26
681.881	1.31
682.064	1.23
682.247	1.24
682.43	1.12
682.614	1.3
682.797	1.34
682.98	1.26
683.163	1.14
683.346	1.24
683.529	1.17
683.712	1.16
683.895	1.22
684.078	1.14
684.261	1.14
684.444	1.2
684.627	1.2
684.81	1.15
684.993	1.15
685.176	1.22
685.359	1.15
685.542	1.09
685.725	1.22
685.908	1.14
686.091	1.12
686.274	1.14
686.457	1.16
686.639	1.19
686.822	1.19
687.005	1.14
687.188	1.18
687.371	1.24
687.553	1.2
687.736	1.18
687.919	1.18
688.102	1.17
688.284	1.09
688.467	1.06
688.65	1.07
688.832	0.99
689.015	1.11
689.197	0.99
689.38	1.17
689.563	1.15
689.745	0.99
689.928	1.06
690.11	1.01
690.293	1.08
690.475	1.01
690.658	1.01
690.84	1.06
691.023	1.06
691.205	1.04
691.388	1.03
691.57	1.09
691.752	1.04
691.935	0.9
692.117	0.94
692.3	1
692.482	0.94
692.664	0.99
692.847	0.97
693.029	1.01
693.211	1
693.393	0.96
693.576	0.92
693.758	0.94
693.94	0.91
694.122	0.95
694.304	0.96
694.487	0.9
694.669	1.01
694.851	0.91
695.033	0.91
695.215	0.9
695.397	0.9
695.579	0.93
695.761	0.91
695.943	0.91
696.125	1
696.308	0.96
696.49	0.85
696.671	1.08
696.853	0.89
697.035	1.03
697.217	0.89
697.399	0.93
697.581	0.83
697.763	0.88
697.945	0.8
698.127	0.9
698.309	0.93
698.491	0.92
698.672	0.89
698.854	0.93
699.036	0.87
699.218	0.84
699.399	0.9
699.581	0.96
699.763	0.85
699.945	0.77
700.126	0.78
700.308	0.83
700.49	0.83
700.671	0.74
700.853	0.79
701.035	0.83
701.216	0.78
701.398	0.78
701.579	0.86
701.761	0.9
701.943	0.72
702.124	0.81
702.306	0.8
702.487	0.96
702.669	0.76
702.85	0.75
703.031	0.7
703.213	0.89
703.394	0.88
703.576	0.76
703.757	0.96
703.938	0.79
704.12	0.92
704.301	0.76
704.483	0.67
704.664	0.78
704.845	0.91
705.026	0.81
705.208	0.76
705.389	0.8
705.57	0.8
705.751	0.71
705.933	0.73
706.114	0.86
706.295	0.83
706.476	0.66
706.657	0.77
706.838	0.81
707.02	0.8
707.201	0.68
707.382	0.71
707.563	0.77
707.744	0.71
707.925	0.7
708.106	0.64
708.287	0.79
708.468	0.78
708.649	0.76
708.83	0.82
709.011	0.63
709.192	0.73
709.373	0.64
709.554	0.63
709.734	0.81
709.915	0.76
710.096	0.69
710.277	0.6
710.458	0.73
710.639	0.76
710.819	0.57
711	0.67
711.181	0.74
711.362	0.77
711.542	0.7
711.723	0.68
711.904	0.72
712.085	0.67
712.265	0.66
712.446	0.53
712.627	0.66
712.807	0.73
712.988	0.64
713.168	0.53
713.349	0.73
713.53	0.53
713.71	0.56
713.891	0.59
714.071	0.63
714.252	0.59
714.432	0.58
714.613	0.54
714.793	0.62
714.974	0.69
715.154	0.69
715.334	0.71
715.515	0.67
715.695	0.52
715.876	0.61
716.056	0.67
716.236	0.58
716.417	0.57
716.597	0.66
716.777	0.83
716.957	0.6
717.138	0.66
717.318	0.57
717.498	0.52
717.678	0.67
717.859	0.7
718.039	0.51
718.219	0.71
718.399	0.68
718.579	0.58
718.759	0.51
718.939	0.69
719.12	0.62
719.3	0.64
719.48	0.41
719.66	0.43
719.84	0.7
720.02	0.57
720.2	0.54
720.38	0.54
720.56	0.78
720.74	0.62
720.92	0.61
721.1	0.76
721.279	0.65
721.459	0.51
721.639	0.54
721.819	0.56
721.999	0.53
722.179	0.67
722.359	0.47
722.538	0.61
722.718	0.6
722.898	0.52
723.078	0.63
723.257	0.61
723.437	0.57
723.617	0.62
723.797	0.59
723.976	0.63
724.156	0.63
724.336	0.74
724.515	0.79
724.695	0.49
724.874	0.56
725.054	0.65
725.234	0.53
725.413	0.58
725.593	0.59
725.772	0.53
725.952	0.53
726.131	0.54
726.311	0.56
726.49	0.55
726.67	0.5
726.849	0.49
727.028	0.58
727.208	0.54
727.387	0.61
727.567	0.47
727.746	0.53
727.925	0.47
728.105	0.41
728.284	0.5
728.463	0.49
728.643	0.57
728.822	0.56
729.001	0.54
729.18	0.58
729.359	0.67
729.539	0.49
729.718	0.57
729.897	0.69
730.076	0.59
730.255	0.54
730.434	0.58
730.614	0.56
730.793	0.59
730.972	0.51
731.151	0.5
731.33	0.58
731.509	0.64
731.688	0.58
731.867	0.59
732.046	0.52
732.225	0.76
732.404	0.51
732.583	0.52
732.762	0.56
732.941	0.69
733.12	0.55
733.298	0.58
733.477	0.7
733.656	0.55
733.835	0.53
734.014	0.58
734.193	0.54
734.371	0.69
734.55	0.63
734.729	0.5
734.908	0.67
735.086	0.68
735.265	0.57
735.444	0.45
735.623	0.47
735.801	0.45
735.98	0.63
736.159	0.62
736.337	0.63
736.516	0.59
736.694	0.55
736.873	0.56
737.052	0.74
737.23	0.7
737.409	0.51
737.587	0.84
737.766	0.51
737.944	0.6
738.123	0.7
738.301	0.6
738.479	0.56
738.658	0.67
738.836	0.44
739.015	0.69
739.193	0.7
739.371	0.45
739.55	0.57
739.728	0.52
739.906	0.63
740.085	0.8
740.263	0.6
740.441	0.25
740.62	0.85
740.798	0.61
740.976	0.5
741.154	0.46
741.332	0.71
741.511	0.49
741.689	0.62
741.867	0.73
742.045	0.54
742.223	0.56
742.401	0.41
742.579	0.48
742.757	0.59
742.935	0.38
743.114	0.52
743.292	0.46
743.47	0.43
743.648	0.64
743.826	0.55
744.004	0.59
744.181	0.63
744.359	0.44
744.537	0.49
744.715	0.38
744.893	0.57
745.071	0.48
745.249	0.42
745.427	0.61
745.605	0.54
745.782	0.57
745.96	0.46
746.138	0.62
746.316	0.61
746.493	0.57
746.671	0.49
746.849	0.47
747.027	0.52
747.204	0.43
747.382	0.57
747.56	0.35
747.737	0.45
747.915	0.42
748.093	0.46
748.27	0.35
748.448	0.44
748.625	0.39
748.803	0.37
748.98	0.37
749.158	0.49
749.335	0.5
749.513	0.43
749.69	0.43
749.868	0.51
750.045	0.51
750.223	0.39
750.4	0.26
750.578	0.54
750.755	0.5
750.932	0.29
751.11	0.53
751.287	0.26
751.464	0.5
751.642	0.42
751.819	0.46
751.996	0.45
752.173	0.4
752.351	0.32
752.528	0.38
752.705	0.42
752.882	0.36
753.06	0.51
753.237	0.5
753.414	0.59
753.591	0.56
753.768	0.36
753.945	0.25
754.122	0.4
754.299	0.43
754.476	0.25
754.654	0.41
754.831	0.48
755.008	0.44
755.185	0.3
755.362	0.28
755.539	0.39
755.716	0.55
755.892	0.43
756.069	0.31
756.246	0.3
756.423	0.46
756.6	0.6
756.777	0.34
756.954	0.58
757.131	0.38
757.307	0.39
757.484	0.22
757.661	0.46
757.838	0.39
758.015	0.29
758.191	0.44
758.368	0.44
758.545	0.48
758.721	0.46
758.898	0.18
759.075	0.45
759.251	0.46
759.428	0.56
759.605	0.18
759.781	0.46
759.958	0.37
760.134	0.39
760.311	0.27
760.488	0.58
760.664	0.63
760.841	0.39
761.017	0.26
761.194	0.42
761.37	0.51
761.547	0.36
761.723	0.27
761.899	0.41
762.076	0.31
762.252	0.2
762.429	0.4
762.605	0.35
762.781	0.32
762.958	0.43
763.134	0.36
763.31	0.38
763.486	0.62
763.663	0.17
763.839	0.42
764.015	0.25
764.191	0.32
764.368	0.4
764.544	0.27
764.72	0.53
764.896	0.47
765.072	0.38
765.248	0.33
765.425	0.31
765.601	0.4
765.777	0.42
765.953	0.16
766.129	0.36
766.305	0.28
766.481	0.56
766.657	0.5
766.833	0.45
767.009	0.3
767.185	0.22
767.361	0.38
767.537	0.28
767.713	0.55
767.889	0.31
768.065	0.29
768.24	0.23
768.416	0.42
768.592	0.36
768.768	0.48
768.944	0.47
769.12	0.4
769.295	0.41
769.471	0.26
769.647	0.29
769.823	0.66
769.998	0.28
770.174	0.23
770.35	0.69
770.525	0.71
770.701	0.55
770.877	0.39
771.052	0.3
771.228	0.33
771.403	0.44
771.579	0.37
771.755	0.65
771.93	0.39
772.106	0.21
772.281	0.18
772.457	0.37
772.632	0.42
772.808	0.26
772.983	0.34
773.159	0.21
773.334	0.49
773.509	0.35
773.685	0.24
773.86	0.76
774.036	0.47
774.211	0.44
774.386	0.4
774.562	0.39
774.737	0.51
774.912	0.35
775.087	0.41
775.263	0.41
775.438	0.38
775.613	0.21
775.788	0.45
775.964	0.59
776.139	0.75
776.314	0.15
776.489	0.31
776.664	0.44
776.839	0.29
777.014	0.53
777.19	0.49
777.365	0.73
777.54	0.66
777.715	0.34
777.89	0.55
778.065	0.25
778.24	0.52
778.415	0.46
778.59	0.26
778.765	0.23
778.94	0.63
779.115	0.4
779.289	0.2
779.464	0.25
779.639	0.25
779.814	0.12
779.989	0.05
780.164	0.55
780.339	0.37
780.513	0.32
780.688	0.21
780.863	0.43
781.038	0.5
781.212	0.34
781.387	0.46
781.562	0.53
781.737	0.49
781.911	0.43
782.086	0.41
782.261	0.46
782.435	0.67
782.61	0.1
782.784	0.59
782.959	0.68
783.134	0.25
783.308	0.16
783.483	0.42
783.657	0.68
783.832	0.66
784.006	0.12
784.181	0.3
784.355	0.58
784.53	0.56
784.704	0.17
784.878	0.73
785.053	0.55
785.227	0.78
785.402	0.79
785.576	0.23
785.75	0.62
785.925	0.27
786.099	0.53
786.273	0.41
786.448	0.71
786.622	0.53
786.796	0.56
786.97	0.27
787.145	0.81
787.319	0.33
787.493	0.36
787.667	0.16
787.841	0.46
788.015	0.68
788.19	0.48
788.364	0.58
788.538	0.41
788.712	0.62
788.886	0.53
789.06	0.81
789.234	0.65
789.408	0.22
789.582	0.44
789.756	0.37
789.93	0.18
790.104	0.47
790.278	0.3
790.452	0.13
790.626	0.56
790.8	0.26
790.973	0.68
791.147	0.75
791.321	0.8
791.495	0.7
791.669	0.48
791.843	0.53
792.016	0.63
792.19	0.79
792.364	0.22
792.538	1.06
792.711	0.73
792.885	0.42
793.059	0.17
793.233	0.04
793.406	0.6
793.58	0.47
793.754	0.61
793.927	0.38
794.101	0.85
794.274	0.69
794.448	0.56
794.622	0.29
794.795	1.1
794.969	0.36
795.142	0.88
795.316	0.55
795.489	0.34
795.663	0.75
795.836	0.45
796.009	0.37
796.183	0.76
796.356	0.58
796.53	0.7
796.703	0.49
796.876	1.2
797.05	0.42
797.223	0.29
797.396	0.63
797.57	0.57
797.743	0.96
797.916	0.47
798.09	0.26
798.263	0.81
798.436	0.58
798.609	0.39
798.782	0.79
798.956	0.63
799.129	0.45
799.302	0.35
799.475	0.4
799.648	0.47
799.821	0.29
799.994	0.43
800.167	0.16
800.34	0.6
800.514	0.35
800.687	0.72
800.86	0.11
801.033	0.57
801.206	0.84
801.379	0.29
801.551	0.69
801.724	0.51
801.897	1.21
802.07	0.66
802.243	-0.1
802.416	0.65
802.589	0.51
802.762	0.81
802.935	0.55
803.107	0.81
803.28	0.97
803.453	0.71
803.626	0.19
803.798	0.79
803.971	0.34
804.144	0.43
804.317	0.88
804.489	0.68
804.662	0.59
804.835	0.5
805.007	0.37
805.18	1.13
805.353	0.74
805.525	0.04
805.698	0.42
805.87	0.78
806.043	0.96
806.215	0.32
806.388	0.16
806.56	0.65
806.733	1
806.905	0.62
807.078	0.19
807.25	0.56
807.423	0.94
807.595	0.68
807.768	0.56
807.94	1.12
808.112	0.5
808.285	0.68
808.457	0.68
808.629	0.79
808.802	0.51
808.974	0.38
809.146	0.38
809.318	0.58
809.491	0.59
809.663	0.79
809.835	0.39
810.007	0.82
810.18	0.43
810.352	-0.01
810.524	0.36
810.696	0.61
810.868	0.94
811.04	0.47
811.212	0.32
811.384	1.33
811.556	0.87
811.728	0.63
811.901	1.39
812.073	0.54
812.245	1.17
812.417	0.73
812.589	0.2
812.76	0.72
812.932	0.66
813.104	0.72
813.276	0.98
813.448	0.63
813.62	0.71
813.792	0.99
813.964	0.46
814.136	0.73
814.307	0.71
814.479	0.4
814.651	0.42
814.823	1.59
814.995	0.43
815.166	0.52
815.338	0.9
815.51	0.33
815.681	1.78
815.853	0.82
816.025	0.93
816.196	1.31
816.368	0.93
816.54	0.45
816.711	0.61
816.883	1.11
817.054	1.73
817.226	0.25
817.398	1.25
817.569	0.46
817.741	0.66
817.912	0.38
818.084	0.57
818.255	0.88
818.426	0.23
818.598	0.45
818.769	0.63
818.941	0.71
819.112	1.26
819.283	0.83
819.455	0.18
819.626	0.84
819.798	0.87
819.969	0.85
820.14	0.31
820.311	0.78
820.483	0.66
820.654	1.27
820.825	0.25
820.996	0.32
821.168	0.34
821.339	0.57
821.51	0.02
821.681	0.31
821.852	0.73
822.023	0.22
822.195	0.13
822.366	1.38
822.537	0.43
822.708	1
822.879	0.53
823.05	1.59
823.221	0.41
823.392	1.06
823.563	0.49
823.734	0.82
823.905	0.67
824.076	0.19
824.247	-0.11
824.418	0.7
824.589	1.02
824.759	0.56
824.93	0.4
825.101	0.63
825.272	1.63
825.443	1.09
825.614	1.45
825.784	0.31
825.955	1.68
826.126	1.16
826.297	1.93
826.467	1.81
826.638	2.15
826.809	0.81
826.98	0.79
827.15	1.3
827.321	0.64
827.492	1.9
827.662	0.61
827.833	1.81
828.003	0.98
828.174	0.22
828.345	-0
828.515	1.72
828.686	1.38
828.856	0.68
829.027	1.13
829.197	0.68
829.368	1
829.538	0.49
829.709	0.8
829.879	0.91
830.049	1.5
830.22	0.28
830.39	0.7
830.56	1.36
830.731	0.93
830.901	0.28
831.072	1.14
831.242	1.7
831.412	1.53
831.582	1.49
831.753	0.37
831.923	1.55
832.093	0.96
832.263	0.93
832.434	0.45
832.604	0.96
832.774	1.77
832.944	0.67
833.114	0.79
833.284	1.27
833.454	0.52
833.624	0.34
833.795	0.2
833.965	1.53
834.135	1.66
834.305	-0.51
834.475	0.36
834.645	0.55
834.815	0.91
834.985	0.76
835.155	0.7
835.325	1.31
835.494	1.08
835.664	0.98
835.834	0.13
836.004	0.96
836.174	1.38
836.344	0.8
836.514	0.01
836.684	0.62
836.853	1.18
837.023	1.41
837.193	0.76
837.363	1.84
837.532	2.14
837.702	0.94
837.872	0.12
838.041	1.39
838.211	2.53
838.381	-0.07
838.55	0.53
838.72	3.26
838.89	1.61
839.059	0.99
839.229	0.21
839.398	2.3
839.568	1.2
839.738	1.28
839.907	2.4
840.077	0.81
840.246	0.36
840.416	0.86
840.585	0.16
840.755	2.15
840.924	2.6
841.093	0.42
841.263	1.36
841.432	1.29
841.602	0.5
841.771	0.5
841.94	0.97
842.11	3.34
842.279	2.19
842.448	0.3
842.617	0.66
842.787	2.18
842.956	0.82
843.125	0.58
843.294	1.42
843.464	2.02
843.633	1.1
843.802	0.48
843.971	1.05
844.14	1.85
844.309	2.35
844.479	-0.23
844.648	-0.14
844.817	1.27
844.986	1.26
845.155	0.54
845.324	0.79
845.493	1.33
845.662	1.93
845.831	2.01
846	1.59
846.169	1.39
846.338	2.56
846.507	1.17
846.676	0.73
846.844	0.42
847.013	1.8
847.182	1.63
847.351	0.31
847.52	1.82
847.689	2.41
847.858	1.11
848.026	0.62
848.195	1.43
848.364	0.45
848.533	0.36
848.701	0.33
848.87	1.35
849.039	2.18
849.207	1.66
849.376	1.93
849.545	2.81
849.713	0.6
849.882	1.43
850.051	1.89
850.219	2.2
850.388	2.07
850.556	0.35
850.725	0.53
850.893	1.32
851.062	0.74
851.23	1.64
851.399	-0.06
851.567	0.85
851.736	0.9
851.904	0.92
852.073	1.1
852.241	2.08
852.41	2.78
852.578	0.79
852.746	-0.21
852.915	2.32
853.083	1.34
853.251	0.06
853.42	0.69
853.588	1.63
853.756	2.86
853.924	0.7
854.093	0.14
854.261	1.42
854.429	0.75
854.597	0.56
854.765	-0.22
854.934	1.97
855.102	3.87
855.27	1.73
855.438	2.23
855.606	3.39
855.774	2.23
855.942	-0.66
856.11	0.75
856.278	1.01
856.446	3.72
856.614	1.55
856.782	0.61
856.95	2.45
857.118	2.78
857.286	2.14
857.454	1.54
857.622	2.77
857.79	2.67
857.958	0.24
858.126	1.07
858.294	0.87
858.462	2.5
858.629	0.6
858.797	-0.48
858.965	1.79
859.133	1.65
859.301	0.39
859.468	2.86
859.636	1.12
859.804	3.34
859.971	1.6
860.139	0.99
860.307	3.28
860.474	2.09
860.642	0.29
860.81	0.04
860.977	0.71
861.145	2.18
861.313	1.46
861.48	2.29
861.648	2.13
861.815	1.95
861.983	0.47
862.15	-0.01
862.318	3
862.485	3.58
862.653	0.54
862.82	1.18
862.988	3.09
863.155	2.44
863.322	1.51
863.49	0.03
863.657	1
863.824	2.85
863.992	2.14
864.159	2.12
864.326	2.04
864.494	1.55
864.661	4.18
864.828	-0.73
864.996	4.55
865.163	3.71
865.33	0.18
865.497	-0.08
865.664	2.14
865.832	-0.23
865.999	1.41
866.166	0.43
866.333	0.17
866.5	0.74
866.667	1.24
866.834	0.54
867.001	3.38
867.168	-0.63
867.335	1.52
867.502	0.92
867.669	2.23
867.836	3.52
868.003	2.42
868.17	3.16
868.337	1.26
868.504	3.81
868.671	0.28
868.838	1.2
869.005	2.11
869.172	2.09
869.339	2.59
869.505	1.22
869.672	1.6
869.839	3.36
870.006	2.68
870.173	-0.31
870.339	2.53
870.506	5.41
870.673	1.3
870.84	1.87
871.006	2.02
871.173	2.47
871.34	2.62
871.506	0.74
871.673	1.53
871.839	-0.47
872.006	2.69
872.173	0.78
872.339	2.07
872.506	3.7
872.672	1.07
872.839	0.45
873.005	3.9
873.172	4.51
873.338	4.21
873.505	3.04
873.671	2.29
873.838	3.46
874.004	0.24
874.171	0.23
874.337	3.82
874.503	3.49
874.67	1.38
874.836	1.7
875.002	3.89
875.169	3.93
875.335	2.55
875.501	2.29
875.668	3.62
875.834	1.25
876	2.09
876.166	2.58
876.332	3.85
876.499	6.09
876.665	0.73
876.831	1.45
876.997	6.56
877.163	3.2
877.329	2.07
877.495	3.13
877.662	3.01
877.828	1.51
877.994	2.25
878.16	-1.1
878.326	0.26
878.492	3.71
878.658	2.54
878.824	1.62
878.99	3.56
879.156	-0.37
879.322	5.23
879.487	3.54
879.653	3.59
879.819	2.06
879.985	2.33
880.151	2
880.317	2.64
880.483	1.87
880.648	2.96
880.814	-1.32
880.98	2.65
881.146	0.23
881.312	-0.09
881.477	1.62
881.643	3.01
881.809	2.81
881.974	2.85
882.14	0.1
882.306	1.78
882.471	5.21
882.637	2.15
882.803	0.87
882.968	6.36
883.134	5.97
883.299	0.89
883.465	1.93
883.63	2.67
883.796	4.63
883.961	1.81
884.127	2.09
884.292	-1.33
884.458	-0.68
884.623	-0.68
