Data from Apollo_Calib_20240827__AbsoluteIrradiance__41__23-50-00-979.txt Node

Date: Tue Aug 27 23:50:00 BST 2024
User: biology
Spectrometer: FLMT08252
Trigger mode: 0
Integration Time (sec): 5.000000E-1
Scans to average: 5
Electric dark correction enabled: true
Nonlinearity correction enabled: false
Boxcar width: 0
XAxis mode: Wavelengths
Number of Pixels in Spectrum: 3648
>>>>>Begin Spectral Data<<<<<
179.588	-0
179.809	-0
180.03	-0
180.251	-0
180.473	-0
180.694	0
180.915	0
181.136	-0
181.357	0
181.578	-0
181.799	0
182.02	-0
182.241	0
182.462	-0
182.683	0
182.904	-0
183.125	-0
183.346	0
183.567	0
183.788	0
184.009	0
184.23	0
184.451	0
184.672	0
184.892	0
185.113	0
185.334	0
185.555	0
185.776	0
185.996	0
186.217	0
186.438	0
186.659	0
186.879	0
187.1	0
187.321	0
187.541	0
187.762	0
187.983	0
188.203	0
188.424	0
188.644	0
188.865	0
189.086	0
189.306	0
189.527	0
189.747	0
189.968	0
190.188	0
190.409	0
190.629	0
190.849	0
191.07	0
191.29	0
191.511	0
191.731	0
191.951	0
192.172	0
192.392	0
192.612	0
192.833	0
193.053	0
193.273	0
193.493	0
193.714	0
193.934	0
194.154	0
194.374	0
194.594	0
194.815	0
195.035	0
195.255	0
195.475	0
195.695	0
195.915	0
196.135	0
196.355	0
196.575	0
196.795	0
197.015	0
197.235	0
197.455	0
197.675	0
197.895	0
198.115	0
198.335	0
198.555	0
198.775	0
198.995	0
199.214	0
199.434	0
199.654	0
199.874	0
200.094	3.28
200.313	2.9
200.533	2.16
200.753	1.6
200.973	3.41
201.192	3.34
201.412	1.39
201.632	1.57
201.851	2.69
202.071	1.75
202.291	1.35
202.51	1.62
202.73	2.37
202.95	1.82
203.169	1.75
203.389	2.17
203.608	1.97
203.828	1.43
204.047	1.44
204.267	2.01
204.486	2.06
204.706	2.05
204.925	2.1
205.145	1.41
205.364	2.19
205.583	2.4
205.803	1.5
206.022	1.21
206.242	1.26
206.461	1.71
206.68	1.04
206.9	1.72
207.119	2.1
207.338	1.92
207.557	1.52
207.777	1.36
207.996	1.27
208.215	2.15
208.434	1.13
208.654	0.9
208.873	1.2
209.092	1.79
209.311	1.37
209.53	1.22
209.749	1.02
209.968	0.86
210.187	0.89
210.407	0.98
210.626	1.14
210.845	1.42
211.064	1.27
211.283	0.94
211.502	1.53
211.721	1.18
211.94	0.92
212.159	1.16
212.377	1.26
212.596	1.44
212.815	1.01
213.034	1.02
213.253	1.46
213.472	1.05
213.691	0.81
213.91	0.85
214.128	0.94
214.347	1.48
214.566	0.61
214.785	0.54
215.003	1.31
215.222	0.91
215.441	0.9
215.66	0.61
215.878	0.89
216.097	1.02
216.316	0.68
216.534	0.96
216.753	1
216.972	0.91
217.19	0.8
217.409	0.55
217.627	1.01
217.846	0.77
218.064	0.74
218.283	0.56
218.501	1.23
218.72	0.99
218.938	0.62
219.157	0.74
219.375	1.03
219.594	0.91
219.812	0.66
220.031	0.48
220.249	1.2
220.467	1.07
220.686	0.66
220.904	0.38
221.122	0.58
221.341	1.05
221.559	0.7
221.777	0.65
221.995	0.71
222.214	0.85
222.432	0.8
222.65	0.9
222.868	0.76
223.086	0.8
223.305	0.8
223.523	0.57
223.741	1.01
223.959	0.61
224.177	0.41
224.395	0.6
224.613	0.78
224.831	0.72
225.049	0.52
225.267	0.62
225.485	0.78
225.703	0.7
225.921	0.62
226.139	0.52
226.357	0.7
226.575	0.73
226.793	0.57
227.011	1.36
227.229	0.64
227.447	0.83
227.665	0.52
227.883	0.31
228.1	0.75
228.318	0.72
228.536	0.43
228.754	0.47
228.972	0.74
229.189	0.77
229.407	0.55
229.625	0.54
229.843	0.72
230.06	0.7
230.278	0.58
230.496	0.49
230.713	0.63
230.931	0.78
231.149	0.51
231.366	0.39
231.584	0.51
231.801	0.87
232.019	0.49
232.236	0.42
232.454	0.47
232.671	0.62
232.889	0.62
233.106	0.46
233.324	0.49
233.541	0.43
233.759	0.48
233.976	0.54
234.194	0.58
234.411	0.56
234.628	0.43
234.846	0.41
235.063	0.55
235.28	0.55
235.498	0.53
235.715	0.42
235.932	0.6
236.149	0.51
236.367	0.32
236.584	0.56
236.801	0.5
237.018	0.58
237.236	0.56
237.453	0.34
237.67	0.62
237.887	0.46
238.104	0.37
238.321	0.41
238.538	0.45
238.755	0.62
238.973	0.24
239.19	0.54
239.407	0.56
239.624	0.52
239.841	0.26
240.058	0.32
240.275	0.53
240.492	0.36
240.709	0.45
240.925	0.46
241.142	0.45
241.359	0.41
241.576	0.48
241.793	0.39
242.01	0.43
242.227	0.55
242.444	0.53
242.66	0.58
242.877	0.41
243.094	0.29
243.311	0.45
243.527	0.37
243.744	0.59
243.961	0.51
244.178	0.31
244.394	0.37
244.611	0.55
244.828	0.58
245.044	0.45
245.261	0.35
245.477	0.46
245.694	0.46
245.911	0.37
246.127	0.44
246.344	0.62
246.56	0.46
246.777	0.36
246.993	0.37
247.21	0.44
247.426	0.58
247.643	0.34
247.859	0.35
248.076	0.33
248.292	0.66
248.508	0.41
248.725	0.46
248.941	0.42
249.157	0.53
249.374	0.36
249.59	0.34
249.806	0.4
250.023	0.49
250.239	0.32
250.455	0.37
250.671	0.46
250.888	0.47
251.104	0.44
251.32	0.36
251.536	0.4
251.752	0.39
251.969	0.34
252.185	0.54
252.401	0.6
252.617	0.46
252.833	0.37
253.049	0.33
253.265	0.42
253.481	0.44
253.697	0.34
253.913	0.27
254.129	0.35
254.345	0.42
254.561	0.35
254.777	0.39
254.993	0.41
255.209	0.48
255.425	0.38
255.641	0.3
255.857	0.52
256.073	0.48
256.288	0.3
256.504	0.3
256.72	0.49
256.936	0.52
257.152	0.35
257.367	0.34
257.583	0.4
257.799	0.45
258.015	0.33
258.23	0.36
258.446	0.43
258.662	0.42
258.877	0.32
259.093	0.21
259.309	0.45
259.524	0.44
259.74	0.28
259.955	0.26
260.171	0.35
260.387	0.38
260.602	0.44
260.818	0.39
261.033	0.32
261.249	0.29
261.464	0.34
261.68	0.27
261.895	0.43
262.11	0.43
262.326	0.29
262.541	0.3
262.757	0.48
262.972	0.37
263.187	0.4
263.403	0.39
263.618	0.4
263.833	0.36
264.049	0.33
264.264	0.32
264.479	0.36
264.694	0.51
264.91	0.24
265.125	0.34
265.34	0.39
265.555	0.54
265.77	0.39
265.986	0.28
266.201	0.38
266.416	0.4
266.631	0.29
266.846	0.37
267.061	0.39
267.276	0.42
267.491	0.21
267.706	0.38
267.921	0.39
268.136	0.37
268.351	0.34
268.566	0.26
268.781	0.46
268.996	0.41
269.211	0.38
269.426	0.23
269.641	0.32
269.856	0.39
270.071	0.3
270.285	0.2
270.5	0.38
270.715	0.44
270.93	0.32
271.145	0.38
271.359	0.37
271.574	0.3
271.789	0.31
272.004	0.36
272.218	0.34
272.433	0.37
272.648	0.25
272.862	0.36
273.077	0.37
273.292	0.36
273.506	0.31
273.721	0.29
273.936	0.36
274.15	0.37
274.365	0.3
274.579	0.36
274.794	0.4
275.008	0.41
275.223	0.26
275.437	0.34
275.652	0.44
275.866	0.31
276.081	0.28
276.295	0.41
276.509	0.29
276.724	0.32
276.938	0.37
277.153	0.34
277.367	0.33
277.581	0.3
277.796	0.27
278.01	0.23
278.224	0.4
278.438	0.5
278.653	0.28
278.867	0.27
279.081	0.12
279.295	0.26
279.51	0.34
279.724	0.26
279.938	0.38
280.152	0.26
280.366	0.25
280.58	0.35
280.794	0.42
281.008	0.34
281.222	0.32
281.437	0.44
281.651	0.3
281.865	0.4
282.079	0.33
282.293	0.22
282.507	0.23
282.721	0.27
282.935	0.31
283.148	0.17
283.362	0.26
283.576	0.22
283.79	0.27
284.004	0.24
284.218	0.35
284.432	0.27
284.646	0.3
284.859	0.29
285.073	0.29
285.287	0.27
285.501	0.3
285.714	0.31
285.928	0.27
286.142	0.29
286.356	0.23
286.569	0.27
286.783	0.38
286.997	0.32
287.21	0.32
287.424	0.29
287.637	0.28
287.851	0.26
288.065	0.36
288.278	0.29
288.492	0.3
288.705	0.22
288.919	0.34
289.132	0.19
289.346	0.39
289.559	0.22
289.773	0.22
289.986	0.29
290.2	0.26
290.413	0.31
290.626	0.24
290.84	0.29
291.053	0.28
291.267	0.36
291.48	0.28
291.693	0.28
291.906	0.27
292.12	0.27
292.333	0.21
292.546	0.25
292.76	0.37
292.973	0.28
293.186	0.26
293.399	0.21
293.612	0.34
293.826	0.25
294.039	0.26
294.252	0.25
294.465	0.35
294.678	0.29
294.891	0.24
295.104	0.2
295.317	0.23
295.53	0.27
295.743	0.32
295.956	0.25
296.169	0.34
296.382	0.24
296.595	0.26
296.808	0.23
297.021	0.29
297.234	0.29
297.447	0.25
297.66	0.28
297.873	0.31
298.086	0.29
298.299	0.17
298.511	0.18
298.724	0.26
298.937	0.22
299.15	0.22
299.363	0.24
299.575	0.32
299.788	0.27
300.001	0.22
300.213	0.23
300.426	0.24
300.639	0.2
300.852	0.2
301.064	0.28
301.277	0.3
301.489	0.3
301.702	0.27
301.915	0.28
302.127	0.3
302.34	0.27
302.552	0.29
302.765	0.22
302.977	0.28
303.19	0.22
303.402	0.26
303.615	0.25
303.827	0.26
304.04	0.22
304.252	0.27
304.464	0.26
304.677	0.34
304.889	0.24
305.102	0.21
305.314	0.19
305.526	0.31
305.739	0.27
305.951	0.19
306.163	0.24
306.375	0.36
306.588	0.27
306.8	0.22
307.012	0.18
307.224	0.29
307.436	0.3
307.649	0.17
307.861	0.25
308.073	0.31
308.285	0.24
308.497	0.16
308.709	0.22
308.921	0.25
309.133	0.29
309.346	0.25
309.558	0.25
309.77	0.33
309.982	0.33
310.194	0.3
310.406	0.23
310.617	0.36
310.829	0.27
311.041	0.3
311.253	0.24
311.465	0.23
311.677	0.23
311.889	0.25
312.101	0.22
312.313	0.31
312.524	0.32
312.736	0.25
312.948	0.22
313.16	0.39
313.372	0.32
313.583	0.28
313.795	0.23
314.007	0.19
314.218	0.27
314.43	0.24
314.642	0.22
314.853	0.18
315.065	0.26
315.277	0.25
315.488	0.26
315.7	0.31
315.912	0.27
316.123	0.22
316.335	0.28
316.546	0.32
316.758	0.21
316.969	0.2
317.181	0.25
317.392	0.28
317.604	0.3
317.815	0.23
318.026	0.19
318.238	0.19
318.449	0.3
318.661	0.19
318.872	0.16
319.083	0.2
319.295	0.3
319.506	0.21
319.717	0.26
319.929	0.28
320.14	0.24
320.351	0.28
320.562	0.22
320.774	0.23
320.985	0.25
321.196	0.23
321.407	0.21
321.618	0.32
321.829	0.29
322.041	0.27
322.252	0.25
322.463	0.29
322.674	0.29
322.885	0.22
323.096	0.23
323.307	0.24
323.518	0.29
323.729	0.22
323.94	0.24
324.151	0.21
324.362	0.27
324.573	0.22
324.784	0.22
324.995	0.28
325.206	0.26
325.417	0.2
325.628	0.23
325.838	0.25
326.049	0.25
326.26	0.27
326.471	0.2
326.682	0.29
326.892	0.26
327.103	0.15
327.314	0.17
327.525	0.34
327.735	0.18
327.946	0.29
328.157	0.21
328.368	0.27
328.578	0.21
328.789	0.26
328.999	0.26
329.21	0.25
329.421	0.29
329.631	0.23
329.842	0.21
330.052	0.23
330.263	0.28
330.473	0.33
330.684	0.26
330.894	0.28
331.105	0.26
331.315	0.28
331.526	0.2
331.736	0.31
331.947	0.27
332.157	0.27
332.367	0.2
332.578	0.26
332.788	0.26
332.999	0.22
333.209	0.2
333.419	0.16
333.629	0.27
333.84	0.3
334.05	0.25
334.26	0.31
334.47	0.29
334.681	0.29
334.891	0.26
335.101	0.24
335.311	0.35
335.521	0.24
335.732	0.18
335.942	0.28
336.152	0.26
336.362	0.24
336.572	0.27
336.782	0.27
336.992	0.2
337.202	0.24
337.412	0.25
337.622	0.29
337.832	0.28
338.042	0.25
338.252	0.18
338.462	0.23
338.672	0.27
338.882	0.19
339.092	0.24
339.302	0.35
339.511	0.28
339.721	0.21
339.931	0.21
340.141	0.25
340.351	0.3
340.561	0.27
340.77	0.24
340.98	0.23
341.19	0.29
341.4	0.25
341.609	0.19
341.819	0.27
342.029	0.21
342.238	0.23
342.448	0.21
342.658	0.26
342.867	0.26
343.077	0.25
343.286	0.23
343.496	0.29
343.706	0.3
343.915	0.21
344.125	0.21
344.334	0.3
344.544	0.21
344.753	0.22
344.963	0.21
345.172	0.2
345.381	0.18
345.591	0.21
345.8	0.23
346.01	0.25
346.219	0.27
346.428	0.11
346.638	0.24
346.847	0.23
347.056	0.32
347.266	0.22
347.475	0.28
347.684	0.25
347.893	0.23
348.103	0.27
348.312	0.21
348.521	0.22
348.73	0.26
348.94	0.29
349.149	0.28
349.358	0.22
349.567	0.26
349.776	0.2
349.985	0.2
350.194	0.3
350.403	0.29
350.612	0.13
350.821	0.21
351.03	0.23
351.239	0.19
351.448	0.24
351.657	0.23
351.866	0.32
352.075	0.24
352.284	0.33
352.493	0.22
352.702	0.26
352.911	0.28
353.12	0.24
353.329	0.22
353.538	0.28
353.746	0.26
353.955	0.21
354.164	0.22
354.373	0.22
354.582	0.24
354.79	0.21
354.999	0.27
355.208	0.22
355.416	0.29
355.625	0.15
355.834	0.24
356.042	0.25
356.251	0.25
356.46	0.22
356.668	0.24
356.877	0.34
357.085	0.28
357.294	0.13
357.503	0.25
357.711	0.22
357.92	0.39
358.128	0.27
358.337	0.23
358.545	0.27
358.754	0.23
358.962	0.25
359.17	0.22
359.379	0.24
359.587	0.21
359.796	0.21
360.004	0.31
360.212	0.28
360.421	0.31
360.629	0.2
360.837	0.2
361.046	0.27
361.254	0.31
361.462	0.2
361.67	0.25
361.879	0.24
362.087	0.33
362.295	0.25
362.503	0.22
362.711	0.18
362.92	0.27
363.128	0.21
363.336	0.19
363.544	0.18
363.752	0.25
363.96	0.21
364.168	0.22
364.376	0.26
364.584	0.2
364.792	0.27
365	0.24
365.208	0.25
365.416	0.3
365.624	0.25
365.832	0.23
366.04	0.31
366.248	0.25
366.456	0.24
366.664	0.25
366.872	0.23
367.079	0.21
367.287	0.25
367.495	0.26
367.703	0.22
367.911	0.2
368.118	0.22
368.326	0.24
368.534	0.19
368.742	0.31
368.949	0.16
369.157	0.21
369.365	0.24
369.572	0.24
369.78	0.23
369.988	0.3
370.195	0.29
370.403	0.24
370.61	0.25
370.818	0.25
371.026	0.34
371.233	0.2
371.441	0.29
371.648	0.24
371.856	0.27
372.063	0.25
372.271	0.23
372.478	0.23
372.685	0.21
372.893	0.31
373.1	0.24
373.308	0.25
373.515	0.3
373.722	0.32
373.93	0.27
374.137	0.31
374.344	0.35
374.552	0.28
374.759	0.29
374.966	0.23
375.173	0.25
375.381	0.28
375.588	0.21
375.795	0.18
376.002	0.22
376.209	0.24
376.417	0.26
376.624	0.29
376.831	0.28
377.038	0.28
377.245	0.19
377.452	0.25
377.659	0.26
377.866	0.24
378.073	0.26
378.28	0.22
378.487	0.26
378.694	0.27
378.901	0.24
379.108	0.25
379.315	0.29
379.522	0.35
379.729	0.29
379.936	0.24
380.143	0.24
380.35	0.22
380.557	0.27
380.763	0.22
380.97	0.25
381.177	0.31
381.384	0.23
381.591	0.22
381.797	0.25
382.004	0.3
382.211	0.34
382.418	0.27
382.624	0.26
382.831	0.31
383.038	0.24
383.244	0.26
383.451	0.23
383.658	0.28
383.864	0.28
384.071	0.23
384.277	0.34
384.484	0.22
384.69	0.32
384.897	0.23
385.103	0.25
385.31	0.25
385.516	0.25
385.723	0.22
385.929	0.23
386.136	0.23
386.342	0.28
386.549	0.25
386.755	0.3
386.961	0.3
387.168	0.27
387.374	0.24
387.58	0.35
387.787	0.28
387.993	0.29
388.199	0.25
388.406	0.27
388.612	0.26
388.818	0.24
389.024	0.24
389.231	0.31
389.437	0.37
389.643	0.31
389.849	0.25
390.055	0.3
390.261	0.28
390.467	0.29
390.674	0.29
390.88	0.27
391.086	0.34
391.292	0.25
391.498	0.36
391.704	0.29
391.91	0.3
392.116	0.28
392.322	0.23
392.528	0.27
392.734	0.26
392.94	0.33
393.146	0.25
393.352	0.31
393.557	0.28
393.763	0.26
393.969	0.33
394.175	0.28
394.381	0.33
394.587	0.23
394.792	0.31
394.998	0.39
395.204	0.34
395.41	0.27
395.615	0.33
395.821	0.33
396.027	0.33
396.233	0.33
396.438	0.36
396.644	0.41
396.85	0.31
397.055	0.32
397.261	0.32
397.466	0.34
397.672	0.35
397.878	0.33
398.083	0.37
398.289	0.32
398.494	0.39
398.7	0.4
398.905	0.25
399.111	0.41
399.316	0.27
399.522	0.37
399.727	0.28
399.932	0.36
400.138	0.33
400.343	0.33
400.549	0.33
400.754	0.34
400.959	0.41
401.165	0.32
401.37	0.31
401.575	0.43
401.78	0.37
401.986	0.37
402.191	0.35
402.396	0.34
402.601	0.37
402.807	0.42
403.012	0.39
403.217	0.42
403.422	0.41
403.627	0.39
403.832	0.36
404.037	0.48
404.243	0.47
404.448	0.41
404.653	0.41
404.858	0.45
405.063	0.47
405.268	0.39
405.473	0.37
405.678	0.37
405.883	0.61
406.088	0.46
406.293	0.39
406.498	0.34
406.703	0.46
406.907	0.48
407.112	0.47
407.317	0.52
407.522	0.56
407.727	0.47
407.932	0.52
408.136	0.58
408.341	0.51
408.546	0.6
408.751	0.52
408.956	0.59
409.16	0.63
409.365	0.63
409.57	0.61
409.774	0.58
409.979	0.67
410.184	0.66
410.388	0.69
410.593	0.72
410.798	0.73
411.002	0.71
411.207	0.83
411.411	0.78
411.616	0.71
411.82	0.84
412.025	0.83
412.229	0.86
412.434	0.96
412.638	0.9
412.843	0.94
413.047	0.96
413.252	0.93
413.456	0.96
413.66	1.09
413.865	1.05
414.069	1.12
414.273	1.12
414.478	1.11
414.682	1.17
414.886	1.18
415.091	1.17
415.295	1.28
415.499	1.34
415.703	1.28
415.908	1.46
416.112	1.39
416.316	1.57
416.52	1.56
416.724	1.58
416.929	1.62
417.133	1.81
417.337	1.7
417.541	1.82
417.745	1.9
417.949	1.93
418.153	2.06
418.357	2.06
418.561	2.29
418.765	2.25
418.969	2.39
419.173	2.44
419.377	2.39
419.581	2.66
419.785	2.58
419.989	2.61
420.193	2.88
420.397	2.87
420.601	3
420.804	3.14
421.008	3.11
421.212	3.28
421.416	3.26
421.62	3.3
421.823	3.31
422.027	3.52
422.231	3.48
422.435	3.53
422.638	3.59
422.842	3.67
423.046	3.72
423.249	3.98
423.453	3.98
423.657	4.1
423.86	4.22
424.064	4.38
424.268	4.45
424.471	4.51
424.675	4.68
424.878	4.76
425.082	4.93
425.285	5.21
425.489	5.17
425.692	5.26
425.896	5.32
426.099	5.46
426.303	5.62
426.506	5.75
426.71	6.05
426.913	6.21
427.116	6.39
427.32	6.35
427.523	6.47
427.726	6.76
427.93	6.88
428.133	7.11
428.336	7.32
428.54	7.4
428.743	7.76
428.946	7.92
429.149	7.9
429.353	8
429.556	8.01
429.759	8.13
429.962	8.16
430.165	8.5
430.368	8.04
430.571	8.1
430.775	8.16
430.978	8.06
431.181	8.18
431.384	8.3
431.587	8.35
431.79	8.74
431.993	8.74
432.196	8.91
432.399	9.35
432.602	9.44
432.805	9.49
433.008	10.13
433.211	9.95
433.414	10.34
433.616	10.34
433.819	10.31
434.022	10.53
434.225	10.56
434.428	10.72
434.631	11.02
434.833	10.88
435.036	11.09
435.239	11.31
435.442	11.39
435.645	11.6
435.847	11.65
436.05	11.88
436.253	12.21
436.455	12.21
436.658	12.04
436.861	12.38
437.063	12.52
437.266	12.47
437.468	12.82
437.671	13.11
437.874	13.24
438.076	12.94
438.279	13.53
438.481	13.6
438.684	14.28
438.886	13.85
439.089	14.2
439.291	14.1
439.494	14.63
439.696	14.62
439.899	15.33
440.101	15.58
440.303	15.87
440.506	16.58
440.708	16.32
440.91	16.58
441.113	16.9
441.315	16.91
441.517	16.91
441.72	17.4
441.922	16.96
442.124	16.91
442.326	17.39
442.529	17.38
442.731	17.49
442.933	17.79
443.135	17.52
443.337	17.59
443.539	18.07
443.742	17.8
443.944	18.31
444.146	18.16
444.348	18.07
444.55	17.95
444.752	18.34
444.954	18.12
445.156	18.09
445.358	18.63
445.56	18.82
445.762	18.67
445.964	18.81
446.166	18.77
446.368	18.67
446.57	18.59
446.772	18.31
446.974	17.98
447.175	18.32
447.377	17.94
447.579	18.43
447.781	17.99
447.983	17.93
448.184	17.4
448.386	17.88
448.588	17.26
448.79	17.14
448.991	17.62
449.193	17.5
449.395	16.87
449.597	16.52
449.798	16.2
450	15.93
450.202	15.74
450.403	15.93
450.605	15.83
450.806	15.5
451.008	15.26
451.21	14.98
451.411	14.63
451.613	13.93
451.814	14.14
452.016	14
452.217	13.3
452.419	13.35
452.62	13.12
452.821	12.69
453.023	12.62
453.224	12.28
453.426	11.83
453.627	11.08
453.828	11.21
454.03	11.3
454.231	11.35
454.432	11.14
454.634	10.83
454.835	10.56
455.036	10.37
455.238	10.01
455.439	9.81
455.64	9.51
455.841	9.47
456.042	9.55
456.244	9.19
456.445	8.88
456.646	8.6
456.847	8.69
457.048	8.39
457.249	8.4
457.45	8.27
457.651	7.77
457.852	7.55
458.054	7.28
458.255	7.13
458.456	7.34
458.657	7.18
458.858	6.71
459.058	6.67
459.259	6.69
459.46	6.46
459.661	6.33
459.862	6.5
460.063	6.35
460.264	6.15
460.465	6.05
460.666	6.03
460.866	5.77
461.067	5.53
461.268	5.53
461.469	5.43
461.67	5.39
461.87	5.27
462.071	5.21
462.272	5.11
462.473	5.12
462.673	5.32
462.874	5.15
463.075	5.09
463.275	5.1
463.476	5.15
463.676	5.11
463.877	4.97
464.078	4.9
464.278	4.99
464.479	4.79
464.679	4.77
464.88	4.71
465.08	4.63
465.281	4.48
465.481	4.28
465.682	4.08
465.882	4.12
466.083	4.1
466.283	4.01
466.483	3.87
466.684	3.73
466.884	3.61
467.085	3.56
467.285	3.76
467.485	3.61
467.686	3.53
467.886	3.42
468.086	3.38
468.286	3.35
468.487	3.4
468.687	3.3
468.887	3.2
469.087	3.35
469.287	3.24
469.488	3.09
469.688	3.11
469.888	3.15
470.088	3.15
470.288	3.09
470.488	2.96
470.688	2.89
470.888	2.74
471.088	2.67
471.288	2.73
471.488	2.81
471.688	2.72
471.888	2.66
472.088	2.8
472.288	2.68
472.488	2.57
472.688	2.54
472.888	2.65
473.088	2.58
473.288	2.47
473.488	2.49
473.688	2.63
473.887	2.46
474.087	2.41
474.287	2.42
474.487	2.34
474.687	2.39
474.886	2.36
475.086	2.28
475.286	2.34
475.486	2.2
475.685	2.25
475.885	2.17
476.085	2.22
476.284	2.19
476.484	2.26
476.684	2.27
476.883	2.3
477.083	2.18
477.282	2.15
477.482	2.16
477.681	2.13
477.881	2.07
478.08	2.11
478.28	2.03
478.479	2.08
478.679	2.07
478.878	2.04
479.078	2.05
479.277	2.11
479.477	2.07
479.676	2.05
479.875	1.97
480.075	1.96
480.274	2
480.473	2
480.673	1.99
480.872	2.05
481.071	2.04
481.271	2.02
481.47	1.99
481.669	1.95
481.868	1.98
482.067	1.94
482.267	1.91
482.466	1.94
482.665	1.9
482.864	1.91
483.063	1.9
483.262	2.01
483.461	2.01
483.661	2.03
483.86	2.02
484.059	2.04
484.258	2.06
484.457	2.03
484.656	1.97
484.855	2.05
485.054	1.88
485.253	1.98
485.452	1.95
485.651	2.07
485.849	1.99
486.048	2.01
486.247	2.01
486.446	2.09
486.645	2
486.844	2.09
487.043	2.04
487.241	2.09
487.44	2.09
487.639	2.11
487.838	2.1
488.037	2.09
488.235	2.19
488.434	2.15
488.633	2.04
488.831	2.16
489.03	2.2
489.229	2.25
489.427	2.22
489.626	2.24
489.825	2.26
490.023	2.28
490.222	2.24
490.42	2.31
490.619	2.36
490.817	2.34
491.016	2.38
491.214	2.36
491.413	2.38
491.611	2.34
491.81	2.36
492.008	2.43
492.207	2.52
492.405	2.49
492.604	2.42
492.802	2.55
493	2.58
493.199	2.61
493.397	2.6
493.595	2.68
493.794	2.66
493.992	2.77
494.19	2.67
494.388	2.81
494.587	2.73
494.785	2.74
494.983	2.68
495.181	2.81
495.379	2.9
495.578	2.95
495.776	2.94
495.974	2.93
496.172	2.95
496.37	3.06
496.568	3.07
496.766	3.07
496.964	3.17
497.162	3.15
497.36	3.2
497.558	3.22
497.756	3.3
497.954	3.3
498.152	3.34
498.35	3.42
498.548	3.36
498.746	3.38
498.944	3.39
499.142	3.45
499.34	3.51
499.538	3.63
499.736	3.55
499.933	3.6
500.131	3.62
500.329	3.75
500.527	3.75
500.725	3.83
500.922	3.84
501.12	3.84
501.318	3.94
501.516	3.93
501.713	4
501.911	3.97
502.109	3.97
502.306	4.07
502.504	4
502.701	4.07
502.899	4.13
503.097	4.37
503.294	4.24
503.492	4.3
503.689	4.35
503.887	4.34
504.084	4.42
504.282	4.42
504.479	4.38
504.677	4.56
504.874	4.48
505.072	4.44
505.269	4.64
505.466	4.69
505.664	4.7
505.861	4.65
506.059	4.75
506.256	4.76
506.453	4.82
506.651	4.93
506.848	4.97
507.045	4.97
507.242	5
507.44	5.01
507.637	5.1
507.834	5.1
508.031	5.22
508.229	5.12
508.426	5.04
508.623	5.25
508.82	5.31
509.017	5.26
509.214	5.27
509.411	5.37
509.608	5.33
509.805	5.48
510.003	5.45
510.2	5.53
510.397	5.64
510.594	5.55
510.791	5.63
510.988	5.64
511.184	5.63
511.381	5.49
511.578	5.64
511.775	5.81
511.972	5.76
512.169	5.81
512.366	5.73
512.563	5.94
512.76	5.94
512.956	5.99
513.153	5.92
513.35	5.89
513.547	5.92
513.744	6.04
513.94	6.07
514.137	6.1
514.334	6.12
514.53	6.17
514.727	6.35
514.924	6.23
515.12	6.26
515.317	6.27
515.514	6.21
515.71	6.23
515.907	6.43
516.103	6.39
516.3	6.33
516.497	6.44
516.693	6.48
516.89	6.47
517.086	6.48
517.283	6.55
517.479	6.38
517.676	6.59
517.872	6.61
518.068	6.67
518.265	6.62
518.461	6.57
518.658	6.68
518.854	6.67
519.05	6.81
519.247	6.89
519.443	6.71
519.639	6.91
519.836	6.75
520.032	6.73
520.228	6.89
520.424	6.85
520.621	6.97
520.817	6.96
521.013	6.87
521.209	7.08
521.405	7.07
521.601	7.02
521.798	7.01
521.994	7.01
522.19	6.98
522.386	6.99
522.582	7.11
522.778	7.25
522.974	7.09
523.17	7.18
523.366	7.11
523.562	7.17
523.758	7.22
523.954	7.02
524.15	7.26
524.346	7.21
524.542	7.27
524.738	7.22
524.934	7.35
525.129	7.34
525.325	7.27
525.521	7.26
525.717	7.47
525.913	7.25
526.109	7.31
526.304	7.44
526.5	7.39
526.696	7.44
526.892	7.39
527.087	7.57
527.283	7.49
527.479	7.5
527.674	7.32
527.87	7.49
528.066	7.46
528.261	7.52
528.457	7.4
528.653	7.6
528.848	7.58
529.044	7.66
529.239	7.5
529.435	7.53
529.63	7.5
529.826	7.48
530.021	7.58
530.217	7.61
530.412	7.52
530.608	7.62
530.803	7.61
530.999	7.5
531.194	7.63
531.389	7.75
531.585	7.66
531.78	7.78
531.975	7.71
532.171	7.77
532.366	7.7
532.561	7.73
532.757	7.7
532.952	7.83
533.147	7.62
533.342	7.77
533.538	7.72
533.733	7.89
533.928	7.59
534.123	7.75
534.318	7.87
534.513	7.7
534.709	7.9
534.904	7.82
535.099	7.87
535.294	7.91
535.489	7.88
535.684	7.87
535.879	7.79
536.074	7.92
536.269	7.93
536.464	7.91
536.659	7.81
536.854	7.84
537.049	7.89
537.244	7.87
537.439	7.9
537.634	7.92
537.828	7.92
538.023	7.92
538.218	7.93
538.413	7.8
538.608	7.92
538.803	7.92
538.997	7.93
539.192	7.87
539.387	7.88
539.582	7.91
539.776	7.86
539.971	7.97
540.166	8.08
540.36	7.92
540.555	8.03
540.75	7.97
540.944	7.97
541.139	8.01
541.334	8
541.528	7.97
541.723	8.03
541.917	8.01
542.112	7.95
542.306	7.87
542.501	7.93
542.695	7.94
542.89	7.91
543.084	8.05
543.279	8.04
543.473	8.05
543.668	8.08
543.862	7.91
544.056	7.94
544.251	8.04
544.445	8.17
544.64	8.12
544.834	7.8
545.028	7.67
545.222	8.01
545.417	8.21
545.611	8.09
545.805	8.01
546	7.85
546.194	8.09
546.388	8.04
546.582	7.93
546.776	8.02
546.97	8.02
547.165	8.03
547.359	7.99
547.553	7.99
547.747	8.02
547.941	8.2
548.135	8.02
548.329	8.05
548.523	8.05
548.717	7.92
548.911	8.08
549.105	7.98
549.299	8.12
549.493	8.07
549.687	7.95
549.881	8.11
550.075	8.08
550.269	8.02
550.463	8.11
550.657	8.09
550.85	8.02
551.044	8.04
551.238	8.1
551.432	8.04
551.626	8.16
551.82	8.08
552.013	8
552.207	8.15
552.401	8.16
552.594	8.06
552.788	8.02
552.982	8.04
553.176	7.96
553.369	8.23
553.563	8.11
553.756	8.04
553.95	8.18
554.144	8.09
554.337	8.15
554.531	7.9
554.724	8.12
554.918	8.1
555.111	8.04
555.305	8.13
555.498	8.01
555.692	8.22
555.885	8.08
556.079	8.07
556.272	8.1
556.466	8.09
556.659	8.04
556.852	8.2
557.046	8.02
557.239	8.02
557.432	8.1
557.626	8.05
557.819	8.21
558.012	8.12
558.206	8.24
558.399	8.08
558.592	8.01
558.785	8.04
558.979	8.11
559.172	8.1
559.365	8.1
559.558	8.06
559.751	7.99
559.944	8.2
560.138	8.09
560.331	8.1
560.524	8.14
560.717	8.08
560.91	8.13
561.103	8.13
561.296	7.93
561.489	8.06
561.682	8.21
561.875	8.17
562.068	8.22
562.261	7.94
562.454	8.25
562.647	8.08
562.84	8.18
563.032	8.12
563.225	8.03
563.418	8.04
563.611	8.17
563.804	8.13
563.997	7.98
564.19	7.89
564.382	8.2
564.575	8.12
564.768	8.01
564.961	8.16
565.153	8.03
565.346	7.94
565.539	8.17
565.731	8.02
565.924	8.14
566.117	8.16
566.309	8.07
566.502	8.06
566.695	8.01
566.887	8.13
567.08	8.09
567.272	8.09
567.465	7.94
567.657	8.04
567.85	8.03
568.042	8.13
568.235	8.12
568.427	7.88
568.62	8.1
568.812	8.02
569.005	8.05
569.197	7.99
569.389	8.09
569.582	8.03
569.774	7.98
569.966	7.99
570.159	7.97
570.351	7.89
570.543	8
570.736	8.01
570.928	7.91
571.12	8.01
571.312	7.96
571.505	7.81
571.697	8.01
571.889	7.98
572.081	8.01
572.273	8.01
572.465	7.96
572.658	7.97
572.85	8.01
573.042	8.03
573.234	7.84
573.426	7.96
573.618	7.87
573.81	7.9
574.002	8.01
574.194	8.05
574.386	7.94
574.578	7.8
574.77	7.92
574.962	7.94
575.154	7.83
575.346	7.82
575.538	7.78
575.729	7.87
575.921	7.9
576.113	7.98
576.305	7.91
576.497	7.95
576.689	7.8
576.88	7.76
577.072	7.9
577.264	7.85
577.456	7.89
577.647	7.83
577.839	7.94
578.031	7.93
578.223	7.81
578.414	7.71
578.606	7.79
578.798	7.86
578.989	7.83
579.181	7.83
579.372	7.83
579.564	7.86
579.755	7.78
579.947	7.7
580.139	7.8
580.33	7.67
580.522	7.77
580.713	7.7
580.905	7.78
581.096	7.86
581.287	7.75
581.479	7.72
581.67	7.75
581.862	7.65
582.053	7.77
582.244	7.6
582.436	7.79
582.627	7.64
582.818	7.63
583.01	7.66
583.201	7.72
583.392	7.61
583.583	7.59
583.775	7.51
583.966	7.58
584.157	7.62
584.348	7.7
584.54	7.66
584.731	7.69
584.922	7.53
585.113	7.46
585.304	7.59
585.495	7.57
585.686	7.64
585.877	7.58
586.068	7.64
586.259	7.58
586.45	7.59
586.641	7.51
586.832	7.56
587.023	7.46
587.214	7.47
587.405	7.54
587.596	7.43
587.787	7.33
587.978	7.43
588.169	7.43
588.36	7.4
588.551	7.42
588.742	7.41
588.932	7.51
589.123	7.24
589.314	7.46
589.505	7.34
589.696	7.34
589.886	7.31
590.077	7.29
590.268	7.3
590.458	7.22
590.649	7.18
590.84	7.31
591.03	7.32
591.221	7.29
591.412	7.1
591.602	7.31
591.793	7.17
591.984	7.23
592.174	7.21
592.365	7.36
592.555	7.15
592.746	7.13
592.936	7.13
593.127	7.17
593.317	7.14
593.508	7.18
593.698	7.09
593.889	7.11
594.079	7.08
594.269	7.02
594.46	7.08
594.65	7.03
594.84	7.04
595.031	6.96
595.221	6.99
595.411	7.04
595.602	7.03
595.792	7.02
595.982	6.89
596.172	7.04
596.363	6.9
596.553	6.92
596.743	6.95
596.933	6.86
597.123	6.87
597.314	6.67
597.504	6.74
597.694	6.9
597.884	6.86
598.074	6.87
598.264	6.77
598.454	6.77
598.644	6.73
598.834	6.79
599.024	6.65
599.214	6.71
599.404	6.82
599.594	6.72
599.784	6.61
599.974	6.73
600.164	6.67
600.354	6.67
600.544	6.57
600.734	6.64
600.924	6.58
601.114	6.54
601.303	6.47
601.493	6.52
601.683	6.57
601.873	6.49
602.063	6.48
602.252	6.5
602.442	6.42
602.632	6.42
602.821	6.38
603.011	6.45
603.201	6.5
603.39	6.35
603.58	6.33
603.77	6.37
603.959	6.46
604.149	6.34
604.339	6.31
604.528	6.37
604.718	6.33
604.907	6.3
605.097	6.22
605.286	6.28
605.476	6.23
605.665	6.27
605.855	6.22
606.044	6.34
606.234	6.23
606.423	6.23
606.612	6.13
606.802	6.11
606.991	6.23
607.181	6.16
607.37	6.14
607.559	5.87
607.749	6.1
607.938	6
608.127	6.07
608.316	6.02
608.506	5.99
608.695	6.08
608.884	5.94
609.073	6
609.263	6.1
609.452	5.96
609.641	5.83
609.83	5.85
610.019	5.93
610.208	5.82
610.397	5.82
610.586	5.84
610.775	5.76
610.965	5.79
611.154	5.68
611.343	5.78
611.532	5.76
611.721	5.83
611.91	5.73
612.099	5.79
612.287	5.6
612.476	5.63
612.665	5.72
612.854	5.6
613.043	5.61
613.232	5.69
613.421	5.52
613.61	5.56
613.798	5.54
613.987	5.6
614.176	5.57
614.365	5.57
614.554	5.53
614.742	5.57
614.931	5.38
615.12	5.54
615.309	5.48
615.497	5.36
615.686	5.3
615.875	5.34
616.063	5.32
616.252	5.33
616.44	5.39
616.629	5.32
616.818	5.28
617.006	5.29
617.195	5.23
617.383	5.29
617.572	5.1
617.76	5.17
617.949	5.22
618.137	5.27
618.326	5.25
618.514	5.01
618.703	5.04
618.891	5.13
619.079	5.04
619.268	5.16
619.456	5.03
619.644	5.1
619.833	5
620.021	5.06
620.209	4.91
620.398	4.99
620.586	4.88
620.774	4.99
620.962	4.92
621.151	4.98
621.339	4.87
621.527	4.85
621.715	4.81
621.903	4.89
622.092	4.79
622.28	4.89
622.468	4.67
622.656	4.76
622.844	4.78
623.032	4.84
623.22	4.61
623.408	4.8
623.596	4.7
623.784	4.74
623.972	4.59
624.16	4.73
624.348	4.74
624.536	4.75
624.724	4.6
624.912	4.6
625.1	4.61
625.288	4.62
625.476	4.52
625.664	4.59
625.851	4.55
626.039	4.51
626.227	4.48
626.415	4.48
626.603	4.43
626.79	4.49
626.978	4.41
627.166	4.47
627.354	4.39
627.541	4.38
627.729	4.26
627.917	4.49
628.104	4.44
628.292	4.3
628.48	4.37
628.667	4.26
628.855	4.31
629.042	4.33
629.23	4.24
629.418	4.23
629.605	4.31
629.793	4.12
629.98	4.21
630.168	4.21
630.355	4.19
630.543	4.18
630.73	4.11
630.917	4.05
631.105	4.24
631.292	4.09
631.48	4.09
631.667	4.19
631.854	4.07
632.042	4.04
632.229	3.97
632.416	4.06
632.604	4.03
632.791	3.9
632.978	4.03
633.165	3.99
633.353	4.01
633.54	3.97
633.727	3.83
633.914	3.85
634.101	3.84
634.289	3.94
634.476	3.79
634.663	3.81
634.85	3.81
635.037	3.8
635.224	3.71
635.411	3.77
635.598	3.74
635.785	3.76
635.972	3.63
636.159	3.75
636.346	3.73
636.533	3.63
636.72	3.63
636.907	3.65
637.094	3.61
637.281	3.54
637.468	3.58
637.655	3.58
637.842	3.62
638.029	3.56
638.215	3.49
638.402	3.55
638.589	3.48
638.776	3.46
638.963	3.44
639.149	3.56
639.336	3.54
639.523	3.5
639.709	3.41
639.896	3.39
640.083	3.47
640.27	3.45
640.456	3.38
640.643	3.36
640.829	3.32
641.016	3.35
641.203	3.3
641.389	3.34
641.576	3.29
641.762	3.26
641.949	3.25
642.135	3.35
642.322	3.24
642.508	3.19
642.695	3.24
642.881	3.19
643.068	3.17
643.254	3.22
643.441	3.18
643.627	3.19
643.813	3.03
644	3.24
644.186	3.06
644.372	3.14
644.559	3.07
644.745	3.1
644.931	3.02
645.118	3.07
645.304	3.04
645.49	3.11
645.676	2.96
645.862	3.02
646.049	3.04
646.235	2.96
646.421	3.07
646.607	3.08
646.793	2.92
646.979	2.9
647.165	2.97
647.352	2.98
647.538	2.93
647.724	2.89
647.91	2.91
648.096	2.9
648.282	2.92
648.468	2.89
648.654	2.9
648.84	2.88
649.026	2.8
649.212	2.8
649.397	2.75
649.583	2.78
649.769	2.79
649.955	2.8
650.141	2.81
650.327	2.83
650.513	2.72
650.698	2.8
650.884	2.66
651.07	2.78
651.256	2.67
651.442	2.69
651.627	2.66
651.813	2.68
651.999	2.68
652.184	2.64
652.37	2.63
652.556	2.57
652.741	2.64
652.927	2.51
653.113	2.58
653.298	2.59
653.484	2.55
653.669	2.49
653.855	2.53
654.04	2.55
654.226	2.5
654.412	2.56
654.597	2.46
654.782	2.51
654.968	2.55
655.153	2.52
655.339	2.51
655.524	2.47
655.71	2.51
655.895	2.48
656.08	2.46
656.266	2.49
656.451	2.46
656.636	2.37
656.822	2.48
657.007	2.39
657.192	2.45
657.378	2.38
657.563	2.38
657.748	2.35
657.933	2.34
658.118	2.3
658.304	2.32
658.489	2.38
658.674	2.34
658.859	2.29
659.044	2.31
659.229	2.31
659.414	2.29
659.599	2.29
659.785	2.23
659.97	2.29
660.155	2.29
660.34	2.26
660.525	2.24
660.71	2.17
660.895	2.22
661.08	2.19
661.264	2.16
661.449	2.22
661.634	2.21
661.819	2.17
662.004	2.19
662.189	2.09
662.374	2.11
662.559	2.04
662.743	2.02
662.928	2.07
663.113	2.06
663.298	2.06
663.483	1.99
663.667	2
663.852	2.03
664.037	2.03
664.221	1.95
664.406	2.03
664.591	2
664.775	1.95
664.96	1.95
665.145	1.86
665.329	1.93
665.514	1.91
665.698	1.94
665.883	1.88
666.068	1.95
666.252	1.9
666.437	1.8
666.621	1.92
666.806	1.85
666.99	1.82
667.174	1.75
667.359	1.84
667.543	1.8
667.728	1.8
667.912	1.72
668.096	1.79
668.281	1.73
668.465	1.8
668.649	1.76
668.834	1.71
669.018	1.76
669.202	1.71
669.387	1.74
669.571	1.77
669.755	1.68
669.939	1.71
670.124	1.71
670.308	1.72
670.492	1.67
670.676	1.64
670.86	1.63
671.044	1.64
671.228	1.7
671.413	1.54
671.597	1.61
671.781	1.62
671.965	1.66
672.149	1.6
672.333	1.59
672.517	1.62
672.701	1.59
672.885	1.59
673.069	1.49
673.253	1.62
673.437	1.51
673.621	1.52
673.804	1.56
673.988	1.56
674.172	1.48
674.356	1.42
674.54	1.48
674.724	1.58
674.908	1.5
675.091	1.53
675.275	1.46
675.459	1.49
675.643	1.6
675.826	1.47
676.01	1.39
676.194	1.45
676.377	1.47
676.561	1.51
676.745	1.44
676.928	1.43
677.112	1.47
677.296	1.37
677.479	1.38
677.663	1.38
677.846	1.39
678.03	1.39
678.213	1.35
678.397	1.42
678.58	1.31
678.764	1.38
678.947	1.29
679.131	1.35
679.314	1.38
679.498	1.28
679.681	1.33
679.865	1.43
680.048	1.31
680.231	1.29
680.415	1.33
680.598	1.26
680.781	1.28
680.965	1.24
681.148	1.34
681.331	1.27
681.514	1.29
681.698	1.23
681.881	1.27
682.064	1.24
682.247	1.24
682.43	1.14
682.614	1.26
682.797	1.26
682.98	1.27
683.163	1.19
683.346	1.22
683.529	1.17
683.712	1.14
683.895	1.2
684.078	1.13
684.261	1.16
684.444	1.24
684.627	1.18
684.81	1.18
684.993	1.12
685.176	1.19
685.359	1.15
685.542	1.11
685.725	1.25
685.908	1.13
686.091	1.11
686.274	1.16
686.457	1.22
686.639	1.13
686.822	1.2
687.005	1.11
687.188	1.13
687.371	1.16
687.553	1.17
687.736	1.11
687.919	1.22
688.102	1.14
688.284	1.05
688.467	1.05
688.65	1
688.832	1.01
689.015	1.04
689.197	0.95
689.38	1.14
689.563	1.16
689.745	0.96
689.928	0.96
690.11	1.02
690.293	1
690.475	0.95
690.658	1.02
690.84	1.04
691.023	1.08
691.205	0.95
691.388	1.05
691.57	1.03
691.752	1.06
691.935	0.91
692.117	0.96
692.3	1.01
692.482	0.97
692.664	0.96
692.847	0.96
693.029	1
693.211	0.94
693.393	0.98
693.576	0.89
693.758	0.91
693.94	0.96
694.122	0.93
694.304	0.94
694.487	0.93
694.669	0.97
694.851	0.82
695.033	0.9
695.215	0.89
695.397	0.86
695.579	0.86
695.761	0.88
695.943	0.77
696.125	0.94
696.308	0.91
696.49	0.77
696.671	0.98
696.853	0.81
697.035	1.08
697.217	0.82
697.399	0.97
697.581	0.8
697.763	0.87
697.945	0.84
698.127	0.82
698.309	0.98
698.491	0.86
698.672	0.89
698.854	0.87
699.036	0.92
699.218	0.87
699.399	0.85
699.581	0.86
699.763	0.8
699.945	0.79
700.126	0.77
700.308	0.87
700.49	0.81
700.671	0.72
700.853	0.71
701.035	0.78
701.216	0.8
701.398	0.74
701.579	0.75
701.761	0.88
701.943	0.77
702.124	0.79
702.306	0.8
702.487	0.94
702.669	0.78
702.85	0.74
703.031	0.69
703.213	0.86
703.394	0.8
703.576	0.75
703.757	0.89
703.938	0.78
704.12	0.85
704.301	0.78
704.483	0.74
704.664	0.76
704.845	0.9
705.026	0.83
705.208	0.68
705.389	0.73
705.57	0.76
705.751	0.74
705.933	0.69
706.114	0.84
706.295	0.79
706.476	0.68
706.657	0.84
706.838	0.73
707.02	0.8
707.201	0.68
707.382	0.72
707.563	0.82
707.744	0.74
707.925	0.71
708.106	0.69
708.287	0.72
708.468	0.84
708.649	0.76
708.83	0.74
709.011	0.68
709.192	0.73
709.373	0.58
709.554	0.65
709.734	0.73
709.915	0.7
710.096	0.68
710.277	0.58
710.458	0.68
710.639	0.68
710.819	0.55
711	0.66
711.181	0.73
711.362	0.67
711.542	0.72
711.723	0.65
711.904	0.74
712.085	0.71
712.265	0.68
712.446	0.58
712.627	0.68
712.807	0.67
712.988	0.67
713.168	0.53
713.349	0.7
713.53	0.44
713.71	0.54
713.891	0.55
714.071	0.61
714.252	0.64
714.432	0.66
714.613	0.49
714.793	0.59
714.974	0.72
715.154	0.64
715.334	0.65
715.515	0.67
715.695	0.52
715.876	0.68
716.056	0.58
716.236	0.6
716.417	0.64
716.597	0.59
716.777	0.82
716.957	0.61
717.138	0.63
717.318	0.59
717.498	0.52
717.678	0.61
717.859	0.67
718.039	0.47
718.219	0.68
718.399	0.6
718.579	0.51
718.759	0.51
718.939	0.63
719.12	0.62
719.3	0.57
719.48	0.45
719.66	0.46
719.84	0.67
720.02	0.56
720.2	0.55
720.38	0.6
720.56	0.72
720.74	0.56
720.92	0.57
721.1	0.78
721.279	0.65
721.459	0.56
721.639	0.43
721.819	0.61
721.999	0.65
722.179	0.64
722.359	0.46
722.538	0.6
722.718	0.56
722.898	0.58
723.078	0.59
723.257	0.63
723.437	0.63
723.617	0.68
723.797	0.6
723.976	0.56
724.156	0.69
724.336	0.59
724.515	0.76
724.695	0.45
724.874	0.54
725.054	0.65
725.234	0.49
725.413	0.61
725.593	0.57
725.772	0.56
725.952	0.53
726.131	0.53
726.311	0.58
726.49	0.56
726.67	0.52
726.849	0.58
727.028	0.6
727.208	0.54
727.387	0.54
727.567	0.47
727.746	0.55
727.925	0.48
728.105	0.45
728.284	0.5
728.463	0.57
728.643	0.63
728.822	0.48
729.001	0.54
729.18	0.53
729.359	0.74
729.539	0.63
729.718	0.58
729.897	0.62
730.076	0.49
730.255	0.53
730.434	0.55
730.614	0.64
730.793	0.62
730.972	0.53
731.151	0.55
731.33	0.64
731.509	0.58
731.688	0.52
731.867	0.58
732.046	0.43
732.225	0.79
732.404	0.41
732.583	0.52
732.762	0.51
732.941	0.63
733.12	0.63
733.298	0.56
733.477	0.69
733.656	0.53
733.835	0.46
734.014	0.7
734.193	0.56
734.371	0.64
734.55	0.66
734.729	0.49
734.908	0.68
735.086	0.55
735.265	0.66
735.444	0.43
735.623	0.49
735.801	0.51
735.98	0.5
736.159	0.53
736.337	0.61
736.516	0.7
736.694	0.58
736.873	0.57
737.052	0.83
737.23	0.69
737.409	0.53
737.587	0.76
737.766	0.43
737.944	0.53
738.123	0.66
738.301	0.54
738.479	0.59
738.658	0.62
738.836	0.41
739.015	0.61
739.193	0.63
739.371	0.4
739.55	0.57
739.728	0.42
739.906	0.77
740.085	0.75
740.263	0.59
740.441	0.35
740.62	0.77
740.798	0.66
740.976	0.48
741.154	0.53
741.332	0.69
741.511	0.41
741.689	0.54
741.867	0.52
742.045	0.58
742.223	0.58
742.401	0.42
742.579	0.57
742.757	0.45
742.935	0.35
743.114	0.52
743.292	0.43
743.47	0.51
743.648	0.43
743.826	0.47
744.004	0.58
744.181	0.62
744.359	0.45
744.537	0.48
744.715	0.54
744.893	0.44
745.071	0.52
745.249	0.44
745.427	0.35
745.605	0.41
745.782	0.42
745.96	0.56
746.138	0.55
746.316	0.5
746.493	0.36
746.671	0.41
746.849	0.33
747.027	0.62
747.204	0.31
747.382	0.48
747.56	0.34
747.737	0.48
747.915	0.4
748.093	0.52
748.27	0.39
748.448	0.46
748.625	0.3
748.803	0.31
748.98	0.31
749.158	0.39
749.335	0.52
749.513	0.35
749.69	0.31
749.868	0.32
750.045	0.42
750.223	0.36
750.4	0.23
750.578	0.68
750.755	0.46
750.932	0.24
751.11	0.48
751.287	0.18
751.464	0.44
751.642	0.34
751.819	0.48
751.996	0.45
752.173	0.34
752.351	0.34
752.528	0.48
752.705	0.37
752.882	0.28
753.06	0.34
753.237	0.44
753.414	0.55
753.591	0.6
753.768	0.39
753.945	0.29
754.122	0.39
754.299	0.46
754.476	0.37
754.654	0.31
754.831	0.43
755.008	0.49
755.185	0.3
755.362	0.27
755.539	0.35
755.716	0.49
755.892	0.35
756.069	0.34
756.246	0.29
756.423	0.34
756.6	0.52
756.777	0.36
756.954	0.56
757.131	0.36
757.307	0.25
757.484	0.24
757.661	0.36
757.838	0.51
758.015	0.25
758.191	0.43
758.368	0.44
758.545	0.55
758.721	0.47
758.898	0.28
759.075	0.32
759.251	0.49
759.428	0.41
759.605	0.29
759.781	0.22
759.958	0.43
760.134	0.28
760.311	0.24
760.488	0.45
760.664	0.51
760.841	0.38
761.017	0.25
761.194	0.41
761.37	0.49
761.547	0.34
761.723	0.37
761.899	0.5
762.076	0.22
762.252	0.33
762.429	0.37
762.605	0.39
762.781	0.38
762.958	0.49
763.134	0.18
763.31	0.34
763.486	0.47
763.663	0.26
763.839	0.44
764.015	0.1
764.191	0.08
764.368	0.24
764.544	0.3
764.72	0.37
764.896	0.42
765.072	0.44
765.248	0.41
765.425	0.31
765.601	0.41
765.777	0.37
765.953	0.07
766.129	0.15
766.305	0.18
766.481	0.51
766.657	0.31
766.833	0.47
767.009	0.29
767.185	0.32
767.361	0.24
767.537	0.16
767.713	0.48
767.889	0.26
768.065	0.39
768.24	0.35
768.416	0.48
768.592	0.24
768.768	0.33
768.944	0.41
769.12	0.14
769.295	0.27
769.471	0.34
769.647	0.44
769.823	0.46
769.998	0.13
770.174	0.25
770.35	0.68
770.525	0.66
770.701	0.32
770.877	0.38
771.052	0.26
771.228	0.42
771.403	0.39
771.579	0.4
771.755	0.48
771.93	0.31
772.106	0.19
772.281	0.18
772.457	0.38
772.632	0.35
772.808	0.29
772.983	0.42
773.159	0.14
773.334	0.55
773.509	0.36
773.685	0.18
773.86	0.53
774.036	0.56
774.211	0.3
774.386	0.26
774.562	0.37
774.737	0.63
774.912	0.17
775.087	0.4
775.263	0.41
775.438	0.35
775.613	0.16
775.788	0.34
775.964	0.51
776.139	0.69
776.314	0.13
776.489	0.33
776.664	0.35
776.839	0.12
777.014	0.62
777.19	0.46
777.365	0.57
777.54	0.59
777.715	0.18
777.89	0.45
778.065	0.26
778.24	0.33
778.415	0.52
778.59	0.2
778.765	0.22
778.94	0.27
779.115	0.3
779.289	0.23
779.464	0.42
779.639	0.26
779.814	0.15
779.989	0.2
780.164	0.55
780.339	0.26
780.513	0.28
780.688	0.27
780.863	0.3
781.038	0.57
781.212	0.39
781.387	0.23
781.562	0.61
781.737	0.35
781.911	0.57
782.086	0.23
782.261	0.41
782.435	0.63
782.61	0.27
782.784	0.39
782.959	0.68
783.134	0.23
783.308	0.03
783.483	0.28
783.657	0.74
783.832	0.68
784.006	0.14
784.181	0.53
784.355	0.65
784.53	0.48
784.704	0.11
784.878	0.69
785.053	0.61
785.227	0.57
785.402	0.69
785.576	0.2
785.75	0.41
785.925	0.55
786.099	0.59
786.273	0.48
786.448	0.6
786.622	0.34
786.796	0.41
786.97	0.35
787.145	0.9
787.319	0.21
787.493	0.6
787.667	0.07
787.841	0.32
788.015	0.69
788.19	0.26
788.364	0.33
788.538	0.6
788.712	0.77
788.886	0.24
789.06	0.74
789.234	0.55
789.408	0.07
789.582	0.22
789.756	0.39
789.93	0.32
790.104	0.31
790.278	0.2
790.452	0.29
790.626	0.54
790.8	0.27
790.973	0.54
791.147	0.68
791.321	0.65
791.495	0.71
791.669	0.65
791.843	0.62
792.016	0.48
792.19	0.81
792.364	0.21
792.538	0.8
792.711	0.52
792.885	0.46
793.059	0.1
793.233	0.05
793.406	0.58
793.58	0.49
793.754	0.48
793.927	0.09
794.101	0.69
794.274	0.4
794.448	0.76
794.622	0.09
794.795	0.93
794.969	0.14
795.142	0.72
795.316	0.46
795.489	0.43
795.663	0.87
795.836	0.43
796.009	0.16
796.183	0.7
796.356	0.48
796.53	0.42
796.703	0.3
796.876	0.9
797.05	0.49
797.223	0.36
797.396	0.48
797.57	0.5
797.743	0.5
797.916	0.25
798.09	0.31
798.263	0.71
798.436	0.66
798.609	0.34
798.782	0.41
798.956	0.63
799.129	0.44
799.302	0.12
799.475	0.36
799.648	0.14
799.821	0.23
799.994	0.52
800.167	0.19
800.34	0.48
800.514	0.42
800.687	0.5
800.86	0.2
801.033	0.59
801.206	0.35
801.379	0.14
801.551	0.81
801.724	0.37
801.897	1.02
802.07	0.53
802.243	0.03
802.416	0.15
802.589	0.49
802.762	0.61
802.935	0.65
803.107	0.53
803.28	0.88
803.453	0.61
803.626	0.18
803.798	0.57
803.971	0.4
804.144	0.74
804.317	0.66
804.489	0.84
804.662	0.85
804.835	0.59
805.007	0.22
805.18	1.12
805.353	0.66
805.525	0.1
805.698	0.35
805.87	0.84
806.043	0.64
806.215	0.26
806.388	0.22
806.56	0.55
806.733	1.16
806.905	0.57
807.078	0.31
807.25	0.24
807.423	0.67
807.595	0.41
807.768	0.47
807.94	0.69
808.112	0.93
808.285	0.7
808.457	0.59
808.629	0.5
808.802	0.85
808.974	0.61
809.146	0.43
809.318	0.24
809.491	0.58
809.663	0.74
809.835	0.36
810.007	0.94
810.18	0.21
810.352	0.23
810.524	0.24
810.696	1
810.868	0.73
811.04	0.3
811.212	0.39
811.384	0.56
811.556	0.65
811.728	0.63
811.901	1.04
812.073	0.6
812.245	0.83
812.417	0.69
812.589	-0.21
812.76	0.72
812.932	0.43
813.104	0.7
813.276	0.68
813.448	0.69
813.62	0.51
813.792	0.41
813.964	0.5
814.136	0.43
814.307	0.34
814.479	0.22
814.651	0.49
814.823	1.48
814.995	0.58
815.166	0.68
815.338	0.03
815.51	0.26
815.681	1.56
815.853	0.65
816.025	0.51
816.196	1.1
816.368	0.77
816.54	-0.08
816.711	0.41
816.883	0.99
817.054	1.51
817.226	-0.06
817.398	0.84
817.569	0.57
817.741	0.75
817.912	0.38
818.084	0.5
818.255	0.9
818.426	0.25
818.598	0.45
818.769	0.45
818.941	0.98
819.112	1.44
819.283	0.74
819.455	0.31
819.626	0.77
819.798	0.79
819.969	0.72
820.14	0.44
820.311	0.15
820.483	0.53
820.654	0.61
820.825	0.29
820.996	0.68
821.168	-0.02
821.339	0.66
821.51	0.47
821.681	0.68
821.852	0.76
822.023	-0.02
822.195	0.22
822.366	1.13
822.537	0.4
822.708	0.59
822.879	0.02
823.05	1.35
823.221	0.68
823.392	0.83
823.563	0.36
823.734	0.89
823.905	0.88
824.076	0.67
824.247	0.26
824.418	0.12
824.589	1.52
824.759	1.15
824.93	0.83
825.101	0.33
825.272	1.22
825.443	0.68
825.614	1.05
825.784	0.17
825.955	1.48
826.126	1.46
826.297	1.1
826.467	1.37
826.638	1.89
826.809	0.49
826.98	0.23
827.15	1.26
827.321	0.84
827.492	1.91
827.662	0.59
827.833	1.38
828.003	1.43
828.174	-0.13
828.345	-0.41
828.515	1.27
828.686	0.81
828.856	0.35
829.027	0.9
829.197	0.52
829.368	1.31
829.538	0.11
829.709	-0.04
829.879	0.76
830.049	1.47
830.22	0.81
830.39	0.63
830.56	0.97
830.731	0.77
830.901	0.62
831.072	1.08
831.242	0.6
831.412	1.06
831.582	1.32
831.753	0.2
831.923	1.69
832.093	0.64
832.263	0.65
832.434	0.09
832.604	0.56
832.774	1.55
832.944	0.4
833.114	0.73
833.284	0.68
833.454	0.36
833.624	0.65
833.795	0.66
833.965	1.49
834.135	1.1
834.305	0.11
834.475	0.16
834.645	0.83
834.815	0.43
834.985	-0.24
835.155	0.4
835.325	1.01
835.494	1.39
835.664	0.37
835.834	0.35
836.004	1.36
836.174	1.12
836.344	0.85
836.514	-0.01
836.684	0.72
836.853	0.69
837.023	1.43
837.193	0.7
837.363	2
837.532	1.81
837.702	0.72
837.872	0.12
838.041	1.68
838.211	2.13
838.381	-0.05
838.55	1.08
838.72	2.89
838.89	1.93
839.059	0.88
839.229	0.12
839.398	1.79
839.568	0.81
839.738	1.23
839.907	1.8
840.077	1.23
840.246	0.56
840.416	0.81
840.585	-0.1
840.755	2.28
840.924	1.65
841.093	0.08
841.263	1.68
841.432	0.76
841.602	0.25
841.771	0.3
841.94	1.16
842.11	3.08
842.279	2.27
842.448	0.52
842.617	0.39
842.787	2.24
842.956	0.71
843.125	0.34
843.294	0.6
843.464	1.81
843.633	0.36
843.802	0.56
843.971	1.05
844.14	1.59
844.309	0.81
844.479	0.18
844.648	0.97
844.817	1
844.986	1.23
845.155	0.59
845.324	0.88
845.493	0.31
845.662	1.36
845.831	2.33
846	1.9
846.169	0.48
846.338	2.76
846.507	0.32
846.676	1.97
846.844	0.75
847.013	1.85
847.182	0.92
847.351	0.83
847.52	0.77
847.689	1.04
847.858	0.38
848.026	0.45
848.195	1.21
848.364	0.86
848.533	0.36
848.701	0.76
848.87	1.45
849.039	2.24
849.207	2.35
849.376	2.37
849.545	2.27
849.713	0.97
849.882	0.41
850.051	0.27
850.219	1.65
850.388	0.94
850.556	0.16
850.725	0.6
850.893	1.97
851.062	1.29
851.23	1.94
851.399	0.13
851.567	0.51
851.736	1.11
851.904	0.7
852.073	2.01
852.241	1.99
852.41	1.09
852.578	0.86
852.746	0.71
852.915	2.05
853.083	1.3
853.251	-0.28
853.42	1.36
853.588	1.68
853.756	2.92
853.924	1.78
854.093	0.76
854.261	1.21
854.429	0.02
854.597	0.56
854.765	-0.62
854.934	1.92
855.102	2.47
855.27	1.88
855.438	2.03
855.606	2.45
855.774	1.77
855.942	0.18
856.11	0.95
856.278	1.17
856.446	1.86
856.614	1.45
856.782	0.17
856.95	2.84
857.118	2.11
857.286	2.33
857.454	1.24
857.622	2.21
857.79	0.94
857.958	0.42
858.126	0.84
858.294	1.53
858.462	1.05
858.629	0.88
858.797	-0.32
858.965	0.03
859.133	1.44
859.301	1.23
859.468	1.56
859.636	0.85
859.804	2.83
859.971	1.14
860.139	0.23
860.307	3.01
860.474	2.1
860.642	0.22
860.81	-0.26
860.977	0.44
861.145	2.09
861.313	-0.31
861.48	1.66
861.648	2.11
861.815	1.48
861.983	0.41
862.15	1.14
862.318	1.25
862.485	2.04
862.653	-0.18
862.82	0.15
862.988	2.99
863.155	2.87
863.322	-0.18
863.49	-0.28
863.657	1.12
863.824	2.82
863.992	1.65
864.159	1.8
864.326	3.77
864.494	-0.36
864.661	3.11
864.828	-0.68
864.996	3.54
865.163	3.52
865.33	0.64
865.497	-0.67
865.664	1.12
865.832	-0.6
865.999	0.28
866.166	0.27
866.333	1.46
866.5	0.98
866.667	0.77
866.834	1.82
867.001	4.81
867.168	-0.7
867.335	0.73
867.502	-0.35
867.669	1
867.836	4.58
868.003	0.39
868.17	1.88
868.337	0.24
868.504	3.16
868.671	0.91
868.838	1.67
869.005	2
869.172	1.48
869.339	1.07
869.505	0.79
869.672	2.23
869.839	3.7
870.006	3.99
870.173	0.11
870.339	3.22
870.506	2.18
870.673	-0.19
870.84	2.92
871.006	2.14
871.173	2.63
871.34	1.39
871.506	0.21
871.673	3.01
871.839	0.17
872.006	3.21
872.173	0.55
872.339	1.9
872.506	2.72
872.672	2.5
872.839	-0.53
873.005	2.67
873.172	3.71
873.338	3.16
873.505	2.18
873.671	0.98
873.838	2.39
874.004	-0.13
874.171	1.37
874.337	1.34
874.503	4.16
874.67	1.24
874.836	0.87
875.002	5.1
875.169	3.39
875.335	2.85
875.501	1.27
875.668	2.05
875.834	2.01
876	0.82
876.166	2.06
876.332	3.81
876.499	3.83
876.665	1.29
876.831	1.15
876.997	3.92
877.163	1.86
877.329	-0.12
877.495	1.05
877.662	3.65
877.828	2.59
877.994	1.22
878.16	-0.35
878.326	0.06
878.492	2.73
878.658	2.26
878.824	2.79
878.99	2.46
879.156	-0.67
879.322	3.03
879.487	2.12
879.653	3.31
879.819	4.1
879.985	-0.29
880.151	2.11
880.317	3.2
880.483	3.52
880.648	3.98
880.814	0.1
880.98	2.46
881.146	-0.67
881.312	1.67
881.477	-0.28
881.643	2.71
881.809	4.92
881.974	2.58
882.14	0.12
882.306	1.25
882.471	5.2
882.637	1.32
882.803	3.06
882.968	3.91
883.134	5.88
883.299	1.99
883.465	2.38
883.63	3.1
883.796	3.71
883.961	3.69
884.127	2.26
884.292	-2.02
884.458	0.39
884.623	0.39
