Data from Apollo_Calib_20240827__AbsoluteIrradiance__779__12-08-01-386.txt Node

Date: Wed Aug 28 12:08:01 BST 2024
User: biology
Spectrometer: FLMT08252
Trigger mode: 0
Integration Time (sec): 5.000000E-1
Scans to average: 5
Electric dark correction enabled: true
Nonlinearity correction enabled: false
Boxcar width: 0
XAxis mode: Wavelengths
Number of Pixels in Spectrum: 3648
>>>>>Begin Spectral Data<<<<<
179.588	-0
179.809	-0
180.03	-0
180.251	-0
180.473	-0
180.694	0
180.915	0
181.136	-0
181.357	0
181.578	-0
181.799	0
182.02	-0
182.241	-0
182.462	-0
182.683	0
182.904	-0
183.125	0
183.346	0
183.567	0
183.788	0
184.009	0
184.23	0
184.451	0
184.672	0
184.892	0
185.113	0
185.334	0
185.555	0
185.776	0
185.996	0
186.217	0
186.438	0
186.659	0
186.879	0
187.1	0
187.321	0
187.541	0
187.762	0
187.983	0
188.203	0
188.424	0
188.644	0
188.865	0
189.086	0
189.306	0
189.527	0
189.747	0
189.968	0
190.188	0
190.409	0
190.629	0
190.849	0
191.07	0
191.29	0
191.511	0
191.731	0
191.951	0
192.172	0
192.392	0
192.612	0
192.833	0
193.053	0
193.273	0
193.493	0
193.714	0
193.934	0
194.154	0
194.374	0
194.594	0
194.815	0
195.035	0
195.255	0
195.475	0
195.695	0
195.915	0
196.135	0
196.355	0
196.575	0
196.795	0
197.015	0
197.235	0
197.455	0
197.675	0
197.895	0
198.115	0
198.335	0
198.555	0
198.775	0
198.995	0
199.214	0
199.434	0
199.654	0
199.874	0
200.094	4.28
200.313	2.62
200.533	1.96
200.753	1.79
200.973	3.54
201.192	2.18
201.412	1.53
201.632	2.2
201.851	3.81
202.071	2.18
202.291	1.8
202.51	1.26
202.73	2.71
202.95	2.07
203.169	1.58
203.389	1.81
203.608	2.31
203.828	1.69
204.047	1.45
204.267	2.03
204.486	2.25
204.706	2.38
204.925	1.49
205.145	1.23
205.364	2.33
205.583	2.42
205.803	1.35
206.022	1.1
206.242	1.59
206.461	1.77
206.68	1.28
206.9	1.76
207.119	2.14
207.338	1.98
207.557	1.39
207.777	1.19
207.996	1.2
208.215	1.92
208.434	1.34
208.654	0.93
208.873	1.64
209.092	2.2
209.311	1.07
209.53	1.18
209.749	1.11
209.968	0.9
210.187	0.88
210.407	0.76
210.626	1.16
210.845	1.48
211.064	1.42
211.283	0.75
211.502	1.38
211.721	1.15
211.94	0.93
212.159	1.16
212.377	1.54
212.596	1.52
212.815	1.16
213.034	1.06
213.253	1.38
213.472	1.51
213.691	0.98
213.91	0.83
214.128	0.75
214.347	1.47
214.566	0.5
214.785	0.53
215.003	1.09
215.222	1.04
215.441	0.87
215.66	0.44
215.878	1.06
216.097	1.18
216.316	0.75
216.534	0.95
216.753	1.1
216.972	0.58
217.19	0.91
217.409	0.58
217.627	0.76
217.846	0.79
218.064	0.87
218.283	0.65
218.501	1.1
218.72	1.07
218.938	0.55
219.157	0.56
219.375	0.96
219.594	0.95
219.812	0.48
220.031	0.63
220.249	1.23
220.467	1.14
220.686	0.7
220.904	0.3
221.122	0.73
221.341	1.06
221.559	0.7
221.777	0.57
221.995	0.71
222.214	1.05
222.432	0.65
222.65	0.77
222.868	0.64
223.086	0.83
223.305	0.87
223.523	0.64
223.741	1.26
223.959	0.76
224.177	0.32
224.395	0.56
224.613	0.77
224.831	0.91
225.049	0.49
225.267	0.59
225.485	0.81
225.703	0.51
225.921	0.52
226.139	0.51
226.357	0.77
226.575	0.84
226.793	0.6
227.011	1.45
227.229	0.7
227.447	0.8
227.665	0.5
227.883	0.35
228.1	0.68
228.318	0.83
228.536	0.38
228.754	0.35
228.972	0.77
229.189	0.79
229.407	0.52
229.625	0.5
229.843	0.9
230.06	0.81
230.278	0.54
230.496	0.51
230.713	0.65
230.931	0.8
231.149	0.51
231.366	0.32
231.584	0.64
231.801	0.97
232.019	0.43
232.236	0.34
232.454	0.4
232.671	0.65
232.889	0.53
233.106	0.4
233.324	0.6
233.541	0.55
233.759	0.53
233.976	0.39
234.194	0.5
234.411	0.48
234.628	0.37
234.846	0.44
235.063	0.57
235.28	0.54
235.498	0.47
235.715	0.35
235.932	0.68
236.149	0.47
236.367	0.38
236.584	0.62
236.801	0.5
237.018	0.72
237.236	0.52
237.453	0.3
237.67	0.73
237.887	0.55
238.104	0.53
238.321	0.35
238.538	0.47
238.755	0.73
238.973	0.34
239.19	0.51
239.407	0.64
239.624	0.49
239.841	0.27
240.058	0.4
240.275	0.54
240.492	0.47
240.709	0.38
240.925	0.38
241.142	0.43
241.359	0.37
241.576	0.35
241.793	0.42
242.01	0.44
242.227	0.64
242.444	0.48
242.66	0.63
242.877	0.51
243.094	0.43
243.311	0.55
243.527	0.37
243.744	0.59
243.961	0.52
244.178	0.31
244.394	0.44
244.611	0.66
244.828	0.66
245.044	0.34
245.261	0.45
245.477	0.53
245.694	0.51
245.911	0.41
246.127	0.5
246.344	0.69
246.56	0.56
246.777	0.41
246.993	0.48
247.21	0.49
247.426	0.5
247.643	0.26
247.859	0.33
248.076	0.33
248.292	0.72
248.508	0.32
248.725	0.51
248.941	0.46
249.157	0.6
249.374	0.33
249.59	0.38
249.806	0.44
250.023	0.65
250.239	0.33
250.455	0.33
250.671	0.43
250.888	0.52
251.104	0.43
251.32	0.4
251.536	0.37
251.752	0.41
251.969	0.43
252.185	0.37
252.401	0.67
252.617	0.53
252.833	0.43
253.049	0.34
253.265	0.42
253.481	0.4
253.697	0.37
253.913	0.33
254.129	0.44
254.345	0.49
254.561	0.35
254.777	0.36
254.993	0.46
255.209	0.42
255.425	0.39
255.641	0.27
255.857	0.48
256.073	0.44
256.288	0.31
256.504	0.31
256.72	0.42
256.936	0.64
257.152	0.43
257.367	0.33
257.583	0.39
257.799	0.48
258.015	0.34
258.23	0.39
258.446	0.53
258.662	0.38
258.877	0.27
259.093	0.26
259.309	0.37
259.524	0.44
259.74	0.29
259.955	0.29
260.171	0.38
260.387	0.39
260.602	0.43
260.818	0.38
261.033	0.22
261.249	0.42
261.464	0.32
261.68	0.28
261.895	0.49
262.11	0.51
262.326	0.33
262.541	0.32
262.757	0.47
262.972	0.52
263.187	0.43
263.403	0.42
263.618	0.46
263.833	0.42
264.049	0.26
264.264	0.41
264.479	0.4
264.694	0.48
264.91	0.26
265.125	0.39
265.34	0.44
265.555	0.63
265.77	0.3
265.986	0.27
266.201	0.45
266.416	0.52
266.631	0.37
266.846	0.33
267.061	0.42
267.276	0.48
267.491	0.14
267.706	0.35
267.921	0.41
268.136	0.43
268.351	0.36
268.566	0.25
268.781	0.45
268.996	0.38
269.211	0.3
269.426	0.28
269.641	0.29
269.856	0.45
270.071	0.31
270.285	0.24
270.5	0.44
270.715	0.48
270.93	0.33
271.145	0.36
271.359	0.46
271.574	0.34
271.789	0.4
272.004	0.32
272.218	0.31
272.433	0.37
272.648	0.32
272.862	0.38
273.077	0.42
273.292	0.34
273.506	0.27
273.721	0.28
273.936	0.43
274.15	0.41
274.365	0.28
274.579	0.4
274.794	0.41
275.008	0.4
275.223	0.24
275.437	0.32
275.652	0.4
275.866	0.37
276.081	0.31
276.295	0.39
276.509	0.3
276.724	0.39
276.938	0.34
277.153	0.32
277.367	0.35
277.581	0.33
277.796	0.27
278.01	0.21
278.224	0.41
278.438	0.51
278.653	0.25
278.867	0.27
279.081	0.38
279.295	0.35
279.51	0.34
279.724	0.26
279.938	0.4
280.152	0.34
280.366	0.28
280.58	0.3
280.794	0.43
281.008	0.37
281.222	0.36
281.437	0.47
281.651	0.4
281.865	0.38
282.079	0.3
282.293	0.21
282.507	0.3
282.721	0.31
282.935	0.31
283.148	0.2
283.362	0.28
283.576	0.27
283.79	0.29
284.004	0.24
284.218	0.41
284.432	0.27
284.646	0.32
284.859	0.24
285.073	0.3
285.287	0.37
285.501	0.32
285.714	0.31
285.928	0.35
286.142	0.31
286.356	0.26
286.569	0.2
286.783	0.38
286.997	0.36
287.21	0.29
287.424	0.3
287.637	0.29
287.851	0.29
288.065	0.39
288.278	0.29
288.492	0.35
288.705	0.23
288.919	0.29
289.132	0.22
289.346	0.36
289.559	0.19
289.773	0.23
289.986	0.3
290.2	0.25
290.413	0.38
290.626	0.28
290.84	0.27
291.053	0.31
291.267	0.41
291.48	0.29
291.693	0.3
291.906	0.23
292.12	0.3
292.333	0.22
292.546	0.21
292.76	0.39
292.973	0.29
293.186	0.34
293.399	0.25
293.612	0.37
293.826	0.31
294.039	0.28
294.252	0.24
294.465	0.31
294.678	0.28
294.891	0.27
295.104	0.25
295.317	0.28
295.53	0.34
295.743	0.28
295.956	0.25
296.169	0.38
296.382	0.31
296.595	0.26
296.808	0.22
297.021	0.35
297.234	0.33
297.447	0.3
297.66	0.28
297.873	0.35
298.086	0.33
298.299	0.23
298.511	0.16
298.724	0.27
298.937	0.23
299.15	0.2
299.363	0.25
299.575	0.33
299.788	0.3
300.001	0.26
300.213	0.22
300.426	0.24
300.639	0.24
300.852	0.18
301.064	0.33
301.277	0.33
301.489	0.28
301.702	0.27
301.915	0.25
302.127	0.24
302.34	0.29
302.552	0.26
302.765	0.22
302.977	0.31
303.19	0.21
303.402	0.24
303.615	0.25
303.827	0.21
304.04	0.25
304.252	0.29
304.464	0.21
304.677	0.4
304.889	0.29
305.102	0.23
305.314	0.24
305.526	0.28
305.739	0.29
305.951	0.21
306.163	0.23
306.375	0.33
306.588	0.24
306.8	0.21
307.012	0.21
307.224	0.25
307.436	0.29
307.649	0.19
307.861	0.28
308.073	0.32
308.285	0.25
308.497	0.21
308.709	0.2
308.921	0.27
309.133	0.32
309.346	0.22
309.558	0.24
309.77	0.32
309.982	0.38
310.194	0.28
310.406	0.23
310.617	0.4
310.829	0.27
311.041	0.28
311.253	0.18
311.465	0.25
311.677	0.24
311.889	0.22
312.101	0.17
312.313	0.32
312.524	0.4
312.736	0.19
312.948	0.25
313.16	0.35
313.372	0.28
313.583	0.27
313.795	0.24
314.007	0.24
314.218	0.29
314.43	0.26
314.642	0.24
314.853	0.18
315.065	0.31
315.277	0.25
315.488	0.25
315.7	0.35
315.912	0.27
316.123	0.22
316.335	0.25
316.546	0.39
316.758	0.26
316.969	0.25
317.181	0.24
317.392	0.26
317.604	0.31
317.815	0.23
318.026	0.23
318.238	0.23
318.449	0.28
318.661	0.19
318.872	0.18
319.083	0.2
319.295	0.31
319.506	0.23
319.717	0.28
319.929	0.3
320.14	0.25
320.351	0.27
320.562	0.22
320.774	0.28
320.985	0.27
321.196	0.18
321.407	0.17
321.618	0.31
321.829	0.33
322.041	0.27
322.252	0.22
322.463	0.28
322.674	0.36
322.885	0.2
323.096	0.26
323.307	0.28
323.518	0.28
323.729	0.25
323.94	0.27
324.151	0.23
324.362	0.28
324.573	0.25
324.784	0.23
324.995	0.33
325.206	0.3
325.417	0.25
325.628	0.22
325.838	0.27
326.049	0.29
326.26	0.31
326.471	0.24
326.682	0.3
326.892	0.28
327.103	0.21
327.314	0.19
327.525	0.37
327.735	0.29
327.946	0.25
328.157	0.22
328.368	0.28
328.578	0.29
328.789	0.36
328.999	0.23
329.21	0.25
329.421	0.35
329.631	0.21
329.842	0.23
330.052	0.24
330.263	0.34
330.473	0.31
330.684	0.25
330.894	0.25
331.105	0.3
331.315	0.25
331.526	0.17
331.736	0.34
331.947	0.24
332.157	0.26
332.367	0.17
332.578	0.29
332.788	0.33
332.999	0.33
333.209	0.27
333.419	0.18
333.629	0.25
333.84	0.31
334.05	0.28
334.26	0.34
334.47	0.27
334.681	0.3
334.891	0.23
335.101	0.29
335.311	0.37
335.521	0.26
335.732	0.23
335.942	0.37
336.152	0.26
336.362	0.25
336.572	0.25
336.782	0.29
336.992	0.24
337.202	0.23
337.412	0.24
337.622	0.22
337.832	0.19
338.042	0.22
338.252	0.23
338.462	0.22
338.672	0.27
338.882	0.27
339.092	0.23
339.302	0.33
339.511	0.34
339.721	0.24
339.931	0.19
340.141	0.32
340.351	0.31
340.561	0.25
340.77	0.25
340.98	0.28
341.19	0.29
341.4	0.23
341.609	0.2
341.819	0.24
342.029	0.24
342.238	0.26
342.448	0.22
342.658	0.28
342.867	0.22
343.077	0.24
343.286	0.27
343.496	0.27
343.706	0.31
343.915	0.23
344.125	0.26
344.334	0.31
344.544	0.19
344.753	0.24
344.963	0.23
345.172	0.18
345.381	0.22
345.591	0.21
345.8	0.25
346.01	0.3
346.219	0.31
346.428	0.13
346.638	0.23
346.847	0.24
347.056	0.37
347.266	0.22
347.475	0.25
347.684	0.34
347.893	0.3
348.103	0.24
348.312	0.22
348.521	0.26
348.73	0.28
348.94	0.25
349.149	0.24
349.358	0.25
349.567	0.22
349.776	0.19
349.985	0.22
350.194	0.34
350.403	0.32
350.612	0.18
350.821	0.24
351.03	0.26
351.239	0.16
351.448	0.27
351.657	0.23
351.866	0.36
352.075	0.26
352.284	0.22
352.493	0.22
352.702	0.31
352.911	0.26
353.12	0.28
353.329	0.22
353.538	0.26
353.746	0.27
353.955	0.21
354.164	0.29
354.373	0.25
354.582	0.28
354.79	0.26
354.999	0.27
355.208	0.25
355.416	0.33
355.625	0.18
355.834	0.21
356.042	0.3
356.251	0.26
356.46	0.2
356.668	0.25
356.877	0.36
357.085	0.31
357.294	0.12
357.503	0.23
357.711	0.23
357.92	0.43
358.128	0.27
358.337	0.22
358.545	0.27
358.754	0.21
358.962	0.3
359.17	0.27
359.379	0.27
359.587	0.28
359.796	0.24
360.004	0.28
360.212	0.27
360.421	0.31
360.629	0.23
360.837	0.23
361.046	0.32
361.254	0.4
361.462	0.23
361.67	0.25
361.879	0.28
362.087	0.36
362.295	0.25
362.503	0.23
362.711	0.25
362.92	0.23
363.128	0.2
363.336	0.23
363.544	0.16
363.752	0.27
363.96	0.23
364.168	0.24
364.376	0.26
364.584	0.26
364.792	0.32
365	0.27
365.208	0.24
365.416	0.29
365.624	0.3
365.832	0.21
366.04	0.33
366.248	0.28
366.456	0.26
366.664	0.28
366.872	0.24
367.079	0.23
367.287	0.22
367.495	0.28
367.703	0.21
367.911	0.19
368.118	0.26
368.326	0.27
368.534	0.22
368.742	0.34
368.949	0.17
369.157	0.27
369.365	0.29
369.572	0.27
369.78	0.16
369.988	0.3
370.195	0.27
370.403	0.3
370.61	0.21
370.818	0.22
371.026	0.36
371.233	0.2
371.441	0.23
371.648	0.23
371.856	0.27
372.063	0.27
372.271	0.24
372.478	0.22
372.685	0.25
372.893	0.32
373.1	0.27
373.308	0.18
373.515	0.38
373.722	0.29
373.93	0.27
374.137	0.3
374.344	0.29
374.552	0.34
374.759	0.32
374.966	0.27
375.173	0.21
375.381	0.33
375.588	0.2
375.795	0.19
376.002	0.23
376.209	0.19
376.417	0.26
376.624	0.24
376.831	0.31
377.038	0.25
377.245	0.17
377.452	0.26
377.659	0.28
377.866	0.25
378.073	0.26
378.28	0.24
378.487	0.32
378.694	0.3
378.901	0.28
379.108	0.23
379.315	0.3
379.522	0.37
379.729	0.27
379.936	0.23
380.143	0.32
380.35	0.28
380.557	0.25
380.763	0.26
380.97	0.29
381.177	0.3
381.384	0.33
381.591	0.2
381.797	0.29
382.004	0.32
382.211	0.28
382.418	0.22
382.624	0.29
382.831	0.33
383.038	0.24
383.244	0.32
383.451	0.3
383.658	0.32
383.864	0.26
384.071	0.21
384.277	0.36
384.484	0.29
384.69	0.32
384.897	0.27
385.103	0.3
385.31	0.23
385.516	0.26
385.723	0.2
385.929	0.24
386.136	0.31
386.342	0.3
386.549	0.24
386.755	0.35
386.961	0.32
387.168	0.28
387.374	0.24
387.58	0.31
387.787	0.3
387.993	0.32
388.199	0.28
388.406	0.26
388.612	0.28
388.818	0.23
389.024	0.24
389.231	0.32
389.437	0.42
389.643	0.33
389.849	0.24
390.055	0.27
390.261	0.3
390.467	0.33
390.674	0.27
390.88	0.34
391.086	0.34
391.292	0.28
391.498	0.32
391.704	0.33
391.91	0.27
392.116	0.26
392.322	0.14
392.528	0.3
392.734	0.32
392.94	0.37
393.146	0.28
393.352	0.36
393.557	0.3
393.763	0.28
393.969	0.35
394.175	0.28
394.381	0.3
394.587	0.23
394.792	0.31
394.998	0.39
395.204	0.4
395.41	0.27
395.615	0.34
395.821	0.32
396.027	0.35
396.233	0.25
396.438	0.35
396.644	0.38
396.85	0.37
397.055	0.31
397.261	0.37
397.466	0.4
397.672	0.36
397.878	0.38
398.083	0.39
398.289	0.36
398.494	0.44
398.7	0.35
398.905	0.24
399.111	0.43
399.316	0.34
399.522	0.32
399.727	0.31
399.932	0.33
400.138	0.32
400.343	0.36
400.549	0.33
400.754	0.38
400.959	0.37
401.165	0.33
401.37	0.38
401.575	0.46
401.78	0.38
401.986	0.36
402.191	0.37
402.396	0.39
402.601	0.37
402.807	0.42
403.012	0.39
403.217	0.44
403.422	0.4
403.627	0.44
403.832	0.41
404.037	0.42
404.243	0.42
404.448	0.42
404.653	0.4
404.858	0.47
405.063	0.46
405.268	0.38
405.473	0.37
405.678	0.44
405.883	0.65
406.088	0.49
406.293	0.4
406.498	0.5
406.703	0.55
406.907	0.49
407.112	0.46
407.317	0.51
407.522	0.6
407.727	0.5
407.932	0.51
408.136	0.66
408.341	0.59
408.546	0.57
408.751	0.56
408.956	0.59
409.16	0.71
409.365	0.63
409.57	0.61
409.774	0.67
409.979	0.72
410.184	0.71
410.388	0.61
410.593	0.84
410.798	0.74
411.002	0.72
411.207	0.77
411.411	0.8
411.616	0.75
411.82	0.85
412.025	0.87
412.229	0.9
412.434	1.05
412.638	0.94
412.843	0.93
413.047	1
413.252	0.96
413.456	1.03
413.66	1.08
413.865	1.1
414.069	1.17
414.273	1.14
414.478	1.12
414.682	1.22
414.886	1.2
415.091	1.21
415.295	1.22
415.499	1.41
415.703	1.35
415.908	1.48
416.112	1.39
416.316	1.68
416.52	1.59
416.724	1.56
416.929	1.64
417.133	1.9
417.337	1.79
417.541	1.82
417.745	1.86
417.949	2.01
418.153	2.07
418.357	2.06
418.561	2.36
418.765	2.27
418.969	2.41
419.173	2.44
419.377	2.44
419.581	2.67
419.785	2.69
419.989	2.74
420.193	2.82
420.397	2.97
420.601	3.14
420.804	3.2
421.008	3.13
421.212	3.31
421.416	3.27
421.62	3.32
421.823	3.46
422.027	3.63
422.231	3.59
422.435	3.59
422.638	3.69
422.842	3.72
423.046	3.83
423.249	4.09
423.453	4.05
423.657	4.14
423.86	4.28
424.064	4.45
424.268	4.58
424.471	4.49
424.675	4.78
424.878	4.89
425.082	4.98
425.285	5.3
425.489	5.14
425.692	5.32
425.896	5.35
426.099	5.66
426.303	5.69
426.506	5.8
426.71	6.11
426.913	6.35
427.116	6.37
427.32	6.39
427.523	6.49
427.726	6.87
427.93	6.9
428.133	7.28
428.336	7.36
428.54	7.53
428.743	7.74
428.946	8.01
429.149	8.07
429.353	8.03
429.556	8.14
429.759	8.21
429.962	8.3
430.165	8.41
430.368	8.04
430.571	8.16
430.775	8.2
430.978	8.12
431.181	8.31
431.384	8.38
431.587	8.47
431.79	8.82
431.993	8.8
432.196	9.08
432.399	9.45
432.602	9.48
432.805	9.64
433.008	10.24
433.211	10.01
433.414	10.46
433.616	10.4
433.819	10.37
434.022	10.57
434.225	10.77
434.428	10.65
434.631	11.15
434.833	10.91
435.036	11.21
435.239	11.39
435.442	11.45
435.645	11.56
435.847	11.77
436.05	12.06
436.253	12.28
436.455	12.3
436.658	12.14
436.861	12.44
437.063	12.62
437.266	12.5
437.468	12.88
437.671	13.28
437.874	13.24
438.076	13.13
438.279	13.61
438.481	13.62
438.684	14.5
438.886	14.06
439.089	14.34
439.291	14.34
439.494	14.62
439.696	14.76
439.899	15.29
440.101	15.67
440.303	15.94
440.506	16.67
440.708	16.45
440.91	16.73
441.113	16.87
441.315	17.06
441.517	16.85
441.72	17.28
441.922	16.98
442.124	16.91
442.326	17.41
442.529	17.47
442.731	17.48
442.933	17.84
443.135	17.49
443.337	17.6
443.539	18.13
443.742	17.88
443.944	18.39
444.146	18.19
444.348	18.12
444.55	18.02
444.752	18.18
444.954	18.17
445.156	18.05
445.358	18.47
445.56	18.77
445.762	18.62
445.964	18.95
446.166	18.53
446.368	18.64
446.57	18.59
446.772	18.39
446.974	17.99
447.175	18.33
447.377	18
447.579	18.44
447.781	17.91
447.983	17.71
448.184	17.4
448.386	17.86
448.588	17.26
448.79	17.17
448.991	17.49
449.193	17.54
449.395	16.73
449.597	16.51
449.798	16.37
450	15.9
450.202	15.75
450.403	15.86
450.605	15.6
450.806	15.25
451.008	15.09
451.21	14.88
451.411	14.54
451.613	13.79
451.814	14.05
452.016	13.92
452.217	13.15
452.419	13.25
452.62	12.93
452.821	12.7
453.023	12.44
453.224	12.17
453.426	11.76
453.627	11.02
453.828	11.15
454.03	11.24
454.231	11.18
454.432	10.93
454.634	10.76
454.835	10.45
455.036	10.31
455.238	9.94
455.439	9.64
455.64	9.48
455.841	9.31
456.042	9.35
456.244	9.12
456.445	8.78
456.646	8.55
456.847	8.48
457.048	8.37
457.249	8.41
457.45	8.27
457.651	7.62
457.852	7.5
458.054	7.29
458.255	7.17
458.456	7.26
458.657	7.03
458.858	6.68
459.058	6.6
459.259	6.66
459.46	6.39
459.661	6.34
459.862	6.36
460.063	6.28
460.264	6.19
460.465	5.93
460.666	6.05
460.866	5.66
461.067	5.45
461.268	5.49
461.469	5.42
461.67	5.3
461.87	5.2
462.071	5.2
462.272	5.09
462.473	5.03
462.673	5.18
462.874	5
463.075	5.12
463.275	5.08
463.476	5.06
463.676	5.03
463.877	4.85
464.078	4.95
464.278	5.03
464.479	4.85
464.679	4.68
464.88	4.71
465.08	4.64
465.281	4.51
465.481	4.22
465.682	4.08
465.882	4.18
466.083	3.98
466.283	4.01
466.483	3.82
466.684	3.71
466.884	3.62
467.085	3.7
467.285	3.74
467.485	3.61
467.686	3.55
467.886	3.4
468.086	3.4
468.286	3.32
468.487	3.44
468.687	3.24
468.887	3.13
469.087	3.4
469.287	3.16
469.488	3.03
469.688	3.16
469.888	3.14
470.088	3.12
470.288	3.07
470.488	3
470.688	2.8
470.888	2.85
471.088	2.7
471.288	2.78
471.488	2.77
471.688	2.68
471.888	2.66
472.088	2.8
472.288	2.69
472.488	2.55
472.688	2.55
472.888	2.63
473.088	2.55
473.288	2.42
473.488	2.39
473.688	2.61
473.887	2.47
474.087	2.45
474.287	2.49
474.487	2.38
474.687	2.36
474.886	2.36
475.086	2.28
475.286	2.28
475.486	2.21
475.685	2.22
475.885	2.22
476.085	2.2
476.284	2.24
476.484	2.21
476.684	2.22
476.883	2.28
477.083	2.19
477.282	2.08
477.482	2.18
477.681	2.16
477.881	2.06
478.08	2.05
478.28	2.04
478.479	2.13
478.679	2.14
478.878	2.01
479.078	2.03
479.277	2.06
479.477	2.01
479.676	2.01
479.875	2.02
480.075	1.97
480.274	2.02
480.473	2.08
480.673	2.02
480.872	2.08
481.071	2.04
481.271	2.02
481.47	1.94
481.669	1.98
481.868	1.94
482.067	2
482.267	1.88
482.466	1.94
482.665	1.93
482.864	1.96
483.063	1.9
483.262	2.05
483.461	2.05
483.661	2.04
483.86	2.01
484.059	2.01
484.258	1.98
484.457	2.03
484.656	1.99
484.855	2.08
485.054	1.9
485.253	1.98
485.452	1.95
485.651	2.07
485.849	2
486.048	2
486.247	2.04
486.446	2.1
486.645	2.01
486.844	2.05
487.043	2.03
487.241	2.09
487.44	2.07
487.639	2.17
487.838	2.14
488.037	2.1
488.235	2.21
488.434	2.13
488.633	2.07
488.831	2.25
489.03	2.25
489.229	2.24
489.427	2.22
489.626	2.25
489.825	2.31
490.023	2.3
490.222	2.28
490.42	2.31
490.619	2.34
490.817	2.37
491.016	2.37
491.214	2.44
491.413	2.41
491.611	2.38
491.81	2.41
492.008	2.45
492.207	2.56
492.405	2.51
492.604	2.47
492.802	2.53
493	2.61
493.199	2.6
493.397	2.63
493.595	2.7
493.794	2.68
493.992	2.76
494.19	2.75
494.388	2.79
494.587	2.74
494.785	2.76
494.983	2.74
495.181	2.85
495.379	2.88
495.578	2.93
495.776	2.97
495.974	2.93
496.172	3.01
496.37	3.08
496.568	3.08
496.766	3.06
496.964	3.16
497.162	3.16
497.36	3.22
497.558	3.27
497.756	3.32
497.954	3.28
498.152	3.35
498.35	3.46
498.548	3.38
498.746	3.37
498.944	3.42
499.142	3.47
499.34	3.58
499.538	3.62
499.736	3.53
499.933	3.65
500.131	3.62
500.329	3.84
500.527	3.73
500.725	3.92
500.922	3.87
501.12	3.89
501.318	3.95
501.516	3.95
501.713	3.99
501.911	4.03
502.109	3.95
502.306	4.09
502.504	4.04
502.701	4.11
502.899	4.18
503.097	4.36
503.294	4.24
503.492	4.36
503.689	4.38
503.887	4.41
504.084	4.47
504.282	4.45
504.479	4.4
504.677	4.6
504.874	4.57
505.072	4.48
505.269	4.68
505.466	4.71
505.664	4.8
505.861	4.69
506.059	4.74
506.256	4.81
506.453	4.87
506.651	4.98
506.848	5.06
507.045	4.96
507.242	4.98
507.44	5.01
507.637	5.12
507.834	5.11
508.031	5.25
508.229	5.18
508.426	5.09
508.623	5.31
508.82	5.31
509.017	5.26
509.214	5.28
509.411	5.39
509.608	5.35
509.805	5.5
510.003	5.5
510.2	5.54
510.397	5.66
510.594	5.62
510.791	5.66
510.988	5.68
511.184	5.67
511.381	5.51
511.578	5.72
511.775	5.84
511.972	5.77
512.169	5.88
512.366	5.8
512.563	5.94
512.76	6.05
512.956	6.06
513.153	5.97
513.35	5.93
513.547	5.9
513.744	6.06
513.94	6.08
514.137	6.2
514.334	6.1
514.53	6.13
514.727	6.38
514.924	6.29
515.12	6.23
515.317	6.28
515.514	6.19
515.71	6.26
515.907	6.43
516.103	6.47
516.3	6.32
516.497	6.51
516.693	6.51
516.89	6.5
517.086	6.57
517.283	6.59
517.479	6.48
517.676	6.57
517.872	6.67
518.068	6.64
518.265	6.66
518.461	6.56
518.658	6.72
518.854	6.79
519.05	6.82
519.247	6.86
519.443	6.84
519.639	6.92
519.836	6.86
520.032	6.73
520.228	6.96
520.424	6.89
520.621	6.99
520.817	7
521.013	6.89
521.209	7.15
521.405	7.13
521.601	7.03
521.798	7.03
521.994	7.09
522.19	6.98
522.386	7.09
522.582	7.2
522.778	7.22
522.974	7.16
523.17	7.15
523.366	7.1
523.562	7.19
523.758	7.2
523.954	7.09
524.15	7.26
524.346	7.25
524.542	7.3
524.738	7.19
524.934	7.42
525.129	7.26
525.325	7.27
525.521	7.21
525.717	7.46
525.913	7.32
526.109	7.36
526.304	7.45
526.5	7.44
526.696	7.41
526.892	7.41
527.087	7.62
527.283	7.52
527.479	7.49
527.674	7.3
527.87	7.55
528.066	7.52
528.261	7.61
528.457	7.54
528.653	7.66
528.848	7.64
529.044	7.68
529.239	7.53
529.435	7.58
529.63	7.51
529.826	7.64
530.021	7.61
530.217	7.67
530.412	7.64
530.608	7.61
530.803	7.66
530.999	7.56
531.194	7.7
531.389	7.75
531.585	7.72
531.78	7.79
531.975	7.74
532.171	7.79
532.366	7.77
532.561	7.85
532.757	7.73
532.952	7.92
533.147	7.69
533.342	7.82
533.538	7.75
533.733	7.95
533.928	7.62
534.123	7.83
534.318	7.92
534.513	7.75
534.709	7.92
534.904	7.93
535.099	7.94
535.294	7.89
535.489	7.9
535.684	7.91
535.879	7.85
536.074	7.92
536.269	7.91
536.464	7.97
536.659	7.86
536.854	7.88
537.049	7.99
537.244	7.91
537.439	7.87
537.634	7.95
537.828	7.99
538.023	7.97
538.218	7.95
538.413	7.87
538.608	7.91
538.803	7.98
538.997	7.92
539.192	7.98
539.387	7.98
539.582	7.95
539.776	7.87
539.971	8.03
540.166	8.1
540.36	7.96
540.555	8.07
540.75	8.06
540.944	8.09
541.139	8.1
541.334	8
541.528	8.06
541.723	8.14
541.917	8.11
542.112	7.93
542.306	7.91
542.501	7.93
542.695	7.96
542.89	7.94
543.084	8.03
543.279	8.12
543.473	8.07
543.668	8.13
543.862	7.98
544.056	7.97
544.251	8.09
544.445	8.17
544.64	8.2
544.834	7.79
545.028	7.68
545.222	8.09
545.417	8.25
545.611	8.11
545.805	8.11
546	7.89
546.194	8.15
546.388	8.12
546.582	7.96
546.776	8
546.97	8.11
547.165	8.04
547.359	8.06
547.553	7.99
547.747	8.04
547.941	8.27
548.135	8.06
548.329	8.16
548.523	8.15
548.717	8.06
548.911	8.06
549.105	8
549.299	8.08
549.493	8.15
549.687	8.02
549.881	8.19
550.075	8.16
550.269	8.01
550.463	8.12
550.657	8.16
550.85	8.13
551.044	8.06
551.238	8.14
551.432	8.12
551.626	8.18
551.82	8.15
552.013	7.99
552.207	8.22
552.401	8.18
552.594	8.16
552.788	8.05
552.982	8.07
553.176	8.05
553.369	8.23
553.563	8.15
553.756	8.05
553.95	8.18
554.144	8.26
554.337	8.22
554.531	7.9
554.724	8.2
554.918	8.17
555.111	8.09
555.305	8.19
555.498	8.07
555.692	8.22
555.885	8.2
556.079	8.11
556.272	8.14
556.466	8.14
556.659	8.09
556.852	8.18
557.046	8.06
557.239	7.94
557.432	8.07
557.626	8.16
557.819	8.2
558.012	8.13
558.206	8.18
558.399	8.1
558.592	8.08
558.785	8.05
558.979	8.1
559.172	8.15
559.365	8.12
559.558	8.06
559.751	8.03
559.944	8.16
560.138	8.08
560.331	8.15
560.524	8.2
560.717	8.14
560.91	8.15
561.103	8.18
561.296	7.99
561.489	8.2
561.682	8.19
561.875	8.17
562.068	8.22
562.261	8.04
562.454	8.32
562.647	8.07
562.84	8.14
563.032	8.14
563.225	8
563.418	8.13
563.611	8.19
563.804	8.17
563.997	8.01
564.19	7.92
564.382	8.21
564.575	8.09
564.768	8.03
564.961	8.24
565.153	8.08
565.346	8.05
565.539	8.2
565.731	8.11
565.924	8.22
566.117	8.23
566.309	8.23
566.502	8.08
566.695	8.06
566.887	8.14
567.08	8.13
567.272	8.17
567.465	7.98
567.657	8.18
567.85	8.01
568.042	8.08
568.235	8.16
568.427	7.96
568.62	8.04
568.812	8.04
569.005	8.14
569.197	7.93
569.389	8.01
569.582	8.09
569.774	8.11
569.966	7.95
570.159	8.01
570.351	7.95
570.543	8.03
570.736	8.11
570.928	7.87
571.12	8.08
571.312	8.03
571.505	7.79
571.697	8.06
571.889	8.05
572.081	8.04
572.273	7.94
572.465	8
572.658	8.05
572.85	8.06
573.042	8
573.234	7.9
573.426	7.93
573.618	7.9
573.81	8.06
574.002	7.97
574.194	7.98
574.386	7.88
574.578	7.87
574.77	7.94
574.962	8
575.154	7.84
575.346	7.87
575.538	7.89
575.729	7.88
575.921	7.96
576.113	7.93
576.305	8
576.497	7.98
576.689	7.82
576.88	7.79
577.072	8.03
577.264	7.91
577.456	7.98
577.647	7.81
577.839	8.05
578.031	7.86
578.223	7.79
578.414	7.82
578.606	7.83
578.798	7.91
578.989	7.88
579.181	7.89
579.372	7.83
579.564	7.9
579.755	7.77
579.947	7.68
580.139	7.82
580.33	7.67
580.522	7.8
580.713	7.71
580.905	7.8
581.096	7.89
581.287	7.75
581.479	7.77
581.67	7.83
581.862	7.75
582.053	7.74
582.244	7.64
582.436	7.83
582.627	7.68
582.818	7.61
583.01	7.63
583.201	7.74
583.392	7.69
583.583	7.65
583.775	7.45
583.966	7.65
584.157	7.68
584.348	7.75
584.54	7.59
584.731	7.61
584.922	7.57
585.113	7.44
585.304	7.57
585.495	7.59
585.686	7.63
585.877	7.59
586.068	7.61
586.259	7.59
586.45	7.52
586.641	7.54
586.832	7.55
587.023	7.56
587.214	7.49
587.405	7.6
587.596	7.41
587.787	7.4
587.978	7.55
588.169	7.39
588.36	7.36
588.551	7.48
588.742	7.5
588.932	7.5
589.123	7.29
589.314	7.48
589.505	7.39
589.696	7.43
589.886	7.39
590.077	7.39
590.268	7.27
590.458	7.27
590.649	7.13
590.84	7.31
591.03	7.3
591.221	7.35
591.412	7.24
591.602	7.29
591.793	7.24
591.984	7.27
592.174	7.23
592.365	7.38
592.555	7.07
592.746	7.13
592.936	7.19
593.127	7.21
593.317	7.23
593.508	7.15
593.698	7.14
593.889	7.19
594.079	7.12
594.269	7.07
594.46	7.11
594.65	7.17
594.84	7.09
595.031	6.93
595.221	7.03
595.411	7.04
595.602	7.05
595.792	6.97
595.982	6.92
596.172	7.12
596.363	6.94
596.553	6.91
596.743	6.94
596.933	6.87
597.123	6.94
597.314	6.71
597.504	6.78
597.694	7
597.884	6.88
598.074	6.82
598.264	6.83
598.454	6.83
598.644	6.81
598.834	6.81
599.024	6.7
599.214	6.72
599.404	6.84
599.594	6.75
599.784	6.71
599.974	6.83
600.164	6.66
600.354	6.63
600.544	6.57
600.734	6.66
600.924	6.63
601.114	6.52
601.303	6.59
601.493	6.59
601.683	6.56
601.873	6.53
602.063	6.42
602.252	6.61
602.442	6.41
602.632	6.45
602.821	6.43
603.011	6.51
603.201	6.46
603.39	6.4
603.58	6.3
603.77	6.46
603.959	6.44
604.149	6.35
604.339	6.37
604.528	6.45
604.718	6.39
604.907	6.29
605.097	6.27
605.286	6.26
605.476	6.27
605.665	6.23
605.855	6.22
606.044	6.3
606.234	6.27
606.423	6.24
606.612	6.21
606.802	6.16
606.991	6.25
607.181	6.17
607.37	6.18
607.559	5.94
607.749	6.14
607.938	6.02
608.127	6.04
608.316	6.07
608.506	6.03
608.695	6.1
608.884	6.03
609.073	6
609.263	6.1
609.452	6.04
609.641	5.88
609.83	5.87
610.019	6.01
610.208	5.84
610.397	5.86
610.586	5.88
610.775	5.87
610.965	5.86
611.154	5.66
611.343	5.84
611.532	5.71
611.721	5.88
611.91	5.67
612.099	5.69
612.287	5.63
612.476	5.63
612.665	5.81
612.854	5.61
613.043	5.66
613.232	5.66
613.421	5.54
613.61	5.57
613.798	5.58
613.987	5.62
614.176	5.49
614.365	5.56
614.554	5.55
614.742	5.6
614.931	5.38
615.12	5.51
615.309	5.52
615.497	5.36
615.686	5.28
615.875	5.42
616.063	5.37
616.252	5.34
616.44	5.36
616.629	5.34
616.818	5.35
617.006	5.35
617.195	5.29
617.383	5.24
617.572	5.19
617.76	5.2
617.949	5.18
618.137	5.28
618.326	5.28
618.514	5.02
618.703	5.03
618.891	5.15
619.079	5.08
619.268	5.14
619.456	5.1
619.644	5.13
619.833	5.04
620.021	4.96
620.209	4.87
620.398	5.04
620.586	4.94
620.774	4.97
620.962	4.94
621.151	5.05
621.339	4.99
621.527	4.83
621.715	4.79
621.903	4.9
622.092	4.76
622.28	4.9
622.468	4.64
622.656	4.84
622.844	4.73
623.032	4.85
623.22	4.71
623.408	4.83
623.596	4.79
623.784	4.82
623.972	4.58
624.16	4.67
624.348	4.75
624.536	4.76
624.724	4.61
624.912	4.63
625.1	4.65
625.288	4.62
625.476	4.47
625.664	4.64
625.851	4.47
626.039	4.58
626.227	4.5
626.415	4.52
626.603	4.38
626.79	4.46
626.978	4.47
627.166	4.53
627.354	4.36
627.541	4.41
627.729	4.26
627.917	4.47
628.104	4.47
628.292	4.33
628.48	4.29
628.667	4.31
628.855	4.35
629.042	4.42
629.23	4.27
629.418	4.25
629.605	4.29
629.793	4.19
629.98	4.19
630.168	4.17
630.355	4.14
630.543	4.18
630.73	4.13
630.917	4.09
631.105	4.21
631.292	4.14
631.48	4.13
631.667	4.28
631.854	4.09
632.042	4.05
632.229	3.99
632.416	4.1
632.604	4.04
632.791	3.87
632.978	4
633.165	3.95
633.353	4.01
633.54	3.98
633.727	3.81
633.914	3.87
634.101	3.78
634.289	3.97
634.476	3.8
634.663	3.8
634.85	3.79
635.037	3.78
635.224	3.72
635.411	3.85
635.598	3.79
635.785	3.72
635.972	3.71
636.159	3.75
636.346	3.67
636.533	3.65
636.72	3.68
636.907	3.65
637.094	3.65
637.281	3.56
637.468	3.55
637.655	3.56
637.842	3.58
638.029	3.49
638.215	3.51
638.402	3.56
638.589	3.45
638.776	3.46
638.963	3.44
639.149	3.54
639.336	3.54
639.523	3.44
639.709	3.38
639.896	3.41
640.083	3.45
640.27	3.39
640.456	3.33
640.643	3.41
640.829	3.25
641.016	3.31
641.203	3.26
641.389	3.3
641.576	3.25
641.762	3.22
641.949	3.23
642.135	3.32
642.322	3.23
642.508	3.15
642.695	3.19
642.881	3.16
643.068	3.06
643.254	3.13
643.441	3.19
643.627	3.2
643.813	3.04
644	3.14
644.186	3.06
644.372	3.17
644.559	3.13
644.745	3.03
644.931	3.02
645.118	3.02
645.304	3
645.49	2.99
645.676	2.96
645.862	2.97
646.049	2.96
646.235	2.97
646.421	3.11
646.607	3.05
646.793	2.89
646.979	2.88
647.165	2.94
647.352	2.91
647.538	2.91
647.724	2.87
647.91	2.85
648.096	2.86
648.282	2.86
648.468	2.8
648.654	2.8
648.84	2.82
649.026	2.75
649.212	2.69
649.397	2.74
649.583	2.75
649.769	2.77
649.955	2.77
650.141	2.77
650.327	2.76
650.513	2.6
650.698	2.69
650.884	2.56
651.07	2.72
651.256	2.63
651.442	2.61
651.627	2.54
651.813	2.59
651.999	2.59
652.184	2.57
652.37	2.53
652.556	2.59
652.741	2.63
652.927	2.43
653.113	2.49
653.298	2.54
653.484	2.47
653.669	2.43
653.855	2.45
654.04	2.53
654.226	2.49
654.412	2.4
654.597	2.36
654.782	2.42
654.968	2.48
655.153	2.41
655.339	2.37
655.524	2.33
655.71	2.46
655.895	2.38
656.08	2.32
656.266	2.39
656.451	2.32
656.636	2.17
656.822	2.31
657.007	2.3
657.192	2.25
657.378	2.22
657.563	2.27
657.748	2.3
657.933	2.27
658.118	2.21
658.304	2.23
658.489	2.24
658.674	2.19
658.859	2.11
659.044	2.19
659.229	2.21
659.414	2.15
659.599	2.16
659.785	2.04
659.97	2.14
660.155	2.17
660.34	2.11
660.525	2.06
660.71	2.06
660.895	2.13
661.08	2.08
661.264	2.06
661.449	2.17
661.634	2.09
661.819	2.1
662.004	2.01
662.189	1.99
662.374	1.97
662.559	1.95
662.743	1.92
662.928	2.03
663.113	1.93
663.298	1.88
663.483	1.95
663.667	1.95
663.852	1.89
664.037	1.94
664.221	1.88
664.406	2.02
664.591	1.95
664.775	1.93
664.96	1.83
665.145	1.87
665.329	1.97
665.514	1.84
665.698	1.83
665.883	1.77
666.068	1.89
666.252	1.78
666.437	1.76
666.621	1.83
666.806	1.86
666.99	1.78
667.174	1.79
667.359	1.82
667.543	1.76
667.728	1.8
667.912	1.67
668.096	1.77
668.281	1.73
668.465	1.72
668.649	1.72
668.834	1.65
669.018	1.75
669.202	1.73
669.387	1.67
669.571	1.79
669.755	1.65
669.939	1.65
670.124	1.65
670.308	1.71
670.492	1.7
670.676	1.65
670.86	1.61
671.044	1.62
671.228	1.71
671.413	1.61
671.597	1.56
671.781	1.58
671.965	1.65
672.149	1.58
672.333	1.61
672.517	1.6
672.701	1.58
672.885	1.55
673.069	1.46
673.253	1.64
673.437	1.56
673.621	1.52
673.804	1.57
673.988	1.58
674.172	1.49
674.356	1.48
674.54	1.53
674.724	1.63
674.908	1.48
675.091	1.5
675.275	1.43
675.459	1.51
675.643	1.49
675.826	1.44
676.01	1.49
676.194	1.49
676.377	1.5
676.561	1.44
676.745	1.48
676.928	1.46
677.112	1.51
677.296	1.4
677.479	1.37
677.663	1.39
677.846	1.42
678.03	1.41
678.213	1.26
678.397	1.41
678.58	1.37
678.764	1.29
678.947	1.3
679.131	1.3
679.314	1.37
679.498	1.27
679.681	1.4
679.865	1.47
680.048	1.31
680.231	1.29
680.415	1.31
680.598	1.31
680.781	1.22
680.965	1.31
681.148	1.32
681.331	1.24
681.514	1.33
681.698	1.21
681.881	1.31
682.064	1.29
682.247	1.29
682.43	1.14
682.614	1.22
682.797	1.29
682.98	1.27
683.163	1.12
683.346	1.28
683.529	1.18
683.712	1.19
683.895	1.28
684.078	1.08
684.261	1.2
684.444	1.22
684.627	1.21
684.81	1.14
684.993	1.15
685.176	1.18
685.359	1.15
685.542	1.06
685.725	1.21
685.908	1.11
686.091	1.18
686.274	1.19
686.457	1.17
686.639	1.12
686.822	1.15
687.005	1.13
687.188	1.19
687.371	1.27
687.553	1.14
687.736	1.14
687.919	1.21
688.102	1.13
688.284	1.09
688.467	1.04
688.65	1.13
688.832	1.02
689.015	1.06
689.197	0.98
689.38	1.17
689.563	1.16
689.745	1.04
689.928	0.99
690.11	1.04
690.293	1.07
690.475	0.94
690.658	1.05
690.84	1.05
691.023	1.03
691.205	0.96
691.388	1
691.57	1.05
691.752	1.04
691.935	0.9
692.117	0.97
692.3	1.06
692.482	0.96
692.664	0.94
692.847	0.97
693.029	1.09
693.211	0.99
693.393	0.98
693.576	0.94
693.758	1.04
693.94	0.97
694.122	0.97
694.304	0.93
694.487	0.9
694.669	0.99
694.851	0.9
695.033	0.87
695.215	0.89
695.397	0.95
695.579	0.94
695.761	0.86
695.943	0.84
696.125	0.98
696.308	0.95
696.49	0.78
696.671	1.03
696.853	0.87
697.035	1.1
697.217	0.81
697.399	1.01
697.581	0.85
697.763	0.86
697.945	0.78
698.127	0.9
698.309	0.96
698.491	0.84
698.672	0.86
698.854	0.94
699.036	0.94
699.218	0.79
699.399	0.91
699.581	0.9
699.763	0.8
699.945	0.77
700.126	0.74
700.308	0.8
700.49	0.78
700.671	0.75
700.853	0.76
701.035	0.79
701.216	0.84
701.398	0.74
701.579	0.78
701.761	0.87
701.943	0.76
702.124	0.71
702.306	0.77
702.487	1
702.669	0.73
702.85	0.73
703.031	0.72
703.213	0.89
703.394	0.82
703.576	0.74
703.757	0.84
703.938	0.84
704.12	1.02
704.301	0.77
704.483	0.73
704.664	0.78
704.845	0.87
705.026	0.75
705.208	0.67
705.389	0.79
705.57	0.83
705.751	0.75
705.933	0.83
706.114	0.81
706.295	0.68
706.476	0.68
706.657	0.84
706.838	0.82
707.02	0.78
707.201	0.66
707.382	0.68
707.563	0.76
707.744	0.73
707.925	0.61
708.106	0.67
708.287	0.7
708.468	0.81
708.649	0.69
708.83	0.72
709.011	0.69
709.192	0.86
709.373	0.56
709.554	0.65
709.734	0.83
709.915	0.73
710.096	0.64
710.277	0.5
710.458	0.61
710.639	0.74
710.819	0.54
711	0.64
711.181	0.72
711.362	0.74
711.542	0.68
711.723	0.67
711.904	0.69
712.085	0.68
712.265	0.68
712.446	0.56
712.627	0.6
712.807	0.65
712.988	0.67
713.168	0.52
713.349	0.65
713.53	0.48
713.71	0.61
713.891	0.56
714.071	0.59
714.252	0.58
714.432	0.51
714.613	0.53
714.793	0.65
714.974	0.81
715.154	0.65
715.334	0.72
715.515	0.69
715.695	0.58
715.876	0.6
716.056	0.51
716.236	0.6
716.417	0.51
716.597	0.6
716.777	0.82
716.957	0.52
717.138	0.63
717.318	0.6
717.498	0.43
717.678	0.61
717.859	0.6
718.039	0.53
718.219	0.66
718.399	0.64
718.579	0.54
718.759	0.5
718.939	0.6
719.12	0.58
719.3	0.61
719.48	0.39
719.66	0.4
719.84	0.65
720.02	0.57
720.2	0.49
720.38	0.55
720.56	0.69
720.74	0.47
720.92	0.51
721.1	0.64
721.279	0.58
721.459	0.58
721.639	0.4
721.819	0.56
721.999	0.58
722.179	0.6
722.359	0.44
722.538	0.52
722.718	0.59
722.898	0.47
723.078	0.52
723.257	0.51
723.437	0.6
723.617	0.62
723.797	0.48
723.976	0.5
724.156	0.61
724.336	0.61
724.515	0.68
724.695	0.38
724.874	0.48
725.054	0.54
725.234	0.46
725.413	0.64
725.593	0.5
725.772	0.58
725.952	0.51
726.131	0.46
726.311	0.57
726.49	0.49
726.67	0.44
726.849	0.48
727.028	0.6
727.208	0.53
727.387	0.58
727.567	0.43
727.746	0.56
727.925	0.54
728.105	0.38
728.284	0.48
728.463	0.36
728.643	0.51
728.822	0.42
729.001	0.48
729.18	0.6
729.359	0.56
729.539	0.47
729.718	0.53
729.897	0.67
730.076	0.51
730.255	0.39
730.434	0.56
730.614	0.6
730.793	0.66
730.972	0.5
731.151	0.5
731.33	0.58
731.509	0.58
731.688	0.54
731.867	0.52
732.046	0.32
732.225	0.67
732.404	0.39
732.583	0.37
732.762	0.49
732.941	0.58
733.12	0.47
733.298	0.49
733.477	0.63
733.656	0.37
733.835	0.36
734.014	0.57
734.193	0.51
734.371	0.64
734.55	0.56
734.729	0.41
734.908	0.49
735.086	0.53
735.265	0.68
735.444	0.37
735.623	0.3
735.801	0.41
735.98	0.43
736.159	0.48
736.337	0.7
736.516	0.59
736.694	0.37
736.873	0.4
737.052	0.8
737.23	0.7
737.409	0.44
737.587	0.75
737.766	0.41
737.944	0.42
738.123	0.55
738.301	0.56
738.479	0.52
738.658	0.52
738.836	0.21
739.015	0.58
739.193	0.71
739.371	0.36
739.55	0.43
739.728	0.44
739.906	0.59
740.085	0.68
740.263	0.6
740.441	0.25
740.62	0.83
740.798	0.54
740.976	0.39
741.154	0.21
741.332	0.69
741.511	0.52
741.689	0.56
741.867	0.4
742.045	0.53
742.223	0.44
742.401	0.41
742.579	0.28
742.757	0.47
742.935	0.34
743.114	0.44
743.292	0.34
743.47	0.47
743.648	0.49
743.826	0.45
744.004	0.55
744.181	0.69
744.359	0.47
744.537	0.49
744.715	0.42
744.893	0.54
745.071	0.52
745.249	0.32
745.427	0.38
745.605	0.58
745.782	0.4
745.96	0.5
746.138	0.52
746.316	0.6
746.493	0.34
746.671	0.51
746.849	0.34
747.027	0.6
747.204	0.39
747.382	0.48
747.56	0.34
747.737	0.4
747.915	0.48
748.093	0.48
748.27	0.36
748.448	0.37
748.625	0.3
748.803	0.32
748.98	0.35
749.158	0.4
749.335	0.5
749.513	0.31
749.69	0.3
749.868	0.52
750.045	0.49
750.223	0.45
750.4	0.17
750.578	0.65
750.755	0.35
750.932	0.23
751.11	0.42
751.287	0.36
751.464	0.49
751.642	0.27
751.819	0.42
751.996	0.5
752.173	0.42
752.351	0.35
752.528	0.32
752.705	0.37
752.882	0.37
753.06	0.3
753.237	0.5
753.414	0.69
753.591	0.6
753.768	0.36
753.945	0.44
754.122	0.33
754.299	0.49
754.476	0.2
754.654	0.31
754.831	0.56
755.008	0.61
755.185	0.42
755.362	0.26
755.539	0.46
755.716	0.43
755.892	0.41
756.069	0.45
756.246	0.45
756.423	0.37
756.6	0.54
756.777	0.34
756.954	0.48
757.131	0.29
757.307	0.34
757.484	0.27
757.661	0.36
757.838	0.52
758.015	0.26
758.191	0.5
758.368	0.53
758.545	0.56
758.721	0.46
758.898	0.22
759.075	0.43
759.251	0.52
759.428	0.43
759.605	0.15
759.781	0.41
759.958	0.5
760.134	0.42
760.311	0.36
760.488	0.62
760.664	0.61
760.841	0.45
761.017	0.31
761.194	0.32
761.37	0.41
761.547	0.41
761.723	0.34
761.899	0.49
762.076	0.3
762.252	0.15
762.429	0.21
762.605	0.48
762.781	0.35
762.958	0.45
763.134	0.35
763.31	0.26
763.486	0.49
763.663	0.23
763.839	0.54
764.015	0.14
764.191	0.32
764.368	0.36
764.544	0.28
764.72	0.38
764.896	0.45
765.072	0.44
765.248	0.43
765.425	0.35
765.601	0.37
765.777	0.35
765.953	0.17
766.129	0.32
766.305	0.33
766.481	0.56
766.657	0.39
766.833	0.51
767.009	0.26
767.185	0.47
767.361	0.41
767.537	0.24
767.713	0.52
767.889	0.31
768.065	0.4
768.24	0.53
768.416	0.58
768.592	0.33
768.768	0.28
768.944	0.4
769.12	0.21
769.295	0.27
769.471	0.42
769.647	0.34
769.823	0.65
769.998	0.26
770.174	0.2
770.35	0.73
770.525	0.59
770.701	0.41
770.877	0.3
771.052	0.24
771.228	0.55
771.403	0.36
771.579	0.52
771.755	0.68
771.93	0.3
772.106	0.32
772.281	0
772.457	0.34
772.632	0.38
772.808	0.29
772.983	0.36
773.159	0.28
773.334	0.57
773.509	0.36
773.685	0.28
773.86	0.7
774.036	0.48
774.211	0.44
774.386	0.26
774.562	0.5
774.737	0.64
774.912	0.22
775.087	0.44
775.263	0.31
775.438	0.35
775.613	0.11
775.788	0.35
775.964	0.47
776.139	0.82
776.314	0.25
776.489	0.57
776.664	0.42
776.839	0.17
777.014	0.62
777.19	0.51
777.365	0.67
777.54	0.78
777.715	0.42
777.89	0.37
778.065	0.26
778.24	0.48
778.415	0.37
778.59	0.17
778.765	0.39
778.94	0.49
779.115	0.37
779.289	0.27
779.464	0.38
779.639	0.4
779.814	0.06
779.989	0.28
780.164	0.57
780.339	0.42
780.513	0.34
780.688	0.21
780.863	0.36
781.038	0.66
781.212	0.23
781.387	0.43
781.562	0.94
781.737	0.31
781.911	0.69
782.086	0.26
782.261	0.29
782.435	0.71
782.61	0.14
782.784	0.39
782.959	0.55
783.134	0.39
783.308	0.12
783.483	0.47
783.657	0.75
783.832	0.66
784.006	0.1
784.181	0.56
784.355	0.62
784.53	0.26
784.704	0.16
784.878	0.7
785.053	0.52
785.227	0.71
785.402	0.97
785.576	0.18
785.75	0.46
785.925	0.2
786.099	0.52
786.273	0.48
786.448	0.8
786.622	0.67
786.796	0.37
786.97	0.45
787.145	0.99
787.319	-0.08
787.493	0.41
787.667	0.03
787.841	0.52
788.015	0.66
788.19	0.34
788.364	0.26
788.538	0.74
788.712	0.64
788.886	0.27
789.06	0.62
789.234	0.66
789.408	0.23
789.582	0.51
789.756	0.32
789.93	0.16
790.104	0.32
790.278	0.43
790.452	0.16
790.626	0.36
790.8	0.34
790.973	0.57
791.147	0.85
791.321	0.9
791.495	1.01
791.669	0.7
791.843	0.46
792.016	0.66
792.19	1.12
792.364	0.14
792.538	1.04
792.711	0.57
792.885	0.19
793.059	0.23
793.233	-0.18
793.406	0.84
793.58	0.57
793.754	0.67
793.927	0.3
794.101	0.72
794.274	0.65
794.448	0.72
794.622	0.18
794.795	1.07
794.969	0.56
795.142	1.1
795.316	0.4
795.489	0.43
795.663	0.98
795.836	0.46
796.009	0.35
796.183	0.87
796.356	0.81
796.53	0.26
796.703	0.37
796.876	1.36
797.05	0.57
797.223	0.32
797.396	0.56
797.57	0.58
797.743	1.06
797.916	0.51
798.09	0.35
798.263	1.08
798.436	0.64
798.609	0.37
798.782	0.29
798.956	0.7
799.129	0.73
799.302	0.48
799.475	0.55
799.648	0.34
799.821	0.43
799.994	0.51
800.167	-0.04
800.34	0.51
800.514	0.45
800.687	0.56
800.86	0.2
801.033	0.77
801.206	1.05
801.379	0.2
801.551	0.66
801.724	0.77
801.897	1.12
802.07	0.45
802.243	0.23
802.416	0.71
802.589	0.5
802.762	0.91
802.935	0.51
803.107	0.77
803.28	0.94
803.453	0.97
803.626	0.31
803.798	0.83
803.971	0.57
804.144	0.38
804.317	0.54
804.489	1.01
804.662	0.4
804.835	0.62
805.007	-0.01
805.18	1.24
805.353	0.73
805.525	0.47
805.698	0.36
805.87	0.97
806.043	0.71
806.215	0.37
806.388	0.35
806.56	0.71
806.733	0.69
806.905	0.65
807.078	0.46
807.25	0.62
807.423	1.15
807.595	0.67
807.768	0.52
807.94	0.95
808.112	0.61
808.285	0.54
808.457	0.36
808.629	0.55
808.802	0.88
808.974	0.64
809.146	0.2
809.318	0.24
809.491	0.74
809.663	1.11
809.835	0.48
810.007	1.08
810.18	0.43
810.352	0.24
810.524	0.23
810.696	1.17
810.868	1.07
811.04	0.61
811.212	0.81
811.384	0.75
811.556	0.52
811.728	0.25
811.901	1.55
812.073	0.6
812.245	0.8
812.417	0.49
812.589	-0.21
812.76	0.77
812.932	0.88
813.104	0.95
813.276	0.44
813.448	1.02
813.62	1.05
813.792	0.45
813.964	0.86
814.136	1.21
814.307	0.7
814.479	0.22
814.651	0.36
814.823	1.53
814.995	0.57
815.166	0.61
815.338	0.22
815.51	0.57
815.681	2.1
815.853	0.76
816.025	0.46
816.196	1.43
816.368	0.83
816.54	0.62
816.711	0.47
816.883	0.82
817.054	1.82
817.226	-0.22
817.398	0.86
817.569	0.65
817.741	0.94
817.912	0.82
818.084	0.59
818.255	1.22
818.426	0.21
818.598	0.57
818.769	0.02
818.941	0.97
819.112	1.32
819.283	0.95
819.455	0.53
819.626	1.15
819.798	1.3
819.969	1.09
820.14	0.54
820.311	0.67
820.483	0.61
820.654	0.89
820.825	0.61
820.996	1.07
821.168	-0.09
821.339	0.87
821.51	0.16
821.681	0.81
821.852	0.92
822.023	0.42
822.195	0.33
822.366	1.08
822.537	0.57
822.708	0.71
822.879	0.57
823.05	1.56
823.221	0.46
823.392	1.41
823.563	0.71
823.734	0.71
823.905	0.8
824.076	0.35
824.247	0.07
824.418	0.73
824.589	1.45
824.759	0.91
824.93	1
825.101	0.23
825.272	1.88
825.443	1.62
825.614	1.57
825.784	0.07
825.955	2.06
826.126	1.71
826.297	0.65
826.467	2.41
826.638	1.66
826.809	0.18
826.98	0.84
827.15	1.48
827.321	1.31
827.492	1.66
827.662	0.78
827.833	2.28
828.003	1.67
828.174	-0.1
828.345	-0.18
828.515	2.09
828.686	0.73
828.856	0.69
829.027	0.44
829.197	1.4
829.368	1.58
829.538	-0.12
829.709	0.53
829.879	0.75
830.049	0.77
830.22	0.36
830.39	0.58
830.56	1.21
830.731	0.65
830.901	0.08
831.072	0.32
831.242	1.39
831.412	1.05
831.582	0.64
831.753	0.27
831.923	1.27
832.093	1.16
832.263	0.74
832.434	0.47
832.604	0.49
832.774	1.64
832.944	0.5
833.114	0.17
833.284	1.45
833.454	0.45
833.624	0.85
833.795	0.72
833.965	1.41
834.135	1.62
834.305	-0.18
834.475	-0.1
834.645	1.44
834.815	0.3
834.985	0.58
835.155	0.29
835.325	1.31
835.494	1.42
835.664	0.76
835.834	0.5
836.004	0.18
836.174	1.38
836.344	1.86
836.514	-0.51
836.684	1.22
836.853	0.7
837.023	1.57
837.193	0.19
837.363	2.19
837.532	1.73
837.702	1.08
837.872	0.3
838.041	1.97
838.211	2.79
838.381	-0.09
838.55	0.76
838.72	3.06
838.89	2.55
839.059	0.28
839.229	0.55
839.398	2.54
839.568	1.09
839.738	1.21
839.907	1.48
840.077	1.52
840.246	0.37
840.416	0.07
840.585	0.06
840.755	2.51
840.924	2.17
841.093	0.15
841.263	0.74
841.432	1.44
841.602	0.15
841.771	0.28
841.94	0.87
842.11	2.88
842.279	2.68
842.448	0.23
842.617	0.3
842.787	2.78
842.956	0.16
843.125	1.89
843.294	0.73
843.464	3.04
843.633	2.43
843.802	-0.35
843.971	0.54
844.14	1.18
844.309	2.59
844.479	-0.57
844.648	0.15
844.817	1.22
844.986	1.33
845.155	0.69
845.324	1.08
845.493	1.15
845.662	0.91
845.831	1.48
846	1.13
846.169	0.74
846.338	2.83
846.507	2.04
846.676	1.61
846.844	1.05
847.013	1.73
847.182	1.94
847.351	0.5
847.52	0.84
847.689	1.9
847.858	1.43
848.026	0.78
848.195	1.26
848.364	1.05
848.533	0.68
848.701	-0.27
848.87	2.06
849.039	2.19
849.207	1.24
849.376	2.83
849.545	3.25
849.713	0.35
849.882	0.31
850.051	0.78
850.219	1.53
850.388	2.02
850.556	1.65
850.725	1.13
850.893	2.45
851.062	1.09
851.23	2.06
851.399	-0.17
851.567	0.94
851.736	1.01
851.904	-0.5
852.073	1.81
852.241	1.8
852.41	1.54
852.578	1.62
852.746	0.55
852.915	2.48
853.083	1.43
853.251	-0.24
853.42	1.61
853.588	1.26
853.756	1.81
853.924	1.3
854.093	1.66
854.261	1.16
854.429	-0.74
854.597	1.87
854.765	0.76
854.934	2.56
855.102	3.24
855.27	1.33
855.438	2.05
855.606	3.94
855.774	3.41
855.942	0.06
856.11	0.07
856.278	1.77
856.446	2.37
856.614	1.38
856.782	0.6
856.95	3.18
857.118	2.65
857.286	2.28
857.454	0.86
857.622	3.77
857.79	3.19
857.958	0.28
858.126	0.21
858.294	-1.41
858.462	1.26
858.629	0.51
858.797	0.02
858.965	1.27
859.133	2.05
859.301	1.5
859.468	1.84
859.636	1.66
859.804	4.01
859.971	3.55
860.139	1.09
860.307	4.17
860.474	1.55
860.642	1.02
860.81	0.19
860.977	1.82
861.145	3.41
861.313	0.69
861.48	-0.47
861.648	2.52
861.815	1.66
861.983	-0.14
862.15	1
862.318	3.28
862.485	4.13
862.653	0.4
862.82	-0.22
862.988	4.8
863.155	3.26
863.322	0.42
863.49	-0.58
863.657	1.53
863.824	4.87
863.992	3.27
864.159	2.05
864.326	3.59
864.494	1.62
864.661	3.65
864.828	0.14
864.996	3.21
865.163	4.94
865.33	0.26
865.497	-1.04
865.664	2.04
865.832	-1.36
865.999	1.54
866.166	1.01
866.333	1.81
866.5	2.45
866.667	1.69
866.834	0.18
867.001	3.24
867.168	-0.13
867.335	2.73
867.502	0.6
867.669	1.68
867.836	5.59
868.003	0.57
868.17	3.41
868.337	0.11
868.504	4.58
868.671	0.05
868.838	1.67
869.005	2.15
869.172	4.13
869.339	1.4
869.505	1.72
869.672	2.65
869.839	4.39
870.006	1.96
870.173	1.5
870.339	2.64
870.506	6.01
870.673	2.99
870.84	3.51
871.006	3.38
871.173	0.61
871.34	1.62
871.506	1
871.673	3.11
871.839	-0.11
872.006	3.23
872.173	1.63
872.339	3.88
872.506	3.6
872.672	1.87
872.839	-0.81
873.005	2.65
873.172	5.29
873.338	4.49
873.505	3.68
873.671	3.04
873.838	4.16
874.004	-2.36
874.171	1.22
874.337	3.69
874.503	3.96
874.67	1.83
874.836	1.49
875.002	5.81
875.169	3.55
875.335	4.26
875.501	1.99
875.668	2.96
875.834	2.11
876	1.23
876.166	2.71
876.332	3.85
876.499	7.13
876.665	2.06
876.831	2.6
876.997	4.56
877.163	3.66
877.329	1.21
877.495	2.73
877.662	4.27
877.828	3.52
877.994	2.34
878.16	-0.29
878.326	1.26
878.492	4.49
878.658	0.69
878.824	4.63
878.99	3
879.156	1.24
879.322	3.12
879.487	3.18
879.653	3.8
879.819	2.43
879.985	0.45
880.151	3.27
880.317	3.46
880.483	4.51
880.648	2.34
880.814	-2.77
880.98	4.86
881.146	-1.93
881.312	0.18
881.477	2.69
881.643	3.18
881.809	4.6
881.974	3.79
882.14	-1.57
882.306	3.47
882.471	5.73
882.637	-0.22
882.803	3.08
882.968	4.4
883.134	7.45
883.299	1.58
883.465	2.81
883.63	5.17
883.796	3.23
883.961	5.01
884.127	2.42
884.292	-2.05
884.458	0.65
884.623	0.65
