Data from Apollo_Calib_20240827__AbsoluteIrradiance__845__13-14-02-837.txt Node

Date: Wed Aug 28 13:14:02 BST 2024
User: biology
Spectrometer: FLMT08252
Trigger mode: 0
Integration Time (sec): 5.000000E-1
Scans to average: 5
Electric dark correction enabled: true
Nonlinearity correction enabled: false
Boxcar width: 0
XAxis mode: Wavelengths
Number of Pixels in Spectrum: 3648
>>>>>Begin Spectral Data<<<<<
179.588	-0
179.809	-0
180.03	-0
180.251	-0
180.473	-0
180.694	0
180.915	0
181.136	-0
181.357	0
181.578	-0
181.799	-0
182.02	-0
182.241	0
182.462	-0
182.683	0
182.904	-0
183.125	-0
183.346	0
183.567	0
183.788	0
184.009	0
184.23	0
184.451	0
184.672	0
184.892	0
185.113	0
185.334	0
185.555	0
185.776	0
185.996	0
186.217	0
186.438	0
186.659	0
186.879	0
187.1	0
187.321	0
187.541	0
187.762	0
187.983	0
188.203	0
188.424	0
188.644	0
188.865	0
189.086	0
189.306	0
189.527	0
189.747	0
189.968	0
190.188	0
190.409	0
190.629	0
190.849	0
191.07	0
191.29	0
191.511	0
191.731	0
191.951	0
192.172	0
192.392	0
192.612	0
192.833	0
193.053	0
193.273	0
193.493	0
193.714	0
193.934	0
194.154	0
194.374	0
194.594	0
194.815	0
195.035	0
195.255	0
195.475	0
195.695	0
195.915	0
196.135	0
196.355	0
196.575	0
196.795	0
197.015	0
197.235	0
197.455	0
197.675	0
197.895	0
198.115	0
198.335	0
198.555	0
198.775	0
198.995	0
199.214	0
199.434	0
199.654	0
199.874	0
200.094	4.37
200.313	2.74
200.533	2.36
200.753	1.51
200.973	3.56
201.192	3.48
201.412	1.12
201.632	1.7
201.851	2.87
202.071	1.56
202.291	1.77
202.51	1.23
202.73	2.99
202.95	2.08
203.169	1.32
203.389	2.11
203.608	2.01
203.828	1.62
204.047	1.61
204.267	2.38
204.486	2.1
204.706	2.28
204.925	2.02
205.145	1.29
205.364	2.71
205.583	3.02
205.803	0.99
206.022	1.27
206.242	1.68
206.461	1.26
206.68	1.42
206.9	1.66
207.119	2.43
207.338	2.3
207.557	1.04
207.777	1.45
207.996	1.4
208.215	2.42
208.434	0.75
208.654	0.97
208.873	1.63
209.092	2.25
209.311	1.18
209.53	1.19
209.749	1.37
209.968	1.19
210.187	1.31
210.407	0.49
210.626	1.15
210.845	1.72
211.064	0.96
211.283	0.81
211.502	1.66
211.721	1.49
211.94	1.26
212.159	1.46
212.377	1.34
212.596	1.57
212.815	1.05
213.034	1.33
213.253	1.44
213.472	1.47
213.691	0.83
213.91	0.61
214.128	0.64
214.347	1.64
214.566	0.5
214.785	0.61
215.003	1.48
215.222	1.19
215.441	0.87
215.66	0.58
215.878	0.96
216.097	1.17
216.316	0.84
216.534	0.81
216.753	1.17
216.972	0.73
217.19	0.91
217.409	0.64
217.627	0.67
217.846	0.71
218.064	0.85
218.283	0.72
218.501	1.34
218.72	1.27
218.938	0.67
219.157	0.69
219.375	1.04
219.594	1.08
219.812	0.5
220.031	0.51
220.249	1.37
220.467	1.27
220.686	0.54
220.904	0.34
221.122	0.73
221.341	1.39
221.559	0.86
221.777	0.49
221.995	0.75
222.214	1
222.432	0.61
222.65	0.9
222.868	0.89
223.086	0.86
223.305	0.94
223.523	0.71
223.741	1.13
223.959	0.7
224.177	0.41
224.395	0.59
224.613	0.99
224.831	1.03
225.049	0.3
225.267	0.63
225.485	0.7
225.703	0.69
225.921	0.71
226.139	0.54
226.357	0.82
226.575	0.85
226.793	0.38
227.011	1.49
227.229	0.72
227.447	0.86
227.665	0.59
227.883	0.3
228.1	0.68
228.318	0.86
228.536	0.18
228.754	0.49
228.972	0.76
229.189	0.8
229.407	0.54
229.625	0.62
229.843	0.87
230.06	0.78
230.278	0.44
230.496	0.57
230.713	0.85
230.931	0.81
231.149	0.49
231.366	0.28
231.584	0.54
231.801	1.11
232.019	0.54
232.236	0.32
232.454	0.41
232.671	0.72
232.889	0.41
233.106	0.35
233.324	0.66
233.541	0.5
233.759	0.47
233.976	0.38
234.194	0.55
234.411	0.51
234.628	0.31
234.846	0.37
235.063	0.57
235.28	0.55
235.498	0.52
235.715	0.29
235.932	0.92
236.149	0.61
236.367	0.36
236.584	0.53
236.801	0.48
237.018	0.74
237.236	0.6
237.453	0.28
237.67	0.71
237.887	0.44
238.104	0.53
238.321	0.29
238.538	0.44
238.755	0.7
238.973	0.25
239.19	0.39
239.407	0.67
239.624	0.57
239.841	0.39
240.058	0.39
240.275	0.61
240.492	0.62
240.709	0.53
240.925	0.41
241.142	0.51
241.359	0.33
241.576	0.28
241.793	0.44
242.01	0.51
242.227	0.58
242.444	0.57
242.66	0.57
242.877	0.49
243.094	0.45
243.311	0.49
243.527	0.38
243.744	0.55
243.961	0.51
244.178	0.37
244.394	0.51
244.611	0.56
244.828	0.69
245.044	0.33
245.261	0.37
245.477	0.51
245.694	0.65
245.911	0.37
246.127	0.44
246.344	0.67
246.56	0.55
246.777	0.37
246.993	0.44
247.21	0.45
247.426	0.6
247.643	0.32
247.859	0.41
248.076	0.33
248.292	0.62
248.508	0.36
248.725	0.48
248.941	0.49
249.157	0.61
249.374	0.37
249.59	0.34
249.806	0.44
250.023	0.62
250.239	0.38
250.455	0.31
250.671	0.45
250.888	0.41
251.104	0.48
251.32	0.35
251.536	0.3
251.752	0.39
251.969	0.44
252.185	0.41
252.401	0.61
252.617	0.39
252.833	0.39
253.049	0.45
253.265	0.39
253.481	0.43
253.697	0.34
253.913	0.32
254.129	0.51
254.345	0.5
254.561	0.33
254.777	0.34
254.993	0.48
255.209	0.47
255.425	0.25
255.641	0.3
255.857	0.51
256.073	0.45
256.288	0.24
256.504	0.33
256.72	0.52
256.936	0.59
257.152	0.38
257.367	0.35
257.583	0.43
257.799	0.47
258.015	0.34
258.23	0.35
258.446	0.61
258.662	0.39
258.877	0.22
259.093	0.33
259.309	0.41
259.524	0.38
259.74	0.34
259.955	0.26
260.171	0.35
260.387	0.4
260.602	0.44
260.818	0.42
261.033	0.25
261.249	0.43
261.464	0.32
261.68	0.27
261.895	0.4
262.11	0.44
262.326	0.35
262.541	0.22
262.757	0.49
262.972	0.46
263.187	0.32
263.403	0.41
263.618	0.58
263.833	0.37
264.049	0.31
264.264	0.33
264.479	0.43
264.694	0.49
264.91	0.25
265.125	0.39
265.34	0.4
265.555	0.57
265.77	0.37
265.986	0.33
266.201	0.42
266.416	0.5
266.631	0.25
266.846	0.3
267.061	0.48
267.276	0.48
267.491	0.15
267.706	0.41
267.921	0.44
268.136	0.43
268.351	0.35
268.566	0.22
268.781	0.44
268.996	0.41
269.211	0.32
269.426	0.26
269.641	0.3
269.856	0.44
270.071	0.31
270.285	0.24
270.5	0.46
270.715	0.44
270.93	0.32
271.145	0.34
271.359	0.49
271.574	0.31
271.789	0.32
272.004	0.31
272.218	0.33
272.433	0.33
272.648	0.29
272.862	0.44
273.077	0.35
273.292	0.36
273.506	0.25
273.721	0.28
273.936	0.37
274.15	0.46
274.365	0.31
274.579	0.37
274.794	0.36
275.008	0.46
275.223	0.18
275.437	0.28
275.652	0.46
275.866	0.42
276.081	0.28
276.295	0.43
276.509	0.31
276.724	0.34
276.938	0.34
277.153	0.37
277.367	0.4
277.581	0.29
277.796	0.25
278.01	0.23
278.224	0.38
278.438	0.46
278.653	0.25
278.867	0.25
279.081	0.26
279.295	0.33
279.51	0.31
279.724	0.19
279.938	0.35
280.152	0.44
280.366	0.3
280.58	0.29
280.794	0.45
281.008	0.43
281.222	0.35
281.437	0.53
281.651	0.39
281.865	0.36
282.079	0.28
282.293	0.16
282.507	0.27
282.721	0.35
282.935	0.26
283.148	0.16
283.362	0.29
283.576	0.18
283.79	0.31
284.004	0.26
284.218	0.41
284.432	0.26
284.646	0.33
284.859	0.23
285.073	0.26
285.287	0.35
285.501	0.25
285.714	0.28
285.928	0.3
286.142	0.3
286.356	0.23
286.569	0.21
286.783	0.41
286.997	0.4
287.21	0.31
287.424	0.27
287.637	0.3
287.851	0.29
288.065	0.32
288.278	0.27
288.492	0.32
288.705	0.27
288.919	0.29
289.132	0.24
289.346	0.31
289.559	0.23
289.773	0.25
289.986	0.29
290.2	0.3
290.413	0.4
290.626	0.25
290.84	0.27
291.053	0.3
291.267	0.4
291.48	0.27
291.693	0.25
291.906	0.2
292.12	0.3
292.333	0.25
292.546	0.27
292.76	0.38
292.973	0.32
293.186	0.34
293.399	0.25
293.612	0.34
293.826	0.28
294.039	0.25
294.252	0.22
294.465	0.32
294.678	0.31
294.891	0.28
295.104	0.2
295.317	0.29
295.53	0.3
295.743	0.29
295.956	0.23
296.169	0.42
296.382	0.29
296.595	0.25
296.808	0.27
297.021	0.36
297.234	0.31
297.447	0.29
297.66	0.3
297.873	0.34
298.086	0.34
298.299	0.2
298.511	0.15
298.724	0.29
298.937	0.22
299.15	0.21
299.363	0.27
299.575	0.32
299.788	0.25
300.001	0.24
300.213	0.19
300.426	0.23
300.639	0.2
300.852	0.22
301.064	0.33
301.277	0.4
301.489	0.33
301.702	0.26
301.915	0.24
302.127	0.26
302.34	0.3
302.552	0.29
302.765	0.22
302.977	0.36
303.19	0.25
303.402	0.2
303.615	0.26
303.827	0.26
304.04	0.3
304.252	0.28
304.464	0.25
304.677	0.39
304.889	0.32
305.102	0.23
305.314	0.23
305.526	0.32
305.739	0.32
305.951	0.21
306.163	0.21
306.375	0.38
306.588	0.21
306.8	0.23
307.012	0.15
307.224	0.29
307.436	0.33
307.649	0.15
307.861	0.26
308.073	0.27
308.285	0.23
308.497	0.21
308.709	0.2
308.921	0.3
309.133	0.3
309.346	0.26
309.558	0.25
309.77	0.32
309.982	0.32
310.194	0.28
310.406	0.21
310.617	0.34
310.829	0.29
311.041	0.29
311.253	0.2
311.465	0.28
311.677	0.25
311.889	0.21
312.101	0.22
312.313	0.31
312.524	0.33
312.736	0.16
312.948	0.22
313.16	0.39
313.372	0.35
313.583	0.26
313.795	0.21
314.007	0.26
314.218	0.32
314.43	0.26
314.642	0.23
314.853	0.15
315.065	0.33
315.277	0.21
315.488	0.24
315.7	0.3
315.912	0.31
316.123	0.26
316.335	0.2
316.546	0.39
316.758	0.28
316.969	0.23
317.181	0.23
317.392	0.26
317.604	0.35
317.815	0.21
318.026	0.23
318.238	0.23
318.449	0.35
318.661	0.17
318.872	0.19
319.083	0.23
319.295	0.28
319.506	0.23
319.717	0.25
319.929	0.28
320.14	0.27
320.351	0.26
320.562	0.23
320.774	0.26
320.985	0.29
321.196	0.2
321.407	0.19
321.618	0.3
321.829	0.28
322.041	0.29
322.252	0.23
322.463	0.29
322.674	0.34
322.885	0.19
323.096	0.26
323.307	0.29
323.518	0.29
323.729	0.24
323.94	0.2
324.151	0.25
324.362	0.28
324.573	0.27
324.784	0.23
324.995	0.33
325.206	0.28
325.417	0.22
325.628	0.22
325.838	0.22
326.049	0.29
326.26	0.25
326.471	0.22
326.682	0.25
326.892	0.29
327.103	0.16
327.314	0.2
327.525	0.35
327.735	0.31
327.946	0.27
328.157	0.24
328.368	0.36
328.578	0.24
328.789	0.31
328.999	0.23
329.21	0.23
329.421	0.34
329.631	0.23
329.842	0.22
330.052	0.25
330.263	0.29
330.473	0.3
330.684	0.23
330.894	0.26
331.105	0.24
331.315	0.26
331.526	0.18
331.736	0.36
331.947	0.33
332.157	0.25
332.367	0.23
332.578	0.31
332.788	0.35
332.999	0.3
333.209	0.22
333.419	0.2
333.629	0.27
333.84	0.3
334.05	0.28
334.26	0.34
334.47	0.26
334.681	0.32
334.891	0.24
335.101	0.31
335.311	0.38
335.521	0.26
335.732	0.16
335.942	0.33
336.152	0.21
336.362	0.25
336.572	0.26
336.782	0.32
336.992	0.24
337.202	0.23
337.412	0.21
337.622	0.3
337.832	0.27
338.042	0.27
338.252	0.19
338.462	0.22
338.672	0.22
338.882	0.21
339.092	0.21
339.302	0.37
339.511	0.31
339.721	0.24
339.931	0.2
340.141	0.32
340.351	0.32
340.561	0.27
340.77	0.27
340.98	0.29
341.19	0.28
341.4	0.27
341.609	0.18
341.819	0.3
342.029	0.17
342.238	0.26
342.448	0.24
342.658	0.3
342.867	0.25
343.077	0.3
343.286	0.23
343.496	0.3
343.706	0.34
343.915	0.23
344.125	0.26
344.334	0.31
344.544	0.21
344.753	0.2
344.963	0.25
345.172	0.23
345.381	0.22
345.591	0.2
345.8	0.24
346.01	0.3
346.219	0.33
346.428	0.11
346.638	0.24
346.847	0.19
347.056	0.34
347.266	0.19
347.475	0.24
347.684	0.3
347.893	0.33
348.103	0.3
348.312	0.18
348.521	0.24
348.73	0.27
348.94	0.24
349.149	0.23
349.358	0.25
349.567	0.23
349.776	0.18
349.985	0.21
350.194	0.33
350.403	0.34
350.612	0.15
350.821	0.18
351.03	0.32
351.239	0.25
351.448	0.27
351.657	0.21
351.866	0.33
352.075	0.26
352.284	0.32
352.493	0.19
352.702	0.34
352.911	0.28
353.12	0.27
353.329	0.2
353.538	0.3
353.746	0.25
353.955	0.23
354.164	0.24
354.373	0.24
354.582	0.31
354.79	0.28
354.999	0.27
355.208	0.23
355.416	0.36
355.625	0.22
355.834	0.23
356.042	0.28
356.251	0.22
356.46	0.21
356.668	0.28
356.877	0.36
357.085	0.3
357.294	0.16
357.503	0.23
357.711	0.24
357.92	0.42
358.128	0.27
358.337	0.21
358.545	0.26
358.754	0.23
358.962	0.32
359.17	0.28
359.379	0.28
359.587	0.28
359.796	0.24
360.004	0.28
360.212	0.28
360.421	0.33
360.629	0.24
360.837	0.25
361.046	0.31
361.254	0.41
361.462	0.24
361.67	0.17
361.879	0.32
362.087	0.34
362.295	0.24
362.503	0.24
362.711	0.19
362.92	0.23
363.128	0.19
363.336	0.22
363.544	0.15
363.752	0.24
363.96	0.22
364.168	0.18
364.376	0.23
364.584	0.24
364.792	0.32
365	0.24
365.208	0.27
365.416	0.32
365.624	0.32
365.832	0.21
366.04	0.32
366.248	0.23
366.456	0.25
366.664	0.28
366.872	0.21
367.079	0.26
367.287	0.24
367.495	0.22
367.703	0.22
367.911	0.25
368.118	0.27
368.326	0.25
368.534	0.23
368.742	0.32
368.949	0.2
369.157	0.16
369.365	0.27
369.572	0.23
369.78	0.23
369.988	0.29
370.195	0.24
370.403	0.27
370.61	0.21
370.818	0.28
371.026	0.34
371.233	0.25
371.441	0.27
371.648	0.25
371.856	0.29
372.063	0.26
372.271	0.2
372.478	0.22
372.685	0.22
372.893	0.32
373.1	0.26
373.308	0.2
373.515	0.38
373.722	0.32
373.93	0.23
374.137	0.29
374.344	0.38
374.552	0.33
374.759	0.31
374.966	0.24
375.173	0.26
375.381	0.35
375.588	0.23
375.795	0.18
376.002	0.29
376.209	0.24
376.417	0.25
376.624	0.25
376.831	0.29
377.038	0.25
377.245	0.17
377.452	0.24
377.659	0.26
377.866	0.24
378.073	0.27
378.28	0.27
378.487	0.29
378.694	0.33
378.901	0.22
379.108	0.22
379.315	0.28
379.522	0.36
379.729	0.28
379.936	0.22
380.143	0.31
380.35	0.26
380.557	0.22
380.763	0.25
380.97	0.27
381.177	0.29
381.384	0.3
381.591	0.2
381.797	0.24
382.004	0.28
382.211	0.3
382.418	0.24
382.624	0.3
382.831	0.33
383.038	0.26
383.244	0.3
383.451	0.29
383.658	0.35
383.864	0.23
384.071	0.22
384.277	0.35
384.484	0.26
384.69	0.33
384.897	0.24
385.103	0.25
385.31	0.25
385.516	0.27
385.723	0.2
385.929	0.26
386.136	0.26
386.342	0.33
386.549	0.2
386.755	0.37
386.961	0.33
387.168	0.24
387.374	0.26
387.58	0.33
387.787	0.3
387.993	0.3
388.199	0.29
388.406	0.24
388.612	0.29
388.818	0.26
389.024	0.24
389.231	0.31
389.437	0.37
389.643	0.31
389.849	0.31
390.055	0.3
390.261	0.32
390.467	0.37
390.674	0.24
390.88	0.32
391.086	0.31
391.292	0.3
391.498	0.29
391.704	0.33
391.91	0.26
392.116	0.26
392.322	0.22
392.528	0.32
392.734	0.31
392.94	0.33
393.146	0.3
393.352	0.34
393.557	0.3
393.763	0.27
393.969	0.37
394.175	0.33
394.381	0.32
394.587	0.23
394.792	0.31
394.998	0.39
395.204	0.34
395.41	0.27
395.615	0.35
395.821	0.34
396.027	0.36
396.233	0.29
396.438	0.35
396.644	0.36
396.85	0.33
397.055	0.33
397.261	0.33
397.466	0.44
397.672	0.34
397.878	0.34
398.083	0.33
398.289	0.35
398.494	0.44
398.7	0.38
398.905	0.29
399.111	0.42
399.316	0.3
399.522	0.33
399.727	0.38
399.932	0.35
400.138	0.3
400.343	0.37
400.549	0.27
400.754	0.36
400.959	0.38
401.165	0.36
401.37	0.4
401.575	0.51
401.78	0.39
401.986	0.35
402.191	0.32
402.396	0.36
402.601	0.43
402.807	0.41
403.012	0.37
403.217	0.43
403.422	0.46
403.627	0.44
403.832	0.36
404.037	0.48
404.243	0.45
404.448	0.42
404.653	0.43
404.858	0.46
405.063	0.51
405.268	0.42
405.473	0.35
405.678	0.43
405.883	0.69
406.088	0.54
406.293	0.38
406.498	0.52
406.703	0.49
406.907	0.47
407.112	0.43
407.317	0.52
407.522	0.59
407.727	0.47
407.932	0.47
408.136	0.65
408.341	0.53
408.546	0.63
408.751	0.58
408.956	0.58
409.16	0.7
409.365	0.58
409.57	0.6
409.774	0.61
409.979	0.69
410.184	0.69
410.388	0.65
410.593	0.74
410.798	0.76
411.002	0.7
411.207	0.87
411.411	0.84
411.616	0.77
411.82	0.81
412.025	0.82
412.229	0.84
412.434	0.99
412.638	0.87
412.843	0.95
413.047	0.93
413.252	0.88
413.456	1.03
413.66	1
413.865	1.03
414.069	1.19
414.273	1.06
414.478	1.11
414.682	1.14
414.886	1.24
415.091	1.15
415.295	1.29
415.499	1.41
415.703	1.35
415.908	1.48
416.112	1.38
416.316	1.62
416.52	1.6
416.724	1.5
416.929	1.57
417.133	1.87
417.337	1.72
417.541	1.83
417.745	1.81
417.949	1.94
418.153	2.04
418.357	2.03
418.561	2.27
418.765	2.22
418.969	2.33
419.173	2.41
419.377	2.37
419.581	2.71
419.785	2.67
419.989	2.65
420.193	2.74
420.397	2.84
420.601	3.03
420.804	3.08
421.008	3.09
421.212	3.27
421.416	3.22
421.62	3.23
421.823	3.35
422.027	3.5
422.231	3.49
422.435	3.53
422.638	3.54
422.842	3.62
423.046	3.7
423.249	3.91
423.453	3.92
423.657	4.08
423.86	4.19
424.064	4.4
424.268	4.45
424.471	4.44
424.675	4.63
424.878	4.8
425.082	4.76
425.285	5.3
425.489	5.08
425.692	5.19
425.896	5.28
426.099	5.39
426.303	5.57
426.506	5.69
426.71	5.99
426.913	6.22
427.116	6.38
427.32	6.27
427.523	6.36
427.726	6.7
427.93	6.79
428.133	7.09
428.336	7.25
428.54	7.36
428.743	7.62
428.946	7.9
429.149	7.81
429.353	7.84
429.556	7.99
429.759	7.96
429.962	8.13
430.165	8.25
430.368	7.99
430.571	7.97
430.775	8.03
430.978	8.03
431.181	8.04
431.384	8.22
431.587	8.34
431.79	8.69
431.993	8.57
432.196	8.94
432.399	9.27
432.602	9.42
432.805	9.48
433.008	9.98
433.211	9.95
433.414	10.3
433.616	10.34
433.819	10.25
434.022	10.42
434.225	10.63
434.428	10.6
434.631	10.99
434.833	10.67
435.036	10.94
435.239	11.24
435.442	11.27
435.645	11.46
435.847	11.52
436.05	11.87
436.253	12.06
436.455	12.02
436.658	11.98
436.861	12.37
437.063	12.43
437.266	12.47
437.468	12.69
437.671	12.99
437.874	13.14
438.076	12.98
438.279	13.43
438.481	13.49
438.684	14.14
438.886	13.79
439.089	13.99
439.291	14.07
439.494	14.57
439.696	14.71
439.899	15.19
440.101	15.62
440.303	15.67
440.506	16.35
440.708	16.08
440.91	16.44
441.113	16.66
441.315	16.86
441.517	16.62
441.72	17.21
441.922	16.81
442.124	16.69
442.326	17.04
442.529	17.41
442.731	17.36
442.933	17.59
443.135	17.41
443.337	17.32
443.539	17.88
443.742	17.66
443.944	18.2
444.146	17.97
444.348	17.99
444.55	17.88
444.752	18.02
444.954	17.98
445.156	17.84
445.358	18.35
445.56	18.63
445.762	18.42
445.964	18.75
446.166	18.5
446.368	18.52
446.57	18.42
446.772	18.1
446.974	17.81
447.175	18.16
447.377	17.87
447.579	18.22
447.781	17.96
447.983	17.65
448.184	17.36
448.386	17.71
448.588	17.23
448.79	17.09
448.991	17.32
449.193	17.42
449.395	16.83
449.597	16.41
449.798	16.23
450	15.89
450.202	15.81
450.403	15.81
450.605	15.65
450.806	15.43
451.008	15.18
451.21	14.9
451.411	14.54
451.613	13.69
451.814	14.03
452.016	14.02
452.217	13.22
452.419	13.35
452.62	13.04
452.821	12.65
453.023	12.59
453.224	12.24
453.426	11.77
453.627	11.01
453.828	11.23
454.03	11.33
454.231	11.17
454.432	11.01
454.634	10.75
454.835	10.42
455.036	10.37
455.238	10.08
455.439	9.76
455.64	9.46
455.841	9.48
456.042	9.49
456.244	9.22
456.445	8.83
456.646	8.57
456.847	8.51
457.048	8.45
457.249	8.35
457.45	8.29
457.651	7.69
457.852	7.63
458.054	7.25
458.255	7.15
458.456	7.27
458.657	7.25
458.858	6.71
459.058	6.62
459.259	6.69
459.46	6.48
459.661	6.35
459.862	6.47
460.063	6.35
460.264	6.25
460.465	5.9
460.666	6.09
460.866	5.8
461.067	5.53
461.268	5.53
461.469	5.43
461.67	5.41
461.87	5.22
462.071	5.31
462.272	5.07
462.473	5.01
462.673	5.32
462.874	5.12
463.075	5.09
463.275	5.11
463.476	5.24
463.676	5.02
463.877	4.95
464.078	4.99
464.278	4.98
464.479	4.83
464.679	4.75
464.88	4.67
465.08	4.67
465.281	4.46
465.481	4.28
465.682	4.14
465.882	4.09
466.083	4.09
466.283	4.02
466.483	3.91
466.684	3.66
466.884	3.65
467.085	3.67
467.285	3.77
467.485	3.58
467.686	3.56
467.886	3.4
468.086	3.33
468.286	3.31
468.487	3.43
468.687	3.25
468.887	3.26
469.087	3.36
469.287	3.2
469.488	3.01
469.688	3.21
469.888	3.17
470.088	3.17
470.288	3.07
470.488	3.08
470.688	2.86
470.888	2.81
471.088	2.7
471.288	2.83
471.488	2.74
471.688	2.67
471.888	2.63
472.088	2.83
472.288	2.75
472.488	2.63
472.688	2.5
472.888	2.6
473.088	2.63
473.288	2.53
473.488	2.48
473.688	2.65
473.887	2.49
474.087	2.44
474.287	2.43
474.487	2.45
474.687	2.42
474.886	2.31
475.086	2.3
475.286	2.33
475.486	2.28
475.685	2.25
475.885	2.24
476.085	2.27
476.284	2.29
476.484	2.3
476.684	2.24
476.883	2.32
477.083	2.17
477.282	2.11
477.482	2.19
477.681	2.15
477.881	2.08
478.08	2.06
478.28	2.03
478.479	2.15
478.679	2.16
478.878	2.06
479.078	2.02
479.277	2.05
479.477	2.09
479.676	2.05
479.875	2.01
480.075	1.97
480.274	2.02
480.473	2.08
480.673	2.01
480.872	2.07
481.071	2.09
481.271	2.05
481.47	1.97
481.669	2.03
481.868	2
482.067	1.93
482.267	1.92
482.466	1.95
482.665	1.96
482.864	1.95
483.063	1.92
483.262	2.02
483.461	2.07
483.661	2.05
483.86	2.02
484.059	2.06
484.258	2.06
484.457	1.99
484.656	2.02
484.855	2.1
485.054	1.93
485.253	1.96
485.452	1.93
485.651	2.09
485.849	1.99
486.048	2.01
486.247	2.04
486.446	2.08
486.645	2.02
486.844	2.05
487.043	2.05
487.241	2.12
487.44	2.06
487.639	2.12
487.838	2.13
488.037	2.11
488.235	2.23
488.434	2.16
488.633	2.06
488.831	2.23
489.03	2.23
489.229	2.2
489.427	2.21
489.626	2.29
489.825	2.28
490.023	2.31
490.222	2.28
490.42	2.28
490.619	2.4
490.817	2.38
491.016	2.35
491.214	2.42
491.413	2.41
491.611	2.36
491.81	2.39
492.008	2.46
492.207	2.52
492.405	2.53
492.604	2.47
492.802	2.53
493	2.59
493.199	2.56
493.397	2.64
493.595	2.69
493.794	2.64
493.992	2.79
494.19	2.7
494.388	2.85
494.587	2.73
494.785	2.76
494.983	2.72
495.181	2.89
495.379	2.9
495.578	2.9
495.776	2.96
495.974	2.93
496.172	2.94
496.37	3.05
496.568	3.12
496.766	3.08
496.964	3.18
497.162	3.22
497.36	3.19
497.558	3.24
497.756	3.33
497.954	3.29
498.152	3.35
498.35	3.42
498.548	3.39
498.746	3.38
498.944	3.4
499.142	3.43
499.34	3.55
499.538	3.62
499.736	3.52
499.933	3.59
500.131	3.62
500.329	3.8
500.527	3.77
500.725	3.87
500.922	3.89
501.12	3.85
501.318	3.95
501.516	3.89
501.713	3.98
501.911	3.95
502.109	3.93
502.306	4.06
502.504	4.04
502.701	4.12
502.899	4.15
503.097	4.35
503.294	4.22
503.492	4.32
503.689	4.36
503.887	4.35
504.084	4.46
504.282	4.38
504.479	4.39
504.677	4.56
504.874	4.58
505.072	4.42
505.269	4.67
505.466	4.68
505.664	4.73
505.861	4.65
506.059	4.76
506.256	4.79
506.453	4.85
506.651	4.99
506.848	5.02
507.045	4.91
507.242	4.98
507.44	4.99
507.637	5.07
507.834	5.03
508.031	5.2
508.229	5.13
508.426	5.08
508.623	5.31
508.82	5.32
509.017	5.25
509.214	5.26
509.411	5.34
509.608	5.33
509.805	5.47
510.003	5.45
510.2	5.53
510.397	5.66
510.594	5.49
510.791	5.65
510.988	5.6
511.184	5.6
511.381	5.49
511.578	5.7
511.775	5.87
511.972	5.75
512.169	5.82
512.366	5.74
512.563	5.96
512.76	5.96
512.956	5.99
513.153	5.88
513.35	5.87
513.547	5.91
513.744	6.01
513.94	6.02
514.137	6.12
514.334	6.1
514.53	6.1
514.727	6.36
514.924	6.24
515.12	6.22
515.317	6.31
515.514	6.21
515.71	6.21
515.907	6.44
516.103	6.37
516.3	6.32
516.497	6.47
516.693	6.52
516.89	6.46
517.086	6.47
517.283	6.53
517.479	6.37
517.676	6.6
517.872	6.63
518.068	6.65
518.265	6.61
518.461	6.49
518.658	6.72
518.854	6.72
519.05	6.79
519.247	6.79
519.443	6.77
519.639	6.87
519.836	6.73
520.032	6.78
520.228	6.89
520.424	6.92
520.621	6.96
520.817	7
521.013	6.85
521.209	7.1
521.405	7.08
521.601	7.04
521.798	7.01
521.994	7.06
522.19	6.89
522.386	7.01
522.582	7.12
522.778	7.22
522.974	7.14
523.17	7.13
523.366	7.07
523.562	7.16
523.758	7.12
523.954	7.05
524.15	7.24
524.346	7.22
524.542	7.31
524.738	7.2
524.934	7.38
525.129	7.29
525.325	7.28
525.521	7.25
525.717	7.41
525.913	7.29
526.109	7.32
526.304	7.44
526.5	7.43
526.696	7.47
526.892	7.37
527.087	7.6
527.283	7.46
527.479	7.5
527.674	7.23
527.87	7.55
528.066	7.54
528.261	7.51
528.457	7.45
528.653	7.64
528.848	7.58
529.044	7.71
529.239	7.47
529.435	7.53
529.63	7.5
529.826	7.58
530.021	7.56
530.217	7.6
530.412	7.52
530.608	7.59
530.803	7.6
530.999	7.52
531.194	7.62
531.389	7.71
531.585	7.65
531.78	7.75
531.975	7.75
532.171	7.73
532.366	7.68
532.561	7.72
532.757	7.7
532.952	7.87
533.147	7.6
533.342	7.75
533.538	7.64
533.733	7.89
533.928	7.59
534.123	7.73
534.318	7.81
534.513	7.75
534.709	7.85
534.904	7.84
535.099	7.9
535.294	7.86
535.489	7.96
535.684	7.8
535.879	7.84
536.074	7.91
536.269	7.89
536.464	7.9
536.659	7.83
536.854	7.84
537.049	7.92
537.244	7.88
537.439	7.83
537.634	7.84
537.828	8
538.023	7.89
538.218	7.9
538.413	7.87
538.608	7.97
538.803	7.9
538.997	7.9
539.192	7.97
539.387	7.88
539.582	7.91
539.776	7.87
539.971	7.98
540.166	8.03
540.36	7.93
540.555	8.06
540.75	7.99
540.944	7.96
541.139	7.95
541.334	7.93
541.528	8
541.723	8.12
541.917	8.05
542.112	7.97
542.306	7.84
542.501	7.92
542.695	7.96
542.89	7.87
543.084	7.94
543.279	8.08
543.473	7.99
543.668	8.11
543.862	7.94
544.056	7.94
544.251	8.05
544.445	8.08
544.64	8.13
544.834	7.76
545.028	7.7
545.222	8.09
545.417	8.22
545.611	8.06
545.805	7.98
546	7.83
546.194	8.15
546.388	8.04
546.582	7.92
546.776	8.04
546.97	8.02
547.165	8.08
547.359	8.04
547.553	7.91
547.747	8.02
547.941	8.22
548.135	8.02
548.329	8.09
548.523	8.07
548.717	8
548.911	8
549.105	7.94
549.299	8.13
549.493	8.05
549.687	7.95
549.881	8.09
550.075	8.08
550.269	7.97
550.463	8.07
550.657	8.12
550.85	8.03
551.044	8.06
551.238	8.14
551.432	8.07
551.626	8.07
551.82	8.1
552.013	7.92
552.207	8.16
552.401	8.2
552.594	8.05
552.788	7.99
552.982	8.03
553.176	8.04
553.369	8.29
553.563	8.15
553.756	8.06
553.95	8.1
554.144	8.12
554.337	8.08
554.531	7.9
554.724	8.13
554.918	8.2
555.111	8.09
555.305	8.09
555.498	8.03
555.692	8.18
555.885	8.09
556.079	8.06
556.272	8.06
556.466	8.12
556.659	8.06
556.852	8.16
557.046	8.02
557.239	7.93
557.432	8.07
557.626	8.11
557.819	8.17
558.012	8.12
558.206	8.19
558.399	8.2
558.592	8.06
558.785	8.02
558.979	8.08
559.172	8.06
559.365	8.07
559.558	8
559.751	8.03
559.944	8.19
560.138	8.06
560.331	8.13
560.524	8.12
560.717	8.11
560.91	8.1
561.103	8.11
561.296	7.99
561.489	8.12
561.682	8.12
561.875	8.12
562.068	8.23
562.261	8.03
562.454	8.3
562.647	8.06
562.84	8.1
563.032	8.12
563.225	8.04
563.418	8.14
563.611	8.14
563.804	8.13
563.997	7.93
564.19	7.9
564.382	8.18
564.575	8.03
564.768	8.04
564.961	8.2
565.153	8.04
565.346	7.98
565.539	8.08
565.731	8.05
565.924	8.13
566.117	8.18
566.309	8.09
566.502	8.04
566.695	8.02
566.887	8.12
567.08	8.02
567.272	8.08
567.465	7.94
567.657	8.13
567.85	7.97
568.042	8.05
568.235	8.12
568.427	7.92
568.62	8.07
568.812	7.98
569.005	8.12
569.197	8.02
569.389	8.01
569.582	8.06
569.774	8.05
569.966	8.01
570.159	7.93
570.351	7.95
570.543	8
570.736	8.02
570.928	7.83
571.12	8
571.312	8.01
571.505	7.73
571.697	8.09
571.889	7.98
572.081	7.98
572.273	7.88
572.465	8.02
572.658	7.99
572.85	7.99
573.042	8.01
573.234	7.88
573.426	7.91
573.618	7.89
573.81	7.96
574.002	7.97
574.194	7.97
574.386	7.92
574.578	7.78
574.77	7.91
574.962	7.95
575.154	7.78
575.346	7.86
575.538	7.81
575.729	7.82
575.921	7.98
576.113	7.96
576.305	7.92
576.497	7.99
576.689	7.78
576.88	7.78
577.072	7.88
577.264	7.89
577.456	7.87
577.647	7.79
577.839	7.92
578.031	7.8
578.223	7.84
578.414	7.74
578.606	7.84
578.798	7.9
578.989	7.85
579.181	7.9
579.372	7.81
579.564	7.86
579.755	7.76
579.947	7.7
580.139	7.86
580.33	7.66
580.522	7.74
580.713	7.69
580.905	7.69
581.096	7.84
581.287	7.66
581.479	7.68
581.67	7.78
581.862	7.71
582.053	7.73
582.244	7.57
582.436	7.76
582.627	7.65
582.818	7.58
583.01	7.57
583.201	7.65
583.392	7.67
583.583	7.57
583.775	7.48
583.966	7.56
584.157	7.6
584.348	7.69
584.54	7.55
584.731	7.6
584.922	7.55
585.113	7.44
585.304	7.57
585.495	7.59
585.686	7.62
585.877	7.59
586.068	7.66
586.259	7.6
586.45	7.54
586.641	7.48
586.832	7.53
587.023	7.51
587.214	7.44
587.405	7.5
587.596	7.33
587.787	7.38
587.978	7.46
588.169	7.37
588.36	7.43
588.551	7.41
588.742	7.4
588.932	7.46
589.123	7.27
589.314	7.44
589.505	7.34
589.696	7.38
589.886	7.34
590.077	7.37
590.268	7.26
590.458	7.2
590.649	7.08
590.84	7.22
591.03	7.22
591.221	7.28
591.412	7.11
591.602	7.34
591.793	7.23
591.984	7.29
592.174	7.3
592.365	7.4
592.555	7.04
592.746	7.1
592.936	7.12
593.127	7.25
593.317	7.22
593.508	7.18
593.698	7.03
593.889	7.09
594.079	7.07
594.269	7.01
594.46	6.99
594.65	7.11
594.84	7.08
595.031	6.94
595.221	6.96
595.411	6.99
595.602	6.98
595.792	6.94
595.982	6.89
596.172	7.06
596.363	6.87
596.553	6.85
596.743	6.93
596.933	6.85
597.123	6.86
597.314	6.75
597.504	6.73
597.694	6.9
597.884	6.78
598.074	6.87
598.264	6.86
598.454	6.79
598.644	6.73
598.834	6.77
599.024	6.66
599.214	6.68
599.404	6.76
599.594	6.64
599.784	6.61
599.974	6.78
600.164	6.74
600.354	6.64
600.544	6.56
600.734	6.7
600.924	6.61
601.114	6.56
601.303	6.58
601.493	6.56
601.683	6.6
601.873	6.54
602.063	6.43
602.252	6.46
602.442	6.42
602.632	6.44
602.821	6.39
603.011	6.46
603.201	6.49
603.39	6.4
603.58	6.25
603.77	6.37
603.959	6.44
604.149	6.37
604.339	6.37
604.528	6.38
604.718	6.36
604.907	6.28
605.097	6.19
605.286	6.23
605.476	6.26
605.665	6.3
605.855	6.14
606.044	6.26
606.234	6.21
606.423	6.17
606.612	6.14
606.802	6.09
606.991	6.21
607.181	6.14
607.37	6.1
607.559	5.88
607.749	6.05
607.938	6
608.127	6.05
608.316	5.99
608.506	6.04
608.695	6.05
608.884	5.95
609.073	5.97
609.263	6.07
609.452	6.02
609.641	5.9
609.83	5.86
610.019	5.92
610.208	5.85
610.397	5.78
610.586	5.9
610.775	5.8
610.965	5.81
611.154	5.69
611.343	5.79
611.532	5.71
611.721	5.8
611.91	5.67
612.099	5.75
612.287	5.65
612.476	5.57
612.665	5.69
612.854	5.6
613.043	5.66
613.232	5.64
613.421	5.58
613.61	5.54
613.798	5.57
613.987	5.55
614.176	5.42
614.365	5.49
614.554	5.5
614.742	5.57
614.931	5.3
615.12	5.53
615.309	5.46
615.497	5.34
615.686	5.28
615.875	5.33
616.063	5.39
616.252	5.32
616.44	5.34
616.629	5.34
616.818	5.31
617.006	5.27
617.195	5.23
617.383	5.2
617.572	5.13
617.76	5.16
617.949	5.19
618.137	5.22
618.326	5.2
618.514	4.99
618.703	5.03
618.891	5.13
619.079	5.04
619.268	5.16
619.456	4.99
619.644	5.12
619.833	5.01
620.021	5.01
620.209	4.9
620.398	5.05
620.586	4.9
620.774	5.02
620.962	4.96
621.151	5
621.339	4.86
621.527	4.8
621.715	4.84
621.903	4.83
622.092	4.74
622.28	4.87
622.468	4.7
622.656	4.7
622.844	4.76
623.032	4.83
623.22	4.68
623.408	4.8
623.596	4.74
623.784	4.79
623.972	4.56
624.16	4.68
624.348	4.7
624.536	4.69
624.724	4.54
624.912	4.63
625.1	4.64
625.288	4.58
625.476	4.51
625.664	4.67
625.851	4.5
626.039	4.56
626.227	4.46
626.415	4.48
626.603	4.44
626.79	4.45
626.978	4.45
627.166	4.41
627.354	4.3
627.541	4.38
627.729	4.24
627.917	4.49
628.104	4.42
628.292	4.26
628.48	4.35
628.667	4.28
628.855	4.37
629.042	4.4
629.23	4.26
629.418	4.28
629.605	4.18
629.793	4.15
629.98	4.19
630.168	4.12
630.355	4.19
630.543	4.14
630.73	4.09
630.917	4.18
631.105	4.15
631.292	4.11
631.48	4.08
631.667	4.21
631.854	3.98
632.042	3.98
632.229	3.97
632.416	4.01
632.604	3.99
632.791	3.85
632.978	3.97
633.165	3.95
633.353	4
633.54	3.97
633.727	3.76
633.914	3.82
634.101	3.79
634.289	3.93
634.476	3.8
634.663	3.75
634.85	3.81
635.037	3.74
635.224	3.69
635.411	3.83
635.598	3.74
635.785	3.68
635.972	3.66
636.159	3.71
636.346	3.64
636.533	3.65
636.72	3.63
636.907	3.63
637.094	3.66
637.281	3.51
637.468	3.59
637.655	3.55
637.842	3.57
638.029	3.59
638.215	3.44
638.402	3.51
638.589	3.51
638.776	3.41
638.963	3.45
639.149	3.56
639.336	3.53
639.523	3.38
639.709	3.45
639.896	3.37
640.083	3.4
640.27	3.45
640.456	3.33
640.643	3.35
640.829	3.28
641.016	3.3
641.203	3.22
641.389	3.34
641.576	3.29
641.762	3.24
641.949	3.18
642.135	3.23
642.322	3.17
642.508	3.09
642.695	3.21
642.881	3.13
643.068	3.16
643.254	3.16
643.441	3.17
643.627	3.19
643.813	3.02
644	3.16
644.186	2.98
644.372	3.06
644.559	3.08
644.745	3.03
644.931	2.96
645.118	3.06
645.304	3.07
645.49	3
645.676	2.95
645.862	2.98
646.049	3.01
646.235	2.93
646.421	3.04
646.607	3.03
646.793	2.87
646.979	2.81
647.165	2.91
647.352	2.91
647.538	2.91
647.724	2.79
647.91	2.79
648.096	2.83
648.282	2.81
648.468	2.76
648.654	2.83
648.84	2.81
649.026	2.76
649.212	2.69
649.397	2.69
649.583	2.72
649.769	2.79
649.955	2.73
650.141	2.71
650.327	2.74
650.513	2.68
650.698	2.73
650.884	2.55
651.07	2.69
651.256	2.65
651.442	2.59
651.627	2.5
651.813	2.61
651.999	2.57
652.184	2.53
652.37	2.5
652.556	2.51
652.741	2.59
652.927	2.41
653.113	2.51
653.298	2.52
653.484	2.5
653.669	2.41
653.855	2.45
654.04	2.46
654.226	2.44
654.412	2.43
654.597	2.34
654.782	2.45
654.968	2.44
655.153	2.42
655.339	2.35
655.524	2.3
655.71	2.38
655.895	2.37
656.08	2.37
656.266	2.41
656.451	2.31
656.636	2.26
656.822	2.29
657.007	2.28
657.192	2.24
657.378	2.22
657.563	2.21
657.748	2.28
657.933	2.26
658.118	2.15
658.304	2.2
658.489	2.32
658.674	2.23
658.859	2.13
659.044	2.15
659.229	2.24
659.414	2.14
659.599	2.1
659.785	2.06
659.97	2.16
660.155	2.15
660.34	2.16
660.525	2.13
660.71	2.04
660.895	2.14
661.08	2.05
661.264	2.04
661.449	2.12
661.634	2.09
661.819	2.06
662.004	2.04
662.189	1.93
662.374	2.01
662.559	1.93
662.743	1.91
662.928	1.98
663.113	1.93
663.298	1.91
663.483	1.91
663.667	1.93
663.852	1.89
664.037	1.97
664.221	1.87
664.406	1.99
664.591	1.97
664.775	1.97
664.96	1.89
665.145	1.89
665.329	1.85
665.514	1.82
665.698	1.82
665.883	1.73
666.068	1.92
666.252	1.85
666.437	1.8
666.621	1.77
666.806	1.83
666.99	1.75
667.174	1.77
667.359	1.84
667.543	1.76
667.728	1.77
667.912	1.68
668.096	1.76
668.281	1.75
668.465	1.69
668.649	1.72
668.834	1.65
669.018	1.73
669.202	1.67
669.387	1.66
669.571	1.77
669.755	1.72
669.939	1.63
670.124	1.65
670.308	1.76
670.492	1.69
670.676	1.59
670.86	1.61
671.044	1.57
671.228	1.62
671.413	1.56
671.597	1.55
671.781	1.57
671.965	1.64
672.149	1.6
672.333	1.6
672.517	1.6
672.701	1.56
672.885	1.58
673.069	1.48
673.253	1.63
673.437	1.59
673.621	1.52
673.804	1.53
673.988	1.56
674.172	1.52
674.356	1.38
674.54	1.53
674.724	1.66
674.908	1.5
675.091	1.51
675.275	1.49
675.459	1.52
675.643	1.44
675.826	1.47
676.01	1.44
676.194	1.46
676.377	1.56
676.561	1.46
676.745	1.38
676.928	1.46
677.112	1.52
677.296	1.37
677.479	1.35
677.663	1.41
677.846	1.46
678.03	1.36
678.213	1.32
678.397	1.38
678.58	1.35
678.764	1.33
678.947	1.29
679.131	1.37
679.314	1.4
679.498	1.29
679.681	1.36
679.865	1.38
680.048	1.35
680.231	1.29
680.415	1.28
680.598	1.31
680.781	1.23
680.965	1.3
681.148	1.28
681.331	1.27
681.514	1.32
681.698	1.28
681.881	1.24
682.064	1.36
682.247	1.41
682.43	1.13
682.614	1.24
682.797	1.32
682.98	1.29
683.163	1.19
683.346	1.21
683.529	1.23
683.712	1.16
683.895	1.21
684.078	1.08
684.261	1.17
684.444	1.28
684.627	1.18
684.81	1.12
684.993	1.21
685.176	1.22
685.359	1.12
685.542	1.12
685.725	1.28
685.908	1.15
686.091	1.15
686.274	1.2
686.457	1.2
686.639	1.2
686.822	1.17
687.005	1.09
687.188	1.16
687.371	1.27
687.553	1.15
687.736	1.15
687.919	1.21
688.102	1.16
688.284	1.1
688.467	1.06
688.65	1.07
688.832	1.02
689.015	1.01
689.197	0.96
689.38	1.16
689.563	1.17
689.745	0.96
689.928	0.99
690.11	1.02
690.293	1.06
690.475	0.95
690.658	1.08
690.84	1.02
691.023	0.99
691.205	0.96
691.388	0.98
691.57	1.04
691.752	1.06
691.935	0.89
692.117	0.97
692.3	1.05
692.482	0.98
692.664	0.91
692.847	0.93
693.029	1.06
693.211	1.01
693.393	0.91
693.576	0.93
693.758	0.95
693.94	0.9
694.122	0.92
694.304	0.92
694.487	0.91
694.669	0.95
694.851	0.91
695.033	0.89
695.215	0.89
695.397	0.93
695.579	0.92
695.761	0.87
695.943	0.85
696.125	1.04
696.308	0.95
696.49	0.78
696.671	1
696.853	0.87
697.035	1.12
697.217	0.82
697.399	0.99
697.581	0.81
697.763	0.85
697.945	0.83
698.127	0.9
698.309	0.94
698.491	0.91
698.672	0.84
698.854	0.93
699.036	0.95
699.218	0.83
699.399	0.92
699.581	0.91
699.763	0.82
699.945	0.72
700.126	0.75
700.308	0.86
700.49	0.81
700.671	0.71
700.853	0.78
701.035	0.77
701.216	0.84
701.398	0.72
701.579	0.76
701.761	0.82
701.943	0.79
702.124	0.74
702.306	0.81
702.487	0.93
702.669	0.72
702.85	0.76
703.031	0.66
703.213	0.92
703.394	0.78
703.576	0.73
703.757	0.98
703.938	0.91
704.12	1.03
704.301	0.78
704.483	0.72
704.664	0.73
704.845	0.85
705.026	0.83
705.208	0.74
705.389	0.79
705.57	0.82
705.751	0.76
705.933	0.73
706.114	0.87
706.295	0.72
706.476	0.64
706.657	0.82
706.838	0.77
707.02	0.82
707.201	0.73
707.382	0.69
707.563	0.8
707.744	0.69
707.925	0.66
708.106	0.64
708.287	0.78
708.468	0.9
708.649	0.8
708.83	0.71
709.011	0.64
709.192	0.79
709.373	0.6
709.554	0.72
709.734	0.83
709.915	0.74
710.096	0.72
710.277	0.56
710.458	0.73
710.639	0.69
710.819	0.53
711	0.62
711.181	0.71
711.362	0.74
711.542	0.7
711.723	0.66
711.904	0.75
712.085	0.67
712.265	0.68
712.446	0.58
712.627	0.66
712.807	0.58
712.988	0.59
713.168	0.5
713.349	0.75
713.53	0.5
713.71	0.52
713.891	0.5
714.071	0.62
714.252	0.55
714.432	0.67
714.613	0.56
714.793	0.65
714.974	0.77
715.154	0.68
715.334	0.7
715.515	0.78
715.695	0.52
715.876	0.56
716.056	0.51
716.236	0.58
716.417	0.62
716.597	0.55
716.777	0.89
716.957	0.69
717.138	0.66
717.318	0.52
717.498	0.49
717.678	0.59
717.859	0.65
718.039	0.56
718.219	0.6
718.399	0.6
718.579	0.51
718.759	0.45
718.939	0.55
719.12	0.65
719.3	0.51
719.48	0.41
719.66	0.4
719.84	0.71
720.02	0.53
720.2	0.49
720.38	0.47
720.56	0.73
720.74	0.41
720.92	0.52
721.1	0.77
721.279	0.66
721.459	0.6
721.639	0.49
721.819	0.63
721.999	0.5
722.179	0.61
722.359	0.41
722.538	0.5
722.718	0.56
722.898	0.58
723.078	0.53
723.257	0.5
723.437	0.56
723.617	0.55
723.797	0.52
723.976	0.49
724.156	0.69
724.336	0.66
724.515	0.66
724.695	0.41
724.874	0.55
725.054	0.63
725.234	0.43
725.413	0.52
725.593	0.47
725.772	0.55
725.952	0.48
726.131	0.53
726.311	0.58
726.49	0.51
726.67	0.46
726.849	0.52
727.028	0.46
727.208	0.47
727.387	0.51
727.567	0.47
727.746	0.46
727.925	0.49
728.105	0.48
728.284	0.46
728.463	0.35
728.643	0.62
728.822	0.38
729.001	0.49
729.18	0.59
729.359	0.67
729.539	0.54
729.718	0.52
729.897	0.6
730.076	0.46
730.255	0.41
730.434	0.46
730.614	0.54
730.793	0.68
730.972	0.48
731.151	0.47
731.33	0.65
731.509	0.59
731.688	0.51
731.867	0.46
732.046	0.32
732.225	0.66
732.404	0.44
732.583	0.42
732.762	0.51
732.941	0.56
733.12	0.51
733.298	0.39
733.477	0.66
733.656	0.41
733.835	0.37
734.014	0.55
734.193	0.53
734.371	0.6
734.55	0.55
734.729	0.27
734.908	0.54
735.086	0.59
735.265	0.61
735.444	0.39
735.623	0.34
735.801	0.48
735.98	0.46
736.159	0.48
736.337	0.52
736.516	0.54
736.694	0.52
736.873	0.45
737.052	0.86
737.23	0.7
737.409	0.52
737.587	0.87
737.766	0.35
737.944	0.45
738.123	0.53
738.301	0.61
738.479	0.54
738.658	0.56
738.836	0.35
739.015	0.45
739.193	0.57
739.371	0.33
739.55	0.39
739.728	0.43
739.906	0.63
740.085	0.72
740.263	0.58
740.441	0.27
740.62	0.79
740.798	0.59
740.976	0.34
741.154	0.33
741.332	0.64
741.511	0.53
741.689	0.57
741.867	0.55
742.045	0.54
742.223	0.44
742.401	0.26
742.579	0.36
742.757	0.54
742.935	0.35
743.114	0.43
743.292	0.46
743.47	0.43
743.648	0.56
743.826	0.41
744.004	0.57
744.181	0.67
744.359	0.43
744.537	0.41
744.715	0.38
744.893	0.53
745.071	0.54
745.249	0.49
745.427	0.44
745.605	0.51
745.782	0.45
745.96	0.44
746.138	0.59
746.316	0.52
746.493	0.44
746.671	0.43
746.849	0.31
747.027	0.58
747.204	0.39
747.382	0.41
747.56	0.36
747.737	0.25
747.915	0.48
748.093	0.53
748.27	0.34
748.448	0.35
748.625	0.23
748.803	0.23
748.98	0.49
749.158	0.58
749.335	0.65
749.513	0.37
749.69	0.26
749.868	0.48
750.045	0.44
750.223	0.32
750.4	0.21
750.578	0.6
750.755	0.44
750.932	0.2
751.11	0.44
751.287	0.21
751.464	0.62
751.642	0.33
751.819	0.48
751.996	0.44
752.173	0.43
752.351	0.16
752.528	0.41
752.705	0.42
752.882	0.45
753.06	0.38
753.237	0.49
753.414	0.54
753.591	0.62
753.768	0.46
753.945	0.22
754.122	0.31
754.299	0.47
754.476	0.31
754.654	0.38
754.831	0.59
755.008	0.46
755.185	0.36
755.362	0.29
755.539	0.5
755.716	0.43
755.892	0.3
756.069	0.29
756.246	0.37
756.423	0.31
756.6	0.55
756.777	0.33
756.954	0.59
757.131	0.3
757.307	0.36
757.484	0.28
757.661	0.48
757.838	0.53
758.015	0.16
758.191	0.4
758.368	0.44
758.545	0.59
758.721	0.46
758.898	0.32
759.075	0.51
759.251	0.58
759.428	0.45
759.605	0.2
759.781	0.43
759.958	0.44
760.134	0.38
760.311	0.25
760.488	0.56
760.664	0.63
760.841	0.33
761.017	0.28
761.194	0.53
761.37	0.51
761.547	0.46
761.723	0.27
761.899	0.69
762.076	0.3
762.252	0.27
762.429	0.31
762.605	0.49
762.781	0.37
762.958	0.45
763.134	0.32
763.31	0.37
763.486	0.57
763.663	0.12
763.839	0.34
764.015	0.17
764.191	0.32
764.368	0.4
764.544	0.27
764.72	0.41
764.896	0.49
765.072	0.47
765.248	0.34
765.425	0.2
765.601	0.4
765.777	0.42
765.953	0.19
766.129	0.31
766.305	0.2
766.481	0.48
766.657	0.44
766.833	0.7
767.009	0.2
767.185	0.33
767.361	0.34
767.537	0.15
767.713	0.54
767.889	0.12
768.065	0.34
768.24	0.16
768.416	0.48
768.592	0.39
768.768	0.4
768.944	0.43
769.12	0.33
769.295	0.39
769.471	0.4
769.647	0.45
769.823	0.54
769.998	0.16
770.174	0.32
770.35	0.8
770.525	0.64
770.701	0.43
770.877	0.35
771.052	0.26
771.228	0.54
771.403	0.53
771.579	0.4
771.755	0.72
771.93	0.36
772.106	0.3
772.281	0.11
772.457	0.51
772.632	0.52
772.808	0.18
772.983	0.3
773.159	0.2
773.334	0.55
773.509	0.57
773.685	0.25
773.86	0.81
774.036	0.63
774.211	0.35
774.386	0.23
774.562	0.28
774.737	0.74
774.912	0.33
775.087	0.54
775.263	0.41
775.438	0.36
775.613	0.29
775.788	0.38
775.964	0.58
776.139	0.96
776.314	0.11
776.489	0.52
776.664	0.34
776.839	0.27
777.014	0.53
777.19	0.51
777.365	0.74
777.54	0.75
777.715	0.29
777.89	0.44
778.065	0.4
778.24	0.44
778.415	0.56
778.59	0.24
778.765	0.57
778.94	0.55
779.115	0.34
779.289	0.31
779.464	0.42
779.639	0.48
779.814	0.1
779.989	0.21
780.164	0.59
780.339	0.53
780.513	0.31
780.688	0.18
780.863	0.48
781.038	0.65
781.212	0.3
781.387	0.35
781.562	0.72
781.737	0.28
781.911	0.78
782.086	0.1
782.261	0.43
782.435	0.72
782.61	0.3
782.784	0.49
782.959	0.61
783.134	0.41
783.308	0.29
783.483	0.24
783.657	0.75
783.832	0.74
784.006	0.13
784.181	0.37
784.355	0.74
784.53	0.19
784.704	0.31
784.878	0.74
785.053	0.58
785.227	0.9
785.402	0.83
785.576	0.21
785.75	0.57
785.925	0.4
786.099	0.52
786.273	0.58
786.448	0.62
786.622	0.64
786.796	0.43
786.97	0.24
787.145	1.16
787.319	0.15
787.493	0.38
787.667	-0.06
787.841	0.65
788.015	0.76
788.19	0.41
788.364	0.52
788.538	0.64
788.712	0.61
788.886	0.21
789.06	0.52
789.234	0.81
789.408	0.17
789.582	0.24
789.756	0.47
789.93	0.41
790.104	0.47
790.278	0.25
790.452	0.03
790.626	0.48
790.8	0.12
790.973	0.7
791.147	0.71
791.321	0.87
791.495	0.85
791.669	0.61
791.843	0.67
792.016	0.56
792.19	1
792.364	0.13
792.538	1.37
792.711	0.66
792.885	0.32
793.059	0.24
793.233	-0.01
793.406	0.81
793.58	0.49
793.754	0.45
793.927	0.45
794.101	0.88
794.274	0.53
794.448	0.63
794.622	-0.04
794.795	0.78
794.969	0.36
795.142	0.8
795.316	0.41
795.489	0.18
795.663	0.89
795.836	0.89
796.009	0.3
796.183	0.78
796.356	0.69
796.53	0.51
796.703	0.51
796.876	1.37
797.05	0.56
797.223	0.13
797.396	0.5
797.57	0.31
797.743	0.97
797.916	0.51
798.09	0.51
798.263	0.93
798.436	0.51
798.609	0.27
798.782	0.34
798.956	0.63
799.129	0.59
799.302	0.41
799.475	0.26
799.648	0.16
799.821	0.35
799.994	0.48
800.167	-0.02
800.34	0.43
800.514	0.56
800.687	0.37
800.86	0.27
801.033	0.75
801.206	0.95
801.379	0.28
801.551	0.87
801.724	0.74
801.897	1.15
802.07	0.41
802.243	0.24
802.416	0.74
802.589	0.6
802.762	0.55
802.935	0.52
803.107	0.93
803.28	1.04
803.453	0.61
803.626	0.4
803.798	0.66
803.971	0.53
804.144	0.74
804.317	0.41
804.489	1
804.662	0.55
804.835	0.43
805.007	0.14
805.18	1.4
805.353	0.32
805.525	0.28
805.698	0.04
805.87	0.88
806.043	1.13
806.215	-0.14
806.388	0.22
806.56	0.6
806.733	1.04
806.905	0.79
807.078	0.44
807.25	0.05
807.423	1
807.595	0.62
807.768	0.33
807.94	0.9
808.112	0.49
808.285	0.75
808.457	0.12
808.629	0.8
808.802	1.32
808.974	0.72
809.146	0.27
809.318	0.51
809.491	0.89
809.663	0.82
809.835	0.16
810.007	1.05
810.18	0.58
810.352	0.04
810.524	0.13
810.696	1.42
810.868	0.97
811.04	0.08
811.212	0.62
811.384	1.19
811.556	0.76
811.728	0.55
811.901	1.44
812.073	0.38
812.245	0.92
812.417	1.09
812.589	-0.12
812.76	1.16
812.932	0.9
813.104	0.8
813.276	0.26
813.448	1.14
813.62	0.79
813.792	0.8
813.964	0.32
814.136	0.89
814.307	0.43
814.479	0.65
814.651	0.35
814.823	1.98
814.995	0.38
815.166	0.63
815.338	0.44
815.51	0.29
815.681	1.79
815.853	0.59
816.025	0.82
816.196	1.63
816.368	1.34
816.54	0.4
816.711	0.67
816.883	1.2
817.054	2
817.226	-0.16
817.398	0.98
817.569	0.74
817.741	0.74
817.912	0.4
818.084	0.34
818.255	1.42
818.426	0.42
818.598	0.46
818.769	0.13
818.941	0.98
819.112	1.65
819.283	1.1
819.455	0.17
819.626	0.47
819.798	1.02
819.969	0.65
820.14	0.39
820.311	0.62
820.483	1.11
820.654	1.03
820.825	0.39
820.996	0.63
821.168	-0.15
821.339	0.8
821.51	0.06
821.681	0.83
821.852	0.79
822.023	0.1
822.195	0.47
822.366	1.36
822.537	0.9
822.708	0.68
822.879	0.54
823.05	1.81
823.221	0.34
823.392	0.98
823.563	1.05
823.734	1.13
823.905	0.91
824.076	0.12
824.247	0.11
824.418	0.83
824.589	1.84
824.759	0.56
824.93	0.83
825.101	0.34
825.272	1.31
825.443	1.31
825.614	1.39
825.784	0.21
825.955	1.76
826.126	1.64
826.297	1.29
826.467	1.62
826.638	2.32
826.809	-0.24
826.98	1.11
827.15	1.24
827.321	0.64
827.492	2.19
827.662	0.47
827.833	2.32
828.003	0.9
828.174	0.15
828.345	-0.21
828.515	1.79
828.686	0.78
828.856	0.51
829.027	0.55
829.197	0.74
829.368	1.66
829.538	0.74
829.709	0.77
829.879	0.87
830.049	1.35
830.22	0.89
830.39	0.5
830.56	1.66
830.731	0.88
830.901	0.29
831.072	1
831.242	1.2
831.412	1
831.582	0.55
831.753	-0.31
831.923	2.2
832.093	1.69
832.263	0.79
832.434	0.26
832.604	0.63
832.774	1.41
832.944	0.16
833.114	-0.07
833.284	0.99
833.454	0.7
833.624	0.29
833.795	0.77
833.965	1.95
834.135	2.16
834.305	-0.62
834.475	-0.03
834.645	1.09
834.815	1.2
834.985	0.08
835.155	0.42
835.325	1.45
835.494	1.78
835.664	0.98
835.834	-0.12
836.004	0.89
836.174	1.73
836.344	0.52
836.514	-0
836.684	0.19
836.853	1.22
837.023	1
837.193	0.21
837.363	2.19
837.532	1.88
837.702	0.71
837.872	0.49
838.041	1.69
838.211	2.82
838.381	0.55
838.55	1.2
838.72	4.16
838.89	2.58
839.059	0.44
839.229	0.06
839.398	2.36
839.568	0.81
839.738	0.43
839.907	1.95
840.077	1.37
840.246	1.16
840.416	0.24
840.585	-0.07
840.755	3.33
840.924	1.88
841.093	0.29
841.263	0.5
841.432	1.14
841.602	0.38
841.771	0.47
841.94	1.21
842.11	3.19
842.279	2.83
842.448	0.4
842.617	0.65
842.787	2.6
842.956	-0.79
843.125	0.45
843.294	1.1
843.464	2.46
843.633	1.79
843.802	0.38
843.971	1.14
844.14	1.7
844.309	2.51
844.479	-0.24
844.648	0.85
844.817	1.15
844.986	2.2
845.155	0.71
845.324	0.83
845.493	1.13
845.662	1.09
845.831	1.97
846	1.37
846.169	0.58
846.338	3.01
846.507	1.05
846.676	2.08
846.844	0.91
847.013	2.49
847.182	1.26
847.351	0.7
847.52	1.7
847.689	2.31
847.858	0.41
848.026	0.71
848.195	2.01
848.364	1.32
848.533	1.09
848.701	-0.13
848.87	1.73
849.039	2.83
849.207	2.22
849.376	2.16
849.545	2.78
849.713	0.47
849.882	1.22
850.051	0.84
850.219	1.76
850.388	1.74
850.556	0.22
850.725	-0.15
850.893	2.29
851.062	0.69
851.23	1.77
851.399	-0.22
851.567	1.88
851.736	1
851.904	0.89
852.073	1.17
852.241	2.19
852.41	1.34
852.578	1.95
852.746	-0.3
852.915	1.66
853.083	1.72
853.251	-0.69
853.42	1
853.588	1.88
853.756	2.11
853.924	0.71
854.093	0.57
854.261	1.13
854.429	-0.43
854.597	1.75
854.765	0.04
854.934	2.46
855.102	3.06
855.27	0.56
855.438	1.47
855.606	3.42
855.774	3.07
855.942	-0.59
856.11	-0.39
856.278	2.34
856.446	2.9
856.614	1.38
856.782	0.07
856.95	3.08
857.118	1.82
857.286	2.27
857.454	0.21
857.622	3.17
857.79	2.83
857.958	-0.53
858.126	0.16
858.294	-0.91
858.462	1.3
858.629	1.06
858.797	0.92
858.965	2.67
859.133	1.75
859.301	1.32
859.468	1.87
859.636	0.78
859.804	4.5
859.971	3.38
860.139	1.51
860.307	1.91
860.474	2.77
860.642	0.56
860.81	-1.01
860.977	2.08
861.145	3.24
861.313	0.88
861.48	0.45
861.648	3.36
861.815	1.88
861.983	-0.58
862.15	0.28
862.318	3.03
862.485	4.04
862.653	0.69
862.82	-0.57
862.988	6.36
863.155	2.9
863.322	0.43
863.49	0.27
863.657	2.34
863.824	4.05
863.992	3.25
864.159	0.57
864.326	4.89
864.494	1.16
864.661	4.03
864.828	0.85
864.996	2.87
865.163	3.78
865.33	1.72
865.497	-1.43
865.664	-0.23
865.832	-0.41
865.999	0.57
866.166	-0.61
866.333	1.59
866.5	0.01
866.667	0.6
866.834	2.28
867.001	4.1
867.168	0.73
867.335	1.2
867.502	0.28
867.669	1.66
867.836	6.09
868.003	-0.1
868.17	3.66
868.337	6.2
868.504	5.46
868.671	-0.65
868.838	1.1
869.005	3.89
869.172	3.85
869.339	2.47
869.505	1.43
869.672	2.73
869.839	4.89
870.006	2.25
870.173	-0.63
870.339	3.86
870.506	5.13
870.673	0.16
870.84	3.08
871.006	2.17
871.173	1.4
871.34	1.58
871.506	1.44
871.673	3.28
871.839	0.13
872.006	1.54
872.173	0.79
872.339	3.88
872.506	4.69
872.672	1.78
872.839	-0.97
873.005	2.73
873.172	7.42
873.338	3.7
873.505	2.29
873.671	-0.17
873.838	2.52
874.004	-1.7
874.171	-0.99
874.337	3.25
874.503	4.36
874.67	1.58
874.836	0.76
875.002	4.46
875.169	2.38
875.335	1.01
875.501	3
875.668	2.08
875.834	2.37
876	1.26
876.166	3.81
876.332	3.71
876.499	6.48
876.665	1.18
876.831	2.19
876.997	5.75
877.163	3.62
877.329	2.47
877.495	3.24
877.662	2.95
877.828	2.75
877.994	-0.09
878.16	-1.04
878.326	1.14
878.492	3.96
878.658	1.92
878.824	2.77
878.99	2.3
879.156	1.95
879.322	3.04
879.487	1.53
879.653	2.91
879.819	4
879.985	0.5
880.151	3.69
880.317	4.22
880.483	4.57
880.648	2
880.814	0.86
880.98	2.49
881.146	-0.66
881.312	0.3
881.477	1.03
881.643	3.31
881.809	3.59
881.974	1.43
882.14	0.47
882.306	3.09
882.471	5.63
882.637	0.75
882.803	3.58
882.968	5.42
883.134	7.63
883.299	-0.24
883.465	1.04
883.63	3.97
883.796	3.69
883.961	4.87
884.127	1.97
884.292	-3.18
884.458	0.29
884.623	0.29
