Data from Apollo_Calib_20240827__AbsoluteIrradiance__852__13-21-02-022.txt Node

Date: Wed Aug 28 13:21:02 BST 2024
User: biology
Spectrometer: FLMT08252
Trigger mode: 0
Integration Time (sec): 5.000000E-1
Scans to average: 5
Electric dark correction enabled: true
Nonlinearity correction enabled: false
Boxcar width: 0
XAxis mode: Wavelengths
Number of Pixels in Spectrum: 3648
>>>>>Begin Spectral Data<<<<<
179.588	-0
179.809	-0
180.03	-0
180.251	-0
180.473	-0
180.694	0
180.915	0
181.136	-0
181.357	0
181.578	-0
181.799	-0
182.02	-0
182.241	-0
182.462	-0
182.683	0
182.904	-0
183.125	-0
183.346	0
183.567	0
183.788	0
184.009	0
184.23	0
184.451	0
184.672	0
184.892	0
185.113	0
185.334	0
185.555	0
185.776	0
185.996	0
186.217	0
186.438	0
186.659	0
186.879	0
187.1	0
187.321	0
187.541	0
187.762	0
187.983	0
188.203	0
188.424	0
188.644	0
188.865	0
189.086	0
189.306	0
189.527	0
189.747	0
189.968	0
190.188	0
190.409	0
190.629	0
190.849	0
191.07	0
191.29	0
191.511	0
191.731	0
191.951	0
192.172	0
192.392	0
192.612	0
192.833	0
193.053	0
193.273	0
193.493	0
193.714	0
193.934	0
194.154	0
194.374	0
194.594	0
194.815	0
195.035	0
195.255	0
195.475	0
195.695	0
195.915	0
196.135	0
196.355	0
196.575	0
196.795	0
197.015	0
197.235	0
197.455	0
197.675	0
197.895	0
198.115	0
198.335	0
198.555	0
198.775	0
198.995	0
199.214	0
199.434	0
199.654	0
199.874	0
200.094	3.8
200.313	3.1
200.533	2.01
200.753	1.22
200.973	3.44
201.192	3.18
201.412	1.5
201.632	2.01
201.851	3.57
202.071	1.52
202.291	1.54
202.51	1.04
202.73	3.19
202.95	1.64
203.169	1.15
203.389	1.93
203.608	2.05
203.828	1.66
204.047	1.62
204.267	2.17
204.486	2.02
204.706	2.32
204.925	1.73
205.145	1.58
205.364	2.32
205.583	2.77
205.803	1.25
206.022	0.98
206.242	1.8
206.461	1.53
206.68	1.13
206.9	1.33
207.119	2.59
207.338	2.01
207.557	1.31
207.777	0.97
207.996	1.61
208.215	2.3
208.434	0.92
208.654	0.92
208.873	1.58
209.092	2.31
209.311	1.14
209.53	1.14
209.749	1.65
209.968	1.06
210.187	0.84
210.407	0.66
210.626	1.22
210.845	1.91
211.064	0.79
211.283	0.84
211.502	1.64
211.721	1.22
211.94	0.92
212.159	1.5
212.377	1.34
212.596	1.38
212.815	0.93
213.034	1.07
213.253	1.43
213.472	1.52
213.691	0.86
213.91	0.64
214.128	0.7
214.347	1.6
214.566	0.27
214.785	0.4
215.003	1.27
215.222	1.06
215.441	0.91
215.66	0.54
215.878	0.84
216.097	1.14
216.316	0.57
216.534	0.65
216.753	1.14
216.972	0.66
217.19	0.74
217.409	0.72
217.627	0.9
217.846	0.79
218.064	1.1
218.283	0.45
218.501	1.27
218.72	1.2
218.938	0.39
219.157	0.64
219.375	1.05
219.594	0.9
219.812	0.43
220.031	0.5
220.249	1.26
220.467	1.13
220.686	0.58
220.904	0.39
221.122	0.63
221.341	1.2
221.559	0.66
221.777	0.52
221.995	0.89
222.214	0.93
222.432	0.67
222.65	0.77
222.868	0.91
223.086	0.82
223.305	0.84
223.523	0.58
223.741	1.22
223.959	0.83
224.177	0.23
224.395	0.49
224.613	0.83
224.831	1.01
225.049	0.36
225.267	0.56
225.485	0.75
225.703	0.68
225.921	0.51
226.139	0.54
226.357	0.78
226.575	0.75
226.793	0.52
227.011	1.48
227.229	0.78
227.447	0.77
227.665	0.47
227.883	0.36
228.1	0.64
228.318	0.68
228.536	0.24
228.754	0.42
228.972	0.69
229.189	0.77
229.407	0.47
229.625	0.55
229.843	1.03
230.06	0.76
230.278	0.41
230.496	0.51
230.713	0.59
230.931	0.75
231.149	0.42
231.366	0.22
231.584	0.6
231.801	0.98
232.019	0.42
232.236	0.36
232.454	0.38
232.671	0.55
232.889	0.44
233.106	0.48
233.324	0.6
233.541	0.53
233.759	0.45
233.976	0.28
234.194	0.69
234.411	0.5
234.628	0.32
234.846	0.44
235.063	0.56
235.28	0.58
235.498	0.48
235.715	0.25
235.932	0.81
236.149	0.58
236.367	0.34
236.584	0.57
236.801	0.47
237.018	0.69
237.236	0.51
237.453	0.32
237.67	0.63
237.887	0.54
238.104	0.41
238.321	0.19
238.538	0.42
238.755	0.74
238.973	0.27
239.19	0.42
239.407	0.69
239.624	0.51
239.841	0.33
240.058	0.31
240.275	0.55
240.492	0.43
240.709	0.41
240.925	0.34
241.142	0.49
241.359	0.4
241.576	0.24
241.793	0.35
242.01	0.48
242.227	0.58
242.444	0.48
242.66	0.61
242.877	0.48
243.094	0.43
243.311	0.47
243.527	0.43
243.744	0.46
243.961	0.49
244.178	0.27
244.394	0.42
244.611	0.6
244.828	0.7
245.044	0.29
245.261	0.35
245.477	0.39
245.694	0.57
245.911	0.35
246.127	0.49
246.344	0.6
246.56	0.53
246.777	0.34
246.993	0.41
247.21	0.58
247.426	0.53
247.643	0.35
247.859	0.26
248.076	0.34
248.292	0.73
248.508	0.36
248.725	0.42
248.941	0.49
249.157	0.55
249.374	0.31
249.59	0.48
249.806	0.39
250.023	0.58
250.239	0.3
250.455	0.28
250.671	0.38
250.888	0.54
251.104	0.38
251.32	0.32
251.536	0.35
251.752	0.34
251.969	0.34
252.185	0.38
252.401	0.63
252.617	0.33
252.833	0.39
253.049	0.34
253.265	0.42
253.481	0.4
253.697	0.35
253.913	0.27
254.129	0.43
254.345	0.44
254.561	0.43
254.777	0.25
254.993	0.47
255.209	0.48
255.425	0.29
255.641	0.29
255.857	0.49
256.073	0.42
256.288	0.2
256.504	0.37
256.72	0.46
256.936	0.56
257.152	0.32
257.367	0.29
257.583	0.41
257.799	0.45
258.015	0.31
258.23	0.35
258.446	0.61
258.662	0.27
258.877	0.25
259.093	0.27
259.309	0.39
259.524	0.43
259.74	0.27
259.955	0.21
260.171	0.41
260.387	0.38
260.602	0.4
260.818	0.37
261.033	0.25
261.249	0.38
261.464	0.34
261.68	0.18
261.895	0.42
262.11	0.47
262.326	0.32
262.541	0.25
262.757	0.44
262.972	0.45
263.187	0.41
263.403	0.38
263.618	0.48
263.833	0.38
264.049	0.29
264.264	0.35
264.479	0.37
264.694	0.59
264.91	0.26
265.125	0.31
265.34	0.47
265.555	0.54
265.77	0.38
265.986	0.28
266.201	0.41
266.416	0.42
266.631	0.29
266.846	0.32
267.061	0.41
267.276	0.46
267.491	0.21
267.706	0.36
267.921	0.4
268.136	0.36
268.351	0.33
268.566	0.17
268.781	0.43
268.996	0.44
269.211	0.33
269.426	0.27
269.641	0.34
269.856	0.46
270.071	0.28
270.285	0.21
270.5	0.47
270.715	0.43
270.93	0.25
271.145	0.3
271.359	0.4
271.574	0.35
271.789	0.27
272.004	0.27
272.218	0.38
272.433	0.36
272.648	0.26
272.862	0.4
273.077	0.4
273.292	0.37
273.506	0.27
273.721	0.35
273.936	0.38
274.15	0.45
274.365	0.27
274.579	0.32
274.794	0.36
275.008	0.41
275.223	0.21
275.437	0.37
275.652	0.35
275.866	0.42
276.081	0.34
276.295	0.35
276.509	0.33
276.724	0.34
276.938	0.28
277.153	0.35
277.367	0.35
277.581	0.27
277.796	0.3
278.01	0.22
278.224	0.38
278.438	0.5
278.653	0.17
278.867	0.24
279.081	0.41
279.295	0.32
279.51	0.32
279.724	0.15
279.938	0.37
280.152	0.39
280.366	0.28
280.58	0.3
280.794	0.45
281.008	0.36
281.222	0.3
281.437	0.56
281.651	0.34
281.865	0.35
282.079	0.29
282.293	0.15
282.507	0.25
282.721	0.27
282.935	0.26
283.148	0.17
283.362	0.26
283.576	0.24
283.79	0.29
284.004	0.25
284.218	0.42
284.432	0.27
284.646	0.29
284.859	0.24
285.073	0.29
285.287	0.27
285.501	0.3
285.714	0.2
285.928	0.31
286.142	0.32
286.356	0.24
286.569	0.25
286.783	0.43
286.997	0.35
287.21	0.33
287.424	0.3
287.637	0.28
287.851	0.27
288.065	0.34
288.278	0.27
288.492	0.28
288.705	0.27
288.919	0.31
289.132	0.18
289.346	0.33
289.559	0.17
289.773	0.21
289.986	0.28
290.2	0.27
290.413	0.35
290.626	0.21
290.84	0.23
291.053	0.26
291.267	0.4
291.48	0.26
291.693	0.28
291.906	0.24
292.12	0.29
292.333	0.23
292.546	0.21
292.76	0.38
292.973	0.26
293.186	0.3
293.399	0.3
293.612	0.35
293.826	0.29
294.039	0.24
294.252	0.23
294.465	0.39
294.678	0.28
294.891	0.27
295.104	0.17
295.317	0.24
295.53	0.32
295.743	0.26
295.956	0.24
296.169	0.39
296.382	0.28
296.595	0.2
296.808	0.23
297.021	0.36
297.234	0.35
297.447	0.24
297.66	0.26
297.873	0.33
298.086	0.34
298.299	0.21
298.511	0.14
298.724	0.29
298.937	0.2
299.15	0.18
299.363	0.2
299.575	0.35
299.788	0.26
300.001	0.19
300.213	0.26
300.426	0.23
300.639	0.24
300.852	0.18
301.064	0.33
301.277	0.35
301.489	0.29
301.702	0.26
301.915	0.25
302.127	0.24
302.34	0.3
302.552	0.29
302.765	0.21
302.977	0.3
303.19	0.25
303.402	0.23
303.615	0.21
303.827	0.23
304.04	0.27
304.252	0.3
304.464	0.25
304.677	0.42
304.889	0.29
305.102	0.24
305.314	0.24
305.526	0.31
305.739	0.27
305.951	0.16
306.163	0.19
306.375	0.34
306.588	0.26
306.8	0.21
307.012	0.2
307.224	0.29
307.436	0.33
307.649	0.17
307.861	0.27
308.073	0.27
308.285	0.24
308.497	0.17
308.709	0.2
308.921	0.29
309.133	0.34
309.346	0.22
309.558	0.23
309.77	0.3
309.982	0.35
310.194	0.27
310.406	0.21
310.617	0.36
310.829	0.24
311.041	0.23
311.253	0.15
311.465	0.29
311.677	0.21
311.889	0.28
312.101	0.21
312.313	0.31
312.524	0.36
312.736	0.17
312.948	0.23
313.16	0.37
313.372	0.27
313.583	0.26
313.795	0.21
314.007	0.25
314.218	0.33
314.43	0.24
314.642	0.21
314.853	0.15
315.065	0.32
315.277	0.23
315.488	0.25
315.7	0.35
315.912	0.34
316.123	0.25
316.335	0.23
316.546	0.34
316.758	0.31
316.969	0.23
317.181	0.25
317.392	0.25
317.604	0.35
317.815	0.21
318.026	0.21
318.238	0.22
318.449	0.28
318.661	0.13
318.872	0.21
319.083	0.21
319.295	0.31
319.506	0.23
319.717	0.23
319.929	0.33
320.14	0.23
320.351	0.26
320.562	0.2
320.774	0.29
320.985	0.27
321.196	0.26
321.407	0.17
321.618	0.28
321.829	0.26
322.041	0.26
322.252	0.27
322.463	0.31
322.674	0.28
322.885	0.21
323.096	0.24
323.307	0.24
323.518	0.29
323.729	0.21
323.94	0.22
324.151	0.23
324.362	0.27
324.573	0.25
324.784	0.23
324.995	0.3
325.206	0.29
325.417	0.27
325.628	0.18
325.838	0.26
326.049	0.29
326.26	0.27
326.471	0.23
326.682	0.29
326.892	0.29
327.103	0.16
327.314	0.22
327.525	0.34
327.735	0.24
327.946	0.21
328.157	0.17
328.368	0.27
328.578	0.26
328.789	0.25
328.999	0.25
329.21	0.2
329.421	0.28
329.631	0.26
329.842	0.2
330.052	0.29
330.263	0.27
330.473	0.3
330.684	0.25
330.894	0.28
331.105	0.22
331.315	0.28
331.526	0.15
331.736	0.31
331.947	0.28
332.157	0.3
332.367	0.15
332.578	0.28
332.788	0.35
332.999	0.28
333.209	0.25
333.419	0.19
333.629	0.27
333.84	0.28
334.05	0.27
334.26	0.33
334.47	0.26
334.681	0.31
334.891	0.23
335.101	0.29
335.311	0.32
335.521	0.22
335.732	0.21
335.942	0.31
336.152	0.29
336.362	0.22
336.572	0.26
336.782	0.34
336.992	0.24
337.202	0.21
337.412	0.19
337.622	0.3
337.832	0.24
338.042	0.28
338.252	0.19
338.462	0.24
338.672	0.28
338.882	0.18
339.092	0.23
339.302	0.37
339.511	0.29
339.721	0.24
339.931	0.18
340.141	0.34
340.351	0.34
340.561	0.23
340.77	0.25
340.98	0.32
341.19	0.27
341.4	0.24
341.609	0.2
341.819	0.27
342.029	0.19
342.238	0.28
342.448	0.23
342.658	0.31
342.867	0.25
343.077	0.25
343.286	0.24
343.496	0.25
343.706	0.37
343.915	0.18
344.125	0.22
344.334	0.26
344.544	0.23
344.753	0.18
344.963	0.24
345.172	0.22
345.381	0.22
345.591	0.2
345.8	0.21
346.01	0.31
346.219	0.28
346.428	0.12
346.638	0.23
346.847	0.29
347.056	0.31
347.266	0.19
347.475	0.24
347.684	0.29
347.893	0.23
348.103	0.28
348.312	0.18
348.521	0.25
348.73	0.26
348.94	0.24
349.149	0.21
349.358	0.24
349.567	0.25
349.776	0.18
349.985	0.2
350.194	0.34
350.403	0.28
350.612	0.17
350.821	0.2
351.03	0.28
351.239	0.18
351.448	0.27
351.657	0.23
351.866	0.31
352.075	0.28
352.284	0.33
352.493	0.17
352.702	0.37
352.911	0.23
353.12	0.23
353.329	0.25
353.538	0.3
353.746	0.22
353.955	0.18
354.164	0.27
354.373	0.21
354.582	0.26
354.79	0.25
354.999	0.27
355.208	0.25
355.416	0.36
355.625	0.18
355.834	0.21
356.042	0.29
356.251	0.21
356.46	0.2
356.668	0.28
356.877	0.34
357.085	0.31
357.294	0.14
357.503	0.27
357.711	0.21
357.92	0.42
358.128	0.22
358.337	0.23
358.545	0.29
358.754	0.17
358.962	0.29
359.17	0.23
359.379	0.29
359.587	0.25
359.796	0.23
360.004	0.28
360.212	0.31
360.421	0.3
360.629	0.27
360.837	0.19
361.046	0.31
361.254	0.36
361.462	0.24
361.67	0.19
361.879	0.3
362.087	0.4
362.295	0.25
362.503	0.2
362.711	0.2
362.92	0.2
363.128	0.21
363.336	0.2
363.544	0.2
363.752	0.26
363.96	0.21
364.168	0.23
364.376	0.28
364.584	0.26
364.792	0.31
365	0.26
365.208	0.27
365.416	0.28
365.624	0.3
365.832	0.21
366.04	0.3
366.248	0.26
366.456	0.23
366.664	0.22
366.872	0.25
367.079	0.2
367.287	0.21
367.495	0.3
367.703	0.26
367.911	0.22
368.118	0.25
368.326	0.25
368.534	0.2
368.742	0.32
368.949	0.19
369.157	0.17
369.365	0.29
369.572	0.2
369.78	0.21
369.988	0.31
370.195	0.25
370.403	0.32
370.61	0.21
370.818	0.23
371.026	0.38
371.233	0.28
371.441	0.24
371.648	0.19
371.856	0.28
372.063	0.31
372.271	0.25
372.478	0.21
372.685	0.23
372.893	0.31
373.1	0.28
373.308	0.2
373.515	0.34
373.722	0.31
373.93	0.22
374.137	0.25
374.344	0.36
374.552	0.28
374.759	0.3
374.966	0.23
375.173	0.22
375.381	0.33
375.588	0.24
375.795	0.19
376.002	0.25
376.209	0.26
376.417	0.26
376.624	0.31
376.831	0.28
377.038	0.23
377.245	0.18
377.452	0.24
377.659	0.3
377.866	0.23
378.073	0.26
378.28	0.24
378.487	0.32
378.694	0.3
378.901	0.26
379.108	0.24
379.315	0.29
379.522	0.4
379.729	0.3
379.936	0.21
380.143	0.29
380.35	0.3
380.557	0.23
380.763	0.26
380.97	0.28
381.177	0.3
381.384	0.3
381.591	0.19
381.797	0.28
382.004	0.26
382.211	0.28
382.418	0.23
382.624	0.33
382.831	0.32
383.038	0.25
383.244	0.27
383.451	0.28
383.658	0.28
383.864	0.24
384.071	0.22
384.277	0.37
384.484	0.25
384.69	0.33
384.897	0.22
385.103	0.25
385.31	0.23
385.516	0.25
385.723	0.25
385.929	0.32
386.136	0.23
386.342	0.3
386.549	0.26
386.755	0.4
386.961	0.3
387.168	0.24
387.374	0.3
387.58	0.31
387.787	0.27
387.993	0.32
388.199	0.23
388.406	0.24
388.612	0.24
388.818	0.24
389.024	0.26
389.231	0.29
389.437	0.39
389.643	0.27
389.849	0.24
390.055	0.3
390.261	0.32
390.467	0.29
390.674	0.25
390.88	0.3
391.086	0.35
391.292	0.23
391.498	0.29
391.704	0.35
391.91	0.32
392.116	0.26
392.322	0.17
392.528	0.32
392.734	0.31
392.94	0.27
393.146	0.26
393.352	0.34
393.557	0.22
393.763	0.26
393.969	0.36
394.175	0.28
394.381	0.29
394.587	0.21
394.792	0.3
394.998	0.38
395.204	0.36
395.41	0.22
395.615	0.37
395.821	0.32
396.027	0.35
396.233	0.29
396.438	0.28
396.644	0.37
396.85	0.33
397.055	0.3
397.261	0.37
397.466	0.42
397.672	0.35
397.878	0.39
398.083	0.38
398.289	0.32
398.494	0.4
398.7	0.36
398.905	0.26
399.111	0.43
399.316	0.26
399.522	0.38
399.727	0.36
399.932	0.32
400.138	0.26
400.343	0.37
400.549	0.34
400.754	0.33
400.959	0.37
401.165	0.34
401.37	0.36
401.575	0.47
401.78	0.37
401.986	0.33
402.191	0.33
402.396	0.36
402.601	0.45
402.807	0.4
403.012	0.35
403.217	0.45
403.422	0.37
403.627	0.4
403.832	0.38
404.037	0.47
404.243	0.44
404.448	0.29
404.653	0.39
404.858	0.41
405.063	0.46
405.268	0.4
405.473	0.33
405.678	0.42
405.883	0.66
406.088	0.5
406.293	0.4
406.498	0.43
406.703	0.48
406.907	0.5
407.112	0.4
407.317	0.54
407.522	0.58
407.727	0.49
407.932	0.54
408.136	0.66
408.341	0.57
408.546	0.55
408.751	0.52
408.956	0.52
409.16	0.67
409.365	0.56
409.57	0.59
409.774	0.6
409.979	0.68
410.184	0.64
410.388	0.6
410.593	0.72
410.798	0.68
411.002	0.64
411.207	0.78
411.411	0.77
411.616	0.7
411.82	0.8
412.025	0.82
412.229	0.79
412.434	0.92
412.638	0.85
412.843	0.88
413.047	0.89
413.252	0.93
413.456	0.95
413.66	1
413.865	0.98
414.069	1.1
414.273	1
414.478	1.02
414.682	1.11
414.886	1.13
415.091	1.1
415.295	1.17
415.499	1.31
415.703	1.23
415.908	1.39
416.112	1.29
416.316	1.53
416.52	1.43
416.724	1.48
416.929	1.49
417.133	1.76
417.337	1.64
417.541	1.71
417.745	1.73
417.949	1.85
418.153	1.85
418.357	1.87
418.561	2.18
418.765	2.08
418.969	2.25
419.173	2.29
419.377	2.24
419.581	2.45
419.785	2.35
419.989	2.41
420.193	2.61
420.397	2.68
420.601	2.8
420.804	2.93
421.008	2.9
421.212	3.04
421.416	3.01
421.62	3.01
421.823	3.05
422.027	3.25
422.231	3.3
422.435	3.2
422.638	3.27
422.842	3.44
423.046	3.54
423.249	3.68
423.453	3.73
423.657	3.87
423.86	3.91
424.064	4.07
424.268	4.24
424.471	4.15
424.675	4.41
424.878	4.4
425.082	4.54
425.285	4.83
425.489	4.78
425.692	4.84
425.896	4.87
426.099	5.17
426.303	5.27
426.506	5.3
426.71	5.59
426.913	5.79
427.116	5.9
427.32	5.87
427.523	6.08
427.726	6.32
427.93	6.4
428.133	6.63
428.336	6.77
428.54	6.95
428.743	7.27
428.946	7.5
429.149	7.42
429.353	7.43
429.556	7.56
429.759	7.57
429.962	7.68
430.165	7.91
430.368	7.49
430.571	7.62
430.775	7.71
430.978	7.7
431.181	7.81
431.384	7.78
431.587	8.01
431.79	8.32
431.993	8.33
432.196	8.53
432.399	8.91
432.602	9.05
432.805	9.17
433.008	9.69
433.211	9.44
433.414	9.87
433.616	9.92
433.819	9.81
434.022	9.96
434.225	10.13
434.428	10.16
434.631	10.66
434.833	10.4
435.036	10.66
435.239	10.79
435.442	10.89
435.645	11.11
435.847	11.18
436.05	11.36
436.253	11.75
436.455	11.61
436.658	11.62
436.861	12.03
437.063	12.04
437.266	12.01
437.468	12.3
437.671	12.68
437.874	12.75
438.076	12.5
438.279	12.87
438.481	12.96
438.684	13.67
438.886	13.36
439.089	13.57
439.291	13.73
439.494	14.07
439.696	14.22
439.899	14.68
440.101	15.05
440.303	15.23
440.506	15.92
440.708	15.68
440.91	15.96
441.113	16.11
441.315	16.42
441.517	16.12
441.72	16.72
441.922	16.19
442.124	16.18
442.326	16.66
442.529	16.84
442.731	16.71
442.933	17.17
443.135	16.91
443.337	17.03
443.539	17.48
443.742	17.03
443.944	17.79
444.146	17.53
444.348	17.52
444.55	17.44
444.752	17.62
444.954	17.6
445.156	17.49
445.358	18.13
445.56	18.17
445.762	17.93
445.964	18.25
446.166	18.1
446.368	18.23
446.57	18.18
446.772	17.9
446.974	17.71
447.175	17.89
447.377	17.76
447.579	18.14
447.781	17.72
447.983	17.58
448.184	17.27
448.386	17.62
448.588	17.02
448.79	17.05
448.991	17.46
449.193	17.36
449.395	16.85
449.597	16.51
449.798	16.41
450	15.96
450.202	15.93
450.403	15.9
450.605	15.79
450.806	15.51
451.008	15.41
451.21	15.05
451.411	14.78
451.613	14.02
451.814	14.35
452.016	14.15
452.217	13.57
452.419	13.58
452.62	13.31
452.821	12.96
453.023	12.76
453.224	12.55
453.426	12.16
453.627	11.33
453.828	11.49
454.03	11.51
454.231	11.59
454.432	11.5
454.634	11.19
454.835	10.79
455.036	10.7
455.238	10.36
455.439	10.13
455.64	9.81
455.841	9.81
456.042	9.87
456.244	9.56
456.445	9.2
456.646	8.92
456.847	8.87
457.048	8.86
457.249	8.8
457.45	8.69
457.651	8
457.852	7.82
458.054	7.53
458.255	7.46
458.456	7.56
458.657	7.43
458.858	6.98
459.058	6.93
459.259	6.88
459.46	6.59
459.661	6.59
459.862	6.65
460.063	6.6
460.264	6.49
460.465	6.15
460.666	6.25
460.866	5.91
461.067	5.64
461.268	5.73
461.469	5.65
461.67	5.58
461.87	5.38
462.071	5.34
462.272	5.27
462.473	5.28
462.673	5.5
462.874	5.33
463.075	5.29
463.275	5.24
463.476	5.35
463.676	5.33
463.877	5.1
464.078	5.11
464.278	5.14
464.479	5.07
464.679	4.9
464.88	4.74
465.08	4.83
465.281	4.67
465.481	4.45
465.682	4.26
465.882	4.29
466.083	4.19
466.283	4.16
466.483	4.04
466.684	3.94
466.884	3.7
467.085	3.78
467.285	3.94
467.485	3.73
467.686	3.74
467.886	3.6
468.086	3.44
468.286	3.49
468.487	3.56
468.687	3.41
468.887	3.35
469.087	3.48
469.287	3.32
469.488	3.2
469.688	3.43
469.888	3.36
470.088	3.31
470.288	3.26
470.488	3.13
470.688	2.99
470.888	3
471.088	2.82
471.288	2.96
471.488	2.93
471.688	2.87
471.888	2.8
472.088	2.95
472.288	2.86
472.488	2.77
472.688	2.73
472.888	2.74
473.088	2.71
473.288	2.58
473.488	2.59
473.688	2.71
473.887	2.57
474.087	2.5
474.287	2.5
474.487	2.47
474.687	2.52
474.886	2.47
475.086	2.37
475.286	2.42
475.486	2.46
475.685	2.29
475.885	2.25
476.085	2.38
476.284	2.37
476.484	2.31
476.684	2.26
476.883	2.38
477.083	2.3
477.282	2.12
477.482	2.28
477.681	2.2
477.881	2.18
478.08	2.17
478.28	2.14
478.479	2.2
478.679	2.23
478.878	2.15
479.078	2.08
479.277	2.16
479.477	2.14
479.676	2.08
479.875	2.1
480.075	2
480.274	2.08
480.473	2.14
480.673	2.1
480.872	2.17
481.071	2.07
481.271	2.11
481.47	2.05
481.669	2.05
481.868	2.04
482.067	2.03
482.267	1.96
482.466	1.98
482.665	2.01
482.864	1.97
483.063	1.99
483.262	2.04
483.461	2.11
483.661	2.13
483.86	2.01
484.059	2.04
484.258	2.06
484.457	2.07
484.656	2.05
484.855	2.14
485.054	1.93
485.253	2.02
485.452	2.03
485.651	2.08
485.849	2.01
486.048	2.03
486.247	2.04
486.446	2.11
486.645	2.05
486.844	2.11
487.043	2.07
487.241	2.1
487.44	2.13
487.639	2.16
487.838	2.12
488.037	2.14
488.235	2.22
488.434	2.21
488.633	2.05
488.831	2.25
489.03	2.24
489.229	2.22
489.427	2.25
489.626	2.3
489.825	2.31
490.023	2.36
490.222	2.3
490.42	2.35
490.619	2.4
490.817	2.39
491.016	2.36
491.214	2.49
491.413	2.47
491.611	2.38
491.81	2.42
492.008	2.45
492.207	2.54
492.405	2.6
492.604	2.48
492.802	2.57
493	2.64
493.199	2.66
493.397	2.65
493.595	2.72
493.794	2.68
493.992	2.79
494.19	2.71
494.388	2.82
494.587	2.76
494.785	2.72
494.983	2.68
495.181	2.84
495.379	2.94
495.578	2.92
495.776	2.95
495.974	2.94
496.172	3
496.37	3.08
496.568	3.11
496.766	3.08
496.964	3.18
497.162	3.21
497.36	3.21
497.558	3.26
497.756	3.31
497.954	3.3
498.152	3.32
498.35	3.44
498.548	3.33
498.746	3.36
498.944	3.4
499.142	3.44
499.34	3.54
499.538	3.61
499.736	3.55
499.933	3.65
500.131	3.63
500.329	3.73
500.527	3.69
500.725	3.84
500.922	3.83
501.12	3.84
501.318	3.94
501.516	3.93
501.713	3.97
501.911	3.97
502.109	3.92
502.306	4.03
502.504	4
502.701	4.04
502.899	4.11
503.097	4.36
503.294	4.2
503.492	4.34
503.689	4.33
503.887	4.33
504.084	4.46
504.282	4.42
504.479	4.33
504.677	4.5
504.874	4.49
505.072	4.41
505.269	4.66
505.466	4.68
505.664	4.71
505.861	4.65
506.059	4.72
506.256	4.74
506.453	4.78
506.651	4.91
506.848	4.94
507.045	4.95
507.242	4.92
507.44	4.95
507.637	5.04
507.834	5.04
508.031	5.15
508.229	5.07
508.426	5.05
508.623	5.21
508.82	5.25
509.017	5.19
509.214	5.22
509.411	5.35
509.608	5.28
509.805	5.43
510.003	5.36
510.2	5.41
510.397	5.65
510.594	5.48
510.791	5.59
510.988	5.62
511.184	5.59
511.381	5.51
511.578	5.58
511.775	5.75
511.972	5.62
512.169	5.7
512.366	5.76
512.563	5.87
512.76	5.94
512.956	5.94
513.153	5.84
513.35	5.86
513.547	5.84
513.744	5.94
513.94	5.92
514.137	6.05
514.334	6.1
514.53	6.08
514.727	6.31
514.924	6.25
515.12	6.18
515.317	6.2
515.514	6.16
515.71	6.16
515.907	6.31
516.103	6.38
516.3	6.24
516.497	6.39
516.693	6.45
516.89	6.4
517.086	6.41
517.283	6.49
517.479	6.33
517.676	6.54
517.872	6.55
518.068	6.59
518.265	6.54
518.461	6.43
518.658	6.63
518.854	6.58
519.05	6.71
519.247	6.79
519.443	6.66
519.639	6.86
519.836	6.67
520.032	6.68
520.228	6.78
520.424	6.85
520.621	6.94
520.817	6.92
521.013	6.82
521.209	7.03
521.405	7.04
521.601	6.95
521.798	6.87
521.994	6.99
522.19	6.9
522.386	6.92
522.582	7.03
522.778	7.16
522.974	7.03
523.17	7.1
523.366	7.03
523.562	7.14
523.758	7.07
523.954	6.97
524.15	7.14
524.346	7.23
524.542	7.22
524.738	7.12
524.934	7.29
525.129	7.29
525.325	7.17
525.521	7.18
525.717	7.41
525.913	7.28
526.109	7.24
526.304	7.42
526.5	7.41
526.696	7.33
526.892	7.32
527.087	7.49
527.283	7.45
527.479	7.4
527.674	7.26
527.87	7.45
528.066	7.34
528.261	7.45
528.457	7.38
528.653	7.46
528.848	7.49
529.044	7.56
529.239	7.43
529.435	7.48
529.63	7.42
529.826	7.49
530.021	7.48
530.217	7.53
530.412	7.49
530.608	7.56
530.803	7.53
530.999	7.52
531.194	7.56
531.389	7.61
531.585	7.61
531.78	7.72
531.975	7.58
532.171	7.7
532.366	7.65
532.561	7.61
532.757	7.61
532.952	7.79
533.147	7.53
533.342	7.75
533.538	7.61
533.733	7.78
533.928	7.5
534.123	7.69
534.318	7.81
534.513	7.68
534.709	7.9
534.904	7.73
535.099	7.85
535.294	7.82
535.489	7.86
535.684	7.79
535.879	7.8
536.074	7.86
536.269	7.84
536.464	7.86
536.659	7.81
536.854	7.79
537.049	7.94
537.244	7.9
537.439	7.83
537.634	7.87
537.828	7.95
538.023	7.85
538.218	7.87
538.413	7.83
538.608	7.84
538.803	7.83
538.997	7.84
539.192	7.9
539.387	7.84
539.582	7.89
539.776	7.79
539.971	7.92
540.166	7.98
540.36	7.88
540.555	7.99
540.75	7.96
540.944	7.97
541.139	7.97
541.334	7.94
541.528	7.97
541.723	7.99
541.917	7.96
542.112	7.85
542.306	7.82
542.501	7.85
542.695	7.96
542.89	7.85
543.084	7.94
543.279	8.02
543.473	8.02
543.668	8.04
543.862	7.87
544.056	7.89
544.251	8.02
544.445	8.09
544.64	8.12
544.834	7.73
545.028	7.62
545.222	7.96
545.417	8.17
545.611	8.05
545.805	7.97
546	7.83
546.194	7.96
546.388	8.03
546.582	7.95
546.776	7.91
546.97	7.99
547.165	8.01
547.359	8.02
547.553	8.02
547.747	7.93
547.941	8.21
548.135	7.97
548.329	8.02
548.523	8
548.717	7.96
548.911	7.95
549.105	7.95
549.299	8.09
549.493	8.03
549.687	7.89
549.881	8.11
550.075	8.03
550.269	7.91
550.463	8.04
550.657	8.04
550.85	8.02
551.044	8
551.238	8.07
551.432	8.01
551.626	8.08
551.82	8.07
552.013	7.92
552.207	8.1
552.401	8.07
552.594	8.03
552.788	7.95
552.982	8.02
553.176	7.93
553.369	8.18
553.563	8.08
553.756	7.95
553.95	8.09
554.144	8.11
554.337	8.12
554.531	7.91
554.724	8.11
554.918	8.16
555.111	8.03
555.305	8.03
555.498	8.02
555.692	8.09
555.885	8.07
556.079	8.03
556.272	8.04
556.466	8.04
556.659	8.05
556.852	8.11
557.046	7.98
557.239	7.96
557.432	8.01
557.626	8.1
557.819	8.18
558.012	8.07
558.206	8.08
558.399	8.07
558.592	8.02
558.785	8.02
558.979	8.03
559.172	8.07
559.365	8.09
559.558	7.99
559.751	8
559.944	8.12
560.138	8
560.331	8.09
560.524	8.09
560.717	7.99
560.91	8.02
561.103	8.07
561.296	7.89
561.489	8.08
561.682	8.18
561.875	8.13
562.068	8.08
562.261	7.96
562.454	8.16
562.647	8.01
562.84	8.11
563.032	8.05
563.225	7.98
563.418	7.99
563.611	8.15
563.804	8.07
563.997	7.93
564.19	7.87
564.382	8.15
564.575	8.08
564.768	8
564.961	8.07
565.153	8
565.346	7.92
565.539	8.1
565.731	8
565.924	8.17
566.117	8.11
566.309	8.07
566.502	8.02
566.695	7.95
566.887	8.07
567.08	8.03
567.272	8.1
567.465	7.94
567.657	8.05
567.85	7.93
568.042	8.05
568.235	8.07
568.427	7.87
568.62	7.97
568.812	7.92
569.005	7.99
569.197	7.91
569.389	8.03
569.582	7.98
569.774	8
569.966	7.89
570.159	7.92
570.351	7.89
570.543	7.95
570.736	7.94
570.928	7.86
571.12	8.04
571.312	7.92
571.505	7.75
571.697	7.97
571.889	7.91
572.081	7.91
572.273	7.88
572.465	7.95
572.658	7.93
572.85	7.98
573.042	7.93
573.234	7.87
573.426	7.88
573.618	7.81
573.81	7.93
574.002	7.94
574.194	7.89
574.386	7.84
574.578	7.78
574.77	7.82
574.962	7.89
575.154	7.77
575.346	7.8
575.538	7.77
575.729	7.8
575.921	7.82
576.113	7.89
576.305	7.84
576.497	7.9
576.689	7.74
576.88	7.69
577.072	7.91
577.264	7.76
577.456	7.84
577.647	7.74
577.839	7.92
578.031	7.81
578.223	7.77
578.414	7.66
578.606	7.71
578.798	7.84
578.989	7.76
579.181	7.86
579.372	7.8
579.564	7.79
579.755	7.61
579.947	7.67
580.139	7.72
580.33	7.59
580.522	7.65
580.713	7.63
580.905	7.66
581.096	7.76
581.287	7.68
581.479	7.62
581.67	7.77
581.862	7.62
582.053	7.59
582.244	7.49
582.436	7.71
582.627	7.55
582.818	7.5
583.01	7.53
583.201	7.54
583.392	7.56
583.583	7.55
583.775	7.35
583.966	7.52
584.157	7.52
584.348	7.64
584.54	7.44
584.731	7.61
584.922	7.48
585.113	7.39
585.304	7.5
585.495	7.57
585.686	7.58
585.877	7.5
586.068	7.62
586.259	7.45
586.45	7.44
586.641	7.47
586.832	7.49
587.023	7.43
587.214	7.42
587.405	7.48
587.596	7.32
587.787	7.32
587.978	7.38
588.169	7.3
588.36	7.22
588.551	7.39
588.742	7.36
588.932	7.37
589.123	7.26
589.314	7.42
589.505	7.28
589.696	7.26
589.886	7.28
590.077	7.27
590.268	7.19
590.458	7.13
590.649	7.12
590.84	7.31
591.03	7.18
591.221	7.16
591.412	7.04
591.602	7.33
591.793	7.22
591.984	7.21
592.174	7.18
592.365	7.3
592.555	7.06
592.746	7.1
592.936	7.09
593.127	7.14
593.317	7.18
593.508	7.1
593.698	7.06
593.889	7.07
594.079	7.04
594.269	6.97
594.46	7.01
594.65	7.01
594.84	7.01
595.031	6.9
595.221	6.85
595.411	7
595.602	6.98
595.792	6.91
595.982	6.81
596.172	7.03
596.363	6.83
596.553	6.84
596.743	6.84
596.933	6.83
597.123	6.78
597.314	6.72
597.504	6.65
597.694	6.82
597.884	6.76
598.074	6.78
598.264	6.69
598.454	6.82
598.644	6.66
598.834	6.74
599.024	6.63
599.214	6.6
599.404	6.69
599.594	6.68
599.784	6.59
599.974	6.74
600.164	6.62
600.354	6.54
600.544	6.5
600.734	6.53
600.924	6.56
601.114	6.44
601.303	6.5
601.493	6.49
601.683	6.57
601.873	6.57
602.063	6.43
602.252	6.44
602.442	6.32
602.632	6.31
602.821	6.35
603.011	6.43
603.201	6.36
603.39	6.31
603.58	6.22
603.77	6.37
603.959	6.41
604.149	6.24
604.339	6.3
604.528	6.35
604.718	6.26
604.907	6.28
605.097	6.17
605.286	6.24
605.476	6.24
605.665	6.21
605.855	6.1
606.044	6.27
606.234	6.19
606.423	6.05
606.612	6.13
606.802	6.08
606.991	6.17
607.181	6.11
607.37	6.06
607.559	5.78
607.749	6.07
607.938	5.95
608.127	5.97
608.316	5.94
608.506	5.97
608.695	5.95
608.884	5.95
609.073	5.95
609.263	5.97
609.452	5.95
609.641	5.81
609.83	5.69
610.019	5.97
610.208	5.76
610.397	5.79
610.586	5.83
610.775	5.76
610.965	5.77
611.154	5.66
611.343	5.74
611.532	5.69
611.721	5.74
611.91	5.57
612.099	5.64
612.287	5.61
612.476	5.57
612.665	5.66
612.854	5.52
613.043	5.63
613.232	5.57
613.421	5.48
613.61	5.55
613.798	5.48
613.987	5.54
614.176	5.42
614.365	5.47
614.554	5.49
614.742	5.48
614.931	5.28
615.12	5.54
615.309	5.45
615.497	5.34
615.686	5.2
615.875	5.31
616.063	5.26
616.252	5.27
616.44	5.31
616.629	5.27
616.818	5.26
617.006	5.16
617.195	5.16
617.383	5.17
617.572	5.11
617.76	5.14
617.949	5.16
618.137	5.23
618.326	5.18
618.514	4.97
618.703	4.96
618.891	5.16
619.079	5.06
619.268	5.1
619.456	5.03
619.644	5.06
619.833	4.92
620.021	4.99
620.209	4.87
620.398	5
620.586	4.86
620.774	4.98
620.962	4.86
621.151	4.94
621.339	4.83
621.527	4.78
621.715	4.77
621.903	4.85
622.092	4.76
622.28	4.81
622.468	4.65
622.656	4.72
622.844	4.73
623.032	4.76
623.22	4.6
623.408	4.8
623.596	4.62
623.784	4.78
623.972	4.55
624.16	4.65
624.348	4.77
624.536	4.65
624.724	4.52
624.912	4.61
625.1	4.6
625.288	4.54
625.476	4.42
625.664	4.57
625.851	4.52
626.039	4.55
626.227	4.46
626.415	4.43
626.603	4.35
626.79	4.44
626.978	4.36
627.166	4.44
627.354	4.29
627.541	4.32
627.729	4.2
627.917	4.49
628.104	4.4
628.292	4.32
628.48	4.28
628.667	4.24
628.855	4.31
629.042	4.31
629.23	4.18
629.418	4.24
629.605	4.18
629.793	4.1
629.98	4.13
630.168	4.07
630.355	4.15
630.543	4.09
630.73	4.03
630.917	4.06
631.105	4.15
631.292	4.13
631.48	4.07
631.667	4.16
631.854	4.01
632.042	3.99
632.229	3.91
632.416	4.01
632.604	3.94
632.791	3.89
632.978	3.91
633.165	3.94
633.353	3.97
633.54	3.9
633.727	3.77
633.914	3.8
634.101	3.74
634.289	3.93
634.476	3.75
634.663	3.72
634.85	3.78
635.037	3.75
635.224	3.66
635.411	3.8
635.598	3.7
635.785	3.63
635.972	3.62
636.159	3.72
636.346	3.61
636.533	3.6
636.72	3.62
636.907	3.58
637.094	3.6
637.281	3.45
637.468	3.53
637.655	3.55
637.842	3.55
638.029	3.5
638.215	3.43
638.402	3.49
638.589	3.39
638.776	3.41
638.963	3.37
639.149	3.48
639.336	3.51
639.523	3.44
639.709	3.45
639.896	3.36
640.083	3.32
640.27	3.4
640.456	3.32
640.643	3.33
640.829	3.23
641.016	3.26
641.203	3.18
641.389	3.28
641.576	3.27
641.762	3.22
641.949	3.16
642.135	3.24
642.322	3.17
642.508	3.15
642.695	3.22
642.881	3.11
643.068	3.09
643.254	3.13
643.441	3.15
643.627	3.18
643.813	3.03
644	3.1
644.186	2.99
644.372	3.07
644.559	3.08
644.745	2.97
644.931	2.95
645.118	3.04
645.304	2.99
645.49	2.96
645.676	2.94
645.862	2.95
646.049	3.03
646.235	2.9
646.421	3.02
646.607	2.97
646.793	2.94
646.979	2.78
647.165	2.88
647.352	2.88
647.538	2.86
647.724	2.8
647.91	2.82
648.096	2.84
648.282	2.83
648.468	2.7
648.654	2.76
648.84	2.77
649.026	2.71
649.212	2.73
649.397	2.66
649.583	2.67
649.769	2.71
649.955	2.65
650.141	2.71
650.327	2.71
650.513	2.61
650.698	2.63
650.884	2.48
651.07	2.69
651.256	2.62
651.442	2.56
651.627	2.49
651.813	2.64
651.999	2.54
652.184	2.58
652.37	2.52
652.556	2.52
652.741	2.6
652.927	2.35
653.113	2.47
653.298	2.48
653.484	2.51
653.669	2.42
653.855	2.43
654.04	2.5
654.226	2.42
654.412	2.41
654.597	2.27
654.782	2.45
654.968	2.42
655.153	2.34
655.339	2.34
655.524	2.32
655.71	2.38
655.895	2.35
656.08	2.27
656.266	2.36
656.451	2.34
656.636	2.27
656.822	2.32
657.007	2.25
657.192	2.23
657.378	2.2
657.563	2.19
657.748	2.25
657.933	2.23
658.118	2.15
658.304	2.15
658.489	2.22
658.674	2.2
658.859	2.05
659.044	2.13
659.229	2.19
659.414	2.14
659.599	2.13
659.785	2.01
659.97	2.14
660.155	2.17
660.34	2.12
660.525	2.1
660.71	2.06
660.895	2.1
661.08	2.02
661.264	2.04
661.449	2.12
661.634	2.05
661.819	2.1
662.004	2
662.189	1.92
662.374	2.02
662.559	1.94
662.743	1.91
662.928	1.99
663.113	1.96
663.298	1.87
663.483	1.92
663.667	1.94
663.852	1.86
664.037	1.95
664.221	1.87
664.406	1.97
664.591	1.94
664.775	1.9
664.96	1.79
665.145	1.84
665.329	1.94
665.514	1.85
665.698	1.82
665.883	1.75
666.068	1.9
666.252	1.83
666.437	1.73
666.621	1.79
666.806	1.87
666.99	1.77
667.174	1.74
667.359	1.84
667.543	1.79
667.728	1.73
667.912	1.64
668.096	1.79
668.281	1.69
668.465	1.74
668.649	1.68
668.834	1.6
669.018	1.71
669.202	1.72
669.387	1.68
669.571	1.76
669.755	1.65
669.939	1.62
670.124	1.61
670.308	1.73
670.492	1.68
670.676	1.62
670.86	1.6
671.044	1.58
671.228	1.65
671.413	1.55
671.597	1.52
671.781	1.56
671.965	1.61
672.149	1.62
672.333	1.57
672.517	1.53
672.701	1.61
672.885	1.53
673.069	1.44
673.253	1.62
673.437	1.55
673.621	1.5
673.804	1.5
673.988	1.54
674.172	1.5
674.356	1.44
674.54	1.48
674.724	1.59
674.908	1.48
675.091	1.53
675.275	1.47
675.459	1.56
675.643	1.45
675.826	1.45
676.01	1.4
676.194	1.44
676.377	1.48
676.561	1.44
676.745	1.41
676.928	1.48
677.112	1.51
677.296	1.37
677.479	1.32
677.663	1.38
677.846	1.44
678.03	1.36
678.213	1.3
678.397	1.41
678.58	1.38
678.764	1.33
678.947	1.28
679.131	1.36
679.314	1.35
679.498	1.38
679.681	1.32
679.865	1.38
680.048	1.26
680.231	1.27
680.415	1.24
680.598	1.27
680.781	1.27
680.965	1.27
681.148	1.31
681.331	1.22
681.514	1.33
681.698	1.24
681.881	1.28
682.064	1.3
682.247	1.25
682.43	1.14
682.614	1.25
682.797	1.25
682.98	1.31
683.163	1.13
683.346	1.17
683.529	1.18
683.712	1.16
683.895	1.23
684.078	1.13
684.261	1.12
684.444	1.27
684.627	1.2
684.81	1.11
684.993	1.13
685.176	1.24
685.359	1.06
685.542	1.03
685.725	1.2
685.908	1.17
686.091	1.08
686.274	1.18
686.457	1.2
686.639	1.17
686.822	1.19
687.005	1.12
687.188	1.14
687.371	1.22
687.553	1.16
687.736	1.14
687.919	1.2
688.102	1.19
688.284	1.11
688.467	1.06
688.65	1.09
688.832	1
689.015	1.06
689.197	0.96
689.38	1.15
689.563	1.2
689.745	0.96
689.928	0.98
690.11	1.04
690.293	1.05
690.475	0.95
690.658	1.03
690.84	1
691.023	0.98
691.205	0.95
691.388	1.01
691.57	1.08
691.752	1.03
691.935	0.86
692.117	0.94
692.3	1.02
692.482	1.03
692.664	0.96
692.847	0.98
693.029	1.06
693.211	1
693.393	0.93
693.576	0.89
693.758	0.93
693.94	0.93
694.122	0.94
694.304	0.92
694.487	0.88
694.669	1.02
694.851	0.81
695.033	0.89
695.215	0.87
695.397	0.86
695.579	0.9
695.761	0.82
695.943	0.84
696.125	1.04
696.308	0.99
696.49	0.69
696.671	1.09
696.853	0.87
697.035	1.05
697.217	0.86
697.399	1.01
697.581	0.83
697.763	0.89
697.945	0.78
698.127	0.87
698.309	0.99
698.491	0.82
698.672	0.93
698.854	0.92
699.036	0.96
699.218	0.81
699.399	0.86
699.581	0.94
699.763	0.9
699.945	0.74
700.126	0.71
700.308	0.84
700.49	0.84
700.671	0.77
700.853	0.75
701.035	0.8
701.216	0.8
701.398	0.76
701.579	0.8
701.761	0.91
701.943	0.77
702.124	0.73
702.306	0.74
702.487	0.93
702.669	0.8
702.85	0.69
703.031	0.66
703.213	0.95
703.394	0.82
703.576	0.73
703.757	0.93
703.938	0.89
704.12	0.91
704.301	0.79
704.483	0.7
704.664	0.75
704.845	0.87
705.026	0.79
705.208	0.7
705.389	0.74
705.57	0.8
705.751	0.77
705.933	0.73
706.114	0.87
706.295	0.72
706.476	0.65
706.657	0.79
706.838	0.71
707.02	0.78
707.201	0.66
707.382	0.65
707.563	0.73
707.744	0.64
707.925	0.62
708.106	0.64
708.287	0.76
708.468	0.81
708.649	0.67
708.83	0.73
709.011	0.58
709.192	0.81
709.373	0.57
709.554	0.66
709.734	0.77
709.915	0.7
710.096	0.62
710.277	0.52
710.458	0.62
710.639	0.76
710.819	0.49
711	0.65
711.181	0.73
711.362	0.73
711.542	0.67
711.723	0.61
711.904	0.74
712.085	0.66
712.265	0.63
712.446	0.49
712.627	0.61
712.807	0.71
712.988	0.6
713.168	0.53
713.349	0.68
713.53	0.5
713.71	0.47
713.891	0.58
714.071	0.59
714.252	0.58
714.432	0.56
714.613	0.51
714.793	0.57
714.974	0.78
715.154	0.64
715.334	0.69
715.515	0.73
715.695	0.57
715.876	0.64
716.056	0.52
716.236	0.55
716.417	0.61
716.597	0.49
716.777	0.82
716.957	0.6
717.138	0.57
717.318	0.54
717.498	0.49
717.678	0.63
717.859	0.57
718.039	0.49
718.219	0.65
718.399	0.55
718.579	0.48
718.759	0.46
718.939	0.59
719.12	0.68
719.3	0.51
719.48	0.42
719.66	0.39
719.84	0.67
720.02	0.56
720.2	0.47
720.38	0.52
720.56	0.77
720.74	0.5
720.92	0.56
721.1	0.73
721.279	0.7
721.459	0.55
721.639	0.46
721.819	0.47
721.999	0.58
722.179	0.57
722.359	0.43
722.538	0.54
722.718	0.6
722.898	0.48
723.078	0.5
723.257	0.48
723.437	0.61
723.617	0.58
723.797	0.43
723.976	0.58
724.156	0.59
724.336	0.61
724.515	0.77
724.695	0.46
724.874	0.51
725.054	0.52
725.234	0.45
725.413	0.57
725.593	0.49
725.772	0.53
725.952	0.55
726.131	0.52
726.311	0.51
726.49	0.54
726.67	0.34
726.849	0.47
727.028	0.59
727.208	0.46
727.387	0.5
727.567	0.41
727.746	0.41
727.925	0.49
728.105	0.38
728.284	0.47
728.463	0.49
728.643	0.62
728.822	0.34
729.001	0.48
729.18	0.46
729.359	0.59
729.539	0.55
729.718	0.46
729.897	0.57
730.076	0.45
730.255	0.37
730.434	0.47
730.614	0.56
730.793	0.62
730.972	0.36
731.151	0.48
731.33	0.61
731.509	0.51
731.688	0.57
731.867	0.47
732.046	0.26
732.225	0.69
732.404	0.4
732.583	0.31
732.762	0.49
732.941	0.55
733.12	0.48
733.298	0.44
733.477	0.56
733.656	0.48
733.835	0.44
734.014	0.59
734.193	0.47
734.371	0.59
734.55	0.52
734.729	0.31
734.908	0.43
735.086	0.48
735.265	0.56
735.444	0.36
735.623	0.37
735.801	0.36
735.98	0.39
736.159	0.44
736.337	0.59
736.516	0.57
736.694	0.56
736.873	0.48
737.052	0.8
737.23	0.57
737.409	0.45
737.587	0.77
737.766	0.25
737.944	0.5
738.123	0.54
738.301	0.54
738.479	0.46
738.658	0.49
738.836	0.38
739.015	0.39
739.193	0.65
739.371	0.42
739.55	0.51
739.728	0.29
739.906	0.64
740.085	0.69
740.263	0.49
740.441	0.18
740.62	0.82
740.798	0.64
740.976	0.3
741.154	0.3
741.332	0.72
741.511	0.4
741.689	0.48
741.867	0.54
742.045	0.5
742.223	0.36
742.401	0.43
742.579	0.43
742.757	0.66
742.935	0.3
743.114	0.36
743.292	0.4
743.47	0.41
743.648	0.55
743.826	0.37
744.004	0.6
744.181	0.54
744.359	0.35
744.537	0.49
744.715	0.47
744.893	0.48
745.071	0.47
745.249	0.5
745.427	0.35
745.605	0.57
745.782	0.46
745.96	0.42
746.138	0.69
746.316	0.59
746.493	0.38
746.671	0.43
746.849	0.29
747.027	0.64
747.204	0.33
747.382	0.53
747.56	0.33
747.737	0.32
747.915	0.35
748.093	0.59
748.27	0.34
748.448	0.41
748.625	0.26
748.803	0.35
748.98	0.23
749.158	0.47
749.335	0.62
749.513	0.43
749.69	0.37
749.868	0.44
750.045	0.42
750.223	0.33
750.4	0.04
750.578	0.5
750.755	0.46
750.932	0.19
751.11	0.53
751.287	0.25
751.464	0.67
751.642	0.19
751.819	0.42
751.996	0.46
752.173	0.36
752.351	0.27
752.528	0.35
752.705	0.3
752.882	0.22
753.06	0.35
753.237	0.27
753.414	0.58
753.591	0.69
753.768	0.37
753.945	0.35
754.122	0.28
754.299	0.54
754.476	0.28
754.654	0.33
754.831	0.48
755.008	0.42
755.185	0.34
755.362	0.25
755.539	0.46
755.716	0.36
755.892	0.33
756.069	0.33
756.246	0.43
756.423	0.44
756.6	0.53
756.777	0.31
756.954	0.51
757.131	0.32
757.307	0.23
757.484	0.26
757.661	0.37
757.838	0.49
758.015	0.26
758.191	0.42
758.368	0.46
758.545	0.52
758.721	0.45
758.898	0.23
759.075	0.39
759.251	0.4
759.428	0.37
759.605	0.24
759.781	0.35
759.958	0.48
760.134	0.46
760.311	0.35
760.488	0.53
760.664	0.59
760.841	0.33
761.017	0.3
761.194	0.5
761.37	0.42
761.547	0.37
761.723	0.31
761.899	0.56
762.076	0.28
762.252	0.3
762.429	0.24
762.605	0.52
762.781	0.3
762.958	0.32
763.134	0.21
763.31	0.28
763.486	0.42
763.663	0.05
763.839	0.37
764.015	0.09
764.191	0.37
764.368	0.32
764.544	0.25
764.72	0.36
764.896	0.47
765.072	0.35
765.248	0.34
765.425	0.26
765.601	0.34
765.777	0.33
765.953	0.05
766.129	0.22
766.305	0.32
766.481	0.49
766.657	0.4
766.833	0.55
767.009	0.24
767.185	0.29
767.361	0.24
767.537	0.29
767.713	0.52
767.889	0.31
768.065	0.44
768.24	0.44
768.416	0.6
768.592	0.4
768.768	0.33
768.944	0.41
769.12	0.14
769.295	0.28
769.471	0.35
769.647	0.39
769.823	0.53
769.998	0.21
770.174	0.31
770.35	0.75
770.525	0.65
770.701	0.4
770.877	0.35
771.052	0.29
771.228	0.52
771.403	0.29
771.579	0.54
771.755	0.79
771.93	0.43
772.106	0.17
772.281	0.05
772.457	0.39
772.632	0.4
772.808	0.16
772.983	0.28
773.159	0.18
773.334	0.67
773.509	0.44
773.685	0.29
773.86	0.87
774.036	0.71
774.211	0.47
774.386	0.38
774.562	0.35
774.737	0.49
774.912	0.23
775.087	0.41
775.263	0.3
775.438	0.3
775.613	0.23
775.788	0.3
775.964	0.41
776.139	1.02
776.314	0.14
776.489	0.34
776.664	0.36
776.839	0.24
777.014	0.55
777.19	0.62
777.365	0.72
777.54	0.69
777.715	0.26
777.89	0.25
778.065	0.16
778.24	0.34
778.415	0.47
778.59	0.15
778.765	0.33
778.94	0.63
779.115	0.29
779.289	0.44
779.464	0.39
779.639	0.32
779.814	0.07
779.989	0.01
780.164	0.58
780.339	0.49
780.513	0.29
780.688	0.19
780.863	0.39
781.038	0.62
781.212	0.18
781.387	0.39
781.562	0.63
781.737	0.29
781.911	0.61
782.086	0.24
782.261	0.48
782.435	0.81
782.61	0.38
782.784	0.3
782.959	0.66
783.134	0.41
783.308	0.09
783.483	0.33
783.657	0.9
783.832	0.6
784.006	-0.03
784.181	0.19
784.355	0.62
784.53	0.33
784.704	-0.05
784.878	0.66
785.053	0.55
785.227	0.73
785.402	0.59
785.576	0.37
785.75	0.42
785.925	0.45
786.099	0.47
786.273	0.37
786.448	0.55
786.622	0.52
786.796	0.34
786.97	0.19
787.145	1.21
787.319	0.03
787.493	0.25
787.667	-0.06
787.841	0.58
788.015	0.73
788.19	0.29
788.364	0.32
788.538	0.66
788.712	0.53
788.886	0.46
789.06	0.64
789.234	0.7
789.408	0.24
789.582	0.19
789.756	0.34
789.93	0.13
790.104	0.42
790.278	0.4
790.452	0.26
790.626	0.48
790.8	0.32
790.973	0.62
791.147	1.1
791.321	0.98
791.495	0.79
791.669	0.37
791.843	0.68
792.016	0.43
792.19	1.05
792.364	0.34
792.538	0.89
792.711	0.72
792.885	0.39
793.059	0.1
793.233	-0.14
793.406	0.63
793.58	0.36
793.754	0.58
793.927	0.3
794.101	0.62
794.274	0.54
794.448	0.67
794.622	-0.01
794.795	1.01
794.969	0.47
795.142	0.75
795.316	0.31
795.489	0.41
795.663	1.06
795.836	0.4
796.009	-0.01
796.183	0.78
796.356	0.56
796.53	0.53
796.703	0.47
796.876	1.17
797.05	0.41
797.223	0.27
797.396	0.42
797.57	0.68
797.743	0.91
797.916	0.53
798.09	0.34
798.263	0.79
798.436	0.72
798.609	0.33
798.782	0.07
798.956	0.55
799.129	0.62
799.302	0.26
799.475	0.31
799.648	0.28
799.821	0.35
799.994	0.39
800.167	0.04
800.34	0.3
800.514	0.26
800.687	0.28
800.86	0.37
801.033	0.58
801.206	0.43
801.379	0.3
801.551	0.75
801.724	0.8
801.897	1.07
802.07	0.41
802.243	-0.19
802.416	0.36
802.589	0.62
802.762	0.67
802.935	0.35
803.107	0.81
803.28	0.88
803.453	0.81
803.626	0.29
803.798	0.55
803.971	0.42
804.144	0.67
804.317	0.15
804.489	1.03
804.662	0.46
804.835	0.54
805.007	0.07
805.18	1.3
805.353	0.71
805.525	0.11
805.698	0.21
805.87	0.94
806.043	0.96
806.215	0.05
806.388	-0.08
806.56	0.6
806.733	1.02
806.905	0.71
807.078	0.66
807.25	0.4
807.423	0.88
807.595	0.37
807.768	0.67
807.94	0.98
808.112	1.08
808.285	0.53
808.457	0.18
808.629	0.52
808.802	0.68
808.974	0.81
809.146	0.21
809.318	0.41
809.491	0.74
809.663	0.82
809.835	0.52
810.007	0.63
810.18	0.82
810.352	0.09
810.524	0.23
810.696	0.84
810.868	0.95
811.04	0.22
811.212	0.49
811.384	0.82
811.556	0.53
811.728	0.6
811.901	1.43
812.073	0.5
812.245	1.3
812.417	0.33
812.589	-0.05
812.76	0.62
812.932	0.85
813.104	0.8
813.276	0.26
813.448	1.1
813.62	0.55
813.792	0.45
813.964	0.41
814.136	0.98
814.307	0.5
814.479	0.25
814.651	0.46
814.823	1.66
814.995	0.42
815.166	0.67
815.338	0.19
815.51	-0.15
815.681	1.66
815.853	0.91
816.025	0.41
816.196	1.85
816.368	1
816.54	0.02
816.711	0.09
816.883	1.1
817.054	1.49
817.226	0.03
817.398	1.03
817.569	0.51
817.741	1.07
817.912	0.36
818.084	0.37
818.255	1.38
818.426	0.45
818.598	0.48
818.769	-0.08
818.941	0.7
819.112	1.62
819.283	0.64
819.455	-0.31
819.626	0.5
819.798	1.3
819.969	0.88
820.14	0.18
820.311	0.27
820.483	1.12
820.654	1
820.825	0.3
820.996	0.47
821.168	0.06
821.339	0.89
821.51	-0.19
821.681	0.57
821.852	0.75
822.023	0.2
822.195	0.3
822.366	1.39
822.537	0.86
822.708	0.38
822.879	0.38
823.05	1.54
823.221	0.35
823.392	1.17
823.563	0.79
823.734	0.34
823.905	1.03
824.076	0.05
824.247	0.36
824.418	0.83
824.589	1.58
824.759	0.89
824.93	0.6
825.101	0.09
825.272	1.45
825.443	0.9
825.614	1.78
825.784	-0.41
825.955	2.4
826.126	1.27
826.297	0.13
826.467	1.42
826.638	2.42
826.809	0.76
826.98	0.82
827.15	1.46
827.321	0.41
827.492	1.83
827.662	0.85
827.833	2.19
828.003	1.3
828.174	-0.51
828.345	0.37
828.515	1.44
828.686	0.97
828.856	0.48
829.027	0.92
829.197	1.89
829.368	1.08
829.538	0.31
829.709	0.46
829.879	1.03
830.049	0.99
830.22	0.45
830.39	0.66
830.56	1.44
830.731	1.15
830.901	0.06
831.072	0.77
831.242	1.12
831.412	1.25
831.582	0.68
831.753	-0.64
831.923	1.64
832.093	1.34
832.263	0.75
832.434	0.49
832.604	0.36
832.774	1.56
832.944	0.47
833.114	0.29
833.284	1.04
833.454	0.2
833.624	0.21
833.795	0.05
833.965	1.41
834.135	2.03
834.305	-0.7
834.475	-0.49
834.645	1.28
834.815	0.65
834.985	0.05
835.155	0.04
835.325	1.9
835.494	1.71
835.664	0.23
835.834	-0.06
836.004	1.05
836.174	1.2
836.344	0.43
836.514	-0.21
836.684	0.44
836.853	1.35
837.023	1.47
837.193	0.41
837.363	1.68
837.532	2.11
837.702	0.43
837.872	-0.2
838.041	1.8
838.211	2.94
838.381	0.36
838.55	0.71
838.72	3.76
838.89	1.92
839.059	0.5
839.229	0.41
839.398	3.97
839.568	1.4
839.738	0.58
839.907	2.04
840.077	1.2
840.246	0.46
840.416	0.44
840.585	0.12
840.755	2.55
840.924	1.85
841.093	-0.34
841.263	-0.13
841.432	1.07
841.602	1.02
841.771	0.66
841.94	1.28
842.11	4.04
842.279	2.72
842.448	0.28
842.617	0.25
842.787	2.62
842.956	0.51
843.125	0.57
843.294	1.04
843.464	2.42
843.633	1.24
843.802	0.05
843.971	0.36
844.14	1.8
844.309	2.05
844.479	-1.2
844.648	-0.2
844.817	0.83
844.986	1.2
845.155	0.81
845.324	0.44
845.493	1.15
845.662	0.32
845.831	2.05
846	1.78
846.169	1.96
846.338	2.43
846.507	1.89
846.676	0.61
846.844	1.06
847.013	2.37
847.182	1.02
847.351	0.19
847.52	1.54
847.689	1.79
847.858	1.23
848.026	1.05
848.195	1.83
848.364	0.09
848.533	0.03
848.701	0.12
848.87	1.4
849.039	3.14
849.207	1.25
849.376	2.58
849.545	2.95
849.713	0.7
849.882	1.13
850.051	0.46
850.219	0.97
850.388	1.82
850.556	-0.21
850.725	0.4
850.893	1.46
851.062	1.01
851.23	1.42
851.399	-0.46
851.567	1.61
851.736	1.58
851.904	-0.75
852.073	1.16
852.241	1.79
852.41	1.65
852.578	0.74
852.746	-0.39
852.915	1.37
853.083	1.79
853.251	-0.39
853.42	1.29
853.588	1.33
853.756	2.86
853.924	1.56
854.093	0.65
854.261	0.8
854.429	0.26
854.597	0.63
854.765	0.06
854.934	2.75
855.102	2.96
855.27	1.91
855.438	2.49
855.606	3.37
855.774	3.39
855.942	-1.46
856.11	-0.09
856.278	2.26
856.446	3.51
856.614	0.62
856.782	-0.27
856.95	2.63
857.118	1.51
857.286	1.37
857.454	0.17
857.622	2.67
857.79	3.2
857.958	-0.74
858.126	-0.15
858.294	-1.63
858.462	0.94
858.629	0.81
858.797	0.91
858.965	2.68
859.133	2.14
859.301	0.6
859.468	0.38
859.636	1.16
859.804	3.8
859.971	2.61
860.139	1.22
860.307	2.19
860.474	3.3
860.642	0.29
860.81	0.52
860.977	1.36
861.145	3.24
861.313	0.99
861.48	1.21
861.648	2.93
861.815	1.26
861.983	-0.53
862.15	0.62
862.318	2.43
862.485	3.96
862.653	0.06
862.82	0.18
862.988	4.02
863.155	2.37
863.322	0.36
863.49	-0.56
863.657	1.01
863.824	4.8
863.992	1.06
864.159	1.7
864.326	2.52
864.494	0.01
864.661	3.8
864.828	-0.38
864.996	3.97
865.163	4.53
865.33	0.1
865.497	-1.92
865.664	-0.96
865.832	-0.45
865.999	1.3
866.166	0.1
866.333	1.46
866.5	1.39
866.667	-0.42
866.834	1.5
867.001	5.11
867.168	-1.22
867.335	2
867.502	-2.16
867.669	1.9
867.836	6.65
868.003	1.23
868.17	3.93
868.337	5.65
868.504	5.67
868.671	-0.17
868.838	1.89
869.005	3.43
869.172	3.21
869.339	1.66
869.505	0.88
869.672	1.88
869.839	4.75
870.006	2.44
870.173	-0.03
870.339	3.23
870.506	6.28
870.673	-0.41
870.84	2.24
871.006	2.14
871.173	0.21
871.34	1.95
871.506	-0.1
871.673	2.22
871.839	1.11
872.006	2.4
872.173	0.2
872.339	2.98
872.506	4.5
872.672	0.51
872.839	-1.42
873.005	3.13
873.172	5.73
873.338	2.65
873.505	3.62
873.671	2.24
873.838	4.93
874.004	-1.48
874.171	-0.74
874.337	2.84
874.503	2.97
874.67	1.67
874.836	0.53
875.002	4.94
875.169	3.07
875.335	1.43
875.501	1.19
875.668	3.4
875.834	1.5
876	2.43
876.166	3.66
876.332	2.71
876.499	6.49
876.665	1.67
876.831	2.03
876.997	5.6
877.163	3.12
877.329	2.91
877.495	2.49
877.662	3.39
877.828	2.71
877.994	3.04
878.16	-3.51
878.326	2.4
878.492	3.87
878.658	2.35
878.824	1.26
878.99	1.47
879.156	1.3
879.322	2.24
879.487	0.65
879.653	2.48
879.819	1.15
879.985	0.96
880.151	3.04
880.317	3.34
880.483	1.42
880.648	2.43
880.814	-1.61
880.98	3.64
881.146	-2.93
881.312	0.95
881.477	0.43
881.643	1.18
881.809	4.76
881.974	4.29
882.14	-1.02
882.306	4.95
882.471	5.24
882.637	0.37
882.803	2.12
882.968	5.8
883.134	7.14
883.299	3.31
883.465	1.34
883.63	4.31
883.796	4.73
883.961	3.48
884.127	3.27
884.292	-2.51
884.458	0.31
884.623	0.31
