Data from Apollo_Calib_20240827__AbsoluteIrradiance__790__12-19-00-561.txt Node

Date: Wed Aug 28 12:19:00 BST 2024
User: biology
Spectrometer: FLMT08252
Trigger mode: 0
Integration Time (sec): 5.000000E-1
Scans to average: 5
Electric dark correction enabled: true
Nonlinearity correction enabled: false
Boxcar width: 0
XAxis mode: Wavelengths
Number of Pixels in Spectrum: 3648
>>>>>Begin Spectral Data<<<<<
179.588	-0
179.809	-0
180.03	-0
180.251	-0
180.473	-0
180.694	0
180.915	0
181.136	-0
181.357	0
181.578	-0
181.799	0
182.02	-0
182.241	-0
182.462	-0
182.683	0
182.904	-0
183.125	-0
183.346	0
183.567	0
183.788	0
184.009	0
184.23	0
184.451	0
184.672	0
184.892	0
185.113	0
185.334	0
185.555	0
185.776	0
185.996	0
186.217	0
186.438	0
186.659	0
186.879	0
187.1	0
187.321	0
187.541	0
187.762	0
187.983	0
188.203	0
188.424	0
188.644	0
188.865	0
189.086	0
189.306	0
189.527	0
189.747	0
189.968	0
190.188	0
190.409	0
190.629	0
190.849	0
191.07	0
191.29	0
191.511	0
191.731	0
191.951	0
192.172	0
192.392	0
192.612	0
192.833	0
193.053	0
193.273	0
193.493	0
193.714	0
193.934	0
194.154	0
194.374	0
194.594	0
194.815	0
195.035	0
195.255	0
195.475	0
195.695	0
195.915	0
196.135	0
196.355	0
196.575	0
196.795	0
197.015	0
197.235	0
197.455	0
197.675	0
197.895	0
198.115	0
198.335	0
198.555	0
198.775	0
198.995	0
199.214	0
199.434	0
199.654	0
199.874	0
200.094	4.49
200.313	2.54
200.533	2.13
200.753	1.51
200.973	3.68
201.192	3.35
201.412	1.21
201.632	1.46
201.851	3.35
202.071	1.41
202.291	1.83
202.51	1.82
202.73	2.48
202.95	1.93
203.169	1.43
203.389	1.99
203.608	1.58
203.828	1.42
204.047	1.13
204.267	2.39
204.486	2.23
204.706	2.48
204.925	1.74
205.145	1.6
205.364	2.01
205.583	2.51
205.803	1.31
206.022	1
206.242	1.51
206.461	1.31
206.68	1.26
206.9	1.48
207.119	2.29
207.338	2.18
207.557	1.24
207.777	1.26
207.996	1.2
208.215	1.92
208.434	1.03
208.654	0.82
208.873	1.5
209.092	1.94
209.311	1.3
209.53	0.93
209.749	1.09
209.968	1.02
210.187	1.1
210.407	0.81
210.626	0.97
210.845	1.35
211.064	1.2
211.283	1.02
211.502	1.44
211.721	1.19
211.94	1.08
212.159	1.18
212.377	1.31
212.596	1.57
212.815	0.99
213.034	1.15
213.253	1.4
213.472	1.26
213.691	0.86
213.91	0.46
214.128	0.73
214.347	1.51
214.566	0.41
214.785	0.4
215.003	1.01
215.222	1.11
215.441	0.85
215.66	0.42
215.878	0.9
216.097	1.28
216.316	0.7
216.534	0.82
216.753	1
216.972	0.8
217.19	0.95
217.409	0.75
217.627	0.76
217.846	0.83
218.064	0.96
218.283	0.61
218.501	1.52
218.72	1.3
218.938	0.55
219.157	0.61
219.375	0.98
219.594	1.05
219.812	0.52
220.031	0.45
220.249	1.28
220.467	1.05
220.686	0.6
220.904	0.44
221.122	0.73
221.341	1.13
221.559	0.75
221.777	0.42
221.995	0.76
222.214	0.99
222.432	0.67
222.65	0.7
222.868	0.86
223.086	0.88
223.305	0.86
223.523	0.62
223.741	1.16
223.959	0.56
224.177	0.35
224.395	0.44
224.613	0.78
224.831	0.96
225.049	0.34
225.267	0.59
225.485	0.77
225.703	0.54
225.921	0.59
226.139	0.52
226.357	0.79
226.575	0.75
226.793	0.56
227.011	1.4
227.229	0.71
227.447	0.98
227.665	0.37
227.883	0.33
228.1	0.5
228.318	0.76
228.536	0.34
228.754	0.4
228.972	0.73
229.189	0.82
229.407	0.53
229.625	0.51
229.843	0.79
230.06	0.77
230.278	0.56
230.496	0.55
230.713	0.66
230.931	0.82
231.149	0.46
231.366	0.33
231.584	0.65
231.801	1.04
232.019	0.47
232.236	0.38
232.454	0.52
232.671	0.63
232.889	0.44
233.106	0.18
233.324	0.58
233.541	0.63
233.759	0.44
233.976	0.28
234.194	0.52
234.411	0.55
234.628	0.38
234.846	0.39
235.063	0.48
235.28	0.59
235.498	0.45
235.715	0.47
235.932	0.85
236.149	0.54
236.367	0.41
236.584	0.47
236.801	0.51
237.018	0.61
237.236	0.52
237.453	0.26
237.67	0.7
237.887	0.46
238.104	0.51
238.321	0.34
238.538	0.3
238.755	0.59
238.973	0.32
239.19	0.58
239.407	0.57
239.624	0.42
239.841	0.38
240.058	0.43
240.275	0.48
240.492	0.43
240.709	0.52
240.925	0.46
241.142	0.51
241.359	0.42
241.576	0.36
241.793	0.36
242.01	0.44
242.227	0.65
242.444	0.44
242.66	0.61
242.877	0.58
243.094	0.38
243.311	0.45
243.527	0.44
243.744	0.52
243.961	0.53
244.178	0.39
244.394	0.4
244.611	0.55
244.828	0.62
245.044	0.32
245.261	0.44
245.477	0.57
245.694	0.55
245.911	0.3
246.127	0.53
246.344	0.6
246.56	0.57
246.777	0.36
246.993	0.41
247.21	0.51
247.426	0.52
247.643	0.37
247.859	0.32
248.076	0.35
248.292	0.68
248.508	0.31
248.725	0.49
248.941	0.51
249.157	0.57
249.374	0.28
249.59	0.33
249.806	0.43
250.023	0.47
250.239	0.36
250.455	0.3
250.671	0.4
250.888	0.41
251.104	0.49
251.32	0.31
251.536	0.36
251.752	0.4
251.969	0.38
252.185	0.37
252.401	0.69
252.617	0.48
252.833	0.28
253.049	0.34
253.265	0.41
253.481	0.4
253.697	0.33
253.913	0.39
254.129	0.46
254.345	0.41
254.561	0.34
254.777	0.35
254.993	0.45
255.209	0.37
255.425	0.35
255.641	0.3
255.857	0.53
256.073	0.41
256.288	0.23
256.504	0.31
256.72	0.44
256.936	0.63
257.152	0.33
257.367	0.29
257.583	0.34
257.799	0.47
258.015	0.32
258.23	0.31
258.446	0.57
258.662	0.38
258.877	0.23
259.093	0.28
259.309	0.43
259.524	0.43
259.74	0.29
259.955	0.24
260.171	0.47
260.387	0.38
260.602	0.42
260.818	0.37
261.033	0.22
261.249	0.38
261.464	0.32
261.68	0.28
261.895	0.46
262.11	0.44
262.326	0.37
262.541	0.21
262.757	0.47
262.972	0.48
263.187	0.4
263.403	0.32
263.618	0.38
263.833	0.4
264.049	0.32
264.264	0.28
264.479	0.44
264.694	0.51
264.91	0.29
265.125	0.26
265.34	0.42
265.555	0.51
265.77	0.36
265.986	0.28
266.201	0.4
266.416	0.49
266.631	0.33
266.846	0.35
267.061	0.43
267.276	0.43
267.491	0.23
267.706	0.39
267.921	0.39
268.136	0.32
268.351	0.31
268.566	0.28
268.781	0.48
268.996	0.42
269.211	0.27
269.426	0.27
269.641	0.29
269.856	0.45
270.071	0.24
270.285	0.21
270.5	0.41
270.715	0.45
270.93	0.36
271.145	0.35
271.359	0.47
271.574	0.33
271.789	0.27
272.004	0.31
272.218	0.25
272.433	0.39
272.648	0.25
272.862	0.42
273.077	0.37
273.292	0.38
273.506	0.24
273.721	0.21
273.936	0.37
274.15	0.41
274.365	0.21
274.579	0.36
274.794	0.3
275.008	0.47
275.223	0.17
275.437	0.3
275.652	0.4
275.866	0.38
276.081	0.31
276.295	0.36
276.509	0.37
276.724	0.33
276.938	0.33
277.153	0.39
277.367	0.35
277.581	0.32
277.796	0.28
278.01	0.24
278.224	0.39
278.438	0.49
278.653	0.29
278.867	0.23
279.081	0.11
279.295	0.32
279.51	0.32
279.724	0.16
279.938	0.36
280.152	0.36
280.366	0.23
280.58	0.28
280.794	0.39
281.008	0.34
281.222	0.37
281.437	0.48
281.651	0.41
281.865	0.38
282.079	0.27
282.293	0.2
282.507	0.24
282.721	0.32
282.935	0.31
283.148	0.21
283.362	0.24
283.576	0.22
283.79	0.31
284.004	0.26
284.218	0.37
284.432	0.27
284.646	0.3
284.859	0.23
285.073	0.28
285.287	0.29
285.501	0.31
285.714	0.27
285.928	0.35
286.142	0.27
286.356	0.21
286.569	0.24
286.783	0.4
286.997	0.36
287.21	0.32
287.424	0.29
287.637	0.31
287.851	0.28
288.065	0.33
288.278	0.27
288.492	0.29
288.705	0.26
288.919	0.29
289.132	0.26
289.346	0.27
289.559	0.2
289.773	0.25
289.986	0.25
290.2	0.28
290.413	0.37
290.626	0.22
290.84	0.21
291.053	0.3
291.267	0.35
291.48	0.25
291.693	0.26
291.906	0.25
292.12	0.27
292.333	0.25
292.546	0.2
292.76	0.34
292.973	0.3
293.186	0.3
293.399	0.23
293.612	0.34
293.826	0.24
294.039	0.28
294.252	0.26
294.465	0.33
294.678	0.26
294.891	0.27
295.104	0.21
295.317	0.28
295.53	0.29
295.743	0.28
295.956	0.26
296.169	0.42
296.382	0.3
296.595	0.26
296.808	0.18
297.021	0.32
297.234	0.36
297.447	0.27
297.66	0.29
297.873	0.34
298.086	0.33
298.299	0.2
298.511	0.19
298.724	0.24
298.937	0.23
299.15	0.19
299.363	0.22
299.575	0.3
299.788	0.32
300.001	0.25
300.213	0.21
300.426	0.24
300.639	0.27
300.852	0.24
301.064	0.31
301.277	0.35
301.489	0.33
301.702	0.3
301.915	0.28
302.127	0.24
302.34	0.28
302.552	0.3
302.765	0.21
302.977	0.32
303.19	0.22
303.402	0.21
303.615	0.24
303.827	0.27
304.04	0.25
304.252	0.27
304.464	0.21
304.677	0.38
304.889	0.26
305.102	0.22
305.314	0.24
305.526	0.29
305.739	0.3
305.951	0.23
306.163	0.25
306.375	0.33
306.588	0.24
306.8	0.24
307.012	0.18
307.224	0.25
307.436	0.3
307.649	0.19
307.861	0.27
308.073	0.3
308.285	0.25
308.497	0.17
308.709	0.2
308.921	0.26
309.133	0.32
309.346	0.25
309.558	0.25
309.77	0.29
309.982	0.32
310.194	0.32
310.406	0.18
310.617	0.34
310.829	0.32
311.041	0.26
311.253	0.21
311.465	0.26
311.677	0.29
311.889	0.25
312.101	0.2
312.313	0.29
312.524	0.35
312.736	0.15
312.948	0.21
313.16	0.34
313.372	0.34
313.583	0.29
313.795	0.24
314.007	0.23
314.218	0.28
314.43	0.24
314.642	0.28
314.853	0.15
315.065	0.33
315.277	0.22
315.488	0.24
315.7	0.33
315.912	0.27
316.123	0.25
316.335	0.23
316.546	0.37
316.758	0.25
316.969	0.22
317.181	0.26
317.392	0.27
317.604	0.36
317.815	0.23
318.026	0.19
318.238	0.24
318.449	0.28
318.661	0.14
318.872	0.2
319.083	0.26
319.295	0.24
319.506	0.2
319.717	0.26
319.929	0.27
320.14	0.31
320.351	0.24
320.562	0.21
320.774	0.29
320.985	0.28
321.196	0.2
321.407	0.17
321.618	0.32
321.829	0.26
322.041	0.32
322.252	0.23
322.463	0.3
322.674	0.27
322.885	0.19
323.096	0.24
323.307	0.28
323.518	0.28
323.729	0.25
323.94	0.2
324.151	0.24
324.362	0.28
324.573	0.27
324.784	0.22
324.995	0.31
325.206	0.3
325.417	0.21
325.628	0.21
325.838	0.28
326.049	0.28
326.26	0.33
326.471	0.22
326.682	0.27
326.892	0.28
327.103	0.22
327.314	0.22
327.525	0.32
327.735	0.23
327.946	0.21
328.157	0.17
328.368	0.29
328.578	0.28
328.789	0.32
328.999	0.29
329.21	0.25
329.421	0.33
329.631	0.22
329.842	0.19
330.052	0.26
330.263	0.3
330.473	0.3
330.684	0.2
330.894	0.28
331.105	0.27
331.315	0.27
331.526	0.17
331.736	0.33
331.947	0.32
332.157	0.28
332.367	0.17
332.578	0.29
332.788	0.35
332.999	0.3
333.209	0.24
333.419	0.21
333.629	0.26
333.84	0.27
334.05	0.27
334.26	0.31
334.47	0.28
334.681	0.3
334.891	0.21
335.101	0.3
335.311	0.36
335.521	0.23
335.732	0.24
335.942	0.34
336.152	0.25
336.362	0.27
336.572	0.25
336.782	0.26
336.992	0.26
337.202	0.27
337.412	0.18
337.622	0.29
337.832	0.25
338.042	0.27
338.252	0.22
338.462	0.25
338.672	0.27
338.882	0.25
339.092	0.27
339.302	0.32
339.511	0.29
339.721	0.21
339.931	0.2
340.141	0.37
340.351	0.36
340.561	0.26
340.77	0.25
340.98	0.28
341.19	0.27
341.4	0.25
341.609	0.18
341.819	0.22
342.029	0.2
342.238	0.27
342.448	0.22
342.658	0.27
342.867	0.23
343.077	0.24
343.286	0.25
343.496	0.27
343.706	0.3
343.915	0.2
344.125	0.22
344.334	0.28
344.544	0.19
344.753	0.2
344.963	0.23
345.172	0.22
345.381	0.21
345.591	0.2
345.8	0.26
346.01	0.29
346.219	0.36
346.428	0.12
346.638	0.22
346.847	0.28
347.056	0.36
347.266	0.24
347.475	0.22
347.684	0.3
347.893	0.29
348.103	0.23
348.312	0.22
348.521	0.24
348.73	0.27
348.94	0.23
349.149	0.22
349.358	0.23
349.567	0.21
349.776	0.18
349.985	0.21
350.194	0.27
350.403	0.32
350.612	0.18
350.821	0.23
351.03	0.2
351.239	0.15
351.448	0.27
351.657	0.17
351.866	0.36
352.075	0.23
352.284	0.23
352.493	0.18
352.702	0.29
352.911	0.25
353.12	0.23
353.329	0.24
353.538	0.24
353.746	0.27
353.955	0.12
354.164	0.24
354.373	0.24
354.582	0.3
354.79	0.26
354.999	0.28
355.208	0.23
355.416	0.32
355.625	0.2
355.834	0.25
356.042	0.29
356.251	0.19
356.46	0.18
356.668	0.26
356.877	0.35
357.085	0.28
357.294	0.14
357.503	0.23
357.711	0.25
357.92	0.4
358.128	0.24
358.337	0.24
358.545	0.29
358.754	0.2
358.962	0.3
359.17	0.24
359.379	0.26
359.587	0.21
359.796	0.18
360.004	0.31
360.212	0.27
360.421	0.32
360.629	0.3
360.837	0.21
361.046	0.27
361.254	0.41
361.462	0.25
361.67	0.19
361.879	0.31
362.087	0.33
362.295	0.27
362.503	0.23
362.711	0.23
362.92	0.19
363.128	0.22
363.336	0.2
363.544	0.18
363.752	0.28
363.96	0.22
364.168	0.25
364.376	0.28
364.584	0.31
364.792	0.29
365	0.26
365.208	0.23
365.416	0.24
365.624	0.3
365.832	0.2
366.04	0.32
366.248	0.24
366.456	0.26
366.664	0.27
366.872	0.22
367.079	0.25
367.287	0.23
367.495	0.26
367.703	0.24
367.911	0.23
368.118	0.24
368.326	0.21
368.534	0.19
368.742	0.29
368.949	0.18
369.157	0.19
369.365	0.29
369.572	0.21
369.78	0.2
369.988	0.27
370.195	0.28
370.403	0.32
370.61	0.22
370.818	0.26
371.026	0.35
371.233	0.28
371.441	0.28
371.648	0.22
371.856	0.24
372.063	0.28
372.271	0.24
372.478	0.23
372.685	0.23
372.893	0.28
373.1	0.24
373.308	0.23
373.515	0.36
373.722	0.32
373.93	0.22
374.137	0.28
374.344	0.3
374.552	0.29
374.759	0.25
374.966	0.25
375.173	0.23
375.381	0.31
375.588	0.26
375.795	0.18
376.002	0.23
376.209	0.24
376.417	0.22
376.624	0.25
376.831	0.32
377.038	0.22
377.245	0.14
377.452	0.26
377.659	0.26
377.866	0.21
378.073	0.26
378.28	0.23
378.487	0.28
378.694	0.31
378.901	0.27
379.108	0.21
379.315	0.34
379.522	0.41
379.729	0.26
379.936	0.2
380.143	0.22
380.35	0.31
380.557	0.25
380.763	0.29
380.97	0.25
381.177	0.3
381.384	0.28
381.591	0.21
381.797	0.26
382.004	0.34
382.211	0.3
382.418	0.25
382.624	0.28
382.831	0.28
383.038	0.27
383.244	0.32
383.451	0.27
383.658	0.29
383.864	0.23
384.071	0.21
384.277	0.36
384.484	0.26
384.69	0.32
384.897	0.24
385.103	0.27
385.31	0.24
385.516	0.28
385.723	0.2
385.929	0.29
386.136	0.23
386.342	0.29
386.549	0.27
386.755	0.34
386.961	0.29
387.168	0.26
387.374	0.25
387.58	0.32
387.787	0.26
387.993	0.32
388.199	0.25
388.406	0.25
388.612	0.22
388.818	0.24
389.024	0.22
389.231	0.33
389.437	0.34
389.643	0.31
389.849	0.32
390.055	0.28
390.261	0.26
390.467	0.29
390.674	0.28
390.88	0.24
391.086	0.33
391.292	0.23
391.498	0.34
391.704	0.31
391.91	0.22
392.116	0.26
392.322	0.21
392.528	0.35
392.734	0.29
392.94	0.32
393.146	0.3
393.352	0.32
393.557	0.26
393.763	0.33
393.969	0.34
394.175	0.31
394.381	0.33
394.587	0.23
394.792	0.3
394.998	0.38
395.204	0.37
395.41	0.3
395.615	0.32
395.821	0.32
396.027	0.31
396.233	0.3
396.438	0.35
396.644	0.37
396.85	0.33
397.055	0.34
397.261	0.34
397.466	0.31
397.672	0.33
397.878	0.37
398.083	0.35
398.289	0.32
398.494	0.36
398.7	0.35
398.905	0.26
399.111	0.44
399.316	0.3
399.522	0.33
399.727	0.33
399.932	0.31
400.138	0.3
400.343	0.41
400.549	0.36
400.754	0.38
400.959	0.39
401.165	0.32
401.37	0.32
401.575	0.47
401.78	0.36
401.986	0.29
402.191	0.37
402.396	0.33
402.601	0.39
402.807	0.38
403.012	0.36
403.217	0.46
403.422	0.41
403.627	0.39
403.832	0.36
404.037	0.45
404.243	0.49
404.448	0.38
404.653	0.43
404.858	0.48
405.063	0.43
405.268	0.37
405.473	0.38
405.678	0.39
405.883	0.61
406.088	0.43
406.293	0.41
406.498	0.42
406.703	0.52
406.907	0.48
407.112	0.41
407.317	0.51
407.522	0.58
407.727	0.41
407.932	0.52
408.136	0.64
408.341	0.5
408.546	0.58
408.751	0.52
408.956	0.55
409.16	0.65
409.365	0.6
409.57	0.59
409.774	0.57
409.979	0.66
410.184	0.6
410.388	0.55
410.593	0.76
410.798	0.73
411.002	0.72
411.207	0.77
411.411	0.77
411.616	0.71
411.82	0.82
412.025	0.82
412.229	0.79
412.434	0.95
412.638	0.9
412.843	0.86
413.047	0.96
413.252	0.9
413.456	0.97
413.66	1.04
413.865	0.97
414.069	1.16
414.273	1.03
414.478	1.11
414.682	1.14
414.886	1.14
415.091	1.14
415.295	1.14
415.499	1.31
415.703	1.32
415.908	1.38
416.112	1.29
416.316	1.47
416.52	1.54
416.724	1.53
416.929	1.53
417.133	1.76
417.337	1.63
417.541	1.72
417.745	1.75
417.949	1.87
418.153	1.86
418.357	1.9
418.561	2.15
418.765	2.08
418.969	2.22
419.173	2.26
419.377	2.33
419.581	2.51
419.785	2.5
419.989	2.46
420.193	2.64
420.397	2.69
420.601	2.85
420.804	2.98
421.008	2.93
421.212	3.1
421.416	3.09
421.62	3.07
421.823	3.16
422.027	3.37
422.231	3.31
422.435	3.32
422.638	3.3
422.842	3.43
423.046	3.55
423.249	3.77
423.453	3.75
423.657	3.96
423.86	3.97
424.064	4.12
424.268	4.23
424.471	4.22
424.675	4.44
424.878	4.52
425.082	4.67
425.285	4.87
425.489	4.82
425.692	4.94
425.896	4.98
426.099	5.24
426.303	5.39
426.506	5.44
426.71	5.7
426.913	5.78
427.116	5.99
427.32	5.99
427.523	6.12
427.726	6.37
427.93	6.53
428.133	6.81
428.336	6.95
428.54	7.1
428.743	7.36
428.946	7.52
429.149	7.54
429.353	7.59
429.556	7.57
429.759	7.76
429.962	7.81
430.165	7.84
430.368	7.65
430.571	7.7
430.775	7.75
430.978	7.7
431.181	7.8
431.384	7.88
431.587	8.07
431.79	8.35
431.993	8.36
432.196	8.54
432.399	8.97
432.602	8.99
432.805	9.16
433.008	9.8
433.211	9.67
433.414	9.91
433.616	10.06
433.819	10.02
434.022	10.11
434.225	10.27
434.428	10.25
434.631	10.77
434.833	10.46
435.036	10.87
435.239	10.99
435.442	11.08
435.645	11.2
435.847	11.22
436.05	11.62
436.253	11.74
436.455	11.74
436.658	11.67
436.861	12.13
437.063	12.12
437.266	12.05
437.468	12.45
437.671	12.87
437.874	12.72
438.076	12.61
438.279	13.12
438.481	13.08
438.684	13.79
438.886	13.42
439.089	13.67
439.291	13.78
439.494	14.07
439.696	14.33
439.899	14.88
440.101	15.2
440.303	15.43
440.506	16.16
440.708	15.91
440.91	16.29
441.113	16.27
441.315	16.58
441.517	16.34
441.72	16.88
441.922	16.38
442.124	16.42
442.326	16.7
442.529	17
442.731	16.96
442.933	17.22
443.135	17.06
443.337	17.06
443.539	17.63
443.742	17.25
443.944	18.04
444.146	17.57
444.348	17.69
444.55	17.62
444.752	17.82
444.954	17.74
445.156	17.62
445.358	17.97
445.56	18.37
445.762	18.12
445.964	18.39
446.166	18.18
446.368	18.27
446.57	18.29
446.772	17.87
446.974	17.77
447.175	18.01
447.377	17.76
447.579	18.05
447.781	17.83
447.983	17.61
448.184	17.16
448.386	17.53
448.588	17.18
448.79	17.05
448.991	17.53
449.193	17.38
449.395	16.73
449.597	16.49
449.798	16.3
450	16.03
450.202	15.8
450.403	15.79
450.605	15.71
450.806	15.48
451.008	15.33
451.21	15.04
451.411	14.63
451.613	13.92
451.814	14.29
452.016	14.16
452.217	13.51
452.419	13.44
452.62	13.1
452.821	12.89
453.023	12.84
453.224	12.49
453.426	12.1
453.627	11.31
453.828	11.47
454.03	11.56
454.231	11.47
454.432	11.21
454.634	11.16
454.835	10.76
455.036	10.71
455.238	10.22
455.439	9.98
455.64	9.83
455.841	9.57
456.042	9.75
456.244	9.32
456.445	9.16
456.646	8.85
456.847	8.75
457.048	8.67
457.249	8.78
457.45	8.53
457.651	7.97
457.852	7.84
458.054	7.46
458.255	7.33
458.456	7.44
458.657	7.43
458.858	6.84
459.058	6.86
459.259	6.94
459.46	6.6
459.661	6.55
459.862	6.68
460.063	6.49
460.264	6.41
460.465	6.18
460.666	6.17
460.866	5.95
461.067	5.71
461.268	5.68
461.469	5.62
461.67	5.57
461.87	5.3
462.071	5.39
462.272	5.18
462.473	5.16
462.673	5.33
462.874	5.29
463.075	5.15
463.275	5.26
463.476	5.29
463.676	5.17
463.877	5.02
464.078	5.05
464.278	5.08
464.479	4.95
464.679	4.87
464.88	4.83
465.08	4.8
465.281	4.65
465.481	4.42
465.682	4.23
465.882	4.29
466.083	4.2
466.283	4.14
466.483	4.05
466.684	3.84
466.884	3.73
467.085	3.81
467.285	3.83
467.485	3.71
467.686	3.62
467.886	3.52
468.086	3.51
468.286	3.45
468.487	3.48
468.687	3.35
468.887	3.28
469.087	3.45
469.287	3.35
469.488	3.11
469.688	3.27
469.888	3.3
470.088	3.2
470.288	3.2
470.488	3.09
470.688	2.95
470.888	2.92
471.088	2.78
471.288	2.88
471.488	2.85
471.688	2.85
471.888	2.79
472.088	2.93
472.288	2.82
472.488	2.62
472.688	2.61
472.888	2.71
473.088	2.68
473.288	2.6
473.488	2.58
473.688	2.74
473.887	2.54
474.087	2.51
474.287	2.51
474.487	2.41
474.687	2.5
474.886	2.41
475.086	2.31
475.286	2.41
475.486	2.28
475.685	2.31
475.885	2.28
476.085	2.28
476.284	2.34
476.484	2.35
476.684	2.24
476.883	2.35
477.083	2.26
477.282	2.18
477.482	2.2
477.681	2.23
477.881	2.14
478.08	2.07
478.28	2.09
478.479	2.12
478.679	2.19
478.878	2.12
479.078	2.08
479.277	2.11
479.477	2.08
479.676	2.08
479.875	2.08
480.075	1.98
480.274	2.07
480.473	2.07
480.673	2.04
480.872	2.14
481.071	2.09
481.271	2.1
481.47	2.05
481.669	1.97
481.868	2.03
482.067	1.97
482.267	1.91
482.466	1.96
482.665	1.94
482.864	1.96
483.063	1.97
483.262	2.08
483.461	2.09
483.661	2.07
483.86	2.02
484.059	2.11
484.258	2.09
484.457	2.03
484.656	2.07
484.855	2.12
485.054	1.93
485.253	2
485.452	2.02
485.651	2.07
485.849	2.03
486.048	2.04
486.247	2.05
486.446	2.13
486.645	2.06
486.844	2.1
487.043	2.07
487.241	2.11
487.44	2.11
487.639	2.09
487.838	2.12
488.037	2.12
488.235	2.21
488.434	2.19
488.633	2.08
488.831	2.21
489.03	2.24
489.229	2.22
489.427	2.24
489.626	2.28
489.825	2.3
490.023	2.31
490.222	2.29
490.42	2.3
490.619	2.36
490.817	2.36
491.016	2.34
491.214	2.4
491.413	2.4
491.611	2.39
491.81	2.38
492.008	2.45
492.207	2.58
492.405	2.51
492.604	2.52
492.802	2.54
493	2.6
493.199	2.64
493.397	2.64
493.595	2.75
493.794	2.66
493.992	2.78
494.19	2.73
494.388	2.79
494.587	2.77
494.785	2.77
494.983	2.7
495.181	2.85
495.379	2.88
495.578	2.97
495.776	2.95
495.974	2.92
496.172	2.95
496.37	3.06
496.568	3.06
496.766	3.07
496.964	3.18
497.162	3.17
497.36	3.16
497.558	3.24
497.756	3.3
497.954	3.24
498.152	3.32
498.35	3.42
498.548	3.33
498.746	3.38
498.944	3.39
499.142	3.42
499.34	3.57
499.538	3.63
499.736	3.5
499.933	3.62
500.131	3.62
500.329	3.73
500.527	3.74
500.725	3.85
500.922	3.84
501.12	3.84
501.318	3.91
501.516	3.92
501.713	3.98
501.911	3.95
502.109	3.93
502.306	4.06
502.504	3.96
502.701	4.08
502.899	4.14
503.097	4.32
503.294	4.15
503.492	4.29
503.689	4.37
503.887	4.33
504.084	4.44
504.282	4.4
504.479	4.41
504.677	4.55
504.874	4.51
505.072	4.46
505.269	4.59
505.466	4.66
505.664	4.72
505.861	4.54
506.059	4.74
506.256	4.78
506.453	4.83
506.651	4.94
506.848	4.94
507.045	4.94
507.242	4.91
507.44	4.99
507.637	5.06
507.834	5.03
508.031	5.14
508.229	5.07
508.426	5.09
508.623	5.22
508.82	5.3
509.017	5.22
509.214	5.19
509.411	5.35
509.608	5.28
509.805	5.46
510.003	5.42
510.2	5.53
510.397	5.6
510.594	5.51
510.791	5.61
510.988	5.61
511.184	5.55
511.381	5.49
511.578	5.65
511.775	5.75
511.972	5.65
512.169	5.76
512.366	5.77
512.563	5.92
512.76	5.91
512.956	5.97
513.153	5.83
513.35	5.83
513.547	5.89
513.744	5.98
513.94	5.95
514.137	6.1
514.334	6.07
514.53	6.09
514.727	6.34
514.924	6.25
515.12	6.16
515.317	6.23
515.514	6.19
515.71	6.12
515.907	6.35
516.103	6.4
516.3	6.29
516.497	6.43
516.693	6.43
516.89	6.44
517.086	6.43
517.283	6.47
517.479	6.4
517.676	6.54
517.872	6.62
518.068	6.61
518.265	6.6
518.461	6.54
518.658	6.61
518.854	6.58
519.05	6.7
519.247	6.75
519.443	6.69
519.639	6.85
519.836	6.71
520.032	6.66
520.228	6.82
520.424	6.85
520.621	6.83
520.817	6.9
521.013	6.85
521.209	7.03
521.405	7.03
521.601	6.98
521.798	6.94
521.994	7
522.19	6.87
522.386	7
522.582	7.1
522.778	7.25
522.974	7.04
523.17	7.06
523.366	6.99
523.562	7.13
523.758	7.15
523.954	6.97
524.15	7.17
524.346	7.26
524.542	7.19
524.738	7.17
524.934	7.29
525.129	7.25
525.325	7.17
525.521	7.22
525.717	7.44
525.913	7.26
526.109	7.29
526.304	7.39
526.5	7.37
526.696	7.38
526.892	7.33
527.087	7.53
527.283	7.46
527.479	7.42
527.674	7.29
527.87	7.47
528.066	7.48
528.261	7.47
528.457	7.34
528.653	7.55
528.848	7.49
529.044	7.62
529.239	7.49
529.435	7.49
529.63	7.49
529.826	7.47
530.021	7.49
530.217	7.5
530.412	7.48
530.608	7.53
530.803	7.54
530.999	7.48
531.194	7.56
531.389	7.68
531.585	7.63
531.78	7.71
531.975	7.64
532.171	7.71
532.366	7.66
532.561	7.72
532.757	7.66
532.952	7.85
533.147	7.59
533.342	7.7
533.538	7.63
533.733	7.86
533.928	7.52
534.123	7.66
534.318	7.79
534.513	7.66
534.709	7.89
534.904	7.81
535.099	7.87
535.294	7.79
535.489	7.83
535.684	7.75
535.879	7.73
536.074	7.84
536.269	7.82
536.464	7.85
536.659	7.82
536.854	7.83
537.049	8
537.244	7.83
537.439	7.85
537.634	7.8
537.828	7.9
538.023	7.92
538.218	7.87
538.413	7.78
538.608	7.9
538.803	7.89
538.997	7.88
539.192	7.88
539.387	7.88
539.582	7.86
539.776	7.8
539.971	7.92
540.166	7.97
540.36	7.86
540.555	8.01
540.75	7.97
540.944	7.93
541.139	7.97
541.334	7.95
541.528	7.96
541.723	8.03
541.917	7.99
542.112	7.92
542.306	7.85
542.501	7.87
542.695	7.89
542.89	7.9
543.084	7.98
543.279	7.97
543.473	8
543.668	8.07
543.862	7.88
544.056	7.85
544.251	8.04
544.445	8.1
544.64	8.03
544.834	7.73
545.028	7.64
545.222	8.04
545.417	8.23
545.611	8.1
545.805	8.01
546	7.81
546.194	8
546.388	8.05
546.582	7.9
546.776	7.99
546.97	8.01
547.165	7.94
547.359	7.97
547.553	7.92
547.747	7.96
547.941	8.18
548.135	7.97
548.329	8.03
548.523	8.06
548.717	7.98
548.911	8
549.105	7.97
549.299	8.08
549.493	8.06
549.687	7.93
549.881	8.09
550.075	8.07
550.269	7.96
550.463	8.05
550.657	8.02
550.85	8
551.044	7.97
551.238	8.01
551.432	8.1
551.626	8.09
551.82	8.04
552.013	7.95
552.207	8.09
552.401	8.11
552.594	8.02
552.788	7.97
552.982	8
553.176	7.97
553.369	8.24
553.563	8.16
553.756	8
553.95	8.14
554.144	8.13
554.337	8.13
554.531	7.92
554.724	8.07
554.918	8.16
555.111	8.02
555.305	8.06
555.498	8.05
555.692	8.17
555.885	8.1
556.079	7.99
556.272	8.07
556.466	8.01
556.659	8.05
556.852	8.11
557.046	8
557.239	7.86
557.432	8.02
557.626	8.03
557.819	8.12
558.012	8.07
558.206	8.18
558.399	8.07
558.592	8.01
558.785	8
558.979	8.08
559.172	8.05
559.365	8
559.558	8.01
559.751	8.02
559.944	8.11
560.138	8.04
560.331	8.02
560.524	8.11
560.717	8.02
560.91	8.08
561.103	8.1
561.296	7.93
561.489	8.15
561.682	8.15
561.875	8.03
562.068	8.19
562.261	7.93
562.454	8.28
562.647	8.02
562.84	8.08
563.032	8.11
563.225	7.98
563.418	8.07
563.611	8.13
563.804	8.09
563.997	7.9
564.19	7.88
564.382	8.15
564.575	8.08
564.768	7.97
564.961	8.06
565.153	7.99
565.346	7.89
565.539	8.12
565.731	8.02
565.924	8.11
566.117	8.21
566.309	8.06
566.502	8.07
566.695	7.98
566.887	8.09
567.08	8.03
567.272	8.1
567.465	7.96
567.657	8.09
567.85	7.94
568.042	8.06
568.235	8.08
568.427	7.91
568.62	7.96
568.812	8.01
569.005	8.03
569.197	7.92
569.389	8.03
569.582	8
569.774	8
569.966	7.93
570.159	7.87
570.351	7.9
570.543	7.96
570.736	7.98
570.928	7.82
571.12	8.05
571.312	7.86
571.505	7.74
571.697	7.97
571.889	7.93
572.081	7.94
572.273	7.87
572.465	7.95
572.658	7.97
572.85	7.97
573.042	7.91
573.234	7.91
573.426	7.9
573.618	7.87
573.81	7.88
574.002	7.88
574.194	7.96
574.386	7.83
574.578	7.76
574.77	7.86
574.962	7.84
575.154	7.8
575.346	7.75
575.538	7.78
575.729	7.78
575.921	7.8
576.113	7.92
576.305	7.82
576.497	7.93
576.689	7.75
576.88	7.76
577.072	7.87
577.264	7.84
577.456	7.88
577.647	7.81
577.839	7.95
578.031	7.83
578.223	7.77
578.414	7.73
578.606	7.8
578.798	7.89
578.989	7.78
579.181	7.83
579.372	7.75
579.564	7.76
579.755	7.74
579.947	7.7
580.139	7.78
580.33	7.63
580.522	7.77
580.713	7.7
580.905	7.64
581.096	7.82
581.287	7.64
581.479	7.7
581.67	7.74
581.862	7.65
582.053	7.71
582.244	7.55
582.436	7.74
582.627	7.54
582.818	7.58
583.01	7.62
583.201	7.64
583.392	7.58
583.583	7.55
583.775	7.34
583.966	7.51
584.157	7.6
584.348	7.69
584.54	7.46
584.731	7.59
584.922	7.47
585.113	7.41
585.304	7.55
585.495	7.49
585.686	7.53
585.877	7.54
586.068	7.6
586.259	7.51
586.45	7.48
586.641	7.5
586.832	7.53
587.023	7.45
587.214	7.41
587.405	7.51
587.596	7.32
587.787	7.24
587.978	7.47
588.169	7.34
588.36	7.34
588.551	7.32
588.742	7.39
588.932	7.43
589.123	7.16
589.314	7.49
589.505	7.28
589.696	7.38
589.886	7.27
590.077	7.33
590.268	7.26
590.458	7.17
590.649	7.12
590.84	7.3
591.03	7.23
591.221	7.2
591.412	7.07
591.602	7.32
591.793	7.16
591.984	7.26
592.174	7.15
592.365	7.32
592.555	7
592.746	7.06
592.936	7.11
593.127	7.15
593.317	7.15
593.508	7.12
593.698	7.03
593.889	7.05
594.079	7
594.269	6.91
594.46	7
594.65	7.07
594.84	6.98
595.031	6.9
595.221	6.9
595.411	7
595.602	6.94
595.792	6.97
595.982	6.79
596.172	6.94
596.363	6.91
596.553	6.76
596.743	6.93
596.933	6.81
597.123	6.79
597.314	6.73
597.504	6.7
597.694	6.88
597.884	6.77
598.074	6.78
598.264	6.76
598.454	6.7
598.644	6.73
598.834	6.74
599.024	6.59
599.214	6.65
599.404	6.77
599.594	6.66
599.784	6.55
599.974	6.71
600.164	6.61
600.354	6.52
600.544	6.47
600.734	6.63
600.924	6.55
601.114	6.49
601.303	6.42
601.493	6.47
601.683	6.58
601.873	6.47
602.063	6.43
602.252	6.5
602.442	6.43
602.632	6.41
602.821	6.36
603.011	6.45
603.201	6.37
603.39	6.35
603.58	6.25
603.77	6.32
603.959	6.4
604.149	6.28
604.339	6.24
604.528	6.42
604.718	6.33
604.907	6.2
605.097	6.18
605.286	6.16
605.476	6.19
605.665	6.18
605.855	6.13
606.044	6.28
606.234	6.15
606.423	6.06
606.612	6.09
606.802	6.05
606.991	6.11
607.181	6.13
607.37	6.11
607.559	5.89
607.749	6.03
607.938	5.98
608.127	6
608.316	6.02
608.506	5.98
608.695	6.04
608.884	5.93
609.073	5.87
609.263	6.01
609.452	5.94
609.641	5.78
609.83	5.76
610.019	5.86
610.208	5.83
610.397	5.81
610.586	5.82
610.775	5.82
610.965	5.77
611.154	5.7
611.343	5.77
611.532	5.6
611.721	5.77
611.91	5.59
612.099	5.67
612.287	5.56
612.476	5.52
612.665	5.68
612.854	5.55
613.043	5.61
613.232	5.53
613.421	5.49
613.61	5.55
613.798	5.52
613.987	5.59
614.176	5.5
614.365	5.49
614.554	5.46
614.742	5.47
614.931	5.34
615.12	5.49
615.309	5.4
615.497	5.34
615.686	5.23
615.875	5.38
616.063	5.3
616.252	5.3
616.44	5.28
616.629	5.3
616.818	5.35
617.006	5.25
617.195	5.19
617.383	5.23
617.572	5.13
617.76	5.08
617.949	5.11
618.137	5.18
618.326	5.17
618.514	5
618.703	4.96
618.891	5.13
619.079	4.97
619.268	5.09
619.456	4.97
619.644	5.04
619.833	5.02
620.021	4.94
620.209	4.84
620.398	4.94
620.586	4.92
620.774	4.94
620.962	4.87
621.151	5.01
621.339	4.9
621.527	4.8
621.715	4.76
621.903	4.82
622.092	4.7
622.28	4.9
622.468	4.69
622.656	4.78
622.844	4.73
623.032	4.8
623.22	4.61
623.408	4.77
623.596	4.65
623.784	4.74
623.972	4.57
624.16	4.63
624.348	4.71
624.536	4.73
624.724	4.53
624.912	4.65
625.1	4.58
625.288	4.57
625.476	4.52
625.664	4.63
625.851	4.43
626.039	4.48
626.227	4.45
626.415	4.48
626.603	4.29
626.79	4.45
626.978	4.41
627.166	4.46
627.354	4.29
627.541	4.33
627.729	4.22
627.917	4.45
628.104	4.43
628.292	4.29
628.48	4.28
628.667	4.23
628.855	4.33
629.042	4.28
629.23	4.17
629.418	4.17
629.605	4.17
629.793	4.17
629.98	4.16
630.168	4.1
630.355	4.15
630.543	4.1
630.73	4.03
630.917	4.03
631.105	4.19
631.292	4.04
631.48	4.05
631.667	4.18
631.854	4.02
632.042	3.99
632.229	3.88
632.416	4.04
632.604	3.91
632.791	3.81
632.978	3.98
633.165	3.87
633.353	3.89
633.54	3.94
633.727	3.84
633.914	3.8
634.101	3.77
634.289	3.87
634.476	3.79
634.663	3.74
634.85	3.82
635.037	3.71
635.224	3.67
635.411	3.73
635.598	3.76
635.785	3.65
635.972	3.7
636.159	3.66
636.346	3.61
636.533	3.6
636.72	3.58
636.907	3.58
637.094	3.57
637.281	3.47
637.468	3.53
637.655	3.57
637.842	3.6
638.029	3.47
638.215	3.51
638.402	3.52
638.589	3.44
638.776	3.43
638.963	3.41
639.149	3.52
639.336	3.51
639.523	3.42
639.709	3.4
639.896	3.36
640.083	3.34
640.27	3.41
640.456	3.32
640.643	3.36
640.829	3.22
641.016	3.26
641.203	3.2
641.389	3.3
641.576	3.29
641.762	3.19
641.949	3.2
642.135	3.18
642.322	3.19
642.508	3.12
642.695	3.17
642.881	3.08
643.068	3.1
643.254	3.1
643.441	3.19
643.627	3.13
643.813	3.01
644	3.08
644.186	2.98
644.372	3.08
644.559	3.08
644.745	3.05
644.931	2.99
645.118	3.01
645.304	3.01
645.49	2.97
645.676	2.95
645.862	2.96
646.049	2.99
646.235	2.89
646.421	3
646.607	3.03
646.793	2.87
646.979	2.81
647.165	2.92
647.352	2.82
647.538	2.91
647.724	2.81
647.91	2.8
648.096	2.88
648.282	2.88
648.468	2.79
648.654	2.8
648.84	2.77
649.026	2.75
649.212	2.67
649.397	2.62
649.583	2.72
649.769	2.71
649.955	2.7
650.141	2.7
650.327	2.71
650.513	2.63
650.698	2.65
650.884	2.51
651.07	2.7
651.256	2.55
651.442	2.59
651.627	2.5
651.813	2.62
651.999	2.55
652.184	2.56
652.37	2.5
652.556	2.5
652.741	2.55
652.927	2.4
653.113	2.49
653.298	2.49
653.484	2.46
653.669	2.35
653.855	2.41
654.04	2.49
654.226	2.46
654.412	2.45
654.597	2.31
654.782	2.4
654.968	2.44
655.153	2.34
655.339	2.32
655.524	2.26
655.71	2.38
655.895	2.32
656.08	2.36
656.266	2.44
656.451	2.3
656.636	2.22
656.822	2.28
657.007	2.31
657.192	2.25
657.378	2.19
657.563	2.2
657.748	2.26
657.933	2.26
658.118	2.12
658.304	2.19
658.489	2.26
658.674	2.21
658.859	2.08
659.044	2.16
659.229	2.26
659.414	2.16
659.599	2.21
659.785	2.08
659.97	2.04
660.155	2.09
660.34	2.15
660.525	2.05
660.71	2.01
660.895	2.13
661.08	2.04
661.264	2
661.449	2.07
661.634	2.02
661.819	2.04
662.004	2.03
662.189	1.91
662.374	1.95
662.559	1.9
662.743	1.87
662.928	1.93
663.113	1.96
663.298	1.92
663.483	1.93
663.667	1.97
663.852	1.88
664.037	1.94
664.221	1.89
664.406	1.95
664.591	1.92
664.775	1.96
664.96	1.88
665.145	1.88
665.329	1.91
665.514	1.8
665.698	1.84
665.883	1.78
666.068	1.91
666.252	1.83
666.437	1.73
666.621	1.81
666.806	1.8
666.99	1.74
667.174	1.72
667.359	1.85
667.543	1.81
667.728	1.74
667.912	1.63
668.096	1.7
668.281	1.66
668.465	1.76
668.649	1.73
668.834	1.64
669.018	1.7
669.202	1.71
669.387	1.68
669.571	1.8
669.755	1.66
669.939	1.65
670.124	1.65
670.308	1.71
670.492	1.69
670.676	1.62
670.86	1.62
671.044	1.61
671.228	1.67
671.413	1.54
671.597	1.56
671.781	1.57
671.965	1.61
672.149	1.56
672.333	1.6
672.517	1.51
672.701	1.55
672.885	1.56
673.069	1.42
673.253	1.62
673.437	1.51
673.621	1.51
673.804	1.54
673.988	1.55
674.172	1.45
674.356	1.42
674.54	1.49
674.724	1.59
674.908	1.47
675.091	1.49
675.275	1.48
675.459	1.5
675.643	1.43
675.826	1.52
676.01	1.4
676.194	1.45
676.377	1.51
676.561	1.45
676.745	1.45
676.928	1.44
677.112	1.48
677.296	1.37
677.479	1.35
677.663	1.38
677.846	1.42
678.03	1.42
678.213	1.28
678.397	1.39
678.58	1.3
678.764	1.35
678.947	1.29
679.131	1.28
679.314	1.34
679.498	1.29
679.681	1.33
679.865	1.39
680.048	1.32
680.231	1.31
680.415	1.31
680.598	1.28
680.781	1.26
680.965	1.29
681.148	1.32
681.331	1.27
681.514	1.27
681.698	1.25
681.881	1.27
682.064	1.25
682.247	1.29
682.43	1.18
682.614	1.25
682.797	1.33
682.98	1.3
683.163	1.16
683.346	1.26
683.529	1.21
683.712	1.21
683.895	1.25
684.078	1.14
684.261	1.16
684.444	1.22
684.627	1.21
684.81	1.09
684.993	1.15
685.176	1.19
685.359	1.08
685.542	1.12
685.725	1.19
685.908	1.13
686.091	1.12
686.274	1.16
686.457	1.19
686.639	1.16
686.822	1.17
687.005	1.13
687.188	1.16
687.371	1.27
687.553	1.15
687.736	1.11
687.919	1.2
688.102	1.19
688.284	1.05
688.467	1.01
688.65	1.08
688.832	1.03
689.015	1.09
689.197	0.97
689.38	1.15
689.563	1.21
689.745	0.98
689.928	0.95
690.11	1.06
690.293	1.02
690.475	0.96
690.658	1.01
690.84	0.98
691.023	0.98
691.205	0.97
691.388	0.98
691.57	1.04
691.752	1.07
691.935	0.94
692.117	0.98
692.3	1.05
692.482	0.93
692.664	0.91
692.847	0.98
693.029	1.02
693.211	1.02
693.393	0.89
693.576	0.88
693.758	0.93
693.94	0.9
694.122	0.88
694.304	0.9
694.487	0.88
694.669	0.99
694.851	0.82
695.033	0.9
695.215	0.89
695.397	0.88
695.579	0.89
695.761	0.87
695.943	0.81
696.125	0.98
696.308	0.91
696.49	0.79
696.671	0.98
696.853	0.91
697.035	1.1
697.217	0.89
697.399	1.03
697.581	0.85
697.763	0.85
697.945	0.78
698.127	0.87
698.309	0.94
698.491	0.8
698.672	0.86
698.854	0.92
699.036	0.97
699.218	0.81
699.399	0.87
699.581	0.91
699.763	0.83
699.945	0.74
700.126	0.71
700.308	0.84
700.49	0.83
700.671	0.75
700.853	0.74
701.035	0.84
701.216	0.85
701.398	0.73
701.579	0.82
701.761	0.91
701.943	0.81
702.124	0.77
702.306	0.73
702.487	0.92
702.669	0.86
702.85	0.77
703.031	0.69
703.213	0.89
703.394	0.84
703.576	0.7
703.757	0.85
703.938	0.79
704.12	0.96
704.301	0.72
704.483	0.7
704.664	0.79
704.845	0.9
705.026	0.85
705.208	0.7
705.389	0.73
705.57	0.77
705.751	0.66
705.933	0.71
706.114	0.78
706.295	0.75
706.476	0.62
706.657	0.88
706.838	0.75
707.02	0.89
707.201	0.65
707.382	0.72
707.563	0.75
707.744	0.71
707.925	0.64
708.106	0.64
708.287	0.75
708.468	0.79
708.649	0.72
708.83	0.71
709.011	0.66
709.192	0.77
709.373	0.61
709.554	0.7
709.734	0.76
709.915	0.69
710.096	0.67
710.277	0.57
710.458	0.63
710.639	0.77
710.819	0.48
711	0.61
711.181	0.72
711.362	0.78
711.542	0.63
711.723	0.66
711.904	0.74
712.085	0.66
712.265	0.58
712.446	0.54
712.627	0.64
712.807	0.65
712.988	0.62
713.168	0.5
713.349	0.74
713.53	0.46
713.71	0.51
713.891	0.49
714.071	0.65
714.252	0.59
714.432	0.57
714.613	0.47
714.793	0.6
714.974	0.7
715.154	0.77
715.334	0.66
715.515	0.67
715.695	0.5
715.876	0.6
716.056	0.57
716.236	0.53
716.417	0.53
716.597	0.54
716.777	0.78
716.957	0.57
717.138	0.59
717.318	0.59
717.498	0.46
717.678	0.65
717.859	0.61
718.039	0.49
718.219	0.53
718.399	0.54
718.579	0.51
718.759	0.55
718.939	0.62
719.12	0.67
719.3	0.55
719.48	0.37
719.66	0.41
719.84	0.72
720.02	0.61
720.2	0.61
720.38	0.53
720.56	0.72
720.74	0.42
720.92	0.52
721.1	0.71
721.279	0.68
721.459	0.57
721.639	0.52
721.819	0.51
721.999	0.53
722.179	0.62
722.359	0.43
722.538	0.46
722.718	0.54
722.898	0.49
723.078	0.48
723.257	0.47
723.437	0.54
723.617	0.55
723.797	0.43
723.976	0.54
724.156	0.65
724.336	0.72
724.515	0.69
724.695	0.39
724.874	0.49
725.054	0.62
725.234	0.55
725.413	0.52
725.593	0.5
725.772	0.5
725.952	0.46
726.131	0.46
726.311	0.53
726.49	0.52
726.67	0.44
726.849	0.46
727.028	0.56
727.208	0.43
727.387	0.46
727.567	0.4
727.746	0.52
727.925	0.47
728.105	0.4
728.284	0.47
728.463	0.43
728.643	0.51
728.822	0.36
729.001	0.55
729.18	0.51
729.359	0.64
729.539	0.44
729.718	0.5
729.897	0.55
730.076	0.47
730.255	0.41
730.434	0.47
730.614	0.52
730.793	0.67
730.972	0.45
731.151	0.47
731.33	0.53
731.509	0.54
731.688	0.38
731.867	0.45
732.046	0.31
732.225	0.65
732.404	0.48
732.583	0.31
732.762	0.43
732.941	0.52
733.12	0.54
733.298	0.47
733.477	0.68
733.656	0.45
733.835	0.4
734.014	0.63
734.193	0.5
734.371	0.56
734.55	0.55
734.729	0.35
734.908	0.54
735.086	0.53
735.265	0.6
735.444	0.25
735.623	0.32
735.801	0.46
735.98	0.31
736.159	0.44
736.337	0.57
736.516	0.54
736.694	0.54
736.873	0.45
737.052	0.71
737.23	0.63
737.409	0.42
737.587	0.68
737.766	0.37
737.944	0.41
738.123	0.54
738.301	0.5
738.479	0.43
738.658	0.58
738.836	0.35
739.015	0.42
739.193	0.54
739.371	0.32
739.55	0.38
739.728	0.41
739.906	0.68
740.085	0.74
740.263	0.47
740.441	0.27
740.62	0.65
740.798	0.54
740.976	0.36
741.154	0.28
741.332	0.55
741.511	0.48
741.689	0.5
741.867	0.53
742.045	0.5
742.223	0.43
742.401	0.42
742.579	0.42
742.757	0.53
742.935	0.26
743.114	0.45
743.292	0.42
743.47	0.51
743.648	0.46
743.826	0.5
744.004	0.57
744.181	0.54
744.359	0.44
744.537	0.47
744.715	0.48
744.893	0.56
745.071	0.42
745.249	0.39
745.427	0.34
745.605	0.49
745.782	0.4
745.96	0.44
746.138	0.57
746.316	0.57
746.493	0.33
746.671	0.34
746.849	0.33
747.027	0.45
747.204	0.3
747.382	0.45
747.56	0.33
747.737	0.27
747.915	0.28
748.093	0.44
748.27	0.21
748.448	0.39
748.625	0.33
748.803	0.37
748.98	0.23
749.158	0.46
749.335	0.42
749.513	0.37
749.69	0.4
749.868	0.39
750.045	0.51
750.223	0.31
750.4	0.1
750.578	0.54
750.755	0.46
750.932	0.28
751.11	0.51
751.287	0.25
751.464	0.57
751.642	0.3
751.819	0.48
751.996	0.41
752.173	0.31
752.351	0.26
752.528	0.37
752.705	0.34
752.882	0.33
753.06	0.47
753.237	0.36
753.414	0.6
753.591	0.64
753.768	0.34
753.945	0.33
754.122	0.43
754.299	0.49
754.476	0.24
754.654	0.35
754.831	0.41
755.008	0.41
755.185	0.28
755.362	0.25
755.539	0.47
755.716	0.36
755.892	0.44
756.069	0.35
756.246	0.34
756.423	0.37
756.6	0.58
756.777	0.25
756.954	0.54
757.131	0.36
757.307	0.23
757.484	0.23
757.661	0.29
757.838	0.49
758.015	0.18
758.191	0.41
758.368	0.36
758.545	0.58
758.721	0.37
758.898	0.2
759.075	0.38
759.251	0.46
759.428	0.35
759.605	0.28
759.781	0.39
759.958	0.41
760.134	0.4
760.311	0.26
760.488	0.55
760.664	0.48
760.841	0.41
761.017	0.23
761.194	0.4
761.37	0.47
761.547	0.35
761.723	0.34
761.899	0.6
762.076	0.28
762.252	0.26
762.429	0.27
762.605	0.49
762.781	0.33
762.958	0.32
763.134	0.3
763.31	0.22
763.486	0.48
763.663	0.08
763.839	0.35
764.015	0.02
764.191	0.25
764.368	0.2
764.544	0.24
764.72	0.33
764.896	0.35
765.072	0.42
765.248	0.35
765.425	0.2
765.601	0.4
765.777	0.3
765.953	0.12
766.129	0.27
766.305	0.28
766.481	0.5
766.657	0.35
766.833	0.64
767.009	0.23
767.185	0.22
767.361	0.36
767.537	0.24
767.713	0.57
767.889	0.22
768.065	0.42
768.24	0.54
768.416	0.47
768.592	0.28
768.768	0.45
768.944	0.43
769.12	0.34
769.295	0.24
769.471	0.28
769.647	0.33
769.823	0.63
769.998	0.17
770.174	0.31
770.35	0.67
770.525	0.49
770.701	0.31
770.877	0.39
771.052	0.21
771.228	0.62
771.403	0.36
771.579	0.45
771.755	0.81
771.93	0.3
772.106	0.26
772.281	0.01
772.457	0.29
772.632	0.5
772.808	0.17
772.983	0.18
773.159	0.14
773.334	0.44
773.509	0.3
773.685	0.33
773.86	0.85
774.036	0.56
774.211	0.34
774.386	0.31
774.562	0.54
774.737	0.65
774.912	0.09
775.087	0.38
775.263	0.36
775.438	0.48
775.613	0.3
775.788	0.28
775.964	0.55
776.139	1.04
776.314	0.19
776.489	0.39
776.664	0.36
776.839	0.15
777.014	0.54
777.19	0.45
777.365	0.56
777.54	0.72
777.715	0.2
777.89	0.49
778.065	0.33
778.24	0.33
778.415	0.49
778.59	0.02
778.765	0.39
778.94	0.55
779.115	0.3
779.289	0.26
779.464	0.39
779.639	0.24
779.814	0.18
779.989	0.22
780.164	0.56
780.339	0.53
780.513	0.3
780.688	0.08
780.863	0.34
781.038	0.49
781.212	0.14
781.387	0.38
781.562	0.75
781.737	0.25
781.911	0.53
782.086	0.31
782.261	0.27
782.435	0.64
782.61	0.17
782.784	0.38
782.959	0.65
783.134	0.44
783.308	0.19
783.483	0.22
783.657	0.96
783.832	0.76
784.006	0.16
784.181	0.5
784.355	0.49
784.53	0.37
784.704	0.24
784.878	0.77
785.053	0.6
785.227	0.75
785.402	0.91
785.576	0.2
785.75	0.35
785.925	0.25
786.099	0.4
786.273	0.56
786.448	0.52
786.622	0.58
786.796	0.44
786.97	0.27
787.145	1.18
787.319	-0.04
787.493	0.44
787.667	0.06
787.841	0.43
788.015	0.85
788.19	0.33
788.364	0.33
788.538	0.63
788.712	0.59
788.886	0.38
789.06	0.47
789.234	0.66
789.408	0.23
789.582	0.4
789.756	0.21
789.93	0.35
790.104	0.31
790.278	0.48
790.452	0.33
790.626	0.52
790.8	0.39
790.973	0.53
791.147	0.95
791.321	0.89
791.495	0.8
791.669	0.52
791.843	0.4
792.016	0.34
792.19	0.89
792.364	0.15
792.538	1.22
792.711	0.67
792.885	0.26
793.059	0.11
793.233	-0.26
793.406	0.51
793.58	0.33
793.754	0.55
793.927	0.23
794.101	0.87
794.274	0.52
794.448	0.76
794.622	0.08
794.795	0.87
794.969	0.26
795.142	0.97
795.316	0.24
795.489	0.18
795.663	0.73
795.836	0.58
796.009	0.1
796.183	1.04
796.356	0.69
796.53	0.5
796.703	0.17
796.876	1.11
797.05	0.51
797.223	0.32
797.396	0.42
797.57	0.41
797.743	0.79
797.916	0.37
798.09	0.45
798.263	0.96
798.436	0.62
798.609	0.23
798.782	0.58
798.956	0.54
799.129	0.58
799.302	0.29
799.475	0.28
799.648	0.28
799.821	0.23
799.994	0.45
800.167	0.03
800.34	0.54
800.514	0.77
800.687	0.63
800.86	0.18
801.033	0.76
801.206	0.71
801.379	-0.08
801.551	0.74
801.724	0.49
801.897	1.08
802.07	0.35
802.243	-0.01
802.416	0.34
802.589	0.47
802.762	0.68
802.935	0.22
803.107	1.13
803.28	1.01
803.453	0.72
803.626	0.34
803.798	0.54
803.971	0.27
804.144	0.61
804.317	0.59
804.489	1.02
804.662	0.57
804.835	0.35
805.007	0.18
805.18	1.2
805.353	0.43
805.525	0.18
805.698	0.47
805.87	0.79
806.043	0.67
806.215	-0.06
806.388	0.32
806.56	0.64
806.733	0.88
806.905	0.7
807.078	0.43
807.25	0.17
807.423	0.79
807.595	0.26
807.768	0.53
807.94	0.68
808.112	0.6
808.285	0.17
808.457	0.47
808.629	0.44
808.802	0.8
808.974	0.64
809.146	0.31
809.318	0.36
809.491	0.79
809.663	0.71
809.835	0.36
810.007	1.01
810.18	0.4
810.352	0.23
810.524	0.54
810.696	0.64
810.868	1.33
811.04	0.26
811.212	0.3
811.384	0.88
811.556	0.57
811.728	0.4
811.901	1.35
812.073	0.72
812.245	1.14
812.417	0.41
812.589	-0.03
812.76	1
812.932	0.92
813.104	0.67
813.276	0.18
813.448	1.29
813.62	0.6
813.792	0.63
813.964	0.28
814.136	0.81
814.307	0.32
814.479	0.45
814.651	0.17
814.823	1.62
814.995	0.1
815.166	0.84
815.338	0.26
815.51	0.27
815.681	1.44
815.853	0.92
816.025	0.32
816.196	1.5
816.368	1.5
816.54	-0.05
816.711	0.39
816.883	1.1
817.054	2.19
817.226	0.07
817.398	0.85
817.569	0.56
817.741	0.73
817.912	0.38
818.084	0.37
818.255	1.28
818.426	0.71
818.598	0.7
818.769	-0.2
818.941	1.36
819.112	1.15
819.283	0.96
819.455	0.38
819.626	0.43
819.798	1.09
819.969	0.59
820.14	0.12
820.311	0.57
820.483	1.26
820.654	0.83
820.825	0.47
820.996	0.75
821.168	0.12
821.339	1.02
821.51	-0.01
821.681	0.67
821.852	0.67
822.023	0.11
822.195	0.01
822.366	1.54
822.537	0.61
822.708	0.68
822.879	0.19
823.05	1.54
823.221	0.8
823.392	0.94
823.563	1.09
823.734	0.86
823.905	0.47
824.076	0.61
824.247	0.25
824.418	0.69
824.589	1.95
824.759	0.46
824.93	0.79
825.101	0.18
825.272	1.94
825.443	1.47
825.614	0.95
825.784	0.14
825.955	2.3
826.126	1.75
826.297	0.42
826.467	1.79
826.638	1.47
826.809	-0.28
826.98	0.45
827.15	1.23
827.321	0.87
827.492	1.47
827.662	0.53
827.833	2.05
828.003	1.27
828.174	0.16
828.345	0.02
828.515	1.87
828.686	1.04
828.856	0.76
829.027	0.93
829.197	1.53
829.368	1
829.538	0.22
829.709	0.75
829.879	1.02
830.049	0.69
830.22	0.03
830.39	0.85
830.56	1.51
830.731	0.55
830.901	0.37
831.072	0.8
831.242	1.29
831.412	1.21
831.582	0.61
831.753	-0.34
831.923	1.54
832.093	1.16
832.263	0.72
832.434	-0.16
832.604	0.55
832.774	1.62
832.944	0.87
833.114	0.55
833.284	1.31
833.454	0.33
833.624	0.5
833.795	0.33
833.965	2.51
834.135	1.54
834.305	-0.34
834.475	-0.43
834.645	0.84
834.815	0.39
834.985	0.62
835.155	0.03
835.325	1.22
835.494	1.34
835.664	1.05
835.834	-0.19
836.004	0.87
836.174	1.24
836.344	0.34
836.514	0.15
836.684	0.47
836.853	0.72
837.023	1.34
837.193	0.21
837.363	2.51
837.532	1.62
837.702	0.93
837.872	0.39
838.041	1.68
838.211	2.95
838.381	0.51
838.55	1.07
838.72	3.89
838.89	2.39
839.059	1.02
839.229	0.41
839.398	3.28
839.568	1.61
839.738	0.82
839.907	2.27
840.077	1.35
840.246	0.5
840.416	0.64
840.585	-0.13
840.755	2.36
840.924	2.29
841.093	-0.34
841.263	0.27
841.432	0.78
841.602	0.99
841.771	-0.05
841.94	1.05
842.11	3.54
842.279	2.22
842.448	0.17
842.617	0.15
842.787	2.36
842.956	0.99
843.125	1.15
843.294	0.7
843.464	2.12
843.633	1.91
843.802	-0.4
843.971	0.91
844.14	1.57
844.309	1.84
844.479	-0.83
844.648	0.01
844.817	1.38
844.986	0.87
845.155	0.19
845.324	0.91
845.493	1.52
845.662	0.21
845.831	1.62
846	1.56
846.169	0.82
846.338	2.38
846.507	1.24
846.676	0.6
846.844	0.69
847.013	2.37
847.182	1.39
847.351	0.67
847.52	0.83
847.689	2.21
847.858	1.33
848.026	0.44
848.195	1.19
848.364	0.5
848.533	0.08
848.701	1.05
848.87	1.4
849.039	1.81
849.207	1.44
849.376	2.77
849.545	2.98
849.713	1.29
849.882	0.52
850.051	0.77
850.219	1.16
850.388	1.88
850.556	-0.06
850.725	0.09
850.893	1.36
851.062	1.18
851.23	1.34
851.399	0.27
851.567	1.43
851.736	0.74
851.904	-0.29
852.073	1.6
852.241	2.21
852.41	1.9
852.578	1.21
852.746	1.26
852.915	1.7
853.083	1.42
853.251	0.6
853.42	0.66
853.588	1.65
853.756	3.25
853.924	2.02
854.093	1.5
854.261	0.71
854.429	0.7
854.597	1.07
854.765	-0.12
854.934	2.3
855.102	2.43
855.27	1.11
855.438	2.03
855.606	2.57
855.774	3.34
855.942	0.09
856.11	-0.51
856.278	1.58
856.446	2.39
856.614	0.46
856.782	0.18
856.95	2.86
857.118	1.88
857.286	2.24
857.454	0.07
857.622	3.43
857.79	2.67
857.958	-0.45
858.126	1.12
858.294	-0.46
858.462	1.75
858.629	0.67
858.797	-0.03
858.965	3.25
859.133	1.76
859.301	1.75
859.468	1.82
859.636	0.24
859.804	4.55
859.971	2.7
860.139	0.23
860.307	2.3
860.474	1.07
860.642	-0.54
860.81	-0.22
860.977	2.14
861.145	2.25
861.313	1.23
861.48	1.39
861.648	2.98
861.815	1.67
861.983	0.86
862.15	0.05
862.318	3.01
862.485	3.03
862.653	0.13
862.82	0.9
862.988	3.87
863.155	0.15
863.322	0.35
863.49	-0.35
863.657	1.31
863.824	4.44
863.992	1.13
864.159	2.52
864.326	3.94
864.494	1.57
864.661	3.29
864.828	-0.68
864.996	4.16
865.163	3.19
865.33	2.17
865.497	-2.36
865.664	0.39
865.832	1.39
865.999	2.11
866.166	0.05
866.333	1.16
866.5	2.4
866.667	1.44
866.834	2.77
867.001	3.04
867.168	-0.94
867.335	0.76
867.502	-0.37
867.669	1.69
867.836	6.23
868.003	2.22
868.17	3.6
868.337	4.58
868.504	5.72
868.671	-0.95
868.838	0.86
869.005	1.58
869.172	3.09
869.339	1.05
869.505	0.93
869.672	1.66
869.839	4.56
870.006	1.64
870.173	-0.44
870.339	3.3
870.506	5.2
870.673	1.42
870.84	3.11
871.006	2.35
871.173	3.71
871.34	2.22
871.506	0.76
871.673	2.39
871.839	-0.82
872.006	1.97
872.173	1.02
872.339	2.2
872.506	3.02
872.672	-0.36
872.839	-1.48
873.005	1.65
873.172	5.92
873.338	3.72
873.505	1.69
873.671	2.37
873.838	4.25
874.004	-1.65
874.171	0.33
874.337	3.94
874.503	2.75
874.67	1.09
874.836	-0.84
875.002	4.53
875.169	4.19
875.335	1.54
875.501	2.47
875.668	5.2
875.834	1.79
876	0.7
876.166	2.61
876.332	4.45
876.499	7.11
876.665	2.09
876.831	1.01
876.997	7.76
877.163	3.9
877.329	0.99
877.495	0.7
877.662	3.22
877.828	2.82
877.994	3.19
878.16	-2.38
878.326	1.41
878.492	3.28
878.658	1.37
878.824	3.08
878.99	3.7
879.156	1.21
879.322	5.94
879.487	2
879.653	4.45
879.819	1.47
879.985	-0.13
880.151	3.75
880.317	3.91
880.483	3.94
880.648	3.62
880.814	0.36
880.98	1.71
881.146	-1.01
881.312	0.3
881.477	1.58
881.643	1.71
881.809	4.5
881.974	3.12
882.14	0.38
882.306	4.2
882.471	7.72
882.637	0.41
882.803	2.79
882.968	5.57
883.134	7.56
883.299	1.7
883.465	1.48
883.63	3.84
883.796	2.89
883.961	3.73
884.127	3.42
884.292	-3.62
884.458	-1.03
884.623	-1.03
