Data from Apollo_Calib_20240827__AbsoluteIrradiance__741__11-30-03-073.txt Node

Date: Wed Aug 28 11:30:03 BST 2024
User: biology
Spectrometer: FLMT08252
Trigger mode: 0
Integration Time (sec): 5.000000E-1
Scans to average: 5
Electric dark correction enabled: true
Nonlinearity correction enabled: false
Boxcar width: 0
XAxis mode: Wavelengths
Number of Pixels in Spectrum: 3648
>>>>>Begin Spectral Data<<<<<
179.588	-0
179.809	-0
180.03	-0
180.251	-0
180.473	-0
180.694	0
180.915	0
181.136	-0
181.357	0
181.578	0
181.799	-0
182.02	-0
182.241	-0
182.462	-0
182.683	0
182.904	-0
183.125	-0
183.346	0
183.567	0
183.788	0
184.009	0
184.23	0
184.451	0
184.672	0
184.892	0
185.113	0
185.334	0
185.555	0
185.776	0
185.996	0
186.217	0
186.438	0
186.659	0
186.879	0
187.1	0
187.321	0
187.541	0
187.762	0
187.983	0
188.203	0
188.424	0
188.644	0
188.865	0
189.086	0
189.306	0
189.527	0
189.747	0
189.968	0
190.188	0
190.409	0
190.629	0
190.849	0
191.07	0
191.29	0
191.511	0
191.731	0
191.951	0
192.172	0
192.392	0
192.612	0
192.833	0
193.053	0
193.273	0
193.493	0
193.714	0
193.934	0
194.154	0
194.374	0
194.594	0
194.815	0
195.035	0
195.255	0
195.475	0
195.695	0
195.915	0
196.135	0
196.355	0
196.575	0
196.795	0
197.015	0
197.235	0
197.455	0
197.675	0
197.895	0
198.115	0
198.335	0
198.555	0
198.775	0
198.995	0
199.214	0
199.434	0
199.654	0
199.874	0
200.094	3.05
200.313	1.89
200.533	1.48
200.753	0.66
200.973	2.83
201.192	2.46
201.412	0.73
201.632	1.31
201.851	2.4
202.071	0.33
202.291	0.97
202.51	0.6
202.73	1.53
202.95	1.37
203.169	0.85
203.389	0.93
203.608	1.09
203.828	0.76
204.047	0.88
204.267	1.3
204.486	1.15
204.706	1.31
204.925	1.09
205.145	0.66
205.364	1.3
205.583	1.84
205.803	0.61
206.022	0.46
206.242	1
206.461	1.06
206.68	0.52
206.9	0.84
207.119	1.28
207.338	1.4
207.557	0.34
207.777	0.63
207.996	0.9
208.215	1.26
208.434	0.56
208.654	0.53
208.873	1
209.092	1.31
209.311	0.69
209.53	0.47
209.749	0.72
209.968	0.56
210.187	0.69
210.407	0.02
210.626	0.53
210.845	1.15
211.064	0.52
211.283	0.53
211.502	0.78
211.721	0.7
211.94	0.44
212.159	0.63
212.377	0.98
212.596	0.81
212.815	0.76
213.034	0.58
213.253	1.05
213.472	0.83
213.691	0.57
213.91	0.53
214.128	0.43
214.347	0.9
214.566	0.04
214.785	0.12
215.003	0.84
215.222	0.62
215.441	0.42
215.66	0.13
215.878	0.28
216.097	0.71
216.316	0.4
216.534	0.41
216.753	0.73
216.972	0.51
217.19	0.41
217.409	0.21
217.627	0.43
217.846	0.46
218.064	0.42
218.283	0.17
218.501	0.97
218.72	0.61
218.938	0.27
219.157	0.27
219.375	0.73
219.594	0.61
219.812	0.22
220.031	0.22
220.249	0.7
220.467	0.86
220.686	0.41
220.904	0.09
221.122	0.36
221.341	1.01
221.559	0.46
221.777	0.12
221.995	0.45
222.214	0.5
222.432	0.33
222.65	0.66
222.868	0.48
223.086	0.43
223.305	0.56
223.523	0.31
223.741	0.74
223.959	0.39
224.177	0.04
224.395	0.34
224.613	0.55
224.831	0.63
225.049	0.19
225.267	0.24
225.485	0.34
225.703	0.3
225.921	0.46
226.139	0.25
226.357	0.67
226.575	0.49
226.793	0.21
227.011	1.08
227.229	0.38
227.447	0.55
227.665	0.44
227.883	0.24
228.1	0.23
228.318	0.43
228.536	0.14
228.754	0.29
228.972	0.43
229.189	0.55
229.407	0.37
229.625	0.31
229.843	0.51
230.06	0.56
230.278	0.17
230.496	0.29
230.713	0.39
230.931	0.45
231.149	0.27
231.366	0.14
231.584	0.31
231.801	0.7
232.019	0.31
232.236	0.16
232.454	0.23
232.671	0.4
232.889	0.28
233.106	0.25
233.324	0.34
233.541	0.38
233.759	0.28
233.976	0.16
234.194	0.41
234.411	0.23
234.628	0.19
234.846	0.3
235.063	0.29
235.28	0.32
235.498	0.2
235.715	0.16
235.932	0.49
236.149	0.26
236.367	0.22
236.584	0.34
236.801	0.37
237.018	0.38
237.236	0.28
237.453	0.11
237.67	0.37
237.887	0.32
238.104	0.21
238.321	0.15
238.538	0.29
238.755	0.49
238.973	0.15
239.19	0.3
239.407	0.32
239.624	0.32
239.841	0.1
240.058	0.11
240.275	0.33
240.492	0.25
240.709	0.25
240.925	0.28
241.142	0.15
241.359	0.17
241.576	0.23
241.793	0.15
242.01	0.28
242.227	0.44
242.444	0.29
242.66	0.31
242.877	0.24
243.094	0.29
243.311	0.29
243.527	0.28
243.744	0.38
243.961	0.4
244.178	0.24
244.394	0.26
244.611	0.36
244.828	0.43
245.044	0.16
245.261	0.2
245.477	0.33
245.694	0.33
245.911	0.19
246.127	0.19
246.344	0.33
246.56	0.29
246.777	0.2
246.993	0.2
247.21	0.31
247.426	0.38
247.643	0.21
247.859	0.19
248.076	0.18
248.292	0.44
248.508	0.18
248.725	0.31
248.941	0.28
249.157	0.36
249.374	0.19
249.59	0.24
249.806	0.19
250.023	0.41
250.239	0.16
250.455	0.23
250.671	0.22
250.888	0.22
251.104	0.29
251.32	0.14
251.536	0.22
251.752	0.13
251.969	0.2
252.185	0.25
252.401	0.42
252.617	0.3
252.833	0.19
253.049	0.28
253.265	0.22
253.481	0.21
253.697	0.19
253.913	0.15
254.129	0.28
254.345	0.22
254.561	0.18
254.777	0.11
254.993	0.24
255.209	0.31
255.425	0.2
255.641	0.2
255.857	0.35
256.073	0.27
256.288	0.15
256.504	0.09
256.72	0.28
256.936	0.36
257.152	0.19
257.367	0.21
257.583	0.24
257.799	0.32
258.015	0.15
258.23	0.19
258.446	0.43
258.662	0.19
258.877	0.17
259.093	0.14
259.309	0.25
259.524	0.3
259.74	0.16
259.955	0.13
260.171	0.25
260.387	0.21
260.602	0.23
260.818	0.25
261.033	0.09
261.249	0.18
261.464	0.18
261.68	0.13
261.895	0.22
262.11	0.28
262.326	0.2
262.541	0.12
262.757	0.28
262.972	0.17
263.187	0.21
263.403	0.23
263.618	0.31
263.833	0.19
264.049	0.09
264.264	0.17
264.479	0.19
264.694	0.35
264.91	0.13
265.125	0.13
265.34	0.34
265.555	0.33
265.77	0.25
265.986	0.13
266.201	0.24
266.416	0.31
266.631	0.18
266.846	0.27
267.061	0.29
267.276	0.27
267.491	0.04
267.706	0.26
267.921	0.24
268.136	0.15
268.351	0.24
268.566	0.1
268.781	0.24
268.996	0.22
269.211	0.17
269.426	0.15
269.641	0.17
269.856	0.31
270.071	0.08
270.285	0.05
270.5	0.24
270.715	0.29
270.93	0.2
271.145	0.21
271.359	0.22
271.574	0.11
271.789	0.17
272.004	0.14
272.218	0.15
272.433	0.21
272.648	0.09
272.862	0.26
273.077	0.19
273.292	0.2
273.506	0.14
273.721	0.17
273.936	0.22
274.15	0.22
274.365	0.15
274.579	0.23
274.794	0.24
275.008	0.29
275.223	0.02
275.437	0.15
275.652	0.27
275.866	0.22
276.081	0.17
276.295	0.23
276.509	0.19
276.724	0.19
276.938	0.15
277.153	0.22
277.367	0.24
277.581	0.17
277.796	0.12
278.01	0.14
278.224	0.23
278.438	0.32
278.653	0.16
278.867	0.12
279.081	0.05
279.295	0.16
279.51	0.19
279.724	0.1
279.938	0.24
280.152	0.16
280.366	0.12
280.58	0.18
280.794	0.25
281.008	0.24
281.222	0.25
281.437	0.32
281.651	0.23
281.865	0.3
282.079	0.13
282.293	0.04
282.507	0.12
282.721	0.17
282.935	0.13
283.148	0.09
283.362	0.18
283.576	0.08
283.79	0.15
284.004	0.07
284.218	0.28
284.432	0.11
284.646	0.15
284.859	0.11
285.073	0.15
285.287	0.19
285.501	0.16
285.714	0.12
285.928	0.16
286.142	0.18
286.356	0.17
286.569	0.12
286.783	0.28
286.997	0.21
287.21	0.24
287.424	0.18
287.637	0.15
287.851	0.16
288.065	0.17
288.278	0.14
288.492	0.18
288.705	0.15
288.919	0.18
289.132	0.1
289.346	0.26
289.559	0.06
289.773	0.13
289.986	0.16
290.2	0.18
290.413	0.23
290.626	0.16
290.84	0.13
291.053	0.14
291.267	0.22
291.48	0.16
291.693	0.17
291.906	0.14
292.12	0.14
292.333	0.17
292.546	0.15
292.76	0.22
292.973	0.14
293.186	0.16
293.399	0.14
293.612	0.19
293.826	0.12
294.039	0.15
294.252	0.13
294.465	0.18
294.678	0.19
294.891	0.17
295.104	0.12
295.317	0.18
295.53	0.17
295.743	0.13
295.956	0.18
296.169	0.22
296.382	0.18
296.595	0.18
296.808	0.12
297.021	0.23
297.234	0.22
297.447	0.12
297.66	0.21
297.873	0.22
298.086	0.2
298.299	0.1
298.511	0.09
298.724	0.14
298.937	0.07
299.15	0.15
299.363	0.16
299.575	0.2
299.788	0.19
300.001	0.13
300.213	0.13
300.426	0.15
300.639	0.15
300.852	0.1
301.064	0.19
301.277	0.23
301.489	0.19
301.702	0.17
301.915	0.18
302.127	0.17
302.34	0.2
302.552	0.21
302.765	0.14
302.977	0.18
303.19	0.13
303.402	0.14
303.615	0.18
303.827	0.11
304.04	0.18
304.252	0.16
304.464	0.13
304.677	0.26
304.889	0.22
305.102	0.09
305.314	0.1
305.526	0.2
305.739	0.22
305.951	0.11
306.163	0.13
306.375	0.23
306.588	0.11
306.8	0.14
307.012	0.1
307.224	0.17
307.436	0.22
307.649	0.11
307.861	0.17
308.073	0.17
308.285	0.13
308.497	0.13
308.709	0.1
308.921	0.16
309.133	0.21
309.346	0.15
309.558	0.15
309.77	0.23
309.982	0.24
310.194	0.14
310.406	0.09
310.617	0.26
310.829	0.13
311.041	0.2
311.253	0.12
311.465	0.15
311.677	0.13
311.889	0.15
312.101	0.1
312.313	0.21
312.524	0.23
312.736	0.08
312.948	0.11
313.16	0.26
313.372	0.19
313.583	0.12
313.795	0.1
314.007	0.14
314.218	0.17
314.43	0.13
314.642	0.11
314.853	0.1
315.065	0.15
315.277	0.13
315.488	0.17
315.7	0.16
315.912	0.19
316.123	0.17
316.335	0.12
316.546	0.21
316.758	0.09
316.969	0.14
317.181	0.13
317.392	0.13
317.604	0.23
317.815	0.09
318.026	0.11
318.238	0.13
318.449	0.18
318.661	0.07
318.872	0.07
319.083	0.1
319.295	0.19
319.506	0.08
319.717	0.14
319.929	0.15
320.14	0.15
320.351	0.15
320.562	0.11
320.774	0.21
320.985	0.15
321.196	0.13
321.407	0.05
321.618	0.2
321.829	0.15
322.041	0.12
322.252	0.15
322.463	0.19
322.674	0.16
322.885	0.12
323.096	0.12
323.307	0.12
323.518	0.15
323.729	0.12
323.94	0.11
324.151	0.16
324.362	0.18
324.573	0.14
324.784	0.08
324.995	0.19
325.206	0.15
325.417	0.16
325.628	0.14
325.838	0.17
326.049	0.15
326.26	0.16
326.471	0.12
326.682	0.21
326.892	0.17
327.103	0.08
327.314	0.12
327.525	0.22
327.735	0.15
327.946	0.13
328.157	0.08
328.368	0.18
328.578	0.12
328.789	0.16
328.999	0.15
329.21	0.15
329.421	0.2
329.631	0.12
329.842	0.12
330.052	0.16
330.263	0.21
330.473	0.2
330.684	0.14
330.894	0.11
331.105	0.2
331.315	0.14
331.526	0.07
331.736	0.23
331.947	0.16
332.157	0.13
332.367	0.06
332.578	0.16
332.788	0.22
332.999	0.17
333.209	0.14
333.419	0.07
333.629	0.16
333.84	0.17
334.05	0.16
334.26	0.23
334.47	0.18
334.681	0.19
334.891	0.11
335.101	0.18
335.311	0.23
335.521	0.11
335.732	0.09
335.942	0.24
336.152	0.17
336.362	0.17
336.572	0.14
336.782	0.21
336.992	0.1
337.202	0.14
337.412	0.08
337.622	0.19
337.832	0.11
338.042	0.14
338.252	0.1
338.462	0.14
338.672	0.15
338.882	0.16
339.092	0.16
339.302	0.21
339.511	0.15
339.721	0.12
339.931	0.12
340.141	0.18
340.351	0.22
340.561	0.18
340.77	0.18
340.98	0.19
341.19	0.15
341.4	0.09
341.609	0.1
341.819	0.11
342.029	0.11
342.238	0.17
342.448	0.09
342.658	0.13
342.867	0.11
343.077	0.14
343.286	0.17
343.496	0.18
343.706	0.2
343.915	0.09
344.125	0.13
344.334	0.19
344.544	0.08
344.753	0.13
344.963	0.14
345.172	0.11
345.381	0.14
345.591	0.15
345.8	0.13
346.01	0.18
346.219	0.15
346.428	0.04
346.638	0.14
346.847	0.15
347.056	0.21
347.266	0.12
347.475	0.13
347.684	0.18
347.893	0.18
348.103	0.15
348.312	0.09
348.521	0.13
348.73	0.18
348.94	0.14
349.149	0.1
349.358	0.09
349.567	0.14
349.776	0.1
349.985	0.1
350.194	0.18
350.403	0.18
350.612	0.07
350.821	0.16
351.03	0.13
351.239	0.1
351.448	0.11
351.657	0.11
351.866	0.28
352.075	0.17
352.284	0.2
352.493	0.09
352.702	0.17
352.911	0.17
353.12	0.16
353.329	0.12
353.538	0.2
353.746	0.12
353.955	0.11
354.164	0.18
354.373	0.13
354.582	0.18
354.79	0.12
354.999	0.15
355.208	0.13
355.416	0.19
355.625	0.05
355.834	0.13
356.042	0.2
356.251	0.13
356.46	0.12
356.668	0.2
356.877	0.22
357.085	0.17
357.294	0.07
357.503	0.19
357.711	0.15
357.92	0.25
358.128	0.15
358.337	0.09
358.545	0.16
358.754	0.13
358.962	0.2
359.17	0.14
359.379	0.17
359.587	0.18
359.796	0.1
360.004	0.2
360.212	0.17
360.421	0.18
360.629	0.16
360.837	0.12
361.046	0.2
361.254	0.28
361.462	0.14
361.67	0.16
361.879	0.15
362.087	0.19
362.295	0.17
362.503	0.12
362.711	0.1
362.92	0.14
363.128	0.11
363.336	0.09
363.544	0.07
363.752	0.1
363.96	0.15
364.168	0.11
364.376	0.13
364.584	0.1
364.792	0.19
365	0.16
365.208	0.13
365.416	0.19
365.624	0.18
365.832	0.13
366.04	0.2
366.248	0.13
366.456	0.16
366.664	0.15
366.872	0.14
367.079	0.11
367.287	0.13
367.495	0.15
367.703	0.15
367.911	0.14
368.118	0.17
368.326	0.14
368.534	0.11
368.742	0.2
368.949	0.09
369.157	0.1
369.365	0.18
369.572	0.15
369.78	0.1
369.988	0.22
370.195	0.15
370.403	0.17
370.61	0.13
370.818	0.16
371.026	0.23
371.233	0.12
371.441	0.13
371.648	0.11
371.856	0.18
372.063	0.17
372.271	0.15
372.478	0.11
372.685	0.09
372.893	0.24
373.1	0.14
373.308	0.12
373.515	0.2
373.722	0.18
373.93	0.12
374.137	0.14
374.344	0.22
374.552	0.21
374.759	0.2
374.966	0.13
375.173	0.14
375.381	0.16
375.588	0.12
375.795	0.09
376.002	0.15
376.209	0.1
376.417	0.11
376.624	0.16
376.831	0.17
377.038	0.11
377.245	0.08
377.452	0.14
377.659	0.19
377.866	0.1
378.073	0.13
378.28	0.15
378.487	0.18
378.694	0.19
378.901	0.17
379.108	0.11
379.315	0.21
379.522	0.22
379.729	0.18
379.936	0.12
380.143	0.17
380.35	0.17
380.557	0.17
380.763	0.14
380.97	0.14
381.177	0.16
381.384	0.16
381.591	0.18
381.797	0.18
382.004	0.16
382.211	0.16
382.418	0.07
382.624	0.21
382.831	0.18
383.038	0.15
383.244	0.17
383.451	0.15
383.658	0.2
383.864	0.11
384.071	0.14
384.277	0.21
384.484	0.12
384.69	0.18
384.897	0.16
385.103	0.16
385.31	0.15
385.516	0.14
385.723	0.1
385.929	0.15
386.136	0.1
386.342	0.19
386.549	0.15
386.755	0.22
386.961	0.2
387.168	0.15
387.374	0.15
387.58	0.22
387.787	0.15
387.993	0.19
388.199	0.16
388.406	0.11
388.612	0.19
388.818	0.12
389.024	0.15
389.231	0.18
389.437	0.29
389.643	0.17
389.849	0.2
390.055	0.16
390.261	0.14
390.467	0.17
390.674	0.11
390.88	0.17
391.086	0.18
391.292	0.12
391.498	0.19
391.704	0.18
391.91	0.17
392.116	0.13
392.322	0.05
392.528	0.19
392.734	0.17
392.94	0.14
393.146	0.12
393.352	0.19
393.557	0.12
393.763	0.16
393.969	0.17
394.175	0.17
394.381	0.16
394.587	0.1
394.792	0.16
394.998	0.19
395.204	0.26
395.41	0.13
395.615	0.2
395.821	0.22
396.027	0.19
396.233	0.17
396.438	0.19
396.644	0.21
396.85	0.28
397.055	0.14
397.261	0.2
397.466	0.14
397.672	0.15
397.878	0.22
398.083	0.2
398.289	0.15
398.494	0.23
398.7	0.24
398.905	0.11
399.111	0.32
399.316	0.13
399.522	0.18
399.727	0.17
399.932	0.24
400.138	0.17
400.343	0.24
400.549	0.19
400.754	0.24
400.959	0.22
401.165	0.21
401.37	0.21
401.575	0.33
401.78	0.21
401.986	0.17
402.191	0.19
402.396	0.21
402.601	0.22
402.807	0.2
403.012	0.24
403.217	0.28
403.422	0.19
403.627	0.2
403.832	0.22
404.037	0.31
404.243	0.24
404.448	0.18
404.653	0.23
404.858	0.28
405.063	0.28
405.268	0.18
405.473	0.16
405.678	0.2
405.883	0.41
406.088	0.28
406.293	0.22
406.498	0.19
406.703	0.26
406.907	0.21
407.112	0.19
407.317	0.25
407.522	0.31
407.727	0.21
407.932	0.28
408.136	0.36
408.341	0.28
408.546	0.25
408.751	0.29
408.956	0.28
409.16	0.33
409.365	0.28
409.57	0.32
409.774	0.29
409.979	0.4
410.184	0.3
410.388	0.3
410.593	0.35
410.798	0.35
411.002	0.34
411.207	0.44
411.411	0.35
411.616	0.36
411.82	0.36
412.025	0.46
412.229	0.38
412.434	0.47
412.638	0.47
412.843	0.42
413.047	0.48
413.252	0.43
413.456	0.46
413.66	0.51
413.865	0.46
414.069	0.58
414.273	0.5
414.478	0.5
414.682	0.54
414.886	0.56
415.091	0.54
415.295	0.54
415.499	0.68
415.703	0.62
415.908	0.67
416.112	0.6
416.316	0.78
416.52	0.68
416.724	0.67
416.929	0.75
417.133	0.9
417.337	0.83
417.541	0.85
417.745	0.84
417.949	0.95
418.153	0.96
418.357	0.93
418.561	1.09
418.765	1.03
418.969	1.15
419.173	1.23
419.377	1.1
419.581	1.27
419.785	1.22
419.989	1.27
420.193	1.29
420.397	1.35
420.601	1.44
420.804	1.51
421.008	1.45
421.212	1.51
421.416	1.57
421.62	1.6
421.823	1.54
422.027	1.74
422.231	1.68
422.435	1.69
422.638	1.76
422.842	1.75
423.046	1.76
423.249	1.97
423.453	1.89
423.657	1.95
423.86	2
424.064	2.09
424.268	2.22
424.471	2.07
424.675	2.28
424.878	2.37
425.082	2.35
425.285	2.49
425.489	2.43
425.692	2.56
425.896	2.56
426.099	2.7
426.303	2.67
426.506	2.76
426.71	2.92
426.913	3.04
427.116	3.09
427.32	3.11
427.523	3.1
427.726	3.24
427.93	3.32
428.133	3.4
428.336	3.47
428.54	3.62
428.743	3.71
428.946	3.9
429.149	3.87
429.353	3.86
429.556	3.9
429.759	3.91
429.962	3.9
430.165	4.01
430.368	3.91
430.571	3.85
430.775	3.94
430.978	3.89
431.181	3.96
431.384	4.04
431.587	4.09
431.79	4.2
431.993	4.14
432.196	4.34
432.399	4.55
432.602	4.53
432.805	4.58
433.008	5.01
433.211	4.81
433.414	5.04
433.616	5.02
433.819	5.02
434.022	5.01
434.225	5.21
434.428	5.24
434.631	5.41
434.833	5.3
435.036	5.48
435.239	5.57
435.442	5.52
435.645	5.63
435.847	5.73
436.05	5.95
436.253	6.08
436.455	6
436.658	5.86
436.861	6.13
437.063	6.2
437.266	6.09
437.468	6.3
437.671	6.51
437.874	6.61
438.076	6.39
438.279	6.66
438.481	6.85
438.684	7.15
438.886	7.04
439.089	7.13
439.291	7.14
439.494	7.38
439.696	7.4
439.899	7.76
440.101	7.98
440.303	8.04
440.506	8.44
440.708	8.35
440.91	8.46
441.113	8.64
441.315	8.86
441.517	8.72
441.72	8.96
441.922	8.75
442.124	8.74
442.326	9.05
442.529	9.14
442.731	9.12
442.933	9.37
443.135	9.16
443.337	9.25
443.539	9.47
443.742	9.33
443.944	9.8
444.146	9.66
444.348	9.65
444.55	9.66
444.752	9.66
444.954	9.76
445.156	9.81
445.358	9.94
445.56	10.14
445.762	9.98
445.964	10.43
446.166	10.02
446.368	10.1
446.57	10.15
446.772	10.02
446.974	9.82
447.175	9.88
447.377	9.93
447.579	10.06
447.781	9.92
447.983	9.91
448.184	9.65
448.386	9.86
448.588	9.59
448.79	9.57
448.991	9.7
449.193	9.75
449.395	9.45
449.597	9.24
449.798	9.2
450	8.97
450.202	8.88
450.403	9.02
450.605	8.98
450.806	8.65
451.008	8.47
451.21	8.46
451.411	8.27
451.613	7.86
451.814	7.98
452.016	7.9
452.217	7.52
452.419	7.51
452.62	7.37
452.821	7.21
453.023	7.2
453.224	6.96
453.426	6.62
453.627	6.21
453.828	6.32
454.03	6.33
454.231	6.28
454.432	6.22
454.634	6.09
454.835	5.83
455.036	5.8
455.238	5.69
455.439	5.55
455.64	5.26
455.841	5.21
456.042	5.4
456.244	5.1
456.445	4.87
456.646	4.72
456.847	4.71
457.048	4.68
457.249	4.67
457.45	4.69
457.651	4.19
457.852	4.2
458.054	3.98
458.255	3.99
458.456	4.05
458.657	3.87
458.858	3.71
459.058	3.68
459.259	3.79
459.46	3.48
459.661	3.59
459.862	3.67
460.063	3.47
460.264	3.43
460.465	3.29
460.666	3.42
460.866	3.13
461.067	3
461.268	3.07
461.469	2.98
461.67	2.94
461.87	2.88
462.071	2.83
462.272	2.79
462.473	2.79
462.673	2.96
462.874	2.8
463.075	2.81
463.275	2.8
463.476	2.85
463.676	2.75
463.877	2.69
464.078	2.7
464.278	2.73
464.479	2.66
464.679	2.65
464.88	2.58
465.08	2.61
465.281	2.48
465.481	2.32
465.682	2.24
465.882	2.3
466.083	2.23
466.283	2.16
466.483	2.13
466.684	1.98
466.884	1.95
467.085	2.03
467.285	2.03
467.485	1.98
467.686	1.9
467.886	1.83
468.086	1.84
468.286	1.83
468.487	1.86
468.687	1.77
468.887	1.71
469.087	1.78
469.287	1.8
469.488	1.62
469.688	1.75
469.888	1.76
470.088	1.68
470.288	1.67
470.488	1.66
470.688	1.51
470.888	1.54
471.088	1.44
471.288	1.55
471.488	1.52
471.688	1.48
471.888	1.4
472.088	1.53
472.288	1.48
472.488	1.31
472.688	1.35
472.888	1.42
473.088	1.41
473.288	1.31
473.488	1.3
473.688	1.44
473.887	1.36
474.087	1.3
474.287	1.31
474.487	1.25
474.687	1.31
474.886	1.23
475.086	1.2
475.286	1.18
475.486	1.25
475.685	1.2
475.885	1.14
476.085	1.24
476.284	1.22
476.484	1.2
476.684	1.18
476.883	1.26
477.083	1.15
477.282	1.13
477.482	1.22
477.681	1.13
477.881	1.11
478.08	1.09
478.28	1.06
478.479	1.13
478.679	1.17
478.878	1.11
479.078	1.08
479.277	1.1
479.477	1.12
479.676	1.12
479.875	1.09
480.075	1.03
480.274	1.08
480.473	1.14
480.673	1.06
480.872	1.13
481.071	1.06
481.271	1.08
481.47	1.06
481.669	1.06
481.868	1.05
482.067	1.04
482.267	0.99
482.466	1
482.665	1.02
482.864	1
483.063	1.04
483.262	1.05
483.461	1.11
483.661	1.11
483.86	1.04
484.059	1.12
484.258	1.06
484.457	1.06
484.656	1.04
484.855	1.11
485.054	0.99
485.253	1.06
485.452	1
485.651	1.13
485.849	1.07
486.048	1.05
486.247	1.06
486.446	1.11
486.645	1.08
486.844	1.06
487.043	1.06
487.241	1.11
487.44	1.06
487.639	1.12
487.838	1.14
488.037	1.14
488.235	1.21
488.434	1.13
488.633	1.07
488.831	1.16
489.03	1.16
489.229	1.15
489.427	1.17
489.626	1.2
489.825	1.25
490.023	1.21
490.222	1.18
490.42	1.26
490.619	1.29
490.817	1.27
491.016	1.22
491.214	1.29
491.413	1.29
491.611	1.26
491.81	1.26
492.008	1.32
492.207	1.37
492.405	1.36
492.604	1.33
492.802	1.37
493	1.37
493.199	1.38
493.397	1.41
493.595	1.45
493.794	1.39
493.992	1.5
494.19	1.47
494.388	1.54
494.587	1.44
494.785	1.54
494.983	1.46
495.181	1.51
495.379	1.54
495.578	1.6
495.776	1.58
495.974	1.57
496.172	1.59
496.37	1.66
496.568	1.66
496.766	1.64
496.964	1.74
497.162	1.72
497.36	1.72
497.558	1.75
497.756	1.77
497.954	1.79
498.152	1.78
498.35	1.9
498.548	1.8
498.746	1.84
498.944	1.82
499.142	1.87
499.34	1.9
499.538	1.99
499.736	1.88
499.933	1.98
500.131	1.99
500.329	2.05
500.527	2.05
500.725	2.09
500.922	2.14
501.12	2.14
501.318	2.11
501.516	2.11
501.713	2.18
501.911	2.18
502.109	2.15
502.306	2.21
502.504	2.16
502.701	2.24
502.899	2.31
503.097	2.39
503.294	2.31
503.492	2.39
503.689	2.38
503.887	2.41
504.084	2.47
504.282	2.41
504.479	2.43
504.677	2.51
504.874	2.45
505.072	2.48
505.269	2.58
505.466	2.53
505.664	2.6
505.861	2.51
506.059	2.57
506.256	2.63
506.453	2.6
506.651	2.73
506.848	2.75
507.045	2.75
507.242	2.76
507.44	2.72
507.637	2.78
507.834	2.77
508.031	2.88
508.229	2.82
508.426	2.82
508.623	2.91
508.82	2.91
509.017	2.89
509.214	2.92
509.411	3.01
509.608	2.92
509.805	3.03
510.003	2.99
510.2	3.01
510.397	3.14
510.594	3.01
510.791	3.1
510.988	3.1
511.184	3.13
511.381	3.02
511.578	3.1
511.775	3.17
511.972	3.14
512.169	3.16
512.366	3.22
512.563	3.33
512.76	3.29
512.956	3.28
513.153	3.3
513.35	3.23
513.547	3.25
513.744	3.28
513.94	3.27
514.137	3.33
514.334	3.37
514.53	3.38
514.727	3.54
514.924	3.49
515.12	3.44
515.317	3.44
515.514	3.43
515.71	3.37
515.907	3.57
516.103	3.55
516.3	3.48
516.497	3.59
516.693	3.6
516.89	3.54
517.086	3.56
517.283	3.64
517.479	3.57
517.676	3.66
517.872	3.67
518.068	3.66
518.265	3.66
518.461	3.62
518.658	3.7
518.854	3.68
519.05	3.76
519.247	3.77
519.443	3.73
519.639	3.84
519.836	3.7
520.032	3.75
520.228	3.81
520.424	3.78
520.621	3.83
520.817	3.81
521.013	3.82
521.209	3.88
521.405	3.96
521.601	3.88
521.798	3.84
521.994	3.92
522.19	3.82
522.386	3.85
522.582	3.95
522.778	4.01
522.974	3.87
523.17	3.94
523.366	3.92
523.562	3.99
523.758	3.95
523.954	3.85
524.15	4
524.346	3.99
524.542	4.03
524.738	3.98
524.934	4.06
525.129	4.02
525.325	4
525.521	3.98
525.717	4.12
525.913	4.04
526.109	4.11
526.304	4.13
526.5	4.07
526.696	4.1
526.892	4.07
527.087	4.2
527.283	4.1
527.479	4.12
527.674	4.04
527.87	4.15
528.066	4.14
528.261	4.16
528.457	4.04
528.653	4.2
528.848	4.17
529.044	4.24
529.239	4.14
529.435	4.2
529.63	4.15
529.826	4.19
530.021	4.17
530.217	4.2
530.412	4.16
530.608	4.2
530.803	4.15
530.999	4.17
531.194	4.2
531.389	4.25
531.585	4.16
531.78	4.28
531.975	4.24
532.171	4.26
532.366	4.24
532.561	4.23
532.757	4.26
532.952	4.33
533.147	4.2
533.342	4.23
533.538	4.22
533.733	4.31
533.928	4.15
534.123	4.26
534.318	4.33
534.513	4.31
534.709	4.38
534.904	4.3
535.099	4.36
535.294	4.35
535.489	4.33
535.684	4.3
535.879	4.33
536.074	4.32
536.269	4.38
536.464	4.41
536.659	4.36
536.854	4.37
537.049	4.37
537.244	4.33
537.439	4.34
537.634	4.35
537.828	4.38
538.023	4.35
538.218	4.37
538.413	4.31
538.608	4.34
538.803	4.39
538.997	4.32
539.192	4.41
539.387	4.35
539.582	4.36
539.776	4.29
539.971	4.35
540.166	4.39
540.36	4.34
540.555	4.45
540.75	4.41
540.944	4.41
541.139	4.41
541.334	4.4
541.528	4.46
541.723	4.47
541.917	4.42
542.112	4.35
542.306	4.31
542.501	4.34
542.695	4.42
542.89	4.35
543.084	4.38
543.279	4.43
543.473	4.45
543.668	4.46
543.862	4.38
544.056	4.34
544.251	4.41
544.445	4.46
544.64	4.46
544.834	4.29
545.028	4.23
545.222	4.41
545.417	4.55
545.611	4.44
545.805	4.43
546	4.28
546.194	4.45
546.388	4.43
546.582	4.4
546.776	4.42
546.97	4.42
547.165	4.41
547.359	4.43
547.553	4.35
547.747	4.44
547.941	4.51
548.135	4.39
548.329	4.44
548.523	4.46
548.717	4.37
548.911	4.38
549.105	4.42
549.299	4.45
549.493	4.48
549.687	4.36
549.881	4.49
550.075	4.45
550.269	4.4
550.463	4.5
550.657	4.47
550.85	4.42
551.044	4.43
551.238	4.46
551.432	4.42
551.626	4.43
551.82	4.44
552.013	4.33
552.207	4.46
552.401	4.52
552.594	4.43
552.788	4.36
552.982	4.38
553.176	4.38
553.369	4.47
553.563	4.47
553.756	4.41
553.95	4.47
554.144	4.47
554.337	4.5
554.531	4.37
554.724	4.43
554.918	4.46
555.111	4.43
555.305	4.47
555.498	4.47
555.692	4.5
555.885	4.49
556.079	4.46
556.272	4.42
556.466	4.45
556.659	4.42
556.852	4.48
557.046	4.37
557.239	4.39
557.432	4.43
557.626	4.46
557.819	4.47
558.012	4.47
558.206	4.55
558.399	4.46
558.592	4.47
558.785	4.38
558.979	4.48
559.172	4.42
559.365	4.47
559.558	4.39
559.751	4.41
559.944	4.53
560.138	4.41
560.331	4.45
560.524	4.48
560.717	4.45
560.91	4.48
561.103	4.45
561.296	4.38
561.489	4.5
561.682	4.5
561.875	4.43
562.068	4.52
562.261	4.41
562.454	4.54
562.647	4.43
562.84	4.52
563.032	4.47
563.225	4.41
563.418	4.42
563.611	4.49
563.804	4.46
563.997	4.36
564.19	4.27
564.382	4.54
564.575	4.47
564.768	4.35
564.961	4.46
565.153	4.43
565.346	4.38
565.539	4.5
565.731	4.48
565.924	4.5
566.117	4.56
566.309	4.49
566.502	4.44
566.695	4.4
566.887	4.44
567.08	4.41
567.272	4.43
567.465	4.41
567.657	4.51
567.85	4.4
568.042	4.46
568.235	4.48
568.427	4.29
568.62	4.43
568.812	4.47
569.005	4.45
569.197	4.36
569.389	4.42
569.582	4.4
569.774	4.45
569.966	4.39
570.159	4.31
570.351	4.37
570.543	4.41
570.736	4.43
570.928	4.28
571.12	4.4
571.312	4.39
571.505	4.23
571.697	4.45
571.889	4.42
572.081	4.44
572.273	4.36
572.465	4.41
572.658	4.4
572.85	4.44
573.042	4.4
573.234	4.39
573.426	4.38
573.618	4.32
573.81	4.43
574.002	4.37
574.194	4.41
574.386	4.27
574.578	4.23
574.77	4.33
574.962	4.38
575.154	4.29
575.346	4.33
575.538	4.3
575.729	4.3
575.921	4.38
576.113	4.38
576.305	4.35
576.497	4.38
576.689	4.27
576.88	4.25
577.072	4.33
577.264	4.34
577.456	4.37
577.647	4.24
577.839	4.35
578.031	4.32
578.223	4.26
578.414	4.24
578.606	4.34
578.798	4.31
578.989	4.26
579.181	4.38
579.372	4.3
579.564	4.25
579.755	4.29
579.947	4.22
580.139	4.34
580.33	4.16
580.522	4.26
580.713	4.24
580.905	4.27
581.096	4.31
581.287	4.22
581.479	4.22
581.67	4.35
581.862	4.18
582.053	4.24
582.244	4.11
582.436	4.26
582.627	4.18
582.818	4.19
583.01	4.24
583.201	4.25
583.392	4.2
583.583	4.2
583.775	4.11
583.966	4.23
584.157	4.2
584.348	4.27
584.54	4.15
584.731	4.19
584.922	4.16
585.113	4.12
585.304	4.19
585.495	4.18
585.686	4.23
585.877	4.25
586.068	4.25
586.259	4.15
586.45	4.18
586.641	4.16
586.832	4.16
587.023	4.15
587.214	4.1
587.405	4.18
587.596	4.02
587.787	4.14
587.978	4.13
588.169	4.05
588.36	4.09
588.551	4.09
588.742	4.11
588.932	4.1
589.123	3.97
589.314	4.15
589.505	4.03
589.696	4.08
589.886	4.03
590.077	4.01
590.268	3.99
590.458	3.9
590.649	3.96
590.84	4.05
591.03	3.99
591.221	3.97
591.412	3.89
591.602	4.08
591.793	4.04
591.984	3.98
592.174	3.95
592.365	4.11
592.555	3.91
592.746	3.89
592.936	3.95
593.127	3.97
593.317	3.97
593.508	3.94
593.698	3.9
593.889	3.92
594.079	3.93
594.269	3.85
594.46	3.86
594.65	3.92
594.84	3.87
595.031	3.84
595.221	3.89
595.411	3.87
595.602	3.88
595.792	3.8
595.982	3.77
596.172	3.91
596.363	3.78
596.553	3.8
596.743	3.82
596.933	3.81
597.123	3.81
597.314	3.72
597.504	3.73
597.694	3.84
597.884	3.81
598.074	3.81
598.264	3.72
598.454	3.74
598.644	3.77
598.834	3.72
599.024	3.68
599.214	3.71
599.404	3.73
599.594	3.71
599.784	3.62
599.974	3.71
600.164	3.71
600.354	3.61
600.544	3.64
600.734	3.69
600.924	3.66
601.114	3.58
601.303	3.61
601.493	3.61
601.683	3.64
601.873	3.63
602.063	3.54
602.252	3.6
602.442	3.54
602.632	3.56
602.821	3.53
603.011	3.53
603.201	3.53
603.39	3.52
603.58	3.45
603.77	3.53
603.959	3.54
604.149	3.51
604.339	3.48
604.528	3.54
604.718	3.5
604.907	3.43
605.097	3.45
605.286	3.46
605.476	3.46
605.665	3.48
605.855	3.4
606.044	3.47
606.234	3.47
606.423	3.44
606.612	3.4
606.802	3.42
606.991	3.43
607.181	3.4
607.37	3.37
607.559	3.23
607.749	3.33
607.938	3.3
608.127	3.34
608.316	3.35
608.506	3.27
608.695	3.38
608.884	3.3
609.073	3.3
609.263	3.36
609.452	3.35
609.641	3.25
609.83	3.2
610.019	3.23
610.208	3.26
610.397	3.22
610.586	3.24
610.775	3.17
610.965	3.23
611.154	3.14
611.343	3.22
611.532	3.1
611.721	3.21
611.91	3.16
612.099	3.1
612.287	3.11
612.476	3.03
612.665	3.16
612.854	3.02
613.043	3.08
613.232	3.09
613.421	3
613.61	3.11
613.798	3.05
613.987	3.06
614.176	3.03
614.365	3.09
614.554	3.01
614.742	3.06
614.931	2.96
615.12	3.07
615.309	3.03
615.497	2.94
615.686	2.87
615.875	2.94
616.063	2.92
616.252	2.95
616.44	2.93
616.629	2.92
616.818	2.99
617.006	2.9
617.195	2.88
617.383	2.95
617.572	2.85
617.76	2.84
617.949	2.86
618.137	2.92
618.326	2.87
618.514	2.72
618.703	2.73
618.891	2.85
619.079	2.78
619.268	2.81
619.456	2.71
619.644	2.81
619.833	2.77
620.021	2.74
620.209	2.71
620.398	2.74
620.586	2.69
620.774	2.75
620.962	2.68
621.151	2.77
621.339	2.72
621.527	2.66
621.715	2.66
621.903	2.66
622.092	2.61
622.28	2.7
622.468	2.56
622.656	2.65
622.844	2.6
623.032	2.67
623.22	2.56
623.408	2.65
623.596	2.59
623.784	2.68
623.972	2.53
624.16	2.51
624.348	2.59
624.536	2.59
624.724	2.52
624.912	2.57
625.1	2.55
625.288	2.55
625.476	2.47
625.664	2.51
625.851	2.47
626.039	2.48
626.227	2.47
626.415	2.46
626.603	2.39
626.79	2.47
626.978	2.41
627.166	2.47
627.354	2.38
627.541	2.37
627.729	2.28
627.917	2.44
628.104	2.39
628.292	2.34
628.48	2.34
628.667	2.33
628.855	2.37
629.042	2.4
629.23	2.33
629.418	2.31
629.605	2.31
629.793	2.29
629.98	2.27
630.168	2.25
630.355	2.27
630.543	2.26
630.73	2.21
630.917	2.25
631.105	2.31
631.292	2.24
631.48	2.24
631.667	2.36
631.854	2.23
632.042	2.19
632.229	2.15
632.416	2.18
632.604	2.16
632.791	2.1
632.978	2.21
633.165	2.19
633.353	2.16
633.54	2.21
633.727	2.03
633.914	2.11
634.101	2.04
634.289	2.16
634.476	2.01
634.663	2.03
634.85	2.06
635.037	2.06
635.224	1.97
635.411	2.07
635.598	2.06
635.785	1.99
635.972	2.02
636.159	2.03
636.346	1.97
636.533	1.98
636.72	1.98
636.907	1.98
637.094	1.97
637.281	1.91
637.468	1.97
637.655	1.95
637.842	1.93
638.029	1.9
638.215	1.9
638.402	1.93
638.589	1.9
638.776	1.93
638.963	1.89
639.149	1.92
639.336	1.98
639.523	1.88
639.709	1.87
639.896	1.85
640.083	1.88
640.27	1.87
640.456	1.84
640.643	1.82
640.829	1.75
641.016	1.76
641.203	1.76
641.389	1.82
641.576	1.8
641.762	1.78
641.949	1.7
642.135	1.81
642.322	1.76
642.508	1.69
642.695	1.74
642.881	1.68
643.068	1.67
643.254	1.69
643.441	1.76
643.627	1.71
643.813	1.64
644	1.69
644.186	1.61
644.372	1.68
644.559	1.69
644.745	1.65
644.931	1.61
645.118	1.64
645.304	1.65
645.49	1.59
645.676	1.57
645.862	1.58
646.049	1.68
646.235	1.57
646.421	1.7
646.607	1.68
646.793	1.51
646.979	1.53
647.165	1.55
647.352	1.61
647.538	1.59
647.724	1.51
647.91	1.51
648.096	1.58
648.282	1.56
648.468	1.52
648.654	1.51
648.84	1.54
649.026	1.44
649.212	1.48
649.397	1.47
649.583	1.46
649.769	1.51
649.955	1.48
650.141	1.46
650.327	1.46
650.513	1.42
650.698	1.48
650.884	1.32
651.07	1.45
651.256	1.44
651.442	1.37
651.627	1.36
651.813	1.44
651.999	1.41
652.184	1.4
652.37	1.36
652.556	1.37
652.741	1.43
652.927	1.26
653.113	1.33
653.298	1.35
653.484	1.37
653.669	1.32
653.855	1.32
654.04	1.32
654.226	1.3
654.412	1.31
654.597	1.25
654.782	1.31
654.968	1.31
655.153	1.31
655.339	1.22
655.524	1.24
655.71	1.32
655.895	1.28
656.08	1.27
656.266	1.29
656.451	1.23
656.636	1.18
656.822	1.25
657.007	1.23
657.192	1.2
657.378	1.17
657.563	1.22
657.748	1.21
657.933	1.23
658.118	1.15
658.304	1.2
658.489	1.21
658.674	1.16
658.859	1.13
659.044	1.17
659.229	1.2
659.414	1.13
659.599	1.12
659.785	1.1
659.97	1.15
660.155	1.17
660.34	1.18
660.525	1.13
660.71	1.14
660.895	1.15
661.08	1.1
661.264	1.11
661.449	1.16
661.634	1.16
661.819	1.14
662.004	1.09
662.189	1.04
662.374	1.07
662.559	1.04
662.743	1.01
662.928	1.04
663.113	1.07
663.298	0.98
663.483	1.03
663.667	1.04
663.852	1.02
664.037	1.07
664.221	1.03
664.406	1.08
664.591	1.07
664.775	1.07
664.96	1
665.145	1.01
665.329	1.02
665.514	0.95
665.698	1.01
665.883	0.92
666.068	1.01
666.252	0.96
666.437	0.92
666.621	0.96
666.806	1.01
666.99	0.96
667.174	0.94
667.359	1.01
667.543	0.98
667.728	0.97
667.912	0.83
668.096	0.97
668.281	0.91
668.465	0.92
668.649	0.89
668.834	0.89
669.018	0.94
669.202	0.91
669.387	0.87
669.571	0.94
669.755	0.84
669.939	0.9
670.124	0.88
670.308	0.89
670.492	0.89
670.676	0.92
670.86	0.82
671.044	0.8
671.228	0.9
671.413	0.85
671.597	0.86
671.781	0.82
671.965	0.87
672.149	0.86
672.333	0.86
672.517	0.79
672.701	0.86
672.885	0.8
673.069	0.76
673.253	0.89
673.437	0.82
673.621	0.78
673.804	0.83
673.988	0.84
674.172	0.79
674.356	0.71
674.54	0.8
674.724	0.9
674.908	0.75
675.091	0.84
675.275	0.82
675.459	0.82
675.643	0.75
675.826	0.8
676.01	0.79
676.194	0.77
676.377	0.81
676.561	0.78
676.745	0.76
676.928	0.78
677.112	0.82
677.296	0.75
677.479	0.74
677.663	0.69
677.846	0.72
678.03	0.78
678.213	0.69
678.397	0.8
678.58	0.7
678.764	0.67
678.947	0.68
679.131	0.67
679.314	0.75
679.498	0.72
679.681	0.74
679.865	0.77
680.048	0.67
680.231	0.71
680.415	0.65
680.598	0.72
680.781	0.62
680.965	0.69
681.148	0.77
681.331	0.61
681.514	0.7
681.698	0.64
681.881	0.7
682.064	0.72
682.247	0.67
682.43	0.61
682.614	0.68
682.797	0.69
682.98	0.7
683.163	0.57
683.346	0.68
683.529	0.66
683.712	0.61
683.895	0.67
684.078	0.57
684.261	0.65
684.444	0.62
684.627	0.64
684.81	0.57
684.993	0.63
685.176	0.65
685.359	0.57
685.542	0.56
685.725	0.72
685.908	0.6
686.091	0.55
686.274	0.64
686.457	0.68
686.639	0.57
686.822	0.66
687.005	0.6
687.188	0.69
687.371	0.69
687.553	0.64
687.736	0.66
687.919	0.69
688.102	0.66
688.284	0.58
688.467	0.6
688.65	0.55
688.832	0.48
689.015	0.53
689.197	0.39
689.38	0.69
689.563	0.67
689.745	0.51
689.928	0.55
690.11	0.55
690.293	0.55
690.475	0.48
690.658	0.52
690.84	0.54
691.023	0.54
691.205	0.52
691.388	0.59
691.57	0.59
691.752	0.55
691.935	0.43
692.117	0.47
692.3	0.52
692.482	0.49
692.664	0.48
692.847	0.48
693.029	0.58
693.211	0.57
693.393	0.48
693.576	0.43
693.758	0.48
693.94	0.55
694.122	0.52
694.304	0.51
694.487	0.5
694.669	0.54
694.851	0.42
695.033	0.46
695.215	0.51
695.397	0.45
695.579	0.51
695.761	0.43
695.943	0.37
696.125	0.58
696.308	0.53
696.49	0.38
696.671	0.64
696.853	0.46
697.035	0.65
697.217	0.5
697.399	0.55
697.581	0.4
697.763	0.45
697.945	0.38
698.127	0.52
698.309	0.52
698.491	0.47
698.672	0.51
698.854	0.57
699.036	0.5
699.218	0.43
699.399	0.5
699.581	0.52
699.763	0.43
699.945	0.39
700.126	0.36
700.308	0.38
700.49	0.42
700.671	0.3
700.853	0.4
701.035	0.44
701.216	0.43
701.398	0.36
701.579	0.44
701.761	0.57
701.943	0.35
702.124	0.42
702.306	0.38
702.487	0.57
702.669	0.4
702.85	0.41
703.031	0.32
703.213	0.5
703.394	0.47
703.576	0.4
703.757	0.56
703.938	0.4
704.12	0.61
704.301	0.41
704.483	0.31
704.664	0.45
704.845	0.49
705.026	0.45
705.208	0.4
705.389	0.36
705.57	0.41
705.751	0.38
705.933	0.39
706.114	0.42
706.295	0.39
706.476	0.32
706.657	0.47
706.838	0.4
707.02	0.47
707.201	0.4
707.382	0.38
707.563	0.45
707.744	0.32
707.925	0.32
708.106	0.31
708.287	0.38
708.468	0.53
708.649	0.4
708.83	0.41
709.011	0.4
709.192	0.47
709.373	0.31
709.554	0.37
709.734	0.48
709.915	0.43
710.096	0.36
710.277	0.24
710.458	0.33
710.639	0.47
710.819	0.31
711	0.34
711.181	0.41
711.362	0.46
711.542	0.4
711.723	0.39
711.904	0.42
712.085	0.41
712.265	0.33
712.446	0.26
712.627	0.27
712.807	0.4
712.988	0.31
713.168	0.23
713.349	0.35
713.53	0.27
713.71	0.28
713.891	0.3
714.071	0.38
714.252	0.32
714.432	0.31
714.613	0.24
714.793	0.33
714.974	0.42
715.154	0.46
715.334	0.34
715.515	0.47
715.695	0.26
715.876	0.37
716.056	0.3
716.236	0.28
716.417	0.34
716.597	0.26
716.777	0.49
716.957	0.3
717.138	0.36
717.318	0.3
717.498	0.26
717.678	0.28
717.859	0.35
718.039	0.29
718.219	0.3
718.399	0.37
718.579	0.23
718.759	0.25
718.939	0.36
719.12	0.38
719.3	0.31
719.48	0.25
719.66	0.2
719.84	0.43
720.02	0.36
720.2	0.19
720.38	0.27
720.56	0.45
720.74	0.2
720.92	0.34
721.1	0.4
721.279	0.37
721.459	0.37
721.639	0.22
721.819	0.32
721.999	0.25
722.179	0.36
722.359	0.16
722.538	0.28
722.718	0.37
722.898	0.24
723.078	0.25
723.257	0.2
723.437	0.37
723.617	0.24
723.797	0.28
723.976	0.26
724.156	0.34
724.336	0.45
724.515	0.44
724.695	0.11
724.874	0.25
725.054	0.28
725.234	0.24
725.413	0.26
725.593	0.35
725.772	0.26
725.952	0.29
726.131	0.25
726.311	0.33
726.49	0.25
726.67	0.18
726.849	0.25
727.028	0.32
727.208	0.25
727.387	0.31
727.567	0.16
727.746	0.31
727.925	0.2
728.105	0.16
728.284	0.26
728.463	0.24
728.643	0.4
728.822	0.17
729.001	0.23
729.18	0.28
729.359	0.3
729.539	0.32
729.718	0.27
729.897	0.33
730.076	0.33
730.255	0.14
730.434	0.23
730.614	0.27
730.793	0.37
730.972	0.14
731.151	0.28
731.33	0.36
731.509	0.35
731.688	0.32
731.867	0.27
732.046	0.08
732.225	0.48
732.404	0.18
732.583	0.12
732.762	0.27
732.941	0.35
733.12	0.31
733.298	0.22
733.477	0.36
733.656	0.17
733.835	0.15
734.014	0.32
734.193	0.27
734.371	0.31
734.55	0.29
734.729	0.25
734.908	0.37
735.086	0.32
735.265	0.43
735.444	0.06
735.623	0.23
735.801	0.19
735.98	0.21
736.159	0.21
736.337	0.32
736.516	0.31
736.694	0.26
736.873	0.17
737.052	0.41
737.23	0.43
737.409	0.17
737.587	0.59
737.766	0.09
737.944	0.16
738.123	0.29
738.301	0.41
738.479	0.26
738.658	0.27
738.836	0.05
739.015	0.36
739.193	0.32
739.371	0.24
739.55	0.34
739.728	0.25
739.906	0.38
740.085	0.39
740.263	0.33
740.441	0.13
740.62	0.45
740.798	0.32
740.976	0.19
741.154	0.13
741.332	0.32
741.511	0.27
741.689	0.31
741.867	0.44
742.045	0.28
742.223	0.3
742.401	0.14
742.579	0.17
742.757	0.32
742.935	0.12
743.114	0.24
743.292	0.11
743.47	0.24
743.648	0.27
743.826	0.39
744.004	0.31
744.181	0.35
744.359	0.16
744.537	0.29
744.715	0.25
744.893	0.25
745.071	0.34
745.249	0.16
745.427	0.34
745.605	0.26
745.782	0.3
745.96	0.28
746.138	0.3
746.316	0.41
746.493	0.18
746.671	0.18
746.849	0.25
747.027	0.44
747.204	0.2
747.382	0.33
747.56	0.03
747.737	0.24
747.915	0.13
748.093	0.22
748.27	0.17
748.448	0.24
748.625	0.1
748.803	0.14
748.98	0.31
749.158	0.24
749.335	0.38
749.513	0.2
749.69	0.25
749.868	0.21
750.045	0.27
750.223	0.16
750.4	-0.04
750.578	0.33
750.755	0.29
750.932	0.06
751.11	0.42
751.287	0.18
751.464	0.39
751.642	0.15
751.819	0.26
751.996	0.29
752.173	0.15
752.351	0.05
752.528	0.28
752.705	0.19
752.882	0.19
753.06	0.23
753.237	0.29
753.414	0.43
753.591	0.42
753.768	0.24
753.945	0.15
754.122	0.18
754.299	0.23
754.476	0.25
754.654	0.31
754.831	0.27
755.008	0.25
755.185	0.19
755.362	0.09
755.539	0.28
755.716	0.16
755.892	0.2
756.069	0.17
756.246	0.2
756.423	0.16
756.6	0.49
756.777	0.15
756.954	0.29
757.131	0.24
757.307	0.25
757.484	0.2
757.661	0.36
757.838	0.2
758.015	0.05
758.191	0.28
758.368	0.23
758.545	0.32
758.721	0.24
758.898	0.13
759.075	0.33
759.251	0.24
759.428	0.29
759.605	0.03
759.781	0.28
759.958	0.3
760.134	0.3
760.311	0.15
760.488	0.32
760.664	0.43
760.841	0.16
761.017	0.14
761.194	0.23
761.37	0.25
761.547	0.28
761.723	0.27
761.899	0.25
762.076	0.18
762.252	0.13
762.429	0.19
762.605	0.38
762.781	0.21
762.958	0.28
763.134	0.13
763.31	0.18
763.486	0.37
763.663	0.05
763.839	0.21
764.015	0.05
764.191	0.06
764.368	0.19
764.544	0.18
764.72	0.24
764.896	0.32
765.072	0.25
765.248	0.18
765.425	0.15
765.601	0.2
765.777	0.22
765.953	0.03
766.129	0.18
766.305	0.04
766.481	0.23
766.657	0.22
766.833	0.47
767.009	0.13
767.185	0.23
767.361	0.13
767.537	0.12
767.713	0.34
767.889	0.07
768.065	0.21
768.24	0.09
768.416	0.47
768.592	0.28
768.768	0.24
768.944	0.15
769.12	0.22
769.295	0.12
769.471	0.14
769.647	0.2
769.823	0.36
769.998	0.15
770.174	0.19
770.35	0.62
770.525	0.38
770.701	0.38
770.877	0.15
771.052	0.17
771.228	0.44
771.403	0.31
771.579	0.36
771.755	0.67
771.93	0.11
772.106	0.16
772.281	-0.11
772.457	0.24
772.632	0.24
772.808	0.01
772.983	0.2
773.159	-0.07
773.334	0.42
773.509	0.3
773.685	0.21
773.86	0.6
774.036	0.42
774.211	0.27
774.386	0.24
774.562	0.18
774.737	0.41
774.912	0.23
775.087	0.27
775.263	0.26
775.438	0.21
775.613	0.01
775.788	0.41
775.964	0.56
776.139	0.68
776.314	0.15
776.489	0.26
776.664	0.09
776.839	0.1
777.014	0.37
777.19	0.27
777.365	0.45
777.54	0.57
777.715	0.25
777.89	0.22
778.065	0.21
778.24	0.25
778.415	0.43
778.59	0.03
778.765	0.26
778.94	0.14
779.115	0.32
779.289	0.24
779.464	0.2
779.639	0.2
779.814	0.11
779.989	0.09
780.164	0.31
780.339	0.33
780.513	0.24
780.688	0.05
780.863	0.2
781.038	0.44
781.212	0.13
781.387	0.35
781.562	0.64
781.737	0.14
781.911	0.31
782.086	0.17
782.261	0.06
782.435	0.5
782.61	0.06
782.784	0.25
782.959	0.51
783.134	0.07
783.308	0.09
783.483	0.15
783.657	0.47
783.832	0.62
784.006	0
784.181	0.14
784.355	0.31
784.53	0.02
784.704	0.04
784.878	0.56
785.053	0.47
785.227	0.52
785.402	0.67
785.576	0.13
785.75	0.15
785.925	0.04
786.099	0.26
786.273	0.41
786.448	0.45
786.622	0.37
786.796	0.27
786.97	0.1
787.145	0.74
787.319	-0.07
787.493	0.33
787.667	-0
787.841	0.28
788.015	0.61
788.19	0.1
788.364	0.34
788.538	0.53
788.712	0.51
788.886	0.2
789.06	0.61
789.234	0.37
789.408	0.04
789.582	0.29
789.756	0.09
789.93	0.23
790.104	0.22
790.278	0.17
790.452	0.15
790.626	0.33
790.8	0.3
790.973	0.36
791.147	0.41
791.321	0.57
791.495	0.54
791.669	0.36
791.843	0.32
792.016	0.17
792.19	0.75
792.364	-0.09
792.538	0.78
792.711	0.49
792.885	0
793.059	0.28
793.233	0.05
793.406	0.58
793.58	0.63
793.754	0.52
793.927	0.14
794.101	0.7
794.274	0.33
794.448	0.5
794.622	0.15
794.795	0.75
794.969	0.07
795.142	0.84
795.316	0.2
795.489	-0.05
795.663	0.88
795.836	0.36
796.009	0.12
796.183	0.55
796.356	0.25
796.53	0.44
796.703	0.39
796.876	0.83
797.05	0.12
797.223	0.29
797.396	0.44
797.57	0.18
797.743	0.69
797.916	0.5
798.09	0.34
798.263	0.59
798.436	0.36
798.609	0.27
798.782	0.16
798.956	0.39
799.129	-0
799.302	-0.04
799.475	-0.05
799.648	0.39
799.821	0.08
799.994	0.44
800.167	-0.11
800.34	0.39
800.514	0.33
800.687	0.26
800.86	0.13
801.033	0.49
801.206	0.38
801.379	0.14
801.551	0.45
801.724	0.44
801.897	0.6
802.07	0.11
802.243	0.02
802.416	0.47
802.589	0.14
802.762	0.42
802.935	0.1
803.107	0.56
803.28	0.51
803.453	0.43
803.626	0.22
803.798	0.54
803.971	0.39
804.144	0.3
804.317	0.41
804.489	0.75
804.662	0.43
804.835	0.37
805.007	0.31
805.18	0.8
805.353	0.47
805.525	0.37
805.698	0.3
805.87	0.55
806.043	0.87
806.215	-0.05
806.388	0.29
806.56	0.42
806.733	0.83
806.905	0.37
807.078	0.04
807.25	0.23
807.423	0.2
807.595	0.11
807.768	0.61
807.94	0.54
808.112	0.75
808.285	0.49
808.457	0.35
808.629	0.31
808.802	0.58
808.974	0.23
809.146	0.22
809.318	-0.05
809.491	0.55
809.663	0.57
809.835	-0.11
810.007	0.64
810.18	0.67
810.352	0.11
810.524	0.27
810.696	0.76
810.868	1.06
811.04	0.58
811.212	0.39
811.384	0.56
811.556	0.59
811.728	0.45
811.901	1.21
812.073	0.51
812.245	0.63
812.417	0.2
812.589	-0.32
812.76	0.46
812.932	0.68
813.104	0.64
813.276	0.05
813.448	0.68
813.62	0.44
813.792	0.37
813.964	0.56
814.136	0.68
814.307	0.17
814.479	-0.03
814.651	0.04
814.823	1.2
814.995	0.31
815.166	0.53
815.338	-0.07
815.51	-0.19
815.681	1.5
815.853	0.17
816.025	0.24
816.196	1.19
816.368	0.94
816.54	-0.13
816.711	0.48
816.883	0.78
817.054	1.41
817.226	-0.52
817.398	0.32
817.569	-0.03
817.741	0.84
817.912	0.38
818.084	0.33
818.255	1.17
818.426	0.11
818.598	0.09
818.769	-0.03
818.941	1.09
819.112	1.09
819.283	0.72
819.455	0.19
819.626	0.26
819.798	0.58
819.969	0.78
820.14	0.46
820.311	0.59
820.483	0.66
820.654	0.27
820.825	0.74
820.996	0.01
821.168	-0.04
821.339	0.47
821.51	0.17
821.681	0.22
821.852	0.64
822.023	-0.17
822.195	-0.32
822.366	0.54
822.537	0.48
822.708	0.22
822.879	0.04
823.05	1.07
823.221	0.65
823.392	0.5
823.563	0.61
823.734	0.52
823.905	0.53
824.076	0.02
824.247	-0.17
824.418	0.87
824.589	0.66
824.759	0.4
824.93	0.44
825.101	-0.01
825.272	1.13
825.443	1.13
825.614	1.27
825.784	-0.28
825.955	1.57
826.126	0.94
826.297	0.29
826.467	1.66
826.638	1.91
826.809	-0.28
826.98	0.3
827.15	1.14
827.321	0.25
827.492	1.73
827.662	1.02
827.833	1.61
828.003	1.6
828.174	-0.13
828.345	-0.12
828.515	1.27
828.686	0.95
828.856	0.17
829.027	0.46
829.197	0.5
829.368	1.14
829.538	0.27
829.709	0.45
829.879	0.77
830.049	0.52
830.22	0.28
830.39	0.44
830.56	0.81
830.731	-0.04
830.901	0.54
831.072	0.64
831.242	1.11
831.412	0.51
831.582	0.95
831.753	-0.38
831.923	0.98
832.093	0.5
832.263	0.15
832.434	-0.52
832.604	-0.02
832.774	1.01
832.944	0.27
833.114	0.28
833.284	1.09
833.454	0.2
833.624	0.23
833.795	0.17
833.965	1.68
834.135	1.74
834.305	0.05
834.475	0.29
834.645	0.38
834.815	0.43
834.985	-0.09
835.155	-0.04
835.325	0.98
835.494	0.6
835.664	-0.22
835.834	-0.17
836.004	1
836.174	0.9
836.344	0.85
836.514	0.01
836.684	0.23
836.853	0.97
837.023	0.92
837.193	0.21
837.363	0.6
837.532	1.3
837.702	0.25
837.872	0.25
838.041	1.06
838.211	1.89
838.381	0.11
838.55	0.6
838.72	2.65
838.89	1.7
839.059	0
839.229	-0.04
839.398	2.08
839.568	1.22
839.738	0.92
839.907	1.59
840.077	1.06
840.246	0.73
840.416	0.16
840.585	-0.31
840.755	2.09
840.924	1.52
841.093	0.17
841.263	0.68
841.432	0.48
841.602	0.21
841.771	0.24
841.94	1.45
842.11	2.62
842.279	2.03
842.448	0.78
842.617	-0.17
842.787	1.81
842.956	-0.41
843.125	0.01
843.294	1.04
843.464	1.62
843.633	1.53
843.802	0.06
843.971	0.91
844.14	1.78
844.309	1.16
844.479	-0.77
844.648	-0.05
844.817	1.2
844.986	1.37
845.155	1.01
845.324	0.4
845.493	0.68
845.662	-0.07
845.831	1.84
846	1.19
846.169	0.72
846.338	1.95
846.507	0.52
846.676	0.93
846.844	0.7
847.013	0.66
847.182	0.61
847.351	0.47
847.52	0.17
847.689	1.49
847.858	0.7
848.026	0.12
848.195	0.27
848.364	0.59
848.533	0.35
848.701	1.25
848.87	1.01
849.039	2.08
849.207	2.53
849.376	2
849.545	1.65
849.713	-0.24
849.882	0.44
850.051	1.16
850.219	0.67
850.388	2.2
850.556	-0.44
850.725	-1.08
850.893	1.52
851.062	0.63
851.23	1.93
851.399	-0.12
851.567	1.06
851.736	0.89
851.904	0.3
852.073	0.62
852.241	1.97
852.41	1.67
852.578	0.83
852.746	-0.3
852.915	1.07
853.083	1.05
853.251	-0.2
853.42	0.85
853.588	1.13
853.756	2.12
853.924	1.03
854.093	0.93
854.261	0.69
854.429	0.2
854.597	1.52
854.765	-0.12
854.934	1.94
855.102	2.23
855.27	0.72
855.438	1.65
855.606	2.59
855.774	2.73
855.942	0.49
856.11	-1.12
856.278	2.05
856.446	2.44
856.614	0.12
856.782	0.76
856.95	2.05
857.118	1.77
857.286	2.08
857.454	0.1
857.622	3.44
857.79	1.33
857.958	0.12
858.126	0.64
858.294	-1.91
858.462	1.47
858.629	1.25
858.797	1.14
858.965	0.2
859.133	2.04
859.301	1.21
859.468	1.29
859.636	0.93
859.804	1.89
859.971	1.46
860.139	1.34
860.307	1.92
860.474	1.39
860.642	-0.52
860.81	-0.01
860.977	1.88
861.145	2.13
861.313	0.33
861.48	0.53
861.648	0.97
861.815	0.67
861.983	0.75
862.15	-0.46
862.318	2.16
862.485	2.73
862.653	0.3
862.82	0.15
862.988	1.28
863.155	1.73
863.322	0.22
863.49	-0.48
863.657	0.98
863.824	2.66
863.992	1.29
864.159	1.48
864.326	3.39
864.494	-0.74
864.661	3.83
864.828	-0.47
864.996	3.21
865.163	2.88
865.33	-0.25
865.497	-1.58
865.664	-0.15
865.832	-0.42
865.999	1.16
866.166	-0.37
866.333	1.15
866.5	-0.1
866.667	0.84
866.834	1.08
867.001	2.73
867.168	-0.95
867.335	1.32
867.502	0.17
867.669	0.97
867.836	4.41
868.003	-0.77
868.17	3.38
868.337	3.56
868.504	5.25
868.671	-0.62
868.838	-0.59
869.005	1.15
869.172	2.34
869.339	1.18
869.505	1.37
869.672	1.9
869.839	4.03
870.006	0.35
870.173	-1.26
870.339	-0.11
870.506	3.84
870.673	0.07
870.84	3.1
871.006	1.54
871.173	1.57
871.34	0.59
871.506	1.1
871.673	1.55
871.839	-0.85
872.006	1.98
872.173	0.51
872.339	2.31
872.506	3.63
872.672	1.18
872.839	-1.01
873.005	2.67
873.172	4.26
873.338	3.81
873.505	0.69
873.671	1.91
873.838	2.21
874.004	-1.27
874.171	-0.18
874.337	3.81
874.503	1.46
874.67	0.83
874.836	1.66
875.002	5.31
875.169	3.5
875.335	0.58
875.501	0.72
875.668	3.19
875.834	3.73
876	0.4
876.166	2.15
876.332	2.55
876.499	4.39
876.665	1.44
876.831	3.04
876.997	5.22
877.163	2.19
877.329	0.33
877.495	2.27
877.662	3.78
877.828	1.58
877.994	1.96
878.16	-1.25
878.326	0.13
878.492	3.3
878.658	0.3
878.824	3.48
878.99	1.62
879.156	-1.22
879.322	3.29
879.487	-0.2
879.653	2.15
879.819	-0.72
879.985	1.57
880.151	1.18
880.317	0.14
880.483	2.47
880.648	2.96
880.814	-0.14
880.98	2.78
881.146	-1.07
881.312	-0.84
881.477	-0.33
881.643	0.91
881.809	3.32
881.974	1.04
882.14	1.09
882.306	2.41
882.471	5.77
882.637	0.32
882.803	2.21
882.968	4.29
883.134	5.91
883.299	0.81
883.465	3.12
883.63	4.24
883.796	2.65
883.961	1.74
884.127	2.05
884.292	-2.61
884.458	-0.2
884.623	-0.2
