Data from Apollo_Calib_20240827__AbsoluteIrradiance__816__12-45-02-103.txt Node

Date: Wed Aug 28 12:45:02 BST 2024
User: biology
Spectrometer: FLMT08252
Trigger mode: 0
Integration Time (sec): 5.000000E-1
Scans to average: 5
Electric dark correction enabled: true
Nonlinearity correction enabled: false
Boxcar width: 0
XAxis mode: Wavelengths
Number of Pixels in Spectrum: 3648
>>>>>Begin Spectral Data<<<<<
179.588	-0
179.809	-0
180.03	-0
180.251	-0
180.473	-0
180.694	0
180.915	0
181.136	-0
181.357	0
181.578	-0
181.799	-0
182.02	-0
182.241	-0
182.462	-0
182.683	0
182.904	-0
183.125	-0
183.346	0
183.567	0
183.788	0
184.009	0
184.23	0
184.451	0
184.672	0
184.892	0
185.113	0
185.334	0
185.555	0
185.776	0
185.996	0
186.217	0
186.438	0
186.659	0
186.879	0
187.1	0
187.321	0
187.541	0
187.762	0
187.983	0
188.203	0
188.424	0
188.644	0
188.865	0
189.086	0
189.306	0
189.527	0
189.747	0
189.968	0
190.188	0
190.409	0
190.629	0
190.849	0
191.07	0
191.29	0
191.511	0
191.731	0
191.951	0
192.172	0
192.392	0
192.612	0
192.833	0
193.053	0
193.273	0
193.493	0
193.714	0
193.934	0
194.154	0
194.374	0
194.594	0
194.815	0
195.035	0
195.255	0
195.475	0
195.695	0
195.915	0
196.135	0
196.355	0
196.575	0
196.795	0
197.015	0
197.235	0
197.455	0
197.675	0
197.895	0
198.115	0
198.335	0
198.555	0
198.775	0
198.995	0
199.214	0
199.434	0
199.654	0
199.874	0
200.094	3.69
200.313	2.71
200.533	1.98
200.753	1.8
200.973	3.85
201.192	3.23
201.412	1.39
201.632	1.71
201.851	3.47
202.071	1.68
202.291	1.81
202.51	1.54
202.73	3.02
202.95	1.73
203.169	1.12
203.389	1.92
203.608	2.43
203.828	1.49
204.047	1.34
204.267	1.69
204.486	2.16
204.706	2.17
204.925	1.34
205.145	1.44
205.364	1.98
205.583	2.84
205.803	1.19
206.022	1.23
206.242	1.99
206.461	2.02
206.68	1.25
206.9	1.47
207.119	2.34
207.338	2.14
207.557	1.3
207.777	1.09
207.996	1.5
208.215	2.01
208.434	1.13
208.654	0.61
208.873	1.7
209.092	2.37
209.311	1.11
209.53	1.08
209.749	1.25
209.968	1.2
210.187	1.02
210.407	0.68
210.626	1.16
210.845	1.68
211.064	1.14
211.283	0.7
211.502	1.34
211.721	1.19
211.94	0.98
212.159	1.37
212.377	1.36
212.596	1.46
212.815	1.24
213.034	1.11
213.253	1.52
213.472	1.11
213.691	0.89
213.91	0.43
214.128	0.93
214.347	1.51
214.566	0.42
214.785	0.56
215.003	1.37
215.222	1.21
215.441	0.77
215.66	0.49
215.878	0.79
216.097	1.32
216.316	0.67
216.534	0.7
216.753	1.15
216.972	0.8
217.19	0.9
217.409	0.65
217.627	0.75
217.846	0.9
218.064	0.95
218.283	0.57
218.501	1.47
218.72	1.16
218.938	0.58
219.157	0.62
219.375	1.04
219.594	1.18
219.812	0.53
220.031	0.61
220.249	1.19
220.467	1.23
220.686	0.52
220.904	0.44
221.122	0.66
221.341	1.17
221.559	0.75
221.777	0.56
221.995	0.69
222.214	0.83
222.432	0.6
222.65	0.89
222.868	0.7
223.086	0.92
223.305	0.86
223.523	0.57
223.741	1.11
223.959	0.66
224.177	0.27
224.395	0.59
224.613	0.92
224.831	0.94
225.049	0.44
225.267	0.65
225.485	0.65
225.703	0.75
225.921	0.67
226.139	0.41
226.357	0.73
226.575	0.85
226.793	0.5
227.011	1.55
227.229	0.8
227.447	0.86
227.665	0.52
227.883	0.38
228.1	0.63
228.318	0.62
228.536	0.22
228.754	0.45
228.972	0.79
229.189	0.84
229.407	0.35
229.625	0.56
229.843	0.83
230.06	0.76
230.278	0.56
230.496	0.61
230.713	0.68
230.931	0.88
231.149	0.48
231.366	0.23
231.584	0.64
231.801	1.18
232.019	0.42
232.236	0.38
232.454	0.44
232.671	0.62
232.889	0.49
233.106	0.41
233.324	0.71
233.541	0.49
233.759	0.53
233.976	0.39
234.194	0.55
234.411	0.6
234.628	0.42
234.846	0.44
235.063	0.6
235.28	0.54
235.498	0.44
235.715	0.31
235.932	0.82
236.149	0.5
236.367	0.36
236.584	0.56
236.801	0.44
237.018	0.62
237.236	0.49
237.453	0.33
237.67	0.63
237.887	0.42
238.104	0.45
238.321	0.32
238.538	0.34
238.755	0.73
238.973	0.35
239.19	0.5
239.407	0.6
239.624	0.58
239.841	0.32
240.058	0.27
240.275	0.56
240.492	0.48
240.709	0.36
240.925	0.39
241.142	0.41
241.359	0.41
241.576	0.37
241.793	0.35
242.01	0.49
242.227	0.67
242.444	0.51
242.66	0.67
242.877	0.43
243.094	0.39
243.311	0.44
243.527	0.52
243.744	0.57
243.961	0.53
244.178	0.4
244.394	0.42
244.611	0.56
244.828	0.63
245.044	0.34
245.261	0.43
245.477	0.44
245.694	0.53
245.911	0.33
246.127	0.44
246.344	0.62
246.56	0.53
246.777	0.28
246.993	0.3
247.21	0.51
247.426	0.56
247.643	0.29
247.859	0.37
248.076	0.35
248.292	0.64
248.508	0.33
248.725	0.42
248.941	0.5
249.157	0.63
249.374	0.28
249.59	0.36
249.806	0.33
250.023	0.54
250.239	0.39
250.455	0.3
250.671	0.45
250.888	0.45
251.104	0.46
251.32	0.39
251.536	0.36
251.752	0.41
251.969	0.34
252.185	0.32
252.401	0.7
252.617	0.56
252.833	0.29
253.049	0.47
253.265	0.32
253.481	0.43
253.697	0.41
253.913	0.33
254.129	0.47
254.345	0.45
254.561	0.24
254.777	0.33
254.993	0.41
255.209	0.4
255.425	0.35
255.641	0.23
255.857	0.47
256.073	0.42
256.288	0.25
256.504	0.32
256.72	0.46
256.936	0.54
257.152	0.3
257.367	0.27
257.583	0.39
257.799	0.46
258.015	0.34
258.23	0.31
258.446	0.55
258.662	0.42
258.877	0.26
259.093	0.24
259.309	0.38
259.524	0.44
259.74	0.3
259.955	0.21
260.171	0.44
260.387	0.41
260.602	0.41
260.818	0.38
261.033	0.25
261.249	0.39
261.464	0.33
261.68	0.24
261.895	0.44
262.11	0.41
262.326	0.29
262.541	0.24
262.757	0.45
262.972	0.41
263.187	0.37
263.403	0.37
263.618	0.45
263.833	0.42
264.049	0.22
264.264	0.34
264.479	0.38
264.694	0.48
264.91	0.25
265.125	0.43
265.34	0.45
265.555	0.54
265.77	0.39
265.986	0.33
266.201	0.44
266.416	0.44
266.631	0.28
266.846	0.3
267.061	0.43
267.276	0.43
267.491	0.17
267.706	0.37
267.921	0.34
268.136	0.37
268.351	0.33
268.566	0.19
268.781	0.42
268.996	0.41
269.211	0.28
269.426	0.31
269.641	0.33
269.856	0.47
270.071	0.3
270.285	0.2
270.5	0.46
270.715	0.39
270.93	0.37
271.145	0.38
271.359	0.41
271.574	0.28
271.789	0.34
272.004	0.23
272.218	0.36
272.433	0.37
272.648	0.25
272.862	0.32
273.077	0.34
273.292	0.36
273.506	0.25
273.721	0.31
273.936	0.37
274.15	0.36
274.365	0.22
274.579	0.37
274.794	0.4
275.008	0.41
275.223	0.22
275.437	0.29
275.652	0.4
275.866	0.36
276.081	0.27
276.295	0.38
276.509	0.37
276.724	0.38
276.938	0.32
277.153	0.38
277.367	0.41
277.581	0.27
277.796	0.32
278.01	0.22
278.224	0.4
278.438	0.47
278.653	0.24
278.867	0.2
279.081	0.15
279.295	0.29
279.51	0.31
279.724	0.19
279.938	0.4
280.152	0.41
280.366	0.26
280.58	0.31
280.794	0.43
281.008	0.41
281.222	0.35
281.437	0.52
281.651	0.31
281.865	0.45
282.079	0.23
282.293	0.14
282.507	0.26
282.721	0.32
282.935	0.3
283.148	0.16
283.362	0.26
283.576	0.26
283.79	0.32
284.004	0.28
284.218	0.38
284.432	0.3
284.646	0.29
284.859	0.27
285.073	0.23
285.287	0.31
285.501	0.29
285.714	0.29
285.928	0.25
286.142	0.35
286.356	0.23
286.569	0.28
286.783	0.4
286.997	0.42
287.21	0.28
287.424	0.31
287.637	0.3
287.851	0.28
288.065	0.34
288.278	0.24
288.492	0.31
288.705	0.28
288.919	0.32
289.132	0.19
289.346	0.35
289.559	0.19
289.773	0.2
289.986	0.24
290.2	0.25
290.413	0.34
290.626	0.23
290.84	0.19
291.053	0.33
291.267	0.38
291.48	0.24
291.693	0.31
291.906	0.25
292.12	0.26
292.333	0.22
292.546	0.25
292.76	0.37
292.973	0.31
293.186	0.32
293.399	0.23
293.612	0.36
293.826	0.3
294.039	0.21
294.252	0.26
294.465	0.36
294.678	0.24
294.891	0.24
295.104	0.2
295.317	0.22
295.53	0.28
295.743	0.23
295.956	0.26
296.169	0.36
296.382	0.35
296.595	0.23
296.808	0.21
297.021	0.35
297.234	0.32
297.447	0.29
297.66	0.33
297.873	0.36
298.086	0.31
298.299	0.21
298.511	0.18
298.724	0.26
298.937	0.24
299.15	0.25
299.363	0.24
299.575	0.32
299.788	0.28
300.001	0.23
300.213	0.16
300.426	0.24
300.639	0.24
300.852	0.2
301.064	0.29
301.277	0.34
301.489	0.28
301.702	0.28
301.915	0.24
302.127	0.28
302.34	0.29
302.552	0.26
302.765	0.18
302.977	0.36
303.19	0.19
303.402	0.22
303.615	0.22
303.827	0.24
304.04	0.29
304.252	0.31
304.464	0.21
304.677	0.46
304.889	0.27
305.102	0.19
305.314	0.18
305.526	0.28
305.739	0.29
305.951	0.17
306.163	0.27
306.375	0.33
306.588	0.2
306.8	0.23
307.012	0.24
307.224	0.27
307.436	0.35
307.649	0.18
307.861	0.25
308.073	0.27
308.285	0.26
308.497	0.19
308.709	0.24
308.921	0.27
309.133	0.33
309.346	0.25
309.558	0.25
309.77	0.33
309.982	0.39
310.194	0.31
310.406	0.23
310.617	0.37
310.829	0.27
311.041	0.27
311.253	0.21
311.465	0.26
311.677	0.27
311.889	0.24
312.101	0.21
312.313	0.34
312.524	0.34
312.736	0.19
312.948	0.22
313.16	0.35
313.372	0.3
313.583	0.32
313.795	0.23
314.007	0.25
314.218	0.32
314.43	0.24
314.642	0.19
314.853	0.22
315.065	0.28
315.277	0.2
315.488	0.27
315.7	0.35
315.912	0.24
316.123	0.26
316.335	0.21
316.546	0.4
316.758	0.29
316.969	0.21
317.181	0.27
317.392	0.25
317.604	0.33
317.815	0.22
318.026	0.21
318.238	0.3
318.449	0.29
318.661	0.18
318.872	0.15
319.083	0.19
319.295	0.32
319.506	0.21
319.717	0.22
319.929	0.29
320.14	0.26
320.351	0.25
320.562	0.25
320.774	0.27
320.985	0.25
321.196	0.24
321.407	0.19
321.618	0.3
321.829	0.29
322.041	0.26
322.252	0.24
322.463	0.24
322.674	0.3
322.885	0.2
323.096	0.23
323.307	0.24
323.518	0.23
323.729	0.19
323.94	0.2
324.151	0.21
324.362	0.3
324.573	0.3
324.784	0.24
324.995	0.35
325.206	0.3
325.417	0.23
325.628	0.22
325.838	0.26
326.049	0.29
326.26	0.32
326.471	0.2
326.682	0.29
326.892	0.28
327.103	0.17
327.314	0.24
327.525	0.29
327.735	0.28
327.946	0.22
328.157	0.21
328.368	0.29
328.578	0.24
328.789	0.29
328.999	0.26
329.21	0.2
329.421	0.31
329.631	0.22
329.842	0.18
330.052	0.2
330.263	0.31
330.473	0.33
330.684	0.22
330.894	0.29
331.105	0.22
331.315	0.29
331.526	0.19
331.736	0.32
331.947	0.29
332.157	0.31
332.367	0.13
332.578	0.28
332.788	0.31
332.999	0.31
333.209	0.21
333.419	0.2
333.629	0.28
333.84	0.26
334.05	0.24
334.26	0.37
334.47	0.25
334.681	0.29
334.891	0.22
335.101	0.31
335.311	0.38
335.521	0.25
335.732	0.19
335.942	0.34
336.152	0.25
336.362	0.26
336.572	0.26
336.782	0.32
336.992	0.21
337.202	0.22
337.412	0.24
337.622	0.26
337.832	0.19
338.042	0.26
338.252	0.22
338.462	0.25
338.672	0.24
338.882	0.24
339.092	0.28
339.302	0.37
339.511	0.35
339.721	0.21
339.931	0.23
340.141	0.29
340.351	0.29
340.561	0.27
340.77	0.26
340.98	0.29
341.19	0.29
341.4	0.22
341.609	0.23
341.819	0.25
342.029	0.2
342.238	0.26
342.448	0.18
342.658	0.28
342.867	0.22
343.077	0.24
343.286	0.26
343.496	0.31
343.706	0.38
343.915	0.21
344.125	0.22
344.334	0.27
344.544	0.2
344.753	0.21
344.963	0.16
345.172	0.21
345.381	0.24
345.591	0.17
345.8	0.23
346.01	0.29
346.219	0.26
346.428	0.21
346.638	0.25
346.847	0.3
347.056	0.36
347.266	0.17
347.475	0.27
347.684	0.29
347.893	0.27
348.103	0.31
348.312	0.22
348.521	0.25
348.73	0.23
348.94	0.26
349.149	0.23
349.358	0.25
349.567	0.22
349.776	0.19
349.985	0.19
350.194	0.3
350.403	0.3
350.612	0.16
350.821	0.2
351.03	0.21
351.239	0.22
351.448	0.23
351.657	0.2
351.866	0.34
352.075	0.25
352.284	0.19
352.493	0.17
352.702	0.34
352.911	0.28
353.12	0.28
353.329	0.2
353.538	0.27
353.746	0.24
353.955	0.21
354.164	0.27
354.373	0.24
354.582	0.28
354.79	0.27
354.999	0.3
355.208	0.25
355.416	0.31
355.625	0.17
355.834	0.25
356.042	0.28
356.251	0.2
356.46	0.18
356.668	0.26
356.877	0.36
357.085	0.3
357.294	0.14
357.503	0.24
357.711	0.22
357.92	0.43
358.128	0.24
358.337	0.23
358.545	0.27
358.754	0.27
358.962	0.29
359.17	0.21
359.379	0.25
359.587	0.27
359.796	0.22
360.004	0.34
360.212	0.27
360.421	0.34
360.629	0.24
360.837	0.21
361.046	0.29
361.254	0.36
361.462	0.25
361.67	0.22
361.879	0.29
362.087	0.28
362.295	0.25
362.503	0.23
362.711	0.21
362.92	0.22
363.128	0.22
363.336	0.16
363.544	0.17
363.752	0.25
363.96	0.22
364.168	0.21
364.376	0.24
364.584	0.27
364.792	0.29
365	0.31
365.208	0.26
365.416	0.3
365.624	0.33
365.832	0.21
366.04	0.33
366.248	0.24
366.456	0.26
366.664	0.25
366.872	0.23
367.079	0.24
367.287	0.23
367.495	0.29
367.703	0.26
367.911	0.23
368.118	0.21
368.326	0.23
368.534	0.17
368.742	0.31
368.949	0.19
369.157	0.17
369.365	0.26
369.572	0.2
369.78	0.2
369.988	0.27
370.195	0.24
370.403	0.31
370.61	0.21
370.818	0.25
371.026	0.38
371.233	0.23
371.441	0.27
371.648	0.2
371.856	0.28
372.063	0.28
372.271	0.23
372.478	0.22
372.685	0.22
372.893	0.28
373.1	0.31
373.308	0.23
373.515	0.37
373.722	0.31
373.93	0.2
374.137	0.27
374.344	0.33
374.552	0.31
374.759	0.3
374.966	0.25
375.173	0.27
375.381	0.34
375.588	0.24
375.795	0.18
376.002	0.23
376.209	0.24
376.417	0.28
376.624	0.27
376.831	0.29
377.038	0.21
377.245	0.2
377.452	0.24
377.659	0.29
377.866	0.23
378.073	0.24
378.28	0.25
378.487	0.31
378.694	0.3
378.901	0.24
379.108	0.25
379.315	0.34
379.522	0.33
379.729	0.27
379.936	0.27
380.143	0.28
380.35	0.26
380.557	0.25
380.763	0.25
380.97	0.29
381.177	0.28
381.384	0.25
381.591	0.19
381.797	0.31
382.004	0.29
382.211	0.35
382.418	0.21
382.624	0.3
382.831	0.31
383.038	0.24
383.244	0.28
383.451	0.26
383.658	0.34
383.864	0.23
384.071	0.22
384.277	0.35
384.484	0.22
384.69	0.34
384.897	0.21
385.103	0.3
385.31	0.21
385.516	0.28
385.723	0.19
385.929	0.29
386.136	0.28
386.342	0.28
386.549	0.22
386.755	0.31
386.961	0.33
387.168	0.25
387.374	0.25
387.58	0.33
387.787	0.29
387.993	0.34
388.199	0.25
388.406	0.23
388.612	0.23
388.818	0.25
389.024	0.24
389.231	0.3
389.437	0.4
389.643	0.3
389.849	0.27
390.055	0.32
390.261	0.3
390.467	0.28
390.674	0.29
390.88	0.29
391.086	0.35
391.292	0.23
391.498	0.33
391.704	0.33
391.91	0.25
392.116	0.25
392.322	0.17
392.528	0.34
392.734	0.29
392.94	0.3
393.146	0.29
393.352	0.31
393.557	0.28
393.763	0.3
393.969	0.3
394.175	0.27
394.381	0.32
394.587	0.26
394.792	0.29
394.998	0.37
395.204	0.4
395.41	0.29
395.615	0.31
395.821	0.36
396.027	0.27
396.233	0.29
396.438	0.36
396.644	0.4
396.85	0.31
397.055	0.34
397.261	0.33
397.466	0.45
397.672	0.37
397.878	0.36
398.083	0.4
398.289	0.31
398.494	0.37
398.7	0.37
398.905	0.2
399.111	0.39
399.316	0.25
399.522	0.32
399.727	0.37
399.932	0.38
400.138	0.33
400.343	0.39
400.549	0.32
400.754	0.35
400.959	0.37
401.165	0.33
401.37	0.36
401.575	0.31
401.78	0.4
401.986	0.37
402.191	0.37
402.396	0.39
402.601	0.4
402.807	0.39
403.012	0.37
403.217	0.42
403.422	0.45
403.627	0.42
403.832	0.44
404.037	0.48
404.243	0.4
404.448	0.4
404.653	0.44
404.858	0.41
405.063	0.48
405.268	0.39
405.473	0.4
405.678	0.41
405.883	0.67
406.088	0.5
406.293	0.44
406.498	0.48
406.703	0.52
406.907	0.45
407.112	0.43
407.317	0.53
407.522	0.57
407.727	0.48
407.932	0.52
408.136	0.63
408.341	0.45
408.546	0.63
408.751	0.55
408.956	0.57
409.16	0.65
409.365	0.6
409.57	0.59
409.774	0.58
409.979	0.73
410.184	0.7
410.388	0.55
410.593	0.72
410.798	0.74
411.002	0.75
411.207	0.78
411.411	0.79
411.616	0.72
411.82	0.84
412.025	0.85
412.229	0.82
412.434	0.99
412.638	0.94
412.843	0.9
413.047	0.93
413.252	0.96
413.456	0.97
413.66	1.03
413.865	1.05
414.069	1.16
414.273	1.07
414.478	1.08
414.682	1.13
414.886	1.2
415.091	1.14
415.295	1.21
415.499	1.42
415.703	1.38
415.908	1.47
416.112	1.31
416.316	1.59
416.52	1.53
416.724	1.48
416.929	1.57
417.133	1.76
417.337	1.67
417.541	1.79
417.745	1.81
417.949	1.9
418.153	1.94
418.357	1.96
418.561	2.2
418.765	2.15
418.969	2.33
419.173	2.35
419.377	2.37
419.581	2.65
419.785	2.56
419.989	2.55
420.193	2.73
420.397	2.8
420.601	2.94
420.804	3.01
421.008	3.1
421.212	3.19
421.416	3.2
421.62	3.25
421.823	3.3
422.027	3.44
422.231	3.38
422.435	3.41
422.638	3.46
422.842	3.57
423.046	3.67
423.249	3.83
423.453	3.83
423.657	4
423.86	4.08
424.064	4.21
424.268	4.37
424.471	4.38
424.675	4.57
424.878	4.68
425.082	4.77
425.285	5.06
425.489	4.99
425.692	5.14
425.896	5.15
426.099	5.3
426.303	5.55
426.506	5.51
426.71	5.86
426.913	6.07
427.116	6.26
427.32	6.25
427.523	6.3
427.726	6.58
427.93	6.75
428.133	6.99
428.336	7.03
428.54	7.19
428.743	7.51
428.946	7.72
429.149	7.74
429.353	7.73
429.556	7.94
429.759	7.85
429.962	8.03
430.165	8.21
430.368	7.79
430.571	7.94
430.775	8.01
430.978	7.94
431.181	7.98
431.384	8.11
431.587	8.25
431.79	8.62
431.993	8.52
432.196	8.76
432.399	9.15
432.602	9.36
432.805	9.44
433.008	9.9
433.211	9.75
433.414	10.18
433.616	10.24
433.819	10.1
434.022	10.31
434.225	10.44
434.428	10.46
434.631	10.94
434.833	10.69
435.036	10.94
435.239	11.06
435.442	11.26
435.645	11.37
435.847	11.5
436.05	11.75
436.253	11.95
436.455	11.94
436.658	11.97
436.861	12.22
437.063	12.34
437.266	12.19
437.468	12.63
437.671	12.89
437.874	12.93
438.076	12.91
438.279	13.39
438.481	13.33
438.684	14.12
438.886	13.64
439.089	14.01
439.291	13.99
439.494	14.28
439.696	14.45
439.899	14.99
440.101	15.41
440.303	15.61
440.506	16.38
440.708	16.11
440.91	16.4
441.113	16.44
441.315	16.83
441.517	16.55
441.72	17.01
441.922	16.71
442.124	16.52
442.326	16.94
442.529	17.21
442.731	17.26
442.933	17.46
443.135	17.15
443.337	17.16
443.539	17.89
443.742	17.38
443.944	18.13
444.146	17.8
444.348	18
444.55	17.83
444.752	17.93
444.954	17.84
445.156	17.73
445.358	18.23
445.56	18.52
445.762	18.23
445.964	18.72
446.166	18.42
446.368	18.39
446.57	18.39
446.772	18.1
446.974	17.77
447.175	18.15
447.377	17.81
447.579	18.14
447.781	17.93
447.983	17.67
448.184	17.18
448.386	17.6
448.588	17.24
448.79	17.13
448.991	17.47
449.193	17.47
449.395	16.73
449.597	16.52
449.798	16.33
450	15.98
450.202	15.92
450.403	15.77
450.605	15.68
450.806	15.27
451.008	15.17
451.21	14.97
451.411	14.55
451.613	13.78
451.814	14.01
452.016	14.12
452.217	13.45
452.419	13.4
452.62	12.93
452.821	12.7
453.023	12.66
453.224	12.26
453.426	11.9
453.627	11.15
453.828	11.3
454.03	11.36
454.231	11.25
454.432	11.12
454.634	10.87
454.835	10.62
455.036	10.42
455.238	10.11
455.439	9.9
455.64	9.58
455.841	9.5
456.042	9.66
456.244	9.31
456.445	8.85
456.646	8.66
456.847	8.53
457.048	8.51
457.249	8.55
457.45	8.33
457.651	7.75
457.852	7.68
458.054	7.28
458.255	7.24
458.456	7.33
458.657	7.21
458.858	6.72
459.058	6.71
459.259	6.81
459.46	6.47
459.661	6.41
459.862	6.54
460.063	6.37
460.264	6.29
460.465	6.08
460.666	6.09
460.866	5.73
461.067	5.54
461.268	5.58
461.469	5.52
461.67	5.48
461.87	5.34
462.071	5.23
462.272	5.17
462.473	5.11
462.673	5.41
462.874	5.19
463.075	5.09
463.275	5.08
463.476	5.19
463.676	5.16
463.877	4.99
464.078	5
464.278	5.01
464.479	4.93
464.679	4.73
464.88	4.76
465.08	4.71
465.281	4.49
465.481	4.29
465.682	4.17
465.882	4.21
466.083	4.11
466.283	4.13
466.483	3.95
466.684	3.68
466.884	3.72
467.085	3.76
467.285	3.77
467.485	3.75
467.686	3.54
467.886	3.4
468.086	3.46
468.286	3.39
468.487	3.41
468.687	3.31
468.887	3.27
469.087	3.36
469.287	3.26
469.488	3.04
469.688	3.26
469.888	3.25
470.088	3.19
470.288	3.09
470.488	3.07
470.688	2.89
470.888	2.93
471.088	2.7
471.288	2.9
471.488	2.89
471.688	2.77
471.888	2.69
472.088	2.86
472.288	2.72
472.488	2.64
472.688	2.6
472.888	2.67
473.088	2.62
473.288	2.52
473.488	2.5
473.688	2.6
473.887	2.43
474.087	2.46
474.287	2.46
474.487	2.29
474.687	2.49
474.886	2.41
475.086	2.33
475.286	2.39
475.486	2.32
475.685	2.25
475.885	2.2
476.085	2.29
476.284	2.31
476.484	2.27
476.684	2.2
476.883	2.31
477.083	2.19
477.282	2.12
477.482	2.21
477.681	2.21
477.881	2.05
478.08	2.11
478.28	2.08
478.479	2.08
478.679	2.19
478.878	2.04
479.078	2
479.277	2.12
479.477	2.04
479.676	2.06
479.875	2.04
480.075	2
480.274	2.05
480.473	2.1
480.673	1.99
480.872	2.11
481.071	2.09
481.271	2.07
481.47	2.01
481.669	1.99
481.868	1.97
482.067	2
482.267	1.95
482.466	1.92
482.665	1.92
482.864	1.96
483.063	1.95
483.262	2.02
483.461	2
483.661	2.04
483.86	1.99
484.059	2.05
484.258	2.07
484.457	2.02
484.656	2.05
484.855	2.11
485.054	1.95
485.253	2.02
485.452	1.96
485.651	2.09
485.849	2
486.048	2.05
486.247	2.04
486.446	2.07
486.645	2.03
486.844	2.05
487.043	2.03
487.241	2.11
487.44	2.05
487.639	2.16
487.838	2.12
488.037	2.17
488.235	2.23
488.434	2.17
488.633	2.1
488.831	2.24
489.03	2.22
489.229	2.23
489.427	2.22
489.626	2.29
489.825	2.29
490.023	2.31
490.222	2.27
490.42	2.34
490.619	2.34
490.817	2.38
491.016	2.33
491.214	2.43
491.413	2.41
491.611	2.39
491.81	2.41
492.008	2.45
492.207	2.53
492.405	2.5
492.604	2.45
492.802	2.56
493	2.6
493.199	2.61
493.397	2.61
493.595	2.73
493.794	2.65
493.992	2.79
494.19	2.73
494.388	2.81
494.587	2.74
494.785	2.79
494.983	2.72
495.181	2.85
495.379	2.91
495.578	2.93
495.776	2.96
495.974	2.95
496.172	2.94
496.37	3.06
496.568	3.08
496.766	3.09
496.964	3.17
497.162	3.18
497.36	3.21
497.558	3.23
497.756	3.31
497.954	3.28
498.152	3.33
498.35	3.41
498.548	3.33
498.746	3.39
498.944	3.39
499.142	3.41
499.34	3.55
499.538	3.62
499.736	3.52
499.933	3.64
500.131	3.62
500.329	3.76
500.527	3.75
500.725	3.88
500.922	3.8
501.12	3.86
501.318	3.9
501.516	3.92
501.713	3.98
501.911	3.97
502.109	3.95
502.306	4.11
502.504	4.04
502.701	4.1
502.899	4.14
503.097	4.34
503.294	4.18
503.492	4.29
503.689	4.37
503.887	4.32
504.084	4.46
504.282	4.39
504.479	4.34
504.677	4.57
504.874	4.52
505.072	4.46
505.269	4.69
505.466	4.65
505.664	4.76
505.861	4.64
506.059	4.74
506.256	4.76
506.453	4.8
506.651	4.96
506.848	5.01
507.045	4.96
507.242	4.94
507.44	4.95
507.637	5.12
507.834	5.09
508.031	5.19
508.229	5.12
508.426	5.14
508.623	5.28
508.82	5.25
509.017	5.22
509.214	5.24
509.411	5.37
509.608	5.29
509.805	5.49
510.003	5.47
510.2	5.47
510.397	5.61
510.594	5.52
510.791	5.61
510.988	5.61
511.184	5.6
511.381	5.5
511.578	5.67
511.775	5.8
511.972	5.74
512.169	5.81
512.366	5.81
512.563	5.94
512.76	5.96
512.956	5.96
513.153	5.98
513.35	5.89
513.547	5.9
513.744	6.02
513.94	6.05
514.137	6.08
514.334	6.09
514.53	6.13
514.727	6.36
514.924	6.22
515.12	6.22
515.317	6.26
515.514	6.2
515.71	6.18
515.907	6.44
516.103	6.39
516.3	6.29
516.497	6.4
516.693	6.43
516.89	6.43
517.086	6.51
517.283	6.58
517.479	6.38
517.676	6.6
517.872	6.59
518.068	6.63
518.265	6.63
518.461	6.55
518.658	6.67
518.854	6.71
519.05	6.76
519.247	6.77
519.443	6.79
519.639	6.9
519.836	6.74
520.032	6.74
520.228	6.85
520.424	6.89
520.621	6.85
520.817	6.94
521.013	6.86
521.209	7.08
521.405	7.04
521.601	7.03
521.798	6.97
521.994	7.03
522.19	6.92
522.386	7.02
522.582	7.09
522.778	7.24
522.974	7.08
523.17	7.08
523.366	7.04
523.562	7.12
523.758	7.11
523.954	6.94
524.15	7.19
524.346	7.22
524.542	7.2
524.738	7.16
524.934	7.28
525.129	7.23
525.325	7.24
525.521	7.2
525.717	7.46
525.913	7.3
526.109	7.4
526.304	7.42
526.5	7.37
526.696	7.45
526.892	7.32
527.087	7.55
527.283	7.52
527.479	7.52
527.674	7.3
527.87	7.48
528.066	7.5
528.261	7.5
528.457	7.41
528.653	7.54
528.848	7.54
529.044	7.66
529.239	7.53
529.435	7.49
529.63	7.52
529.826	7.56
530.021	7.55
530.217	7.58
530.412	7.56
530.608	7.59
530.803	7.6
530.999	7.51
531.194	7.63
531.389	7.66
531.585	7.64
531.78	7.79
531.975	7.68
532.171	7.73
532.366	7.73
532.561	7.72
532.757	7.67
532.952	7.88
533.147	7.63
533.342	7.77
533.538	7.66
533.733	7.86
533.928	7.53
534.123	7.75
534.318	7.77
534.513	7.71
534.709	7.85
534.904	7.77
535.099	7.86
535.294	7.84
535.489	7.91
535.684	7.84
535.879	7.75
536.074	7.85
536.269	7.84
536.464	7.9
536.659	7.84
536.854	7.88
537.049	7.97
537.244	7.85
537.439	7.89
537.634	7.93
537.828	7.93
538.023	7.92
538.218	7.88
538.413	7.81
538.608	7.86
538.803	7.88
538.997	7.87
539.192	7.96
539.387	7.83
539.582	7.93
539.776	7.84
539.971	8
540.166	8.05
540.36	7.86
540.555	8.05
540.75	8
540.944	8.01
541.139	8
541.334	7.96
541.528	7.96
541.723	8.01
541.917	8.05
542.112	7.92
542.306	7.86
542.501	7.86
542.695	7.98
542.89	7.94
543.084	7.95
543.279	8.01
543.473	8.01
543.668	8.07
543.862	7.84
544.056	7.9
544.251	8.05
544.445	8.07
544.64	8.1
544.834	7.81
545.028	7.65
545.222	7.99
545.417	8.19
545.611	8.07
545.805	8.02
546	7.78
546.194	8.1
546.388	8.04
546.582	7.95
546.776	7.98
546.97	8.04
547.165	8.03
547.359	8.02
547.553	7.95
547.747	7.97
547.941	8.22
548.135	8.02
548.329	8.05
548.523	8.04
548.717	8
548.911	7.97
549.105	7.94
549.299	8.12
549.493	8.03
549.687	7.93
549.881	8.12
550.075	8.07
550.269	7.95
550.463	8.13
550.657	8.1
550.85	8.03
551.044	8.02
551.238	8.16
551.432	8.09
551.626	8.1
551.82	8.05
552.013	7.95
552.207	8.16
552.401	8.12
552.594	8.02
552.788	8.05
552.982	8
553.176	7.99
553.369	8.21
553.563	8.12
553.756	8.03
553.95	8.12
554.144	8.13
554.337	8.11
554.531	7.92
554.724	8.1
554.918	8.13
555.111	8.04
555.305	8.1
555.498	8.01
555.692	8.12
555.885	8.16
556.079	8.03
556.272	8.03
556.466	8.14
556.659	8.06
556.852	8.19
557.046	7.98
557.239	7.98
557.432	8.02
557.626	8.13
557.819	8.12
558.012	8.1
558.206	8.16
558.399	8.09
558.592	8.09
558.785	8.03
558.979	8.06
559.172	8.08
559.365	8.12
559.558	8.04
559.751	7.98
559.944	8.12
560.138	8
560.331	8.07
560.524	8.06
560.717	8.1
560.91	8.06
561.103	8.12
561.296	7.96
561.489	8.13
561.682	8.17
561.875	8.11
562.068	8.19
562.261	7.97
562.454	8.18
562.647	8.02
562.84	8.13
563.032	8.08
563.225	8.05
563.418	8.06
563.611	8.13
563.804	8.11
563.997	7.97
564.19	7.82
564.382	8.17
564.575	8.05
564.768	8.02
564.961	8.14
565.153	8.01
565.346	8
565.539	8.15
565.731	8.03
565.924	8.19
566.117	8.16
566.309	8.12
566.502	7.98
566.695	7.97
566.887	8.16
567.08	8.08
567.272	8.11
567.465	8.01
567.657	8.06
567.85	7.95
568.042	8.04
568.235	8.08
568.427	7.89
568.62	8.03
568.812	8.02
569.005	8.07
569.197	7.94
569.389	8.03
569.582	8.01
569.774	8.08
569.966	7.93
570.159	7.98
570.351	7.98
570.543	7.94
570.736	7.96
570.928	7.85
571.12	7.99
571.312	7.94
571.505	7.68
571.697	8.03
571.889	7.99
572.081	7.97
572.273	7.86
572.465	7.96
572.658	7.94
572.85	8.01
573.042	8.01
573.234	7.9
573.426	7.94
573.618	7.92
573.81	8
574.002	7.87
574.194	8.02
574.386	7.89
574.578	7.76
574.77	7.84
574.962	7.87
575.154	7.78
575.346	7.8
575.538	7.84
575.729	7.84
575.921	7.95
576.113	7.92
576.305	7.87
576.497	8
576.689	7.73
576.88	7.75
577.072	7.89
577.264	7.8
577.456	7.85
577.647	7.79
577.839	7.92
578.031	7.85
578.223	7.83
578.414	7.68
578.606	7.85
578.798	7.83
578.989	7.86
579.181	7.86
579.372	7.8
579.564	7.81
579.755	7.74
579.947	7.67
580.139	7.8
580.33	7.66
580.522	7.75
580.713	7.64
580.905	7.67
581.096	7.86
581.287	7.68
581.479	7.67
581.67	7.78
581.862	7.64
582.053	7.71
582.244	7.46
582.436	7.73
582.627	7.61
582.818	7.59
583.01	7.62
583.201	7.68
583.392	7.58
583.583	7.6
583.775	7.46
583.966	7.57
584.157	7.66
584.348	7.67
584.54	7.56
584.731	7.6
584.922	7.52
585.113	7.39
585.304	7.55
585.495	7.51
585.686	7.65
585.877	7.58
586.068	7.64
586.259	7.55
586.45	7.56
586.641	7.48
586.832	7.58
587.023	7.48
587.214	7.45
587.405	7.54
587.596	7.37
587.787	7.31
587.978	7.48
588.169	7.36
588.36	7.34
588.551	7.39
588.742	7.44
588.932	7.43
589.123	7.27
589.314	7.52
589.505	7.27
589.696	7.34
589.886	7.31
590.077	7.31
590.268	7.22
590.458	7.11
590.649	7.11
590.84	7.29
591.03	7.2
591.221	7.21
591.412	7.03
591.602	7.32
591.793	7.16
591.984	7.17
592.174	7.22
592.365	7.35
592.555	7.07
592.746	7.07
592.936	7.06
593.127	7.2
593.317	7.17
593.508	7.12
593.698	7.01
593.889	7.06
594.079	7.08
594.269	6.98
594.46	6.93
594.65	7.07
594.84	7.04
595.031	6.95
595.221	6.95
595.411	6.98
595.602	6.98
595.792	6.94
595.982	6.84
596.172	7.05
596.363	6.84
596.553	6.88
596.743	6.89
596.933	6.88
597.123	6.88
597.314	6.72
597.504	6.74
597.694	6.87
597.884	6.72
598.074	6.84
598.264	6.85
598.454	6.8
598.644	6.77
598.834	6.71
599.024	6.68
599.214	6.69
599.404	6.72
599.594	6.6
599.784	6.59
599.974	6.72
600.164	6.67
600.354	6.58
600.544	6.52
600.734	6.65
600.924	6.54
601.114	6.48
601.303	6.45
601.493	6.54
601.683	6.54
601.873	6.54
602.063	6.49
602.252	6.49
602.442	6.32
602.632	6.42
602.821	6.36
603.011	6.47
603.201	6.41
603.39	6.32
603.58	6.3
603.77	6.39
603.959	6.43
604.149	6.35
604.339	6.31
604.528	6.44
604.718	6.31
604.907	6.22
605.097	6.19
605.286	6.2
605.476	6.22
605.665	6.31
605.855	6.21
606.044	6.26
606.234	6.18
606.423	6.11
606.612	6.1
606.802	6.13
606.991	6.2
607.181	6.19
607.37	6.1
607.559	5.86
607.749	6.1
607.938	5.93
608.127	6.01
608.316	6.04
608.506	5.98
608.695	5.99
608.884	5.9
609.073	5.94
609.263	5.97
609.452	6.01
609.641	5.82
609.83	5.83
610.019	5.95
610.208	5.82
610.397	5.85
610.586	5.83
610.775	5.76
610.965	5.74
611.154	5.68
611.343	5.67
611.532	5.71
611.721	5.8
611.91	5.69
612.099	5.69
612.287	5.6
612.476	5.5
612.665	5.73
612.854	5.56
613.043	5.68
613.232	5.59
613.421	5.5
613.61	5.55
613.798	5.54
613.987	5.58
614.176	5.47
614.365	5.58
614.554	5.49
614.742	5.53
614.931	5.35
615.12	5.53
615.309	5.45
615.497	5.37
615.686	5.26
615.875	5.39
616.063	5.37
616.252	5.27
616.44	5.34
616.629	5.22
616.818	5.25
617.006	5.26
617.195	5.25
617.383	5.27
617.572	5.13
617.76	5.18
617.949	5.17
618.137	5.23
618.326	5.17
618.514	4.99
618.703	4.93
618.891	5.22
619.079	5.06
619.268	5.19
619.456	5.03
619.644	5.14
619.833	4.97
620.021	4.95
620.209	4.93
620.398	5.06
620.586	4.92
620.774	4.97
620.962	4.88
621.151	4.98
621.339	4.9
621.527	4.8
621.715	4.8
621.903	4.84
622.092	4.77
622.28	4.86
622.468	4.62
622.656	4.78
622.844	4.76
623.032	4.81
623.22	4.64
623.408	4.77
623.596	4.72
623.784	4.79
623.972	4.63
624.16	4.62
624.348	4.67
624.536	4.7
624.724	4.54
624.912	4.64
625.1	4.55
625.288	4.62
625.476	4.47
625.664	4.54
625.851	4.51
626.039	4.49
626.227	4.46
626.415	4.44
626.603	4.4
626.79	4.47
626.978	4.48
627.166	4.46
627.354	4.29
627.541	4.34
627.729	4.19
627.917	4.52
628.104	4.39
628.292	4.27
628.48	4.27
628.667	4.28
628.855	4.32
629.042	4.28
629.23	4.25
629.418	4.2
629.605	4.18
629.793	4.1
629.98	4.17
630.168	4.23
630.355	4.16
630.543	4.16
630.73	4.04
630.917	4.05
631.105	4.22
631.292	4.04
631.48	4.06
631.667	4.25
631.854	4.1
632.042	4.03
632.229	3.93
632.416	4.02
632.604	3.99
632.791	3.85
632.978	3.99
633.165	3.91
633.353	3.98
633.54	4
633.727	3.82
633.914	3.83
634.101	3.83
634.289	3.92
634.476	3.78
634.663	3.78
634.85	3.82
635.037	3.69
635.224	3.73
635.411	3.8
635.598	3.74
635.785	3.69
635.972	3.64
636.159	3.68
636.346	3.66
636.533	3.61
636.72	3.66
636.907	3.62
637.094	3.61
637.281	3.52
637.468	3.63
637.655	3.55
637.842	3.6
638.029	3.48
638.215	3.49
638.402	3.51
638.589	3.42
638.776	3.43
638.963	3.43
639.149	3.52
639.336	3.53
639.523	3.38
639.709	3.4
639.896	3.35
640.083	3.36
640.27	3.46
640.456	3.33
640.643	3.37
640.829	3.27
641.016	3.23
641.203	3.23
641.389	3.3
641.576	3.3
641.762	3.26
641.949	3.18
642.135	3.24
642.322	3.2
642.508	3.1
642.695	3.13
642.881	3.07
643.068	3.1
643.254	3.12
643.441	3.19
643.627	3.19
643.813	3.06
644	3.12
644.186	3
644.372	3.11
644.559	3.07
644.745	3.03
644.931	2.96
645.118	2.99
645.304	3.06
645.49	2.91
645.676	3
645.862	3
646.049	3.02
646.235	2.93
646.421	3.08
646.607	3.02
646.793	2.9
646.979	2.8
647.165	2.85
647.352	2.87
647.538	2.89
647.724	2.86
647.91	2.81
648.096	2.85
648.282	2.81
648.468	2.74
648.654	2.81
648.84	2.81
649.026	2.8
649.212	2.69
649.397	2.61
649.583	2.66
649.769	2.78
649.955	2.71
650.141	2.71
650.327	2.7
650.513	2.68
650.698	2.68
650.884	2.53
651.07	2.71
651.256	2.61
651.442	2.59
651.627	2.56
651.813	2.61
651.999	2.58
652.184	2.57
652.37	2.55
652.556	2.5
652.741	2.62
652.927	2.45
653.113	2.48
653.298	2.49
653.484	2.43
653.669	2.41
653.855	2.41
654.04	2.52
654.226	2.47
654.412	2.38
654.597	2.35
654.782	2.4
654.968	2.44
655.153	2.4
655.339	2.38
655.524	2.32
655.71	2.36
655.895	2.31
656.08	2.31
656.266	2.41
656.451	2.31
656.636	2.29
656.822	2.27
657.007	2.27
657.192	2.27
657.378	2.16
657.563	2.21
657.748	2.26
657.933	2.28
658.118	2.18
658.304	2.17
658.489	2.28
658.674	2.24
658.859	2.11
659.044	2.16
659.229	2.19
659.414	2.14
659.599	2.13
659.785	2.07
659.97	2.12
660.155	2.11
660.34	2.15
660.525	2.08
660.71	2.03
660.895	2.13
661.08	2.05
661.264	2
661.449	2.15
661.634	2.07
661.819	2.06
662.004	1.99
662.189	1.95
662.374	1.98
662.559	1.97
662.743	1.93
662.928	2
663.113	1.95
663.298	1.92
663.483	1.92
663.667	1.93
663.852	1.93
664.037	2.02
664.221	1.89
664.406	1.94
664.591	1.93
664.775	1.89
664.96	1.84
665.145	1.85
665.329	1.9
665.514	1.85
665.698	1.83
665.883	1.77
666.068	1.89
666.252	1.87
666.437	1.74
666.621	1.77
666.806	1.8
666.99	1.77
667.174	1.74
667.359	1.83
667.543	1.75
667.728	1.76
667.912	1.69
668.096	1.73
668.281	1.69
668.465	1.81
668.649	1.73
668.834	1.62
669.018	1.68
669.202	1.7
669.387	1.65
669.571	1.75
669.755	1.65
669.939	1.64
670.124	1.68
670.308	1.7
670.492	1.68
670.676	1.63
670.86	1.62
671.044	1.57
671.228	1.7
671.413	1.55
671.597	1.54
671.781	1.58
671.965	1.59
672.149	1.64
672.333	1.63
672.517	1.53
672.701	1.54
672.885	1.5
673.069	1.46
673.253	1.67
673.437	1.56
673.621	1.47
673.804	1.53
673.988	1.57
674.172	1.51
674.356	1.45
674.54	1.48
674.724	1.64
674.908	1.46
675.091	1.45
675.275	1.45
675.459	1.5
675.643	1.44
675.826	1.47
676.01	1.4
676.194	1.45
676.377	1.45
676.561	1.49
676.745	1.43
676.928	1.43
677.112	1.49
677.296	1.4
677.479	1.34
677.663	1.36
677.846	1.4
678.03	1.36
678.213	1.33
678.397	1.4
678.58	1.36
678.764	1.33
678.947	1.32
679.131	1.29
679.314	1.44
679.498	1.29
679.681	1.32
679.865	1.44
680.048	1.32
680.231	1.3
680.415	1.25
680.598	1.34
680.781	1.24
680.965	1.29
681.148	1.3
681.331	1.27
681.514	1.32
681.698	1.25
681.881	1.26
682.064	1.25
682.247	1.28
682.43	1.16
682.614	1.24
682.797	1.26
682.98	1.26
683.163	1.14
683.346	1.16
683.529	1.22
683.712	1.16
683.895	1.21
684.078	1.1
684.261	1.19
684.444	1.23
684.627	1.18
684.81	1.14
684.993	1.14
685.176	1.25
685.359	1.08
685.542	1.12
685.725	1.22
685.908	1.17
686.091	1.12
686.274	1.2
686.457	1.17
686.639	1.12
686.822	1.14
687.005	1.09
687.188	1.16
687.371	1.24
687.553	1.15
687.736	1.13
687.919	1.24
688.102	1.13
688.284	1.07
688.467	1.05
688.65	1.17
688.832	1.03
689.015	1.04
689.197	1.03
689.38	1.13
689.563	1.17
689.745	1
689.928	0.96
690.11	1
690.293	1.09
690.475	0.98
690.658	1.04
690.84	1
691.023	1.01
691.205	0.93
691.388	0.96
691.57	1.09
691.752	1.03
691.935	0.91
692.117	0.88
692.3	1
692.482	0.95
692.664	0.96
692.847	0.99
693.029	1.07
693.211	1
693.393	0.94
693.576	0.91
693.758	0.95
693.94	0.93
694.122	0.91
694.304	0.92
694.487	0.97
694.669	1.01
694.851	0.83
695.033	0.89
695.215	0.89
695.397	0.87
695.579	0.88
695.761	0.84
695.943	0.79
696.125	0.97
696.308	0.96
696.49	0.78
696.671	1.07
696.853	0.9
697.035	1.11
697.217	0.78
697.399	0.94
697.581	0.86
697.763	0.84
697.945	0.78
698.127	0.9
698.309	0.93
698.491	0.86
698.672	0.86
698.854	0.89
699.036	0.97
699.218	0.85
699.399	0.84
699.581	0.92
699.763	0.85
699.945	0.8
700.126	0.76
700.308	0.84
700.49	0.76
700.671	0.71
700.853	0.75
701.035	0.76
701.216	0.78
701.398	0.75
701.579	0.77
701.761	0.85
701.943	0.79
702.124	0.74
702.306	0.73
702.487	0.94
702.669	0.72
702.85	0.7
703.031	0.73
703.213	0.94
703.394	0.83
703.576	0.72
703.757	0.83
703.938	0.83
704.12	0.95
704.301	0.73
704.483	0.72
704.664	0.79
704.845	0.9
705.026	0.81
705.208	0.76
705.389	0.77
705.57	0.76
705.751	0.73
705.933	0.7
706.114	0.8
706.295	0.74
706.476	0.6
706.657	0.89
706.838	0.8
707.02	0.76
707.201	0.71
707.382	0.71
707.563	0.75
707.744	0.68
707.925	0.66
708.106	0.69
708.287	0.72
708.468	0.76
708.649	0.66
708.83	0.7
709.011	0.73
709.192	0.79
709.373	0.62
709.554	0.64
709.734	0.74
709.915	0.67
710.096	0.66
710.277	0.52
710.458	0.67
710.639	0.76
710.819	0.55
711	0.65
711.181	0.73
711.362	0.78
711.542	0.68
711.723	0.66
711.904	0.66
712.085	0.7
712.265	0.58
712.446	0.51
712.627	0.58
712.807	0.61
712.988	0.62
713.168	0.51
713.349	0.72
713.53	0.48
713.71	0.59
713.891	0.51
714.071	0.66
714.252	0.55
714.432	0.6
714.613	0.43
714.793	0.58
714.974	0.74
715.154	0.68
715.334	0.69
715.515	0.76
715.695	0.56
715.876	0.55
716.056	0.58
716.236	0.55
716.417	0.51
716.597	0.57
716.777	0.84
716.957	0.58
717.138	0.63
717.318	0.57
717.498	0.42
717.678	0.6
717.859	0.62
718.039	0.41
718.219	0.57
718.399	0.61
718.579	0.49
718.759	0.51
718.939	0.58
719.12	0.56
719.3	0.62
719.48	0.34
719.66	0.45
719.84	0.69
720.02	0.53
720.2	0.5
720.38	0.61
720.56	0.71
720.74	0.42
720.92	0.56
721.1	0.69
721.279	0.65
721.459	0.56
721.639	0.47
721.819	0.6
721.999	0.48
722.179	0.66
722.359	0.39
722.538	0.52
722.718	0.53
722.898	0.49
723.078	0.48
723.257	0.48
723.437	0.63
723.617	0.54
723.797	0.5
723.976	0.52
724.156	0.63
724.336	0.63
724.515	0.7
724.695	0.41
724.874	0.58
725.054	0.62
725.234	0.51
725.413	0.53
725.593	0.48
725.772	0.55
725.952	0.43
726.131	0.52
726.311	0.52
726.49	0.6
726.67	0.44
726.849	0.36
727.028	0.52
727.208	0.49
727.387	0.47
727.567	0.36
727.746	0.41
727.925	0.53
728.105	0.44
728.284	0.51
728.463	0.42
728.643	0.51
728.822	0.39
729.001	0.56
729.18	0.45
729.359	0.61
729.539	0.44
729.718	0.48
729.897	0.58
730.076	0.47
730.255	0.36
730.434	0.42
730.614	0.7
730.793	0.66
730.972	0.41
731.151	0.54
731.33	0.66
731.509	0.53
731.688	0.5
731.867	0.44
732.046	0.36
732.225	0.75
732.404	0.45
732.583	0.35
732.762	0.56
732.941	0.57
733.12	0.56
733.298	0.45
733.477	0.62
733.656	0.47
733.835	0.48
734.014	0.54
734.193	0.46
734.371	0.51
734.55	0.59
734.729	0.29
734.908	0.56
735.086	0.52
735.265	0.57
735.444	0.23
735.623	0.46
735.801	0.39
735.98	0.45
736.159	0.46
736.337	0.5
736.516	0.5
736.694	0.45
736.873	0.52
737.052	0.68
737.23	0.66
737.409	0.39
737.587	0.75
737.766	0.39
737.944	0.49
738.123	0.48
738.301	0.59
738.479	0.51
738.658	0.45
738.836	0.24
739.015	0.4
739.193	0.71
739.371	0.3
739.55	0.5
739.728	0.38
739.906	0.69
740.085	0.77
740.263	0.47
740.441	0.21
740.62	0.75
740.798	0.55
740.976	0.35
741.154	0.29
741.332	0.71
741.511	0.41
741.689	0.56
741.867	0.55
742.045	0.59
742.223	0.45
742.401	0.45
742.579	0.36
742.757	0.51
742.935	0.34
743.114	0.42
743.292	0.46
743.47	0.62
743.648	0.51
743.826	0.53
744.004	0.55
744.181	0.58
744.359	0.28
744.537	0.44
744.715	0.35
744.893	0.39
745.071	0.46
745.249	0.38
745.427	0.43
745.605	0.52
745.782	0.47
745.96	0.49
746.138	0.52
746.316	0.53
746.493	0.45
746.671	0.39
746.849	0.41
747.027	0.55
747.204	0.41
747.382	0.51
747.56	0.31
747.737	0.44
747.915	0.46
748.093	0.55
748.27	0.23
748.448	0.39
748.625	0.33
748.803	0.28
748.98	0.33
749.158	0.44
749.335	0.51
749.513	0.43
749.69	0.28
749.868	0.49
750.045	0.51
750.223	0.28
750.4	0.19
750.578	0.67
750.755	0.38
750.932	0.21
751.11	0.5
751.287	0.22
751.464	0.49
751.642	0.25
751.819	0.42
751.996	0.36
752.173	0.43
752.351	0.26
752.528	0.42
752.705	0.38
752.882	0.35
753.06	0.37
753.237	0.44
753.414	0.57
753.591	0.74
753.768	0.46
753.945	0.34
754.122	0.36
754.299	0.49
754.476	0.34
754.654	0.38
754.831	0.55
755.008	0.53
755.185	0.26
755.362	0.36
755.539	0.48
755.716	0.31
755.892	0.3
756.069	0.36
756.246	0.34
756.423	0.38
756.6	0.58
756.777	0.33
756.954	0.51
757.131	0.4
757.307	0.21
757.484	0.2
757.661	0.39
757.838	0.45
758.015	0.25
758.191	0.42
758.368	0.47
758.545	0.65
758.721	0.52
758.898	0.33
759.075	0.51
759.251	0.53
759.428	0.35
759.605	0.26
759.781	0.24
759.958	0.44
760.134	0.49
760.311	0.26
760.488	0.55
760.664	0.62
760.841	0.46
761.017	0.35
761.194	0.41
761.37	0.61
761.547	0.42
761.723	0.27
761.899	0.58
762.076	0.27
762.252	0.29
762.429	0.22
762.605	0.5
762.781	0.2
762.958	0.4
763.134	0.27
763.31	0.35
763.486	0.45
763.663	0.12
763.839	0.52
764.015	0.1
764.191	0.32
764.368	0.3
764.544	0.16
764.72	0.38
764.896	0.44
765.072	0.39
765.248	0.31
765.425	0.31
765.601	0.48
765.777	0.35
765.953	0.08
766.129	0.24
766.305	0.18
766.481	0.59
766.657	0.35
766.833	0.55
767.009	0.28
767.185	0.27
767.361	0.32
767.537	0.13
767.713	0.61
767.889	0.22
768.065	0.34
768.24	0.51
768.416	0.64
768.592	0.33
768.768	0.32
768.944	0.42
769.12	0.34
769.295	0.2
769.471	0.38
769.647	0.41
769.823	0.64
769.998	0.25
770.174	0.08
770.35	0.73
770.525	0.75
770.701	0.38
770.877	0.24
771.052	0.32
771.228	0.56
771.403	0.34
771.579	0.26
771.755	0.87
771.93	0.36
772.106	0.23
772.281	0.08
772.457	0.49
772.632	0.46
772.808	0.1
772.983	0.16
773.159	0.13
773.334	0.59
773.509	0.37
773.685	0.24
773.86	0.79
774.036	0.64
774.211	0.47
774.386	0.29
774.562	0.41
774.737	0.54
774.912	0.2
775.087	0.41
775.263	0.4
775.438	0.43
775.613	0.25
775.788	0.34
775.964	0.61
776.139	0.94
776.314	0.24
776.489	0.41
776.664	0.3
776.839	0.16
777.014	0.51
777.19	0.52
777.365	0.64
777.54	0.57
777.715	0.19
777.89	0.24
778.065	0.25
778.24	0.4
778.415	0.69
778.59	0.17
778.765	0.33
778.94	0.4
779.115	0.27
779.289	0.35
779.464	0.42
779.639	0.23
779.814	0.21
779.989	0.07
780.164	0.62
780.339	0.49
780.513	0.27
780.688	0.14
780.863	0.37
781.038	0.49
781.212	0.2
781.387	0.37
781.562	0.78
781.737	0.32
781.911	0.64
782.086	0.23
782.261	0.39
782.435	0.74
782.61	0.21
782.784	0.33
782.959	0.72
783.134	0.12
783.308	0.17
783.483	0.38
783.657	0.96
783.832	0.74
784.006	0.09
784.181	0.5
784.355	0.57
784.53	0.12
784.704	0.14
784.878	0.73
785.053	0.49
785.227	0.62
785.402	0.98
785.576	0.33
785.75	0.45
785.925	0.44
786.099	0.43
786.273	0.37
786.448	0.6
786.622	0.78
786.796	0.55
786.97	0.29
787.145	1.09
787.319	0.12
787.493	0.55
787.667	-0
787.841	0.4
788.015	0.94
788.19	0.19
788.364	0.37
788.538	0.58
788.712	0.67
788.886	0.52
789.06	0.66
789.234	0.52
789.408	0.22
789.582	0.45
789.756	0.3
789.93	0.29
790.104	0.32
790.278	0.23
790.452	0.16
790.626	0.47
790.8	0.4
790.973	0.44
791.147	0.72
791.321	0.84
791.495	1
791.669	0.52
791.843	0.78
792.016	0.51
792.19	0.88
792.364	0.27
792.538	1.09
792.711	0.75
792.885	0.47
793.059	0.24
793.233	-0.23
793.406	0.67
793.58	0.58
793.754	0.49
793.927	0.37
794.101	0.82
794.274	0.51
794.448	0.68
794.622	0.03
794.795	0.88
794.969	0.3
795.142	0.76
795.316	0.25
795.489	0.46
795.663	0.68
795.836	0.6
796.009	0.09
796.183	0.84
796.356	0.36
796.53	0.59
796.703	0.24
796.876	1.05
797.05	0.28
797.223	0.21
797.396	0.45
797.57	0.41
797.743	0.91
797.916	0.66
798.09	0.35
798.263	0.91
798.436	0.73
798.609	0.38
798.782	0.24
798.956	0.85
799.129	0.34
799.302	0.1
799.475	0.41
799.648	0.28
799.821	0.13
799.994	0.53
800.167	-0.06
800.34	0.48
800.514	0.22
800.687	0.32
800.86	0.26
801.033	0.59
801.206	0.64
801.379	0.16
801.551	0.73
801.724	0.77
801.897	0.99
802.07	0.21
802.243	0.03
802.416	0.24
802.589	0.4
802.762	0.7
802.935	0.32
803.107	0.87
803.28	0.75
803.453	0.89
803.626	0.38
803.798	0.51
803.971	0.22
804.144	0.62
804.317	0.98
804.489	1.15
804.662	0.61
804.835	0.34
805.007	0.38
805.18	1.19
805.353	0.62
805.525	0.33
805.698	0.49
805.87	0.59
806.043	1.2
806.215	0.01
806.388	0.13
806.56	0.47
806.733	1.05
806.905	0.72
807.078	0.2
807.25	0.39
807.423	1.21
807.595	0.64
807.768	0.56
807.94	0.7
808.112	0.51
808.285	0.42
808.457	0.17
808.629	0.72
808.802	1.08
808.974	0.87
809.146	0.46
809.318	0.47
809.491	0.53
809.663	0.6
809.835	0.27
810.007	1.06
810.18	0.38
810.352	0.15
810.524	0.46
810.696	0.78
810.868	1.06
811.04	0.49
811.212	0.11
811.384	0.47
811.556	0.51
811.728	0.38
811.901	1.69
812.073	0.63
812.245	0.92
812.417	0.73
812.589	-0.24
812.76	1.03
812.932	1.07
813.104	1.17
813.276	0.52
813.448	0.9
813.62	0.59
813.792	0.62
813.964	0.43
814.136	0.66
814.307	0.45
814.479	0.22
814.651	0.04
814.823	1.72
814.995	0.45
815.166	0.46
815.338	0.32
815.51	0.04
815.681	1.91
815.853	0.75
816.025	0.5
816.196	1.32
816.368	0.8
816.54	0.22
816.711	0.19
816.883	0.96
817.054	1.36
817.226	-0
817.398	0.74
817.569	0.52
817.741	0.63
817.912	0.58
818.084	0.6
818.255	0.82
818.426	0.33
818.598	0.38
818.769	0.24
818.941	0.85
819.112	1.54
819.283	0.52
819.455	0.15
819.626	0.86
819.798	0.6
819.969	0.62
820.14	0.74
820.311	0.85
820.483	0.6
820.654	0.93
820.825	0.85
820.996	1.06
821.168	0.67
821.339	0.53
821.51	0.04
821.681	0.62
821.852	0.78
822.023	0.4
822.195	-0.15
822.366	1.27
822.537	0.69
822.708	0.58
822.879	0.12
823.05	1.61
823.221	0.71
823.392	0.85
823.563	0.5
823.734	0.63
823.905	0.71
824.076	0.45
824.247	0.47
824.418	0.81
824.589	1.46
824.759	1.17
824.93	0.33
825.101	0.11
825.272	1.55
825.443	1.69
825.614	1.38
825.784	0.16
825.955	1.98
826.126	1.28
826.297	1.58
826.467	2.1
826.638	2.24
826.809	0.9
826.98	0.63
827.15	1.92
827.321	0.7
827.492	1.64
827.662	1.43
827.833	1.69
828.003	1.29
828.174	0.27
828.345	0.2
828.515	2.12
828.686	0.67
828.856	1.02
829.027	0.44
829.197	0.76
829.368	1.08
829.538	0.76
829.709	0.54
829.879	1.16
830.049	1.41
830.22	-0.01
830.39	0.13
830.56	1.86
830.731	0.17
830.901	0.22
831.072	0.44
831.242	1.57
831.412	0.98
831.582	0.78
831.753	-0.08
831.923	1.52
832.093	1.45
832.263	0.72
832.434	0.44
832.604	-0.01
832.774	0.79
832.944	0.42
833.114	0.62
833.284	1.68
833.454	0.81
833.624	0.41
833.795	0.27
833.965	1.19
834.135	2.09
834.305	-0.17
834.475	0.26
834.645	1.32
834.815	0.77
834.985	0.42
835.155	0.15
835.325	1.45
835.494	1.94
835.664	0.48
835.834	-0.07
836.004	1.2
836.174	1.24
836.344	0.84
836.514	0.25
836.684	0.36
836.853	1.15
837.023	1.63
837.193	0.46
837.363	1.69
837.532	1.92
837.702	-0.14
837.872	0.36
838.041	1.99
838.211	2.8
838.381	0.09
838.55	1.26
838.72	3.19
838.89	3.53
839.059	0.92
839.229	0.73
839.398	3.68
839.568	1.54
839.738	0.4
839.907	1.92
840.077	1.64
840.246	0.4
840.416	0.06
840.585	0.22
840.755	2.03
840.924	2.23
841.093	0.37
841.263	0.47
841.432	0.72
841.602	0.7
841.771	0.36
841.94	1.11
842.11	3.14
842.279	3
842.448	-0.21
842.617	0.14
842.787	2.18
842.956	0.24
843.125	0.85
843.294	1.5
843.464	2.69
843.633	1.59
843.802	-0.59
843.971	0.81
844.14	3.02
844.309	1.9
844.479	-0.35
844.648	0.2
844.817	0.38
844.986	1.49
845.155	0.81
845.324	0.83
845.493	1.14
845.662	0.35
845.831	1.48
846	1.08
846.169	0.32
846.338	2.79
846.507	1.32
846.676	1.24
846.844	0.94
847.013	2.64
847.182	0.52
847.351	0.29
847.52	1.5
847.689	1.7
847.858	0.69
848.026	0.04
848.195	1.02
848.364	0.41
848.533	-0.39
848.701	0.17
848.87	1.05
849.039	2.51
849.207	1.85
849.376	2.74
849.545	2.52
849.713	-0.16
849.882	1.19
850.051	0.65
850.219	1.59
850.388	1.97
850.556	-0.16
850.725	0.96
850.893	1.62
851.062	1.41
851.23	1.29
851.399	0.1
851.567	1.23
851.736	1.15
851.904	0.66
852.073	0.71
852.241	1.42
852.41	1.54
852.578	1.39
852.746	0.38
852.915	2.28
853.083	1.34
853.251	0.24
853.42	0.4
853.588	0.52
853.756	2.19
853.924	0.19
854.093	0.29
854.261	0.9
854.429	-0.17
854.597	3.11
854.765	0.1
854.934	1.79
855.102	2.25
855.27	1.23
855.438	2.64
855.606	2.71
855.774	3.93
855.942	-1.11
856.11	0.83
856.278	0.88
856.446	2.21
856.614	0.44
856.782	0.69
856.95	2.57
857.118	1.95
857.286	1.89
857.454	-0.11
857.622	2.82
857.79	2.45
857.958	-0.29
858.126	-0.44
858.294	-1.93
858.462	0.63
858.629	0.95
858.797	0.12
858.965	1.26
859.133	2.2
859.301	1.19
859.468	2.16
859.636	1.34
859.804	4.03
859.971	1.99
860.139	0.46
860.307	2.31
860.474	1.71
860.642	0.36
860.81	0.17
860.977	1.88
861.145	2.54
861.313	0.34
861.48	0.85
861.648	1.97
861.815	1.36
861.983	-0.32
862.15	1.1
862.318	3.34
862.485	2.86
862.653	-0.08
862.82	1
862.988	3
863.155	3.53
863.322	0.51
863.49	0.04
863.657	0.41
863.824	4.03
863.992	2.88
864.159	1.91
864.326	4.04
864.494	1.91
864.661	3.15
864.828	0.78
864.996	4.2
865.163	4.11
865.33	-0.11
865.497	-1.91
865.664	0.46
865.832	0.46
865.999	1.74
866.166	-0.03
866.333	1.48
866.5	0.62
866.667	2.21
866.834	0.35
867.001	3.45
867.168	-0.56
867.335	0.97
867.502	1.3
867.669	0.67
867.836	6.18
868.003	0.12
868.17	2.38
868.337	5.31
868.504	6.58
868.671	-0.38
868.838	-0.27
869.005	4.44
869.172	2.82
869.339	1.63
869.505	0.87
869.672	4.65
869.839	4.17
870.006	1.39
870.173	-0.52
870.339	4.07
870.506	5.16
870.673	-0.33
870.84	3.25
871.006	2.59
871.173	1.79
871.34	1.41
871.506	0.98
871.673	3.69
871.839	0.23
872.006	1.88
872.173	1.19
872.339	3.14
872.506	2.72
872.672	0.82
872.839	-0.81
873.005	3.12
873.172	5.89
873.338	3.34
873.505	1.11
873.671	3.81
873.838	4
874.004	-2.14
874.171	0.07
874.337	2.72
874.503	2.22
874.67	2.22
874.836	1.45
875.002	4.44
875.169	4.12
875.335	2.41
875.501	1.21
875.668	2.84
875.834	2.34
876	2.19
876.166	2.11
876.332	2.01
876.499	6.28
876.665	1.85
876.831	1.08
876.997	5.71
877.163	1.54
877.329	1.9
877.495	1.48
877.662	4.52
877.828	2.55
877.994	0.11
878.16	0.52
878.326	2.37
878.492	2.08
878.658	1.65
878.824	3.18
878.99	2.66
879.156	2.7
879.322	3.46
879.487	1.63
879.653	2.9
879.819	2.98
879.985	-1.13
880.151	4.22
880.317	4.02
880.483	3.06
880.648	3.49
880.814	-0.65
880.98	2.4
881.146	-0.97
881.312	1.73
881.477	0.41
881.643	2.45
881.809	4.14
881.974	1.77
882.14	-1.78
882.306	0.49
882.471	5.54
882.637	1.58
882.803	1.71
882.968	5.93
883.134	5.67
883.299	0.51
883.465	2.58
883.63	2.86
883.796	3.1
883.961	5.27
884.127	2.08
884.292	-1.67
884.458	-1.09
884.623	-1.09
