Data from Apollo_Calib_20240827__AbsoluteIrradiance__764__11-53-02-220.txt Node

Date: Wed Aug 28 11:53:02 BST 2024
User: biology
Spectrometer: FLMT08252
Trigger mode: 0
Integration Time (sec): 5.000000E-1
Scans to average: 5
Electric dark correction enabled: true
Nonlinearity correction enabled: false
Boxcar width: 0
XAxis mode: Wavelengths
Number of Pixels in Spectrum: 3648
>>>>>Begin Spectral Data<<<<<
179.588	-0
179.809	-0
180.03	-0
180.251	-0
180.473	-0
180.694	0
180.915	0
181.136	-0
181.357	0
181.578	-0
181.799	-0
182.02	-0
182.241	0
182.462	-0
182.683	0
182.904	-0
183.125	-0
183.346	0
183.567	0
183.788	0
184.009	0
184.23	0
184.451	0
184.672	0
184.892	0
185.113	0
185.334	0
185.555	0
185.776	0
185.996	0
186.217	0
186.438	0
186.659	0
186.879	0
187.1	0
187.321	0
187.541	0
187.762	0
187.983	0
188.203	0
188.424	0
188.644	0
188.865	0
189.086	0
189.306	0
189.527	0
189.747	0
189.968	0
190.188	0
190.409	0
190.629	0
190.849	0
191.07	0
191.29	0
191.511	0
191.731	0
191.951	0
192.172	0
192.392	0
192.612	0
192.833	0
193.053	0
193.273	0
193.493	0
193.714	0
193.934	0
194.154	0
194.374	0
194.594	0
194.815	0
195.035	0
195.255	0
195.475	0
195.695	0
195.915	0
196.135	0
196.355	0
196.575	0
196.795	0
197.015	0
197.235	0
197.455	0
197.675	0
197.895	0
198.115	0
198.335	0
198.555	0
198.775	0
198.995	0
199.214	0
199.434	0
199.654	0
199.874	0
200.094	3.49
200.313	1.97
200.533	1.58
200.753	1.72
200.973	3.43
201.192	2.76
201.412	1.08
201.632	1.9
201.851	2.94
202.071	1.41
202.291	1.37
202.51	1.27
202.73	2.34
202.95	1.47
203.169	1.07
203.389	1.99
203.608	1.72
203.828	1.56
204.047	1.44
204.267	2.18
204.486	1.85
204.706	1.84
204.925	1.71
205.145	1.06
205.364	2
205.583	2.1
205.803	1.51
206.022	1.17
206.242	1.54
206.461	1.27
206.68	1.06
206.9	1.4
207.119	2.43
207.338	1.94
207.557	1.08
207.777	1.22
207.996	1.19
208.215	1.87
208.434	0.83
208.654	0.71
208.873	1.3
209.092	1.78
209.311	0.86
209.53	1.12
209.749	1.04
209.968	0.87
210.187	0.89
210.407	0.53
210.626	1.22
210.845	1.63
211.064	1.13
211.283	0.5
211.502	1.69
211.721	1.03
211.94	1
212.159	1.23
212.377	1.03
212.596	1.45
212.815	1.21
213.034	0.96
213.253	1.4
213.472	1.21
213.691	0.95
213.91	0.58
214.128	0.61
214.347	1.28
214.566	0.4
214.785	0.52
215.003	1.06
215.222	1.04
215.441	0.81
215.66	0.59
215.878	0.87
216.097	1.05
216.316	0.61
216.534	0.75
216.753	1.2
216.972	0.87
217.19	0.67
217.409	0.53
217.627	0.33
217.846	0.7
218.064	0.74
218.283	0.6
218.501	1.27
218.72	1.26
218.938	0.44
219.157	0.62
219.375	0.88
219.594	1.02
219.812	0.6
220.031	0.45
220.249	1.19
220.467	1.11
220.686	0.61
220.904	0.47
221.122	0.54
221.341	1.12
221.559	0.76
221.777	0.56
221.995	0.67
222.214	0.72
222.432	0.53
222.65	0.78
222.868	0.8
223.086	0.68
223.305	0.71
223.523	0.65
223.741	1.08
223.959	0.5
224.177	0.36
224.395	0.41
224.613	0.75
224.831	0.77
225.049	0.29
225.267	0.56
225.485	0.67
225.703	0.48
225.921	0.54
226.139	0.49
226.357	0.74
226.575	0.83
226.793	0.47
227.011	1.5
227.229	0.63
227.447	0.79
227.665	0.62
227.883	0.27
228.1	0.62
228.318	0.69
228.536	0.3
228.754	0.42
228.972	0.6
229.189	0.71
229.407	0.42
229.625	0.52
229.843	0.72
230.06	0.7
230.278	0.52
230.496	0.54
230.713	0.55
230.931	0.7
231.149	0.5
231.366	0.31
231.584	0.44
231.801	0.92
232.019	0.57
232.236	0.34
232.454	0.43
232.671	0.52
232.889	0.45
233.106	0.31
233.324	0.5
233.541	0.41
233.759	0.46
233.976	0.43
234.194	0.47
234.411	0.44
234.628	0.41
234.846	0.44
235.063	0.56
235.28	0.49
235.498	0.42
235.715	0.34
235.932	0.75
236.149	0.4
236.367	0.32
236.584	0.5
236.801	0.48
237.018	0.56
237.236	0.43
237.453	0.29
237.67	0.61
237.887	0.44
238.104	0.4
238.321	0.37
238.538	0.36
238.755	0.57
238.973	0.28
239.19	0.45
239.407	0.5
239.624	0.38
239.841	0.31
240.058	0.36
240.275	0.38
240.492	0.4
240.709	0.44
240.925	0.45
241.142	0.49
241.359	0.32
241.576	0.26
241.793	0.28
242.01	0.39
242.227	0.58
242.444	0.54
242.66	0.63
242.877	0.38
243.094	0.36
243.311	0.53
243.527	0.39
243.744	0.48
243.961	0.43
244.178	0.35
244.394	0.41
244.611	0.59
244.828	0.69
245.044	0.33
245.261	0.34
245.477	0.37
245.694	0.59
245.911	0.4
246.127	0.42
246.344	0.52
246.56	0.5
246.777	0.25
246.993	0.38
247.21	0.51
247.426	0.45
247.643	0.27
247.859	0.29
248.076	0.44
248.292	0.68
248.508	0.38
248.725	0.46
248.941	0.38
249.157	0.55
249.374	0.22
249.59	0.37
249.806	0.38
250.023	0.54
250.239	0.26
250.455	0.3
250.671	0.35
250.888	0.52
251.104	0.47
251.32	0.32
251.536	0.35
251.752	0.28
251.969	0.38
252.185	0.38
252.401	0.58
252.617	0.42
252.833	0.31
253.049	0.3
253.265	0.38
253.481	0.41
253.697	0.2
253.913	0.24
254.129	0.33
254.345	0.39
254.561	0.32
254.777	0.26
254.993	0.46
255.209	0.38
255.425	0.32
255.641	0.33
255.857	0.5
256.073	0.36
256.288	0.27
256.504	0.28
256.72	0.37
256.936	0.53
257.152	0.39
257.367	0.27
257.583	0.41
257.799	0.41
258.015	0.23
258.23	0.29
258.446	0.5
258.662	0.37
258.877	0.32
259.093	0.25
259.309	0.38
259.524	0.32
259.74	0.23
259.955	0.26
260.171	0.37
260.387	0.39
260.602	0.37
260.818	0.34
261.033	0.27
261.249	0.32
261.464	0.23
261.68	0.23
261.895	0.35
262.11	0.38
262.326	0.27
262.541	0.22
262.757	0.44
262.972	0.35
263.187	0.32
263.403	0.37
263.618	0.38
263.833	0.33
264.049	0.25
264.264	0.28
264.479	0.38
264.694	0.41
264.91	0.24
265.125	0.23
265.34	0.42
265.555	0.55
265.77	0.37
265.986	0.33
266.201	0.39
266.416	0.42
266.631	0.23
266.846	0.32
267.061	0.36
267.276	0.37
267.491	0.18
267.706	0.3
267.921	0.35
268.136	0.34
268.351	0.32
268.566	0.2
268.781	0.4
268.996	0.42
269.211	0.33
269.426	0.19
269.641	0.32
269.856	0.4
270.071	0.25
270.285	0.23
270.5	0.37
270.715	0.4
270.93	0.24
271.145	0.33
271.359	0.41
271.574	0.34
271.789	0.27
272.004	0.26
272.218	0.31
272.433	0.39
272.648	0.3
272.862	0.33
273.077	0.34
273.292	0.3
273.506	0.21
273.721	0.29
273.936	0.38
274.15	0.35
274.365	0.31
274.579	0.32
274.794	0.39
275.008	0.38
275.223	0.16
275.437	0.36
275.652	0.39
275.866	0.36
276.081	0.27
276.295	0.36
276.509	0.32
276.724	0.33
276.938	0.3
277.153	0.32
277.367	0.35
277.581	0.25
277.796	0.21
278.01	0.25
278.224	0.41
278.438	0.43
278.653	0.31
278.867	0.23
279.081	0.13
279.295	0.25
279.51	0.32
279.724	0.16
279.938	0.32
280.152	0.34
280.366	0.2
280.58	0.31
280.794	0.42
281.008	0.36
281.222	0.3
281.437	0.41
281.651	0.33
281.865	0.36
282.079	0.25
282.293	0.21
282.507	0.27
282.721	0.27
282.935	0.25
283.148	0.2
283.362	0.26
283.576	0.23
283.79	0.26
284.004	0.2
284.218	0.39
284.432	0.23
284.646	0.28
284.859	0.21
285.073	0.25
285.287	0.34
285.501	0.21
285.714	0.26
285.928	0.33
286.142	0.28
286.356	0.23
286.569	0.27
286.783	0.39
286.997	0.32
287.21	0.3
287.424	0.26
287.637	0.23
287.851	0.23
288.065	0.31
288.278	0.2
288.492	0.27
288.705	0.24
288.919	0.29
289.132	0.18
289.346	0.33
289.559	0.2
289.773	0.2
289.986	0.27
290.2	0.27
290.413	0.31
290.626	0.22
290.84	0.18
291.053	0.29
291.267	0.39
291.48	0.27
291.693	0.24
291.906	0.27
292.12	0.22
292.333	0.22
292.546	0.24
292.76	0.32
292.973	0.27
293.186	0.24
293.399	0.2
293.612	0.38
293.826	0.24
294.039	0.28
294.252	0.19
294.465	0.28
294.678	0.28
294.891	0.22
295.104	0.16
295.317	0.21
295.53	0.28
295.743	0.25
295.956	0.19
296.169	0.32
296.382	0.29
296.595	0.23
296.808	0.2
297.021	0.3
297.234	0.28
297.447	0.25
297.66	0.28
297.873	0.35
298.086	0.27
298.299	0.18
298.511	0.18
298.724	0.25
298.937	0.17
299.15	0.17
299.363	0.23
299.575	0.26
299.788	0.25
300.001	0.19
300.213	0.2
300.426	0.16
300.639	0.19
300.852	0.18
301.064	0.28
301.277	0.3
301.489	0.23
301.702	0.26
301.915	0.21
302.127	0.26
302.34	0.3
302.552	0.27
302.765	0.13
302.977	0.27
303.19	0.2
303.402	0.22
303.615	0.2
303.827	0.16
304.04	0.21
304.252	0.3
304.464	0.2
304.677	0.36
304.889	0.31
305.102	0.16
305.314	0.18
305.526	0.24
305.739	0.27
305.951	0.16
306.163	0.22
306.375	0.32
306.588	0.21
306.8	0.24
307.012	0.17
307.224	0.29
307.436	0.32
307.649	0.15
307.861	0.25
308.073	0.32
308.285	0.19
308.497	0.21
308.709	0.22
308.921	0.26
309.133	0.28
309.346	0.21
309.558	0.24
309.77	0.23
309.982	0.32
310.194	0.29
310.406	0.2
310.617	0.32
310.829	0.27
311.041	0.28
311.253	0.24
311.465	0.18
311.677	0.22
311.889	0.18
312.101	0.15
312.313	0.27
312.524	0.35
312.736	0.19
312.948	0.17
313.16	0.34
313.372	0.27
313.583	0.24
313.795	0.24
314.007	0.26
314.218	0.26
314.43	0.24
314.642	0.2
314.853	0.15
315.065	0.29
315.277	0.25
315.488	0.26
315.7	0.32
315.912	0.31
316.123	0.21
316.335	0.2
316.546	0.36
316.758	0.22
316.969	0.25
317.181	0.22
317.392	0.27
317.604	0.29
317.815	0.21
318.026	0.21
318.238	0.19
318.449	0.25
318.661	0.16
318.872	0.2
319.083	0.18
319.295	0.29
319.506	0.21
319.717	0.26
319.929	0.26
320.14	0.24
320.351	0.25
320.562	0.2
320.774	0.27
320.985	0.23
321.196	0.19
321.407	0.18
321.618	0.3
321.829	0.24
322.041	0.23
322.252	0.23
322.463	0.26
322.674	0.24
322.885	0.17
323.096	0.23
323.307	0.22
323.518	0.2
323.729	0.23
323.94	0.28
324.151	0.22
324.362	0.25
324.573	0.25
324.784	0.24
324.995	0.3
325.206	0.29
325.417	0.24
325.628	0.23
325.838	0.24
326.049	0.23
326.26	0.25
326.471	0.21
326.682	0.27
326.892	0.25
327.103	0.14
327.314	0.2
327.525	0.29
327.735	0.26
327.946	0.24
328.157	0.21
328.368	0.29
328.578	0.24
328.789	0.29
328.999	0.22
329.21	0.17
329.421	0.31
329.631	0.18
329.842	0.17
330.052	0.24
330.263	0.3
330.473	0.24
330.684	0.2
330.894	0.24
331.105	0.26
331.315	0.21
331.526	0.16
331.736	0.31
331.947	0.25
332.157	0.23
332.367	0.19
332.578	0.26
332.788	0.3
332.999	0.25
333.209	0.25
333.419	0.18
333.629	0.27
333.84	0.29
334.05	0.26
334.26	0.31
334.47	0.21
334.681	0.28
334.891	0.19
335.101	0.28
335.311	0.3
335.521	0.24
335.732	0.2
335.942	0.29
336.152	0.33
336.362	0.27
336.572	0.25
336.782	0.27
336.992	0.25
337.202	0.2
337.412	0.26
337.622	0.26
337.832	0.18
338.042	0.23
338.252	0.13
338.462	0.21
338.672	0.27
338.882	0.21
339.092	0.25
339.302	0.27
339.511	0.29
339.721	0.23
339.931	0.19
340.141	0.27
340.351	0.26
340.561	0.25
340.77	0.22
340.98	0.25
341.19	0.27
341.4	0.22
341.609	0.14
341.819	0.22
342.029	0.18
342.238	0.23
342.448	0.18
342.658	0.26
342.867	0.22
343.077	0.26
343.286	0.25
343.496	0.24
343.706	0.3
343.915	0.21
344.125	0.23
344.334	0.26
344.544	0.12
344.753	0.22
344.963	0.18
345.172	0.19
345.381	0.19
345.591	0.17
345.8	0.23
346.01	0.28
346.219	0.26
346.428	0.08
346.638	0.23
346.847	0.24
347.056	0.29
347.266	0.16
347.475	0.23
347.684	0.3
347.893	0.22
348.103	0.26
348.312	0.2
348.521	0.28
348.73	0.23
348.94	0.22
349.149	0.18
349.358	0.26
349.567	0.2
349.776	0.16
349.985	0.19
350.194	0.27
350.403	0.26
350.612	0.15
350.821	0.21
351.03	0.22
351.239	0.18
351.448	0.21
351.657	0.16
351.866	0.3
352.075	0.24
352.284	0.18
352.493	0.2
352.702	0.29
352.911	0.26
353.12	0.22
353.329	0.22
353.538	0.27
353.746	0.17
353.955	0.21
354.164	0.22
354.373	0.21
354.582	0.26
354.79	0.22
354.999	0.22
355.208	0.21
355.416	0.29
355.625	0.18
355.834	0.22
356.042	0.28
356.251	0.18
356.46	0.19
356.668	0.26
356.877	0.27
357.085	0.29
357.294	0.12
357.503	0.22
357.711	0.25
357.92	0.39
358.128	0.24
358.337	0.22
358.545	0.25
358.754	0.2
358.962	0.32
359.17	0.21
359.379	0.22
359.587	0.22
359.796	0.24
360.004	0.27
360.212	0.25
360.421	0.28
360.629	0.21
360.837	0.17
361.046	0.25
361.254	0.35
361.462	0.23
361.67	0.22
361.879	0.26
362.087	0.3
362.295	0.21
362.503	0.21
362.711	0.19
362.92	0.2
363.128	0.19
363.336	0.19
363.544	0.15
363.752	0.23
363.96	0.24
364.168	0.17
364.376	0.22
364.584	0.25
364.792	0.26
365	0.24
365.208	0.27
365.416	0.27
365.624	0.23
365.832	0.17
366.04	0.3
366.248	0.22
366.456	0.22
366.664	0.22
366.872	0.21
367.079	0.23
367.287	0.22
367.495	0.25
367.703	0.21
367.911	0.19
368.118	0.2
368.326	0.24
368.534	0.21
368.742	0.24
368.949	0.15
369.157	0.2
369.365	0.26
369.572	0.18
369.78	0.22
369.988	0.25
370.195	0.24
370.403	0.27
370.61	0.17
370.818	0.19
371.026	0.31
371.233	0.2
371.441	0.25
371.648	0.18
371.856	0.24
372.063	0.28
372.271	0.21
372.478	0.18
372.685	0.2
372.893	0.27
373.1	0.21
373.308	0.21
373.515	0.33
373.722	0.29
373.93	0.18
374.137	0.22
374.344	0.3
374.552	0.28
374.759	0.26
374.966	0.24
375.173	0.25
375.381	0.31
375.588	0.23
375.795	0.11
376.002	0.23
376.209	0.16
376.417	0.21
376.624	0.23
376.831	0.25
377.038	0.26
377.245	0.12
377.452	0.22
377.659	0.26
377.866	0.23
378.073	0.24
378.28	0.24
378.487	0.28
378.694	0.28
378.901	0.22
379.108	0.25
379.315	0.29
379.522	0.31
379.729	0.25
379.936	0.19
380.143	0.23
380.35	0.29
380.557	0.24
380.763	0.26
380.97	0.23
381.177	0.27
381.384	0.26
381.591	0.22
381.797	0.23
382.004	0.29
382.211	0.27
382.418	0.21
382.624	0.25
382.831	0.28
383.038	0.26
383.244	0.27
383.451	0.25
383.658	0.26
383.864	0.24
384.071	0.21
384.277	0.34
384.484	0.23
384.69	0.29
384.897	0.2
385.103	0.23
385.31	0.2
385.516	0.2
385.723	0.21
385.929	0.23
386.136	0.22
386.342	0.28
386.549	0.23
386.755	0.32
386.961	0.3
387.168	0.25
387.374	0.3
387.58	0.33
387.787	0.25
387.993	0.25
388.199	0.23
388.406	0.2
388.612	0.24
388.818	0.21
389.024	0.24
389.231	0.26
389.437	0.33
389.643	0.33
389.849	0.24
390.055	0.26
390.261	0.29
390.467	0.28
390.674	0.24
390.88	0.25
391.086	0.34
391.292	0.26
391.498	0.35
391.704	0.27
391.91	0.26
392.116	0.26
392.322	0.21
392.528	0.26
392.734	0.27
392.94	0.25
393.146	0.27
393.352	0.28
393.557	0.26
393.763	0.25
393.969	0.29
394.175	0.27
394.381	0.28
394.587	0.21
394.792	0.25
394.998	0.35
395.204	0.31
395.41	0.26
395.615	0.35
395.821	0.36
396.027	0.32
396.233	0.25
396.438	0.32
396.644	0.37
396.85	0.34
397.055	0.31
397.261	0.3
397.466	0.34
397.672	0.31
397.878	0.36
398.083	0.31
398.289	0.29
398.494	0.36
398.7	0.33
398.905	0.22
399.111	0.38
399.316	0.26
399.522	0.29
399.727	0.32
399.932	0.28
400.138	0.27
400.343	0.35
400.549	0.29
400.754	0.37
400.959	0.38
401.165	0.33
401.37	0.37
401.575	0.44
401.78	0.34
401.986	0.32
402.191	0.3
402.396	0.33
402.601	0.37
402.807	0.38
403.012	0.34
403.217	0.42
403.422	0.37
403.627	0.4
403.832	0.38
404.037	0.41
404.243	0.41
404.448	0.38
404.653	0.38
404.858	0.39
405.063	0.41
405.268	0.38
405.473	0.32
405.678	0.33
405.883	0.61
406.088	0.44
406.293	0.3
406.498	0.45
406.703	0.44
406.907	0.42
407.112	0.34
407.317	0.45
407.522	0.53
407.727	0.4
407.932	0.46
408.136	0.57
408.341	0.53
408.546	0.52
408.751	0.48
408.956	0.54
409.16	0.58
409.365	0.5
409.57	0.5
409.774	0.51
409.979	0.56
410.184	0.59
410.388	0.57
410.593	0.68
410.798	0.67
411.002	0.63
411.207	0.72
411.411	0.68
411.616	0.64
411.82	0.69
412.025	0.73
412.229	0.72
412.434	0.89
412.638	0.76
412.843	0.85
413.047	0.85
413.252	0.8
413.456	0.9
413.66	0.92
413.865	0.95
414.069	1.01
414.273	0.97
414.478	0.98
414.682	1.06
414.886	1.01
415.091	0.98
415.295	1.04
415.499	1.17
415.703	1.21
415.908	1.2
416.112	1.16
416.316	1.35
416.52	1.34
416.724	1.34
416.929	1.41
417.133	1.61
417.337	1.49
417.541	1.6
417.745	1.6
417.949	1.74
418.153	1.79
418.357	1.76
418.561	2.02
418.765	1.81
418.969	2.09
419.173	2.13
419.377	2.09
419.581	2.31
419.785	2.23
419.989	2.27
420.193	2.44
420.397	2.42
420.601	2.59
420.804	2.67
421.008	2.6
421.212	2.77
421.416	2.9
421.62	2.87
421.823	2.89
422.027	3.07
422.231	2.99
422.435	2.99
422.638	3.06
422.842	3.19
423.046	3.17
423.249	3.46
423.453	3.37
423.657	3.55
423.86	3.64
424.064	3.74
424.268	3.87
424.471	3.85
424.675	4.11
424.878	4.16
425.082	4.27
425.285	4.5
425.489	4.45
425.692	4.53
425.896	4.59
426.099	4.78
426.303	4.83
426.506	5
426.71	5.15
426.913	5.4
427.116	5.5
427.32	5.49
427.523	5.6
427.726	5.87
427.93	6
428.133	6.2
428.336	6.32
428.54	6.43
428.743	6.62
428.946	6.93
429.149	6.96
429.353	6.98
429.556	7.09
429.759	7.08
429.962	7.22
430.165	7.3
430.368	6.99
430.571	7.03
430.775	7.08
430.978	7.09
431.181	7.23
431.384	7.22
431.587	7.33
431.79	7.71
431.993	7.54
432.196	7.93
432.399	8.22
432.602	8.39
432.805	8.41
433.008	8.84
433.211	8.86
433.414	9.12
433.616	9.18
433.819	9.13
434.022	9.23
434.225	9.48
434.428	9.46
434.631	9.89
434.833	9.62
435.036	9.83
435.239	10.1
435.442	10.1
435.645	10.35
435.847	10.28
436.05	10.65
436.253	10.79
436.455	10.75
436.658	10.82
436.861	11.05
437.063	11.16
437.266	11.07
437.468	11.4
437.671	11.77
437.874	11.76
438.076	11.65
438.279	12.04
438.481	12
438.684	12.76
438.886	12.37
439.089	12.62
439.291	12.66
439.494	13.08
439.696	13.19
439.899	13.6
440.101	14.03
440.303	14.14
440.506	14.93
440.708	14.63
440.91	14.83
441.113	14.97
441.315	15.22
441.517	15.07
441.72	15.57
441.922	15.22
442.124	15
442.326	15.46
442.529	15.71
442.731	15.58
442.933	16.04
443.135	15.61
443.337	15.77
443.539	16.33
443.742	15.96
443.944	16.73
444.146	16.36
444.348	16.31
444.55	16.31
444.752	16.52
444.954	16.42
445.156	16.28
445.358	16.75
445.56	17.03
445.762	16.88
445.964	17.17
446.166	16.96
446.368	17.08
446.57	17.04
446.772	16.67
446.974	16.42
447.175	16.77
447.377	16.49
447.579	16.95
447.781	16.49
447.983	16.47
448.184	16.08
448.386	16.35
448.588	16.11
448.79	15.95
448.991	16.23
449.193	16.25
449.395	15.68
449.597	15.43
449.798	15.33
450	14.86
450.202	14.7
450.403	14.86
450.605	14.76
450.806	14.34
451.008	14.37
451.21	14.16
451.411	13.75
451.613	13.1
451.814	13.21
452.016	13.17
452.217	12.58
452.419	12.65
452.62	12.37
452.821	12.09
453.023	11.98
453.224	11.63
453.426	11.22
453.627	10.52
453.828	10.63
454.03	10.78
454.231	10.74
454.432	10.46
454.634	10.35
454.835	10
455.036	9.8
455.238	9.57
455.439	9.33
455.64	9.06
455.841	9
456.042	8.87
456.244	8.75
456.445	8.58
456.646	8.26
456.847	8.22
457.048	8.06
457.249	8.11
457.45	7.9
457.651	7.46
457.852	7.24
458.054	6.92
458.255	6.87
458.456	6.9
458.657	6.77
458.858	6.48
459.058	6.28
459.259	6.37
459.46	6.13
459.661	6.14
459.862	6.12
460.063	6.07
460.264	5.95
460.465	5.7
460.666	5.83
460.866	5.46
461.067	5.16
461.268	5.26
461.469	5.22
461.67	5.17
461.87	4.94
462.071	4.94
462.272	4.88
462.473	4.84
462.673	5.01
462.874	4.87
463.075	4.84
463.275	4.86
463.476	4.92
463.676	4.86
463.877	4.7
464.078	4.75
464.278	4.72
464.479	4.6
464.679	4.54
464.88	4.51
465.08	4.44
465.281	4.29
465.481	4.07
465.682	3.95
465.882	3.98
466.083	3.88
466.283	3.91
466.483	3.72
466.684	3.52
466.884	3.47
467.085	3.5
467.285	3.62
467.485	3.43
467.686	3.41
467.886	3.25
468.086	3.22
468.286	3.22
468.487	3.3
468.687	3.1
468.887	3.04
469.087	3.21
469.287	3.06
469.488	2.89
469.688	3.06
469.888	3.06
470.088	2.95
470.288	2.94
470.488	2.83
470.688	2.7
470.888	2.75
471.088	2.55
471.288	2.67
471.488	2.65
471.688	2.58
471.888	2.57
472.088	2.64
472.288	2.61
472.488	2.5
472.688	2.45
472.888	2.45
473.088	2.46
473.288	2.36
473.488	2.31
473.688	2.5
473.887	2.38
474.087	2.27
474.287	2.31
474.487	2.23
474.687	2.28
474.886	2.2
475.086	2.22
475.286	2.25
475.486	2.16
475.685	2.12
475.885	2.13
476.085	2.11
476.284	2.13
476.484	2.16
476.684	2.13
476.883	2.2
477.083	2.05
477.282	2.01
477.482	2.06
477.681	2.04
477.881	1.91
478.08	1.95
478.28	1.93
478.479	1.99
478.679	2.02
478.878	1.93
479.078	1.9
479.277	1.94
479.477	1.91
479.676	1.9
479.875	1.92
480.075	1.81
480.274	1.91
480.473	1.95
480.673	1.91
480.872	1.96
481.071	1.93
481.271	1.92
481.47	1.88
481.669	1.89
481.868	1.86
482.067	1.85
482.267	1.82
482.466	1.84
482.665	1.82
482.864	1.84
483.063	1.83
483.262	1.91
483.461	1.93
483.661	1.91
483.86	1.87
484.059	1.9
484.258	1.95
484.457	1.89
484.656	1.9
484.855	1.93
485.054	1.77
485.253	1.86
485.452	1.81
485.651	1.91
485.849	1.87
486.048	1.87
486.247	1.89
486.446	1.93
486.645	1.86
486.844	1.92
487.043	1.92
487.241	1.99
487.44	1.94
487.639	1.99
487.838	1.97
488.037	1.97
488.235	2.08
488.434	2.04
488.633	1.89
488.831	2.06
489.03	2.11
489.229	2.05
489.427	2.09
489.626	2.15
489.825	2.15
490.023	2.13
490.222	2.09
490.42	2.14
490.619	2.18
490.817	2.2
491.016	2.18
491.214	2.29
491.413	2.3
491.611	2.24
491.81	2.23
492.008	2.3
492.207	2.36
492.405	2.36
492.604	2.32
492.802	2.37
493	2.44
493.199	2.41
493.397	2.46
493.595	2.44
493.794	2.44
493.992	2.58
494.19	2.52
494.388	2.57
494.587	2.54
494.785	2.58
494.983	2.53
495.181	2.65
495.379	2.69
495.578	2.73
495.776	2.73
495.974	2.7
496.172	2.78
496.37	2.86
496.568	2.87
496.766	2.87
496.964	2.94
497.162	2.96
497.36	2.99
497.558	3.01
497.756	3.08
497.954	3.04
498.152	3.09
498.35	3.18
498.548	3.12
498.746	3.16
498.944	3.16
499.142	3.18
499.34	3.31
499.538	3.29
499.736	3.25
499.933	3.37
500.131	3.39
500.329	3.5
500.527	3.49
500.725	3.58
500.922	3.53
501.12	3.58
501.318	3.65
501.516	3.68
501.713	3.74
501.911	3.65
502.109	3.68
502.306	3.8
502.504	3.7
502.701	3.78
502.899	3.83
503.097	4.02
503.294	3.92
503.492	3.98
503.689	4.03
503.887	4
504.084	4.07
504.282	4.08
504.479	4.06
504.677	4.22
504.874	4.14
505.072	4.1
505.269	4.32
505.466	4.34
505.664	4.37
505.861	4.28
506.059	4.39
506.256	4.41
506.453	4.44
506.651	4.59
506.848	4.63
507.045	4.61
507.242	4.62
507.44	4.64
507.637	4.7
507.834	4.68
508.031	4.8
508.229	4.68
508.426	4.72
508.623	4.84
508.82	4.91
509.017	4.87
509.214	4.84
509.411	5
509.608	4.95
509.805	5.03
510.003	5.09
510.2	5.08
510.397	5.21
510.594	5.06
510.791	5.17
510.988	5.21
511.184	5.18
511.381	5.09
511.578	5.26
511.775	5.33
511.972	5.3
512.169	5.41
512.366	5.37
512.563	5.52
512.76	5.55
512.956	5.56
513.153	5.52
513.35	5.45
513.547	5.47
513.744	5.58
513.94	5.56
514.137	5.73
514.334	5.61
514.53	5.62
514.727	5.84
514.924	5.82
515.12	5.75
515.317	5.78
515.514	5.74
515.71	5.7
515.907	5.92
516.103	5.94
516.3	5.87
516.497	5.96
516.693	6
516.89	5.98
517.086	6.01
517.283	6.04
517.479	5.9
517.676	6.11
517.872	6.14
518.068	6.08
518.265	6.09
518.461	6.04
518.658	6.2
518.854	6.2
519.05	6.27
519.247	6.25
519.443	6.23
519.639	6.31
519.836	6.3
520.032	6.18
520.228	6.34
520.424	6.28
520.621	6.44
520.817	6.45
521.013	6.37
521.209	6.57
521.405	6.55
521.601	6.51
521.798	6.43
521.994	6.49
522.19	6.43
522.386	6.46
522.582	6.55
522.778	6.66
522.974	6.57
523.17	6.59
523.366	6.5
523.562	6.63
523.758	6.66
523.954	6.52
524.15	6.65
524.346	6.69
524.542	6.73
524.738	6.72
524.934	6.8
525.129	6.81
525.325	6.67
525.521	6.72
525.717	6.97
525.913	6.77
526.109	6.82
526.304	6.92
526.5	6.85
526.696	6.9
526.892	6.8
527.087	7
527.283	6.96
527.479	6.9
527.674	6.77
527.87	6.95
528.066	6.95
528.261	6.98
528.457	6.9
528.653	7
528.848	7
529.044	7.12
529.239	6.91
529.435	6.97
529.63	6.95
529.826	6.98
530.021	6.99
530.217	6.99
530.412	6.98
530.608	7.03
530.803	7.02
530.999	6.97
531.194	7.08
531.389	7.15
531.585	7.09
531.78	7.26
531.975	7.11
532.171	7.17
532.366	7.09
532.561	7.12
532.757	7.09
532.952	7.27
533.147	7.06
533.342	7.21
533.538	7.11
533.733	7.31
533.928	6.97
534.123	7.18
534.318	7.26
534.513	7.15
534.709	7.31
534.904	7.27
535.099	7.33
535.294	7.34
535.489	7.26
535.684	7.2
535.879	7.22
536.074	7.29
536.269	7.33
536.464	7.3
536.659	7.24
536.854	7.23
537.049	7.36
537.244	7.32
537.439	7.34
537.634	7.31
537.828	7.31
538.023	7.3
538.218	7.3
538.413	7.3
538.608	7.33
538.803	7.3
538.997	7.28
539.192	7.34
539.387	7.29
539.582	7.36
539.776	7.25
539.971	7.46
540.166	7.43
540.36	7.32
540.555	7.46
540.75	7.39
540.944	7.35
541.139	7.42
541.334	7.44
541.528	7.37
541.723	7.46
541.917	7.5
542.112	7.4
542.306	7.27
542.501	7.32
542.695	7.37
542.89	7.34
543.084	7.42
543.279	7.43
543.473	7.48
543.668	7.48
543.862	7.29
544.056	7.37
544.251	7.49
544.445	7.56
544.64	7.53
544.834	7.15
545.028	7.12
545.222	7.43
545.417	7.59
545.611	7.46
545.805	7.45
546	7.31
546.194	7.45
546.388	7.43
546.582	7.35
546.776	7.42
546.97	7.44
547.165	7.45
547.359	7.47
547.553	7.42
547.747	7.47
547.941	7.62
548.135	7.44
548.329	7.5
548.523	7.48
548.717	7.41
548.911	7.45
549.105	7.37
549.299	7.53
549.493	7.53
549.687	7.4
549.881	7.51
550.075	7.55
550.269	7.36
550.463	7.46
550.657	7.51
550.85	7.42
551.044	7.47
551.238	7.54
551.432	7.48
551.626	7.6
551.82	7.52
552.013	7.39
552.207	7.58
552.401	7.55
552.594	7.48
552.788	7.41
552.982	7.49
553.176	7.41
553.369	7.62
553.563	7.61
553.756	7.48
553.95	7.47
554.144	7.57
554.337	7.55
554.531	7.32
554.724	7.53
554.918	7.56
555.111	7.47
555.305	7.54
555.498	7.4
555.692	7.58
555.885	7.55
556.079	7.46
556.272	7.49
556.466	7.51
556.659	7.46
556.852	7.51
557.046	7.41
557.239	7.36
557.432	7.45
557.626	7.46
557.819	7.55
558.012	7.59
558.206	7.63
558.399	7.49
558.592	7.46
558.785	7.43
558.979	7.52
559.172	7.49
559.365	7.51
559.558	7.5
559.751	7.47
559.944	7.6
560.138	7.43
560.331	7.57
560.524	7.53
560.717	7.5
560.91	7.5
561.103	7.5
561.296	7.35
561.489	7.53
561.682	7.6
561.875	7.53
562.068	7.62
562.261	7.45
562.454	7.61
562.647	7.51
562.84	7.56
563.032	7.54
563.225	7.42
563.418	7.51
563.611	7.52
563.804	7.54
563.997	7.38
564.19	7.3
564.382	7.52
564.575	7.5
564.768	7.43
564.961	7.52
565.153	7.4
565.346	7.4
565.539	7.62
565.731	7.48
565.924	7.58
566.117	7.56
566.309	7.51
566.502	7.49
566.695	7.36
566.887	7.46
567.08	7.47
567.272	7.5
567.465	7.39
567.657	7.51
567.85	7.41
568.042	7.48
568.235	7.53
568.427	7.28
568.62	7.41
568.812	7.44
569.005	7.49
569.197	7.41
569.389	7.5
569.582	7.51
569.774	7.52
569.966	7.37
570.159	7.36
570.351	7.39
570.543	7.43
570.736	7.43
570.928	7.26
571.12	7.46
571.312	7.34
571.505	7.23
571.697	7.44
571.889	7.4
572.081	7.42
572.273	7.3
572.465	7.43
572.658	7.42
572.85	7.4
573.042	7.41
573.234	7.29
573.426	7.32
573.618	7.31
573.81	7.41
574.002	7.33
574.194	7.38
574.386	7.27
574.578	7.24
574.77	7.33
574.962	7.35
575.154	7.15
575.346	7.26
575.538	7.28
575.729	7.25
575.921	7.35
576.113	7.36
576.305	7.27
576.497	7.38
576.689	7.19
576.88	7.21
577.072	7.31
577.264	7.26
577.456	7.31
577.647	7.22
577.839	7.39
578.031	7.17
578.223	7.23
578.414	7.2
578.606	7.24
578.798	7.34
578.989	7.17
579.181	7.36
579.372	7.28
579.564	7.21
579.755	7.2
579.947	7.12
580.139	7.27
580.33	7.06
580.522	7.17
580.713	7.13
580.905	7.18
581.096	7.23
581.287	7.16
581.479	7.19
581.67	7.19
581.862	7.17
582.053	7.11
582.244	6.99
582.436	7.17
582.627	7.13
582.818	7.07
583.01	7.04
583.201	7.14
583.392	7.02
583.583	7.03
583.775	6.88
583.966	7
584.157	7.03
584.348	7.1
584.54	6.97
584.731	6.96
584.922	6.94
585.113	6.9
585.304	7.01
585.495	6.99
585.686	7.1
585.877	7.06
586.068	7.09
586.259	7.02
586.45	6.96
586.641	6.93
586.832	6.98
587.023	6.89
587.214	6.89
587.405	7.01
587.596	6.87
587.787	6.76
587.978	6.85
588.169	6.76
588.36	6.78
588.551	6.83
588.742	6.86
588.932	6.9
589.123	6.7
589.314	6.91
589.505	6.77
589.696	6.83
589.886	6.78
590.077	6.73
590.268	6.75
590.458	6.67
590.649	6.58
590.84	6.73
591.03	6.7
591.221	6.65
591.412	6.54
591.602	6.79
591.793	6.67
591.984	6.74
592.174	6.61
592.365	6.8
592.555	6.54
592.746	6.67
592.936	6.61
593.127	6.67
593.317	6.63
593.508	6.63
593.698	6.51
593.889	6.58
594.079	6.56
594.269	6.49
594.46	6.53
594.65	6.52
594.84	6.54
595.031	6.43
595.221	6.49
595.411	6.48
595.602	6.47
595.792	6.39
595.982	6.37
596.172	6.49
596.363	6.38
596.553	6.39
596.743	6.43
596.933	6.41
597.123	6.34
597.314	6.26
597.504	6.25
597.694	6.37
597.884	6.27
598.074	6.34
598.264	6.31
598.454	6.26
598.644	6.22
598.834	6.28
599.024	6.18
599.214	6.15
599.404	6.27
599.594	6.21
599.784	6.07
599.974	6.24
600.164	6.17
600.354	6.13
600.544	6.02
600.734	6.17
600.924	6.04
601.114	6.05
601.303	6.04
601.493	6.08
601.683	6.06
601.873	6
602.063	5.94
602.252	6.02
602.442	5.95
602.632	5.91
602.821	5.83
603.011	5.97
603.201	5.92
603.39	5.88
603.58	5.8
603.77	5.93
603.959	5.98
604.149	5.87
604.339	5.83
604.528	5.96
604.718	5.89
604.907	5.77
605.097	5.74
605.286	5.72
605.476	5.77
605.665	5.8
605.855	5.74
606.044	5.82
606.234	5.71
606.423	5.74
606.612	5.69
606.802	5.66
606.991	5.76
607.181	5.76
607.37	5.63
607.559	5.46
607.749	5.65
607.938	5.52
608.127	5.61
608.316	5.52
608.506	5.5
608.695	5.58
608.884	5.58
609.073	5.55
609.263	5.59
609.452	5.62
609.641	5.36
609.83	5.41
610.019	5.48
610.208	5.42
610.397	5.47
610.586	5.38
610.775	5.27
610.965	5.33
611.154	5.26
611.343	5.31
611.532	5.29
611.721	5.39
611.91	5.24
612.099	5.25
612.287	5.14
612.476	5.16
612.665	5.33
612.854	5.16
613.043	5.22
613.232	5.22
613.421	5.13
613.61	5.14
613.798	5.13
613.987	5.11
614.176	5.11
614.365	5.17
614.554	5.07
614.742	5.07
614.931	4.98
615.12	5.17
615.309	5.04
615.497	5.01
615.686	4.89
615.875	4.95
616.063	4.94
616.252	4.93
616.44	4.93
616.629	4.93
616.818	4.88
617.006	4.91
617.195	4.82
617.383	4.9
617.572	4.81
617.76	4.74
617.949	4.8
618.137	4.87
618.326	4.87
618.514	4.68
618.703	4.59
618.891	4.73
619.079	4.68
619.268	4.78
619.456	4.57
619.644	4.71
619.833	4.69
620.021	4.57
620.209	4.51
620.398	4.62
620.586	4.58
620.774	4.58
620.962	4.51
621.151	4.64
621.339	4.49
621.527	4.45
621.715	4.42
621.903	4.48
622.092	4.39
622.28	4.56
622.468	4.31
622.656	4.43
622.844	4.42
623.032	4.44
623.22	4.32
623.408	4.43
623.596	4.37
623.784	4.42
623.972	4.26
624.16	4.27
624.348	4.39
624.536	4.36
624.724	4.26
624.912	4.27
625.1	4.27
625.288	4.24
625.476	4.16
625.664	4.25
625.851	4.19
626.039	4.19
626.227	4.12
626.415	4.13
626.603	4.04
626.79	4.11
626.978	4.13
627.166	4.1
627.354	4.04
627.541	4.07
627.729	3.94
627.917	4.14
628.104	4.09
628.292	3.96
628.48	4
628.667	3.93
628.855	4.03
629.042	4.05
629.23	3.9
629.418	3.93
629.605	3.93
629.793	3.85
629.98	3.86
630.168	3.81
630.355	3.89
630.543	3.85
630.73	3.76
630.917	3.81
631.105	3.9
631.292	3.81
631.48	3.79
631.667	3.84
631.854	3.69
632.042	3.7
632.229	3.62
632.416	3.75
632.604	3.69
632.791	3.58
632.978	3.69
633.165	3.67
633.353	3.71
633.54	3.67
633.727	3.5
633.914	3.57
634.101	3.51
634.289	3.63
634.476	3.49
634.663	3.5
634.85	3.51
635.037	3.49
635.224	3.43
635.411	3.55
635.598	3.44
635.785	3.43
635.972	3.44
636.159	3.43
636.346	3.38
636.533	3.39
636.72	3.34
636.907	3.31
637.094	3.36
637.281	3.25
637.468	3.3
637.655	3.31
637.842	3.33
638.029	3.22
638.215	3.26
638.402	3.26
638.589	3.23
638.776	3.16
638.963	3.12
639.149	3.23
639.336	3.24
639.523	3.18
639.709	3.16
639.896	3.16
640.083	3.14
640.27	3.21
640.456	3.08
640.643	3.1
640.829	3.01
641.016	3.09
641.203	2.97
641.389	3.04
641.576	3.08
641.762	2.99
641.949	3
642.135	2.99
642.322	2.95
642.508	2.9
642.695	2.98
642.881	2.9
643.068	2.87
643.254	2.88
643.441	2.95
643.627	2.89
643.813	2.81
644	2.91
644.186	2.82
644.372	2.84
644.559	2.82
644.745	2.81
644.931	2.75
645.118	2.8
645.304	2.75
645.49	2.75
645.676	2.72
645.862	2.74
646.049	2.82
646.235	2.68
646.421	2.86
646.607	2.77
646.793	2.63
646.979	2.59
647.165	2.7
647.352	2.66
647.538	2.68
647.724	2.64
647.91	2.61
648.096	2.61
648.282	2.61
648.468	2.57
648.654	2.59
648.84	2.58
649.026	2.56
649.212	2.52
649.397	2.47
649.583	2.49
649.769	2.5
649.955	2.48
650.141	2.52
650.327	2.56
650.513	2.44
650.698	2.47
650.884	2.29
651.07	2.47
651.256	2.43
651.442	2.35
651.627	2.34
651.813	2.45
651.999	2.33
652.184	2.41
652.37	2.3
652.556	2.33
652.741	2.4
652.927	2.2
653.113	2.31
653.298	2.31
653.484	2.3
653.669	2.25
653.855	2.26
654.04	2.34
654.226	2.24
654.412	2.22
654.597	2.17
654.782	2.29
654.968	2.25
655.153	2.18
655.339	2.17
655.524	2.08
655.71	2.17
655.895	2.21
656.08	2.2
656.266	2.21
656.451	2.14
656.636	2.08
656.822	2.11
657.007	2.12
657.192	2.08
657.378	2.05
657.563	2.06
657.748	2.09
657.933	2.07
658.118	1.97
658.304	2.02
658.489	2.09
658.674	1.98
658.859	1.98
659.044	2.01
659.229	2
659.414	1.97
659.599	2.01
659.785	1.88
659.97	1.98
660.155	1.93
660.34	2.02
660.525	1.9
660.71	1.92
660.895	1.95
661.08	1.92
661.264	1.84
661.449	1.95
661.634	1.9
661.819	1.96
662.004	1.87
662.189	1.76
662.374	1.83
662.559	1.8
662.743	1.8
662.928	1.78
663.113	1.77
663.298	1.75
663.483	1.8
663.667	1.83
663.852	1.74
664.037	1.81
664.221	1.74
664.406	1.82
664.591	1.8
664.775	1.75
664.96	1.7
665.145	1.75
665.329	1.79
665.514	1.66
665.698	1.68
665.883	1.6
666.068	1.76
666.252	1.7
666.437	1.62
666.621	1.67
666.806	1.67
666.99	1.66
667.174	1.59
667.359	1.71
667.543	1.63
667.728	1.67
667.912	1.53
668.096	1.61
668.281	1.59
668.465	1.63
668.649	1.59
668.834	1.53
669.018	1.58
669.202	1.53
669.387	1.51
669.571	1.58
669.755	1.54
669.939	1.51
670.124	1.54
670.308	1.57
670.492	1.54
670.676	1.53
670.86	1.49
671.044	1.47
671.228	1.56
671.413	1.45
671.597	1.46
671.781	1.47
671.965	1.54
672.149	1.44
672.333	1.46
672.517	1.41
672.701	1.45
672.885	1.42
673.069	1.37
673.253	1.51
673.437	1.4
673.621	1.39
673.804	1.47
673.988	1.39
674.172	1.36
674.356	1.26
674.54	1.38
674.724	1.49
674.908	1.39
675.091	1.39
675.275	1.35
675.459	1.38
675.643	1.28
675.826	1.32
676.01	1.29
676.194	1.43
676.377	1.36
676.561	1.34
676.745	1.32
676.928	1.36
677.112	1.34
677.296	1.25
677.479	1.28
677.663	1.29
677.846	1.35
678.03	1.32
678.213	1.23
678.397	1.3
678.58	1.22
678.764	1.22
678.947	1.16
679.131	1.25
679.314	1.29
679.498	1.19
679.681	1.28
679.865	1.3
680.048	1.23
680.231	1.21
680.415	1.17
680.598	1.22
680.781	1.15
680.965	1.17
681.148	1.2
681.331	1.2
681.514	1.19
681.698	1.13
681.881	1.17
682.064	1.18
682.247	1.15
682.43	1.08
682.614	1.12
682.797	1.2
682.98	1.12
683.163	1.08
683.346	1.15
683.529	1.09
683.712	1.04
683.895	1.18
684.078	1.04
684.261	1.03
684.444	1.13
684.627	1.12
684.81	0.98
684.993	1.11
685.176	1.09
685.359	1.04
685.542	1.04
685.725	1.16
685.908	1.1
686.091	1.04
686.274	1.13
686.457	1.06
686.639	1.06
686.822	1.17
687.005	1.06
687.188	1
687.371	1.11
687.553	1.08
687.736	0.99
687.919	1.13
688.102	1.09
688.284	0.96
688.467	0.99
688.65	0.99
688.832	0.96
689.015	0.99
689.197	0.88
689.38	1.05
689.563	1.08
689.745	0.88
689.928	0.94
690.11	0.98
690.293	0.94
690.475	0.92
690.658	0.98
690.84	0.94
691.023	0.94
691.205	0.86
691.388	0.94
691.57	0.99
691.752	1
691.935	0.89
692.117	0.8
692.3	0.96
692.482	0.88
692.664	0.89
692.847	0.81
693.029	0.95
693.211	0.92
693.393	0.87
693.576	0.86
693.758	0.85
693.94	0.85
694.122	0.87
694.304	0.84
694.487	0.84
694.669	0.89
694.851	0.8
695.033	0.85
695.215	0.82
695.397	0.81
695.579	0.87
695.761	0.75
695.943	0.81
696.125	0.92
696.308	0.83
696.49	0.69
696.671	0.91
696.853	0.86
697.035	1.06
697.217	0.79
697.399	0.92
697.581	0.76
697.763	0.78
697.945	0.75
698.127	0.82
698.309	0.87
698.491	0.81
698.672	0.85
698.854	0.86
699.036	0.91
699.218	0.75
699.399	0.81
699.581	0.88
699.763	0.75
699.945	0.74
700.126	0.72
700.308	0.71
700.49	0.77
700.671	0.66
700.853	0.67
701.035	0.73
701.216	0.74
701.398	0.69
701.579	0.7
701.761	0.83
701.943	0.74
702.124	0.68
702.306	0.73
702.487	0.87
702.669	0.7
702.85	0.69
703.031	0.58
703.213	0.78
703.394	0.79
703.576	0.69
703.757	0.86
703.938	0.71
704.12	0.86
704.301	0.72
704.483	0.7
704.664	0.72
704.845	0.82
705.026	0.76
705.208	0.7
705.389	0.69
705.57	0.7
705.751	0.65
705.933	0.65
706.114	0.72
706.295	0.75
706.476	0.61
706.657	0.76
706.838	0.68
707.02	0.69
707.201	0.61
707.382	0.64
707.563	0.68
707.744	0.65
707.925	0.61
708.106	0.58
708.287	0.71
708.468	0.8
708.649	0.63
708.83	0.6
709.011	0.61
709.192	0.64
709.373	0.59
709.554	0.56
709.734	0.71
709.915	0.65
710.096	0.58
710.277	0.54
710.458	0.66
710.639	0.71
710.819	0.47
711	0.51
711.181	0.62
711.362	0.67
711.542	0.63
711.723	0.54
711.904	0.66
712.085	0.63
712.265	0.62
712.446	0.5
712.627	0.57
712.807	0.64
712.988	0.59
713.168	0.45
713.349	0.54
713.53	0.44
713.71	0.52
713.891	0.46
714.071	0.55
714.252	0.48
714.432	0.51
714.613	0.48
714.793	0.64
714.974	0.66
715.154	0.63
715.334	0.66
715.515	0.6
715.695	0.5
715.876	0.53
716.056	0.56
716.236	0.48
716.417	0.59
716.597	0.46
716.777	0.77
716.957	0.52
717.138	0.56
717.318	0.54
717.498	0.44
717.678	0.57
717.859	0.59
718.039	0.36
718.219	0.51
718.399	0.56
718.579	0.44
718.759	0.54
718.939	0.53
719.12	0.58
719.3	0.52
719.48	0.3
719.66	0.4
719.84	0.65
720.02	0.49
720.2	0.41
720.38	0.56
720.56	0.63
720.74	0.47
720.92	0.49
721.1	0.66
721.279	0.6
721.459	0.49
721.639	0.33
721.819	0.53
721.999	0.46
722.179	0.48
722.359	0.34
722.538	0.45
722.718	0.56
722.898	0.46
723.078	0.43
723.257	0.48
723.437	0.51
723.617	0.48
723.797	0.45
723.976	0.42
724.156	0.57
724.336	0.59
724.515	0.65
724.695	0.32
724.874	0.5
725.054	0.49
725.234	0.4
725.413	0.49
725.593	0.49
725.772	0.56
725.952	0.5
726.131	0.37
726.311	0.44
726.49	0.44
726.67	0.36
726.849	0.43
727.028	0.43
727.208	0.46
727.387	0.55
727.567	0.38
727.746	0.47
727.925	0.49
728.105	0.34
728.284	0.46
728.463	0.44
728.643	0.44
728.822	0.3
729.001	0.46
729.18	0.38
729.359	0.46
729.539	0.39
729.718	0.43
729.897	0.55
730.076	0.43
730.255	0.37
730.434	0.5
730.614	0.49
730.793	0.61
730.972	0.36
731.151	0.41
731.33	0.48
731.509	0.46
731.688	0.43
731.867	0.41
732.046	0.26
732.225	0.63
732.404	0.3
732.583	0.34
732.762	0.47
732.941	0.47
733.12	0.51
733.298	0.36
733.477	0.56
733.656	0.45
733.835	0.35
734.014	0.54
734.193	0.43
734.371	0.53
734.55	0.54
734.729	0.43
734.908	0.52
735.086	0.61
735.265	0.58
735.444	0.35
735.623	0.29
735.801	0.36
735.98	0.43
736.159	0.43
736.337	0.47
736.516	0.59
736.694	0.45
736.873	0.42
737.052	0.55
737.23	0.58
737.409	0.43
737.587	0.66
737.766	0.3
737.944	0.36
738.123	0.52
738.301	0.5
738.479	0.38
738.658	0.55
738.836	0.18
739.015	0.47
739.193	0.61
739.371	0.3
739.55	0.48
739.728	0.28
739.906	0.65
740.085	0.62
740.263	0.46
740.441	0.19
740.62	0.76
740.798	0.43
740.976	0.32
741.154	0.41
741.332	0.56
741.511	0.5
741.689	0.4
741.867	0.57
742.045	0.43
742.223	0.44
742.401	0.3
742.579	0.38
742.757	0.54
742.935	0.26
743.114	0.36
743.292	0.3
743.47	0.43
743.648	0.48
743.826	0.4
744.004	0.46
744.181	0.44
744.359	0.42
744.537	0.51
744.715	0.33
744.893	0.48
745.071	0.49
745.249	0.47
745.427	0.37
745.605	0.44
745.782	0.46
745.96	0.46
746.138	0.43
746.316	0.49
746.493	0.33
746.671	0.31
746.849	0.37
747.027	0.52
747.204	0.3
747.382	0.41
747.56	0.24
747.737	0.38
747.915	0.3
748.093	0.41
748.27	0.32
748.448	0.34
748.625	0.14
748.803	0.31
748.98	0.28
749.158	0.47
749.335	0.41
749.513	0.38
749.69	0.38
749.868	0.35
750.045	0.33
750.223	0.31
750.4	0.19
750.578	0.59
750.755	0.34
750.932	0.17
751.11	0.39
751.287	0.23
751.464	0.63
751.642	0.22
751.819	0.37
751.996	0.39
752.173	0.26
752.351	0.23
752.528	0.24
752.705	0.32
752.882	0.29
753.06	0.39
753.237	0.42
753.414	0.47
753.591	0.47
753.768	0.32
753.945	0.25
754.122	0.34
754.299	0.43
754.476	0.28
754.654	0.37
754.831	0.45
755.008	0.42
755.185	0.33
755.362	0.24
755.539	0.41
755.716	0.31
755.892	0.34
756.069	0.42
756.246	0.31
756.423	0.29
756.6	0.46
756.777	0.22
756.954	0.46
757.131	0.29
757.307	0.2
757.484	0.15
757.661	0.35
757.838	0.41
758.015	0.27
758.191	0.44
758.368	0.45
758.545	0.51
758.721	0.34
758.898	0.22
759.075	0.39
759.251	0.35
759.428	0.46
759.605	0.21
759.781	0.32
759.958	0.49
760.134	0.3
760.311	0.29
760.488	0.51
760.664	0.49
760.841	0.32
761.017	0.26
761.194	0.44
761.37	0.34
761.547	0.3
761.723	0.36
761.899	0.46
762.076	0.17
762.252	0.23
762.429	0.11
762.605	0.34
762.781	0.28
762.958	0.33
763.134	0.27
763.31	0.3
763.486	0.51
763.663	0.14
763.839	0.37
764.015	0.16
764.191	0.16
764.368	0.26
764.544	0.23
764.72	0.31
764.896	0.34
765.072	0.37
765.248	0.32
765.425	0.32
765.601	0.3
765.777	0.39
765.953	0.04
766.129	0.19
766.305	0.29
766.481	0.28
766.657	0.31
766.833	0.48
767.009	0.22
767.185	0.26
767.361	0.32
767.537	0.18
767.713	0.47
767.889	0.32
768.065	0.33
768.24	0.12
768.416	0.44
768.592	0.35
768.768	0.27
768.944	0.28
769.12	0.29
769.295	0.28
769.471	0.3
769.647	0.26
769.823	0.55
769.998	0.15
770.174	0.13
770.35	0.59
770.525	0.61
770.701	0.35
770.877	0.27
771.052	0.18
771.228	0.5
771.403	0.36
771.579	0.3
771.755	0.72
771.93	0.38
772.106	0.14
772.281	0.13
772.457	0.35
772.632	0.36
772.808	0.14
772.983	0.26
773.159	0.2
773.334	0.61
773.509	0.37
773.685	0.22
773.86	0.74
774.036	0.53
774.211	0.36
774.386	0.38
774.562	0.41
774.737	0.44
774.912	0.27
775.087	0.4
775.263	0.32
775.438	0.32
775.613	0.21
775.788	0.18
775.964	0.64
776.139	0.79
776.314	0.15
776.489	0.32
776.664	0.35
776.839	0.15
777.014	0.45
777.19	0.46
777.365	0.43
777.54	0.65
777.715	0.32
777.89	0.27
778.065	0.26
778.24	0.54
778.415	0.33
778.59	0.22
778.765	0.13
778.94	0.48
779.115	0.38
779.289	0.28
779.464	0.31
779.639	0.12
779.814	0.11
779.989	0.12
780.164	0.4
780.339	0.36
780.513	0.26
780.688	0.23
780.863	0.43
781.038	0.44
781.212	0.17
781.387	0.29
781.562	0.69
781.737	0.21
781.911	0.46
782.086	0.21
782.261	0.33
782.435	0.51
782.61	0.21
782.784	0.36
782.959	0.66
783.134	0.32
783.308	-0.06
783.483	0.25
783.657	0.7
783.832	0.46
784.006	0.2
784.181	0.35
784.355	0.51
784.53	0.21
784.704	0.16
784.878	0.78
785.053	0.55
785.227	0.53
785.402	1.02
785.576	0.19
785.75	0.39
785.925	0.32
786.099	0.43
786.273	0.48
786.448	0.73
786.622	0.42
786.796	0.33
786.97	0.39
787.145	1.13
787.319	0.16
787.493	0.25
787.667	0.02
787.841	0.33
788.015	0.83
788.19	0.13
788.364	0.36
788.538	0.48
788.712	0.56
788.886	0.3
789.06	0.55
789.234	0.54
789.408	0.28
789.582	0.38
789.756	0.23
789.93	0.23
790.104	0.22
790.278	0.5
790.452	0.19
790.626	0.48
790.8	0.2
790.973	0.46
791.147	0.62
791.321	0.94
791.495	0.77
791.669	0.38
791.843	0.61
792.016	0.62
792.19	0.85
792.364	0.11
792.538	1
792.711	0.67
792.885	0.25
793.059	0.06
793.233	-0.22
793.406	0.63
793.58	0.46
793.754	0.4
793.927	0.19
794.101	0.65
794.274	0.2
794.448	0.56
794.622	0.33
794.795	0.8
794.969	0.41
795.142	0.87
795.316	0.27
795.489	0.34
795.663	0.89
795.836	0.37
796.009	0.17
796.183	0.97
796.356	0.4
796.53	0.37
796.703	0.45
796.876	0.97
797.05	0.34
797.223	0.3
797.396	0.46
797.57	0.52
797.743	0.82
797.916	0.21
798.09	0.43
798.263	0.59
798.436	0.48
798.609	0.41
798.782	0.2
798.956	0.51
799.129	0.45
799.302	0.15
799.475	0.19
799.648	0.3
799.821	0.08
799.994	0.33
800.167	-0.01
800.34	0.49
800.514	0.37
800.687	0.25
800.86	0.23
801.033	0.54
801.206	0.69
801.379	0.44
801.551	0.7
801.724	0.51
801.897	1.06
802.07	0.51
802.243	-0.02
802.416	0.34
802.589	0.26
802.762	0.61
802.935	0.34
803.107	0.98
803.28	0.95
803.453	0.59
803.626	0.25
803.798	0.77
803.971	0.22
804.144	0.67
804.317	0.8
804.489	0.81
804.662	0.4
804.835	0.46
805.007	0.41
805.18	1.11
805.353	0.6
805.525	0.23
805.698	0.25
805.87	0.63
806.043	0.71
806.215	0.41
806.388	0.2
806.56	0.9
806.733	1.13
806.905	0.17
807.078	0.32
807.25	0.34
807.423	0.63
807.595	0.6
807.768	0.58
807.94	0.82
808.112	0.81
808.285	0.79
808.457	0.07
808.629	0.39
808.802	0.74
808.974	0.69
809.146	0.31
809.318	0.43
809.491	0.48
809.663	0.7
809.835	0.11
810.007	0.57
810.18	0.4
810.352	0.08
810.524	0.6
810.696	0.85
810.868	0.94
811.04	0.15
811.212	0.4
811.384	0.79
811.556	0.77
811.728	0.65
811.901	1.74
812.073	0.55
812.245	0.09
812.417	0.33
812.589	-0.32
812.76	0.73
812.932	0.94
813.104	0.95
813.276	0.36
813.448	0.83
813.62	1.02
813.792	0.43
813.964	0.53
814.136	0.78
814.307	0.42
814.479	0.33
814.651	0.28
814.823	1.61
814.995	0.45
815.166	0.79
815.338	0.08
815.51	-0.03
815.681	1.3
815.853	0.61
816.025	0.24
816.196	1.22
816.368	0.86
816.54	0.24
816.711	0.2
816.883	1.01
817.054	1.5
817.226	0.25
817.398	0.71
817.569	0.27
817.741	0.92
817.912	0.65
818.084	0.44
818.255	1.31
818.426	0.31
818.598	0.37
818.769	0.38
818.941	0.93
819.112	1.09
819.283	1
819.455	0.28
819.626	0.45
819.798	1.32
819.969	0.53
820.14	0.54
820.311	0.11
820.483	0.59
820.654	0.56
820.825	0.36
820.996	0.28
821.168	0.25
821.339	0.55
821.51	0.13
821.681	0.62
821.852	0.86
822.023	0.01
822.195	0.48
822.366	1.4
822.537	1.09
822.708	0.66
822.879	0.31
823.05	1.61
823.221	0.33
823.392	1.01
823.563	0.79
823.734	0.77
823.905	0.7
824.076	0.58
824.247	0.37
824.418	0.64
824.589	1.6
824.759	0.98
824.93	0.47
825.101	0.36
825.272	1.75
825.443	1.72
825.614	1.51
825.784	-0.68
825.955	1.73
826.126	1.63
826.297	0.78
826.467	1.39
826.638	1.41
826.809	0.19
826.98	0.59
827.15	0.93
827.321	1.51
827.492	1.58
827.662	0.17
827.833	1.69
828.003	0.88
828.174	-0.19
828.345	-0.47
828.515	2.06
828.686	0.93
828.856	0.5
829.027	0.97
829.197	1.06
829.368	0.88
829.538	0.42
829.709	0.66
829.879	1.42
830.049	0.53
830.22	0.03
830.39	0.6
830.56	1
830.731	0.69
830.901	0.03
831.072	0.75
831.242	0.69
831.412	0.24
831.582	0.51
831.753	-0.51
831.923	1.06
832.093	0.81
832.263	0.4
832.434	-0.16
832.604	0.41
832.774	1.39
832.944	0.67
833.114	-0.46
833.284	0.76
833.454	0.31
833.624	-0.11
833.795	0.81
833.965	1.47
834.135	1.72
834.305	-0.13
834.475	0.12
834.645	1.08
834.815	0.62
834.985	0.33
835.155	0.03
835.325	1.28
835.494	1.28
835.664	0.78
835.834	0.18
836.004	0.58
836.174	0.72
836.344	0.81
836.514	0.23
836.684	0.69
836.853	0.74
837.023	1.44
837.193	0.5
837.363	1.53
837.532	1.73
837.702	0.41
837.872	0.03
838.041	1.57
838.211	2.05
838.381	-0.12
838.55	0.18
838.72	2.86
838.89	1.83
839.059	0.1
839.229	0.25
839.398	2.71
839.568	0.9
839.738	0.83
839.907	1.56
840.077	1.06
840.246	0.72
840.416	0.51
840.585	0.31
840.755	2.27
840.924	2.18
841.093	-0.06
841.263	-0.07
841.432	1.13
841.602	-0.19
841.771	0.04
841.94	0.52
842.11	2.92
842.279	1.65
842.448	-0.35
842.617	0.56
842.787	1.91
842.956	-0.37
843.125	0.45
843.294	0.09
843.464	2.16
843.633	1.09
843.802	-0.14
843.971	1.05
844.14	1.48
844.309	1.7
844.479	-0.54
844.648	-0.61
844.817	0.67
844.986	1.41
845.155	0.83
845.324	0.86
845.493	0.44
845.662	-0.12
845.831	1.59
846	1.08
846.169	1.16
846.338	2.02
846.507	1.11
846.676	0.75
846.844	0.46
847.013	2.42
847.182	1.55
847.351	0.78
847.52	1.05
847.689	1.06
847.858	0.63
848.026	0.79
848.195	1.36
848.364	1.31
848.533	-0.45
848.701	0.97
848.87	1.01
849.039	2.14
849.207	1.46
849.376	2.44
849.545	2.24
849.713	1.05
849.882	1.48
850.051	0.9
850.219	1.64
850.388	1.76
850.556	-0.29
850.725	0.49
850.893	1.48
851.062	-0.3
851.23	1.56
851.399	-0.37
851.567	1.8
851.736	0.96
851.904	-0.18
852.073	1.17
852.241	1.06
852.41	1.54
852.578	0.22
852.746	0.33
852.915	1.98
853.083	0.29
853.251	0.43
853.42	0.47
853.588	0.53
853.756	2.32
853.924	1.33
854.093	0.29
854.261	1.27
854.429	0.04
854.597	1.43
854.765	0.17
854.934	2.48
855.102	2.21
855.27	0.64
855.438	1.65
855.606	3.08
855.774	2.48
855.942	0.1
856.11	0.21
856.278	1.75
856.446	2.58
856.614	0.91
856.782	0.69
856.95	1.96
857.118	0.58
857.286	1.34
857.454	0.32
857.622	2.77
857.79	1.32
857.958	0.3
858.126	0.56
858.294	-1.64
858.462	0.75
858.629	0.92
858.797	0.98
858.965	1.55
859.133	0.71
859.301	1.27
859.468	1.54
859.636	0.22
859.804	3.32
859.971	1.94
860.139	0.65
860.307	2.35
860.474	2.1
860.642	0.85
860.81	-0.45
860.977	0.62
861.145	2.27
861.313	0.23
861.48	0.14
861.648	2.01
861.815	0.94
861.983	0.16
862.15	1.83
862.318	3.22
862.485	3.8
862.653	0.59
862.82	-0.67
862.988	3.15
863.155	1.87
863.322	0.95
863.49	0.97
863.657	1.16
863.824	3.46
863.992	1.14
864.159	2.54
864.326	2
864.494	0.1
864.661	3.61
864.828	0.77
864.996	1.7
865.163	3.55
865.33	0.69
865.497	-2.11
865.664	1.37
865.832	-0.93
865.999	0.53
866.166	0.21
866.333	1.86
866.5	0.86
866.667	1.16
866.834	1.62
867.001	1.96
867.168	0.01
867.335	1.01
867.502	-0.36
867.669	2.96
867.836	4.07
868.003	0.58
868.17	3.03
868.337	-0.71
868.504	5.74
868.671	0.01
868.838	0.86
869.005	3.48
869.172	3.11
869.339	1.2
869.505	2.1
869.672	2.79
869.839	2.85
870.006	1.69
870.173	0.09
870.339	3.14
870.506	5.22
870.673	-0.28
870.84	2.64
871.006	2.45
871.173	0.48
871.34	1.62
871.506	-0.35
871.673	2.12
871.839	1.15
872.006	1.48
872.173	1.13
872.339	1.54
872.506	3.32
872.672	1.17
872.839	-0.54
873.005	4.44
873.172	6.11
873.338	2.33
873.505	2.07
873.671	0.98
873.838	2.06
874.004	-0.3
874.171	0.95
874.337	2.83
874.503	3.55
874.67	1.93
874.836	-0.96
875.002	3.57
875.169	4.73
875.335	1.51
875.501	1.11
875.668	2.44
875.834	3.69
876	2.05
876.166	2.58
876.332	3.81
876.499	5.31
876.665	1.06
876.831	1.72
876.997	6.74
877.163	3.11
877.329	0.26
877.495	1.4
877.662	2.96
877.828	4.82
877.994	1.33
878.16	-1.84
878.326	1.28
878.492	2.69
878.658	2.12
878.824	0.75
878.99	3.32
879.156	1.59
879.322	3.89
879.487	1.32
879.653	0.9
879.819	1.65
879.985	0.01
880.151	0.66
880.317	2.59
880.483	2.59
880.648	4.83
880.814	-1.69
880.98	2.71
881.146	-1.19
881.312	-1.23
881.477	3.07
881.643	1.06
881.809	3.75
881.974	2.34
882.14	0.7
882.306	3.09
882.471	5.56
882.637	1
882.803	2.72
882.968	5.58
883.134	6.74
883.299	1.52
883.465	1.58
883.63	4.41
883.796	3.23
883.961	2.57
884.127	3.21
884.292	-1.72
884.458	-0.82
884.623	-0.82
