Data from Apollo_Calib_20240827__AbsoluteIrradiance__848__13-17-02-047.txt Node

Date: Wed Aug 28 13:17:02 BST 2024
User: biology
Spectrometer: FLMT08252
Trigger mode: 0
Integration Time (sec): 5.000000E-1
Scans to average: 5
Electric dark correction enabled: true
Nonlinearity correction enabled: false
Boxcar width: 0
XAxis mode: Wavelengths
Number of Pixels in Spectrum: 3648
>>>>>Begin Spectral Data<<<<<
179.588	-0
179.809	-0
180.03	-0
180.251	-0
180.473	-0
180.694	0
180.915	0
181.136	-0
181.357	0
181.578	-0
181.799	-0
182.02	-0
182.241	0
182.462	-0
182.683	0
182.904	-0
183.125	-0
183.346	0
183.567	0
183.788	0
184.009	0
184.23	0
184.451	0
184.672	0
184.892	0
185.113	0
185.334	0
185.555	0
185.776	0
185.996	0
186.217	0
186.438	0
186.659	0
186.879	0
187.1	0
187.321	0
187.541	0
187.762	0
187.983	0
188.203	0
188.424	0
188.644	0
188.865	0
189.086	0
189.306	0
189.527	0
189.747	0
189.968	0
190.188	0
190.409	0
190.629	0
190.849	0
191.07	0
191.29	0
191.511	0
191.731	0
191.951	0
192.172	0
192.392	0
192.612	0
192.833	0
193.053	0
193.273	0
193.493	0
193.714	0
193.934	0
194.154	0
194.374	0
194.594	0
194.815	0
195.035	0
195.255	0
195.475	0
195.695	0
195.915	0
196.135	0
196.355	0
196.575	0
196.795	0
197.015	0
197.235	0
197.455	0
197.675	0
197.895	0
198.115	0
198.335	0
198.555	0
198.775	0
198.995	0
199.214	0
199.434	0
199.654	0
199.874	0
200.094	4.34
200.313	2.49
200.533	1.84
200.753	1.97
200.973	3.66
201.192	3.05
201.412	1.11
201.632	1.12
201.851	3.82
202.071	1.55
202.291	1.65
202.51	1.34
202.73	2.61
202.95	2
203.169	0.99
203.389	1.61
203.608	2.2
203.828	1.65
204.047	1.19
204.267	2.23
204.486	2.12
204.706	2.25
204.925	1.34
205.145	1.75
205.364	2.23
205.583	2.87
205.803	0.88
206.022	1.22
206.242	1.83
206.461	1.62
206.68	1.29
206.9	1.61
207.119	2.27
207.338	2.58
207.557	1.04
207.777	1.16
207.996	1.41
208.215	2.2
208.434	1.06
208.654	0.87
208.873	1.47
209.092	1.92
209.311	0.87
209.53	1.13
209.749	1.29
209.968	0.94
210.187	1.21
210.407	0.7
210.626	1.17
210.845	1.56
211.064	1.09
211.283	0.59
211.502	1.52
211.721	1.09
211.94	1.11
212.159	1.41
212.377	1.5
212.596	1.68
212.815	1.37
213.034	1.17
213.253	1.45
213.472	1.28
213.691	0.79
213.91	0.84
214.128	0.94
214.347	1.51
214.566	0.58
214.785	0.54
215.003	1.21
215.222	1.27
215.441	1.04
215.66	0.66
215.878	1.07
216.097	1.32
216.316	0.72
216.534	0.88
216.753	1.09
216.972	0.76
217.19	0.88
217.409	0.81
217.627	0.48
217.846	0.86
218.064	0.78
218.283	0.68
218.501	1.36
218.72	1.21
218.938	0.71
219.157	0.65
219.375	1.15
219.594	0.92
219.812	0.39
220.031	0.48
220.249	1.15
220.467	1.24
220.686	0.79
220.904	0.59
221.122	0.61
221.341	1.25
221.559	0.76
221.777	0.43
221.995	0.93
222.214	1.01
222.432	0.54
222.65	0.73
222.868	0.69
223.086	0.93
223.305	0.78
223.523	0.56
223.741	1.27
223.959	0.8
224.177	0.28
224.395	0.58
224.613	0.82
224.831	0.87
225.049	0.47
225.267	0.46
225.485	0.77
225.703	0.54
225.921	0.54
226.139	0.56
226.357	0.7
226.575	0.82
226.793	0.42
227.011	1.72
227.229	0.71
227.447	0.81
227.665	0.58
227.883	0.35
228.1	0.77
228.318	0.69
228.536	0.33
228.754	0.43
228.972	0.76
229.189	0.75
229.407	0.58
229.625	0.61
229.843	0.83
230.06	0.83
230.278	0.42
230.496	0.49
230.713	0.78
230.931	0.79
231.149	0.52
231.366	0.23
231.584	0.61
231.801	1.1
232.019	0.52
232.236	0.38
232.454	0.51
232.671	0.63
232.889	0.44
233.106	0.43
233.324	0.7
233.541	0.49
233.759	0.5
233.976	0.35
234.194	0.56
234.411	0.47
234.628	0.4
234.846	0.52
235.063	0.55
235.28	0.62
235.498	0.52
235.715	0.3
235.932	0.63
236.149	0.5
236.367	0.42
236.584	0.6
236.801	0.5
237.018	0.63
237.236	0.54
237.453	0.4
237.67	0.67
237.887	0.55
238.104	0.39
238.321	0.35
238.538	0.4
238.755	0.69
238.973	0.28
239.19	0.51
239.407	0.58
239.624	0.54
239.841	0.37
240.058	0.39
240.275	0.51
240.492	0.54
240.709	0.43
240.925	0.44
241.142	0.55
241.359	0.38
241.576	0.3
241.793	0.38
242.01	0.47
242.227	0.69
242.444	0.46
242.66	0.57
242.877	0.5
243.094	0.46
243.311	0.45
243.527	0.52
243.744	0.48
243.961	0.58
244.178	0.37
244.394	0.43
244.611	0.64
244.828	0.58
245.044	0.37
245.261	0.4
245.477	0.48
245.694	0.55
245.911	0.33
246.127	0.58
246.344	0.71
246.56	0.6
246.777	0.36
246.993	0.4
247.21	0.53
247.426	0.57
247.643	0.37
247.859	0.35
248.076	0.37
248.292	0.62
248.508	0.31
248.725	0.43
248.941	0.5
249.157	0.66
249.374	0.3
249.59	0.41
249.806	0.44
250.023	0.62
250.239	0.35
250.455	0.31
250.671	0.5
250.888	0.46
251.104	0.44
251.32	0.34
251.536	0.36
251.752	0.39
251.969	0.37
252.185	0.29
252.401	0.68
252.617	0.56
252.833	0.32
253.049	0.4
253.265	0.38
253.481	0.53
253.697	0.27
253.913	0.32
254.129	0.5
254.345	0.43
254.561	0.28
254.777	0.33
254.993	0.45
255.209	0.4
255.425	0.35
255.641	0.29
255.857	0.55
256.073	0.45
256.288	0.23
256.504	0.37
256.72	0.42
256.936	0.57
257.152	0.33
257.367	0.31
257.583	0.34
257.799	0.47
258.015	0.31
258.23	0.34
258.446	0.6
258.662	0.34
258.877	0.27
259.093	0.23
259.309	0.39
259.524	0.53
259.74	0.31
259.955	0.22
260.171	0.39
260.387	0.39
260.602	0.44
260.818	0.42
261.033	0.27
261.249	0.41
261.464	0.34
261.68	0.33
261.895	0.49
262.11	0.52
262.326	0.31
262.541	0.21
262.757	0.52
262.972	0.48
263.187	0.36
263.403	0.33
263.618	0.42
263.833	0.41
264.049	0.29
264.264	0.38
264.479	0.42
264.694	0.57
264.91	0.25
265.125	0.35
265.34	0.51
265.555	0.57
265.77	0.39
265.986	0.3
266.201	0.36
266.416	0.46
266.631	0.28
266.846	0.3
267.061	0.43
267.276	0.33
267.491	0.21
267.706	0.36
267.921	0.43
268.136	0.41
268.351	0.34
268.566	0.27
268.781	0.47
268.996	0.45
269.211	0.35
269.426	0.2
269.641	0.33
269.856	0.5
270.071	0.25
270.285	0.28
270.5	0.47
270.715	0.37
270.93	0.33
271.145	0.34
271.359	0.43
271.574	0.28
271.789	0.35
272.004	0.27
272.218	0.33
272.433	0.36
272.648	0.32
272.862	0.4
273.077	0.35
273.292	0.34
273.506	0.24
273.721	0.26
273.936	0.41
274.15	0.44
274.365	0.25
274.579	0.37
274.794	0.43
275.008	0.36
275.223	0.2
275.437	0.27
275.652	0.43
275.866	0.45
276.081	0.3
276.295	0.35
276.509	0.37
276.724	0.36
276.938	0.33
277.153	0.38
277.367	0.44
277.581	0.29
277.796	0.3
278.01	0.19
278.224	0.41
278.438	0.44
278.653	0.26
278.867	0.26
279.081	0.16
279.295	0.37
279.51	0.31
279.724	0.2
279.938	0.36
280.152	0.33
280.366	0.27
280.58	0.27
280.794	0.44
281.008	0.37
281.222	0.34
281.437	0.53
281.651	0.34
281.865	0.42
282.079	0.25
282.293	0.2
282.507	0.3
282.721	0.3
282.935	0.29
283.148	0.16
283.362	0.24
283.576	0.25
283.79	0.27
284.004	0.23
284.218	0.39
284.432	0.32
284.646	0.25
284.859	0.23
285.073	0.28
285.287	0.34
285.501	0.3
285.714	0.3
285.928	0.28
286.142	0.32
286.356	0.22
286.569	0.24
286.783	0.43
286.997	0.37
287.21	0.31
287.424	0.22
287.637	0.3
287.851	0.29
288.065	0.34
288.278	0.26
288.492	0.33
288.705	0.29
288.919	0.31
289.132	0.2
289.346	0.4
289.559	0.23
289.773	0.22
289.986	0.24
290.2	0.27
290.413	0.37
290.626	0.25
290.84	0.24
291.053	0.29
291.267	0.38
291.48	0.26
291.693	0.3
291.906	0.23
292.12	0.29
292.333	0.23
292.546	0.2
292.76	0.36
292.973	0.27
293.186	0.31
293.399	0.23
293.612	0.36
293.826	0.27
294.039	0.24
294.252	0.21
294.465	0.36
294.678	0.3
294.891	0.28
295.104	0.19
295.317	0.26
295.53	0.33
295.743	0.27
295.956	0.25
296.169	0.41
296.382	0.32
296.595	0.26
296.808	0.22
297.021	0.34
297.234	0.33
297.447	0.31
297.66	0.35
297.873	0.37
298.086	0.35
298.299	0.23
298.511	0.19
298.724	0.26
298.937	0.2
299.15	0.21
299.363	0.24
299.575	0.36
299.788	0.28
300.001	0.27
300.213	0.26
300.426	0.23
300.639	0.26
300.852	0.21
301.064	0.3
301.277	0.35
301.489	0.34
301.702	0.31
301.915	0.24
302.127	0.25
302.34	0.3
302.552	0.27
302.765	0.24
302.977	0.34
303.19	0.26
303.402	0.22
303.615	0.22
303.827	0.25
304.04	0.22
304.252	0.25
304.464	0.26
304.677	0.4
304.889	0.33
305.102	0.18
305.314	0.21
305.526	0.32
305.739	0.31
305.951	0.19
306.163	0.23
306.375	0.35
306.588	0.2
306.8	0.25
307.012	0.23
307.224	0.32
307.436	0.34
307.649	0.18
307.861	0.25
308.073	0.32
308.285	0.22
308.497	0.21
308.709	0.21
308.921	0.27
309.133	0.32
309.346	0.25
309.558	0.24
309.77	0.3
309.982	0.33
310.194	0.27
310.406	0.23
310.617	0.35
310.829	0.27
311.041	0.29
311.253	0.22
311.465	0.27
311.677	0.26
311.889	0.23
312.101	0.17
312.313	0.36
312.524	0.37
312.736	0.18
312.948	0.16
313.16	0.36
313.372	0.3
313.583	0.27
313.795	0.25
314.007	0.24
314.218	0.29
314.43	0.3
314.642	0.22
314.853	0.18
315.065	0.32
315.277	0.26
315.488	0.29
315.7	0.3
315.912	0.31
316.123	0.21
316.335	0.18
316.546	0.35
316.758	0.21
316.969	0.25
317.181	0.26
317.392	0.21
317.604	0.31
317.815	0.22
318.026	0.23
318.238	0.24
318.449	0.27
318.661	0.15
318.872	0.17
319.083	0.23
319.295	0.32
319.506	0.24
319.717	0.2
319.929	0.31
320.14	0.28
320.351	0.25
320.562	0.23
320.774	0.29
320.985	0.29
321.196	0.21
321.407	0.15
321.618	0.37
321.829	0.29
322.041	0.31
322.252	0.27
322.463	0.27
322.674	0.32
322.885	0.19
323.096	0.23
323.307	0.29
323.518	0.26
323.729	0.21
323.94	0.22
324.151	0.21
324.362	0.31
324.573	0.3
324.784	0.24
324.995	0.32
325.206	0.29
325.417	0.26
325.628	0.22
325.838	0.28
326.049	0.27
326.26	0.3
326.471	0.2
326.682	0.25
326.892	0.25
327.103	0.12
327.314	0.2
327.525	0.33
327.735	0.31
327.946	0.23
328.157	0.18
328.368	0.32
328.578	0.23
328.789	0.29
328.999	0.24
329.21	0.21
329.421	0.29
329.631	0.24
329.842	0.19
330.052	0.26
330.263	0.32
330.473	0.28
330.684	0.23
330.894	0.27
331.105	0.31
331.315	0.27
331.526	0.19
331.736	0.34
331.947	0.29
332.157	0.25
332.367	0.17
332.578	0.33
332.788	0.38
332.999	0.33
333.209	0.23
333.419	0.17
333.629	0.31
333.84	0.28
334.05	0.3
334.26	0.35
334.47	0.27
334.681	0.32
334.891	0.2
335.101	0.28
335.311	0.39
335.521	0.26
335.732	0.23
335.942	0.33
336.152	0.31
336.362	0.26
336.572	0.27
336.782	0.31
336.992	0.24
337.202	0.21
337.412	0.21
337.622	0.27
337.832	0.27
338.042	0.24
338.252	0.22
338.462	0.24
338.672	0.28
338.882	0.21
339.092	0.17
339.302	0.36
339.511	0.3
339.721	0.22
339.931	0.22
340.141	0.33
340.351	0.35
340.561	0.28
340.77	0.27
340.98	0.31
341.19	0.29
341.4	0.23
341.609	0.21
341.819	0.24
342.029	0.22
342.238	0.28
342.448	0.19
342.658	0.3
342.867	0.22
343.077	0.25
343.286	0.25
343.496	0.27
343.706	0.31
343.915	0.18
344.125	0.25
344.334	0.26
344.544	0.17
344.753	0.24
344.963	0.23
345.172	0.23
345.381	0.21
345.591	0.2
345.8	0.2
346.01	0.3
346.219	0.34
346.428	0.13
346.638	0.28
346.847	0.28
347.056	0.34
347.266	0.22
347.475	0.22
347.684	0.29
347.893	0.28
348.103	0.28
348.312	0.21
348.521	0.26
348.73	0.29
348.94	0.26
349.149	0.23
349.358	0.25
349.567	0.21
349.776	0.15
349.985	0.2
350.194	0.36
350.403	0.31
350.612	0.13
350.821	0.21
351.03	0.23
351.239	0.23
351.448	0.22
351.657	0.21
351.866	0.32
352.075	0.25
352.284	0.31
352.493	0.19
352.702	0.32
352.911	0.26
353.12	0.29
353.329	0.22
353.538	0.29
353.746	0.25
353.955	0.19
354.164	0.26
354.373	0.23
354.582	0.3
354.79	0.22
354.999	0.28
355.208	0.22
355.416	0.34
355.625	0.21
355.834	0.23
356.042	0.25
356.251	0.26
356.46	0.21
356.668	0.27
356.877	0.39
357.085	0.33
357.294	0.17
357.503	0.27
357.711	0.24
357.92	0.44
358.128	0.26
358.337	0.19
358.545	0.31
358.754	0.22
358.962	0.26
359.17	0.22
359.379	0.27
359.587	0.29
359.796	0.21
360.004	0.29
360.212	0.28
360.421	0.34
360.629	0.19
360.837	0.23
361.046	0.31
361.254	0.39
361.462	0.23
361.67	0.28
361.879	0.28
362.087	0.36
362.295	0.21
362.503	0.22
362.711	0.2
362.92	0.22
363.128	0.25
363.336	0.2
363.544	0.21
363.752	0.21
363.96	0.25
364.168	0.2
364.376	0.22
364.584	0.26
364.792	0.34
365	0.32
365.208	0.25
365.416	0.25
365.624	0.31
365.832	0.2
366.04	0.34
366.248	0.27
366.456	0.26
366.664	0.26
366.872	0.24
367.079	0.22
367.287	0.27
367.495	0.27
367.703	0.26
367.911	0.29
368.118	0.24
368.326	0.26
368.534	0.2
368.742	0.3
368.949	0.22
369.157	0.23
369.365	0.3
369.572	0.2
369.78	0.18
369.988	0.24
370.195	0.26
370.403	0.3
370.61	0.24
370.818	0.22
371.026	0.39
371.233	0.21
371.441	0.26
371.648	0.22
371.856	0.25
372.063	0.3
372.271	0.22
372.478	0.23
372.685	0.24
372.893	0.28
373.1	0.23
373.308	0.19
373.515	0.38
373.722	0.33
373.93	0.27
374.137	0.27
374.344	0.32
374.552	0.28
374.759	0.28
374.966	0.25
375.173	0.26
375.381	0.31
375.588	0.23
375.795	0.19
376.002	0.25
376.209	0.23
376.417	0.26
376.624	0.3
376.831	0.3
377.038	0.22
377.245	0.19
377.452	0.2
377.659	0.24
377.866	0.25
378.073	0.25
378.28	0.21
378.487	0.33
378.694	0.29
378.901	0.28
379.108	0.24
379.315	0.35
379.522	0.38
379.729	0.27
379.936	0.25
380.143	0.27
380.35	0.27
380.557	0.26
380.763	0.26
380.97	0.26
381.177	0.29
381.384	0.3
381.591	0.19
381.797	0.3
382.004	0.34
382.211	0.25
382.418	0.22
382.624	0.36
382.831	0.3
383.038	0.24
383.244	0.3
383.451	0.28
383.658	0.32
383.864	0.25
384.071	0.27
384.277	0.33
384.484	0.29
384.69	0.32
384.897	0.28
385.103	0.26
385.31	0.24
385.516	0.22
385.723	0.24
385.929	0.28
386.136	0.26
386.342	0.31
386.549	0.28
386.755	0.35
386.961	0.34
387.168	0.26
387.374	0.27
387.58	0.33
387.787	0.3
387.993	0.32
388.199	0.25
388.406	0.25
388.612	0.28
388.818	0.25
389.024	0.24
389.231	0.31
389.437	0.45
389.643	0.33
389.849	0.29
390.055	0.34
390.261	0.32
390.467	0.35
390.674	0.26
390.88	0.31
391.086	0.33
391.292	0.23
391.498	0.32
391.704	0.32
391.91	0.28
392.116	0.27
392.322	0.2
392.528	0.33
392.734	0.28
392.94	0.35
393.146	0.32
393.352	0.35
393.557	0.29
393.763	0.29
393.969	0.36
394.175	0.32
394.381	0.31
394.587	0.28
394.792	0.27
394.998	0.42
395.204	0.36
395.41	0.29
395.615	0.31
395.821	0.37
396.027	0.35
396.233	0.3
396.438	0.35
396.644	0.39
396.85	0.33
397.055	0.31
397.261	0.32
397.466	0.31
397.672	0.34
397.878	0.36
398.083	0.37
398.289	0.31
398.494	0.39
398.7	0.32
398.905	0.27
399.111	0.43
399.316	0.32
399.522	0.32
399.727	0.28
399.932	0.33
400.138	0.31
400.343	0.38
400.549	0.37
400.754	0.34
400.959	0.34
401.165	0.39
401.37	0.33
401.575	0.46
401.78	0.39
401.986	0.36
402.191	0.39
402.396	0.38
402.601	0.42
402.807	0.4
403.012	0.38
403.217	0.42
403.422	0.41
403.627	0.42
403.832	0.33
404.037	0.5
404.243	0.44
404.448	0.39
404.653	0.44
404.858	0.42
405.063	0.47
405.268	0.44
405.473	0.36
405.678	0.43
405.883	0.62
406.088	0.52
406.293	0.36
406.498	0.44
406.703	0.52
406.907	0.52
407.112	0.45
407.317	0.51
407.522	0.58
407.727	0.48
407.932	0.49
408.136	0.6
408.341	0.51
408.546	0.58
408.751	0.62
408.956	0.59
409.16	0.72
409.365	0.6
409.57	0.57
409.774	0.61
409.979	0.67
410.184	0.67
410.388	0.59
410.593	0.78
410.798	0.78
411.002	0.63
411.207	0.81
411.411	0.78
411.616	0.75
411.82	0.78
412.025	0.82
412.229	0.81
412.434	0.93
412.638	0.87
412.843	0.86
413.047	0.99
413.252	0.93
413.456	0.98
413.66	1.02
413.865	1
414.069	1.12
414.273	1.07
414.478	1.09
414.682	1.1
414.886	1.2
415.091	1.14
415.295	1.23
415.499	1.35
415.703	1.3
415.908	1.45
416.112	1.31
416.316	1.55
416.52	1.54
416.724	1.49
416.929	1.54
417.133	1.84
417.337	1.66
417.541	1.74
417.745	1.77
417.949	1.92
418.153	1.98
418.357	1.91
418.561	2.15
418.765	2.12
418.969	2.23
419.173	2.3
419.377	2.38
419.581	2.58
419.785	2.52
419.989	2.5
420.193	2.7
420.397	2.78
420.601	2.95
420.804	2.99
421.008	3
421.212	3.18
421.416	3.09
421.62	3.16
421.823	3.27
422.027	3.44
422.231	3.36
422.435	3.4
422.638	3.4
422.842	3.55
423.046	3.63
423.249	3.81
423.453	3.78
423.657	3.9
423.86	3.98
424.064	4.23
424.268	4.4
424.471	4.35
424.675	4.52
424.878	4.62
425.082	4.69
425.285	5.02
425.489	4.92
425.692	5.04
425.896	5.01
426.099	5.27
426.303	5.33
426.506	5.52
426.71	5.76
426.913	5.94
427.116	6.19
427.32	6.02
427.523	6.18
427.726	6.5
427.93	6.6
428.133	6.84
428.336	7.01
428.54	7.15
428.743	7.42
428.946	7.59
429.149	7.67
429.353	7.67
429.556	7.78
429.759	7.82
429.962	7.98
430.165	8.07
430.368	7.75
430.571	7.84
430.775	7.81
430.978	7.84
431.181	8
431.384	7.99
431.587	8.11
431.79	8.46
431.993	8.37
432.196	8.75
432.399	8.99
432.602	9.27
432.805	9.37
433.008	9.86
433.211	9.69
433.414	10.04
433.616	10.11
433.819	10
434.022	10.18
434.225	10.45
434.428	10.44
434.631	10.73
434.833	10.62
435.036	10.87
435.239	11.02
435.442	11.24
435.645	11.33
435.847	11.3
436.05	11.74
436.253	11.91
436.455	11.88
436.658	11.85
436.861	12.09
437.063	12.34
437.266	12.16
437.468	12.6
437.671	12.85
437.874	12.95
438.076	12.66
438.279	13.2
438.481	13.28
438.684	13.95
438.886	13.62
439.089	13.82
439.291	13.97
439.494	14.24
439.696	14.42
439.899	14.95
440.101	15.27
440.303	15.53
440.506	16.31
440.708	15.88
440.91	16.2
441.113	16.35
441.315	16.68
441.517	16.44
441.72	16.97
441.922	16.51
442.124	16.52
442.326	16.93
442.529	17.14
442.731	17.16
442.933	17.28
443.135	17.17
443.337	17.17
443.539	17.66
443.742	17.46
443.944	18.07
444.146	17.75
444.348	17.69
444.55	17.55
444.752	17.8
444.954	17.81
445.156	17.77
445.358	18.08
445.56	18.44
445.762	18.13
445.964	18.64
446.166	18.3
446.368	18.34
446.57	18.3
446.772	17.99
446.974	17.74
447.175	18.04
447.377	17.74
447.579	18.1
447.781	18.03
447.983	17.61
448.184	17.32
448.386	17.76
448.588	17.14
448.79	17.25
448.991	17.37
449.193	17.37
449.395	16.78
449.597	16.49
449.798	16.29
450	15.96
450.202	15.76
450.403	16
450.605	15.71
450.806	15.39
451.008	15.24
451.21	14.95
451.411	14.59
451.613	13.85
451.814	14.23
452.016	14.22
452.217	13.44
452.419	13.42
452.62	13.08
452.821	12.64
453.023	12.65
453.224	12.28
453.426	11.96
453.627	11.25
453.828	11.25
454.03	11.29
454.231	11.36
454.432	11.18
454.634	10.97
454.835	10.66
455.036	10.45
455.238	10.11
455.439	9.91
455.64	9.58
455.841	9.59
456.042	9.67
456.244	9.31
456.445	9.06
456.646	8.68
456.847	8.83
457.048	8.69
457.249	8.64
457.45	8.48
457.651	7.89
457.852	7.72
458.054	7.41
458.255	7.36
458.456	7.38
458.657	7.32
458.858	6.79
459.058	6.72
459.259	6.83
459.46	6.61
459.661	6.52
459.862	6.5
460.063	6.45
460.264	6.34
460.465	6.02
460.666	6.15
460.866	5.84
461.067	5.52
461.268	5.64
461.469	5.58
461.67	5.42
461.87	5.34
462.071	5.36
462.272	5.23
462.473	5.16
462.673	5.32
462.874	5.23
463.075	5.27
463.275	5.22
463.476	5.13
463.676	5.13
463.877	4.99
464.078	4.98
464.278	5.07
464.479	4.9
464.679	4.78
464.88	4.81
465.08	4.73
465.281	4.5
465.481	4.36
465.682	4.15
465.882	4.25
466.083	4.12
466.283	4.14
466.483	4
466.684	3.75
466.884	3.81
467.085	3.75
467.285	3.9
467.485	3.69
467.686	3.56
467.886	3.47
468.086	3.43
468.286	3.43
468.487	3.52
468.687	3.42
468.887	3.3
469.087	3.39
469.287	3.32
469.488	3.05
469.688	3.32
469.888	3.24
470.088	3.14
470.288	3.11
470.488	3.12
470.688	2.97
470.888	2.83
471.088	2.73
471.288	2.85
471.488	2.81
471.688	2.8
471.888	2.73
472.088	2.95
472.288	2.78
472.488	2.7
472.688	2.63
472.888	2.64
473.088	2.65
473.288	2.52
473.488	2.47
473.688	2.66
473.887	2.59
474.087	2.46
474.287	2.51
474.487	2.41
474.687	2.39
474.886	2.47
475.086	2.37
475.286	2.36
475.486	2.3
475.685	2.32
475.885	2.23
476.085	2.33
476.284	2.26
476.484	2.29
476.684	2.23
476.883	2.37
477.083	2.17
477.282	2.18
477.482	2.22
477.681	2.16
477.881	2.1
478.08	2.1
478.28	2.04
478.479	2.12
478.679	2.18
478.878	2.11
479.078	2.08
479.277	2.13
479.477	2.11
479.676	2.05
479.875	2.01
480.075	1.98
480.274	2.08
480.473	2.1
480.673	2.04
480.872	2.15
481.071	2.06
481.271	2.12
481.47	2
481.669	2.08
481.868	1.98
482.067	2.01
482.267	1.94
482.466	1.99
482.665	1.96
482.864	2.02
483.063	1.99
483.262	2.04
483.461	2.08
483.661	2.11
483.86	2.07
484.059	2.1
484.258	2.03
484.457	2.02
484.656	2.08
484.855	2.12
485.054	1.93
485.253	1.99
485.452	1.96
485.651	2.06
485.849	2.03
486.048	2
486.247	2.02
486.446	2.1
486.645	2.05
486.844	2.06
487.043	2.06
487.241	2.11
487.44	2.07
487.639	2.16
487.838	2.08
488.037	2.11
488.235	2.25
488.434	2.2
488.633	2.07
488.831	2.2
489.03	2.23
489.229	2.2
489.427	2.2
489.626	2.26
489.825	2.33
490.023	2.26
490.222	2.34
490.42	2.32
490.619	2.37
490.817	2.36
491.016	2.37
491.214	2.45
491.413	2.45
491.611	2.38
491.81	2.41
492.008	2.47
492.207	2.59
492.405	2.53
492.604	2.48
492.802	2.56
493	2.59
493.199	2.65
493.397	2.65
493.595	2.71
493.794	2.67
493.992	2.77
494.19	2.7
494.388	2.82
494.587	2.74
494.785	2.79
494.983	2.71
495.181	2.84
495.379	2.91
495.578	2.93
495.776	2.93
495.974	2.89
496.172	2.95
496.37	3.07
496.568	3.08
496.766	3.06
496.964	3.19
497.162	3.22
497.36	3.21
497.558	3.23
497.756	3.31
497.954	3.27
498.152	3.34
498.35	3.44
498.548	3.37
498.746	3.4
498.944	3.38
499.142	3.45
499.34	3.49
499.538	3.62
499.736	3.46
499.933	3.62
500.131	3.6
500.329	3.75
500.527	3.75
500.725	3.84
500.922	3.84
501.12	3.84
501.318	3.91
501.516	3.92
501.713	4
501.911	4.02
502.109	3.99
502.306	4.09
502.504	3.98
502.701	4.05
502.899	4.16
503.097	4.34
503.294	4.25
503.492	4.27
503.689	4.34
503.887	4.33
504.084	4.47
504.282	4.4
504.479	4.4
504.677	4.58
504.874	4.54
505.072	4.42
505.269	4.61
505.466	4.66
505.664	4.7
505.861	4.69
506.059	4.72
506.256	4.75
506.453	4.81
506.651	4.97
506.848	4.95
507.045	4.94
507.242	4.94
507.44	5.01
507.637	5.03
507.834	5.05
508.031	5.15
508.229	5.1
508.426	5.08
508.623	5.25
508.82	5.25
509.017	5.24
509.214	5.25
509.411	5.36
509.608	5.3
509.805	5.45
510.003	5.41
510.2	5.48
510.397	5.65
510.594	5.5
510.791	5.58
510.988	5.63
511.184	5.62
511.381	5.48
511.578	5.68
511.775	5.8
511.972	5.72
512.169	5.78
512.366	5.76
512.563	5.91
512.76	5.95
512.956	5.94
513.153	5.86
513.35	5.9
513.547	5.87
513.744	6
513.94	5.96
514.137	6.13
514.334	6.07
514.53	6.08
514.727	6.36
514.924	6.23
515.12	6.23
515.317	6.19
515.514	6.2
515.71	6.18
515.907	6.35
516.103	6.41
516.3	6.31
516.497	6.42
516.693	6.42
516.89	6.49
517.086	6.48
517.283	6.47
517.479	6.41
517.676	6.53
517.872	6.57
518.068	6.6
518.265	6.57
518.461	6.5
518.658	6.7
518.854	6.69
519.05	6.79
519.247	6.79
519.443	6.72
519.639	6.87
519.836	6.7
520.032	6.69
520.228	6.92
520.424	6.86
520.621	6.9
520.817	6.92
521.013	6.83
521.209	7.06
521.405	7.05
521.601	7.02
521.798	6.95
521.994	7.03
522.19	6.9
522.386	6.96
522.582	7.11
522.778	7.2
522.974	7.03
523.17	7.12
523.366	7.03
523.562	7.16
523.758	7.11
523.954	7
524.15	7.15
524.346	7.24
524.542	7.21
524.738	7.12
524.934	7.37
525.129	7.17
525.325	7.23
525.521	7.25
525.717	7.45
525.913	7.28
526.109	7.32
526.304	7.4
526.5	7.35
526.696	7.39
526.892	7.32
527.087	7.55
527.283	7.43
527.479	7.49
527.674	7.27
527.87	7.48
528.066	7.41
528.261	7.49
528.457	7.45
528.653	7.57
528.848	7.55
529.044	7.62
529.239	7.51
529.435	7.51
529.63	7.45
529.826	7.53
530.021	7.57
530.217	7.59
530.412	7.59
530.608	7.59
530.803	7.66
530.999	7.48
531.194	7.58
531.389	7.67
531.585	7.61
531.78	7.76
531.975	7.71
532.171	7.68
532.366	7.73
532.561	7.76
532.757	7.64
532.952	7.84
533.147	7.61
533.342	7.76
533.538	7.67
533.733	7.84
533.928	7.56
534.123	7.74
534.318	7.79
534.513	7.69
534.709	7.82
534.904	7.7
535.099	7.91
535.294	7.81
535.489	7.89
535.684	7.82
535.879	7.79
536.074	7.88
536.269	7.88
536.464	7.87
536.659	7.85
536.854	7.91
537.049	7.91
537.244	7.88
537.439	7.88
537.634	7.82
537.828	7.91
538.023	7.96
538.218	7.88
538.413	7.84
538.608	7.94
538.803	7.88
538.997	7.92
539.192	7.96
539.387	7.91
539.582	7.87
539.776	7.81
539.971	7.98
540.166	8.03
540.36	7.96
540.555	8.01
540.75	7.96
540.944	7.95
541.139	7.93
541.334	7.95
541.528	8
541.723	8.11
541.917	8.02
542.112	7.94
542.306	7.85
542.501	7.91
542.695	7.97
542.89	7.9
543.084	7.94
543.279	7.98
543.473	7.99
543.668	7.99
543.862	7.87
544.056	7.97
544.251	8.1
544.445	8.08
544.64	8.1
544.834	7.79
545.028	7.68
545.222	8
545.417	8.14
545.611	8.06
545.805	8.04
546	7.86
546.194	8.02
546.388	8.05
546.582	7.91
546.776	7.95
546.97	8.05
547.165	8.04
547.359	7.99
547.553	7.94
547.747	7.98
547.941	8.17
548.135	8.03
548.329	8.07
548.523	8.04
548.717	8
548.911	8.01
549.105	7.98
549.299	8.09
549.493	8.1
549.687	7.94
549.881	8.05
550.075	8.11
550.269	7.96
550.463	8.12
550.657	8.03
550.85	8.05
551.044	7.99
551.238	8.14
551.432	8.09
551.626	8.04
551.82	8.13
552.013	7.94
552.207	8.17
552.401	8.11
552.594	8.05
552.788	8.04
552.982	8.01
553.176	7.98
553.369	8.29
553.563	8.17
553.756	8.01
553.95	8.07
554.144	8.08
554.337	8.08
554.531	7.86
554.724	8.09
554.918	8.14
555.111	8.03
555.305	8.11
555.498	8.03
555.692	8.16
555.885	8.17
556.079	7.96
556.272	8.05
556.466	8.1
556.659	8.03
556.852	8.19
557.046	7.97
557.239	7.96
557.432	8.07
557.626	8.08
557.819	8.16
558.012	8.12
558.206	8.25
558.399	8.12
558.592	8.05
558.785	8.04
558.979	8.09
559.172	8.09
559.365	8.02
559.558	8.01
559.751	8
559.944	8.16
560.138	8.01
560.331	8.08
560.524	8.17
560.717	8.07
560.91	8.02
561.103	8.08
561.296	7.94
561.489	8.09
561.682	8.17
561.875	8.12
562.068	8.14
562.261	7.99
562.454	8.3
562.647	8.05
562.84	8.08
563.032	8.11
563.225	7.99
563.418	8.02
563.611	8.08
563.804	8.11
563.997	7.95
564.19	7.88
564.382	8.15
564.575	8.08
564.768	7.98
564.961	8.1
565.153	7.96
565.346	7.94
565.539	8.1
565.731	8.09
565.924	8.09
566.117	8.16
566.309	8.13
566.502	8.04
566.695	8
566.887	8.07
567.08	8.08
567.272	8.06
567.465	7.99
567.657	8.08
567.85	7.96
568.042	8.03
568.235	8.09
568.427	7.97
568.62	8.03
568.812	7.98
569.005	8.04
569.197	7.92
569.389	8.01
569.582	8.01
569.774	8.03
569.966	7.95
570.159	7.95
570.351	7.91
570.543	8.02
570.736	7.98
570.928	7.83
571.12	8.06
571.312	7.85
571.505	7.76
571.697	8
571.889	7.94
572.081	7.91
572.273	7.91
572.465	8.01
572.658	7.98
572.85	7.96
573.042	8.01
573.234	7.94
573.426	7.94
573.618	7.87
573.81	7.98
574.002	7.88
574.194	7.93
574.386	7.91
574.578	7.74
574.77	7.85
574.962	8
575.154	7.76
575.346	7.85
575.538	7.8
575.729	7.77
575.921	7.9
576.113	7.9
576.305	7.9
576.497	7.95
576.689	7.78
576.88	7.72
577.072	7.94
577.264	7.86
577.456	7.83
577.647	7.79
577.839	7.93
578.031	7.77
578.223	7.73
578.414	7.71
578.606	7.75
578.798	7.87
578.989	7.81
579.181	7.86
579.372	7.8
579.564	7.8
579.755	7.73
579.947	7.68
580.139	7.83
580.33	7.61
580.522	7.69
580.713	7.64
580.905	7.69
581.096	7.87
581.287	7.7
581.479	7.66
581.67	7.78
581.862	7.67
582.053	7.66
582.244	7.48
582.436	7.74
582.627	7.59
582.818	7.58
583.01	7.64
583.201	7.68
583.392	7.54
583.583	7.6
583.775	7.45
583.966	7.55
584.157	7.54
584.348	7.63
584.54	7.51
584.731	7.57
584.922	7.5
585.113	7.39
585.304	7.52
585.495	7.49
585.686	7.62
585.877	7.55
586.068	7.62
586.259	7.58
586.45	7.46
586.641	7.46
586.832	7.57
587.023	7.49
587.214	7.38
587.405	7.5
587.596	7.34
587.787	7.34
587.978	7.43
588.169	7.4
588.36	7.3
588.551	7.36
588.742	7.38
588.932	7.42
589.123	7.16
589.314	7.42
589.505	7.3
589.696	7.36
589.886	7.33
590.077	7.27
590.268	7.24
590.458	7.21
590.649	7.03
590.84	7.28
591.03	7.2
591.221	7.22
591.412	7.12
591.602	7.34
591.793	7.17
591.984	7.19
592.174	7.16
592.365	7.33
592.555	7.02
592.746	7.08
592.936	7.12
593.127	7.17
593.317	7.2
593.508	7.15
593.698	7.05
593.889	7.07
594.079	7.04
594.269	6.95
594.46	6.91
594.65	7.06
594.84	7.04
595.031	6.94
595.221	6.98
595.411	6.98
595.602	6.99
595.792	6.9
595.982	6.85
596.172	6.94
596.363	6.85
596.553	6.91
596.743	6.92
596.933	6.85
597.123	6.85
597.314	6.8
597.504	6.73
597.694	6.86
597.884	6.75
598.074	6.79
598.264	6.72
598.454	6.81
598.644	6.7
598.834	6.77
599.024	6.66
599.214	6.67
599.404	6.8
599.594	6.69
599.784	6.64
599.974	6.71
600.164	6.66
600.354	6.56
600.544	6.58
600.734	6.6
600.924	6.51
601.114	6.47
601.303	6.49
601.493	6.53
601.683	6.55
601.873	6.47
602.063	6.43
602.252	6.45
602.442	6.31
602.632	6.44
602.821	6.36
603.011	6.42
603.201	6.41
603.39	6.37
603.58	6.28
603.77	6.37
603.959	6.41
604.149	6.39
604.339	6.37
604.528	6.38
604.718	6.29
604.907	6.23
605.097	6.18
605.286	6.17
605.476	6.21
605.665	6.24
605.855	6.14
606.044	6.25
606.234	6.22
606.423	6.17
606.612	6.18
606.802	6.11
606.991	6.2
607.181	6.2
607.37	6.1
607.559	5.85
607.749	6.07
607.938	5.93
608.127	5.97
608.316	6.02
608.506	6.01
608.695	5.99
608.884	5.96
609.073	5.98
609.263	5.98
609.452	6.03
609.641	5.87
609.83	5.77
610.019	5.98
610.208	5.79
610.397	5.79
610.586	5.81
610.775	5.75
610.965	5.81
611.154	5.66
611.343	5.77
611.532	5.65
611.721	5.8
611.91	5.64
612.099	5.64
612.287	5.6
612.476	5.47
612.665	5.69
612.854	5.57
613.043	5.6
613.232	5.62
613.421	5.45
613.61	5.54
613.798	5.49
613.987	5.57
614.176	5.46
614.365	5.46
614.554	5.47
614.742	5.5
614.931	5.31
615.12	5.54
615.309	5.45
615.497	5.38
615.686	5.26
615.875	5.36
616.063	5.28
616.252	5.33
616.44	5.27
616.629	5.35
616.818	5.28
617.006	5.24
617.195	5.19
617.383	5.28
617.572	5.13
617.76	5.2
617.949	5.15
618.137	5.16
618.326	5.23
618.514	5.06
618.703	5.01
618.891	5.11
619.079	5.05
619.268	5.14
619.456	4.99
619.644	5.09
619.833	5.01
620.021	4.95
620.209	4.92
620.398	4.95
620.586	4.89
620.774	4.99
620.962	4.89
621.151	5
621.339	4.9
621.527	4.77
621.715	4.75
621.903	4.83
622.092	4.77
622.28	4.88
622.468	4.68
622.656	4.74
622.844	4.71
623.032	4.81
623.22	4.63
623.408	4.8
623.596	4.72
623.784	4.7
623.972	4.57
624.16	4.65
624.348	4.68
624.536	4.7
624.724	4.51
624.912	4.6
625.1	4.6
625.288	4.61
625.476	4.53
625.664	4.6
625.851	4.51
626.039	4.53
626.227	4.47
626.415	4.47
626.603	4.39
626.79	4.45
626.978	4.46
627.166	4.46
627.354	4.31
627.541	4.33
627.729	4.24
627.917	4.43
628.104	4.39
628.292	4.32
628.48	4.28
628.667	4.29
628.855	4.37
629.042	4.34
629.23	4.15
629.418	4.24
629.605	4.26
629.793	4.13
629.98	4.22
630.168	4.11
630.355	4.15
630.543	4.08
630.73	4.02
630.917	4.09
631.105	4.23
631.292	4.05
631.48	4.03
631.667	4.18
631.854	4.04
632.042	4
632.229	3.98
632.416	3.98
632.604	4.03
632.791	3.88
632.978	3.95
633.165	3.96
633.353	3.96
633.54	3.99
633.727	3.82
633.914	3.82
634.101	3.82
634.289	3.91
634.476	3.75
634.663	3.76
634.85	3.75
635.037	3.76
635.224	3.67
635.411	3.78
635.598	3.7
635.785	3.68
635.972	3.64
636.159	3.7
636.346	3.66
636.533	3.59
636.72	3.62
636.907	3.64
637.094	3.6
637.281	3.48
637.468	3.61
637.655	3.56
637.842	3.61
638.029	3.52
638.215	3.52
638.402	3.59
638.589	3.39
638.776	3.43
638.963	3.44
639.149	3.56
639.336	3.51
639.523	3.41
639.709	3.41
639.896	3.36
640.083	3.39
640.27	3.38
640.456	3.31
640.643	3.35
640.829	3.21
641.016	3.3
641.203	3.25
641.389	3.29
641.576	3.29
641.762	3.26
641.949	3.1
642.135	3.23
642.322	3.25
642.508	3.11
642.695	3.2
642.881	3.14
643.068	3.08
643.254	3.18
643.441	3.1
643.627	3.16
643.813	3.05
644	3.12
644.186	3.01
644.372	3.1
644.559	3.07
644.745	3.08
644.931	2.99
645.118	3.03
645.304	3
645.49	2.98
645.676	2.96
645.862	2.94
646.049	3.02
646.235	2.92
646.421	3.02
646.607	3.01
646.793	2.89
646.979	2.85
647.165	2.9
647.352	2.9
647.538	2.9
647.724	2.84
647.91	2.8
648.096	2.82
648.282	2.87
648.468	2.76
648.654	2.82
648.84	2.8
649.026	2.75
649.212	2.7
649.397	2.64
649.583	2.74
649.769	2.77
649.955	2.7
650.141	2.69
650.327	2.71
650.513	2.67
650.698	2.64
650.884	2.56
651.07	2.73
651.256	2.6
651.442	2.59
651.627	2.53
651.813	2.6
651.999	2.56
652.184	2.52
652.37	2.53
652.556	2.47
652.741	2.59
652.927	2.4
653.113	2.49
653.298	2.48
653.484	2.48
653.669	2.38
653.855	2.47
654.04	2.48
654.226	2.43
654.412	2.38
654.597	2.34
654.782	2.43
654.968	2.42
655.153	2.41
655.339	2.35
655.524	2.34
655.71	2.39
655.895	2.35
656.08	2.34
656.266	2.47
656.451	2.28
656.636	2.26
656.822	2.32
657.007	2.29
657.192	2.24
657.378	2.22
657.563	2.2
657.748	2.25
657.933	2.19
658.118	2.18
658.304	2.18
658.489	2.29
658.674	2.17
658.859	2.15
659.044	2.16
659.229	2.18
659.414	2.09
659.599	2.16
659.785	2.06
659.97	2.11
660.155	2.14
660.34	2.15
660.525	2.07
660.71	2.06
660.895	2.17
661.08	2.05
661.264	1.99
661.449	2.14
661.634	2.03
661.819	2.04
662.004	2.06
662.189	1.94
662.374	2.01
662.559	1.95
662.743	1.93
662.928	1.99
663.113	1.93
663.298	1.96
663.483	1.9
663.667	1.94
663.852	1.89
664.037	1.97
664.221	1.84
664.406	1.97
664.591	1.95
664.775	1.92
664.96	1.91
665.145	1.92
665.329	1.92
665.514	1.87
665.698	1.84
665.883	1.77
666.068	1.92
666.252	1.81
666.437	1.75
666.621	1.79
666.806	1.82
666.99	1.82
667.174	1.72
667.359	1.84
667.543	1.74
667.728	1.77
667.912	1.66
668.096	1.74
668.281	1.7
668.465	1.79
668.649	1.71
668.834	1.69
669.018	1.7
669.202	1.7
669.387	1.67
669.571	1.75
669.755	1.63
669.939	1.63
670.124	1.65
670.308	1.72
670.492	1.67
670.676	1.66
670.86	1.59
671.044	1.59
671.228	1.71
671.413	1.55
671.597	1.54
671.781	1.61
671.965	1.65
672.149	1.62
672.333	1.57
672.517	1.51
672.701	1.59
672.885	1.56
673.069	1.47
673.253	1.62
673.437	1.52
673.621	1.51
673.804	1.55
673.988	1.48
674.172	1.48
674.356	1.4
674.54	1.5
674.724	1.57
674.908	1.51
675.091	1.53
675.275	1.49
675.459	1.49
675.643	1.44
675.826	1.49
676.01	1.44
676.194	1.46
676.377	1.54
676.561	1.5
676.745	1.39
676.928	1.48
677.112	1.45
677.296	1.37
677.479	1.36
677.663	1.38
677.846	1.4
678.03	1.33
678.213	1.38
678.397	1.39
678.58	1.39
678.764	1.31
678.947	1.27
679.131	1.37
679.314	1.41
679.498	1.29
679.681	1.37
679.865	1.42
680.048	1.31
680.231	1.27
680.415	1.28
680.598	1.33
680.781	1.29
680.965	1.25
681.148	1.34
681.331	1.21
681.514	1.29
681.698	1.22
681.881	1.2
682.064	1.3
682.247	1.23
682.43	1.12
682.614	1.22
682.797	1.35
682.98	1.33
683.163	1.16
683.346	1.27
683.529	1.21
683.712	1.14
683.895	1.22
684.078	1.12
684.261	1.13
684.444	1.19
684.627	1.22
684.81	1.19
684.993	1.16
685.176	1.24
685.359	1.12
685.542	1.14
685.725	1.27
685.908	1.21
686.091	1.11
686.274	1.23
686.457	1.2
686.639	1.16
686.822	1.16
687.005	1.16
687.188	1.17
687.371	1.25
687.553	1.21
687.736	1.1
687.919	1.25
688.102	1.18
688.284	1.06
688.467	1.06
688.65	1.14
688.832	1.02
689.015	1.07
689.197	1.02
689.38	1.17
689.563	1.19
689.745	1.03
689.928	1.06
690.11	1.04
690.293	1.12
690.475	0.97
690.658	1.07
690.84	1.05
691.023	1.04
691.205	0.92
691.388	1.04
691.57	1.06
691.752	0.99
691.935	0.9
692.117	0.9
692.3	1.03
692.482	0.98
692.664	0.9
692.847	0.96
693.029	1.05
693.211	1.04
693.393	0.89
693.576	0.95
693.758	0.95
693.94	0.97
694.122	0.92
694.304	0.93
694.487	0.95
694.669	0.97
694.851	0.82
695.033	0.95
695.215	0.87
695.397	0.91
695.579	0.86
695.761	0.86
695.943	0.87
696.125	1.01
696.308	0.95
696.49	0.8
696.671	1.02
696.853	0.97
697.035	1.16
697.217	0.85
697.399	1.02
697.581	0.86
697.763	0.9
697.945	0.85
698.127	0.88
698.309	0.91
698.491	0.88
698.672	0.94
698.854	0.91
699.036	0.96
699.218	0.88
699.399	0.9
699.581	0.89
699.763	0.84
699.945	0.73
700.126	0.73
700.308	0.85
700.49	0.83
700.671	0.66
700.853	0.79
701.035	0.82
701.216	0.79
701.398	0.81
701.579	0.79
701.761	0.95
701.943	0.77
702.124	0.72
702.306	0.82
702.487	1.01
702.669	0.78
702.85	0.76
703.031	0.7
703.213	0.85
703.394	0.84
703.576	0.68
703.757	0.91
703.938	0.84
704.12	1.06
704.301	0.78
704.483	0.74
704.664	0.79
704.845	0.87
705.026	0.81
705.208	0.74
705.389	0.81
705.57	0.77
705.751	0.75
705.933	0.75
706.114	0.85
706.295	0.69
706.476	0.67
706.657	0.87
706.838	0.81
707.02	0.83
707.201	0.68
707.382	0.67
707.563	0.81
707.744	0.72
707.925	0.62
708.106	0.64
708.287	0.72
708.468	0.82
708.649	0.75
708.83	0.74
709.011	0.67
709.192	0.72
709.373	0.64
709.554	0.7
709.734	0.8
709.915	0.74
710.096	0.69
710.277	0.54
710.458	0.65
710.639	0.7
710.819	0.58
711	0.62
711.181	0.71
711.362	0.76
711.542	0.72
711.723	0.66
711.904	0.72
712.085	0.65
712.265	0.66
712.446	0.57
712.627	0.66
712.807	0.64
712.988	0.71
713.168	0.48
713.349	0.69
713.53	0.47
713.71	0.51
713.891	0.57
714.071	0.64
714.252	0.63
714.432	0.65
714.613	0.56
714.793	0.62
714.974	0.78
715.154	0.67
715.334	0.69
715.515	0.76
715.695	0.58
715.876	0.6
716.056	0.52
716.236	0.6
716.417	0.59
716.597	0.51
716.777	0.81
716.957	0.53
717.138	0.57
717.318	0.58
717.498	0.48
717.678	0.65
717.859	0.57
718.039	0.54
718.219	0.61
718.399	0.59
718.579	0.55
718.759	0.5
718.939	0.59
719.12	0.71
719.3	0.54
719.48	0.4
719.66	0.45
719.84	0.67
720.02	0.51
720.2	0.48
720.38	0.5
720.56	0.72
720.74	0.49
720.92	0.6
721.1	0.79
721.279	0.71
721.459	0.58
721.639	0.43
721.819	0.53
721.999	0.44
722.179	0.66
722.359	0.44
722.538	0.51
722.718	0.6
722.898	0.47
723.078	0.52
723.257	0.5
723.437	0.54
723.617	0.61
723.797	0.53
723.976	0.55
724.156	0.68
724.336	0.64
724.515	0.77
724.695	0.33
724.874	0.53
725.054	0.71
725.234	0.44
725.413	0.5
725.593	0.56
725.772	0.52
725.952	0.45
726.131	0.56
726.311	0.49
726.49	0.49
726.67	0.41
726.849	0.45
727.028	0.55
727.208	0.52
727.387	0.53
727.567	0.47
727.746	0.49
727.925	0.53
728.105	0.41
728.284	0.41
728.463	0.49
728.643	0.63
728.822	0.38
729.001	0.5
729.18	0.47
729.359	0.53
729.539	0.51
729.718	0.56
729.897	0.58
730.076	0.45
730.255	0.39
730.434	0.63
730.614	0.53
730.793	0.61
730.972	0.51
731.151	0.52
731.33	0.62
731.509	0.55
731.688	0.51
731.867	0.47
732.046	0.31
732.225	0.74
732.404	0.38
732.583	0.33
732.762	0.51
732.941	0.53
733.12	0.58
733.298	0.4
733.477	0.74
733.656	0.49
733.835	0.39
734.014	0.52
734.193	0.51
734.371	0.45
734.55	0.4
734.729	0.36
734.908	0.46
735.086	0.62
735.265	0.46
735.444	0.33
735.623	0.37
735.801	0.47
735.98	0.48
736.159	0.47
736.337	0.63
736.516	0.52
736.694	0.5
736.873	0.41
737.052	0.75
737.23	0.71
737.409	0.37
737.587	0.71
737.766	0.33
737.944	0.52
738.123	0.56
738.301	0.5
738.479	0.57
738.658	0.45
738.836	0.41
739.015	0.44
739.193	0.63
739.371	0.49
739.55	0.44
739.728	0.3
739.906	0.58
740.085	0.68
740.263	0.49
740.441	0.23
740.62	0.76
740.798	0.55
740.976	0.33
741.154	0.39
741.332	0.59
741.511	0.41
741.689	0.49
741.867	0.53
742.045	0.54
742.223	0.44
742.401	0.4
742.579	0.4
742.757	0.6
742.935	0.32
743.114	0.42
743.292	0.47
743.47	0.47
743.648	0.46
743.826	0.42
744.004	0.49
744.181	0.56
744.359	0.45
744.537	0.5
744.715	0.39
744.893	0.57
745.071	0.49
745.249	0.44
745.427	0.41
745.605	0.64
745.782	0.47
745.96	0.49
746.138	0.52
746.316	0.55
746.493	0.48
746.671	0.34
746.849	0.39
747.027	0.59
747.204	0.33
747.382	0.4
747.56	0.26
747.737	0.41
747.915	0.41
748.093	0.35
748.27	0.34
748.448	0.34
748.625	0.36
748.803	0.35
748.98	0.33
749.158	0.51
749.335	0.58
749.513	0.5
749.69	0.44
749.868	0.4
750.045	0.44
750.223	0.39
750.4	0.15
750.578	0.74
750.755	0.38
750.932	0.27
751.11	0.55
751.287	0.24
751.464	0.58
751.642	0.26
751.819	0.28
751.996	0.52
752.173	0.38
752.351	0.33
752.528	0.35
752.705	0.45
752.882	0.36
753.06	0.4
753.237	0.41
753.414	0.69
753.591	0.74
753.768	0.45
753.945	0.34
754.122	0.39
754.299	0.51
754.476	0.32
754.654	0.3
754.831	0.52
755.008	0.34
755.185	0.38
755.362	0.27
755.539	0.49
755.716	0.28
755.892	0.33
756.069	0.42
756.246	0.48
756.423	0.39
756.6	0.61
756.777	0.24
756.954	0.53
757.131	0.43
757.307	0.38
757.484	0.29
757.661	0.38
757.838	0.42
758.015	0.17
758.191	0.5
758.368	0.49
758.545	0.65
758.721	0.49
758.898	0.36
759.075	0.34
759.251	0.5
759.428	0.35
759.605	0.2
759.781	0.29
759.958	0.47
760.134	0.45
760.311	0.29
760.488	0.59
760.664	0.56
760.841	0.27
761.017	0.32
761.194	0.53
761.37	0.44
761.547	0.33
761.723	0.34
761.899	0.54
762.076	0.22
762.252	0.3
762.429	0.2
762.605	0.48
762.781	0.3
762.958	0.46
763.134	0.35
763.31	0.23
763.486	0.53
763.663	0.19
763.839	0.46
764.015	0.19
764.191	0.3
764.368	0.24
764.544	0.21
764.72	0.48
764.896	0.39
765.072	0.38
765.248	0.32
765.425	0.32
765.601	0.51
765.777	0.4
765.953	0.09
766.129	0.26
766.305	0.28
766.481	0.49
766.657	0.36
766.833	0.69
767.009	0.19
767.185	0.3
767.361	0.34
767.537	0.35
767.713	0.51
767.889	0.26
768.065	0.39
768.24	0.45
768.416	0.44
768.592	0.18
768.768	0.33
768.944	0.55
769.12	0.36
769.295	0.33
769.471	0.37
769.647	0.49
769.823	0.66
769.998	0.39
770.174	0.32
770.35	0.83
770.525	0.67
770.701	0.38
770.877	0.4
771.052	0.35
771.228	0.53
771.403	0.43
771.579	0.25
771.755	0.74
771.93	0.3
772.106	0.34
772.281	0.18
772.457	0.43
772.632	0.51
772.808	0.08
772.983	0.31
773.159	0.14
773.334	0.62
773.509	0.45
773.685	0.36
773.86	0.78
774.036	0.76
774.211	0.38
774.386	0.31
774.562	0.53
774.737	0.45
774.912	0.23
775.087	0.4
775.263	0.42
775.438	0.45
775.613	0.31
775.788	0.27
775.964	0.62
776.139	1.01
776.314	0.2
776.489	0.41
776.664	0.52
776.839	0.2
777.014	0.49
777.19	0.55
777.365	0.67
777.54	0.73
777.715	0.27
777.89	0.42
778.065	0.21
778.24	0.39
778.415	0.6
778.59	0.11
778.765	0.27
778.94	0.49
779.115	0.34
779.289	0.39
779.464	0.49
779.639	0.31
779.814	0.09
779.989	0.16
780.164	0.6
780.339	0.42
780.513	0.3
780.688	0.19
780.863	0.42
781.038	0.72
781.212	0.17
781.387	0.31
781.562	0.64
781.737	0.27
781.911	0.69
782.086	0.2
782.261	0.19
782.435	0.78
782.61	0.38
782.784	0.19
782.959	0.55
783.134	0.29
783.308	-0.09
783.483	0.29
783.657	0.99
783.832	0.71
784.006	0.17
784.181	0.34
784.355	0.61
784.53	0.23
784.704	0.25
784.878	0.65
785.053	0.46
785.227	0.69
785.402	0.77
785.576	0.14
785.75	0.58
785.925	0.44
786.099	0.37
786.273	0.48
786.448	0.79
786.622	0.68
786.796	0.39
786.97	0.52
787.145	1.15
787.319	0.01
787.493	0.09
787.667	0
787.841	0.32
788.015	1.01
788.19	0.32
788.364	0.26
788.538	0.8
788.712	0.6
788.886	0.5
789.06	0.53
789.234	0.76
789.408	0.31
789.582	0.49
789.756	0.39
789.93	0.38
790.104	0.62
790.278	0.46
790.452	0.17
790.626	0.48
790.8	0.29
790.973	0.55
791.147	0.77
791.321	0.89
791.495	0.72
791.669	0.5
791.843	0.53
792.016	0.47
792.19	1.03
792.364	0.19
792.538	1.09
792.711	0.63
792.885	0.46
793.059	0.36
793.233	-0.22
793.406	0.89
793.58	0.57
793.754	0.44
793.927	0.46
794.101	0.78
794.274	0.49
794.448	0.58
794.622	0.26
794.795	0.95
794.969	0.37
795.142	0.9
795.316	0.34
795.489	0.24
795.663	0.97
795.836	0.79
796.009	0.11
796.183	0.88
796.356	0.57
796.53	0.31
796.703	0.37
796.876	1.13
797.05	0.34
797.223	0.27
797.396	0.56
797.57	0.57
797.743	0.75
797.916	0.55
798.09	0.43
798.263	0.82
798.436	0.75
798.609	0.25
798.782	0.25
798.956	0.73
799.129	0.47
799.302	0.32
799.475	0.32
799.648	0.23
799.821	0.55
799.994	0.37
800.167	-0.01
800.34	0.4
800.514	0.39
800.687	0.29
800.86	0.09
801.033	0.53
801.206	0.82
801.379	0.4
801.551	0.68
801.724	0.76
801.897	1.16
802.07	0.31
802.243	-0.12
802.416	0.58
802.589	0.68
802.762	0.75
802.935	0.35
803.107	1.06
803.28	1.27
803.453	0.81
803.626	0.54
803.798	0.86
803.971	0.19
804.144	0.51
804.317	0.46
804.489	1.16
804.662	0.71
804.835	0.4
805.007	0.42
805.18	1.13
805.353	0.67
805.525	0.12
805.698	0.18
805.87	1.04
806.043	1.15
806.215	-0.09
806.388	0.16
806.56	0.82
806.733	0.9
806.905	0.84
807.078	0.24
807.25	0.59
807.423	0.89
807.595	0.56
807.768	0.67
807.94	0.96
808.112	0.99
808.285	0.93
808.457	0.4
808.629	0.53
808.802	0.9
808.974	0.44
809.146	0.11
809.318	0.33
809.491	0.75
809.663	0.81
809.835	0.36
810.007	0.69
810.18	0.76
810.352	0.06
810.524	0.63
810.696	0.87
810.868	1.34
811.04	0.39
811.212	0.5
811.384	0.83
811.556	0.95
811.728	0.51
811.901	1.59
812.073	0.69
812.245	1.01
812.417	0.64
812.589	-0.21
812.76	0.71
812.932	1.13
813.104	0.79
813.276	0.51
813.448	0.95
813.62	0.66
813.792	0.42
813.964	1.14
814.136	0.98
814.307	0.7
814.479	0.35
814.651	0.56
814.823	1.69
814.995	0.72
815.166	0.83
815.338	0.48
815.51	0.55
815.681	1.63
815.853	0.94
816.025	0.28
816.196	1.69
816.368	1.07
816.54	0.11
816.711	0.21
816.883	1.1
817.054	1.86
817.226	-0.18
817.398	0.98
817.569	-0.08
817.741	0.98
817.912	0.46
818.084	0.77
818.255	1.13
818.426	-0.08
818.598	0.85
818.769	0
818.941	1.12
819.112	1.27
819.283	0.76
819.455	0.38
819.626	0.69
819.798	1.26
819.969	0.69
820.14	0.64
820.311	0.35
820.483	0.72
820.654	0.87
820.825	0.41
820.996	0.33
821.168	0.28
821.339	0.86
821.51	0.06
821.681	0.9
821.852	0.83
822.023	0.23
822.195	0.37
822.366	1.34
822.537	0.81
822.708	0.8
822.879	0.33
823.05	1.17
823.221	0.93
823.392	1.23
823.563	0.56
823.734	0.68
823.905	0.6
824.076	0.15
824.247	0.43
824.418	0.26
824.589	1.59
824.759	0.54
824.93	0.62
825.101	0.22
825.272	1.44
825.443	0.95
825.614	1.5
825.784	0.53
825.955	2.5
826.126	1.29
826.297	1.19
826.467	2.23
826.638	2.47
826.809	0.5
826.98	1.4
827.15	1.36
827.321	0.95
827.492	1.45
827.662	1.03
827.833	2.17
828.003	1.14
828.174	0.64
828.345	-0.24
828.515	1.74
828.686	0.52
828.856	0.59
829.027	0.85
829.197	1.21
829.368	1.61
829.538	0.25
829.709	0.14
829.879	1.43
830.049	0.27
830.22	0.81
830.39	0.82
830.56	2
830.731	0.9
830.901	0.14
831.072	0.56
831.242	1.13
831.412	1.07
831.582	-0.19
831.753	0.24
831.923	1.64
832.093	1.5
832.263	0.87
832.434	-0.02
832.604	0.77
832.774	1.59
832.944	0.85
833.114	0.35
833.284	1.05
833.454	0.88
833.624	0.31
833.795	0.05
833.965	1.58
834.135	1.56
834.305	-0.79
834.475	0.37
834.645	0.64
834.815	1.51
834.985	-0.1
835.155	-0.27
835.325	1.82
835.494	1.34
835.664	-0.23
835.834	0.54
836.004	1.53
836.174	0.98
836.344	0.74
836.514	-0.15
836.684	0.85
836.853	1.14
837.023	1.27
837.193	0.87
837.363	2.17
837.532	1.79
837.702	1.22
837.872	-0.07
838.041	1.61
838.211	2.35
838.381	-0.21
838.55	1.14
838.72	3.48
838.89	2.87
839.059	0.3
839.229	0.58
839.398	3.11
839.568	1.15
839.738	0.97
839.907	1.59
840.077	0.84
840.246	0.19
840.416	0.5
840.585	0.12
840.755	3.48
840.924	1.63
841.093	0.53
841.263	0.02
841.432	1.4
841.602	0.56
841.771	-0.25
841.94	1.5
842.11	3.54
842.279	3
842.448	0.64
842.617	-0.04
842.787	2.84
842.956	-0.09
843.125	0.75
843.294	0.8
843.464	2.24
843.633	1.87
843.802	0.25
843.971	1.11
844.14	1.64
844.309	2.48
844.479	-0.04
844.648	-0.31
844.817	1.17
844.986	0.95
845.155	0.85
845.324	0.8
845.493	1.32
845.662	0.16
845.831	1.66
846	1.48
846.169	1.44
846.338	2.76
846.507	0.96
846.676	1.12
846.844	1.4
847.013	1.85
847.182	1.4
847.351	0.99
847.52	0.68
847.689	2.01
847.858	0.96
848.026	0.63
848.195	2.29
848.364	0.37
848.533	-0.3
848.701	0.79
848.87	1.3
849.039	3.66
849.207	0.99
849.376	2.53
849.545	2.04
849.713	0.14
849.882	0.88
850.051	0.76
850.219	1.76
850.388	2.5
850.556	0.39
850.725	-0.06
850.893	1.66
851.062	1.11
851.23	1.77
851.399	-0.18
851.567	1.03
851.736	2.14
851.904	-1.94
852.073	1.27
852.241	1.98
852.41	1.49
852.578	1.55
852.746	0.28
852.915	2.12
853.083	1.5
853.251	-0.79
853.42	1.01
853.588	0.99
853.756	2.77
853.924	1.61
854.093	1.77
854.261	1.47
854.429	0.83
854.597	1.3
854.765	-0.12
854.934	1.23
855.102	3.83
855.27	1.42
855.438	1.64
855.606	3.31
855.774	3.86
855.942	0.11
856.11	-0.7
856.278	1.73
856.446	2.56
856.614	2.25
856.782	1.51
856.95	2.23
857.118	1.86
857.286	2.21
857.454	0.96
857.622	2.99
857.79	2.31
857.958	0.16
858.126	1.08
858.294	-1.11
858.462	2.68
858.629	0.16
858.797	-0.45
858.965	3.32
859.133	1.48
859.301	0.38
859.468	1.94
859.636	0.74
859.804	4.38
859.971	2.45
860.139	0.71
860.307	3.68
860.474	3.02
860.642	0.48
860.81	1.15
860.977	0.95
861.145	4.08
861.313	1.58
861.48	2.21
861.648	3.6
861.815	1.94
861.983	0.75
862.15	0.29
862.318	2.58
862.485	3.69
862.653	-0.17
862.82	0.61
862.988	2.96
863.155	2.5
863.322	1.61
863.49	1.03
863.657	0.61
863.824	4.34
863.992	1.78
864.159	1.41
864.326	4.61
864.494	0.66
864.661	3.36
864.828	0.9
864.996	4.79
865.163	3.13
865.33	1.43
865.497	-0.87
865.664	0.57
865.832	0.23
865.999	1.18
866.166	0.31
866.333	1.55
866.5	0.46
866.667	1.7
866.834	1.08
867.001	4.15
867.168	-1.12
867.335	1.84
867.502	0.12
867.669	2.48
867.836	6.3
868.003	0.16
868.17	3.02
868.337	4.47
868.504	5.78
868.671	0.18
868.838	1.24
869.005	5.16
869.172	3.88
869.339	1.79
869.505	2.16
869.672	2.21
869.839	5.33
870.006	1.51
870.173	-0.25
870.339	2.52
870.506	4.74
870.673	1.15
870.84	2.24
871.006	1.93
871.173	2.26
871.34	2.59
871.506	-1.11
871.673	3.36
871.839	-0.52
872.006	2.46
872.173	1.04
872.339	1.93
872.506	4.14
872.672	0.8
872.839	-0.32
873.005	3.25
873.172	6.12
873.338	2.62
873.505	1.89
873.671	2.07
873.838	2.51
874.004	-1
874.171	1.23
874.337	3.51
874.503	4.4
874.67	0.76
874.836	0.67
875.002	3.98
875.169	4.53
875.335	0.68
875.501	1.02
875.668	4.67
875.834	1.31
876	1.12
876.166	3.11
876.332	2.78
876.499	4.26
876.665	0.92
876.831	2.39
876.997	7.91
877.163	4.7
877.329	1.87
877.495	3.2
877.662	2.2
877.828	2.14
877.994	1.38
878.16	-1.35
878.326	1.26
878.492	3.07
878.658	2
878.824	2.25
878.99	2.23
879.156	1.3
879.322	3.85
879.487	2.22
879.653	3.49
879.819	2.96
879.985	-0.2
880.151	2.37
880.317	3.08
880.483	2.17
880.648	2.76
880.814	-0.95
880.98	1.74
881.146	-0.81
881.312	3.23
881.477	-0.51
881.643	0.19
881.809	2.88
881.974	2.2
882.14	-0.69
882.306	1.52
882.471	6.2
882.637	1.62
882.803	3.07
882.968	6.15
883.134	6.83
883.299	1.51
883.465	1.4
883.63	4.33
883.796	3.91
883.961	2.6
884.127	3.59
884.292	-3.03
884.458	0.66
884.623	0.66
