Data from Apollo_Calib_20240827__AbsoluteIrradiance__855__13-24-01-213.txt Node

Date: Wed Aug 28 13:24:01 BST 2024
User: biology
Spectrometer: FLMT08252
Trigger mode: 0
Integration Time (sec): 5.000000E-1
Scans to average: 5
Electric dark correction enabled: true
Nonlinearity correction enabled: false
Boxcar width: 0
XAxis mode: Wavelengths
Number of Pixels in Spectrum: 3648
>>>>>Begin Spectral Data<<<<<
179.588	-0
179.809	-0
180.03	-0
180.251	-0
180.473	-0
180.694	0
180.915	0
181.136	-0
181.357	0
181.578	-0
181.799	-0
182.02	-0
182.241	-0
182.462	-0
182.683	0
182.904	-0
183.125	0
183.346	0
183.567	0
183.788	0
184.009	0
184.23	0
184.451	0
184.672	0
184.892	0
185.113	0
185.334	0
185.555	0
185.776	0
185.996	0
186.217	0
186.438	0
186.659	0
186.879	0
187.1	0
187.321	0
187.541	0
187.762	0
187.983	0
188.203	0
188.424	0
188.644	0
188.865	0
189.086	0
189.306	0
189.527	0
189.747	0
189.968	0
190.188	0
190.409	0
190.629	0
190.849	0
191.07	0
191.29	0
191.511	0
191.731	0
191.951	0
192.172	0
192.392	0
192.612	0
192.833	0
193.053	0
193.273	0
193.493	0
193.714	0
193.934	0
194.154	0
194.374	0
194.594	0
194.815	0
195.035	0
195.255	0
195.475	0
195.695	0
195.915	0
196.135	0
196.355	0
196.575	0
196.795	0
197.015	0
197.235	0
197.455	0
197.675	0
197.895	0
198.115	0
198.335	0
198.555	0
198.775	0
198.995	0
199.214	0
199.434	0
199.654	0
199.874	0
200.094	3.93
200.313	1.77
200.533	1.86
200.753	1.35
200.973	3.5
201.192	3.21
201.412	0.88
201.632	1.82
201.851	3.31
202.071	1.69
202.291	1.38
202.51	1.6
202.73	2.63
202.95	1.29
203.169	1
203.389	1.72
203.608	1.72
203.828	1.52
204.047	1.46
204.267	2.01
204.486	1.91
204.706	2.22
204.925	1.64
205.145	1.24
205.364	1.82
205.583	2.64
205.803	1.21
206.022	1.26
206.242	1.69
206.461	1.48
206.68	1.15
206.9	1.5
207.119	2.54
207.338	2.31
207.557	1.11
207.777	0.97
207.996	1.46
208.215	2.47
208.434	1.06
208.654	0.62
208.873	1.38
209.092	2.29
209.311	0.84
209.53	0.88
209.749	1.08
209.968	0.82
210.187	0.85
210.407	0.56
210.626	1.15
210.845	1.7
211.064	0.95
211.283	0.55
211.502	1.85
211.721	1.34
211.94	0.72
212.159	1.05
212.377	1.42
212.596	1.49
212.815	1.07
213.034	1.2
213.253	1.38
213.472	1.36
213.691	0.95
213.91	0.81
214.128	0.84
214.347	1.54
214.566	0.27
214.785	0.56
215.003	1.21
215.222	0.98
215.441	0.91
215.66	0.44
215.878	0.93
216.097	1.12
216.316	0.67
216.534	0.85
216.753	1.17
216.972	0.7
217.19	0.85
217.409	0.56
217.627	0.62
217.846	0.78
218.064	0.92
218.283	0.52
218.501	1.38
218.72	1
218.938	0.33
219.157	0.68
219.375	1.09
219.594	0.93
219.812	0.42
220.031	0.69
220.249	1.19
220.467	1.16
220.686	0.41
220.904	0.38
221.122	0.78
221.341	1.07
221.559	0.6
221.777	0.55
221.995	0.75
222.214	0.92
222.432	0.53
222.65	0.76
222.868	0.81
223.086	0.86
223.305	0.89
223.523	0.59
223.741	1.06
223.959	0.67
224.177	0.24
224.395	0.47
224.613	0.71
224.831	1.02
225.049	0.34
225.267	0.62
225.485	0.73
225.703	0.65
225.921	0.47
226.139	0.53
226.357	0.71
226.575	0.95
226.793	0.53
227.011	1.56
227.229	0.83
227.447	0.79
227.665	0.52
227.883	0.33
228.1	0.63
228.318	0.65
228.536	0.15
228.754	0.42
228.972	0.58
229.189	0.82
229.407	0.36
229.625	0.39
229.843	0.9
230.06	0.82
230.278	0.49
230.496	0.59
230.713	0.53
230.931	0.79
231.149	0.41
231.366	0.38
231.584	0.52
231.801	1.03
232.019	0.5
232.236	0.32
232.454	0.43
232.671	0.71
232.889	0.4
233.106	0.45
233.324	0.49
233.541	0.52
233.759	0.52
233.976	0.44
234.194	0.63
234.411	0.57
234.628	0.38
234.846	0.5
235.063	0.57
235.28	0.61
235.498	0.47
235.715	0.29
235.932	0.78
236.149	0.43
236.367	0.4
236.584	0.49
236.801	0.42
237.018	0.7
237.236	0.49
237.453	0.14
237.67	0.72
237.887	0.48
238.104	0.45
238.321	0.28
238.538	0.42
238.755	0.68
238.973	0.35
239.19	0.46
239.407	0.46
239.624	0.46
239.841	0.31
240.058	0.41
240.275	0.51
240.492	0.59
240.709	0.4
240.925	0.39
241.142	0.48
241.359	0.32
241.576	0.3
241.793	0.34
242.01	0.42
242.227	0.64
242.444	0.49
242.66	0.56
242.877	0.45
243.094	0.42
243.311	0.36
243.527	0.41
243.744	0.5
243.961	0.54
244.178	0.33
244.394	0.32
244.611	0.61
244.828	0.66
245.044	0.33
245.261	0.31
245.477	0.54
245.694	0.49
245.911	0.3
246.127	0.38
246.344	0.54
246.56	0.59
246.777	0.33
246.993	0.34
247.21	0.47
247.426	0.58
247.643	0.38
247.859	0.33
248.076	0.37
248.292	0.63
248.508	0.25
248.725	0.44
248.941	0.51
249.157	0.56
249.374	0.35
249.59	0.33
249.806	0.43
250.023	0.66
250.239	0.33
250.455	0.23
250.671	0.38
250.888	0.49
251.104	0.43
251.32	0.28
251.536	0.42
251.752	0.46
251.969	0.36
252.185	0.35
252.401	0.6
252.617	0.37
252.833	0.26
253.049	0.39
253.265	0.4
253.481	0.43
253.697	0.35
253.913	0.21
254.129	0.45
254.345	0.4
254.561	0.32
254.777	0.32
254.993	0.48
255.209	0.39
255.425	0.34
255.641	0.25
255.857	0.5
256.073	0.39
256.288	0.21
256.504	0.34
256.72	0.39
256.936	0.5
257.152	0.33
257.367	0.3
257.583	0.41
257.799	0.48
258.015	0.29
258.23	0.27
258.446	0.66
258.662	0.37
258.877	0.28
259.093	0.31
259.309	0.34
259.524	0.45
259.74	0.28
259.955	0.2
260.171	0.38
260.387	0.37
260.602	0.43
260.818	0.37
261.033	0.29
261.249	0.38
261.464	0.34
261.68	0.2
261.895	0.43
262.11	0.4
262.326	0.26
262.541	0.23
262.757	0.49
262.972	0.46
263.187	0.35
263.403	0.34
263.618	0.47
263.833	0.43
264.049	0.28
264.264	0.35
264.479	0.33
264.694	0.53
264.91	0.13
265.125	0.22
265.34	0.47
265.555	0.51
265.77	0.35
265.986	0.27
266.201	0.41
266.416	0.44
266.631	0.28
266.846	0.37
267.061	0.37
267.276	0.39
267.491	0.15
267.706	0.39
267.921	0.4
268.136	0.41
268.351	0.29
268.566	0.27
268.781	0.47
268.996	0.38
269.211	0.32
269.426	0.22
269.641	0.32
269.856	0.37
270.071	0.29
270.285	0.21
270.5	0.46
270.715	0.41
270.93	0.31
271.145	0.34
271.359	0.44
271.574	0.35
271.789	0.28
272.004	0.23
272.218	0.24
272.433	0.37
272.648	0.29
272.862	0.31
273.077	0.35
273.292	0.33
273.506	0.24
273.721	0.28
273.936	0.41
274.15	0.46
274.365	0.27
274.579	0.35
274.794	0.38
275.008	0.46
275.223	0.19
275.437	0.28
275.652	0.38
275.866	0.37
276.081	0.32
276.295	0.36
276.509	0.33
276.724	0.37
276.938	0.29
277.153	0.38
277.367	0.4
277.581	0.24
277.796	0.28
278.01	0.22
278.224	0.38
278.438	0.45
278.653	0.22
278.867	0.23
279.081	0.15
279.295	0.31
279.51	0.35
279.724	0.21
279.938	0.37
280.152	0.34
280.366	0.3
280.58	0.28
280.794	0.46
281.008	0.37
281.222	0.32
281.437	0.5
281.651	0.32
281.865	0.42
282.079	0.29
282.293	0.19
282.507	0.22
282.721	0.31
282.935	0.28
283.148	0.19
283.362	0.28
283.576	0.27
283.79	0.25
284.004	0.21
284.218	0.41
284.432	0.27
284.646	0.24
284.859	0.24
285.073	0.25
285.287	0.31
285.501	0.3
285.714	0.31
285.928	0.33
286.142	0.33
286.356	0.26
286.569	0.21
286.783	0.38
286.997	0.35
287.21	0.28
287.424	0.26
287.637	0.24
287.851	0.29
288.065	0.31
288.278	0.3
288.492	0.29
288.705	0.3
288.919	0.31
289.132	0.15
289.346	0.31
289.559	0.17
289.773	0.18
289.986	0.28
290.2	0.3
290.413	0.36
290.626	0.22
290.84	0.22
291.053	0.28
291.267	0.39
291.48	0.26
291.693	0.21
291.906	0.26
292.12	0.25
292.333	0.27
292.546	0.19
292.76	0.31
292.973	0.29
293.186	0.34
293.399	0.22
293.612	0.35
293.826	0.29
294.039	0.24
294.252	0.19
294.465	0.31
294.678	0.29
294.891	0.29
295.104	0.23
295.317	0.29
295.53	0.25
295.743	0.25
295.956	0.25
296.169	0.36
296.382	0.3
296.595	0.21
296.808	0.17
297.021	0.35
297.234	0.32
297.447	0.24
297.66	0.24
297.873	0.36
298.086	0.36
298.299	0.18
298.511	0.17
298.724	0.29
298.937	0.2
299.15	0.2
299.363	0.25
299.575	0.34
299.788	0.25
300.001	0.25
300.213	0.2
300.426	0.26
300.639	0.24
300.852	0.19
301.064	0.26
301.277	0.29
301.489	0.29
301.702	0.25
301.915	0.22
302.127	0.27
302.34	0.32
302.552	0.29
302.765	0.2
302.977	0.3
303.19	0.25
303.402	0.21
303.615	0.23
303.827	0.23
304.04	0.22
304.252	0.34
304.464	0.21
304.677	0.4
304.889	0.26
305.102	0.2
305.314	0.23
305.526	0.3
305.739	0.27
305.951	0.17
306.163	0.2
306.375	0.35
306.588	0.22
306.8	0.22
307.012	0.17
307.224	0.24
307.436	0.32
307.649	0.18
307.861	0.23
308.073	0.3
308.285	0.21
308.497	0.23
308.709	0.18
308.921	0.25
309.133	0.31
309.346	0.18
309.558	0.22
309.77	0.33
309.982	0.37
310.194	0.28
310.406	0.21
310.617	0.37
310.829	0.26
311.041	0.3
311.253	0.15
311.465	0.26
311.677	0.26
311.889	0.23
312.101	0.19
312.313	0.32
312.524	0.34
312.736	0.18
312.948	0.23
313.16	0.37
313.372	0.32
313.583	0.25
313.795	0.24
314.007	0.22
314.218	0.32
314.43	0.23
314.642	0.23
314.853	0.2
315.065	0.3
315.277	0.24
315.488	0.25
315.7	0.3
315.912	0.28
316.123	0.24
316.335	0.25
316.546	0.4
316.758	0.25
316.969	0.21
317.181	0.29
317.392	0.23
317.604	0.31
317.815	0.18
318.026	0.23
318.238	0.24
318.449	0.29
318.661	0.16
318.872	0.16
319.083	0.19
319.295	0.31
319.506	0.23
319.717	0.22
319.929	0.24
320.14	0.25
320.351	0.26
320.562	0.25
320.774	0.3
320.985	0.28
321.196	0.22
321.407	0.16
321.618	0.28
321.829	0.25
322.041	0.24
322.252	0.26
322.463	0.3
322.674	0.28
322.885	0.2
323.096	0.21
323.307	0.27
323.518	0.29
323.729	0.19
323.94	0.17
324.151	0.21
324.362	0.27
324.573	0.24
324.784	0.26
324.995	0.3
325.206	0.3
325.417	0.24
325.628	0.19
325.838	0.22
326.049	0.28
326.26	0.25
326.471	0.18
326.682	0.29
326.892	0.25
327.103	0.17
327.314	0.27
327.525	0.3
327.735	0.26
327.946	0.23
328.157	0.15
328.368	0.3
328.578	0.22
328.789	0.34
328.999	0.26
329.21	0.18
329.421	0.28
329.631	0.21
329.842	0.19
330.052	0.25
330.263	0.31
330.473	0.29
330.684	0.22
330.894	0.23
331.105	0.27
331.315	0.24
331.526	0.15
331.736	0.37
331.947	0.28
332.157	0.31
332.367	0.19
332.578	0.26
332.788	0.33
332.999	0.32
333.209	0.25
333.419	0.18
333.629	0.3
333.84	0.28
334.05	0.21
334.26	0.34
334.47	0.29
334.681	0.3
334.891	0.21
335.101	0.27
335.311	0.35
335.521	0.23
335.732	0.14
335.942	0.33
336.152	0.28
336.362	0.25
336.572	0.28
336.782	0.26
336.992	0.21
337.202	0.22
337.412	0.25
337.622	0.26
337.832	0.19
338.042	0.25
338.252	0.21
338.462	0.24
338.672	0.26
338.882	0.24
339.092	0.26
339.302	0.39
339.511	0.27
339.721	0.26
339.931	0.2
340.141	0.34
340.351	0.31
340.561	0.24
340.77	0.24
340.98	0.26
341.19	0.26
341.4	0.24
341.609	0.17
341.819	0.25
342.029	0.16
342.238	0.26
342.448	0.21
342.658	0.34
342.867	0.24
343.077	0.22
343.286	0.24
343.496	0.25
343.706	0.3
343.915	0.22
344.125	0.25
344.334	0.26
344.544	0.2
344.753	0.2
344.963	0.2
345.172	0.22
345.381	0.22
345.591	0.17
345.8	0.21
346.01	0.33
346.219	0.32
346.428	0.07
346.638	0.24
346.847	0.27
347.056	0.3
347.266	0.2
347.475	0.23
347.684	0.29
347.893	0.28
348.103	0.22
348.312	0.19
348.521	0.29
348.73	0.27
348.94	0.25
349.149	0.2
349.358	0.24
349.567	0.23
349.776	0.18
349.985	0.22
350.194	0.3
350.403	0.32
350.612	0.19
350.821	0.17
351.03	0.27
351.239	0.19
351.448	0.23
351.657	0.19
351.866	0.3
352.075	0.25
352.284	0.29
352.493	0.19
352.702	0.35
352.911	0.27
353.12	0.21
353.329	0.24
353.538	0.26
353.746	0.23
353.955	0.15
354.164	0.26
354.373	0.26
354.582	0.32
354.79	0.25
354.999	0.25
355.208	0.26
355.416	0.31
355.625	0.21
355.834	0.21
356.042	0.26
356.251	0.22
356.46	0.19
356.668	0.2
356.877	0.36
357.085	0.29
357.294	0.17
357.503	0.22
357.711	0.24
357.92	0.41
358.128	0.26
358.337	0.21
358.545	0.25
358.754	0.23
358.962	0.27
359.17	0.19
359.379	0.25
359.587	0.28
359.796	0.21
360.004	0.3
360.212	0.27
360.421	0.32
360.629	0.21
360.837	0.24
361.046	0.28
361.254	0.39
361.462	0.22
361.67	0.23
361.879	0.23
362.087	0.31
362.295	0.25
362.503	0.21
362.711	0.19
362.92	0.21
363.128	0.19
363.336	0.2
363.544	0.21
363.752	0.23
363.96	0.19
364.168	0.22
364.376	0.23
364.584	0.26
364.792	0.33
365	0.25
365.208	0.27
365.416	0.24
365.624	0.26
365.832	0.2
366.04	0.3
366.248	0.25
366.456	0.23
366.664	0.24
366.872	0.24
367.079	0.25
367.287	0.24
367.495	0.2
367.703	0.19
367.911	0.22
368.118	0.21
368.326	0.21
368.534	0.18
368.742	0.31
368.949	0.18
369.157	0.18
369.365	0.25
369.572	0.23
369.78	0.2
369.988	0.31
370.195	0.28
370.403	0.28
370.61	0.21
370.818	0.25
371.026	0.34
371.233	0.21
371.441	0.25
371.648	0.25
371.856	0.29
372.063	0.27
372.271	0.21
372.478	0.19
372.685	0.22
372.893	0.29
373.1	0.23
373.308	0.21
373.515	0.41
373.722	0.26
373.93	0.22
374.137	0.28
374.344	0.33
374.552	0.27
374.759	0.27
374.966	0.29
375.173	0.24
375.381	0.34
375.588	0.24
375.795	0.17
376.002	0.25
376.209	0.2
376.417	0.27
376.624	0.27
376.831	0.26
377.038	0.27
377.245	0.16
377.452	0.2
377.659	0.25
377.866	0.24
378.073	0.23
378.28	0.22
378.487	0.31
378.694	0.31
378.901	0.25
379.108	0.24
379.315	0.32
379.522	0.34
379.729	0.26
379.936	0.23
380.143	0.28
380.35	0.29
380.557	0.25
380.763	0.23
380.97	0.27
381.177	0.3
381.384	0.29
381.591	0.22
381.797	0.27
382.004	0.32
382.211	0.31
382.418	0.19
382.624	0.29
382.831	0.34
383.038	0.25
383.244	0.23
383.451	0.28
383.658	0.31
383.864	0.27
384.071	0.22
384.277	0.32
384.484	0.27
384.69	0.32
384.897	0.22
385.103	0.28
385.31	0.23
385.516	0.28
385.723	0.19
385.929	0.27
386.136	0.21
386.342	0.34
386.549	0.27
386.755	0.33
386.961	0.32
387.168	0.23
387.374	0.27
387.58	0.33
387.787	0.25
387.993	0.3
388.199	0.28
388.406	0.25
388.612	0.27
388.818	0.27
389.024	0.24
389.231	0.28
389.437	0.42
389.643	0.33
389.849	0.27
390.055	0.25
390.261	0.3
390.467	0.33
390.674	0.26
390.88	0.24
391.086	0.3
391.292	0.21
391.498	0.32
391.704	0.33
391.91	0.28
392.116	0.26
392.322	0.16
392.528	0.34
392.734	0.28
392.94	0.32
393.146	0.29
393.352	0.3
393.557	0.28
393.763	0.26
393.969	0.32
394.175	0.31
394.381	0.31
394.587	0.26
394.792	0.31
394.998	0.39
395.204	0.38
395.41	0.3
395.615	0.3
395.821	0.33
396.027	0.32
396.233	0.29
396.438	0.34
396.644	0.4
396.85	0.32
397.055	0.32
397.261	0.33
397.466	0.32
397.672	0.38
397.878	0.35
398.083	0.35
398.289	0.29
398.494	0.38
398.7	0.32
398.905	0.24
399.111	0.44
399.316	0.24
399.522	0.29
399.727	0.32
399.932	0.34
400.138	0.3
400.343	0.37
400.549	0.32
400.754	0.38
400.959	0.39
401.165	0.31
401.37	0.39
401.575	0.51
401.78	0.38
401.986	0.32
402.191	0.34
402.396	0.36
402.601	0.38
402.807	0.39
403.012	0.36
403.217	0.44
403.422	0.4
403.627	0.35
403.832	0.37
404.037	0.43
404.243	0.42
404.448	0.34
404.653	0.41
404.858	0.47
405.063	0.48
405.268	0.42
405.473	0.37
405.678	0.4
405.883	0.66
406.088	0.49
406.293	0.4
406.498	0.44
406.703	0.48
406.907	0.42
407.112	0.4
407.317	0.51
407.522	0.53
407.727	0.44
407.932	0.53
408.136	0.63
408.341	0.49
408.546	0.53
408.751	0.58
408.956	0.57
409.16	0.66
409.365	0.57
409.57	0.57
409.774	0.58
409.979	0.67
410.184	0.62
410.388	0.54
410.593	0.71
410.798	0.7
411.002	0.7
411.207	0.77
411.411	0.78
411.616	0.72
411.82	0.81
412.025	0.8
412.229	0.78
412.434	0.94
412.638	0.9
412.843	0.85
413.047	0.91
413.252	0.92
413.456	0.96
413.66	1.03
413.865	0.94
414.069	1.09
414.273	1.06
414.478	1.03
414.682	1.1
414.886	1.14
415.091	1.09
415.295	1.18
415.499	1.32
415.703	1.26
415.908	1.36
416.112	1.28
416.316	1.49
416.52	1.48
416.724	1.45
416.929	1.51
417.133	1.71
417.337	1.59
417.541	1.65
417.745	1.75
417.949	1.83
418.153	1.8
418.357	1.85
418.561	2.08
418.765	2.02
418.969	2.29
419.173	2.24
419.377	2.25
419.581	2.46
419.785	2.43
419.989	2.47
420.193	2.59
420.397	2.68
420.601	2.8
420.804	2.89
421.008	2.81
421.212	3.04
421.416	3
421.62	3.02
421.823	3.06
422.027	3.29
422.231	3.22
422.435	3.24
422.638	3.25
422.842	3.46
423.046	3.37
423.249	3.58
423.453	3.6
423.657	3.83
423.86	3.87
424.064	3.98
424.268	4.15
424.471	4.15
424.675	4.37
424.878	4.44
425.082	4.47
425.285	4.85
425.489	4.74
425.692	4.85
425.896	4.91
426.099	5.14
426.303	5.18
426.506	5.3
426.71	5.59
426.913	5.72
427.116	5.88
427.32	5.84
427.523	6.01
427.726	6.35
427.93	6.44
428.133	6.67
428.336	6.81
428.54	6.96
428.743	7.11
428.946	7.45
429.149	7.44
429.353	7.42
429.556	7.52
429.759	7.48
429.962	7.72
430.165	7.79
430.368	7.51
430.571	7.57
430.775	7.66
430.978	7.6
431.181	7.71
431.384	7.84
431.587	7.97
431.79	8.25
431.993	8.17
432.196	8.49
432.399	8.96
432.602	9.03
432.805	9.12
433.008	9.61
433.211	9.57
433.414	9.86
433.616	9.98
433.819	9.72
434.022	9.94
434.225	10.11
434.428	10.22
434.631	10.64
434.833	10.51
435.036	10.61
435.239	10.83
435.442	10.94
435.645	11.11
435.847	11.17
436.05	11.53
436.253	11.52
436.455	11.64
436.658	11.63
436.861	11.92
437.063	12.05
437.266	11.94
437.468	12.25
437.671	12.73
437.874	12.68
438.076	12.36
438.279	12.85
438.481	12.96
438.684	13.59
438.886	13.32
439.089	13.53
439.291	13.69
439.494	13.95
439.696	14.19
439.899	14.65
440.101	15.07
440.303	15.17
440.506	15.94
440.708	15.73
440.91	16.02
441.113	16.08
441.315	16.25
441.517	16.16
441.72	16.68
441.922	16.18
442.124	16.25
442.326	16.6
442.529	16.97
442.731	16.65
442.933	17.09
443.135	16.81
443.337	16.93
443.539	17.39
443.742	17.14
443.944	17.74
444.146	17.51
444.348	17.44
444.55	17.4
444.752	17.59
444.954	17.6
445.156	17.5
445.358	17.99
445.56	18.21
445.762	18.06
445.964	18.48
446.166	18.04
446.368	18.14
446.57	18.18
446.772	17.76
446.974	17.65
447.175	17.97
447.377	17.56
447.579	18.14
447.781	17.73
447.983	17.69
448.184	17.24
448.386	17.45
448.588	17.19
448.79	17.04
448.991	17.3
449.193	17.57
449.395	16.78
449.597	16.45
449.798	16.5
450	15.93
450.202	15.95
450.403	15.99
450.605	15.85
450.806	15.5
451.008	15.39
451.21	15.16
451.411	14.79
451.613	14.11
451.814	14.24
452.016	14.36
452.217	13.53
452.419	13.67
452.62	13.31
452.821	12.98
453.023	12.95
453.224	12.62
453.426	12.14
453.627	11.55
453.828	11.48
454.03	11.72
454.231	11.57
454.432	11.43
454.634	11.23
454.835	10.88
455.036	10.92
455.238	10.51
455.439	10.2
455.64	9.92
455.841	9.77
456.042	9.88
456.244	9.62
456.445	9.38
456.646	9.02
456.847	8.81
457.048	8.89
457.249	8.79
457.45	8.61
457.651	8.09
457.852	8.01
458.054	7.56
458.255	7.53
458.456	7.58
458.657	7.55
458.858	7.04
459.058	6.92
459.259	7.02
459.46	6.62
459.661	6.64
459.862	6.75
460.063	6.6
460.264	6.57
460.465	6.14
460.666	6.35
460.866	5.94
461.067	5.75
461.268	5.8
461.469	5.73
461.67	5.62
461.87	5.46
462.071	5.51
462.272	5.41
462.473	5.25
462.673	5.5
462.874	5.36
463.075	5.33
463.275	5.36
463.476	5.35
463.676	5.23
463.877	5.11
464.078	5.14
464.278	5.13
464.479	4.95
464.679	4.9
464.88	4.75
465.08	4.87
465.281	4.73
465.481	4.48
465.682	4.32
465.882	4.38
466.083	4.33
466.283	4.25
466.483	4.06
466.684	3.91
466.884	3.76
467.085	3.83
467.285	3.93
467.485	3.7
467.686	3.72
467.886	3.5
468.086	3.51
468.286	3.5
468.487	3.59
468.687	3.41
468.887	3.35
469.087	3.57
469.287	3.36
469.488	3.24
469.688	3.33
469.888	3.39
470.088	3.31
470.288	3.16
470.488	3.17
470.688	2.99
470.888	2.95
471.088	2.79
471.288	2.93
471.488	2.88
471.688	2.86
471.888	2.78
472.088	2.99
472.288	2.89
472.488	2.72
472.688	2.7
472.888	2.69
473.088	2.71
473.288	2.62
473.488	2.58
473.688	2.76
473.887	2.58
474.087	2.52
474.287	2.59
474.487	2.48
474.687	2.51
474.886	2.38
475.086	2.41
475.286	2.43
475.486	2.4
475.685	2.33
475.885	2.29
476.085	2.34
476.284	2.35
476.484	2.32
476.684	2.3
476.883	2.39
477.083	2.27
477.282	2.2
477.482	2.3
477.681	2.29
477.881	2.18
478.08	2.18
478.28	2.15
478.479	2.17
478.679	2.25
478.878	2.16
479.078	2.11
479.277	2.18
479.477	2.12
479.676	2.13
479.875	2.03
480.075	1.97
480.274	2.08
480.473	2.12
480.673	2.08
480.872	2.13
481.071	2.12
481.271	2.09
481.47	2.06
481.669	2.09
481.868	2.03
482.067	2.05
482.267	1.93
482.466	2.02
482.665	2.01
482.864	2
483.063	2.02
483.262	2.07
483.461	2.12
483.661	2.12
483.86	2.07
484.059	2.11
484.258	2.08
484.457	2.07
484.656	2.09
484.855	2.13
485.054	1.96
485.253	2.07
485.452	2.02
485.651	2.11
485.849	2.05
486.048	2.06
486.247	2.07
486.446	2.14
486.645	2.07
486.844	2.08
487.043	2.09
487.241	2.12
487.44	2.13
487.639	2.2
487.838	2.19
488.037	2.15
488.235	2.3
488.434	2.19
488.633	2.08
488.831	2.3
489.03	2.26
489.229	2.26
489.427	2.27
489.626	2.33
489.825	2.34
490.023	2.33
490.222	2.31
490.42	2.36
490.619	2.44
490.817	2.4
491.016	2.39
491.214	2.45
491.413	2.44
491.611	2.37
491.81	2.42
492.008	2.48
492.207	2.56
492.405	2.5
492.604	2.45
492.802	2.52
493	2.62
493.199	2.7
493.397	2.65
493.595	2.74
493.794	2.69
493.992	2.82
494.19	2.82
494.388	2.84
494.587	2.77
494.785	2.79
494.983	2.71
495.181	2.87
495.379	2.89
495.578	2.98
495.776	2.93
495.974	2.94
496.172	2.93
496.37	3.12
496.568	3.09
496.766	3.01
496.964	3.22
497.162	3.21
497.36	3.17
497.558	3.24
497.756	3.28
497.954	3.28
498.152	3.31
498.35	3.47
498.548	3.33
498.746	3.38
498.944	3.42
499.142	3.4
499.34	3.5
499.538	3.63
499.736	3.5
499.933	3.64
500.131	3.64
500.329	3.8
500.527	3.72
500.725	3.86
500.922	3.84
501.12	3.84
501.318	3.91
501.516	3.9
501.713	3.99
501.911	3.97
502.109	3.9
502.306	4.02
502.504	4.03
502.701	4.05
502.899	4.16
503.097	4.27
503.294	4.18
503.492	4.26
503.689	4.34
503.887	4.32
504.084	4.39
504.282	4.42
504.479	4.34
504.677	4.56
504.874	4.52
505.072	4.45
505.269	4.6
505.466	4.64
505.664	4.7
505.861	4.59
506.059	4.67
506.256	4.76
506.453	4.79
506.651	4.94
506.848	4.98
507.045	4.91
507.242	4.91
507.44	4.96
507.637	5.07
507.834	4.97
508.031	5.18
508.229	5.1
508.426	5.05
508.623	5.2
508.82	5.21
509.017	5.22
509.214	5.23
509.411	5.37
509.608	5.32
509.805	5.41
510.003	5.39
510.2	5.44
510.397	5.62
510.594	5.42
510.791	5.54
510.988	5.55
511.184	5.54
511.381	5.5
511.578	5.64
511.775	5.75
511.972	5.63
512.169	5.73
512.366	5.78
512.563	5.89
512.76	5.89
512.956	5.92
513.153	5.88
513.35	5.84
513.547	5.9
513.744	5.97
513.94	5.97
514.137	6.08
514.334	6.05
514.53	6.1
514.727	6.32
514.924	6.2
515.12	6.18
515.317	6.21
515.514	6.14
515.71	6.14
515.907	6.32
516.103	6.4
516.3	6.27
516.497	6.44
516.693	6.44
516.89	6.4
517.086	6.44
517.283	6.51
517.479	6.36
517.676	6.54
517.872	6.58
518.068	6.57
518.265	6.5
518.461	6.54
518.658	6.62
518.854	6.63
519.05	6.73
519.247	6.78
519.443	6.73
519.639	6.81
519.836	6.7
520.032	6.65
520.228	6.82
520.424	6.83
520.621	6.82
520.817	6.91
521.013	6.83
521.209	7.04
521.405	7.05
521.601	6.94
521.798	6.93
521.994	6.99
522.19	6.9
522.386	6.94
522.582	7.07
522.778	7.25
522.974	7.06
523.17	7.12
523.366	7.01
523.562	7.15
523.758	7.16
523.954	6.98
524.15	7.11
524.346	7.22
524.542	7.16
524.738	7.18
524.934	7.3
525.129	7.27
525.325	7.19
525.521	7.16
525.717	7.39
525.913	7.21
526.109	7.32
526.304	7.39
526.5	7.39
526.696	7.38
526.892	7.33
527.087	7.56
527.283	7.44
527.479	7.45
527.674	7.32
527.87	7.42
528.066	7.43
528.261	7.47
528.457	7.33
528.653	7.54
528.848	7.49
529.044	7.62
529.239	7.47
529.435	7.47
529.63	7.41
529.826	7.46
530.021	7.52
530.217	7.6
530.412	7.49
530.608	7.55
530.803	7.57
530.999	7.41
531.194	7.55
531.389	7.63
531.585	7.58
531.78	7.73
531.975	7.67
532.171	7.72
532.366	7.67
532.561	7.72
532.757	7.65
532.952	7.86
533.147	7.57
533.342	7.77
533.538	7.62
533.733	7.85
533.928	7.49
534.123	7.74
534.318	7.78
534.513	7.65
534.709	7.89
534.904	7.79
535.099	7.8
535.294	7.83
535.489	7.85
535.684	7.79
535.879	7.79
536.074	7.9
536.269	7.82
536.464	7.89
536.659	7.82
536.854	7.81
537.049	7.9
537.244	7.82
537.439	7.88
537.634	7.86
537.828	7.97
538.023	7.89
538.218	7.83
538.413	7.81
538.608	7.88
538.803	7.84
538.997	7.86
539.192	7.89
539.387	7.84
539.582	7.84
539.776	7.83
539.971	7.92
540.166	7.97
540.36	7.88
540.555	8.06
540.75	7.94
540.944	7.94
541.139	7.92
541.334	7.98
541.528	7.97
541.723	8.02
541.917	7.98
542.112	7.9
542.306	7.83
542.501	7.85
542.695	7.87
542.89	7.86
543.084	7.93
543.279	8.04
543.473	8.02
543.668	8.02
543.862	7.85
544.056	7.89
544.251	8.04
544.445	8.05
544.64	8.06
544.834	7.74
545.028	7.64
545.222	8.01
545.417	8.13
545.611	8.06
545.805	8
546	7.84
546.194	7.95
546.388	8.08
546.582	7.94
546.776	7.99
546.97	8.08
547.165	8.05
547.359	8.01
547.553	7.93
547.747	7.97
547.941	8.19
548.135	7.99
548.329	8.04
548.523	8.08
548.717	7.97
548.911	7.98
549.105	7.99
549.299	8.11
549.493	8.06
549.687	7.95
549.881	8.08
550.075	8.03
550.269	7.95
550.463	8.02
550.657	8.11
550.85	8.03
551.044	8
551.238	8.14
551.432	8.05
551.626	8.12
551.82	8.02
552.013	7.98
552.207	8.11
552.401	8.1
552.594	8.01
552.788	7.98
552.982	8.01
553.176	8
553.369	8.21
553.563	8.11
553.756	7.98
553.95	8.11
554.144	8.08
554.337	8.06
554.531	7.88
554.724	8.09
554.918	8.18
555.111	8.02
555.305	8.06
555.498	8.01
555.692	8.2
555.885	8.12
556.079	7.99
556.272	8.07
556.466	8.09
556.659	7.98
556.852	8.12
557.046	7.96
557.239	8
557.432	8.03
557.626	8.12
557.819	8.19
558.012	8.1
558.206	8.12
558.399	8.12
558.592	8.08
558.785	7.95
558.979	8.05
559.172	8.08
559.365	8.08
559.558	8.03
559.751	8.02
559.944	8.13
560.138	8.03
560.331	8.09
560.524	8.11
560.717	8.09
560.91	8.09
561.103	8.1
561.296	7.9
561.489	8.1
561.682	8.14
561.875	8.16
562.068	8.2
562.261	8.01
562.454	8.24
562.647	8.07
562.84	8.19
563.032	8.11
563.225	7.96
563.418	8
563.611	8.14
563.804	8.12
563.997	7.92
564.19	7.84
564.382	8.14
564.575	8.01
564.768	8.02
564.961	8.12
565.153	8.02
565.346	7.99
565.539	8.15
565.731	8.06
565.924	8.1
566.117	8.16
566.309	8.06
566.502	8
566.695	7.91
566.887	8.05
567.08	8.12
567.272	8.08
567.465	7.95
567.657	8.11
567.85	7.92
568.042	8.07
568.235	8.08
568.427	7.92
568.62	7.98
568.812	7.99
569.005	8.12
569.197	7.94
569.389	7.98
569.582	8.04
569.774	8.06
569.966	7.92
570.159	7.9
570.351	7.89
570.543	8.01
570.736	7.97
570.928	7.85
571.12	8.03
571.312	7.92
571.505	7.69
571.697	8.09
571.889	7.96
572.081	7.97
572.273	7.86
572.465	7.93
572.658	7.96
572.85	7.91
573.042	7.96
573.234	7.9
573.426	7.93
573.618	7.88
573.81	7.98
574.002	7.92
574.194	7.91
574.386	7.81
574.578	7.74
574.77	7.85
574.962	7.88
575.154	7.69
575.346	7.77
575.538	7.79
575.729	7.82
575.921	7.93
576.113	7.9
576.305	7.87
576.497	7.96
576.689	7.73
576.88	7.7
577.072	7.84
577.264	7.79
577.456	7.85
577.647	7.79
577.839	7.89
578.031	7.78
578.223	7.72
578.414	7.64
578.606	7.77
578.798	7.76
578.989	7.74
579.181	7.88
579.372	7.77
579.564	7.81
579.755	7.75
579.947	7.7
580.139	7.74
580.33	7.63
580.522	7.72
580.713	7.64
580.905	7.65
581.096	7.8
581.287	7.64
581.479	7.65
581.67	7.8
581.862	7.59
582.053	7.65
582.244	7.52
582.436	7.71
582.627	7.61
582.818	7.53
583.01	7.57
583.201	7.65
583.392	7.55
583.583	7.52
583.775	7.4
583.966	7.5
584.157	7.52
584.348	7.66
584.54	7.48
584.731	7.55
584.922	7.43
585.113	7.37
585.304	7.52
585.495	7.51
585.686	7.63
585.877	7.52
586.068	7.59
586.259	7.49
586.45	7.47
586.641	7.43
586.832	7.54
587.023	7.42
587.214	7.4
587.405	7.5
587.596	7.35
587.787	7.31
587.978	7.41
588.169	7.33
588.36	7.29
588.551	7.38
588.742	7.36
588.932	7.38
589.123	7.16
589.314	7.44
589.505	7.22
589.696	7.32
589.886	7.31
590.077	7.27
590.268	7.21
590.458	7.17
590.649	7.06
590.84	7.25
591.03	7.2
591.221	7.19
591.412	7.06
591.602	7.29
591.793	7.2
591.984	7.11
592.174	7.18
592.365	7.29
592.555	7.03
592.746	7.05
592.936	7.06
593.127	7.21
593.317	7.15
593.508	7.1
593.698	7.06
593.889	7.06
594.079	7.06
594.269	6.97
594.46	6.96
594.65	7
594.84	6.98
595.031	6.91
595.221	6.93
595.411	6.97
595.602	6.96
595.792	6.87
595.982	6.86
596.172	7.03
596.363	6.84
596.553	6.85
596.743	6.88
596.933	6.85
597.123	6.84
597.314	6.68
597.504	6.69
597.694	6.87
597.884	6.72
598.074	6.79
598.264	6.76
598.454	6.72
598.644	6.69
598.834	6.65
599.024	6.62
599.214	6.64
599.404	6.71
599.594	6.68
599.784	6.53
599.974	6.72
600.164	6.6
600.354	6.55
600.544	6.48
600.734	6.58
600.924	6.53
601.114	6.5
601.303	6.5
601.493	6.51
601.683	6.5
601.873	6.45
602.063	6.37
602.252	6.42
602.442	6.34
602.632	6.38
602.821	6.35
603.011	6.4
603.201	6.39
603.39	6.35
603.58	6.22
603.77	6.39
603.959	6.37
604.149	6.32
604.339	6.31
604.528	6.39
604.718	6.28
604.907	6.21
605.097	6.18
605.286	6.15
605.476	6.23
605.665	6.21
605.855	6.15
606.044	6.25
606.234	6.19
606.423	6.09
606.612	6.06
606.802	6.09
606.991	6.1
607.181	6.09
607.37	6.12
607.559	5.89
607.749	6
607.938	5.93
608.127	5.99
608.316	5.95
608.506	5.94
608.695	6.01
608.884	5.96
609.073	5.98
609.263	5.96
609.452	5.95
609.641	5.79
609.83	5.79
610.019	5.84
610.208	5.78
610.397	5.78
610.586	5.9
610.775	5.76
610.965	5.74
611.154	5.64
611.343	5.81
611.532	5.69
611.721	5.74
611.91	5.69
612.099	5.66
612.287	5.58
612.476	5.53
612.665	5.69
612.854	5.55
613.043	5.59
613.232	5.52
613.421	5.55
613.61	5.49
613.798	5.54
613.987	5.53
614.176	5.5
614.365	5.49
614.554	5.53
614.742	5.5
614.931	5.34
615.12	5.55
615.309	5.45
615.497	5.35
615.686	5.26
615.875	5.32
616.063	5.26
616.252	5.28
616.44	5.28
616.629	5.25
616.818	5.19
617.006	5.21
617.195	5.16
617.383	5.18
617.572	5.13
617.76	5.16
617.949	5.14
618.137	5.18
618.326	5.24
618.514	4.96
618.703	4.97
618.891	5.1
619.079	5.03
619.268	5.08
619.456	4.93
619.644	5.05
619.833	4.99
620.021	4.94
620.209	4.8
620.398	4.95
620.586	4.9
620.774	4.86
620.962	4.87
621.151	5
621.339	4.83
621.527	4.8
621.715	4.73
621.903	4.76
622.092	4.78
622.28	4.83
622.468	4.59
622.656	4.74
622.844	4.75
623.032	4.74
623.22	4.56
623.408	4.83
623.596	4.72
623.784	4.7
623.972	4.54
624.16	4.64
624.348	4.71
624.536	4.67
624.724	4.54
624.912	4.6
625.1	4.57
625.288	4.57
625.476	4.48
625.664	4.58
625.851	4.47
626.039	4.51
626.227	4.46
626.415	4.46
626.603	4.32
626.79	4.42
626.978	4.41
627.166	4.46
627.354	4.33
627.541	4.31
627.729	4.21
627.917	4.5
628.104	4.37
628.292	4.27
628.48	4.29
628.667	4.24
628.855	4.31
629.042	4.34
629.23	4.16
629.418	4.22
629.605	4.22
629.793	4.12
629.98	4.19
630.168	4.12
630.355	4.1
630.543	4.09
630.73	4.08
630.917	4.09
631.105	4.2
631.292	4.09
631.48	4.02
631.667	4.23
631.854	3.99
632.042	4.03
632.229	3.91
632.416	3.99
632.604	3.94
632.791	3.87
632.978	3.96
633.165	3.83
633.353	4.05
633.54	3.92
633.727	3.75
633.914	3.79
634.101	3.75
634.289	3.9
634.476	3.75
634.663	3.72
634.85	3.78
635.037	3.71
635.224	3.62
635.411	3.8
635.598	3.71
635.785	3.68
635.972	3.61
636.159	3.69
636.346	3.65
636.533	3.56
636.72	3.63
636.907	3.56
637.094	3.6
637.281	3.45
637.468	3.53
637.655	3.59
637.842	3.58
638.029	3.55
638.215	3.51
638.402	3.49
638.589	3.47
638.776	3.47
638.963	3.42
639.149	3.49
639.336	3.5
639.523	3.42
639.709	3.44
639.896	3.33
640.083	3.33
640.27	3.37
640.456	3.36
640.643	3.4
640.829	3.22
641.016	3.28
641.203	3.22
641.389	3.29
641.576	3.28
641.762	3.2
641.949	3.22
642.135	3.27
642.322	3.22
642.508	3.1
642.695	3.19
642.881	3.15
643.068	3.09
643.254	3.1
643.441	3.14
643.627	3.16
643.813	3.05
644	3.11
644.186	2.99
644.372	3.06
644.559	3.09
644.745	2.96
644.931	2.98
645.118	2.99
645.304	3.02
645.49	2.99
645.676	2.95
645.862	2.94
646.049	3.03
646.235	2.93
646.421	3.02
646.607	3
646.793	2.93
646.979	2.85
647.165	2.89
647.352	2.93
647.538	2.88
647.724	2.82
647.91	2.8
648.096	2.81
648.282	2.87
648.468	2.73
648.654	2.8
648.84	2.82
649.026	2.76
649.212	2.65
649.397	2.66
649.583	2.73
649.769	2.76
649.955	2.64
650.141	2.73
650.327	2.73
650.513	2.62
650.698	2.65
650.884	2.51
651.07	2.6
651.256	2.67
651.442	2.59
651.627	2.5
651.813	2.6
651.999	2.55
652.184	2.55
652.37	2.5
652.556	2.53
652.741	2.61
652.927	2.4
653.113	2.49
653.298	2.49
653.484	2.5
653.669	2.38
653.855	2.41
654.04	2.5
654.226	2.48
654.412	2.42
654.597	2.32
654.782	2.4
654.968	2.47
655.153	2.41
655.339	2.34
655.524	2.31
655.71	2.36
655.895	2.34
656.08	2.31
656.266	2.37
656.451	2.3
656.636	2.16
656.822	2.27
657.007	2.28
657.192	2.23
657.378	2.23
657.563	2.21
657.748	2.28
657.933	2.29
658.118	2.17
658.304	2.2
658.489	2.27
658.674	2.22
658.859	2.12
659.044	2.19
659.229	2.23
659.414	2.13
659.599	2.13
659.785	2.05
659.97	2.13
660.155	2.15
660.34	2.12
660.525	2.06
660.71	2.08
660.895	2.11
661.08	2.03
661.264	1.95
661.449	2.16
661.634	2.07
661.819	2.09
662.004	1.99
662.189	1.96
662.374	1.95
662.559	1.93
662.743	1.9
662.928	1.95
663.113	1.92
663.298	1.87
663.483	1.87
663.667	1.92
663.852	1.92
664.037	2.02
664.221	1.88
664.406	1.94
664.591	1.96
664.775	1.92
664.96	1.89
665.145	1.86
665.329	1.95
665.514	1.86
665.698	1.85
665.883	1.72
666.068	1.87
666.252	1.79
666.437	1.78
666.621	1.76
666.806	1.85
666.99	1.73
667.174	1.7
667.359	1.85
667.543	1.7
667.728	1.77
667.912	1.63
668.096	1.74
668.281	1.72
668.465	1.76
668.649	1.72
668.834	1.66
669.018	1.65
669.202	1.67
669.387	1.69
669.571	1.77
669.755	1.62
669.939	1.67
670.124	1.65
670.308	1.69
670.492	1.67
670.676	1.64
670.86	1.6
671.044	1.59
671.228	1.66
671.413	1.56
671.597	1.56
671.781	1.52
671.965	1.58
672.149	1.56
672.333	1.56
672.517	1.52
672.701	1.6
672.885	1.57
673.069	1.47
673.253	1.63
673.437	1.5
673.621	1.47
673.804	1.52
673.988	1.53
674.172	1.51
674.356	1.37
674.54	1.51
674.724	1.58
674.908	1.48
675.091	1.53
675.275	1.4
675.459	1.53
675.643	1.41
675.826	1.43
676.01	1.43
676.194	1.43
676.377	1.49
676.561	1.41
676.745	1.4
676.928	1.44
677.112	1.5
677.296	1.38
677.479	1.36
677.663	1.4
677.846	1.44
678.03	1.42
678.213	1.33
678.397	1.42
678.58	1.36
678.764	1.35
678.947	1.25
679.131	1.35
679.314	1.36
679.498	1.34
679.681	1.37
679.865	1.4
680.048	1.3
680.231	1.28
680.415	1.26
680.598	1.31
680.781	1.21
680.965	1.27
681.148	1.29
681.331	1.21
681.514	1.28
681.698	1.23
681.881	1.28
682.064	1.26
682.247	1.3
682.43	1.14
682.614	1.26
682.797	1.3
682.98	1.3
683.163	1.21
683.346	1.26
683.529	1.21
683.712	1.19
683.895	1.17
684.078	1.16
684.261	1.2
684.444	1.23
684.627	1.22
684.81	1.14
684.993	1.18
685.176	1.22
685.359	1.07
685.542	1.11
685.725	1.26
685.908	1.16
686.091	1.09
686.274	1.19
686.457	1.18
686.639	1.17
686.822	1.18
687.005	1.16
687.188	1.16
687.371	1.25
687.553	1.13
687.736	1.11
687.919	1.19
688.102	1.19
688.284	1.03
688.467	1.05
688.65	1.14
688.832	1
689.015	1.04
689.197	0.96
689.38	1.13
689.563	1.18
689.745	1
689.928	1
690.11	1.04
690.293	1.05
690.475	0.95
690.658	1.02
690.84	1.05
691.023	1.06
691.205	0.95
691.388	1.09
691.57	1.06
691.752	1.07
691.935	0.9
692.117	0.9
692.3	1
692.482	0.99
692.664	0.94
692.847	1.01
693.029	1.06
693.211	1.03
693.393	0.93
693.576	0.94
693.758	0.97
693.94	0.98
694.122	0.94
694.304	0.96
694.487	0.88
694.669	1
694.851	0.88
695.033	0.86
695.215	0.88
695.397	0.88
695.579	0.93
695.761	0.84
695.943	0.93
696.125	0.99
696.308	0.96
696.49	0.76
696.671	1.05
696.853	0.91
697.035	1.12
697.217	0.87
697.399	0.97
697.581	0.8
697.763	0.92
697.945	0.81
698.127	0.88
698.309	0.81
698.491	0.85
698.672	0.89
698.854	0.9
699.036	0.93
699.218	0.84
699.399	0.9
699.581	0.92
699.763	0.8
699.945	0.76
700.126	0.73
700.308	0.83
700.49	0.75
700.671	0.74
700.853	0.77
701.035	0.76
701.216	0.76
701.398	0.76
701.579	0.8
701.761	0.87
701.943	0.82
702.124	0.73
702.306	0.74
702.487	1.02
702.669	0.77
702.85	0.76
703.031	0.71
703.213	0.9
703.394	0.82
703.576	0.71
703.757	0.95
703.938	0.79
704.12	0.93
704.301	0.74
704.483	0.79
704.664	0.8
704.845	0.87
705.026	0.83
705.208	0.7
705.389	0.81
705.57	0.83
705.751	0.69
705.933	0.76
706.114	0.83
706.295	0.76
706.476	0.61
706.657	0.87
706.838	0.78
707.02	0.79
707.201	0.64
707.382	0.66
707.563	0.76
707.744	0.65
707.925	0.61
708.106	0.64
708.287	0.71
708.468	0.82
708.649	0.66
708.83	0.83
709.011	0.63
709.192	0.8
709.373	0.61
709.554	0.61
709.734	0.85
709.915	0.79
710.096	0.72
710.277	0.55
710.458	0.7
710.639	0.77
710.819	0.58
711	0.58
711.181	0.72
711.362	0.72
711.542	0.69
711.723	0.62
711.904	0.69
712.085	0.69
712.265	0.69
712.446	0.49
712.627	0.56
712.807	0.66
712.988	0.63
713.168	0.48
713.349	0.7
713.53	0.51
713.71	0.53
713.891	0.49
714.071	0.62
714.252	0.62
714.432	0.57
714.613	0.46
714.793	0.51
714.974	0.7
715.154	0.75
715.334	0.59
715.515	0.72
715.695	0.61
715.876	0.58
716.056	0.53
716.236	0.55
716.417	0.52
716.597	0.52
716.777	0.82
716.957	0.55
717.138	0.66
717.318	0.62
717.498	0.51
717.678	0.57
717.859	0.63
718.039	0.47
718.219	0.57
718.399	0.58
718.579	0.53
718.759	0.5
718.939	0.6
719.12	0.68
719.3	0.58
719.48	0.42
719.66	0.38
719.84	0.65
720.02	0.54
720.2	0.49
720.38	0.54
720.56	0.7
720.74	0.4
720.92	0.62
721.1	0.67
721.279	0.64
721.459	0.64
721.639	0.42
721.819	0.49
721.999	0.49
722.179	0.63
722.359	0.42
722.538	0.53
722.718	0.46
722.898	0.51
723.078	0.42
723.257	0.5
723.437	0.64
723.617	0.57
723.797	0.44
723.976	0.51
724.156	0.62
724.336	0.6
724.515	0.76
724.695	0.41
724.874	0.51
725.054	0.61
725.234	0.44
725.413	0.49
725.593	0.6
725.772	0.5
725.952	0.51
726.131	0.51
726.311	0.47
726.49	0.49
726.67	0.38
726.849	0.43
727.028	0.51
727.208	0.63
727.387	0.51
727.567	0.4
727.746	0.47
727.925	0.53
728.105	0.43
728.284	0.44
728.463	0.42
728.643	0.61
728.822	0.42
729.001	0.47
729.18	0.5
729.359	0.6
729.539	0.46
729.718	0.52
729.897	0.57
730.076	0.46
730.255	0.33
730.434	0.57
730.614	0.6
730.793	0.57
730.972	0.44
731.151	0.42
731.33	0.54
731.509	0.53
731.688	0.4
731.867	0.49
732.046	0.31
732.225	0.73
732.404	0.4
732.583	0.32
732.762	0.47
732.941	0.48
733.12	0.55
733.298	0.42
733.477	0.56
733.656	0.48
733.835	0.46
734.014	0.45
734.193	0.47
734.371	0.52
734.55	0.57
734.729	0.3
734.908	0.45
735.086	0.55
735.265	0.58
735.444	0.26
735.623	0.33
735.801	0.36
735.98	0.54
736.159	0.45
736.337	0.52
736.516	0.53
736.694	0.43
736.873	0.43
737.052	0.74
737.23	0.65
737.409	0.48
737.587	0.79
737.766	0.4
737.944	0.42
738.123	0.61
738.301	0.48
738.479	0.5
738.658	0.56
738.836	0.12
739.015	0.5
739.193	0.68
739.371	0.37
739.55	0.52
739.728	0.38
739.906	0.71
740.085	0.66
740.263	0.43
740.441	0.24
740.62	0.79
740.798	0.47
740.976	0.28
741.154	0.32
741.332	0.78
741.511	0.44
741.689	0.47
741.867	0.43
742.045	0.56
742.223	0.35
742.401	0.34
742.579	0.4
742.757	0.6
742.935	0.27
743.114	0.26
743.292	0.4
743.47	0.46
743.648	0.51
743.826	0.47
744.004	0.49
744.181	0.53
744.359	0.33
744.537	0.57
744.715	0.35
744.893	0.43
745.071	0.48
745.249	0.44
745.427	0.46
745.605	0.39
745.782	0.39
745.96	0.46
746.138	0.62
746.316	0.55
746.493	0.48
746.671	0.37
746.849	0.4
747.027	0.7
747.204	0.3
747.382	0.4
747.56	0.35
747.737	0.29
747.915	0.43
748.093	0.54
748.27	0.36
748.448	0.4
748.625	0.2
748.803	0.33
748.98	0.3
749.158	0.46
749.335	0.53
749.513	0.34
749.69	0.22
749.868	0.42
750.045	0.45
750.223	0.32
750.4	0.15
750.578	0.6
750.755	0.46
750.932	0.29
751.11	0.42
751.287	0.36
751.464	0.64
751.642	0.25
751.819	0.42
751.996	0.41
752.173	0.33
752.351	0.28
752.528	0.45
752.705	0.32
752.882	0.34
753.06	0.36
753.237	0.52
753.414	0.76
753.591	0.69
753.768	0.35
753.945	0.26
754.122	0.49
754.299	0.51
754.476	0.24
754.654	0.37
754.831	0.43
755.008	0.42
755.185	0.22
755.362	0.15
755.539	0.47
755.716	0.32
755.892	0.31
756.069	0.34
756.246	0.35
756.423	0.37
756.6	0.45
756.777	0.28
756.954	0.45
757.131	0.34
757.307	0.38
757.484	0.19
757.661	0.5
757.838	0.44
758.015	0.05
758.191	0.42
758.368	0.37
758.545	0.52
758.721	0.42
758.898	0.17
759.075	0.37
759.251	0.55
759.428	0.33
759.605	0.19
759.781	0.24
759.958	0.37
760.134	0.3
760.311	0.3
760.488	0.5
760.664	0.49
760.841	0.3
761.017	0.21
761.194	0.48
761.37	0.54
761.547	0.39
761.723	0.28
761.899	0.63
762.076	0.23
762.252	0.25
762.429	0.23
762.605	0.48
762.781	0.3
762.958	0.46
763.134	0.33
763.31	0.26
763.486	0.56
763.663	-0.01
763.839	0.4
764.015	0.06
764.191	0.33
764.368	0.31
764.544	0.17
764.72	0.47
764.896	0.39
765.072	0.36
765.248	0.36
765.425	0.34
765.601	0.37
765.777	0.29
765.953	-0.01
766.129	0.17
766.305	0.22
766.481	0.39
766.657	0.34
766.833	0.56
767.009	0.25
767.185	0.27
767.361	0.27
767.537	0.21
767.713	0.57
767.889	0.27
768.065	0.38
768.24	0.48
768.416	0.39
768.592	0.28
768.768	0.28
768.944	0.39
769.12	0.22
769.295	0.35
769.471	0.26
769.647	0.4
769.823	0.53
769.998	0.18
770.174	0.24
770.35	0.79
770.525	0.56
770.701	0.32
770.877	0.29
771.052	0.18
771.228	0.5
771.403	0.41
771.579	0.25
771.755	0.71
771.93	0.36
772.106	0.14
772.281	0.08
772.457	0.41
772.632	0.54
772.808	0.08
772.983	0.37
773.159	0.15
773.334	0.53
773.509	0.47
773.685	0.26
773.86	0.73
774.036	0.63
774.211	0.39
774.386	0.37
774.562	0.51
774.737	0.76
774.912	0.24
775.087	0.27
775.263	0.38
775.438	0.47
775.613	0.32
775.788	0.4
775.964	0.58
776.139	1
776.314	0.14
776.489	0.35
776.664	0.37
776.839	0.22
777.014	0.47
777.19	0.39
777.365	0.55
777.54	0.7
777.715	0.16
777.89	0.33
778.065	0.33
778.24	0.41
778.415	0.51
778.59	0.19
778.765	0.34
778.94	0.4
779.115	0.32
779.289	0.31
779.464	0.3
779.639	0.26
779.814	0.09
779.989	0.14
780.164	0.57
780.339	0.53
780.513	0.19
780.688	0.13
780.863	0.29
781.038	0.6
781.212	0.22
781.387	0.2
781.562	0.84
781.737	0.17
781.911	0.62
782.086	0.21
782.261	0.35
782.435	0.72
782.61	0.24
782.784	0.27
782.959	0.7
783.134	0.32
783.308	0.03
783.483	0.28
783.657	0.97
783.832	0.59
784.006	0.08
784.181	0.3
784.355	0.64
784.53	0.31
784.704	0.17
784.878	0.58
785.053	0.48
785.227	0.82
785.402	0.88
785.576	0.2
785.75	0.64
785.925	0.27
786.099	0.46
786.273	0.38
786.448	0.61
786.622	0.91
786.796	0.37
786.97	0.41
787.145	1.24
787.319	-0.01
787.493	0.42
787.667	-0.05
787.841	0.45
788.015	0.67
788.19	0.19
788.364	0.36
788.538	0.65
788.712	0.66
788.886	0.4
789.06	0.6
789.234	0.78
789.408	0.05
789.582	0.25
789.756	0.1
789.93	0.3
790.104	0.32
790.278	0.41
790.452	0.22
790.626	0.49
790.8	0.2
790.973	0.54
791.147	0.83
791.321	1.01
791.495	0.6
791.669	0.42
791.843	0.47
792.016	0.53
792.19	1.03
792.364	0.23
792.538	1.07
792.711	0.74
792.885	0.35
793.059	0.2
793.233	-0.37
793.406	0.9
793.58	0.66
793.754	0.76
793.927	0.31
794.101	0.69
794.274	0.67
794.448	0.56
794.622	0.07
794.795	1.02
794.969	0.08
795.142	0.79
795.316	0.26
795.489	0.14
795.663	1.02
795.836	0.4
796.009	0.04
796.183	0.67
796.356	0.52
796.53	0.57
796.703	0.41
796.876	1.15
797.05	0.43
797.223	0.42
797.396	0.53
797.57	0.53
797.743	0.95
797.916	0.31
798.09	0.16
798.263	0.94
798.436	0.73
798.609	0.28
798.782	0.59
798.956	0.51
799.129	0.48
799.302	0.24
799.475	0.24
799.648	0.13
799.821	0.56
799.994	0.3
800.167	-0.28
800.34	0.51
800.514	0.73
800.687	0.46
800.86	0.1
801.033	0.68
801.206	0.57
801.379	0.27
801.551	0.8
801.724	0.58
801.897	1.15
802.07	0.42
802.243	0.09
802.416	0.59
802.589	0.84
802.762	0.77
802.935	0.54
803.107	0.65
803.28	1.14
803.453	0.61
803.626	0.35
803.798	0.56
803.971	0.37
804.144	0.84
804.317	0.7
804.489	0.83
804.662	0.5
804.835	0.34
805.007	0.28
805.18	1.33
805.353	0.5
805.525	0.24
805.698	0.09
805.87	0.6
806.043	1.07
806.215	0.15
806.388	-0.11
806.56	0.58
806.733	1.14
806.905	0.56
807.078	0.3
807.25	0.26
807.423	0.79
807.595	0.4
807.768	0.23
807.94	0.82
808.112	0.59
808.285	0.55
808.457	0
808.629	0.66
808.802	1.06
808.974	0.53
809.146	0.29
809.318	0.2
809.491	0.66
809.663	0.89
809.835	0.04
810.007	0.7
810.18	0.33
810.352	-0.16
810.524	-0
810.696	0.68
810.868	1.27
811.04	0.42
811.212	0.22
811.384	0.62
811.556	0.72
811.728	0.48
811.901	1.63
812.073	0.46
812.245	0.54
812.417	0.44
812.589	-0.16
812.76	0.54
812.932	0.79
813.104	0.87
813.276	0.2
813.448	0.82
813.62	0.67
813.792	0.47
813.964	0.43
814.136	0.67
814.307	0.71
814.479	0.3
814.651	0.21
814.823	1.31
814.995	0.34
815.166	0.62
815.338	0.19
815.51	0.02
815.681	1.62
815.853	0.54
816.025	0.46
816.196	1.49
816.368	1.44
816.54	0.16
816.711	0.63
816.883	1.22
817.054	1.68
817.226	-0.47
817.398	1.05
817.569	0.47
817.741	0.61
817.912	0.28
818.084	0.34
818.255	1.27
818.426	0.64
818.598	0.38
818.769	-0.18
818.941	0.99
819.112	1.28
819.283	0.52
819.455	0.23
819.626	0.84
819.798	0.56
819.969	0.79
820.14	0.74
820.311	0.39
820.483	0.76
820.654	0.45
820.825	0.49
820.996	0.44
821.168	0.07
821.339	0.59
821.51	-0.2
821.681	0.22
821.852	0.92
822.023	-0.13
822.195	0.34
822.366	1.04
822.537	0.5
822.708	0.6
822.879	0.04
823.05	1.06
823.221	0.81
823.392	0.94
823.563	0.79
823.734	1.09
823.905	0.63
824.076	0.22
824.247	0.4
824.418	0.15
824.589	1.47
824.759	0.14
824.93	0.54
825.101	0.28
825.272	1.68
825.443	1.71
825.614	1.23
825.784	-0.59
825.955	2.6
826.126	1.43
826.297	0.95
826.467	1.49
826.638	1.97
826.809	0.23
826.98	0.88
827.15	1.37
827.321	1.55
827.492	1.78
827.662	1.05
827.833	2.31
828.003	1.33
828.174	-0.15
828.345	-0.01
828.515	1.75
828.686	0.94
828.856	0.68
829.027	0.37
829.197	1.48
829.368	0.91
829.538	0.73
829.709	0.09
829.879	0.89
830.049	0.86
830.22	0.5
830.39	0.4
830.56	1.52
830.731	0.8
830.901	0.42
831.072	0.6
831.242	1.3
831.412	1.3
831.582	0.54
831.753	-0.08
831.923	1.39
832.093	0.96
832.263	0.98
832.434	-0.5
832.604	0.7
832.774	1.12
832.944	0.35
833.114	0.36
833.284	1.06
833.454	0
833.624	0.37
833.795	0.43
833.965	1.51
834.135	2.15
834.305	-0.83
834.475	-0.27
834.645	1.42
834.815	0.9
834.985	0.06
835.155	0.08
835.325	0.95
835.494	1.57
835.664	0.47
835.834	0.55
836.004	1.25
836.174	1.33
836.344	0.84
836.514	-0.32
836.684	0.68
836.853	1.03
837.023	1.48
837.193	-0.39
837.363	2
837.532	1.74
837.702	0.49
837.872	-0.16
838.041	1.38
838.211	2.72
838.381	-0.28
838.55	0.8
838.72	3.44
838.89	2.14
839.059	0.4
839.229	0.04
839.398	2.8
839.568	1.29
839.738	-0.13
839.907	1.81
840.077	0.95
840.246	0.29
840.416	0.12
840.585	-0.38
840.755	3.22
840.924	2.22
841.093	-0.2
841.263	0.21
841.432	0.28
841.602	-0.02
841.771	-0.77
841.94	0.56
842.11	3.4
842.279	2.03
842.448	0.29
842.617	0.59
842.787	3.01
842.956	-0.16
843.125	0.01
843.294	0.35
843.464	2.31
843.633	1.17
843.802	0.22
843.971	0.87
844.14	1.22
844.309	1.79
844.479	-0.35
844.648	-0.18
844.817	1.59
844.986	1.64
845.155	0.44
845.324	0.95
845.493	1.4
845.662	-0.06
845.831	1.31
846	1.82
846.169	0.29
846.338	2.91
846.507	1.27
846.676	1.38
846.844	0.91
847.013	1.93
847.182	1.66
847.351	0.91
847.52	1.47
847.689	1.93
847.858	0.28
848.026	0.41
848.195	1.84
848.364	1.1
848.533	0.14
848.701	0.49
848.87	1.63
849.039	2.18
849.207	1.65
849.376	2.3
849.545	2.68
849.713	0.41
849.882	0.45
850.051	-0.25
850.219	1.09
850.388	1.34
850.556	0.39
850.725	0.23
850.893	1.41
851.062	0.49
851.23	1.7
851.399	0.11
851.567	1.48
851.736	0.61
851.904	0.55
852.073	0.83
852.241	1.39
852.41	1.09
852.578	0.93
852.746	0.91
852.915	2.03
853.083	1.17
853.251	-0.37
853.42	0.08
853.588	1.27
853.756	3.48
853.924	0.96
854.093	1.36
854.261	0.95
854.429	-1.04
854.597	0.91
854.765	0.78
854.934	2.5
855.102	3.44
855.27	-0.03
855.438	2.12
855.606	3.23
855.774	2.68
855.942	-0.46
856.11	-0.05
856.278	1.26
856.446	2.65
856.614	0.58
856.782	-0.65
856.95	3.21
857.118	2.33
857.286	1.33
857.454	0.28
857.622	2.85
857.79	2.63
857.958	-0.53
858.126	0.2
858.294	-1.53
858.462	0.97
858.629	0.54
858.797	0.18
858.965	1.59
859.133	0.67
859.301	1.64
859.468	1.36
859.636	0.65
859.804	3.7
859.971	1.3
860.139	0.6
860.307	2.44
860.474	2.15
860.642	-0.32
860.81	0.24
860.977	0.96
861.145	2.84
861.313	0.33
861.48	0.47
861.648	3.67
861.815	0.71
861.983	-0.83
862.15	0.29
862.318	4.01
862.485	3.81
862.653	0.92
862.82	-0.11
862.988	4.76
863.155	1
863.322	0.45
863.49	0.09
863.657	0.47
863.824	5.4
863.992	2.81
864.159	1.96
864.326	3.23
864.494	1.73
864.661	4.58
864.828	-0.41
864.996	2.84
865.163	2.96
865.33	0.51
865.497	-2.09
865.664	-0.14
865.832	0.43
865.999	1.72
866.166	0.51
866.333	1.1
866.5	1.48
866.667	0.7
866.834	1.28
867.001	4.2
867.168	-0.6
867.335	2.19
867.502	-1.18
867.669	1.91
867.836	5.88
868.003	0.33
868.17	2.94
868.337	5.05
868.504	6.96
868.671	-1.11
868.838	-0.13
869.005	3.72
869.172	4.43
869.339	1.48
869.505	0.75
869.672	2.78
869.839	1.94
870.006	1.88
870.173	-0.09
870.339	3.34
870.506	5.11
870.673	1.56
870.84	3.35
871.006	2.56
871.173	0.71
871.34	2.05
871.506	-0.7
871.673	1.81
871.839	-1.2
872.006	1.19
872.173	-0.11
872.339	2.88
872.506	4.5
872.672	1.79
872.839	-0.27
873.005	2.47
873.172	4.98
873.338	2.65
873.505	1.38
873.671	4.23
873.838	2.48
874.004	-1.98
874.171	-0.18
874.337	4.24
874.503	3.03
874.67	1.23
874.836	0.79
875.002	5.49
875.169	5.53
875.335	1.41
875.501	1.96
875.668	2.74
875.834	1.13
876	0.92
876.166	0.48
876.332	3.94
876.499	5.64
876.665	-0.28
876.831	0.67
876.997	7.15
877.163	1.2
877.329	1.36
877.495	2.11
877.662	2.32
877.828	1.68
877.994	0.93
878.16	-1.91
878.326	1.58
878.492	2.7
878.658	2.57
878.824	3.46
878.99	3.25
879.156	2.49
879.322	3.78
879.487	2.1
879.653	3.02
879.819	2.4
879.985	0.03
880.151	3.56
880.317	2.27
880.483	2.96
880.648	4.1
880.814	0.05
880.98	1.23
881.146	-2.54
881.312	-0.14
881.477	0.2
881.643	1.36
881.809	2.82
881.974	3.6
882.14	-2.43
882.306	2.74
882.471	5.17
882.637	1.33
882.803	3.83
882.968	5.83
883.134	5.42
883.299	1.15
883.465	2.49
883.63	5.31
883.796	3.85
883.961	4.34
884.127	1.42
884.292	-2.29
884.458	-0.1
884.623	-0.1
