Data from Apollo_Calib_20240827__AbsoluteIrradiance__773__12-02-02-999.txt Node

Date: Wed Aug 28 12:02:03 BST 2024
User: biology
Spectrometer: FLMT08252
Trigger mode: 0
Integration Time (sec): 5.000000E-1
Scans to average: 5
Electric dark correction enabled: true
Nonlinearity correction enabled: false
Boxcar width: 0
XAxis mode: Wavelengths
Number of Pixels in Spectrum: 3648
>>>>>Begin Spectral Data<<<<<
179.588	-0
179.809	-0
180.03	-0
180.251	-0
180.473	-0
180.694	0
180.915	0
181.136	-0
181.357	-0
181.578	-0
181.799	0
182.02	-0
182.241	-0
182.462	-0
182.683	0
182.904	-0
183.125	-0
183.346	0
183.567	0
183.788	0
184.009	0
184.23	0
184.451	0
184.672	0
184.892	0
185.113	0
185.334	0
185.555	0
185.776	0
185.996	0
186.217	0
186.438	0
186.659	0
186.879	0
187.1	0
187.321	0
187.541	0
187.762	0
187.983	0
188.203	0
188.424	0
188.644	0
188.865	0
189.086	0
189.306	0
189.527	0
189.747	0
189.968	0
190.188	0
190.409	0
190.629	0
190.849	0
191.07	0
191.29	0
191.511	0
191.731	0
191.951	0
192.172	0
192.392	0
192.612	0
192.833	0
193.053	0
193.273	0
193.493	0
193.714	0
193.934	0
194.154	0
194.374	0
194.594	0
194.815	0
195.035	0
195.255	0
195.475	0
195.695	0
195.915	0
196.135	0
196.355	0
196.575	0
196.795	0
197.015	0
197.235	0
197.455	0
197.675	0
197.895	0
198.115	0
198.335	0
198.555	0
198.775	0
198.995	0
199.214	0
199.434	0
199.654	0
199.874	0
200.094	4.19
200.313	2.61
200.533	1.85
200.753	1.74
200.973	3.72
201.192	3.4
201.412	1.33
201.632	2.07
201.851	3.42
202.071	1.65
202.291	1.79
202.51	1.39
202.73	3.4
202.95	1.77
203.169	1.3
203.389	2
203.608	1.86
203.828	1.6
204.047	1.48
204.267	2.5
204.486	2.75
204.706	1.99
204.925	1.96
205.145	1.32
205.364	2.22
205.583	2.74
205.803	1.45
206.022	0.96
206.242	1.6
206.461	1.56
206.68	1.18
206.9	1.66
207.119	2.26
207.338	1.81
207.557	1.21
207.777	1.42
207.996	1.65
208.215	2.04
208.434	1.22
208.654	1.13
208.873	1.53
209.092	2.09
209.311	1.27
209.53	1.23
209.749	1.39
209.968	1.2
210.187	0.99
210.407	0.62
210.626	1.24
210.845	1.54
211.064	1.28
211.283	1.01
211.502	1.53
211.721	0.99
211.94	1.01
212.159	1.13
212.377	1.39
212.596	1.69
212.815	1.28
213.034	1.24
213.253	1.4
213.472	1.21
213.691	0.84
213.91	0.72
214.128	0.61
214.347	1.55
214.566	0.77
214.785	0.6
215.003	1.13
215.222	1.23
215.441	0.8
215.66	0.57
215.878	1.1
216.097	1.16
216.316	0.75
216.534	0.93
216.753	0.92
216.972	0.89
217.19	0.81
217.409	0.64
217.627	0.65
217.846	0.96
218.064	0.89
218.283	0.83
218.501	1.51
218.72	1.21
218.938	0.67
219.157	0.77
219.375	1.21
219.594	1.16
219.812	0.55
220.031	0.65
220.249	1.23
220.467	1.12
220.686	0.61
220.904	0.53
221.122	0.65
221.341	1.15
221.559	0.85
221.777	0.47
221.995	0.79
222.214	0.97
222.432	0.7
222.65	0.88
222.868	0.83
223.086	0.78
223.305	0.77
223.523	0.68
223.741	1.09
223.959	0.64
224.177	0.44
224.395	0.66
224.613	0.76
224.831	0.89
225.049	0.47
225.267	0.63
225.485	0.76
225.703	0.67
225.921	0.63
226.139	0.61
226.357	0.83
226.575	1
226.793	0.55
227.011	1.51
227.229	0.71
227.447	0.89
227.665	0.57
227.883	0.31
228.1	0.64
228.318	0.69
228.536	0.37
228.754	0.46
228.972	0.88
229.189	0.64
229.407	0.47
229.625	0.59
229.843	0.72
230.06	0.76
230.278	0.6
230.496	0.52
230.713	0.67
230.931	0.84
231.149	0.61
231.366	0.33
231.584	0.57
231.801	0.96
232.019	0.6
232.236	0.39
232.454	0.4
232.671	0.72
232.889	0.47
233.106	0.34
233.324	0.52
233.541	0.56
233.759	0.64
233.976	0.44
234.194	0.56
234.411	0.54
234.628	0.42
234.846	0.48
235.063	0.59
235.28	0.6
235.498	0.54
235.715	0.43
235.932	0.74
236.149	0.48
236.367	0.4
236.584	0.56
236.801	0.5
237.018	0.66
237.236	0.5
237.453	0.35
237.67	0.75
237.887	0.51
238.104	0.57
238.321	0.36
238.538	0.45
238.755	0.72
238.973	0.35
239.19	0.53
239.407	0.7
239.624	0.54
239.841	0.32
240.058	0.46
240.275	0.52
240.492	0.46
240.709	0.49
240.925	0.48
241.142	0.58
241.359	0.37
241.576	0.4
241.793	0.36
242.01	0.43
242.227	0.58
242.444	0.5
242.66	0.61
242.877	0.44
243.094	0.54
243.311	0.44
243.527	0.41
243.744	0.58
243.961	0.58
244.178	0.38
244.394	0.49
244.611	0.56
244.828	0.78
245.044	0.35
245.261	0.3
245.477	0.51
245.694	0.51
245.911	0.38
246.127	0.45
246.344	0.64
246.56	0.5
246.777	0.32
246.993	0.46
247.21	0.57
247.426	0.5
247.643	0.32
247.859	0.32
248.076	0.44
248.292	0.7
248.508	0.34
248.725	0.47
248.941	0.48
249.157	0.59
249.374	0.38
249.59	0.39
249.806	0.47
250.023	0.56
250.239	0.25
250.455	0.35
250.671	0.47
250.888	0.47
251.104	0.45
251.32	0.39
251.536	0.48
251.752	0.35
251.969	0.4
252.185	0.39
252.401	0.63
252.617	0.51
252.833	0.27
253.049	0.34
253.265	0.51
253.481	0.43
253.697	0.39
253.913	0.26
254.129	0.46
254.345	0.43
254.561	0.34
254.777	0.33
254.993	0.48
255.209	0.44
255.425	0.41
255.641	0.36
255.857	0.53
256.073	0.49
256.288	0.28
256.504	0.3
256.72	0.47
256.936	0.56
257.152	0.34
257.367	0.3
257.583	0.43
257.799	0.46
258.015	0.26
258.23	0.29
258.446	0.54
258.662	0.42
258.877	0.3
259.093	0.26
259.309	0.39
259.524	0.52
259.74	0.34
259.955	0.25
260.171	0.38
260.387	0.43
260.602	0.42
260.818	0.43
261.033	0.28
261.249	0.36
261.464	0.31
261.68	0.31
261.895	0.44
262.11	0.42
262.326	0.34
262.541	0.28
262.757	0.48
262.972	0.45
263.187	0.41
263.403	0.38
263.618	0.49
263.833	0.43
264.049	0.36
264.264	0.32
264.479	0.41
264.694	0.51
264.91	0.28
265.125	0.29
265.34	0.46
265.555	0.49
265.77	0.34
265.986	0.3
266.201	0.39
266.416	0.5
266.631	0.32
266.846	0.31
267.061	0.48
267.276	0.4
267.491	0.21
267.706	0.34
267.921	0.42
268.136	0.4
268.351	0.3
268.566	0.18
268.781	0.46
268.996	0.45
269.211	0.31
269.426	0.29
269.641	0.33
269.856	0.47
270.071	0.26
270.285	0.24
270.5	0.47
270.715	0.42
270.93	0.33
271.145	0.37
271.359	0.43
271.574	0.31
271.789	0.37
272.004	0.27
272.218	0.3
272.433	0.34
272.648	0.29
272.862	0.37
273.077	0.32
273.292	0.32
273.506	0.32
273.721	0.33
273.936	0.39
274.15	0.41
274.365	0.25
274.579	0.39
274.794	0.37
275.008	0.41
275.223	0.22
275.437	0.31
275.652	0.45
275.866	0.38
276.081	0.3
276.295	0.45
276.509	0.34
276.724	0.35
276.938	0.34
277.153	0.36
277.367	0.35
277.581	0.29
277.796	0.29
278.01	0.22
278.224	0.37
278.438	0.45
278.653	0.29
278.867	0.25
279.081	0.15
279.295	0.36
279.51	0.3
279.724	0.23
279.938	0.37
280.152	0.34
280.366	0.24
280.58	0.28
280.794	0.43
281.008	0.35
281.222	0.34
281.437	0.44
281.651	0.33
281.865	0.37
282.079	0.29
282.293	0.17
282.507	0.26
282.721	0.22
282.935	0.28
283.148	0.18
283.362	0.3
283.576	0.26
283.79	0.29
284.004	0.28
284.218	0.37
284.432	0.3
284.646	0.33
284.859	0.25
285.073	0.26
285.287	0.32
285.501	0.34
285.714	0.25
285.928	0.28
286.142	0.38
286.356	0.24
286.569	0.26
286.783	0.44
286.997	0.4
287.21	0.33
287.424	0.31
287.637	0.28
287.851	0.28
288.065	0.38
288.278	0.27
288.492	0.26
288.705	0.28
288.919	0.31
289.132	0.22
289.346	0.34
289.559	0.2
289.773	0.18
289.986	0.28
290.2	0.35
290.413	0.42
290.626	0.25
290.84	0.31
291.053	0.3
291.267	0.37
291.48	0.25
291.693	0.25
291.906	0.24
292.12	0.32
292.333	0.28
292.546	0.23
292.76	0.39
292.973	0.36
293.186	0.31
293.399	0.26
293.612	0.39
293.826	0.27
294.039	0.23
294.252	0.23
294.465	0.32
294.678	0.31
294.891	0.25
295.104	0.25
295.317	0.3
295.53	0.31
295.743	0.2
295.956	0.27
296.169	0.4
296.382	0.33
296.595	0.26
296.808	0.24
297.021	0.38
297.234	0.32
297.447	0.25
297.66	0.3
297.873	0.3
298.086	0.33
298.299	0.22
298.511	0.17
298.724	0.26
298.937	0.22
299.15	0.23
299.363	0.23
299.575	0.35
299.788	0.24
300.001	0.26
300.213	0.23
300.426	0.23
300.639	0.22
300.852	0.21
301.064	0.31
301.277	0.42
301.489	0.29
301.702	0.25
301.915	0.27
302.127	0.2
302.34	0.32
302.552	0.3
302.765	0.22
302.977	0.29
303.19	0.26
303.402	0.22
303.615	0.25
303.827	0.21
304.04	0.3
304.252	0.28
304.464	0.24
304.677	0.4
304.889	0.33
305.102	0.23
305.314	0.21
305.526	0.29
305.739	0.28
305.951	0.2
306.163	0.26
306.375	0.32
306.588	0.24
306.8	0.24
307.012	0.21
307.224	0.25
307.436	0.35
307.649	0.2
307.861	0.24
308.073	0.3
308.285	0.27
308.497	0.2
308.709	0.25
308.921	0.26
309.133	0.31
309.346	0.25
309.558	0.26
309.77	0.3
309.982	0.35
310.194	0.28
310.406	0.21
310.617	0.32
310.829	0.32
311.041	0.33
311.253	0.23
311.465	0.24
311.677	0.25
311.889	0.21
312.101	0.21
312.313	0.31
312.524	0.34
312.736	0.16
312.948	0.29
313.16	0.35
313.372	0.33
313.583	0.25
313.795	0.19
314.007	0.22
314.218	0.35
314.43	0.26
314.642	0.25
314.853	0.18
315.065	0.28
315.277	0.26
315.488	0.28
315.7	0.33
315.912	0.24
316.123	0.25
316.335	0.25
316.546	0.41
316.758	0.27
316.969	0.28
317.181	0.25
317.392	0.28
317.604	0.34
317.815	0.23
318.026	0.22
318.238	0.26
318.449	0.32
318.661	0.18
318.872	0.22
319.083	0.21
319.295	0.28
319.506	0.25
319.717	0.27
319.929	0.29
320.14	0.23
320.351	0.25
320.562	0.2
320.774	0.31
320.985	0.26
321.196	0.22
321.407	0.19
321.618	0.31
321.829	0.3
322.041	0.31
322.252	0.25
322.463	0.35
322.674	0.29
322.885	0.18
323.096	0.26
323.307	0.25
323.518	0.31
323.729	0.24
323.94	0.23
324.151	0.26
324.362	0.26
324.573	0.24
324.784	0.22
324.995	0.28
325.206	0.24
325.417	0.25
325.628	0.23
325.838	0.28
326.049	0.23
326.26	0.27
326.471	0.25
326.682	0.3
326.892	0.23
327.103	0.2
327.314	0.24
327.525	0.34
327.735	0.26
327.946	0.25
328.157	0.2
328.368	0.33
328.578	0.27
328.789	0.27
328.999	0.23
329.21	0.25
329.421	0.34
329.631	0.21
329.842	0.2
330.052	0.29
330.263	0.28
330.473	0.31
330.684	0.24
330.894	0.25
331.105	0.26
331.315	0.29
331.526	0.19
331.736	0.35
331.947	0.3
332.157	0.33
332.367	0.18
332.578	0.28
332.788	0.36
332.999	0.33
333.209	0.27
333.419	0.23
333.629	0.33
333.84	0.3
334.05	0.21
334.26	0.3
334.47	0.24
334.681	0.3
334.891	0.23
335.101	0.32
335.311	0.35
335.521	0.27
335.732	0.24
335.942	0.27
336.152	0.27
336.362	0.28
336.572	0.27
336.782	0.28
336.992	0.24
337.202	0.26
337.412	0.24
337.622	0.3
337.832	0.25
338.042	0.26
338.252	0.24
338.462	0.24
338.672	0.25
338.882	0.24
339.092	0.28
339.302	0.33
339.511	0.32
339.721	0.28
339.931	0.22
340.141	0.33
340.351	0.3
340.561	0.28
340.77	0.24
340.98	0.25
341.19	0.28
341.4	0.22
341.609	0.2
341.819	0.21
342.029	0.19
342.238	0.3
342.448	0.21
342.658	0.31
342.867	0.25
343.077	0.25
343.286	0.26
343.496	0.27
343.706	0.3
343.915	0.2
344.125	0.23
344.334	0.25
344.544	0.25
344.753	0.22
344.963	0.23
345.172	0.23
345.381	0.26
345.591	0.21
345.8	0.26
346.01	0.32
346.219	0.31
346.428	0.13
346.638	0.26
346.847	0.27
347.056	0.34
347.266	0.25
347.475	0.21
347.684	0.3
347.893	0.33
348.103	0.28
348.312	0.21
348.521	0.23
348.73	0.25
348.94	0.27
349.149	0.23
349.358	0.26
349.567	0.24
349.776	0.21
349.985	0.26
350.194	0.3
350.403	0.32
350.612	0.16
350.821	0.23
351.03	0.25
351.239	0.21
351.448	0.26
351.657	0.22
351.866	0.32
352.075	0.27
352.284	0.22
352.493	0.16
352.702	0.31
352.911	0.28
353.12	0.26
353.329	0.24
353.538	0.33
353.746	0.23
353.955	0.21
354.164	0.26
354.373	0.24
354.582	0.33
354.79	0.28
354.999	0.22
355.208	0.25
355.416	0.32
355.625	0.17
355.834	0.26
356.042	0.29
356.251	0.23
356.46	0.2
356.668	0.26
356.877	0.37
357.085	0.31
357.294	0.16
357.503	0.26
357.711	0.24
357.92	0.39
358.128	0.26
358.337	0.19
358.545	0.26
358.754	0.24
358.962	0.29
359.17	0.22
359.379	0.27
359.587	0.25
359.796	0.27
360.004	0.33
360.212	0.3
360.421	0.31
360.629	0.27
360.837	0.22
361.046	0.27
361.254	0.39
361.462	0.24
361.67	0.22
361.879	0.23
362.087	0.33
362.295	0.27
362.503	0.21
362.711	0.2
362.92	0.22
363.128	0.21
363.336	0.2
363.544	0.18
363.752	0.23
363.96	0.24
364.168	0.16
364.376	0.28
364.584	0.24
364.792	0.29
365	0.25
365.208	0.26
365.416	0.3
365.624	0.3
365.832	0.22
366.04	0.36
366.248	0.26
366.456	0.26
366.664	0.24
366.872	0.25
367.079	0.25
367.287	0.22
367.495	0.25
367.703	0.24
367.911	0.2
368.118	0.25
368.326	0.22
368.534	0.21
368.742	0.33
368.949	0.24
369.157	0.2
369.365	0.27
369.572	0.27
369.78	0.23
369.988	0.29
370.195	0.29
370.403	0.28
370.61	0.25
370.818	0.26
371.026	0.33
371.233	0.22
371.441	0.29
371.648	0.24
371.856	0.25
372.063	0.25
372.271	0.23
372.478	0.24
372.685	0.25
372.893	0.32
373.1	0.26
373.308	0.24
373.515	0.39
373.722	0.3
373.93	0.26
374.137	0.28
374.344	0.31
374.552	0.28
374.759	0.33
374.966	0.28
375.173	0.31
375.381	0.33
375.588	0.23
375.795	0.19
376.002	0.21
376.209	0.26
376.417	0.24
376.624	0.3
376.831	0.3
377.038	0.29
377.245	0.17
377.452	0.24
377.659	0.27
377.866	0.21
378.073	0.25
378.28	0.22
378.487	0.29
378.694	0.31
378.901	0.29
379.108	0.25
379.315	0.29
379.522	0.38
379.729	0.27
379.936	0.23
380.143	0.24
380.35	0.37
380.557	0.25
380.763	0.26
380.97	0.25
381.177	0.31
381.384	0.29
381.591	0.24
381.797	0.31
382.004	0.34
382.211	0.28
382.418	0.24
382.624	0.29
382.831	0.34
383.038	0.26
383.244	0.24
383.451	0.27
383.658	0.3
383.864	0.26
384.071	0.25
384.277	0.33
384.484	0.24
384.69	0.3
384.897	0.26
385.103	0.22
385.31	0.22
385.516	0.26
385.723	0.21
385.929	0.31
386.136	0.23
386.342	0.29
386.549	0.3
386.755	0.31
386.961	0.35
387.168	0.25
387.374	0.35
387.58	0.33
387.787	0.31
387.993	0.31
388.199	0.29
388.406	0.3
388.612	0.27
388.818	0.24
389.024	0.25
389.231	0.28
389.437	0.4
389.643	0.35
389.849	0.3
390.055	0.31
390.261	0.26
390.467	0.34
390.674	0.19
390.88	0.29
391.086	0.35
391.292	0.23
391.498	0.36
391.704	0.27
391.91	0.28
392.116	0.3
392.322	0.2
392.528	0.38
392.734	0.3
392.94	0.32
393.146	0.29
393.352	0.35
393.557	0.31
393.763	0.33
393.969	0.35
394.175	0.3
394.381	0.33
394.587	0.3
394.792	0.29
394.998	0.41
395.204	0.38
395.41	0.28
395.615	0.33
395.821	0.36
396.027	0.35
396.233	0.3
396.438	0.33
396.644	0.37
396.85	0.38
397.055	0.32
397.261	0.36
397.466	0.46
397.672	0.36
397.878	0.4
398.083	0.38
398.289	0.31
398.494	0.42
398.7	0.4
398.905	0.27
399.111	0.41
399.316	0.32
399.522	0.3
399.727	0.33
399.932	0.33
400.138	0.33
400.343	0.39
400.549	0.34
400.754	0.37
400.959	0.35
401.165	0.37
401.37	0.35
401.575	0.3
401.78	0.4
401.986	0.37
402.191	0.34
402.396	0.39
402.601	0.45
402.807	0.48
403.012	0.4
403.217	0.4
403.422	0.38
403.627	0.47
403.832	0.42
404.037	0.5
404.243	0.38
404.448	0.41
404.653	0.43
404.858	0.48
405.063	0.47
405.268	0.43
405.473	0.41
405.678	0.39
405.883	0.67
406.088	0.5
406.293	0.43
406.498	0.44
406.703	0.55
406.907	0.49
407.112	0.44
407.317	0.49
407.522	0.58
407.727	0.48
407.932	0.52
408.136	0.66
408.341	0.52
408.546	0.59
408.751	0.57
408.956	0.57
409.16	0.72
409.365	0.58
409.57	0.62
409.774	0.65
409.979	0.71
410.184	0.71
410.388	0.64
410.593	0.77
410.798	0.72
411.002	0.75
411.207	0.83
411.411	0.74
411.616	0.75
411.82	0.81
412.025	0.86
412.229	0.84
412.434	0.96
412.638	0.91
412.843	0.96
413.047	0.96
413.252	0.93
413.456	0.99
413.66	1.05
413.865	1.1
414.069	1.12
414.273	1.1
414.478	1.1
414.682	1.18
414.886	1.26
415.091	1.12
415.295	1.19
415.499	1.42
415.703	1.4
415.908	1.46
416.112	1.37
416.316	1.57
416.52	1.52
416.724	1.59
416.929	1.57
417.133	1.87
417.337	1.73
417.541	1.77
417.745	1.83
417.949	1.96
418.153	1.98
418.357	2.08
418.561	2.22
418.765	2.22
418.969	2.31
419.173	2.43
419.377	2.45
419.581	2.67
419.785	2.59
419.989	2.59
420.193	2.73
420.397	2.93
420.601	2.99
420.804	3.15
421.008	3.11
421.212	3.25
421.416	3.21
421.62	3.26
421.823	3.31
422.027	3.57
422.231	3.5
422.435	3.52
422.638	3.53
422.842	3.65
423.046	3.7
423.249	3.95
423.453	3.91
423.657	4.06
423.86	4.17
424.064	4.29
424.268	4.49
424.471	4.47
424.675	4.69
424.878	4.73
425.082	4.9
425.285	5.17
425.489	5.17
425.692	5.19
425.896	5.17
426.099	5.41
426.303	5.6
426.506	5.71
426.71	5.86
426.913	6.19
427.116	6.36
427.32	6.32
427.523	6.46
427.726	6.61
427.93	6.75
428.133	7.15
428.336	7.24
428.54	7.4
428.743	7.5
428.946	7.85
429.149	7.83
429.353	7.94
429.556	8.02
429.759	8.08
429.962	8
430.165	8.29
430.368	8.01
430.571	8.05
430.775	8.02
430.978	8.11
431.181	8.1
431.384	8.23
431.587	8.3
431.79	8.71
431.993	8.69
432.196	8.9
432.399	9.33
432.602	9.48
432.805	9.62
433.008	9.99
433.211	9.87
433.414	10.24
433.616	10.34
433.819	10.27
434.022	10.34
434.225	10.62
434.428	10.67
434.631	11
434.833	10.83
435.036	11.13
435.239	11.2
435.442	11.29
435.645	11.4
435.847	11.56
436.05	11.92
436.253	12.12
436.455	12.11
436.658	12.15
436.861	12.28
437.063	12.35
437.266	12.32
437.468	12.74
437.671	13.05
437.874	13.07
438.076	13.01
438.279	13.32
438.481	13.54
438.684	14.26
438.886	13.85
439.089	14.12
439.291	14.18
439.494	14.42
439.696	14.68
439.899	15.24
440.101	15.6
440.303	15.74
440.506	16.58
440.708	16.19
440.91	16.45
441.113	16.73
441.315	16.91
441.517	16.67
441.72	17.2
441.922	16.8
442.124	16.77
442.326	17.13
442.529	17.42
442.731	17.24
442.933	17.57
443.135	17.45
443.337	17.57
443.539	17.98
443.742	17.63
443.944	18.3
444.146	18.02
444.348	18.08
444.55	17.93
444.752	18.2
444.954	18.08
445.156	17.9
445.358	18.34
445.56	18.64
445.762	18.42
445.964	18.78
446.166	18.48
446.368	18.59
446.57	18.6
446.772	18.25
446.974	17.94
447.175	18.2
447.377	17.86
447.579	18.28
447.781	18
447.983	17.64
448.184	17.47
448.386	17.66
448.588	17.33
448.79	17.04
448.991	17.56
449.193	17.51
449.395	16.81
449.597	16.45
449.798	16.29
450	15.89
450.202	15.92
450.403	15.86
450.605	15.83
450.806	15.34
451.008	15.21
451.21	15.01
451.411	14.62
451.613	13.81
451.814	14.11
452.016	14.14
452.217	13.36
452.419	13.3
452.62	13.01
452.821	12.82
453.023	12.75
453.224	12.35
453.426	11.87
453.627	11.13
453.828	11.3
454.03	11.35
454.231	11.28
454.432	11.13
454.634	10.82
454.835	10.55
455.036	10.45
455.238	10.15
455.439	9.89
455.64	9.54
455.841	9.47
456.042	9.51
456.244	9.24
456.445	9.02
456.646	8.76
456.847	8.67
457.048	8.44
457.249	8.57
457.45	8.38
457.651	7.78
457.852	7.67
458.054	7.27
458.255	7.19
458.456	7.36
458.657	7.22
458.858	6.86
459.058	6.78
459.259	6.67
459.46	6.39
459.661	6.38
459.862	6.5
460.063	6.28
460.264	6.22
460.465	6.07
460.666	6.04
460.866	5.86
461.067	5.52
461.268	5.63
461.469	5.47
461.67	5.43
461.87	5.31
462.071	5.25
462.272	5.16
462.473	5.13
462.673	5.28
462.874	5.23
463.075	5.15
463.275	5.14
463.476	5.24
463.676	5.13
463.877	4.92
464.078	4.97
464.278	5.05
464.479	4.87
464.679	4.75
464.88	4.69
465.08	4.67
465.281	4.52
465.481	4.38
465.682	4.12
465.882	4.22
466.083	4.1
466.283	4
466.483	3.97
466.684	3.78
466.884	3.7
467.085	3.76
467.285	3.81
467.485	3.65
467.686	3.54
467.886	3.44
468.086	3.41
468.286	3.4
468.487	3.49
468.687	3.29
468.887	3.22
469.087	3.4
469.287	3.22
469.488	3.09
469.688	3.24
469.888	3.19
470.088	3.11
470.288	3.09
470.488	3.02
470.688	2.83
470.888	2.83
471.088	2.77
471.288	2.86
471.488	2.75
471.688	2.76
471.888	2.7
472.088	2.83
472.288	2.75
472.488	2.61
472.688	2.57
472.888	2.63
473.088	2.62
473.288	2.47
473.488	2.5
473.688	2.62
473.887	2.51
474.087	2.42
474.287	2.47
474.487	2.39
474.687	2.44
474.886	2.41
475.086	2.28
475.286	2.35
475.486	2.25
475.685	2.27
475.885	2.22
476.085	2.31
476.284	2.23
476.484	2.28
476.684	2.23
476.883	2.27
477.083	2.21
477.282	2.14
477.482	2.21
477.681	2.16
477.881	2.07
478.08	2.06
478.28	2.06
478.479	2.1
478.679	2.2
478.878	2.03
479.078	2.06
479.277	2.09
479.477	2.09
479.676	2.01
479.875	2.03
480.075	1.98
480.274	2.02
480.473	2.1
480.673	2
480.872	2.08
481.071	2.04
481.271	2.06
481.47	1.98
481.669	2.02
481.868	2.02
482.067	1.97
482.267	1.94
482.466	1.96
482.665	1.94
482.864	1.98
483.063	1.96
483.262	2.06
483.461	2.07
483.661	2.08
483.86	2
484.059	2.08
484.258	2.05
484.457	2.03
484.656	2.04
484.855	2.08
485.054	1.9
485.253	1.97
485.452	1.96
485.651	2.11
485.849	2.04
486.048	2.02
486.247	2.05
486.446	2.09
486.645	2.03
486.844	2.09
487.043	2.07
487.241	2.1
487.44	2.11
487.639	2.13
487.838	2.13
488.037	2.12
488.235	2.2
488.434	2.15
488.633	2.03
488.831	2.23
489.03	2.24
489.229	2.24
489.427	2.21
489.626	2.31
489.825	2.27
490.023	2.28
490.222	2.27
490.42	2.32
490.619	2.39
490.817	2.36
491.016	2.36
491.214	2.44
491.413	2.39
491.611	2.39
491.81	2.42
492.008	2.43
492.207	2.52
492.405	2.53
492.604	2.47
492.802	2.54
493	2.63
493.199	2.68
493.397	2.64
493.595	2.7
493.794	2.69
493.992	2.74
494.19	2.76
494.388	2.77
494.587	2.76
494.785	2.84
494.983	2.72
495.181	2.86
495.379	2.92
495.578	2.97
495.776	3
495.974	2.91
496.172	2.96
496.37	3.1
496.568	3.11
496.766	3.05
496.964	3.18
497.162	3.21
497.36	3.21
497.558	3.24
497.756	3.3
497.954	3.27
498.152	3.39
498.35	3.44
498.548	3.38
498.746	3.37
498.944	3.43
499.142	3.45
499.34	3.55
499.538	3.64
499.736	3.53
499.933	3.64
500.131	3.64
500.329	3.81
500.527	3.73
500.725	3.88
500.922	3.89
501.12	3.9
501.318	3.96
501.516	3.95
501.713	4.03
501.911	4
502.109	3.94
502.306	4.13
502.504	4.06
502.701	4.08
502.899	4.14
503.097	4.41
503.294	4.19
503.492	4.31
503.689	4.38
503.887	4.34
504.084	4.47
504.282	4.43
504.479	4.42
504.677	4.53
504.874	4.56
505.072	4.45
505.269	4.68
505.466	4.61
505.664	4.74
505.861	4.66
506.059	4.76
506.256	4.84
506.453	4.85
506.651	4.96
506.848	5
507.045	4.93
507.242	4.97
507.44	5.04
507.637	5.05
507.834	5.07
508.031	5.15
508.229	5.13
508.426	5.06
508.623	5.28
508.82	5.32
509.017	5.23
509.214	5.24
509.411	5.39
509.608	5.38
509.805	5.47
510.003	5.45
510.2	5.49
510.397	5.68
510.594	5.57
510.791	5.63
510.988	5.6
511.184	5.7
511.381	5.52
511.578	5.65
511.775	5.84
511.972	5.74
512.169	5.84
512.366	5.84
512.563	5.93
512.76	6.03
512.956	6.03
513.153	5.95
513.35	5.86
513.547	5.97
513.744	6.01
513.94	6.04
514.137	6.14
514.334	6.14
514.53	6.17
514.727	6.34
514.924	6.28
515.12	6.23
515.317	6.33
515.514	6.23
515.71	6.19
515.907	6.42
516.103	6.46
516.3	6.33
516.497	6.48
516.693	6.47
516.89	6.47
517.086	6.51
517.283	6.54
517.479	6.44
517.676	6.62
517.872	6.67
518.068	6.66
518.265	6.66
518.461	6.59
518.658	6.71
518.854	6.73
519.05	6.83
519.247	6.78
519.443	6.8
519.639	6.85
519.836	6.81
520.032	6.81
520.228	6.97
520.424	6.89
520.621	6.86
520.817	6.97
521.013	6.92
521.209	7.1
521.405	7.11
521.601	7.01
521.798	7.02
521.994	7.08
522.19	6.98
522.386	7.06
522.582	7.14
522.778	7.23
522.974	7.12
523.17	7.15
523.366	7.11
523.562	7.2
523.758	7.19
523.954	7.07
524.15	7.24
524.346	7.2
524.542	7.23
524.738	7.27
524.934	7.36
525.129	7.32
525.325	7.27
525.521	7.28
525.717	7.49
525.913	7.33
526.109	7.33
526.304	7.46
526.5	7.45
526.696	7.5
526.892	7.42
527.087	7.58
527.283	7.51
527.479	7.44
527.674	7.33
527.87	7.53
528.066	7.54
528.261	7.55
528.457	7.52
528.653	7.62
528.848	7.58
529.044	7.63
529.239	7.51
529.435	7.59
529.63	7.55
529.826	7.58
530.021	7.56
530.217	7.65
530.412	7.66
530.608	7.59
530.803	7.67
530.999	7.5
531.194	7.61
531.389	7.71
531.585	7.68
531.78	7.82
531.975	7.68
532.171	7.77
532.366	7.79
532.561	7.72
532.757	7.69
532.952	7.95
533.147	7.69
533.342	7.8
533.538	7.71
533.733	7.94
533.928	7.58
534.123	7.83
534.318	7.82
534.513	7.81
534.709	7.9
534.904	7.81
535.099	7.96
535.294	7.95
535.489	7.96
535.684	7.8
535.879	7.82
536.074	7.9
536.269	7.95
536.464	7.95
536.659	7.9
536.854	7.93
537.049	7.96
537.244	7.94
537.439	7.92
537.634	7.94
537.828	8.01
538.023	7.96
538.218	7.94
538.413	7.83
538.608	7.91
538.803	7.96
538.997	7.94
539.192	7.94
539.387	7.88
539.582	7.9
539.776	7.86
539.971	7.99
540.166	8.11
540.36	7.87
540.555	8.07
540.75	8.05
540.944	8.05
541.139	8.02
541.334	8
541.528	8.07
541.723	8.06
541.917	8.03
542.112	7.97
542.306	7.86
542.501	7.97
542.695	7.99
542.89	7.95
543.084	8.05
543.279	8.08
543.473	8.07
543.668	8.09
543.862	7.9
544.056	7.92
544.251	8.07
544.445	8.12
544.64	8.09
544.834	7.86
545.028	7.7
545.222	8.03
545.417	8.25
545.611	8.09
545.805	8.05
546	7.91
546.194	8.07
546.388	8.09
546.582	7.97
546.776	8
546.97	8.06
547.165	8.03
547.359	8.01
547.553	8.06
547.747	8.01
547.941	8.22
548.135	8.04
548.329	8.15
548.523	8.1
548.717	8.02
548.911	8
549.105	8.03
549.299	8.12
549.493	8.15
549.687	8.03
549.881	8.15
550.075	8.09
550.269	8.01
550.463	8.09
550.657	8.08
550.85	8.11
551.044	8.08
551.238	8.14
551.432	8.09
551.626	8.19
551.82	8.18
552.013	8.05
552.207	8.17
552.401	8.15
552.594	8.06
552.788	7.99
552.982	8.03
553.176	7.99
553.369	8.22
553.563	8.18
553.756	8.09
553.95	8.16
554.144	8.18
554.337	8.17
554.531	7.91
554.724	8.15
554.918	8.22
555.111	8.11
555.305	8.16
555.498	8.09
555.692	8.27
555.885	8.19
556.079	8.08
556.272	8.09
556.466	8.12
556.659	8.09
556.852	8.17
557.046	7.99
557.239	7.99
557.432	8.09
557.626	8.18
557.819	8.17
558.012	8.15
558.206	8.21
558.399	8.1
558.592	8.03
558.785	8.08
558.979	8.09
559.172	8.12
559.365	8.13
559.558	8.11
559.751	8.01
559.944	8.2
560.138	8.11
560.331	8.1
560.524	8.19
560.717	8.11
560.91	8.08
561.103	8.11
561.296	8
561.489	8.16
561.682	8.25
561.875	8.17
562.068	8.21
562.261	8.03
562.454	8.23
562.647	8.03
562.84	8.09
563.032	8.13
563.225	8.1
563.418	8.07
563.611	8.12
563.804	8.15
563.997	7.99
564.19	7.91
564.382	8.16
564.575	8.11
564.768	8.03
564.961	8.18
565.153	8.07
565.346	8.03
565.539	8.18
565.731	8.1
565.924	8.14
566.117	8.22
566.309	8.13
566.502	8.1
566.695	8.04
566.887	8.1
567.08	8.12
567.272	8.17
567.465	7.95
567.657	8.16
567.85	7.98
568.042	8.16
568.235	8.14
568.427	7.94
568.62	8.16
568.812	8.05
569.005	8.12
569.197	8.01
569.389	8.03
569.582	8.03
569.774	8.07
569.966	7.97
570.159	7.92
570.351	8.02
570.543	8.06
570.736	8.01
570.928	7.84
571.12	8.11
571.312	7.99
571.505	7.88
571.697	8.07
571.889	8.05
572.081	8
572.273	7.94
572.465	8.03
572.658	7.99
572.85	8
573.042	8.01
573.234	7.95
573.426	7.97
573.618	8.02
573.81	7.99
574.002	7.92
574.194	7.99
574.386	7.95
574.578	7.87
574.77	7.9
574.962	7.89
575.154	7.89
575.346	7.84
575.538	7.82
575.729	7.87
575.921	7.98
576.113	8
576.305	8
576.497	8.01
576.689	7.8
576.88	7.78
577.072	7.92
577.264	7.87
577.456	7.93
577.647	7.81
577.839	7.98
578.031	7.92
578.223	7.82
578.414	7.76
578.606	7.8
578.798	7.85
578.989	7.83
579.181	7.92
579.372	7.79
579.564	7.83
579.755	7.76
579.947	7.72
580.139	7.88
580.33	7.64
580.522	7.83
580.713	7.73
580.905	7.69
581.096	7.91
581.287	7.68
581.479	7.73
581.67	7.79
581.862	7.66
582.053	7.7
582.244	7.66
582.436	7.79
582.627	7.66
582.818	7.68
583.01	7.61
583.201	7.72
583.392	7.66
583.583	7.62
583.775	7.44
583.966	7.63
584.157	7.62
584.348	7.66
584.54	7.55
584.731	7.64
584.922	7.52
585.113	7.46
585.304	7.62
585.495	7.58
585.686	7.69
585.877	7.64
586.068	7.68
586.259	7.6
586.45	7.57
586.641	7.51
586.832	7.59
587.023	7.49
587.214	7.53
587.405	7.45
587.596	7.51
587.787	7.43
587.978	7.44
588.169	7.41
588.36	7.38
588.551	7.41
588.742	7.42
588.932	7.49
589.123	7.28
589.314	7.48
589.505	7.32
589.696	7.39
589.886	7.34
590.077	7.37
590.268	7.3
590.458	7.25
590.649	7.18
590.84	7.29
591.03	7.33
591.221	7.3
591.412	7.17
591.602	7.39
591.793	7.22
591.984	7.26
592.174	7.17
592.365	7.38
592.555	7.09
592.746	7.15
592.936	7.18
593.127	7.18
593.317	7.21
593.508	7.23
593.698	7.05
593.889	7.13
594.079	7.11
594.269	6.99
594.46	7.1
594.65	7.1
594.84	7.14
595.031	6.95
595.221	6.98
595.411	7.01
595.602	7.05
595.792	6.93
595.982	6.91
596.172	7.06
596.363	6.92
596.553	6.95
596.743	7
596.933	6.93
597.123	6.89
597.314	6.78
597.504	6.81
597.694	6.92
597.884	6.78
598.074	6.88
598.264	6.76
598.454	6.8
598.644	6.75
598.834	6.78
599.024	6.69
599.214	6.75
599.404	6.81
599.594	6.77
599.784	6.68
599.974	6.74
600.164	6.67
600.354	6.66
600.544	6.54
600.734	6.63
600.924	6.65
601.114	6.49
601.303	6.56
601.493	6.57
601.683	6.58
601.873	6.51
602.063	6.45
602.252	6.53
602.442	6.39
602.632	6.46
602.821	6.36
603.011	6.52
603.201	6.43
603.39	6.43
603.58	6.31
603.77	6.4
603.959	6.51
604.149	6.38
604.339	6.34
604.528	6.42
604.718	6.39
604.907	6.31
605.097	6.19
605.286	6.22
605.476	6.2
605.665	6.29
605.855	6.21
606.044	6.32
606.234	6.21
606.423	6.18
606.612	6.15
606.802	6.12
606.991	6.2
607.181	6.27
607.37	6.13
607.559	5.92
607.749	6.11
607.938	6.04
608.127	6.1
608.316	6.07
608.506	6.04
608.695	6.06
608.884	6.03
609.073	6
609.263	6.04
609.452	6
609.641	5.9
609.83	5.87
610.019	5.94
610.208	5.9
610.397	5.78
610.586	5.89
610.775	5.84
610.965	5.85
611.154	5.69
611.343	5.78
611.532	5.7
611.721	5.83
611.91	5.64
612.099	5.75
612.287	5.65
612.476	5.69
612.665	5.69
612.854	5.57
613.043	5.64
613.232	5.7
613.421	5.54
613.61	5.61
613.798	5.57
613.987	5.56
614.176	5.55
614.365	5.51
614.554	5.62
614.742	5.53
614.931	5.43
615.12	5.58
615.309	5.52
615.497	5.41
615.686	5.34
615.875	5.36
616.063	5.4
616.252	5.37
616.44	5.31
616.629	5.28
616.818	5.33
617.006	5.23
617.195	5.19
617.383	5.3
617.572	5.2
617.76	5.2
617.949	5.2
618.137	5.29
618.326	5.27
618.514	5.02
618.703	5.05
618.891	5.16
619.079	5.09
619.268	5.19
619.456	4.95
619.644	5.09
619.833	5.05
620.021	5.04
620.209	4.91
620.398	5.04
620.586	4.93
620.774	4.99
620.962	4.97
621.151	5.01
621.339	4.91
621.527	4.88
621.715	4.86
621.903	4.83
622.092	4.79
622.28	4.92
622.468	4.66
622.656	4.76
622.844	4.7
623.032	4.79
623.22	4.69
623.408	4.85
623.596	4.74
623.784	4.82
623.972	4.64
624.16	4.63
624.348	4.73
624.536	4.72
624.724	4.57
624.912	4.72
625.1	4.67
625.288	4.67
625.476	4.49
625.664	4.58
625.851	4.5
626.039	4.56
626.227	4.52
626.415	4.47
626.603	4.38
626.79	4.51
626.978	4.43
627.166	4.45
627.354	4.36
627.541	4.38
627.729	4.26
627.917	4.48
628.104	4.4
628.292	4.34
628.48	4.35
628.667	4.24
628.855	4.36
629.042	4.35
629.23	4.25
629.418	4.25
629.605	4.21
629.793	4.13
629.98	4.23
630.168	4.22
630.355	4.21
630.543	4.18
630.73	4.1
630.917	4.12
631.105	4.21
631.292	4.1
631.48	4.04
631.667	4.2
631.854	4.07
632.042	4.02
632.229	4.01
632.416	4.07
632.604	4.04
632.791	3.88
632.978	3.95
633.165	3.91
633.353	3.99
633.54	3.94
633.727	3.82
633.914	3.86
634.101	3.83
634.289	3.95
634.476	3.78
634.663	3.74
634.85	3.8
635.037	3.75
635.224	3.68
635.411	3.83
635.598	3.76
635.785	3.75
635.972	3.69
636.159	3.77
636.346	3.66
636.533	3.64
636.72	3.6
636.907	3.65
637.094	3.6
637.281	3.47
637.468	3.59
637.655	3.54
637.842	3.6
638.029	3.54
638.215	3.56
638.402	3.51
638.589	3.44
638.776	3.5
638.963	3.45
639.149	3.5
639.336	3.53
639.523	3.42
639.709	3.41
639.896	3.38
640.083	3.5
640.27	3.4
640.456	3.3
640.643	3.43
640.829	3.26
641.016	3.24
641.203	3.27
641.389	3.28
641.576	3.34
641.762	3.23
641.949	3.17
642.135	3.29
642.322	3.19
642.508	3.15
642.695	3.21
642.881	3.18
643.068	3.08
643.254	3.17
643.441	3.22
643.627	3.18
643.813	3.1
644	3.18
644.186	3.05
644.372	3.15
644.559	3.1
644.745	3.03
644.931	2.99
645.118	3.02
645.304	2.98
645.49	3.03
645.676	2.95
645.862	2.98
646.049	3.05
646.235	2.9
646.421	3.05
646.607	3.03
646.793	2.89
646.979	2.89
647.165	2.97
647.352	2.97
647.538	2.89
647.724	2.79
647.91	2.8
648.096	2.83
648.282	2.89
648.468	2.76
648.654	2.8
648.84	2.84
649.026	2.77
649.212	2.69
649.397	2.72
649.583	2.73
649.769	2.73
649.955	2.71
650.141	2.73
650.327	2.74
650.513	2.61
650.698	2.65
650.884	2.61
651.07	2.7
651.256	2.64
651.442	2.61
651.627	2.52
651.813	2.68
651.999	2.57
652.184	2.59
652.37	2.59
652.556	2.55
652.741	2.56
652.927	2.41
653.113	2.47
653.298	2.48
653.484	2.46
653.669	2.46
653.855	2.44
654.04	2.52
654.226	2.46
654.412	2.39
654.597	2.34
654.782	2.49
654.968	2.44
655.153	2.44
655.339	2.34
655.524	2.32
655.71	2.37
655.895	2.36
656.08	2.34
656.266	2.43
656.451	2.34
656.636	2.31
656.822	2.3
657.007	2.27
657.192	2.24
657.378	2.2
657.563	2.17
657.748	2.3
657.933	2.26
658.118	2.17
658.304	2.2
658.489	2.25
658.674	2.25
658.859	2.14
659.044	2.2
659.229	2.21
659.414	2.19
659.599	2.17
659.785	2.12
659.97	2.17
660.155	2.12
660.34	2.13
660.525	2.08
660.71	2.08
660.895	2.1
661.08	2.07
661.264	2.04
661.449	2.14
661.634	2.07
661.819	2.11
662.004	2.03
662.189	1.97
662.374	1.96
662.559	1.98
662.743	1.95
662.928	1.98
663.113	1.94
663.298	1.93
663.483	1.93
663.667	1.99
663.852	1.91
664.037	2
664.221	1.92
664.406	1.98
664.591	1.98
664.775	1.96
664.96	1.86
665.145	1.87
665.329	1.95
665.514	1.88
665.698	1.79
665.883	1.77
666.068	1.9
666.252	1.83
666.437	1.8
666.621	1.82
666.806	1.83
666.99	1.8
667.174	1.68
667.359	1.89
667.543	1.76
667.728	1.75
667.912	1.69
668.096	1.73
668.281	1.68
668.465	1.75
668.649	1.7
668.834	1.69
669.018	1.78
669.202	1.73
669.387	1.67
669.571	1.73
669.755	1.7
669.939	1.66
670.124	1.67
670.308	1.73
670.492	1.67
670.676	1.67
670.86	1.66
671.044	1.6
671.228	1.69
671.413	1.57
671.597	1.56
671.781	1.55
671.965	1.62
672.149	1.58
672.333	1.59
672.517	1.55
672.701	1.61
672.885	1.52
673.069	1.48
673.253	1.64
673.437	1.53
673.621	1.5
673.804	1.55
673.988	1.5
674.172	1.52
674.356	1.39
674.54	1.54
674.724	1.6
674.908	1.52
675.091	1.54
675.275	1.47
675.459	1.55
675.643	1.48
675.826	1.48
676.01	1.48
676.194	1.47
676.377	1.5
676.561	1.51
676.745	1.48
676.928	1.45
677.112	1.51
677.296	1.37
677.479	1.35
677.663	1.4
677.846	1.39
678.03	1.36
678.213	1.32
678.397	1.43
678.58	1.36
678.764	1.38
678.947	1.26
679.131	1.34
679.314	1.4
679.498	1.33
679.681	1.37
679.865	1.37
680.048	1.32
680.231	1.32
680.415	1.29
680.598	1.28
680.781	1.3
680.965	1.3
681.148	1.35
681.331	1.28
681.514	1.3
681.698	1.25
681.881	1.3
682.064	1.23
682.247	1.29
682.43	1.16
682.614	1.28
682.797	1.3
682.98	1.26
683.163	1.13
683.346	1.24
683.529	1.21
683.712	1.15
683.895	1.16
684.078	1.13
684.261	1.16
684.444	1.24
684.627	1.2
684.81	1.16
684.993	1.18
685.176	1.21
685.359	1.14
685.542	1.17
685.725	1.22
685.908	1.17
686.091	1.08
686.274	1.18
686.457	1.18
686.639	1.1
686.822	1.1
687.005	1.16
687.188	1.19
687.371	1.26
687.553	1.19
687.736	1.13
687.919	1.22
688.102	1.18
688.284	1.12
688.467	1.03
688.65	1.04
688.832	0.99
689.015	1
689.197	0.95
689.38	1.14
689.563	1.13
689.745	0.99
689.928	1
690.11	1.02
690.293	1.05
690.475	0.97
690.658	1.03
690.84	1.08
691.023	1.08
691.205	0.98
691.388	1
691.57	1.07
691.752	1.06
691.935	0.93
692.117	0.96
692.3	1.05
692.482	1.01
692.664	0.94
692.847	0.93
693.029	1.11
693.211	1.03
693.393	0.91
693.576	0.94
693.758	1
693.94	0.94
694.122	0.96
694.304	0.93
694.487	0.89
694.669	1.04
694.851	0.84
695.033	0.88
695.215	0.93
695.397	0.93
695.579	0.95
695.761	0.81
695.943	0.82
696.125	1.01
696.308	1.02
696.49	0.8
696.671	1
696.853	0.82
697.035	1.16
697.217	0.88
697.399	1
697.581	0.81
697.763	0.94
697.945	0.83
698.127	0.91
698.309	0.93
698.491	0.87
698.672	0.93
698.854	0.89
699.036	0.94
699.218	0.82
699.399	0.87
699.581	0.92
699.763	0.85
699.945	0.82
700.126	0.8
700.308	0.86
700.49	0.82
700.671	0.72
700.853	0.81
701.035	0.8
701.216	0.8
701.398	0.76
701.579	0.71
701.761	0.9
701.943	0.76
702.124	0.73
702.306	0.77
702.487	0.91
702.669	0.82
702.85	0.77
703.031	0.7
703.213	0.91
703.394	0.82
703.576	0.79
703.757	0.94
703.938	0.9
704.12	0.97
704.301	0.8
704.483	0.78
704.664	0.77
704.845	0.9
705.026	0.81
705.208	0.67
705.389	0.79
705.57	0.84
705.751	0.73
705.933	0.76
706.114	0.83
706.295	0.75
706.476	0.64
706.657	0.8
706.838	0.82
707.02	0.77
707.201	0.69
707.382	0.7
707.563	0.71
707.744	0.68
707.925	0.65
708.106	0.67
708.287	0.78
708.468	0.85
708.649	0.68
708.83	0.83
709.011	0.64
709.192	0.82
709.373	0.69
709.554	0.65
709.734	0.77
709.915	0.72
710.096	0.67
710.277	0.55
710.458	0.72
710.639	0.7
710.819	0.57
711	0.66
711.181	0.79
711.362	0.79
711.542	0.68
711.723	0.64
711.904	0.72
712.085	0.68
712.265	0.64
712.446	0.57
712.627	0.58
712.807	0.7
712.988	0.59
713.168	0.54
713.349	0.7
713.53	0.51
713.71	0.5
713.891	0.52
714.071	0.68
714.252	0.6
714.432	0.63
714.613	0.54
714.793	0.6
714.974	0.75
715.154	0.67
715.334	0.68
715.515	0.72
715.695	0.54
715.876	0.6
716.056	0.56
716.236	0.62
716.417	0.61
716.597	0.56
716.777	0.79
716.957	0.57
717.138	0.64
717.318	0.6
717.498	0.51
717.678	0.65
717.859	0.62
718.039	0.44
718.219	0.57
718.399	0.69
718.579	0.56
718.759	0.48
718.939	0.58
719.12	0.57
719.3	0.53
719.48	0.44
719.66	0.5
719.84	0.65
720.02	0.54
720.2	0.44
720.38	0.57
720.56	0.73
720.74	0.48
720.92	0.55
721.1	0.75
721.279	0.56
721.459	0.63
721.639	0.43
721.819	0.56
721.999	0.51
722.179	0.61
722.359	0.39
722.538	0.62
722.718	0.62
722.898	0.59
723.078	0.49
723.257	0.55
723.437	0.52
723.617	0.56
723.797	0.58
723.976	0.56
724.156	0.67
724.336	0.62
724.515	0.77
724.695	0.42
724.874	0.52
725.054	0.61
725.234	0.5
725.413	0.54
725.593	0.52
725.772	0.6
725.952	0.44
726.131	0.5
726.311	0.51
726.49	0.53
726.67	0.46
726.849	0.38
727.028	0.62
727.208	0.49
727.387	0.53
727.567	0.48
727.746	0.6
727.925	0.44
728.105	0.34
728.284	0.53
728.463	0.46
728.643	0.65
728.822	0.44
729.001	0.5
729.18	0.51
729.359	0.61
729.539	0.54
729.718	0.52
729.897	0.58
730.076	0.47
730.255	0.35
730.434	0.48
730.614	0.58
730.793	0.64
730.972	0.44
731.151	0.49
731.33	0.56
731.509	0.55
731.688	0.53
731.867	0.44
732.046	0.28
732.225	0.67
732.404	0.41
732.583	0.42
732.762	0.54
732.941	0.6
733.12	0.42
733.298	0.4
733.477	0.6
733.656	0.37
733.835	0.4
734.014	0.62
734.193	0.46
734.371	0.54
734.55	0.52
734.729	0.42
734.908	0.54
735.086	0.51
735.265	0.59
735.444	0.27
735.623	0.33
735.801	0.46
735.98	0.44
736.159	0.32
736.337	0.65
736.516	0.64
736.694	0.53
736.873	0.44
737.052	0.58
737.23	0.77
737.409	0.4
737.587	0.68
737.766	0.37
737.944	0.52
738.123	0.57
738.301	0.59
738.479	0.43
738.658	0.57
738.836	0.32
739.015	0.51
739.193	0.56
739.371	0.46
739.55	0.57
739.728	0.36
739.906	0.65
740.085	0.81
740.263	0.5
740.441	0.26
740.62	0.71
740.798	0.59
740.976	0.37
741.154	0.39
741.332	0.62
741.511	0.49
741.689	0.52
741.867	0.63
742.045	0.6
742.223	0.36
742.401	0.36
742.579	0.36
742.757	0.56
742.935	0.29
743.114	0.45
743.292	0.45
743.47	0.39
743.648	0.45
743.826	0.25
744.004	0.44
744.181	0.57
744.359	0.31
744.537	0.51
744.715	0.36
744.893	0.4
745.071	0.42
745.249	0.36
745.427	0.37
745.605	0.54
745.782	0.36
745.96	0.47
746.138	0.54
746.316	0.62
746.493	0.43
746.671	0.41
746.849	0.34
747.027	0.57
747.204	0.37
747.382	0.45
747.56	0.3
747.737	0.46
747.915	0.38
748.093	0.48
748.27	0.29
748.448	0.3
748.625	0.23
748.803	0.32
748.98	0.24
749.158	0.51
749.335	0.6
749.513	0.38
749.69	0.36
749.868	0.4
750.045	0.5
750.223	0.3
750.4	0.24
750.578	0.64
750.755	0.5
750.932	0.18
751.11	0.43
751.287	0.29
751.464	0.62
751.642	0.22
751.819	0.5
751.996	0.39
752.173	0.41
752.351	0.28
752.528	0.4
752.705	0.44
752.882	0.37
753.06	0.45
753.237	0.46
753.414	0.62
753.591	0.65
753.768	0.36
753.945	0.33
754.122	0.39
754.299	0.6
754.476	0.34
754.654	0.33
754.831	0.57
755.008	0.39
755.185	0.29
755.362	0.3
755.539	0.48
755.716	0.36
755.892	0.34
756.069	0.4
756.246	0.47
756.423	0.4
756.6	0.57
756.777	0.32
756.954	0.49
757.131	0.32
757.307	0.26
757.484	0.19
757.661	0.43
757.838	0.41
758.015	0.21
758.191	0.48
758.368	0.51
758.545	0.54
758.721	0.45
758.898	0.26
759.075	0.47
759.251	0.41
759.428	0.44
759.605	0.16
759.781	0.44
759.958	0.5
760.134	0.56
760.311	0.24
760.488	0.57
760.664	0.62
760.841	0.33
761.017	0.2
761.194	0.55
761.37	0.53
761.547	0.29
761.723	0.32
761.899	0.67
762.076	0.32
762.252	0.19
762.429	0.32
762.605	0.6
762.781	0.32
762.958	0.41
763.134	0.33
763.31	0.35
763.486	0.47
763.663	0.13
763.839	0.41
764.015	0.11
764.191	0.22
764.368	0.34
764.544	0.18
764.72	0.4
764.896	0.43
765.072	0.44
765.248	0.41
765.425	0.41
765.601	0.43
765.777	0.42
765.953	0.04
766.129	0.42
766.305	0.31
766.481	0.42
766.657	0.29
766.833	0.58
767.009	0.31
767.185	0.38
767.361	0.19
767.537	0.28
767.713	0.48
767.889	0.24
768.065	0.44
768.24	0.14
768.416	0.57
768.592	0.35
768.768	0.47
768.944	0.54
769.12	0.43
769.295	0.37
769.471	0.25
769.647	0.37
769.823	0.72
769.998	0.2
770.174	0.17
770.35	0.8
770.525	0.75
770.701	0.39
770.877	0.34
771.052	0.29
771.228	0.5
771.403	0.38
771.579	0.43
771.755	0.8
771.93	0.47
772.106	0.36
772.281	0.16
772.457	0.39
772.632	0.44
772.808	0.23
772.983	0.29
773.159	0.19
773.334	0.61
773.509	0.5
773.685	0.16
773.86	0.78
774.036	0.65
774.211	0.32
774.386	0.35
774.562	0.35
774.737	0.57
774.912	0.23
775.087	0.55
775.263	0.49
775.438	0.45
775.613	0.3
775.788	0.31
775.964	0.61
776.139	0.94
776.314	0.2
776.489	0.42
776.664	0.45
776.839	0.09
777.014	0.51
777.19	0.58
777.365	0.69
777.54	0.64
777.715	0.27
777.89	0.42
778.065	0.23
778.24	0.36
778.415	0.46
778.59	0.18
778.765	0.13
778.94	0.61
779.115	0.31
779.289	0.31
779.464	0.41
779.639	0.25
779.814	0.29
779.989	0.11
780.164	0.61
780.339	0.52
780.513	0.15
780.688	0.32
780.863	0.54
781.038	0.58
781.212	0.29
781.387	0.43
781.562	0.66
781.737	0.2
781.911	0.69
782.086	0.21
782.261	0.39
782.435	0.73
782.61	0.22
782.784	0.46
782.959	0.69
783.134	0.36
783.308	0.31
783.483	0.23
783.657	0.92
783.832	0.67
784.006	0.2
784.181	0.48
784.355	0.58
784.53	0.23
784.704	0.36
784.878	0.59
785.053	0.56
785.227	0.68
785.402	0.91
785.576	0.23
785.75	0.42
785.925	0.46
786.099	0.5
786.273	0.29
786.448	0.68
786.622	0.68
786.796	0.32
786.97	0.44
787.145	1
787.319	0.09
787.493	0.48
787.667	-0.17
787.841	0.37
788.015	0.83
788.19	0.41
788.364	0.43
788.538	0.74
788.712	0.55
788.886	0.29
789.06	0.73
789.234	0.86
789.408	0.2
789.582	0.25
789.756	0.43
789.93	0.38
790.104	0.54
790.278	0.28
790.452	0.46
790.626	0.58
790.8	0.28
790.973	0.81
791.147	0.79
791.321	1.02
791.495	0.66
791.669	0.68
791.843	0.62
792.016	0.53
792.19	0.84
792.364	0.17
792.538	1.1
792.711	0.71
792.885	0.52
793.059	0.12
793.233	0.02
793.406	0.77
793.58	0.39
793.754	0.53
793.927	0.25
794.101	0.65
794.274	0.43
794.448	0.95
794.622	0.17
794.795	0.89
794.969	0.39
795.142	0.87
795.316	0.31
795.489	0.14
795.663	0.93
795.836	0.27
796.009	0.29
796.183	0.83
796.356	0.59
796.53	0.25
796.703	0.53
796.876	1.15
797.05	0.45
797.223	0.2
797.396	0.37
797.57	0.61
797.743	1.27
797.916	0.47
798.09	0.55
798.263	0.87
798.436	0.88
798.609	0.43
798.782	0.51
798.956	0.5
799.129	0.42
799.302	0.57
799.475	0.14
799.648	0.8
799.821	0.35
799.994	0.35
800.167	0.24
800.34	0.43
800.514	0.52
800.687	0.48
800.86	0.25
801.033	0.61
801.206	0.94
801.379	0.18
801.551	0.92
801.724	0.76
801.897	0.85
802.07	0.52
802.243	0.05
802.416	0.68
802.589	0.34
802.762	0.58
802.935	0.54
803.107	0.72
803.28	1.14
803.453	0.74
803.626	0.2
803.798	0.84
803.971	0.22
804.144	0.66
804.317	0.55
804.489	0.8
804.662	0.51
804.835	0.43
805.007	0.28
805.18	1.22
805.353	0.69
805.525	0.21
805.698	0.52
805.87	0.73
806.043	0.89
806.215	0.17
806.388	0.31
806.56	0.7
806.733	0.99
806.905	0.58
807.078	0.76
807.25	0.31
807.423	0.79
807.595	0.71
807.768	0.58
807.94	0.94
808.112	0.69
808.285	0.82
808.457	0.25
808.629	0.61
808.802	0.61
808.974	0.82
809.146	0.49
809.318	0.12
809.491	0.96
809.663	0.49
809.835	0.52
810.007	1.16
810.18	0.48
810.352	0.08
810.524	0.42
810.696	1.03
810.868	1.08
811.04	0.41
811.212	0.63
811.384	0.85
811.556	0.77
811.728	0.4
811.901	1.69
812.073	0.73
812.245	0.48
812.417	0.62
812.589	-0.14
812.76	0.8
812.932	0.91
813.104	1.07
813.276	0.61
813.448	0.98
813.62	1.29
813.792	0.77
813.964	0.69
814.136	1.19
814.307	0.34
814.479	0.28
814.651	0.47
814.823	1.67
814.995	0.69
815.166	0.81
815.338	0.46
815.51	0.05
815.681	2.07
815.853	0.7
816.025	0.49
816.196	1.44
816.368	1.66
816.54	-0.02
816.711	0.29
816.883	0.78
817.054	1.88
817.226	0
817.398	0.64
817.569	0.43
817.741	0.8
817.912	0.82
818.084	0.25
818.255	1.19
818.426	0.21
818.598	0.55
818.769	0.1
818.941	1.12
819.112	1.31
819.283	0.92
819.455	0.52
819.626	0.68
819.798	1.39
819.969	0.6
820.14	0.73
820.311	0.69
820.483	0.94
820.654	1.02
820.825	0.83
820.996	0.98
821.168	0.51
821.339	0.39
821.51	0.48
821.681	0.65
821.852	0.66
822.023	0.34
822.195	0.39
822.366	1.36
822.537	0.69
822.708	0.87
822.879	0.16
823.05	2
823.221	0.84
823.392	1.29
823.563	0.77
823.734	1.03
823.905	0.54
824.076	0.48
824.247	0.13
824.418	0.5
824.589	1.57
824.759	1.18
824.93	0.99
825.101	-0.42
825.272	2.14
825.443	1.34
825.614	1.23
825.784	0.59
825.955	2.3
826.126	1.27
826.297	0.71
826.467	1.84
826.638	2.34
826.809	-0.08
826.98	0.4
827.15	1.68
827.321	1.38
827.492	1.88
827.662	0.87
827.833	1.75
828.003	1.45
828.174	0.48
828.345	-0.07
828.515	1.77
828.686	0.88
828.856	0.54
829.027	0.61
829.197	1.44
829.368	1.27
829.538	0.55
829.709	0.64
829.879	1.06
830.049	1.01
830.22	0.64
830.39	1.13
830.56	1.76
830.731	0.98
830.901	0.52
831.072	1
831.242	0.72
831.412	1.02
831.582	0.43
831.753	-0.18
831.923	1.4
832.093	0.61
832.263	0.79
832.434	0.23
832.604	0.89
832.774	1.48
832.944	0.66
833.114	0.9
833.284	1.23
833.454	0.57
833.624	0.16
833.795	0.54
833.965	1.06
834.135	1.72
834.305	-0.54
834.475	0.39
834.645	1.72
834.815	0.3
834.985	0.11
835.155	0.7
835.325	1.94
835.494	1.64
835.664	1.27
835.834	0.09
836.004	0.96
836.174	1.44
836.344	1.09
836.514	-0.01
836.684	0.32
836.853	1.03
837.023	1.79
837.193	0.72
837.363	2.02
837.532	1.7
837.702	1.17
837.872	0.39
838.041	1.85
838.211	2.44
838.381	0.24
838.55	1.12
838.72	3.72
838.89	2.44
839.059	0.65
839.229	0.18
839.398	4.12
839.568	1.16
839.738	0.66
839.907	2.04
840.077	1.64
840.246	0.24
840.416	0.3
840.585	-0.04
840.755	2.42
840.924	2.31
841.093	0.38
841.263	0.35
841.432	1.82
841.602	1.07
841.771	-0.11
841.94	1.02
842.11	3.28
842.279	3.32
842.448	0.63
842.617	0.05
842.787	2.85
842.956	0.5
843.125	1.69
843.294	1.21
843.464	3.23
843.633	1.1
843.802	0.1
843.971	0.98
844.14	1.73
844.309	2.37
844.479	-0.59
844.648	0.75
844.817	0.51
844.986	1.45
845.155	1.14
845.324	0.72
845.493	0.41
845.662	0.9
845.831	1.39
846	2.02
846.169	0.91
846.338	1.92
846.507	1.39
846.676	1.03
846.844	0.47
847.013	1.46
847.182	1.63
847.351	0.37
847.52	1.71
847.689	1.98
847.858	0.31
848.026	0.77
848.195	1.96
848.364	0.77
848.533	0.29
848.701	0.09
848.87	1.29
849.039	1.64
849.207	1.93
849.376	3.06
849.545	3.37
849.713	1.15
849.882	0.39
850.051	1.88
850.219	0.71
850.388	1.38
850.556	-0.31
850.725	0.66
850.893	1.74
851.062	0.62
851.23	1.29
851.399	-0.5
851.567	0.78
851.736	1.56
851.904	0.82
852.073	1.19
852.241	2.84
852.41	1.08
852.578	1.08
852.746	0.58
852.915	2.7
853.083	1.48
853.251	-0.26
853.42	0.67
853.588	1.25
853.756	2.4
853.924	1.08
854.093	1.56
854.261	1.5
854.429	-0.07
854.597	2.24
854.765	0.37
854.934	2.33
855.102	2.8
855.27	0.78
855.438	1.57
855.606	3.23
855.774	3.37
855.942	1.02
856.11	-0.62
856.278	1.23
856.446	2.73
856.614	1.05
856.782	0.61
856.95	2
857.118	1.49
857.286	2.26
857.454	0.62
857.622	2.94
857.79	2.05
857.958	0.02
858.126	0.91
858.294	-1.43
858.462	0.98
858.629	1.02
858.797	-0.43
858.965	0.67
859.133	1.58
859.301	2.36
859.468	2.22
859.636	0.78
859.804	3.89
859.971	1.02
860.139	2.16
860.307	2.56
860.474	1.24
860.642	1.23
860.81	0.79
860.977	2.36
861.145	4.08
861.313	1.88
861.48	1.22
861.648	3.3
861.815	1.88
861.983	-0.2
862.15	1.06
862.318	3.69
862.485	2.84
862.653	0.25
862.82	0.36
862.988	5.72
863.155	1.77
863.322	1.08
863.49	0.11
863.657	1.52
863.824	3.76
863.992	3.25
864.159	2.69
864.326	4.62
864.494	1.74
864.661	4.54
864.828	0.1
864.996	3.84
865.163	4.38
865.33	0.83
865.497	-1.93
865.664	1.76
865.832	-0.24
865.999	2.21
866.166	2.06
866.333	1.09
866.5	1.4
866.667	1.07
866.834	2.4
867.001	3.2
867.168	0.26
867.335	2.02
867.502	-0.35
867.669	3.56
867.836	4.27
868.003	1.46
868.17	3.1
868.337	1.75
868.504	6.23
868.671	-1.22
868.838	1.46
869.005	3.16
869.172	1.13
869.339	2.78
869.505	0.38
869.672	3.25
869.839	5.07
870.006	1.22
870.173	-0.17
870.339	2.7
870.506	5.18
870.673	-0.03
870.84	2.86
871.006	1.86
871.173	1.9
871.34	1.28
871.506	0.37
871.673	2.91
871.839	-0.37
872.006	1.22
872.173	3.05
872.339	3.83
872.506	4.03
872.672	1.15
872.839	-1.26
873.005	2.92
873.172	6.52
873.338	2.31
873.505	1.15
873.671	1.96
873.838	3.68
874.004	-0.78
874.171	1.58
874.337	2.57
874.503	4.25
874.67	-0.3
874.836	1.21
875.002	6.85
875.169	3.6
875.335	2.19
875.501	2.57
875.668	3.67
875.834	1.23
876	1.54
876.166	3.05
876.332	2.25
876.499	6.48
876.665	1.4
876.831	1.85
876.997	8.26
877.163	3.72
877.329	2.17
877.495	2.42
877.662	4.82
877.828	3.61
877.994	1.26
878.16	-0.7
878.326	0.51
878.492	3.88
878.658	1.64
878.824	2.35
878.99	3.02
879.156	0.36
879.322	6.06
879.487	2.53
879.653	3.02
879.819	3.79
879.985	-0.72
880.151	2.43
880.317	2.51
880.483	3.2
880.648	3.57
880.814	-0.11
880.98	2.93
881.146	-2.36
881.312	0.16
881.477	1.36
881.643	3.11
881.809	3.77
881.974	4.95
882.14	-1.65
882.306	3.45
882.471	5.96
882.637	-1.01
882.803	3.3
882.968	4.74
883.134	5.95
883.299	0.96
883.465	2.77
883.63	5.47
883.796	2.91
883.961	2.49
884.127	3.19
884.292	-2.63
884.458	-0.53
884.623	-0.53
