Data from Apollo_Calib_20240827__AbsoluteIrradiance__22__23-31-01-824.txt Node

Date: Tue Aug 27 23:31:01 BST 2024
User: biology
Spectrometer: FLMT08252
Trigger mode: 0
Integration Time (sec): 5.000000E-1
Scans to average: 5
Electric dark correction enabled: true
Nonlinearity correction enabled: false
Boxcar width: 0
XAxis mode: Wavelengths
Number of Pixels in Spectrum: 3648
>>>>>Begin Spectral Data<<<<<
179.588	-0
179.809	-0
180.03	-0
180.251	-0
180.473	-0
180.694	0
180.915	0
181.136	-0
181.357	0
181.578	0
181.799	-0
182.02	-0
182.241	0
182.462	-0
182.683	0
182.904	-0
183.125	-0
183.346	0
183.567	0
183.788	0
184.009	0
184.23	0
184.451	0
184.672	0
184.892	0
185.113	0
185.334	0
185.555	0
185.776	0
185.996	0
186.217	0
186.438	0
186.659	0
186.879	0
187.1	0
187.321	0
187.541	0
187.762	0
187.983	0
188.203	0
188.424	0
188.644	0
188.865	0
189.086	0
189.306	0
189.527	0
189.747	0
189.968	0
190.188	0
190.409	0
190.629	0
190.849	0
191.07	0
191.29	0
191.511	0
191.731	0
191.951	0
192.172	0
192.392	0
192.612	0
192.833	0
193.053	0
193.273	0
193.493	0
193.714	0
193.934	0
194.154	0
194.374	0
194.594	0
194.815	0
195.035	0
195.255	0
195.475	0
195.695	0
195.915	0
196.135	0
196.355	0
196.575	0
196.795	0
197.015	0
197.235	0
197.455	0
197.675	0
197.895	0
198.115	0
198.335	0
198.555	0
198.775	0
198.995	0
199.214	0
199.434	0
199.654	0
199.874	0
200.094	3.89
200.313	2.5
200.533	2.5
200.753	1.91
200.973	3.33
201.192	2.58
201.412	1.76
201.632	2.32
201.851	3.09
202.071	1.99
202.291	1.93
202.51	1.76
202.73	2.68
202.95	1.81
203.169	1.68
203.389	2.15
203.608	2.5
203.828	1.75
204.047	2.04
204.267	1.66
204.486	2.02
204.706	2.2
204.925	1.44
205.145	1.29
205.364	2.05
205.583	2.34
205.803	1.68
206.022	1.22
206.242	1.71
206.461	1.75
206.68	1.33
206.9	1.66
207.119	2.06
207.338	1.85
207.557	1.24
207.777	1.37
207.996	1.63
208.215	1.87
208.434	1.21
208.654	1.11
208.873	1.32
209.092	1.91
209.311	1.31
209.53	1.61
209.749	1.17
209.968	1.05
210.187	1.18
210.407	0.7
210.626	0.96
210.845	1.72
211.064	1.21
211.283	0.94
211.502	1.5
211.721	1.34
211.94	0.93
212.159	1.21
212.377	1.3
212.596	1.49
212.815	1.05
213.034	1.37
213.253	1.16
213.472	1.32
213.691	0.79
213.91	1.01
214.128	1
214.347	1.39
214.566	0.74
214.785	0.63
215.003	1.27
215.222	1.08
215.441	1.1
215.66	0.69
215.878	0.92
216.097	1.23
216.316	0.64
216.534	0.84
216.753	0.95
216.972	0.9
217.19	1.02
217.409	0.72
217.627	0.77
217.846	0.71
218.064	0.92
218.283	0.63
218.501	1.24
218.72	1.2
218.938	0.81
219.157	0.73
219.375	1.09
219.594	0.82
219.812	0.64
220.031	0.68
220.249	1.02
220.467	1.1
220.686	0.67
220.904	0.52
221.122	0.4
221.341	1.07
221.559	1.04
221.777	0.53
221.995	0.65
222.214	0.91
222.432	0.67
222.65	0.86
222.868	0.93
223.086	0.93
223.305	0.73
223.523	0.75
223.741	1.12
223.959	0.64
224.177	0.46
224.395	0.56
224.613	0.73
224.831	1.02
225.049	0.65
225.267	0.7
225.485	0.76
225.703	0.64
225.921	0.72
226.139	0.68
226.357	0.97
226.575	0.87
226.793	0.62
227.011	1.13
227.229	0.71
227.447	0.73
227.665	0.66
227.883	0.4
228.1	0.63
228.318	0.78
228.536	0.28
228.754	0.43
228.972	0.69
229.189	0.66
229.407	0.55
229.625	0.64
229.843	0.75
230.06	0.75
230.278	0.55
230.496	0.6
230.713	0.76
230.931	0.75
231.149	0.53
231.366	0.35
231.584	0.64
231.801	0.92
232.019	0.5
232.236	0.47
232.454	0.43
232.671	0.68
232.889	0.55
233.106	0.51
233.324	0.53
233.541	0.48
233.759	0.65
233.976	0.52
234.194	0.5
234.411	0.54
234.628	0.44
234.846	0.55
235.063	0.63
235.28	0.48
235.498	0.56
235.715	0.48
235.932	0.69
236.149	0.6
236.367	0.38
236.584	0.56
236.801	0.47
237.018	0.58
237.236	0.58
237.453	0.39
237.67	0.59
237.887	0.48
238.104	0.48
238.321	0.36
238.538	0.37
238.755	0.56
238.973	0.37
239.19	0.42
239.407	0.55
239.624	0.53
239.841	0.37
240.058	0.45
240.275	0.6
240.492	0.5
240.709	0.44
240.925	0.48
241.142	0.51
241.359	0.39
241.576	0.49
241.793	0.35
242.01	0.48
242.227	0.58
242.444	0.57
242.66	0.53
242.877	0.42
243.094	0.46
243.311	0.56
243.527	0.5
243.744	0.56
243.961	0.48
244.178	0.31
244.394	0.45
244.611	0.58
244.828	0.57
245.044	0.35
245.261	0.45
245.477	0.52
245.694	0.54
245.911	0.28
246.127	0.41
246.344	0.64
246.56	0.45
246.777	0.42
246.993	0.47
247.21	0.51
247.426	0.51
247.643	0.36
247.859	0.3
248.076	0.42
248.292	0.58
248.508	0.41
248.725	0.5
248.941	0.48
249.157	0.57
249.374	0.4
249.59	0.4
249.806	0.51
250.023	0.45
250.239	0.34
250.455	0.43
250.671	0.4
250.888	0.52
251.104	0.5
251.32	0.4
251.536	0.45
251.752	0.4
251.969	0.55
252.185	0.5
252.401	0.58
252.617	0.33
252.833	0.34
253.049	0.41
253.265	0.47
253.481	0.43
253.697	0.45
253.913	0.35
254.129	0.47
254.345	0.37
254.561	0.35
254.777	0.37
254.993	0.53
255.209	0.41
255.425	0.37
255.641	0.3
255.857	0.48
256.073	0.39
256.288	0.25
256.504	0.37
256.72	0.41
256.936	0.41
257.152	0.36
257.367	0.37
257.583	0.45
257.799	0.46
258.015	0.34
258.23	0.4
258.446	0.59
258.662	0.39
258.877	0.33
259.093	0.33
259.309	0.38
259.524	0.42
259.74	0.35
259.955	0.28
260.171	0.36
260.387	0.31
260.602	0.47
260.818	0.45
261.033	0.34
261.249	0.38
261.464	0.38
261.68	0.35
261.895	0.47
262.11	0.44
262.326	0.33
262.541	0.28
262.757	0.36
262.972	0.41
263.187	0.43
263.403	0.37
263.618	0.45
263.833	0.33
264.049	0.37
264.264	0.37
264.479	0.48
264.694	0.49
264.91	0.31
265.125	0.38
265.34	0.44
265.555	0.45
265.77	0.37
265.986	0.27
266.201	0.41
266.416	0.46
266.631	0.41
266.846	0.35
267.061	0.42
267.276	0.38
267.491	0.24
267.706	0.37
267.921	0.4
268.136	0.36
268.351	0.38
268.566	0.28
268.781	0.42
268.996	0.4
269.211	0.39
269.426	0.29
269.641	0.26
269.856	0.35
270.071	0.3
270.285	0.24
270.5	0.41
270.715	0.42
270.93	0.31
271.145	0.37
271.359	0.38
271.574	0.32
271.789	0.33
272.004	0.33
272.218	0.37
272.433	0.36
272.648	0.25
272.862	0.39
273.077	0.33
273.292	0.36
273.506	0.3
273.721	0.32
273.936	0.38
274.15	0.41
274.365	0.32
274.579	0.4
274.794	0.37
275.008	0.34
275.223	0.19
275.437	0.37
275.652	0.49
275.866	0.36
276.081	0.32
276.295	0.37
276.509	0.35
276.724	0.31
276.938	0.3
277.153	0.4
277.367	0.36
277.581	0.28
277.796	0.26
278.01	0.24
278.224	0.37
278.438	0.42
278.653	0.31
278.867	0.32
279.081	0.15
279.295	0.3
279.51	0.35
279.724	0.23
279.938	0.39
280.152	0.34
280.366	0.3
280.58	0.34
280.794	0.39
281.008	0.31
281.222	0.42
281.437	0.49
281.651	0.34
281.865	0.38
282.079	0.29
282.293	0.21
282.507	0.29
282.721	0.29
282.935	0.34
283.148	0.19
283.362	0.28
283.576	0.32
283.79	0.26
284.004	0.29
284.218	0.35
284.432	0.26
284.646	0.28
284.859	0.27
285.073	0.32
285.287	0.34
285.501	0.32
285.714	0.24
285.928	0.28
286.142	0.33
286.356	0.25
286.569	0.27
286.783	0.35
286.997	0.32
287.21	0.33
287.424	0.3
287.637	0.3
287.851	0.23
288.065	0.31
288.278	0.26
288.492	0.29
288.705	0.27
288.919	0.33
289.132	0.2
289.346	0.32
289.559	0.25
289.773	0.24
289.986	0.27
290.2	0.31
290.413	0.33
290.626	0.26
290.84	0.26
291.053	0.31
291.267	0.34
291.48	0.29
291.693	0.29
291.906	0.19
292.12	0.2
292.333	0.26
292.546	0.23
292.76	0.35
292.973	0.33
293.186	0.3
293.399	0.23
293.612	0.38
293.826	0.26
294.039	0.29
294.252	0.26
294.465	0.34
294.678	0.28
294.891	0.34
295.104	0.26
295.317	0.26
295.53	0.3
295.743	0.27
295.956	0.26
296.169	0.33
296.382	0.32
296.595	0.3
296.808	0.22
297.021	0.32
297.234	0.32
297.447	0.32
297.66	0.25
297.873	0.27
298.086	0.3
298.299	0.22
298.511	0.23
298.724	0.23
298.937	0.22
299.15	0.21
299.363	0.29
299.575	0.28
299.788	0.3
300.001	0.21
300.213	0.27
300.426	0.25
300.639	0.23
300.852	0.25
301.064	0.3
301.277	0.34
301.489	0.3
301.702	0.32
301.915	0.28
302.127	0.26
302.34	0.26
302.552	0.24
302.765	0.23
302.977	0.3
303.19	0.27
303.402	0.23
303.615	0.25
303.827	0.22
304.04	0.26
304.252	0.27
304.464	0.24
304.677	0.37
304.889	0.28
305.102	0.25
305.314	0.26
305.526	0.33
305.739	0.27
305.951	0.23
306.163	0.26
306.375	0.36
306.588	0.22
306.8	0.24
307.012	0.2
307.224	0.25
307.436	0.31
307.649	0.2
307.861	0.26
308.073	0.34
308.285	0.23
308.497	0.19
308.709	0.27
308.921	0.29
309.133	0.26
309.346	0.26
309.558	0.24
309.77	0.32
309.982	0.33
310.194	0.32
310.406	0.25
310.617	0.32
310.829	0.26
311.041	0.3
311.253	0.2
311.465	0.29
311.677	0.24
311.889	0.27
312.101	0.18
312.313	0.31
312.524	0.33
312.736	0.19
312.948	0.23
313.16	0.37
313.372	0.33
313.583	0.32
313.795	0.22
314.007	0.22
314.218	0.3
314.43	0.25
314.642	0.21
314.853	0.2
315.065	0.32
315.277	0.24
315.488	0.27
315.7	0.31
315.912	0.28
316.123	0.27
316.335	0.24
316.546	0.3
316.758	0.25
316.969	0.22
317.181	0.23
317.392	0.24
317.604	0.35
317.815	0.23
318.026	0.21
318.238	0.23
318.449	0.3
318.661	0.2
318.872	0.23
319.083	0.15
319.295	0.3
319.506	0.22
319.717	0.26
319.929	0.24
320.14	0.27
320.351	0.26
320.562	0.24
320.774	0.27
320.985	0.25
321.196	0.18
321.407	0.19
321.618	0.29
321.829	0.27
322.041	0.31
322.252	0.24
322.463	0.29
322.674	0.31
322.885	0.22
323.096	0.23
323.307	0.23
323.518	0.26
323.729	0.25
323.94	0.21
324.151	0.24
324.362	0.27
324.573	0.24
324.784	0.25
324.995	0.34
325.206	0.28
325.417	0.25
325.628	0.27
325.838	0.27
326.049	0.21
326.26	0.27
326.471	0.24
326.682	0.3
326.892	0.27
327.103	0.23
327.314	0.16
327.525	0.29
327.735	0.28
327.946	0.28
328.157	0.26
328.368	0.32
328.578	0.25
328.789	0.3
328.999	0.26
329.21	0.27
329.421	0.3
329.631	0.21
329.842	0.24
330.052	0.28
330.263	0.29
330.473	0.27
330.684	0.25
330.894	0.28
331.105	0.29
331.315	0.26
331.526	0.18
331.736	0.3
331.947	0.28
332.157	0.31
332.367	0.21
332.578	0.26
332.788	0.3
332.999	0.31
333.209	0.25
333.419	0.22
333.629	0.24
333.84	0.27
334.05	0.27
334.26	0.36
334.47	0.32
334.681	0.32
334.891	0.23
335.101	0.28
335.311	0.32
335.521	0.26
335.732	0.22
335.942	0.34
336.152	0.32
336.362	0.28
336.572	0.27
336.782	0.25
336.992	0.22
337.202	0.24
337.412	0.26
337.622	0.23
337.832	0.27
338.042	0.27
338.252	0.24
338.462	0.25
338.672	0.26
338.882	0.2
339.092	0.21
339.302	0.31
339.511	0.28
339.721	0.25
339.931	0.24
340.141	0.28
340.351	0.31
340.561	0.29
340.77	0.29
340.98	0.28
341.19	0.29
341.4	0.21
341.609	0.16
341.819	0.29
342.029	0.24
342.238	0.24
342.448	0.22
342.658	0.3
342.867	0.26
343.077	0.26
343.286	0.26
343.496	0.3
343.706	0.34
343.915	0.18
344.125	0.26
344.334	0.31
344.544	0.17
344.753	0.23
344.963	0.24
345.172	0.2
345.381	0.19
345.591	0.19
345.8	0.25
346.01	0.31
346.219	0.29
346.428	0.15
346.638	0.24
346.847	0.26
347.056	0.31
347.266	0.2
347.475	0.25
347.684	0.28
347.893	0.26
348.103	0.24
348.312	0.24
348.521	0.25
348.73	0.27
348.94	0.28
349.149	0.21
349.358	0.23
349.567	0.26
349.776	0.22
349.985	0.21
350.194	0.28
350.403	0.3
350.612	0.19
350.821	0.22
351.03	0.27
351.239	0.2
351.448	0.23
351.657	0.24
351.866	0.31
352.075	0.24
352.284	0.3
352.493	0.16
352.702	0.28
352.911	0.26
353.12	0.23
353.329	0.25
353.538	0.29
353.746	0.28
353.955	0.2
354.164	0.28
354.373	0.24
354.582	0.27
354.79	0.25
354.999	0.28
355.208	0.24
355.416	0.33
355.625	0.2
355.834	0.25
356.042	0.24
356.251	0.25
356.46	0.22
356.668	0.27
356.877	0.27
357.085	0.3
357.294	0.19
357.503	0.29
357.711	0.22
357.92	0.39
358.128	0.31
358.337	0.24
358.545	0.24
358.754	0.24
358.962	0.27
359.17	0.26
359.379	0.25
359.587	0.25
359.796	0.27
360.004	0.27
360.212	0.3
360.421	0.27
360.629	0.21
360.837	0.22
361.046	0.26
361.254	0.37
361.462	0.28
361.67	0.23
361.879	0.24
362.087	0.33
362.295	0.25
362.503	0.23
362.711	0.21
362.92	0.28
363.128	0.23
363.336	0.2
363.544	0.2
363.752	0.24
363.96	0.24
364.168	0.2
364.376	0.22
364.584	0.26
364.792	0.32
365	0.3
365.208	0.26
365.416	0.27
365.624	0.3
365.832	0.2
366.04	0.26
366.248	0.27
366.456	0.23
366.664	0.27
366.872	0.25
367.079	0.24
367.287	0.25
367.495	0.26
367.703	0.24
367.911	0.24
368.118	0.23
368.326	0.27
368.534	0.16
368.742	0.28
368.949	0.2
369.157	0.22
369.365	0.28
369.572	0.24
369.78	0.2
369.988	0.29
370.195	0.27
370.403	0.29
370.61	0.27
370.818	0.24
371.026	0.34
371.233	0.24
371.441	0.22
371.648	0.25
371.856	0.23
372.063	0.21
372.271	0.23
372.478	0.22
372.685	0.27
372.893	0.31
373.1	0.24
373.308	0.22
373.515	0.33
373.722	0.36
373.93	0.25
374.137	0.29
374.344	0.3
374.552	0.27
374.759	0.28
374.966	0.28
375.173	0.29
375.381	0.33
375.588	0.23
375.795	0.22
376.002	0.2
376.209	0.21
376.417	0.25
376.624	0.27
376.831	0.26
377.038	0.23
377.245	0.14
377.452	0.25
377.659	0.3
377.866	0.2
378.073	0.23
378.28	0.26
378.487	0.28
378.694	0.3
378.901	0.32
379.108	0.27
379.315	0.31
379.522	0.37
379.729	0.28
379.936	0.26
380.143	0.29
380.35	0.26
380.557	0.25
380.763	0.28
380.97	0.23
381.177	0.27
381.384	0.32
381.591	0.26
381.797	0.27
382.004	0.3
382.211	0.31
382.418	0.28
382.624	0.28
382.831	0.34
383.038	0.24
383.244	0.24
383.451	0.28
383.658	0.29
383.864	0.28
384.071	0.26
384.277	0.31
384.484	0.22
384.69	0.33
384.897	0.24
385.103	0.27
385.31	0.26
385.516	0.29
385.723	0.23
385.929	0.3
386.136	0.23
386.342	0.27
386.549	0.26
386.755	0.32
386.961	0.3
387.168	0.26
387.374	0.3
387.58	0.28
387.787	0.29
387.993	0.29
388.199	0.25
388.406	0.27
388.612	0.27
388.818	0.21
389.024	0.28
389.231	0.27
389.437	0.37
389.643	0.33
389.849	0.31
390.055	0.32
390.261	0.27
390.467	0.35
390.674	0.28
390.88	0.26
391.086	0.36
391.292	0.24
391.498	0.28
391.704	0.29
391.91	0.27
392.116	0.26
392.322	0.23
392.528	0.26
392.734	0.26
392.94	0.28
393.146	0.28
393.352	0.26
393.557	0.29
393.763	0.25
393.969	0.29
394.175	0.33
394.381	0.33
394.587	0.28
394.792	0.29
394.998	0.32
395.204	0.33
395.41	0.35
395.615	0.28
395.821	0.37
396.027	0.36
396.233	0.25
396.438	0.38
396.644	0.39
396.85	0.34
397.055	0.36
397.261	0.38
397.466	0.4
397.672	0.35
397.878	0.33
398.083	0.37
398.289	0.32
398.494	0.35
398.7	0.35
398.905	0.25
399.111	0.4
399.316	0.33
399.522	0.33
399.727	0.33
399.932	0.31
400.138	0.3
400.343	0.4
400.549	0.34
400.754	0.31
400.959	0.38
401.165	0.33
401.37	0.36
401.575	0.48
401.78	0.37
401.986	0.34
402.191	0.37
402.396	0.35
402.601	0.41
402.807	0.37
403.012	0.36
403.217	0.44
403.422	0.39
403.627	0.42
403.832	0.43
404.037	0.47
404.243	0.46
404.448	0.43
404.653	0.4
404.858	0.4
405.063	0.46
405.268	0.42
405.473	0.37
405.678	0.44
405.883	0.55
406.088	0.47
406.293	0.42
406.498	0.45
406.703	0.42
406.907	0.51
407.112	0.41
407.317	0.55
407.522	0.57
407.727	0.47
407.932	0.5
408.136	0.61
408.341	0.54
408.546	0.57
408.751	0.56
408.956	0.57
409.16	0.62
409.365	0.55
409.57	0.6
409.774	0.64
409.979	0.67
410.184	0.65
410.388	0.7
410.593	0.73
410.798	0.67
411.002	0.75
411.207	0.86
411.411	0.83
411.616	0.79
411.82	0.8
412.025	0.84
412.229	0.86
412.434	0.9
412.638	0.96
412.843	0.93
413.047	1.02
413.252	0.94
413.456	1
413.66	1.04
413.865	1.02
414.069	1.16
414.273	1.07
414.478	1.11
414.682	1.14
414.886	1.2
415.091	1.14
415.295	1.22
415.499	1.37
415.703	1.35
415.908	1.42
416.112	1.4
416.316	1.59
416.52	1.52
416.724	1.52
416.929	1.58
417.133	1.82
417.337	1.68
417.541	1.77
417.745	1.86
417.949	1.92
418.153	2
418.357	2.01
418.561	2.25
418.765	2.13
418.969	2.29
419.173	2.4
419.377	2.42
419.581	2.62
419.785	2.6
419.989	2.61
420.193	2.81
420.397	2.85
420.601	2.96
420.804	3.04
421.008	2.95
421.212	3.18
421.416	3.26
421.62	3.27
421.823	3.28
422.027	3.46
422.231	3.43
422.435	3.44
422.638	3.49
422.842	3.58
423.046	3.67
423.249	3.8
423.453	3.92
423.657	4.08
423.86	4.12
424.064	4.27
424.268	4.34
424.471	4.41
424.675	4.63
424.878	4.68
425.082	4.84
425.285	5.1
425.489	5.02
425.692	5.16
425.896	5.08
426.099	5.38
426.303	5.53
426.506	5.72
426.71	5.92
426.913	5.97
427.116	6.32
427.32	6.18
427.523	6.33
427.726	6.68
427.93	6.69
428.133	6.97
428.336	7.18
428.54	7.34
428.743	7.48
428.946	7.72
429.149	7.71
429.353	7.83
429.556	7.94
429.759	8
429.962	8.14
430.165	8.19
430.368	7.93
430.571	8.07
430.775	8.08
430.978	7.97
431.181	8.01
431.384	8.2
431.587	8.23
431.79	8.64
431.993	8.52
432.196	8.82
432.399	9.18
432.602	9.41
432.805	9.38
433.008	9.98
433.211	9.86
433.414	10.2
433.616	10.24
433.819	10.15
434.022	10.32
434.225	10.5
434.428	10.51
434.631	11.01
434.833	10.77
435.036	11
435.239	11.16
435.442	11.26
435.645	11.46
435.847	11.53
436.05	11.85
436.253	12.04
436.455	12.12
436.658	11.84
436.861	12.21
437.063	12.32
437.266	12.33
437.468	12.69
437.671	13.02
437.874	12.98
438.076	12.94
438.279	13.42
438.481	13.25
438.684	14.17
438.886	13.72
439.089	14.11
439.291	14.03
439.494	14.51
439.696	14.65
439.899	15.08
440.101	15.5
440.303	15.82
440.506	16.45
440.708	16.19
440.91	16.36
441.113	16.67
441.315	16.78
441.517	16.74
441.72	17.16
441.922	16.77
442.124	16.75
442.326	17.09
442.529	17.27
442.731	17.32
442.933	17.61
443.135	17.35
443.337	17.45
443.539	18.03
443.742	17.67
443.944	18.12
444.146	17.96
444.348	18.01
444.55	17.96
444.752	18.07
444.954	18.18
445.156	18
445.358	18.41
445.56	18.67
445.762	18.46
445.964	18.72
446.166	18.61
446.368	18.51
446.57	18.5
446.772	18.26
446.974	17.99
447.175	18.24
447.377	17.98
447.579	18.47
447.781	18.05
447.983	17.81
448.184	17.41
448.386	17.78
448.588	17.3
448.79	17.2
448.991	17.55
449.193	17.61
449.395	16.92
449.597	16.59
449.798	16.43
450	16.03
450.202	15.96
450.403	15.99
450.605	15.83
450.806	15.53
451.008	15.28
451.21	15.17
451.411	14.71
451.613	13.84
451.814	14.25
452.016	14.05
452.217	13.41
452.419	13.49
452.62	13.17
452.821	12.87
453.023	12.84
453.224	12.37
453.426	11.95
453.627	11.24
453.828	11.31
454.03	11.44
454.231	11.38
454.432	11.18
454.634	10.92
454.835	10.68
455.036	10.48
455.238	10.11
455.439	10.03
455.64	9.73
455.841	9.48
456.042	9.67
456.244	9.22
456.445	8.98
456.646	8.8
456.847	8.78
457.048	8.64
457.249	8.57
457.45	8.3
457.651	7.81
457.852	7.65
458.054	7.35
458.255	7.32
458.456	7.45
458.657	7.22
458.858	6.85
459.058	6.73
459.259	6.87
459.46	6.47
459.661	6.43
459.862	6.45
460.063	6.47
460.264	6.27
460.465	6.1
460.666	6.06
460.866	5.86
461.067	5.49
461.268	5.57
461.469	5.45
461.67	5.41
461.87	5.28
462.071	5.3
462.272	5.22
462.473	5.17
462.673	5.31
462.874	5.23
463.075	5.18
463.275	5.13
463.476	5.19
463.676	5.16
463.877	5
464.078	5
464.278	5.04
464.479	4.87
464.679	4.8
464.88	4.76
465.08	4.66
465.281	4.54
465.481	4.29
465.682	4.18
465.882	4.14
466.083	4.09
466.283	4.06
466.483	3.94
466.684	3.77
466.884	3.72
467.085	3.78
467.285	3.74
467.485	3.7
467.686	3.63
467.886	3.46
468.086	3.4
468.286	3.43
468.487	3.44
468.687	3.31
468.887	3.28
469.087	3.38
469.287	3.24
469.488	3.08
469.688	3.22
469.888	3.23
470.088	3.14
470.288	3.08
470.488	2.99
470.688	2.91
470.888	2.85
471.088	2.75
471.288	2.81
471.488	2.82
471.688	2.71
471.888	2.75
472.088	2.77
472.288	2.74
472.488	2.66
472.688	2.57
472.888	2.63
473.088	2.62
473.288	2.54
473.488	2.53
473.688	2.68
473.887	2.53
474.087	2.46
474.287	2.48
474.487	2.39
474.687	2.45
474.886	2.41
475.086	2.33
475.286	2.37
475.486	2.28
475.685	2.28
475.885	2.21
476.085	2.27
476.284	2.26
476.484	2.29
476.684	2.23
476.883	2.33
477.083	2.2
477.282	2.14
477.482	2.16
477.681	2.17
477.881	2.04
478.08	2.08
478.28	2.03
478.479	2.12
478.679	2.14
478.878	2.06
479.078	2.03
479.277	2.11
479.477	2.08
479.676	2.02
479.875	2.03
480.075	2.01
480.274	2.03
480.473	2.06
480.673	2.05
480.872	2.09
481.071	2.06
481.271	2.05
481.47	1.97
481.669	2.05
481.868	1.95
482.067	2.02
482.267	1.9
482.466	1.97
482.665	1.95
482.864	1.92
483.063	1.92
483.262	2
483.461	2.05
483.661	2.1
483.86	2
484.059	2.05
484.258	2.06
484.457	2.03
484.656	2.02
484.855	2.07
485.054	1.92
485.253	1.99
485.452	1.94
485.651	2.09
485.849	2.04
486.048	2.04
486.247	2.06
486.446	2.07
486.645	2.06
486.844	2.07
487.043	2.04
487.241	2.08
487.44	2.11
487.639	2.11
487.838	2.12
488.037	2.14
488.235	2.2
488.434	2.18
488.633	2.04
488.831	2.2
489.03	2.2
489.229	2.2
489.427	2.2
489.626	2.23
489.825	2.26
490.023	2.33
490.222	2.28
490.42	2.29
490.619	2.33
490.817	2.4
491.016	2.38
491.214	2.4
491.413	2.41
491.611	2.37
491.81	2.41
492.008	2.44
492.207	2.53
492.405	2.48
492.604	2.49
492.802	2.55
493	2.58
493.199	2.61
493.397	2.63
493.595	2.69
493.794	2.61
493.992	2.82
494.19	2.76
494.388	2.84
494.587	2.74
494.785	2.77
494.983	2.73
495.181	2.87
495.379	2.9
495.578	2.94
495.776	2.95
495.974	2.88
496.172	2.96
496.37	3.09
496.568	3.08
496.766	3.09
496.964	3.13
497.162	3.14
497.36	3.23
497.558	3.24
497.756	3.2
497.954	3.27
498.152	3.35
498.35	3.43
498.548	3.36
498.746	3.39
498.944	3.39
499.142	3.43
499.34	3.54
499.538	3.6
499.736	3.54
499.933	3.61
500.131	3.59
500.329	3.79
500.527	3.72
500.725	3.78
500.922	3.85
501.12	3.85
501.318	3.92
501.516	3.93
501.713	3.99
501.911	3.95
502.109	3.94
502.306	4.04
502.504	3.98
502.701	4.09
502.899	4.12
503.097	4.32
503.294	4.19
503.492	4.35
503.689	4.32
503.887	4.33
504.084	4.4
504.282	4.41
504.479	4.33
504.677	4.58
504.874	4.55
505.072	4.5
505.269	4.65
505.466	4.6
505.664	4.71
505.861	4.64
506.059	4.81
506.256	4.79
506.453	4.85
506.651	4.96
506.848	4.95
507.045	4.96
507.242	4.96
507.44	5.02
507.637	5.08
507.834	5.01
508.031	5.16
508.229	5.11
508.426	5.06
508.623	5.26
508.82	5.31
509.017	5.26
509.214	5.24
509.411	5.4
509.608	5.33
509.805	5.47
510.003	5.46
510.2	5.52
510.397	5.61
510.594	5.55
510.791	5.63
510.988	5.63
511.184	5.6
511.381	5.48
511.578	5.69
511.775	5.81
511.972	5.71
512.169	5.76
512.366	5.77
512.563	5.92
512.76	5.95
512.956	5.95
513.153	5.94
513.35	5.88
513.547	5.87
513.744	6.01
513.94	6.03
514.137	6.18
514.334	6.13
514.53	6.09
514.727	6.31
514.924	6.18
515.12	6.24
515.317	6.24
515.514	6.18
515.71	6.16
515.907	6.42
516.103	6.35
516.3	6.31
516.497	6.39
516.693	6.47
516.89	6.44
517.086	6.51
517.283	6.55
517.479	6.41
517.676	6.63
517.872	6.62
518.068	6.58
518.265	6.63
518.461	6.57
518.658	6.64
518.854	6.7
519.05	6.77
519.247	6.81
519.443	6.75
519.639	6.82
519.836	6.81
520.032	6.76
520.228	6.94
520.424	6.87
520.621	6.9
520.817	6.97
521.013	6.92
521.209	7.08
521.405	7.06
521.601	7.04
521.798	6.98
521.994	6.93
522.19	6.93
522.386	7.03
522.582	7.15
522.778	7.21
522.974	7.06
523.17	7.09
523.366	7.12
523.562	7.11
523.758	7.13
523.954	6.97
524.15	7.2
524.346	7.24
524.542	7.21
524.738	7.23
524.934	7.35
525.129	7.33
525.325	7.27
525.521	7.25
525.717	7.46
525.913	7.3
526.109	7.34
526.304	7.47
526.5	7.39
526.696	7.49
526.892	7.32
527.087	7.57
527.283	7.49
527.479	7.44
527.674	7.31
527.87	7.49
528.066	7.51
528.261	7.51
528.457	7.38
528.653	7.61
528.848	7.56
529.044	7.66
529.239	7.48
529.435	7.48
529.63	7.45
529.826	7.53
530.021	7.54
530.217	7.6
530.412	7.57
530.608	7.6
530.803	7.6
530.999	7.46
531.194	7.57
531.389	7.65
531.585	7.65
531.78	7.83
531.975	7.68
532.171	7.78
532.366	7.69
532.561	7.73
532.757	7.68
532.952	7.93
533.147	7.62
533.342	7.78
533.538	7.7
533.733	7.89
533.928	7.56
534.123	7.77
534.318	7.83
534.513	7.69
534.709	7.91
534.904	7.81
535.099	7.89
535.294	7.92
535.489	7.84
535.684	7.8
535.879	7.86
536.074	7.86
536.269	7.89
536.464	7.85
536.659	7.79
536.854	7.88
537.049	7.91
537.244	7.9
537.439	7.86
537.634	7.91
537.828	7.94
538.023	7.92
538.218	7.93
538.413	7.82
538.608	7.93
538.803	7.94
538.997	7.86
539.192	7.88
539.387	7.95
539.582	7.85
539.776	7.87
539.971	7.96
540.166	8.06
540.36	7.89
540.555	8.08
540.75	8.01
540.944	8
541.139	8.02
541.334	7.93
541.528	7.98
541.723	8.01
541.917	8.05
542.112	7.92
542.306	7.81
542.501	7.9
542.695	7.97
542.89	7.88
543.084	8.01
543.279	8.04
543.473	8.09
543.668	8.05
543.862	7.9
544.056	7.9
544.251	8.05
544.445	8.11
544.64	8.08
544.834	7.76
545.028	7.67
545.222	8.04
545.417	8.26
545.611	8.09
545.805	8.02
546	7.88
546.194	8.03
546.388	8.1
546.582	7.97
546.776	8.01
546.97	8.04
547.165	8.02
547.359	8.02
547.553	7.96
547.747	7.97
547.941	8.2
548.135	8.02
548.329	8.15
548.523	8.08
548.717	8
548.911	7.98
549.105	8.02
549.299	8.14
549.493	8.09
549.687	7.97
549.881	8.11
550.075	8
550.269	7.96
550.463	8.07
550.657	8.14
550.85	8.03
551.044	8.1
551.238	8.12
551.432	8.05
551.626	8.1
551.82	8.09
552.013	8
552.207	8.17
552.401	8.12
552.594	8.03
552.788	7.96
552.982	8.07
553.176	7.97
553.369	8.18
553.563	8.17
553.756	8.02
553.95	8.12
554.144	8.18
554.337	8.13
554.531	7.9
554.724	8.11
554.918	8.2
555.111	8.04
555.305	8.07
555.498	8.06
555.692	8.16
555.885	8.18
556.079	8.06
556.272	8.09
556.466	8.09
556.659	8.01
556.852	8.18
557.046	8
557.239	7.96
557.432	8.05
557.626	8.16
557.819	8.16
558.012	8.18
558.206	8.2
558.399	8.17
558.592	8.04
558.785	7.99
558.979	8.12
559.172	8.06
559.365	8.09
559.558	8.05
559.751	7.92
559.944	8.13
560.138	8.05
560.331	8.09
560.524	8.14
560.717	8.1
560.91	8.09
561.103	8.15
561.296	7.96
561.489	8.09
561.682	8.18
561.875	8.15
562.068	8.18
562.261	7.96
562.454	8.25
562.647	8.05
562.84	8.12
563.032	8.14
563.225	8.01
563.418	8.03
563.611	8.14
563.804	8.13
563.997	7.93
564.19	7.93
564.382	8.21
564.575	8.08
564.768	7.97
564.961	8.12
565.153	7.99
565.346	7.93
565.539	8.16
565.731	8.04
565.924	8.18
566.117	8.22
566.309	8.08
566.502	8.07
566.695	8.02
566.887	8.05
567.08	8.07
567.272	8.13
567.465	7.92
567.657	8.12
567.85	7.97
568.042	7.99
568.235	8.07
568.427	7.96
568.62	8.06
568.812	8.02
569.005	8.12
569.197	8.04
569.389	8.01
569.582	7.99
569.774	8.02
569.966	7.98
570.159	7.88
570.351	7.96
570.543	8
570.736	7.98
570.928	7.79
571.12	7.99
571.312	8.02
571.505	7.85
571.697	8
571.889	8.01
572.081	8
572.273	7.9
572.465	7.98
572.658	7.97
572.85	8.02
573.042	8.01
573.234	7.88
573.426	7.92
573.618	7.94
573.81	7.92
574.002	7.89
574.194	7.97
574.386	7.91
574.578	7.76
574.77	7.91
574.962	7.93
575.154	7.76
575.346	7.88
575.538	7.82
575.729	7.8
575.921	7.98
576.113	7.95
576.305	7.91
576.497	7.96
576.689	7.84
576.88	7.77
577.072	7.89
577.264	7.9
577.456	7.9
577.647	7.78
577.839	8.01
578.031	7.83
578.223	7.8
578.414	7.71
578.606	7.79
578.798	7.86
578.989	7.8
579.181	7.9
579.372	7.86
579.564	7.82
579.755	7.72
579.947	7.7
580.139	7.82
580.33	7.69
580.522	7.81
580.713	7.71
580.905	7.71
581.096	7.77
581.287	7.72
581.479	7.71
581.67	7.73
581.862	7.64
582.053	7.7
582.244	7.56
582.436	7.78
582.627	7.62
582.818	7.61
583.01	7.59
583.201	7.68
583.392	7.57
583.583	7.56
583.775	7.44
583.966	7.55
584.157	7.58
584.348	7.73
584.54	7.57
584.731	7.61
584.922	7.48
585.113	7.45
585.304	7.6
585.495	7.5
585.686	7.57
585.877	7.6
586.068	7.7
586.259	7.54
586.45	7.45
586.641	7.46
586.832	7.59
587.023	7.46
587.214	7.5
587.405	7.59
587.596	7.42
587.787	7.36
587.978	7.47
588.169	7.35
588.36	7.4
588.551	7.41
588.742	7.41
588.932	7.41
589.123	7.25
589.314	7.47
589.505	7.32
589.696	7.34
589.886	7.38
590.077	7.24
590.268	7.29
590.458	7.22
590.649	7.12
590.84	7.29
591.03	7.24
591.221	7.32
591.412	7.12
591.602	7.27
591.793	7.15
591.984	7.3
592.174	7.23
592.365	7.38
592.555	7.11
592.746	7.14
592.936	7.16
593.127	7.19
593.317	7.24
593.508	7.18
593.698	7.02
593.889	7.1
594.079	7.08
594.269	6.94
594.46	6.99
594.65	7.06
594.84	7.08
595.031	6.95
595.221	7
595.411	7
595.602	6.94
595.792	6.9
595.982	6.93
596.172	7.04
596.363	6.87
596.553	6.83
596.743	6.94
596.933	6.87
597.123	6.84
597.314	6.76
597.504	6.7
597.694	6.9
597.884	6.75
598.074	6.87
598.264	6.79
598.454	6.74
598.644	6.79
598.834	6.8
599.024	6.68
599.214	6.66
599.404	6.75
599.594	6.72
599.784	6.66
599.974	6.73
600.164	6.66
600.354	6.65
600.544	6.52
600.734	6.64
600.924	6.54
601.114	6.5
601.303	6.51
601.493	6.62
601.683	6.54
601.873	6.52
602.063	6.46
602.252	6.52
602.442	6.36
602.632	6.45
602.821	6.41
603.011	6.43
603.201	6.42
603.39	6.36
603.58	6.23
603.77	6.39
603.959	6.49
604.149	6.31
604.339	6.29
604.528	6.43
604.718	6.36
604.907	6.29
605.097	6.22
605.286	6.26
605.476	6.18
605.665	6.25
605.855	6.17
606.044	6.28
606.234	6.2
606.423	6.19
606.612	6.18
606.802	6.06
606.991	6.14
607.181	6.18
607.37	6.15
607.559	5.87
607.749	6.09
607.938	5.97
608.127	6.06
608.316	6.04
608.506	5.99
608.695	6.07
608.884	6
609.073	6
609.263	6.06
609.452	5.99
609.641	5.83
609.83	5.81
610.019	5.97
610.208	5.83
610.397	5.84
610.586	5.93
610.775	5.78
610.965	5.8
611.154	5.68
611.343	5.78
611.532	5.68
611.721	5.81
611.91	5.65
612.099	5.76
612.287	5.56
612.476	5.54
612.665	5.68
612.854	5.56
613.043	5.64
613.232	5.62
613.421	5.51
613.61	5.54
613.798	5.57
613.987	5.57
614.176	5.51
614.365	5.58
614.554	5.51
614.742	5.51
614.931	5.39
615.12	5.52
615.309	5.43
615.497	5.4
615.686	5.28
615.875	5.32
616.063	5.3
616.252	5.35
616.44	5.31
616.629	5.32
616.818	5.27
617.006	5.25
617.195	5.24
617.383	5.23
617.572	5.15
617.76	5.18
617.949	5.25
618.137	5.28
618.326	5.23
618.514	5.08
618.703	4.98
618.891	5.17
619.079	5.08
619.268	5.18
619.456	4.99
619.644	5.09
619.833	5
620.021	4.95
620.209	4.95
620.398	5.02
620.586	4.85
620.774	4.99
620.962	4.97
621.151	5.02
621.339	4.87
621.527	4.82
621.715	4.84
621.903	4.87
622.092	4.76
622.28	4.85
622.468	4.69
622.656	4.76
622.844	4.77
623.032	4.81
623.22	4.67
623.408	4.73
623.596	4.73
623.784	4.75
623.972	4.61
624.16	4.66
624.348	4.72
624.536	4.72
624.724	4.58
624.912	4.64
625.1	4.59
625.288	4.55
625.476	4.5
625.664	4.57
625.851	4.53
626.039	4.56
626.227	4.5
626.415	4.43
626.603	4.48
626.79	4.49
626.978	4.45
627.166	4.5
627.354	4.37
627.541	4.33
627.729	4.31
627.917	4.45
628.104	4.42
628.292	4.31
628.48	4.36
628.667	4.26
628.855	4.31
629.042	4.31
629.23	4.31
629.418	4.22
629.605	4.29
629.793	4.19
629.98	4.17
630.168	4.16
630.355	4.17
630.543	4.16
630.73	4.09
630.917	4.12
631.105	4.16
631.292	4.09
631.48	4.09
631.667	4.15
631.854	4.01
632.042	4
632.229	4
632.416	4.03
632.604	3.99
632.791	3.86
632.978	3.98
633.165	3.94
633.353	4
633.54	4.02
633.727	3.81
633.914	3.83
634.101	3.77
634.289	3.92
634.476	3.82
634.663	3.79
634.85	3.8
635.037	3.79
635.224	3.69
635.411	3.85
635.598	3.76
635.785	3.69
635.972	3.73
636.159	3.7
636.346	3.71
636.533	3.64
636.72	3.69
636.907	3.62
637.094	3.63
637.281	3.52
637.468	3.59
637.655	3.67
637.842	3.55
638.029	3.55
638.215	3.56
638.402	3.57
638.589	3.46
638.776	3.49
638.963	3.51
639.149	3.54
639.336	3.53
639.523	3.45
639.709	3.43
639.896	3.43
640.083	3.42
640.27	3.48
640.456	3.36
640.643	3.37
640.829	3.3
641.016	3.31
641.203	3.25
641.389	3.28
641.576	3.32
641.762	3.29
641.949	3.26
642.135	3.3
642.322	3.26
642.508	3.19
642.695	3.22
642.881	3.19
643.068	3.18
643.254	3.19
643.441	3.23
643.627	3.24
643.813	3.07
644	3.18
644.186	3.11
644.372	3.15
644.559	3.12
644.745	3.09
644.931	3.07
645.118	3.03
645.304	3.06
645.49	3
645.676	2.98
645.862	3.06
646.049	3.12
646.235	3.01
646.421	3.12
646.607	3.12
646.793	2.9
646.979	2.9
647.165	2.98
647.352	2.98
647.538	3
647.724	2.94
647.91	2.86
648.096	2.9
648.282	2.86
648.468	2.88
648.654	2.84
648.84	2.91
649.026	2.86
649.212	2.82
649.397	2.76
649.583	2.8
649.769	2.77
649.955	2.76
650.141	2.8
650.327	2.8
650.513	2.74
650.698	2.8
650.884	2.62
651.07	2.75
651.256	2.67
651.442	2.71
651.627	2.64
651.813	2.72
651.999	2.64
652.184	2.71
652.37	2.64
652.556	2.62
652.741	2.62
652.927	2.52
653.113	2.59
653.298	2.59
653.484	2.58
653.669	2.54
653.855	2.55
654.04	2.6
654.226	2.56
654.412	2.55
654.597	2.44
654.782	2.55
654.968	2.47
655.153	2.52
655.339	2.45
655.524	2.43
655.71	2.53
655.895	2.45
656.08	2.44
656.266	2.49
656.451	2.43
656.636	2.43
656.822	2.41
657.007	2.42
657.192	2.44
657.378	2.36
657.563	2.38
657.748	2.39
657.933	2.47
658.118	2.27
658.304	2.32
658.489	2.39
658.674	2.33
658.859	2.3
659.044	2.31
659.229	2.34
659.414	2.36
659.599	2.32
659.785	2.25
659.97	2.24
660.155	2.34
660.34	2.25
660.525	2.21
660.71	2.17
660.895	2.26
661.08	2.18
661.264	2.13
661.449	2.16
661.634	2.2
661.819	2.19
662.004	2.14
662.189	2.09
662.374	2.07
662.559	2.1
662.743	2.05
662.928	2.1
663.113	2.03
663.298	2.02
663.483	2.01
663.667	2.04
663.852	2.03
664.037	2.03
664.221	1.99
664.406	2.05
664.591	2.01
664.775	2
664.96	1.95
665.145	1.93
665.329	1.95
665.514	1.96
665.698	1.93
665.883	1.81
666.068	1.92
666.252	1.86
666.437	1.8
666.621	1.88
666.806	1.87
666.99	1.86
667.174	1.85
667.359	1.84
667.543	1.79
667.728	1.87
667.912	1.75
668.096	1.77
668.281	1.74
668.465	1.8
668.649	1.75
668.834	1.73
669.018	1.73
669.202	1.74
669.387	1.75
669.571	1.74
669.755	1.68
669.939	1.7
670.124	1.72
670.308	1.73
670.492	1.7
670.676	1.64
670.86	1.65
671.044	1.63
671.228	1.66
671.413	1.62
671.597	1.6
671.781	1.59
671.965	1.65
672.149	1.61
672.333	1.62
672.517	1.59
672.701	1.56
672.885	1.57
673.069	1.44
673.253	1.61
673.437	1.55
673.621	1.48
673.804	1.54
673.988	1.54
674.172	1.54
674.356	1.46
674.54	1.5
674.724	1.56
674.908	1.53
675.091	1.53
675.275	1.48
675.459	1.54
675.643	1.52
675.826	1.47
676.01	1.43
676.194	1.45
676.377	1.46
676.561	1.5
676.745	1.48
676.928	1.45
677.112	1.5
677.296	1.46
677.479	1.42
677.663	1.36
677.846	1.42
678.03	1.41
678.213	1.34
678.397	1.41
678.58	1.35
678.764	1.37
678.947	1.37
679.131	1.44
679.314	1.33
679.498	1.36
679.681	1.47
679.865	1.42
680.048	1.35
680.231	1.31
680.415	1.32
680.598	1.3
680.781	1.28
680.965	1.27
681.148	1.38
681.331	1.25
681.514	1.27
681.698	1.24
681.881	1.3
682.064	1.18
682.247	1.24
682.43	1.22
682.614	1.26
682.797	1.32
682.98	1.22
683.163	1.19
683.346	1.27
683.529	1.18
683.712	1.13
683.895	1.23
684.078	1.12
684.261	1.12
684.444	1.21
684.627	1.25
684.81	1.14
684.993	1.21
685.176	1.21
685.359	1.15
685.542	1.14
685.725	1.23
685.908	1.2
686.091	1.14
686.274	1.17
686.457	1.18
686.639	1.16
686.822	1.19
687.005	1.11
687.188	1.15
687.371	1.19
687.553	1.13
687.736	1.11
687.919	1.18
688.102	1.14
688.284	1.03
688.467	1.1
688.65	1.1
688.832	1.08
689.015	1.02
689.197	0.99
689.38	1.11
689.563	1.13
689.745	1.05
689.928	0.99
690.11	1
690.293	1.04
690.475	0.94
690.658	1.02
690.84	0.97
691.023	0.98
691.205	0.96
691.388	1.06
691.57	1.06
691.752	1.02
691.935	0.95
692.117	0.93
692.3	1.03
692.482	0.97
692.664	1
692.847	0.97
693.029	1.03
693.211	1.02
693.393	0.94
693.576	0.92
693.758	0.98
693.94	0.96
694.122	0.87
694.304	0.91
694.487	0.93
694.669	0.99
694.851	0.92
695.033	0.93
695.215	0.95
695.397	0.87
695.579	1
695.761	0.81
695.943	0.84
696.125	0.93
696.308	0.93
696.49	0.76
696.671	1.02
696.853	0.87
697.035	1.12
697.217	0.88
697.399	0.95
697.581	0.88
697.763	0.89
697.945	0.81
698.127	0.91
698.309	0.89
698.491	0.93
698.672	0.89
698.854	0.95
699.036	0.92
699.218	0.85
699.399	0.88
699.581	0.85
699.763	0.83
699.945	0.85
700.126	0.82
700.308	0.79
700.49	0.81
700.671	0.76
700.853	0.77
701.035	0.83
701.216	0.8
701.398	0.77
701.579	0.82
701.761	0.87
701.943	0.79
702.124	0.78
702.306	0.82
702.487	0.98
702.669	0.75
702.85	0.76
703.031	0.78
703.213	0.91
703.394	0.88
703.576	0.77
703.757	0.93
703.938	0.89
704.12	0.95
704.301	0.72
704.483	0.69
704.664	0.8
704.845	0.89
705.026	0.82
705.208	0.74
705.389	0.76
705.57	0.71
705.751	0.72
705.933	0.78
706.114	0.81
706.295	0.73
706.476	0.71
706.657	0.89
706.838	0.8
707.02	0.78
707.201	0.71
707.382	0.71
707.563	0.8
707.744	0.72
707.925	0.69
708.106	0.66
708.287	0.78
708.468	0.81
708.649	0.67
708.83	0.77
709.011	0.68
709.192	0.78
709.373	0.61
709.554	0.71
709.734	0.8
709.915	0.77
710.096	0.69
710.277	0.62
710.458	0.74
710.639	0.75
710.819	0.62
711	0.69
711.181	0.77
711.362	0.78
711.542	0.74
711.723	0.69
711.904	0.7
712.085	0.75
712.265	0.72
712.446	0.63
712.627	0.63
712.807	0.66
712.988	0.7
713.168	0.58
713.349	0.68
713.53	0.49
713.71	0.6
713.891	0.56
714.071	0.63
714.252	0.62
714.432	0.62
714.613	0.58
714.793	0.7
714.974	0.8
715.154	0.73
715.334	0.69
715.515	0.72
715.695	0.59
715.876	0.63
716.056	0.57
716.236	0.64
716.417	0.56
716.597	0.61
716.777	0.81
716.957	0.6
717.138	0.6
717.318	0.55
717.498	0.5
717.678	0.63
717.859	0.61
718.039	0.6
718.219	0.64
718.399	0.63
718.579	0.6
718.759	0.59
718.939	0.65
719.12	0.62
719.3	0.6
719.48	0.57
719.66	0.5
719.84	0.68
720.02	0.62
720.2	0.58
720.38	0.58
720.56	0.77
720.74	0.57
720.92	0.63
721.1	0.74
721.279	0.63
721.459	0.61
721.639	0.55
721.819	0.63
721.999	0.57
722.179	0.59
722.359	0.45
722.538	0.51
722.718	0.58
722.898	0.57
723.078	0.54
723.257	0.59
723.437	0.62
723.617	0.63
723.797	0.59
723.976	0.67
724.156	0.6
724.336	0.69
724.515	0.74
724.695	0.48
724.874	0.61
725.054	0.59
725.234	0.56
725.413	0.66
725.593	0.52
725.772	0.58
725.952	0.57
726.131	0.56
726.311	0.57
726.49	0.63
726.67	0.54
726.849	0.48
727.028	0.62
727.208	0.57
727.387	0.65
727.567	0.45
727.746	0.5
727.925	0.5
728.105	0.46
728.284	0.55
728.463	0.59
728.643	0.68
728.822	0.52
729.001	0.55
729.18	0.64
729.359	0.67
729.539	0.56
729.718	0.53
729.897	0.66
730.076	0.49
730.255	0.48
730.434	0.6
730.614	0.54
730.793	0.59
730.972	0.47
731.151	0.58
731.33	0.65
731.509	0.64
731.688	0.61
731.867	0.52
732.046	0.47
732.225	0.75
732.404	0.47
732.583	0.58
732.762	0.61
732.941	0.69
733.12	0.52
733.298	0.6
733.477	0.63
733.656	0.56
733.835	0.6
734.014	0.66
734.193	0.67
734.371	0.61
734.55	0.69
734.729	0.67
734.908	0.62
735.086	0.62
735.265	0.61
735.444	0.52
735.623	0.46
735.801	0.44
735.98	0.68
736.159	0.53
736.337	0.7
736.516	0.67
736.694	0.58
736.873	0.53
737.052	0.67
737.23	0.74
737.409	0.47
737.587	0.76
737.766	0.52
737.944	0.39
738.123	0.58
738.301	0.66
738.479	0.61
738.658	0.65
738.836	0.37
739.015	0.7
739.193	0.62
739.371	0.43
739.55	0.56
739.728	0.53
739.906	0.59
740.085	0.71
740.263	0.65
740.441	0.38
740.62	0.69
740.798	0.65
740.976	0.48
741.154	0.61
741.332	0.72
741.511	0.53
741.689	0.48
741.867	0.59
742.045	0.44
742.223	0.52
742.401	0.34
742.579	0.56
742.757	0.64
742.935	0.45
743.114	0.54
743.292	0.43
743.47	0.5
743.648	0.55
743.826	0.64
744.004	0.63
744.181	0.5
744.359	0.49
744.537	0.51
744.715	0.48
744.893	0.53
745.071	0.5
745.249	0.52
745.427	0.49
745.605	0.53
745.782	0.55
745.96	0.51
746.138	0.57
746.316	0.51
746.493	0.38
746.671	0.56
746.849	0.45
747.027	0.63
747.204	0.37
747.382	0.51
747.56	0.36
747.737	0.38
747.915	0.4
748.093	0.55
748.27	0.31
748.448	0.39
748.625	0.24
748.803	0.4
748.98	0.35
749.158	0.52
749.335	0.49
749.513	0.45
749.69	0.41
749.868	0.45
750.045	0.49
750.223	0.37
750.4	0.22
750.578	0.6
750.755	0.45
750.932	0.28
751.11	0.57
751.287	0.27
751.464	0.56
751.642	0.26
751.819	0.36
751.996	0.4
752.173	0.4
752.351	0.29
752.528	0.36
752.705	0.35
752.882	0.26
753.06	0.52
753.237	0.56
753.414	0.57
753.591	0.61
753.768	0.41
753.945	0.37
754.122	0.24
754.299	0.36
754.476	0.35
754.654	0.35
754.831	0.35
755.008	0.41
755.185	0.39
755.362	0.22
755.539	0.45
755.716	0.55
755.892	0.38
756.069	0.34
756.246	0.53
756.423	0.35
756.6	0.41
756.777	0.35
756.954	0.62
757.131	0.5
757.307	0.23
757.484	0.37
757.661	0.41
757.838	0.58
758.015	0.25
758.191	0.46
758.368	0.49
758.545	0.57
758.721	0.38
758.898	0.26
759.075	0.43
759.251	0.52
759.428	0.51
759.605	0.27
759.781	0.39
759.958	0.52
760.134	0.39
760.311	0.28
760.488	0.52
760.664	0.46
760.841	0.28
761.017	0.39
761.194	0.35
761.37	0.46
761.547	0.42
761.723	0.34
761.899	0.47
762.076	0.3
762.252	0.28
762.429	0.32
762.605	0.36
762.781	0.36
762.958	0.4
763.134	0.34
763.31	0.28
763.486	0.42
763.663	0.27
763.839	0.43
764.015	0.21
764.191	0.32
764.368	0.39
764.544	0.37
764.72	0.39
764.896	0.41
765.072	0.39
765.248	0.27
765.425	0.24
765.601	0.38
765.777	0.44
765.953	0.14
766.129	0.28
766.305	0.25
766.481	0.47
766.657	0.39
766.833	0.62
767.009	0.2
767.185	0.29
767.361	0.36
767.537	0.23
767.713	0.6
767.889	0.33
768.065	0.34
768.24	0.43
768.416	0.39
768.592	0.3
768.768	0.42
768.944	0.41
769.12	0.26
769.295	0.36
769.471	0.28
769.647	0.33
769.823	0.49
769.998	0.27
770.174	0.29
770.35	0.68
770.525	0.52
770.701	0.51
770.877	0.33
771.052	0.2
771.228	0.51
771.403	0.49
771.579	0.45
771.755	0.66
771.93	0.31
772.106	0.19
772.281	0.15
772.457	0.5
772.632	0.39
772.808	0.21
772.983	0.29
773.159	0.2
773.334	0.54
773.509	0.38
773.685	0.31
773.86	0.68
774.036	0.57
774.211	0.38
774.386	0.35
774.562	0.28
774.737	0.45
774.912	0.39
775.087	0.44
775.263	0.27
775.438	0.49
775.613	0.34
775.788	0.37
775.964	0.41
776.139	0.72
776.314	0.39
776.489	0.37
776.664	0.46
776.839	0.2
777.014	0.63
777.19	0.6
777.365	0.57
777.54	0.58
777.715	0.21
777.89	0.26
778.065	0.26
778.24	0.46
778.415	0.54
778.59	0.16
778.765	0.42
778.94	0.35
779.115	0.38
779.289	0.37
779.464	0.4
779.639	0.49
779.814	0.33
779.989	0.25
780.164	0.5
780.339	0.51
780.513	0.3
780.688	0.2
780.863	0.43
781.038	0.53
781.212	0.28
781.387	0.42
781.562	0.54
781.737	0.46
781.911	0.58
782.086	0.28
782.261	0.31
782.435	0.7
782.61	0.47
782.784	0.41
782.959	0.54
783.134	0.2
783.308	0.19
783.483	0.31
783.657	0.82
783.832	0.77
784.006	0.04
784.181	0.49
784.355	0.52
784.53	0.45
784.704	0.38
784.878	0.57
785.053	0.58
785.227	0.55
785.402	0.79
785.576	0.17
785.75	0.36
785.925	0.44
786.099	0.45
786.273	0.43
786.448	0.55
786.622	0.51
786.796	0.39
786.97	0.34
787.145	0.87
787.319	0.41
787.493	0.31
787.667	0.09
787.841	0.43
788.015	0.49
788.19	0.37
788.364	0.55
788.538	0.63
788.712	0.56
788.886	0.41
789.06	0.68
789.234	0.61
789.408	0.29
789.582	0.36
789.756	0.53
789.93	0.4
790.104	0.28
790.278	0.33
790.452	0.25
790.626	0.44
790.8	0.49
790.973	0.51
791.147	0.81
791.321	0.66
791.495	0.63
791.669	0.38
791.843	0.4
792.016	0.38
792.19	0.83
792.364	0.29
792.538	1.14
792.711	0.68
792.885	0.4
793.059	0.36
793.233	-0.12
793.406	0.42
793.58	0.36
793.754	0.67
793.927	0.54
794.101	0.86
794.274	0.51
794.448	0.83
794.622	0.13
794.795	0.75
794.969	0.1
795.142	0.61
795.316	0.49
795.489	0.4
795.663	0.74
795.836	0.65
796.009	0.36
796.183	0.95
796.356	0.57
796.53	0.63
796.703	0.51
796.876	0.9
797.05	0.51
797.223	0.23
797.396	0.35
797.57	0.48
797.743	0.81
797.916	0.41
798.09	0.64
798.263	0.84
798.436	0.62
798.609	0.43
798.782	0.58
798.956	0.34
799.129	0.4
799.302	0.4
799.475	0.5
799.648	0.16
799.821	0.43
799.994	0.54
800.167	0.2
800.34	0.71
800.514	0.47
800.687	0.5
800.86	0.41
801.033	0.39
801.206	0.63
801.379	0.39
801.551	0.61
801.724	0.7
801.897	0.71
802.07	0.3
802.243	0.06
802.416	0.56
802.589	0.44
802.762	0.53
802.935	0.24
803.107	0.85
803.28	0.88
803.453	0.8
803.626	0.24
803.798	0.61
803.971	0.06
804.144	0.32
804.317	0.7
804.489	0.78
804.662	0.57
804.835	0.75
805.007	0.32
805.18	0.7
805.353	0.73
805.525	0.28
805.698	0.6
805.87	0.81
806.043	0.82
806.215	0.29
806.388	0.21
806.56	0.69
806.733	0.91
806.905	0.78
807.078	0.44
807.25	0.24
807.423	0.5
807.595	0.7
807.768	0.57
807.94	0.94
808.112	0.53
808.285	0.81
808.457	0.53
808.629	0.86
808.802	0.57
808.974	0.55
809.146	0.26
809.318	0.25
809.491	0.6
809.663	0.61
809.835	0.27
810.007	1.15
810.18	0.79
810.352	0.33
810.524	0.89
810.696	0.69
810.868	0.93
811.04	0.83
811.212	0.56
811.384	1
811.556	0.59
811.728	0.65
811.901	1.23
812.073	1
812.245	0.79
812.417	0.91
812.589	0.02
812.76	0.92
812.932	0.49
813.104	0.75
813.276	0.76
813.448	0.76
813.62	0.74
813.792	0.68
813.964	0.48
814.136	1.03
814.307	0.45
814.479	0.36
814.651	0.48
814.823	1.41
814.995	0.73
815.166	1.08
815.338	0.48
815.51	0.45
815.681	1.33
815.853	0.69
816.025	0.56
816.196	1.2
816.368	0.8
816.54	0.54
816.711	0.32
816.883	1.13
817.054	1.2
817.226	0.14
817.398	0.86
817.569	0.12
817.741	1.13
817.912	0.69
818.084	0.56
818.255	1.4
818.426	0.54
818.598	0.29
818.769	0.61
818.941	0.82
819.112	1.19
819.283	1.07
819.455	0.44
819.626	0.5
819.798	0.86
819.969	0.38
820.14	0.31
820.311	0.45
820.483	0.85
820.654	0.67
820.825	0.75
820.996	0.58
821.168	0.74
821.339	0.44
821.51	0.4
821.681	0.45
821.852	0.77
822.023	0.1
822.195	0.38
822.366	1.05
822.537	0.35
822.708	0.66
822.879	0.37
823.05	1.61
823.221	0.83
823.392	1.64
823.563	1.05
823.734	0.93
823.905	0.86
824.076	0.75
824.247	0.83
824.418	0.76
824.589	1.34
824.759	0.81
824.93	0.53
825.101	0.14
825.272	0.93
825.443	1.17
825.614	1.09
825.784	0.15
825.955	1.68
826.126	1.69
826.297	1.6
826.467	1.75
826.638	1.8
826.809	0.29
826.98	0.73
827.15	1.23
827.321	1.04
827.492	1.39
827.662	1.03
827.833	1.94
828.003	0.88
828.174	0.56
828.345	0.19
828.515	1
828.686	1.01
828.856	0.99
829.027	1.08
829.197	-0.04
829.368	0.27
829.538	1.08
829.709	0.18
829.879	0.85
830.049	0.74
830.22	1.28
830.39	0.75
830.56	1.76
830.731	0.91
830.901	0.64
831.072	0.72
831.242	0.99
831.412	1.26
831.582	1.02
831.753	0.44
831.923	1.55
832.093	0.96
832.263	1.03
832.434	0.86
832.604	0.53
832.774	1.44
832.944	0.36
833.114	0.61
833.284	1.23
833.454	0.02
833.624	0.74
833.795	0.55
833.965	1.93
834.135	1.48
834.305	0.19
834.475	0.12
834.645	0.37
834.815	0.54
834.985	0.58
835.155	1.2
835.325	1.7
835.494	1.41
835.664	0.49
835.834	0.62
836.004	1.18
836.174	1.07
836.344	0.91
836.514	0.18
836.684	0.01
836.853	1
837.023	1.47
837.193	0.76
837.363	1.58
837.532	1.63
837.702	0.69
837.872	0.7
838.041	1.52
838.211	2.04
838.381	0.03
838.55	1.04
838.72	1.9
838.89	1.86
839.059	0.37
839.229	0.2
839.398	2.11
839.568	1.2
839.738	1.24
839.907	1.91
840.077	1.01
840.246	0.11
840.416	0.26
840.585	0.1
840.755	2.28
840.924	1.66
841.093	0.92
841.263	0.37
841.432	1.28
841.602	0.68
841.771	0.86
841.94	1
842.11	2.5
842.279	3.22
842.448	0.58
842.617	0.06
842.787	1.67
842.956	0.33
843.125	1.86
843.294	0.79
843.464	2.44
843.633	1.28
843.802	0.7
843.971	1.1
844.14	1.38
844.309	1.88
844.479	0.72
844.648	0.08
844.817	0.53
844.986	1.16
845.155	1.5
845.324	1.05
845.493	1.16
845.662	1.23
845.831	1.95
846	1.31
846.169	0.87
846.338	2.8
846.507	0.84
846.676	1.36
846.844	0.64
847.013	2.14
847.182	1.17
847.351	0.66
847.52	1.06
847.689	1.03
847.858	1.55
848.026	0.3
848.195	0.25
848.364	0.64
848.533	1.03
848.701	1.23
848.87	1.17
849.039	2.6
849.207	1.1
849.376	2.9
849.545	2.79
849.713	0.69
849.882	1.73
850.051	1
850.219	1.42
850.388	1.91
850.556	0.82
850.725	0.52
850.893	0.6
851.062	1.04
851.23	2.84
851.399	-0.39
851.567	0.77
851.736	0.96
851.904	-0.29
852.073	1.05
852.241	1.64
852.41	0.63
852.578	0.94
852.746	1.79
852.915	2.35
853.083	1.01
853.251	0
853.42	1.37
853.588	1.14
853.756	2.31
853.924	1.4
854.093	1.05
854.261	1.59
854.429	-0.63
854.597	1.92
854.765	0.75
854.934	1.73
855.102	2.66
855.27	1.06
855.438	1.8
855.606	3.58
855.774	3.17
855.942	-0.53
856.11	1.09
856.278	2.26
856.446	2.63
856.614	1.46
856.782	1.25
856.95	1.61
857.118	2.18
857.286	1.38
857.454	0.98
857.622	2.18
857.79	3.04
857.958	1.79
858.126	1.67
858.294	0.4
858.462	1.3
858.629	1.89
858.797	1.44
858.965	1.65
859.133	1.85
859.301	1.41
859.468	1.82
859.636	1.58
859.804	2.96
859.971	1.88
860.139	2.07
860.307	2.03
860.474	2.1
860.642	1.08
860.81	1.14
860.977	1.45
861.145	2.18
861.313	1.84
861.48	1.04
861.648	2.61
861.815	0.87
861.983	-0.16
862.15	0.84
862.318	2.67
862.485	2.7
862.653	0.96
862.82	0.69
862.988	2.98
863.155	2.48
863.322	2.15
863.49	0.07
863.657	0.29
863.824	3.64
863.992	2.57
864.159	1.18
864.326	3.03
864.494	0.68
864.661	3.94
864.828	-0.19
864.996	2.42
865.163	2.75
865.33	1.05
865.497	0.23
865.664	1.62
865.832	0.04
865.999	0.85
866.166	1.57
866.333	1.88
866.5	1.63
866.667	1.82
866.834	0.29
867.001	2.58
867.168	-1.52
867.335	1.74
867.502	0.21
867.669	2.85
867.836	4.91
868.003	2.15
868.17	2.71
868.337	4.11
868.504	2.95
868.671	0.47
868.838	0.84
869.005	3.01
869.172	3.46
869.339	3.56
869.505	0.13
869.672	1.85
869.839	2.93
870.006	2.74
870.173	0.1
870.339	3.28
870.506	3.7
870.673	2.32
870.84	3.13
871.006	2.52
871.173	1.98
871.34	1.9
871.506	1.04
871.673	2.54
871.839	0.57
872.006	1.82
872.173	2.21
872.339	1.26
872.506	2.44
872.672	2.23
872.839	1.27
873.005	3.45
873.172	5.04
873.338	3.34
873.505	1.85
873.671	0.32
873.838	3.8
874.004	1.45
874.171	0.46
874.337	1.3
874.503	3.11
874.67	1.24
874.836	1.52
875.002	4.32
875.169	2.66
875.335	3.61
875.501	2.09
875.668	4
875.834	2.71
876	2.17
876.166	2.81
876.332	3.61
876.499	3.88
876.665	1.54
876.831	3.74
876.997	4.01
877.163	2.54
877.329	1.72
877.495	1.23
877.662	2.97
877.828	4.12
877.994	1.9
878.16	-0.53
878.326	2.92
878.492	2.39
878.658	1.33
878.824	2.49
878.99	2.94
879.156	1.01
879.322	3.34
879.487	1.4
879.653	2.62
879.819	2.63
879.985	1.84
880.151	0.67
880.317	3.87
880.483	0.54
880.648	3.94
880.814	-0.89
880.98	3.34
881.146	-1.74
881.312	1.18
881.477	2.14
881.643	2.05
881.809	3.77
881.974	4.14
882.14	2.46
882.306	3.35
882.471	4.88
882.637	1.81
882.803	2.46
882.968	4.9
883.134	6.4
883.299	0.51
883.465	1.48
883.63	3.3
883.796	4.12
883.961	3.37
884.127	2.29
884.292	-1.82
884.458	0.56
884.623	0.55
