Data from Apollo_Calib_20240827__AbsoluteIrradiance__895__14-04-01-125.txt Node

Date: Wed Aug 28 14:04:01 BST 2024
User: biology
Spectrometer: FLMT08252
Trigger mode: 0
Integration Time (sec): 5.000000E-1
Scans to average: 5
Electric dark correction enabled: true
Nonlinearity correction enabled: false
Boxcar width: 0
XAxis mode: Wavelengths
Number of Pixels in Spectrum: 3648
>>>>>Begin Spectral Data<<<<<
179.588	-0
179.809	-0
180.03	-0
180.251	-0
180.473	-0
180.694	0
180.915	0
181.136	-0
181.357	0
181.578	-0
181.799	-0
182.02	-0
182.241	0
182.462	-0
182.683	0
182.904	-0
183.125	-0
183.346	0
183.567	0
183.788	0
184.009	0
184.23	0
184.451	0
184.672	0
184.892	0
185.113	0
185.334	0
185.555	0
185.776	0
185.996	0
186.217	0
186.438	0
186.659	0
186.879	0
187.1	0
187.321	0
187.541	0
187.762	0
187.983	0
188.203	0
188.424	0
188.644	0
188.865	0
189.086	0
189.306	0
189.527	0
189.747	0
189.968	0
190.188	0
190.409	0
190.629	0
190.849	0
191.07	0
191.29	0
191.511	0
191.731	0
191.951	0
192.172	0
192.392	0
192.612	0
192.833	0
193.053	0
193.273	0
193.493	0
193.714	0
193.934	0
194.154	0
194.374	0
194.594	0
194.815	0
195.035	0
195.255	0
195.475	0
195.695	0
195.915	0
196.135	0
196.355	0
196.575	0
196.795	0
197.015	0
197.235	0
197.455	0
197.675	0
197.895	0
198.115	0
198.335	0
198.555	0
198.775	0
198.995	0
199.214	0
199.434	0
199.654	0
199.874	0
200.094	4.46
200.313	2.23
200.533	1.46
200.753	1.31
200.973	3.59
201.192	3.27
201.412	1.06
201.632	1.7
201.851	3.62
202.071	1.8
202.291	1.26
202.51	1.47
202.73	2.71
202.95	1.64
203.169	1.09
203.389	1.65
203.608	2.4
203.828	1.66
204.047	1.53
204.267	2.12
204.486	2.01
204.706	2.03
204.925	1.47
205.145	1.08
205.364	2.54
205.583	2.65
205.803	1.36
206.022	0.95
206.242	1.66
206.461	1.79
206.68	0.97
206.9	1.32
207.119	2.63
207.338	2.31
207.557	1.1
207.777	1.14
207.996	1.59
208.215	2.36
208.434	1.13
208.654	0.9
208.873	1.52
209.092	2.55
209.311	1.25
209.53	1.28
209.749	1.27
209.968	1.02
210.187	0.69
210.407	0.57
210.626	1.3
210.845	1.65
211.064	1.03
211.283	0.65
211.502	1.52
211.721	1.06
211.94	0.78
212.159	1.22
212.377	1.3
212.596	1.71
212.815	1.08
213.034	1
213.253	1.48
213.472	1.47
213.691	0.83
213.91	0.69
214.128	0.63
214.347	1.48
214.566	0.47
214.785	0.43
215.003	1.44
215.222	0.95
215.441	0.76
215.66	0.37
215.878	1
216.097	1.17
216.316	0.65
216.534	0.68
216.753	1.03
216.972	0.87
217.19	0.85
217.409	0.69
217.627	0.83
217.846	0.79
218.064	0.82
218.283	0.62
218.501	1.39
218.72	1.19
218.938	0.33
219.157	0.78
219.375	1.11
219.594	1.14
219.812	0.49
220.031	0.42
220.249	1.35
220.467	1.07
220.686	0.71
220.904	0.43
221.122	0.68
221.341	1.18
221.559	0.9
221.777	0.65
221.995	0.82
222.214	0.84
222.432	0.66
222.65	0.89
222.868	0.85
223.086	0.85
223.305	0.83
223.523	0.67
223.741	1.22
223.959	0.81
224.177	0.27
224.395	0.6
224.613	0.91
224.831	0.96
225.049	0.39
225.267	0.47
225.485	0.79
225.703	0.37
225.921	0.4
226.139	0.5
226.357	0.82
226.575	0.84
226.793	0.46
227.011	1.6
227.229	0.69
227.447	0.91
227.665	0.48
227.883	0.35
228.1	0.66
228.318	0.67
228.536	0.25
228.754	0.49
228.972	0.78
229.189	0.74
229.407	0.46
229.625	0.52
229.843	1.03
230.06	0.82
230.278	0.52
230.496	0.6
230.713	0.62
230.931	0.8
231.149	0.38
231.366	0.24
231.584	0.54
231.801	1.13
232.019	0.52
232.236	0.34
232.454	0.38
232.671	0.66
232.889	0.44
233.106	0.45
233.324	0.45
233.541	0.52
233.759	0.63
233.976	0.31
234.194	0.47
234.411	0.61
234.628	0.27
234.846	0.39
235.063	0.49
235.28	0.64
235.498	0.46
235.715	0.25
235.932	0.84
236.149	0.59
236.367	0.43
236.584	0.58
236.801	0.37
237.018	0.61
237.236	0.56
237.453	0.24
237.67	0.62
237.887	0.53
238.104	0.44
238.321	0.27
238.538	0.43
238.755	0.74
238.973	0.26
239.19	0.46
239.407	0.65
239.624	0.58
239.841	0.34
240.058	0.33
240.275	0.52
240.492	0.54
240.709	0.45
240.925	0.4
241.142	0.47
241.359	0.39
241.576	0.35
241.793	0.32
242.01	0.37
242.227	0.66
242.444	0.46
242.66	0.6
242.877	0.53
243.094	0.43
243.311	0.39
243.527	0.39
243.744	0.54
243.961	0.53
244.178	0.31
244.394	0.33
244.611	0.65
244.828	0.74
245.044	0.27
245.261	0.39
245.477	0.49
245.694	0.59
245.911	0.4
246.127	0.44
246.344	0.67
246.56	0.56
246.777	0.31
246.993	0.47
247.21	0.46
247.426	0.55
247.643	0.37
247.859	0.34
248.076	0.37
248.292	0.7
248.508	0.34
248.725	0.42
248.941	0.53
249.157	0.56
249.374	0.31
249.59	0.37
249.806	0.42
250.023	0.39
250.239	0.37
250.455	0.35
250.671	0.42
250.888	0.43
251.104	0.49
251.32	0.33
251.536	0.43
251.752	0.35
251.969	0.36
252.185	0.35
252.401	0.63
252.617	0.49
252.833	0.3
253.049	0.37
253.265	0.43
253.481	0.37
253.697	0.38
253.913	0.33
254.129	0.48
254.345	0.43
254.561	0.34
254.777	0.3
254.993	0.52
255.209	0.4
255.425	0.34
255.641	0.3
255.857	0.48
256.073	0.45
256.288	0.25
256.504	0.31
256.72	0.46
256.936	0.56
257.152	0.39
257.367	0.22
257.583	0.39
257.799	0.48
258.015	0.34
258.23	0.4
258.446	0.66
258.662	0.36
258.877	0.3
259.093	0.28
259.309	0.42
259.524	0.45
259.74	0.29
259.955	0.24
260.171	0.44
260.387	0.37
260.602	0.39
260.818	0.4
261.033	0.29
261.249	0.32
261.464	0.32
261.68	0.21
261.895	0.42
262.11	0.42
262.326	0.28
262.541	0.35
262.757	0.47
262.972	0.47
263.187	0.35
263.403	0.41
263.618	0.44
263.833	0.39
264.049	0.24
264.264	0.3
264.479	0.4
264.694	0.53
264.91	0.22
265.125	0.32
265.34	0.47
265.555	0.55
265.77	0.32
265.986	0.34
266.201	0.39
266.416	0.53
266.631	0.29
266.846	0.33
267.061	0.41
267.276	0.44
267.491	0.23
267.706	0.33
267.921	0.4
268.136	0.44
268.351	0.32
268.566	0.29
268.781	0.43
268.996	0.43
269.211	0.31
269.426	0.25
269.641	0.39
269.856	0.49
270.071	0.27
270.285	0.16
270.5	0.38
270.715	0.37
270.93	0.27
271.145	0.38
271.359	0.48
271.574	0.28
271.789	0.29
272.004	0.26
272.218	0.34
272.433	0.43
272.648	0.26
272.862	0.41
273.077	0.34
273.292	0.35
273.506	0.22
273.721	0.27
273.936	0.43
274.15	0.44
274.365	0.31
274.579	0.41
274.794	0.41
275.008	0.39
275.223	0.26
275.437	0.26
275.652	0.38
275.866	0.44
276.081	0.32
276.295	0.37
276.509	0.3
276.724	0.38
276.938	0.33
277.153	0.41
277.367	0.4
277.581	0.25
277.796	0.24
278.01	0.25
278.224	0.39
278.438	0.47
278.653	0.2
278.867	0.24
279.081	0.16
279.295	0.31
279.51	0.34
279.724	0.24
279.938	0.41
280.152	0.38
280.366	0.24
280.58	0.29
280.794	0.45
281.008	0.39
281.222	0.36
281.437	0.55
281.651	0.3
281.865	0.42
282.079	0.27
282.293	0.18
282.507	0.22
282.721	0.31
282.935	0.24
283.148	0.15
283.362	0.25
283.576	0.24
283.79	0.31
284.004	0.24
284.218	0.45
284.432	0.28
284.646	0.32
284.859	0.26
285.073	0.25
285.287	0.33
285.501	0.3
285.714	0.27
285.928	0.35
286.142	0.31
286.356	0.24
286.569	0.31
286.783	0.38
286.997	0.39
287.21	0.33
287.424	0.31
287.637	0.24
287.851	0.27
288.065	0.37
288.278	0.27
288.492	0.29
288.705	0.3
288.919	0.33
289.132	0.19
289.346	0.38
289.559	0.23
289.773	0.19
289.986	0.27
290.2	0.29
290.413	0.38
290.626	0.22
290.84	0.23
291.053	0.32
291.267	0.4
291.48	0.26
291.693	0.25
291.906	0.26
292.12	0.34
292.333	0.22
292.546	0.24
292.76	0.37
292.973	0.3
293.186	0.33
293.399	0.23
293.612	0.31
293.826	0.24
294.039	0.26
294.252	0.27
294.465	0.33
294.678	0.27
294.891	0.25
295.104	0.21
295.317	0.27
295.53	0.32
295.743	0.27
295.956	0.22
296.169	0.37
296.382	0.35
296.595	0.24
296.808	0.23
297.021	0.36
297.234	0.31
297.447	0.27
297.66	0.23
297.873	0.34
298.086	0.36
298.299	0.21
298.511	0.13
298.724	0.28
298.937	0.24
299.15	0.21
299.363	0.28
299.575	0.31
299.788	0.26
300.001	0.22
300.213	0.25
300.426	0.28
300.639	0.28
300.852	0.18
301.064	0.29
301.277	0.33
301.489	0.33
301.702	0.28
301.915	0.18
302.127	0.26
302.34	0.26
302.552	0.29
302.765	0.18
302.977	0.34
303.19	0.19
303.402	0.23
303.615	0.22
303.827	0.23
304.04	0.24
304.252	0.28
304.464	0.23
304.677	0.44
304.889	0.36
305.102	0.21
305.314	0.2
305.526	0.3
305.739	0.32
305.951	0.19
306.163	0.22
306.375	0.34
306.588	0.22
306.8	0.26
307.012	0.19
307.224	0.31
307.436	0.33
307.649	0.16
307.861	0.26
308.073	0.3
308.285	0.21
308.497	0.17
308.709	0.19
308.921	0.29
309.133	0.33
309.346	0.23
309.558	0.24
309.77	0.29
309.982	0.34
310.194	0.27
310.406	0.21
310.617	0.4
310.829	0.27
311.041	0.3
311.253	0.2
311.465	0.25
311.677	0.26
311.889	0.24
312.101	0.18
312.313	0.31
312.524	0.38
312.736	0.21
312.948	0.19
313.16	0.34
313.372	0.31
313.583	0.24
313.795	0.2
314.007	0.26
314.218	0.37
314.43	0.24
314.642	0.19
314.853	0.2
315.065	0.3
315.277	0.26
315.488	0.24
315.7	0.3
315.912	0.28
316.123	0.25
316.335	0.24
316.546	0.36
316.758	0.27
316.969	0.2
317.181	0.27
317.392	0.23
317.604	0.38
317.815	0.21
318.026	0.23
318.238	0.24
318.449	0.28
318.661	0.19
318.872	0.13
319.083	0.2
319.295	0.25
319.506	0.2
319.717	0.28
319.929	0.29
320.14	0.27
320.351	0.23
320.562	0.2
320.774	0.34
320.985	0.24
321.196	0.24
321.407	0.17
321.618	0.26
321.829	0.29
322.041	0.31
322.252	0.25
322.463	0.35
322.674	0.29
322.885	0.17
323.096	0.24
323.307	0.24
323.518	0.26
323.729	0.23
323.94	0.22
324.151	0.22
324.362	0.33
324.573	0.22
324.784	0.24
324.995	0.28
325.206	0.27
325.417	0.23
325.628	0.2
325.838	0.26
326.049	0.3
326.26	0.26
326.471	0.21
326.682	0.27
326.892	0.27
327.103	0.14
327.314	0.24
327.525	0.3
327.735	0.28
327.946	0.27
328.157	0.15
328.368	0.35
328.578	0.27
328.789	0.31
328.999	0.28
329.21	0.22
329.421	0.34
329.631	0.21
329.842	0.19
330.052	0.3
330.263	0.26
330.473	0.33
330.684	0.23
330.894	0.29
331.105	0.29
331.315	0.27
331.526	0.16
331.736	0.36
331.947	0.31
332.157	0.31
332.367	0.15
332.578	0.31
332.788	0.32
332.999	0.3
333.209	0.24
333.419	0.19
333.629	0.33
333.84	0.28
334.05	0.25
334.26	0.35
334.47	0.28
334.681	0.28
334.891	0.22
335.101	0.27
335.311	0.37
335.521	0.27
335.732	0.19
335.942	0.34
336.152	0.29
336.362	0.28
336.572	0.27
336.782	0.3
336.992	0.23
337.202	0.24
337.412	0.19
337.622	0.3
337.832	0.23
338.042	0.24
338.252	0.2
338.462	0.22
338.672	0.26
338.882	0.16
339.092	0.28
339.302	0.32
339.511	0.31
339.721	0.21
339.931	0.17
340.141	0.35
340.351	0.32
340.561	0.21
340.77	0.28
340.98	0.32
341.19	0.25
341.4	0.23
341.609	0.22
341.819	0.27
342.029	0.22
342.238	0.28
342.448	0.24
342.658	0.29
342.867	0.22
343.077	0.21
343.286	0.24
343.496	0.29
343.706	0.35
343.915	0.17
344.125	0.22
344.334	0.27
344.544	0.21
344.753	0.2
344.963	0.2
345.172	0.2
345.381	0.22
345.591	0.16
345.8	0.25
346.01	0.36
346.219	0.32
346.428	0.14
346.638	0.23
346.847	0.28
347.056	0.31
347.266	0.25
347.475	0.26
347.684	0.27
347.893	0.28
348.103	0.29
348.312	0.2
348.521	0.27
348.73	0.26
348.94	0.28
349.149	0.2
349.358	0.22
349.567	0.21
349.776	0.19
349.985	0.24
350.194	0.32
350.403	0.3
350.612	0.16
350.821	0.2
351.03	0.22
351.239	0.19
351.448	0.23
351.657	0.23
351.866	0.39
352.075	0.29
352.284	0.32
352.493	0.17
352.702	0.35
352.911	0.27
353.12	0.23
353.329	0.28
353.538	0.25
353.746	0.26
353.955	0.16
354.164	0.26
354.373	0.22
354.582	0.32
354.79	0.25
354.999	0.26
355.208	0.24
355.416	0.35
355.625	0.18
355.834	0.25
356.042	0.26
356.251	0.24
356.46	0.23
356.668	0.22
356.877	0.36
357.085	0.31
357.294	0.15
357.503	0.3
357.711	0.26
357.92	0.45
358.128	0.27
358.337	0.22
358.545	0.28
358.754	0.21
358.962	0.29
359.17	0.23
359.379	0.26
359.587	0.27
359.796	0.18
360.004	0.31
360.212	0.3
360.421	0.34
360.629	0.26
360.837	0.25
361.046	0.32
361.254	0.41
361.462	0.23
361.67	0.24
361.879	0.32
362.087	0.32
362.295	0.24
362.503	0.23
362.711	0.24
362.92	0.24
363.128	0.2
363.336	0.22
363.544	0.22
363.752	0.26
363.96	0.24
364.168	0.2
364.376	0.26
364.584	0.32
364.792	0.28
365	0.26
365.208	0.24
365.416	0.29
365.624	0.29
365.832	0.23
366.04	0.38
366.248	0.27
366.456	0.29
366.664	0.23
366.872	0.25
367.079	0.25
367.287	0.22
367.495	0.22
367.703	0.24
367.911	0.24
368.118	0.24
368.326	0.24
368.534	0.24
368.742	0.32
368.949	0.21
369.157	0.22
369.365	0.29
369.572	0.23
369.78	0.18
369.988	0.26
370.195	0.31
370.403	0.26
370.61	0.21
370.818	0.25
371.026	0.34
371.233	0.19
371.441	0.25
371.648	0.25
371.856	0.29
372.063	0.28
372.271	0.21
372.478	0.23
372.685	0.24
372.893	0.28
373.1	0.22
373.308	0.21
373.515	0.4
373.722	0.3
373.93	0.23
374.137	0.28
374.344	0.34
374.552	0.32
374.759	0.27
374.966	0.24
375.173	0.24
375.381	0.37
375.588	0.23
375.795	0.17
376.002	0.27
376.209	0.23
376.417	0.25
376.624	0.28
376.831	0.31
377.038	0.25
377.245	0.2
377.452	0.23
377.659	0.28
377.866	0.28
378.073	0.26
378.28	0.28
378.487	0.35
378.694	0.33
378.901	0.3
379.108	0.26
379.315	0.34
379.522	0.39
379.729	0.31
379.936	0.24
380.143	0.27
380.35	0.27
380.557	0.26
380.763	0.26
380.97	0.28
381.177	0.28
381.384	0.3
381.591	0.25
381.797	0.32
382.004	0.32
382.211	0.29
382.418	0.25
382.624	0.3
382.831	0.29
383.038	0.27
383.244	0.26
383.451	0.27
383.658	0.32
383.864	0.27
384.071	0.23
384.277	0.37
384.484	0.26
384.69	0.36
384.897	0.24
385.103	0.23
385.31	0.24
385.516	0.25
385.723	0.22
385.929	0.31
386.136	0.23
386.342	0.3
386.549	0.2
386.755	0.35
386.961	0.34
387.168	0.27
387.374	0.25
387.58	0.33
387.787	0.27
387.993	0.27
388.199	0.23
388.406	0.23
388.612	0.22
388.818	0.24
389.024	0.25
389.231	0.27
389.437	0.4
389.643	0.29
389.849	0.3
390.055	0.27
390.261	0.3
390.467	0.33
390.674	0.24
390.88	0.31
391.086	0.36
391.292	0.24
391.498	0.33
391.704	0.33
391.91	0.33
392.116	0.27
392.322	0.23
392.528	0.33
392.734	0.32
392.94	0.29
393.146	0.26
393.352	0.3
393.557	0.31
393.763	0.31
393.969	0.33
394.175	0.3
394.381	0.33
394.587	0.26
394.792	0.32
394.998	0.38
395.204	0.38
395.41	0.28
395.615	0.35
395.821	0.34
396.027	0.34
396.233	0.32
396.438	0.34
396.644	0.39
396.85	0.31
397.055	0.32
397.261	0.3
397.466	0.43
397.672	0.37
397.878	0.41
398.083	0.37
398.289	0.29
398.494	0.41
398.7	0.35
398.905	0.21
399.111	0.43
399.316	0.28
399.522	0.36
399.727	0.32
399.932	0.29
400.138	0.31
400.343	0.38
400.549	0.32
400.754	0.35
400.959	0.38
401.165	0.38
401.37	0.39
401.575	0.5
401.78	0.4
401.986	0.36
402.191	0.36
402.396	0.37
402.601	0.45
402.807	0.45
403.012	0.36
403.217	0.44
403.422	0.41
403.627	0.43
403.832	0.4
404.037	0.47
404.243	0.44
404.448	0.42
404.653	0.42
404.858	0.47
405.063	0.45
405.268	0.38
405.473	0.35
405.678	0.44
405.883	0.68
406.088	0.53
406.293	0.42
406.498	0.45
406.703	0.51
406.907	0.44
407.112	0.45
407.317	0.5
407.522	0.56
407.727	0.48
407.932	0.54
408.136	0.69
408.341	0.61
408.546	0.59
408.751	0.57
408.956	0.59
409.16	0.68
409.365	0.62
409.57	0.6
409.774	0.66
409.979	0.76
410.184	0.71
410.388	0.56
410.593	0.76
410.798	0.77
411.002	0.78
411.207	0.79
411.411	0.84
411.616	0.75
411.82	0.82
412.025	0.88
412.229	0.85
412.434	0.94
412.638	0.93
412.843	0.9
413.047	1.03
413.252	0.93
413.456	1.03
413.66	1.06
413.865	1.06
414.069	1.18
414.273	1.09
414.478	1.1
414.682	1.18
414.886	1.25
415.091	1.19
415.295	1.21
415.499	1.44
415.703	1.37
415.908	1.45
416.112	1.37
416.316	1.61
416.52	1.53
416.724	1.59
416.929	1.63
417.133	1.86
417.337	1.75
417.541	1.8
417.745	1.86
417.949	1.99
418.153	2.06
418.357	2.03
418.561	2.32
418.765	2.25
418.969	2.42
419.173	2.44
419.377	2.42
419.581	2.69
419.785	2.71
419.989	2.67
420.193	2.86
420.397	2.98
420.601	3
420.804	3.21
421.008	3.15
421.212	3.36
421.416	3.31
421.62	3.3
421.823	3.36
422.027	3.55
422.231	3.52
422.435	3.47
422.638	3.64
422.842	3.74
423.046	3.75
423.249	4.04
423.453	4.03
423.657	4.19
423.86	4.27
424.064	4.39
424.268	4.55
424.471	4.52
424.675	4.73
424.878	4.86
425.082	4.88
425.285	5.22
425.489	5.14
425.692	5.29
425.896	5.28
426.099	5.53
426.303	5.71
426.506	5.72
426.71	6.09
426.913	6.31
427.116	6.41
427.32	6.34
427.523	6.48
427.726	6.73
427.93	6.84
428.133	7.2
428.336	7.3
428.54	7.44
428.743	7.7
428.946	7.96
429.149	7.98
429.353	7.93
429.556	8.07
429.759	8.15
429.962	8.24
430.165	8.46
430.368	8.04
430.571	8.1
430.775	8.2
430.978	8.04
431.181	8.27
431.384	8.22
431.587	8.42
431.79	8.84
431.993	8.67
432.196	8.95
432.399	9.36
432.602	9.53
432.805	9.65
433.008	10.16
433.211	9.92
433.414	10.33
433.616	10.41
433.819	10.3
434.022	10.54
434.225	10.69
434.428	10.69
434.631	11.1
434.833	10.91
435.036	11.12
435.239	11.44
435.442	11.38
435.645	11.57
435.847	11.7
436.05	11.88
436.253	12.25
436.455	12.24
436.658	12.08
436.861	12.39
437.063	12.51
437.266	12.5
437.468	12.77
437.671	13.15
437.874	13.14
438.076	12.98
438.279	13.5
438.481	13.6
438.684	14.44
438.886	13.88
439.089	14.27
439.291	14.31
439.494	14.53
439.696	14.71
439.899	15.35
440.101	15.77
440.303	15.88
440.506	16.62
440.708	16.3
440.91	16.56
441.113	16.7
441.315	17.09
441.517	16.75
441.72	17.37
441.922	17.01
442.124	16.79
442.326	17.29
442.529	17.49
442.731	17.42
442.933	17.77
443.135	17.47
443.337	17.49
443.539	18.06
443.742	17.71
443.944	18.36
444.146	18.28
444.348	18.06
444.55	18.09
444.752	18.18
444.954	18.16
445.156	18.12
445.358	18.42
445.56	18.7
445.762	18.55
445.964	18.73
446.166	18.47
446.368	18.67
446.57	18.59
446.772	18.17
446.974	18.02
447.175	18.29
447.377	17.99
447.579	18.34
447.781	17.93
447.983	17.7
448.184	17.42
448.386	17.75
448.588	17.18
448.79	17.13
448.991	17.48
449.193	17.44
449.395	16.73
449.597	16.61
449.798	16.51
450	15.97
450.202	15.78
450.403	15.87
450.605	15.67
450.806	15.16
451.008	15.14
451.21	14.97
451.411	14.53
451.613	13.84
451.814	13.99
452.016	14.02
452.217	13.19
452.419	13.22
452.62	13.03
452.821	12.58
453.023	12.59
453.224	12.18
453.426	11.75
453.627	11.06
453.828	11.17
454.03	11.3
454.231	11.13
454.432	10.99
454.634	10.8
454.835	10.46
455.036	10.4
455.238	10.05
455.439	9.81
455.64	9.5
455.841	9.42
456.042	9.52
456.244	9.09
456.445	8.82
456.646	8.54
456.847	8.53
457.048	8.42
457.249	8.36
457.45	8.2
457.651	7.7
457.852	7.56
458.054	7.18
458.255	7.15
458.456	7.24
458.657	7.12
458.858	6.76
459.058	6.65
459.259	6.74
459.46	6.41
459.661	6.28
459.862	6.46
460.063	6.35
460.264	6.16
460.465	5.93
460.666	6.09
460.866	5.76
461.067	5.46
461.268	5.46
461.469	5.44
461.67	5.36
461.87	5.25
462.071	5.28
462.272	5.08
462.473	4.98
462.673	5.32
462.874	5.11
463.075	5.06
463.275	5.06
463.476	5.22
463.676	5.11
463.877	4.96
464.078	4.91
464.278	4.95
464.479	4.79
464.679	4.73
464.88	4.63
465.08	4.73
465.281	4.46
465.481	4.26
465.682	4.09
465.882	4.15
466.083	4.08
466.283	4.06
466.483	3.87
466.684	3.72
466.884	3.57
467.085	3.59
467.285	3.74
467.485	3.62
467.686	3.5
467.886	3.38
468.086	3.36
468.286	3.41
468.487	3.44
468.687	3.23
468.887	3.22
469.087	3.29
469.287	3.18
469.488	3.1
469.688	3.15
469.888	3.16
470.088	3.1
470.288	3.03
470.488	3.04
470.688	2.87
470.888	2.84
471.088	2.67
471.288	2.77
471.488	2.76
471.688	2.77
471.888	2.64
472.088	2.78
472.288	2.7
472.488	2.58
472.688	2.57
472.888	2.6
473.088	2.59
473.288	2.45
473.488	2.45
473.688	2.58
473.887	2.5
474.087	2.39
474.287	2.41
474.487	2.36
474.687	2.42
474.886	2.31
475.086	2.29
475.286	2.26
475.486	2.23
475.685	2.21
475.885	2.19
476.085	2.3
476.284	2.27
476.484	2.27
476.684	2.22
476.883	2.28
477.083	2.15
477.282	2.15
477.482	2.14
477.681	2.17
477.881	2.06
478.08	2.1
478.28	2.04
478.479	2.08
478.679	2.2
478.878	2
479.078	2.03
479.277	2.09
479.477	1.99
479.676	2.03
479.875	2.03
480.075	1.96
480.274	2.06
480.473	2.06
480.673	2
480.872	2.07
481.071	2.06
481.271	2.07
481.47	1.99
481.669	1.97
481.868	1.92
482.067	1.98
482.267	1.91
482.466	1.97
482.665	1.93
482.864	1.9
483.063	1.95
483.262	2.01
483.461	2.03
483.661	2.06
483.86	1.95
484.059	2.06
484.258	2.06
484.457	2.01
484.656	2.05
484.855	2.08
485.054	1.91
485.253	1.95
485.452	1.96
485.651	2.08
485.849	2
486.048	2.01
486.247	2.04
486.446	2.07
486.645	2.01
486.844	2.08
487.043	2.01
487.241	2.06
487.44	2.08
487.639	2.09
487.838	2.1
488.037	2.13
488.235	2.24
488.434	2.18
488.633	2.02
488.831	2.27
489.03	2.21
489.229	2.24
489.427	2.2
489.626	2.23
489.825	2.3
490.023	2.31
490.222	2.26
490.42	2.32
490.619	2.35
490.817	2.37
491.016	2.36
491.214	2.42
491.413	2.37
491.611	2.36
491.81	2.41
492.008	2.43
492.207	2.55
492.405	2.54
492.604	2.42
492.802	2.54
493	2.6
493.199	2.58
493.397	2.63
493.595	2.73
493.794	2.69
493.992	2.79
494.19	2.7
494.388	2.8
494.587	2.74
494.785	2.8
494.983	2.72
495.181	2.88
495.379	2.85
495.578	2.94
495.776	2.98
495.974	2.94
496.172	2.91
496.37	3.1
496.568	3.09
496.766	3.1
496.964	3.18
497.162	3.2
497.36	3.22
497.558	3.22
497.756	3.29
497.954	3.3
498.152	3.34
498.35	3.43
498.548	3.39
498.746	3.39
498.944	3.41
499.142	3.45
499.34	3.54
499.538	3.64
499.736	3.52
499.933	3.65
500.131	3.63
500.329	3.79
500.527	3.74
500.725	3.88
500.922	3.91
501.12	3.87
501.318	3.98
501.516	3.93
501.713	3.98
501.911	4.02
502.109	3.95
502.306	4.12
502.504	3.98
502.701	4.09
502.899	4.16
503.097	4.45
503.294	4.19
503.492	4.37
503.689	4.36
503.887	4.42
504.084	4.45
504.282	4.42
504.479	4.46
504.677	4.59
504.874	4.51
505.072	4.48
505.269	4.69
505.466	4.68
505.664	4.73
505.861	4.66
506.059	4.75
506.256	4.85
506.453	4.85
506.651	4.99
506.848	4.95
507.045	4.97
507.242	4.97
507.44	5.01
507.637	5.1
507.834	5.02
508.031	5.26
508.229	5.16
508.426	5.11
508.623	5.24
508.82	5.34
509.017	5.31
509.214	5.28
509.411	5.41
509.608	5.31
509.805	5.53
510.003	5.46
510.2	5.49
510.397	5.72
510.594	5.52
510.791	5.66
510.988	5.64
511.184	5.67
511.381	5.56
511.578	5.73
511.775	5.83
511.972	5.76
512.169	5.82
512.366	5.81
512.563	5.94
512.76	5.98
512.956	6.02
513.153	5.92
513.35	5.92
513.547	5.93
513.744	6
513.94	6.02
514.137	6.17
514.334	6.13
514.53	6.23
514.727	6.37
514.924	6.25
515.12	6.28
515.317	6.28
515.514	6.19
515.71	6.18
515.907	6.41
516.103	6.43
516.3	6.39
516.497	6.5
516.693	6.53
516.89	6.49
517.086	6.52
517.283	6.6
517.479	6.42
517.676	6.59
517.872	6.65
518.068	6.66
518.265	6.59
518.461	6.58
518.658	6.73
518.854	6.68
519.05	6.82
519.247	6.85
519.443	6.82
519.639	6.95
519.836	6.8
520.032	6.76
520.228	6.9
520.424	6.87
520.621	6.97
520.817	6.98
521.013	6.86
521.209	7.16
521.405	7.14
521.601	7.04
521.798	7.06
521.994	7.1
522.19	6.96
522.386	7.04
522.582	7.15
522.778	7.22
522.974	7.1
523.17	7.11
523.366	7.12
523.562	7.2
523.758	7.24
523.954	7.06
524.15	7.22
524.346	7.19
524.542	7.23
524.738	7.24
524.934	7.4
525.129	7.42
525.325	7.23
525.521	7.28
525.717	7.46
525.913	7.36
526.109	7.33
526.304	7.52
526.5	7.42
526.696	7.47
526.892	7.4
527.087	7.61
527.283	7.55
527.479	7.53
527.674	7.36
527.87	7.52
528.066	7.5
528.261	7.58
528.457	7.5
528.653	7.54
528.848	7.63
529.044	7.69
529.239	7.53
529.435	7.54
529.63	7.52
529.826	7.56
530.021	7.59
530.217	7.67
530.412	7.57
530.608	7.63
530.803	7.6
530.999	7.54
531.194	7.7
531.389	7.7
531.585	7.68
531.78	7.83
531.975	7.72
532.171	7.82
532.366	7.77
532.561	7.79
532.757	7.66
532.952	7.92
533.147	7.67
533.342	7.81
533.538	7.66
533.733	7.9
533.928	7.57
534.123	7.8
534.318	7.8
534.513	7.71
534.709	7.99
534.904	7.83
535.099	7.93
535.294	7.93
535.489	7.92
535.684	7.82
535.879	7.86
536.074	7.93
536.269	7.92
536.464	7.94
536.659	7.94
536.854	7.92
537.049	7.97
537.244	7.93
537.439	7.96
537.634	7.96
537.828	7.99
538.023	7.94
538.218	7.91
538.413	7.82
538.608	7.97
538.803	7.9
538.997	7.97
539.192	7.96
539.387	7.9
539.582	7.95
539.776	7.89
539.971	8.06
540.166	8.08
540.36	7.91
540.555	8.07
540.75	7.99
540.944	8.04
541.139	7.98
541.334	8.04
541.528	8.02
541.723	8.09
541.917	8.09
542.112	7.92
542.306	7.9
542.501	7.93
542.695	7.97
542.89	7.97
543.084	8
543.279	8.03
543.473	8.07
543.668	8.09
543.862	8
544.056	7.97
544.251	8.05
544.445	8.13
544.64	8.21
544.834	7.84
545.028	7.71
545.222	8.07
545.417	8.19
545.611	8.15
545.805	8.1
546	7.94
546.194	8.09
546.388	8.15
546.582	8.03
546.776	8.01
546.97	8.11
547.165	8.12
547.359	8.07
547.553	8.01
547.747	8.01
547.941	8.22
548.135	8.09
548.329	8.21
548.523	8.06
548.717	7.99
548.911	8.02
549.105	8.06
549.299	8.08
549.493	8.08
549.687	8.04
549.881	8.17
550.075	8.12
550.269	7.95
550.463	8.07
550.657	8.12
550.85	8.03
551.044	8.11
551.238	8.13
551.432	8.09
551.626	8.13
551.82	8.1
552.013	8
552.207	8.21
552.401	8.23
552.594	8.02
552.788	8.1
552.982	8.05
553.176	7.98
553.369	8.26
553.563	8.13
553.756	8.05
553.95	8.18
554.144	8.16
554.337	8.15
554.531	7.97
554.724	8.17
554.918	8.19
555.111	8.1
555.305	8.08
555.498	8.07
555.692	8.2
555.885	8.2
556.079	8.13
556.272	8.14
556.466	8.09
556.659	8.13
556.852	8.15
557.046	8.09
557.239	7.98
557.432	8.1
557.626	8.16
557.819	8.21
558.012	8.16
558.206	8.23
558.399	8.16
558.592	8.11
558.785	8.14
558.979	8.11
559.172	8.15
559.365	8.15
559.558	8.04
559.751	8.04
559.944	8.23
560.138	8.09
560.331	8.12
560.524	8.1
560.717	8.08
560.91	8.1
561.103	8.19
561.296	7.99
561.489	8.14
561.682	8.14
561.875	8.11
562.068	8.15
562.261	7.95
562.454	8.27
562.647	8.11
562.84	8.15
563.032	8.2
563.225	8.02
563.418	8.15
563.611	8.19
563.804	8.08
563.997	7.97
564.19	7.91
564.382	8.14
564.575	8.14
564.768	8.07
564.961	8.23
565.153	8.05
565.346	7.95
565.539	8.16
565.731	8.11
565.924	8.2
566.117	8.22
566.309	8.11
566.502	8.02
566.695	8.02
566.887	8.16
567.08	8.07
567.272	8.11
567.465	8.01
567.657	8.1
567.85	8.01
568.042	8.1
568.235	8.13
568.427	7.97
568.62	8.07
568.812	8.04
569.005	8.14
569.197	7.97
569.389	8.09
569.582	8.08
569.774	8.05
569.966	7.94
570.159	8.01
570.351	7.97
570.543	8.06
570.736	8.04
570.928	7.93
571.12	8.05
571.312	7.92
571.505	7.78
571.697	8.07
571.889	8.09
572.081	8
572.273	7.91
572.465	7.97
572.658	8.02
572.85	8.09
573.042	8.03
573.234	7.96
573.426	8.01
573.618	7.93
573.81	8.05
574.002	8
574.194	8.03
574.386	7.87
574.578	7.8
574.77	7.9
574.962	8.01
575.154	7.81
575.346	7.86
575.538	7.84
575.729	7.83
575.921	7.91
576.113	7.99
576.305	7.89
576.497	7.95
576.689	7.79
576.88	7.77
577.072	8.01
577.264	7.91
577.456	7.86
577.647	7.83
577.839	7.96
578.031	7.92
578.223	7.79
578.414	7.77
578.606	7.83
578.798	7.89
578.989	7.84
579.181	7.88
579.372	7.82
579.564	7.87
579.755	7.78
579.947	7.7
580.139	7.84
580.33	7.65
580.522	7.76
580.713	7.75
580.905	7.78
581.096	7.84
581.287	7.77
581.479	7.71
581.67	7.79
581.862	7.7
582.053	7.74
582.244	7.56
582.436	7.86
582.627	7.66
582.818	7.59
583.01	7.61
583.201	7.65
583.392	7.68
583.583	7.63
583.775	7.47
583.966	7.52
584.157	7.64
584.348	7.71
584.54	7.6
584.731	7.63
584.922	7.53
585.113	7.45
585.304	7.59
585.495	7.61
585.686	7.68
585.877	7.64
586.068	7.64
586.259	7.61
586.45	7.52
586.641	7.51
586.832	7.55
587.023	7.5
587.214	7.43
587.405	7.57
587.596	7.41
587.787	7.43
587.978	7.46
588.169	7.33
588.36	7.34
588.551	7.39
588.742	7.41
588.932	7.47
589.123	7.23
589.314	7.48
589.505	7.41
589.696	7.36
589.886	7.27
590.077	7.35
590.268	7.31
590.458	7.28
590.649	7.13
590.84	7.32
591.03	7.27
591.221	7.23
591.412	7.21
591.602	7.41
591.793	7.22
591.984	7.28
592.174	7.22
592.365	7.4
592.555	7.11
592.746	7.19
592.936	7.17
593.127	7.24
593.317	7.22
593.508	7.22
593.698	7.1
593.889	7.12
594.079	7.1
594.269	7.02
594.46	7.08
594.65	7.08
594.84	7.07
595.031	7
595.221	7.02
595.411	7.01
595.602	7.06
595.792	7.02
595.982	6.85
596.172	7.03
596.363	6.87
596.553	6.95
596.743	6.97
596.933	6.89
597.123	6.88
597.314	6.8
597.504	6.76
597.694	6.96
597.884	6.83
598.074	6.81
598.264	6.83
598.454	6.8
598.644	6.83
598.834	6.8
599.024	6.68
599.214	6.68
599.404	6.83
599.594	6.69
599.784	6.66
599.974	6.8
600.164	6.73
600.354	6.58
600.544	6.54
600.734	6.67
600.924	6.67
601.114	6.5
601.303	6.48
601.493	6.61
601.683	6.58
601.873	6.55
602.063	6.43
602.252	6.54
602.442	6.4
602.632	6.46
602.821	6.44
603.011	6.48
603.201	6.49
603.39	6.38
603.58	6.23
603.77	6.4
603.959	6.48
604.149	6.35
604.339	6.37
604.528	6.45
604.718	6.38
604.907	6.3
605.097	6.23
605.286	6.24
605.476	6.25
605.665	6.31
605.855	6.17
606.044	6.29
606.234	6.21
606.423	6.2
606.612	6.13
606.802	6.12
606.991	6.25
607.181	6.19
607.37	6.2
607.559	5.97
607.749	6.07
607.938	6
608.127	6.04
608.316	6.01
608.506	6.01
608.695	6.03
608.884	5.98
609.073	6.06
609.263	6.06
609.452	5.99
609.641	5.91
609.83	5.81
610.019	6.01
610.208	5.84
610.397	5.85
610.586	5.91
610.775	5.77
610.965	5.82
611.154	5.71
611.343	5.81
611.532	5.7
611.721	5.82
611.91	5.73
612.099	5.72
612.287	5.65
612.476	5.55
612.665	5.71
612.854	5.62
613.043	5.66
613.232	5.6
613.421	5.57
613.61	5.6
613.798	5.56
613.987	5.6
614.176	5.48
614.365	5.57
614.554	5.51
614.742	5.59
614.931	5.39
615.12	5.52
615.309	5.48
615.497	5.41
615.686	5.36
615.875	5.36
616.063	5.43
616.252	5.28
616.44	5.32
616.629	5.3
616.818	5.36
617.006	5.29
617.195	5.25
617.383	5.27
617.572	5.16
617.76	5.18
617.949	5.18
618.137	5.25
618.326	5.25
618.514	4.98
618.703	5.06
618.891	5.2
619.079	5.05
619.268	5.21
619.456	5.06
619.644	5.13
619.833	5.06
620.021	4.96
620.209	4.95
620.398	4.96
620.586	4.93
620.774	5.02
620.962	4.94
621.151	5.03
621.339	4.89
621.527	4.83
621.715	4.88
621.903	4.88
622.092	4.74
622.28	4.91
622.468	4.66
622.656	4.81
622.844	4.75
623.032	4.8
623.22	4.62
623.408	4.84
623.596	4.78
623.784	4.75
623.972	4.72
624.16	4.64
624.348	4.72
624.536	4.76
624.724	4.6
624.912	4.64
625.1	4.74
625.288	4.54
625.476	4.46
625.664	4.61
625.851	4.53
626.039	4.55
626.227	4.5
626.415	4.56
626.603	4.46
626.79	4.47
626.978	4.45
627.166	4.48
627.354	4.38
627.541	4.35
627.729	4.23
627.917	4.52
628.104	4.47
628.292	4.31
628.48	4.32
628.667	4.28
628.855	4.36
629.042	4.38
629.23	4.18
629.418	4.24
629.605	4.3
629.793	4.12
629.98	4.16
630.168	4.18
630.355	4.27
630.543	4.15
630.73	4.05
630.917	4.12
631.105	4.23
631.292	4.12
631.48	4.07
631.667	4.21
631.854	4.03
632.042	4.04
632.229	3.94
632.416	4.02
632.604	4.01
632.791	3.86
632.978	4
633.165	3.95
633.353	4
633.54	3.97
633.727	3.78
633.914	3.85
634.101	3.8
634.289	3.97
634.476	3.8
634.663	3.79
634.85	3.86
635.037	3.75
635.224	3.7
635.411	3.83
635.598	3.73
635.785	3.71
635.972	3.67
636.159	3.71
636.346	3.7
636.533	3.57
636.72	3.66
636.907	3.6
637.094	3.6
637.281	3.5
637.468	3.64
637.655	3.55
637.842	3.57
638.029	3.55
638.215	3.53
638.402	3.53
638.589	3.48
638.776	3.48
638.963	3.42
639.149	3.56
639.336	3.54
639.523	3.48
639.709	3.41
639.896	3.45
640.083	3.42
640.27	3.42
640.456	3.36
640.643	3.35
640.829	3.26
641.016	3.31
641.203	3.22
641.389	3.31
641.576	3.28
641.762	3.24
641.949	3.26
642.135	3.26
642.322	3.26
642.508	3.14
642.695	3.22
642.881	3.13
643.068	3.11
643.254	3.17
643.441	3.15
643.627	3.17
643.813	3.06
644	3.12
644.186	3.04
644.372	3.04
644.559	3.11
644.745	3.04
644.931	3
645.118	3.09
645.304	3.02
645.49	2.97
645.676	3.03
645.862	2.97
646.049	3.05
646.235	2.97
646.421	3.05
646.607	3.06
646.793	2.94
646.979	2.79
647.165	2.91
647.352	2.92
647.538	2.9
647.724	2.83
647.91	2.82
648.096	2.87
648.282	2.87
648.468	2.76
648.654	2.82
648.84	2.86
649.026	2.82
649.212	2.77
649.397	2.7
649.583	2.7
649.769	2.75
649.955	2.7
650.141	2.74
650.327	2.73
650.513	2.63
650.698	2.7
650.884	2.56
651.07	2.7
651.256	2.65
651.442	2.6
651.627	2.53
651.813	2.66
651.999	2.58
652.184	2.48
652.37	2.55
652.556	2.55
652.741	2.63
652.927	2.38
653.113	2.49
653.298	2.56
653.484	2.5
653.669	2.43
653.855	2.44
654.04	2.53
654.226	2.5
654.412	2.41
654.597	2.37
654.782	2.43
654.968	2.49
655.153	2.38
655.339	2.38
655.524	2.39
655.71	2.41
655.895	2.31
656.08	2.32
656.266	2.4
656.451	2.33
656.636	2.23
656.822	2.34
657.007	2.3
657.192	2.27
657.378	2.25
657.563	2.27
657.748	2.26
657.933	2.29
658.118	2.22
658.304	2.17
658.489	2.25
658.674	2.2
658.859	2.16
659.044	2.16
659.229	2.25
659.414	2.12
659.599	2.12
659.785	2.05
659.97	2.12
660.155	2.15
660.34	2.12
660.525	2.12
660.71	2.08
660.895	2.12
661.08	2.08
661.264	2.02
661.449	2.12
661.634	2.11
661.819	2.11
662.004	2.02
662.189	1.95
662.374	1.95
662.559	1.92
662.743	1.9
662.928	2.02
663.113	1.95
663.298	1.91
663.483	1.92
663.667	1.94
663.852	1.89
664.037	1.98
664.221	1.93
664.406	2
664.591	1.95
664.775	1.87
664.96	1.86
665.145	1.86
665.329	1.95
665.514	1.86
665.698	1.76
665.883	1.78
666.068	1.93
666.252	1.89
666.437	1.78
666.621	1.88
666.806	1.84
666.99	1.76
667.174	1.73
667.359	1.89
667.543	1.77
667.728	1.79
667.912	1.64
668.096	1.78
668.281	1.66
668.465	1.72
668.649	1.7
668.834	1.69
669.018	1.69
669.202	1.69
669.387	1.65
669.571	1.74
669.755	1.67
669.939	1.65
670.124	1.65
670.308	1.67
670.492	1.64
670.676	1.63
670.86	1.69
671.044	1.56
671.228	1.69
671.413	1.53
671.597	1.48
671.781	1.55
671.965	1.67
672.149	1.58
672.333	1.59
672.517	1.53
672.701	1.59
672.885	1.56
673.069	1.43
673.253	1.6
673.437	1.53
673.621	1.52
673.804	1.6
673.988	1.54
674.172	1.49
674.356	1.44
674.54	1.47
674.724	1.61
674.908	1.49
675.091	1.53
675.275	1.48
675.459	1.55
675.643	1.44
675.826	1.47
676.01	1.41
676.194	1.44
676.377	1.49
676.561	1.46
676.745	1.45
676.928	1.49
677.112	1.48
677.296	1.36
677.479	1.37
677.663	1.34
677.846	1.42
678.03	1.4
678.213	1.32
678.397	1.41
678.58	1.31
678.764	1.36
678.947	1.3
679.131	1.38
679.314	1.38
679.498	1.28
679.681	1.36
679.865	1.39
680.048	1.29
680.231	1.28
680.415	1.3
680.598	1.29
680.781	1.27
680.965	1.25
681.148	1.31
681.331	1.26
681.514	1.32
681.698	1.19
681.881	1.27
682.064	1.33
682.247	1.31
682.43	1.13
682.614	1.21
682.797	1.28
682.98	1.26
683.163	1.1
683.346	1.21
683.529	1.19
683.712	1.19
683.895	1.22
684.078	1.1
684.261	1.21
684.444	1.25
684.627	1.21
684.81	1.18
684.993	1.25
685.176	1.19
685.359	1.11
685.542	1.09
685.725	1.24
685.908	1.16
686.091	1.09
686.274	1.17
686.457	1.2
686.639	1.12
686.822	1.16
687.005	1.16
687.188	1.16
687.371	1.24
687.553	1.2
687.736	1.15
687.919	1.22
688.102	1.19
688.284	1.06
688.467	1.08
688.65	1.09
688.832	1.06
689.015	1.05
689.197	1.01
689.38	1.18
689.563	1.18
689.745	1.01
689.928	1.07
690.11	1
690.293	1.17
690.475	0.94
690.658	1.02
690.84	1.01
691.023	0.95
691.205	0.92
691.388	1
691.57	1.09
691.752	1.03
691.935	0.9
692.117	0.95
692.3	1.02
692.482	0.97
692.664	0.95
692.847	0.96
693.029	1.12
693.211	1.05
693.393	0.98
693.576	0.84
693.758	0.98
693.94	0.91
694.122	0.95
694.304	0.88
694.487	0.97
694.669	1.02
694.851	0.84
695.033	0.84
695.215	0.87
695.397	0.9
695.579	0.9
695.761	0.85
695.943	0.84
696.125	1.04
696.308	0.95
696.49	0.79
696.671	1.1
696.853	0.92
697.035	1.14
697.217	0.85
697.399	0.89
697.581	0.88
697.763	0.87
697.945	0.78
698.127	0.91
698.309	0.99
698.491	0.91
698.672	0.91
698.854	0.87
699.036	0.94
699.218	0.88
699.399	0.86
699.581	0.9
699.763	0.79
699.945	0.75
700.126	0.74
700.308	0.78
700.49	0.81
700.671	0.69
700.853	0.78
701.035	0.83
701.216	0.79
701.398	0.76
701.579	0.76
701.761	0.88
701.943	0.71
702.124	0.72
702.306	0.76
702.487	0.98
702.669	0.76
702.85	0.7
703.031	0.72
703.213	0.95
703.394	0.87
703.576	0.73
703.757	0.92
703.938	0.86
704.12	1
704.301	0.81
704.483	0.7
704.664	0.81
704.845	0.91
705.026	0.81
705.208	0.74
705.389	0.81
705.57	0.77
705.751	0.73
705.933	0.74
706.114	0.81
706.295	0.72
706.476	0.63
706.657	0.82
706.838	0.8
707.02	0.82
707.201	0.67
707.382	0.62
707.563	0.75
707.744	0.7
707.925	0.68
708.106	0.63
708.287	0.7
708.468	0.87
708.649	0.67
708.83	0.72
709.011	0.67
709.192	0.75
709.373	0.6
709.554	0.66
709.734	0.77
709.915	0.79
710.096	0.73
710.277	0.5
710.458	0.65
710.639	0.73
710.819	0.56
711	0.65
711.181	0.7
711.362	0.75
711.542	0.72
711.723	0.64
711.904	0.75
712.085	0.73
712.265	0.69
712.446	0.57
712.627	0.68
712.807	0.6
712.988	0.65
713.168	0.51
713.349	0.72
713.53	0.44
713.71	0.51
713.891	0.51
714.071	0.66
714.252	0.58
714.432	0.58
714.613	0.51
714.793	0.62
714.974	0.73
715.154	0.64
715.334	0.66
715.515	0.74
715.695	0.52
715.876	0.68
716.056	0.5
716.236	0.53
716.417	0.55
716.597	0.5
716.777	0.85
716.957	0.61
717.138	0.61
717.318	0.52
717.498	0.41
717.678	0.57
717.859	0.66
718.039	0.44
718.219	0.54
718.399	0.61
718.579	0.55
718.759	0.42
718.939	0.56
719.12	0.71
719.3	0.56
719.48	0.4
719.66	0.46
719.84	0.67
720.02	0.56
720.2	0.44
720.38	0.52
720.56	0.68
720.74	0.5
720.92	0.55
721.1	0.75
721.279	0.64
721.459	0.55
721.639	0.35
721.819	0.5
721.999	0.5
722.179	0.61
722.359	0.36
722.538	0.46
722.718	0.47
722.898	0.46
723.078	0.52
723.257	0.54
723.437	0.59
723.617	0.55
723.797	0.46
723.976	0.56
724.156	0.68
724.336	0.72
724.515	0.64
724.695	0.35
724.874	0.53
725.054	0.52
725.234	0.42
725.413	0.49
725.593	0.53
725.772	0.56
725.952	0.43
726.131	0.53
726.311	0.56
726.49	0.56
726.67	0.47
726.849	0.41
727.028	0.46
727.208	0.49
727.387	0.48
727.567	0.37
727.746	0.53
727.925	0.47
728.105	0.37
728.284	0.39
728.463	0.51
728.643	0.65
728.822	0.44
729.001	0.48
729.18	0.55
729.359	0.64
729.539	0.51
729.718	0.49
729.897	0.6
730.076	0.52
730.255	0.4
730.434	0.46
730.614	0.62
730.793	0.66
730.972	0.51
731.151	0.47
731.33	0.61
731.509	0.66
731.688	0.48
731.867	0.58
732.046	0.29
732.225	0.75
732.404	0.47
732.583	0.35
732.762	0.47
732.941	0.53
733.12	0.5
733.298	0.39
733.477	0.58
733.656	0.5
733.835	0.41
734.014	0.58
734.193	0.45
734.371	0.52
734.55	0.59
734.729	0.31
734.908	0.52
735.086	0.59
735.265	0.58
735.444	0.28
735.623	0.35
735.801	0.45
735.98	0.49
736.159	0.4
736.337	0.66
736.516	0.54
736.694	0.46
736.873	0.38
737.052	0.75
737.23	0.7
737.409	0.42
737.587	0.72
737.766	0.39
737.944	0.52
738.123	0.52
738.301	0.69
738.479	0.48
738.658	0.47
738.836	0.29
739.015	0.44
739.193	0.56
739.371	0.35
739.55	0.53
739.728	0.43
739.906	0.6
740.085	0.66
740.263	0.59
740.441	0.23
740.62	0.8
740.798	0.53
740.976	0.32
741.154	0.38
741.332	0.76
741.511	0.39
741.689	0.45
741.867	0.52
742.045	0.57
742.223	0.41
742.401	0.35
742.579	0.41
742.757	0.58
742.935	0.29
743.114	0.31
743.292	0.4
743.47	0.44
743.648	0.52
743.826	0.46
744.004	0.46
744.181	0.58
744.359	0.45
744.537	0.43
744.715	0.42
744.893	0.49
745.071	0.48
745.249	0.46
745.427	0.41
745.605	0.59
745.782	0.44
745.96	0.57
746.138	0.57
746.316	0.58
746.493	0.43
746.671	0.48
746.849	0.37
747.027	0.77
747.204	0.45
747.382	0.53
747.56	0.38
747.737	0.49
747.915	0.32
748.093	0.42
748.27	0.35
748.448	0.39
748.625	0.33
748.803	0.25
748.98	0.33
749.158	0.45
749.335	0.5
749.513	0.35
749.69	0.32
749.868	0.42
750.045	0.43
750.223	0.4
750.4	0.17
750.578	0.59
750.755	0.37
750.932	0.24
751.11	0.5
751.287	0.35
751.464	0.69
751.642	0.26
751.819	0.46
751.996	0.5
752.173	0.41
752.351	0.3
752.528	0.44
752.705	0.42
752.882	0.39
753.06	0.42
753.237	0.44
753.414	0.59
753.591	0.64
753.768	0.44
753.945	0.29
754.122	0.43
754.299	0.45
754.476	0.22
754.654	0.38
754.831	0.56
755.008	0.43
755.185	0.29
755.362	0.22
755.539	0.47
755.716	0.25
755.892	0.37
756.069	0.33
756.246	0.45
756.423	0.38
756.6	0.45
756.777	0.23
756.954	0.53
757.131	0.32
757.307	0.36
757.484	0.16
757.661	0.41
757.838	0.49
758.015	0.16
758.191	0.46
758.368	0.55
758.545	0.64
758.721	0.43
758.898	0.23
759.075	0.32
759.251	0.66
759.428	0.52
759.605	0.25
759.781	0.38
759.958	0.59
760.134	0.35
760.311	0.27
760.488	0.6
760.664	0.56
760.841	0.22
761.017	0.34
761.194	0.43
761.37	0.65
761.547	0.45
761.723	0.39
761.899	0.58
762.076	0.31
762.252	0.27
762.429	0.18
762.605	0.65
762.781	0.35
762.958	0.49
763.134	0.31
763.31	0.18
763.486	0.58
763.663	0.15
763.839	0.44
764.015	0.21
764.191	0.33
764.368	0.27
764.544	0.32
764.72	0.28
764.896	0.48
765.072	0.37
765.248	0.38
765.425	0.3
765.601	0.53
765.777	0.32
765.953	0.02
766.129	0.29
766.305	0.27
766.481	0.54
766.657	0.31
766.833	0.51
767.009	0.15
767.185	0.33
767.361	0.34
767.537	0.28
767.713	0.56
767.889	0.18
768.065	0.33
768.24	0.21
768.416	0.59
768.592	0.36
768.768	0.34
768.944	0.52
769.12	0.44
769.295	0.36
769.471	0.39
769.647	0.32
769.823	0.51
769.998	0.23
770.174	0.29
770.35	0.8
770.525	0.83
770.701	0.55
770.877	0.26
771.052	0.21
771.228	0.59
771.403	0.38
771.579	0.5
771.755	0.92
771.93	0.25
772.106	0.22
772.281	-0.08
772.457	0.34
772.632	0.46
772.808	0.1
772.983	0.35
773.159	0.1
773.334	0.61
773.509	0.5
773.685	0.15
773.86	0.88
774.036	0.61
774.211	0.42
774.386	0.16
774.562	0.56
774.737	0.68
774.912	0.29
775.087	0.5
775.263	0.26
775.438	0.47
775.613	0.25
775.788	0.46
775.964	0.64
776.139	0.99
776.314	0.03
776.489	0.45
776.664	0.4
776.839	0.15
777.014	0.41
777.19	0.44
777.365	0.84
777.54	0.83
777.715	0.22
777.89	0.31
778.065	0.3
778.24	0.3
778.415	0.51
778.59	0.12
778.765	0.52
778.94	0.7
779.115	0.27
779.289	0.27
779.464	0.33
779.639	0.22
779.814	0.12
779.989	0.16
780.164	0.73
780.339	0.61
780.513	0.25
780.688	0.18
780.863	0.27
781.038	0.52
781.212	0.2
781.387	0.27
781.562	0.83
781.737	0.09
781.911	0.65
782.086	0.2
782.261	0.5
782.435	0.59
782.61	0.21
782.784	0.45
782.959	0.7
783.134	0.31
783.308	0.21
783.483	0.29
783.657	0.86
783.832	0.76
784.006	0
784.181	0.35
784.355	0.68
784.53	0.33
784.704	0.28
784.878	0.66
785.053	0.65
785.227	0.56
785.402	0.86
785.576	0.37
785.75	0.6
785.925	0.47
786.099	0.4
786.273	0.4
786.448	0.74
786.622	0.7
786.796	0.11
786.97	0.65
787.145	0.99
787.319	0.25
787.493	0.27
787.667	-0.18
787.841	0.36
788.015	0.88
788.19	0.41
788.364	0.27
788.538	0.74
788.712	0.45
788.886	0.55
789.06	0.55
789.234	0.71
789.408	0.14
789.582	0.05
789.756	0.22
789.93	0.39
790.104	0.41
790.278	0.31
790.452	0.24
790.626	0.7
790.8	0.31
790.973	0.61
791.147	0.87
791.321	0.79
791.495	0.85
791.669	0.59
791.843	0.57
792.016	0.6
792.19	1.02
792.364	0.01
792.538	1.23
792.711	0.8
792.885	0.29
793.059	0.09
793.233	-0.28
793.406	0.66
793.58	0.32
793.754	0.5
793.927	0.35
794.101	0.82
794.274	0.49
794.448	0.63
794.622	-0.09
794.795	1.07
794.969	0.42
795.142	0.84
795.316	0.16
795.489	0.35
795.663	1.02
795.836	0.53
796.009	0.13
796.183	0.88
796.356	0.65
796.53	0.46
796.703	0.25
796.876	1.11
797.05	0.34
797.223	0.36
797.396	0.52
797.57	0.3
797.743	0.97
797.916	0.37
798.09	0.19
798.263	1.13
798.436	0.77
798.609	0.22
798.782	0.28
798.956	0.49
799.129	0.67
799.302	0.23
799.475	0.33
799.648	0.67
799.821	0.48
799.994	0.45
800.167	-0
800.34	0.43
800.514	0.54
800.687	0.24
800.86	0.12
801.033	0.72
801.206	0.6
801.379	0.08
801.551	0.89
801.724	0.69
801.897	1.06
802.07	0.6
802.243	-0.02
802.416	0.5
802.589	0.64
802.762	0.62
802.935	0.52
803.107	0.94
803.28	0.72
803.453	0.59
803.626	0.43
803.798	0.63
803.971	0.43
804.144	0.54
804.317	0.82
804.489	0.87
804.662	0.55
804.835	0.33
805.007	0.35
805.18	1.11
805.353	0.69
805.525	0.24
805.698	0.34
805.87	0.71
806.043	0.8
806.215	0
806.388	0.1
806.56	0.83
806.733	0.98
806.905	0.69
807.078	-0.04
807.25	0.13
807.423	0.58
807.595	0.34
807.768	0.35
807.94	0.96
808.112	0.85
808.285	0.56
808.457	0.09
808.629	0.64
808.802	0.8
808.974	0.77
809.146	0.17
809.318	0.47
809.491	0.52
809.663	0.54
809.835	0.23
810.007	0.67
810.18	0.72
810.352	0.06
810.524	0.6
810.696	0.82
810.868	1.34
811.04	0.67
811.212	0.37
811.384	0.88
811.556	0.7
811.728	0.45
811.901	1.36
812.073	0.48
812.245	0.94
812.417	0.58
812.589	-0.21
812.76	1.01
812.932	0.66
813.104	0.81
813.276	0.35
813.448	0.89
813.62	0.74
813.792	0.97
813.964	0.5
814.136	0.86
814.307	0.04
814.479	0.45
814.651	0.45
814.823	1.64
814.995	0.62
815.166	0.6
815.338	0.13
815.51	0.28
815.681	1.4
815.853	0.66
816.025	0.53
816.196	1.74
816.368	1.11
816.54	0.11
816.711	0
816.883	0.94
817.054	1.68
817.226	-0.01
817.398	0.64
817.569	0.22
817.741	1.2
817.912	0.52
818.084	0.42
818.255	1.31
818.426	0.74
818.598	0.35
818.769	0.13
818.941	1.52
819.112	1.56
819.283	0.94
819.455	0.14
819.626	0.69
819.798	1.34
819.969	0.87
820.14	0.28
820.311	0.56
820.483	0.82
820.654	1.08
820.825	0.79
820.996	0.27
821.168	0.26
821.339	0.57
821.51	0.2
821.681	0.19
821.852	0.85
822.023	-0.04
822.195	-0.4
822.366	1.67
822.537	0.63
822.708	0.44
822.879	0.26
823.05	1.8
823.221	0.45
823.392	0.97
823.563	0.68
823.734	0.99
823.905	0.44
824.076	0.05
824.247	-0.01
824.418	0.34
824.589	1.5
824.759	0.68
824.93	0.64
825.101	-0.29
825.272	1.1
825.443	1.12
825.614	1.57
825.784	-0.06
825.955	2.04
826.126	1.09
826.297	0.87
826.467	1.74
826.638	1.64
826.809	0.03
826.98	0.85
827.15	1.88
827.321	0.52
827.492	1.73
827.662	1.16
827.833	2.57
828.003	2.15
828.174	0.29
828.345	0.27
828.515	1.66
828.686	1.43
828.856	0.5
829.027	0.65
829.197	0.79
829.368	1.11
829.538	0.09
829.709	0.31
829.879	1.24
830.049	0.35
830.22	0.61
830.39	0.84
830.56	2.14
830.731	0.96
830.901	0.19
831.072	0.41
831.242	1.21
831.412	1
831.582	0.02
831.753	0.2
831.923	1.2
832.093	1.91
832.263	0.69
832.434	-0.3
832.604	1.13
832.774	1.5
832.944	1.25
833.114	0.23
833.284	1.55
833.454	0.63
833.624	0.01
833.795	0.72
833.965	2
834.135	2.34
834.305	-0.81
834.475	-0.13
834.645	0.71
834.815	0.66
834.985	0.61
835.155	0.31
835.325	0.89
835.494	1.47
835.664	0.29
835.834	0.51
836.004	0.73
836.174	0.99
836.344	0.48
836.514	-0.2
836.684	0.96
836.853	-0.27
837.023	0.93
837.193	0.14
837.363	2.26
837.532	1.74
837.702	0.41
837.872	0.41
838.041	1.55
838.211	3.48
838.381	-0.36
838.55	0.6
838.72	3.63
838.89	2.58
839.059	0.4
839.229	0.1
839.398	3.64
839.568	1.11
839.738	0.21
839.907	1.95
840.077	1.98
840.246	0.64
840.416	-0.2
840.585	0.37
840.755	3.06
840.924	2.15
841.093	0.5
841.263	0.13
841.432	0.59
841.602	0.16
841.771	0.02
841.94	1.24
842.11	3.4
842.279	2.81
842.448	-0
842.617	-0.34
842.787	2.49
842.956	-0.06
843.125	0.66
843.294	0.64
843.464	2.32
843.633	1.82
843.802	0.07
843.971	1.6
844.14	2.5
844.309	2.17
844.479	-0.69
844.648	0.21
844.817	1.87
844.986	1.66
845.155	0.42
845.324	0.52
845.493	1.2
845.662	0.69
845.831	0.9
846	1.66
846.169	0.91
846.338	3.22
846.507	1.28
846.676	0.95
846.844	0.47
847.013	1.45
847.182	0.75
847.351	0.34
847.52	1.45
847.689	1.44
847.858	1.02
848.026	-0.01
848.195	1.57
848.364	1.28
848.533	0.4
848.701	0.83
848.87	1.23
849.039	2.95
849.207	1.93
849.376	3
849.545	3.39
849.713	0.5
849.882	0.4
850.051	1.03
850.219	1.26
850.388	2.59
850.556	-0.19
850.725	0.55
850.893	1.39
851.062	1.08
851.23	2.35
851.399	0.24
851.567	0.67
851.736	1.76
851.904	-0.12
852.073	1.17
852.241	1.63
852.41	1.79
852.578	1.16
852.746	0.25
852.915	2.19
853.083	1.68
853.251	-0.61
853.42	1.89
853.588	1.18
853.756	3.37
853.924	0.68
854.093	1.95
854.261	0.79
854.429	-0.26
854.597	1.51
854.765	0.24
854.934	3.07
855.102	2.81
855.27	0.83
855.438	1.88
855.606	3.46
855.774	3.59
855.942	-0.88
856.11	-1.09
856.278	1.44
856.446	2.38
856.614	0.21
856.782	0.19
856.95	3.42
857.118	2.09
857.286	1.11
857.454	0.73
857.622	3.96
857.79	2.81
857.958	-0.33
858.126	0.62
858.294	-0.38
858.462	1.21
858.629	0.45
858.797	-0.35
858.965	1.42
859.133	1.67
859.301	1.97
859.468	1.15
859.636	2.38
859.804	5.35
859.971	2.31
860.139	0.31
860.307	2.22
860.474	1.21
860.642	0.76
860.81	0.49
860.977	0.45
861.145	3.66
861.313	-0.1
861.48	1.33
861.648	3.34
861.815	1.3
861.983	-0.24
862.15	1.14
862.318	2.86
862.485	4.07
862.653	-0.57
862.82	1.37
862.988	3.85
863.155	2.94
863.322	-0.54
863.49	0.55
863.657	1.56
863.824	3.38
863.992	2.09
864.159	1.2
864.326	3.11
864.494	-0.16
864.661	4.05
864.828	-0.11
864.996	5.19
865.163	3.68
865.33	1.12
865.497	-1.06
865.664	1.25
865.832	-0.44
865.999	0.39
866.166	0.23
866.333	1.93
866.5	1.41
866.667	1.24
866.834	0.15
867.001	3.95
867.168	-1.43
867.335	1.03
867.502	-0.79
867.669	2.49
867.836	5.5
868.003	1.71
868.17	2.82
868.337	1.84
868.504	7.13
868.671	-2.14
868.838	1.48
869.005	2.99
869.172	0.96
869.339	1.08
869.505	1.23
869.672	1.99
869.839	3.74
870.006	1.43
870.173	0.15
870.339	4.06
870.506	4.56
870.673	1.77
870.84	2.96
871.006	2.23
871.173	1.06
871.34	1.67
871.506	-0.9
871.673	1.56
871.839	-1.52
872.006	2.01
872.173	1.13
872.339	3.86
872.506	3.66
872.672	0.54
872.839	-0.67
873.005	2.34
873.172	4.88
873.338	4.18
873.505	2.11
873.671	1.91
873.838	3.06
874.004	-1.38
874.171	0.25
874.337	4.6
874.503	5.31
874.67	1.32
874.836	2.79
875.002	4.73
875.169	4.93
875.335	1.46
875.501	1.56
875.668	1.83
875.834	1.27
876	0.85
876.166	4.27
876.332	4.39
876.499	6.33
876.665	1.68
876.831	1.26
876.997	6.84
877.163	3.96
877.329	1.35
877.495	2.03
877.662	2.45
877.828	0.73
877.994	1.01
878.16	-1.46
878.326	1.31
878.492	4.55
878.658	1.62
878.824	1.93
878.99	3.99
879.156	2.79
879.322	5.95
879.487	1.85
879.653	1.15
879.819	3.35
879.985	0.85
880.151	1.97
880.317	2.82
880.483	2.22
880.648	2.83
880.814	-0.04
880.98	3.86
881.146	-1.47
881.312	0.76
881.477	1.85
881.643	1.44
881.809	5.15
881.974	5.82
882.14	-0.57
882.306	2.93
882.471	7.15
882.637	0.93
882.803	2.64
882.968	6.39
883.134	6.07
883.299	1.55
883.465	2.39
883.63	5.93
883.796	2.88
883.961	1.43
884.127	1.78
884.292	-2.81
884.458	-0.19
884.623	-0.19
