Data from Apollo_Calib_20240827__AbsoluteIrradiance__746__11-35-00-661.txt Node

Date: Wed Aug 28 11:35:00 BST 2024
User: biology
Spectrometer: FLMT08252
Trigger mode: 0
Integration Time (sec): 5.000000E-1
Scans to average: 5
Electric dark correction enabled: true
Nonlinearity correction enabled: false
Boxcar width: 0
XAxis mode: Wavelengths
Number of Pixels in Spectrum: 3648
>>>>>Begin Spectral Data<<<<<
179.588	-0
179.809	-0
180.03	-0
180.251	-0
180.473	-0
180.694	0
180.915	0
181.136	-0
181.357	0
181.578	-0
181.799	-0
182.02	-0
182.241	-0
182.462	-0
182.683	0
182.904	-0
183.125	-0
183.346	0
183.567	0
183.788	0
184.009	0
184.23	0
184.451	0
184.672	0
184.892	0
185.113	0
185.334	0
185.555	0
185.776	0
185.996	0
186.217	0
186.438	0
186.659	0
186.879	0
187.1	0
187.321	0
187.541	0
187.762	0
187.983	0
188.203	0
188.424	0
188.644	0
188.865	0
189.086	0
189.306	0
189.527	0
189.747	0
189.968	0
190.188	0
190.409	0
190.629	0
190.849	0
191.07	0
191.29	0
191.511	0
191.731	0
191.951	0
192.172	0
192.392	0
192.612	0
192.833	0
193.053	0
193.273	0
193.493	0
193.714	0
193.934	0
194.154	0
194.374	0
194.594	0
194.815	0
195.035	0
195.255	0
195.475	0
195.695	0
195.915	0
196.135	0
196.355	0
196.575	0
196.795	0
197.015	0
197.235	0
197.455	0
197.675	0
197.895	0
198.115	0
198.335	0
198.555	0
198.775	0
198.995	0
199.214	0
199.434	0
199.654	0
199.874	0
200.094	2.73
200.313	1.13
200.533	0.87
200.753	0.6
200.973	2.7
201.192	2.55
201.412	0.29
201.632	0.89
201.851	2.08
202.071	0.82
202.291	0.81
202.51	0.46
202.73	1.89
202.95	1
203.169	0.34
203.389	0.94
203.608	1.33
203.828	0.11
204.047	0.72
204.267	1.31
204.486	1.17
204.706	1.4
204.925	1.24
205.145	0.72
205.364	1.24
205.583	1.93
205.803	0.47
206.022	0.6
206.242	1.06
206.461	0.84
206.68	0.67
206.9	1.04
207.119	1.7
207.338	1.62
207.557	0.63
207.777	0.99
207.996	0.66
208.215	1.62
208.434	0.68
208.654	0.16
208.873	0.73
209.092	1.44
209.311	0.8
209.53	0.54
209.749	0.53
209.968	0.77
210.187	0.4
210.407	0.27
210.626	0.41
210.845	1.04
211.064	0.84
211.283	0.4
211.502	0.73
211.721	0.77
211.94	0.58
212.159	0.82
212.377	1
212.596	0.99
212.815	0.8
213.034	0.51
213.253	0.78
213.472	0.98
213.691	0.58
213.91	0.35
214.128	0.37
214.347	1.05
214.566	0.2
214.785	0.32
215.003	0.84
215.222	0.74
215.441	0.8
215.66	0.1
215.878	0.57
216.097	0.89
216.316	0.24
216.534	0.44
216.753	0.52
216.972	0.45
217.19	0.45
217.409	0.5
217.627	0.26
217.846	0.54
218.064	0.57
218.283	0.51
218.501	0.86
218.72	0.74
218.938	0.19
219.157	0.18
219.375	0.75
219.594	0.74
219.812	0.25
220.031	0.22
220.249	0.86
220.467	0.72
220.686	0.45
220.904	0.05
221.122	0.48
221.341	0.72
221.559	0.37
221.777	0.33
221.995	0.57
222.214	0.56
222.432	0.28
222.65	0.5
222.868	0.45
223.086	0.58
223.305	0.47
223.523	0.32
223.741	0.79
223.959	0.46
224.177	-0.01
224.395	0.23
224.613	0.54
224.831	0.63
225.049	0.22
225.267	0.25
225.485	0.43
225.703	0.35
225.921	0.32
226.139	0.38
226.357	0.7
226.575	0.4
226.793	0.25
227.011	1.12
227.229	0.38
227.447	0.66
227.665	0.29
227.883	0.21
228.1	0.43
228.318	0.47
228.536	0.15
228.754	0.25
228.972	0.3
229.189	0.45
229.407	0.22
229.625	0.29
229.843	0.44
230.06	0.52
230.278	0.29
230.496	0.32
230.713	0.38
230.931	0.47
231.149	0.29
231.366	0.15
231.584	0.32
231.801	0.75
232.019	0.29
232.236	0.09
232.454	0.14
232.671	0.35
232.889	0.42
233.106	0.26
233.324	0.27
233.541	0.39
233.759	0.36
233.976	0.12
234.194	0.31
234.411	0.39
234.628	0.21
234.846	0.36
235.063	0.37
235.28	0.18
235.498	0.37
235.715	0.17
235.932	0.49
236.149	0.34
236.367	0.22
236.584	0.17
236.801	0.24
237.018	0.53
237.236	0.31
237.453	0.14
237.67	0.48
237.887	0.31
238.104	0.25
238.321	0.15
238.538	0.2
238.755	0.33
238.973	0.09
239.19	0.23
239.407	0.41
239.624	0.41
239.841	0.2
240.058	0.08
240.275	0.28
240.492	0.34
240.709	0.3
240.925	0.19
241.142	0.23
241.359	0.18
241.576	0.2
241.793	0.15
242.01	0.37
242.227	0.44
242.444	0.26
242.66	0.37
242.877	0.23
243.094	0.26
243.311	0.2
243.527	0.29
243.744	0.4
243.961	0.36
244.178	0.24
244.394	0.18
244.611	0.5
244.828	0.46
245.044	0.12
245.261	0.26
245.477	0.25
245.694	0.37
245.911	0.14
246.127	0.25
246.344	0.47
246.56	0.29
246.777	0.14
246.993	0.27
247.21	0.26
247.426	0.34
247.643	0.2
247.859	0.19
248.076	0.17
248.292	0.5
248.508	0.19
248.725	0.23
248.941	0.24
249.157	0.35
249.374	0.23
249.59	0.23
249.806	0.26
250.023	0.43
250.239	0.18
250.455	0.12
250.671	0.26
250.888	0.34
251.104	0.27
251.32	0.21
251.536	0.17
251.752	0.23
251.969	0.23
252.185	0.28
252.401	0.41
252.617	0.25
252.833	0.23
253.049	0.31
253.265	0.26
253.481	0.3
253.697	0.22
253.913	0.15
254.129	0.29
254.345	0.27
254.561	0.14
254.777	0.13
254.993	0.25
255.209	0.21
255.425	0.21
255.641	0.22
255.857	0.3
256.073	0.31
256.288	0.1
256.504	0.12
256.72	0.17
256.936	0.37
257.152	0.19
257.367	0.15
257.583	0.25
257.799	0.26
258.015	0.15
258.23	0.17
258.446	0.39
258.662	0.25
258.877	0.09
259.093	0.17
259.309	0.3
259.524	0.23
259.74	0.18
259.955	0.07
260.171	0.23
260.387	0.16
260.602	0.29
260.818	0.23
261.033	0.12
261.249	0.18
261.464	0.18
261.68	0.09
261.895	0.21
262.11	0.3
262.326	0.17
262.541	0.06
262.757	0.2
262.972	0.29
263.187	0.18
263.403	0.27
263.618	0.3
263.833	0.22
264.049	0.14
264.264	0.21
264.479	0.18
264.694	0.26
264.91	0.13
265.125	0.23
265.34	0.34
265.555	0.36
265.77	0.23
265.986	0.17
266.201	0.22
266.416	0.32
266.631	0.17
266.846	0.2
267.061	0.25
267.276	0.27
267.491	0.1
267.706	0.24
267.921	0.28
268.136	0.19
268.351	0.13
268.566	0.16
268.781	0.32
268.996	0.25
269.211	0.19
269.426	0.1
269.641	0.26
269.856	0.22
270.071	0.14
270.285	0.12
270.5	0.28
270.715	0.23
270.93	0.14
271.145	0.2
271.359	0.25
271.574	0.13
271.789	0.19
272.004	0.15
272.218	0.26
272.433	0.25
272.648	0.1
272.862	0.23
273.077	0.24
273.292	0.24
273.506	0.19
273.721	0.16
273.936	0.25
274.15	0.31
274.365	0.17
274.579	0.22
274.794	0.24
275.008	0.24
275.223	0.15
275.437	0.13
275.652	0.27
275.866	0.18
276.081	0.18
276.295	0.26
276.509	0.24
276.724	0.2
276.938	0.17
277.153	0.2
277.367	0.24
277.581	0.14
277.796	0.16
278.01	0.17
278.224	0.24
278.438	0.32
278.653	0.16
278.867	0.19
279.081	-0.03
279.295	0.19
279.51	0.16
279.724	0.1
279.938	0.26
280.152	0.25
280.366	0.13
280.58	0.2
280.794	0.25
281.008	0.22
281.222	0.27
281.437	0.31
281.651	0.2
281.865	0.29
282.079	0.22
282.293	0.05
282.507	0.11
282.721	0.18
282.935	0.15
283.148	0.06
283.362	0.14
283.576	0.09
283.79	0.19
284.004	0.12
284.218	0.27
284.432	0.17
284.646	0.19
284.859	0.16
285.073	0.1
285.287	0.2
285.501	0.18
285.714	0.16
285.928	0.22
286.142	0.19
286.356	0.18
286.569	0.16
286.783	0.28
286.997	0.24
287.21	0.22
287.424	0.16
287.637	0.15
287.851	0.1
288.065	0.21
288.278	0.15
288.492	0.19
288.705	0.15
288.919	0.14
289.132	0.14
289.346	0.24
289.559	0.08
289.773	0.07
289.986	0.13
290.2	0.14
290.413	0.25
290.626	0.12
290.84	0.15
291.053	0.2
291.267	0.27
291.48	0.13
291.693	0.15
291.906	0.13
292.12	0.18
292.333	0.1
292.546	0.17
292.76	0.26
292.973	0.23
293.186	0.19
293.399	0.15
293.612	0.23
293.826	0.13
294.039	0.17
294.252	0.13
294.465	0.22
294.678	0.2
294.891	0.17
295.104	0.09
295.317	0.13
295.53	0.23
295.743	0.14
295.956	0.13
296.169	0.27
296.382	0.18
296.595	0.17
296.808	0.08
297.021	0.23
297.234	0.18
297.447	0.16
297.66	0.17
297.873	0.26
298.086	0.18
298.299	0.1
298.511	0.07
298.724	0.16
298.937	0.11
299.15	0.15
299.363	0.13
299.575	0.24
299.788	0.2
300.001	0.14
300.213	0.11
300.426	0.15
300.639	0.09
300.852	0.12
301.064	0.23
301.277	0.23
301.489	0.2
301.702	0.2
301.915	0.17
302.127	0.19
302.34	0.17
302.552	0.17
302.765	0.1
302.977	0.2
303.19	0.08
303.402	0.14
303.615	0.15
303.827	0.16
304.04	0.14
304.252	0.19
304.464	0.13
304.677	0.28
304.889	0.25
305.102	0.1
305.314	0.13
305.526	0.14
305.739	0.16
305.951	0.09
306.163	0.12
306.375	0.22
306.588	0.17
306.8	0.13
307.012	0.06
307.224	0.16
307.436	0.21
307.649	0.07
307.861	0.13
308.073	0.16
308.285	0.12
308.497	0.11
308.709	0.15
308.921	0.16
309.133	0.19
309.346	0.18
309.558	0.12
309.77	0.17
309.982	0.19
310.194	0.18
310.406	0.11
310.617	0.24
310.829	0.14
311.041	0.17
311.253	0.11
311.465	0.16
311.677	0.16
311.889	0.13
312.101	0.11
312.313	0.16
312.524	0.22
312.736	0.1
312.948	0.13
313.16	0.21
313.372	0.2
313.583	0.14
313.795	0.12
314.007	0.12
314.218	0.22
314.43	0.14
314.642	0.1
314.853	0.08
315.065	0.18
315.277	0.13
315.488	0.15
315.7	0.18
315.912	0.16
316.123	0.13
316.335	0.12
316.546	0.29
316.758	0.17
316.969	0.16
317.181	0.13
317.392	0.1
317.604	0.2
317.815	0.11
318.026	0.1
318.238	0.13
318.449	0.16
318.661	0.08
318.872	0.1
319.083	0.09
319.295	0.21
319.506	0.11
319.717	0.17
319.929	0.18
320.14	0.16
320.351	0.15
320.562	0.09
320.774	0.14
320.985	0.16
321.196	0.14
321.407	0.07
321.618	0.2
321.829	0.2
322.041	0.19
322.252	0.16
322.463	0.18
322.674	0.18
322.885	0.13
323.096	0.14
323.307	0.14
323.518	0.16
323.729	0.13
323.94	0.12
324.151	0.12
324.362	0.21
324.573	0.16
324.784	0.11
324.995	0.18
325.206	0.15
325.417	0.09
325.628	0.11
325.838	0.14
326.049	0.12
326.26	0.17
326.471	0.11
326.682	0.14
326.892	0.18
327.103	0.09
327.314	0.13
327.525	0.19
327.735	0.19
327.946	0.16
328.157	0.11
328.368	0.16
328.578	0.17
328.789	0.17
328.999	0.14
329.21	0.09
329.421	0.24
329.631	0.1
329.842	0.11
330.052	0.19
330.263	0.21
330.473	0.18
330.684	0.12
330.894	0.18
331.105	0.2
331.315	0.13
331.526	0.12
331.736	0.21
331.947	0.17
332.157	0.18
332.367	0.11
332.578	0.19
332.788	0.24
332.999	0.18
333.209	0.13
333.419	0.07
333.629	0.19
333.84	0.18
334.05	0.18
334.26	0.23
334.47	0.17
334.681	0.19
334.891	0.11
335.101	0.21
335.311	0.24
335.521	0.15
335.732	0.1
335.942	0.24
336.152	0.21
336.362	0.18
336.572	0.17
336.782	0.17
336.992	0.13
337.202	0.14
337.412	0.1
337.622	0.18
337.832	0.16
338.042	0.15
338.252	0.12
338.462	0.15
338.672	0.14
338.882	0.1
339.092	0.14
339.302	0.23
339.511	0.17
339.721	0.1
339.931	0.07
340.141	0.19
340.351	0.21
340.561	0.23
340.77	0.17
340.98	0.15
341.19	0.17
341.4	0.17
341.609	0.08
341.819	0.18
342.029	0.12
342.238	0.18
342.448	0.11
342.658	0.18
342.867	0.15
343.077	0.15
343.286	0.12
343.496	0.16
343.706	0.25
343.915	0.1
344.125	0.11
344.334	0.15
344.544	0.1
344.753	0.1
344.963	0.15
345.172	0.14
345.381	0.09
345.591	0.09
345.8	0.15
346.01	0.23
346.219	0.16
346.428	0.02
346.638	0.14
346.847	0.17
347.056	0.22
347.266	0.12
347.475	0.12
347.684	0.2
347.893	0.16
348.103	0.18
348.312	0.1
348.521	0.18
348.73	0.17
348.94	0.16
349.149	0.07
349.358	0.11
349.567	0.1
349.776	0.08
349.985	0.12
350.194	0.23
350.403	0.26
350.612	0.09
350.821	0.13
351.03	0.17
351.239	0.06
351.448	0.12
351.657	0.13
351.866	0.23
352.075	0.12
352.284	0.21
352.493	0.1
352.702	0.19
352.911	0.17
353.12	0.15
353.329	0.12
353.538	0.17
353.746	0.13
353.955	0.15
354.164	0.13
354.373	0.15
354.582	0.18
354.79	0.13
354.999	0.14
355.208	0.13
355.416	0.22
355.625	0.09
355.834	0.14
356.042	0.15
356.251	0.13
356.46	0.1
356.668	0.19
356.877	0.21
357.085	0.21
357.294	0.06
357.503	0.14
357.711	0.13
357.92	0.29
358.128	0.14
358.337	0.12
358.545	0.18
358.754	0.13
358.962	0.17
359.17	0.15
359.379	0.14
359.587	0.2
359.796	0.16
360.004	0.21
360.212	0.17
360.421	0.22
360.629	0.13
360.837	0.12
361.046	0.17
361.254	0.25
361.462	0.15
361.67	0.14
361.879	0.17
362.087	0.23
362.295	0.13
362.503	0.13
362.711	0.1
362.92	0.11
363.128	0.14
363.336	0.1
363.544	0.12
363.752	0.13
363.96	0.12
364.168	0.12
364.376	0.15
364.584	0.14
364.792	0.16
365	0.13
365.208	0.17
365.416	0.18
365.624	0.16
365.832	0.09
366.04	0.2
366.248	0.13
366.456	0.15
366.664	0.18
366.872	0.16
367.079	0.17
367.287	0.19
367.495	0.17
367.703	0.13
367.911	0.11
368.118	0.14
368.326	0.14
368.534	0.09
368.742	0.16
368.949	0.08
369.157	0.13
369.365	0.2
369.572	0.13
369.78	0.07
369.988	0.19
370.195	0.16
370.403	0.23
370.61	0.09
370.818	0.15
371.026	0.25
371.233	0.12
371.441	0.12
371.648	0.09
371.856	0.16
372.063	0.15
372.271	0.12
372.478	0.17
372.685	0.12
372.893	0.2
373.1	0.11
373.308	0.14
373.515	0.24
373.722	0.18
373.93	0.18
374.137	0.17
374.344	0.19
374.552	0.22
374.759	0.18
374.966	0.12
375.173	0.13
375.381	0.25
375.588	0.18
375.795	0.09
376.002	0.1
376.209	0.12
376.417	0.14
376.624	0.15
376.831	0.21
377.038	0.14
377.245	0.09
377.452	0.13
377.659	0.16
377.866	0.11
378.073	0.18
378.28	0.14
378.487	0.23
378.694	0.17
378.901	0.16
379.108	0.13
379.315	0.21
379.522	0.2
379.729	0.16
379.936	0.17
380.143	0.21
380.35	0.2
380.557	0.14
380.763	0.11
380.97	0.15
381.177	0.18
381.384	0.16
381.591	0.14
381.797	0.16
382.004	0.24
382.211	0.19
382.418	0.12
382.624	0.18
382.831	0.17
383.038	0.13
383.244	0.15
383.451	0.16
383.658	0.18
383.864	0.17
384.071	0.1
384.277	0.27
384.484	0.12
384.69	0.19
384.897	0.13
385.103	0.12
385.31	0.15
385.516	0.14
385.723	0.11
385.929	0.18
386.136	0.15
386.342	0.19
386.549	0.09
386.755	0.22
386.961	0.22
387.168	0.16
387.374	0.18
387.58	0.21
387.787	0.19
387.993	0.17
388.199	0.15
388.406	0.14
388.612	0.12
388.818	0.12
389.024	0.1
389.231	0.21
389.437	0.23
389.643	0.18
389.849	0.17
390.055	0.2
390.261	0.2
390.467	0.22
390.674	0.12
390.88	0.14
391.086	0.18
391.292	0.09
391.498	0.2
391.704	0.2
391.91	0.14
392.116	0.18
392.322	0.08
392.528	0.2
392.734	0.17
392.94	0.17
393.146	0.19
393.352	0.2
393.557	0.16
393.763	0.15
393.969	0.2
394.175	0.18
394.381	0.25
394.587	0.14
394.792	0.18
394.998	0.25
395.204	0.24
395.41	0.14
395.615	0.18
395.821	0.23
396.027	0.21
396.233	0.15
396.438	0.18
396.644	0.19
396.85	0.2
397.055	0.23
397.261	0.2
397.466	0.27
397.672	0.2
397.878	0.24
398.083	0.23
398.289	0.16
398.494	0.29
398.7	0.25
398.905	0.11
399.111	0.21
399.316	0.16
399.522	0.19
399.727	0.18
399.932	0.17
400.138	0.18
400.343	0.19
400.549	0.23
400.754	0.21
400.959	0.21
401.165	0.18
401.37	0.24
401.575	0.17
401.78	0.25
401.986	0.17
402.191	0.24
402.396	0.2
402.601	0.27
402.807	0.26
403.012	0.2
403.217	0.22
403.422	0.26
403.627	0.25
403.832	0.26
404.037	0.28
404.243	0.25
404.448	0.19
404.653	0.23
404.858	0.26
405.063	0.29
405.268	0.18
405.473	0.2
405.678	0.22
405.883	0.42
406.088	0.3
406.293	0.23
406.498	0.25
406.703	0.32
406.907	0.26
407.112	0.25
407.317	0.28
407.522	0.34
407.727	0.21
407.932	0.26
408.136	0.4
408.341	0.32
408.546	0.33
408.751	0.35
408.956	0.31
409.16	0.39
409.365	0.37
409.57	0.35
409.774	0.34
409.979	0.38
410.184	0.38
410.388	0.32
410.593	0.43
410.798	0.49
411.002	0.38
411.207	0.46
411.411	0.46
411.616	0.39
411.82	0.46
412.025	0.53
412.229	0.46
412.434	0.57
412.638	0.53
412.843	0.48
413.047	0.54
413.252	0.5
413.456	0.59
413.66	0.63
413.865	0.55
414.069	0.68
414.273	0.64
414.478	0.57
414.682	0.68
414.886	0.67
415.091	0.65
415.295	0.66
415.499	0.82
415.703	0.74
415.908	0.81
416.112	0.73
416.316	0.94
416.52	0.86
416.724	0.84
416.929	0.84
417.133	1.09
417.337	0.9
417.541	1.05
417.745	1.07
417.949	1.15
418.153	1.15
418.357	1.16
418.561	1.37
418.765	1.26
418.969	1.4
419.173	1.42
419.377	1.42
419.581	1.54
419.785	1.49
419.989	1.48
420.193	1.57
420.397	1.6
420.601	1.75
420.804	1.8
421.008	1.68
421.212	1.88
421.416	1.87
421.62	1.85
421.823	1.95
422.027	2.14
422.231	2.06
422.435	2.01
422.638	2.12
422.842	2.11
423.046	2.14
423.249	2.3
423.453	2.28
423.657	2.42
423.86	2.46
424.064	2.47
424.268	2.65
424.471	2.64
424.675	2.79
424.878	2.81
425.082	2.87
425.285	3.11
425.489	2.91
425.692	3.07
425.896	3.07
426.099	3.28
426.303	3.26
426.506	3.3
426.71	3.37
426.913	3.64
427.116	3.69
427.32	3.67
427.523	3.69
427.726	3.92
427.93	3.94
428.133	4.11
428.336	4.21
428.54	4.32
428.743	4.39
428.946	4.55
429.149	4.54
429.353	4.59
429.556	4.7
429.759	4.72
429.962	4.73
430.165	4.85
430.368	4.7
430.571	4.62
430.775	4.62
430.978	4.66
431.181	4.68
431.384	4.82
431.587	4.82
431.79	5.04
431.993	4.96
432.196	5.21
432.399	5.39
432.602	5.48
432.805	5.5
433.008	5.85
433.211	5.62
433.414	6.07
433.616	6.05
433.819	5.96
434.022	6.07
434.225	6.23
434.428	6.22
434.631	6.54
434.833	6.39
435.036	6.48
435.239	6.67
435.442	6.64
435.645	6.7
435.847	6.82
436.05	6.98
436.253	7.05
436.455	7.1
436.658	7.06
436.861	7.31
437.063	7.29
437.266	7.29
437.468	7.52
437.671	7.78
437.874	7.72
438.076	7.58
438.279	7.97
438.481	7.98
438.684	8.42
438.886	8.23
439.089	8.41
439.291	8.44
439.494	8.7
439.696	8.84
439.899	9.17
440.101	9.33
440.303	9.58
440.506	9.89
440.708	9.82
440.91	10.01
441.113	10.08
441.315	10.35
441.517	10.09
441.72	10.52
441.922	10.16
442.124	10.24
442.326	10.57
442.529	10.67
442.731	10.64
442.933	10.91
443.135	10.72
443.337	10.77
443.539	11.14
443.742	11.04
443.944	11.43
444.146	11.24
444.348	11.31
444.55	11.06
444.752	11.35
444.954	11.3
445.156	11.32
445.358	11.47
445.56	11.7
445.762	11.6
445.964	11.91
446.166	11.64
446.368	11.8
446.57	11.73
446.772	11.47
446.974	11.4
447.175	11.51
447.377	11.31
447.579	11.7
447.781	11.45
447.983	11.25
448.184	11
448.386	11.35
448.588	11.03
448.79	11.08
448.991	11.13
449.193	11.17
449.395	10.72
449.597	10.62
449.798	10.62
450	10.15
450.202	10.16
450.403	10.17
450.605	10.15
450.806	9.85
451.008	9.76
451.21	9.61
451.411	9.2
451.613	8.87
451.814	9.1
452.016	8.98
452.217	8.41
452.419	8.55
452.62	8.34
452.821	8.15
453.023	8.1
453.224	7.84
453.426	7.59
453.627	7.06
453.828	7.09
454.03	7.16
454.231	7.2
454.432	6.98
454.634	6.87
454.835	6.59
455.036	6.58
455.238	6.33
455.439	6.26
455.64	5.95
455.841	5.9
456.042	6.04
456.244	5.78
456.445	5.51
456.646	5.3
456.847	5.41
457.048	5.3
457.249	5.41
457.45	5.25
457.651	4.72
457.852	4.78
458.054	4.55
458.255	4.45
458.456	4.53
458.657	4.41
458.858	4.15
459.058	4.19
459.259	4.19
459.46	4.06
459.661	3.98
459.862	4.07
460.063	3.93
460.264	3.89
460.465	3.61
460.666	3.78
460.866	3.55
461.067	3.42
461.268	3.45
461.469	3.36
461.67	3.27
461.87	3.23
462.071	3.27
462.272	3.17
462.473	3.2
462.673	3.28
462.874	3.18
463.075	3.21
463.275	3.15
463.476	3.18
463.676	3.14
463.877	3.09
464.078	3.12
464.278	3.15
464.479	2.99
464.679	2.88
464.88	2.91
465.08	2.93
465.281	2.78
465.481	2.71
465.682	2.59
465.882	2.62
466.083	2.52
466.283	2.51
466.483	2.39
466.684	2.29
466.884	2.24
467.085	2.27
467.285	2.34
467.485	2.22
467.686	2.17
467.886	2.05
468.086	2.07
468.286	2.06
468.487	2.11
468.687	1.91
468.887	1.94
469.087	2.07
469.287	1.96
469.488	1.85
469.688	1.99
469.888	1.93
470.088	1.91
470.288	1.89
470.488	1.8
470.688	1.71
470.888	1.71
471.088	1.65
471.288	1.78
471.488	1.7
471.688	1.66
471.888	1.6
472.088	1.72
472.288	1.72
472.488	1.56
472.688	1.53
472.888	1.57
473.088	1.6
473.288	1.51
473.488	1.47
473.688	1.59
473.887	1.48
474.087	1.46
474.287	1.51
474.487	1.42
474.687	1.47
474.886	1.39
475.086	1.37
475.286	1.43
475.486	1.41
475.685	1.37
475.885	1.36
476.085	1.38
476.284	1.37
476.484	1.36
476.684	1.3
476.883	1.38
477.083	1.33
477.282	1.27
477.482	1.31
477.681	1.33
477.881	1.25
478.08	1.26
478.28	1.21
478.479	1.27
478.679	1.28
478.878	1.25
479.078	1.21
479.277	1.21
479.477	1.25
479.676	1.21
479.875	1.22
480.075	1.14
480.274	1.18
480.473	1.27
480.673	1.21
480.872	1.26
481.071	1.21
481.271	1.26
481.47	1.19
481.669	1.21
481.868	1.17
482.067	1.2
482.267	1.15
482.466	1.18
482.665	1.19
482.864	1.15
483.063	1.17
483.262	1.21
483.461	1.27
483.661	1.27
483.86	1.2
484.059	1.21
484.258	1.27
484.457	1.21
484.656	1.19
484.855	1.26
485.054	1.12
485.253	1.18
485.452	1.2
485.651	1.23
485.849	1.26
486.048	1.19
486.247	1.19
486.446	1.28
486.645	1.2
486.844	1.23
487.043	1.22
487.241	1.26
487.44	1.24
487.639	1.29
487.838	1.33
488.037	1.29
488.235	1.36
488.434	1.32
488.633	1.23
488.831	1.37
489.03	1.33
489.229	1.34
489.427	1.33
489.626	1.39
489.825	1.43
490.023	1.39
490.222	1.36
490.42	1.41
490.619	1.45
490.817	1.45
491.016	1.4
491.214	1.52
491.413	1.46
491.611	1.46
491.81	1.42
492.008	1.5
492.207	1.56
492.405	1.54
492.604	1.5
492.802	1.56
493	1.59
493.199	1.59
493.397	1.6
493.595	1.66
493.794	1.63
493.992	1.71
494.19	1.69
494.388	1.75
494.587	1.67
494.785	1.72
494.983	1.65
495.181	1.78
495.379	1.81
495.578	1.82
495.776	1.8
495.974	1.8
496.172	1.86
496.37	1.9
496.568	1.94
496.766	1.92
496.964	1.98
497.162	1.95
497.36	1.98
497.558	2.05
497.756	2.04
497.954	2.04
498.152	2.07
498.35	2.16
498.548	2.09
498.746	2.12
498.944	2.09
499.142	2.13
499.34	2.23
499.538	2.27
499.736	2.18
499.933	2.31
500.131	2.26
500.329	2.4
500.527	2.36
500.725	2.4
500.922	2.44
501.12	2.43
501.318	2.47
501.516	2.47
501.713	2.49
501.911	2.5
502.109	2.47
502.306	2.58
502.504	2.52
502.701	2.58
502.899	2.58
503.097	2.77
503.294	2.64
503.492	2.75
503.689	2.75
503.887	2.76
504.084	2.79
504.282	2.8
504.479	2.74
504.677	2.9
504.874	2.87
505.072	2.79
505.269	2.91
505.466	2.93
505.664	3.03
505.861	2.93
506.059	2.98
506.256	3.01
506.453	3.06
506.651	3.16
506.848	3.12
507.045	3.13
507.242	3.17
507.44	3.15
507.637	3.18
507.834	3.18
508.031	3.32
508.229	3.25
508.426	3.26
508.623	3.34
508.82	3.34
509.017	3.33
509.214	3.28
509.411	3.43
509.608	3.38
509.805	3.49
510.003	3.46
510.2	3.49
510.397	3.59
510.594	3.5
510.791	3.58
510.988	3.55
511.184	3.57
511.381	3.49
511.578	3.54
511.775	3.74
511.972	3.64
512.169	3.63
512.366	3.64
512.563	3.82
512.76	3.83
512.956	3.81
513.153	3.76
513.35	3.77
513.547	3.74
513.744	3.84
513.94	3.79
514.137	3.9
514.334	3.88
514.53	3.9
514.727	4.03
514.924	4
515.12	3.96
515.317	3.99
515.514	3.95
515.71	3.91
515.907	4.11
516.103	4.08
516.3	4.03
516.497	4.12
516.693	4.09
516.89	4.1
517.086	4.14
517.283	4.15
517.479	4.11
517.676	4.17
517.872	4.22
518.068	4.19
518.265	4.22
518.461	4.13
518.658	4.21
518.854	4.26
519.05	4.28
519.247	4.29
519.443	4.31
519.639	4.36
519.836	4.32
520.032	4.29
520.228	4.36
520.424	4.4
520.621	4.4
520.817	4.4
521.013	4.38
521.209	4.5
521.405	4.48
521.601	4.43
521.798	4.39
521.994	4.48
522.19	4.41
522.386	4.47
522.582	4.52
522.778	4.62
522.974	4.53
523.17	4.52
523.366	4.49
523.562	4.57
523.758	4.54
523.954	4.47
524.15	4.58
524.346	4.62
524.542	4.61
524.738	4.58
524.934	4.68
525.129	4.67
525.325	4.63
525.521	4.6
525.717	4.76
525.913	4.63
526.109	4.6
526.304	4.74
526.5	4.77
526.696	4.77
526.892	4.69
527.087	4.84
527.283	4.71
527.479	4.73
527.674	4.64
527.87	4.82
528.066	4.7
528.261	4.81
528.457	4.69
528.653	4.86
528.848	4.85
529.044	4.88
529.239	4.79
529.435	4.77
529.63	4.69
529.826	4.79
530.021	4.83
530.217	4.79
530.412	4.79
530.608	4.85
530.803	4.84
530.999	4.79
531.194	4.84
531.389	4.84
531.585	4.87
531.78	4.97
531.975	4.92
532.171	4.91
532.366	4.88
532.561	4.91
532.757	4.88
532.952	5.02
533.147	4.84
533.342	4.99
533.538	4.9
533.733	5.04
533.928	4.83
534.123	4.91
534.318	4.93
534.513	4.9
534.709	4.99
534.904	4.99
535.099	4.99
535.294	5.04
535.489	4.97
535.684	4.95
535.879	4.89
536.074	5.02
536.269	5.02
536.464	5.05
536.659	4.97
536.854	4.98
537.049	5.02
537.244	5.04
537.439	5.03
537.634	5
537.828	5.08
538.023	5.05
538.218	5
538.413	4.93
538.608	5.04
538.803	4.97
538.997	4.95
539.192	5.06
539.387	4.99
539.582	5.01
539.776	4.99
539.971	5.05
540.166	5.07
540.36	4.99
540.555	5.11
540.75	5.04
540.944	5.06
541.139	5.06
541.334	5.04
541.528	5.05
541.723	5.13
541.917	5.1
542.112	5.03
542.306	4.93
542.501	5.01
542.695	5.07
542.89	4.94
543.084	5.09
543.279	5.11
543.473	5.13
543.668	5.08
543.862	4.99
544.056	5
544.251	5.1
544.445	5.14
544.64	5.12
544.834	4.9
545.028	4.87
545.222	5.12
545.417	5.21
545.611	5.09
545.805	5.08
546	4.94
546.194	5.16
546.388	5.1
546.582	5.05
546.776	5.04
546.97	5.08
547.165	5.09
547.359	5.07
547.553	5.01
547.747	5.06
547.941	5.21
548.135	5.07
548.329	5.12
548.523	5.1
548.717	5.07
548.911	5.05
549.105	5.03
549.299	5.13
549.493	5.09
549.687	5.04
549.881	5.1
550.075	5.11
550.269	5.02
550.463	5.13
550.657	5.13
550.85	5.11
551.044	5.09
551.238	5.12
551.432	5.09
551.626	5.13
551.82	5.12
552.013	5.06
552.207	5.17
552.401	5.16
552.594	5.06
552.788	5.04
552.982	5.1
553.176	5.08
553.369	5.21
553.563	5.13
553.756	5.11
553.95	5.09
554.144	5.15
554.337	5.15
554.531	5.03
554.724	5.07
554.918	5.22
555.111	5.13
555.305	5.11
555.498	5.1
555.692	5.16
555.885	5.14
556.079	5.09
556.272	5.1
556.466	5.17
556.659	5.05
556.852	5.13
557.046	5.07
557.239	5.04
557.432	5.11
557.626	5.14
557.819	5.16
558.012	5.15
558.206	5.19
558.399	5.16
558.592	5.09
558.785	5.1
558.979	5.1
559.172	5.11
559.365	5.14
559.558	5.08
559.751	5.11
559.944	5.22
560.138	5.11
560.331	5.14
560.524	5.12
560.717	5.13
560.91	5.14
561.103	5.16
561.296	5.07
561.489	5.12
561.682	5.16
561.875	5.17
562.068	5.16
562.261	5.09
562.454	5.22
562.647	5.1
562.84	5.16
563.032	5.14
563.225	5.1
563.418	5.05
563.611	5.14
563.804	5.15
563.997	5.01
564.19	4.96
564.382	5.12
564.575	5.14
564.768	5.08
564.961	5.16
565.153	5.06
565.346	5.06
565.539	5.17
565.731	5.15
565.924	5.18
566.117	5.22
566.309	5.18
566.502	5.15
566.695	5.03
566.887	5.12
567.08	5.14
567.272	5.12
567.465	5.05
567.657	5.09
567.85	5.06
568.042	5.07
568.235	5.18
568.427	5.05
568.62	5.13
568.812	5.08
569.005	5.13
569.197	5.06
569.389	5.12
569.582	5.14
569.774	5.13
569.966	5.02
570.159	5.07
570.351	5.03
570.543	5.09
570.736	5.09
570.928	4.94
571.12	5.11
571.312	4.97
571.505	4.96
571.697	5.09
571.889	5.02
572.081	5.09
572.273	5.03
572.465	5.08
572.658	5.05
572.85	5.11
573.042	5.05
573.234	4.98
573.426	5.06
573.618	4.96
573.81	5.04
574.002	5.06
574.194	5.06
574.386	4.97
574.578	4.92
574.77	4.98
574.962	5.07
575.154	4.91
575.346	4.97
575.538	4.91
575.729	4.93
575.921	5.06
576.113	5.03
576.305	5
576.497	5.07
576.689	4.94
576.88	4.91
577.072	5.02
577.264	4.92
577.456	4.95
577.647	4.96
577.839	5.04
578.031	4.99
578.223	4.93
578.414	4.87
578.606	4.9
578.798	5.05
578.989	4.91
579.181	4.99
579.372	4.96
579.564	4.94
579.755	4.92
579.947	4.9
580.139	4.94
580.33	4.83
580.522	4.9
580.713	4.86
580.905	4.91
581.096	4.96
581.287	4.84
581.479	4.87
581.67	4.88
581.862	4.83
582.053	4.86
582.244	4.74
582.436	4.96
582.627	4.85
582.818	4.84
583.01	4.85
583.201	4.89
583.392	4.83
583.583	4.82
583.775	4.71
583.966	4.83
584.157	4.83
584.348	4.84
584.54	4.76
584.731	4.83
584.922	4.76
585.113	4.75
585.304	4.81
585.495	4.82
585.686	4.82
585.877	4.9
586.068	4.89
586.259	4.84
586.45	4.81
586.641	4.77
586.832	4.83
587.023	4.77
587.214	4.72
587.405	4.86
587.596	4.68
587.787	4.69
587.978	4.76
588.169	4.64
588.36	4.62
588.551	4.73
588.742	4.72
588.932	4.78
589.123	4.6
589.314	4.77
589.505	4.7
589.696	4.66
589.886	4.65
590.077	4.64
590.268	4.63
590.458	4.56
590.649	4.5
590.84	4.66
591.03	4.61
591.221	4.63
591.412	4.55
591.602	4.66
591.793	4.61
591.984	4.61
592.174	4.59
592.365	4.73
592.555	4.51
592.746	4.55
592.936	4.55
593.127	4.57
593.317	4.6
593.508	4.54
593.698	4.44
593.889	4.55
594.079	4.5
594.269	4.41
594.46	4.49
594.65	4.51
594.84	4.45
595.031	4.4
595.221	4.41
595.411	4.41
595.602	4.43
595.792	4.36
595.982	4.38
596.172	4.47
596.363	4.44
596.553	4.4
596.743	4.35
596.933	4.4
597.123	4.36
597.314	4.3
597.504	4.29
597.694	4.46
597.884	4.32
598.074	4.38
598.264	4.31
598.454	4.34
598.644	4.32
598.834	4.28
599.024	4.22
599.214	4.25
599.404	4.35
599.594	4.25
599.784	4.17
599.974	4.25
600.164	4.23
600.354	4.16
600.544	4.13
600.734	4.24
600.924	4.21
601.114	4.16
601.303	4.13
601.493	4.15
601.683	4.16
601.873	4.15
602.063	4.1
602.252	4.15
602.442	4.04
602.632	4.11
602.821	4
603.011	4.15
603.201	4.07
603.39	4.04
603.58	3.95
603.77	4.06
603.959	4.15
604.149	3.97
604.339	3.97
604.528	4
604.718	4.05
604.907	4
605.097	3.94
605.286	3.92
605.476	3.97
605.665	3.99
605.855	3.91
606.044	4
606.234	3.99
606.423	3.86
606.612	3.92
606.802	3.86
606.991	3.92
607.181	3.98
607.37	3.89
607.559	3.74
607.749	3.9
607.938	3.81
608.127	3.81
608.316	3.78
608.506	3.8
608.695	3.87
608.884	3.77
609.073	3.82
609.263	3.83
609.452	3.83
609.641	3.72
609.83	3.65
610.019	3.77
610.208	3.71
610.397	3.73
610.586	3.74
610.775	3.65
610.965	3.68
611.154	3.58
611.343	3.7
611.532	3.65
611.721	3.69
611.91	3.58
612.099	3.64
612.287	3.58
612.476	3.57
612.665	3.61
612.854	3.51
613.043	3.58
613.232	3.53
613.421	3.49
613.61	3.53
613.798	3.51
613.987	3.51
614.176	3.45
614.365	3.48
614.554	3.52
614.742	3.5
614.931	3.38
615.12	3.55
615.309	3.44
615.497	3.43
615.686	3.34
615.875	3.42
616.063	3.34
616.252	3.37
616.44	3.42
616.629	3.38
616.818	3.31
617.006	3.29
617.195	3.29
617.383	3.32
617.572	3.25
617.76	3.25
617.949	3.29
618.137	3.29
618.326	3.31
618.514	3.17
618.703	3.19
618.891	3.29
619.079	3.19
619.268	3.27
619.456	3.14
619.644	3.2
619.833	3.2
620.021	3.18
620.209	3.1
620.398	3.18
620.586	3.11
620.774	3.17
620.962	3.07
621.151	3.15
621.339	3.09
621.527	3.09
621.715	3.02
621.903	3.09
622.092	3.02
622.28	3.09
622.468	2.96
622.656	3.05
622.844	3.05
623.032	3.06
623.22	2.93
623.408	3.06
623.596	2.97
623.784	3.05
623.972	2.92
624.16	2.93
624.348	2.96
624.536	3.06
624.724	2.91
624.912	2.98
625.1	2.93
625.288	2.92
625.476	2.79
625.664	2.86
625.851	2.87
626.039	2.88
626.227	2.81
626.415	2.86
626.603	2.74
626.79	2.85
626.978	2.81
627.166	2.77
627.354	2.78
627.541	2.76
627.729	2.63
627.917	2.85
628.104	2.8
628.292	2.69
628.48	2.71
628.667	2.71
628.855	2.71
629.042	2.75
629.23	2.69
629.418	2.71
629.605	2.68
629.793	2.62
629.98	2.65
630.168	2.6
630.355	2.62
630.543	2.59
630.73	2.58
630.917	2.58
631.105	2.66
631.292	2.59
631.48	2.61
631.667	2.67
631.854	2.58
632.042	2.55
632.229	2.48
632.416	2.55
632.604	2.53
632.791	2.41
632.978	2.51
633.165	2.48
633.353	2.51
633.54	2.55
633.727	2.35
633.914	2.44
634.101	2.35
634.289	2.47
634.476	2.36
634.663	2.37
634.85	2.39
635.037	2.38
635.224	2.26
635.411	2.44
635.598	2.34
635.785	2.32
635.972	2.33
636.159	2.37
636.346	2.31
636.533	2.28
636.72	2.29
636.907	2.3
637.094	2.29
637.281	2.18
637.468	2.28
637.655	2.27
637.842	2.24
638.029	2.19
638.215	2.23
638.402	2.21
638.589	2.13
638.776	2.16
638.963	2.13
639.149	2.28
639.336	2.16
639.523	2.16
639.709	2.15
639.896	2.13
640.083	2.15
640.27	2.24
640.456	2.07
640.643	2.11
640.829	2.02
641.016	2.07
641.203	2.04
641.389	2.06
641.576	2.04
641.762	2.05
641.949	2.02
642.135	2.04
642.322	2.04
642.508	1.96
642.695	2.02
642.881	1.97
643.068	1.95
643.254	2
643.441	1.97
643.627	1.99
643.813	1.86
644	1.99
644.186	1.86
644.372	1.97
644.559	1.97
644.745	1.9
644.931	1.84
645.118	1.87
645.304	1.9
645.49	1.85
645.676	1.83
645.862	1.88
646.049	1.89
646.235	1.86
646.421	1.94
646.607	1.92
646.793	1.8
646.979	1.76
647.165	1.78
647.352	1.8
647.538	1.8
647.724	1.77
647.91	1.75
648.096	1.82
648.282	1.76
648.468	1.72
648.654	1.74
648.84	1.78
649.026	1.74
649.212	1.7
649.397	1.66
649.583	1.7
649.769	1.72
649.955	1.69
650.141	1.67
650.327	1.74
650.513	1.64
650.698	1.67
650.884	1.52
651.07	1.68
651.256	1.63
651.442	1.6
651.627	1.54
651.813	1.65
651.999	1.57
652.184	1.61
652.37	1.56
652.556	1.58
652.741	1.62
652.927	1.42
653.113	1.59
653.298	1.61
653.484	1.52
653.669	1.52
653.855	1.51
654.04	1.59
654.226	1.55
654.412	1.5
654.597	1.48
654.782	1.49
654.968	1.53
655.153	1.48
655.339	1.42
655.524	1.42
655.71	1.49
655.895	1.44
656.08	1.42
656.266	1.51
656.451	1.46
656.636	1.39
656.822	1.42
657.007	1.43
657.192	1.43
657.378	1.34
657.563	1.34
657.748	1.39
657.933	1.36
658.118	1.37
658.304	1.36
658.489	1.41
658.674	1.38
658.859	1.31
659.044	1.31
659.229	1.37
659.414	1.36
659.599	1.34
659.785	1.25
659.97	1.36
660.155	1.33
660.34	1.36
660.525	1.28
660.71	1.26
660.895	1.3
661.08	1.24
661.264	1.21
661.449	1.35
661.634	1.28
661.819	1.29
662.004	1.24
662.189	1.14
662.374	1.24
662.559	1.2
662.743	1.17
662.928	1.19
663.113	1.19
663.298	1.12
663.483	1.16
663.667	1.21
663.852	1.14
664.037	1.25
664.221	1.17
664.406	1.19
664.591	1.19
664.775	1.22
664.96	1.15
665.145	1.17
665.329	1.18
665.514	1.14
665.698	1.11
665.883	1.05
666.068	1.2
666.252	1.1
666.437	1.06
666.621	1.1
666.806	1.14
666.99	1.08
667.174	1.08
667.359	1.16
667.543	1.07
667.728	1.11
667.912	1
668.096	1.12
668.281	1.04
668.465	1.12
668.649	1.07
668.834	1.03
669.018	1.06
669.202	1.05
669.387	0.98
669.571	1.09
669.755	1.03
669.939	1.02
670.124	1.01
670.308	1.03
670.492	1.06
670.676	0.97
670.86	0.97
671.044	0.94
671.228	1.05
671.413	0.98
671.597	0.97
671.781	0.97
671.965	0.99
672.149	0.93
672.333	0.92
672.517	0.89
672.701	0.95
672.885	0.92
673.069	0.93
673.253	0.99
673.437	0.89
673.621	0.89
673.804	0.9
673.988	0.96
674.172	0.95
674.356	0.8
674.54	0.91
674.724	1.01
674.908	0.94
675.091	0.96
675.275	0.89
675.459	0.95
675.643	0.87
675.826	0.89
676.01	0.87
676.194	0.87
676.377	0.92
676.561	0.9
676.745	0.88
676.928	0.92
677.112	0.91
677.296	0.85
677.479	0.81
677.663	0.82
677.846	0.85
678.03	0.82
678.213	0.79
678.397	0.88
678.58	0.81
678.764	0.8
678.947	0.71
679.131	0.82
679.314	0.9
679.498	0.81
679.681	0.83
679.865	0.87
680.048	0.79
680.231	0.76
680.415	0.79
680.598	0.73
680.781	0.75
680.965	0.77
681.148	0.8
681.331	0.76
681.514	0.77
681.698	0.75
681.881	0.8
682.064	0.8
682.247	0.77
682.43	0.65
682.614	0.76
682.797	0.82
682.98	0.75
683.163	0.66
683.346	0.76
683.529	0.71
683.712	0.67
683.895	0.71
684.078	0.65
684.261	0.73
684.444	0.78
684.627	0.79
684.81	0.68
684.993	0.71
685.176	0.73
685.359	0.68
685.542	0.67
685.725	0.74
685.908	0.66
686.091	0.71
686.274	0.73
686.457	0.73
686.639	0.72
686.822	0.7
687.005	0.66
687.188	0.68
687.371	0.73
687.553	0.72
687.736	0.7
687.919	0.75
688.102	0.74
688.284	0.65
688.467	0.66
688.65	0.6
688.832	0.64
689.015	0.62
689.197	0.55
689.38	0.67
689.563	0.71
689.745	0.58
689.928	0.58
690.11	0.6
690.293	0.58
690.475	0.55
690.658	0.63
690.84	0.61
691.023	0.63
691.205	0.52
691.388	0.65
691.57	0.64
691.752	0.65
691.935	0.53
692.117	0.54
692.3	0.6
692.482	0.59
692.664	0.52
692.847	0.61
693.029	0.67
693.211	0.66
693.393	0.57
693.576	0.57
693.758	0.58
693.94	0.57
694.122	0.54
694.304	0.53
694.487	0.53
694.669	0.58
694.851	0.44
695.033	0.57
695.215	0.5
695.397	0.55
695.579	0.55
695.761	0.51
695.943	0.46
696.125	0.63
696.308	0.56
696.49	0.41
696.671	0.66
696.853	0.53
697.035	0.74
697.217	0.54
697.399	0.64
697.581	0.45
697.763	0.51
697.945	0.49
698.127	0.58
698.309	0.58
698.491	0.52
698.672	0.51
698.854	0.56
699.036	0.58
699.218	0.49
699.399	0.59
699.581	0.57
699.763	0.5
699.945	0.45
700.126	0.41
700.308	0.5
700.49	0.48
700.671	0.44
700.853	0.41
701.035	0.48
701.216	0.46
701.398	0.43
701.579	0.46
701.761	0.54
701.943	0.42
702.124	0.42
702.306	0.49
702.487	0.63
702.669	0.46
702.85	0.39
703.031	0.39
703.213	0.58
703.394	0.49
703.576	0.47
703.757	0.57
703.938	0.52
704.12	0.62
704.301	0.45
704.483	0.41
704.664	0.49
704.845	0.52
705.026	0.53
705.208	0.45
705.389	0.45
705.57	0.52
705.751	0.39
705.933	0.45
706.114	0.52
706.295	0.39
706.476	0.38
706.657	0.6
706.838	0.47
707.02	0.54
707.201	0.34
707.382	0.39
707.563	0.48
707.744	0.47
707.925	0.35
708.106	0.37
708.287	0.42
708.468	0.51
708.649	0.39
708.83	0.47
709.011	0.37
709.192	0.53
709.373	0.34
709.554	0.36
709.734	0.42
709.915	0.47
710.096	0.38
710.277	0.27
710.458	0.38
710.639	0.41
710.819	0.27
711	0.38
711.181	0.42
711.362	0.43
711.542	0.42
711.723	0.28
711.904	0.45
712.085	0.48
712.265	0.39
712.446	0.26
712.627	0.34
712.807	0.35
712.988	0.39
713.168	0.25
713.349	0.44
713.53	0.27
713.71	0.35
713.891	0.32
714.071	0.39
714.252	0.36
714.432	0.32
714.613	0.22
714.793	0.4
714.974	0.47
715.154	0.43
715.334	0.39
715.515	0.5
715.695	0.2
715.876	0.35
716.056	0.34
716.236	0.32
716.417	0.31
716.597	0.27
716.777	0.48
716.957	0.35
717.138	0.39
717.318	0.38
717.498	0.28
717.678	0.39
717.859	0.34
718.039	0.26
718.219	0.36
718.399	0.36
718.579	0.29
718.759	0.28
718.939	0.37
719.12	0.34
719.3	0.4
719.48	0.26
719.66	0.2
719.84	0.4
720.02	0.29
720.2	0.25
720.38	0.31
720.56	0.41
720.74	0.22
720.92	0.31
721.1	0.46
721.279	0.43
721.459	0.29
721.639	0.24
721.819	0.3
721.999	0.2
722.179	0.33
722.359	0.2
722.538	0.24
722.718	0.39
722.898	0.25
723.078	0.31
723.257	0.33
723.437	0.29
723.617	0.33
723.797	0.34
723.976	0.32
724.156	0.37
724.336	0.44
724.515	0.44
724.695	0.24
724.874	0.31
725.054	0.33
725.234	0.22
725.413	0.37
725.593	0.26
725.772	0.38
725.952	0.24
726.131	0.28
726.311	0.36
726.49	0.35
726.67	0.23
726.849	0.19
727.028	0.37
727.208	0.29
727.387	0.39
727.567	0.17
727.746	0.24
727.925	0.25
728.105	0.18
728.284	0.28
728.463	0.23
728.643	0.4
728.822	0.23
729.001	0.2
729.18	0.31
729.359	0.41
729.539	0.27
729.718	0.29
729.897	0.39
730.076	0.23
730.255	0.15
730.434	0.31
730.614	0.35
730.793	0.35
730.972	0.27
731.151	0.3
731.33	0.35
731.509	0.34
731.688	0.28
731.867	0.32
732.046	0.17
732.225	0.49
732.404	0.19
732.583	0.13
732.762	0.31
732.941	0.31
733.12	0.27
733.298	0.25
733.477	0.36
733.656	0.26
733.835	0.21
734.014	0.37
734.193	0.25
734.371	0.38
734.55	0.25
734.729	0.22
734.908	0.28
735.086	0.38
735.265	0.4
735.444	0.15
735.623	0.23
735.801	0.19
735.98	0.28
736.159	0.29
736.337	0.34
736.516	0.27
736.694	0.31
736.873	0.27
737.052	0.39
737.23	0.44
737.409	0.15
737.587	0.52
737.766	0.13
737.944	0.29
738.123	0.28
738.301	0.33
738.479	0.38
738.658	0.29
738.836	0.06
739.015	0.35
739.193	0.34
739.371	0.1
739.55	0.28
739.728	0.2
739.906	0.35
740.085	0.45
740.263	0.33
740.441	0.08
740.62	0.51
740.798	0.4
740.976	0.29
741.154	0.15
741.332	0.42
741.511	0.22
741.689	0.31
741.867	0.35
742.045	0.32
742.223	0.28
742.401	0.07
742.579	0.15
742.757	0.34
742.935	0.22
743.114	0.27
743.292	0.27
743.47	0.32
743.648	0.21
743.826	0.08
744.004	0.39
744.181	0.33
744.359	0.35
744.537	0.31
744.715	0.2
744.893	0.22
745.071	0.26
745.249	0.39
745.427	0.27
745.605	0.31
745.782	0.25
745.96	0.36
746.138	0.31
746.316	0.41
746.493	0.25
746.671	0.15
746.849	0.3
747.027	0.33
747.204	0.14
747.382	0.25
747.56	0.1
747.737	0.31
747.915	0.16
748.093	0.22
748.27	0.21
748.448	0.24
748.625	0.12
748.803	0.23
748.98	0.18
749.158	0.34
749.335	0.31
749.513	0.26
749.69	0.23
749.868	0.23
750.045	0.22
750.223	0.19
750.4	0
750.578	0.5
750.755	0.18
750.932	0.14
751.11	0.36
751.287	0.05
751.464	0.4
751.642	0.17
751.819	0.32
751.996	0.26
752.173	0.2
752.351	0.1
752.528	0.24
752.705	0.22
752.882	0.14
753.06	0.12
753.237	0.27
753.414	0.4
753.591	0.44
753.768	0.21
753.945	0.24
754.122	0.18
754.299	0.27
754.476	0.19
754.654	0.23
754.831	0.32
755.008	0.35
755.185	0.09
755.362	0.18
755.539	0.25
755.716	0.15
755.892	0.17
756.069	0.25
756.246	0.14
756.423	0.3
756.6	0.33
756.777	0.1
756.954	0.28
757.131	0.15
757.307	0.22
757.484	0.07
757.661	0.29
757.838	0.21
758.015	0.14
758.191	0.14
758.368	0.23
758.545	0.51
758.721	0.37
758.898	-0.01
759.075	0.25
759.251	0.2
759.428	0.2
759.605	0.09
759.781	0.16
759.958	0.26
760.134	0.25
760.311	0.19
760.488	0.33
760.664	0.34
760.841	0.16
761.017	0.07
761.194	0.39
761.37	0.33
761.547	0.28
761.723	0.22
761.899	0.43
762.076	0.1
762.252	0.02
762.429	0.09
762.605	0.23
762.781	0.15
762.958	0.26
763.134	0.12
763.31	0.19
763.486	0.38
763.663	0.04
763.839	0.31
764.015	0.06
764.191	0.14
764.368	0.12
764.544	0.09
764.72	0.28
764.896	0.31
765.072	0.21
765.248	0.16
765.425	0.25
765.601	0.23
765.777	0.19
765.953	0.01
766.129	0.18
766.305	0.1
766.481	0.3
766.657	0.25
766.833	0.36
767.009	0.04
767.185	0.09
767.361	0.27
767.537	0.11
767.713	0.37
767.889	0.13
768.065	0.16
768.24	0.05
768.416	0.38
768.592	0.2
768.768	0.25
768.944	0.26
769.12	0.14
769.295	0.24
769.471	0.15
769.647	0.12
769.823	0.51
769.998	0.06
770.174	0.13
770.35	0.63
770.525	0.42
770.701	0.13
770.877	0.15
771.052	0.05
771.228	0.27
771.403	0.3
771.579	0.2
771.755	0.53
771.93	0.22
772.106	0.08
772.281	0.03
772.457	0.2
772.632	0.33
772.808	0.16
772.983	0.14
773.159	0.08
773.334	0.35
773.509	0.29
773.685	0.16
773.86	0.74
774.036	0.34
774.211	0.31
774.386	0.22
774.562	0.2
774.737	0.35
774.912	0.12
775.087	0.23
775.263	0.21
775.438	0.29
775.613	0.04
775.788	0.12
775.964	0.35
776.139	0.68
776.314	0.15
776.489	0.24
776.664	0.3
776.839	0.04
777.014	0.32
777.19	0.38
777.365	0.46
777.54	0.53
777.715	0.2
777.89	0.12
778.065	0.09
778.24	0.27
778.415	0.28
778.59	-0.01
778.765	0.17
778.94	0.26
779.115	0.23
779.289	0.11
779.464	0.12
779.639	0.18
779.814	0.06
779.989	0.12
780.164	0.61
780.339	0.32
780.513	0.11
780.688	0.02
780.863	0.23
781.038	0.28
781.212	0.04
781.387	0.27
781.562	0.62
781.737	0.27
781.911	0.6
782.086	-0.04
782.261	0.25
782.435	0.37
782.61	-0.03
782.784	0.2
782.959	0.43
783.134	0.24
783.308	0.12
783.483	0.23
783.657	0.8
783.832	0.41
784.006	-0.08
784.181	0.29
784.355	0.41
784.53	0.14
784.704	0.13
784.878	0.35
785.053	0.35
785.227	0.6
785.402	0.66
785.576	0.02
785.75	0.13
785.925	0.2
786.099	0.2
786.273	0.45
786.448	0.35
786.622	0.36
786.796	0.05
786.97	0.2
787.145	0.86
787.319	-0.15
787.493	0.09
787.667	-0
787.841	0.28
788.015	0.32
788.19	0.16
788.364	0.23
788.538	0.43
788.712	0.48
788.886	0.23
789.06	0.36
789.234	0.24
789.408	-0.07
789.582	-0.02
789.756	0.12
789.93	0.16
790.104	0.23
790.278	0.08
790.452	-0.21
790.626	0.31
790.8	-0.06
790.973	0.53
791.147	0.32
791.321	0.5
791.495	0.17
791.669	0.41
791.843	0.4
792.016	0.22
792.19	0.66
792.364	-0.08
792.538	0.51
792.711	0.53
792.885	0.05
793.059	0.08
793.233	0.08
793.406	0.48
793.58	0.32
793.754	0.48
793.927	0.23
794.101	0.57
794.274	0.08
794.448	0.37
794.622	-0.08
794.795	0.53
794.969	0.06
795.142	0.5
795.316	0.22
795.489	0.02
795.663	0.71
795.836	0.52
796.009	0.07
796.183	0.64
796.356	0.52
796.53	0.17
796.703	0.31
796.876	0.65
797.05	-0.09
797.223	0.17
797.396	0.57
797.57	0.42
797.743	0.59
797.916	0.45
798.09	0.18
798.263	0.55
798.436	0.36
798.609	-0.02
798.782	0.12
798.956	0.5
799.129	0.33
799.302	0.24
799.475	0.13
799.648	-0.07
799.821	0.28
799.994	0.27
800.167	-0.25
800.34	0.05
800.514	0.44
800.687	0.13
800.86	0.15
801.033	0.6
801.206	0.47
801.379	0.1
801.551	0.51
801.724	0.79
801.897	0.82
802.07	0.43
802.243	0.04
802.416	0.25
802.589	0.4
802.762	0.28
802.935	0.38
803.107	0.69
803.28	0.49
803.453	0.58
803.626	0.24
803.798	0.32
803.971	0.28
804.144	0.32
804.317	0.53
804.489	0.58
804.662	0.51
804.835	0.16
805.007	0.02
805.18	0.65
805.353	0.49
805.525	0.09
805.698	0.1
805.87	0.53
806.043	0.44
806.215	-0.13
806.388	0.25
806.56	0.16
806.733	0.33
806.905	0.08
807.078	-0.03
807.25	0.41
807.423	0.6
807.595	0.28
807.768	0.27
807.94	0.71
808.112	0.39
808.285	0.44
808.457	0.37
808.629	-0.02
808.802	0.64
808.974	0.31
809.146	0.08
809.318	-0.21
809.491	0.47
809.663	0.74
809.835	0.2
810.007	0.34
810.18	0.35
810.352	-0.05
810.524	0.1
810.696	0.47
810.868	0.67
811.04	0.37
811.212	0.08
811.384	0.74
811.556	0.68
811.728	0.45
811.901	1.21
812.073	-0.01
812.245	0.97
812.417	0.31
812.589	-0.37
812.76	0.34
812.932	0.49
813.104	0.66
813.276	0.16
813.448	0.67
813.62	0.56
813.792	0.27
813.964	0.6
814.136	0.61
814.307	0.28
814.479	-0.16
814.651	0.31
814.823	0.91
814.995	0.05
815.166	0.32
815.338	0.42
815.51	-0.28
815.681	0.98
815.853	0.19
816.025	0.24
816.196	0.95
816.368	0.51
816.54	-0.03
816.711	-0.32
816.883	0.26
817.054	1.3
817.226	-0.07
817.398	0.67
817.569	-0.56
817.741	0.34
817.912	0.35
818.084	-0.3
818.255	0.88
818.426	-0.1
818.598	0.35
818.769	-0
818.941	0.73
819.112	0.99
819.283	0.48
819.455	-0.1
819.626	0.58
819.798	0.79
819.969	0.36
820.14	0.35
820.311	0.35
820.483	0.43
820.654	0.47
820.825	0.37
820.996	0.43
821.168	-0
821.339	0.19
821.51	-0.34
821.681	0.19
821.852	0.98
822.023	0.07
822.195	-0.42
822.366	0.64
822.537	0.15
822.708	0.32
822.879	0.35
823.05	1.08
823.221	0.51
823.392	0.63
823.563	0.37
823.734	0.6
823.905	0.56
824.076	0.12
824.247	-0.26
824.418	0.34
824.589	0.84
824.759	0.34
824.93	0.77
825.101	-0.05
825.272	0.7
825.443	1.24
825.614	0.77
825.784	-0.65
825.955	1.93
826.126	0.97
826.297	0.08
826.467	1.6
826.638	1.15
826.809	-0.68
826.98	0.15
827.15	0.94
827.321	0.45
827.492	1.2
827.662	0.36
827.833	1.43
828.003	0.9
828.174	0.07
828.345	0.17
828.515	1.27
828.686	0.71
828.856	0.41
829.027	0.24
829.197	0.37
829.368	0.73
829.538	0.27
829.709	-0.14
829.879	0.75
830.049	1.28
830.22	0.19
830.39	0.64
830.56	0.77
830.731	-0.31
830.901	-0.19
831.072	0.51
831.242	0.79
831.412	0.39
831.582	0.38
831.753	-0.23
831.923	1.04
832.093	0.85
832.263	0.24
832.434	-0.1
832.604	0.37
832.774	0.73
832.944	0.26
833.114	0.43
833.284	0.71
833.454	-0.14
833.624	0.13
833.795	-0
833.965	1.03
834.135	0.97
834.305	-0.54
834.475	-0.68
834.645	0.22
834.815	0.21
834.985	0.34
835.155	0.03
835.325	1.23
835.494	0.64
835.664	0.29
835.834	0.09
836.004	0.51
836.174	1.3
836.344	0.63
836.514	-0.46
836.684	-0.08
836.853	0.85
837.023	0.61
837.193	0.48
837.363	0.96
837.532	1.35
837.702	0.2
837.872	0.2
838.041	1
838.211	1.28
838.381	-0.35
838.55	0.63
838.72	2.24
838.89	2.13
839.059	0.75
839.229	0.1
839.398	1.94
839.568	0.52
839.738	0.45
839.907	0.86
840.077	1.26
840.246	-0.03
840.416	-0.2
840.585	-0.64
840.755	1.91
840.924	1.25
841.093	-0.35
841.263	0.16
841.432	0.89
841.602	-0.28
841.771	-0.58
841.94	0.61
842.11	2.29
842.279	2.08
842.448	-0.36
842.617	-0.18
842.787	2.25
842.956	-0.67
843.125	0.01
843.294	0.18
843.464	1.83
843.633	-0.36
843.802	-0.29
843.971	-0.02
844.14	0.58
844.309	1.81
844.479	-0.82
844.648	-0.05
844.817	-0.05
844.986	0.5
845.155	0.52
845.324	0.42
845.493	0.35
845.662	0.28
845.831	0.87
846	0.75
846.169	1.33
846.338	2.34
846.507	0.56
846.676	0.49
846.844	-0.26
847.013	0.93
847.182	0.57
847.351	0.05
847.52	0.17
847.689	0.84
847.858	-0.59
848.026	-0.13
848.195	0.27
848.364	0.39
848.533	-0.29
848.701	-0.15
848.87	0.8
849.039	2.04
849.207	1.96
849.376	2.76
849.545	1.42
849.713	-0.43
849.882	0.27
850.051	0.42
850.219	1.08
850.388	2.2
850.556	-0.6
850.725	-0.04
850.893	0.95
851.062	-0.15
851.23	2.05
851.399	0.12
851.567	0.03
851.736	0.67
851.904	0.09
852.073	0.98
852.241	1.48
852.41	1.37
852.578	0.95
852.746	0.24
852.915	0.5
853.083	0.6
853.251	-1.15
853.42	0.63
853.588	0.91
853.756	2.32
853.924	0.08
854.093	0.34
854.261	1.32
854.429	-0.22
854.597	1.38
854.765	-0.75
854.934	0.67
855.102	2.63
855.27	-0.12
855.438	1.19
855.606	2.91
855.774	2.47
855.942	0.06
856.11	-0.59
856.278	0.72
856.446	1.6
856.614	1.72
856.782	0.04
856.95	2.16
857.118	1.35
857.286	1.22
857.454	0.17
857.622	2.42
857.79	2.29
857.958	-0.55
858.126	-0.11
858.294	-1.59
858.462	0.41
858.629	0.14
858.797	-1.26
858.965	1.33
859.133	-0.3
859.301	1.14
859.468	1.05
859.636	0
859.804	2.94
859.971	0.95
860.139	-0.02
860.307	2.57
860.474	1.26
860.642	-0.33
860.81	-0.34
860.977	-0.06
861.145	1.81
861.313	-0.29
861.48	1.03
861.648	2.69
861.815	0.26
861.983	-1.39
862.15	0.18
862.318	3.27
862.485	2.23
862.653	-0.44
862.82	-1.21
862.988	2.22
863.155	1.89
863.322	0.01
863.49	-0.9
863.657	1.86
863.824	3.06
863.992	0.52
864.159	2.25
864.326	2.56
864.494	1.14
864.661	4.36
864.828	-1.27
864.996	2.36
865.163	1.66
865.33	0.33
865.497	-1.71
865.664	-1.55
865.832	-1.12
865.999	0.09
866.166	0.43
866.333	-0.26
866.5	0.4
866.667	0.49
866.834	0.59
867.001	3.91
867.168	-1.72
867.335	1.21
867.502	-1.24
867.669	3.24
867.836	3.65
868.003	0.08
868.17	1.51
868.337	3.4
868.504	4.44
868.671	-0.63
868.838	-0.54
869.005	2
869.172	2.41
869.339	-0.35
869.505	0.31
869.672	2.66
869.839	2.57
870.006	0.16
870.173	-0.97
870.339	1.66
870.506	3.46
870.673	0.76
870.84	1.08
871.006	2.38
871.173	1.09
871.34	0.36
871.506	0.6
871.673	2.98
871.839	-0.73
872.006	2.09
872.173	-0.32
872.339	1.84
872.506	1.85
872.672	0.8
872.839	-0.86
873.005	2.12
873.172	3.41
873.338	3.31
873.505	1.15
873.671	1.17
873.838	3.09
874.004	-2.1
874.171	1.05
874.337	2.61
874.503	2.64
874.67	0.58
874.836	1.35
875.002	5.09
875.169	2.49
875.335	0.23
875.501	1.46
875.668	3.78
875.834	0.91
876	1.57
876.166	2.12
876.332	2.27
876.499	4.21
876.665	1.64
876.831	0.52
876.997	4.73
877.163	3.04
877.329	-0.01
877.495	0.74
877.662	1.51
877.828	2.17
877.994	1.44
878.16	-2.27
878.326	-0.18
878.492	1.53
878.658	-0.71
878.824	0.75
878.99	2.11
879.156	-0.98
879.322	4.96
879.487	0.01
879.653	1.9
879.819	2.58
879.985	1.03
880.151	0.77
880.317	2.62
880.483	2.17
880.648	1.33
880.814	-0.76
880.98	2.28
881.146	-1.57
881.312	0.51
881.477	0.82
881.643	0.68
881.809	2.85
881.974	1.59
882.14	-1.46
882.306	2.27
882.471	6.19
882.637	-0.5
882.803	1.88
882.968	5.26
883.134	5.94
883.299	2.21
883.465	0.03
883.63	2.9
883.796	2.84
883.961	1.21
884.127	2.18
884.292	-2.59
884.458	-0.16
884.623	-0.16
