Data from Apollo_Calib_20240827__AbsoluteIrradiance__38__23-47-01-796.txt Node

Date: Tue Aug 27 23:47:01 BST 2024
User: biology
Spectrometer: FLMT08252
Trigger mode: 0
Integration Time (sec): 5.000000E-1
Scans to average: 5
Electric dark correction enabled: true
Nonlinearity correction enabled: false
Boxcar width: 0
XAxis mode: Wavelengths
Number of Pixels in Spectrum: 3648
>>>>>Begin Spectral Data<<<<<
179.588	-0
179.809	-0
180.03	-0
180.251	-0
180.473	-0
180.694	0
180.915	0
181.136	-0
181.357	0
181.578	-0
181.799	0
182.02	-0
182.241	0
182.462	-0
182.683	0
182.904	-0
183.125	-0
183.346	0
183.567	0
183.788	0
184.009	0
184.23	0
184.451	0
184.672	0
184.892	0
185.113	0
185.334	0
185.555	0
185.776	0
185.996	0
186.217	0
186.438	0
186.659	0
186.879	0
187.1	0
187.321	0
187.541	0
187.762	0
187.983	0
188.203	0
188.424	0
188.644	0
188.865	0
189.086	0
189.306	0
189.527	0
189.747	0
189.968	0
190.188	0
190.409	0
190.629	0
190.849	0
191.07	0
191.29	0
191.511	0
191.731	0
191.951	0
192.172	0
192.392	0
192.612	0
192.833	0
193.053	0
193.273	0
193.493	0
193.714	0
193.934	0
194.154	0
194.374	0
194.594	0
194.815	0
195.035	0
195.255	0
195.475	0
195.695	0
195.915	0
196.135	0
196.355	0
196.575	0
196.795	0
197.015	0
197.235	0
197.455	0
197.675	0
197.895	0
198.115	0
198.335	0
198.555	0
198.775	0
198.995	0
199.214	0
199.434	0
199.654	0
199.874	0
200.094	4.11
200.313	2.34
200.533	1.83
200.753	2.1
200.973	3.55
201.192	2.76
201.412	1.63
201.632	1.96
201.851	3.49
202.071	2.03
202.291	2.08
202.51	1.6
202.73	2.67
202.95	1.39
203.169	1.57
203.389	2.17
203.608	2.02
203.828	1.93
204.047	1.54
204.267	2.39
204.486	2.01
204.706	1.95
204.925	2.05
205.145	1.66
205.364	2.15
205.583	2.28
205.803	1.17
206.022	1.3
206.242	1.63
206.461	1.69
206.68	1.52
206.9	1.49
207.119	2.25
207.338	2.31
207.557	1.41
207.777	1.26
207.996	1.45
208.215	1.93
208.434	1.21
208.654	0.91
208.873	1.72
209.092	2.02
209.311	1.19
209.53	1.52
209.749	1.54
209.968	0.83
210.187	1.03
210.407	1
210.626	0.96
210.845	1.65
211.064	1.17
211.283	1.04
211.502	1.41
211.721	1.09
211.94	1.13
212.159	1.35
212.377	1.31
212.596	1.62
212.815	1.03
213.034	1.19
213.253	1.36
213.472	1.36
213.691	0.85
213.91	0.87
214.128	1.1
214.347	1.44
214.566	0.65
214.785	0.66
215.003	1.13
215.222	1.14
215.441	1.11
215.66	0.6
215.878	1
216.097	1.18
216.316	0.76
216.534	0.94
216.753	1.08
216.972	0.89
217.19	0.98
217.409	0.74
217.627	0.93
217.846	0.88
218.064	0.98
218.283	0.84
218.501	1.25
218.72	1.05
218.938	0.67
219.157	0.82
219.375	1.16
219.594	0.86
219.812	0.81
220.031	0.66
220.249	1.23
220.467	1.22
220.686	0.65
220.904	0.72
221.122	0.77
221.341	1.18
221.559	0.83
221.777	0.46
221.995	0.81
222.214	0.93
222.432	0.73
222.65	0.92
222.868	0.94
223.086	0.85
223.305	0.89
223.523	0.78
223.741	0.98
223.959	0.58
224.177	0.46
224.395	0.67
224.613	0.8
224.831	0.93
225.049	0.53
225.267	0.57
225.485	0.85
225.703	0.59
225.921	0.67
226.139	0.54
226.357	0.88
226.575	0.81
226.793	0.48
227.011	1.36
227.229	0.7
227.447	0.9
227.665	0.71
227.883	0.43
228.1	0.66
228.318	0.74
228.536	0.27
228.754	0.46
228.972	0.77
229.189	0.81
229.407	0.62
229.625	0.66
229.843	0.88
230.06	0.75
230.278	0.61
230.496	0.6
230.713	0.65
230.931	0.72
231.149	0.55
231.366	0.41
231.584	0.53
231.801	0.91
232.019	0.59
232.236	0.38
232.454	0.5
232.671	0.68
232.889	0.7
233.106	0.49
233.324	0.5
233.541	0.52
233.759	0.49
233.976	0.46
234.194	0.58
234.411	0.64
234.628	0.44
234.846	0.49
235.063	0.55
235.28	0.56
235.498	0.57
235.715	0.43
235.932	0.64
236.149	0.6
236.367	0.43
236.584	0.55
236.801	0.37
237.018	0.53
237.236	0.5
237.453	0.33
237.67	0.65
237.887	0.57
238.104	0.49
238.321	0.4
238.538	0.5
238.755	0.73
238.973	0.35
239.19	0.47
239.407	0.63
239.624	0.56
239.841	0.36
240.058	0.39
240.275	0.57
240.492	0.46
240.709	0.44
240.925	0.42
241.142	0.6
241.359	0.4
241.576	0.41
241.793	0.49
242.01	0.45
242.227	0.68
242.444	0.59
242.66	0.64
242.877	0.54
243.094	0.39
243.311	0.46
243.527	0.36
243.744	0.48
243.961	0.6
244.178	0.4
244.394	0.41
244.611	0.57
244.828	0.58
245.044	0.36
245.261	0.46
245.477	0.5
245.694	0.59
245.911	0.45
246.127	0.48
246.344	0.61
246.56	0.51
246.777	0.42
246.993	0.48
247.21	0.4
247.426	0.51
247.643	0.37
247.859	0.32
248.076	0.41
248.292	0.63
248.508	0.4
248.725	0.49
248.941	0.49
249.157	0.54
249.374	0.38
249.59	0.41
249.806	0.41
250.023	0.45
250.239	0.34
250.455	0.39
250.671	0.37
250.888	0.49
251.104	0.56
251.32	0.45
251.536	0.44
251.752	0.43
251.969	0.41
252.185	0.43
252.401	0.65
252.617	0.5
252.833	0.42
253.049	0.4
253.265	0.44
253.481	0.54
253.697	0.44
253.913	0.28
254.129	0.44
254.345	0.38
254.561	0.37
254.777	0.43
254.993	0.45
255.209	0.39
255.425	0.36
255.641	0.32
255.857	0.51
256.073	0.42
256.288	0.32
256.504	0.4
256.72	0.39
256.936	0.52
257.152	0.34
257.367	0.34
257.583	0.37
257.799	0.51
258.015	0.31
258.23	0.33
258.446	0.6
258.662	0.41
258.877	0.39
259.093	0.39
259.309	0.42
259.524	0.41
259.74	0.37
259.955	0.24
260.171	0.44
260.387	0.35
260.602	0.46
260.818	0.43
261.033	0.33
261.249	0.35
261.464	0.28
261.68	0.29
261.895	0.42
262.11	0.47
262.326	0.34
262.541	0.24
262.757	0.48
262.972	0.47
263.187	0.4
263.403	0.4
263.618	0.46
263.833	0.38
264.049	0.27
264.264	0.39
264.479	0.39
264.694	0.47
264.91	0.29
265.125	0.31
265.34	0.44
265.555	0.54
265.77	0.38
265.986	0.33
266.201	0.5
266.416	0.46
266.631	0.34
266.846	0.36
267.061	0.41
267.276	0.42
267.491	0.22
267.706	0.37
267.921	0.43
268.136	0.36
268.351	0.36
268.566	0.19
268.781	0.43
268.996	0.48
269.211	0.34
269.426	0.28
269.641	0.33
269.856	0.4
270.071	0.3
270.285	0.25
270.5	0.42
270.715	0.41
270.93	0.32
271.145	0.36
271.359	0.4
271.574	0.29
271.789	0.37
272.004	0.38
272.218	0.34
272.433	0.36
272.648	0.29
272.862	0.42
273.077	0.33
273.292	0.34
273.506	0.32
273.721	0.32
273.936	0.42
274.15	0.4
274.365	0.24
274.579	0.39
274.794	0.44
275.008	0.44
275.223	0.21
275.437	0.37
275.652	0.44
275.866	0.39
276.081	0.36
276.295	0.38
276.509	0.33
276.724	0.34
276.938	0.33
277.153	0.39
277.367	0.42
277.581	0.28
277.796	0.34
278.01	0.27
278.224	0.4
278.438	0.43
278.653	0.27
278.867	0.27
279.081	0.39
279.295	0.33
279.51	0.32
279.724	0.25
279.938	0.32
280.152	0.34
280.366	0.3
280.58	0.33
280.794	0.48
281.008	0.36
281.222	0.34
281.437	0.42
281.651	0.34
281.865	0.4
282.079	0.27
282.293	0.23
282.507	0.28
282.721	0.34
282.935	0.29
283.148	0.2
283.362	0.29
283.576	0.21
283.79	0.34
284.004	0.29
284.218	0.39
284.432	0.24
284.646	0.35
284.859	0.27
285.073	0.28
285.287	0.35
285.501	0.29
285.714	0.24
285.928	0.34
286.142	0.33
286.356	0.26
286.569	0.24
286.783	0.35
286.997	0.34
287.21	0.32
287.424	0.3
287.637	0.28
287.851	0.25
288.065	0.35
288.278	0.29
288.492	0.32
288.705	0.27
288.919	0.37
289.132	0.24
289.346	0.35
289.559	0.23
289.773	0.23
289.986	0.28
290.2	0.29
290.413	0.34
290.626	0.22
290.84	0.26
291.053	0.24
291.267	0.35
291.48	0.26
291.693	0.34
291.906	0.27
292.12	0.31
292.333	0.26
292.546	0.23
292.76	0.36
292.973	0.29
293.186	0.33
293.399	0.22
293.612	0.28
293.826	0.27
294.039	0.27
294.252	0.25
294.465	0.32
294.678	0.37
294.891	0.29
295.104	0.26
295.317	0.28
295.53	0.32
295.743	0.25
295.956	0.27
296.169	0.32
296.382	0.37
296.595	0.31
296.808	0.23
297.021	0.37
297.234	0.35
297.447	0.28
297.66	0.27
297.873	0.33
298.086	0.3
298.299	0.22
298.511	0.25
298.724	0.33
298.937	0.23
299.15	0.23
299.363	0.26
299.575	0.29
299.788	0.26
300.001	0.27
300.213	0.26
300.426	0.22
300.639	0.29
300.852	0.2
301.064	0.33
301.277	0.35
301.489	0.29
301.702	0.31
301.915	0.26
302.127	0.22
302.34	0.27
302.552	0.31
302.765	0.22
302.977	0.33
303.19	0.25
303.402	0.22
303.615	0.24
303.827	0.24
304.04	0.28
304.252	0.29
304.464	0.26
304.677	0.34
304.889	0.28
305.102	0.23
305.314	0.26
305.526	0.31
305.739	0.27
305.951	0.21
306.163	0.22
306.375	0.34
306.588	0.22
306.8	0.21
307.012	0.23
307.224	0.28
307.436	0.31
307.649	0.2
307.861	0.27
308.073	0.32
308.285	0.24
308.497	0.22
308.709	0.24
308.921	0.28
309.133	0.28
309.346	0.24
309.558	0.25
309.77	0.31
309.982	0.33
310.194	0.24
310.406	0.24
310.617	0.31
310.829	0.28
311.041	0.33
311.253	0.23
311.465	0.21
311.677	0.26
311.889	0.27
312.101	0.23
312.313	0.29
312.524	0.33
312.736	0.19
312.948	0.22
313.16	0.34
313.372	0.27
313.583	0.24
313.795	0.27
314.007	0.25
314.218	0.34
314.43	0.2
314.642	0.22
314.853	0.22
315.065	0.32
315.277	0.29
315.488	0.26
315.7	0.32
315.912	0.28
316.123	0.26
316.335	0.26
316.546	0.36
316.758	0.25
316.969	0.25
317.181	0.22
317.392	0.21
317.604	0.31
317.815	0.23
318.026	0.2
318.238	0.2
318.449	0.27
318.661	0.21
318.872	0.2
319.083	0.24
319.295	0.3
319.506	0.21
319.717	0.25
319.929	0.34
320.14	0.27
320.351	0.27
320.562	0.23
320.774	0.29
320.985	0.27
321.196	0.23
321.407	0.17
321.618	0.31
321.829	0.24
322.041	0.32
322.252	0.26
322.463	0.25
322.674	0.26
322.885	0.21
323.096	0.23
323.307	0.26
323.518	0.26
323.729	0.25
323.94	0.26
324.151	0.2
324.362	0.33
324.573	0.26
324.784	0.21
324.995	0.27
325.206	0.3
325.417	0.22
325.628	0.27
325.838	0.27
326.049	0.3
326.26	0.32
326.471	0.26
326.682	0.33
326.892	0.26
327.103	0.2
327.314	0.2
327.525	0.31
327.735	0.24
327.946	0.26
328.157	0.21
328.368	0.28
328.578	0.29
328.789	0.28
328.999	0.23
329.21	0.24
329.421	0.26
329.631	0.21
329.842	0.22
330.052	0.26
330.263	0.31
330.473	0.25
330.684	0.26
330.894	0.23
331.105	0.3
331.315	0.26
331.526	0.17
331.736	0.33
331.947	0.3
332.157	0.26
332.367	0.25
332.578	0.26
332.788	0.37
332.999	0.28
333.209	0.26
333.419	0.2
333.629	0.29
333.84	0.3
334.05	0.27
334.26	0.35
334.47	0.32
334.681	0.28
334.891	0.22
335.101	0.23
335.311	0.31
335.521	0.26
335.732	0.18
335.942	0.26
336.152	0.3
336.362	0.27
336.572	0.26
336.782	0.3
336.992	0.24
337.202	0.24
337.412	0.24
337.622	0.28
337.832	0.24
338.042	0.22
338.252	0.24
338.462	0.25
338.672	0.25
338.882	0.26
339.092	0.3
339.302	0.32
339.511	0.29
339.721	0.22
339.931	0.21
340.141	0.29
340.351	0.29
340.561	0.3
340.77	0.26
340.98	0.25
341.19	0.26
341.4	0.24
341.609	0.24
341.819	0.29
342.029	0.25
342.238	0.26
342.448	0.23
342.658	0.32
342.867	0.3
343.077	0.24
343.286	0.24
343.496	0.3
343.706	0.28
343.915	0.28
344.125	0.24
344.334	0.26
344.544	0.22
344.753	0.22
344.963	0.23
345.172	0.26
345.381	0.22
345.591	0.23
345.8	0.24
346.01	0.31
346.219	0.27
346.428	0.13
346.638	0.31
346.847	0.26
347.056	0.34
347.266	0.29
347.475	0.29
347.684	0.3
347.893	0.28
348.103	0.26
348.312	0.23
348.521	0.26
348.73	0.28
348.94	0.28
349.149	0.23
349.358	0.22
349.567	0.24
349.776	0.18
349.985	0.18
350.194	0.3
350.403	0.29
350.612	0.19
350.821	0.24
351.03	0.28
351.239	0.19
351.448	0.27
351.657	0.22
351.866	0.32
352.075	0.22
352.284	0.31
352.493	0.15
352.702	0.28
352.911	0.29
353.12	0.21
353.329	0.27
353.538	0.25
353.746	0.25
353.955	0.2
354.164	0.25
354.373	0.26
354.582	0.27
354.79	0.29
354.999	0.29
355.208	0.27
355.416	0.28
355.625	0.2
355.834	0.22
356.042	0.26
356.251	0.2
356.46	0.24
356.668	0.26
356.877	0.37
357.085	0.27
357.294	0.14
357.503	0.25
357.711	0.24
357.92	0.4
358.128	0.24
358.337	0.24
358.545	0.26
358.754	0.25
358.962	0.28
359.17	0.21
359.379	0.28
359.587	0.22
359.796	0.28
360.004	0.32
360.212	0.27
360.421	0.31
360.629	0.26
360.837	0.25
361.046	0.24
361.254	0.37
361.462	0.25
361.67	0.26
361.879	0.25
362.087	0.32
362.295	0.28
362.503	0.23
362.711	0.19
362.92	0.31
363.128	0.21
363.336	0.23
363.544	0.22
363.752	0.25
363.96	0.22
364.168	0.24
364.376	0.26
364.584	0.25
364.792	0.29
365	0.29
365.208	0.24
365.416	0.27
365.624	0.3
365.832	0.2
366.04	0.3
366.248	0.23
366.456	0.29
366.664	0.23
366.872	0.25
367.079	0.25
367.287	0.23
367.495	0.24
367.703	0.24
367.911	0.2
368.118	0.21
368.326	0.23
368.534	0.2
368.742	0.3
368.949	0.19
369.157	0.21
369.365	0.24
369.572	0.19
369.78	0.22
369.988	0.32
370.195	0.27
370.403	0.28
370.61	0.25
370.818	0.25
371.026	0.35
371.233	0.22
371.441	0.24
371.648	0.26
371.856	0.28
372.063	0.24
372.271	0.22
372.478	0.23
372.685	0.24
372.893	0.33
373.1	0.22
373.308	0.25
373.515	0.39
373.722	0.28
373.93	0.24
374.137	0.3
374.344	0.35
374.552	0.29
374.759	0.31
374.966	0.25
375.173	0.23
375.381	0.28
375.588	0.22
375.795	0.19
376.002	0.23
376.209	0.25
376.417	0.27
376.624	0.34
376.831	0.3
377.038	0.24
377.245	0.19
377.452	0.25
377.659	0.28
377.866	0.24
378.073	0.25
378.28	0.24
378.487	0.29
378.694	0.37
378.901	0.25
379.108	0.23
379.315	0.32
379.522	0.35
379.729	0.27
379.936	0.22
380.143	0.31
380.35	0.32
380.557	0.28
380.763	0.26
380.97	0.31
381.177	0.3
381.384	0.28
381.591	0.2
381.797	0.29
382.004	0.29
382.211	0.3
382.418	0.28
382.624	0.31
382.831	0.35
383.038	0.26
383.244	0.31
383.451	0.27
383.658	0.29
383.864	0.27
384.071	0.23
384.277	0.32
384.484	0.27
384.69	0.35
384.897	0.28
385.103	0.29
385.31	0.25
385.516	0.26
385.723	0.22
385.929	0.28
386.136	0.24
386.342	0.3
386.549	0.27
386.755	0.31
386.961	0.28
387.168	0.3
387.374	0.29
387.58	0.37
387.787	0.27
387.993	0.27
388.199	0.29
388.406	0.29
388.612	0.29
388.818	0.29
389.024	0.26
389.231	0.34
389.437	0.37
389.643	0.3
389.849	0.28
390.055	0.31
390.261	0.29
390.467	0.32
390.674	0.31
390.88	0.3
391.086	0.35
391.292	0.27
391.498	0.3
391.704	0.32
391.91	0.33
392.116	0.27
392.322	0.17
392.528	0.35
392.734	0.29
392.94	0.35
393.146	0.31
393.352	0.34
393.557	0.3
393.763	0.33
393.969	0.33
394.175	0.31
394.381	0.3
394.587	0.24
394.792	0.29
394.998	0.32
395.204	0.32
395.41	0.3
395.615	0.35
395.821	0.37
396.027	0.36
396.233	0.27
396.438	0.39
396.644	0.42
396.85	0.39
397.055	0.31
397.261	0.34
397.466	0.32
397.672	0.33
397.878	0.34
398.083	0.37
398.289	0.29
398.494	0.39
398.7	0.38
398.905	0.29
399.111	0.41
399.316	0.32
399.522	0.36
399.727	0.35
399.932	0.36
400.138	0.31
400.343	0.38
400.549	0.36
400.754	0.33
400.959	0.36
401.165	0.39
401.37	0.38
401.575	0.52
401.78	0.36
401.986	0.37
402.191	0.35
402.396	0.42
402.601	0.39
402.807	0.42
403.012	0.44
403.217	0.42
403.422	0.4
403.627	0.44
403.832	0.38
404.037	0.46
404.243	0.46
404.448	0.37
404.653	0.41
404.858	0.48
405.063	0.49
405.268	0.45
405.473	0.33
405.678	0.4
405.883	0.62
406.088	0.46
406.293	0.38
406.498	0.44
406.703	0.5
406.907	0.51
407.112	0.43
407.317	0.52
407.522	0.57
407.727	0.47
407.932	0.56
408.136	0.61
408.341	0.59
408.546	0.55
408.751	0.59
408.956	0.58
409.16	0.64
409.365	0.64
409.57	0.59
409.774	0.65
409.979	0.65
410.184	0.72
410.388	0.66
410.593	0.77
410.798	0.74
411.002	0.71
411.207	0.82
411.411	0.82
411.616	0.77
411.82	0.83
412.025	0.85
412.229	0.8
412.434	0.95
412.638	0.93
412.843	0.97
413.047	0.98
413.252	0.92
413.456	0.99
413.66	1.02
413.865	1.08
414.069	1.2
414.273	1.09
414.478	1.17
414.682	1.19
414.886	1.25
415.091	1.18
415.295	1.23
415.499	1.41
415.703	1.39
415.908	1.44
416.112	1.4
416.316	1.59
416.52	1.57
416.724	1.55
416.929	1.67
417.133	1.87
417.337	1.76
417.541	1.84
417.745	1.86
417.949	1.99
418.153	2.02
418.357	2.08
418.561	2.24
418.765	2.23
418.969	2.37
419.173	2.47
419.377	2.42
419.581	2.64
419.785	2.63
419.989	2.65
420.193	2.88
420.397	2.94
420.601	3.06
420.804	3.13
421.008	3.09
421.212	3.22
421.416	3.28
421.62	3.24
421.823	3.32
422.027	3.52
422.231	3.47
422.435	3.5
422.638	3.6
422.842	3.72
423.046	3.78
423.249	3.95
423.453	3.96
423.657	4.14
423.86	4.19
424.064	4.42
424.268	4.59
424.471	4.47
424.675	4.73
424.878	4.84
425.082	4.99
425.285	5.14
425.489	5.06
425.692	5.28
425.896	5.3
426.099	5.5
426.303	5.59
426.506	5.86
426.71	5.96
426.913	6.22
427.116	6.42
427.32	6.4
427.523	6.5
427.726	6.74
427.93	6.84
428.133	7.18
428.336	7.38
428.54	7.45
428.743	7.68
428.946	7.99
429.149	7.87
429.353	7.89
429.556	8.09
429.759	8.06
429.962	8.24
430.165	8.42
430.368	7.98
430.571	8.05
430.775	8.14
430.978	8.12
431.181	8.17
431.384	8.36
431.587	8.43
431.79	8.84
431.993	8.59
432.196	8.95
432.399	9.31
432.602	9.48
432.805	9.47
433.008	10.08
433.211	9.9
433.414	10.35
433.616	10.32
433.819	10.25
434.022	10.5
434.225	10.67
434.428	10.63
434.631	10.98
434.833	10.74
435.036	11.22
435.239	11.22
435.442	11.4
435.645	11.49
435.847	11.63
436.05	11.96
436.253	12.1
436.455	12.19
436.658	12.08
436.861	12.33
437.063	12.51
437.266	12.48
437.468	12.71
437.671	13.06
437.874	13.04
438.076	12.89
438.279	13.39
438.481	13.6
438.684	14.22
438.886	13.85
439.089	14.22
439.291	14.17
439.494	14.6
439.696	14.79
439.899	15.24
440.101	15.79
440.303	15.78
440.506	16.64
440.708	16.33
440.91	16.51
441.113	16.82
441.315	16.95
441.517	16.86
441.72	17.36
441.922	17.03
442.124	16.86
442.326	17.25
442.529	17.54
442.731	17.46
442.933	17.8
443.135	17.53
443.337	17.55
443.539	18.23
443.742	17.76
443.944	18.42
444.146	18.07
444.348	18.23
444.55	18.06
444.752	18.17
444.954	18.19
445.156	18.03
445.358	18.45
445.56	18.71
445.762	18.49
445.964	18.86
446.166	18.79
446.368	18.74
446.57	18.66
446.772	18.09
446.974	18.01
447.175	18.29
447.377	18.01
447.579	18.47
447.781	18.13
447.983	17.9
448.184	17.51
448.386	17.8
448.588	17.23
448.79	17.2
448.991	17.76
449.193	17.55
449.395	16.89
449.597	16.48
449.798	16.45
450	16.08
450.202	15.78
450.403	16.07
450.605	15.75
450.806	15.43
451.008	15.25
451.21	15.04
451.411	14.55
451.613	13.84
451.814	14.08
452.016	14.02
452.217	13.34
452.419	13.32
452.62	12.97
452.821	12.73
453.023	12.55
453.224	12.19
453.426	11.89
453.627	11.06
453.828	11.25
454.03	11.34
454.231	11.21
454.432	11.07
454.634	10.83
454.835	10.67
455.036	10.52
455.238	9.98
455.439	9.74
455.64	9.53
455.841	9.4
456.042	9.51
456.244	9.16
456.445	8.93
456.646	8.66
456.847	8.51
457.048	8.52
457.249	8.58
457.45	8.24
457.651	7.74
457.852	7.49
458.054	7.35
458.255	7.19
458.456	7.25
458.657	7.15
458.858	6.7
459.058	6.62
459.259	6.7
459.46	6.48
459.661	6.47
459.862	6.47
460.063	6.42
460.264	6.14
460.465	5.95
460.666	5.99
460.866	5.76
461.067	5.57
461.268	5.6
461.469	5.5
461.67	5.36
461.87	5.15
462.071	5.23
462.272	5.21
462.473	5.16
462.673	5.22
462.874	5.09
463.075	5.16
463.275	5.09
463.476	5.13
463.676	5.1
463.877	4.88
464.078	4.9
464.278	5.01
464.479	4.91
464.679	4.82
464.88	4.69
465.08	4.69
465.281	4.51
465.481	4.36
465.682	4.15
465.882	4.13
466.083	4.07
466.283	4.08
466.483	3.83
466.684	3.7
466.884	3.63
467.085	3.69
467.285	3.78
467.485	3.62
467.686	3.54
467.886	3.42
468.086	3.36
468.286	3.29
468.487	3.48
468.687	3.27
468.887	3.18
469.087	3.35
469.287	3.25
469.488	3.04
469.688	3.17
469.888	3.2
470.088	3.09
470.288	3.06
470.488	3.03
470.688	2.84
470.888	2.86
471.088	2.66
471.288	2.75
471.488	2.78
471.688	2.74
471.888	2.69
472.088	2.87
472.288	2.76
472.488	2.61
472.688	2.52
472.888	2.61
473.088	2.55
473.288	2.47
473.488	2.42
473.688	2.6
473.887	2.49
474.087	2.42
474.287	2.41
474.487	2.42
474.687	2.38
474.886	2.33
475.086	2.3
475.286	2.3
475.486	2.27
475.685	2.23
475.885	2.24
476.085	2.29
476.284	2.23
476.484	2.27
476.684	2.27
476.883	2.25
477.083	2.16
477.282	2.13
477.482	2.18
477.681	2.17
477.881	2.06
478.08	2.09
478.28	1.99
478.479	2.11
478.679	2.1
478.878	2.02
479.078	2.03
479.277	2.08
479.477	2.05
479.676	1.98
479.875	2.05
480.075	1.95
480.274	1.99
480.473	2.07
480.673	2
480.872	2.07
481.071	2.04
481.271	2.06
481.47	1.98
481.669	1.99
481.868	1.92
482.067	2.03
482.267	1.93
482.466	1.93
482.665	1.93
482.864	1.95
483.063	1.92
483.262	2
483.461	2.01
483.661	2.06
483.86	2.01
484.059	2.04
484.258	2.01
484.457	1.99
484.656	2
484.855	2.08
485.054	1.93
485.253	1.95
485.452	1.95
485.651	2.04
485.849	1.99
486.048	2.01
486.247	1.99
486.446	2.08
486.645	2.02
486.844	2.03
487.043	2.05
487.241	2.08
487.44	2.07
487.639	2.1
487.838	2.16
488.037	2.09
488.235	2.19
488.434	2.18
488.633	2.05
488.831	2.22
489.03	2.2
489.229	2.21
489.427	2.19
489.626	2.26
489.825	2.24
490.023	2.28
490.222	2.23
490.42	2.29
490.619	2.36
490.817	2.39
491.016	2.32
491.214	2.39
491.413	2.42
491.611	2.39
491.81	2.42
492.008	2.44
492.207	2.57
492.405	2.53
492.604	2.45
492.802	2.51
493	2.6
493.199	2.58
493.397	2.64
493.595	2.69
493.794	2.63
493.992	2.77
494.19	2.74
494.388	2.79
494.587	2.71
494.785	2.77
494.983	2.76
495.181	2.85
495.379	2.91
495.578	2.95
495.776	2.95
495.974	2.9
496.172	2.98
496.37	3.04
496.568	3.09
496.766	3.08
496.964	3.16
497.162	3.17
497.36	3.2
497.558	3.21
497.756	3.28
497.954	3.3
498.152	3.36
498.35	3.4
498.548	3.28
498.746	3.39
498.944	3.4
499.142	3.43
499.34	3.5
499.538	3.64
499.736	3.5
499.933	3.63
500.131	3.64
500.329	3.8
500.527	3.73
500.725	3.82
500.922	3.8
501.12	3.87
501.318	3.98
501.516	3.88
501.713	4.04
501.911	3.97
502.109	3.95
502.306	4.09
502.504	4
502.701	4.08
502.899	4.15
503.097	4.37
503.294	4.17
503.492	4.33
503.689	4.36
503.887	4.36
504.084	4.49
504.282	4.38
504.479	4.44
504.677	4.61
504.874	4.57
505.072	4.43
505.269	4.63
505.466	4.68
505.664	4.7
505.861	4.66
506.059	4.79
506.256	4.77
506.453	4.86
506.651	4.95
506.848	4.98
507.045	4.89
507.242	4.96
507.44	5.03
507.637	5.09
507.834	5.05
508.031	5.21
508.229	5.09
508.426	5.07
508.623	5.22
508.82	5.3
509.017	5.23
509.214	5.31
509.411	5.46
509.608	5.41
509.805	5.48
510.003	5.46
510.2	5.53
510.397	5.64
510.594	5.56
510.791	5.61
510.988	5.62
511.184	5.6
511.381	5.47
511.578	5.67
511.775	5.84
511.972	5.75
512.169	5.83
512.366	5.84
512.563	5.95
512.76	5.96
512.956	5.98
513.153	5.88
513.35	5.88
513.547	5.92
513.744	6.05
513.94	6.08
514.137	6.14
514.334	6.08
514.53	6.15
514.727	6.34
514.924	6.2
515.12	6.29
515.317	6.27
515.514	6.19
515.71	6.12
515.907	6.41
516.103	6.43
516.3	6.34
516.497	6.5
516.693	6.52
516.89	6.52
517.086	6.47
517.283	6.54
517.479	6.43
517.676	6.65
517.872	6.61
518.068	6.61
518.265	6.63
518.461	6.6
518.658	6.71
518.854	6.7
519.05	6.81
519.247	6.83
519.443	6.75
519.639	6.88
519.836	6.76
520.032	6.74
520.228	6.89
520.424	6.84
520.621	6.89
520.817	6.97
521.013	6.9
521.209	7.01
521.405	7.11
521.601	7
521.798	6.99
521.994	7
522.19	6.99
522.386	7.05
522.582	7.1
522.778	7.2
522.974	7.09
523.17	7.13
523.366	7.13
523.562	7.15
523.758	7.16
523.954	7.02
524.15	7.21
524.346	7.26
524.542	7.32
524.738	7.24
524.934	7.35
525.129	7.28
525.325	7.18
525.521	7.28
525.717	7.44
525.913	7.31
526.109	7.37
526.304	7.46
526.5	7.44
526.696	7.48
526.892	7.32
527.087	7.57
527.283	7.5
527.479	7.52
527.674	7.35
527.87	7.51
528.066	7.51
528.261	7.53
528.457	7.42
528.653	7.56
528.848	7.6
529.044	7.61
529.239	7.5
529.435	7.56
529.63	7.53
529.826	7.55
530.021	7.59
530.217	7.64
530.412	7.58
530.608	7.61
530.803	7.62
530.999	7.53
531.194	7.6
531.389	7.67
531.585	7.67
531.78	7.79
531.975	7.65
532.171	7.72
532.366	7.77
532.561	7.72
532.757	7.69
532.952	7.93
533.147	7.61
533.342	7.78
533.538	7.7
533.733	7.89
533.928	7.6
534.123	7.79
534.318	7.82
534.513	7.75
534.709	8.02
534.904	7.81
535.099	7.84
535.294	7.9
535.489	7.94
535.684	7.82
535.879	7.83
536.074	7.87
536.269	7.88
536.464	7.94
536.659	7.82
536.854	7.86
537.049	8
537.244	7.87
537.439	7.91
537.634	7.93
537.828	8.04
538.023	7.91
538.218	7.97
538.413	7.81
538.608	7.98
538.803	7.94
538.997	7.95
539.192	7.93
539.387	7.9
539.582	7.94
539.776	7.82
539.971	8.03
540.166	8.02
540.36	7.89
540.555	8.09
540.75	8.01
540.944	8
541.139	8.02
541.334	7.97
541.528	8.01
541.723	8.01
541.917	8.12
542.112	7.93
542.306	7.86
542.501	7.91
542.695	7.99
542.89	7.94
543.084	8.03
543.279	8.06
543.473	8.08
543.668	8.13
543.862	7.91
544.056	7.93
544.251	8.09
544.445	8.14
544.64	8.12
544.834	7.78
545.028	7.65
545.222	8.04
545.417	8.17
545.611	8.13
545.805	8.02
546	7.86
546.194	8.14
546.388	8.06
546.582	7.95
546.776	8
546.97	8.04
547.165	8.01
547.359	8.02
547.553	8
547.747	8.02
547.941	8.22
548.135	8.01
548.329	8.08
548.523	8.1
548.717	8.01
548.911	7.95
549.105	8.04
549.299	8.12
549.493	8.06
549.687	8.01
549.881	8.17
550.075	8.1
550.269	7.94
550.463	8.13
550.657	8.08
550.85	8.08
551.044	8.05
551.238	8.14
551.432	8.08
551.626	8.13
551.82	8.18
552.013	7.93
552.207	8.11
552.401	8.14
552.594	8.04
552.788	8.02
552.982	8.01
553.176	8.03
553.369	8.25
553.563	8.1
553.756	8.07
553.95	8.13
554.144	8.12
554.337	8.15
554.531	7.89
554.724	8.14
554.918	8.14
555.111	8.06
555.305	8.15
555.498	8.01
555.692	8.19
555.885	8.13
556.079	8.05
556.272	8.08
556.466	8.03
556.659	8.03
556.852	8.14
557.046	8.08
557.239	7.98
557.432	8
557.626	8.13
557.819	8.19
558.012	8.15
558.206	8.17
558.399	8.11
558.592	8.06
558.785	8.05
558.979	8.08
559.172	8.12
559.365	8.14
559.558	8.03
559.751	8.02
559.944	8.23
560.138	8.1
560.331	8.12
560.524	8.12
560.717	8.04
560.91	8.14
561.103	8.08
561.296	7.97
561.489	8.15
561.682	8.15
561.875	8.19
562.068	8.17
562.261	8.03
562.454	8.25
562.647	8.1
562.84	8.11
563.032	8.11
563.225	8.03
563.418	8.01
563.611	8.19
563.804	8.18
563.997	7.97
564.19	7.92
564.382	8.3
564.575	8.15
564.768	8.02
564.961	8.15
565.153	8.07
565.346	8
565.539	8.16
565.731	8.09
565.924	8.19
566.117	8.24
566.309	8.11
566.502	8.01
566.695	8
566.887	8.11
567.08	8.1
567.272	8.12
567.465	7.98
567.657	8.11
567.85	7.95
568.042	8.07
568.235	8.12
568.427	7.95
568.62	8.05
568.812	8.06
569.005	8.08
569.197	8
569.389	8.04
569.582	8.04
569.774	8.05
569.966	7.93
570.159	7.86
570.351	7.95
570.543	8
570.736	8.08
570.928	7.79
571.12	8
571.312	7.94
571.505	7.71
571.697	8.05
571.889	8
572.081	8.04
572.273	7.9
572.465	7.91
572.658	7.99
572.85	7.96
573.042	8.03
573.234	7.9
573.426	7.99
573.618	7.89
573.81	7.92
574.002	7.91
574.194	7.97
574.386	7.91
574.578	7.82
574.77	7.88
574.962	7.93
575.154	7.8
575.346	7.84
575.538	7.84
575.729	7.89
575.921	7.89
576.113	7.97
576.305	7.98
576.497	8.02
576.689	7.74
576.88	7.72
577.072	7.93
577.264	7.87
577.456	7.9
577.647	7.87
577.839	7.93
578.031	7.84
578.223	7.81
578.414	7.71
578.606	7.8
578.798	7.84
578.989	7.88
579.181	7.9
579.372	7.81
579.564	7.86
579.755	7.77
579.947	7.71
580.139	7.81
580.33	7.68
580.522	7.83
580.713	7.73
580.905	7.73
581.096	7.83
581.287	7.66
581.479	7.66
581.67	7.8
581.862	7.63
582.053	7.69
582.244	7.59
582.436	7.76
582.627	7.63
582.818	7.66
583.01	7.68
583.201	7.68
583.392	7.66
583.583	7.58
583.775	7.45
583.966	7.59
584.157	7.57
584.348	7.66
584.54	7.55
584.731	7.6
584.922	7.54
585.113	7.45
585.304	7.6
585.495	7.55
585.686	7.62
585.877	7.63
586.068	7.69
586.259	7.59
586.45	7.49
586.641	7.5
586.832	7.59
587.023	7.46
587.214	7.42
587.405	7.6
587.596	7.37
587.787	7.41
587.978	7.43
588.169	7.42
588.36	7.32
588.551	7.41
588.742	7.43
588.932	7.46
589.123	7.23
589.314	7.46
589.505	7.33
589.696	7.36
589.886	7.34
590.077	7.31
590.268	7.24
590.458	7.19
590.649	7.16
590.84	7.26
591.03	7.31
591.221	7.23
591.412	7.14
591.602	7.42
591.793	7.22
591.984	7.26
592.174	7.23
592.365	7.36
592.555	7.09
592.746	7.11
592.936	7.12
593.127	7.17
593.317	7.18
593.508	7.18
593.698	7.08
593.889	7.13
594.079	7.08
594.269	6.99
594.46	7.02
594.65	7.1
594.84	7.04
595.031	6.94
595.221	6.97
595.411	6.99
595.602	7.06
595.792	6.92
595.982	6.96
596.172	7
596.363	6.92
596.553	6.92
596.743	6.98
596.933	6.94
597.123	6.86
597.314	6.73
597.504	6.75
597.694	6.88
597.884	6.76
598.074	6.91
598.264	6.8
598.454	6.79
598.644	6.79
598.834	6.73
599.024	6.68
599.214	6.77
599.404	6.83
599.594	6.77
599.784	6.65
599.974	6.73
600.164	6.74
600.354	6.57
600.544	6.56
600.734	6.7
600.924	6.54
601.114	6.54
601.303	6.55
601.493	6.53
601.683	6.64
601.873	6.56
602.063	6.5
602.252	6.57
602.442	6.45
602.632	6.47
602.821	6.41
603.011	6.46
603.201	6.49
603.39	6.38
603.58	6.33
603.77	6.4
603.959	6.44
604.149	6.33
604.339	6.33
604.528	6.44
604.718	6.41
604.907	6.28
605.097	6.24
605.286	6.29
605.476	6.2
605.665	6.27
605.855	6.2
606.044	6.28
606.234	6.23
606.423	6.19
606.612	6.2
606.802	6.04
606.991	6.18
607.181	6.19
607.37	6.18
607.559	5.95
607.749	6.13
607.938	6.03
608.127	6.02
608.316	6.08
608.506	5.93
608.695	6.02
608.884	5.87
609.073	5.97
609.263	6.04
609.452	5.98
609.641	5.94
609.83	5.84
610.019	5.86
610.208	5.82
610.397	5.83
610.586	5.84
610.775	5.8
610.965	5.79
611.154	5.72
611.343	5.83
611.532	5.63
611.721	5.75
611.91	5.73
612.099	5.66
612.287	5.62
612.476	5.55
612.665	5.76
612.854	5.62
613.043	5.59
613.232	5.65
613.421	5.51
613.61	5.6
613.798	5.56
613.987	5.61
614.176	5.52
614.365	5.52
614.554	5.51
614.742	5.51
614.931	5.39
615.12	5.52
615.309	5.45
615.497	5.41
615.686	5.35
615.875	5.33
616.063	5.32
616.252	5.29
616.44	5.34
616.629	5.27
616.818	5.28
617.006	5.22
617.195	5.28
617.383	5.22
617.572	5.19
617.76	5.18
617.949	5.23
618.137	5.28
618.326	5.22
618.514	5.05
618.703	5.06
618.891	5.16
619.079	5.1
619.268	5.2
619.456	4.99
619.644	5.09
619.833	5.05
620.021	4.96
620.209	4.94
620.398	5.01
620.586	4.94
620.774	5.02
620.962	5.01
621.151	4.98
621.339	4.89
621.527	4.86
621.715	4.88
621.903	4.89
622.092	4.84
622.28	4.95
622.468	4.65
622.656	4.75
622.844	4.76
623.032	4.87
623.22	4.66
623.408	4.83
623.596	4.72
623.784	4.77
623.972	4.59
624.16	4.67
624.348	4.71
624.536	4.71
624.724	4.57
624.912	4.62
625.1	4.61
625.288	4.61
625.476	4.47
625.664	4.61
625.851	4.54
626.039	4.54
626.227	4.48
626.415	4.53
626.603	4.38
626.79	4.49
626.978	4.47
627.166	4.46
627.354	4.34
627.541	4.36
627.729	4.3
627.917	4.47
628.104	4.4
628.292	4.3
628.48	4.32
628.667	4.32
628.855	4.37
629.042	4.41
629.23	4.23
629.418	4.23
629.605	4.28
629.793	4.14
629.98	4.21
630.168	4.16
630.355	4.19
630.543	4.13
630.73	4.06
630.917	4.08
631.105	4.2
631.292	4.15
631.48	4.12
631.667	4.16
631.854	4.06
632.042	4.02
632.229	3.95
632.416	4.02
632.604	4
632.791	3.91
632.978	3.98
633.165	3.99
633.353	3.97
633.54	4.03
633.727	3.87
633.914	3.88
634.101	3.81
634.289	3.93
634.476	3.87
634.663	3.8
634.85	3.88
635.037	3.77
635.224	3.78
635.411	3.86
635.598	3.8
635.785	3.67
635.972	3.74
636.159	3.75
636.346	3.74
636.533	3.62
636.72	3.72
636.907	3.63
637.094	3.61
637.281	3.53
637.468	3.68
637.655	3.62
637.842	3.63
638.029	3.51
638.215	3.56
638.402	3.55
638.589	3.5
638.776	3.49
638.963	3.43
639.149	3.54
639.336	3.54
639.523	3.45
639.709	3.5
639.896	3.42
640.083	3.4
640.27	3.49
640.456	3.4
640.643	3.39
640.829	3.28
641.016	3.35
641.203	3.32
641.389	3.32
641.576	3.3
641.762	3.33
641.949	3.27
642.135	3.28
642.322	3.23
642.508	3.13
642.695	3.22
642.881	3.22
643.068	3.17
643.254	3.19
643.441	3.23
643.627	3.23
643.813	3.11
644	3.19
644.186	3.06
644.372	3.2
644.559	3.19
644.745	3.08
644.931	3.03
645.118	3.12
645.304	3.07
645.49	3.04
645.676	2.96
645.862	3
646.049	3.09
646.235	2.98
646.421	3.13
646.607	3.11
646.793	2.94
646.979	2.89
647.165	2.96
647.352	2.94
647.538	2.95
647.724	2.89
647.91	2.9
648.096	2.91
648.282	2.96
648.468	2.87
648.654	2.88
648.84	2.82
649.026	2.87
649.212	2.8
649.397	2.81
649.583	2.81
649.769	2.85
649.955	2.81
650.141	2.82
650.327	2.79
650.513	2.69
650.698	2.79
650.884	2.71
651.07	2.71
651.256	2.72
651.442	2.66
651.627	2.61
651.813	2.67
651.999	2.69
652.184	2.64
652.37	2.62
652.556	2.63
652.741	2.72
652.927	2.53
653.113	2.59
653.298	2.59
653.484	2.55
653.669	2.54
653.855	2.53
654.04	2.59
654.226	2.55
654.412	2.54
654.597	2.48
654.782	2.5
654.968	2.6
655.153	2.5
655.339	2.46
655.524	2.46
655.71	2.5
655.895	2.47
656.08	2.49
656.266	2.52
656.451	2.47
656.636	2.38
656.822	2.37
657.007	2.41
657.192	2.43
657.378	2.36
657.563	2.35
657.748	2.39
657.933	2.35
658.118	2.33
658.304	2.33
658.489	2.42
658.674	2.37
658.859	2.29
659.044	2.33
659.229	2.34
659.414	2.34
659.599	2.3
659.785	2.25
659.97	2.3
660.155	2.3
660.34	2.33
660.525	2.21
660.71	2.2
660.895	2.3
661.08	2.22
661.264	2.19
661.449	2.24
661.634	2.22
661.819	2.14
662.004	2.12
662.189	2.14
662.374	2.12
662.559	2.08
662.743	2
662.928	2.09
663.113	2.04
663.298	2.02
663.483	2.01
663.667	2.04
663.852	1.99
664.037	2.06
664.221	2
664.406	2.07
664.591	2.02
664.775	2.04
664.96	1.94
665.145	1.94
665.329	1.99
665.514	1.93
665.698	1.93
665.883	1.88
666.068	1.92
666.252	1.88
666.437	1.81
666.621	1.87
666.806	1.88
666.99	1.81
667.174	1.81
667.359	1.86
667.543	1.77
667.728	1.77
667.912	1.69
668.096	1.81
668.281	1.74
668.465	1.83
668.649	1.78
668.834	1.7
669.018	1.75
669.202	1.76
669.387	1.67
669.571	1.77
669.755	1.64
669.939	1.7
670.124	1.69
670.308	1.77
670.492	1.71
670.676	1.69
670.86	1.66
671.044	1.61
671.228	1.66
671.413	1.64
671.597	1.59
671.781	1.62
671.965	1.64
672.149	1.62
672.333	1.65
672.517	1.56
672.701	1.58
672.885	1.55
673.069	1.5
673.253	1.63
673.437	1.57
673.621	1.52
673.804	1.55
673.988	1.6
674.172	1.56
674.356	1.47
674.54	1.5
674.724	1.58
674.908	1.48
675.091	1.53
675.275	1.5
675.459	1.55
675.643	1.56
675.826	1.5
676.01	1.48
676.194	1.45
676.377	1.51
676.561	1.47
676.745	1.45
676.928	1.46
677.112	1.49
677.296	1.39
677.479	1.34
677.663	1.41
677.846	1.47
678.03	1.37
678.213	1.34
678.397	1.4
678.58	1.38
678.764	1.37
678.947	1.34
679.131	1.4
679.314	1.41
679.498	1.36
679.681	1.37
679.865	1.36
680.048	1.31
680.231	1.28
680.415	1.27
680.598	1.23
680.781	1.29
680.965	1.31
681.148	1.26
681.331	1.21
681.514	1.27
681.698	1.21
681.881	1.22
682.064	1.28
682.247	1.24
682.43	1.18
682.614	1.29
682.797	1.28
682.98	1.27
683.163	1.14
683.346	1.27
683.529	1.23
683.712	1.17
683.895	1.23
684.078	1.17
684.261	1.17
684.444	1.28
684.627	1.23
684.81	1.11
684.993	1.15
685.176	1.18
685.359	1.12
685.542	1.14
685.725	1.18
685.908	1.09
686.091	1.12
686.274	1.2
686.457	1.19
686.639	1.16
686.822	1.26
687.005	1.16
687.188	1.11
687.371	1.22
687.553	1.2
687.736	1.13
687.919	1.18
688.102	1.16
688.284	1.04
688.467	1.11
688.65	1.08
688.832	1.03
689.015	1.05
689.197	0.96
689.38	1.14
689.563	1.16
689.745	1.05
689.928	1.04
690.11	1.03
690.293	1.04
690.475	1.02
690.658	1.01
690.84	1.02
691.023	1.04
691.205	0.98
691.388	1.08
691.57	1.09
691.752	1.08
691.935	0.88
692.117	0.95
692.3	1.01
692.482	0.97
692.664	1
692.847	0.93
693.029	1.01
693.211	1.01
693.393	0.98
693.576	0.88
693.758	0.94
693.94	0.99
694.122	0.88
694.304	0.92
694.487	0.93
694.669	0.95
694.851	0.87
695.033	0.95
695.215	0.94
695.397	0.87
695.579	0.89
695.761	0.83
695.943	0.84
696.125	0.95
696.308	0.92
696.49	0.77
696.671	1.01
696.853	0.88
697.035	1.04
697.217	0.88
697.399	0.93
697.581	0.85
697.763	0.87
697.945	0.85
698.127	0.87
698.309	0.97
698.491	0.88
698.672	0.89
698.854	0.91
699.036	0.87
699.218	0.8
699.399	0.88
699.581	0.89
699.763	0.85
699.945	0.81
700.126	0.77
700.308	0.84
700.49	0.79
700.671	0.73
700.853	0.81
701.035	0.78
701.216	0.84
701.398	0.79
701.579	0.8
701.761	0.86
701.943	0.81
702.124	0.75
702.306	0.8
702.487	0.93
702.669	0.79
702.85	0.75
703.031	0.76
703.213	0.9
703.394	0.83
703.576	0.82
703.757	0.88
703.938	0.85
704.12	0.97
704.301	0.77
704.483	0.72
704.664	0.79
704.845	0.91
705.026	0.87
705.208	0.69
705.389	0.76
705.57	0.81
705.751	0.76
705.933	0.79
706.114	0.83
706.295	0.78
706.476	0.69
706.657	0.8
706.838	0.79
707.02	0.76
707.201	0.67
707.382	0.72
707.563	0.76
707.744	0.72
707.925	0.66
708.106	0.7
708.287	0.76
708.468	0.81
708.649	0.75
708.83	0.8
709.011	0.67
709.192	0.81
709.373	0.61
709.554	0.72
709.734	0.82
709.915	0.82
710.096	0.66
710.277	0.57
710.458	0.72
710.639	0.72
710.819	0.59
711	0.68
711.181	0.65
711.362	0.74
711.542	0.68
711.723	0.65
711.904	0.81
712.085	0.71
712.265	0.57
712.446	0.59
712.627	0.71
712.807	0.69
712.988	0.68
713.168	0.59
713.349	0.67
713.53	0.52
713.71	0.61
713.891	0.56
714.071	0.64
714.252	0.62
714.432	0.69
714.613	0.57
714.793	0.64
714.974	0.75
715.154	0.69
715.334	0.7
715.515	0.72
715.695	0.5
715.876	0.63
716.056	0.52
716.236	0.6
716.417	0.66
716.597	0.64
716.777	0.79
716.957	0.67
717.138	0.64
717.318	0.6
717.498	0.49
717.678	0.71
717.859	0.64
718.039	0.5
718.219	0.68
718.399	0.69
718.579	0.53
718.759	0.6
718.939	0.66
719.12	0.59
719.3	0.58
719.48	0.51
719.66	0.49
719.84	0.69
720.02	0.61
720.2	0.53
720.38	0.61
720.56	0.68
720.74	0.6
720.92	0.59
721.1	0.71
721.279	0.68
721.459	0.64
721.639	0.47
721.819	0.6
721.999	0.6
722.179	0.6
722.359	0.51
722.538	0.61
722.718	0.63
722.898	0.56
723.078	0.59
723.257	0.6
723.437	0.61
723.617	0.64
723.797	0.52
723.976	0.69
724.156	0.66
724.336	0.66
724.515	0.84
724.695	0.54
724.874	0.57
725.054	0.59
725.234	0.48
725.413	0.64
725.593	0.53
725.772	0.59
725.952	0.6
726.131	0.56
726.311	0.62
726.49	0.62
726.67	0.51
726.849	0.53
727.028	0.6
727.208	0.67
727.387	0.6
727.567	0.5
727.746	0.58
727.925	0.55
728.105	0.48
728.284	0.47
728.463	0.59
728.643	0.53
728.822	0.43
729.001	0.57
729.18	0.54
729.359	0.57
729.539	0.6
729.718	0.6
729.897	0.65
730.076	0.58
730.255	0.44
730.434	0.59
730.614	0.65
730.793	0.7
730.972	0.5
731.151	0.56
731.33	0.7
731.509	0.66
731.688	0.66
731.867	0.54
732.046	0.5
732.225	0.71
732.404	0.51
732.583	0.45
732.762	0.65
732.941	0.65
733.12	0.65
733.298	0.62
733.477	0.67
733.656	0.48
733.835	0.58
734.014	0.69
734.193	0.53
734.371	0.68
734.55	0.67
734.729	0.48
734.908	0.59
735.086	0.65
735.265	0.67
735.444	0.3
735.623	0.49
735.801	0.41
735.98	0.51
736.159	0.63
736.337	0.68
736.516	0.66
736.694	0.6
736.873	0.54
737.052	0.69
737.23	0.69
737.409	0.61
737.587	0.79
737.766	0.46
737.944	0.53
738.123	0.7
738.301	0.61
738.479	0.57
738.658	0.68
738.836	0.41
739.015	0.66
739.193	0.7
739.371	0.44
739.55	0.65
739.728	0.5
739.906	0.75
740.085	0.74
740.263	0.69
740.441	0.3
740.62	0.78
740.798	0.73
740.976	0.58
741.154	0.44
741.332	0.72
741.511	0.58
741.689	0.58
741.867	0.69
742.045	0.6
742.223	0.6
742.401	0.37
742.579	0.43
742.757	0.6
742.935	0.46
743.114	0.54
743.292	0.56
743.47	0.51
743.648	0.48
743.826	0.58
744.004	0.63
744.181	0.48
744.359	0.45
744.537	0.51
744.715	0.48
744.893	0.53
745.071	0.55
745.249	0.43
745.427	0.41
745.605	0.72
745.782	0.48
745.96	0.5
746.138	0.53
746.316	0.52
746.493	0.48
746.671	0.48
746.849	0.38
747.027	0.66
747.204	0.41
747.382	0.53
747.56	0.37
747.737	0.41
747.915	0.42
748.093	0.54
748.27	0.48
748.448	0.46
748.625	0.45
748.803	0.36
748.98	0.34
749.158	0.49
749.335	0.53
749.513	0.49
749.69	0.45
749.868	0.45
750.045	0.4
750.223	0.35
750.4	0.25
750.578	0.58
750.755	0.45
750.932	0.24
751.11	0.59
751.287	0.34
751.464	0.5
751.642	0.22
751.819	0.5
751.996	0.45
752.173	0.35
752.351	0.43
752.528	0.38
752.705	0.43
752.882	0.47
753.06	0.51
753.237	0.51
753.414	0.53
753.591	0.59
753.768	0.42
753.945	0.44
754.122	0.32
754.299	0.43
754.476	0.32
754.654	0.43
754.831	0.47
755.008	0.39
755.185	0.39
755.362	0.34
755.539	0.51
755.716	0.52
755.892	0.3
756.069	0.37
756.246	0.45
756.423	0.4
756.6	0.53
756.777	0.36
756.954	0.67
757.131	0.39
757.307	0.26
757.484	0.36
757.661	0.44
757.838	0.58
758.015	0.26
758.191	0.43
758.368	0.51
758.545	0.61
758.721	0.35
758.898	0.34
759.075	0.37
759.251	0.43
759.428	0.38
759.605	0.27
759.781	0.29
759.958	0.4
760.134	0.38
760.311	0.35
760.488	0.5
760.664	0.66
760.841	0.4
761.017	0.36
761.194	0.51
761.37	0.56
761.547	0.4
761.723	0.41
761.899	0.6
762.076	0.33
762.252	0.24
762.429	0.29
762.605	0.47
762.781	0.35
762.958	0.47
763.134	0.38
763.31	0.36
763.486	0.52
763.663	0.13
763.839	0.46
764.015	0.23
764.191	0.3
764.368	0.32
764.544	0.34
764.72	0.5
764.896	0.45
765.072	0.35
765.248	0.3
765.425	0.31
765.601	0.34
765.777	0.33
765.953	0.15
766.129	0.36
766.305	0.38
766.481	0.5
766.657	0.47
766.833	0.52
767.009	0.3
767.185	0.35
767.361	0.4
767.537	0.15
767.713	0.46
767.889	0.33
768.065	0.47
768.24	0.44
768.416	0.49
768.592	0.36
768.768	0.35
768.944	0.37
769.12	0.3
769.295	0.33
769.471	0.37
769.647	0.27
769.823	0.58
769.998	0.31
770.174	0.25
770.35	0.67
770.525	0.56
770.701	0.42
770.877	0.31
771.052	0.31
771.228	0.46
771.403	0.45
771.579	0.37
771.755	0.74
771.93	0.4
772.106	0.15
772.281	0.2
772.457	0.4
772.632	0.51
772.808	0.19
772.983	0.26
773.159	0.07
773.334	0.55
773.509	0.42
773.685	0.25
773.86	0.74
774.036	0.51
774.211	0.39
774.386	0.28
774.562	0.44
774.737	0.53
774.912	0.28
775.087	0.41
775.263	0.31
775.438	0.36
775.613	0.4
775.788	0.45
775.964	0.48
776.139	0.71
776.314	0.25
776.489	0.34
776.664	0.54
776.839	0.3
777.014	0.46
777.19	0.44
777.365	0.52
777.54	0.5
777.715	0.23
777.89	0.41
778.065	0.35
778.24	0.42
778.415	0.44
778.59	0.29
778.765	0.42
778.94	0.4
779.115	0.44
779.289	0.28
779.464	0.4
779.639	0.46
779.814	0.26
779.989	0.25
780.164	0.57
780.339	0.39
780.513	0.38
780.688	0.24
780.863	0.56
781.038	0.57
781.212	0.2
781.387	0.45
781.562	0.69
781.737	0.52
781.911	0.52
782.086	0.24
782.261	0.45
782.435	0.71
782.61	0.43
782.784	0.31
782.959	0.62
783.134	0.28
783.308	0.16
783.483	0.33
783.657	0.95
783.832	0.48
784.006	0.11
784.181	0.36
784.355	0.45
784.53	0.57
784.704	0.25
784.878	0.77
785.053	0.47
785.227	0.72
785.402	0.75
785.576	0.38
785.75	0.46
785.925	0.41
786.099	0.56
786.273	0.58
786.448	0.61
786.622	0.83
786.796	0.54
786.97	0.32
787.145	0.91
787.319	0.3
787.493	0.41
787.667	0.23
787.841	0.36
788.015	0.62
788.19	0.3
788.364	0.48
788.538	0.56
788.712	0.6
788.886	0.39
789.06	0.66
789.234	0.59
789.408	0.18
789.582	0.51
789.756	0.22
789.93	0.28
790.104	0.25
790.278	0.18
790.452	0.34
790.626	0.72
790.8	0.3
790.973	0.47
791.147	0.69
791.321	0.6
791.495	0.61
791.669	0.57
791.843	0.67
792.016	0.48
792.19	0.99
792.364	0.32
792.538	0.92
792.711	0.83
792.885	0.31
793.059	0.3
793.233	0.01
793.406	0.73
793.58	0.33
793.754	0.52
793.927	0.26
794.101	0.53
794.274	0.38
794.448	0.52
794.622	0.14
794.795	0.55
794.969	0.39
795.142	0.87
795.316	0.33
795.489	0.29
795.663	0.89
795.836	0.51
796.009	0.36
796.183	0.91
796.356	0.55
796.53	0.62
796.703	0.46
796.876	1.18
797.05	0.28
797.223	0.73
797.396	0.56
797.57	0.29
797.743	0.96
797.916	0.49
798.09	0.44
798.263	0.64
798.436	0.89
798.609	0.45
798.782	0.45
798.956	0.53
799.129	0.35
799.302	0.49
799.475	0.35
799.648	0.3
799.821	0.34
799.994	0.51
800.167	0.13
800.34	0.37
800.514	0.52
800.687	0.55
800.86	0.34
801.033	0.46
801.206	0.71
801.379	0.11
801.551	1.16
801.724	0.66
801.897	1
802.07	0.29
802.243	-0.03
802.416	0.32
802.589	0.58
802.762	0.59
802.935	0.76
803.107	0.85
803.28	0.53
803.453	0.65
803.626	0.53
803.798	0.63
803.971	0.41
804.144	0.77
804.317	0.76
804.489	0.92
804.662	0.68
804.835	0.71
805.007	0.22
805.18	0.91
805.353	0.63
805.525	0.32
805.698	0.16
805.87	0.95
806.043	0.56
806.215	0.21
806.388	0.56
806.56	0.71
806.733	0.9
806.905	0.74
807.078	0.3
807.25	0.25
807.423	0.83
807.595	0.52
807.768	0.49
807.94	0.76
808.112	0.82
808.285	0.86
808.457	0.18
808.629	0.64
808.802	1.1
808.974	0.63
809.146	0.41
809.318	0.51
809.491	0.78
809.663	0.51
809.835	0.6
810.007	1.03
810.18	0.62
810.352	0.21
810.524	0.39
810.696	0.91
810.868	0.75
811.04	0.48
811.212	0.33
811.384	0.92
811.556	0.65
811.728	0.43
811.901	1.49
812.073	0.36
812.245	0.85
812.417	0.73
812.589	-0.27
812.76	0.71
812.932	0.88
813.104	1.21
813.276	0.56
813.448	0.94
813.62	0.66
813.792	0.77
813.964	0.67
814.136	0.64
814.307	0.72
814.479	0.5
814.651	0.54
814.823	1.42
814.995	0.61
815.166	0.92
815.338	0.2
815.51	-0.26
815.681	1.9
815.853	0.87
816.025	0.69
816.196	1.14
816.368	0.51
816.54	0.35
816.711	0.44
816.883	0.98
817.054	1.71
817.226	0.38
817.398	0.94
817.569	0.43
817.741	0.9
817.912	0.9
818.084	0.83
818.255	0.98
818.426	0.3
818.598	0.9
818.769	0.37
818.941	0.77
819.112	1.2
819.283	0.99
819.455	0.29
819.626	0.8
819.798	1.04
819.969	1.05
820.14	0.47
820.311	0.55
820.483	1.03
820.654	0.78
820.825	0.26
820.996	0.81
821.168	0.36
821.339	0.6
821.51	0.33
821.681	0.84
821.852	0.5
822.023	-0.15
822.195	0.42
822.366	1.24
822.537	0.72
822.708	0.6
822.879	0.45
823.05	1.66
823.221	0.35
823.392	1.2
823.563	0.67
823.734	0.56
823.905	0.8
824.076	0.65
824.247	0.32
824.418	0.37
824.589	1.59
824.759	0.8
824.93	0.54
825.101	0.49
825.272	1.15
825.443	1.18
825.614	0.9
825.784	-0.1
825.955	2.06
826.126	1.49
826.297	1.26
826.467	2.08
826.638	1.89
826.809	0.63
826.98	0.82
827.15	1.15
827.321	0.94
827.492	1.4
827.662	1.04
827.833	1.47
828.003	0.81
828.174	0.32
828.345	0.3
828.515	1.45
828.686	0.85
828.856	0.42
829.027	0.62
829.197	1.16
829.368	1.22
829.538	0.63
829.709	0.46
829.879	1.21
830.049	1.25
830.22	0.05
830.39	0.48
830.56	1.41
830.731	0.52
830.901	0.76
831.072	0.66
831.242	0.73
831.412	0.87
831.582	1.05
831.753	0.14
831.923	1.09
832.093	1.17
832.263	0.49
832.434	0.44
832.604	1.01
832.774	1.54
832.944	0.73
833.114	0.29
833.284	1.38
833.454	0.19
833.624	0.48
833.795	0.28
833.965	1.61
834.135	1.59
834.305	-0.06
834.475	0.69
834.645	1.42
834.815	1.05
834.985	0.38
835.155	0.93
835.325	0.95
835.494	1.14
835.664	1.26
835.834	-0.22
836.004	0.49
836.174	1.25
836.344	0.94
836.514	-0.29
836.684	0.68
836.853	1.19
837.023	1.14
837.193	0.38
837.363	2.07
837.532	1.83
837.702	0.7
837.872	0.51
838.041	1.82
838.211	2.16
838.381	0.35
838.55	1.12
838.72	2.96
838.89	2.02
839.059	0.42
839.229	0.14
839.398	2.14
839.568	0.69
839.738	1.05
839.907	1.9
840.077	1.64
840.246	0.74
840.416	-0.08
840.585	0.66
840.755	3.03
840.924	2.46
841.093	0.15
841.263	0.87
841.432	0.98
841.602	0.63
841.771	0.53
841.94	1.09
842.11	2.92
842.279	2.63
842.448	0.14
842.617	0.81
842.787	1.66
842.956	0.09
843.125	0.67
843.294	1.73
843.464	1.77
843.633	1.14
843.802	-0.23
843.971	0.55
844.14	1.53
844.309	1.68
844.479	0.47
844.648	0.14
844.817	0.73
844.986	1.18
845.155	0.95
845.324	1.63
845.493	1.02
845.662	2.5
845.831	2.59
846	1.21
846.169	1.69
846.338	1.92
846.507	1.79
846.676	1.33
846.844	0.73
847.013	1.34
847.182	1.29
847.351	1.16
847.52	1.5
847.689	1.87
847.858	1.39
848.026	0.88
848.195	1.03
848.364	1.32
848.533	1.14
848.701	0.88
848.87	1.43
849.039	2.41
849.207	2.73
849.376	2.1
849.545	2.89
849.713	0.82
849.882	1.09
850.051	1.65
850.219	1.49
850.388	1.77
850.556	0.92
850.725	1.38
850.893	1.01
851.062	1.24
851.23	2.38
851.399	0.17
851.567	0.93
851.736	0.59
851.904	0.96
852.073	1.61
852.241	2.32
852.41	0.99
852.578	0.89
852.746	1.25
852.915	2.32
853.083	0.67
853.251	-0.07
853.42	0.83
853.588	1.55
853.756	3.19
853.924	1.18
854.093	2.21
854.261	1.57
854.429	0.92
854.597	1.95
854.765	0.27
854.934	2.35
855.102	3.08
855.27	1.56
855.438	2.7
855.606	2.6
855.774	2.16
855.942	0.06
856.11	1.79
856.278	1.45
856.446	3.1
856.614	1.77
856.782	0.19
856.95	2.66
857.118	2.67
857.286	1.21
857.454	0.29
857.622	2.05
857.79	1.51
857.958	0.86
858.126	1.97
858.294	1.17
858.462	1.14
858.629	0.12
858.797	0.26
858.965	2.29
859.133	2.16
859.301	1.4
859.468	1.85
859.636	-0.18
859.804	3.3
859.971	2.34
860.139	1.54
860.307	2.32
860.474	1.17
860.642	0.71
860.81	1.15
860.977	1.41
861.145	2.88
861.313	1.3
861.48	1.56
861.648	3.62
861.815	2.15
861.983	-0.59
862.15	1.31
862.318	2.13
862.485	1.9
862.653	1.32
862.82	0.36
862.988	3.57
863.155	3.62
863.322	1.53
863.49	0.44
863.657	0.83
863.824	3.47
863.992	1.59
864.159	1.78
864.326	3.89
864.494	1.08
864.661	5.26
864.828	1.04
864.996	3.58
865.163	3.52
865.33	0.65
865.497	0.32
865.664	1.63
865.832	0.15
865.999	1.98
866.166	1.03
866.333	1.35
866.5	1.15
866.667	1.12
866.834	0.88
867.001	4.04
867.168	0.28
867.335	3.12
867.502	0.05
867.669	2.16
867.836	4.13
868.003	1.95
868.17	4.31
868.337	0.31
868.504	5.38
868.671	0.15
868.838	0.39
869.005	3.73
869.172	2.8
869.339	1.8
869.505	2.42
869.672	2.27
869.839	3.97
870.006	1.77
870.173	-0.07
870.339	3.02
870.506	6.29
870.673	1.72
870.84	2.69
871.006	2.86
871.173	1.46
871.34	1.14
871.506	0.65
871.673	3.52
871.839	1.09
872.006	1.58
872.173	1.23
872.339	3.51
872.506	4.07
872.672	0.48
872.839	0.88
873.005	1.49
873.172	5.11
873.338	2.98
873.505	3.7
873.671	2.11
873.838	2.89
874.004	-0.28
874.171	0.04
874.337	1.23
874.503	1.81
874.67	2.42
874.836	1.1
875.002	3.31
875.169	3.8
875.335	2.12
875.501	0.97
875.668	3.95
875.834	1.82
876	1.61
876.166	2.53
876.332	3.21
876.499	6.11
876.665	0.59
876.831	0.45
876.997	3.23
877.163	3.33
877.329	0.58
877.495	2.32
877.662	2.52
877.828	4.53
877.994	1.24
878.16	-0.47
878.326	1.16
878.492	3.42
878.658	2.53
878.824	2.65
878.99	4.29
879.156	-0.96
879.322	4.34
879.487	1.45
879.653	3.54
879.819	2.56
879.985	0.46
880.151	0.79
880.317	3.77
880.483	1.09
880.648	2.21
880.814	-0.46
880.98	4.19
881.146	-0.51
881.312	-0.25
881.477	2.83
881.643	2.21
881.809	4.55
881.974	4.62
882.14	-0.42
882.306	2.42
882.471	6.08
882.637	0.61
882.803	2.26
882.968	4.09
883.134	4.11
883.299	2.57
883.465	0.66
883.63	4.47
883.796	4.62
883.961	4.64
884.127	3.47
884.292	-2.85
884.458	0.53
884.623	0.53
