Data from Apollo_Calib_20240827__AbsoluteIrradiance__849__13-18-02-827.txt Node

Date: Wed Aug 28 13:18:02 BST 2024
User: biology
Spectrometer: FLMT08252
Trigger mode: 0
Integration Time (sec): 5.000000E-1
Scans to average: 5
Electric dark correction enabled: true
Nonlinearity correction enabled: false
Boxcar width: 0
XAxis mode: Wavelengths
Number of Pixels in Spectrum: 3648
>>>>>Begin Spectral Data<<<<<
179.588	-0
179.809	-0
180.03	-0
180.251	-0
180.473	-0
180.694	0
180.915	0
181.136	-0
181.357	-0
181.578	-0
181.799	0
182.02	-0
182.241	0
182.462	0
182.683	0
182.904	-0
183.125	-0
183.346	0
183.567	0
183.788	0
184.009	0
184.23	0
184.451	0
184.672	0
184.892	0
185.113	0
185.334	0
185.555	0
185.776	0
185.996	0
186.217	0
186.438	0
186.659	0
186.879	0
187.1	0
187.321	0
187.541	0
187.762	0
187.983	0
188.203	0
188.424	0
188.644	0
188.865	0
189.086	0
189.306	0
189.527	0
189.747	0
189.968	0
190.188	0
190.409	0
190.629	0
190.849	0
191.07	0
191.29	0
191.511	0
191.731	0
191.951	0
192.172	0
192.392	0
192.612	0
192.833	0
193.053	0
193.273	0
193.493	0
193.714	0
193.934	0
194.154	0
194.374	0
194.594	0
194.815	0
195.035	0
195.255	0
195.475	0
195.695	0
195.915	0
196.135	0
196.355	0
196.575	0
196.795	0
197.015	0
197.235	0
197.455	0
197.675	0
197.895	0
198.115	0
198.335	0
198.555	0
198.775	0
198.995	0
199.214	0
199.434	0
199.654	0
199.874	0
200.094	4.3
200.313	1.81
200.533	2.02
200.753	1.93
200.973	3.9
201.192	4
201.412	1.66
201.632	1.65
201.851	3.3
202.071	1.56
202.291	1.46
202.51	1.53
202.73	3.25
202.95	1.86
203.169	0.86
203.389	1.65
203.608	2.34
203.828	1.78
204.047	1.64
204.267	2.63
204.486	2.2
204.706	2.2
204.925	1.81
205.145	1.66
205.364	2.3
205.583	2.45
205.803	1.28
206.022	1.32
206.242	2.21
206.461	1.58
206.68	1.31
206.9	1.36
207.119	2.6
207.338	2.19
207.557	1.34
207.777	1.35
207.996	1.67
208.215	2.24
208.434	0.84
208.654	0.77
208.873	1.78
209.092	2.18
209.311	1.12
209.53	0.88
209.749	1.37
209.968	1.17
210.187	1.18
210.407	0.85
210.626	1.26
210.845	1.64
211.064	1.26
211.283	0.95
211.502	1.66
211.721	1.17
211.94	1.1
212.159	1.49
212.377	1.48
212.596	1.56
212.815	1.15
213.034	1.19
213.253	1.4
213.472	1.36
213.691	0.9
213.91	0.78
214.128	0.73
214.347	1.59
214.566	0.66
214.785	0.54
215.003	1.07
215.222	1.26
215.441	0.81
215.66	0.42
215.878	1.15
216.097	1.4
216.316	0.63
216.534	0.72
216.753	1.12
216.972	0.77
217.19	1.02
217.409	0.65
217.627	0.73
217.846	0.67
218.064	0.98
218.283	0.69
218.501	1.36
218.72	1.22
218.938	0.52
219.157	0.7
219.375	1.11
219.594	1.04
219.812	0.52
220.031	0.48
220.249	1.13
220.467	1.04
220.686	0.72
220.904	0.43
221.122	0.59
221.341	1.17
221.559	0.9
221.777	0.32
221.995	0.83
222.214	0.86
222.432	0.55
222.65	0.77
222.868	0.89
223.086	0.81
223.305	0.88
223.523	0.63
223.741	1.27
223.959	0.85
224.177	0.24
224.395	0.56
224.613	0.84
224.831	1.09
225.049	0.55
225.267	0.58
225.485	0.64
225.703	0.5
225.921	0.59
226.139	0.51
226.357	0.82
226.575	0.84
226.793	0.43
227.011	1.62
227.229	0.72
227.447	1.01
227.665	0.58
227.883	0.34
228.1	0.62
228.318	0.72
228.536	0.28
228.754	0.46
228.972	0.79
229.189	0.72
229.407	0.49
229.625	0.56
229.843	0.83
230.06	1
230.278	0.48
230.496	0.51
230.713	0.7
230.931	0.85
231.149	0.48
231.366	0.29
231.584	0.57
231.801	1.09
232.019	0.56
232.236	0.35
232.454	0.45
232.671	0.69
232.889	0.57
233.106	0.37
233.324	0.52
233.541	0.47
233.759	0.59
233.976	0.45
234.194	0.57
234.411	0.55
234.628	0.33
234.846	0.59
235.063	0.63
235.28	0.61
235.498	0.61
235.715	0.39
235.932	0.76
236.149	0.57
236.367	0.35
236.584	0.51
236.801	0.48
237.018	0.69
237.236	0.5
237.453	0.25
237.67	0.65
237.887	0.58
238.104	0.46
238.321	0.35
238.538	0.42
238.755	0.71
238.973	0.3
239.19	0.5
239.407	0.65
239.624	0.55
239.841	0.43
240.058	0.38
240.275	0.56
240.492	0.5
240.709	0.42
240.925	0.3
241.142	0.58
241.359	0.35
241.576	0.33
241.793	0.3
242.01	0.45
242.227	0.71
242.444	0.6
242.66	0.66
242.877	0.56
243.094	0.35
243.311	0.45
243.527	0.45
243.744	0.54
243.961	0.57
244.178	0.38
244.394	0.45
244.611	0.65
244.828	0.74
245.044	0.34
245.261	0.34
245.477	0.52
245.694	0.65
245.911	0.41
246.127	0.4
246.344	0.63
246.56	0.58
246.777	0.42
246.993	0.45
247.21	0.56
247.426	0.54
247.643	0.35
247.859	0.35
248.076	0.35
248.292	0.67
248.508	0.4
248.725	0.48
248.941	0.56
249.157	0.7
249.374	0.35
249.59	0.48
249.806	0.36
250.023	0.59
250.239	0.33
250.455	0.35
250.671	0.41
250.888	0.51
251.104	0.51
251.32	0.34
251.536	0.45
251.752	0.43
251.969	0.4
252.185	0.39
252.401	0.62
252.617	0.46
252.833	0.38
253.049	0.39
253.265	0.49
253.481	0.44
253.697	0.31
253.913	0.28
254.129	0.46
254.345	0.33
254.561	0.43
254.777	0.36
254.993	0.52
255.209	0.43
255.425	0.41
255.641	0.3
255.857	0.51
256.073	0.39
256.288	0.22
256.504	0.35
256.72	0.48
256.936	0.58
257.152	0.32
257.367	0.33
257.583	0.38
257.799	0.55
258.015	0.26
258.23	0.34
258.446	0.59
258.662	0.37
258.877	0.33
259.093	0.23
259.309	0.46
259.524	0.45
259.74	0.35
259.955	0.23
260.171	0.34
260.387	0.42
260.602	0.44
260.818	0.39
261.033	0.24
261.249	0.39
261.464	0.33
261.68	0.23
261.895	0.46
262.11	0.46
262.326	0.26
262.541	0.24
262.757	0.49
262.972	0.45
263.187	0.35
263.403	0.41
263.618	0.49
263.833	0.42
264.049	0.26
264.264	0.34
264.479	0.42
264.694	0.57
264.91	0.26
265.125	0.33
265.34	0.47
265.555	0.53
265.77	0.38
265.986	0.35
266.201	0.42
266.416	0.49
266.631	0.26
266.846	0.26
267.061	0.45
267.276	0.41
267.491	0.22
267.706	0.35
267.921	0.42
268.136	0.43
268.351	0.39
268.566	0.21
268.781	0.45
268.996	0.42
269.211	0.3
269.426	0.21
269.641	0.32
269.856	0.39
270.071	0.29
270.285	0.26
270.5	0.49
270.715	0.46
270.93	0.29
271.145	0.37
271.359	0.44
271.574	0.39
271.789	0.33
272.004	0.28
272.218	0.39
272.433	0.43
272.648	0.27
272.862	0.43
273.077	0.39
273.292	0.29
273.506	0.23
273.721	0.29
273.936	0.38
274.15	0.35
274.365	0.2
274.579	0.38
274.794	0.44
275.008	0.43
275.223	0.17
275.437	0.34
275.652	0.43
275.866	0.44
276.081	0.32
276.295	0.38
276.509	0.32
276.724	0.32
276.938	0.35
277.153	0.33
277.367	0.4
277.581	0.25
277.796	0.32
278.01	0.23
278.224	0.37
278.438	0.53
278.653	0.25
278.867	0.26
279.081	0.37
279.295	0.28
279.51	0.32
279.724	0.17
279.938	0.42
280.152	0.36
280.366	0.31
280.58	0.33
280.794	0.41
281.008	0.42
281.222	0.29
281.437	0.47
281.651	0.35
281.865	0.43
282.079	0.24
282.293	0.17
282.507	0.24
282.721	0.26
282.935	0.3
283.148	0.23
283.362	0.29
283.576	0.18
283.79	0.26
284.004	0.27
284.218	0.44
284.432	0.25
284.646	0.3
284.859	0.26
285.073	0.33
285.287	0.33
285.501	0.31
285.714	0.27
285.928	0.28
286.142	0.34
286.356	0.27
286.569	0.27
286.783	0.44
286.997	0.36
287.21	0.26
287.424	0.28
287.637	0.32
287.851	0.27
288.065	0.38
288.278	0.28
288.492	0.3
288.705	0.26
288.919	0.36
289.132	0.19
289.346	0.37
289.559	0.22
289.773	0.2
289.986	0.25
290.2	0.32
290.413	0.4
290.626	0.24
290.84	0.24
291.053	0.36
291.267	0.34
291.48	0.26
291.693	0.24
291.906	0.24
292.12	0.31
292.333	0.26
292.546	0.26
292.76	0.37
292.973	0.29
293.186	0.33
293.399	0.26
293.612	0.32
293.826	0.29
294.039	0.27
294.252	0.32
294.465	0.33
294.678	0.33
294.891	0.29
295.104	0.21
295.317	0.28
295.53	0.27
295.743	0.26
295.956	0.23
296.169	0.39
296.382	0.33
296.595	0.27
296.808	0.23
297.021	0.37
297.234	0.36
297.447	0.3
297.66	0.26
297.873	0.37
298.086	0.34
298.299	0.17
298.511	0.18
298.724	0.27
298.937	0.17
299.15	0.25
299.363	0.28
299.575	0.32
299.788	0.28
300.001	0.22
300.213	0.24
300.426	0.24
300.639	0.27
300.852	0.24
301.064	0.3
301.277	0.31
301.489	0.3
301.702	0.31
301.915	0.21
302.127	0.24
302.34	0.3
302.552	0.29
302.765	0.19
302.977	0.34
303.19	0.18
303.402	0.26
303.615	0.21
303.827	0.26
304.04	0.27
304.252	0.28
304.464	0.25
304.677	0.41
304.889	0.34
305.102	0.28
305.314	0.23
305.526	0.3
305.739	0.34
305.951	0.2
306.163	0.25
306.375	0.33
306.588	0.24
306.8	0.23
307.012	0.18
307.224	0.24
307.436	0.39
307.649	0.19
307.861	0.26
308.073	0.27
308.285	0.26
308.497	0.16
308.709	0.21
308.921	0.28
309.133	0.31
309.346	0.25
309.558	0.25
309.77	0.34
309.982	0.35
310.194	0.35
310.406	0.21
310.617	0.36
310.829	0.3
311.041	0.31
311.253	0.17
311.465	0.24
311.677	0.31
311.889	0.21
312.101	0.23
312.313	0.35
312.524	0.38
312.736	0.18
312.948	0.22
313.16	0.37
313.372	0.33
313.583	0.29
313.795	0.24
314.007	0.24
314.218	0.34
314.43	0.29
314.642	0.18
314.853	0.22
315.065	0.33
315.277	0.24
315.488	0.29
315.7	0.3
315.912	0.33
316.123	0.25
316.335	0.19
316.546	0.37
316.758	0.26
316.969	0.23
317.181	0.29
317.392	0.28
317.604	0.39
317.815	0.22
318.026	0.23
318.238	0.24
318.449	0.27
318.661	0.19
318.872	0.18
319.083	0.19
319.295	0.29
319.506	0.23
319.717	0.26
319.929	0.3
320.14	0.29
320.351	0.24
320.562	0.21
320.774	0.27
320.985	0.29
321.196	0.22
321.407	0.17
321.618	0.31
321.829	0.31
322.041	0.3
322.252	0.2
322.463	0.3
322.674	0.32
322.885	0.19
323.096	0.25
323.307	0.28
323.518	0.27
323.729	0.19
323.94	0.23
324.151	0.24
324.362	0.28
324.573	0.29
324.784	0.26
324.995	0.33
325.206	0.32
325.417	0.24
325.628	0.19
325.838	0.32
326.049	0.32
326.26	0.33
326.471	0.22
326.682	0.3
326.892	0.28
327.103	0.16
327.314	0.2
327.525	0.3
327.735	0.33
327.946	0.26
328.157	0.21
328.368	0.29
328.578	0.28
328.789	0.28
328.999	0.27
329.21	0.21
329.421	0.4
329.631	0.22
329.842	0.2
330.052	0.27
330.263	0.29
330.473	0.27
330.684	0.23
330.894	0.25
331.105	0.25
331.315	0.27
331.526	0.18
331.736	0.36
331.947	0.34
332.157	0.25
332.367	0.17
332.578	0.35
332.788	0.3
332.999	0.28
333.209	0.27
333.419	0.19
333.629	0.29
333.84	0.29
334.05	0.22
334.26	0.34
334.47	0.27
334.681	0.3
334.891	0.18
335.101	0.3
335.311	0.42
335.521	0.27
335.732	0.24
335.942	0.37
336.152	0.28
336.362	0.27
336.572	0.24
336.782	0.27
336.992	0.21
337.202	0.26
337.412	0.25
337.622	0.3
337.832	0.26
338.042	0.26
338.252	0.22
338.462	0.23
338.672	0.26
338.882	0.22
339.092	0.25
339.302	0.34
339.511	0.3
339.721	0.26
339.931	0.19
340.141	0.33
340.351	0.34
340.561	0.29
340.77	0.27
340.98	0.27
341.19	0.28
341.4	0.24
341.609	0.18
341.819	0.23
342.029	0.21
342.238	0.27
342.448	0.23
342.658	0.31
342.867	0.27
343.077	0.27
343.286	0.21
343.496	0.31
343.706	0.34
343.915	0.18
344.125	0.29
344.334	0.28
344.544	0.2
344.753	0.23
344.963	0.2
345.172	0.19
345.381	0.25
345.591	0.21
345.8	0.22
346.01	0.33
346.219	0.31
346.428	0.11
346.638	0.25
346.847	0.23
347.056	0.32
347.266	0.18
347.475	0.22
347.684	0.29
347.893	0.3
348.103	0.28
348.312	0.21
348.521	0.25
348.73	0.29
348.94	0.27
349.149	0.24
349.358	0.28
349.567	0.27
349.776	0.15
349.985	0.24
350.194	0.29
350.403	0.34
350.612	0.18
350.821	0.2
351.03	0.26
351.239	0.2
351.448	0.25
351.657	0.2
351.866	0.36
352.075	0.21
352.284	0.26
352.493	0.2
352.702	0.31
352.911	0.26
353.12	0.25
353.329	0.25
353.538	0.3
353.746	0.27
353.955	0.18
354.164	0.27
354.373	0.21
354.582	0.31
354.79	0.24
354.999	0.23
355.208	0.27
355.416	0.34
355.625	0.17
355.834	0.17
356.042	0.28
356.251	0.23
356.46	0.19
356.668	0.25
356.877	0.37
357.085	0.33
357.294	0.19
357.503	0.25
357.711	0.24
357.92	0.38
358.128	0.26
358.337	0.23
358.545	0.27
358.754	0.23
358.962	0.26
359.17	0.22
359.379	0.3
359.587	0.27
359.796	0.22
360.004	0.33
360.212	0.3
360.421	0.32
360.629	0.23
360.837	0.25
361.046	0.35
361.254	0.38
361.462	0.24
361.67	0.22
361.879	0.29
362.087	0.34
362.295	0.24
362.503	0.25
362.711	0.2
362.92	0.24
363.128	0.24
363.336	0.22
363.544	0.19
363.752	0.28
363.96	0.2
364.168	0.24
364.376	0.28
364.584	0.28
364.792	0.28
365	0.27
365.208	0.28
365.416	0.32
365.624	0.3
365.832	0.23
366.04	0.32
366.248	0.26
366.456	0.29
366.664	0.27
366.872	0.31
367.079	0.23
367.287	0.23
367.495	0.24
367.703	0.25
367.911	0.3
368.118	0.24
368.326	0.25
368.534	0.28
368.742	0.29
368.949	0.18
369.157	0.23
369.365	0.3
369.572	0.23
369.78	0.24
369.988	0.32
370.195	0.26
370.403	0.32
370.61	0.24
370.818	0.27
371.026	0.37
371.233	0.22
371.441	0.3
371.648	0.27
371.856	0.3
372.063	0.3
372.271	0.22
372.478	0.2
372.685	0.26
372.893	0.3
373.1	0.21
373.308	0.26
373.515	0.4
373.722	0.3
373.93	0.27
374.137	0.28
374.344	0.33
374.552	0.36
374.759	0.25
374.966	0.25
375.173	0.25
375.381	0.32
375.588	0.24
375.795	0.18
376.002	0.26
376.209	0.23
376.417	0.27
376.624	0.29
376.831	0.31
377.038	0.29
377.245	0.19
377.452	0.22
377.659	0.28
377.866	0.2
378.073	0.26
378.28	0.23
378.487	0.35
378.694	0.35
378.901	0.27
379.108	0.26
379.315	0.35
379.522	0.36
379.729	0.26
379.936	0.25
380.143	0.32
380.35	0.27
380.557	0.26
380.763	0.26
380.97	0.28
381.177	0.28
381.384	0.27
381.591	0.22
381.797	0.33
382.004	0.37
382.211	0.27
382.418	0.18
382.624	0.29
382.831	0.34
383.038	0.25
383.244	0.27
383.451	0.3
383.658	0.34
383.864	0.24
384.071	0.25
384.277	0.33
384.484	0.26
384.69	0.34
384.897	0.27
385.103	0.25
385.31	0.25
385.516	0.27
385.723	0.23
385.929	0.34
386.136	0.24
386.342	0.33
386.549	0.21
386.755	0.36
386.961	0.33
387.168	0.27
387.374	0.3
387.58	0.34
387.787	0.27
387.993	0.3
388.199	0.3
388.406	0.22
388.612	0.25
388.818	0.2
389.024	0.29
389.231	0.29
389.437	0.4
389.643	0.32
389.849	0.3
390.055	0.33
390.261	0.3
390.467	0.36
390.674	0.26
390.88	0.34
391.086	0.3
391.292	0.25
391.498	0.36
391.704	0.32
391.91	0.29
392.116	0.29
392.322	0.21
392.528	0.33
392.734	0.3
392.94	0.32
393.146	0.28
393.352	0.33
393.557	0.3
393.763	0.29
393.969	0.32
394.175	0.33
394.381	0.32
394.587	0.27
394.792	0.33
394.998	0.39
395.204	0.33
395.41	0.33
395.615	0.36
395.821	0.36
396.027	0.35
396.233	0.3
396.438	0.4
396.644	0.34
396.85	0.35
397.055	0.29
397.261	0.34
397.466	0.42
397.672	0.38
397.878	0.36
398.083	0.37
398.289	0.33
398.494	0.44
398.7	0.39
398.905	0.25
399.111	0.47
399.316	0.32
399.522	0.31
399.727	0.34
399.932	0.31
400.138	0.33
400.343	0.36
400.549	0.36
400.754	0.39
400.959	0.31
401.165	0.31
401.37	0.38
401.575	0.41
401.78	0.35
401.986	0.38
402.191	0.33
402.396	0.36
402.601	0.42
402.807	0.44
403.012	0.39
403.217	0.52
403.422	0.4
403.627	0.41
403.832	0.35
404.037	0.47
404.243	0.43
404.448	0.35
404.653	0.38
404.858	0.44
405.063	0.48
405.268	0.43
405.473	0.37
405.678	0.43
405.883	0.69
406.088	0.5
406.293	0.41
406.498	0.47
406.703	0.52
406.907	0.45
407.112	0.41
407.317	0.57
407.522	0.56
407.727	0.53
407.932	0.53
408.136	0.67
408.341	0.57
408.546	0.56
408.751	0.61
408.956	0.63
409.16	0.61
409.365	0.59
409.57	0.63
409.774	0.65
409.979	0.68
410.184	0.64
410.388	0.61
410.593	0.8
410.798	0.74
411.002	0.69
411.207	0.71
411.411	0.78
411.616	0.73
411.82	0.79
412.025	0.88
412.229	0.82
412.434	0.96
412.638	0.92
412.843	0.86
413.047	0.93
413.252	0.93
413.456	1.02
413.66	1.06
413.865	1.02
414.069	1.18
414.273	1.09
414.478	1.06
414.682	1.12
414.886	1.19
415.091	1.11
415.295	1.17
415.499	1.39
415.703	1.33
415.908	1.46
416.112	1.28
416.316	1.58
416.52	1.48
416.724	1.46
416.929	1.55
417.133	1.79
417.337	1.64
417.541	1.76
417.745	1.77
417.949	1.89
418.153	1.9
418.357	1.91
418.561	2.18
418.765	2.13
418.969	2.24
419.173	2.35
419.377	2.32
419.581	2.63
419.785	2.54
419.989	2.45
420.193	2.7
420.397	2.75
420.601	2.93
420.804	2.99
421.008	2.92
421.212	3.06
421.416	3.15
421.62	3.2
421.823	3.21
422.027	3.4
422.231	3.36
422.435	3.34
422.638	3.44
422.842	3.49
423.046	3.59
423.249	3.84
423.453	3.84
423.657	3.99
423.86	4.04
424.064	4.13
424.268	4.35
424.471	4.29
424.675	4.48
424.878	4.57
425.082	4.7
425.285	4.97
425.489	4.9
425.692	5.09
425.896	4.99
426.099	5.16
426.303	5.31
426.506	5.55
426.71	5.65
426.913	5.93
427.116	6.01
427.32	5.97
427.523	6.13
427.726	6.4
427.93	6.55
428.133	6.77
428.336	7.01
428.54	7.12
428.743	7.31
428.946	7.55
429.149	7.66
429.353	7.59
429.556	7.68
429.759	7.78
429.962	7.9
430.165	8.07
430.368	7.73
430.571	7.76
430.775	7.81
430.978	7.81
431.181	7.91
431.384	8.06
431.587	8.03
431.79	8.38
431.993	8.24
432.196	8.75
432.399	9
432.602	9.13
432.805	9.2
433.008	9.86
433.211	9.61
433.414	9.95
433.616	9.98
433.819	10.04
434.022	10.13
434.225	10.46
434.428	10.35
434.631	10.84
434.833	10.5
435.036	10.82
435.239	11.09
435.442	11.04
435.645	11.23
435.847	11.31
436.05	11.64
436.253	11.87
436.455	11.85
436.658	11.81
436.861	12.05
437.063	12.17
437.266	12.12
437.468	12.47
437.671	12.88
437.874	12.77
438.076	12.65
438.279	13.22
438.481	13.27
438.684	13.87
438.886	13.57
439.089	13.82
439.291	13.86
439.494	14.2
439.696	14.3
439.899	14.84
440.101	15.32
440.303	15.43
440.506	16.23
440.708	15.93
440.91	16.11
441.113	16.33
441.315	16.69
441.517	16.29
441.72	16.83
441.922	16.48
442.124	16.35
442.326	16.67
442.529	17.05
442.731	17.08
442.933	17.38
443.135	17.18
443.337	17.14
443.539	17.61
443.742	17.43
443.944	17.96
444.146	17.66
444.348	17.77
444.55	17.62
444.752	17.84
444.954	17.74
445.156	17.72
445.358	18.05
445.56	18.35
445.762	18.19
445.964	18.49
446.166	18.31
446.368	18.41
446.57	18.37
446.772	17.93
446.974	17.81
447.175	17.94
447.377	17.75
447.579	18.1
447.781	17.86
447.983	17.74
448.184	17.28
448.386	17.56
448.588	17.22
448.79	17.08
448.991	17.35
449.193	17.29
449.395	16.61
449.597	16.58
449.798	16.5
450	15.91
450.202	15.9
450.403	15.99
450.605	15.81
450.806	15.47
451.008	15.4
451.21	15.15
451.411	14.69
451.613	13.81
451.814	14.19
452.016	14.08
452.217	13.39
452.419	13.62
452.62	13.18
452.821	12.77
453.023	12.74
453.224	12.3
453.426	11.95
453.627	11.25
453.828	11.32
454.03	11.52
454.231	11.49
454.432	11.29
454.634	11.06
454.835	10.88
455.036	10.63
455.238	10.2
455.439	9.99
455.64	9.68
455.841	9.61
456.042	9.73
456.244	9.35
456.445	9.1
456.646	8.87
456.847	8.72
457.048	8.71
457.249	8.7
457.45	8.49
457.651	7.93
457.852	7.79
458.054	7.42
458.255	7.35
458.456	7.45
458.657	7.28
458.858	6.9
459.058	6.79
459.259	6.94
459.46	6.6
459.661	6.57
459.862	6.65
460.063	6.46
460.264	6.44
460.465	6.04
460.666	6.17
460.866	5.9
461.067	5.66
461.268	5.6
461.469	5.6
461.67	5.44
461.87	5.37
462.071	5.38
462.272	5.22
462.473	5.21
462.673	5.36
462.874	5.29
463.075	5.27
463.275	5.15
463.476	5.37
463.676	5.26
463.877	5.09
464.078	5.09
464.278	5.09
464.479	4.95
464.679	4.8
464.88	4.84
465.08	4.79
465.281	4.57
465.481	4.38
465.682	4.22
465.882	4.29
466.083	4.2
466.283	4.14
466.483	4.02
466.684	3.76
466.884	3.67
467.085	3.73
467.285	3.9
467.485	3.67
467.686	3.63
467.886	3.54
468.086	3.43
468.286	3.39
468.487	3.51
468.687	3.38
468.887	3.31
469.087	3.47
469.287	3.31
469.488	3.17
469.688	3.35
469.888	3.25
470.088	3.23
470.288	3.19
470.488	3.16
470.688	2.97
470.888	2.95
471.088	2.79
471.288	2.86
471.488	2.8
471.688	2.85
471.888	2.73
472.088	2.94
472.288	2.85
472.488	2.68
472.688	2.67
472.888	2.71
473.088	2.66
473.288	2.52
473.488	2.54
473.688	2.64
473.887	2.56
474.087	2.45
474.287	2.49
474.487	2.42
474.687	2.51
474.886	2.43
475.086	2.36
475.286	2.38
475.486	2.37
475.685	2.25
475.885	2.24
476.085	2.33
476.284	2.3
476.484	2.3
476.684	2.27
476.883	2.36
477.083	2.25
477.282	2.18
477.482	2.23
477.681	2.21
477.881	2.13
478.08	2.11
478.28	2.05
478.479	2.14
478.679	2.21
478.878	2.1
479.078	2.05
479.277	2.11
479.477	2.08
479.676	2.07
479.875	2.04
480.075	1.98
480.274	2.02
480.473	2.07
480.673	2.06
480.872	2.13
481.071	2.08
481.271	2.09
481.47	2.01
481.669	2.03
481.868	2.02
482.067	1.99
482.267	1.92
482.466	2
482.665	1.98
482.864	2
483.063	1.93
483.262	2.08
483.461	2.06
483.661	2.12
483.86	2.02
484.059	2.09
484.258	2.08
484.457	2.01
484.656	2.02
484.855	2.11
485.054	1.95
485.253	2
485.452	1.94
485.651	2.05
485.849	2.09
486.048	2.01
486.247	2.09
486.446	2.1
486.645	2.08
486.844	2.04
487.043	2.08
487.241	2.08
487.44	2.1
487.639	2.17
487.838	2.14
488.037	2.14
488.235	2.24
488.434	2.18
488.633	2.06
488.831	2.22
489.03	2.26
489.229	2.24
489.427	2.22
489.626	2.3
489.825	2.34
490.023	2.33
490.222	2.29
490.42	2.35
490.619	2.38
490.817	2.37
491.016	2.37
491.214	2.46
491.413	2.45
491.611	2.39
491.81	2.4
492.008	2.44
492.207	2.55
492.405	2.55
492.604	2.43
492.802	2.55
493	2.62
493.199	2.61
493.397	2.63
493.595	2.72
493.794	2.67
493.992	2.8
494.19	2.78
494.388	2.85
494.587	2.71
494.785	2.83
494.983	2.73
495.181	2.84
495.379	2.93
495.578	2.95
495.776	2.95
495.974	2.95
496.172	2.96
496.37	3.07
496.568	3.08
496.766	3.1
496.964	3.18
497.162	3.2
497.36	3.21
497.558	3.24
497.756	3.3
497.954	3.31
498.152	3.32
498.35	3.45
498.548	3.36
498.746	3.41
498.944	3.4
499.142	3.42
499.34	3.52
499.538	3.63
499.736	3.48
499.933	3.63
500.131	3.61
500.329	3.75
500.527	3.73
500.725	3.87
500.922	3.84
501.12	3.87
501.318	3.98
501.516	3.97
501.713	3.96
501.911	3.94
502.109	3.96
502.306	4.06
502.504	4
502.701	4.13
502.899	4.09
503.097	4.37
503.294	4.19
503.492	4.29
503.689	4.33
503.887	4.32
504.084	4.46
504.282	4.43
504.479	4.37
504.677	4.54
504.874	4.49
505.072	4.41
505.269	4.66
505.466	4.63
505.664	4.73
505.861	4.64
506.059	4.72
506.256	4.81
506.453	4.88
506.651	4.95
506.848	4.95
507.045	4.94
507.242	4.9
507.44	4.94
507.637	5.07
507.834	5.02
508.031	5.15
508.229	5.09
508.426	5.11
508.623	5.24
508.82	5.23
509.017	5.21
509.214	5.22
509.411	5.35
509.608	5.35
509.805	5.44
510.003	5.36
510.2	5.47
510.397	5.59
510.594	5.52
510.791	5.64
510.988	5.57
511.184	5.53
511.381	5.46
511.578	5.66
511.775	5.75
511.972	5.67
512.169	5.77
512.366	5.81
512.563	5.96
512.76	5.92
512.956	5.99
513.153	5.88
513.35	5.83
513.547	5.88
513.744	6.04
513.94	6
514.137	6.15
514.334	6.11
514.53	6.11
514.727	6.32
514.924	6.3
515.12	6.18
515.317	6.21
515.514	6.15
515.71	6.18
515.907	6.39
516.103	6.41
516.3	6.31
516.497	6.4
516.693	6.5
516.89	6.46
517.086	6.46
517.283	6.53
517.479	6.38
517.676	6.56
517.872	6.61
518.068	6.61
518.265	6.53
518.461	6.54
518.658	6.66
518.854	6.64
519.05	6.72
519.247	6.71
519.443	6.73
519.639	6.92
519.836	6.69
520.032	6.67
520.228	6.85
520.424	6.83
520.621	6.89
520.817	6.93
521.013	6.84
521.209	7.02
521.405	7.04
521.601	6.95
521.798	6.96
521.994	7.03
522.19	6.9
522.386	6.99
522.582	7.04
522.778	7.2
522.974	7.08
523.17	7.08
523.366	7.07
523.562	7.16
523.758	7.12
523.954	6.98
524.15	7.11
524.346	7.24
524.542	7.2
524.738	7.19
524.934	7.34
525.129	7.28
525.325	7.21
525.521	7.2
525.717	7.47
525.913	7.25
526.109	7.33
526.304	7.38
526.5	7.43
526.696	7.44
526.892	7.36
527.087	7.54
527.283	7.49
527.479	7.43
527.674	7.23
527.87	7.43
528.066	7.41
528.261	7.5
528.457	7.43
528.653	7.57
528.848	7.56
529.044	7.61
529.239	7.49
529.435	7.5
529.63	7.45
529.826	7.53
530.021	7.54
530.217	7.54
530.412	7.52
530.608	7.51
530.803	7.56
530.999	7.53
531.194	7.54
531.389	7.65
531.585	7.56
531.78	7.77
531.975	7.66
532.171	7.67
532.366	7.68
532.561	7.66
532.757	7.67
532.952	7.78
533.147	7.65
533.342	7.67
533.538	7.69
533.733	7.89
533.928	7.55
534.123	7.73
534.318	7.81
534.513	7.65
534.709	7.85
534.904	7.79
535.099	7.9
535.294	7.76
535.489	7.88
535.684	7.73
535.879	7.76
536.074	7.9
536.269	7.85
536.464	7.87
536.659	7.81
536.854	7.83
537.049	7.92
537.244	7.88
537.439	7.87
537.634	7.9
537.828	7.95
538.023	7.94
538.218	7.88
538.413	7.83
538.608	7.91
538.803	7.87
538.997	7.87
539.192	7.92
539.387	7.87
539.582	7.85
539.776	7.78
539.971	7.94
540.166	7.98
540.36	7.86
540.555	8.06
540.75	7.96
540.944	7.96
541.139	7.9
541.334	7.96
541.528	7.97
541.723	8
541.917	8.07
542.112	7.88
542.306	7.87
542.501	7.93
542.695	7.93
542.89	7.89
543.084	7.97
543.279	8.06
543.473	7.98
543.668	8.02
543.862	7.91
544.056	7.9
544.251	8.05
544.445	8.08
544.64	8.14
544.834	7.78
545.028	7.69
545.222	8.01
545.417	8.17
545.611	8.05
545.805	8.04
546	7.83
546.194	8.04
546.388	8.07
546.582	7.94
546.776	7.96
546.97	8.01
547.165	8.02
547.359	7.98
547.553	8.02
547.747	8.03
547.941	8.19
548.135	8.04
548.329	8.01
548.523	8.06
548.717	8.02
548.911	7.96
549.105	7.95
549.299	8.11
549.493	8.03
549.687	7.95
549.881	8.08
550.075	8.06
550.269	7.99
550.463	8.13
550.657	8
550.85	8.03
551.044	7.94
551.238	8.06
551.432	8.03
551.626	8.1
551.82	8.12
552.013	7.94
552.207	8.16
552.401	8.17
552.594	8.05
552.788	7.98
552.982	8
553.176	7.98
553.369	8.17
553.563	8.18
553.756	8.03
553.95	8.16
554.144	8.1
554.337	8.09
554.531	7.89
554.724	8.04
554.918	8.22
555.111	8.05
555.305	8.1
555.498	8.09
555.692	8.19
555.885	8.1
556.079	7.99
556.272	8.04
556.466	8.11
556.659	8.04
556.852	8.19
557.046	8.02
557.239	7.92
557.432	8.01
557.626	8.14
557.819	8.23
558.012	8.09
558.206	8.17
558.399	8.09
558.592	8
558.785	7.99
558.979	8.03
559.172	8
559.365	8.11
559.558	8.02
559.751	7.97
559.944	8.21
560.138	8.06
560.331	8.09
560.524	8.14
560.717	8.01
560.91	8.06
561.103	8.13
561.296	7.94
561.489	8.17
561.682	8.17
561.875	8.15
562.068	8.17
562.261	8.04
562.454	8.2
562.647	8.01
562.84	8.11
563.032	8.09
563.225	7.97
563.418	8.05
563.611	8.12
563.804	8.15
563.997	7.88
564.19	7.86
564.382	8.12
564.575	8.04
564.768	8.01
564.961	8.18
565.153	8.02
565.346	7.98
565.539	8.1
565.731	8.04
565.924	8.09
566.117	8.22
566.309	8.16
566.502	8
566.695	7.98
566.887	8.18
567.08	8.02
567.272	8.1
567.465	7.99
567.657	8.14
567.85	7.93
568.042	8.05
568.235	8.12
568.427	7.9
568.62	8.02
568.812	8.06
569.005	8.14
569.197	7.93
569.389	8.01
569.582	8
569.774	8.03
569.966	7.94
570.159	7.93
570.351	7.9
570.543	7.93
570.736	7.99
570.928	7.83
571.12	7.99
571.312	7.94
571.505	7.73
571.697	7.98
571.889	7.93
572.081	7.97
572.273	7.83
572.465	7.97
572.658	8.01
572.85	8.02
573.042	7.91
573.234	7.89
573.426	7.91
573.618	7.88
573.81	7.95
574.002	7.94
574.194	7.9
574.386	7.89
574.578	7.74
574.77	7.89
574.962	7.92
575.154	7.79
575.346	7.8
575.538	7.83
575.729	7.81
575.921	7.85
576.113	7.98
576.305	7.9
576.497	7.95
576.689	7.69
576.88	7.7
577.072	7.91
577.264	7.8
577.456	7.85
577.647	7.76
577.839	7.95
578.031	7.82
578.223	7.8
578.414	7.61
578.606	7.81
578.798	7.91
578.989	7.77
579.181	7.83
579.372	7.78
579.564	7.76
579.755	7.73
579.947	7.66
580.139	7.77
580.33	7.63
580.522	7.82
580.713	7.64
580.905	7.68
581.096	7.84
581.287	7.66
581.479	7.69
581.67	7.77
581.862	7.74
582.053	7.7
582.244	7.44
582.436	7.7
582.627	7.63
582.818	7.58
583.01	7.59
583.201	7.64
583.392	7.63
583.583	7.55
583.775	7.45
583.966	7.57
584.157	7.58
584.348	7.69
584.54	7.49
584.731	7.58
584.922	7.47
585.113	7.39
585.304	7.55
585.495	7.52
585.686	7.64
585.877	7.56
586.068	7.56
586.259	7.5
586.45	7.52
586.641	7.47
586.832	7.55
587.023	7.42
587.214	7.37
587.405	7.57
587.596	7.36
587.787	7.36
587.978	7.42
588.169	7.34
588.36	7.32
588.551	7.36
588.742	7.4
588.932	7.45
589.123	7.19
589.314	7.44
589.505	7.26
589.696	7.29
589.886	7.29
590.077	7.27
590.268	7.26
590.458	7.17
590.649	7.08
590.84	7.26
591.03	7.23
591.221	7.25
591.412	7.08
591.602	7.29
591.793	7.18
591.984	7.2
592.174	7.15
592.365	7.37
592.555	7.07
592.746	7.09
592.936	7.14
593.127	7.18
593.317	7.2
593.508	7.19
593.698	7.06
593.889	7.03
594.079	7.04
594.269	6.98
594.46	6.96
594.65	7.05
594.84	7.02
595.031	6.94
595.221	6.92
595.411	6.92
595.602	6.95
595.792	6.87
595.982	6.87
596.172	7.03
596.363	6.84
596.553	6.88
596.743	6.91
596.933	6.84
597.123	6.85
597.314	6.72
597.504	6.65
597.694	6.9
597.884	6.74
598.074	6.81
598.264	6.7
598.454	6.75
598.644	6.7
598.834	6.72
599.024	6.61
599.214	6.63
599.404	6.77
599.594	6.64
599.784	6.6
599.974	6.63
600.164	6.63
600.354	6.54
600.544	6.53
600.734	6.66
600.924	6.6
601.114	6.41
601.303	6.5
601.493	6.53
601.683	6.55
601.873	6.5
602.063	6.43
602.252	6.43
602.442	6.37
602.632	6.41
602.821	6.31
603.011	6.46
603.201	6.46
603.39	6.38
603.58	6.2
603.77	6.41
603.959	6.38
604.149	6.32
604.339	6.29
604.528	6.4
604.718	6.29
604.907	6.24
605.097	6.15
605.286	6.25
605.476	6.24
605.665	6.21
605.855	6.19
606.044	6.24
606.234	6.17
606.423	6.13
606.612	6.15
606.802	6.13
606.991	6.14
607.181	6.13
607.37	6.1
607.559	5.82
607.749	6.04
607.938	5.92
608.127	5.99
608.316	6.03
608.506	5.96
608.695	6.02
608.884	5.88
609.073	5.96
609.263	6.04
609.452	5.98
609.641	5.86
609.83	5.78
610.019	5.86
610.208	5.79
610.397	5.83
610.586	5.84
610.775	5.71
610.965	5.79
611.154	5.63
611.343	5.78
611.532	5.66
611.721	5.75
611.91	5.66
612.099	5.71
612.287	5.57
612.476	5.57
612.665	5.73
612.854	5.55
613.043	5.62
613.232	5.53
613.421	5.54
613.61	5.55
613.798	5.5
613.987	5.53
614.176	5.45
614.365	5.51
614.554	5.47
614.742	5.54
614.931	5.39
615.12	5.47
615.309	5.45
615.497	5.37
615.686	5.26
615.875	5.31
616.063	5.3
616.252	5.28
616.44	5.32
616.629	5.27
616.818	5.27
617.006	5.22
617.195	5.15
617.383	5.2
617.572	5.13
617.76	5.14
617.949	5.11
618.137	5.17
618.326	5.18
618.514	5
618.703	4.98
618.891	5.18
619.079	5.01
619.268	5.1
619.456	4.98
619.644	5.09
619.833	4.97
620.021	4.94
620.209	4.91
620.398	5.03
620.586	4.87
620.774	4.95
620.962	4.91
621.151	5.02
621.339	4.83
621.527	4.8
621.715	4.8
621.903	4.79
622.092	4.72
622.28	4.88
622.468	4.68
622.656	4.73
622.844	4.72
623.032	4.78
623.22	4.58
623.408	4.83
623.596	4.7
623.784	4.78
623.972	4.64
624.16	4.66
624.348	4.65
624.536	4.67
624.724	4.49
624.912	4.57
625.1	4.71
625.288	4.56
625.476	4.5
625.664	4.56
625.851	4.51
626.039	4.49
626.227	4.43
626.415	4.48
626.603	4.4
626.79	4.49
626.978	4.38
627.166	4.48
627.354	4.3
627.541	4.36
627.729	4.2
627.917	4.48
628.104	4.38
628.292	4.3
628.48	4.27
628.667	4.26
628.855	4.35
629.042	4.34
629.23	4.23
629.418	4.2
629.605	4.2
629.793	4.13
629.98	4.21
630.168	4.15
630.355	4.18
630.543	4.13
630.73	4.05
630.917	4.06
631.105	4.24
631.292	4.11
631.48	4.05
631.667	4.15
631.854	4.01
632.042	3.98
632.229	3.91
632.416	3.97
632.604	3.94
632.791	3.83
632.978	4
633.165	3.99
633.353	3.93
633.54	4.01
633.727	3.73
633.914	3.83
634.101	3.86
634.289	3.97
634.476	3.79
634.663	3.73
634.85	3.78
635.037	3.76
635.224	3.7
635.411	3.79
635.598	3.72
635.785	3.71
635.972	3.65
636.159	3.74
636.346	3.65
636.533	3.6
636.72	3.62
636.907	3.56
637.094	3.62
637.281	3.48
637.468	3.53
637.655	3.59
637.842	3.58
638.029	3.53
638.215	3.53
638.402	3.47
638.589	3.4
638.776	3.47
638.963	3.44
639.149	3.58
639.336	3.51
639.523	3.41
639.709	3.38
639.896	3.38
640.083	3.42
640.27	3.43
640.456	3.35
640.643	3.35
640.829	3.23
641.016	3.24
641.203	3.22
641.389	3.31
641.576	3.26
641.762	3.19
641.949	3.2
642.135	3.24
642.322	3.19
642.508	3.11
642.695	3.23
642.881	3.13
643.068	3.14
643.254	3.1
643.441	3.14
643.627	3.17
643.813	3.02
644	3.16
644.186	2.99
644.372	3.06
644.559	3.08
644.745	3.04
644.931	2.91
645.118	3.01
645.304	2.92
645.49	2.97
645.676	2.9
645.862	2.95
646.049	3.01
646.235	2.93
646.421	3.03
646.607	2.98
646.793	2.91
646.979	2.88
647.165	2.94
647.352	2.91
647.538	2.89
647.724	2.82
647.91	2.76
648.096	2.87
648.282	2.83
648.468	2.74
648.654	2.8
648.84	2.79
649.026	2.75
649.212	2.72
649.397	2.74
649.583	2.72
649.769	2.71
649.955	2.7
650.141	2.73
650.327	2.76
650.513	2.65
650.698	2.69
650.884	2.48
651.07	2.68
651.256	2.65
651.442	2.58
651.627	2.54
651.813	2.57
651.999	2.55
652.184	2.54
652.37	2.51
652.556	2.5
652.741	2.6
652.927	2.4
653.113	2.49
653.298	2.45
653.484	2.49
653.669	2.42
653.855	2.47
654.04	2.52
654.226	2.47
654.412	2.43
654.597	2.33
654.782	2.38
654.968	2.5
655.153	2.41
655.339	2.36
655.524	2.35
655.71	2.46
655.895	2.34
656.08	2.33
656.266	2.41
656.451	2.28
656.636	2.3
656.822	2.3
657.007	2.27
657.192	2.27
657.378	2.23
657.563	2.25
657.748	2.31
657.933	2.23
658.118	2.17
658.304	2.21
658.489	2.25
658.674	2.23
658.859	2.14
659.044	2.13
659.229	2.21
659.414	2.12
659.599	2.16
659.785	2.11
659.97	2.09
660.155	2.19
660.34	2.19
660.525	2.07
660.71	2.05
660.895	2.15
661.08	1.99
661.264	1.99
661.449	2.11
661.634	2.04
661.819	2.08
662.004	2.02
662.189	1.98
662.374	2
662.559	1.96
662.743	1.92
662.928	1.99
663.113	1.93
663.298	1.93
663.483	1.92
663.667	1.92
663.852	1.9
664.037	1.95
664.221	1.92
664.406	2
664.591	1.9
664.775	1.94
664.96	1.87
665.145	1.88
665.329	1.93
665.514	1.85
665.698	1.85
665.883	1.74
666.068	1.88
666.252	1.9
666.437	1.81
666.621	1.79
666.806	1.79
666.99	1.81
667.174	1.77
667.359	1.83
667.543	1.78
667.728	1.76
667.912	1.71
668.096	1.78
668.281	1.73
668.465	1.78
668.649	1.75
668.834	1.73
669.018	1.76
669.202	1.74
669.387	1.74
669.571	1.79
669.755	1.62
669.939	1.68
670.124	1.63
670.308	1.72
670.492	1.65
670.676	1.63
670.86	1.61
671.044	1.58
671.228	1.66
671.413	1.58
671.597	1.55
671.781	1.62
671.965	1.63
672.149	1.59
672.333	1.57
672.517	1.54
672.701	1.6
672.885	1.49
673.069	1.43
673.253	1.61
673.437	1.53
673.621	1.54
673.804	1.55
673.988	1.61
674.172	1.56
674.356	1.45
674.54	1.5
674.724	1.65
674.908	1.45
675.091	1.54
675.275	1.47
675.459	1.53
675.643	1.53
675.826	1.49
676.01	1.46
676.194	1.47
676.377	1.49
676.561	1.48
676.745	1.44
676.928	1.46
677.112	1.48
677.296	1.37
677.479	1.35
677.663	1.35
677.846	1.46
678.03	1.39
678.213	1.33
678.397	1.42
678.58	1.37
678.764	1.4
678.947	1.28
679.131	1.29
679.314	1.41
679.498	1.35
679.681	1.33
679.865	1.41
680.048	1.32
680.231	1.32
680.415	1.29
680.598	1.27
680.781	1.33
680.965	1.3
681.148	1.3
681.331	1.22
681.514	1.37
681.698	1.29
681.881	1.24
682.064	1.29
682.247	1.22
682.43	1.15
682.614	1.23
682.797	1.34
682.98	1.27
683.163	1.15
683.346	1.3
683.529	1.18
683.712	1.17
683.895	1.24
684.078	1.09
684.261	1.17
684.444	1.2
684.627	1.25
684.81	1.12
684.993	1.11
685.176	1.24
685.359	1.12
685.542	1.14
685.725	1.23
685.908	1.15
686.091	1.1
686.274	1.17
686.457	1.26
686.639	1.12
686.822	1.15
687.005	1.12
687.188	1.18
687.371	1.29
687.553	1.18
687.736	1.12
687.919	1.18
688.102	1.22
688.284	1.06
688.467	1.04
688.65	1.03
688.832	1.05
689.015	1.05
689.197	0.97
689.38	1.16
689.563	1.22
689.745	0.96
689.928	0.97
690.11	1
690.293	1.05
690.475	0.93
690.658	1.06
690.84	1.02
691.023	1
691.205	0.95
691.388	1.01
691.57	1.06
691.752	1.09
691.935	0.9
692.117	0.94
692.3	1.02
692.482	0.98
692.664	0.99
692.847	0.99
693.029	1.12
693.211	1.04
693.393	0.93
693.576	0.88
693.758	0.96
693.94	0.98
694.122	0.92
694.304	0.89
694.487	0.89
694.669	1.04
694.851	0.91
695.033	0.93
695.215	0.85
695.397	0.91
695.579	0.88
695.761	0.88
695.943	0.8
696.125	1.02
696.308	0.97
696.49	0.79
696.671	1.06
696.853	0.92
697.035	1.14
697.217	0.84
697.399	0.97
697.581	0.85
697.763	0.88
697.945	0.81
698.127	0.89
698.309	0.97
698.491	0.95
698.672	0.94
698.854	0.93
699.036	0.95
699.218	0.89
699.399	0.88
699.581	0.87
699.763	0.87
699.945	0.79
700.126	0.73
700.308	0.92
700.49	0.78
700.671	0.72
700.853	0.73
701.035	0.79
701.216	0.87
701.398	0.77
701.579	0.76
701.761	0.85
701.943	0.77
702.124	0.79
702.306	0.78
702.487	0.97
702.669	0.81
702.85	0.79
703.031	0.73
703.213	0.86
703.394	0.9
703.576	0.75
703.757	0.94
703.938	0.82
704.12	0.98
704.301	0.74
704.483	0.69
704.664	0.79
704.845	0.95
705.026	0.82
705.208	0.8
705.389	0.76
705.57	0.86
705.751	0.74
705.933	0.74
706.114	0.87
706.295	0.76
706.476	0.73
706.657	0.85
706.838	0.78
707.02	0.84
707.201	0.63
707.382	0.69
707.563	0.77
707.744	0.72
707.925	0.58
708.106	0.62
708.287	0.65
708.468	0.84
708.649	0.73
708.83	0.73
709.011	0.7
709.192	0.81
709.373	0.61
709.554	0.63
709.734	0.84
709.915	0.76
710.096	0.66
710.277	0.55
710.458	0.66
710.639	0.78
710.819	0.56
711	0.63
711.181	0.74
711.362	0.71
711.542	0.65
711.723	0.63
711.904	0.77
712.085	0.74
712.265	0.62
712.446	0.52
712.627	0.72
712.807	0.67
712.988	0.67
713.168	0.55
713.349	0.71
713.53	0.46
713.71	0.61
713.891	0.57
714.071	0.63
714.252	0.65
714.432	0.61
714.613	0.5
714.793	0.67
714.974	0.8
715.154	0.7
715.334	0.67
715.515	0.79
715.695	0.55
715.876	0.59
716.056	0.54
716.236	0.55
716.417	0.52
716.597	0.55
716.777	0.82
716.957	0.62
717.138	0.68
717.318	0.57
717.498	0.51
717.678	0.57
717.859	0.59
718.039	0.49
718.219	0.58
718.399	0.59
718.579	0.52
718.759	0.49
718.939	0.57
719.12	0.67
719.3	0.57
719.48	0.45
719.66	0.48
719.84	0.78
720.02	0.59
720.2	0.51
720.38	0.63
720.56	0.74
720.74	0.48
720.92	0.56
721.1	0.78
721.279	0.7
721.459	0.55
721.639	0.46
721.819	0.52
721.999	0.51
722.179	0.61
722.359	0.46
722.538	0.51
722.718	0.49
722.898	0.53
723.078	0.47
723.257	0.48
723.437	0.61
723.617	0.62
723.797	0.53
723.976	0.5
724.156	0.62
724.336	0.66
724.515	0.68
724.695	0.36
724.874	0.5
725.054	0.66
725.234	0.45
725.413	0.53
725.593	0.47
725.772	0.61
725.952	0.45
726.131	0.46
726.311	0.51
726.49	0.53
726.67	0.39
726.849	0.48
727.028	0.58
727.208	0.45
727.387	0.58
727.567	0.43
727.746	0.51
727.925	0.49
728.105	0.4
728.284	0.48
728.463	0.54
728.643	0.55
728.822	0.39
729.001	0.46
729.18	0.55
729.359	0.56
729.539	0.48
729.718	0.5
729.897	0.59
730.076	0.49
730.255	0.4
730.434	0.58
730.614	0.53
730.793	0.73
730.972	0.48
731.151	0.51
731.33	0.57
731.509	0.55
731.688	0.46
731.867	0.49
732.046	0.32
732.225	0.77
732.404	0.4
732.583	0.39
732.762	0.53
732.941	0.52
733.12	0.52
733.298	0.47
733.477	0.6
733.656	0.41
733.835	0.43
734.014	0.5
734.193	0.52
734.371	0.59
734.55	0.52
734.729	0.29
734.908	0.41
735.086	0.47
735.265	0.67
735.444	0.15
735.623	0.41
735.801	0.32
735.98	0.43
736.159	0.54
736.337	0.66
736.516	0.57
736.694	0.56
736.873	0.41
737.052	0.7
737.23	0.69
737.409	0.52
737.587	0.74
737.766	0.35
737.944	0.44
738.123	0.49
738.301	0.54
738.479	0.47
738.658	0.47
738.836	0.34
739.015	0.53
739.193	0.67
739.371	0.36
739.55	0.39
739.728	0.4
739.906	0.6
740.085	0.65
740.263	0.64
740.441	0.25
740.62	0.8
740.798	0.56
740.976	0.43
741.154	0.32
741.332	0.73
741.511	0.37
741.689	0.52
741.867	0.5
742.045	0.58
742.223	0.48
742.401	0.37
742.579	0.44
742.757	0.65
742.935	0.31
743.114	0.43
743.292	0.52
743.47	0.44
743.648	0.55
743.826	0.22
744.004	0.46
744.181	0.55
744.359	0.45
744.537	0.59
744.715	0.44
744.893	0.44
745.071	0.51
745.249	0.44
745.427	0.39
745.605	0.54
745.782	0.48
745.96	0.48
746.138	0.6
746.316	0.49
746.493	0.39
746.671	0.52
746.849	0.36
747.027	0.64
747.204	0.41
747.382	0.5
747.56	0.21
747.737	0.45
747.915	0.41
748.093	0.46
748.27	0.34
748.448	0.43
748.625	0.33
748.803	0.27
748.98	0.36
749.158	0.47
749.335	0.57
749.513	0.33
749.69	0.35
749.868	0.47
750.045	0.5
750.223	0.3
750.4	0.19
750.578	0.59
750.755	0.45
750.932	0.23
751.11	0.55
751.287	0.26
751.464	0.61
751.642	0.36
751.819	0.48
751.996	0.49
752.173	0.35
752.351	0.33
752.528	0.37
752.705	0.39
752.882	0.2
753.06	0.44
753.237	0.45
753.414	0.62
753.591	0.66
753.768	0.44
753.945	0.34
754.122	0.39
754.299	0.44
754.476	0.33
754.654	0.47
754.831	0.45
755.008	0.46
755.185	0.32
755.362	0.39
755.539	0.42
755.716	0.46
755.892	0.41
756.069	0.35
756.246	0.46
756.423	0.42
756.6	0.55
756.777	0.21
756.954	0.54
757.131	0.41
757.307	0.32
757.484	0.26
757.661	0.3
757.838	0.41
758.015	0.24
758.191	0.4
758.368	0.43
758.545	0.68
758.721	0.44
758.898	0.27
759.075	0.52
759.251	0.56
759.428	0.39
759.605	0.13
759.781	0.36
759.958	0.56
760.134	0.34
760.311	0.28
760.488	0.5
760.664	0.59
760.841	0.43
761.017	0.27
761.194	0.48
761.37	0.59
761.547	0.35
761.723	0.29
761.899	0.55
762.076	0.34
762.252	0.3
762.429	0.21
762.605	0.52
762.781	0.18
762.958	0.49
763.134	0.48
763.31	0.24
763.486	0.64
763.663	0.2
763.839	0.47
764.015	0.06
764.191	0.29
764.368	0.25
764.544	0.29
764.72	0.46
764.896	0.43
765.072	0.3
765.248	0.25
765.425	0.3
765.601	0.37
765.777	0.38
765.953	-0.01
766.129	0.18
766.305	0.27
766.481	0.52
766.657	0.39
766.833	0.66
767.009	0.28
767.185	0.24
767.361	0.43
767.537	0.23
767.713	0.57
767.889	0.35
768.065	0.46
768.24	0.64
768.416	0.48
768.592	0.27
768.768	0.25
768.944	0.5
769.12	0.23
769.295	0.4
769.471	0.48
769.647	0.33
769.823	0.57
769.998	0.35
770.174	0.2
770.35	0.74
770.525	0.69
770.701	0.41
770.877	0.37
771.052	0.37
771.228	0.67
771.403	0.43
771.579	0.32
771.755	0.71
771.93	0.28
772.106	0.23
772.281	0.14
772.457	0.47
772.632	0.57
772.808	0.17
772.983	0.21
773.159	0.11
773.334	0.54
773.509	0.47
773.685	0.25
773.86	0.97
774.036	0.55
774.211	0.44
774.386	0.35
774.562	0.45
774.737	0.75
774.912	0.37
775.087	0.45
775.263	0.43
775.438	0.46
775.613	0.29
775.788	0.44
775.964	0.63
776.139	1
776.314	0.22
776.489	0.45
776.664	0.38
776.839	0.28
777.014	0.53
777.19	0.52
777.365	0.81
777.54	0.76
777.715	0.28
777.89	0.31
778.065	0.27
778.24	0.52
778.415	0.61
778.59	0.17
778.765	0.37
778.94	0.8
779.115	0.3
779.289	0.27
779.464	0.35
779.639	0.48
779.814	0.09
779.989	0.25
780.164	0.72
780.339	0.39
780.513	0.34
780.688	0.17
780.863	0.48
781.038	0.58
781.212	0.31
781.387	0.37
781.562	0.94
781.737	0.24
781.911	0.72
782.086	0.25
782.261	0.35
782.435	0.83
782.61	0.27
782.784	0.46
782.959	0.76
783.134	0.34
783.308	0.23
783.483	0.34
783.657	0.97
783.832	0.64
784.006	0.24
784.181	0.35
784.355	0.55
784.53	0.36
784.704	0.19
784.878	0.7
785.053	0.5
785.227	0.74
785.402	0.88
785.576	0.42
785.75	0.4
785.925	0.55
786.099	0.62
786.273	0.48
786.448	0.81
786.622	0.52
786.796	0.5
786.97	0.28
787.145	1.24
787.319	0.02
787.493	0.49
787.667	0.09
787.841	0.56
788.015	0.87
788.19	0.28
788.364	0.41
788.538	0.77
788.712	0.81
788.886	0.43
789.06	0.62
789.234	0.8
789.408	0.45
789.582	0.45
789.756	0.38
789.93	0.17
790.104	0.54
790.278	0.22
790.452	0.28
790.626	0.6
790.8	0.59
790.973	0.58
791.147	0.67
791.321	0.96
791.495	0.61
791.669	0.57
791.843	0.74
792.016	0.78
792.19	0.75
792.364	0.08
792.538	1.15
792.711	0.68
792.885	0.17
793.059	0.4
793.233	-0.12
793.406	0.74
793.58	0.42
793.754	0.82
793.927	0.34
794.101	0.89
794.274	0.52
794.448	0.48
794.622	0.14
794.795	1.24
794.969	0.48
795.142	0.82
795.316	0.38
795.489	0.23
795.663	0.95
795.836	0.46
796.009	0.23
796.183	0.79
796.356	0.46
796.53	0.44
796.703	0.27
796.876	1.33
797.05	0.42
797.223	0.31
797.396	0.29
797.57	0.74
797.743	1.24
797.916	0.54
798.09	0.55
798.263	1.11
798.436	0.64
798.609	0.49
798.782	0.4
798.956	0.43
799.129	0.38
799.302	0.34
799.475	0.25
799.648	0.59
799.821	0.49
799.994	0.57
800.167	-0.09
800.34	0.67
800.514	0.59
800.687	0.44
800.86	0.25
801.033	0.77
801.206	0.55
801.379	0.47
801.551	0.95
801.724	0.59
801.897	1.19
802.07	0.47
802.243	0.14
802.416	0.54
802.589	0.39
802.762	0.85
802.935	0.44
803.107	1.07
803.28	0.92
803.453	0.72
803.626	0.68
803.798	0.68
803.971	-0.09
804.144	0.53
804.317	0.58
804.489	0.91
804.662	0.87
804.835	0.22
805.007	0.17
805.18	1.02
805.353	0.95
805.525	0.22
805.698	0.27
805.87	0.96
806.043	0.83
806.215	0.13
806.388	0.17
806.56	0.37
806.733	0.79
806.905	0.83
807.078	0.53
807.25	0.74
807.423	0.89
807.595	0.91
807.768	0.78
807.94	1.03
808.112	0.99
808.285	0.64
808.457	0.27
808.629	0.36
808.802	0.74
808.974	0.68
809.146	0.5
809.318	0.37
809.491	1
809.663	0.92
809.835	0.27
810.007	0.92
810.18	0.56
810.352	-0.02
810.524	0.3
810.696	0.8
810.868	1.01
811.04	0.45
811.212	0.38
811.384	1.13
811.556	0.71
811.728	0.69
811.901	1.71
812.073	0.59
812.245	1.23
812.417	0.47
812.589	-0.39
812.76	0.84
812.932	1.09
813.104	0.82
813.276	0.35
813.448	1.13
813.62	0.81
813.792	0.73
813.964	0.56
814.136	0.72
814.307	0.65
814.479	0.27
814.651	0.54
814.823	1.46
814.995	0.61
815.166	0.67
815.338	0.23
815.51	-0.18
815.681	1.66
815.853	1.2
816.025	0.54
816.196	1.23
816.368	1.38
816.54	0.19
816.711	0.2
816.883	1.25
817.054	1.71
817.226	0.05
817.398	0.96
817.569	0.33
817.741	0.92
817.912	1.1
818.084	0.43
818.255	1.54
818.426	0.46
818.598	0.71
818.769	-0.25
818.941	1.12
819.112	1.01
819.283	0.8
819.455	0.42
819.626	0.46
819.798	1.26
819.969	0.74
820.14	0.94
820.311	0.34
820.483	0.93
820.654	0.8
820.825	0.3
820.996	0.67
821.168	0.53
821.339	0.84
821.51	0.28
821.681	0.38
821.852	0.64
822.023	0.75
822.195	0.34
822.366	1.39
822.537	0.54
822.708	0.51
822.879	0.25
823.05	1.68
823.221	0.82
823.392	1.23
823.563	0.86
823.734	0.95
823.905	0.66
824.076	0.44
824.247	-0.07
824.418	0.92
824.589	1.27
824.759	0.67
824.93	0.51
825.101	-0.08
825.272	1.43
825.443	1.14
825.614	1.98
825.784	-0.16
825.955	2.1
826.126	1.44
826.297	1
826.467	1.52
826.638	2.32
826.809	0.01
826.98	0.61
827.15	1.26
827.321	1.22
827.492	1.57
827.662	0.45
827.833	2.36
828.003	1.76
828.174	0.18
828.345	-0.02
828.515	1.91
828.686	1.16
828.856	1.17
829.027	1.14
829.197	1.09
829.368	1.25
829.538	0.08
829.709	0.65
829.879	0.71
830.049	0.99
830.22	0.59
830.39	0.88
830.56	2.22
830.731	0.43
830.901	0.34
831.072	0.64
831.242	0.94
831.412	1.49
831.582	1.24
831.753	0.26
831.923	1.81
832.093	1.66
832.263	0.93
832.434	0.61
832.604	0.3
832.774	1.35
832.944	0.39
833.114	0.52
833.284	1.24
833.454	0.21
833.624	0.38
833.795	0.54
833.965	1.86
834.135	2.45
834.305	-0.29
834.475	-0.14
834.645	0.78
834.815	0.73
834.985	0.24
835.155	0.81
835.325	1.24
835.494	1.37
835.664	0.84
835.834	0.19
836.004	1.27
836.174	1.65
836.344	1
836.514	0.16
836.684	1.04
836.853	0.75
837.023	1.27
837.193	0.31
837.363	1.81
837.532	2.06
837.702	0.89
837.872	0.74
838.041	1.9
838.211	3.1
838.381	-0.21
838.55	0.52
838.72	4.26
838.89	2.47
839.059	-0.17
839.229	-0.29
839.398	3.55
839.568	1.53
839.738	1
839.907	2.17
840.077	1.3
840.246	0.31
840.416	0.32
840.585	0.38
840.755	2.74
840.924	2.12
841.093	0.76
841.263	0.36
841.432	0.78
841.602	1.02
841.771	0.31
841.94	1.44
842.11	3.21
842.279	2.91
842.448	0.22
842.617	0.53
842.787	2.65
842.956	0.6
843.125	0.97
843.294	0.83
843.464	2.58
843.633	1.9
843.802	0.19
843.971	1.23
844.14	1.76
844.309	2.39
844.479	-0.25
844.648	0.4
844.817	0.8
844.986	1.9
845.155	1.01
845.324	1.67
845.493	1.25
845.662	0.62
845.831	1.84
846	0.75
846.169	1.5
846.338	3.21
846.507	0.93
846.676	0.55
846.844	1.33
847.013	1.56
847.182	1
847.351	0.14
847.52	1.71
847.689	1.86
847.858	0.94
848.026	0.6
848.195	1.85
848.364	1.34
848.533	-0.01
848.701	0.63
848.87	1.01
849.039	2.63
849.207	1.81
849.376	2.53
849.545	3.91
849.713	0.48
849.882	0.27
850.051	1.22
850.219	0.54
850.388	2.08
850.556	0.2
850.725	0.16
850.893	1.14
851.062	1.52
851.23	2.05
851.399	-0.54
851.567	1.63
851.736	1.52
851.904	-0.38
852.073	1.85
852.241	2.07
852.41	2.46
852.578	1.75
852.746	-0.3
852.915	2.92
853.083	1.98
853.251	-0.05
853.42	0.81
853.588	1.34
853.756	3.62
853.924	1.34
854.093	1.41
854.261	0.59
854.429	0.77
854.597	2.51
854.765	0.16
854.934	2.86
855.102	3.18
855.27	1.15
855.438	2.88
855.606	3.45
855.774	3.91
855.942	-0.96
856.11	0.66
856.278	1.71
856.446	3.9
856.614	1.56
856.782	0.65
856.95	2.58
857.118	3.35
857.286	1.43
857.454	0.78
857.622	3.49
857.79	3.26
857.958	0.48
858.126	1.3
858.294	-0.46
858.462	1.7
858.629	1.55
858.797	-0.37
858.965	1.88
859.133	1.86
859.301	1.97
859.468	1.8
859.636	2.91
859.804	2.83
859.971	2.46
860.139	0.77
860.307	3.29
860.474	2.23
860.642	0.6
860.81	0.01
860.977	0.84
861.145	2.51
861.313	1.24
861.48	0.97
861.648	3.38
861.815	-0.03
861.983	1
862.15	1.06
862.318	2.71
862.485	3.39
862.653	-1.34
862.82	0.07
862.988	4.91
863.155	3.14
863.322	0
863.49	0.38
863.657	2.03
863.824	4.06
863.992	2.73
864.159	3.04
864.326	3.86
864.494	1.67
864.661	3.8
864.828	0.08
864.996	5.49
865.163	3.91
865.33	2.03
865.497	-1.36
865.664	0.57
865.832	-0.55
865.999	1.17
866.166	0.69
866.333	0.33
866.5	2.14
866.667	1.08
866.834	2.52
867.001	4.21
867.168	0.67
867.335	2.8
867.502	-2.04
867.669	1.88
867.836	5.19
868.003	1.38
868.17	4.61
868.337	1.53
868.504	6.2
868.671	-0.45
868.838	2.83
869.005	3.15
869.172	4.33
869.339	2.26
869.505	0.91
869.672	1.96
869.839	5.32
870.006	1.21
870.173	0.79
870.339	4.1
870.506	5.42
870.673	0.51
870.84	3.5
871.006	2.51
871.173	2.31
871.34	2.28
871.506	0.35
871.673	2.99
871.839	-0.36
872.006	3.06
872.173	2.04
872.339	3.12
872.506	3.84
872.672	0.91
872.839	0.15
873.005	3.3
873.172	5.48
873.338	4.69
873.505	1.46
873.671	3.27
873.838	4.42
874.004	-1.14
874.171	1.38
874.337	3.37
874.503	3.87
874.67	1.31
874.836	1.97
875.002	4.81
875.169	3.04
875.335	2.83
875.501	2
875.668	5.64
875.834	0.48
876	2.63
876.166	3.04
876.332	4.27
876.499	6.66
876.665	0.2
876.831	2.32
876.997	6.64
877.163	4
877.329	1.76
877.495	2.51
877.662	4.12
877.828	2.31
877.994	1.6
878.16	-1.2
878.326	2.92
878.492	2.56
878.658	2.37
878.824	2.67
878.99	4.29
879.156	0.24
879.322	5.08
879.487	1.76
879.653	2.52
879.819	3.48
879.985	0.15
880.151	1.38
880.317	3.36
880.483	2.2
880.648	5.14
880.814	-0.22
880.98	2.62
881.146	-1.22
881.312	-0.23
881.477	2.69
881.643	1.82
881.809	4.16
881.974	4.23
882.14	-1.43
882.306	2.94
882.471	6.31
882.637	1.35
882.803	2.85
882.968	6.15
883.134	9.43
883.299	1.7
883.465	1.79
883.63	5.13
883.796	3.24
883.961	4.29
884.127	3.78
884.292	-2.3
884.458	0.65
884.623	0.65
