Data from Apollo_Calib_20240827__AbsoluteIrradiance__30__23-39-01-805.txt Node

Date: Tue Aug 27 23:39:01 BST 2024
User: biology
Spectrometer: FLMT08252
Trigger mode: 0
Integration Time (sec): 5.000000E-1
Scans to average: 5
Electric dark correction enabled: true
Nonlinearity correction enabled: false
Boxcar width: 0
XAxis mode: Wavelengths
Number of Pixels in Spectrum: 3648
>>>>>Begin Spectral Data<<<<<
179.588	-0
179.809	-0
180.03	-0
180.251	-0
180.473	-0
180.694	0
180.915	0
181.136	-0
181.357	0
181.578	-0
181.799	-0
182.02	-0
182.241	0
182.462	-0
182.683	0
182.904	0
183.125	0
183.346	0
183.567	0
183.788	0
184.009	0
184.23	0
184.451	0
184.672	0
184.892	0
185.113	0
185.334	0
185.555	0
185.776	0
185.996	0
186.217	0
186.438	0
186.659	0
186.879	0
187.1	0
187.321	0
187.541	0
187.762	0
187.983	0
188.203	0
188.424	0
188.644	0
188.865	0
189.086	0
189.306	0
189.527	0
189.747	0
189.968	0
190.188	0
190.409	0
190.629	0
190.849	0
191.07	0
191.29	0
191.511	0
191.731	0
191.951	0
192.172	0
192.392	0
192.612	0
192.833	0
193.053	0
193.273	0
193.493	0
193.714	0
193.934	0
194.154	0
194.374	0
194.594	0
194.815	0
195.035	0
195.255	0
195.475	0
195.695	0
195.915	0
196.135	0
196.355	0
196.575	0
196.795	0
197.015	0
197.235	0
197.455	0
197.675	0
197.895	0
198.115	0
198.335	0
198.555	0
198.775	0
198.995	0
199.214	0
199.434	0
199.654	0
199.874	0
200.094	3.9
200.313	2.8
200.533	1.98
200.753	1.46
200.973	2.97
201.192	3.61
201.412	1.29
201.632	2.26
201.851	3.13
202.071	1.84
202.291	1.99
202.51	1.82
202.73	2.68
202.95	1.69
203.169	1.5
203.389	2.31
203.608	1.91
203.828	2.01
204.047	1.6
204.267	2.47
204.486	1.86
204.706	2.15
204.925	2.11
205.145	1.86
205.364	2.41
205.583	2.37
205.803	1.49
206.022	1.57
206.242	1.87
206.461	1.85
206.68	1.17
206.9	1.39
207.119	2.06
207.338	2.35
207.557	1.31
207.777	1.02
207.996	1.25
208.215	1.94
208.434	1.32
208.654	0.93
208.873	1.53
209.092	1.69
209.311	1.05
209.53	0.94
209.749	1.04
209.968	1.18
210.187	1.28
210.407	0.84
210.626	1.04
210.845	1.46
211.064	1.07
211.283	0.71
211.502	1.32
211.721	1.3
211.94	1.24
212.159	1.46
212.377	1.17
212.596	1.44
212.815	1.24
213.034	1.32
213.253	1.33
213.472	1.38
213.691	1
213.91	0.85
214.128	0.91
214.347	1.32
214.566	0.59
214.785	0.68
215.003	1.08
215.222	1.02
215.441	0.96
215.66	0.65
215.878	0.99
216.097	1.13
216.316	0.69
216.534	0.98
216.753	0.93
216.972	0.91
217.19	0.83
217.409	0.72
217.627	0.73
217.846	0.91
218.064	1.04
218.283	0.8
218.501	1.45
218.72	1.2
218.938	0.68
219.157	0.75
219.375	1.18
219.594	0.94
219.812	0.66
220.031	0.63
220.249	1.06
220.467	0.95
220.686	0.67
220.904	0.54
221.122	0.61
221.341	1.11
221.559	0.83
221.777	0.49
221.995	0.86
222.214	0.91
222.432	0.65
222.65	0.94
222.868	0.71
223.086	0.94
223.305	0.85
223.523	0.6
223.741	0.92
223.959	0.58
224.177	0.49
224.395	0.65
224.613	0.77
224.831	0.79
225.049	0.55
225.267	0.52
225.485	0.64
225.703	0.93
225.921	0.64
226.139	0.54
226.357	0.72
226.575	0.84
226.793	0.52
227.011	1.36
227.229	0.67
227.447	0.79
227.665	0.59
227.883	0.25
228.1	0.74
228.318	0.6
228.536	0.42
228.754	0.36
228.972	0.88
229.189	0.71
229.407	0.6
229.625	0.53
229.843	0.82
230.06	0.7
230.278	0.54
230.496	0.57
230.713	0.54
230.931	0.9
231.149	0.54
231.366	0.33
231.584	0.54
231.801	0.77
232.019	0.53
232.236	0.37
232.454	0.49
232.671	0.68
232.889	0.64
233.106	0.43
233.324	0.51
233.541	0.53
233.759	0.64
233.976	0.5
234.194	0.7
234.411	0.49
234.628	0.45
234.846	0.51
235.063	0.54
235.28	0.54
235.498	0.5
235.715	0.42
235.932	0.7
236.149	0.5
236.367	0.51
236.584	0.51
236.801	0.43
237.018	0.61
237.236	0.56
237.453	0.38
237.67	0.74
237.887	0.54
238.104	0.46
238.321	0.4
238.538	0.41
238.755	0.68
238.973	0.23
239.19	0.46
239.407	0.53
239.624	0.61
239.841	0.35
240.058	0.38
240.275	0.62
240.492	0.45
240.709	0.48
240.925	0.43
241.142	0.46
241.359	0.29
241.576	0.46
241.793	0.39
242.01	0.56
242.227	0.39
242.444	0.54
242.66	0.55
242.877	0.44
243.094	0.49
243.311	0.48
243.527	0.38
243.744	0.54
243.961	0.52
244.178	0.39
244.394	0.44
244.611	0.62
244.828	0.6
245.044	0.28
245.261	0.4
245.477	0.63
245.694	0.51
245.911	0.38
246.127	0.47
246.344	0.6
246.56	0.58
246.777	0.45
246.993	0.44
247.21	0.46
247.426	0.62
247.643	0.42
247.859	0.35
248.076	0.33
248.292	0.62
248.508	0.41
248.725	0.5
248.941	0.48
249.157	0.54
249.374	0.31
249.59	0.4
249.806	0.43
250.023	0.47
250.239	0.37
250.455	0.35
250.671	0.46
250.888	0.51
251.104	0.47
251.32	0.27
251.536	0.35
251.752	0.4
251.969	0.42
252.185	0.46
252.401	0.6
252.617	0.45
252.833	0.4
253.049	0.42
253.265	0.47
253.481	0.45
253.697	0.39
253.913	0.37
254.129	0.36
254.345	0.35
254.561	0.36
254.777	0.43
254.993	0.47
255.209	0.4
255.425	0.41
255.641	0.3
255.857	0.48
256.073	0.38
256.288	0.27
256.504	0.33
256.72	0.41
256.936	0.52
257.152	0.4
257.367	0.31
257.583	0.39
257.799	0.54
258.015	0.36
258.23	0.37
258.446	0.57
258.662	0.38
258.877	0.32
259.093	0.29
259.309	0.42
259.524	0.42
259.74	0.35
259.955	0.25
260.171	0.4
260.387	0.36
260.602	0.45
260.818	0.43
261.033	0.37
261.249	0.33
261.464	0.4
261.68	0.32
261.895	0.43
262.11	0.46
262.326	0.34
262.541	0.27
262.757	0.41
262.972	0.45
263.187	0.42
263.403	0.4
263.618	0.49
263.833	0.35
264.049	0.25
264.264	0.31
264.479	0.44
264.694	0.52
264.91	0.36
265.125	0.38
265.34	0.48
265.555	0.56
265.77	0.39
265.986	0.32
266.201	0.44
266.416	0.44
266.631	0.33
266.846	0.32
267.061	0.4
267.276	0.47
267.491	0.23
267.706	0.39
267.921	0.51
268.136	0.35
268.351	0.38
268.566	0.22
268.781	0.43
268.996	0.37
269.211	0.29
269.426	0.25
269.641	0.34
269.856	0.35
270.071	0.25
270.285	0.27
270.5	0.38
270.715	0.46
270.93	0.36
271.145	0.35
271.359	0.41
271.574	0.36
271.789	0.36
272.004	0.42
272.218	0.35
272.433	0.4
272.648	0.24
272.862	0.44
273.077	0.31
273.292	0.31
273.506	0.25
273.721	0.36
273.936	0.37
274.15	0.38
274.365	0.29
274.579	0.46
274.794	0.39
275.008	0.38
275.223	0.31
275.437	0.34
275.652	0.48
275.866	0.39
276.081	0.34
276.295	0.41
276.509	0.38
276.724	0.35
276.938	0.37
277.153	0.39
277.367	0.42
277.581	0.25
277.796	0.28
278.01	0.21
278.224	0.41
278.438	0.44
278.653	0.26
278.867	0.3
279.081	0.18
279.295	0.31
279.51	0.32
279.724	0.27
279.938	0.31
280.152	0.32
280.366	0.22
280.58	0.31
280.794	0.45
281.008	0.34
281.222	0.34
281.437	0.44
281.651	0.36
281.865	0.41
282.079	0.29
282.293	0.16
282.507	0.25
282.721	0.32
282.935	0.34
283.148	0.16
283.362	0.33
283.576	0.25
283.79	0.32
284.004	0.28
284.218	0.35
284.432	0.29
284.646	0.29
284.859	0.27
285.073	0.27
285.287	0.31
285.501	0.28
285.714	0.23
285.928	0.29
286.142	0.26
286.356	0.24
286.569	0.27
286.783	0.36
286.997	0.35
287.21	0.3
287.424	0.26
287.637	0.29
287.851	0.26
288.065	0.33
288.278	0.28
288.492	0.3
288.705	0.31
288.919	0.32
289.132	0.27
289.346	0.27
289.559	0.2
289.773	0.22
289.986	0.26
290.2	0.29
290.413	0.37
290.626	0.28
290.84	0.27
291.053	0.25
291.267	0.33
291.48	0.34
291.693	0.25
291.906	0.26
292.12	0.29
292.333	0.23
292.546	0.25
292.76	0.36
292.973	0.26
293.186	0.3
293.399	0.26
293.612	0.34
293.826	0.26
294.039	0.27
294.252	0.3
294.465	0.31
294.678	0.33
294.891	0.27
295.104	0.2
295.317	0.29
295.53	0.3
295.743	0.27
295.956	0.24
296.169	0.33
296.382	0.28
296.595	0.28
296.808	0.23
297.021	0.36
297.234	0.32
297.447	0.28
297.66	0.31
297.873	0.3
298.086	0.3
298.299	0.15
298.511	0.23
298.724	0.28
298.937	0.22
299.15	0.26
299.363	0.24
299.575	0.33
299.788	0.31
300.001	0.26
300.213	0.25
300.426	0.25
300.639	0.21
300.852	0.22
301.064	0.28
301.277	0.34
301.489	0.26
301.702	0.3
301.915	0.25
302.127	0.22
302.34	0.3
302.552	0.26
302.765	0.27
302.977	0.27
303.19	0.19
303.402	0.2
303.615	0.23
303.827	0.28
304.04	0.27
304.252	0.27
304.464	0.25
304.677	0.37
304.889	0.32
305.102	0.23
305.314	0.23
305.526	0.28
305.739	0.25
305.951	0.22
306.163	0.24
306.375	0.3
306.588	0.21
306.8	0.22
307.012	0.21
307.224	0.28
307.436	0.39
307.649	0.18
307.861	0.21
308.073	0.34
308.285	0.24
308.497	0.2
308.709	0.26
308.921	0.29
309.133	0.33
309.346	0.24
309.558	0.25
309.77	0.23
309.982	0.32
310.194	0.31
310.406	0.21
310.617	0.29
310.829	0.3
311.041	0.29
311.253	0.19
311.465	0.2
311.677	0.28
311.889	0.26
312.101	0.26
312.313	0.28
312.524	0.25
312.736	0.16
312.948	0.26
313.16	0.34
313.372	0.29
313.583	0.26
313.795	0.28
314.007	0.21
314.218	0.31
314.43	0.28
314.642	0.26
314.853	0.16
315.065	0.32
315.277	0.24
315.488	0.25
315.7	0.31
315.912	0.28
316.123	0.27
316.335	0.23
316.546	0.33
316.758	0.24
316.969	0.24
317.181	0.28
317.392	0.24
317.604	0.33
317.815	0.2
318.026	0.2
318.238	0.27
318.449	0.29
318.661	0.23
318.872	0.19
319.083	0.25
319.295	0.29
319.506	0.26
319.717	0.25
319.929	0.26
320.14	0.24
320.351	0.26
320.562	0.23
320.774	0.25
320.985	0.25
321.196	0.2
321.407	0.17
321.618	0.24
321.829	0.25
322.041	0.3
322.252	0.24
322.463	0.28
322.674	0.28
322.885	0.21
323.096	0.24
323.307	0.26
323.518	0.26
323.729	0.25
323.94	0.28
324.151	0.3
324.362	0.29
324.573	0.26
324.784	0.24
324.995	0.33
325.206	0.28
325.417	0.22
325.628	0.2
325.838	0.25
326.049	0.22
326.26	0.25
326.471	0.25
326.682	0.26
326.892	0.26
327.103	0.27
327.314	0.18
327.525	0.33
327.735	0.22
327.946	0.25
328.157	0.19
328.368	0.26
328.578	0.24
328.789	0.32
328.999	0.27
329.21	0.22
329.421	0.28
329.631	0.21
329.842	0.24
330.052	0.3
330.263	0.32
330.473	0.31
330.684	0.28
330.894	0.25
331.105	0.25
331.315	0.26
331.526	0.21
331.736	0.31
331.947	0.29
332.157	0.26
332.367	0.18
332.578	0.21
332.788	0.32
332.999	0.3
333.209	0.24
333.419	0.24
333.629	0.27
333.84	0.32
334.05	0.27
334.26	0.33
334.47	0.28
334.681	0.28
334.891	0.23
335.101	0.28
335.311	0.35
335.521	0.27
335.732	0.2
335.942	0.31
336.152	0.3
336.362	0.26
336.572	0.29
336.782	0.29
336.992	0.25
337.202	0.26
337.412	0.24
337.622	0.3
337.832	0.28
338.042	0.25
338.252	0.25
338.462	0.2
338.672	0.26
338.882	0.29
339.092	0.19
339.302	0.34
339.511	0.3
339.721	0.24
339.931	0.24
340.141	0.31
340.351	0.32
340.561	0.31
340.77	0.23
340.98	0.27
341.19	0.26
341.4	0.25
341.609	0.19
341.819	0.29
342.029	0.23
342.238	0.22
342.448	0.2
342.658	0.32
342.867	0.25
343.077	0.24
343.286	0.25
343.496	0.29
343.706	0.3
343.915	0.21
344.125	0.26
344.334	0.24
344.544	0.2
344.753	0.24
344.963	0.24
345.172	0.25
345.381	0.21
345.591	0.21
345.8	0.27
346.01	0.3
346.219	0.31
346.428	0.14
346.638	0.26
346.847	0.24
347.056	0.32
347.266	0.2
347.475	0.31
347.684	0.23
347.893	0.34
348.103	0.26
348.312	0.2
348.521	0.25
348.73	0.26
348.94	0.25
349.149	0.23
349.358	0.24
349.567	0.21
349.776	0.19
349.985	0.21
350.194	0.27
350.403	0.29
350.612	0.16
350.821	0.25
351.03	0.26
351.239	0.23
351.448	0.25
351.657	0.2
351.866	0.35
352.075	0.23
352.284	0.31
352.493	0.2
352.702	0.28
352.911	0.23
353.12	0.27
353.329	0.24
353.538	0.28
353.746	0.25
353.955	0.2
354.164	0.24
354.373	0.25
354.582	0.29
354.79	0.27
354.999	0.28
355.208	0.21
355.416	0.34
355.625	0.24
355.834	0.27
356.042	0.25
356.251	0.24
356.46	0.21
356.668	0.22
356.877	0.32
357.085	0.28
357.294	0.22
357.503	0.27
357.711	0.25
357.92	0.41
358.128	0.3
358.337	0.21
358.545	0.26
358.754	0.23
358.962	0.27
359.17	0.23
359.379	0.26
359.587	0.25
359.796	0.25
360.004	0.29
360.212	0.27
360.421	0.28
360.629	0.25
360.837	0.22
361.046	0.26
361.254	0.35
361.462	0.26
361.67	0.24
361.879	0.27
362.087	0.34
362.295	0.25
362.503	0.22
362.711	0.21
362.92	0.21
363.128	0.21
363.336	0.14
363.544	0.17
363.752	0.23
363.96	0.24
364.168	0.22
364.376	0.23
364.584	0.22
364.792	0.31
365	0.23
365.208	0.24
365.416	0.28
365.624	0.3
365.832	0.18
366.04	0.32
366.248	0.24
366.456	0.24
366.664	0.25
366.872	0.26
367.079	0.2
367.287	0.23
367.495	0.29
367.703	0.26
367.911	0.25
368.118	0.22
368.326	0.23
368.534	0.21
368.742	0.32
368.949	0.17
369.157	0.19
369.365	0.28
369.572	0.25
369.78	0.22
369.988	0.28
370.195	0.27
370.403	0.31
370.61	0.25
370.818	0.26
371.026	0.29
371.233	0.19
371.441	0.28
371.648	0.24
371.856	0.28
372.063	0.24
372.271	0.26
372.478	0.23
372.685	0.22
372.893	0.31
373.1	0.25
373.308	0.25
373.515	0.32
373.722	0.26
373.93	0.26
374.137	0.3
374.344	0.38
374.552	0.31
374.759	0.25
374.966	0.24
375.173	0.28
375.381	0.33
375.588	0.27
375.795	0.18
376.002	0.23
376.209	0.24
376.417	0.27
376.624	0.26
376.831	0.26
377.038	0.22
377.245	0.18
377.452	0.26
377.659	0.28
377.866	0.23
378.073	0.23
378.28	0.25
378.487	0.32
378.694	0.3
378.901	0.28
379.108	0.24
379.315	0.32
379.522	0.37
379.729	0.27
379.936	0.22
380.143	0.26
380.35	0.23
380.557	0.24
380.763	0.26
380.97	0.31
381.177	0.25
381.384	0.29
381.591	0.29
381.797	0.3
382.004	0.27
382.211	0.35
382.418	0.3
382.624	0.29
382.831	0.29
383.038	0.25
383.244	0.26
383.451	0.27
383.658	0.34
383.864	0.29
384.071	0.24
384.277	0.3
384.484	0.26
384.69	0.31
384.897	0.27
385.103	0.26
385.31	0.24
385.516	0.24
385.723	0.22
385.929	0.27
386.136	0.24
386.342	0.3
386.549	0.24
386.755	0.33
386.961	0.3
387.168	0.29
387.374	0.3
387.58	0.34
387.787	0.3
387.993	0.34
388.199	0.26
388.406	0.28
388.612	0.25
388.818	0.25
389.024	0.25
389.231	0.29
389.437	0.35
389.643	0.32
389.849	0.32
390.055	0.33
390.261	0.32
390.467	0.36
390.674	0.25
390.88	0.32
391.086	0.28
391.292	0.23
391.498	0.32
391.704	0.31
391.91	0.29
392.116	0.32
392.322	0.2
392.528	0.31
392.734	0.28
392.94	0.28
393.146	0.28
393.352	0.29
393.557	0.26
393.763	0.27
393.969	0.36
394.175	0.27
394.381	0.34
394.587	0.26
394.792	0.3
394.998	0.3
395.204	0.34
395.41	0.31
395.615	0.3
395.821	0.33
396.027	0.36
396.233	0.26
396.438	0.38
396.644	0.39
396.85	0.37
397.055	0.31
397.261	0.36
397.466	0.36
397.672	0.33
397.878	0.35
398.083	0.38
398.289	0.33
398.494	0.37
398.7	0.39
398.905	0.26
399.111	0.45
399.316	0.3
399.522	0.37
399.727	0.33
399.932	0.33
400.138	0.35
400.343	0.38
400.549	0.36
400.754	0.32
400.959	0.39
401.165	0.33
401.37	0.38
401.575	0.31
401.78	0.34
401.986	0.32
402.191	0.4
402.396	0.38
402.601	0.42
402.807	0.41
403.012	0.35
403.217	0.44
403.422	0.35
403.627	0.44
403.832	0.41
404.037	0.47
404.243	0.4
404.448	0.37
404.653	0.44
404.858	0.43
405.063	0.46
405.268	0.4
405.473	0.4
405.678	0.38
405.883	0.6
406.088	0.52
406.293	0.39
406.498	0.45
406.703	0.48
406.907	0.49
407.112	0.45
407.317	0.51
407.522	0.57
407.727	0.49
407.932	0.53
408.136	0.66
408.341	0.58
408.546	0.59
408.751	0.62
408.956	0.53
409.16	0.64
409.365	0.63
409.57	0.63
409.774	0.71
409.979	0.66
410.184	0.71
410.388	0.62
410.593	0.74
410.798	0.76
411.002	0.71
411.207	0.78
411.411	0.77
411.616	0.75
411.82	0.85
412.025	0.92
412.229	0.81
412.434	0.94
412.638	0.97
412.843	0.9
413.047	0.99
413.252	0.93
413.456	1.04
413.66	1.07
413.865	1.04
414.069	1.16
414.273	1.13
414.478	1.1
414.682	1.19
414.886	1.15
415.091	1.15
415.295	1.24
415.499	1.36
415.703	1.33
415.908	1.45
416.112	1.39
416.316	1.55
416.52	1.58
416.724	1.53
416.929	1.59
417.133	1.78
417.337	1.77
417.541	1.74
417.745	1.87
417.949	1.98
418.153	1.95
418.357	2.04
418.561	2.24
418.765	2.2
418.969	2.27
419.173	2.39
419.377	2.42
419.581	2.58
419.785	2.63
419.989	2.64
420.193	2.84
420.397	2.92
420.601	3.02
420.804	3.02
421.008	3.1
421.212	3.27
421.416	3.23
421.62	3.24
421.823	3.32
422.027	3.55
422.231	3.51
422.435	3.49
422.638	3.55
422.842	3.68
423.046	3.74
423.249	3.89
423.453	4
423.657	4.02
423.86	4.16
424.064	4.36
424.268	4.47
424.471	4.48
424.675	4.71
424.878	4.76
425.082	4.89
425.285	5.21
425.489	5.09
425.692	5.25
425.896	5.25
426.099	5.42
426.303	5.54
426.506	5.73
426.71	6
426.913	6.13
427.116	6.22
427.32	6.3
427.523	6.35
427.726	6.73
427.93	6.84
428.133	7.01
428.336	7.17
428.54	7.36
428.743	7.6
428.946	7.78
429.149	7.83
429.353	7.81
429.556	7.98
429.759	8.15
429.962	8.14
430.165	8.25
430.368	8.02
430.571	8.15
430.775	8.14
430.978	8.01
431.181	8.15
431.384	8.21
431.587	8.29
431.79	8.66
431.993	8.58
432.196	8.91
432.399	9.34
432.602	9.41
432.805	9.45
433.008	9.97
433.211	9.86
433.414	10.22
433.616	10.23
433.819	10.26
434.022	10.32
434.225	10.56
434.428	10.6
434.631	11.02
434.833	10.72
435.036	11.04
435.239	11.25
435.442	11.31
435.645	11.6
435.847	11.67
436.05	11.99
436.253	12.14
436.455	12.18
436.658	11.98
436.861	12.41
437.063	12.47
437.266	12.36
437.468	12.71
437.671	12.99
437.874	13.05
438.076	12.97
438.279	13.35
438.481	13.46
438.684	14.24
438.886	13.87
439.089	14.2
439.291	14.09
439.494	14.54
439.696	14.64
439.899	15.18
440.101	15.59
440.303	15.79
440.506	16.5
440.708	16.24
440.91	16.38
441.113	16.75
441.315	17
441.517	16.82
441.72	17.23
441.922	16.97
442.124	16.75
442.326	17.21
442.529	17.33
442.731	17.42
442.933	17.68
443.135	17.52
443.337	17.37
443.539	18.04
443.742	17.75
443.944	18.36
444.146	17.97
444.348	18.07
444.55	17.94
444.752	18.15
444.954	18.32
445.156	17.96
445.358	18.52
445.56	18.75
445.762	18.54
445.964	18.75
446.166	18.61
446.368	18.62
446.57	18.59
446.772	18.13
446.974	17.88
447.175	18.3
447.377	17.98
447.579	18.45
447.781	18.16
447.983	17.69
448.184	17.55
448.386	17.82
448.588	17.3
448.79	17.21
448.991	17.51
449.193	17.52
449.395	16.86
449.597	16.59
449.798	16.38
450	15.98
450.202	15.97
450.403	15.92
450.605	15.83
450.806	15.48
451.008	15.27
451.21	15.07
451.411	14.66
451.613	13.96
451.814	14.26
452.016	14
452.217	13.33
452.419	13.31
452.62	13.09
452.821	12.81
453.023	12.64
453.224	12.33
453.426	11.93
453.627	11.16
453.828	11.31
454.03	11.37
454.231	11.38
454.432	11.16
454.634	10.93
454.835	10.56
455.036	10.49
455.238	10.1
455.439	9.97
455.64	9.7
455.841	9.44
456.042	9.67
456.244	9.33
456.445	8.98
456.646	8.62
456.847	8.61
457.048	8.43
457.249	8.52
457.45	8.24
457.651	7.75
457.852	7.67
458.054	7.24
458.255	7.31
458.456	7.34
458.657	7.22
458.858	6.73
459.058	6.72
459.259	6.8
459.46	6.43
459.661	6.53
459.862	6.41
460.063	6.41
460.264	6.26
460.465	6.03
460.666	6.1
460.866	5.87
461.067	5.44
461.268	5.55
461.469	5.47
461.67	5.35
461.87	5.26
462.071	5.16
462.272	5.15
462.473	5.07
462.673	5.23
462.874	5.23
463.075	5.16
463.275	5.01
463.476	5.14
463.676	5.2
463.877	4.97
464.078	4.89
464.278	4.99
464.479	4.81
464.679	4.81
464.88	4.76
465.08	4.68
465.281	4.48
465.481	4.27
465.682	4.07
465.882	4.21
466.083	4.09
466.283	4.09
466.483	3.89
466.684	3.79
466.884	3.68
467.085	3.7
467.285	3.78
467.485	3.68
467.686	3.51
467.886	3.44
468.086	3.44
468.286	3.35
468.487	3.46
468.687	3.24
468.887	3.26
469.087	3.41
469.287	3.28
469.488	3.07
469.688	3.21
469.888	3.21
470.088	3.13
470.288	3.1
470.488	3.02
470.688	2.88
470.888	2.83
471.088	2.72
471.288	2.84
471.488	2.79
471.688	2.7
471.888	2.73
472.088	2.9
472.288	2.69
472.488	2.63
472.688	2.56
472.888	2.62
473.088	2.61
473.288	2.49
473.488	2.47
473.688	2.61
473.887	2.45
474.087	2.39
474.287	2.47
474.487	2.39
474.687	2.42
474.886	2.37
475.086	2.35
475.286	2.31
475.486	2.27
475.685	2.27
475.885	2.15
476.085	2.25
476.284	2.25
476.484	2.23
476.684	2.21
476.883	2.27
477.083	2.16
477.282	2.16
477.482	2.22
477.681	2.16
477.881	2.09
478.08	2.13
478.28	2.05
478.479	2.09
478.679	2.15
478.878	2.05
479.078	2.04
479.277	2.05
479.477	2
479.676	2.02
479.875	2.06
480.075	1.97
480.274	2.03
480.473	2.08
480.673	2.03
480.872	2.1
481.071	2.04
481.271	2.06
481.47	1.99
481.669	2.05
481.868	1.95
482.067	1.98
482.267	1.94
482.466	1.98
482.665	1.93
482.864	1.93
483.063	1.94
483.262	1.96
483.461	2.05
483.661	2.07
483.86	1.98
484.059	2.06
484.258	2.06
484.457	2.04
484.656	1.98
484.855	2.04
485.054	1.93
485.253	1.98
485.452	1.95
485.651	2.07
485.849	2.05
486.048	2.02
486.247	2.03
486.446	2.08
486.645	2.03
486.844	2.1
487.043	2.05
487.241	2.1
487.44	2.07
487.639	2.14
487.838	2.14
488.037	2.09
488.235	2.18
488.434	2.16
488.633	2.05
488.831	2.25
489.03	2.21
489.229	2.19
489.427	2.24
489.626	2.29
489.825	2.27
490.023	2.31
490.222	2.29
490.42	2.34
490.619	2.32
490.817	2.36
491.016	2.31
491.214	2.42
491.413	2.42
491.611	2.36
491.81	2.4
492.008	2.41
492.207	2.56
492.405	2.54
492.604	2.42
492.802	2.54
493	2.61
493.199	2.62
493.397	2.63
493.595	2.7
493.794	2.66
493.992	2.74
494.19	2.73
494.388	2.79
494.587	2.73
494.785	2.8
494.983	2.72
495.181	2.86
495.379	2.9
495.578	2.92
495.776	2.94
495.974	2.91
496.172	2.95
496.37	3.06
496.568	3.13
496.766	3.12
496.964	3.17
497.162	3.18
497.36	3.19
497.558	3.23
497.756	3.28
497.954	3.28
498.152	3.34
498.35	3.41
498.548	3.33
498.746	3.34
498.944	3.41
499.142	3.41
499.34	3.52
499.538	3.61
499.736	3.5
499.933	3.63
500.131	3.57
500.329	3.8
500.527	3.71
500.725	3.86
500.922	3.86
501.12	3.88
501.318	3.96
501.516	3.89
501.713	3.99
501.911	3.97
502.109	3.95
502.306	4.07
502.504	3.98
502.701	4.08
502.899	4.17
503.097	4.32
503.294	4.17
503.492	4.29
503.689	4.35
503.887	4.33
504.084	4.42
504.282	4.39
504.479	4.4
504.677	4.57
504.874	4.48
505.072	4.45
505.269	4.62
505.466	4.69
505.664	4.69
505.861	4.64
506.059	4.76
506.256	4.75
506.453	4.81
506.651	4.92
506.848	4.98
507.045	4.95
507.242	4.93
507.44	4.99
507.637	5.09
507.834	5.06
508.031	5.18
508.229	5.14
508.426	5.06
508.623	5.25
508.82	5.31
509.017	5.21
509.214	5.29
509.411	5.39
509.608	5.3
509.805	5.45
510.003	5.44
510.2	5.45
510.397	5.64
510.594	5.55
510.791	5.6
510.988	5.64
511.184	5.65
511.381	5.49
511.578	5.66
511.775	5.86
511.972	5.68
512.169	5.8
512.366	5.82
512.563	5.92
512.76	5.98
512.956	6.04
513.153	5.95
513.35	5.84
513.547	5.92
513.744	6.02
513.94	6.02
514.137	6.18
514.334	6.07
514.53	6.2
514.727	6.35
514.924	6.24
515.12	6.22
515.317	6.24
515.514	6.15
515.71	6.16
515.907	6.44
516.103	6.44
516.3	6.35
516.497	6.46
516.693	6.46
516.89	6.43
517.086	6.52
517.283	6.53
517.479	6.41
517.676	6.57
517.872	6.6
518.068	6.61
518.265	6.65
518.461	6.53
518.658	6.72
518.854	6.71
519.05	6.8
519.247	6.79
519.443	6.7
519.639	6.86
519.836	6.75
520.032	6.76
520.228	6.89
520.424	6.82
520.621	6.91
520.817	6.98
521.013	6.91
521.209	7.05
521.405	7.04
521.601	7
521.798	7
521.994	6.96
522.19	6.97
522.386	7.01
522.582	7.06
522.778	7.22
522.974	7.11
523.17	7.2
523.366	7.11
523.562	7.08
523.758	7.16
523.954	7.08
524.15	7.2
524.346	7.2
524.542	7.22
524.738	7.22
524.934	7.36
525.129	7.3
525.325	7.26
525.521	7.24
525.717	7.48
525.913	7.31
526.109	7.32
526.304	7.41
526.5	7.36
526.696	7.44
526.892	7.38
527.087	7.62
527.283	7.55
527.479	7.5
527.674	7.31
527.87	7.46
528.066	7.47
528.261	7.52
528.457	7.41
528.653	7.63
528.848	7.59
529.044	7.66
529.239	7.46
529.435	7.53
529.63	7.52
529.826	7.57
530.021	7.58
530.217	7.62
530.412	7.54
530.608	7.58
530.803	7.63
530.999	7.54
531.194	7.62
531.389	7.7
531.585	7.69
531.78	7.76
531.975	7.67
532.171	7.75
532.366	7.79
532.561	7.75
532.757	7.67
532.952	7.89
533.147	7.62
533.342	7.76
533.538	7.68
533.733	7.87
533.928	7.58
534.123	7.78
534.318	7.84
534.513	7.64
534.709	7.89
534.904	7.81
535.099	7.88
535.294	7.9
535.489	7.9
535.684	7.78
535.879	7.82
536.074	7.88
536.269	7.9
536.464	7.9
536.659	7.75
536.854	7.9
537.049	7.97
537.244	7.93
537.439	7.91
537.634	7.92
537.828	7.98
538.023	7.94
538.218	7.9
538.413	7.82
538.608	7.9
538.803	7.94
538.997	7.86
539.192	7.87
539.387	7.83
539.582	7.9
539.776	7.89
539.971	7.94
540.166	8
540.36	7.92
540.555	8.03
540.75	7.99
540.944	7.99
541.139	8.01
541.334	8.01
541.528	7.95
541.723	8.06
541.917	8.05
542.112	7.93
542.306	7.88
542.501	7.91
542.695	8.01
542.89	7.94
543.084	8
543.279	8.05
543.473	8.05
543.668	8.05
543.862	7.93
544.056	7.84
544.251	8.03
544.445	8.1
544.64	8.11
544.834	7.78
545.028	7.71
545.222	7.99
545.417	8.17
545.611	8.06
545.805	8.05
546	7.84
546.194	7.99
546.388	8.08
546.582	8.01
546.776	8.02
546.97	8.05
547.165	8.08
547.359	7.97
547.553	7.97
547.747	8.02
547.941	8.23
548.135	8.02
548.329	8.08
548.523	8.13
548.717	8
548.911	7.97
549.105	8.03
549.299	8.07
549.493	8.11
549.687	7.95
549.881	8.13
550.075	8.11
550.269	7.96
550.463	8.11
550.657	8.1
550.85	8.08
551.044	8.04
551.238	8.1
551.432	8.08
551.626	8.14
551.82	8.1
552.013	7.97
552.207	8.17
552.401	8.14
552.594	8.12
552.788	8.05
552.982	8.03
553.176	7.97
553.369	8.17
553.563	8.08
553.756	8.05
553.95	8.13
554.144	8.15
554.337	8.17
554.531	7.91
554.724	8.11
554.918	8.2
555.111	8.06
555.305	8.11
555.498	8.07
555.692	8.22
555.885	8.12
556.079	8.01
556.272	8.1
556.466	8.08
556.659	8.08
556.852	8.14
557.046	8.06
557.239	7.94
557.432	8.1
557.626	8.19
557.819	8.17
558.012	8.22
558.206	8.17
558.399	8.11
558.592	8.08
558.785	8.05
558.979	8.07
559.172	8.08
559.365	8.13
559.558	8.01
559.751	7.95
559.944	8.25
560.138	8.07
560.331	8.18
560.524	8.16
560.717	8.1
560.91	8.09
561.103	8.1
561.296	8
561.489	8.16
561.682	8.13
561.875	8.14
562.068	8.22
562.261	8.06
562.454	8.2
562.647	8.06
562.84	8.14
563.032	8.12
563.225	7.99
563.418	8.08
563.611	8.19
563.804	8.12
563.997	7.94
564.19	7.9
564.382	8.2
564.575	8.08
564.768	8.02
564.961	8.15
565.153	8.06
565.346	8.02
565.539	8.13
565.731	8.09
565.924	8.19
566.117	8.19
566.309	8.11
566.502	8.04
566.695	8.03
566.887	8.11
567.08	8.1
567.272	8.09
567.465	7.96
567.657	8.07
567.85	7.94
568.042	8.05
568.235	8.17
568.427	7.93
568.62	8.07
568.812	8
569.005	8.09
569.197	8.01
569.389	8.02
569.582	8.09
569.774	7.95
569.966	7.98
570.159	7.91
570.351	7.95
570.543	8.06
570.736	8.02
570.928	7.87
571.12	8.06
571.312	7.95
571.505	7.81
571.697	8.03
571.889	8.08
572.081	8.04
572.273	7.91
572.465	7.98
572.658	8.02
572.85	7.94
573.042	7.99
573.234	7.83
573.426	7.97
573.618	7.88
573.81	7.92
574.002	7.92
574.194	8.01
574.386	7.95
574.578	7.79
574.77	7.91
574.962	7.96
575.154	7.82
575.346	7.9
575.538	7.76
575.729	7.77
575.921	7.94
576.113	7.96
576.305	7.93
576.497	8.02
576.689	7.77
576.88	7.79
577.072	7.93
577.264	7.83
577.456	7.91
577.647	7.83
577.839	7.98
578.031	7.82
578.223	7.78
578.414	7.71
578.606	7.79
578.798	7.84
578.989	7.88
579.181	7.86
579.372	7.85
579.564	7.78
579.755	7.76
579.947	7.66
580.139	7.77
580.33	7.61
580.522	7.76
580.713	7.81
580.905	7.74
581.096	7.89
581.287	7.72
581.479	7.69
581.67	7.77
581.862	7.69
582.053	7.68
582.244	7.61
582.436	7.81
582.627	7.68
582.818	7.61
583.01	7.6
583.201	7.65
583.392	7.57
583.583	7.61
583.775	7.44
583.966	7.57
584.157	7.59
584.348	7.66
584.54	7.55
584.731	7.61
584.922	7.53
585.113	7.47
585.304	7.61
585.495	7.52
585.686	7.58
585.877	7.6
586.068	7.7
586.259	7.61
586.45	7.56
586.641	7.44
586.832	7.6
587.023	7.52
587.214	7.49
587.405	7.54
587.596	7.35
587.787	7.38
587.978	7.47
588.169	7.43
588.36	7.33
588.551	7.39
588.742	7.38
588.932	7.39
589.123	7.3
589.314	7.48
589.505	7.31
589.696	7.37
589.886	7.35
590.077	7.36
590.268	7.3
590.458	7.21
590.649	7.23
590.84	7.26
591.03	7.27
591.221	7.3
591.412	7.12
591.602	7.34
591.793	7.18
591.984	7.3
592.174	7.23
592.365	7.35
592.555	7.07
592.746	7.13
592.936	7.12
593.127	7.2
593.317	7.2
593.508	7.19
593.698	7.05
593.889	7.04
594.079	7.15
594.269	7
594.46	7.03
594.65	7.04
594.84	7.01
595.031	6.95
595.221	6.98
595.411	7.02
595.602	7.06
595.792	6.9
595.982	6.85
596.172	7.07
596.363	6.91
596.553	6.9
596.743	7.02
596.933	6.97
597.123	6.85
597.314	6.73
597.504	6.79
597.694	6.92
597.884	6.78
598.074	6.87
598.264	6.85
598.454	6.84
598.644	6.67
598.834	6.79
599.024	6.67
599.214	6.65
599.404	6.8
599.594	6.7
599.784	6.71
599.974	6.78
600.164	6.66
600.354	6.61
600.544	6.53
600.734	6.65
600.924	6.64
601.114	6.5
601.303	6.54
601.493	6.6
601.683	6.6
601.873	6.58
602.063	6.42
602.252	6.49
602.442	6.37
602.632	6.4
602.821	6.42
603.011	6.47
603.201	6.34
603.39	6.45
603.58	6.24
603.77	6.42
603.959	6.42
604.149	6.35
604.339	6.4
604.528	6.43
604.718	6.36
604.907	6.32
605.097	6.26
605.286	6.24
605.476	6.23
605.665	6.29
605.855	6.18
606.044	6.29
606.234	6.28
606.423	6.15
606.612	6.16
606.802	6.13
606.991	6.17
607.181	6.17
607.37	6.15
607.559	5.96
607.749	6.1
607.938	5.95
608.127	6.05
608.316	6.03
608.506	6.01
608.695	6.07
608.884	5.99
609.073	5.98
609.263	6.02
609.452	6.03
609.641	5.81
609.83	5.87
610.019	5.93
610.208	5.84
610.397	5.84
610.586	5.78
610.775	5.8
610.965	5.76
611.154	5.67
611.343	5.79
611.532	5.7
611.721	5.79
611.91	5.66
612.099	5.67
612.287	5.64
612.476	5.56
612.665	5.76
612.854	5.57
613.043	5.63
613.232	5.65
613.421	5.55
613.61	5.58
613.798	5.61
613.987	5.58
614.176	5.59
614.365	5.53
614.554	5.5
614.742	5.6
614.931	5.41
615.12	5.53
615.309	5.47
615.497	5.33
615.686	5.29
615.875	5.36
616.063	5.39
616.252	5.34
616.44	5.36
616.629	5.32
616.818	5.29
617.006	5.24
617.195	5.22
617.383	5.21
617.572	5.19
617.76	5.14
617.949	5.2
618.137	5.22
618.326	5.29
618.514	5.02
618.703	5.06
618.891	5.14
619.079	5.01
619.268	5.14
619.456	5.01
619.644	5.08
619.833	4.99
620.021	5
620.209	4.96
620.398	5.01
620.586	4.93
620.774	4.95
620.962	4.96
621.151	5
621.339	4.89
621.527	4.85
621.715	4.87
621.903	4.86
622.092	4.79
622.28	4.86
622.468	4.65
622.656	4.8
622.844	4.7
623.032	4.76
623.22	4.66
623.408	4.82
623.596	4.66
623.784	4.7
623.972	4.67
624.16	4.67
624.348	4.74
624.536	4.77
624.724	4.55
624.912	4.66
625.1	4.62
625.288	4.57
625.476	4.54
625.664	4.62
625.851	4.5
626.039	4.54
626.227	4.5
626.415	4.56
626.603	4.41
626.79	4.5
626.978	4.45
627.166	4.44
627.354	4.37
627.541	4.34
627.729	4.23
627.917	4.42
628.104	4.38
628.292	4.27
628.48	4.28
628.667	4.26
628.855	4.33
629.042	4.41
629.23	4.26
629.418	4.17
629.605	4.28
629.793	4.15
629.98	4.19
630.168	4.16
630.355	4.24
630.543	4.14
630.73	4.08
630.917	4.14
631.105	4.22
631.292	4.15
631.48	4.08
631.667	4.16
631.854	3.99
632.042	4
632.229	3.97
632.416	4.08
632.604	4.04
632.791	3.92
632.978	4.01
633.165	3.96
633.353	3.99
633.54	4.01
633.727	3.91
633.914	3.85
634.101	3.79
634.289	3.91
634.476	3.83
634.663	3.84
634.85	3.85
635.037	3.8
635.224	3.69
635.411	3.81
635.598	3.73
635.785	3.7
635.972	3.7
636.159	3.71
636.346	3.69
636.533	3.64
636.72	3.68
636.907	3.68
637.094	3.61
637.281	3.54
637.468	3.63
637.655	3.64
637.842	3.63
638.029	3.55
638.215	3.53
638.402	3.57
638.589	3.51
638.776	3.46
638.963	3.46
639.149	3.52
639.336	3.55
639.523	3.51
639.709	3.46
639.896	3.45
640.083	3.37
640.27	3.55
640.456	3.35
640.643	3.34
640.829	3.28
641.016	3.29
641.203	3.27
641.389	3.34
641.576	3.32
641.762	3.25
641.949	3.2
642.135	3.3
642.322	3.26
642.508	3.19
642.695	3.24
642.881	3.22
643.068	3.18
643.254	3.22
643.441	3.21
643.627	3.24
643.813	3.06
644	3.2
644.186	3.09
644.372	3.17
644.559	3.13
644.745	3.07
644.931	3.03
645.118	3.12
645.304	3.07
645.49	3
645.676	3.04
645.862	3.01
646.049	3.07
646.235	3.01
646.421	3.14
646.607	3.13
646.793	2.95
646.979	2.86
647.165	2.96
647.352	2.98
647.538	2.95
647.724	2.91
647.91	2.83
648.096	2.88
648.282	2.89
648.468	2.81
648.654	2.89
648.84	2.93
649.026	2.86
649.212	2.78
649.397	2.75
649.583	2.79
649.769	2.83
649.955	2.83
650.141	2.79
650.327	2.78
650.513	2.76
650.698	2.77
650.884	2.64
651.07	2.7
651.256	2.68
651.442	2.73
651.627	2.56
651.813	2.68
651.999	2.61
652.184	2.7
652.37	2.64
652.556	2.6
652.741	2.67
652.927	2.52
653.113	2.57
653.298	2.62
653.484	2.58
653.669	2.54
653.855	2.59
654.04	2.6
654.226	2.56
654.412	2.5
654.597	2.48
654.782	2.53
654.968	2.55
655.153	2.5
655.339	2.48
655.524	2.46
655.71	2.48
655.895	2.5
656.08	2.45
656.266	2.49
656.451	2.45
656.636	2.38
656.822	2.39
657.007	2.41
657.192	2.44
657.378	2.37
657.563	2.4
657.748	2.41
657.933	2.35
658.118	2.27
658.304	2.36
658.489	2.4
658.674	2.38
658.859	2.31
659.044	2.36
659.229	2.36
659.414	2.26
659.599	2.33
659.785	2.22
659.97	2.22
660.155	2.33
660.34	2.29
660.525	2.25
660.71	2.22
660.895	2.25
661.08	2.19
661.264	2.17
661.449	2.22
661.634	2.2
661.819	2.16
662.004	2.17
662.189	2.09
662.374	2.13
662.559	2.1
662.743	2.04
662.928	2.09
663.113	2.06
663.298	2.01
663.483	2.02
663.667	2.06
663.852	2.01
664.037	2.1
664.221	1.98
664.406	2.07
664.591	2.03
664.775	1.98
664.96	1.97
665.145	1.96
665.329	1.95
665.514	1.96
665.698	1.88
665.883	1.91
666.068	1.92
666.252	1.89
666.437	1.85
666.621	1.9
666.806	1.9
666.99	1.85
667.174	1.82
667.359	1.88
667.543	1.76
667.728	1.84
667.912	1.73
668.096	1.8
668.281	1.71
668.465	1.78
668.649	1.76
668.834	1.69
669.018	1.73
669.202	1.73
669.387	1.72
669.571	1.76
669.755	1.65
669.939	1.75
670.124	1.74
670.308	1.74
670.492	1.71
670.676	1.67
670.86	1.66
671.044	1.64
671.228	1.66
671.413	1.59
671.597	1.56
671.781	1.61
671.965	1.65
672.149	1.6
672.333	1.61
672.517	1.52
672.701	1.59
672.885	1.53
673.069	1.51
673.253	1.6
673.437	1.54
673.621	1.55
673.804	1.54
673.988	1.53
674.172	1.46
674.356	1.46
674.54	1.53
674.724	1.6
674.908	1.5
675.091	1.5
675.275	1.51
675.459	1.48
675.643	1.6
675.826	1.51
676.01	1.44
676.194	1.46
676.377	1.48
676.561	1.52
676.745	1.44
676.928	1.43
677.112	1.49
677.296	1.41
677.479	1.33
677.663	1.37
677.846	1.41
678.03	1.38
678.213	1.34
678.397	1.46
678.58	1.36
678.764	1.33
678.947	1.32
679.131	1.43
679.314	1.39
679.498	1.32
679.681	1.35
679.865	1.4
680.048	1.33
680.231	1.29
680.415	1.3
680.598	1.36
680.781	1.29
680.965	1.31
681.148	1.32
681.331	1.26
681.514	1.33
681.698	1.22
681.881	1.26
682.064	1.27
682.247	1.25
682.43	1.13
682.614	1.23
682.797	1.3
682.98	1.33
683.163	1.2
683.346	1.22
683.529	1.2
683.712	1.12
683.895	1.22
684.078	1.13
684.261	1.15
684.444	1.26
684.627	1.22
684.81	1.13
684.993	1.19
685.176	1.18
685.359	1.1
685.542	1.16
685.725	1.18
685.908	1.2
686.091	1.15
686.274	1.14
686.457	1.17
686.639	1.14
686.822	1.1
687.005	1.12
687.188	1.15
687.371	1.19
687.553	1.14
687.736	1.09
687.919	1.19
688.102	1.14
688.284	1.1
688.467	1.06
688.65	1.12
688.832	1.03
689.015	1.1
689.197	0.95
689.38	1.16
689.563	1.12
689.745	1.03
689.928	1
690.11	1.03
690.293	1.1
690.475	0.98
690.658	1
690.84	0.99
691.023	1.04
691.205	1.01
691.388	1.02
691.57	1.09
691.752	0.97
691.935	0.93
692.117	0.98
692.3	0.97
692.482	0.98
692.664	0.93
692.847	0.98
693.029	1.02
693.211	0.98
693.393	0.93
693.576	0.97
693.758	0.93
693.94	0.94
694.122	0.92
694.304	0.87
694.487	0.87
694.669	0.98
694.851	0.88
695.033	0.96
695.215	0.94
695.397	0.89
695.579	0.92
695.761	0.85
695.943	0.78
696.125	0.9
696.308	0.96
696.49	0.82
696.671	0.98
696.853	0.88
697.035	1.1
697.217	0.88
697.399	0.9
697.581	0.81
697.763	0.92
697.945	0.82
698.127	0.88
698.309	0.93
698.491	0.86
698.672	0.91
698.854	0.9
699.036	0.85
699.218	0.88
699.399	0.91
699.581	0.92
699.763	0.77
699.945	0.77
700.126	0.78
700.308	0.79
700.49	0.9
700.671	0.75
700.853	0.79
701.035	0.74
701.216	0.78
701.398	0.8
701.579	0.79
701.761	0.89
701.943	0.78
702.124	0.76
702.306	0.82
702.487	0.94
702.669	0.79
702.85	0.78
703.031	0.78
703.213	0.86
703.394	0.83
703.576	0.81
703.757	0.88
703.938	0.91
704.12	0.92
704.301	0.72
704.483	0.73
704.664	0.85
704.845	0.84
705.026	0.85
705.208	0.72
705.389	0.8
705.57	0.79
705.751	0.77
705.933	0.76
706.114	0.78
706.295	0.81
706.476	0.63
706.657	0.85
706.838	0.81
707.02	0.77
707.201	0.66
707.382	0.65
707.563	0.78
707.744	0.77
707.925	0.68
708.106	0.73
708.287	0.76
708.468	0.83
708.649	0.66
708.83	0.73
709.011	0.62
709.192	0.73
709.373	0.61
709.554	0.62
709.734	0.71
709.915	0.77
710.096	0.76
710.277	0.6
710.458	0.72
710.639	0.68
710.819	0.58
711	0.67
711.181	0.75
711.362	0.74
711.542	0.72
711.723	0.69
711.904	0.75
712.085	0.69
712.265	0.66
712.446	0.54
712.627	0.64
712.807	0.66
712.988	0.67
713.168	0.58
713.349	0.68
713.53	0.52
713.71	0.58
713.891	0.61
714.071	0.64
714.252	0.58
714.432	0.65
714.613	0.51
714.793	0.59
714.974	0.72
715.154	0.75
715.334	0.71
715.515	0.7
715.695	0.54
715.876	0.61
716.056	0.65
716.236	0.6
716.417	0.64
716.597	0.63
716.777	0.86
716.957	0.59
717.138	0.63
717.318	0.58
717.498	0.52
717.678	0.63
717.859	0.67
718.039	0.47
718.219	0.6
718.399	0.61
718.579	0.63
718.759	0.55
718.939	0.6
719.12	0.65
719.3	0.66
719.48	0.47
719.66	0.48
719.84	0.71
720.02	0.67
720.2	0.59
720.38	0.6
720.56	0.7
720.74	0.57
720.92	0.62
721.1	0.68
721.279	0.69
721.459	0.64
721.639	0.41
721.819	0.61
721.999	0.61
722.179	0.61
722.359	0.5
722.538	0.6
722.718	0.61
722.898	0.54
723.078	0.59
723.257	0.64
723.437	0.63
723.617	0.7
723.797	0.53
723.976	0.57
724.156	0.7
724.336	0.65
724.515	0.78
724.695	0.47
724.874	0.57
725.054	0.65
725.234	0.53
725.413	0.6
725.593	0.57
725.772	0.6
725.952	0.56
726.131	0.58
726.311	0.62
726.49	0.56
726.67	0.41
726.849	0.56
727.028	0.63
727.208	0.56
727.387	0.55
727.567	0.45
727.746	0.59
727.925	0.57
728.105	0.53
728.284	0.52
728.463	0.52
728.643	0.59
728.822	0.48
729.001	0.54
729.18	0.63
729.359	0.67
729.539	0.48
729.718	0.57
729.897	0.6
730.076	0.52
730.255	0.45
730.434	0.59
730.614	0.63
730.793	0.68
730.972	0.5
731.151	0.58
731.33	0.61
731.509	0.66
731.688	0.63
731.867	0.58
732.046	0.47
732.225	0.73
732.404	0.53
732.583	0.46
732.762	0.59
732.941	0.58
733.12	0.68
733.298	0.62
733.477	0.75
733.656	0.55
733.835	0.52
734.014	0.71
734.193	0.55
734.371	0.65
734.55	0.66
734.729	0.47
734.908	0.63
735.086	0.57
735.265	0.75
735.444	0.49
735.623	0.49
735.801	0.42
735.98	0.6
736.159	0.56
736.337	0.78
736.516	0.68
736.694	0.65
736.873	0.53
737.052	0.8
737.23	0.67
737.409	0.58
737.587	0.82
737.766	0.41
737.944	0.63
738.123	0.79
738.301	0.74
738.479	0.59
738.658	0.6
738.836	0.48
739.015	0.67
739.193	0.68
739.371	0.51
739.55	0.53
739.728	0.38
739.906	0.64
740.085	0.73
740.263	0.69
740.441	0.46
740.62	0.86
740.798	0.65
740.976	0.47
741.154	0.51
741.332	0.73
741.511	0.59
741.689	0.63
741.867	0.52
742.045	0.6
742.223	0.53
742.401	0.41
742.579	0.44
742.757	0.66
742.935	0.41
743.114	0.5
743.292	0.45
743.47	0.44
743.648	0.49
743.826	0.49
744.004	0.63
744.181	0.56
744.359	0.45
744.537	0.48
744.715	0.4
744.893	0.54
745.071	0.61
745.249	0.44
745.427	0.53
745.605	0.65
745.782	0.4
745.96	0.57
746.138	0.49
746.316	0.49
746.493	0.29
746.671	0.44
746.849	0.35
747.027	0.63
747.204	0.41
747.382	0.46
747.56	0.35
747.737	0.38
747.915	0.39
748.093	0.45
748.27	0.33
748.448	0.47
748.625	0.34
748.803	0.39
748.98	0.52
749.158	0.48
749.335	0.5
749.513	0.45
749.69	0.23
749.868	0.41
750.045	0.5
750.223	0.33
750.4	0.33
750.578	0.61
750.755	0.41
750.932	0.29
751.11	0.56
751.287	0.36
751.464	0.56
751.642	0.22
751.819	0.49
751.996	0.44
752.173	0.42
752.351	0.24
752.528	0.32
752.705	0.33
752.882	0.39
753.06	0.46
753.237	0.49
753.414	0.64
753.591	0.6
753.768	0.39
753.945	0.35
754.122	0.39
754.299	0.43
754.476	0.32
754.654	0.41
754.831	0.47
755.008	0.41
755.185	0.43
755.362	0.24
755.539	0.45
755.716	0.6
755.892	0.4
756.069	0.33
756.246	0.4
756.423	0.36
756.6	0.49
756.777	0.36
756.954	0.65
757.131	0.44
757.307	0.32
757.484	0.21
757.661	0.4
757.838	0.51
758.015	0.19
758.191	0.45
758.368	0.4
758.545	0.5
758.721	0.42
758.898	0.41
759.075	0.35
759.251	0.48
759.428	0.43
759.605	0.27
759.781	0.3
759.958	0.52
760.134	0.37
760.311	0.3
760.488	0.57
760.664	0.59
760.841	0.28
761.017	0.32
761.194	0.49
761.37	0.48
761.547	0.41
761.723	0.34
761.899	0.45
762.076	0.31
762.252	0.3
762.429	0.4
762.605	0.47
762.781	0.42
762.958	0.46
763.134	0.4
763.31	0.39
763.486	0.46
763.663	0.12
763.839	0.38
764.015	0.2
764.191	0.28
764.368	0.24
764.544	0.3
764.72	0.29
764.896	0.43
765.072	0.41
765.248	0.26
765.425	0.41
765.601	0.41
765.777	0.33
765.953	0.16
766.129	0.31
766.305	0.23
766.481	0.44
766.657	0.37
766.833	0.55
767.009	0.31
767.185	0.29
767.361	0.47
767.537	0.19
767.713	0.55
767.889	0.24
768.065	0.4
768.24	0.51
768.416	0.46
768.592	0.27
768.768	0.39
768.944	0.55
769.12	0.25
769.295	0.27
769.471	0.41
769.647	0.41
769.823	0.63
769.998	0.17
770.174	0.31
770.35	0.67
770.525	0.71
770.701	0.4
770.877	0.33
771.052	0.19
771.228	0.4
771.403	0.31
771.579	0.36
771.755	0.58
771.93	0.17
772.106	0.25
772.281	0.12
772.457	0.35
772.632	0.39
772.808	0.26
772.983	0.45
773.159	0.22
773.334	0.59
773.509	0.43
773.685	0.24
773.86	0.75
774.036	0.63
774.211	0.34
774.386	0.21
774.562	0.46
774.737	0.64
774.912	0.32
775.087	0.43
775.263	0.37
775.438	0.47
775.613	0.28
775.788	0.38
775.964	0.53
776.139	0.75
776.314	0.14
776.489	0.47
776.664	0.4
776.839	0.39
777.014	0.46
777.19	0.41
777.365	0.8
777.54	0.55
777.715	0.33
777.89	0.43
778.065	0.45
778.24	0.13
778.415	0.51
778.59	0.21
778.765	0.26
778.94	0.51
779.115	0.28
779.289	0.46
779.464	0.37
779.639	0.53
779.814	0.09
779.989	0.21
780.164	0.64
780.339	0.5
780.513	0.36
780.688	0.18
780.863	0.36
781.038	0.61
781.212	0.33
781.387	0.4
781.562	0.49
781.737	0.4
781.911	0.6
782.086	0.29
782.261	0.55
782.435	0.68
782.61	0.33
782.784	0.17
782.959	0.6
783.134	0.34
783.308	0.06
783.483	0.26
783.657	0.68
783.832	0.7
784.006	0.16
784.181	0.4
784.355	0.52
784.53	0.61
784.704	0.35
784.878	0.64
785.053	0.55
785.227	0.36
785.402	0.75
785.576	0.22
785.75	0.31
785.925	0.34
786.099	0.42
786.273	0.8
786.448	0.52
786.622	0.77
786.796	0.63
786.97	0.64
787.145	0.92
787.319	0.34
787.493	0.33
787.667	0.23
787.841	0.47
788.015	0.82
788.19	0.38
788.364	0.41
788.538	0.55
788.712	0.5
788.886	0.48
789.06	0.76
789.234	0.64
789.408	0.16
789.582	0.35
789.756	0.24
789.93	0.31
790.104	0.44
790.278	0.41
790.452	0.27
790.626	0.6
790.8	0.39
790.973	0.77
791.147	0.84
791.321	0.71
791.495	0.62
791.669	0.57
791.843	0.49
792.016	0.72
792.19	1.05
792.364	0.12
792.538	0.72
792.711	0.65
792.885	0.57
793.059	0.08
793.233	-0.07
793.406	0.74
793.58	0.47
793.754	0.47
793.927	0.6
794.101	0.58
794.274	0.79
794.448	0.95
794.622	0.26
794.795	0.78
794.969	0.31
795.142	0.91
795.316	0.26
795.489	0.36
795.663	0.85
795.836	0.57
796.009	0.26
796.183	0.77
796.356	0.45
796.53	0.55
796.703	0.43
796.876	0.97
797.05	0.35
797.223	0.5
797.396	0.42
797.57	0.57
797.743	0.71
797.916	0.45
798.09	0.65
798.263	0.85
798.436	0.64
798.609	0.53
798.782	0.37
798.956	0.66
799.129	0.58
799.302	0.48
799.475	0.35
799.648	0.26
799.821	0.28
799.994	0.68
800.167	0.2
800.34	0.38
800.514	0.61
800.687	0.56
800.86	0.4
801.033	0.41
801.206	0.71
801.379	0.42
801.551	0.75
801.724	0.7
801.897	1
802.07	0.41
802.243	-0.06
802.416	0.49
802.589	0.4
802.762	0.86
802.935	0.63
803.107	0.81
803.28	0.77
803.453	0.83
803.626	0.15
803.798	0.58
803.971	0.49
804.144	0.61
804.317	0.81
804.489	0.84
804.662	0.52
804.835	0.55
805.007	0.27
805.18	1.04
805.353	0.62
805.525	0.49
805.698	0.51
805.87	0.74
806.043	0.88
806.215	0.09
806.388	0.35
806.56	0.64
806.733	1.03
806.905	0.69
807.078	0.39
807.25	0.22
807.423	0.56
807.595	0.88
807.768	0.53
807.94	0.86
808.112	0.93
808.285	0.62
808.457	0.39
808.629	0.86
808.802	0.94
808.974	0.56
809.146	0.51
809.318	0.05
809.491	0.43
809.663	0.74
809.835	0.42
810.007	0.72
810.18	0.54
810.352	0.08
810.524	0.73
810.696	0.83
810.868	0.82
811.04	0.45
811.212	0.34
811.384	0.68
811.556	0.44
811.728	0.94
811.901	1.22
812.073	0.44
812.245	0.67
812.417	0.36
812.589	0.17
812.76	0.57
812.932	0.6
813.104	1.14
813.276	0.57
813.448	0.7
813.62	0.75
813.792	0.74
813.964	0.7
814.136	0.87
814.307	0.65
814.479	0.5
814.651	0.21
814.823	1.58
814.995	0.29
815.166	0.76
815.338	0.44
815.51	0.37
815.681	1.76
815.853	0.94
816.025	0.6
816.196	1.38
816.368	0.15
816.54	0.26
816.711	0.41
816.883	0.78
817.054	1.78
817.226	0.01
817.398	0.99
817.569	0.83
817.741	0.59
817.912	0.61
818.084	0.31
818.255	1.08
818.426	0.42
818.598	0.91
818.769	0.73
818.941	0.76
819.112	1.36
819.283	1.08
819.455	0.25
819.626	1.07
819.798	1.24
819.969	0.76
820.14	0.61
820.311	0.52
820.483	0.69
820.654	0.68
820.825	0.39
820.996	0.33
821.168	0.24
821.339	0.57
821.51	0.01
821.681	0.26
821.852	0.42
822.023	0.17
822.195	-0.34
822.366	1.34
822.537	0.72
822.708	0.68
822.879	0.57
823.05	0.65
823.221	0.58
823.392	0.96
823.563	0.64
823.734	0.42
823.905	0.86
824.076	0.57
824.247	0.52
824.418	0.48
824.589	1.54
824.759	0.59
824.93	1.17
825.101	0.32
825.272	1.35
825.443	1.79
825.614	1.33
825.784	0.49
825.955	2.12
826.126	1.12
826.297	1.07
826.467	1.88
826.638	1.46
826.809	0.59
826.98	0.44
827.15	0.6
827.321	0.57
827.492	1.61
827.662	0.67
827.833	1.48
828.003	0.73
828.174	0.54
828.345	0.46
828.515	1.64
828.686	0.45
828.856	0.75
829.027	0.91
829.197	0.61
829.368	1.04
829.538	0.35
829.709	0.42
829.879	1.2
830.049	0.86
830.22	0.41
830.39	1.09
830.56	1.54
830.731	0.93
830.901	0.27
831.072	0.69
831.242	2.16
831.412	1.44
831.582	0.86
831.753	0.3
831.923	1.48
832.093	1.58
832.263	0.52
832.434	0.6
832.604	1.08
832.774	0.67
832.944	0.7
833.114	0.28
833.284	1.07
833.454	0.19
833.624	0.58
833.795	0.78
833.965	1.63
834.135	1.35
834.305	-0.46
834.475	0.26
834.645	0.56
834.815	0.61
834.985	0.29
835.155	1.27
835.325	1.31
835.494	1.16
835.664	0.38
835.834	-0.5
836.004	0.92
836.174	1.21
836.344	0.45
836.514	0.29
836.684	0.25
836.853	0.95
837.023	0.62
837.193	0.62
837.363	1.93
837.532	1.18
837.702	0.88
837.872	0.63
838.041	1.25
838.211	2.01
838.381	0.21
838.55	1.47
838.72	2.95
838.89	2.25
839.059	0.87
839.229	0.3
839.398	2.8
839.568	1.12
839.738	0.98
839.907	2.38
840.077	2.16
840.246	0.56
840.416	0.45
840.585	0.55
840.755	0.86
840.924	1.78
841.093	-0.01
841.263	0.42
841.432	1.11
841.602	0.47
841.771	0.85
841.94	1.28
842.11	3.58
842.279	2.92
842.448	0.53
842.617	0.91
842.787	2.08
842.956	0.02
843.125	0.94
843.294	1.24
843.464	1.69
843.633	1.06
843.802	-0.22
843.971	0.71
844.14	1.72
844.309	1.54
844.479	0.37
844.648	0.94
844.817	0.71
844.986	1.52
845.155	1.05
845.324	0.42
845.493	1.64
845.662	1.55
845.831	1.25
846	1.52
846.169	1.13
846.338	2.73
846.507	1.87
846.676	1.47
846.844	0.33
847.013	1.51
847.182	1.28
847.351	0.13
847.52	1.21
847.689	1.61
847.858	1.03
848.026	0.49
848.195	0.46
848.364	1.13
848.533	0.99
848.701	0.88
848.87	0.89
849.039	1.5
849.207	1.62
849.376	2.27
849.545	2.15
849.713	0.81
849.882	1.35
850.051	1.22
850.219	1.27
850.388	2.74
850.556	0.62
850.725	0.18
850.893	1.8
851.062	1.17
851.23	0.8
851.399	0.93
851.567	1.19
851.736	1.04
851.904	0.58
852.073	1.04
852.241	2.32
852.41	1.5
852.578	1.64
852.746	-0.02
852.915	2.02
853.083	1.25
853.251	0.06
853.42	0.79
853.588	1.47
853.756	2.23
853.924	0.92
854.093	1.05
854.261	-0.08
854.429	-0.15
854.597	2.13
854.765	-0.3
854.934	1.74
855.102	2.04
855.27	1.6
855.438	2.86
855.606	1.47
855.774	2.35
855.942	-0.14
856.11	0.12
856.278	1.81
856.446	1.66
856.614	1.54
856.782	-0.37
856.95	1.97
857.118	2.39
857.286	1.98
857.454	1.13
857.622	2.06
857.79	2.88
857.958	0.54
858.126	1.43
858.294	0.92
858.462	2.49
858.629	0.52
858.797	0.24
858.965	1.61
859.133	1.3
859.301	1.84
859.468	2.67
859.636	0.45
859.804	3.31
859.971	2.82
860.139	-0.27
860.307	2.25
860.474	1.75
860.642	0.68
860.81	1.83
860.977	1.65
861.145	3.27
861.313	-0.04
861.48	1.6
861.648	3.6
861.815	2.44
861.983	0.97
862.15	1.45
862.318	1.96
862.485	2.34
862.653	0.07
862.82	-0.3
862.988	3.05
863.155	3.02
863.322	0.56
863.49	0.68
863.657	0.93
863.824	3.28
863.992	2.75
864.159	1.69
864.326	3.41
864.494	0.09
864.661	3.89
864.828	0.98
864.996	4.26
865.163	3.21
865.33	0.26
865.497	-0.41
865.664	2.05
865.832	-0.46
865.999	1.34
866.166	0.04
866.333	1.56
866.5	0.47
866.667	2.12
866.834	1.93
867.001	4.21
867.168	-0.28
867.335	2.16
867.502	0.64
867.669	3.25
867.836	5.02
868.003	1.52
868.17	4.28
868.337	1.61
868.504	4.7
868.671	-0.51
868.838	0.53
869.005	0.56
869.172	3.36
869.339	2.03
869.505	1.02
869.672	2.03
869.839	3.94
870.006	1.11
870.173	0.95
870.339	2.89
870.506	5.16
870.673	-1.34
870.84	3.23
871.006	1.58
871.173	2.19
871.34	2.28
871.506	0.28
871.673	3.21
871.839	-0.32
872.006	0.22
872.173	2.15
872.339	1.58
872.506	2.81
872.672	1.87
872.839	0.32
873.005	3.29
873.172	5.68
873.338	2.83
873.505	2.04
873.671	1.56
873.838	2.52
874.004	0.57
874.171	0.52
874.337	2.25
874.503	4.46
874.67	0.99
874.836	2.91
875.002	3.85
875.169	3.76
875.335	3.32
875.501	1.17
875.668	3.43
875.834	2.61
876	2.41
876.166	3.84
876.332	3.67
876.499	5.31
876.665	1.53
876.831	2.71
876.997	4.91
877.163	2.76
877.329	1.33
877.495	1.42
877.662	3.6
877.828	2.94
877.994	0.69
878.16	-0.25
878.326	0.99
878.492	0.84
878.658	2.51
878.824	2.44
878.99	2.46
879.156	1.72
879.322	4.12
879.487	3.32
879.653	1.37
879.819	3.4
879.985	1.07
880.151	2.27
880.317	4.46
880.483	2.06
880.648	2.92
880.814	0.64
880.98	2.6
881.146	-0.8
881.312	0.8
881.477	1.02
881.643	1.74
881.809	3.51
881.974	4.8
882.14	-0.63
882.306	2.81
882.471	5.74
882.637	1.98
882.803	3.96
882.968	5.3
883.134	5.38
883.299	0.29
883.465	0.91
883.63	4.26
883.796	2.58
883.961	4.08
884.127	3.79
884.292	-1.05
884.458	1.89
884.623	1.89
