Data from Apollo_Calib_20240827__AbsoluteIrradiance__42__23-51-01-776.txt Node

Date: Tue Aug 27 23:51:01 BST 2024
User: biology
Spectrometer: FLMT08252
Trigger mode: 0
Integration Time (sec): 5.000000E-1
Scans to average: 5
Electric dark correction enabled: true
Nonlinearity correction enabled: false
Boxcar width: 0
XAxis mode: Wavelengths
Number of Pixels in Spectrum: 3648
>>>>>Begin Spectral Data<<<<<
179.588	-0
179.809	-0
180.03	-0
180.251	-0
180.473	-0
180.694	0
180.915	0
181.136	-0
181.357	0
181.578	-0
181.799	-0
182.02	-0
182.241	-0
182.462	-0
182.683	0
182.904	-0
183.125	-0
183.346	0
183.567	0
183.788	0
184.009	0
184.23	0
184.451	0
184.672	0
184.892	0
185.113	0
185.334	0
185.555	0
185.776	0
185.996	0
186.217	0
186.438	0
186.659	0
186.879	0
187.1	0
187.321	0
187.541	0
187.762	0
187.983	0
188.203	0
188.424	0
188.644	0
188.865	0
189.086	0
189.306	0
189.527	0
189.747	0
189.968	0
190.188	0
190.409	0
190.629	0
190.849	0
191.07	0
191.29	0
191.511	0
191.731	0
191.951	0
192.172	0
192.392	0
192.612	0
192.833	0
193.053	0
193.273	0
193.493	0
193.714	0
193.934	0
194.154	0
194.374	0
194.594	0
194.815	0
195.035	0
195.255	0
195.475	0
195.695	0
195.915	0
196.135	0
196.355	0
196.575	0
196.795	0
197.015	0
197.235	0
197.455	0
197.675	0
197.895	0
198.115	0
198.335	0
198.555	0
198.775	0
198.995	0
199.214	0
199.434	0
199.654	0
199.874	0
200.094	3.6
200.313	2.6
200.533	1.94
200.753	1.6
200.973	3.34
201.192	2.83
201.412	1.78
201.632	2.36
201.851	3.25
202.071	1.99
202.291	2.09
202.51	1.05
202.73	2.39
202.95	1.88
203.169	1.56
203.389	1.73
203.608	2.05
203.828	1.88
204.047	1.4
204.267	2.46
204.486	2.11
204.706	2.29
204.925	1.68
205.145	1.61
205.364	2.56
205.583	2.49
205.803	1.5
206.022	1.34
206.242	1.77
206.461	1.83
206.68	0.94
206.9	1.56
207.119	2.12
207.338	1.95
207.557	1.14
207.777	1.5
207.996	1.18
208.215	1.85
208.434	1.14
208.654	1.01
208.873	1.55
209.092	1.77
209.311	1.18
209.53	1.11
209.749	1.11
209.968	1.32
210.187	1.18
210.407	0.72
210.626	1.17
210.845	1.5
211.064	1.2
211.283	0.91
211.502	1.35
211.721	1.14
211.94	1.19
212.159	1.29
212.377	1.53
212.596	1.49
212.815	1.33
213.034	1.18
213.253	1.13
213.472	1.25
213.691	0.77
213.91	0.71
214.128	0.95
214.347	1.35
214.566	0.69
214.785	0.46
215.003	1.26
215.222	0.85
215.441	1.03
215.66	0.58
215.878	0.83
216.097	1.15
216.316	0.59
216.534	0.84
216.753	0.98
216.972	0.81
217.19	0.82
217.409	0.93
217.627	0.6
217.846	0.83
218.064	0.93
218.283	0.84
218.501	1.27
218.72	1.01
218.938	0.56
219.157	0.66
219.375	1.11
219.594	1.01
219.812	0.74
220.031	0.58
220.249	1.25
220.467	1.34
220.686	0.85
220.904	0.56
221.122	0.57
221.341	1.03
221.559	0.86
221.777	0.51
221.995	0.79
222.214	0.97
222.432	0.64
222.65	0.96
222.868	0.87
223.086	0.81
223.305	0.89
223.523	0.68
223.741	0.9
223.959	0.64
224.177	0.44
224.395	0.7
224.613	0.77
224.831	0.85
225.049	0.59
225.267	0.64
225.485	0.74
225.703	0.63
225.921	0.76
226.139	0.62
226.357	0.92
226.575	0.73
226.793	0.51
227.011	1.41
227.229	0.56
227.447	0.84
227.665	0.64
227.883	0.51
228.1	0.74
228.318	0.75
228.536	0.33
228.754	0.57
228.972	0.74
229.189	0.7
229.407	0.58
229.625	0.61
229.843	0.76
230.06	0.67
230.278	0.41
230.496	0.61
230.713	0.69
230.931	0.74
231.149	0.51
231.366	0.37
231.584	0.56
231.801	0.84
232.019	0.51
232.236	0.4
232.454	0.58
232.671	0.59
232.889	0.55
233.106	0.43
233.324	0.63
233.541	0.55
233.759	0.54
233.976	0.48
234.194	0.58
234.411	0.56
234.628	0.53
234.846	0.49
235.063	0.51
235.28	0.54
235.498	0.52
235.715	0.39
235.932	0.65
236.149	0.53
236.367	0.37
236.584	0.66
236.801	0.57
237.018	0.57
237.236	0.52
237.453	0.35
237.67	0.55
237.887	0.53
238.104	0.44
238.321	0.42
238.538	0.43
238.755	0.61
238.973	0.35
239.19	0.5
239.407	0.55
239.624	0.48
239.841	0.47
240.058	0.38
240.275	0.66
240.492	0.48
240.709	0.47
240.925	0.4
241.142	0.5
241.359	0.36
241.576	0.4
241.793	0.33
242.01	0.46
242.227	0.55
242.444	0.54
242.66	0.57
242.877	0.5
243.094	0.45
243.311	0.4
243.527	0.43
243.744	0.45
243.961	0.53
244.178	0.36
244.394	0.42
244.611	0.68
244.828	0.69
245.044	0.37
245.261	0.44
245.477	0.42
245.694	0.55
245.911	0.37
246.127	0.47
246.344	0.55
246.56	0.53
246.777	0.44
246.993	0.41
247.21	0.44
247.426	0.41
247.643	0.32
247.859	0.35
248.076	0.33
248.292	0.73
248.508	0.37
248.725	0.42
248.941	0.49
249.157	0.52
249.374	0.4
249.59	0.39
249.806	0.41
250.023	0.43
250.239	0.32
250.455	0.31
250.671	0.44
250.888	0.42
251.104	0.53
251.32	0.35
251.536	0.4
251.752	0.45
251.969	0.35
252.185	0.46
252.401	0.57
252.617	0.43
252.833	0.36
253.049	0.45
253.265	0.4
253.481	0.41
253.697	0.36
253.913	0.32
254.129	0.46
254.345	0.42
254.561	0.36
254.777	0.33
254.993	0.44
255.209	0.48
255.425	0.39
255.641	0.3
255.857	0.47
256.073	0.4
256.288	0.31
256.504	0.32
256.72	0.41
256.936	0.59
257.152	0.34
257.367	0.36
257.583	0.46
257.799	0.38
258.015	0.25
258.23	0.37
258.446	0.61
258.662	0.44
258.877	0.29
259.093	0.29
259.309	0.37
259.524	0.42
259.74	0.33
259.955	0.25
260.171	0.36
260.387	0.35
260.602	0.42
260.818	0.39
261.033	0.26
261.249	0.42
261.464	0.29
261.68	0.24
261.895	0.46
262.11	0.38
262.326	0.36
262.541	0.24
262.757	0.44
262.972	0.43
263.187	0.39
263.403	0.38
263.618	0.42
263.833	0.37
264.049	0.29
264.264	0.35
264.479	0.46
264.694	0.5
264.91	0.27
265.125	0.31
265.34	0.35
265.555	0.6
265.77	0.38
265.986	0.32
266.201	0.37
266.416	0.44
266.631	0.31
266.846	0.35
267.061	0.43
267.276	0.46
267.491	0.18
267.706	0.42
267.921	0.42
268.136	0.4
268.351	0.39
268.566	0.25
268.781	0.43
268.996	0.41
269.211	0.38
269.426	0.35
269.641	0.31
269.856	0.38
270.071	0.32
270.285	0.25
270.5	0.42
270.715	0.4
270.93	0.36
271.145	0.35
271.359	0.43
271.574	0.35
271.789	0.34
272.004	0.34
272.218	0.36
272.433	0.42
272.648	0.3
272.862	0.39
273.077	0.3
273.292	0.36
273.506	0.28
273.721	0.32
273.936	0.44
274.15	0.37
274.365	0.3
274.579	0.4
274.794	0.35
275.008	0.46
275.223	0.23
275.437	0.31
275.652	0.5
275.866	0.31
276.081	0.3
276.295	0.48
276.509	0.34
276.724	0.36
276.938	0.31
277.153	0.38
277.367	0.38
277.581	0.28
277.796	0.27
278.01	0.26
278.224	0.35
278.438	0.42
278.653	0.23
278.867	0.28
279.081	0.38
279.295	0.29
279.51	0.3
279.724	0.23
279.938	0.36
280.152	0.31
280.366	0.23
280.58	0.3
280.794	0.44
281.008	0.32
281.222	0.34
281.437	0.44
281.651	0.34
281.865	0.4
282.079	0.26
282.293	0.23
282.507	0.24
282.721	0.27
282.935	0.34
283.148	0.25
283.362	0.27
283.576	0.24
283.79	0.35
284.004	0.28
284.218	0.37
284.432	0.25
284.646	0.32
284.859	0.24
285.073	0.23
285.287	0.31
285.501	0.28
285.714	0.31
285.928	0.27
286.142	0.32
286.356	0.23
286.569	0.29
286.783	0.33
286.997	0.37
287.21	0.3
287.424	0.29
287.637	0.25
287.851	0.33
288.065	0.36
288.278	0.3
288.492	0.3
288.705	0.3
288.919	0.33
289.132	0.22
289.346	0.3
289.559	0.17
289.773	0.25
289.986	0.29
290.2	0.28
290.413	0.3
290.626	0.28
290.84	0.23
291.053	0.3
291.267	0.34
291.48	0.3
291.693	0.26
291.906	0.24
292.12	0.26
292.333	0.25
292.546	0.28
292.76	0.34
292.973	0.32
293.186	0.28
293.399	0.25
293.612	0.3
293.826	0.26
294.039	0.25
294.252	0.24
294.465	0.33
294.678	0.33
294.891	0.28
295.104	0.21
295.317	0.28
295.53	0.3
295.743	0.25
295.956	0.29
296.169	0.37
296.382	0.29
296.595	0.2
296.808	0.22
297.021	0.3
297.234	0.31
297.447	0.3
297.66	0.27
297.873	0.35
298.086	0.29
298.299	0.23
298.511	0.2
298.724	0.26
298.937	0.21
299.15	0.2
299.363	0.25
299.575	0.31
299.788	0.2
300.001	0.24
300.213	0.2
300.426	0.29
300.639	0.22
300.852	0.23
301.064	0.31
301.277	0.32
301.489	0.26
301.702	0.28
301.915	0.3
302.127	0.27
302.34	0.26
302.552	0.31
302.765	0.2
302.977	0.26
303.19	0.23
303.402	0.23
303.615	0.26
303.827	0.25
304.04	0.21
304.252	0.29
304.464	0.23
304.677	0.4
304.889	0.25
305.102	0.22
305.314	0.21
305.526	0.29
305.739	0.27
305.951	0.27
306.163	0.22
306.375	0.33
306.588	0.25
306.8	0.22
307.012	0.17
307.224	0.29
307.436	0.29
307.649	0.16
307.861	0.25
308.073	0.32
308.285	0.24
308.497	0.21
308.709	0.2
308.921	0.26
309.133	0.31
309.346	0.25
309.558	0.26
309.77	0.28
309.982	0.34
310.194	0.29
310.406	0.23
310.617	0.35
310.829	0.3
311.041	0.25
311.253	0.26
311.465	0.26
311.677	0.27
311.889	0.24
312.101	0.19
312.313	0.25
312.524	0.33
312.736	0.17
312.948	0.24
313.16	0.35
313.372	0.26
313.583	0.23
313.795	0.27
314.007	0.24
314.218	0.28
314.43	0.29
314.642	0.2
314.853	0.22
315.065	0.34
315.277	0.24
315.488	0.27
315.7	0.29
315.912	0.3
316.123	0.26
316.335	0.27
316.546	0.33
316.758	0.26
316.969	0.2
317.181	0.23
317.392	0.25
317.604	0.37
317.815	0.25
318.026	0.22
318.238	0.21
318.449	0.26
318.661	0.22
318.872	0.2
319.083	0.19
319.295	0.31
319.506	0.23
319.717	0.26
319.929	0.32
320.14	0.28
320.351	0.28
320.562	0.22
320.774	0.26
320.985	0.22
321.196	0.2
321.407	0.2
321.618	0.27
321.829	0.28
322.041	0.29
322.252	0.22
322.463	0.24
322.674	0.25
322.885	0.2
323.096	0.22
323.307	0.24
323.518	0.26
323.729	0.27
323.94	0.26
324.151	0.22
324.362	0.29
324.573	0.25
324.784	0.26
324.995	0.3
325.206	0.27
325.417	0.23
325.628	0.23
325.838	0.24
326.049	0.29
326.26	0.27
326.471	0.23
326.682	0.27
326.892	0.22
327.103	0.23
327.314	0.24
327.525	0.31
327.735	0.22
327.946	0.22
328.157	0.26
328.368	0.31
328.578	0.27
328.789	0.34
328.999	0.28
329.21	0.23
329.421	0.35
329.631	0.22
329.842	0.21
330.052	0.26
330.263	0.29
330.473	0.27
330.684	0.24
330.894	0.22
331.105	0.26
331.315	0.25
331.526	0.22
331.736	0.33
331.947	0.27
332.157	0.26
332.367	0.2
332.578	0.26
332.788	0.31
332.999	0.31
333.209	0.24
333.419	0.2
333.629	0.27
333.84	0.25
334.05	0.27
334.26	0.37
334.47	0.3
334.681	0.26
334.891	0.22
335.101	0.28
335.311	0.35
335.521	0.24
335.732	0.22
335.942	0.31
336.152	0.29
336.362	0.24
336.572	0.23
336.782	0.28
336.992	0.24
337.202	0.23
337.412	0.21
337.622	0.27
337.832	0.26
338.042	0.23
338.252	0.23
338.462	0.3
338.672	0.27
338.882	0.23
339.092	0.24
339.302	0.36
339.511	0.25
339.721	0.26
339.931	0.18
340.141	0.29
340.351	0.35
340.561	0.28
340.77	0.25
340.98	0.25
341.19	0.25
341.4	0.19
341.609	0.16
341.819	0.23
342.029	0.19
342.238	0.27
342.448	0.23
342.658	0.28
342.867	0.23
343.077	0.24
343.286	0.26
343.496	0.26
343.706	0.34
343.915	0.19
344.125	0.23
344.334	0.21
344.544	0.2
344.753	0.26
344.963	0.23
345.172	0.2
345.381	0.23
345.591	0.24
345.8	0.28
346.01	0.3
346.219	0.3
346.428	0.12
346.638	0.25
346.847	0.26
347.056	0.33
347.266	0.24
347.475	0.25
347.684	0.32
347.893	0.25
348.103	0.26
348.312	0.22
348.521	0.23
348.73	0.25
348.94	0.25
349.149	0.25
349.358	0.29
349.567	0.2
349.776	0.2
349.985	0.23
350.194	0.31
350.403	0.3
350.612	0.18
350.821	0.25
351.03	0.23
351.239	0.2
351.448	0.26
351.657	0.22
351.866	0.29
352.075	0.25
352.284	0.3
352.493	0.15
352.702	0.28
352.911	0.29
353.12	0.22
353.329	0.24
353.538	0.26
353.746	0.24
353.955	0.22
354.164	0.25
354.373	0.27
354.582	0.28
354.79	0.28
354.999	0.29
355.208	0.28
355.416	0.31
355.625	0.22
355.834	0.23
356.042	0.26
356.251	0.24
356.46	0.22
356.668	0.27
356.877	0.36
357.085	0.26
357.294	0.16
357.503	0.3
357.711	0.22
357.92	0.34
358.128	0.26
358.337	0.18
358.545	0.24
358.754	0.22
358.962	0.32
359.17	0.24
359.379	0.27
359.587	0.26
359.796	0.21
360.004	0.28
360.212	0.27
360.421	0.31
360.629	0.24
360.837	0.23
361.046	0.32
361.254	0.36
361.462	0.27
361.67	0.2
361.879	0.26
362.087	0.3
362.295	0.24
362.503	0.26
362.711	0.18
362.92	0.24
363.128	0.22
363.336	0.17
363.544	0.18
363.752	0.28
363.96	0.22
364.168	0.21
364.376	0.23
364.584	0.25
364.792	0.29
365	0.24
365.208	0.27
365.416	0.27
365.624	0.29
365.832	0.22
366.04	0.26
366.248	0.26
366.456	0.26
366.664	0.24
366.872	0.23
367.079	0.24
367.287	0.25
367.495	0.27
367.703	0.23
367.911	0.21
368.118	0.2
368.326	0.21
368.534	0.19
368.742	0.29
368.949	0.17
369.157	0.23
369.365	0.25
369.572	0.24
369.78	0.21
369.988	0.27
370.195	0.27
370.403	0.26
370.61	0.26
370.818	0.24
371.026	0.33
371.233	0.2
371.441	0.26
371.648	0.19
371.856	0.27
372.063	0.26
372.271	0.22
372.478	0.25
372.685	0.24
372.893	0.33
373.1	0.26
373.308	0.23
373.515	0.35
373.722	0.26
373.93	0.2
374.137	0.27
374.344	0.32
374.552	0.26
374.759	0.24
374.966	0.26
375.173	0.22
375.381	0.31
375.588	0.26
375.795	0.15
376.002	0.23
376.209	0.24
376.417	0.25
376.624	0.27
376.831	0.27
377.038	0.27
377.245	0.21
377.452	0.26
377.659	0.31
377.866	0.25
378.073	0.19
378.28	0.24
378.487	0.3
378.694	0.27
378.901	0.26
379.108	0.21
379.315	0.27
379.522	0.31
379.729	0.26
379.936	0.27
380.143	0.29
380.35	0.28
380.557	0.27
380.763	0.24
380.97	0.27
381.177	0.25
381.384	0.24
381.591	0.21
381.797	0.28
382.004	0.33
382.211	0.27
382.418	0.28
382.624	0.28
382.831	0.28
383.038	0.24
383.244	0.29
383.451	0.28
383.658	0.27
383.864	0.28
384.071	0.21
384.277	0.32
384.484	0.24
384.69	0.35
384.897	0.24
385.103	0.23
385.31	0.26
385.516	0.25
385.723	0.25
385.929	0.29
386.136	0.21
386.342	0.24
386.549	0.23
386.755	0.32
386.961	0.34
387.168	0.27
387.374	0.22
387.58	0.32
387.787	0.3
387.993	0.29
388.199	0.29
388.406	0.23
388.612	0.28
388.818	0.23
389.024	0.26
389.231	0.3
389.437	0.36
389.643	0.32
389.849	0.26
390.055	0.35
390.261	0.29
390.467	0.34
390.674	0.28
390.88	0.33
391.086	0.31
391.292	0.27
391.498	0.25
391.704	0.31
391.91	0.25
392.116	0.3
392.322	0.2
392.528	0.34
392.734	0.29
392.94	0.3
393.146	0.31
393.352	0.31
393.557	0.29
393.763	0.29
393.969	0.34
394.175	0.31
394.381	0.31
394.587	0.27
394.792	0.29
394.998	0.36
395.204	0.33
395.41	0.29
395.615	0.36
395.821	0.32
396.027	0.3
396.233	0.28
396.438	0.35
396.644	0.39
396.85	0.34
397.055	0.37
397.261	0.34
397.466	0.38
397.672	0.35
397.878	0.36
398.083	0.33
398.289	0.31
398.494	0.44
398.7	0.37
398.905	0.28
399.111	0.43
399.316	0.29
399.522	0.36
399.727	0.37
399.932	0.34
400.138	0.35
400.343	0.39
400.549	0.35
400.754	0.37
400.959	0.37
401.165	0.35
401.37	0.34
401.575	0.42
401.78	0.38
401.986	0.35
402.191	0.34
402.396	0.38
402.601	0.41
402.807	0.45
403.012	0.35
403.217	0.43
403.422	0.39
403.627	0.44
403.832	0.37
404.037	0.45
404.243	0.44
404.448	0.4
404.653	0.44
404.858	0.45
405.063	0.43
405.268	0.43
405.473	0.43
405.678	0.42
405.883	0.62
406.088	0.52
406.293	0.44
406.498	0.42
406.703	0.52
406.907	0.49
407.112	0.45
407.317	0.48
407.522	0.54
407.727	0.46
407.932	0.51
408.136	0.65
408.341	0.56
408.546	0.6
408.751	0.54
408.956	0.55
409.16	0.65
409.365	0.6
409.57	0.59
409.774	0.65
409.979	0.65
410.184	0.68
410.388	0.68
410.593	0.78
410.798	0.74
411.002	0.72
411.207	0.81
411.411	0.8
411.616	0.82
411.82	0.8
412.025	0.88
412.229	0.83
412.434	0.98
412.638	0.92
412.843	0.9
413.047	0.98
413.252	0.92
413.456	1.04
413.66	1.04
413.865	1.03
414.069	1.14
414.273	1.11
414.478	1.09
414.682	1.19
414.886	1.18
415.091	1.23
415.295	1.24
415.499	1.39
415.703	1.34
415.908	1.45
416.112	1.41
416.316	1.57
416.52	1.53
416.724	1.53
416.929	1.64
417.133	1.87
417.337	1.72
417.541	1.81
417.745	1.88
417.949	1.94
418.153	2.03
418.357	2.06
418.561	2.23
418.765	2.21
418.969	2.37
419.173	2.43
419.377	2.43
419.581	2.66
419.785	2.63
419.989	2.72
420.193	2.77
420.397	2.85
420.601	3
420.804	3.14
421.008	3.14
421.212	3.3
421.416	3.24
421.62	3.3
421.823	3.46
422.027	3.51
422.231	3.53
422.435	3.55
422.638	3.63
422.842	3.71
423.046	3.78
423.249	3.95
423.453	4.01
423.657	4.14
423.86	4.32
424.064	4.4
424.268	4.57
424.471	4.55
424.675	4.76
424.878	4.8
425.082	4.86
425.285	5.14
425.489	5.12
425.692	5.28
425.896	5.27
426.099	5.5
426.303	5.65
426.506	5.79
426.71	6
426.913	6.27
427.116	6.4
427.32	6.34
427.523	6.44
427.726	6.76
427.93	6.88
428.133	7.14
428.336	7.23
428.54	7.37
428.743	7.69
428.946	8.01
429.149	7.98
429.353	7.89
429.556	8.06
429.759	8.08
429.962	8.15
430.165	8.35
430.368	8.04
430.571	8.11
430.775	8.07
430.978	8.16
431.181	8.15
431.384	8.22
431.587	8.4
431.79	8.7
431.993	8.77
432.196	8.94
432.399	9.4
432.602	9.55
432.805	9.58
433.008	10.03
433.211	10
433.414	10.28
433.616	10.33
433.819	10.44
434.022	10.56
434.225	10.67
434.428	10.71
434.631	11.04
434.833	10.86
435.036	11.14
435.239	11.36
435.442	11.41
435.645	11.55
435.847	11.74
436.05	12.02
436.253	12.17
436.455	12.35
436.658	12.29
436.861	12.48
437.063	12.56
437.266	12.51
437.468	12.75
437.671	13.09
437.874	13.23
438.076	13.05
438.279	13.47
438.481	13.4
438.684	14.33
438.886	13.96
439.089	14.25
439.291	14.15
439.494	14.6
439.696	14.66
439.899	15.23
440.101	15.62
440.303	15.92
440.506	16.7
440.708	16.44
440.91	16.56
441.113	16.74
441.315	17.01
441.517	16.81
441.72	17.26
441.922	17.11
442.124	16.97
442.326	17.21
442.529	17.52
442.731	17.45
442.933	17.84
443.135	17.59
443.337	17.61
443.539	18.05
443.742	17.81
443.944	18.49
444.146	18.13
444.348	18.13
444.55	18.05
444.752	18.19
444.954	18.29
445.156	18.12
445.358	18.65
445.56	18.7
445.762	18.62
445.964	18.85
446.166	18.69
446.368	18.8
446.57	18.6
446.772	18.43
446.974	18.1
447.175	18.26
447.377	17.93
447.579	18.43
447.781	18.1
447.983	17.79
448.184	17.4
448.386	17.84
448.588	17.52
448.79	17.24
448.991	17.62
449.193	17.56
449.395	16.88
449.597	16.51
449.798	16.42
450	15.94
450.202	15.98
450.403	15.91
450.605	15.83
450.806	15.47
451.008	15.25
451.21	15.04
451.411	14.55
451.613	13.94
451.814	14.12
452.016	14.02
452.217	13.39
452.419	13.39
452.62	12.93
452.821	12.75
453.023	12.68
453.224	12.34
453.426	11.83
453.627	11.13
453.828	11.18
454.03	11.29
454.231	11.34
454.432	11.08
454.634	10.74
454.835	10.61
455.036	10.46
455.238	10.1
455.439	9.69
455.64	9.49
455.841	9.33
456.042	9.51
456.244	9.13
456.445	8.87
456.646	8.54
456.847	8.52
457.048	8.38
457.249	8.46
457.45	8.26
457.651	7.63
457.852	7.53
458.054	7.2
458.255	7.31
458.456	7.31
458.657	7.12
458.858	6.68
459.058	6.72
459.259	6.76
459.46	6.48
459.661	6.38
459.862	6.42
460.063	6.32
460.264	6.24
460.465	6
460.666	6.06
460.866	5.78
461.067	5.53
461.268	5.56
461.469	5.53
461.67	5.33
461.87	5.23
462.071	5.24
462.272	5.16
462.473	5.04
462.673	5.32
462.874	5.12
463.075	5.12
463.275	5.19
463.476	5.14
463.676	5.11
463.877	4.89
464.078	4.92
464.278	4.88
464.479	4.82
464.679	4.85
464.88	4.66
465.08	4.62
465.281	4.47
465.481	4.28
465.682	4.13
465.882	4.18
466.083	4.16
466.283	3.98
466.483	3.89
466.684	3.69
466.884	3.62
467.085	3.59
467.285	3.8
467.485	3.63
467.686	3.5
467.886	3.43
468.086	3.4
468.286	3.29
468.487	3.43
468.687	3.32
468.887	3.17
469.087	3.31
469.287	3.24
469.488	3.05
469.688	3.18
469.888	3.2
470.088	3.15
470.288	3.03
470.488	3
470.688	2.87
470.888	2.82
471.088	2.67
471.288	2.78
471.488	2.78
471.688	2.73
471.888	2.64
472.088	2.78
472.288	2.66
472.488	2.54
472.688	2.54
472.888	2.57
473.088	2.53
473.288	2.41
473.488	2.38
473.688	2.6
473.887	2.5
474.087	2.4
474.287	2.41
474.487	2.33
474.687	2.41
474.886	2.34
475.086	2.28
475.286	2.34
475.486	2.24
475.685	2.27
475.885	2.18
476.085	2.28
476.284	2.28
476.484	2.25
476.684	2.19
476.883	2.24
477.083	2.17
477.282	2.13
477.482	2.17
477.681	2.11
477.881	2.01
478.08	2.06
478.28	2.02
478.479	2.11
478.679	2.09
478.878	2.04
479.078	2.02
479.277	2.09
479.477	2.05
479.676	2.01
479.875	2.02
480.075	1.96
480.274	2.08
480.473	2.06
480.673	1.99
480.872	2.04
481.071	2.02
481.271	2.06
481.47	1.98
481.669	1.98
481.868	1.94
482.067	2.02
482.267	1.91
482.466	1.95
482.665	1.9
482.864	1.97
483.063	1.97
483.262	2.06
483.461	2.01
483.661	2.05
483.86	1.98
484.059	2.01
484.258	2
484.457	2.04
484.656	2.02
484.855	2.07
485.054	1.9
485.253	2
485.452	1.96
485.651	2.05
485.849	2
486.048	2
486.247	2.05
486.446	2
486.645	2
486.844	2.03
487.043	2.04
487.241	2.05
487.44	2.09
487.639	2.14
487.838	2.1
488.037	2.1
488.235	2.16
488.434	2.15
488.633	2.05
488.831	2.25
489.03	2.19
489.229	2.2
489.427	2.19
489.626	2.24
489.825	2.26
490.023	2.25
490.222	2.28
490.42	2.3
490.619	2.36
490.817	2.32
491.016	2.35
491.214	2.41
491.413	2.42
491.611	2.36
491.81	2.38
492.008	2.45
492.207	2.54
492.405	2.48
492.604	2.43
492.802	2.52
493	2.62
493.199	2.61
493.397	2.6
493.595	2.64
493.794	2.66
493.992	2.73
494.19	2.76
494.388	2.76
494.587	2.7
494.785	2.79
494.983	2.7
495.181	2.84
495.379	2.91
495.578	2.99
495.776	2.97
495.974	2.93
496.172	2.96
496.37	3.11
496.568	3.08
496.766	3.08
496.964	3.15
497.162	3.19
497.36	3.19
497.558	3.23
497.756	3.3
497.954	3.27
498.152	3.32
498.35	3.42
498.548	3.34
498.746	3.39
498.944	3.39
499.142	3.4
499.34	3.52
499.538	3.67
499.736	3.49
499.933	3.62
500.131	3.6
500.329	3.75
500.527	3.76
500.725	3.83
500.922	3.86
501.12	3.86
501.318	3.93
501.516	3.93
501.713	3.97
501.911	4
502.109	3.94
502.306	4.09
502.504	4.01
502.701	4.06
502.899	4.19
503.097	4.33
503.294	4.18
503.492	4.33
503.689	4.35
503.887	4.36
504.084	4.43
504.282	4.43
504.479	4.36
504.677	4.52
504.874	4.55
505.072	4.38
505.269	4.68
505.466	4.68
505.664	4.72
505.861	4.69
506.059	4.8
506.256	4.76
506.453	4.83
506.651	4.92
506.848	5.01
507.045	4.94
507.242	4.97
507.44	5.02
507.637	5.11
507.834	5.08
508.031	5.22
508.229	5.13
508.426	5.12
508.623	5.28
508.82	5.3
509.017	5.25
509.214	5.3
509.411	5.4
509.608	5.3
509.805	5.47
510.003	5.49
510.2	5.51
510.397	5.63
510.594	5.52
510.791	5.58
510.988	5.63
511.184	5.66
511.381	5.53
511.578	5.71
511.775	5.8
511.972	5.7
512.169	5.81
512.366	5.85
512.563	5.91
512.76	5.92
512.956	6.01
513.153	6
513.35	5.96
513.547	5.94
513.744	6.06
513.94	6.02
514.137	6.16
514.334	6.12
514.53	6.19
514.727	6.39
514.924	6.25
515.12	6.23
515.317	6.29
515.514	6.29
515.71	6.17
515.907	6.38
516.103	6.39
516.3	6.35
516.497	6.47
516.693	6.44
516.89	6.51
517.086	6.5
517.283	6.56
517.479	6.41
517.676	6.6
517.872	6.6
518.068	6.61
518.265	6.66
518.461	6.6
518.658	6.67
518.854	6.71
519.05	6.82
519.247	6.74
519.443	6.76
519.639	6.95
519.836	6.83
520.032	6.7
520.228	6.91
520.424	6.84
520.621	6.9
520.817	6.98
521.013	6.85
521.209	7.05
521.405	7.07
521.601	7
521.798	6.99
521.994	7.01
522.19	6.94
522.386	7.01
522.582	7.13
522.778	7.25
522.974	7.14
523.17	7.09
523.366	7.1
523.562	7.13
523.758	7.18
523.954	7.05
524.15	7.23
524.346	7.26
524.542	7.26
524.738	7.19
524.934	7.37
525.129	7.35
525.325	7.23
525.521	7.23
525.717	7.48
525.913	7.32
526.109	7.32
526.304	7.44
526.5	7.44
526.696	7.48
526.892	7.39
527.087	7.56
527.283	7.51
527.479	7.54
527.674	7.32
527.87	7.51
528.066	7.51
528.261	7.54
528.457	7.41
528.653	7.63
528.848	7.6
529.044	7.67
529.239	7.51
529.435	7.59
529.63	7.52
529.826	7.52
530.021	7.53
530.217	7.6
530.412	7.55
530.608	7.59
530.803	7.59
530.999	7.53
531.194	7.63
531.389	7.69
531.585	7.73
531.78	7.8
531.975	7.69
532.171	7.7
532.366	7.7
532.561	7.75
532.757	7.71
532.952	7.82
533.147	7.67
533.342	7.82
533.538	7.72
533.733	7.92
533.928	7.59
534.123	7.76
534.318	7.81
534.513	7.67
534.709	7.85
534.904	7.81
535.099	7.85
535.294	7.91
535.489	7.92
535.684	7.8
535.879	7.8
536.074	7.91
536.269	7.94
536.464	7.93
536.659	7.79
536.854	7.87
537.049	7.95
537.244	7.84
537.439	7.89
537.634	7.92
537.828	7.94
538.023	7.93
538.218	7.93
538.413	7.79
538.608	7.95
538.803	7.9
538.997	7.96
539.192	7.93
539.387	7.92
539.582	7.91
539.776	7.83
539.971	7.98
540.166	8.01
540.36	7.95
540.555	8.16
540.75	7.94
540.944	7.99
541.139	8
541.334	7.99
541.528	8.04
541.723	8.08
541.917	8.08
542.112	7.9
542.306	7.89
542.501	7.93
542.695	7.98
542.89	7.9
543.084	7.97
543.279	8.06
543.473	8.11
543.668	8.08
543.862	7.92
544.056	7.92
544.251	8.02
544.445	8.11
544.64	8.17
544.834	7.81
545.028	7.72
545.222	8
545.417	8.26
545.611	8.14
545.805	8.08
546	7.84
546.194	8.05
546.388	8.1
546.582	7.95
546.776	8.03
546.97	8.03
547.165	8.02
547.359	8.03
547.553	7.94
547.747	7.98
547.941	8.19
548.135	8.03
548.329	8.08
548.523	8.08
548.717	8.02
548.911	7.96
549.105	8.02
549.299	8.1
549.493	8.09
549.687	8.03
549.881	8.13
550.075	8.1
550.269	7.97
550.463	8.08
550.657	8.06
550.85	8.06
551.044	8.01
551.238	8.07
551.432	8.08
551.626	8.09
551.82	8.1
552.013	7.99
552.207	8.22
552.401	8.17
552.594	8.11
552.788	8.05
552.982	8.1
553.176	8.04
553.369	8.2
553.563	8.14
553.756	8.07
553.95	8.12
554.144	8.04
554.337	8.13
554.531	7.94
554.724	8.18
554.918	8.19
555.111	8.02
555.305	8.08
555.498	8.03
555.692	8.12
555.885	8.21
556.079	8.09
556.272	8.08
556.466	8.08
556.659	8.04
556.852	8.14
557.046	8
557.239	8.02
557.432	8.05
557.626	8.11
557.819	8.13
558.012	8.14
558.206	8.17
558.399	8.11
558.592	8.1
558.785	8.03
558.979	8.05
559.172	8.12
559.365	8.05
559.558	8.03
559.751	8.03
559.944	8.15
560.138	8.07
560.331	8.08
560.524	8.16
560.717	8.03
560.91	8.09
561.103	8.14
561.296	7.93
561.489	8.14
561.682	8.17
561.875	8.16
562.068	8.14
562.261	7.99
562.454	8.26
562.647	8.04
562.84	8.16
563.032	8.16
563.225	8.05
563.418	8.06
563.611	8.19
563.804	8.11
563.997	7.99
564.19	7.93
564.382	8.24
564.575	8.09
564.768	8.05
564.961	8.15
565.153	7.98
565.346	8.01
565.539	8.22
565.731	8.08
565.924	8.16
566.117	8.2
566.309	8.13
566.502	8.1
566.695	8.1
566.887	8.06
567.08	8.06
567.272	8.12
567.465	8.04
567.657	8.05
567.85	8
568.042	8.09
568.235	8.08
568.427	7.91
568.62	7.97
568.812	7.98
569.005	8.12
569.197	7.97
569.389	8.07
569.582	8.09
569.774	8.05
569.966	7.95
570.159	7.92
570.351	7.98
570.543	8.02
570.736	8.03
570.928	7.86
571.12	8.02
571.312	7.95
571.505	7.82
571.697	7.98
571.889	8
572.081	7.99
572.273	7.97
572.465	8.02
572.658	7.98
572.85	8.02
573.042	7.98
573.234	7.9
573.426	7.95
573.618	7.95
573.81	8.01
574.002	7.91
574.194	7.93
574.386	7.95
574.578	7.78
574.77	7.93
574.962	7.95
575.154	7.84
575.346	7.83
575.538	7.85
575.729	7.79
575.921	7.95
576.113	7.91
576.305	7.93
576.497	7.93
576.689	7.77
576.88	7.76
577.072	7.94
577.264	7.85
577.456	7.84
577.647	7.76
577.839	8.03
578.031	7.81
578.223	7.83
578.414	7.7
578.606	7.79
578.798	7.88
578.989	7.82
579.181	7.87
579.372	7.83
579.564	7.84
579.755	7.77
579.947	7.66
580.139	7.84
580.33	7.69
580.522	7.75
580.713	7.75
580.905	7.75
581.096	7.82
581.287	7.67
581.479	7.72
581.67	7.75
581.862	7.67
582.053	7.75
582.244	7.54
582.436	7.83
582.627	7.66
582.818	7.64
583.01	7.63
583.201	7.67
583.392	7.59
583.583	7.59
583.775	7.5
583.966	7.6
584.157	7.66
584.348	7.7
584.54	7.54
584.731	7.6
584.922	7.61
585.113	7.44
585.304	7.56
585.495	7.54
585.686	7.69
585.877	7.6
586.068	7.64
586.259	7.52
586.45	7.51
586.641	7.48
586.832	7.59
587.023	7.47
587.214	7.42
587.405	7.58
587.596	7.43
587.787	7.36
587.978	7.45
588.169	7.42
588.36	7.36
588.551	7.46
588.742	7.47
588.932	7.44
589.123	7.26
589.314	7.45
589.505	7.36
589.696	7.36
589.886	7.3
590.077	7.4
590.268	7.28
590.458	7.26
590.649	7.15
590.84	7.32
591.03	7.31
591.221	7.25
591.412	7.14
591.602	7.31
591.793	7.21
591.984	7.27
592.174	7.24
592.365	7.31
592.555	7.13
592.746	7.09
592.936	7.18
593.127	7.19
593.317	7.21
593.508	7.17
593.698	7.1
593.889	7.13
594.079	7.05
594.269	7.03
594.46	7.07
594.65	7.03
594.84	7.07
595.031	6.98
595.221	7.03
595.411	6.97
595.602	7.05
595.792	6.88
595.982	6.91
596.172	6.99
596.363	6.94
596.553	6.91
596.743	6.98
596.933	6.89
597.123	6.9
597.314	6.73
597.504	6.76
597.694	6.9
597.884	6.79
598.074	6.86
598.264	6.86
598.454	6.8
598.644	6.73
598.834	6.76
599.024	6.75
599.214	6.75
599.404	6.77
599.594	6.7
599.784	6.67
599.974	6.73
600.164	6.7
600.354	6.63
600.544	6.58
600.734	6.66
600.924	6.6
601.114	6.55
601.303	6.5
601.493	6.66
601.683	6.6
601.873	6.51
602.063	6.5
602.252	6.53
602.442	6.38
602.632	6.44
602.821	6.41
603.011	6.47
603.201	6.46
603.39	6.37
603.58	6.3
603.77	6.38
603.959	6.42
604.149	6.36
604.339	6.31
604.528	6.39
604.718	6.32
604.907	6.3
605.097	6.22
605.286	6.25
605.476	6.21
605.665	6.34
605.855	6.21
606.044	6.27
606.234	6.24
606.423	6.27
606.612	6.14
606.802	6.12
606.991	6.22
607.181	6.17
607.37	6.13
607.559	5.94
607.749	6.14
607.938	6
608.127	6.01
608.316	6.01
608.506	6.01
608.695	6.07
608.884	6.01
609.073	6.02
609.263	6.01
609.452	6.01
609.641	5.91
609.83	5.88
610.019	5.99
610.208	5.89
610.397	5.88
610.586	5.86
610.775	5.8
610.965	5.83
611.154	5.64
611.343	5.75
611.532	5.68
611.721	5.79
611.91	5.74
612.099	5.65
612.287	5.63
612.476	5.62
612.665	5.75
612.854	5.57
613.043	5.63
613.232	5.65
613.421	5.55
613.61	5.59
613.798	5.59
613.987	5.56
614.176	5.49
614.365	5.53
614.554	5.55
614.742	5.59
614.931	5.37
615.12	5.53
615.309	5.43
615.497	5.36
615.686	5.32
615.875	5.31
616.063	5.36
616.252	5.3
616.44	5.37
616.629	5.3
616.818	5.31
617.006	5.29
617.195	5.25
617.383	5.23
617.572	5.13
617.76	5.17
617.949	5.28
618.137	5.29
618.326	5.2
618.514	5.02
618.703	5.01
618.891	5.17
619.079	5.06
619.268	5.2
619.456	5.05
619.644	5.14
619.833	4.99
620.021	5.06
620.209	4.87
620.398	5.03
620.586	4.95
620.774	4.98
620.962	4.96
621.151	5
621.339	4.93
621.527	4.8
621.715	4.82
621.903	4.82
622.092	4.75
622.28	4.95
622.468	4.68
622.656	4.81
622.844	4.78
623.032	4.83
623.22	4.67
623.408	4.76
623.596	4.76
623.784	4.76
623.972	4.58
624.16	4.69
624.348	4.68
624.536	4.71
624.724	4.55
624.912	4.63
625.1	4.64
625.288	4.61
625.476	4.48
625.664	4.6
625.851	4.54
626.039	4.58
626.227	4.52
626.415	4.55
626.603	4.43
626.79	4.52
626.978	4.42
627.166	4.48
627.354	4.42
627.541	4.4
627.729	4.23
627.917	4.44
628.104	4.42
628.292	4.3
628.48	4.3
628.667	4.28
628.855	4.34
629.042	4.36
629.23	4.3
629.418	4.24
629.605	4.25
629.793	4.11
629.98	4.21
630.168	4.15
630.355	4.2
630.543	4.19
630.73	4.1
630.917	4.14
631.105	4.23
631.292	4.16
631.48	4.06
631.667	4.16
631.854	4.06
632.042	4.04
632.229	4.02
632.416	4.08
632.604	4.02
632.791	3.9
632.978	4
633.165	3.89
633.353	4.02
633.54	3.96
633.727	3.88
633.914	3.84
634.101	3.8
634.289	3.96
634.476	3.84
634.663	3.79
634.85	3.8
635.037	3.77
635.224	3.72
635.411	3.86
635.598	3.77
635.785	3.77
635.972	3.74
636.159	3.72
636.346	3.65
636.533	3.63
636.72	3.7
636.907	3.65
637.094	3.64
637.281	3.57
637.468	3.63
637.655	3.61
637.842	3.61
638.029	3.52
638.215	3.53
638.402	3.5
638.589	3.48
638.776	3.49
638.963	3.48
639.149	3.53
639.336	3.52
639.523	3.42
639.709	3.47
639.896	3.48
640.083	3.45
640.27	3.49
640.456	3.39
640.643	3.37
640.829	3.26
641.016	3.34
641.203	3.26
641.389	3.31
641.576	3.3
641.762	3.28
641.949	3.26
642.135	3.29
642.322	3.18
642.508	3.21
642.695	3.27
642.881	3.17
643.068	3.22
643.254	3.2
643.441	3.17
643.627	3.22
643.813	3.03
644	3.18
644.186	3.08
644.372	3.19
644.559	3.17
644.745	3.07
644.931	3.02
645.118	3.11
645.304	3.03
645.49	3.04
645.676	2.97
645.862	2.99
646.049	3.08
646.235	2.97
646.421	3.09
646.607	3.08
646.793	2.9
646.979	2.94
647.165	2.97
647.352	2.95
647.538	2.95
647.724	2.91
647.91	2.9
648.096	2.85
648.282	2.91
648.468	2.8
648.654	2.88
648.84	2.84
649.026	2.85
649.212	2.77
649.397	2.76
649.583	2.8
649.769	2.78
649.955	2.77
650.141	2.74
650.327	2.75
650.513	2.72
650.698	2.75
650.884	2.65
651.07	2.75
651.256	2.7
651.442	2.7
651.627	2.64
651.813	2.67
651.999	2.62
652.184	2.64
652.37	2.6
652.556	2.64
652.741	2.72
652.927	2.51
653.113	2.6
653.298	2.62
653.484	2.56
653.669	2.51
653.855	2.54
654.04	2.58
654.226	2.6
654.412	2.56
654.597	2.41
654.782	2.5
654.968	2.48
655.153	2.52
655.339	2.48
655.524	2.46
655.71	2.53
655.895	2.47
656.08	2.44
656.266	2.51
656.451	2.43
656.636	2.38
656.822	2.44
657.007	2.39
657.192	2.45
657.378	2.39
657.563	2.39
657.748	2.43
657.933	2.36
658.118	2.27
658.304	2.4
658.489	2.43
658.674	2.35
658.859	2.29
659.044	2.29
659.229	2.33
659.414	2.27
659.599	2.35
659.785	2.24
659.97	2.25
660.155	2.27
660.34	2.3
660.525	2.17
660.71	2.24
660.895	2.25
661.08	2.2
661.264	2.13
661.449	2.22
661.634	2.2
661.819	2.2
662.004	2.18
662.189	2.1
662.374	2.07
662.559	2.12
662.743	2
662.928	2.06
663.113	2.08
663.298	2.04
663.483	2.02
663.667	2.03
663.852	1.99
664.037	2.07
664.221	2.02
664.406	2.04
664.591	2
664.775	2.01
664.96	1.98
665.145	1.95
665.329	1.97
665.514	1.95
665.698	1.86
665.883	1.82
666.068	1.92
666.252	1.87
666.437	1.83
666.621	1.87
666.806	1.88
666.99	1.8
667.174	1.83
667.359	1.86
667.543	1.81
667.728	1.81
667.912	1.7
668.096	1.77
668.281	1.73
668.465	1.78
668.649	1.72
668.834	1.72
669.018	1.74
669.202	1.72
669.387	1.65
669.571	1.71
669.755	1.68
669.939	1.76
670.124	1.72
670.308	1.71
670.492	1.78
670.676	1.67
670.86	1.61
671.044	1.6
671.228	1.69
671.413	1.55
671.597	1.57
671.781	1.63
671.965	1.64
672.149	1.61
672.333	1.58
672.517	1.62
672.701	1.64
672.885	1.61
673.069	1.49
673.253	1.59
673.437	1.47
673.621	1.49
673.804	1.55
673.988	1.52
674.172	1.46
674.356	1.43
674.54	1.52
674.724	1.6
674.908	1.5
675.091	1.54
675.275	1.43
675.459	1.54
675.643	1.45
675.826	1.46
676.01	1.44
676.194	1.46
676.377	1.44
676.561	1.5
676.745	1.46
676.928	1.41
677.112	1.47
677.296	1.42
677.479	1.37
677.663	1.35
677.846	1.44
678.03	1.4
678.213	1.34
678.397	1.41
678.58	1.34
678.764	1.33
678.947	1.32
679.131	1.34
679.314	1.38
679.498	1.34
679.681	1.37
679.865	1.39
680.048	1.36
680.231	1.31
680.415	1.26
680.598	1.3
680.781	1.28
680.965	1.31
681.148	1.31
681.331	1.19
681.514	1.28
681.698	1.24
681.881	1.3
682.064	1.28
682.247	1.24
682.43	1.15
682.614	1.26
682.797	1.27
682.98	1.28
683.163	1.19
683.346	1.27
683.529	1.25
683.712	1.14
683.895	1.24
684.078	1.14
684.261	1.14
684.444	1.23
684.627	1.24
684.81	1.15
684.993	1.15
685.176	1.2
685.359	1.11
685.542	1.14
685.725	1.19
685.908	1.16
686.091	1.1
686.274	1.18
686.457	1.21
686.639	1.15
686.822	1.15
687.005	1.15
687.188	1.12
687.371	1.14
687.553	1.17
687.736	1.11
687.919	1.2
688.102	1.2
688.284	1.09
688.467	1.06
688.65	1.05
688.832	1.07
689.015	1.05
689.197	0.96
689.38	1.17
689.563	1.09
689.745	0.99
689.928	0.99
690.11	0.98
690.293	1.02
690.475	0.92
690.658	1.02
690.84	0.99
691.023	0.98
691.205	1.02
691.388	1.04
691.57	1.05
691.752	1.02
691.935	0.84
692.117	1
692.3	1.04
692.482	0.97
692.664	0.91
692.847	0.96
693.029	1
693.211	0.97
693.393	0.91
693.576	0.91
693.758	0.96
693.94	0.9
694.122	0.91
694.304	0.92
694.487	0.91
694.669	1
694.851	0.89
695.033	0.95
695.215	0.93
695.397	0.89
695.579	0.95
695.761	0.85
695.943	0.9
696.125	1.01
696.308	0.89
696.49	0.77
696.671	1.03
696.853	0.86
697.035	1.08
697.217	0.9
697.399	0.94
697.581	0.88
697.763	0.92
697.945	0.84
698.127	0.91
698.309	0.93
698.491	0.89
698.672	0.93
698.854	0.88
699.036	0.9
699.218	0.87
699.399	0.87
699.581	0.89
699.763	0.81
699.945	0.82
700.126	0.77
700.308	0.85
700.49	0.79
700.671	0.74
700.853	0.77
701.035	0.8
701.216	0.84
701.398	0.75
701.579	0.8
701.761	0.82
701.943	0.81
702.124	0.72
702.306	0.82
702.487	0.94
702.669	0.82
702.85	0.76
703.031	0.74
703.213	0.82
703.394	0.83
703.576	0.78
703.757	0.89
703.938	0.89
704.12	0.97
704.301	0.8
704.483	0.71
704.664	0.82
704.845	0.92
705.026	0.8
705.208	0.77
705.389	0.77
705.57	0.8
705.751	0.77
705.933	0.74
706.114	0.76
706.295	0.79
706.476	0.65
706.657	0.89
706.838	0.74
707.02	0.76
707.201	0.68
707.382	0.76
707.563	0.74
707.744	0.63
707.925	0.66
708.106	0.69
708.287	0.69
708.468	0.76
708.649	0.69
708.83	0.76
709.011	0.69
709.192	0.74
709.373	0.59
709.554	0.72
709.734	0.76
709.915	0.74
710.096	0.66
710.277	0.57
710.458	0.7
710.639	0.73
710.819	0.6
711	0.68
711.181	0.73
711.362	0.72
711.542	0.65
711.723	0.73
711.904	0.75
712.085	0.7
712.265	0.7
712.446	0.62
712.627	0.71
712.807	0.66
712.988	0.65
713.168	0.52
713.349	0.74
713.53	0.54
713.71	0.58
713.891	0.51
714.071	0.64
714.252	0.59
714.432	0.59
714.613	0.59
714.793	0.59
714.974	0.74
715.154	0.75
715.334	0.6
715.515	0.71
715.695	0.54
715.876	0.62
716.056	0.62
716.236	0.61
716.417	0.55
716.597	0.52
716.777	0.85
716.957	0.62
717.138	0.58
717.318	0.58
717.498	0.57
717.678	0.64
717.859	0.62
718.039	0.51
718.219	0.69
718.399	0.66
718.579	0.55
718.759	0.58
718.939	0.64
719.12	0.62
719.3	0.55
719.48	0.51
719.66	0.47
719.84	0.73
720.02	0.55
720.2	0.54
720.38	0.51
720.56	0.71
720.74	0.58
720.92	0.61
721.1	0.74
721.279	0.65
721.459	0.62
721.639	0.51
721.819	0.6
721.999	0.52
722.179	0.7
722.359	0.47
722.538	0.56
722.718	0.62
722.898	0.57
723.078	0.53
723.257	0.54
723.437	0.64
723.617	0.54
723.797	0.51
723.976	0.56
724.156	0.65
724.336	0.74
724.515	0.83
724.695	0.48
724.874	0.49
725.054	0.64
725.234	0.48
725.413	0.57
725.593	0.53
725.772	0.51
725.952	0.55
726.131	0.55
726.311	0.67
726.49	0.58
726.67	0.55
726.849	0.59
727.028	0.64
727.208	0.59
727.387	0.66
727.567	0.45
727.746	0.52
727.925	0.49
728.105	0.41
728.284	0.6
728.463	0.43
728.643	0.58
728.822	0.46
729.001	0.6
729.18	0.6
729.359	0.59
729.539	0.56
729.718	0.59
729.897	0.58
730.076	0.52
730.255	0.49
730.434	0.54
730.614	0.64
730.793	0.63
730.972	0.43
731.151	0.57
731.33	0.64
731.509	0.59
731.688	0.58
731.867	0.54
732.046	0.44
732.225	0.76
732.404	0.46
732.583	0.41
732.762	0.61
732.941	0.61
733.12	0.61
733.298	0.61
733.477	0.68
733.656	0.61
733.835	0.54
734.014	0.71
734.193	0.62
734.371	0.53
734.55	0.66
734.729	0.49
734.908	0.6
735.086	0.64
735.265	0.65
735.444	0.38
735.623	0.58
735.801	0.53
735.98	0.55
736.159	0.63
736.337	0.8
736.516	0.62
736.694	0.62
736.873	0.52
737.052	0.73
737.23	0.77
737.409	0.47
737.587	0.78
737.766	0.41
737.944	0.67
738.123	0.63
738.301	0.63
738.479	0.63
738.658	0.63
738.836	0.37
739.015	0.62
739.193	0.64
739.371	0.4
739.55	0.5
739.728	0.45
739.906	0.67
740.085	0.81
740.263	0.54
740.441	0.38
740.62	0.83
740.798	0.73
740.976	0.43
741.154	0.45
741.332	0.72
741.511	0.55
741.689	0.59
741.867	0.6
742.045	0.57
742.223	0.49
742.401	0.49
742.579	0.39
742.757	0.5
742.935	0.37
743.114	0.57
743.292	0.55
743.47	0.5
743.648	0.49
743.826	0.34
744.004	0.66
744.181	0.59
744.359	0.45
744.537	0.54
744.715	0.41
744.893	0.48
745.071	0.51
745.249	0.4
745.427	0.41
745.605	0.47
745.782	0.43
745.96	0.54
746.138	0.69
746.316	0.54
746.493	0.44
746.671	0.47
746.849	0.34
747.027	0.6
747.204	0.37
747.382	0.42
747.56	0.31
747.737	0.42
747.915	0.41
748.093	0.62
748.27	0.39
748.448	0.46
748.625	0.33
748.803	0.39
748.98	0.33
749.158	0.44
749.335	0.54
749.513	0.33
749.69	0.38
749.868	0.42
750.045	0.4
750.223	0.23
750.4	0.24
750.578	0.55
750.755	0.48
750.932	0.31
751.11	0.55
751.287	0.31
751.464	0.55
751.642	0.26
751.819	0.42
751.996	0.53
752.173	0.37
752.351	0.24
752.528	0.43
752.705	0.44
752.882	0.34
753.06	0.35
753.237	0.49
753.414	0.56
753.591	0.5
753.768	0.42
753.945	0.37
754.122	0.33
754.299	0.4
754.476	0.36
754.654	0.36
754.831	0.42
755.008	0.43
755.185	0.29
755.362	0.3
755.539	0.53
755.716	0.51
755.892	0.42
756.069	0.4
756.246	0.32
756.423	0.34
756.6	0.49
756.777	0.39
756.954	0.53
757.131	0.4
757.307	0.19
757.484	0.22
757.661	0.48
757.838	0.56
758.015	0.27
758.191	0.52
758.368	0.36
758.545	0.53
758.721	0.33
758.898	0.32
759.075	0.51
759.251	0.4
759.428	0.43
759.605	0.15
759.781	0.35
759.958	0.49
760.134	0.52
760.311	0.23
760.488	0.52
760.664	0.51
760.841	0.41
761.017	0.17
761.194	0.46
761.37	0.4
761.547	0.4
761.723	0.28
761.899	0.51
762.076	0.29
762.252	0.22
762.429	0.32
762.605	0.53
762.781	0.29
762.958	0.46
763.134	0.36
763.31	0.34
763.486	0.48
763.663	0.19
763.839	0.43
764.015	0.15
764.191	0.2
764.368	0.31
764.544	0.23
764.72	0.42
764.896	0.5
765.072	0.42
765.248	0.28
765.425	0.23
765.601	0.36
765.777	0.4
765.953	0.04
766.129	0.18
766.305	0.26
766.481	0.36
766.657	0.41
766.833	0.56
767.009	0.31
767.185	0.27
767.361	0.3
767.537	0.31
767.713	0.55
767.889	0.33
768.065	0.34
768.24	0.33
768.416	0.39
768.592	0.33
768.768	0.36
768.944	0.39
769.12	0.33
769.295	0.35
769.471	0.39
769.647	0.41
769.823	0.54
769.998	0.27
770.174	0.29
770.35	0.6
770.525	0.71
770.701	0.31
770.877	0.35
771.052	0.27
771.228	0.45
771.403	0.32
771.579	0.47
771.755	0.7
771.93	0.28
772.106	0.14
772.281	0.2
772.457	0.42
772.632	0.3
772.808	0.26
772.983	0.32
773.159	0.16
773.334	0.64
773.509	0.25
773.685	0.32
773.86	0.67
774.036	0.5
774.211	0.31
774.386	0.41
774.562	0.45
774.737	0.5
774.912	0.25
775.087	0.36
775.263	0.4
775.438	0.3
775.613	0.07
775.788	0.38
775.964	0.42
776.139	0.83
776.314	0.29
776.489	0.36
776.664	0.48
776.839	0.18
777.014	0.5
777.19	0.47
777.365	0.49
777.54	0.67
777.715	0.31
777.89	0.42
778.065	0.2
778.24	0.29
778.415	0.64
778.59	0.17
778.765	0.47
778.94	0.35
779.115	0.3
779.289	0.27
779.464	0.44
779.639	0.35
779.814	0
779.989	0.24
780.164	0.63
780.339	0.4
780.513	0.43
780.688	0.14
780.863	0.28
781.038	0.57
781.212	0.28
781.387	0.41
781.562	0.59
781.737	0.34
781.911	0.59
782.086	0.19
782.261	0.21
782.435	0.68
782.61	0.16
782.784	0.48
782.959	0.58
783.134	0.3
783.308	0.15
783.483	0.32
783.657	0.73
783.832	0.64
784.006	-0.11
784.181	0.4
784.355	0.42
784.53	0.5
784.704	0.38
784.878	0.73
785.053	0.55
785.227	0.55
785.402	0.72
785.576	0.15
785.75	0.37
785.925	0.24
786.099	0.22
786.273	0.27
786.448	0.51
786.622	0.51
786.796	0.51
786.97	0.45
787.145	0.93
787.319	0.2
787.493	0.4
787.667	0.29
787.841	0.38
788.015	0.59
788.19	0.11
788.364	0.64
788.538	0.38
788.712	0.65
788.886	0.23
789.06	0.82
789.234	0.47
789.408	0.13
789.582	0.5
789.756	0.31
789.93	0.31
790.104	0.23
790.278	0.49
790.452	0.28
790.626	0.49
790.8	0.32
790.973	0.51
791.147	0.62
791.321	0.84
791.495	0.78
791.669	0.53
791.843	0.64
792.016	0.46
792.19	0.85
792.364	0.31
792.538	0.92
792.711	0.74
792.885	0.54
793.059	0.33
793.233	-0.26
793.406	0.55
793.58	0.63
793.754	0.56
793.927	0.41
794.101	0.79
794.274	0.52
794.448	0.5
794.622	0.14
794.795	0.8
794.969	0.61
795.142	0.96
795.316	0.36
795.489	0.38
795.663	1.01
795.836	0.26
796.009	0.34
796.183	0.91
796.356	0.51
796.53	0.42
796.703	0.64
796.876	1.04
797.05	0.13
797.223	0.53
797.396	0.64
797.57	0.51
797.743	0.92
797.916	0.54
798.09	0.24
798.263	0.62
798.436	0.53
798.609	0.38
798.782	0.37
798.956	0.46
799.129	0.22
799.302	0.3
799.475	0.34
799.648	0.17
799.821	0.24
799.994	0.42
800.167	0.16
800.34	0.46
800.514	0.65
800.687	0.47
800.86	0.64
801.033	0.6
801.206	0.53
801.379	0.41
801.551	0.89
801.724	0.74
801.897	0.73
802.07	0.62
802.243	-0.17
802.416	0.31
802.589	0.34
802.762	0.73
802.935	0.44
803.107	0.84
803.28	0.88
803.453	0.66
803.626	0.35
803.798	0.5
803.971	0.46
804.144	0.49
804.317	0.7
804.489	0.63
804.662	0.66
804.835	0.61
805.007	0.39
805.18	1.1
805.353	0.38
805.525	0.44
805.698	0.22
805.87	0.66
806.043	0.68
806.215	0.17
806.388	0.2
806.56	0.5
806.733	0.8
806.905	0.55
807.078	0.4
807.25	0.46
807.423	0.96
807.595	0.64
807.768	0.44
807.94	0.69
808.112	0.42
808.285	0.48
808.457	0.54
808.629	0.74
808.802	0.55
808.974	0.97
809.146	0.07
809.318	0.22
809.491	0.63
809.663	0.55
809.835	0.42
810.007	0.61
810.18	0.82
810.352	0.23
810.524	-0.04
810.696	0.68
810.868	0.89
811.04	0.44
811.212	0.14
811.384	0.86
811.556	0.53
811.728	0.33
811.901	1.48
812.073	0.28
812.245	0.84
812.417	0.39
812.589	-0.12
812.76	0.75
812.932	0.81
813.104	0.82
813.276	0.52
813.448	1.1
813.62	0.91
813.792	0.77
813.964	0.35
814.136	0.54
814.307	0.28
814.479	0.16
814.651	0.38
814.823	1.65
814.995	0.55
815.166	0.66
815.338	-0.02
815.51	0.55
815.681	1.55
815.853	0.41
816.025	0.93
816.196	1.36
816.368	0.85
816.54	0.32
816.711	0.37
816.883	0.8
817.054	1.75
817.226	-0.15
817.398	0.85
817.569	0.77
817.741	0.63
817.912	0.66
818.084	0.34
818.255	0.93
818.426	0.33
818.598	0.54
818.769	0.5
818.941	0.28
819.112	1.76
819.283	0.73
819.455	0.14
819.626	0.61
819.798	0.36
819.969	0.91
820.14	0.39
820.311	0.66
820.483	0.72
820.654	0.75
820.825	0.61
820.996	0.24
821.168	0.17
821.339	0.62
821.51	0.03
821.681	0.57
821.852	0.76
822.023	0.28
822.195	0.46
822.366	1.27
822.537	0.63
822.708	0.43
822.879	0.44
823.05	1.37
823.221	0.66
823.392	0.7
823.563	0.22
823.734	0.77
823.905	0.58
824.076	0.67
824.247	0.43
824.418	0.49
824.589	1.47
824.759	1.02
824.93	0.66
825.101	-0.24
825.272	1.24
825.443	0.9
825.614	1.58
825.784	-0.08
825.955	1.16
826.126	1.11
826.297	0.75
826.467	1.91
826.638	1.1
826.809	0.35
826.98	0.2
827.15	1.24
827.321	1.1
827.492	1.59
827.662	0.36
827.833	1.59
828.003	1.36
828.174	0.74
828.345	0.34
828.515	1.04
828.686	0.85
828.856	0.28
829.027	0.55
829.197	1.13
829.368	1.16
829.538	0.34
829.709	0.28
829.879	1.3
830.049	0.87
830.22	0.64
830.39	0.48
830.56	0.98
830.731	0.86
830.901	0.83
831.072	1.29
831.242	0.91
831.412	0.91
831.582	1.07
831.753	0.13
831.923	0.82
832.093	0.28
832.263	0.55
832.434	0.21
832.604	0.88
832.774	1.64
832.944	0.92
833.114	0.26
833.284	0.91
833.454	0.9
833.624	0.63
833.795	0.19
833.965	1.67
834.135	2.17
834.305	-0.24
834.475	0.35
834.645	1
834.815	0.31
834.985	0.31
835.155	0.37
835.325	1.03
835.494	1.09
835.664	0.8
835.834	0.3
836.004	1.1
836.174	1.04
836.344	0.54
836.514	0.42
836.684	0.54
836.853	0.92
837.023	0.91
837.193	0.61
837.363	1.7
837.532	1.59
837.702	0.81
837.872	0.74
838.041	1.57
838.211	2.08
838.381	0.1
838.55	1.05
838.72	3.2
838.89	2.39
839.059	0.62
839.229	0.19
839.398	1.86
839.568	1.34
839.738	0.38
839.907	1.64
840.077	1.08
840.246	0.78
840.416	0.24
840.585	0.58
840.755	1.88
840.924	1.64
841.093	1.09
841.263	0.9
841.432	1.07
841.602	0.37
841.771	0.4
841.94	0.56
842.11	2.68
842.279	2.33
842.448	0.42
842.617	0.07
842.787	2
842.956	0.23
843.125	0.76
843.294	0.67
843.464	1.64
843.633	1.24
843.802	-0.62
843.971	0.92
844.14	1.7
844.309	1.75
844.479	0.34
844.648	0.42
844.817	-0.07
844.986	1.16
845.155	-0.17
845.324	0.88
845.493	1.29
845.662	1.06
845.831	1.86
846	1.73
846.169	0.65
846.338	2.73
846.507	1.52
846.676	1.07
846.844	0.45
847.013	1.6
847.182	0.65
847.351	0.45
847.52	1.2
847.689	2.06
847.858	0.97
848.026	0.61
848.195	1.19
848.364	1.02
848.533	0.54
848.701	0.78
848.87	2.05
849.039	1.71
849.207	1.27
849.376	1.58
849.545	2.58
849.713	1.08
849.882	1.31
850.051	-0
850.219	1.58
850.388	1.55
850.556	0.96
850.725	1.27
850.893	1.47
851.062	1.36
851.23	1.73
851.399	0.4
851.567	1.08
851.736	1.32
851.904	0.43
852.073	1.54
852.241	2.6
852.41	1.17
852.578	1.35
852.746	1.2
852.915	2.05
853.083	1.04
853.251	0.11
853.42	0.99
853.588	1.71
853.756	2.13
853.924	1.42
854.093	0.92
854.261	0.64
854.429	-0.26
854.597	2.05
854.765	0.1
854.934	1.5
855.102	2.51
855.27	1.13
855.438	1.41
855.606	3.21
855.774	1.89
855.942	-0.12
856.11	0.75
856.278	0.97
856.446	2.41
856.614	0.23
856.782	0.42
856.95	1.43
857.118	2.29
857.286	1.17
857.454	1.98
857.622	2.16
857.79	2.01
857.958	0.43
858.126	0.98
858.294	0.75
858.462	1.52
858.629	-0.73
858.797	0.3
858.965	1.98
859.133	1.61
859.301	1.75
859.468	1.48
859.636	1.34
859.804	3.53
859.971	2.21
860.139	0.18
860.307	2.57
860.474	1.25
860.642	0.77
860.81	1.36
860.977	0.23
861.145	1.19
861.313	1.36
861.48	0.93
861.648	1.82
861.815	0.61
861.983	-0.69
862.15	-0.15
862.318	2.74
862.485	3.21
862.653	0.66
862.82	0.71
862.988	2.24
863.155	1.93
863.322	-0.37
863.49	-0.32
863.657	0.35
863.824	3.47
863.992	2.11
864.159	1.56
864.326	3.09
864.494	0.77
864.661	3.44
864.828	0.45
864.996	2.19
865.163	3.38
865.33	0.82
865.497	-0.71
865.664	0.47
865.832	0.18
865.999	1.09
866.166	0.73
866.333	-0.1
866.5	0.47
866.667	1.03
866.834	1.13
867.001	2.96
867.168	-0.07
867.335	1.85
867.502	0.02
867.669	1.65
867.836	3.98
868.003	2.7
868.17	1.62
868.337	2.3
868.504	2.48
868.671	-0.35
868.838	1.02
869.005	2.7
869.172	1.86
869.339	1.17
869.505	1.93
869.672	2.71
869.839	3.66
870.006	1.27
870.173	0.45
870.339	1.43
870.506	4.54
870.673	0.89
870.84	2.69
871.006	2.07
871.173	2.02
871.34	0.98
871.506	-0.39
871.673	2.54
871.839	0.34
872.006	1.25
872.173	1.14
872.339	3.39
872.506	4.55
872.672	1.02
872.839	-1.26
873.005	1.06
873.172	4.96
873.338	2.43
873.505	1.64
873.671	2.08
873.838	3.19
874.004	-0.48
874.171	-1.32
874.337	2.12
874.503	3.53
874.67	1.39
874.836	1.17
875.002	6.37
875.169	3.55
875.335	1.98
875.501	3.06
875.668	2.72
875.834	1.57
876	3.71
876.166	1.71
876.332	4.01
876.499	6.72
876.665	1.35
876.831	1.56
876.997	4.59
877.163	1.76
877.329	1.05
877.495	2.28
877.662	3.54
877.828	2.61
877.994	1.01
878.16	-1.34
878.326	3.24
878.492	3.36
878.658	2.27
878.824	3.59
878.99	2.52
879.156	1.82
879.322	5.26
879.487	1.58
879.653	1.38
879.819	0.98
879.985	1.2
880.151	1.82
880.317	2.96
880.483	2.08
880.648	3.2
880.814	-0.03
880.98	2.09
881.146	-1.47
881.312	-0.87
881.477	2.87
881.643	2.77
881.809	2.7
881.974	4.11
882.14	0.2
882.306	2.61
882.471	3.04
882.637	0.48
882.803	4.09
882.968	3.99
883.134	5.1
883.299	2.27
883.465	2.89
883.63	3.91
883.796	2.19
883.961	2.93
884.127	2.13
884.292	-1.16
884.458	0.07
884.623	0.07
