Data from Apollo_Calib_20240827__AbsoluteIrradiance__20__23-29-00-228.txt Node

Date: Tue Aug 27 23:29:00 BST 2024
User: biology
Spectrometer: FLMT08252
Trigger mode: 0
Integration Time (sec): 5.000000E-1
Scans to average: 5
Electric dark correction enabled: true
Nonlinearity correction enabled: false
Boxcar width: 0
XAxis mode: Wavelengths
Number of Pixels in Spectrum: 3648
>>>>>Begin Spectral Data<<<<<
179.588	-0
179.809	-0
180.03	-0
180.251	-0
180.473	-0
180.694	0
180.915	0
181.136	-0
181.357	-0
181.578	-0
181.799	-0
182.02	-0
182.241	0
182.462	-0
182.683	0
182.904	-0
183.125	-0
183.346	0
183.567	0
183.788	0
184.009	0
184.23	0
184.451	0
184.672	0
184.892	0
185.113	0
185.334	0
185.555	0
185.776	0
185.996	0
186.217	0
186.438	0
186.659	0
186.879	0
187.1	0
187.321	0
187.541	0
187.762	0
187.983	0
188.203	0
188.424	0
188.644	0
188.865	0
189.086	0
189.306	0
189.527	0
189.747	0
189.968	0
190.188	0
190.409	0
190.629	0
190.849	0
191.07	0
191.29	0
191.511	0
191.731	0
191.951	0
192.172	0
192.392	0
192.612	0
192.833	0
193.053	0
193.273	0
193.493	0
193.714	0
193.934	0
194.154	0
194.374	0
194.594	0
194.815	0
195.035	0
195.255	0
195.475	0
195.695	0
195.915	0
196.135	0
196.355	0
196.575	0
196.795	0
197.015	0
197.235	0
197.455	0
197.675	0
197.895	0
198.115	0
198.335	0
198.555	0
198.775	0
198.995	0
199.214	0
199.434	0
199.654	0
199.874	0
200.094	3.66
200.313	2.59
200.533	2.36
200.753	2.22
200.973	3.75
201.192	2.61
201.412	1.79
201.632	2.14
201.851	3.08
202.071	2.17
202.291	2.06
202.51	1.78
202.73	2.47
202.95	2.02
203.169	1.75
203.389	2.35
203.608	2.05
203.828	1.92
204.047	1.91
204.267	2.31
204.486	2.37
204.706	2.13
204.925	2.32
205.145	1.85
205.364	2.02
205.583	2.72
205.803	1.62
206.022	1.48
206.242	1.51
206.461	1.85
206.68	1.46
206.9	1.59
207.119	2.45
207.338	2.07
207.557	1.41
207.777	1.32
207.996	1.29
208.215	2.16
208.434	1.17
208.654	1.24
208.873	1.54
209.092	1.8
209.311	1.5
209.53	1.26
209.749	1.18
209.968	1.03
210.187	1.2
210.407	0.85
210.626	1.14
210.845	1.58
211.064	1.09
211.283	0.94
211.502	1.68
211.721	1.27
211.94	1.17
212.159	1.49
212.377	1.34
212.596	1.35
212.815	1.19
213.034	1.18
213.253	1.54
213.472	1.36
213.691	0.8
213.91	1.08
214.128	1.04
214.347	1.59
214.566	0.87
214.785	0.82
215.003	1.01
215.222	1.09
215.441	0.95
215.66	0.82
215.878	1.11
216.097	1.23
216.316	0.72
216.534	1.07
216.753	1.07
216.972	0.76
217.19	1.05
217.409	0.89
217.627	0.7
217.846	0.95
218.064	0.92
218.283	0.85
218.501	1.34
218.72	1.29
218.938	0.61
219.157	0.65
219.375	0.94
219.594	0.97
219.812	0.76
220.031	0.71
220.249	1.07
220.467	1.1
220.686	0.71
220.904	0.59
221.122	0.71
221.341	1.22
221.559	1.03
221.777	0.69
221.995	0.85
222.214	0.87
222.432	0.71
222.65	0.8
222.868	0.79
223.086	0.85
223.305	1.06
223.523	0.71
223.741	1.05
223.959	0.69
224.177	0.37
224.395	0.64
224.613	0.67
224.831	0.89
225.049	0.55
225.267	0.62
225.485	0.81
225.703	0.73
225.921	0.68
226.139	0.72
226.357	0.88
226.575	0.79
226.793	0.52
227.011	1.22
227.229	0.78
227.447	0.72
227.665	0.58
227.883	0.5
228.1	0.75
228.318	0.72
228.536	0.43
228.754	0.56
228.972	0.7
229.189	0.77
229.407	0.76
229.625	0.6
229.843	0.75
230.06	0.68
230.278	0.64
230.496	0.7
230.713	0.63
230.931	0.76
231.149	0.5
231.366	0.44
231.584	0.59
231.801	0.83
232.019	0.6
232.236	0.53
232.454	0.46
232.671	0.61
232.889	0.54
233.106	0.44
233.324	0.55
233.541	0.49
233.759	0.62
233.976	0.37
234.194	0.58
234.411	0.52
234.628	0.51
234.846	0.57
235.063	0.57
235.28	0.52
235.498	0.57
235.715	0.5
235.932	0.87
236.149	0.52
236.367	0.45
236.584	0.49
236.801	0.46
237.018	0.65
237.236	0.5
237.453	0.41
237.67	0.52
237.887	0.46
238.104	0.51
238.321	0.5
238.538	0.49
238.755	0.57
238.973	0.37
239.19	0.5
239.407	0.52
239.624	0.54
239.841	0.33
240.058	0.42
240.275	0.61
240.492	0.5
240.709	0.44
240.925	0.48
241.142	0.47
241.359	0.3
241.576	0.35
241.793	0.42
242.01	0.52
242.227	0.55
242.444	0.53
242.66	0.6
242.877	0.51
243.094	0.5
243.311	0.51
243.527	0.47
243.744	0.44
243.961	0.59
244.178	0.44
244.394	0.48
244.611	0.57
244.828	0.63
245.044	0.38
245.261	0.52
245.477	0.48
245.694	0.55
245.911	0.42
246.127	0.51
246.344	0.65
246.56	0.52
246.777	0.48
246.993	0.44
247.21	0.46
247.426	0.35
247.643	0.41
247.859	0.4
248.076	0.37
248.292	0.64
248.508	0.35
248.725	0.53
248.941	0.41
249.157	0.51
249.374	0.42
249.59	0.45
249.806	0.41
250.023	0.49
250.239	0.44
250.455	0.36
250.671	0.46
250.888	0.48
251.104	0.48
251.32	0.4
251.536	0.51
251.752	0.39
251.969	0.51
252.185	0.49
252.401	0.56
252.617	0.44
252.833	0.39
253.049	0.45
253.265	0.47
253.481	0.51
253.697	0.42
253.913	0.35
254.129	0.43
254.345	0.46
254.561	0.4
254.777	0.42
254.993	0.6
255.209	0.43
255.425	0.45
255.641	0.36
255.857	0.41
256.073	0.38
256.288	0.31
256.504	0.38
256.72	0.42
256.936	0.59
257.152	0.38
257.367	0.31
257.583	0.41
257.799	0.52
258.015	0.32
258.23	0.38
258.446	0.55
258.662	0.45
258.877	0.36
259.093	0.29
259.309	0.43
259.524	0.41
259.74	0.39
259.955	0.27
260.171	0.41
260.387	0.39
260.602	0.43
260.818	0.45
261.033	0.3
261.249	0.33
261.464	0.32
261.68	0.28
261.895	0.45
262.11	0.44
262.326	0.36
262.541	0.24
262.757	0.46
262.972	0.42
263.187	0.39
263.403	0.4
263.618	0.45
263.833	0.37
264.049	0.31
264.264	0.37
264.479	0.4
264.694	0.43
264.91	0.26
265.125	0.38
265.34	0.45
265.555	0.52
265.77	0.39
265.986	0.38
266.201	0.38
266.416	0.37
266.631	0.36
266.846	0.33
267.061	0.42
267.276	0.37
267.491	0.2
267.706	0.38
267.921	0.32
268.136	0.32
268.351	0.39
268.566	0.22
268.781	0.42
268.996	0.39
269.211	0.31
269.426	0.25
269.641	0.32
269.856	0.38
270.071	0.3
270.285	0.23
270.5	0.41
270.715	0.42
270.93	0.34
271.145	0.32
271.359	0.41
271.574	0.26
271.789	0.33
272.004	0.38
272.218	0.31
272.433	0.39
272.648	0.29
272.862	0.42
273.077	0.37
273.292	0.35
273.506	0.31
273.721	0.32
273.936	0.35
274.15	0.43
274.365	0.3
274.579	0.42
274.794	0.32
275.008	0.42
275.223	0.26
275.437	0.37
275.652	0.46
275.866	0.39
276.081	0.28
276.295	0.42
276.509	0.33
276.724	0.29
276.938	0.31
277.153	0.31
277.367	0.41
277.581	0.34
277.796	0.32
278.01	0.32
278.224	0.38
278.438	0.45
278.653	0.27
278.867	0.31
279.081	0.13
279.295	0.31
279.51	0.33
279.724	0.24
279.938	0.37
280.152	0.34
280.366	0.24
280.58	0.28
280.794	0.37
281.008	0.37
281.222	0.38
281.437	0.45
281.651	0.34
281.865	0.38
282.079	0.32
282.293	0.24
282.507	0.29
282.721	0.28
282.935	0.32
283.148	0.24
283.362	0.26
283.576	0.22
283.79	0.3
284.004	0.27
284.218	0.35
284.432	0.28
284.646	0.3
284.859	0.31
285.073	0.3
285.287	0.37
285.501	0.34
285.714	0.31
285.928	0.31
286.142	0.31
286.356	0.31
286.569	0.28
286.783	0.4
286.997	0.38
287.21	0.31
287.424	0.33
287.637	0.31
287.851	0.27
288.065	0.32
288.278	0.3
288.492	0.34
288.705	0.32
288.919	0.34
289.132	0.25
289.346	0.32
289.559	0.24
289.773	0.22
289.986	0.29
290.2	0.33
290.413	0.39
290.626	0.27
290.84	0.28
291.053	0.26
291.267	0.41
291.48	0.25
291.693	0.25
291.906	0.25
292.12	0.27
292.333	0.28
292.546	0.26
292.76	0.35
292.973	0.32
293.186	0.37
293.399	0.25
293.612	0.37
293.826	0.34
294.039	0.27
294.252	0.25
294.465	0.31
294.678	0.32
294.891	0.27
295.104	0.26
295.317	0.25
295.53	0.27
295.743	0.24
295.956	0.28
296.169	0.35
296.382	0.32
296.595	0.26
296.808	0.23
297.021	0.26
297.234	0.32
297.447	0.26
297.66	0.34
297.873	0.35
298.086	0.26
298.299	0.23
298.511	0.22
298.724	0.29
298.937	0.21
299.15	0.24
299.363	0.28
299.575	0.3
299.788	0.29
300.001	0.22
300.213	0.24
300.426	0.28
300.639	0.28
300.852	0.2
301.064	0.3
301.277	0.37
301.489	0.29
301.702	0.34
301.915	0.22
302.127	0.26
302.34	0.32
302.552	0.26
302.765	0.27
302.977	0.29
303.19	0.26
303.402	0.28
303.615	0.25
303.827	0.23
304.04	0.27
304.252	0.27
304.464	0.23
304.677	0.36
304.889	0.28
305.102	0.22
305.314	0.22
305.526	0.32
305.739	0.29
305.951	0.21
306.163	0.26
306.375	0.31
306.588	0.28
306.8	0.22
307.012	0.21
307.224	0.28
307.436	0.4
307.649	0.23
307.861	0.24
308.073	0.28
308.285	0.25
308.497	0.25
308.709	0.24
308.921	0.29
309.133	0.33
309.346	0.28
309.558	0.27
309.77	0.28
309.982	0.33
310.194	0.28
310.406	0.2
310.617	0.29
310.829	0.3
311.041	0.26
311.253	0.23
311.465	0.25
311.677	0.26
311.889	0.27
312.101	0.23
312.313	0.33
312.524	0.31
312.736	0.18
312.948	0.27
313.16	0.32
313.372	0.31
313.583	0.3
313.795	0.26
314.007	0.23
314.218	0.29
314.43	0.25
314.642	0.22
314.853	0.24
315.065	0.33
315.277	0.28
315.488	0.29
315.7	0.32
315.912	0.32
316.123	0.25
316.335	0.28
316.546	0.35
316.758	0.24
316.969	0.27
317.181	0.23
317.392	0.29
317.604	0.3
317.815	0.28
318.026	0.2
318.238	0.23
318.449	0.26
318.661	0.18
318.872	0.25
319.083	0.24
319.295	0.28
319.506	0.23
319.717	0.26
319.929	0.28
320.14	0.24
320.351	0.28
320.562	0.24
320.774	0.28
320.985	0.3
321.196	0.24
321.407	0.23
321.618	0.31
321.829	0.28
322.041	0.32
322.252	0.25
322.463	0.31
322.674	0.26
322.885	0.21
323.096	0.24
323.307	0.27
323.518	0.27
323.729	0.24
323.94	0.25
324.151	0.24
324.362	0.23
324.573	0.3
324.784	0.24
324.995	0.28
325.206	0.29
325.417	0.24
325.628	0.21
325.838	0.22
326.049	0.28
326.26	0.28
326.471	0.27
326.682	0.31
326.892	0.26
327.103	0.2
327.314	0.2
327.525	0.31
327.735	0.31
327.946	0.24
328.157	0.23
328.368	0.27
328.578	0.3
328.789	0.29
328.999	0.25
329.21	0.23
329.421	0.27
329.631	0.23
329.842	0.23
330.052	0.29
330.263	0.29
330.473	0.26
330.684	0.26
330.894	0.24
331.105	0.28
331.315	0.25
331.526	0.2
331.736	0.34
331.947	0.29
332.157	0.24
332.367	0.24
332.578	0.28
332.788	0.28
332.999	0.32
333.209	0.28
333.419	0.25
333.629	0.28
333.84	0.27
334.05	0.27
334.26	0.32
334.47	0.31
334.681	0.29
334.891	0.22
335.101	0.25
335.311	0.31
335.521	0.28
335.732	0.23
335.942	0.31
336.152	0.27
336.362	0.3
336.572	0.29
336.782	0.25
336.992	0.24
337.202	0.24
337.412	0.22
337.622	0.29
337.832	0.25
338.042	0.28
338.252	0.24
338.462	0.27
338.672	0.25
338.882	0.28
339.092	0.24
339.302	0.31
339.511	0.27
339.721	0.2
339.931	0.25
340.141	0.29
340.351	0.31
340.561	0.26
340.77	0.28
340.98	0.27
341.19	0.28
341.4	0.22
341.609	0.21
341.819	0.25
342.029	0.24
342.238	0.26
342.448	0.23
342.658	0.29
342.867	0.23
343.077	0.24
343.286	0.26
343.496	0.24
343.706	0.32
343.915	0.21
344.125	0.26
344.334	0.3
344.544	0.16
344.753	0.24
344.963	0.27
345.172	0.2
345.381	0.21
345.591	0.22
345.8	0.24
346.01	0.33
346.219	0.34
346.428	0.11
346.638	0.27
346.847	0.26
347.056	0.35
347.266	0.23
347.475	0.29
347.684	0.26
347.893	0.3
348.103	0.25
348.312	0.23
348.521	0.22
348.73	0.27
348.94	0.26
349.149	0.24
349.358	0.24
349.567	0.23
349.776	0.24
349.985	0.25
350.194	0.24
350.403	0.29
350.612	0.21
350.821	0.26
351.03	0.23
351.239	0.23
351.448	0.24
351.657	0.21
351.866	0.36
352.075	0.24
352.284	0.32
352.493	0.22
352.702	0.32
352.911	0.29
353.12	0.26
353.329	0.24
353.538	0.25
353.746	0.25
353.955	0.24
354.164	0.29
354.373	0.26
354.582	0.28
354.79	0.24
354.999	0.28
355.208	0.22
355.416	0.31
355.625	0.19
355.834	0.23
356.042	0.29
356.251	0.21
356.46	0.21
356.668	0.27
356.877	0.31
357.085	0.26
357.294	0.22
357.503	0.29
357.711	0.22
357.92	0.37
358.128	0.26
358.337	0.21
358.545	0.27
358.754	0.24
358.962	0.28
359.17	0.22
359.379	0.26
359.587	0.3
359.796	0.23
360.004	0.33
360.212	0.22
360.421	0.26
360.629	0.22
360.837	0.21
361.046	0.28
361.254	0.36
361.462	0.25
361.67	0.25
361.879	0.27
362.087	0.3
362.295	0.29
362.503	0.21
362.711	0.2
362.92	0.3
363.128	0.23
363.336	0.2
363.544	0.21
363.752	0.25
363.96	0.24
364.168	0.22
364.376	0.24
364.584	0.26
364.792	0.3
365	0.27
365.208	0.26
365.416	0.24
365.624	0.32
365.832	0.23
366.04	0.27
366.248	0.22
366.456	0.29
366.664	0.26
366.872	0.27
367.079	0.24
367.287	0.23
367.495	0.25
367.703	0.28
367.911	0.25
368.118	0.25
368.326	0.26
368.534	0.19
368.742	0.31
368.949	0.23
369.157	0.22
369.365	0.3
369.572	0.24
369.78	0.22
369.988	0.27
370.195	0.26
370.403	0.28
370.61	0.28
370.818	0.23
371.026	0.31
371.233	0.2
371.441	0.27
371.648	0.2
371.856	0.27
372.063	0.24
372.271	0.22
372.478	0.24
372.685	0.22
372.893	0.28
373.1	0.26
373.308	0.28
373.515	0.29
373.722	0.29
373.93	0.21
374.137	0.31
374.344	0.36
374.552	0.32
374.759	0.29
374.966	0.27
375.173	0.28
375.381	0.33
375.588	0.24
375.795	0.2
376.002	0.23
376.209	0.22
376.417	0.28
376.624	0.32
376.831	0.27
377.038	0.26
377.245	0.19
377.452	0.29
377.659	0.33
377.866	0.24
378.073	0.24
378.28	0.3
378.487	0.28
378.694	0.29
378.901	0.23
379.108	0.2
379.315	0.27
379.522	0.38
379.729	0.3
379.936	0.29
380.143	0.28
380.35	0.33
380.557	0.28
380.763	0.29
380.97	0.31
381.177	0.32
381.384	0.31
381.591	0.26
381.797	0.29
382.004	0.34
382.211	0.3
382.418	0.25
382.624	0.31
382.831	0.3
383.038	0.25
383.244	0.3
383.451	0.27
383.658	0.3
383.864	0.3
384.071	0.24
384.277	0.37
384.484	0.25
384.69	0.34
384.897	0.27
385.103	0.25
385.31	0.25
385.516	0.27
385.723	0.22
385.929	0.29
386.136	0.28
386.342	0.27
386.549	0.27
386.755	0.38
386.961	0.29
387.168	0.28
387.374	0.29
387.58	0.32
387.787	0.29
387.993	0.32
388.199	0.24
388.406	0.28
388.612	0.31
388.818	0.32
389.024	0.25
389.231	0.35
389.437	0.34
389.643	0.33
389.849	0.28
390.055	0.29
390.261	0.29
390.467	0.29
390.674	0.26
390.88	0.31
391.086	0.32
391.292	0.31
391.498	0.35
391.704	0.34
391.91	0.35
392.116	0.28
392.322	0.2
392.528	0.32
392.734	0.26
392.94	0.28
393.146	0.27
393.352	0.32
393.557	0.26
393.763	0.29
393.969	0.33
394.175	0.32
394.381	0.35
394.587	0.24
394.792	0.31
394.998	0.34
395.204	0.34
395.41	0.29
395.615	0.33
395.821	0.36
396.027	0.37
396.233	0.31
396.438	0.39
396.644	0.33
396.85	0.33
397.055	0.34
397.261	0.37
397.466	0.49
397.672	0.36
397.878	0.37
398.083	0.41
398.289	0.31
398.494	0.37
398.7	0.37
398.905	0.27
399.111	0.33
399.316	0.27
399.522	0.37
399.727	0.33
399.932	0.36
400.138	0.33
400.343	0.36
400.549	0.33
400.754	0.36
400.959	0.41
401.165	0.34
401.37	0.41
401.575	0.42
401.78	0.35
401.986	0.37
402.191	0.38
402.396	0.35
402.601	0.43
402.807	0.4
403.012	0.42
403.217	0.42
403.422	0.41
403.627	0.4
403.832	0.41
404.037	0.42
404.243	0.42
404.448	0.4
404.653	0.43
404.858	0.37
405.063	0.44
405.268	0.44
405.473	0.41
405.678	0.42
405.883	0.63
406.088	0.49
406.293	0.41
406.498	0.43
406.703	0.5
406.907	0.49
407.112	0.43
407.317	0.52
407.522	0.53
407.727	0.47
407.932	0.51
408.136	0.61
408.341	0.55
408.546	0.59
408.751	0.63
408.956	0.54
409.16	0.68
409.365	0.66
409.57	0.62
409.774	0.64
409.979	0.68
410.184	0.67
410.388	0.64
410.593	0.79
410.798	0.74
411.002	0.77
411.207	0.84
411.411	0.79
411.616	0.78
411.82	0.84
412.025	0.81
412.229	0.84
412.434	0.89
412.638	0.9
412.843	0.92
413.047	0.88
413.252	0.96
413.456	0.97
413.66	1.04
413.865	0.96
414.069	1.08
414.273	1.11
414.478	1.11
414.682	1.15
414.886	1.17
415.091	1.2
415.295	1.24
415.499	1.32
415.703	1.31
415.908	1.39
416.112	1.3
416.316	1.63
416.52	1.55
416.724	1.52
416.929	1.62
417.133	1.82
417.337	1.71
417.541	1.81
417.745	1.85
417.949	1.99
418.153	2.01
418.357	1.98
418.561	2.16
418.765	2.17
418.969	2.34
419.173	2.41
419.377	2.38
419.581	2.61
419.785	2.55
419.989	2.59
420.193	2.8
420.397	2.8
420.601	2.98
420.804	3.04
421.008	3.08
421.212	3.22
421.416	3.19
421.62	3.26
421.823	3.25
422.027	3.43
422.231	3.48
422.435	3.47
422.638	3.45
422.842	3.6
423.046	3.72
423.249	3.85
423.453	3.9
423.657	4.04
423.86	4.11
424.064	4.3
424.268	4.47
424.471	4.34
424.675	4.67
424.878	4.67
425.082	4.88
425.285	5.14
425.489	4.94
425.692	5.12
425.896	5.19
426.099	5.43
426.303	5.54
426.506	5.8
426.71	5.86
426.913	6.03
427.116	6.19
427.32	6.28
427.523	6.36
427.726	6.66
427.93	6.63
428.133	7.04
428.336	7.18
428.54	7.27
428.743	7.59
428.946	7.77
429.149	7.74
429.353	7.89
429.556	7.97
429.759	7.88
429.962	8.07
430.165	8.27
430.368	7.92
430.571	8.02
430.775	8.05
430.978	8.05
431.181	8.08
431.384	8.22
431.587	8.31
431.79	8.63
431.993	8.6
432.196	8.9
432.399	9.22
432.602	9.32
432.805	9.38
433.008	9.98
433.211	9.9
433.414	10.21
433.616	10.32
433.819	10.23
434.022	10.28
434.225	10.54
434.428	10.59
434.631	10.96
434.833	10.66
435.036	11.1
435.239	11.3
435.442	11.3
435.645	11.4
435.847	11.57
436.05	11.71
436.253	12.05
436.455	12.02
436.658	11.88
436.861	12.22
437.063	12.41
437.266	12.34
437.468	12.71
437.671	13.04
437.874	13.08
438.076	12.88
438.279	13.36
438.481	13.41
438.684	14.24
438.886	13.8
439.089	13.97
439.291	14.01
439.494	14.47
439.696	14.63
439.899	15.14
440.101	15.6
440.303	15.71
440.506	16.45
440.708	16.19
440.91	16.43
441.113	16.62
441.315	16.8
441.517	16.68
441.72	17.24
441.922	16.8
442.124	16.76
442.326	17.14
442.529	17.24
442.731	17.37
442.933	17.74
443.135	17.51
443.337	17.46
443.539	17.96
443.742	17.62
443.944	18.26
444.146	17.99
444.348	18.04
444.55	17.88
444.752	18.09
444.954	18.27
445.156	18.02
445.358	18.44
445.56	18.69
445.762	18.34
445.964	18.73
446.166	18.73
446.368	18.49
446.57	18.61
446.772	18.32
446.974	17.91
447.175	18.33
447.377	17.95
447.579	18.45
447.781	18.15
447.983	17.82
448.184	17.46
448.386	17.87
448.588	17.23
448.79	17.25
448.991	17.55
449.193	17.53
449.395	16.94
449.597	16.64
449.798	16.56
450	15.94
450.202	16.04
450.403	15.99
450.605	15.7
450.806	15.5
451.008	15.39
451.21	15.12
451.411	14.66
451.613	13.97
451.814	14.21
452.016	14.2
452.217	13.38
452.419	13.52
452.62	13.07
452.821	12.95
453.023	12.79
453.224	12.36
453.426	12
453.627	11.33
453.828	11.44
454.03	11.39
454.231	11.44
454.432	11.22
454.634	10.96
454.835	10.62
455.036	10.59
455.238	10.17
455.439	9.98
455.64	9.74
455.841	9.46
456.042	9.68
456.244	9.36
456.445	9.01
456.646	8.74
456.847	8.69
457.048	8.66
457.249	8.67
457.45	8.24
457.651	7.89
457.852	7.68
458.054	7.32
458.255	7.3
458.456	7.29
458.657	7.21
458.858	6.85
459.058	6.72
459.259	6.82
459.46	6.58
459.661	6.57
459.862	6.55
460.063	6.49
460.264	6.3
460.465	6.12
460.666	6.17
460.866	5.81
461.067	5.57
461.268	5.64
461.469	5.58
461.67	5.41
461.87	5.27
462.071	5.28
462.272	5.23
462.473	5.2
462.673	5.29
462.874	5.18
463.075	5.16
463.275	5.18
463.476	5.23
463.676	5.09
463.877	4.92
464.078	5.07
464.278	4.99
464.479	4.93
464.679	4.82
464.88	4.76
465.08	4.65
465.281	4.54
465.481	4.39
465.682	4.2
465.882	4.2
466.083	4.17
466.283	4.1
466.483	4.01
466.684	3.8
466.884	3.71
467.085	3.73
467.285	3.8
467.485	3.66
467.686	3.57
467.886	3.47
468.086	3.51
468.286	3.48
468.487	3.45
468.687	3.34
468.887	3.29
469.087	3.44
469.287	3.27
469.488	3.14
469.688	3.2
469.888	3.18
470.088	3.17
470.288	3.11
470.488	3
470.688	2.91
470.888	2.83
471.088	2.75
471.288	2.78
471.488	2.81
471.688	2.77
471.888	2.75
472.088	2.85
472.288	2.73
472.488	2.69
472.688	2.64
472.888	2.66
473.088	2.64
473.288	2.51
473.488	2.5
473.688	2.66
473.887	2.47
474.087	2.5
474.287	2.49
474.487	2.37
474.687	2.42
474.886	2.39
475.086	2.33
475.286	2.37
475.486	2.36
475.685	2.29
475.885	2.28
476.085	2.31
476.284	2.31
476.484	2.31
476.684	2.25
476.883	2.31
477.083	2.23
477.282	2.13
477.482	2.18
477.681	2.17
477.881	2.08
478.08	2.15
478.28	2.04
478.479	2.14
478.679	2.19
478.878	2.06
479.078	2.05
479.277	2.09
479.477	2.05
479.676	2.06
479.875	2.03
480.075	2.01
480.274	2.02
480.473	2.05
480.673	2.03
480.872	2.1
481.071	2.07
481.271	2.1
481.47	1.99
481.669	2.02
481.868	1.95
482.067	1.99
482.267	1.96
482.466	1.97
482.665	1.95
482.864	1.94
483.063	1.94
483.262	2.02
483.461	2.04
483.661	2.09
483.86	2
484.059	2.04
484.258	2.04
484.457	2
484.656	2.05
484.855	2.05
485.054	1.94
485.253	2
485.452	2.01
485.651	2.08
485.849	2.05
486.048	2.02
486.247	2.05
486.446	2.08
486.645	2.05
486.844	2.03
487.043	2.03
487.241	2.09
487.44	2.08
487.639	2.15
487.838	2.13
488.037	2.1
488.235	2.2
488.434	2.17
488.633	2.07
488.831	2.19
489.03	2.23
489.229	2.22
489.427	2.2
489.626	2.25
489.825	2.26
490.023	2.28
490.222	2.27
490.42	2.3
490.619	2.37
490.817	2.38
491.016	2.35
491.214	2.38
491.413	2.39
491.611	2.36
491.81	2.4
492.008	2.49
492.207	2.54
492.405	2.53
492.604	2.44
492.802	2.55
493	2.57
493.199	2.64
493.397	2.64
493.595	2.71
493.794	2.66
493.992	2.78
494.19	2.72
494.388	2.81
494.587	2.76
494.785	2.77
494.983	2.75
495.181	2.87
495.379	2.93
495.578	2.95
495.776	2.96
495.974	2.88
496.172	2.95
496.37	3.09
496.568	3.07
496.766	3.09
496.964	3.19
497.162	3.17
497.36	3.21
497.558	3.23
497.756	3.27
497.954	3.25
498.152	3.37
498.35	3.39
498.548	3.37
498.746	3.35
498.944	3.41
499.142	3.44
499.34	3.52
499.538	3.62
499.736	3.51
499.933	3.6
500.131	3.61
500.329	3.77
500.527	3.75
500.725	3.87
500.922	3.83
501.12	3.85
501.318	3.92
501.516	3.92
501.713	4.01
501.911	3.99
502.109	3.95
502.306	4.08
502.504	3.96
502.701	4.07
502.899	4.17
503.097	4.33
503.294	4.17
503.492	4.35
503.689	4.39
503.887	4.4
504.084	4.39
504.282	4.4
504.479	4.4
504.677	4.59
504.874	4.51
505.072	4.44
505.269	4.65
505.466	4.67
505.664	4.72
505.861	4.64
506.059	4.77
506.256	4.72
506.453	4.83
506.651	4.9
506.848	4.96
507.045	4.94
507.242	4.95
507.44	5.02
507.637	5.06
507.834	5.05
508.031	5.17
508.229	5.15
508.426	5.1
508.623	5.24
508.82	5.28
509.017	5.23
509.214	5.23
509.411	5.38
509.608	5.35
509.805	5.48
510.003	5.44
510.2	5.49
510.397	5.62
510.594	5.51
510.791	5.63
510.988	5.63
511.184	5.57
511.381	5.54
511.578	5.67
511.775	5.8
511.972	5.73
512.169	5.78
512.366	5.84
512.563	5.96
512.76	5.95
512.956	5.99
513.153	5.95
513.35	5.88
513.547	5.9
513.744	5.98
513.94	6.03
514.137	6.11
514.334	6.11
514.53	6.16
514.727	6.36
514.924	6.19
515.12	6.23
515.317	6.25
515.514	6.2
515.71	6.16
515.907	6.45
516.103	6.41
516.3	6.31
516.497	6.47
516.693	6.45
516.89	6.44
517.086	6.46
517.283	6.54
517.479	6.46
517.676	6.57
517.872	6.59
518.068	6.66
518.265	6.59
518.461	6.58
518.658	6.7
518.854	6.69
519.05	6.77
519.247	6.8
519.443	6.74
519.639	6.83
519.836	6.72
520.032	6.7
520.228	6.89
520.424	6.81
520.621	6.9
520.817	6.98
521.013	6.89
521.209	7.09
521.405	7.02
521.601	7
521.798	6.98
521.994	7.01
522.19	6.88
522.386	7
522.582	7.07
522.778	7.26
522.974	7.02
523.17	7.16
523.366	7.08
523.562	7.17
523.758	7.16
523.954	6.99
524.15	7.24
524.346	7.28
524.542	7.2
524.738	7.2
524.934	7.37
525.129	7.36
525.325	7.29
525.521	7.28
525.717	7.44
525.913	7.3
526.109	7.28
526.304	7.45
526.5	7.38
526.696	7.42
526.892	7.37
527.087	7.56
527.283	7.44
527.479	7.47
527.674	7.3
527.87	7.49
528.066	7.49
528.261	7.48
528.457	7.5
528.653	7.64
528.848	7.6
529.044	7.61
529.239	7.53
529.435	7.5
529.63	7.5
529.826	7.55
530.021	7.55
530.217	7.62
530.412	7.56
530.608	7.61
530.803	7.6
530.999	7.52
531.194	7.59
531.389	7.64
531.585	7.66
531.78	7.77
531.975	7.66
532.171	7.76
532.366	7.75
532.561	7.74
532.757	7.68
532.952	7.9
533.147	7.62
533.342	7.76
533.538	7.72
533.733	7.82
533.928	7.59
534.123	7.78
534.318	7.81
534.513	7.74
534.709	7.91
534.904	7.82
535.099	7.88
535.294	7.91
535.489	7.86
535.684	7.83
535.879	7.83
536.074	7.85
536.269	7.9
536.464	7.89
536.659	7.81
536.854	7.87
537.049	7.94
537.244	7.87
537.439	7.87
537.634	7.89
537.828	7.92
538.023	7.89
538.218	7.88
538.413	7.8
538.608	7.95
538.803	7.89
538.997	7.9
539.192	7.91
539.387	7.95
539.582	7.9
539.776	7.8
539.971	8.03
540.166	8.05
540.36	7.89
540.555	8.05
540.75	8.02
540.944	7.99
541.139	8.03
541.334	7.93
541.528	7.92
541.723	8.02
541.917	8.06
542.112	7.98
542.306	7.88
542.501	7.88
542.695	7.95
542.89	7.91
543.084	7.99
543.279	8.07
543.473	8.08
543.668	8.08
543.862	7.9
544.056	7.89
544.251	8.1
544.445	8.12
544.64	8.1
544.834	7.85
545.028	7.72
545.222	7.99
545.417	8.17
545.611	8.11
545.805	8.01
546	7.87
546.194	8.06
546.388	8.09
546.582	7.92
546.776	8.05
546.97	8.07
547.165	8.05
547.359	8.01
547.553	8.01
547.747	7.93
547.941	8.23
548.135	8.04
548.329	8.11
548.523	8.04
548.717	7.99
548.911	7.99
549.105	7.97
549.299	8.11
549.493	8.1
549.687	7.98
549.881	8.09
550.075	8.04
550.269	7.94
550.463	8.08
550.657	8.09
550.85	8.04
551.044	8.06
551.238	8.12
551.432	8.06
551.626	8.11
551.82	8.11
552.013	7.99
552.207	8.09
552.401	8.11
552.594	8.06
552.788	8
552.982	8.03
553.176	7.98
553.369	8.22
553.563	8.09
553.756	8.04
553.95	8.07
554.144	8.12
554.337	8.11
554.531	7.94
554.724	8.06
554.918	8.15
555.111	8.12
555.305	8.05
555.498	7.98
555.692	8.13
555.885	8.14
556.079	8.02
556.272	8.08
556.466	8.07
556.659	8.02
556.852	8.16
557.046	7.99
557.239	7.96
557.432	8.11
557.626	8.1
557.819	8.17
558.012	8.12
558.206	8.2
558.399	8.12
558.592	8.05
558.785	8.01
558.979	8.06
559.172	8.07
559.365	8.1
559.558	8.03
559.751	7.98
559.944	8.19
560.138	8.04
560.331	8.08
560.524	8.18
560.717	8.06
560.91	8.04
561.103	8.04
561.296	7.98
561.489	8.14
561.682	8.19
561.875	8.09
562.068	8.28
562.261	7.99
562.454	8.22
562.647	8.06
562.84	8.18
563.032	8.15
563.225	8
563.418	8.03
563.611	8.19
563.804	8.14
563.997	7.95
564.19	7.89
564.382	8.28
564.575	8.07
564.768	8.02
564.961	8.1
565.153	8.05
565.346	8.02
565.539	8.13
565.731	8.09
565.924	8.16
566.117	8.23
566.309	8.12
566.502	8.03
566.695	7.96
566.887	8.19
567.08	8.11
567.272	8.15
567.465	8.01
567.657	8.16
567.85	7.95
568.042	8.08
568.235	8.15
568.427	7.92
568.62	8.03
568.812	7.94
569.005	8.05
569.197	7.92
569.389	8.02
569.582	8.12
569.774	8.07
569.966	7.93
570.159	7.98
570.351	7.92
570.543	7.98
570.736	8.07
570.928	7.85
571.12	8.02
571.312	7.92
571.505	7.76
571.697	8
571.889	8
572.081	8
572.273	7.92
572.465	7.96
572.658	7.97
572.85	7.98
573.042	8.01
573.234	7.89
573.426	7.92
573.618	7.95
573.81	8
574.002	7.92
574.194	7.94
574.386	7.83
574.578	7.86
574.77	7.9
574.962	7.97
575.154	7.83
575.346	7.85
575.538	7.82
575.729	7.88
575.921	7.96
576.113	7.92
576.305	7.88
576.497	7.97
576.689	7.77
576.88	7.74
577.072	7.88
577.264	7.84
577.456	7.9
577.647	7.82
577.839	7.99
578.031	7.76
578.223	7.83
578.414	7.69
578.606	7.89
578.798	7.92
578.989	7.82
579.181	7.9
579.372	7.83
579.564	7.89
579.755	7.72
579.947	7.66
580.139	7.75
580.33	7.6
580.522	7.78
580.713	7.72
580.905	7.67
581.096	7.82
581.287	7.67
581.479	7.7
581.67	7.76
581.862	7.67
582.053	7.76
582.244	7.57
582.436	7.76
582.627	7.63
582.818	7.61
583.01	7.58
583.201	7.67
583.392	7.6
583.583	7.61
583.775	7.48
583.966	7.64
584.157	7.61
584.348	7.67
584.54	7.53
584.731	7.64
584.922	7.52
585.113	7.53
585.304	7.63
585.495	7.54
585.686	7.67
585.877	7.57
586.068	7.65
586.259	7.55
586.45	7.47
586.641	7.53
586.832	7.57
587.023	7.5
587.214	7.43
587.405	7.55
587.596	7.42
587.787	7.36
587.978	7.43
588.169	7.43
588.36	7.35
588.551	7.39
588.742	7.42
588.932	7.42
589.123	7.25
589.314	7.48
589.505	7.31
589.696	7.36
589.886	7.31
590.077	7.31
590.268	7.24
590.458	7.23
590.649	7.15
590.84	7.32
591.03	7.23
591.221	7.35
591.412	7.18
591.602	7.36
591.793	7.17
591.984	7.28
592.174	7.2
592.365	7.29
592.555	7.07
592.746	7.1
592.936	7.17
593.127	7.14
593.317	7.21
593.508	7.18
593.698	7.06
593.889	7.1
594.079	7.11
594.269	7
594.46	7.06
594.65	7.05
594.84	7.11
595.031	6.99
595.221	6.97
595.411	6.98
595.602	7.01
595.792	6.94
595.982	6.86
596.172	6.94
596.363	6.93
596.553	6.92
596.743	6.95
596.933	6.89
597.123	6.87
597.314	6.82
597.504	6.79
597.694	6.87
597.884	6.76
598.074	6.87
598.264	6.78
598.454	6.77
598.644	6.75
598.834	6.78
599.024	6.71
599.214	6.69
599.404	6.75
599.594	6.77
599.784	6.62
599.974	6.74
600.164	6.69
600.354	6.64
600.544	6.58
600.734	6.66
600.924	6.58
601.114	6.52
601.303	6.55
601.493	6.55
601.683	6.54
601.873	6.55
602.063	6.46
602.252	6.49
602.442	6.43
602.632	6.4
602.821	6.39
603.011	6.5
603.201	6.37
603.39	6.4
603.58	6.27
603.77	6.33
603.959	6.38
604.149	6.31
604.339	6.35
604.528	6.45
604.718	6.35
604.907	6.33
605.097	6.18
605.286	6.29
605.476	6.24
605.665	6.3
605.855	6.19
606.044	6.25
606.234	6.23
606.423	6.2
606.612	6.15
606.802	6.05
606.991	6.17
607.181	6.23
607.37	6.15
607.559	5.89
607.749	6.13
607.938	5.99
608.127	6.12
608.316	6.09
608.506	5.98
608.695	6.05
608.884	5.97
609.073	5.99
609.263	6.05
609.452	6.01
609.641	5.83
609.83	5.81
610.019	5.9
610.208	5.82
610.397	5.84
610.586	5.81
610.775	5.81
610.965	5.82
611.154	5.67
611.343	5.76
611.532	5.71
611.721	5.81
611.91	5.69
612.099	5.71
612.287	5.6
612.476	5.52
612.665	5.75
612.854	5.59
613.043	5.57
613.232	5.61
613.421	5.55
613.61	5.6
613.798	5.57
613.987	5.58
614.176	5.5
614.365	5.51
614.554	5.51
614.742	5.54
614.931	5.39
615.12	5.48
615.309	5.46
615.497	5.33
615.686	5.27
615.875	5.37
616.063	5.31
616.252	5.29
616.44	5.31
616.629	5.33
616.818	5.25
617.006	5.21
617.195	5.19
617.383	5.26
617.572	5.17
617.76	5.16
617.949	5.25
618.137	5.23
618.326	5.21
618.514	5.06
618.703	5.02
618.891	5.21
619.079	5.05
619.268	5.11
619.456	4.99
619.644	5.06
619.833	5
620.021	5.03
620.209	4.9
620.398	5.05
620.586	4.91
620.774	5
620.962	4.99
621.151	4.99
621.339	4.87
621.527	4.81
621.715	4.83
621.903	4.87
622.092	4.76
622.28	4.91
622.468	4.67
622.656	4.81
622.844	4.69
623.032	4.77
623.22	4.64
623.408	4.84
623.596	4.75
623.784	4.79
623.972	4.6
624.16	4.69
624.348	4.69
624.536	4.73
624.724	4.5
624.912	4.7
625.1	4.61
625.288	4.63
625.476	4.51
625.664	4.59
625.851	4.52
626.039	4.58
626.227	4.48
626.415	4.45
626.603	4.46
626.79	4.43
626.978	4.45
627.166	4.51
627.354	4.38
627.541	4.37
627.729	4.3
627.917	4.47
628.104	4.36
628.292	4.39
628.48	4.39
628.667	4.26
628.855	4.29
629.042	4.4
629.23	4.24
629.418	4.28
629.605	4.26
629.793	4.14
629.98	4.18
630.168	4.16
630.355	4.16
630.543	4.18
630.73	4.1
630.917	4.13
631.105	4.21
631.292	4.15
631.48	4.08
631.667	4.15
631.854	4.07
632.042	4.03
632.229	3.97
632.416	4
632.604	3.96
632.791	3.93
632.978	3.99
633.165	3.94
633.353	3.95
633.54	4.04
633.727	3.84
633.914	3.88
634.101	3.8
634.289	3.94
634.476	3.83
634.663	3.82
634.85	3.81
635.037	3.8
635.224	3.75
635.411	3.81
635.598	3.72
635.785	3.75
635.972	3.71
636.159	3.74
636.346	3.68
636.533	3.61
636.72	3.67
636.907	3.67
637.094	3.64
637.281	3.55
637.468	3.59
637.655	3.68
637.842	3.59
638.029	3.53
638.215	3.55
638.402	3.57
638.589	3.48
638.776	3.48
638.963	3.49
639.149	3.56
639.336	3.56
639.523	3.48
639.709	3.45
639.896	3.46
640.083	3.46
640.27	3.44
640.456	3.37
640.643	3.37
640.829	3.27
641.016	3.29
641.203	3.33
641.389	3.38
641.576	3.26
641.762	3.29
641.949	3.24
642.135	3.29
642.322	3.26
642.508	3.15
642.695	3.23
642.881	3.23
643.068	3.16
643.254	3.16
643.441	3.22
643.627	3.22
643.813	3.1
644	3.23
644.186	3.1
644.372	3.13
644.559	3.14
644.745	3.07
644.931	3.04
645.118	3.09
645.304	3.08
645.49	3.08
645.676	2.96
645.862	3.05
646.049	3.04
646.235	3.01
646.421	3.12
646.607	3.07
646.793	2.92
646.979	2.9
647.165	2.98
647.352	2.94
647.538	2.92
647.724	2.88
647.91	2.92
648.096	2.93
648.282	2.88
648.468	2.86
648.654	2.89
648.84	2.87
649.026	2.9
649.212	2.79
649.397	2.81
649.583	2.76
649.769	2.83
649.955	2.77
650.141	2.84
650.327	2.77
650.513	2.71
650.698	2.77
650.884	2.62
651.07	2.73
651.256	2.7
651.442	2.7
651.627	2.6
651.813	2.71
651.999	2.62
652.184	2.7
652.37	2.63
652.556	2.6
652.741	2.64
652.927	2.5
653.113	2.66
653.298	2.67
653.484	2.52
653.669	2.54
653.855	2.6
654.04	2.59
654.226	2.55
654.412	2.54
654.597	2.47
654.782	2.55
654.968	2.54
655.153	2.59
655.339	2.46
655.524	2.47
655.71	2.5
655.895	2.52
656.08	2.52
656.266	2.5
656.451	2.46
656.636	2.44
656.822	2.42
657.007	2.39
657.192	2.4
657.378	2.36
657.563	2.38
657.748	2.36
657.933	2.36
658.118	2.29
658.304	2.36
658.489	2.43
658.674	2.31
658.859	2.28
659.044	2.33
659.229	2.32
659.414	2.26
659.599	2.21
659.785	2.21
659.97	2.25
660.155	2.3
660.34	2.23
660.525	2.3
660.71	2.28
660.895	2.27
661.08	2.22
661.264	2.17
661.449	2.23
661.634	2.23
661.819	2.18
662.004	2.11
662.189	2.07
662.374	2.1
662.559	2.11
662.743	2.02
662.928	2.03
663.113	2.03
663.298	2.03
663.483	2
663.667	2.01
663.852	2.02
664.037	2.05
664.221	1.98
664.406	2.02
664.591	2.04
664.775	1.96
664.96	1.97
665.145	1.97
665.329	1.99
665.514	1.89
665.698	1.9
665.883	1.88
666.068	1.95
666.252	1.91
666.437	1.83
666.621	1.86
666.806	1.88
666.99	1.83
667.174	1.75
667.359	1.86
667.543	1.81
667.728	1.8
667.912	1.75
668.096	1.78
668.281	1.75
668.465	1.8
668.649	1.77
668.834	1.73
669.018	1.76
669.202	1.75
669.387	1.68
669.571	1.82
669.755	1.66
669.939	1.69
670.124	1.72
670.308	1.7
670.492	1.68
670.676	1.7
670.86	1.65
671.044	1.61
671.228	1.72
671.413	1.59
671.597	1.62
671.781	1.62
671.965	1.68
672.149	1.61
672.333	1.56
672.517	1.55
672.701	1.6
672.885	1.61
673.069	1.51
673.253	1.59
673.437	1.54
673.621	1.56
673.804	1.51
673.988	1.61
674.172	1.5
674.356	1.44
674.54	1.55
674.724	1.58
674.908	1.51
675.091	1.54
675.275	1.5
675.459	1.55
675.643	1.51
675.826	1.47
676.01	1.5
676.194	1.46
676.377	1.53
676.561	1.48
676.745	1.45
676.928	1.47
677.112	1.47
677.296	1.46
677.479	1.41
677.663	1.37
677.846	1.4
678.03	1.46
678.213	1.32
678.397	1.43
678.58	1.38
678.764	1.34
678.947	1.35
679.131	1.41
679.314	1.44
679.498	1.34
679.681	1.37
679.865	1.45
680.048	1.32
680.231	1.32
680.415	1.34
680.598	1.28
680.781	1.25
680.965	1.3
681.148	1.35
681.331	1.27
681.514	1.31
681.698	1.22
681.881	1.34
682.064	1.26
682.247	1.25
682.43	1.17
682.614	1.31
682.797	1.31
682.98	1.29
683.163	1.18
683.346	1.3
683.529	1.19
683.712	1.19
683.895	1.24
684.078	1.13
684.261	1.18
684.444	1.22
684.627	1.25
684.81	1.15
684.993	1.15
685.176	1.21
685.359	1.07
685.542	1.18
685.725	1.26
685.908	1.13
686.091	1.11
686.274	1.16
686.457	1.14
686.639	1.14
686.822	1.15
687.005	1.12
687.188	1.11
687.371	1.16
687.553	1.15
687.736	1.11
687.919	1.22
688.102	1.2
688.284	1.08
688.467	1.09
688.65	1.08
688.832	1.01
689.015	1.07
689.197	0.95
689.38	1.17
689.563	1.1
689.745	1
689.928	1.06
690.11	1.06
690.293	1.05
690.475	0.97
690.658	1.06
690.84	0.93
691.023	1.07
691.205	1.03
691.388	1.03
691.57	1.03
691.752	1.06
691.935	0.94
692.117	0.93
692.3	0.99
692.482	0.99
692.664	0.98
692.847	0.94
693.029	1.03
693.211	1
693.393	0.92
693.576	0.96
693.758	0.98
693.94	1.02
694.122	0.92
694.304	0.91
694.487	0.87
694.669	0.92
694.851	0.87
695.033	0.91
695.215	0.87
695.397	0.92
695.579	0.9
695.761	0.88
695.943	0.85
696.125	0.96
696.308	0.9
696.49	0.77
696.671	1
696.853	0.87
697.035	1.14
697.217	0.89
697.399	0.97
697.581	0.9
697.763	0.9
697.945	0.83
698.127	0.93
698.309	0.95
698.491	0.86
698.672	0.99
698.854	0.89
699.036	0.92
699.218	0.81
699.399	0.86
699.581	0.89
699.763	0.84
699.945	0.85
700.126	0.82
700.308	0.81
700.49	0.8
700.671	0.72
700.853	0.76
701.035	0.79
701.216	0.83
701.398	0.82
701.579	0.77
701.761	0.89
701.943	0.73
702.124	0.77
702.306	0.75
702.487	0.94
702.669	0.78
702.85	0.77
703.031	0.7
703.213	0.86
703.394	0.82
703.576	0.79
703.757	0.91
703.938	0.85
704.12	0.95
704.301	0.78
704.483	0.75
704.664	0.83
704.845	0.88
705.026	0.85
705.208	0.79
705.389	0.82
705.57	0.77
705.751	0.79
705.933	0.79
706.114	0.85
706.295	0.71
706.476	0.67
706.657	0.82
706.838	0.77
707.02	0.77
707.201	0.69
707.382	0.7
707.563	0.7
707.744	0.72
707.925	0.67
708.106	0.63
708.287	0.77
708.468	0.84
708.649	0.72
708.83	0.74
709.011	0.72
709.192	0.75
709.373	0.68
709.554	0.71
709.734	0.74
709.915	0.76
710.096	0.68
710.277	0.59
710.458	0.67
710.639	0.7
710.819	0.57
711	0.64
711.181	0.72
711.362	0.8
711.542	0.75
711.723	0.68
711.904	0.79
712.085	0.65
712.265	0.68
712.446	0.64
712.627	0.64
712.807	0.7
712.988	0.67
713.168	0.61
713.349	0.73
713.53	0.51
713.71	0.59
713.891	0.6
714.071	0.63
714.252	0.58
714.432	0.58
714.613	0.55
714.793	0.64
714.974	0.75
715.154	0.67
715.334	0.75
715.515	0.7
715.695	0.53
715.876	0.61
716.056	0.62
716.236	0.63
716.417	0.59
716.597	0.61
716.777	0.82
716.957	0.65
717.138	0.68
717.318	0.63
717.498	0.52
717.678	0.6
717.859	0.66
718.039	0.56
718.219	0.68
718.399	0.67
718.579	0.56
718.759	0.58
718.939	0.64
719.12	0.6
719.3	0.62
719.48	0.5
719.66	0.51
719.84	0.71
720.02	0.61
720.2	0.52
720.38	0.63
720.56	0.69
720.74	0.57
720.92	0.63
721.1	0.7
721.279	0.69
721.459	0.6
721.639	0.47
721.819	0.62
721.999	0.66
722.179	0.67
722.359	0.45
722.538	0.62
722.718	0.58
722.898	0.57
723.078	0.62
723.257	0.63
723.437	0.64
723.617	0.61
723.797	0.57
723.976	0.59
724.156	0.74
724.336	0.66
724.515	0.74
724.695	0.45
724.874	0.62
725.054	0.63
725.234	0.54
725.413	0.68
725.593	0.58
725.772	0.61
725.952	0.59
726.131	0.64
726.311	0.6
726.49	0.57
726.67	0.49
726.849	0.59
727.028	0.7
727.208	0.54
727.387	0.68
727.567	0.51
727.746	0.56
727.925	0.53
728.105	0.5
728.284	0.56
728.463	0.53
728.643	0.67
728.822	0.52
729.001	0.54
729.18	0.57
729.359	0.64
729.539	0.61
729.718	0.62
729.897	0.67
730.076	0.59
730.255	0.44
730.434	0.65
730.614	0.59
730.793	0.63
730.972	0.56
731.151	0.65
731.33	0.71
731.509	0.62
731.688	0.63
731.867	0.54
732.046	0.49
732.225	0.67
732.404	0.5
732.583	0.45
732.762	0.7
732.941	0.66
733.12	0.62
733.298	0.66
733.477	0.68
733.656	0.61
733.835	0.64
734.014	0.69
734.193	0.63
734.371	0.52
734.55	0.68
734.729	0.53
734.908	0.66
735.086	0.62
735.265	0.81
735.444	0.51
735.623	0.42
735.801	0.5
735.98	0.55
736.159	0.46
736.337	0.76
736.516	0.72
736.694	0.61
736.873	0.51
737.052	0.75
737.23	0.61
737.409	0.51
737.587	0.71
737.766	0.44
737.944	0.56
738.123	0.7
738.301	0.74
738.479	0.56
738.658	0.71
738.836	0.3
739.015	0.64
739.193	0.76
739.371	0.47
739.55	0.6
739.728	0.42
739.906	0.77
740.085	0.81
740.263	0.63
740.441	0.47
740.62	0.81
740.798	0.69
740.976	0.56
741.154	0.42
741.332	0.74
741.511	0.51
741.689	0.55
741.867	0.57
742.045	0.55
742.223	0.53
742.401	0.47
742.579	0.53
742.757	0.57
742.935	0.46
743.114	0.46
743.292	0.49
743.47	0.5
743.648	0.63
743.826	0.53
744.004	0.67
744.181	0.61
744.359	0.56
744.537	0.56
744.715	0.59
744.893	0.45
745.071	0.58
745.249	0.59
745.427	0.41
745.605	0.53
745.782	0.52
745.96	0.65
746.138	0.61
746.316	0.55
746.493	0.46
746.671	0.61
746.849	0.37
747.027	0.63
747.204	0.48
747.382	0.49
747.56	0.34
747.737	0.39
747.915	0.39
748.093	0.56
748.27	0.42
748.448	0.52
748.625	0.28
748.803	0.41
748.98	0.43
749.158	0.52
749.335	0.54
749.513	0.4
749.69	0.42
749.868	0.4
750.045	0.42
750.223	0.32
750.4	0.3
750.578	0.47
750.755	0.56
750.932	0.41
751.11	0.54
751.287	0.31
751.464	0.49
751.642	0.36
751.819	0.47
751.996	0.42
752.173	0.42
752.351	0.3
752.528	0.45
752.705	0.52
752.882	0.38
753.06	0.51
753.237	0.57
753.414	0.72
753.591	0.54
753.768	0.41
753.945	0.33
754.122	0.31
754.299	0.42
754.476	0.39
754.654	0.39
754.831	0.46
755.008	0.46
755.185	0.36
755.362	0.33
755.539	0.46
755.716	0.5
755.892	0.32
756.069	0.33
756.246	0.47
756.423	0.38
756.6	0.6
756.777	0.4
756.954	0.61
757.131	0.43
757.307	0.31
757.484	0.3
757.661	0.46
757.838	0.63
758.015	0.26
758.191	0.43
758.368	0.4
758.545	0.62
758.721	0.37
758.898	0.3
759.075	0.42
759.251	0.41
759.428	0.47
759.605	0.22
759.781	0.41
759.958	0.48
760.134	0.45
760.311	0.33
760.488	0.49
760.664	0.5
760.841	0.42
761.017	0.38
761.194	0.47
761.37	0.55
761.547	0.48
761.723	0.38
761.899	0.5
762.076	0.23
762.252	0.28
762.429	0.37
762.605	0.51
762.781	0.33
762.958	0.48
763.134	0.3
763.31	0.33
763.486	0.43
763.663	0.27
763.839	0.43
764.015	0.12
764.191	0.29
764.368	0.35
764.544	0.45
764.72	0.44
764.896	0.43
765.072	0.47
765.248	0.33
765.425	0.37
765.601	0.39
765.777	0.3
765.953	0.21
766.129	0.18
766.305	0.36
766.481	0.45
766.657	0.42
766.833	0.55
767.009	0.28
767.185	0.3
767.361	0.46
767.537	0.22
767.713	0.52
767.889	0.44
768.065	0.32
768.24	0.47
768.416	0.41
768.592	0.49
768.768	0.32
768.944	0.42
769.12	0.41
769.295	0.37
769.471	0.33
769.647	0.32
769.823	0.47
769.998	0.3
770.174	0.23
770.35	0.7
770.525	0.69
770.701	0.49
770.877	0.37
771.052	0.29
771.228	0.42
771.403	0.44
771.579	0.41
771.755	0.64
771.93	0.35
772.106	0.21
772.281	0.23
772.457	0.37
772.632	0.46
772.808	0.33
772.983	0.42
773.159	0.35
773.334	0.53
773.509	0.38
773.685	0.41
773.86	0.55
774.036	0.47
774.211	0.46
774.386	0.36
774.562	0.33
774.737	0.63
774.912	0.12
775.087	0.5
775.263	0.51
775.438	0.26
775.613	0.42
775.788	0.3
775.964	0.46
776.139	0.66
776.314	0.24
776.489	0.51
776.664	0.33
776.839	0.42
777.014	0.52
777.19	0.42
777.365	0.59
777.54	0.62
777.715	0.41
777.89	0.38
778.065	0.27
778.24	0.38
778.415	0.57
778.59	0.32
778.765	0.44
778.94	0.35
779.115	0.44
779.289	0.31
779.464	0.52
779.639	0.38
779.814	0.34
779.989	0.28
780.164	0.56
780.339	0.65
780.513	0.23
780.688	0.38
780.863	0.47
781.038	0.67
781.212	0.22
781.387	0.36
781.562	0.68
781.737	0.51
781.911	0.61
782.086	0.26
782.261	0.42
782.435	0.62
782.61	0.36
782.784	0.27
782.959	0.79
783.134	0.26
783.308	0.2
783.483	0.48
783.657	0.9
783.832	0.54
784.006	0.05
784.181	0.65
784.355	0.57
784.53	0.66
784.704	0.27
784.878	0.63
785.053	0.41
785.227	0.64
785.402	0.76
785.576	0.21
785.75	0.37
785.925	0.41
786.099	0.63
786.273	0.63
786.448	0.74
786.622	0.82
786.796	0.34
786.97	0.31
787.145	0.89
787.319	0.38
787.493	0.41
787.667	0.26
787.841	0.49
788.015	0.66
788.19	0.41
788.364	0.34
788.538	0.5
788.712	0.59
788.886	0.57
789.06	0.59
789.234	0.58
789.408	0.23
789.582	0.47
789.756	0.51
789.93	0.29
790.104	0.58
790.278	0.5
790.452	0.18
790.626	0.54
790.8	0.38
790.973	0.59
791.147	0.72
791.321	0.74
791.495	0.39
791.669	0.57
791.843	0.56
792.016	0.53
792.19	0.69
792.364	0.3
792.538	0.87
792.711	0.62
792.885	0.49
793.059	0.22
793.233	-0.17
793.406	0.59
793.58	0.38
793.754	0.49
793.927	0.47
794.101	0.38
794.274	0.59
794.448	0.8
794.622	0.42
794.795	0.64
794.969	0.32
795.142	0.56
795.316	0.26
795.489	0.46
795.663	0.81
795.836	0.58
796.009	0.24
796.183	0.75
796.356	0.76
796.53	0.6
796.703	0.53
796.876	1.05
797.05	0.48
797.223	0.38
797.396	0.43
797.57	0.55
797.743	0.78
797.916	0.7
798.09	0.55
798.263	0.66
798.436	0.81
798.609	0.26
798.782	0.46
798.956	0.68
799.129	0.6
799.302	0.66
799.475	0.31
799.648	0.28
799.821	0.49
799.994	0.32
800.167	0.24
800.34	0.77
800.514	0.75
800.687	0.67
800.86	0.41
801.033	0.7
801.206	0.72
801.379	0.36
801.551	0.84
801.724	0.81
801.897	0.81
802.07	0.26
802.243	0.1
802.416	0.39
802.589	0.26
802.762	0.56
802.935	0.7
803.107	0.96
803.28	0.85
803.453	0.78
803.626	0.35
803.798	0.49
803.971	0.36
804.144	0.99
804.317	1.02
804.489	0.79
804.662	0.66
804.835	0.57
805.007	0.52
805.18	1.29
805.353	0.84
805.525	0.24
805.698	0.28
805.87	0.92
806.043	0.84
806.215	0.39
806.388	0.51
806.56	0.84
806.733	0.86
806.905	0.66
807.078	0.45
807.25	0.56
807.423	0.59
807.595	0.68
807.768	0.6
807.94	0.88
808.112	0.83
808.285	0.72
808.457	0.49
808.629	0.66
808.802	0.77
808.974	0.77
809.146	0.74
809.318	0.36
809.491	0.7
809.663	1.02
809.835	0.33
810.007	0.69
810.18	0.95
810.352	0.23
810.524	0.77
810.696	0.52
810.868	1.23
811.04	0.51
811.212	0.64
811.384	0.78
811.556	0.8
811.728	0.75
811.901	1.08
812.073	0.58
812.245	0.97
812.417	0.45
812.589	0.05
812.76	0.61
812.932	0.95
813.104	0.88
813.276	0.66
813.448	1.17
813.62	0.53
813.792	0.83
813.964	0.62
814.136	0.99
814.307	0.35
814.479	0.26
814.651	0.37
814.823	1.28
814.995	0.74
815.166	0.65
815.338	0.53
815.51	0.3
815.681	1.28
815.853	1.02
816.025	0.51
816.196	1.43
816.368	1.13
816.54	0.29
816.711	0.52
816.883	1.24
817.054	1.5
817.226	0.32
817.398	0.68
817.569	0.38
817.741	0.78
817.912	0.97
818.084	0.71
818.255	0.88
818.426	0.36
818.598	0.62
818.769	0.33
818.941	0.82
819.112	1.19
819.283	0.81
819.455	0.3
819.626	0.99
819.798	0.86
819.969	0.99
820.14	0.37
820.311	0.01
820.483	0.81
820.654	1
820.825	0.73
820.996	0.3
821.168	0.59
821.339	0.95
821.51	0.3
821.681	0.63
821.852	0.87
822.023	0.27
822.195	-0.22
822.366	1.17
822.537	0.82
822.708	0.9
822.879	0.78
823.05	1.08
823.221	0.3
823.392	1.66
823.563	0.75
823.734	0.93
823.905	1.56
824.076	0.82
824.247	0.23
824.418	0.68
824.589	1.38
824.759	0.73
824.93	1.05
825.101	0.43
825.272	1.5
825.443	1.22
825.614	1.47
825.784	-0.24
825.955	1.4
826.126	1.89
826.297	0.53
826.467	2.22
826.638	1.98
826.809	0.83
826.98	1.29
827.15	1.37
827.321	0.86
827.492	1.35
827.662	1.11
827.833	1.84
828.003	1.41
828.174	0.55
828.345	0.54
828.515	1.75
828.686	0.88
828.856	0.88
829.027	0.83
829.197	0.63
829.368	1.03
829.538	0.56
829.709	1
829.879	1.06
830.049	0.85
830.22	0.75
830.39	1.07
830.56	1.55
830.731	0.87
830.901	0.56
831.072	0.86
831.242	0.98
831.412	1.03
831.582	1.02
831.753	0.46
831.923	1.71
832.093	1.19
832.263	1.18
832.434	0.9
832.604	1.22
832.774	1.04
832.944	1
833.114	0.9
833.284	1.13
833.454	0.65
833.624	0.72
833.795	0.87
833.965	1.87
834.135	1.69
834.305	-0.03
834.475	0.19
834.645	1.33
834.815	1.1
834.985	0.44
835.155	0.21
835.325	1.78
835.494	0.93
835.664	0.87
835.834	-0.19
836.004	0.65
836.174	1.06
836.344	0.96
836.514	-0.17
836.684	0.85
836.853	1.39
837.023	1.35
837.193	0.77
837.363	1.32
837.532	1.54
837.702	1.32
837.872	0.78
838.041	1.89
838.211	2.62
838.381	0.78
838.55	0.92
838.72	3.46
838.89	1.92
839.059	0.23
839.229	0.88
839.398	2.69
839.568	1.75
839.738	0.99
839.907	1.98
840.077	0.9
840.246	0.46
840.416	0.67
840.585	0.24
840.755	2.01
840.924	2.23
841.093	0.4
841.263	1.26
841.432	1.49
841.602	0.46
841.771	0.35
841.94	0.56
842.11	3.04
842.279	2.44
842.448	0.44
842.617	1.16
842.787	2.2
842.956	0.13
843.125	1.67
843.294	1.67
843.464	1.92
843.633	1.49
843.802	0.37
843.971	1.38
844.14	2.02
844.309	1.82
844.479	0.63
844.648	1.1
844.817	0.2
844.986	0.67
845.155	1.01
845.324	0.8
845.493	0.64
845.662	1.53
845.831	1.07
846	1.84
846.169	1.98
846.338	2.63
846.507	0.67
846.676	1.86
846.844	0.55
847.013	1.07
847.182	1.13
847.351	1.36
847.52	1.4
847.689	1.69
847.858	0.49
848.026	0.73
848.195	1.18
848.364	0.56
848.533	0.21
848.701	1.23
848.87	0.07
849.039	2.03
849.207	1.37
849.376	2.49
849.545	2.79
849.713	0.34
849.882	1.36
850.051	0.95
850.219	1.7
850.388	2.25
850.556	0.78
850.725	1.03
850.893	1.37
851.062	2.43
851.23	2.23
851.399	0.52
851.567	0.63
851.736	1.14
851.904	0.96
852.073	1.79
852.241	1.62
852.41	2.15
852.578	1.65
852.746	1.45
852.915	1.85
853.083	1.11
853.251	0.68
853.42	0.91
853.588	1.01
853.756	2.11
853.924	1.31
854.093	0.26
854.261	1.88
854.429	0.22
854.597	2.44
854.765	-0.16
854.934	2.72
855.102	2.19
855.27	1.77
855.438	3.02
855.606	2.57
855.774	2.26
855.942	0.65
856.11	0.78
856.278	1.48
856.446	2.56
856.614	1.3
856.782	1.39
856.95	1.58
857.118	2.89
857.286	1.94
857.454	1.04
857.622	3
857.79	2.77
857.958	0.68
858.126	0.98
858.294	0.28
858.462	1.74
858.629	1.18
858.797	0.77
858.965	1.35
859.133	1.91
859.301	0.17
859.468	2.49
859.636	1.93
859.804	3.84
859.971	1.54
860.139	0.92
860.307	3.58
860.474	1.78
860.642	0.62
860.81	0.74
860.977	1.58
861.145	2.22
861.313	2.65
861.48	1.14
861.648	2.46
861.815	1.11
861.983	0.42
862.15	1.17
862.318	2.08
862.485	2.52
862.653	0.69
862.82	1.22
862.988	3.4
863.155	2.73
863.322	1.44
863.49	0.4
863.657	0.99
863.824	3.28
863.992	3.1
864.159	2.52
864.326	4.03
864.494	0.68
864.661	4.65
864.828	0.37
864.996	3.49
865.163	4.97
865.33	1.76
865.497	-0.95
865.664	1.33
865.832	-0.44
865.999	0.77
866.166	2.06
866.333	2.05
866.5	1.89
866.667	1.39
866.834	1.59
867.001	3.93
867.168	0.82
867.335	2.2
867.502	-0.39
867.669	3.22
867.836	3.62
868.003	2.39
868.17	3.05
868.337	5.12
868.504	4.65
868.671	0.85
868.838	2.11
869.005	3.03
869.172	4.3
869.339	2.67
869.505	2.01
869.672	1.76
869.839	3.83
870.006	3.19
870.173	0.89
870.339	2.95
870.506	4.38
870.673	0.43
870.84	2.74
871.006	2.83
871.173	1.15
871.34	3.2
871.506	0.71
871.673	3.42
871.839	0.36
872.006	1.94
872.173	2.24
872.339	3.32
872.506	4.61
872.672	1.15
872.839	0.04
873.005	3.2
873.172	5.09
873.338	3.19
873.505	3.07
873.671	1.3
873.838	1.34
874.004	-0.2
874.171	1.77
874.337	1.98
874.503	3.17
874.67	3.26
874.836	2.37
875.002	3
875.169	4
875.335	3.39
875.501	0.95
875.668	3.49
875.834	2.2
876	0.81
876.166	3.33
876.332	3.72
876.499	3.85
876.665	1.46
876.831	4.1
876.997	5.55
877.163	3.33
877.329	2.93
877.495	1.51
877.662	2.48
877.828	2.86
877.994	1.33
878.16	0.41
878.326	0.78
878.492	0.12
878.658	0.84
878.824	4.15
878.99	4.04
879.156	-0.42
879.322	4.79
879.487	1.73
879.653	4.29
879.819	2.99
879.985	0.14
880.151	3.18
880.317	1.65
880.483	3.57
880.648	4.04
880.814	2.04
880.98	2.33
881.146	1.34
881.312	1.47
881.477	3.42
881.643	2.22
881.809	4.66
881.974	5.35
882.14	-1.91
882.306	1.95
882.471	5.83
882.637	2.39
882.803	2.25
882.968	3.73
883.134	5.3
883.299	2.29
883.465	2.25
883.63	3.72
883.796	3.9
883.961	3.21
884.127	3.99
884.292	-0.4
884.458	-0.38
884.623	-0.38
