Data from Apollo_Calib_20240827__AbsoluteIrradiance__19__23-28-02-626.txt Node

Date: Tue Aug 27 23:28:02 BST 2024
User: biology
Spectrometer: FLMT08252
Trigger mode: 0
Integration Time (sec): 5.000000E-1
Scans to average: 5
Electric dark correction enabled: true
Nonlinearity correction enabled: false
Boxcar width: 0
XAxis mode: Wavelengths
Number of Pixels in Spectrum: 3648
>>>>>Begin Spectral Data<<<<<
179.588	-0
179.809	-0
180.03	-0
180.251	-0
180.473	-0
180.694	0
180.915	0
181.136	-0
181.357	-0
181.578	-0
181.799	0
182.02	-0
182.241	0
182.462	-0
182.683	0
182.904	0
183.125	-0
183.346	0
183.567	0
183.788	0
184.009	0
184.23	0
184.451	0
184.672	0
184.892	0
185.113	0
185.334	0
185.555	0
185.776	0
185.996	0
186.217	0
186.438	0
186.659	0
186.879	0
187.1	0
187.321	0
187.541	0
187.762	0
187.983	0
188.203	0
188.424	0
188.644	0
188.865	0
189.086	0
189.306	0
189.527	0
189.747	0
189.968	0
190.188	0
190.409	0
190.629	0
190.849	0
191.07	0
191.29	0
191.511	0
191.731	0
191.951	0
192.172	0
192.392	0
192.612	0
192.833	0
193.053	0
193.273	0
193.493	0
193.714	0
193.934	0
194.154	0
194.374	0
194.594	0
194.815	0
195.035	0
195.255	0
195.475	0
195.695	0
195.915	0
196.135	0
196.355	0
196.575	0
196.795	0
197.015	0
197.235	0
197.455	0
197.675	0
197.895	0
198.115	0
198.335	0
198.555	0
198.775	0
198.995	0
199.214	0
199.434	0
199.654	0
199.874	0
200.094	3.65
200.313	2.87
200.533	2.56
200.753	1.86
200.973	3.28
201.192	2.8
201.412	1.5
201.632	2.06
201.851	3.23
202.071	2.08
202.291	1.92
202.51	1.67
202.73	2.88
202.95	2.03
203.169	1.63
203.389	1.98
203.608	2.18
203.828	1.46
204.047	1.97
204.267	2.41
204.486	1.64
204.706	2.2
204.925	2.11
205.145	1.75
205.364	1.9
205.583	2.47
205.803	1.55
206.022	1.41
206.242	1.81
206.461	1.59
206.68	1.34
206.9	2.05
207.119	2.14
207.338	1.92
207.557	1.41
207.777	1.56
207.996	1.22
208.215	2.06
208.434	1.11
208.654	1.26
208.873	1.43
209.092	1.87
209.311	1.59
209.53	1.31
209.749	1.05
209.968	1.08
210.187	1.19
210.407	0.77
210.626	1.13
210.845	1.26
211.064	1.31
211.283	1.06
211.502	1.47
211.721	1.46
211.94	1.16
212.159	1.12
212.377	1.31
212.596	1.51
212.815	1.12
213.034	1.02
213.253	1.32
213.472	1.57
213.691	0.94
213.91	0.85
214.128	0.85
214.347	1.39
214.566	0.67
214.785	0.99
215.003	1.23
215.222	1.12
215.441	0.88
215.66	0.76
215.878	1.23
216.097	1.34
216.316	0.57
216.534	0.95
216.753	0.93
216.972	1.07
217.19	0.9
217.409	0.68
217.627	0.75
217.846	0.79
218.064	0.99
218.283	0.69
218.501	1.23
218.72	1.06
218.938	0.7
219.157	0.75
219.375	1.19
219.594	1.06
219.812	0.64
220.031	0.72
220.249	1.02
220.467	1.02
220.686	0.66
220.904	0.52
221.122	0.7
221.341	1.17
221.559	0.86
221.777	0.67
221.995	0.8
222.214	0.97
222.432	0.71
222.65	0.83
222.868	0.9
223.086	0.83
223.305	1.12
223.523	0.77
223.741	0.94
223.959	0.57
224.177	0.66
224.395	0.51
224.613	0.79
224.831	0.79
225.049	0.45
225.267	0.72
225.485	0.82
225.703	0.6
225.921	0.81
226.139	0.6
226.357	0.75
226.575	0.63
226.793	0.64
227.011	1.2
227.229	0.72
227.447	0.76
227.665	0.64
227.883	0.45
228.1	0.63
228.318	0.71
228.536	0.37
228.754	0.55
228.972	0.76
229.189	0.76
229.407	0.56
229.625	0.65
229.843	0.7
230.06	0.66
230.278	0.44
230.496	0.56
230.713	0.63
230.931	0.77
231.149	0.64
231.366	0.4
231.584	0.63
231.801	0.97
232.019	0.5
232.236	0.47
232.454	0.58
232.671	0.49
232.889	0.62
233.106	0.41
233.324	0.63
233.541	0.65
233.759	0.6
233.976	0.51
234.194	0.63
234.411	0.6
234.628	0.44
234.846	0.5
235.063	0.53
235.28	0.52
235.498	0.57
235.715	0.52
235.932	0.62
236.149	0.54
236.367	0.47
236.584	0.55
236.801	0.44
237.018	0.63
237.236	0.6
237.453	0.48
237.67	0.71
237.887	0.52
238.104	0.46
238.321	0.35
238.538	0.49
238.755	0.55
238.973	0.34
239.19	0.58
239.407	0.56
239.624	0.56
239.841	0.37
240.058	0.42
240.275	0.64
240.492	0.54
240.709	0.55
240.925	0.46
241.142	0.48
241.359	0.41
241.576	0.44
241.793	0.48
242.01	0.55
242.227	0.57
242.444	0.59
242.66	0.58
242.877	0.41
243.094	0.52
243.311	0.56
243.527	0.4
243.744	0.43
243.961	0.56
244.178	0.48
244.394	0.42
244.611	0.58
244.828	0.69
245.044	0.36
245.261	0.47
245.477	0.51
245.694	0.56
245.911	0.45
246.127	0.56
246.344	0.58
246.56	0.55
246.777	0.37
246.993	0.46
247.21	0.46
247.426	0.5
247.643	0.5
247.859	0.3
248.076	0.46
248.292	0.62
248.508	0.36
248.725	0.54
248.941	0.57
249.157	0.56
249.374	0.36
249.59	0.4
249.806	0.47
250.023	0.49
250.239	0.43
250.455	0.3
250.671	0.35
250.888	0.52
251.104	0.44
251.32	0.34
251.536	0.35
251.752	0.44
251.969	0.4
252.185	0.45
252.401	0.56
252.617	0.47
252.833	0.35
253.049	0.41
253.265	0.35
253.481	0.48
253.697	0.34
253.913	0.32
254.129	0.44
254.345	0.42
254.561	0.42
254.777	0.47
254.993	0.43
255.209	0.45
255.425	0.35
255.641	0.41
255.857	0.49
256.073	0.4
256.288	0.27
256.504	0.42
256.72	0.4
256.936	0.57
257.152	0.37
257.367	0.34
257.583	0.41
257.799	0.45
258.015	0.36
258.23	0.37
258.446	0.55
258.662	0.4
258.877	0.36
259.093	0.29
259.309	0.39
259.524	0.36
259.74	0.45
259.955	0.35
260.171	0.41
260.387	0.35
260.602	0.51
260.818	0.49
261.033	0.3
261.249	0.38
261.464	0.41
261.68	0.32
261.895	0.38
262.11	0.39
262.326	0.39
262.541	0.25
262.757	0.41
262.972	0.38
263.187	0.38
263.403	0.34
263.618	0.47
263.833	0.3
264.049	0.4
264.264	0.38
264.479	0.39
264.694	0.42
264.91	0.31
265.125	0.34
265.34	0.41
265.555	0.53
265.77	0.35
265.986	0.33
266.201	0.44
266.416	0.41
266.631	0.36
266.846	0.32
267.061	0.4
267.276	0.47
267.491	0.3
267.706	0.39
267.921	0.41
268.136	0.34
268.351	0.37
268.566	0.27
268.781	0.4
268.996	0.41
269.211	0.36
269.426	0.25
269.641	0.36
269.856	0.4
270.071	0.35
270.285	0.33
270.5	0.44
270.715	0.39
270.93	0.35
271.145	0.41
271.359	0.44
271.574	0.34
271.789	0.36
272.004	0.41
272.218	0.33
272.433	0.41
272.648	0.3
272.862	0.41
273.077	0.36
273.292	0.36
273.506	0.32
273.721	0.29
273.936	0.37
274.15	0.42
274.365	0.26
274.579	0.43
274.794	0.41
275.008	0.34
275.223	0.23
275.437	0.34
275.652	0.47
275.866	0.39
276.081	0.35
276.295	0.41
276.509	0.33
276.724	0.37
276.938	0.38
277.153	0.36
277.367	0.41
277.581	0.26
277.796	0.34
278.01	0.28
278.224	0.41
278.438	0.41
278.653	0.24
278.867	0.3
279.081	0.14
279.295	0.36
279.51	0.32
279.724	0.24
279.938	0.39
280.152	0.39
280.366	0.26
280.58	0.26
280.794	0.43
281.008	0.38
281.222	0.38
281.437	0.4
281.651	0.34
281.865	0.41
282.079	0.31
282.293	0.2
282.507	0.29
282.721	0.28
282.935	0.31
283.148	0.24
283.362	0.21
283.576	0.24
283.79	0.31
284.004	0.24
284.218	0.36
284.432	0.27
284.646	0.33
284.859	0.29
285.073	0.29
285.287	0.31
285.501	0.31
285.714	0.29
285.928	0.34
286.142	0.31
286.356	0.27
286.569	0.3
286.783	0.34
286.997	0.37
287.21	0.34
287.424	0.29
287.637	0.31
287.851	0.3
288.065	0.33
288.278	0.26
288.492	0.31
288.705	0.31
288.919	0.36
289.132	0.18
289.346	0.37
289.559	0.2
289.773	0.24
289.986	0.28
290.2	0.3
290.413	0.42
290.626	0.25
290.84	0.27
291.053	0.29
291.267	0.37
291.48	0.31
291.693	0.3
291.906	0.27
292.12	0.25
292.333	0.25
292.546	0.26
292.76	0.34
292.973	0.3
293.186	0.3
293.399	0.27
293.612	0.36
293.826	0.3
294.039	0.28
294.252	0.28
294.465	0.26
294.678	0.29
294.891	0.26
295.104	0.24
295.317	0.26
295.53	0.28
295.743	0.24
295.956	0.29
296.169	0.33
296.382	0.29
296.595	0.28
296.808	0.2
297.021	0.36
297.234	0.31
297.447	0.24
297.66	0.3
297.873	0.32
298.086	0.32
298.299	0.27
298.511	0.19
298.724	0.23
298.937	0.25
299.15	0.21
299.363	0.25
299.575	0.26
299.788	0.29
300.001	0.22
300.213	0.19
300.426	0.24
300.639	0.24
300.852	0.22
301.064	0.29
301.277	0.31
301.489	0.33
301.702	0.26
301.915	0.29
302.127	0.27
302.34	0.26
302.552	0.28
302.765	0.2
302.977	0.28
303.19	0.25
303.402	0.25
303.615	0.29
303.827	0.23
304.04	0.25
304.252	0.31
304.464	0.28
304.677	0.34
304.889	0.28
305.102	0.27
305.314	0.25
305.526	0.33
305.739	0.29
305.951	0.25
306.163	0.25
306.375	0.34
306.588	0.21
306.8	0.25
307.012	0.17
307.224	0.31
307.436	0.31
307.649	0.19
307.861	0.29
308.073	0.3
308.285	0.27
308.497	0.28
308.709	0.22
308.921	0.23
309.133	0.31
309.346	0.27
309.558	0.25
309.77	0.29
309.982	0.32
310.194	0.31
310.406	0.24
310.617	0.3
310.829	0.24
311.041	0.32
311.253	0.25
311.465	0.28
311.677	0.21
311.889	0.26
312.101	0.2
312.313	0.28
312.524	0.34
312.736	0.22
312.948	0.27
313.16	0.35
313.372	0.3
313.583	0.27
313.795	0.22
314.007	0.23
314.218	0.28
314.43	0.25
314.642	0.25
314.853	0.22
315.065	0.29
315.277	0.2
315.488	0.3
315.7	0.31
315.912	0.25
316.123	0.27
316.335	0.27
316.546	0.34
316.758	0.26
316.969	0.22
317.181	0.29
317.392	0.26
317.604	0.27
317.815	0.19
318.026	0.24
318.238	0.22
318.449	0.28
318.661	0.21
318.872	0.24
319.083	0.22
319.295	0.29
319.506	0.24
319.717	0.26
319.929	0.28
320.14	0.26
320.351	0.28
320.562	0.25
320.774	0.28
320.985	0.29
321.196	0.22
321.407	0.19
321.618	0.28
321.829	0.3
322.041	0.29
322.252	0.24
322.463	0.32
322.674	0.29
322.885	0.23
323.096	0.24
323.307	0.29
323.518	0.29
323.729	0.22
323.94	0.28
324.151	0.25
324.362	0.25
324.573	0.25
324.784	0.25
324.995	0.3
325.206	0.23
325.417	0.22
325.628	0.23
325.838	0.27
326.049	0.3
326.26	0.31
326.471	0.25
326.682	0.28
326.892	0.24
327.103	0.19
327.314	0.24
327.525	0.29
327.735	0.27
327.946	0.25
328.157	0.27
328.368	0.26
328.578	0.23
328.789	0.29
328.999	0.3
329.21	0.28
329.421	0.28
329.631	0.18
329.842	0.3
330.052	0.28
330.263	0.26
330.473	0.26
330.684	0.29
330.894	0.27
331.105	0.26
331.315	0.27
331.526	0.2
331.736	0.34
331.947	0.26
332.157	0.28
332.367	0.2
332.578	0.28
332.788	0.33
332.999	0.29
333.209	0.26
333.419	0.2
333.629	0.29
333.84	0.3
334.05	0.29
334.26	0.34
334.47	0.34
334.681	0.29
334.891	0.25
335.101	0.26
335.311	0.32
335.521	0.25
335.732	0.23
335.942	0.32
336.152	0.29
336.362	0.24
336.572	0.27
336.782	0.32
336.992	0.27
337.202	0.25
337.412	0.23
337.622	0.29
337.832	0.24
338.042	0.26
338.252	0.23
338.462	0.23
338.672	0.25
338.882	0.25
339.092	0.24
339.302	0.33
339.511	0.29
339.721	0.22
339.931	0.23
340.141	0.3
340.351	0.3
340.561	0.23
340.77	0.27
340.98	0.25
341.19	0.31
341.4	0.23
341.609	0.21
341.819	0.22
342.029	0.24
342.238	0.26
342.448	0.18
342.658	0.32
342.867	0.3
343.077	0.28
343.286	0.23
343.496	0.27
343.706	0.3
343.915	0.24
344.125	0.24
344.334	0.26
344.544	0.18
344.753	0.22
344.963	0.22
345.172	0.24
345.381	0.25
345.591	0.2
345.8	0.3
346.01	0.33
346.219	0.3
346.428	0.11
346.638	0.23
346.847	0.27
347.056	0.32
347.266	0.22
347.475	0.24
347.684	0.27
347.893	0.28
348.103	0.25
348.312	0.22
348.521	0.26
348.73	0.26
348.94	0.29
349.149	0.23
349.358	0.26
349.567	0.23
349.776	0.2
349.985	0.24
350.194	0.27
350.403	0.32
350.612	0.2
350.821	0.21
351.03	0.23
351.239	0.19
351.448	0.25
351.657	0.22
351.866	0.31
352.075	0.26
352.284	0.3
352.493	0.19
352.702	0.31
352.911	0.27
353.12	0.28
353.329	0.25
353.538	0.29
353.746	0.21
353.955	0.18
354.164	0.27
354.373	0.3
354.582	0.27
354.79	0.26
354.999	0.27
355.208	0.26
355.416	0.33
355.625	0.21
355.834	0.24
356.042	0.25
356.251	0.23
356.46	0.22
356.668	0.19
356.877	0.34
357.085	0.3
357.294	0.22
357.503	0.28
357.711	0.23
357.92	0.37
358.128	0.27
358.337	0.25
358.545	0.24
358.754	0.24
358.962	0.32
359.17	0.22
359.379	0.25
359.587	0.27
359.796	0.2
360.004	0.3
360.212	0.3
360.421	0.29
360.629	0.23
360.837	0.26
361.046	0.24
361.254	0.4
361.462	0.26
361.67	0.24
361.879	0.27
362.087	0.33
362.295	0.27
362.503	0.22
362.711	0.23
362.92	0.26
363.128	0.24
363.336	0.22
363.544	0.23
363.752	0.21
363.96	0.24
364.168	0.24
364.376	0.23
364.584	0.27
364.792	0.3
365	0.3
365.208	0.31
365.416	0.33
365.624	0.3
365.832	0.27
366.04	0.34
366.248	0.24
366.456	0.27
366.664	0.28
366.872	0.23
367.079	0.22
367.287	0.26
367.495	0.28
367.703	0.23
367.911	0.21
368.118	0.25
368.326	0.26
368.534	0.19
368.742	0.3
368.949	0.16
369.157	0.21
369.365	0.31
369.572	0.24
369.78	0.22
369.988	0.28
370.195	0.3
370.403	0.27
370.61	0.25
370.818	0.22
371.026	0.31
371.233	0.23
371.441	0.26
371.648	0.23
371.856	0.26
372.063	0.26
372.271	0.23
372.478	0.21
372.685	0.23
372.893	0.26
373.1	0.2
373.308	0.26
373.515	0.34
373.722	0.26
373.93	0.25
374.137	0.31
374.344	0.29
374.552	0.33
374.759	0.33
374.966	0.27
375.173	0.26
375.381	0.33
375.588	0.24
375.795	0.21
376.002	0.25
376.209	0.24
376.417	0.26
376.624	0.28
376.831	0.3
377.038	0.25
377.245	0.23
377.452	0.26
377.659	0.29
377.866	0.28
378.073	0.26
378.28	0.25
378.487	0.33
378.694	0.31
378.901	0.26
379.108	0.25
379.315	0.3
379.522	0.36
379.729	0.27
379.936	0.23
380.143	0.33
380.35	0.28
380.557	0.24
380.763	0.29
380.97	0.29
381.177	0.29
381.384	0.3
381.591	0.27
381.797	0.31
382.004	0.32
382.211	0.29
382.418	0.29
382.624	0.31
382.831	0.3
383.038	0.28
383.244	0.24
383.451	0.25
383.658	0.26
383.864	0.28
384.071	0.22
384.277	0.34
384.484	0.27
384.69	0.37
384.897	0.27
385.103	0.26
385.31	0.23
385.516	0.26
385.723	0.29
385.929	0.28
386.136	0.24
386.342	0.33
386.549	0.27
386.755	0.33
386.961	0.31
387.168	0.28
387.374	0.3
387.58	0.31
387.787	0.27
387.993	0.34
388.199	0.28
388.406	0.27
388.612	0.29
388.818	0.26
389.024	0.28
389.231	0.32
389.437	0.34
389.643	0.29
389.849	0.31
390.055	0.27
390.261	0.25
390.467	0.32
390.674	0.29
390.88	0.32
391.086	0.35
391.292	0.24
391.498	0.35
391.704	0.32
391.91	0.3
392.116	0.25
392.322	0.21
392.528	0.32
392.734	0.25
392.94	0.31
393.146	0.3
393.352	0.25
393.557	0.33
393.763	0.31
393.969	0.33
394.175	0.33
394.381	0.31
394.587	0.29
394.792	0.32
394.998	0.33
395.204	0.34
395.41	0.31
395.615	0.33
395.821	0.32
396.027	0.37
396.233	0.33
396.438	0.37
396.644	0.42
396.85	0.35
397.055	0.3
397.261	0.36
397.466	0.43
397.672	0.33
397.878	0.36
398.083	0.32
398.289	0.32
398.494	0.39
398.7	0.4
398.905	0.29
399.111	0.44
399.316	0.27
399.522	0.38
399.727	0.35
399.932	0.34
400.138	0.34
400.343	0.41
400.549	0.34
400.754	0.34
400.959	0.34
401.165	0.37
401.37	0.34
401.575	0.43
401.78	0.37
401.986	0.33
402.191	0.39
402.396	0.38
402.601	0.41
402.807	0.45
403.012	0.43
403.217	0.45
403.422	0.37
403.627	0.41
403.832	0.4
404.037	0.46
404.243	0.41
404.448	0.37
404.653	0.38
404.858	0.45
405.063	0.46
405.268	0.42
405.473	0.38
405.678	0.44
405.883	0.62
406.088	0.53
406.293	0.45
406.498	0.51
406.703	0.53
406.907	0.49
407.112	0.46
407.317	0.5
407.522	0.6
407.727	0.48
407.932	0.54
408.136	0.64
408.341	0.54
408.546	0.58
408.751	0.58
408.956	0.55
409.16	0.58
409.365	0.59
409.57	0.6
409.774	0.62
409.979	0.69
410.184	0.72
410.388	0.66
410.593	0.74
410.798	0.69
411.002	0.71
411.207	0.81
411.411	0.78
411.616	0.82
411.82	0.84
412.025	0.9
412.229	0.83
412.434	0.91
412.638	0.95
412.843	0.91
413.047	0.98
413.252	0.93
413.456	1.04
413.66	1.03
413.865	1.06
414.069	1.15
414.273	1.11
414.478	1.15
414.682	1.19
414.886	1.16
415.091	1.17
415.295	1.27
415.499	1.32
415.703	1.35
415.908	1.44
416.112	1.38
416.316	1.55
416.52	1.5
416.724	1.57
416.929	1.62
417.133	1.83
417.337	1.75
417.541	1.77
417.745	1.82
417.949	1.92
418.153	2.01
418.357	2.04
418.561	2.13
418.765	2.19
418.969	2.27
419.173	2.39
419.377	2.42
419.581	2.57
419.785	2.56
419.989	2.56
420.193	2.75
420.397	2.79
420.601	3.02
420.804	2.98
421.008	3
421.212	3.18
421.416	3.19
421.62	3.21
421.823	3.31
422.027	3.48
422.231	3.47
422.435	3.46
422.638	3.61
422.842	3.64
423.046	3.7
423.249	3.82
423.453	3.91
423.657	4.13
423.86	4.14
424.064	4.22
424.268	4.41
424.471	4.38
424.675	4.64
424.878	4.65
425.082	4.81
425.285	5.15
425.489	5.1
425.692	5.06
425.896	5.15
426.099	5.39
426.303	5.42
426.506	5.78
426.71	5.92
426.913	6.1
427.116	6.25
427.32	6.26
427.523	6.34
427.726	6.59
427.93	6.73
428.133	7.08
428.336	7.17
428.54	7.31
428.743	7.55
428.946	7.81
429.149	7.9
429.353	7.79
429.556	7.91
429.759	7.89
429.962	8.15
430.165	8.27
430.368	7.92
430.571	7.99
430.775	8.11
430.978	8.11
431.181	8.04
431.384	8.13
431.587	8.21
431.79	8.57
431.993	8.65
432.196	8.88
432.399	9.22
432.602	9.31
432.805	9.34
433.008	10.03
433.211	9.84
433.414	10.13
433.616	10.12
433.819	10.2
434.022	10.36
434.225	10.5
434.428	10.57
434.631	11.09
434.833	10.7
435.036	11.02
435.239	11.19
435.442	11.32
435.645	11.39
435.847	11.54
436.05	11.75
436.253	11.96
436.455	12.01
436.658	11.93
436.861	12.21
437.063	12.35
437.266	12.33
437.468	12.77
437.671	12.93
437.874	13.05
438.076	12.85
438.279	13.31
438.481	13.3
438.684	14.16
438.886	13.66
439.089	14.14
439.291	14.04
439.494	14.41
439.696	14.64
439.899	15.21
440.101	15.51
440.303	15.75
440.506	16.39
440.708	16.11
440.91	16.42
441.113	16.54
441.315	16.91
441.517	16.7
441.72	17.15
441.922	16.88
442.124	16.69
442.326	17.18
442.529	17.3
442.731	17.44
442.933	17.61
443.135	17.37
443.337	17.29
443.539	17.95
443.742	17.44
443.944	18.26
444.146	18.08
444.348	18.05
444.55	18.07
444.752	18.16
444.954	18.24
445.156	18.01
445.358	18.42
445.56	18.65
445.762	18.53
445.964	18.82
446.166	18.54
446.368	18.69
446.57	18.59
446.772	18.14
446.974	18.01
447.175	18.33
447.377	17.95
447.579	18.43
447.781	18.09
447.983	17.7
448.184	17.55
448.386	17.8
448.588	17.36
448.79	17.18
448.991	17.62
449.193	17.61
449.395	17.02
449.597	16.51
449.798	16.49
450	16.02
450.202	16.01
450.403	16.02
450.605	15.89
450.806	15.53
451.008	15.23
451.21	15.11
451.411	14.63
451.613	14.01
451.814	14.29
452.016	14.22
452.217	13.41
452.419	13.45
452.62	13.17
452.821	12.95
453.023	12.74
453.224	12.41
453.426	12.05
453.627	11.35
453.828	11.33
454.03	11.4
454.231	11.39
454.432	11.34
454.634	10.95
454.835	10.71
455.036	10.62
455.238	10.14
455.439	9.97
455.64	9.62
455.841	9.36
456.042	9.59
456.244	9.3
456.445	9.06
456.646	8.76
456.847	8.69
457.048	8.44
457.249	8.61
457.45	8.23
457.651	7.82
457.852	7.73
458.054	7.34
458.255	7.31
458.456	7.43
458.657	7.18
458.858	6.82
459.058	6.76
459.259	6.85
459.46	6.52
459.661	6.56
459.862	6.53
460.063	6.39
460.264	6.36
460.465	6.08
460.666	6.14
460.866	5.8
461.067	5.59
461.268	5.61
461.469	5.55
461.67	5.45
461.87	5.26
462.071	5.29
462.272	5.24
462.473	5.16
462.673	5.4
462.874	5.25
463.075	5.16
463.275	5.18
463.476	5.17
463.676	5.11
463.877	5.06
464.078	4.95
464.278	5.01
464.479	4.84
464.679	4.84
464.88	4.81
465.08	4.67
465.281	4.56
465.481	4.32
465.682	4.11
465.882	4.23
466.083	4.11
466.283	4.08
466.483	4
466.684	3.77
466.884	3.74
467.085	3.76
467.285	3.77
467.485	3.66
467.686	3.56
467.886	3.47
468.086	3.43
468.286	3.38
468.487	3.49
468.687	3.34
468.887	3.31
469.087	3.45
469.287	3.29
469.488	3.1
469.688	3.18
469.888	3.23
470.088	3.19
470.288	3.16
470.488	3.02
470.688	2.84
470.888	2.81
471.088	2.79
471.288	2.84
471.488	2.75
471.688	2.79
471.888	2.68
472.088	2.8
472.288	2.77
472.488	2.59
472.688	2.56
472.888	2.59
473.088	2.62
473.288	2.52
473.488	2.54
473.688	2.56
473.887	2.49
474.087	2.48
474.287	2.48
474.487	2.37
474.687	2.46
474.886	2.36
475.086	2.32
475.286	2.34
475.486	2.31
475.685	2.26
475.885	2.32
476.085	2.31
476.284	2.29
476.484	2.28
476.684	2.25
476.883	2.31
477.083	2.19
477.282	2.17
477.482	2.23
477.681	2.15
477.881	2.1
478.08	2.14
478.28	2.08
478.479	2.12
478.679	2.12
478.878	2.04
479.078	2.1
479.277	2.12
479.477	2.08
479.676	2.02
479.875	2.01
480.075	2.04
480.274	2.01
480.473	2.1
480.673	2.01
480.872	2.09
481.071	2.03
481.271	2.08
481.47	1.99
481.669	2.04
481.868	1.99
482.067	2.02
482.267	1.96
482.466	1.95
482.665	1.92
482.864	1.95
483.063	1.99
483.262	2
483.461	2.01
483.661	2.03
483.86	2
484.059	2.05
484.258	2.03
484.457	2.01
484.656	2.03
484.855	2.07
485.054	1.95
485.253	1.99
485.452	1.97
485.651	2.02
485.849	2.01
486.048	2
486.247	2.02
486.446	2.07
486.645	2.02
486.844	2.03
487.043	2.07
487.241	2.1
487.44	2.08
487.639	2.13
487.838	2.12
488.037	2.16
488.235	2.19
488.434	2.21
488.633	2.05
488.831	2.25
489.03	2.25
489.229	2.21
489.427	2.19
489.626	2.26
489.825	2.29
490.023	2.32
490.222	2.27
490.42	2.32
490.619	2.34
490.817	2.38
491.016	2.33
491.214	2.38
491.413	2.42
491.611	2.39
491.81	2.38
492.008	2.43
492.207	2.51
492.405	2.53
492.604	2.44
492.802	2.53
493	2.58
493.199	2.63
493.397	2.66
493.595	2.66
493.794	2.68
493.992	2.76
494.19	2.72
494.388	2.86
494.587	2.73
494.785	2.75
494.983	2.72
495.181	2.85
495.379	2.88
495.578	2.98
495.776	2.96
495.974	2.92
496.172	2.9
496.37	3.08
496.568	3.1
496.766	3.05
496.964	3.16
497.162	3.16
497.36	3.2
497.558	3.23
497.756	3.32
497.954	3.28
498.152	3.39
498.35	3.45
498.548	3.35
498.746	3.36
498.944	3.42
499.142	3.43
499.34	3.52
499.538	3.63
499.736	3.48
499.933	3.62
500.131	3.61
500.329	3.79
500.527	3.74
500.725	3.84
500.922	3.84
501.12	3.9
501.318	3.95
501.516	3.9
501.713	3.99
501.911	3.99
502.109	3.98
502.306	4.09
502.504	4.01
502.701	4.07
502.899	4.14
503.097	4.32
503.294	4.18
503.492	4.34
503.689	4.36
503.887	4.31
504.084	4.4
504.282	4.4
504.479	4.4
504.677	4.52
504.874	4.53
505.072	4.45
505.269	4.62
505.466	4.65
505.664	4.69
505.861	4.63
506.059	4.75
506.256	4.74
506.453	4.87
506.651	4.96
506.848	4.99
507.045	4.95
507.242	4.91
507.44	5.01
507.637	5.04
507.834	5.11
508.031	5.16
508.229	5.11
508.426	5.11
508.623	5.2
508.82	5.29
509.017	5.25
509.214	5.21
509.411	5.43
509.608	5.31
509.805	5.49
510.003	5.45
510.2	5.49
510.397	5.65
510.594	5.55
510.791	5.65
510.988	5.61
511.184	5.55
511.381	5.43
511.578	5.67
511.775	5.81
511.972	5.7
512.169	5.74
512.366	5.77
512.563	5.92
512.76	5.95
512.956	5.99
513.153	5.86
513.35	5.92
513.547	5.91
513.744	6.03
513.94	5.99
514.137	6.06
514.334	6.1
514.53	6.19
514.727	6.29
514.924	6.22
515.12	6.2
515.317	6.27
515.514	6.21
515.71	6.15
515.907	6.42
516.103	6.37
516.3	6.33
516.497	6.43
516.693	6.48
516.89	6.43
517.086	6.53
517.283	6.57
517.479	6.37
517.676	6.59
517.872	6.62
518.068	6.65
518.265	6.62
518.461	6.55
518.658	6.74
518.854	6.72
519.05	6.79
519.247	6.84
519.443	6.74
519.639	6.89
519.836	6.79
520.032	6.75
520.228	6.92
520.424	6.8
520.621	6.83
520.817	6.92
521.013	6.88
521.209	7.09
521.405	7.04
521.601	6.96
521.798	6.95
521.994	7.02
522.19	6.91
522.386	7.02
522.582	7.14
522.778	7.26
522.974	7.06
523.17	7.14
523.366	7.04
523.562	7.14
523.758	7.11
523.954	7
524.15	7.17
524.346	7.26
524.542	7.27
524.738	7.26
524.934	7.33
525.129	7.28
525.325	7.17
525.521	7.26
525.717	7.41
525.913	7.28
526.109	7.34
526.304	7.5
526.5	7.45
526.696	7.46
526.892	7.35
527.087	7.57
527.283	7.44
527.479	7.46
527.674	7.3
527.87	7.51
528.066	7.51
528.261	7.53
528.457	7.36
528.653	7.63
528.848	7.53
529.044	7.62
529.239	7.53
529.435	7.47
529.63	7.45
529.826	7.48
530.021	7.56
530.217	7.63
530.412	7.56
530.608	7.59
530.803	7.65
530.999	7.49
531.194	7.6
531.389	7.64
531.585	7.67
531.78	7.8
531.975	7.68
532.171	7.73
532.366	7.75
532.561	7.66
532.757	7.71
532.952	7.88
533.147	7.59
533.342	7.8
533.538	7.65
533.733	7.85
533.928	7.55
534.123	7.73
534.318	7.83
534.513	7.69
534.709	7.88
534.904	7.78
535.099	7.87
535.294	7.87
535.489	7.93
535.684	7.8
535.879	7.82
536.074	7.84
536.269	7.93
536.464	7.86
536.659	7.87
536.854	7.85
537.049	7.99
537.244	7.87
537.439	7.9
537.634	7.92
537.828	8
538.023	7.95
538.218	7.83
538.413	7.79
538.608	7.9
538.803	7.93
538.997	7.87
539.192	7.93
539.387	7.87
539.582	7.86
539.776	7.81
539.971	7.95
540.166	8.06
540.36	7.89
540.555	8.05
540.75	8
540.944	7.95
541.139	7.99
541.334	7.96
541.528	8.02
541.723	8.06
541.917	8.11
542.112	7.94
542.306	7.85
542.501	7.88
542.695	7.92
542.89	7.92
543.084	7.95
543.279	7.99
543.473	8.04
543.668	8.08
543.862	7.87
544.056	7.94
544.251	8.07
544.445	8.11
544.64	8.09
544.834	7.82
545.028	7.66
545.222	8.02
545.417	8.23
545.611	8.09
545.805	8
546	7.88
546.194	8.1
546.388	8.04
546.582	7.94
546.776	8.02
546.97	8.04
547.165	8
547.359	8.05
547.553	7.97
547.747	8
547.941	8.19
548.135	8.02
548.329	8.03
548.523	8.1
548.717	8.01
548.911	8.01
549.105	8.03
549.299	8.09
549.493	8.13
549.687	8
549.881	8.11
550.075	8.06
550.269	7.98
550.463	8.11
550.657	8.07
550.85	8.08
551.044	8.06
551.238	8.14
551.432	8.05
551.626	8.12
551.82	8.14
552.013	8.03
552.207	8.14
552.401	8.12
552.594	8.05
552.788	8.02
552.982	8.02
553.176	8
553.369	8.18
553.563	8.1
553.756	8.11
553.95	8.1
554.144	8.11
554.337	8.08
554.531	7.94
554.724	8.1
554.918	8.19
555.111	8.05
555.305	8.08
555.498	8.02
555.692	8.14
555.885	8.12
556.079	7.99
556.272	8.07
556.466	8.07
556.659	8.01
556.852	8.14
557.046	8.03
557.239	7.99
557.432	7.97
557.626	8.13
557.819	8.19
558.012	8.1
558.206	8.15
558.399	8.1
558.592	7.97
558.785	8.01
558.979	8.01
559.172	8.12
559.365	8.07
559.558	7.99
559.751	7.96
559.944	8.14
560.138	8.08
560.331	8.11
560.524	8.13
560.717	8.12
560.91	8.07
561.103	8.17
561.296	7.92
561.489	8.14
561.682	8.23
561.875	8.19
562.068	8.18
562.261	7.93
562.454	8.26
562.647	8.1
562.84	8.11
563.032	8.16
563.225	7.97
563.418	8.03
563.611	8.13
563.804	8.12
563.997	7.91
564.19	7.84
564.382	8.26
564.575	8.09
564.768	8.01
564.961	8.17
565.153	8
565.346	8
565.539	8.13
565.731	8.09
565.924	8.16
566.117	8.21
566.309	8.13
566.502	8.03
566.695	7.96
566.887	8.12
567.08	8.04
567.272	8.12
567.465	7.99
567.657	8.03
567.85	7.96
568.042	8.07
568.235	8.13
568.427	7.92
568.62	8.02
568.812	7.99
569.005	8.08
569.197	8.01
569.389	8.05
569.582	8.04
569.774	8.03
569.966	7.95
570.159	7.9
570.351	7.94
570.543	8
570.736	7.99
570.928	7.9
571.12	8.06
571.312	7.96
571.505	7.76
571.697	8.01
571.889	7.96
572.081	7.98
572.273	7.94
572.465	7.98
572.658	8.01
572.85	8.01
573.042	8.05
573.234	7.89
573.426	7.94
573.618	7.88
573.81	8.01
574.002	7.9
574.194	8
574.386	7.95
574.578	7.76
574.77	7.89
574.962	8.02
575.154	7.79
575.346	7.84
575.538	7.84
575.729	7.87
575.921	7.97
576.113	7.89
576.305	7.95
576.497	8
576.689	7.8
576.88	7.77
577.072	7.89
577.264	7.89
577.456	7.83
577.647	7.82
577.839	7.98
578.031	7.84
578.223	7.78
578.414	7.68
578.606	7.82
578.798	7.85
578.989	7.83
579.181	7.86
579.372	7.83
579.564	7.87
579.755	7.73
579.947	7.74
580.139	7.84
580.33	7.6
580.522	7.72
580.713	7.71
580.905	7.74
581.096	7.78
581.287	7.71
581.479	7.8
581.67	7.76
581.862	7.61
582.053	7.69
582.244	7.57
582.436	7.8
582.627	7.6
582.818	7.62
583.01	7.62
583.201	7.66
583.392	7.64
583.583	7.62
583.775	7.47
583.966	7.57
584.157	7.56
584.348	7.69
584.54	7.6
584.731	7.65
584.922	7.52
585.113	7.41
585.304	7.65
585.495	7.51
585.686	7.59
585.877	7.53
586.068	7.64
586.259	7.53
586.45	7.52
586.641	7.47
586.832	7.53
587.023	7.49
587.214	7.43
587.405	7.51
587.596	7.43
587.787	7.37
587.978	7.43
588.169	7.41
588.36	7.38
588.551	7.48
588.742	7.39
588.932	7.49
589.123	7.26
589.314	7.43
589.505	7.35
589.696	7.34
589.886	7.33
590.077	7.35
590.268	7.2
590.458	7.27
590.649	7.17
590.84	7.28
591.03	7.27
591.221	7.27
591.412	7.12
591.602	7.33
591.793	7.16
591.984	7.27
592.174	7.18
592.365	7.38
592.555	7.06
592.746	7.08
592.936	7.09
593.127	7.18
593.317	7.18
593.508	7.18
593.698	7.05
593.889	7.14
594.079	7.07
594.269	7.04
594.46	7.07
594.65	7.12
594.84	7.02
595.031	6.9
595.221	7.01
595.411	7.08
595.602	6.99
595.792	6.94
595.982	6.89
596.172	6.96
596.363	6.86
596.553	6.92
596.743	7.03
596.933	6.93
597.123	6.86
597.314	6.73
597.504	6.72
597.694	6.91
597.884	6.76
598.074	6.87
598.264	6.85
598.454	6.78
598.644	6.71
598.834	6.75
599.024	6.71
599.214	6.72
599.404	6.78
599.594	6.77
599.784	6.61
599.974	6.65
600.164	6.67
600.354	6.62
600.544	6.53
600.734	6.65
600.924	6.59
601.114	6.51
601.303	6.58
601.493	6.55
601.683	6.57
601.873	6.48
602.063	6.49
602.252	6.51
602.442	6.4
602.632	6.45
602.821	6.34
603.011	6.46
603.201	6.4
603.39	6.35
603.58	6.27
603.77	6.44
603.959	6.43
604.149	6.31
604.339	6.36
604.528	6.47
604.718	6.38
604.907	6.33
605.097	6.25
605.286	6.25
605.476	6.22
605.665	6.23
605.855	6.2
606.044	6.25
606.234	6.2
606.423	6.18
606.612	6.16
606.802	6.13
606.991	6.14
607.181	6.15
607.37	6.13
607.559	5.9
607.749	6.12
607.938	6
608.127	6.06
608.316	6.09
608.506	5.92
608.695	6.1
608.884	5.95
609.073	5.99
609.263	6.05
609.452	6
609.641	5.82
609.83	5.82
610.019	5.9
610.208	5.84
610.397	5.84
610.586	5.8
610.775	5.82
610.965	5.79
611.154	5.72
611.343	5.81
611.532	5.7
611.721	5.79
611.91	5.78
612.099	5.68
612.287	5.57
612.476	5.5
612.665	5.76
612.854	5.6
613.043	5.64
613.232	5.61
613.421	5.52
613.61	5.59
613.798	5.55
613.987	5.55
614.176	5.48
614.365	5.51
614.554	5.55
614.742	5.56
614.931	5.37
615.12	5.46
615.309	5.41
615.497	5.36
615.686	5.31
615.875	5.34
616.063	5.29
616.252	5.31
616.44	5.36
616.629	5.32
616.818	5.28
617.006	5.24
617.195	5.22
617.383	5.17
617.572	5.15
617.76	5.23
617.949	5.16
618.137	5.24
618.326	5.2
618.514	5.03
618.703	5.04
618.891	5.14
619.079	5.06
619.268	5.17
619.456	5
619.644	5.09
619.833	5.05
620.021	4.96
620.209	4.9
620.398	5.02
620.586	4.88
620.774	4.99
620.962	4.96
621.151	5.01
621.339	4.87
621.527	4.81
621.715	4.84
621.903	4.88
622.092	4.81
622.28	4.89
622.468	4.69
622.656	4.77
622.844	4.66
623.032	4.83
623.22	4.69
623.408	4.77
623.596	4.73
623.784	4.73
623.972	4.65
624.16	4.69
624.348	4.69
624.536	4.7
624.724	4.58
624.912	4.66
625.1	4.55
625.288	4.65
625.476	4.48
625.664	4.63
625.851	4.57
626.039	4.6
626.227	4.47
626.415	4.49
626.603	4.48
626.79	4.49
626.978	4.46
627.166	4.47
627.354	4.36
627.541	4.35
627.729	4.31
627.917	4.53
628.104	4.36
628.292	4.29
628.48	4.31
628.667	4.22
628.855	4.37
629.042	4.33
629.23	4.27
629.418	4.28
629.605	4.27
629.793	4.17
629.98	4.27
630.168	4.17
630.355	4.16
630.543	4.17
630.73	4.14
630.917	4.08
631.105	4.21
631.292	4.17
631.48	4.12
631.667	4.11
631.854	4.03
632.042	4.05
632.229	3.99
632.416	4.04
632.604	4.03
632.791	3.92
632.978	3.97
633.165	3.95
633.353	3.96
633.54	3.98
633.727	3.87
633.914	3.85
634.101	3.79
634.289	3.97
634.476	3.76
634.663	3.81
634.85	3.77
635.037	3.84
635.224	3.7
635.411	3.84
635.598	3.73
635.785	3.74
635.972	3.66
636.159	3.74
636.346	3.61
636.533	3.67
636.72	3.64
636.907	3.66
637.094	3.56
637.281	3.53
637.468	3.64
637.655	3.61
637.842	3.59
638.029	3.58
638.215	3.56
638.402	3.52
638.589	3.48
638.776	3.52
638.963	3.48
639.149	3.53
639.336	3.54
639.523	3.4
639.709	3.41
639.896	3.52
640.083	3.4
640.27	3.48
640.456	3.36
640.643	3.4
640.829	3.29
641.016	3.32
641.203	3.27
641.389	3.38
641.576	3.29
641.762	3.25
641.949	3.25
642.135	3.28
642.322	3.24
642.508	3.16
642.695	3.27
642.881	3.17
643.068	3.19
643.254	3.21
643.441	3.24
643.627	3.2
643.813	3.11
644	3.21
644.186	3.06
644.372	3.15
644.559	3.13
644.745	3.11
644.931	3.08
645.118	3.13
645.304	2.99
645.49	3.08
645.676	3.01
645.862	3.03
646.049	3.06
646.235	3.01
646.421	3.08
646.607	3.02
646.793	2.93
646.979	2.9
647.165	2.96
647.352	2.93
647.538	2.96
647.724	2.9
647.91	2.88
648.096	2.9
648.282	2.89
648.468	2.85
648.654	2.92
648.84	2.84
649.026	2.84
649.212	2.83
649.397	2.77
649.583	2.75
649.769	2.81
649.955	2.82
650.141	2.8
650.327	2.79
650.513	2.69
650.698	2.81
650.884	2.66
651.07	2.73
651.256	2.64
651.442	2.7
651.627	2.63
651.813	2.73
651.999	2.63
652.184	2.69
652.37	2.64
652.556	2.68
652.741	2.64
652.927	2.49
653.113	2.58
653.298	2.61
653.484	2.58
653.669	2.55
653.855	2.5
654.04	2.6
654.226	2.57
654.412	2.57
654.597	2.46
654.782	2.5
654.968	2.54
655.153	2.49
655.339	2.43
655.524	2.44
655.71	2.49
655.895	2.46
656.08	2.41
656.266	2.5
656.451	2.49
656.636	2.38
656.822	2.47
657.007	2.43
657.192	2.4
657.378	2.37
657.563	2.41
657.748	2.42
657.933	2.38
658.118	2.3
658.304	2.35
658.489	2.4
658.674	2.4
658.859	2.26
659.044	2.37
659.229	2.3
659.414	2.31
659.599	2.31
659.785	2.25
659.97	2.27
660.155	2.28
660.34	2.26
660.525	2.2
660.71	2.16
660.895	2.27
661.08	2.22
661.264	2.23
661.449	2.26
661.634	2.12
661.819	2.22
662.004	2.13
662.189	2.1
662.374	2.1
662.559	2.11
662.743	2.02
662.928	2.14
663.113	2.03
663.298	2.08
663.483	2.03
663.667	2.04
663.852	1.99
664.037	2.05
664.221	2.02
664.406	2.04
664.591	2.03
664.775	1.99
664.96	1.94
665.145	1.91
665.329	1.98
665.514	1.9
665.698	1.93
665.883	1.86
666.068	1.91
666.252	1.87
666.437	1.85
666.621	1.85
666.806	1.84
666.99	1.82
667.174	1.79
667.359	1.87
667.543	1.75
667.728	1.74
667.912	1.73
668.096	1.78
668.281	1.76
668.465	1.76
668.649	1.75
668.834	1.71
669.018	1.76
669.202	1.72
669.387	1.71
669.571	1.77
669.755	1.68
669.939	1.69
670.124	1.68
670.308	1.72
670.492	1.67
670.676	1.71
670.86	1.62
671.044	1.6
671.228	1.7
671.413	1.64
671.597	1.56
671.781	1.6
671.965	1.69
672.149	1.59
672.333	1.6
672.517	1.57
672.701	1.6
672.885	1.56
673.069	1.49
673.253	1.6
673.437	1.51
673.621	1.57
673.804	1.56
673.988	1.6
674.172	1.52
674.356	1.47
674.54	1.49
674.724	1.58
674.908	1.52
675.091	1.53
675.275	1.53
675.459	1.55
675.643	1.47
675.826	1.51
676.01	1.45
676.194	1.44
676.377	1.5
676.561	1.47
676.745	1.43
676.928	1.47
677.112	1.53
677.296	1.42
677.479	1.39
677.663	1.37
677.846	1.43
678.03	1.41
678.213	1.36
678.397	1.36
678.58	1.33
678.764	1.37
678.947	1.26
679.131	1.4
679.314	1.35
679.498	1.33
679.681	1.39
679.865	1.41
680.048	1.29
680.231	1.33
680.415	1.25
680.598	1.29
680.781	1.26
680.965	1.3
681.148	1.34
681.331	1.29
681.514	1.3
681.698	1.27
681.881	1.25
682.064	1.33
682.247	1.25
682.43	1.16
682.614	1.29
682.797	1.31
682.98	1.24
683.163	1.2
683.346	1.21
683.529	1.26
683.712	1.2
683.895	1.25
684.078	1.15
684.261	1.14
684.444	1.19
684.627	1.18
684.81	1.16
684.993	1.22
685.176	1.22
685.359	1.11
685.542	1.14
685.725	1.24
685.908	1.08
686.091	1.09
686.274	1.16
686.457	1.2
686.639	1.11
686.822	1.14
687.005	1.13
687.188	1.1
687.371	1.19
687.553	1.18
687.736	1.12
687.919	1.16
688.102	1.16
688.284	1.05
688.467	1.09
688.65	1.09
688.832	1
689.015	1.1
689.197	1
689.38	1.22
689.563	1.1
689.745	1.01
689.928	1.02
690.11	1.07
690.293	1.08
690.475	0.95
690.658	1.1
690.84	1.03
691.023	0.98
691.205	0.95
691.388	1.06
691.57	1.06
691.752	1.06
691.935	0.92
692.117	0.97
692.3	1
692.482	0.97
692.664	0.98
692.847	0.98
693.029	1.01
693.211	0.98
693.393	0.87
693.576	0.9
693.758	0.99
693.94	1.02
694.122	0.95
694.304	0.93
694.487	0.88
694.669	1.04
694.851	0.89
695.033	0.91
695.215	0.93
695.397	0.92
695.579	0.9
695.761	0.82
695.943	0.87
696.125	0.98
696.308	1.04
696.49	0.78
696.671	1.04
696.853	0.85
697.035	1.06
697.217	0.83
697.399	0.89
697.581	0.85
697.763	0.96
697.945	0.84
698.127	0.87
698.309	0.85
698.491	0.86
698.672	0.88
698.854	0.85
699.036	0.9
699.218	0.85
699.399	0.93
699.581	0.86
699.763	0.79
699.945	0.81
700.126	0.78
700.308	0.86
700.49	0.73
700.671	0.73
700.853	0.74
701.035	0.82
701.216	0.77
701.398	0.8
701.579	0.81
701.761	0.85
701.943	0.72
702.124	0.72
702.306	0.8
702.487	0.89
702.669	0.78
702.85	0.79
703.031	0.68
703.213	0.87
703.394	0.8
703.576	0.81
703.757	0.9
703.938	0.9
704.12	0.93
704.301	0.82
704.483	0.83
704.664	0.8
704.845	0.85
705.026	0.81
705.208	0.79
705.389	0.81
705.57	0.8
705.751	0.76
705.933	0.75
706.114	0.85
706.295	0.73
706.476	0.67
706.657	0.89
706.838	0.78
707.02	0.82
707.201	0.72
707.382	0.67
707.563	0.79
707.744	0.75
707.925	0.7
708.106	0.68
708.287	0.68
708.468	0.78
708.649	0.74
708.83	0.71
709.011	0.73
709.192	0.75
709.373	0.68
709.554	0.76
709.734	0.79
709.915	0.82
710.096	0.7
710.277	0.54
710.458	0.7
710.639	0.74
710.819	0.62
711	0.68
711.181	0.74
711.362	0.84
711.542	0.64
711.723	0.69
711.904	0.74
712.085	0.71
712.265	0.68
712.446	0.64
712.627	0.65
712.807	0.65
712.988	0.7
713.168	0.6
713.349	0.7
713.53	0.53
713.71	0.68
713.891	0.57
714.071	0.66
714.252	0.63
714.432	0.62
714.613	0.59
714.793	0.65
714.974	0.66
715.154	0.72
715.334	0.67
715.515	0.78
715.695	0.53
715.876	0.6
716.056	0.63
716.236	0.67
716.417	0.56
716.597	0.6
716.777	0.8
716.957	0.62
717.138	0.69
717.318	0.59
717.498	0.48
717.678	0.66
717.859	0.66
718.039	0.48
718.219	0.62
718.399	0.66
718.579	0.55
718.759	0.56
718.939	0.65
719.12	0.6
719.3	0.65
719.48	0.47
719.66	0.56
719.84	0.7
720.02	0.57
720.2	0.57
720.38	0.55
720.56	0.68
720.74	0.56
720.92	0.64
721.1	0.76
721.279	0.64
721.459	0.61
721.639	0.54
721.819	0.65
721.999	0.51
722.179	0.71
722.359	0.53
722.538	0.67
722.718	0.64
722.898	0.57
723.078	0.63
723.257	0.55
723.437	0.62
723.617	0.59
723.797	0.58
723.976	0.61
724.156	0.69
724.336	0.73
724.515	0.71
724.695	0.42
724.874	0.54
725.054	0.69
725.234	0.49
725.413	0.64
725.593	0.58
725.772	0.58
725.952	0.58
726.131	0.62
726.311	0.61
726.49	0.51
726.67	0.49
726.849	0.54
727.028	0.6
727.208	0.53
727.387	0.63
727.567	0.53
727.746	0.56
727.925	0.53
728.105	0.53
728.284	0.52
728.463	0.46
728.643	0.54
728.822	0.5
729.001	0.64
729.18	0.67
729.359	0.65
729.539	0.58
729.718	0.68
729.897	0.62
730.076	0.59
730.255	0.57
730.434	0.61
730.614	0.62
730.793	0.6
730.972	0.54
731.151	0.58
731.33	0.57
731.509	0.58
731.688	0.56
731.867	0.59
732.046	0.5
732.225	0.78
732.404	0.56
732.583	0.5
732.762	0.67
732.941	0.63
733.12	0.56
733.298	0.55
733.477	0.51
733.656	0.61
733.835	0.56
734.014	0.67
734.193	0.57
734.371	0.66
734.55	0.62
734.729	0.5
734.908	0.67
735.086	0.68
735.265	0.67
735.444	0.41
735.623	0.56
735.801	0.58
735.98	0.68
736.159	0.63
736.337	0.62
736.516	0.69
736.694	0.54
736.873	0.58
737.052	0.84
737.23	0.72
737.409	0.58
737.587	0.78
737.766	0.5
737.944	0.54
738.123	0.71
738.301	0.6
738.479	0.54
738.658	0.68
738.836	0.41
739.015	0.67
739.193	0.7
739.371	0.43
739.55	0.61
739.728	0.5
739.906	0.66
740.085	0.78
740.263	0.58
740.441	0.47
740.62	0.8
740.798	0.59
740.976	0.46
741.154	0.47
741.332	0.71
741.511	0.58
741.689	0.63
741.867	0.59
742.045	0.53
742.223	0.54
742.401	0.55
742.579	0.53
742.757	0.65
742.935	0.4
743.114	0.51
743.292	0.43
743.47	0.55
743.648	0.52
743.826	0.42
744.004	0.64
744.181	0.56
744.359	0.43
744.537	0.57
744.715	0.62
744.893	0.47
745.071	0.46
745.249	0.56
745.427	0.48
745.605	0.54
745.782	0.42
745.96	0.53
746.138	0.61
746.316	0.53
746.493	0.42
746.671	0.54
746.849	0.43
747.027	0.64
747.204	0.39
747.382	0.49
747.56	0.34
747.737	0.57
747.915	0.36
748.093	0.57
748.27	0.43
748.448	0.47
748.625	0.31
748.803	0.32
748.98	0.5
749.158	0.54
749.335	0.61
749.513	0.38
749.69	0.4
749.868	0.44
750.045	0.44
750.223	0.39
750.4	0.21
750.578	0.55
750.755	0.4
750.932	0.31
751.11	0.53
751.287	0.38
751.464	0.52
751.642	0.35
751.819	0.48
751.996	0.5
752.173	0.45
752.351	0.39
752.528	0.49
752.705	0.46
752.882	0.29
753.06	0.42
753.237	0.38
753.414	0.57
753.591	0.6
753.768	0.46
753.945	0.4
754.122	0.37
754.299	0.47
754.476	0.45
754.654	0.44
754.831	0.33
755.008	0.4
755.185	0.42
755.362	0.32
755.539	0.39
755.716	0.52
755.892	0.4
756.069	0.4
756.246	0.5
756.423	0.34
756.6	0.63
756.777	0.36
756.954	0.51
757.131	0.47
757.307	0.3
757.484	0.24
757.661	0.48
757.838	0.54
758.015	0.24
758.191	0.51
758.368	0.44
758.545	0.58
758.721	0.45
758.898	0.29
759.075	0.43
759.251	0.4
759.428	0.5
759.605	0.35
759.781	0.41
759.958	0.38
760.134	0.4
760.311	0.34
760.488	0.57
760.664	0.58
760.841	0.44
761.017	0.22
761.194	0.37
761.37	0.45
761.547	0.41
761.723	0.3
761.899	0.42
762.076	0.3
762.252	0.22
762.429	0.35
762.605	0.45
762.781	0.33
762.958	0.49
763.134	0.44
763.31	0.23
763.486	0.49
763.663	0.12
763.839	0.43
764.015	0.23
764.191	0.19
764.368	0.32
764.544	0.22
764.72	0.39
764.896	0.49
765.072	0.31
765.248	0.5
765.425	0.45
765.601	0.37
765.777	0.5
765.953	0.19
766.129	0.27
766.305	0.36
766.481	0.43
766.657	0.37
766.833	0.52
767.009	0.29
767.185	0.35
767.361	0.36
767.537	0.22
767.713	0.5
767.889	0.31
768.065	0.28
768.24	0.32
768.416	0.47
768.592	0.35
768.768	0.4
768.944	0.43
769.12	0.32
769.295	0.2
769.471	0.34
769.647	0.39
769.823	0.58
769.998	0.38
770.174	0.29
770.35	0.89
770.525	0.53
770.701	0.4
770.877	0.27
771.052	0.37
771.228	0.4
771.403	0.44
771.579	0.45
771.755	0.57
771.93	0.3
772.106	0.19
772.281	0.26
772.457	0.4
772.632	0.43
772.808	0.32
772.983	0.3
773.159	0.19
773.334	0.54
773.509	0.28
773.685	0.35
773.86	0.65
774.036	0.58
774.211	0.34
774.386	0.29
774.562	0.39
774.737	0.43
774.912	0.28
775.087	0.49
775.263	0.43
775.438	0.35
775.613	0.26
775.788	0.41
775.964	0.54
776.139	0.76
776.314	0.22
776.489	0.52
776.664	0.57
776.839	0.3
777.014	0.58
777.19	0.53
777.365	0.63
777.54	0.61
777.715	0.2
777.89	0.34
778.065	0.22
778.24	0.29
778.415	0.74
778.59	0.1
778.765	0.34
778.94	0.44
779.115	0.24
779.289	0.44
779.464	0.41
779.639	0.26
779.814	0.26
779.989	0.25
780.164	0.59
780.339	0.38
780.513	0.35
780.688	0.19
780.863	0.25
781.038	0.43
781.212	0.31
781.387	0.45
781.562	0.5
781.737	0.64
781.911	0.49
782.086	0.37
782.261	0.27
782.435	0.55
782.61	0.33
782.784	0.52
782.959	0.6
783.134	0.43
783.308	0.14
783.483	0.32
783.657	0.81
783.832	0.58
784.006	0.34
784.181	0.54
784.355	0.67
784.53	0.63
784.704	0.44
784.878	0.79
785.053	0.62
785.227	0.69
785.402	0.92
785.576	0.33
785.75	0.41
785.925	0.46
786.099	0.61
786.273	0.47
786.448	0.51
786.622	0.81
786.796	0.61
786.97	0.52
787.145	1.09
787.319	0.36
787.493	0.5
787.667	0.33
787.841	0.58
788.015	0.79
788.19	0.34
788.364	0.51
788.538	0.59
788.712	0.76
788.886	0.44
789.06	0.88
789.234	0.86
789.408	0.2
789.582	0.27
789.756	0.46
789.93	0.4
790.104	0.39
790.278	0.21
790.452	0.48
790.626	0.73
790.8	0.36
790.973	0.65
791.147	0.51
791.321	0.5
791.495	0.61
791.669	0.65
791.843	0.54
792.016	0.52
792.19	0.65
792.364	0.38
792.538	0.88
792.711	0.65
792.885	0.28
793.059	0.36
793.233	-0.09
793.406	0.8
793.58	0.7
793.754	0.53
793.927	0.62
794.101	0.79
794.274	0.73
794.448	0.94
794.622	0.29
794.795	0.9
794.969	0.34
795.142	0.94
795.316	0.39
795.489	0.39
795.663	1.11
795.836	0.66
796.009	0.57
796.183	0.86
796.356	0.66
796.53	0.49
796.703	0.18
796.876	1.14
797.05	0.39
797.223	0.32
797.396	0.71
797.57	0.45
797.743	0.69
797.916	0.44
798.09	0.52
798.263	0.75
798.436	0.76
798.609	0.5
798.782	0.44
798.956	0.68
799.129	0.5
799.302	0.48
799.475	0.46
799.648	0.33
799.821	0.28
799.994	0.45
800.167	0.1
800.34	0.66
800.514	0.7
800.687	0.39
800.86	0.44
801.033	0.86
801.206	0.67
801.379	0.32
801.551	0.81
801.724	0.72
801.897	0.63
802.07	0.37
802.243	0.31
802.416	0.74
802.589	-0.02
802.762	0.84
802.935	0.43
803.107	0.94
803.28	0.79
803.453	0.86
803.626	0.54
803.798	0.88
803.971	0.41
804.144	0.52
804.317	0.8
804.489	0.55
804.662	0.51
804.835	0.51
805.007	0.49
805.18	0.87
805.353	0.61
805.525	0.13
805.698	0.39
805.87	0.94
806.043	0.75
806.215	0.2
806.388	0.56
806.56	0.75
806.733	1
806.905	0.47
807.078	0.66
807.25	0.23
807.423	0.54
807.595	0.68
807.768	0.66
807.94	1
808.112	0.75
808.285	0.79
808.457	0.54
808.629	0.88
808.802	0.99
808.974	0.85
809.146	0.39
809.318	0.23
809.491	0.92
809.663	0.39
809.835	0.38
810.007	1.1
810.18	0.54
810.352	0.14
810.524	0.34
810.696	0.67
810.868	0.9
811.04	0.31
811.212	0.25
811.384	0.8
811.556	0.85
811.728	0.78
811.901	1.25
812.073	0.44
812.245	0.88
812.417	0.62
812.589	0.46
812.76	0.63
812.932	1.17
813.104	0.78
813.276	0.58
813.448	1.03
813.62	0.37
813.792	0.94
813.964	0.5
814.136	0.67
814.307	0.51
814.479	0.76
814.651	0.48
814.823	1.35
814.995	0.57
815.166	0.6
815.338	0.62
815.51	0.42
815.681	1.25
815.853	1.1
816.025	0.33
816.196	0.63
816.368	0.75
816.54	-0.21
816.711	0.52
816.883	0.92
817.054	2
817.226	0.01
817.398	0.92
817.569	0.38
817.741	1.18
817.912	0.7
818.084	0.74
818.255	0.87
818.426	0.42
818.598	0.51
818.769	0.39
818.941	1.12
819.112	1.07
819.283	0.85
819.455	0.48
819.626	0.52
819.798	0.6
819.969	0.84
820.14	0.69
820.311	0.52
820.483	1.12
820.654	1.03
820.825	0.67
820.996	0.55
821.168	0.76
821.339	0.66
821.51	0.42
821.681	0.73
821.852	0.68
822.023	0.35
822.195	-0.19
822.366	1.08
822.537	0.56
822.708	1.13
822.879	0.91
823.05	1.44
823.221	0.62
823.392	1.36
823.563	1.02
823.734	1.08
823.905	1.36
824.076	0.65
824.247	0.67
824.418	0.4
824.589	1.1
824.759	1.13
824.93	0.97
825.101	0.07
825.272	1.04
825.443	1.61
825.614	0.99
825.784	-0.06
825.955	1.6
826.126	1.33
826.297	0.97
826.467	1.51
826.638	2.16
826.809	0.16
826.98	0.85
827.15	1.42
827.321	0.82
827.492	1.53
827.662	1.85
827.833	1.66
828.003	1.54
828.174	0.42
828.345	-0.04
828.515	1.8
828.686	1.18
828.856	0.18
829.027	1.01
829.197	0.2
829.368	1.58
829.538	0.96
829.709	0.53
829.879	1.12
830.049	0.57
830.22	1.12
830.39	1.44
830.56	1.38
830.731	0.94
830.901	0.74
831.072	1.41
831.242	1.41
831.412	1.07
831.582	1.49
831.753	0.2
831.923	1.73
832.093	1.28
832.263	1.5
832.434	0.75
832.604	0.62
832.774	1.04
832.944	0.98
833.114	0.33
833.284	1.03
833.454	0.47
833.624	0.75
833.795	1.18
833.965	1.32
834.135	2.01
834.305	0.68
834.475	0.61
834.645	0.21
834.815	1.44
834.985	0.8
835.155	0.58
835.325	1.8
835.494	1.07
835.664	1.07
835.834	0.19
836.004	1.1
836.174	1.23
836.344	1.06
836.514	0.23
836.684	1.39
836.853	1.29
837.023	1.78
837.193	0.6
837.363	2.51
837.532	1.49
837.702	1.67
837.872	0.51
838.041	1.57
838.211	2.28
838.381	0.73
838.55	1.29
838.72	2.66
838.89	1.96
839.059	0.91
839.229	0.45
839.398	2.12
839.568	1.24
839.738	1.31
839.907	2.13
840.077	1.58
840.246	0.71
840.416	0.73
840.585	0.54
840.755	2.26
840.924	2.26
841.093	-0.11
841.263	1.01
841.432	1.36
841.602	0.45
841.771	0.33
841.94	1.18
842.11	2.7
842.279	1.99
842.448	1.51
842.617	0.57
842.787	2.05
842.956	1.02
843.125	1.6
843.294	1.27
843.464	1.92
843.633	1.01
843.802	0.5
843.971	0.56
844.14	1.78
844.309	2.27
844.479	-0.34
844.648	1.04
844.817	0.91
844.986	1.25
845.155	0.15
845.324	1.3
845.493	1.26
845.662	0.57
845.831	2.38
846	1.81
846.169	0.9
846.338	2.95
846.507	1.24
846.676	1.09
846.844	0.97
847.013	2.65
847.182	1.59
847.351	1.26
847.52	1.15
847.689	1.05
847.858	0.8
848.026	0.48
848.195	0.81
848.364	0.68
848.533	0.71
848.701	0.89
848.87	1.3
849.039	2
849.207	2.22
849.376	2.17
849.545	2.54
849.713	1.43
849.882	1.33
850.051	1.19
850.219	1.56
850.388	2.42
850.556	0.89
850.725	1.24
850.893	2.68
851.062	1.44
851.23	2.02
851.399	0.51
851.567	1.06
851.736	0.44
851.904	0.54
852.073	1.52
852.241	2.23
852.41	1.11
852.578	1.01
852.746	1.01
852.915	1.61
853.083	0.62
853.251	1
853.42	0.89
853.588	1.63
853.756	2.09
853.924	2.74
854.093	1.45
854.261	1.59
854.429	0.47
854.597	2.36
854.765	-0.45
854.934	2.04
855.102	2.7
855.27	1.47
855.438	2.07
855.606	2.6
855.774	2.05
855.942	0.33
856.11	0.9
856.278	2.19
856.446	1.7
856.614	0.62
856.782	1.21
856.95	3.04
857.118	1.97
857.286	1.94
857.454	1.06
857.622	1.62
857.79	2.54
857.958	0.69
858.126	1.24
858.294	0.8
858.462	1.07
858.629	2.25
858.797	0.31
858.965	2.03
859.133	2.45
859.301	0.84
859.468	1.38
859.636	0.98
859.804	3.17
859.971	2.6
860.139	1.63
860.307	3.31
860.474	3.11
860.642	0.66
860.81	1.01
860.977	2.2
861.145	1.71
861.313	1.28
861.48	0.68
861.648	2.38
861.815	1.01
861.983	0.71
862.15	1.39
862.318	1.73
862.485	2
862.653	2.09
862.82	0.72
862.988	2.22
863.155	2.39
863.322	2.12
863.49	-1.06
863.657	0.87
863.824	3.56
863.992	1.24
864.159	2.38
864.326	2.36
864.494	1.6
864.661	3.33
864.828	-0.21
864.996	3.22
865.163	3.55
865.33	1.43
865.497	0.05
865.664	1.84
865.832	-0.49
865.999	2.25
866.166	0.81
866.333	1.76
866.5	3.19
866.667	0.99
866.834	0.99
867.001	3.58
867.168	0.62
867.335	2.55
867.502	-0.3
867.669	0.96
867.836	3.48
868.003	1.11
868.17	3.76
868.337	2.12
868.504	4.04
868.671	0.53
868.838	1.86
869.005	2.92
869.172	4.06
869.339	2.14
869.505	1.26
869.672	3.46
869.839	3.05
870.006	0.8
870.173	0.22
870.339	2.58
870.506	5.19
870.673	0.53
870.84	2.98
871.006	3.47
871.173	1.42
871.34	1.85
871.506	1.38
871.673	2.4
871.839	0.47
872.006	3.21
872.173	1.86
872.339	2.88
872.506	3.36
872.672	2.57
872.839	0.48
873.005	3.83
873.172	5.37
873.338	4.68
873.505	1.81
873.671	1.81
873.838	2
874.004	-0.05
874.171	1.35
874.337	3.54
874.503	2.99
874.67	1.98
874.836	2.1
875.002	5.63
875.169	2.53
875.335	1.81
875.501	1.93
875.668	4.95
875.834	2.48
876	1.65
876.166	4.79
876.332	0.23
876.499	5.07
876.665	1.45
876.831	1.35
876.997	5.73
877.163	2.73
877.329	1.59
877.495	4.28
877.662	2.82
877.828	4.43
877.994	1.62
878.16	-0.26
878.326	0.98
878.492	2.4
878.658	3.09
878.824	2.86
878.99	4.33
879.156	1.69
879.322	4.44
879.487	2.26
879.653	2.31
879.819	2.08
879.985	1.19
880.151	3.63
880.317	1.55
880.483	3.28
880.648	5.32
880.814	0.52
880.98	3.45
881.146	0.45
881.312	1.27
881.477	3.41
881.643	2.84
881.809	3.89
881.974	4.7
882.14	0.5
882.306	4.4
882.471	4.44
882.637	1.76
882.803	3.27
882.968	3.91
883.134	5.33
883.299	2.02
883.465	1.96
883.63	4.51
883.796	3.58
883.961	1.24
884.127	2.66
884.292	-2.1
884.458	0.22
884.623	0.22
