Data from Apollo_Calib_20240827__AbsoluteIrradiance__887__13-56-01-143.txt Node

Date: Wed Aug 28 13:56:01 BST 2024
User: biology
Spectrometer: FLMT08252
Trigger mode: 0
Integration Time (sec): 5.000000E-1
Scans to average: 5
Electric dark correction enabled: true
Nonlinearity correction enabled: false
Boxcar width: 0
XAxis mode: Wavelengths
Number of Pixels in Spectrum: 3648
>>>>>Begin Spectral Data<<<<<
179.588	-0
179.809	-0
180.03	-0
180.251	-0
180.473	-0
180.694	0
180.915	0
181.136	-0
181.357	-0
181.578	-0
181.799	0
182.02	-0
182.241	0
182.462	-0
182.683	0
182.904	-0
183.125	-0
183.346	0
183.567	0
183.788	0
184.009	0
184.23	0
184.451	0
184.672	0
184.892	0
185.113	0
185.334	0
185.555	0
185.776	0
185.996	0
186.217	0
186.438	0
186.659	0
186.879	0
187.1	0
187.321	0
187.541	0
187.762	0
187.983	0
188.203	0
188.424	0
188.644	0
188.865	0
189.086	0
189.306	0
189.527	0
189.747	0
189.968	0
190.188	0
190.409	0
190.629	0
190.849	0
191.07	0
191.29	0
191.511	0
191.731	0
191.951	0
192.172	0
192.392	0
192.612	0
192.833	0
193.053	0
193.273	0
193.493	0
193.714	0
193.934	0
194.154	0
194.374	0
194.594	0
194.815	0
195.035	0
195.255	0
195.475	0
195.695	0
195.915	0
196.135	0
196.355	0
196.575	0
196.795	0
197.015	0
197.235	0
197.455	0
197.675	0
197.895	0
198.115	0
198.335	0
198.555	0
198.775	0
198.995	0
199.214	0
199.434	0
199.654	0
199.874	0
200.094	4.26
200.313	2.61
200.533	1.78
200.753	1.95
200.973	3.87
201.192	3.57
201.412	1.52
201.632	1.42
201.851	3.63
202.071	2.14
202.291	1.72
202.51	1.38
202.73	3.24
202.95	1.58
203.169	1.26
203.389	1.58
203.608	2.26
203.828	1.91
204.047	1.51
204.267	2.4
204.486	2.17
204.706	1.94
204.925	1.91
205.145	1.7
205.364	2.58
205.583	2.77
205.803	1.16
206.022	1.29
206.242	1.52
206.461	2.36
206.68	1.55
206.9	1.43
207.119	2.7
207.338	2.22
207.557	1.47
207.777	1.32
207.996	1.48
208.215	2.4
208.434	1.12
208.654	0.66
208.873	1.63
209.092	2.13
209.311	0.97
209.53	1.01
209.749	1.07
209.968	1.05
210.187	1.2
210.407	0.79
210.626	1.28
210.845	1.73
211.064	1.26
211.283	0.6
211.502	1.54
211.721	1.19
211.94	1.14
212.159	1.31
212.377	1.49
212.596	1.39
212.815	1.2
213.034	1.12
213.253	1.34
213.472	1.49
213.691	1.03
213.91	0.82
214.128	0.61
214.347	1.63
214.566	0.39
214.785	0.5
215.003	1.21
215.222	1.27
215.441	0.97
215.66	0.6
215.878	1.07
216.097	1.27
216.316	0.77
216.534	0.89
216.753	1.31
216.972	0.92
217.19	0.85
217.409	0.67
217.627	0.88
217.846	0.82
218.064	1.11
218.283	0.74
218.501	1.58
218.72	1.18
218.938	0.7
219.157	0.61
219.375	1.16
219.594	1.13
219.812	0.5
220.031	0.52
220.249	1.23
220.467	1.12
220.686	0.66
220.904	0.44
221.122	0.85
221.341	1.26
221.559	0.83
221.777	0.44
221.995	0.86
222.214	1.07
222.432	0.67
222.65	0.87
222.868	0.65
223.086	0.85
223.305	0.97
223.523	0.66
223.741	1.04
223.959	0.58
224.177	0.35
224.395	0.49
224.613	0.85
224.831	0.94
225.049	0.45
225.267	0.71
225.485	0.79
225.703	0.58
225.921	0.6
226.139	0.55
226.357	0.85
226.575	0.91
226.793	0.54
227.011	1.55
227.229	0.74
227.447	0.87
227.665	0.62
227.883	0.38
228.1	0.7
228.318	0.75
228.536	0.34
228.754	0.5
228.972	0.75
229.189	0.95
229.407	0.49
229.625	0.68
229.843	0.99
230.06	0.85
230.278	0.63
230.496	0.53
230.713	0.73
230.931	0.86
231.149	0.28
231.366	0.25
231.584	0.57
231.801	1.04
232.019	0.55
232.236	0.38
232.454	0.47
232.671	0.74
232.889	0.46
233.106	0.38
233.324	0.61
233.541	0.58
233.759	0.63
233.976	0.35
234.194	0.64
234.411	0.57
234.628	0.27
234.846	0.43
235.063	0.55
235.28	0.61
235.498	0.41
235.715	0.58
235.932	0.86
236.149	0.6
236.367	0.36
236.584	0.57
236.801	0.4
237.018	0.7
237.236	0.49
237.453	0.37
237.67	0.68
237.887	0.53
238.104	0.46
238.321	0.32
238.538	0.42
238.755	0.72
238.973	0.34
239.19	0.48
239.407	0.61
239.624	0.57
239.841	0.37
240.058	0.41
240.275	0.56
240.492	0.59
240.709	0.48
240.925	0.43
241.142	0.58
241.359	0.34
241.576	0.39
241.793	0.31
242.01	0.51
242.227	0.63
242.444	0.53
242.66	0.63
242.877	0.61
243.094	0.46
243.311	0.48
243.527	0.47
243.744	0.5
243.961	0.53
244.178	0.42
244.394	0.43
244.611	0.67
244.828	0.68
245.044	0.31
245.261	0.29
245.477	0.5
245.694	0.57
245.911	0.25
246.127	0.51
246.344	0.65
246.56	0.57
246.777	0.37
246.993	0.36
247.21	0.48
247.426	0.51
247.643	0.43
247.859	0.27
248.076	0.33
248.292	0.69
248.508	0.4
248.725	0.47
248.941	0.6
249.157	0.68
249.374	0.26
249.59	0.41
249.806	0.44
250.023	0.51
250.239	0.39
250.455	0.27
250.671	0.5
250.888	0.57
251.104	0.45
251.32	0.38
251.536	0.36
251.752	0.4
251.969	0.39
252.185	0.4
252.401	0.66
252.617	0.52
252.833	0.29
253.049	0.41
253.265	0.49
253.481	0.41
253.697	0.36
253.913	0.29
254.129	0.48
254.345	0.43
254.561	0.37
254.777	0.35
254.993	0.47
255.209	0.48
255.425	0.39
255.641	0.34
255.857	0.48
256.073	0.45
256.288	0.22
256.504	0.4
256.72	0.43
256.936	0.66
257.152	0.4
257.367	0.26
257.583	0.46
257.799	0.49
258.015	0.36
258.23	0.3
258.446	0.68
258.662	0.38
258.877	0.3
259.093	0.25
259.309	0.46
259.524	0.46
259.74	0.34
259.955	0.27
260.171	0.4
260.387	0.39
260.602	0.45
260.818	0.43
261.033	0.27
261.249	0.43
261.464	0.3
261.68	0.26
261.895	0.44
262.11	0.47
262.326	0.31
262.541	0.23
262.757	0.44
262.972	0.49
263.187	0.37
263.403	0.34
263.618	0.49
263.833	0.41
264.049	0.3
264.264	0.34
264.479	0.41
264.694	0.55
264.91	0.27
265.125	0.31
265.34	0.53
265.555	0.65
265.77	0.42
265.986	0.27
266.201	0.41
266.416	0.52
266.631	0.33
266.846	0.31
267.061	0.47
267.276	0.45
267.491	0.24
267.706	0.4
267.921	0.41
268.136	0.44
268.351	0.37
268.566	0.23
268.781	0.47
268.996	0.43
269.211	0.38
269.426	0.27
269.641	0.33
269.856	0.5
270.071	0.33
270.285	0.19
270.5	0.48
270.715	0.45
270.93	0.32
271.145	0.43
271.359	0.46
271.574	0.34
271.789	0.28
272.004	0.25
272.218	0.35
272.433	0.46
272.648	0.24
272.862	0.42
273.077	0.36
273.292	0.34
273.506	0.26
273.721	0.21
273.936	0.39
274.15	0.48
274.365	0.29
274.579	0.37
274.794	0.4
275.008	0.47
275.223	0.29
275.437	0.37
275.652	0.4
275.866	0.38
276.081	0.27
276.295	0.41
276.509	0.34
276.724	0.35
276.938	0.36
277.153	0.4
277.367	0.32
277.581	0.3
277.796	0.28
278.01	0.21
278.224	0.37
278.438	0.5
278.653	0.23
278.867	0.27
279.081	0.19
279.295	0.3
279.51	0.31
279.724	0.15
279.938	0.4
280.152	0.36
280.366	0.24
280.58	0.31
280.794	0.41
281.008	0.38
281.222	0.38
281.437	0.49
281.651	0.43
281.865	0.45
282.079	0.31
282.293	0.19
282.507	0.25
282.721	0.29
282.935	0.33
283.148	0.24
283.362	0.29
283.576	0.27
283.79	0.24
284.004	0.26
284.218	0.43
284.432	0.28
284.646	0.32
284.859	0.27
285.073	0.3
285.287	0.34
285.501	0.27
285.714	0.3
285.928	0.35
286.142	0.39
286.356	0.26
286.569	0.31
286.783	0.43
286.997	0.36
287.21	0.29
287.424	0.3
287.637	0.29
287.851	0.26
288.065	0.35
288.278	0.26
288.492	0.35
288.705	0.25
288.919	0.34
289.132	0.19
289.346	0.38
289.559	0.17
289.773	0.22
289.986	0.27
290.2	0.27
290.413	0.36
290.626	0.28
290.84	0.27
291.053	0.31
291.267	0.37
291.48	0.3
291.693	0.25
291.906	0.29
292.12	0.29
292.333	0.26
292.546	0.3
292.76	0.38
292.973	0.34
293.186	0.34
293.399	0.27
293.612	0.32
293.826	0.27
294.039	0.23
294.252	0.26
294.465	0.33
294.678	0.3
294.891	0.31
295.104	0.23
295.317	0.29
295.53	0.32
295.743	0.29
295.956	0.26
296.169	0.47
296.382	0.36
296.595	0.23
296.808	0.23
297.021	0.36
297.234	0.35
297.447	0.26
297.66	0.25
297.873	0.34
298.086	0.35
298.299	0.2
298.511	0.14
298.724	0.28
298.937	0.22
299.15	0.23
299.363	0.26
299.575	0.36
299.788	0.31
300.001	0.23
300.213	0.24
300.426	0.3
300.639	0.24
300.852	0.23
301.064	0.33
301.277	0.36
301.489	0.34
301.702	0.32
301.915	0.29
302.127	0.27
302.34	0.31
302.552	0.31
302.765	0.22
302.977	0.39
303.19	0.25
303.402	0.3
303.615	0.23
303.827	0.26
304.04	0.25
304.252	0.3
304.464	0.26
304.677	0.43
304.889	0.37
305.102	0.19
305.314	0.23
305.526	0.31
305.739	0.27
305.951	0.18
306.163	0.23
306.375	0.36
306.588	0.24
306.8	0.25
307.012	0.2
307.224	0.26
307.436	0.35
307.649	0.19
307.861	0.24
308.073	0.33
308.285	0.23
308.497	0.21
308.709	0.23
308.921	0.25
309.133	0.34
309.346	0.22
309.558	0.26
309.77	0.28
309.982	0.36
310.194	0.29
310.406	0.24
310.617	0.38
310.829	0.28
311.041	0.29
311.253	0.21
311.465	0.22
311.677	0.26
311.889	0.22
312.101	0.22
312.313	0.32
312.524	0.37
312.736	0.2
312.948	0.26
313.16	0.39
313.372	0.32
313.583	0.31
313.795	0.27
314.007	0.28
314.218	0.31
314.43	0.28
314.642	0.23
314.853	0.17
315.065	0.35
315.277	0.25
315.488	0.29
315.7	0.31
315.912	0.32
316.123	0.28
316.335	0.27
316.546	0.39
316.758	0.3
316.969	0.23
317.181	0.26
317.392	0.27
317.604	0.29
317.815	0.17
318.026	0.18
318.238	0.27
318.449	0.34
318.661	0.14
318.872	0.15
319.083	0.22
319.295	0.31
319.506	0.23
319.717	0.29
319.929	0.31
320.14	0.28
320.351	0.29
320.562	0.22
320.774	0.3
320.985	0.24
321.196	0.23
321.407	0.17
321.618	0.34
321.829	0.28
322.041	0.31
322.252	0.23
322.463	0.32
322.674	0.31
322.885	0.18
323.096	0.24
323.307	0.26
323.518	0.31
323.729	0.2
323.94	0.21
324.151	0.21
324.362	0.28
324.573	0.29
324.784	0.25
324.995	0.33
325.206	0.31
325.417	0.27
325.628	0.26
325.838	0.28
326.049	0.32
326.26	0.33
326.471	0.24
326.682	0.31
326.892	0.33
327.103	0.17
327.314	0.2
327.525	0.37
327.735	0.26
327.946	0.22
328.157	0.2
328.368	0.27
328.578	0.27
328.789	0.31
328.999	0.28
329.21	0.26
329.421	0.33
329.631	0.22
329.842	0.21
330.052	0.29
330.263	0.25
330.473	0.29
330.684	0.25
330.894	0.31
331.105	0.25
331.315	0.31
331.526	0.21
331.736	0.37
331.947	0.29
332.157	0.29
332.367	0.18
332.578	0.29
332.788	0.34
332.999	0.32
333.209	0.23
333.419	0.22
333.629	0.31
333.84	0.26
334.05	0.28
334.26	0.37
334.47	0.31
334.681	0.28
334.891	0.18
335.101	0.33
335.311	0.38
335.521	0.22
335.732	0.19
335.942	0.28
336.152	0.28
336.362	0.34
336.572	0.26
336.782	0.35
336.992	0.21
337.202	0.24
337.412	0.25
337.622	0.32
337.832	0.27
338.042	0.27
338.252	0.23
338.462	0.27
338.672	0.27
338.882	0.3
339.092	0.26
339.302	0.37
339.511	0.29
339.721	0.28
339.931	0.18
340.141	0.36
340.351	0.3
340.561	0.29
340.77	0.32
340.98	0.3
341.19	0.31
341.4	0.25
341.609	0.18
341.819	0.27
342.029	0.21
342.238	0.27
342.448	0.22
342.658	0.36
342.867	0.24
343.077	0.21
343.286	0.25
343.496	0.3
343.706	0.37
343.915	0.21
344.125	0.27
344.334	0.28
344.544	0.24
344.753	0.23
344.963	0.2
345.172	0.19
345.381	0.22
345.591	0.2
345.8	0.24
346.01	0.36
346.219	0.31
346.428	0.14
346.638	0.23
346.847	0.26
347.056	0.33
347.266	0.21
347.475	0.22
347.684	0.37
347.893	0.32
348.103	0.26
348.312	0.23
348.521	0.26
348.73	0.27
348.94	0.2
349.149	0.2
349.358	0.26
349.567	0.23
349.776	0.16
349.985	0.2
350.194	0.33
350.403	0.35
350.612	0.18
350.821	0.21
351.03	0.23
351.239	0.19
351.448	0.26
351.657	0.2
351.866	0.4
352.075	0.29
352.284	0.26
352.493	0.2
352.702	0.36
352.911	0.3
353.12	0.24
353.329	0.25
353.538	0.31
353.746	0.21
353.955	0.19
354.164	0.27
354.373	0.21
354.582	0.3
354.79	0.27
354.999	0.31
355.208	0.26
355.416	0.34
355.625	0.21
355.834	0.22
356.042	0.27
356.251	0.24
356.46	0.18
356.668	0.27
356.877	0.37
357.085	0.3
357.294	0.2
357.503	0.27
357.711	0.23
357.92	0.46
358.128	0.26
358.337	0.21
358.545	0.26
358.754	0.26
358.962	0.3
359.17	0.24
359.379	0.25
359.587	0.24
359.796	0.26
360.004	0.35
360.212	0.31
360.421	0.33
360.629	0.24
360.837	0.2
361.046	0.3
361.254	0.4
361.462	0.25
361.67	0.23
361.879	0.28
362.087	0.39
362.295	0.26
362.503	0.22
362.711	0.23
362.92	0.27
363.128	0.2
363.336	0.18
363.544	0.21
363.752	0.27
363.96	0.25
364.168	0.24
364.376	0.29
364.584	0.23
364.792	0.31
365	0.24
365.208	0.28
365.416	0.31
365.624	0.3
365.832	0.22
366.04	0.34
366.248	0.23
366.456	0.29
366.664	0.26
366.872	0.26
367.079	0.27
367.287	0.3
367.495	0.25
367.703	0.21
367.911	0.26
368.118	0.21
368.326	0.27
368.534	0.2
368.742	0.32
368.949	0.2
369.157	0.2
369.365	0.31
369.572	0.28
369.78	0.21
369.988	0.28
370.195	0.27
370.403	0.29
370.61	0.25
370.818	0.29
371.026	0.34
371.233	0.25
371.441	0.22
371.648	0.19
371.856	0.27
372.063	0.25
372.271	0.26
372.478	0.2
372.685	0.25
372.893	0.31
373.1	0.23
373.308	0.25
373.515	0.39
373.722	0.35
373.93	0.27
374.137	0.29
374.344	0.34
374.552	0.34
374.759	0.29
374.966	0.27
375.173	0.28
375.381	0.34
375.588	0.26
375.795	0.18
376.002	0.21
376.209	0.26
376.417	0.27
376.624	0.3
376.831	0.33
377.038	0.23
377.245	0.21
377.452	0.23
377.659	0.29
377.866	0.29
378.073	0.26
378.28	0.27
378.487	0.32
378.694	0.31
378.901	0.23
379.108	0.25
379.315	0.3
379.522	0.33
379.729	0.31
379.936	0.26
380.143	0.31
380.35	0.29
380.557	0.23
380.763	0.22
380.97	0.29
381.177	0.28
381.384	0.28
381.591	0.26
381.797	0.28
382.004	0.37
382.211	0.28
382.418	0.22
382.624	0.33
382.831	0.36
383.038	0.21
383.244	0.29
383.451	0.32
383.658	0.31
383.864	0.25
384.071	0.21
384.277	0.4
384.484	0.27
384.69	0.36
384.897	0.28
385.103	0.29
385.31	0.28
385.516	0.26
385.723	0.23
385.929	0.31
386.136	0.27
386.342	0.34
386.549	0.23
386.755	0.36
386.961	0.34
387.168	0.27
387.374	0.27
387.58	0.34
387.787	0.37
387.993	0.32
388.199	0.31
388.406	0.27
388.612	0.27
388.818	0.26
389.024	0.28
389.231	0.27
389.437	0.42
389.643	0.31
389.849	0.26
390.055	0.32
390.261	0.29
390.467	0.37
390.674	0.29
390.88	0.33
391.086	0.35
391.292	0.27
391.498	0.34
391.704	0.38
391.91	0.3
392.116	0.32
392.322	0.21
392.528	0.36
392.734	0.29
392.94	0.34
393.146	0.35
393.352	0.36
393.557	0.28
393.763	0.28
393.969	0.35
394.175	0.31
394.381	0.37
394.587	0.28
394.792	0.3
394.998	0.38
395.204	0.4
395.41	0.27
395.615	0.35
395.821	0.33
396.027	0.35
396.233	0.31
396.438	0.39
396.644	0.38
396.85	0.4
397.055	0.33
397.261	0.33
397.466	0.43
397.672	0.33
397.878	0.37
398.083	0.36
398.289	0.3
398.494	0.44
398.7	0.41
398.905	0.22
399.111	0.45
399.316	0.28
399.522	0.38
399.727	0.35
399.932	0.34
400.138	0.34
400.343	0.41
400.549	0.36
400.754	0.39
400.959	0.36
401.165	0.32
401.37	0.35
401.575	0.36
401.78	0.39
401.986	0.34
402.191	0.38
402.396	0.4
402.601	0.42
402.807	0.36
403.012	0.41
403.217	0.46
403.422	0.43
403.627	0.45
403.832	0.42
404.037	0.5
404.243	0.47
404.448	0.38
404.653	0.45
404.858	0.48
405.063	0.45
405.268	0.37
405.473	0.41
405.678	0.42
405.883	0.64
406.088	0.48
406.293	0.4
406.498	0.45
406.703	0.56
406.907	0.51
407.112	0.42
407.317	0.55
407.522	0.58
407.727	0.48
407.932	0.61
408.136	0.69
408.341	0.54
408.546	0.59
408.751	0.57
408.956	0.61
409.16	0.69
409.365	0.55
409.57	0.58
409.774	0.59
409.979	0.69
410.184	0.73
410.388	0.62
410.593	0.78
410.798	0.78
411.002	0.74
411.207	0.8
411.411	0.81
411.616	0.73
411.82	0.8
412.025	0.85
412.229	0.83
412.434	0.97
412.638	0.94
412.843	0.92
413.047	0.99
413.252	0.95
413.456	0.98
413.66	1.06
413.865	1.01
414.069	1.12
414.273	1.1
414.478	1.08
414.682	1.18
414.886	1.19
415.091	1.15
415.295	1.2
415.499	1.36
415.703	1.31
415.908	1.42
416.112	1.34
416.316	1.55
416.52	1.5
416.724	1.48
416.929	1.51
417.133	1.77
417.337	1.64
417.541	1.67
417.745	1.76
417.949	1.92
418.153	1.97
418.357	1.85
418.561	2.12
418.765	2.09
418.969	2.27
419.173	2.29
419.377	2.32
419.581	2.56
419.785	2.43
419.989	2.51
420.193	2.72
420.397	2.72
420.601	2.86
420.804	2.94
421.008	2.91
421.212	3.12
421.416	3.12
421.62	3.07
421.823	3.2
422.027	3.38
422.231	3.32
422.435	3.27
422.638	3.36
422.842	3.51
423.046	3.51
423.249	3.74
423.453	3.8
423.657	3.88
423.86	3.93
424.064	4.13
424.268	4.2
424.471	4.22
424.675	4.45
424.878	4.59
425.082	4.7
425.285	4.94
425.489	4.81
425.692	4.96
425.896	5.01
426.099	5.22
426.303	5.36
426.506	5.43
426.71	5.76
426.913	5.92
427.116	6.07
427.32	6.07
427.523	6.14
427.726	6.51
427.93	6.45
428.133	6.8
428.336	6.91
428.54	7.09
428.743	7.31
428.946	7.59
429.149	7.58
429.353	7.58
429.556	7.66
429.759	7.79
429.962	7.82
430.165	7.99
430.368	7.66
430.571	7.75
430.775	7.69
430.978	7.79
431.181	7.94
431.384	7.9
431.587	8.07
431.79	8.44
431.993	8.31
432.196	8.71
432.399	8.96
432.602	9.22
432.805	9.2
433.008	9.89
433.211	9.53
433.414	9.98
433.616	10.09
433.819	9.92
434.022	10.1
434.225	10.37
434.428	10.28
434.631	10.8
434.833	10.56
435.036	10.81
435.239	11.08
435.442	10.99
435.645	11.24
435.847	11.31
436.05	11.69
436.253	11.8
436.455	11.9
436.658	11.78
436.861	12.08
437.063	12.15
437.266	12.14
437.468	12.56
437.671	12.86
437.874	12.86
438.076	12.68
438.279	13.1
438.481	13.2
438.684	13.81
438.886	13.57
439.089	13.62
439.291	13.89
439.494	14.25
439.696	14.23
439.899	14.94
440.101	15.26
440.303	15.45
440.506	16.21
440.708	15.86
440.91	16.07
441.113	16.22
441.315	16.66
441.517	16.42
441.72	16.87
441.922	16.38
442.124	16.38
442.326	16.8
442.529	17.16
442.731	17.07
442.933	17.31
443.135	17.07
443.337	17.08
443.539	17.61
443.742	17.22
443.944	17.83
444.146	17.78
444.348	17.67
444.55	17.53
444.752	17.79
444.954	17.8
445.156	17.72
445.358	17.97
445.56	18.47
445.762	18.16
445.964	18.61
446.166	18.15
446.368	18.53
446.57	18.34
446.772	17.94
446.974	17.62
447.175	18.22
447.377	17.81
447.579	18.21
447.781	17.93
447.983	17.64
448.184	17.28
448.386	17.64
448.588	17.23
448.79	17.1
448.991	17.42
449.193	17.51
449.395	16.7
449.597	16.48
449.798	16.45
450	16.04
450.202	15.97
450.403	15.97
450.605	15.85
450.806	15.47
451.008	15.26
451.21	15.14
451.411	14.8
451.613	13.97
451.814	14.32
452.016	14.24
452.217	13.55
452.419	13.55
452.62	13.18
452.821	12.95
453.023	12.82
453.224	12.49
453.426	12.07
453.627	11.38
453.828	11.39
454.03	11.52
454.231	11.54
454.432	11.33
454.634	11.14
454.835	10.76
455.036	10.67
455.238	10.32
455.439	10.11
455.64	9.74
455.841	9.66
456.042	9.87
456.244	9.51
456.445	9.12
456.646	8.83
456.847	8.84
457.048	8.67
457.249	8.73
457.45	8.53
457.651	7.93
457.852	7.84
458.054	7.48
458.255	7.4
458.456	7.52
458.657	7.37
458.858	6.91
459.058	6.91
459.259	6.9
459.46	6.63
459.661	6.61
459.862	6.66
460.063	6.54
460.264	6.51
460.465	6.06
460.666	6.17
460.866	5.91
461.067	5.72
461.268	5.67
461.469	5.74
461.67	5.53
461.87	5.44
462.071	5.41
462.272	5.33
462.473	5.21
462.673	5.44
462.874	5.27
463.075	5.22
463.275	5.25
463.476	5.34
463.676	5.22
463.877	5.03
464.078	5.13
464.278	5.17
464.479	4.98
464.679	4.92
464.88	4.96
465.08	4.94
465.281	4.6
465.481	4.43
465.682	4.22
465.882	4.33
466.083	4.23
466.283	4.13
466.483	4.02
466.684	3.84
466.884	3.73
467.085	3.82
467.285	3.91
467.485	3.75
467.686	3.68
467.886	3.55
468.086	3.5
468.286	3.53
468.487	3.62
468.687	3.39
468.887	3.34
469.087	3.54
469.287	3.35
469.488	3.21
469.688	3.32
469.888	3.35
470.088	3.23
470.288	3.19
470.488	3.21
470.688	2.98
470.888	2.99
471.088	2.82
471.288	2.99
471.488	2.86
471.688	2.85
471.888	2.81
472.088	2.95
472.288	2.84
472.488	2.73
472.688	2.66
472.888	2.71
473.088	2.66
473.288	2.59
473.488	2.53
473.688	2.71
473.887	2.58
474.087	2.48
474.287	2.55
474.487	2.47
474.687	2.53
474.886	2.44
475.086	2.41
475.286	2.37
475.486	2.38
475.685	2.31
475.885	2.29
476.085	2.35
476.284	2.32
476.484	2.33
476.684	2.3
476.883	2.41
477.083	2.25
477.282	2.21
477.482	2.23
477.681	2.21
477.881	2.11
478.08	2.17
478.28	2.09
478.479	2.17
478.679	2.23
478.878	2.08
479.078	2.08
479.277	2.14
479.477	2.09
479.676	2.1
479.875	2.06
480.075	1.96
480.274	2.1
480.473	2.14
480.673	2.07
480.872	2.14
481.071	2.14
481.271	2.13
481.47	2.01
481.669	2.07
481.868	2
482.067	2.03
482.267	1.97
482.466	1.99
482.665	1.95
482.864	1.99
483.063	2.01
483.262	2.11
483.461	2.12
483.661	2.12
483.86	2.07
484.059	2.11
484.258	2.11
484.457	2.01
484.656	2.09
484.855	2.13
485.054	1.99
485.253	2.04
485.452	2.01
485.651	2.11
485.849	2.05
486.048	2.05
486.247	2.06
486.446	2.15
486.645	2.06
486.844	2.13
487.043	2.12
487.241	2.13
487.44	2.11
487.639	2.16
487.838	2.13
488.037	2.19
488.235	2.27
488.434	2.18
488.633	2.07
488.831	2.26
489.03	2.25
489.229	2.24
489.427	2.24
489.626	2.29
489.825	2.34
490.023	2.3
490.222	2.33
490.42	2.3
490.619	2.37
490.817	2.43
491.016	2.38
491.214	2.41
491.413	2.48
491.611	2.38
491.81	2.41
492.008	2.5
492.207	2.57
492.405	2.53
492.604	2.51
492.802	2.58
493	2.67
493.199	2.62
493.397	2.64
493.595	2.7
493.794	2.69
493.992	2.81
494.19	2.7
494.388	2.84
494.587	2.8
494.785	2.79
494.983	2.76
495.181	2.85
495.379	2.92
495.578	2.94
495.776	2.99
495.974	2.96
496.172	2.99
496.37	3.13
496.568	3.09
496.766	3.11
496.964	3.18
497.162	3.16
497.36	3.25
497.558	3.22
497.756	3.31
497.954	3.29
498.152	3.36
498.35	3.43
498.548	3.38
498.746	3.38
498.944	3.41
499.142	3.45
499.34	3.53
499.538	3.62
499.736	3.55
499.933	3.64
500.131	3.61
500.329	3.8
500.527	3.78
500.725	3.9
500.922	3.87
501.12	3.88
501.318	3.97
501.516	3.9
501.713	4.01
501.911	3.98
502.109	3.95
502.306	4.11
502.504	4.01
502.701	4.11
502.899	4.14
503.097	4.29
503.294	4.27
503.492	4.32
503.689	4.39
503.887	4.39
504.084	4.47
504.282	4.34
504.479	4.36
504.677	4.61
504.874	4.55
505.072	4.45
505.269	4.68
505.466	4.71
505.664	4.74
505.861	4.6
506.059	4.77
506.256	4.72
506.453	4.81
506.651	4.94
506.848	4.96
507.045	4.98
507.242	4.97
507.44	5.05
507.637	5.09
507.834	5.02
508.031	5.16
508.229	5.08
508.426	5.07
508.623	5.27
508.82	5.22
509.017	5.24
509.214	5.22
509.411	5.37
509.608	5.31
509.805	5.45
510.003	5.39
510.2	5.46
510.397	5.65
510.594	5.44
510.791	5.62
510.988	5.6
511.184	5.59
511.381	5.5
511.578	5.69
511.775	5.81
511.972	5.65
512.169	5.8
512.366	5.78
512.563	5.93
512.76	5.91
512.956	5.95
513.153	5.88
513.35	5.86
513.547	5.88
513.744	6.02
513.94	5.97
514.137	6.12
514.334	6.13
514.53	6.11
514.727	6.33
514.924	6.23
515.12	6.2
515.317	6.22
515.514	6.19
515.71	6.16
515.907	6.43
516.103	6.38
516.3	6.32
516.497	6.48
516.693	6.45
516.89	6.46
517.086	6.44
517.283	6.57
517.479	6.41
517.676	6.58
517.872	6.62
518.068	6.63
518.265	6.57
518.461	6.5
518.658	6.69
518.854	6.69
519.05	6.78
519.247	6.75
519.443	6.7
519.639	6.86
519.836	6.73
520.032	6.72
520.228	6.91
520.424	6.87
520.621	6.83
520.817	6.98
521.013	6.85
521.209	7.09
521.405	7.04
521.601	7.02
521.798	6.93
521.994	6.99
522.19	6.96
522.386	6.92
522.582	7.08
522.778	7.2
522.974	7.09
523.17	7.07
523.366	7.04
523.562	7.18
523.758	7.14
523.954	7
524.15	7.18
524.346	7.23
524.542	7.2
524.738	7.19
524.934	7.38
525.129	7.36
525.325	7.22
525.521	7.2
525.717	7.44
525.913	7.25
526.109	7.34
526.304	7.48
526.5	7.42
526.696	7.45
526.892	7.35
527.087	7.58
527.283	7.47
527.479	7.52
527.674	7.27
527.87	7.5
528.066	7.44
528.261	7.49
528.457	7.43
528.653	7.54
528.848	7.58
529.044	7.65
529.239	7.5
529.435	7.53
529.63	7.45
529.826	7.53
530.021	7.51
530.217	7.62
530.412	7.55
530.608	7.6
530.803	7.6
530.999	7.5
531.194	7.58
531.389	7.67
531.585	7.63
531.78	7.77
531.975	7.7
532.171	7.74
532.366	7.64
532.561	7.78
532.757	7.67
532.952	7.89
533.147	7.67
533.342	7.73
533.538	7.65
533.733	7.85
533.928	7.58
534.123	7.74
534.318	7.88
534.513	7.69
534.709	7.85
534.904	7.83
535.099	7.88
535.294	7.87
535.489	7.85
535.684	7.76
535.879	7.83
536.074	7.93
536.269	7.89
536.464	7.91
536.659	7.88
536.854	7.85
537.049	7.96
537.244	7.83
537.439	7.85
537.634	7.9
537.828	7.95
538.023	7.88
538.218	7.9
538.413	7.79
538.608	7.92
538.803	7.94
538.997	7.88
539.192	7.94
539.387	7.92
539.582	7.93
539.776	7.87
539.971	8.02
540.166	7.98
540.36	7.89
540.555	8.01
540.75	7.91
540.944	8.03
541.139	8.03
541.334	7.95
541.528	7.96
541.723	8.04
541.917	8.07
542.112	7.93
542.306	7.86
542.501	7.9
542.695	7.9
542.89	7.93
543.084	7.94
543.279	7.99
543.473	8.06
543.668	8.01
543.862	7.89
544.056	7.93
544.251	8.06
544.445	8.17
544.64	8.12
544.834	7.82
545.028	7.65
545.222	8.02
545.417	8.28
545.611	8.09
545.805	8.06
546	7.84
546.194	8.05
546.388	8.07
546.582	7.95
546.776	8.03
546.97	8.08
547.165	8.03
547.359	7.98
547.553	7.93
547.747	7.99
547.941	8.15
548.135	8.05
548.329	8.09
548.523	8.07
548.717	8
548.911	7.95
549.105	7.95
549.299	8.1
549.493	8.07
549.687	7.97
549.881	8.14
550.075	8.08
550.269	7.91
550.463	8.1
550.657	8.05
550.85	8.03
551.044	8.04
551.238	8.08
551.432	8.07
551.626	8.2
551.82	8.18
552.013	7.98
552.207	8.18
552.401	8.14
552.594	8.11
552.788	7.99
552.982	8.09
553.176	8.04
553.369	8.18
553.563	8.15
553.756	8.06
553.95	8.13
554.144	8.17
554.337	8.12
554.531	7.97
554.724	8.14
554.918	8.13
555.111	8.08
555.305	8.14
555.498	8.07
555.692	8.18
555.885	8.13
556.079	8.04
556.272	8.1
556.466	8.07
556.659	8.04
556.852	8.17
557.046	8.02
557.239	7.97
557.432	8.01
557.626	8.16
557.819	8.19
558.012	8.09
558.206	8.22
558.399	8.09
558.592	8.06
558.785	8.06
558.979	8.1
559.172	8.11
559.365	8.11
559.558	8.02
559.751	8.01
559.944	8.18
560.138	8.09
560.331	8.13
560.524	8.11
560.717	8.09
560.91	8.06
561.103	8.12
561.296	7.95
561.489	8.17
561.682	8.17
561.875	8.18
562.068	8.2
562.261	7.97
562.454	8.21
562.647	8.01
562.84	8.05
563.032	8.08
563.225	8.03
563.418	8.09
563.611	8.14
563.804	8.11
563.997	7.95
564.19	7.84
564.382	8.19
564.575	8.11
564.768	8.09
564.961	8.1
565.153	8.07
565.346	8.03
565.539	8.09
565.731	8.09
565.924	8.16
566.117	8.22
566.309	8.08
566.502	8.09
566.695	8
566.887	8.11
567.08	8.13
567.272	8.09
567.465	8
567.657	8.12
567.85	7.95
568.042	8.07
568.235	8.1
568.427	7.91
568.62	8.01
568.812	7.98
569.005	8.09
569.197	7.89
569.389	8.05
569.582	8.04
569.774	8.04
569.966	7.91
570.159	7.92
570.351	7.93
570.543	8.02
570.736	8.02
570.928	7.87
571.12	8.05
571.312	7.99
571.505	7.78
571.697	8.04
571.889	8.05
572.081	7.96
572.273	7.85
572.465	7.98
572.658	8
572.85	8
573.042	7.99
573.234	7.87
573.426	7.91
573.618	7.89
573.81	7.97
574.002	7.97
574.194	7.92
574.386	7.85
574.578	7.78
574.77	7.87
574.962	7.88
575.154	7.81
575.346	7.79
575.538	7.83
575.729	7.81
575.921	7.87
576.113	7.87
576.305	7.86
576.497	7.98
576.689	7.79
576.88	7.75
577.072	7.88
577.264	7.79
577.456	7.86
577.647	7.76
577.839	7.98
578.031	7.82
578.223	7.76
578.414	7.68
578.606	7.84
578.798	7.9
578.989	7.82
579.181	7.83
579.372	7.77
579.564	7.85
579.755	7.71
579.947	7.74
580.139	7.83
580.33	7.63
580.522	7.79
580.713	7.72
580.905	7.65
581.096	7.8
581.287	7.66
581.479	7.69
581.67	7.82
581.862	7.68
582.053	7.65
582.244	7.5
582.436	7.78
582.627	7.6
582.818	7.57
583.01	7.54
583.201	7.66
583.392	7.7
583.583	7.52
583.775	7.47
583.966	7.52
584.157	7.64
584.348	7.7
584.54	7.57
584.731	7.6
584.922	7.51
585.113	7.36
585.304	7.51
585.495	7.53
585.686	7.63
585.877	7.56
586.068	7.68
586.259	7.64
586.45	7.51
586.641	7.46
586.832	7.56
587.023	7.48
587.214	7.5
587.405	7.54
587.596	7.39
587.787	7.37
587.978	7.48
588.169	7.34
588.36	7.32
588.551	7.43
588.742	7.42
588.932	7.4
589.123	7.23
589.314	7.41
589.505	7.32
589.696	7.34
589.886	7.26
590.077	7.33
590.268	7.26
590.458	7.15
590.649	7.1
590.84	7.27
591.03	7.25
591.221	7.25
591.412	7.15
591.602	7.34
591.793	7.21
591.984	7.18
592.174	7.25
592.365	7.32
592.555	7.05
592.746	7.11
592.936	7.08
593.127	7.18
593.317	7.2
593.508	7.16
593.698	7.03
593.889	7.12
594.079	7.01
594.269	6.99
594.46	6.99
594.65	7.08
594.84	7.08
595.031	6.92
595.221	6.93
595.411	7
595.602	7.04
595.792	6.95
595.982	6.85
596.172	6.97
596.363	6.85
596.553	6.85
596.743	6.92
596.933	6.93
597.123	6.9
597.314	6.75
597.504	6.74
597.694	6.89
597.884	6.77
598.074	6.81
598.264	6.79
598.454	6.83
598.644	6.72
598.834	6.71
599.024	6.68
599.214	6.7
599.404	6.77
599.594	6.71
599.784	6.61
599.974	6.76
600.164	6.72
600.354	6.59
600.544	6.49
600.734	6.67
600.924	6.6
601.114	6.48
601.303	6.48
601.493	6.54
601.683	6.55
601.873	6.48
602.063	6.43
602.252	6.49
602.442	6.35
602.632	6.38
602.821	6.3
603.011	6.44
603.201	6.36
603.39	6.33
603.58	6.25
603.77	6.37
603.959	6.45
604.149	6.31
604.339	6.29
604.528	6.42
604.718	6.34
604.907	6.28
605.097	6.17
605.286	6.18
605.476	6.24
605.665	6.29
605.855	6.15
606.044	6.23
606.234	6.26
606.423	6.16
606.612	6.16
606.802	6.05
606.991	6.2
607.181	6.19
607.37	6.06
607.559	5.9
607.749	6.1
607.938	5.96
608.127	5.99
608.316	5.96
608.506	6
608.695	6.08
608.884	5.94
609.073	5.97
609.263	6
609.452	5.96
609.641	5.89
609.83	5.78
610.019	5.91
610.208	5.85
610.397	5.82
610.586	5.9
610.775	5.82
610.965	5.78
611.154	5.68
611.343	5.8
611.532	5.65
611.721	5.78
611.91	5.69
612.099	5.73
612.287	5.6
612.476	5.56
612.665	5.76
612.854	5.62
613.043	5.61
613.232	5.59
613.421	5.56
613.61	5.53
613.798	5.55
613.987	5.57
614.176	5.51
614.365	5.5
614.554	5.48
614.742	5.48
614.931	5.39
615.12	5.53
615.309	5.43
615.497	5.35
615.686	5.23
615.875	5.37
616.063	5.37
616.252	5.3
616.44	5.35
616.629	5.29
616.818	5.29
617.006	5.28
617.195	5.23
617.383	5.22
617.572	5.12
617.76	5.1
617.949	5.18
618.137	5.28
618.326	5.22
618.514	5
618.703	4.99
618.891	5.14
619.079	4.99
619.268	5.16
619.456	5.03
619.644	5.11
619.833	5.04
620.021	4.98
620.209	4.88
620.398	4.97
620.586	4.91
620.774	5
620.962	4.93
621.151	4.99
621.339	4.86
621.527	4.79
621.715	4.8
621.903	4.83
622.092	4.72
622.28	4.96
622.468	4.66
622.656	4.8
622.844	4.69
623.032	4.82
623.22	4.64
623.408	4.75
623.596	4.8
623.784	4.74
623.972	4.57
624.16	4.62
624.348	4.78
624.536	4.7
624.724	4.57
624.912	4.62
625.1	4.58
625.288	4.56
625.476	4.48
625.664	4.61
625.851	4.52
626.039	4.52
626.227	4.43
626.415	4.48
626.603	4.4
626.79	4.48
626.978	4.41
627.166	4.45
627.354	4.38
627.541	4.37
627.729	4.24
627.917	4.45
628.104	4.43
628.292	4.26
628.48	4.28
628.667	4.27
628.855	4.37
629.042	4.31
629.23	4.23
629.418	4.23
629.605	4.28
629.793	4.17
629.98	4.17
630.168	4.11
630.355	4.14
630.543	4.14
630.73	4.07
630.917	4.1
631.105	4.22
631.292	4.13
631.48	4.05
631.667	4.17
631.854	4.04
632.042	4.05
632.229	3.88
632.416	4.02
632.604	4.01
632.791	3.86
632.978	3.97
633.165	3.93
633.353	4.01
633.54	3.95
633.727	3.77
633.914	3.85
634.101	3.83
634.289	3.93
634.476	3.79
634.663	3.78
634.85	3.81
635.037	3.72
635.224	3.66
635.411	3.78
635.598	3.71
635.785	3.65
635.972	3.66
636.159	3.75
636.346	3.64
636.533	3.6
636.72	3.65
636.907	3.62
637.094	3.6
637.281	3.48
637.468	3.56
637.655	3.6
637.842	3.59
638.029	3.5
638.215	3.48
638.402	3.53
638.589	3.45
638.776	3.44
638.963	3.43
639.149	3.57
639.336	3.55
639.523	3.44
639.709	3.43
639.896	3.36
640.083	3.42
640.27	3.42
640.456	3.26
640.643	3.34
640.829	3.26
641.016	3.28
641.203	3.2
641.389	3.3
641.576	3.29
641.762	3.24
641.949	3.16
642.135	3.27
642.322	3.22
642.508	3.08
642.695	3.26
642.881	3.15
643.068	3.13
643.254	3.12
643.441	3.15
643.627	3.15
643.813	3.05
644	3.12
644.186	3.02
644.372	3.05
644.559	3.12
644.745	2.99
644.931	3
645.118	3.03
645.304	3.02
645.49	2.95
645.676	2.99
645.862	2.94
646.049	3.02
646.235	2.94
646.421	3.03
646.607	3.02
646.793	2.93
646.979	2.85
647.165	2.87
647.352	2.85
647.538	2.94
647.724	2.81
647.91	2.84
648.096	2.88
648.282	2.88
648.468	2.77
648.654	2.83
648.84	2.87
649.026	2.75
649.212	2.73
649.397	2.7
649.583	2.73
649.769	2.75
649.955	2.71
650.141	2.72
650.327	2.73
650.513	2.61
650.698	2.72
650.884	2.59
651.07	2.72
651.256	2.65
651.442	2.63
651.627	2.51
651.813	2.69
651.999	2.54
652.184	2.61
652.37	2.58
652.556	2.53
652.741	2.56
652.927	2.43
653.113	2.48
653.298	2.51
653.484	2.49
653.669	2.41
653.855	2.45
654.04	2.53
654.226	2.49
654.412	2.41
654.597	2.34
654.782	2.42
654.968	2.47
655.153	2.36
655.339	2.37
655.524	2.36
655.71	2.43
655.895	2.31
656.08	2.36
656.266	2.38
656.451	2.36
656.636	2.28
656.822	2.31
657.007	2.31
657.192	2.27
657.378	2.24
657.563	2.3
657.748	2.3
657.933	2.26
658.118	2.19
658.304	2.22
658.489	2.28
658.674	2.21
658.859	2.14
659.044	2.19
659.229	2.21
659.414	2.13
659.599	2.15
659.785	2.11
659.97	2.17
660.155	2.14
660.34	2.17
660.525	2.09
660.71	2.07
660.895	2.14
661.08	2.04
661.264	2.02
661.449	2.13
661.634	2.02
661.819	2.05
662.004	1.99
662.189	1.97
662.374	1.94
662.559	1.98
662.743	1.92
662.928	2.01
663.113	1.97
663.298	1.91
663.483	1.89
663.667	1.96
663.852	1.91
664.037	1.97
664.221	1.87
664.406	1.97
664.591	1.98
664.775	1.95
664.96	1.89
665.145	1.88
665.329	1.95
665.514	1.84
665.698	1.81
665.883	1.75
666.068	1.89
666.252	1.86
666.437	1.76
666.621	1.85
666.806	1.83
666.99	1.83
667.174	1.79
667.359	1.83
667.543	1.8
667.728	1.77
667.912	1.69
668.096	1.76
668.281	1.74
668.465	1.75
668.649	1.66
668.834	1.68
669.018	1.72
669.202	1.7
669.387	1.68
669.571	1.79
669.755	1.64
669.939	1.66
670.124	1.7
670.308	1.72
670.492	1.71
670.676	1.62
670.86	1.6
671.044	1.61
671.228	1.63
671.413	1.6
671.597	1.58
671.781	1.58
671.965	1.64
672.149	1.6
672.333	1.61
672.517	1.55
672.701	1.6
672.885	1.57
673.069	1.52
673.253	1.6
673.437	1.56
673.621	1.48
673.804	1.55
673.988	1.52
674.172	1.5
674.356	1.44
674.54	1.52
674.724	1.63
674.908	1.48
675.091	1.56
675.275	1.5
675.459	1.57
675.643	1.55
675.826	1.47
676.01	1.49
676.194	1.44
676.377	1.5
676.561	1.46
676.745	1.41
676.928	1.47
677.112	1.52
677.296	1.4
677.479	1.36
677.663	1.38
677.846	1.41
678.03	1.43
678.213	1.33
678.397	1.49
678.58	1.39
678.764	1.38
678.947	1.32
679.131	1.31
679.314	1.37
679.498	1.33
679.681	1.34
679.865	1.43
680.048	1.37
680.231	1.28
680.415	1.28
680.598	1.22
680.781	1.26
680.965	1.29
681.148	1.3
681.331	1.26
681.514	1.31
681.698	1.18
681.881	1.26
682.064	1.32
682.247	1.34
682.43	1.17
682.614	1.24
682.797	1.4
682.98	1.28
683.163	1.13
683.346	1.23
683.529	1.23
683.712	1.17
683.895	1.24
684.078	1.12
684.261	1.16
684.444	1.21
684.627	1.25
684.81	1.14
684.993	1.19
685.176	1.19
685.359	1.11
685.542	1.1
685.725	1.19
685.908	1.19
686.091	1.09
686.274	1.2
686.457	1.19
686.639	1.21
686.822	1.18
687.005	1.12
687.188	1.22
687.371	1.32
687.553	1.18
687.736	1.12
687.919	1.27
688.102	1.21
688.284	1.12
688.467	1.08
688.65	1.11
688.832	1.04
689.015	1.07
689.197	0.96
689.38	1.24
689.563	1.26
689.745	0.96
689.928	0.98
690.11	1.07
690.293	1.03
690.475	0.94
690.658	1.1
690.84	1.04
691.023	0.98
691.205	0.95
691.388	1.01
691.57	1.07
691.752	1.08
691.935	0.95
692.117	0.97
692.3	1.07
692.482	1.01
692.664	0.95
692.847	0.95
693.029	1.08
693.211	1.01
693.393	0.87
693.576	0.93
693.758	1.03
693.94	0.97
694.122	0.97
694.304	0.95
694.487	0.93
694.669	1.01
694.851	0.86
695.033	0.88
695.215	0.89
695.397	0.94
695.579	0.92
695.761	0.84
695.943	0.86
696.125	1.02
696.308	0.95
696.49	0.75
696.671	1.08
696.853	0.95
697.035	1.16
697.217	0.86
697.399	1.02
697.581	0.84
697.763	0.88
697.945	0.81
698.127	0.89
698.309	0.97
698.491	0.9
698.672	0.92
698.854	0.91
699.036	1
699.218	0.83
699.399	0.94
699.581	0.95
699.763	0.81
699.945	0.77
700.126	0.77
700.308	0.88
700.49	0.83
700.671	0.77
700.853	0.8
701.035	0.77
701.216	0.83
701.398	0.75
701.579	0.82
701.761	0.91
701.943	0.75
702.124	0.74
702.306	0.79
702.487	0.99
702.669	0.8
702.85	0.79
703.031	0.72
703.213	1
703.394	0.85
703.576	0.76
703.757	0.97
703.938	0.84
704.12	1.06
704.301	0.68
704.483	0.7
704.664	0.86
704.845	0.86
705.026	0.88
705.208	0.73
705.389	0.8
705.57	0.78
705.751	0.77
705.933	0.78
706.114	0.87
706.295	0.8
706.476	0.62
706.657	0.87
706.838	0.8
707.02	0.84
707.201	0.71
707.382	0.7
707.563	0.84
707.744	0.72
707.925	0.68
708.106	0.7
708.287	0.69
708.468	0.86
708.649	0.74
708.83	0.71
709.011	0.7
709.192	0.75
709.373	0.64
709.554	0.68
709.734	0.79
709.915	0.79
710.096	0.72
710.277	0.55
710.458	0.7
710.639	0.77
710.819	0.54
711	0.65
711.181	0.77
711.362	0.77
711.542	0.62
711.723	0.64
711.904	0.82
712.085	0.71
712.265	0.64
712.446	0.61
712.627	0.66
712.807	0.63
712.988	0.71
713.168	0.48
713.349	0.77
713.53	0.54
713.71	0.54
713.891	0.55
714.071	0.66
714.252	0.66
714.432	0.6
714.613	0.51
714.793	0.59
714.974	0.73
715.154	0.73
715.334	0.72
715.515	0.8
715.695	0.49
715.876	0.6
716.056	0.6
716.236	0.54
716.417	0.64
716.597	0.61
716.777	0.88
716.957	0.64
717.138	0.65
717.318	0.64
717.498	0.51
717.678	0.62
717.859	0.66
718.039	0.51
718.219	0.53
718.399	0.62
718.579	0.53
718.759	0.53
718.939	0.61
719.12	0.68
719.3	0.63
719.48	0.49
719.66	0.48
719.84	0.7
720.02	0.64
720.2	0.47
720.38	0.57
720.56	0.7
720.74	0.48
720.92	0.64
721.1	0.77
721.279	0.67
721.459	0.61
721.639	0.49
721.819	0.5
721.999	0.52
722.179	0.63
722.359	0.38
722.538	0.56
722.718	0.69
722.898	0.59
723.078	0.6
723.257	0.52
723.437	0.62
723.617	0.61
723.797	0.56
723.976	0.56
724.156	0.62
724.336	0.69
724.515	0.76
724.695	0.38
724.874	0.58
725.054	0.68
725.234	0.49
725.413	0.6
725.593	0.49
725.772	0.56
725.952	0.6
726.131	0.42
726.311	0.53
726.49	0.49
726.67	0.45
726.849	0.43
727.028	0.53
727.208	0.47
727.387	0.52
727.567	0.38
727.746	0.46
727.925	0.45
728.105	0.47
728.284	0.43
728.463	0.54
728.643	0.61
728.822	0.32
729.001	0.46
729.18	0.57
729.359	0.62
729.539	0.5
729.718	0.49
729.897	0.61
730.076	0.5
730.255	0.47
730.434	0.44
730.614	0.59
730.793	0.66
730.972	0.52
731.151	0.52
731.33	0.67
731.509	0.57
731.688	0.49
731.867	0.49
732.046	0.37
732.225	0.81
732.404	0.45
732.583	0.43
732.762	0.46
732.941	0.58
733.12	0.51
733.298	0.46
733.477	0.76
733.656	0.41
733.835	0.3
734.014	0.62
734.193	0.52
734.371	0.65
734.55	0.59
734.729	0.39
734.908	0.56
735.086	0.58
735.265	0.63
735.444	0.3
735.623	0.3
735.801	0.41
735.98	0.58
736.159	0.51
736.337	0.68
736.516	0.51
736.694	0.63
736.873	0.43
737.052	0.82
737.23	0.7
737.409	0.41
737.587	0.77
737.766	0.43
737.944	0.55
738.123	0.54
738.301	0.68
738.479	0.61
738.658	0.62
738.836	0.3
739.015	0.52
739.193	0.61
739.371	0.24
739.55	0.53
739.728	0.34
739.906	0.57
740.085	0.76
740.263	0.49
740.441	0.34
740.62	0.78
740.798	0.61
740.976	0.35
741.154	0.35
741.332	0.67
741.511	0.47
741.689	0.41
741.867	0.55
742.045	0.59
742.223	0.47
742.401	0.41
742.579	0.35
742.757	0.56
742.935	0.36
743.114	0.39
743.292	0.39
743.47	0.46
743.648	0.58
743.826	0.52
744.004	0.49
744.181	0.57
744.359	0.45
744.537	0.57
744.715	0.46
744.893	0.49
745.071	0.56
745.249	0.39
745.427	0.53
745.605	0.53
745.782	0.52
745.96	0.56
746.138	0.57
746.316	0.57
746.493	0.4
746.671	0.44
746.849	0.42
747.027	0.69
747.204	0.46
747.382	0.5
747.56	0.33
747.737	0.4
747.915	0.33
748.093	0.48
748.27	0.37
748.448	0.44
748.625	0.28
748.803	0.39
748.98	0.35
749.158	0.51
749.335	0.68
749.513	0.39
749.69	0.37
749.868	0.47
750.045	0.53
750.223	0.3
750.4	0.26
750.578	0.62
750.755	0.48
750.932	0.26
751.11	0.57
751.287	0.29
751.464	0.65
751.642	0.33
751.819	0.45
751.996	0.36
752.173	0.44
752.351	0.3
752.528	0.34
752.705	0.44
752.882	0.33
753.06	0.44
753.237	0.4
753.414	0.59
753.591	0.72
753.768	0.42
753.945	0.37
754.122	0.41
754.299	0.45
754.476	0.42
754.654	0.43
754.831	0.63
755.008	0.37
755.185	0.21
755.362	0.2
755.539	0.49
755.716	0.43
755.892	0.4
756.069	0.41
756.246	0.33
756.423	0.44
756.6	0.65
756.777	0.33
756.954	0.42
757.131	0.48
757.307	0.32
757.484	0.21
757.661	0.36
757.838	0.57
758.015	0.19
758.191	0.48
758.368	0.47
758.545	0.66
758.721	0.44
758.898	0.22
759.075	0.47
759.251	0.37
759.428	0.52
759.605	0.15
759.781	0.44
759.958	0.59
760.134	0.45
760.311	0.33
760.488	0.69
760.664	0.63
760.841	0.35
761.017	0.26
761.194	0.48
761.37	0.53
761.547	0.38
761.723	0.29
761.899	0.61
762.076	0.31
762.252	0.23
762.429	0.35
762.605	0.52
762.781	0.29
762.958	0.43
763.134	0.22
763.31	0.36
763.486	0.58
763.663	0.11
763.839	0.39
764.015	0.15
764.191	0.37
764.368	0.27
764.544	0.23
764.72	0.38
764.896	0.49
765.072	0.33
765.248	0.45
765.425	0.4
765.601	0.46
765.777	0.45
765.953	0.13
766.129	0.36
766.305	0.34
766.481	0.43
766.657	0.33
766.833	0.55
767.009	0.3
767.185	0.37
767.361	0.37
767.537	0.08
767.713	0.68
767.889	0.24
768.065	0.25
768.24	0.63
768.416	0.52
768.592	0.48
768.768	0.4
768.944	0.51
769.12	0.21
769.295	0.36
769.471	0.33
769.647	0.4
769.823	0.55
769.998	0.23
770.174	0.3
770.35	0.8
770.525	0.8
770.701	0.39
770.877	0.37
771.052	0.18
771.228	0.69
771.403	0.5
771.579	0.47
771.755	0.72
771.93	0.24
772.106	0.32
772.281	-0.03
772.457	0.38
772.632	0.45
772.808	0.1
772.983	0.37
773.159	0.15
773.334	0.65
773.509	0.47
773.685	0.34
773.86	0.85
774.036	0.52
774.211	0.53
774.386	0.38
774.562	0.36
774.737	0.46
774.912	0.33
775.087	0.43
775.263	0.33
775.438	0.46
775.613	0.3
775.788	0.32
775.964	0.64
776.139	0.9
776.314	0.23
776.489	0.51
776.664	0.43
776.839	0.33
777.014	0.56
777.19	0.65
777.365	0.8
777.54	0.61
777.715	0.27
777.89	0.42
778.065	0.25
778.24	0.49
778.415	0.54
778.59	0.26
778.765	0.45
778.94	0.53
779.115	0.31
779.289	0.28
779.464	0.46
779.639	0.4
779.814	0.09
779.989	0.13
780.164	0.61
780.339	0.56
780.513	0.51
780.688	0.15
780.863	0.5
781.038	0.81
781.212	0.08
781.387	0.3
781.562	0.81
781.737	0.33
781.911	0.68
782.086	0.3
782.261	0.33
782.435	0.74
782.61	0.28
782.784	0.33
782.959	0.57
783.134	0.45
783.308	0.19
783.483	0.4
783.657	1.08
783.832	0.75
784.006	0.22
784.181	0.62
784.355	0.58
784.53	0.26
784.704	0.15
784.878	0.7
785.053	0.8
785.227	0.69
785.402	0.77
785.576	0.21
785.75	0.49
785.925	0.2
786.099	0.48
786.273	0.48
786.448	0.74
786.622	0.84
786.796	0.37
786.97	0.38
787.145	1.22
787.319	0.05
787.493	0.41
787.667	0.12
787.841	0.64
788.015	0.81
788.19	0.34
788.364	0.45
788.538	0.72
788.712	0.54
788.886	0.4
789.06	0.83
789.234	0.76
789.408	0.19
789.582	0.5
789.756	0.13
789.93	0.54
790.104	0.33
790.278	0.41
790.452	0.29
790.626	0.65
790.8	0.29
790.973	0.67
791.147	0.79
791.321	1.07
791.495	0.87
791.669	0.53
791.843	0.46
792.016	0.58
792.19	1.01
792.364	0.32
792.538	1.2
792.711	0.7
792.885	0.25
793.059	0.27
793.233	0.14
793.406	0.72
793.58	0.72
793.754	0.51
793.927	0.47
794.101	1.12
794.274	0.44
794.448	0.7
794.622	0.22
794.795	1.08
794.969	0.53
795.142	0.71
795.316	0.36
795.489	0.26
795.663	1.07
795.836	0.4
796.009	0.17
796.183	0.95
796.356	0.57
796.53	0.82
796.703	0.69
796.876	1.42
797.05	0.38
797.223	0.49
797.396	0.83
797.57	0.62
797.743	1.15
797.916	0.66
798.09	0.53
798.263	1.2
798.436	0.85
798.609	0.55
798.782	0.5
798.956	0.79
799.129	0.52
799.302	0.27
799.475	0.25
799.648	0.33
799.821	0.42
799.994	0.32
800.167	0.1
800.34	0.39
800.514	0.58
800.687	0.34
800.86	0.3
801.033	0.78
801.206	0.76
801.379	0.23
801.551	0.74
801.724	0.88
801.897	1.46
802.07	0.42
802.243	0.02
802.416	0.76
802.589	0.84
802.762	0.68
802.935	0.39
803.107	0.95
803.28	1.05
803.453	1.04
803.626	0.45
803.798	0.49
803.971	0.57
804.144	0.48
804.317	0.78
804.489	0.99
804.662	0.88
804.835	0.53
805.007	0.31
805.18	1.28
805.353	0.66
805.525	0.41
805.698	0.54
805.87	0.94
806.043	1.04
806.215	0.09
806.388	0.42
806.56	0.72
806.733	1.03
806.905	0.85
807.078	0.25
807.25	0.33
807.423	1.16
807.595	0.79
807.768	0.6
807.94	1.17
808.112	0.64
808.285	0.76
808.457	0.23
808.629	0.62
808.802	0.88
808.974	0.69
809.146	0.39
809.318	0.29
809.491	0.85
809.663	0.86
809.835	0.29
810.007	0.59
810.18	0.72
810.352	0.14
810.524	0.54
810.696	0.83
810.868	1.01
811.04	0.51
811.212	0.17
811.384	1.14
811.556	0.77
811.728	0.62
811.901	1.69
812.073	0.61
812.245	1.23
812.417	0.59
812.589	0.03
812.76	0.9
812.932	1.07
813.104	1.17
813.276	1
813.448	1.3
813.62	0.41
813.792	0.78
813.964	0.66
814.136	0.93
814.307	0.64
814.479	0.61
814.651	0.4
814.823	1.9
814.995	0.44
815.166	0.73
815.338	0.18
815.51	0.17
815.681	2.55
815.853	0.59
816.025	0.35
816.196	1.44
816.368	1.65
816.54	0.43
816.711	0.47
816.883	1.2
817.054	2.03
817.226	0.49
817.398	0.91
817.569	0.39
817.741	0.99
817.912	0.67
818.084	0.39
818.255	1.24
818.426	0.38
818.598	0.71
818.769	0.13
818.941	1.14
819.112	1.69
819.283	0.85
819.455	0.3
819.626	0.73
819.798	1.3
819.969	0.92
820.14	0.56
820.311	0.62
820.483	0.88
820.654	0.62
820.825	0.45
820.996	0.79
821.168	0.26
821.339	0.91
821.51	0.12
821.681	0.67
821.852	0.79
822.023	0.6
822.195	0.24
822.366	1.65
822.537	0.9
822.708	0.88
822.879	0.3
823.05	1.92
823.221	0.68
823.392	0.79
823.563	0.85
823.734	1.37
823.905	0.88
824.076	0.49
824.247	-0.06
824.418	0.64
824.589	1.41
824.759	0.89
824.93	0.36
825.101	0.5
825.272	1.68
825.443	1.41
825.614	1.94
825.784	0.52
825.955	2.12
826.126	2.17
826.297	1.64
826.467	2.26
826.638	2.29
826.809	0.02
826.98	0.71
827.15	1.43
827.321	1.43
827.492	1.16
827.662	0.91
827.833	2.49
828.003	1.82
828.174	0.22
828.345	0.04
828.515	2.12
828.686	1.52
828.856	1.01
829.027	0.93
829.197	1.57
829.368	1.68
829.538	0.65
829.709	0.74
829.879	1.17
830.049	1.43
830.22	0.49
830.39	0.51
830.56	2.2
830.731	0.54
830.901	0.35
831.072	0.55
831.242	1.21
831.412	1.26
831.582	0.82
831.753	-0.25
831.923	1.99
832.093	1.59
832.263	0.89
832.434	0.21
832.604	0.85
832.774	1.75
832.944	0.62
833.114	0.37
833.284	1.73
833.454	0.72
833.624	0.6
833.795	0.67
833.965	2.29
834.135	2.94
834.305	-0.25
834.475	0.13
834.645	0.85
834.815	1.01
834.985	0.35
835.155	0.73
835.325	1.77
835.494	1.07
835.664	0.64
835.834	0.21
836.004	0.86
836.174	1.53
836.344	0.96
836.514	0.23
836.684	0.46
836.853	0.87
837.023	1.74
837.193	0.33
837.363	2.33
837.532	1.93
837.702	1.16
837.872	0.01
838.041	2.22
838.211	2.95
838.381	-0.11
838.55	1.01
838.72	3.88
838.89	2.53
839.059	0.7
839.229	0.17
839.398	3.46
839.568	1.51
839.738	0.16
839.907	2.15
840.077	1.51
840.246	0.58
840.416	1.27
840.585	0.06
840.755	3.56
840.924	2.22
841.093	0.26
841.263	0.41
841.432	1.79
841.602	0.59
841.771	0.48
841.94	1.17
842.11	3.02
842.279	2.64
842.448	-0.42
842.617	0.46
842.787	2.91
842.956	-0.01
843.125	1.35
843.294	0.84
843.464	2.83
843.633	1.71
843.802	-0.04
843.971	1.1
844.14	1.76
844.309	2.81
844.479	-0.76
844.648	0.26
844.817	2.36
844.986	0.9
845.155	0.25
845.324	0.93
845.493	1.15
845.662	1.42
845.831	2.5
846	1.58
846.169	1.01
846.338	2.44
846.507	1.82
846.676	1.6
846.844	0.51
847.013	2.14
847.182	1.25
847.351	0.24
847.52	1.55
847.689	2.71
847.858	1
848.026	0.71
848.195	2.19
848.364	-0.11
848.533	0.54
848.701	-0.24
848.87	2.22
849.039	2.74
849.207	1.92
849.376	2.22
849.545	3.35
849.713	0.72
849.882	0.88
850.051	1.67
850.219	1.71
850.388	2.35
850.556	-0.46
850.725	0.85
850.893	1.97
851.062	1.68
851.23	1.46
851.399	-0.12
851.567	2
851.736	2.11
851.904	0.48
852.073	1.5
852.241	2.64
852.41	2.15
852.578	1.77
852.746	0.68
852.915	2
853.083	2.52
853.251	-0.27
853.42	1.1
853.588	2.03
853.756	3.72
853.924	1.37
854.093	0.75
854.261	0.76
854.429	0.47
854.597	1.63
854.765	0.85
854.934	2.87
855.102	3.43
855.27	1.12
855.438	2.38
855.606	3.74
855.774	3.77
855.942	-0
856.11	-0.37
856.278	2.46
856.446	3.86
856.614	0.72
856.782	0.49
856.95	2.57
857.118	2.44
857.286	1.6
857.454	0.91
857.622	4.32
857.79	2.84
857.958	0.2
858.126	1.14
858.294	-0.12
858.462	1.3
858.629	0.68
858.797	0.72
858.965	3.08
859.133	1.66
859.301	2.67
859.468	2.11
859.636	1.84
859.804	4.55
859.971	1.76
860.139	0.1
860.307	3
860.474	2.71
860.642	-0.01
860.81	0.19
860.977	2.43
861.145	3.28
861.313	0.95
861.48	2.28
861.648	2.09
861.815	2.74
861.983	0.02
862.15	1.65
862.318	2.74
862.485	2.83
862.653	0.44
862.82	-1.07
862.988	4.6
863.155	1.31
863.322	0.42
863.49	1.21
863.657	1.68
863.824	4.19
863.992	3.82
864.159	1.23
864.326	4.24
864.494	0.79
864.661	3.64
864.828	0.41
864.996	4.12
865.163	3.46
865.33	1.63
865.497	-0.19
865.664	-0.57
865.832	1.51
865.999	0.99
866.166	0.97
866.333	1.45
866.5	0.64
866.667	0.28
866.834	2.03
867.001	3.29
867.168	1.59
867.335	1.33
867.502	1.02
867.669	1.85
867.836	6.06
868.003	2.39
868.17	3.4
868.337	1.77
868.504	5.85
868.671	-0.45
868.838	1.67
869.005	3.53
869.172	3.26
869.339	1.7
869.505	0.75
869.672	3.58
869.839	6.27
870.006	2.28
870.173	0.83
870.339	2.6
870.506	6.5
870.673	-0.58
870.84	2.27
871.006	2.53
871.173	2.64
871.34	1.33
871.506	0.88
871.673	3.55
871.839	0.35
872.006	4.22
872.173	1.79
872.339	4.35
872.506	4.51
872.672	3.58
872.839	-0.56
873.005	3.14
873.172	5.84
873.338	4.15
873.505	3.01
873.671	0.85
873.838	4.06
874.004	-1.16
874.171	0.04
874.337	2
874.503	4.2
874.67	2.23
874.836	2.99
875.002	5.07
875.169	5.53
875.335	2.03
875.501	2.8
875.668	4.69
875.834	3.25
876	1.77
876.166	2.55
876.332	3.74
876.499	8.2
876.665	2.13
876.831	2.42
876.997	7.2
877.163	4.16
877.329	1.6
877.495	1.47
877.662	4.5
877.828	2.3
877.994	2.55
878.16	0.23
878.326	1.6
878.492	3.53
878.658	1.68
878.824	3.06
878.99	4.06
879.156	3.75
879.322	2.83
879.487	1.95
879.653	3.09
879.819	3.5
879.985	1.72
880.151	2.21
880.317	2.37
880.483	2.61
880.648	2.44
880.814	-0.66
880.98	1.17
881.146	-1.08
881.312	1.51
881.477	1.19
881.643	3.41
881.809	4.27
881.974	3.43
882.14	1.91
882.306	3.72
882.471	7.41
882.637	0.63
882.803	2.63
882.968	4.54
883.134	7.25
883.299	1.56
883.465	2.76
883.63	4.99
883.796	2.14
883.961	4.3
884.127	2.61
884.292	-2.31
884.458	-0.52
884.623	-0.52
