Data from Apollo_Calib_20240827__AbsoluteIrradiance__4__23-13-00-267.txt Node

Date: Tue Aug 27 23:13:00 BST 2024
User: biology
Spectrometer: FLMT08252
Trigger mode: 0
Integration Time (sec): 5.000000E-1
Scans to average: 5
Electric dark correction enabled: true
Nonlinearity correction enabled: false
Boxcar width: 0
XAxis mode: Wavelengths
Number of Pixels in Spectrum: 3648
>>>>>Begin Spectral Data<<<<<
179.588	-0
179.809	-0
180.03	-0
180.251	-0
180.473	-0
180.694	0
180.915	0
181.136	-0
181.357	-0
181.578	-0
181.799	-0
182.02	-0
182.241	0
182.462	-0
182.683	0
182.904	-0
183.125	-0
183.346	0
183.567	0
183.788	0
184.009	0
184.23	0
184.451	0
184.672	0
184.892	0
185.113	0
185.334	0
185.555	0
185.776	0
185.996	0
186.217	0
186.438	0
186.659	0
186.879	0
187.1	0
187.321	0
187.541	0
187.762	0
187.983	0
188.203	0
188.424	0
188.644	0
188.865	0
189.086	0
189.306	0
189.527	0
189.747	0
189.968	0
190.188	0
190.409	0
190.629	0
190.849	0
191.07	0
191.29	0
191.511	0
191.731	0
191.951	0
192.172	0
192.392	0
192.612	0
192.833	0
193.053	0
193.273	0
193.493	0
193.714	0
193.934	0
194.154	0
194.374	0
194.594	0
194.815	0
195.035	0
195.255	0
195.475	0
195.695	0
195.915	0
196.135	0
196.355	0
196.575	0
196.795	0
197.015	0
197.235	0
197.455	0
197.675	0
197.895	0
198.115	0
198.335	0
198.555	0
198.775	0
198.995	0
199.214	0
199.434	0
199.654	0
199.874	0
200.094	4.3
200.313	2.36
200.533	2.29
200.753	1.91
200.973	2.76
201.192	2.67
201.412	2.09
201.632	2.65
201.851	2.88
202.071	2.05
202.291	1.83
202.51	2
202.73	2.31
202.95	1.63
203.169	1.82
203.389	2.3
203.608	2.26
203.828	1.26
204.047	2.29
204.267	2.28
204.486	1.57
204.706	1.76
204.925	1.7
205.145	1.59
205.364	2.38
205.583	2.28
205.803	1.33
206.022	1.43
206.242	1.58
206.461	1.76
206.68	1.34
206.9	1.67
207.119	1.79
207.338	1.66
207.557	1.25
207.777	1.65
207.996	1.48
208.215	1.74
208.434	1.39
208.654	1.21
208.873	1.38
209.092	1.73
209.311	1.29
209.53	1.25
209.749	1.25
209.968	0.92
210.187	1.28
210.407	0.8
210.626	1.17
210.845	1.39
211.064	1.33
211.283	1.22
211.502	1.63
211.721	1.04
211.94	1.05
212.159	1.42
212.377	1.23
212.596	1.6
212.815	1.11
213.034	1.27
213.253	1.33
213.472	1.43
213.691	1.06
213.91	0.93
214.128	0.88
214.347	1.33
214.566	0.96
214.785	0.65
215.003	1.16
215.222	1.08
215.441	1.01
215.66	0.73
215.878	1.01
216.097	1.3
216.316	0.74
216.534	1.03
216.753	0.9
216.972	0.8
217.19	0.97
217.409	0.74
217.627	0.77
217.846	0.8
218.064	0.88
218.283	0.73
218.501	1.04
218.72	1.13
218.938	0.76
219.157	0.78
219.375	0.96
219.594	0.93
219.812	0.74
220.031	0.75
220.249	0.97
220.467	1.11
220.686	0.89
220.904	0.62
221.122	0.65
221.341	1.05
221.559	1.02
221.777	0.75
221.995	0.84
222.214	0.7
222.432	0.64
222.65	0.82
222.868	0.82
223.086	0.6
223.305	0.85
223.523	0.65
223.741	0.86
223.959	0.63
224.177	0.35
224.395	0.66
224.613	0.66
224.831	0.71
225.049	0.47
225.267	0.7
225.485	0.59
225.703	0.62
225.921	0.61
226.139	0.68
226.357	0.9
226.575	0.74
226.793	0.6
227.011	1.03
227.229	0.66
227.447	0.69
227.665	0.6
227.883	0.49
228.1	0.61
228.318	0.62
228.536	0.33
228.754	0.59
228.972	0.77
229.189	0.77
229.407	0.6
229.625	0.53
229.843	0.68
230.06	0.73
230.278	0.5
230.496	0.69
230.713	0.7
230.931	0.57
231.149	0.72
231.366	0.49
231.584	0.69
231.801	0.87
232.019	0.58
232.236	0.5
232.454	0.51
232.671	0.55
232.889	0.54
233.106	0.43
233.324	0.58
233.541	0.46
233.759	0.58
233.976	0.41
234.194	0.57
234.411	0.53
234.628	0.41
234.846	0.71
235.063	0.51
235.28	0.47
235.498	0.7
235.715	0.49
235.932	0.55
236.149	0.55
236.367	0.5
236.584	0.63
236.801	0.47
237.018	0.53
237.236	0.65
237.453	0.35
237.67	0.6
237.887	0.44
238.104	0.55
238.321	0.44
238.538	0.55
238.755	0.53
238.973	0.43
239.19	0.55
239.407	0.49
239.624	0.53
239.841	0.28
240.058	0.47
240.275	0.53
240.492	0.4
240.709	0.53
240.925	0.47
241.142	0.47
241.359	0.48
241.576	0.49
241.793	0.48
242.01	0.5
242.227	0.56
242.444	0.61
242.66	0.52
242.877	0.55
243.094	0.41
243.311	0.5
243.527	0.44
243.744	0.53
243.961	0.54
244.178	0.42
244.394	0.43
244.611	0.55
244.828	0.55
245.044	0.39
245.261	0.51
245.477	0.5
245.694	0.46
245.911	0.43
246.127	0.47
246.344	0.51
246.56	0.44
246.777	0.45
246.993	0.52
247.21	0.37
247.426	0.45
247.643	0.43
247.859	0.38
248.076	0.48
248.292	0.5
248.508	0.42
248.725	0.45
248.941	0.48
249.157	0.53
249.374	0.46
249.59	0.41
249.806	0.39
250.023	0.44
250.239	0.31
250.455	0.38
250.671	0.35
250.888	0.52
251.104	0.44
251.32	0.37
251.536	0.39
251.752	0.34
251.969	0.48
252.185	0.43
252.401	0.51
252.617	0.46
252.833	0.41
253.049	0.38
253.265	0.41
253.481	0.44
253.697	0.43
253.913	0.36
254.129	0.37
254.345	0.41
254.561	0.37
254.777	0.46
254.993	0.41
255.209	0.43
255.425	0.38
255.641	0.35
255.857	0.44
256.073	0.38
256.288	0.41
256.504	0.34
256.72	0.43
256.936	0.45
257.152	0.4
257.367	0.35
257.583	0.41
257.799	0.47
258.015	0.33
258.23	0.41
258.446	0.49
258.662	0.38
258.877	0.37
259.093	0.37
259.309	0.38
259.524	0.41
259.74	0.28
259.955	0.33
260.171	0.39
260.387	0.36
260.602	0.42
260.818	0.5
261.033	0.33
261.249	0.28
261.464	0.34
261.68	0.3
261.895	0.31
262.11	0.41
262.326	0.4
262.541	0.34
262.757	0.46
262.972	0.3
263.187	0.36
263.403	0.4
263.618	0.5
263.833	0.36
264.049	0.28
264.264	0.36
264.479	0.44
264.694	0.44
264.91	0.3
265.125	0.4
265.34	0.46
265.555	0.47
265.77	0.38
265.986	0.26
266.201	0.38
266.416	0.42
266.631	0.36
266.846	0.37
267.061	0.46
267.276	0.38
267.491	0.25
267.706	0.34
267.921	0.31
268.136	0.42
268.351	0.38
268.566	0.3
268.781	0.4
268.996	0.37
269.211	0.36
269.426	0.33
269.641	0.31
269.856	0.41
270.071	0.3
270.285	0.33
270.5	0.4
270.715	0.42
270.93	0.3
271.145	0.43
271.359	0.36
271.574	0.3
271.789	0.35
272.004	0.41
272.218	0.39
272.433	0.36
272.648	0.28
272.862	0.46
273.077	0.25
273.292	0.37
273.506	0.34
273.721	0.34
273.936	0.42
274.15	0.4
274.365	0.38
274.579	0.38
274.794	0.36
275.008	0.43
275.223	0.26
275.437	0.32
275.652	0.46
275.866	0.35
276.081	0.36
276.295	0.42
276.509	0.32
276.724	0.28
276.938	0.36
277.153	0.34
277.367	0.37
277.581	0.33
277.796	0.29
278.01	0.32
278.224	0.35
278.438	0.39
278.653	0.29
278.867	0.26
279.081	0.31
279.295	0.27
279.51	0.37
279.724	0.25
279.938	0.34
280.152	0.33
280.366	0.27
280.58	0.37
280.794	0.3
281.008	0.32
281.222	0.37
281.437	0.4
281.651	0.3
281.865	0.34
282.079	0.29
282.293	0.22
282.507	0.29
282.721	0.28
282.935	0.28
283.148	0.25
283.362	0.24
283.576	0.27
283.79	0.33
284.004	0.25
284.218	0.32
284.432	0.24
284.646	0.32
284.859	0.28
285.073	0.29
285.287	0.25
285.501	0.3
285.714	0.32
285.928	0.31
286.142	0.21
286.356	0.24
286.569	0.25
286.783	0.32
286.997	0.3
287.21	0.35
287.424	0.3
287.637	0.3
287.851	0.31
288.065	0.25
288.278	0.3
288.492	0.33
288.705	0.29
288.919	0.36
289.132	0.18
289.346	0.35
289.559	0.24
289.773	0.28
289.986	0.28
290.2	0.26
290.413	0.28
290.626	0.26
290.84	0.27
291.053	0.31
291.267	0.31
291.48	0.27
291.693	0.27
291.906	0.2
292.12	0.23
292.333	0.21
292.546	0.26
292.76	0.31
292.973	0.29
293.186	0.34
293.399	0.25
293.612	0.34
293.826	0.22
294.039	0.26
294.252	0.28
294.465	0.28
294.678	0.33
294.891	0.31
295.104	0.23
295.317	0.28
295.53	0.25
295.743	0.23
295.956	0.27
296.169	0.26
296.382	0.27
296.595	0.27
296.808	0.24
297.021	0.31
297.234	0.25
297.447	0.27
297.66	0.3
297.873	0.26
298.086	0.25
298.299	0.24
298.511	0.23
298.724	0.29
298.937	0.22
299.15	0.21
299.363	0.26
299.575	0.27
299.788	0.25
300.001	0.23
300.213	0.19
300.426	0.26
300.639	0.26
300.852	0.23
301.064	0.3
301.277	0.32
301.489	0.29
301.702	0.32
301.915	0.28
302.127	0.21
302.34	0.27
302.552	0.3
302.765	0.22
302.977	0.27
303.19	0.21
303.402	0.26
303.615	0.25
303.827	0.19
304.04	0.25
304.252	0.27
304.464	0.26
304.677	0.29
304.889	0.33
305.102	0.21
305.314	0.25
305.526	0.29
305.739	0.26
305.951	0.22
306.163	0.22
306.375	0.28
306.588	0.28
306.8	0.21
307.012	0.19
307.224	0.27
307.436	0.3
307.649	0.18
307.861	0.3
308.073	0.33
308.285	0.23
308.497	0.21
308.709	0.21
308.921	0.25
309.133	0.3
309.346	0.26
309.558	0.28
309.77	0.3
309.982	0.23
310.194	0.27
310.406	0.21
310.617	0.3
310.829	0.28
311.041	0.25
311.253	0.19
311.465	0.27
311.677	0.26
311.889	0.29
312.101	0.22
312.313	0.28
312.524	0.24
312.736	0.24
312.948	0.22
313.16	0.27
313.372	0.3
313.583	0.28
313.795	0.26
314.007	0.2
314.218	0.22
314.43	0.26
314.642	0.27
314.853	0.22
315.065	0.28
315.277	0.27
315.488	0.29
315.7	0.31
315.912	0.24
316.123	0.22
316.335	0.27
316.546	0.27
316.758	0.24
316.969	0.23
317.181	0.28
317.392	0.26
317.604	0.23
317.815	0.19
318.026	0.22
318.238	0.28
318.449	0.27
318.661	0.23
318.872	0.21
319.083	0.21
319.295	0.28
319.506	0.22
319.717	0.28
319.929	0.24
320.14	0.27
320.351	0.26
320.562	0.25
320.774	0.25
320.985	0.25
321.196	0.28
321.407	0.2
321.618	0.29
321.829	0.23
322.041	0.28
322.252	0.25
322.463	0.27
322.674	0.26
322.885	0.25
323.096	0.24
323.307	0.21
323.518	0.23
323.729	0.21
323.94	0.24
324.151	0.24
324.362	0.25
324.573	0.27
324.784	0.28
324.995	0.29
325.206	0.28
325.417	0.22
325.628	0.27
325.838	0.21
326.049	0.26
326.26	0.27
326.471	0.22
326.682	0.28
326.892	0.28
327.103	0.24
327.314	0.21
327.525	0.3
327.735	0.25
327.946	0.28
328.157	0.22
328.368	0.3
328.578	0.19
328.789	0.25
328.999	0.25
329.21	0.24
329.421	0.22
329.631	0.23
329.842	0.26
330.052	0.31
330.263	0.28
330.473	0.29
330.684	0.24
330.894	0.23
331.105	0.24
331.315	0.31
331.526	0.22
331.736	0.31
331.947	0.27
332.157	0.29
332.367	0.27
332.578	0.25
332.788	0.29
332.999	0.27
333.209	0.28
333.419	0.22
333.629	0.27
333.84	0.26
334.05	0.26
334.26	0.28
334.47	0.27
334.681	0.3
334.891	0.2
335.101	0.25
335.311	0.27
335.521	0.25
335.732	0.23
335.942	0.28
336.152	0.3
336.362	0.27
336.572	0.26
336.782	0.28
336.992	0.24
337.202	0.29
337.412	0.22
337.622	0.23
337.832	0.22
338.042	0.23
338.252	0.19
338.462	0.24
338.672	0.21
338.882	0.28
339.092	0.28
339.302	0.35
339.511	0.32
339.721	0.22
339.931	0.24
340.141	0.26
340.351	0.3
340.561	0.24
340.77	0.27
340.98	0.24
341.19	0.26
341.4	0.21
341.609	0.22
341.819	0.23
342.029	0.23
342.238	0.26
342.448	0.24
342.658	0.26
342.867	0.27
343.077	0.21
343.286	0.26
343.496	0.25
343.706	0.29
343.915	0.18
344.125	0.24
344.334	0.28
344.544	0.16
344.753	0.25
344.963	0.22
345.172	0.2
345.381	0.21
345.591	0.25
345.8	0.28
346.01	0.27
346.219	0.28
346.428	0.14
346.638	0.25
346.847	0.25
347.056	0.36
347.266	0.25
347.475	0.3
347.684	0.26
347.893	0.28
348.103	0.23
348.312	0.27
348.521	0.21
348.73	0.24
348.94	0.29
349.149	0.22
349.358	0.17
349.567	0.22
349.776	0.19
349.985	0.25
350.194	0.25
350.403	0.26
350.612	0.22
350.821	0.26
351.03	0.25
351.239	0.19
351.448	0.27
351.657	0.2
351.866	0.33
352.075	0.22
352.284	0.28
352.493	0.21
352.702	0.29
352.911	0.25
353.12	0.3
353.329	0.24
353.538	0.3
353.746	0.24
353.955	0.24
354.164	0.27
354.373	0.25
354.582	0.27
354.79	0.24
354.999	0.29
355.208	0.24
355.416	0.31
355.625	0.21
355.834	0.29
356.042	0.25
356.251	0.23
356.46	0.22
356.668	0.25
356.877	0.29
357.085	0.25
357.294	0.17
357.503	0.28
357.711	0.26
357.92	0.34
358.128	0.25
358.337	0.22
358.545	0.26
358.754	0.22
358.962	0.29
359.17	0.23
359.379	0.27
359.587	0.26
359.796	0.21
360.004	0.26
360.212	0.25
360.421	0.29
360.629	0.24
360.837	0.23
361.046	0.27
361.254	0.3
361.462	0.25
361.67	0.22
361.879	0.24
362.087	0.26
362.295	0.26
362.503	0.24
362.711	0.19
362.92	0.23
363.128	0.25
363.336	0.23
363.544	0.2
363.752	0.21
363.96	0.26
364.168	0.19
364.376	0.22
364.584	0.23
364.792	0.21
365	0.31
365.208	0.27
365.416	0.2
365.624	0.31
365.832	0.21
366.04	0.25
366.248	0.28
366.456	0.22
366.664	0.25
366.872	0.22
367.079	0.21
367.287	0.25
367.495	0.23
367.703	0.29
367.911	0.23
368.118	0.25
368.326	0.25
368.534	0.22
368.742	0.3
368.949	0.21
369.157	0.23
369.365	0.26
369.572	0.25
369.78	0.21
369.988	0.28
370.195	0.26
370.403	0.25
370.61	0.23
370.818	0.25
371.026	0.27
371.233	0.22
371.441	0.23
371.648	0.21
371.856	0.26
372.063	0.27
372.271	0.21
372.478	0.25
372.685	0.19
372.893	0.26
373.1	0.26
373.308	0.31
373.515	0.31
373.722	0.26
373.93	0.24
374.137	0.26
374.344	0.28
374.552	0.27
374.759	0.3
374.966	0.21
375.173	0.26
375.381	0.29
375.588	0.3
375.795	0.19
376.002	0.24
376.209	0.22
376.417	0.25
376.624	0.3
376.831	0.3
377.038	0.27
377.245	0.2
377.452	0.24
377.659	0.28
377.866	0.24
378.073	0.28
378.28	0.27
378.487	0.25
378.694	0.3
378.901	0.28
379.108	0.23
379.315	0.28
379.522	0.27
379.729	0.33
379.936	0.26
380.143	0.29
380.35	0.26
380.557	0.25
380.763	0.28
380.97	0.2
381.177	0.32
381.384	0.27
381.591	0.27
381.797	0.26
382.004	0.25
382.211	0.31
382.418	0.26
382.624	0.26
382.831	0.27
383.038	0.26
383.244	0.29
383.451	0.23
383.658	0.3
383.864	0.26
384.071	0.25
384.277	0.33
384.484	0.23
384.69	0.33
384.897	0.25
385.103	0.29
385.31	0.23
385.516	0.23
385.723	0.26
385.929	0.21
386.136	0.24
386.342	0.29
386.549	0.29
386.755	0.3
386.961	0.31
387.168	0.22
387.374	0.33
387.58	0.29
387.787	0.27
387.993	0.34
388.199	0.26
388.406	0.27
388.612	0.24
388.818	0.26
389.024	0.27
389.231	0.26
389.437	0.37
389.643	0.31
389.849	0.36
390.055	0.31
390.261	0.29
390.467	0.3
390.674	0.28
390.88	0.29
391.086	0.31
391.292	0.24
391.498	0.31
391.704	0.33
391.91	0.27
392.116	0.28
392.322	0.2
392.528	0.31
392.734	0.27
392.94	0.29
393.146	0.28
393.352	0.26
393.557	0.27
393.763	0.32
393.969	0.32
394.175	0.31
394.381	0.31
394.587	0.25
394.792	0.3
394.998	0.34
395.204	0.38
395.41	0.31
395.615	0.31
395.821	0.3
396.027	0.3
396.233	0.32
396.438	0.33
396.644	0.39
396.85	0.34
397.055	0.29
397.261	0.33
397.466	0.41
397.672	0.32
397.878	0.38
398.083	0.32
398.289	0.31
398.494	0.38
398.7	0.38
398.905	0.26
399.111	0.37
399.316	0.31
399.522	0.39
399.727	0.32
399.932	0.31
400.138	0.31
400.343	0.39
400.549	0.35
400.754	0.29
400.959	0.36
401.165	0.34
401.37	0.36
401.575	0.45
401.78	0.34
401.986	0.31
402.191	0.31
402.396	0.37
402.601	0.4
402.807	0.42
403.012	0.4
403.217	0.43
403.422	0.37
403.627	0.35
403.832	0.38
404.037	0.38
404.243	0.43
404.448	0.4
404.653	0.39
404.858	0.41
405.063	0.45
405.268	0.42
405.473	0.39
405.678	0.41
405.883	0.53
406.088	0.51
406.293	0.4
406.498	0.43
406.703	0.52
406.907	0.47
407.112	0.42
407.317	0.49
407.522	0.54
407.727	0.46
407.932	0.51
408.136	0.58
408.341	0.56
408.546	0.52
408.751	0.55
408.956	0.6
409.16	0.61
409.365	0.56
409.57	0.56
409.774	0.64
409.979	0.63
410.184	0.64
410.388	0.65
410.593	0.73
410.798	0.72
411.002	0.75
411.207	0.76
411.411	0.78
411.616	0.72
411.82	0.82
412.025	0.85
412.229	0.82
412.434	0.91
412.638	0.92
412.843	0.94
413.047	0.97
413.252	0.91
413.456	1.03
413.66	1.02
413.865	1
414.069	1.11
414.273	1.13
414.478	1.07
414.682	1.13
414.886	1.21
415.091	1.19
415.295	1.23
415.499	1.33
415.703	1.3
415.908	1.4
416.112	1.29
416.316	1.54
416.52	1.52
416.724	1.56
416.929	1.58
417.133	1.75
417.337	1.71
417.541	1.82
417.745	1.77
417.949	1.87
418.153	2
418.357	1.94
418.561	2.11
418.765	2.07
418.969	2.2
419.173	2.26
419.377	2.33
419.581	2.47
419.785	2.51
419.989	2.57
420.193	2.7
420.397	2.79
420.601	2.95
420.804	3.03
421.008	2.97
421.212	3.13
421.416	3.1
421.62	3.15
421.823	3.22
422.027	3.41
422.231	3.35
422.435	3.35
422.638	3.46
422.842	3.48
423.046	3.63
423.249	3.83
423.453	3.86
423.657	3.96
423.86	4.02
424.064	4.23
424.268	4.29
424.471	4.36
424.675	4.53
424.878	4.59
425.082	4.74
425.285	5.02
425.489	4.98
425.692	5.07
425.896	5.03
426.099	5.35
426.303	5.47
426.506	5.64
426.71	5.84
426.913	5.88
427.116	6.13
427.32	6.17
427.523	6.22
427.726	6.52
427.93	6.69
428.133	6.89
428.336	7.17
428.54	7.16
428.743	7.39
428.946	7.76
429.149	7.66
429.353	7.69
429.556	7.81
429.759	7.86
429.962	8.07
430.165	8.17
430.368	7.75
430.571	7.88
430.775	7.91
430.978	7.93
431.181	7.95
431.384	8.09
431.587	8.12
431.79	8.59
431.993	8.49
432.196	8.84
432.399	9.17
432.602	9.13
432.805	9.44
433.008	9.95
433.211	9.88
433.414	10.06
433.616	10.09
433.819	10.14
434.022	10.36
434.225	10.39
434.428	10.45
434.631	10.84
434.833	10.72
435.036	10.9
435.239	11.1
435.442	11.19
435.645	11.3
435.847	11.36
436.05	11.69
436.253	12.01
436.455	11.97
436.658	11.93
436.861	12.13
437.063	12.3
437.266	12.2
437.468	12.62
437.671	12.9
437.874	12.95
438.076	12.81
438.279	13.29
438.481	13.36
438.684	14.19
438.886	13.69
439.089	13.92
439.291	13.97
439.494	14.25
439.696	14.46
439.899	15.02
440.101	15.48
440.303	15.73
440.506	16.34
440.708	16.07
440.91	16.3
441.113	16.66
441.315	16.67
441.517	16.74
441.72	16.99
441.922	16.53
442.124	16.64
442.326	16.88
442.529	17.22
442.731	17.27
442.933	17.59
443.135	17.27
443.337	17.22
443.539	18.03
443.742	17.54
443.944	18.21
444.146	18.04
444.348	17.77
444.55	17.72
444.752	18.04
444.954	18.11
445.156	17.92
445.358	18.38
445.56	18.7
445.762	18.44
445.964	18.85
446.166	18.54
446.368	18.45
446.57	18.54
446.772	18.13
446.974	18.11
447.175	18.4
447.377	18.13
447.579	18.44
447.781	18.17
447.983	17.88
448.184	17.5
448.386	17.86
448.588	17.45
448.79	17.3
448.991	17.56
449.193	17.65
449.395	16.9
449.597	16.66
449.798	16.58
450	16.21
450.202	15.94
450.403	16.09
450.605	15.99
450.806	15.66
451.008	15.52
451.21	15.2
451.411	14.89
451.613	13.99
451.814	14.24
452.016	14.21
452.217	13.56
452.419	13.48
452.62	13.25
452.821	13.15
453.023	12.84
453.224	12.54
453.426	12.13
453.627	11.21
453.828	11.5
454.03	11.59
454.231	11.53
454.432	11.41
454.634	11.1
454.835	10.79
455.036	10.7
455.238	10.4
455.439	9.97
455.64	9.88
455.841	9.63
456.042	9.67
456.244	9.42
456.445	9.16
456.646	8.96
456.847	8.82
457.048	8.67
457.249	8.67
457.45	8.33
457.651	7.93
457.852	7.78
458.054	7.43
458.255	7.36
458.456	7.43
458.657	7.36
458.858	7.01
459.058	6.77
459.259	6.88
459.46	6.71
459.661	6.59
459.862	6.59
460.063	6.48
460.264	6.31
460.465	6.13
460.666	6.18
460.866	5.83
461.067	5.58
461.268	5.72
461.469	5.61
461.67	5.47
461.87	5.34
462.071	5.35
462.272	5.24
462.473	5.22
462.673	5.4
462.874	5.34
463.075	5.23
463.275	5.23
463.476	5.19
463.676	5.13
463.877	5.08
464.078	4.98
464.278	5
464.479	5.01
464.679	4.88
464.88	4.83
465.08	4.7
465.281	4.52
465.481	4.33
465.682	4.18
465.882	4.22
466.083	4.18
466.283	4.1
466.483	3.96
466.684	3.82
466.884	3.7
467.085	3.74
467.285	3.79
467.485	3.67
467.686	3.61
467.886	3.51
468.086	3.41
468.286	3.47
468.487	3.45
468.687	3.35
468.887	3.3
469.087	3.3
469.287	3.28
469.488	3.1
469.688	3.2
469.888	3.23
470.088	3.13
470.288	3.1
470.488	3.13
470.688	2.93
470.888	2.92
471.088	2.8
471.288	2.88
471.488	2.83
471.688	2.78
471.888	2.76
472.088	2.77
472.288	2.74
472.488	2.65
472.688	2.6
472.888	2.62
473.088	2.67
473.288	2.52
473.488	2.54
473.688	2.62
473.887	2.52
474.087	2.5
474.287	2.5
474.487	2.42
474.687	2.47
474.886	2.4
475.086	2.41
475.286	2.36
475.486	2.3
475.685	2.27
475.885	2.24
476.085	2.3
476.284	2.31
476.484	2.29
476.684	2.24
476.883	2.33
477.083	2.18
477.282	2.16
477.482	2.2
477.681	2.17
477.881	2.07
478.08	2.1
478.28	2.06
478.479	2.13
478.679	2.15
478.878	2.06
479.078	2.09
479.277	2.12
479.477	2.11
479.676	2.01
479.875	2.04
480.075	2.03
480.274	2.05
480.473	2.03
480.673	2.07
480.872	2.09
481.071	2.07
481.271	2.06
481.47	2.04
481.669	2.06
481.868	2.02
482.067	2
482.267	1.94
482.466	1.98
482.665	1.98
482.864	1.97
483.063	1.96
483.262	2.04
483.461	2.02
483.661	2.06
483.86	2.02
484.059	2.06
484.258	2.06
484.457	2.04
484.656	2.02
484.855	2.1
485.054	1.95
485.253	1.94
485.452	1.97
485.651	2.04
485.849	2.02
486.048	2.06
486.247	2.02
486.446	2.11
486.645	2.02
486.844	2.1
487.043	2.03
487.241	2.11
487.44	2.12
487.639	2.14
487.838	2.15
488.037	2.15
488.235	2.19
488.434	2.18
488.633	2.02
488.831	2.2
489.03	2.24
489.229	2.24
489.427	2.24
489.626	2.25
489.825	2.24
490.023	2.28
490.222	2.27
490.42	2.3
490.619	2.3
490.817	2.38
491.016	2.35
491.214	2.42
491.413	2.44
491.611	2.35
491.81	2.4
492.008	2.41
492.207	2.51
492.405	2.5
492.604	2.43
492.802	2.53
493	2.59
493.199	2.59
493.397	2.65
493.595	2.68
493.794	2.62
493.992	2.8
494.19	2.78
494.388	2.83
494.587	2.7
494.785	2.77
494.983	2.75
495.181	2.86
495.379	2.89
495.578	2.93
495.776	2.95
495.974	2.92
496.172	2.97
496.37	3.08
496.568	3.08
496.766	3.09
496.964	3.15
497.162	3.16
497.36	3.21
497.558	3.22
497.756	3.28
497.954	3.27
498.152	3.34
498.35	3.41
498.548	3.34
498.746	3.4
498.944	3.41
499.142	3.42
499.34	3.51
499.538	3.63
499.736	3.5
499.933	3.59
500.131	3.6
500.329	3.77
500.527	3.76
500.725	3.79
500.922	3.82
501.12	3.82
501.318	3.91
501.516	3.89
501.713	4
501.911	3.96
502.109	3.96
502.306	4.08
502.504	3.98
502.701	4.1
502.899	4.13
503.097	4.28
503.294	4.23
503.492	4.31
503.689	4.33
503.887	4.31
504.084	4.44
504.282	4.42
504.479	4.38
504.677	4.52
504.874	4.5
505.072	4.43
505.269	4.68
505.466	4.65
505.664	4.69
505.861	4.61
506.059	4.84
506.256	4.7
506.453	4.78
506.651	4.93
506.848	4.93
507.045	4.91
507.242	4.95
507.44	5
507.637	5.06
507.834	5.01
508.031	5.1
508.229	5.13
508.426	5.07
508.623	5.22
508.82	5.27
509.017	5.28
509.214	5.23
509.411	5.39
509.608	5.34
509.805	5.38
510.003	5.4
510.2	5.5
510.397	5.53
510.594	5.58
510.791	5.65
510.988	5.62
511.184	5.56
511.381	5.47
511.578	5.64
511.775	5.8
511.972	5.69
512.169	5.74
512.366	5.81
512.563	5.86
512.76	5.97
512.956	5.99
513.153	5.87
513.35	5.85
513.547	5.89
513.744	5.98
513.94	6.02
514.137	6.15
514.334	6.06
514.53	6.17
514.727	6.33
514.924	6.22
515.12	6.22
515.317	6.26
515.514	6.16
515.71	6.16
515.907	6.39
516.103	6.39
516.3	6.29
516.497	6.38
516.693	6.39
516.89	6.46
517.086	6.46
517.283	6.48
517.479	6.37
517.676	6.55
517.872	6.59
518.068	6.64
518.265	6.59
518.461	6.55
518.658	6.64
518.854	6.69
519.05	6.72
519.247	6.75
519.443	6.75
519.639	6.91
519.836	6.66
520.032	6.74
520.228	6.86
520.424	6.81
520.621	6.88
520.817	6.91
521.013	6.84
521.209	7.03
521.405	7.07
521.601	6.94
521.798	6.95
521.994	6.97
522.19	6.92
522.386	6.97
522.582	7.09
522.778	7.27
522.974	7.06
523.17	7.09
523.366	7.12
523.562	7.08
523.758	7.15
523.954	6.98
524.15	7.23
524.346	7.25
524.542	7.23
524.738	7.21
524.934	7.37
525.129	7.32
525.325	7.22
525.521	7.19
525.717	7.43
525.913	7.27
526.109	7.27
526.304	7.4
526.5	7.38
526.696	7.4
526.892	7.3
527.087	7.52
527.283	7.53
527.479	7.46
527.674	7.31
527.87	7.43
528.066	7.44
528.261	7.51
528.457	7.44
528.653	7.56
528.848	7.52
529.044	7.63
529.239	7.47
529.435	7.44
529.63	7.43
529.826	7.47
530.021	7.54
530.217	7.59
530.412	7.53
530.608	7.59
530.803	7.61
530.999	7.47
531.194	7.61
531.389	7.65
531.585	7.69
531.78	7.84
531.975	7.68
532.171	7.69
532.366	7.71
532.561	7.67
532.757	7.67
532.952	7.82
533.147	7.59
533.342	7.76
533.538	7.64
533.733	7.85
533.928	7.55
534.123	7.8
534.318	7.77
534.513	7.7
534.709	7.81
534.904	7.82
535.099	7.94
535.294	7.89
535.489	7.88
535.684	7.78
535.879	7.77
536.074	7.87
536.269	7.93
536.464	7.85
536.659	7.85
536.854	7.86
537.049	7.95
537.244	7.9
537.439	7.89
537.634	7.81
537.828	7.91
538.023	7.91
538.218	7.86
538.413	7.78
538.608	7.94
538.803	7.93
538.997	7.84
539.192	7.86
539.387	7.89
539.582	7.92
539.776	7.81
539.971	8
540.166	7.98
540.36	7.89
540.555	8.09
540.75	7.96
540.944	8
541.139	7.97
541.334	7.92
541.528	7.97
541.723	8
541.917	8.06
542.112	7.92
542.306	7.85
542.501	7.83
542.695	7.97
542.89	7.9
543.084	7.94
543.279	7.97
543.473	8.01
543.668	8.05
543.862	7.88
544.056	7.92
544.251	8.06
544.445	8.07
544.64	8.09
544.834	7.79
545.028	7.67
545.222	8.08
545.417	8.17
545.611	8.04
545.805	8.07
546	7.87
546.194	8.09
546.388	8.04
546.582	7.96
546.776	7.91
546.97	7.99
547.165	7.99
547.359	8.05
547.553	7.98
547.747	7.99
547.941	8.14
548.135	8.02
548.329	8.07
548.523	8.05
548.717	7.98
548.911	7.93
549.105	7.97
549.299	8.09
549.493	8.07
549.687	7.96
549.881	8.18
550.075	8.04
550.269	7.94
550.463	8.06
550.657	8.07
550.85	8.07
551.044	8
551.238	8.12
551.432	8.06
551.626	8.12
551.82	8.09
552.013	7.97
552.207	8.17
552.401	8.1
552.594	8.07
552.788	7.98
552.982	8.08
553.176	7.98
553.369	8.16
553.563	8.07
553.756	8.04
553.95	8.08
554.144	8.13
554.337	8.07
554.531	7.91
554.724	8.06
554.918	8.18
555.111	8.06
555.305	8.12
555.498	8.05
555.692	8.13
555.885	8.07
556.079	7.99
556.272	8.08
556.466	8.08
556.659	8.01
556.852	8.18
557.046	7.95
557.239	7.94
557.432	8.09
557.626	8.15
557.819	8.15
558.012	8.09
558.206	8.17
558.399	8.09
558.592	8.03
558.785	7.98
558.979	8.05
559.172	8.07
559.365	8.04
559.558	8
559.751	8.02
559.944	8.16
560.138	8.02
560.331	8.09
560.524	8.15
560.717	8.09
560.91	8.05
561.103	8.13
561.296	7.89
561.489	8.12
561.682	8.15
561.875	8.09
562.068	8.19
562.261	8.06
562.454	8.27
562.647	7.99
562.84	8.05
563.032	8.16
563.225	8
563.418	8.02
563.611	8.11
563.804	8.05
563.997	7.98
564.19	7.89
564.382	8.15
564.575	8.1
564.768	7.97
564.961	8.12
565.153	8.04
565.346	7.98
565.539	8.09
565.731	8.06
565.924	8.16
566.117	8.28
566.309	8.05
566.502	8.05
566.695	8.05
566.887	8.12
567.08	8.08
567.272	8.12
567.465	7.94
567.657	8.13
567.85	7.94
568.042	8.06
568.235	8.09
568.427	7.92
568.62	8.02
568.812	8
569.005	8.13
569.197	7.96
569.389	7.98
569.582	8.04
569.774	7.95
569.966	7.97
570.159	7.91
570.351	7.93
570.543	8.02
570.736	7.98
570.928	7.86
571.12	8
571.312	7.93
571.505	7.77
571.697	8.08
571.889	7.94
572.081	7.98
572.273	7.89
572.465	7.94
572.658	8
572.85	8.02
573.042	8.02
573.234	7.83
573.426	7.88
573.618	7.88
573.81	7.97
574.002	7.89
574.194	7.91
574.386	7.92
574.578	7.75
574.77	7.85
574.962	7.97
575.154	7.79
575.346	7.82
575.538	7.81
575.729	7.8
575.921	7.91
576.113	7.96
576.305	7.85
576.497	7.93
576.689	7.77
576.88	7.81
577.072	7.91
577.264	7.87
577.456	7.89
577.647	7.81
577.839	7.93
578.031	7.77
578.223	7.79
578.414	7.72
578.606	7.84
578.798	7.85
578.989	7.8
579.181	7.9
579.372	7.75
579.564	7.84
579.755	7.72
579.947	7.63
580.139	7.79
580.33	7.64
580.522	7.82
580.713	7.72
580.905	7.72
581.096	7.81
581.287	7.69
581.479	7.75
581.67	7.73
581.862	7.65
582.053	7.67
582.244	7.53
582.436	7.77
582.627	7.6
582.818	7.61
583.01	7.64
583.201	7.65
583.392	7.55
583.583	7.58
583.775	7.45
583.966	7.56
584.157	7.56
584.348	7.65
584.54	7.51
584.731	7.58
584.922	7.49
585.113	7.44
585.304	7.54
585.495	7.6
585.686	7.58
585.877	7.54
586.068	7.71
586.259	7.46
586.45	7.51
586.641	7.48
586.832	7.61
587.023	7.53
587.214	7.43
587.405	7.49
587.596	7.45
587.787	7.27
587.978	7.46
588.169	7.35
588.36	7.32
588.551	7.38
588.742	7.37
588.932	7.45
589.123	7.2
589.314	7.44
589.505	7.27
589.696	7.29
589.886	7.3
590.077	7.27
590.268	7.27
590.458	7.16
590.649	7.07
590.84	7.2
591.03	7.25
591.221	7.29
591.412	7.14
591.602	7.26
591.793	7.07
591.984	7.2
592.174	7.23
592.365	7.28
592.555	7.11
592.746	7.15
592.936	7.11
593.127	7.18
593.317	7.14
593.508	7.14
593.698	7.04
593.889	7.1
594.079	7.02
594.269	6.98
594.46	6.95
594.65	6.97
594.84	7.08
595.031	6.92
595.221	6.92
595.411	7.04
595.602	6.99
595.792	6.88
595.982	6.93
596.172	6.99
596.363	6.85
596.553	6.89
596.743	6.91
596.933	6.86
597.123	6.8
597.314	6.7
597.504	6.78
597.694	6.8
597.884	6.77
598.074	6.8
598.264	6.78
598.454	6.73
598.644	6.79
598.834	6.69
599.024	6.71
599.214	6.69
599.404	6.76
599.594	6.71
599.784	6.64
599.974	6.67
600.164	6.67
600.354	6.64
600.544	6.54
600.734	6.69
600.924	6.53
601.114	6.53
601.303	6.51
601.493	6.57
601.683	6.58
601.873	6.53
602.063	6.4
602.252	6.5
602.442	6.34
602.632	6.44
602.821	6.35
603.011	6.48
603.201	6.43
603.39	6.34
603.58	6.25
603.77	6.39
603.959	6.44
604.149	6.33
604.339	6.34
604.528	6.42
604.718	6.28
604.907	6.26
605.097	6.16
605.286	6.23
605.476	6.2
605.665	6.23
605.855	6.19
606.044	6.23
606.234	6.21
606.423	6.18
606.612	6.16
606.802	5.98
606.991	6.13
607.181	6.14
607.37	6.15
607.559	5.86
607.749	6.11
607.938	5.99
608.127	5.99
608.316	6.02
608.506	5.89
608.695	6.07
608.884	6.03
609.073	5.96
609.263	6.02
609.452	5.98
609.641	5.83
609.83	5.81
610.019	5.89
610.208	5.89
610.397	5.84
610.586	5.8
610.775	5.76
610.965	5.77
611.154	5.68
611.343	5.71
611.532	5.7
611.721	5.79
611.91	5.67
612.099	5.66
612.287	5.56
612.476	5.56
612.665	5.76
612.854	5.55
613.043	5.59
613.232	5.62
613.421	5.56
613.61	5.57
613.798	5.55
613.987	5.59
614.176	5.53
614.365	5.48
614.554	5.45
614.742	5.52
614.931	5.41
615.12	5.47
615.309	5.41
615.497	5.32
615.686	5.26
615.875	5.35
616.063	5.31
616.252	5.32
616.44	5.36
616.629	5.3
616.818	5.26
617.006	5.26
617.195	5.22
617.383	5.14
617.572	5.16
617.76	5.18
617.949	5.17
618.137	5.23
618.326	5.17
618.514	5.04
618.703	5.03
618.891	5.13
619.079	5.02
619.268	5.11
619.456	5.01
619.644	5.06
619.833	5.02
620.021	5.04
620.209	4.92
620.398	4.98
620.586	4.87
620.774	4.96
620.962	4.97
621.151	4.9
621.339	4.88
621.527	4.85
621.715	4.85
621.903	4.86
622.092	4.78
622.28	4.89
622.468	4.67
622.656	4.78
622.844	4.74
623.032	4.74
623.22	4.65
623.408	4.79
623.596	4.75
623.784	4.72
623.972	4.64
624.16	4.66
624.348	4.68
624.536	4.74
624.724	4.57
624.912	4.6
625.1	4.61
625.288	4.62
625.476	4.5
625.664	4.59
625.851	4.46
626.039	4.56
626.227	4.56
626.415	4.47
626.603	4.41
626.79	4.48
626.978	4.44
627.166	4.43
627.354	4.42
627.541	4.4
627.729	4.35
627.917	4.42
628.104	4.4
628.292	4.33
628.48	4.34
628.667	4.24
628.855	4.37
629.042	4.3
629.23	4.25
629.418	4.26
629.605	4.32
629.793	4.21
629.98	4.2
630.168	4.09
630.355	4.2
630.543	4.13
630.73	4.13
630.917	4.07
631.105	4.14
631.292	4.11
631.48	4.04
631.667	4.14
631.854	4.06
632.042	4.02
632.229	3.93
632.416	4.05
632.604	4.01
632.791	3.93
632.978	3.97
633.165	3.86
633.353	3.97
633.54	3.98
633.727	3.87
633.914	3.88
634.101	3.79
634.289	3.89
634.476	3.85
634.663	3.8
634.85	3.8
635.037	3.76
635.224	3.76
635.411	3.77
635.598	3.74
635.785	3.7
635.972	3.72
636.159	3.69
636.346	3.66
636.533	3.66
636.72	3.66
636.907	3.68
637.094	3.59
637.281	3.56
637.468	3.6
637.655	3.64
637.842	3.56
638.029	3.53
638.215	3.52
638.402	3.49
638.589	3.5
638.776	3.47
638.963	3.44
639.149	3.51
639.336	3.56
639.523	3.47
639.709	3.4
639.896	3.43
640.083	3.42
640.27	3.45
640.456	3.39
640.643	3.36
640.829	3.27
641.016	3.35
641.203	3.28
641.389	3.28
641.576	3.25
641.762	3.32
641.949	3.28
642.135	3.23
642.322	3.23
642.508	3.22
642.695	3.22
642.881	3.16
643.068	3.13
643.254	3.15
643.441	3.19
643.627	3.21
643.813	3.07
644	3.22
644.186	3.08
644.372	3.15
644.559	3.13
644.745	3.08
644.931	3
645.118	3.1
645.304	3.03
645.49	3.03
645.676	2.94
645.862	3.04
646.049	3.03
646.235	3.02
646.421	3.06
646.607	3.04
646.793	2.92
646.979	2.88
647.165	2.96
647.352	2.96
647.538	2.93
647.724	2.89
647.91	2.89
648.096	2.89
648.282	2.94
648.468	2.81
648.654	2.88
648.84	2.8
649.026	2.82
649.212	2.79
649.397	2.76
649.583	2.81
649.769	2.83
649.955	2.79
650.141	2.81
650.327	2.74
650.513	2.72
650.698	2.76
650.884	2.65
651.07	2.78
651.256	2.62
651.442	2.69
651.627	2.63
651.813	2.72
651.999	2.63
652.184	2.66
652.37	2.64
652.556	2.6
652.741	2.6
652.927	2.52
653.113	2.63
653.298	2.66
653.484	2.52
653.669	2.5
653.855	2.55
654.04	2.54
654.226	2.53
654.412	2.58
654.597	2.49
654.782	2.51
654.968	2.47
655.153	2.5
655.339	2.46
655.524	2.46
655.71	2.47
655.895	2.47
656.08	2.51
656.266	2.55
656.451	2.41
656.636	2.34
656.822	2.4
657.007	2.37
657.192	2.41
657.378	2.36
657.563	2.31
657.748	2.42
657.933	2.36
658.118	2.3
658.304	2.33
658.489	2.39
658.674	2.32
658.859	2.34
659.044	2.34
659.229	2.29
659.414	2.31
659.599	2.27
659.785	2.21
659.97	2.26
660.155	2.26
660.34	2.31
660.525	2.24
660.71	2.17
660.895	2.28
661.08	2.22
661.264	2.17
661.449	2.18
661.634	2.14
661.819	2.17
662.004	2.18
662.189	2.1
662.374	2.1
662.559	2.09
662.743	2.05
662.928	2.06
663.113	2.07
663.298	2.02
663.483	2.02
663.667	2.09
663.852	2.01
664.037	2.06
664.221	1.99
664.406	2.03
664.591	1.99
664.775	2.02
664.96	1.94
665.145	1.9
665.329	1.96
665.514	1.92
665.698	1.94
665.883	1.85
666.068	1.9
666.252	1.88
666.437	1.82
666.621	1.9
666.806	1.85
666.99	1.86
667.174	1.8
667.359	1.85
667.543	1.76
667.728	1.82
667.912	1.77
668.096	1.81
668.281	1.74
668.465	1.77
668.649	1.78
668.834	1.7
669.018	1.76
669.202	1.75
669.387	1.67
669.571	1.75
669.755	1.67
669.939	1.7
670.124	1.68
670.308	1.7
670.492	1.64
670.676	1.63
670.86	1.63
671.044	1.66
671.228	1.67
671.413	1.61
671.597	1.58
671.781	1.62
671.965	1.6
672.149	1.69
672.333	1.58
672.517	1.59
672.701	1.59
672.885	1.61
673.069	1.52
673.253	1.63
673.437	1.57
673.621	1.59
673.804	1.55
673.988	1.52
674.172	1.49
674.356	1.47
674.54	1.5
674.724	1.52
674.908	1.46
675.091	1.46
675.275	1.47
675.459	1.5
675.643	1.54
675.826	1.49
676.01	1.4
676.194	1.4
676.377	1.46
676.561	1.47
676.745	1.39
676.928	1.46
677.112	1.48
677.296	1.39
677.479	1.36
677.663	1.37
677.846	1.4
678.03	1.41
678.213	1.32
678.397	1.36
678.58	1.39
678.764	1.33
678.947	1.31
679.131	1.33
679.314	1.33
679.498	1.34
679.681	1.31
679.865	1.36
680.048	1.32
680.231	1.32
680.415	1.3
680.598	1.29
680.781	1.32
680.965	1.33
681.148	1.29
681.331	1.26
681.514	1.28
681.698	1.28
681.881	1.29
682.064	1.21
682.247	1.25
682.43	1.16
682.614	1.25
682.797	1.29
682.98	1.25
683.163	1.22
683.346	1.26
683.529	1.23
683.712	1.15
683.895	1.25
684.078	1.16
684.261	1.12
684.444	1.22
684.627	1.2
684.81	1.16
684.993	1.13
685.176	1.2
685.359	1.14
685.542	1.14
685.725	1.2
685.908	1.15
686.091	1.17
686.274	1.21
686.457	1.12
686.639	1.09
686.822	1.16
687.005	1.12
687.188	1.12
687.371	1.19
687.553	1.12
687.736	1.11
687.919	1.11
688.102	1.14
688.284	1.13
688.467	1.1
688.65	1.05
688.832	1.01
689.015	1.01
689.197	1.01
689.38	1.18
689.563	1.04
689.745	1.03
689.928	1.06
690.11	1.01
690.293	1.05
690.475	1.01
690.658	1.03
690.84	1.03
691.023	0.97
691.205	1
691.388	1.02
691.57	1.06
691.752	1.03
691.935	0.92
692.117	0.93
692.3	1.01
692.482	0.93
692.664	0.96
692.847	0.98
693.029	0.92
693.211	0.99
693.393	0.97
693.576	0.89
693.758	0.95
693.94	0.96
694.122	0.92
694.304	0.9
694.487	0.93
694.669	1.01
694.851	0.95
695.033	0.96
695.215	0.92
695.397	0.87
695.579	0.93
695.761	0.85
695.943	0.86
696.125	0.96
696.308	0.92
696.49	0.81
696.671	0.97
696.853	0.86
697.035	1.01
697.217	0.9
697.399	0.89
697.581	0.82
697.763	0.89
697.945	0.77
698.127	0.81
698.309	0.89
698.491	0.94
698.672	0.83
698.854	0.87
699.036	0.88
699.218	0.84
699.399	0.86
699.581	0.86
699.763	0.85
699.945	0.79
700.126	0.82
700.308	0.88
700.49	0.72
700.671	0.77
700.853	0.79
701.035	0.76
701.216	0.78
701.398	0.69
701.579	0.83
701.761	0.85
701.943	0.73
702.124	0.7
702.306	0.76
702.487	0.91
702.669	0.78
702.85	0.79
703.031	0.75
703.213	0.85
703.394	0.78
703.576	0.73
703.757	0.85
703.938	0.81
704.12	0.84
704.301	0.78
704.483	0.65
704.664	0.78
704.845	0.83
705.026	0.81
705.208	0.8
705.389	0.72
705.57	0.77
705.751	0.75
705.933	0.81
706.114	0.85
706.295	0.81
706.476	0.7
706.657	0.85
706.838	0.78
707.02	0.76
707.201	0.75
707.382	0.73
707.563	0.76
707.744	0.67
707.925	0.67
708.106	0.62
708.287	0.72
708.468	0.76
708.649	0.79
708.83	0.73
709.011	0.69
709.192	0.76
709.373	0.59
709.554	0.66
709.734	0.69
709.915	0.72
710.096	0.72
710.277	0.56
710.458	0.73
710.639	0.7
710.819	0.53
711	0.67
711.181	0.71
711.362	0.6
711.542	0.63
711.723	0.66
711.904	0.76
712.085	0.69
712.265	0.68
712.446	0.58
712.627	0.64
712.807	0.67
712.988	0.64
713.168	0.57
713.349	0.62
713.53	0.54
713.71	0.54
713.891	0.57
714.071	0.65
714.252	0.62
714.432	0.59
714.613	0.56
714.793	0.71
714.974	0.73
715.154	0.67
715.334	0.73
715.515	0.66
715.695	0.51
715.876	0.59
716.056	0.68
716.236	0.59
716.417	0.6
716.597	0.54
716.777	0.76
716.957	0.59
717.138	0.65
717.318	0.65
717.498	0.5
717.678	0.57
717.859	0.58
718.039	0.53
718.219	0.6
718.399	0.65
718.579	0.58
718.759	0.62
718.939	0.66
719.12	0.65
719.3	0.61
719.48	0.49
719.66	0.55
719.84	0.66
720.02	0.55
720.2	0.49
720.38	0.58
720.56	0.64
720.74	0.53
720.92	0.61
721.1	0.71
721.279	0.61
721.459	0.54
721.639	0.45
721.819	0.62
721.999	0.58
722.179	0.57
722.359	0.5
722.538	0.67
722.718	0.55
722.898	0.53
723.078	0.62
723.257	0.6
723.437	0.63
723.617	0.54
723.797	0.49
723.976	0.6
724.156	0.63
724.336	0.64
724.515	0.77
724.695	0.52
724.874	0.6
725.054	0.58
725.234	0.51
725.413	0.64
725.593	0.59
725.772	0.56
725.952	0.58
726.131	0.58
726.311	0.59
726.49	0.59
726.67	0.48
726.849	0.48
727.028	0.56
727.208	0.56
727.387	0.62
727.567	0.54
727.746	0.64
727.925	0.46
728.105	0.54
728.284	0.57
728.463	0.52
728.643	0.54
728.822	0.55
729.001	0.57
729.18	0.57
729.359	0.64
729.539	0.53
729.718	0.61
729.897	0.57
730.076	0.55
730.255	0.52
730.434	0.66
730.614	0.49
730.793	0.57
730.972	0.53
731.151	0.63
731.33	0.64
731.509	0.65
731.688	0.61
731.867	0.57
732.046	0.44
732.225	0.67
732.404	0.47
732.583	0.4
732.762	0.65
732.941	0.65
733.12	0.57
733.298	0.57
733.477	0.68
733.656	0.5
733.835	0.52
734.014	0.56
734.193	0.57
734.371	0.63
734.55	0.53
734.729	0.46
734.908	0.6
735.086	0.53
735.265	0.59
735.444	0.48
735.623	0.4
735.801	0.47
735.98	0.65
736.159	0.6
736.337	0.71
736.516	0.61
736.694	0.55
736.873	0.56
737.052	0.63
737.23	0.59
737.409	0.56
737.587	0.83
737.766	0.41
737.944	0.47
738.123	0.65
738.301	0.68
738.479	0.58
738.658	0.57
738.836	0.43
739.015	0.61
739.193	0.57
739.371	0.47
739.55	0.5
739.728	0.58
739.906	0.63
740.085	0.76
740.263	0.64
740.441	0.51
740.62	0.73
740.798	0.56
740.976	0.53
741.154	0.49
741.332	0.71
741.511	0.5
741.689	0.53
741.867	0.6
742.045	0.64
742.223	0.56
742.401	0.46
742.579	0.54
742.757	0.49
742.935	0.39
743.114	0.51
743.292	0.51
743.47	0.51
743.648	0.53
743.826	0.48
744.004	0.58
744.181	0.55
744.359	0.53
744.537	0.42
744.715	0.61
744.893	0.47
745.071	0.4
745.249	0.45
745.427	0.55
745.605	0.4
745.782	0.43
745.96	0.49
746.138	0.61
746.316	0.49
746.493	0.38
746.671	0.53
746.849	0.48
747.027	0.57
747.204	0.33
747.382	0.6
747.56	0.39
747.737	0.4
747.915	0.41
748.093	0.48
748.27	0.39
748.448	0.37
748.625	0.44
748.803	0.42
748.98	0.44
749.158	0.36
749.335	0.42
749.513	0.48
749.69	0.42
749.868	0.45
750.045	0.45
750.223	0.39
750.4	0.27
750.578	0.5
750.755	0.4
750.932	0.33
751.11	0.51
751.287	0.18
751.464	0.56
751.642	0.38
751.819	0.47
751.996	0.38
752.173	0.35
752.351	0.33
752.528	0.44
752.705	0.38
752.882	0.41
753.06	0.42
753.237	0.41
753.414	0.63
753.591	0.41
753.768	0.53
753.945	0.43
754.122	0.27
754.299	0.37
754.476	0.35
754.654	0.4
754.831	0.37
755.008	0.46
755.185	0.35
755.362	0.36
755.539	0.4
755.716	0.49
755.892	0.34
756.069	0.35
756.246	0.39
756.423	0.42
756.6	0.45
756.777	0.37
756.954	0.48
757.131	0.39
757.307	0.3
757.484	0.37
757.661	0.42
757.838	0.48
758.015	0.31
758.191	0.45
758.368	0.45
758.545	0.47
758.721	0.37
758.898	0.31
759.075	0.47
759.251	0.43
759.428	0.4
759.605	0.24
759.781	0.4
759.958	0.32
760.134	0.5
760.311	0.37
760.488	0.39
760.664	0.48
760.841	0.39
761.017	0.21
761.194	0.44
761.37	0.4
761.547	0.39
761.723	0.36
761.899	0.47
762.076	0.24
762.252	0.3
762.429	0.36
762.605	0.32
762.781	0.3
762.958	0.45
763.134	0.32
763.31	0.43
763.486	0.4
763.663	0.26
763.839	0.32
764.015	0.24
764.191	0.24
764.368	0.37
764.544	0.32
764.72	0.33
764.896	0.46
765.072	0.3
765.248	0.31
765.425	0.4
765.601	0.4
765.777	0.3
765.953	0.2
766.129	0.31
766.305	0.25
766.481	0.39
766.657	0.32
766.833	0.44
767.009	0.28
767.185	0.35
767.361	0.3
767.537	0.21
767.713	0.46
767.889	0.27
768.065	0.32
768.24	0.37
768.416	0.4
768.592	0.36
768.768	0.11
768.944	0.32
769.12	0.25
769.295	0.35
769.471	0.3
769.647	0.35
769.823	0.51
769.998	0.3
770.174	0.31
770.35	0.71
770.525	0.51
770.701	0.44
770.877	0.33
771.052	0.37
771.228	0.37
771.403	0.4
771.579	0.46
771.755	0.73
771.93	0.17
772.106	0.28
772.281	0.27
772.457	0.38
772.632	0.5
772.808	0.34
772.983	0.5
773.159	0.25
773.334	0.35
773.509	0.24
773.685	0.12
773.86	0.55
774.036	0.54
774.211	0.52
774.386	0.26
774.562	0.39
774.737	0.32
774.912	0.32
775.087	0.49
775.263	0.29
775.438	0.38
775.613	0.24
775.788	0.4
775.964	0.44
776.139	0.49
776.314	0.18
776.489	0.37
776.664	0.24
776.839	0.25
777.014	0.55
777.19	0.43
777.365	0.49
777.54	0.62
777.715	0.3
777.89	0.45
778.065	0.21
778.24	0.35
778.415	0.43
778.59	0.31
778.765	0.23
778.94	0.47
779.115	0.25
779.289	0.27
779.464	0.41
779.639	0.53
779.814	0.24
779.989	0.18
780.164	0.42
780.339	0.5
780.513	0.28
780.688	0.19
780.863	0.33
781.038	0.56
781.212	0.2
781.387	0.46
781.562	0.53
781.737	0.4
781.911	0.65
782.086	0.27
782.261	0.35
782.435	0.65
782.61	0.41
782.784	0.33
782.959	0.54
783.134	0.36
783.308	0.35
783.483	0.52
783.657	0.52
783.832	0.35
784.006	0.16
784.181	0.66
784.355	0.53
784.53	0.37
784.704	0.57
784.878	0.65
785.053	0.6
785.227	0.4
785.402	0.87
785.576	0.14
785.75	0.33
785.925	0.5
786.099	0.42
786.273	0.59
786.448	0.49
786.622	0.55
786.796	0.45
786.97	0.25
787.145	0.83
787.319	0.15
787.493	0.38
787.667	0.38
787.841	0.33
788.015	0.41
788.19	0.35
788.364	0.37
788.538	0.44
788.712	0.59
788.886	0.38
789.06	0.48
789.234	0.27
789.408	0.15
789.582	0.12
789.756	0.43
789.93	0.3
790.104	0.4
790.278	0.44
790.452	0.3
790.626	0.57
790.8	0.52
790.973	0.56
791.147	0.74
791.321	0.6
791.495	0.39
791.669	0.45
791.843	0.6
792.016	0.4
792.19	0.58
792.364	0.21
792.538	0.85
792.711	0.77
792.885	0.47
793.059	0.3
793.233	-0.01
793.406	0.67
793.58	0.45
793.754	0.29
793.927	0.26
794.101	0.7
794.274	0.5
794.448	0.56
794.622	0.38
794.795	0.61
794.969	0.14
795.142	0.84
795.316	0.49
795.489	0.24
795.663	0.92
795.836	0.6
796.009	0.42
796.183	0.82
796.356	0.66
796.53	0.46
796.703	0.31
796.876	1.05
797.05	0.4
797.223	0.5
797.396	0.67
797.57	0.57
797.743	0.47
797.916	0.8
798.09	0.46
798.263	0.63
798.436	0.55
798.609	0.41
798.782	0.12
798.956	0.56
799.129	0.43
799.302	0.35
799.475	0.49
799.648	0.2
799.821	0.28
799.994	0.46
800.167	0.27
800.34	0.67
800.514	0.4
800.687	0.39
800.86	0.48
801.033	0.37
801.206	0.5
801.379	0.49
801.551	0.69
801.724	0.83
801.897	0.69
802.07	0.48
802.243	0.28
802.416	0.53
802.589	0.23
802.762	0.73
802.935	0.72
803.107	0.56
803.28	0.97
803.453	0.9
803.626	0.33
803.798	0.49
803.971	0.52
804.144	0.57
804.317	0.98
804.489	0.79
804.662	0.61
804.835	0.61
805.007	0.51
805.18	0.93
805.353	0.76
805.525	0.47
805.698	0.33
805.87	0.73
806.043	0.58
806.215	0.18
806.388	0.34
806.56	0.63
806.733	0.66
806.905	0.89
807.078	0.29
807.25	0.61
807.423	0.81
807.595	0.58
807.768	0.59
807.94	1.07
808.112	0.76
808.285	0.62
808.457	0.37
808.629	0.45
808.802	0.57
808.974	0.53
809.146	0.79
809.318	0.42
809.491	0.69
809.663	1
809.835	0.25
810.007	0.7
810.18	0.47
810.352	0.58
810.524	0.73
810.696	0.69
810.868	1.43
811.04	0.51
811.212	0.61
811.384	0.74
811.556	0.52
811.728	0.5
811.901	1.16
812.073	0.41
812.245	1
812.417	0.82
812.589	0.08
812.76	0.75
812.932	0.83
813.104	0.77
813.276	0.52
813.448	0.72
813.62	0.69
813.792	1.03
813.964	0.69
814.136	0.71
814.307	0.42
814.479	0.26
814.651	0.59
814.823	1.78
814.995	0.34
815.166	0.9
815.338	0.43
815.51	0.31
815.681	1.27
815.853	0.58
816.025	0.51
816.196	0.85
816.368	0.65
816.54	0.53
816.711	0.91
816.883	0.79
817.054	1.31
817.226	-0.03
817.398	0.55
817.569	0.61
817.741	0.8
817.912	0.8
818.084	0.88
818.255	0.53
818.426	0.42
818.598	0.65
818.769	0.79
818.941	0.66
819.112	0.95
819.283	1.22
819.455	0.56
819.626	0.21
819.798	0.75
819.969	0.7
820.14	0.75
820.311	0.53
820.483	0.75
820.654	0.59
820.825	0.71
820.996	0.02
821.168	0.21
821.339	0.15
821.51	0.49
821.681	0.12
821.852	0.48
822.023	0.5
822.195	0.48
822.366	0.6
822.537	0.58
822.708	0.87
822.879	0.14
823.05	1
823.221	0.59
823.392	0.95
823.563	0.5
823.734	0.6
823.905	0.61
824.076	1.07
824.247	0.51
824.418	0.58
824.589	1.24
824.759	0.22
824.93	0.9
825.101	0.56
825.272	1.55
825.443	1.13
825.614	1.11
825.784	-0.43
825.955	1.44
826.126	1.55
826.297	1.02
826.467	1.63
826.638	0.47
826.809	0.34
826.98	0.62
827.15	1.02
827.321	0.91
827.492	1.24
827.662	1.03
827.833	1.48
828.003	1.29
828.174	0.62
828.345	0.32
828.515	0.99
828.686	1.14
828.856	0.2
829.027	0.62
829.197	0.92
829.368	1.38
829.538	0.42
829.709	0.11
829.879	0.96
830.049	0.69
830.22	0.38
830.39	1.1
830.56	1.59
830.731	0.44
830.901	0.29
831.072	0.96
831.242	0.73
831.412	0.83
831.582	0.86
831.753	0.68
831.923	1.4
832.093	0.54
832.263	0.99
832.434	0.34
832.604	0.86
832.774	0.73
832.944	0.31
833.114	0.68
833.284	0.9
833.454	0.21
833.624	0.74
833.795	1.34
833.965	1.16
834.135	1.05
834.305	0.11
834.475	0.11
834.645	1
834.815	0.03
834.985	0.52
835.155	0.91
835.325	1.24
835.494	1.04
835.664	1.04
835.834	-0.2
836.004	0.94
836.174	0.71
836.344	1.66
836.514	0.3
836.684	0.95
836.853	1.31
837.023	1.42
837.193	1.18
837.363	1.52
837.532	1.17
837.702	0.62
837.872	0.24
838.041	1.43
838.211	1.45
838.381	0.48
838.55	0.96
838.72	1.65
838.89	1.78
839.059	1.14
839.229	0.21
839.398	2
839.568	0.53
839.738	0.18
839.907	0.52
840.077	1.56
840.246	0.14
840.416	-0.07
840.585	0.54
840.755	1.83
840.924	2.19
841.093	-0.48
841.263	0.65
841.432	1.54
841.602	-0.06
841.771	0.15
841.94	0.62
842.11	1.72
842.279	2.03
842.448	0.38
842.617	0.81
842.787	1.69
842.956	0.48
843.125	1.7
843.294	1.59
843.464	1.34
843.633	0.75
843.802	1.1
843.971	1.6
844.14	1.65
844.309	2.11
844.479	0.41
844.648	0.79
844.817	0.05
844.986	1.31
845.155	1.16
845.324	0.98
845.493	1.39
845.662	0.79
845.831	2.04
846	2
846.169	1.11
846.338	1.4
846.507	1.12
846.676	1.17
846.844	1.14
847.013	1.1
847.182	1.04
847.351	0.86
847.52	0.03
847.689	1.61
847.858	1.44
848.026	0.12
848.195	0.51
848.364	1.24
848.533	0.56
848.701	0.63
848.87	1.27
849.039	0.47
849.207	2.41
849.376	2.08
849.545	1.85
849.713	1.27
849.882	0.83
850.051	1.8
850.219	2.15
850.388	2.18
850.556	0.44
850.725	1.25
850.893	2.07
851.062	1.28
851.23	1.3
851.399	0.75
851.567	-0.41
851.736	1.62
851.904	1.04
852.073	1.38
852.241	1.89
852.41	2.15
852.578	1.18
852.746	0.69
852.915	1.59
853.083	0.7
853.251	0.23
853.42	1.46
853.588	1.54
853.756	3.29
853.924	1.48
854.093	1.05
854.261	1.1
854.429	-0.1
854.597	1.95
854.765	0.05
854.934	2.34
855.102	1.5
855.27	1.33
855.438	1.94
855.606	2.18
855.774	2.36
855.942	0.09
856.11	1.2
856.278	0.94
856.446	1.49
856.614	1.09
856.782	0.9
856.95	1.76
857.118	2.29
857.286	2.1
857.454	2
857.622	2.69
857.79	0.48
857.958	0.86
858.126	1.91
858.294	0.37
858.462	1.12
858.629	0.42
858.797	1.09
858.965	1.41
859.133	1.82
859.301	1.14
859.468	2.73
859.636	0.46
859.804	3.25
859.971	2.33
860.139	1.36
860.307	2.45
860.474	0.99
860.642	0.99
860.81	1.51
860.977	0.9
861.145	2.39
861.313	0.73
861.48	2.42
861.648	2.83
861.815	1.45
861.983	1.04
862.15	1.68
862.318	1.5
862.485	1.88
862.653	2.13
862.82	0.97
862.988	3.52
863.155	0.92
863.322	0.53
863.49	0.62
863.657	0.96
863.824	2.98
863.992	3.42
864.159	2.07
864.326	2.11
864.494	-0.03
864.661	3.37
864.828	2.16
864.996	2.43
865.163	2.49
865.33	0.69
865.497	0.22
865.664	0.28
865.832	0.78
865.999	0.52
866.166	1.22
866.333	0.46
866.5	2.05
866.667	1.38
866.834	1.07
867.001	2.65
867.168	0.49
867.335	2.96
867.502	-0.4
867.669	1.36
867.836	2.03
868.003	2.87
868.17	2.37
868.337	-0.66
868.504	4.46
868.671	0.57
868.838	1.17
869.005	0.78
869.172	2.89
869.339	0.67
869.505	2.06
869.672	-1.37
869.839	2.84
870.006	0.99
870.173	0.42
870.339	3.07
870.506	3.89
870.673	0.45
870.84	2.41
871.006	2.44
871.173	1.41
871.34	2.41
871.506	0.91
871.673	1.25
871.839	1.17
872.006	2.6
872.173	1.98
872.339	0.75
872.506	3.32
872.672	2.19
872.839	1.09
873.005	1.56
873.172	4.9
873.338	2.2
873.505	2.61
873.671	-0.04
873.838	1.98
874.004	1.59
874.171	2.28
874.337	2.49
874.503	2.43
874.67	1.53
874.836	1.3
875.002	3.24
875.169	2.79
875.335	2.61
875.501	1.34
875.668	2.25
875.834	2.05
876	1.7
876.166	4.14
876.332	2.63
876.499	2.85
876.665	2.22
876.831	2.81
876.997	3.51
877.163	3.19
877.329	2.15
877.495	1.84
877.662	1.72
877.828	3.73
877.994	0.38
878.16	-0.38
878.326	0.49
878.492	1.99
878.658	2.07
878.824	3.3
878.99	3.68
879.156	1.65
879.322	4.23
879.487	0.78
879.653	2.82
879.819	2.12
879.985	2.61
880.151	2.27
880.317	3.41
880.483	1.84
880.648	2.91
880.814	-0.51
880.98	4.57
881.146	2.23
881.312	1.27
881.477	1.46
881.643	1.16
881.809	3.12
881.974	2.87
882.14	0.28
882.306	1.05
882.471	4.23
882.637	2.29
882.803	4.4
882.968	3.57
883.134	4.67
883.299	0.48
883.465	1.51
883.63	4.45
883.796	1.58
883.961	2.65
884.127	2.3
884.292	-1.38
884.458	-0.74
884.623	-0.74
