Data from Apollo_Calib_20240827__AbsoluteIrradiance__874__13-43-00-370.txt Node

Date: Wed Aug 28 13:43:00 BST 2024
User: biology
Spectrometer: FLMT08252
Trigger mode: 0
Integration Time (sec): 5.000000E-1
Scans to average: 5
Electric dark correction enabled: true
Nonlinearity correction enabled: false
Boxcar width: 0
XAxis mode: Wavelengths
Number of Pixels in Spectrum: 3648
>>>>>Begin Spectral Data<<<<<
179.588	-0
179.809	-0
180.03	-0
180.251	-0
180.473	-0
180.694	0
180.915	0
181.136	-0
181.357	0
181.578	-0
181.799	0
182.02	-0
182.241	-0
182.462	-0
182.683	0
182.904	-0
183.125	-0
183.346	0
183.567	0
183.788	0
184.009	0
184.23	0
184.451	0
184.672	0
184.892	0
185.113	0
185.334	0
185.555	0
185.776	0
185.996	0
186.217	0
186.438	0
186.659	0
186.879	0
187.1	0
187.321	0
187.541	0
187.762	0
187.983	0
188.203	0
188.424	0
188.644	0
188.865	0
189.086	0
189.306	0
189.527	0
189.747	0
189.968	0
190.188	0
190.409	0
190.629	0
190.849	0
191.07	0
191.29	0
191.511	0
191.731	0
191.951	0
192.172	0
192.392	0
192.612	0
192.833	0
193.053	0
193.273	0
193.493	0
193.714	0
193.934	0
194.154	0
194.374	0
194.594	0
194.815	0
195.035	0
195.255	0
195.475	0
195.695	0
195.915	0
196.135	0
196.355	0
196.575	0
196.795	0
197.015	0
197.235	0
197.455	0
197.675	0
197.895	0
198.115	0
198.335	0
198.555	0
198.775	0
198.995	0
199.214	0
199.434	0
199.654	0
199.874	0
200.094	4.01
200.313	2.6
200.533	1.71
200.753	1.97
200.973	3.45
201.192	2.86
201.412	1.56
201.632	2.03
201.851	3.15
202.071	1.8
202.291	1.69
202.51	1.73
202.73	2.98
202.95	1.93
203.169	1.34
203.389	1.65
203.608	2.47
203.828	1.61
204.047	1.44
204.267	2.47
204.486	2.2
204.706	2.11
204.925	1.87
205.145	1.52
205.364	2.52
205.583	2.65
205.803	1.18
206.022	0.96
206.242	2.02
206.461	1.84
206.68	1.22
206.9	1.31
207.119	2.73
207.338	2.52
207.557	1.08
207.777	1.16
207.996	1.28
208.215	2.33
208.434	0.96
208.654	0.66
208.873	1.53
209.092	2.53
209.311	1.06
209.53	1.02
209.749	1.37
209.968	1.1
210.187	1.07
210.407	0.9
210.626	1.28
210.845	1.44
211.064	1.1
211.283	0.67
211.502	1.92
211.721	0.98
211.94	0.92
212.159	1.18
212.377	1.35
212.596	1.7
212.815	1.24
213.034	1.18
213.253	1.5
213.472	1.28
213.691	1.09
213.91	0.7
214.128	0.89
214.347	1.53
214.566	0.72
214.785	0.53
215.003	1.22
215.222	1.25
215.441	0.91
215.66	0.58
215.878	0.82
216.097	1.45
216.316	0.66
216.534	0.74
216.753	1.33
216.972	0.82
217.19	0.82
217.409	0.76
217.627	0.81
217.846	0.85
218.064	1
218.283	0.74
218.501	1.47
218.72	1.09
218.938	0.49
219.157	0.62
219.375	1.12
219.594	1.15
219.812	0.55
220.031	0.49
220.249	1.3
220.467	1.35
220.686	0.62
220.904	0.56
221.122	0.76
221.341	1.18
221.559	0.79
221.777	0.39
221.995	0.66
222.214	0.97
222.432	0.53
222.65	0.83
222.868	0.69
223.086	0.89
223.305	0.77
223.523	0.75
223.741	1.21
223.959	0.73
224.177	0.26
224.395	0.57
224.613	0.89
224.831	1.02
225.049	0.42
225.267	0.58
225.485	0.88
225.703	0.65
225.921	0.64
226.139	0.6
226.357	0.93
226.575	0.96
226.793	0.56
227.011	1.37
227.229	0.77
227.447	0.87
227.665	0.41
227.883	0.28
228.1	0.58
228.318	0.81
228.536	0.29
228.754	0.51
228.972	0.85
229.189	0.8
229.407	0.57
229.625	0.73
229.843	0.91
230.06	0.73
230.278	0.46
230.496	0.59
230.713	0.69
230.931	0.97
231.149	0.49
231.366	0.37
231.584	0.71
231.801	1.02
232.019	0.51
232.236	0.34
232.454	0.44
232.671	0.65
232.889	0.41
233.106	0.43
233.324	0.52
233.541	0.52
233.759	0.53
233.976	0.3
234.194	0.49
234.411	0.66
234.628	0.34
234.846	0.44
235.063	0.51
235.28	0.61
235.498	0.47
235.715	0.37
235.932	0.84
236.149	0.63
236.367	0.42
236.584	0.51
236.801	0.53
237.018	0.66
237.236	0.42
237.453	0.31
237.67	0.76
237.887	0.43
238.104	0.46
238.321	0.31
238.538	0.32
238.755	0.76
238.973	0.32
239.19	0.43
239.407	0.56
239.624	0.66
239.841	0.3
240.058	0.4
240.275	0.53
240.492	0.48
240.709	0.48
240.925	0.4
241.142	0.49
241.359	0.31
241.576	0.28
241.793	0.36
242.01	0.55
242.227	0.64
242.444	0.52
242.66	0.67
242.877	0.46
243.094	0.48
243.311	0.46
243.527	0.4
243.744	0.53
243.961	0.58
244.178	0.34
244.394	0.44
244.611	0.55
244.828	0.7
245.044	0.39
245.261	0.37
245.477	0.51
245.694	0.56
245.911	0.3
246.127	0.53
246.344	0.72
246.56	0.55
246.777	0.4
246.993	0.44
247.21	0.57
247.426	0.65
247.643	0.41
247.859	0.37
248.076	0.39
248.292	0.75
248.508	0.36
248.725	0.44
248.941	0.58
249.157	0.6
249.374	0.33
249.59	0.39
249.806	0.42
250.023	0.43
250.239	0.32
250.455	0.26
250.671	0.46
250.888	0.49
251.104	0.43
251.32	0.41
251.536	0.42
251.752	0.42
251.969	0.41
252.185	0.36
252.401	0.75
252.617	0.47
252.833	0.33
253.049	0.37
253.265	0.42
253.481	0.44
253.697	0.33
253.913	0.37
254.129	0.48
254.345	0.53
254.561	0.36
254.777	0.32
254.993	0.45
255.209	0.41
255.425	0.33
255.641	0.32
255.857	0.54
256.073	0.5
256.288	0.23
256.504	0.26
256.72	0.4
256.936	0.57
257.152	0.35
257.367	0.3
257.583	0.39
257.799	0.48
258.015	0.31
258.23	0.35
258.446	0.54
258.662	0.37
258.877	0.23
259.093	0.3
259.309	0.37
259.524	0.47
259.74	0.29
259.955	0.27
260.171	0.44
260.387	0.4
260.602	0.39
260.818	0.44
261.033	0.3
261.249	0.43
261.464	0.29
261.68	0.24
261.895	0.39
262.11	0.52
262.326	0.37
262.541	0.17
262.757	0.48
262.972	0.44
263.187	0.37
263.403	0.39
263.618	0.48
263.833	0.37
264.049	0.25
264.264	0.33
264.479	0.4
264.694	0.52
264.91	0.26
265.125	0.36
265.34	0.47
265.555	0.61
265.77	0.39
265.986	0.34
266.201	0.42
266.416	0.5
266.631	0.37
266.846	0.34
267.061	0.41
267.276	0.46
267.491	0.17
267.706	0.38
267.921	0.43
268.136	0.4
268.351	0.34
268.566	0.24
268.781	0.48
268.996	0.47
269.211	0.32
269.426	0.26
269.641	0.35
269.856	0.48
270.071	0.2
270.285	0.18
270.5	0.42
270.715	0.46
270.93	0.32
271.145	0.31
271.359	0.46
271.574	0.34
271.789	0.31
272.004	0.27
272.218	0.33
272.433	0.44
272.648	0.26
272.862	0.37
273.077	0.39
273.292	0.4
273.506	0.21
273.721	0.31
273.936	0.38
274.15	0.45
274.365	0.33
274.579	0.41
274.794	0.41
275.008	0.39
275.223	0.18
275.437	0.36
275.652	0.35
275.866	0.39
276.081	0.34
276.295	0.37
276.509	0.32
276.724	0.38
276.938	0.34
277.153	0.37
277.367	0.39
277.581	0.34
277.796	0.26
278.01	0.22
278.224	0.45
278.438	0.48
278.653	0.25
278.867	0.28
279.081	0.21
279.295	0.29
279.51	0.33
279.724	0.18
279.938	0.37
280.152	0.37
280.366	0.29
280.58	0.28
280.794	0.46
281.008	0.32
281.222	0.38
281.437	0.49
281.651	0.3
281.865	0.35
282.079	0.32
282.293	0.15
282.507	0.25
282.721	0.31
282.935	0.28
283.148	0.16
283.362	0.26
283.576	0.21
283.79	0.25
284.004	0.21
284.218	0.44
284.432	0.27
284.646	0.3
284.859	0.28
285.073	0.24
285.287	0.28
285.501	0.25
285.714	0.26
285.928	0.33
286.142	0.35
286.356	0.26
286.569	0.28
286.783	0.41
286.997	0.36
287.21	0.26
287.424	0.29
287.637	0.3
287.851	0.3
288.065	0.34
288.278	0.23
288.492	0.34
288.705	0.22
288.919	0.3
289.132	0.2
289.346	0.33
289.559	0.19
289.773	0.25
289.986	0.29
290.2	0.26
290.413	0.37
290.626	0.22
290.84	0.27
291.053	0.29
291.267	0.4
291.48	0.31
291.693	0.28
291.906	0.25
292.12	0.29
292.333	0.23
292.546	0.23
292.76	0.4
292.973	0.33
293.186	0.4
293.399	0.24
293.612	0.38
293.826	0.28
294.039	0.27
294.252	0.26
294.465	0.38
294.678	0.3
294.891	0.26
295.104	0.25
295.317	0.26
295.53	0.28
295.743	0.26
295.956	0.22
296.169	0.39
296.382	0.35
296.595	0.2
296.808	0.25
297.021	0.39
297.234	0.36
297.447	0.21
297.66	0.32
297.873	0.37
298.086	0.29
298.299	0.24
298.511	0.19
298.724	0.27
298.937	0.19
299.15	0.2
299.363	0.27
299.575	0.32
299.788	0.31
300.001	0.26
300.213	0.24
300.426	0.23
300.639	0.19
300.852	0.22
301.064	0.31
301.277	0.35
301.489	0.34
301.702	0.29
301.915	0.27
302.127	0.29
302.34	0.31
302.552	0.29
302.765	0.2
302.977	0.37
303.19	0.22
303.402	0.22
303.615	0.21
303.827	0.29
304.04	0.25
304.252	0.31
304.464	0.25
304.677	0.42
304.889	0.36
305.102	0.23
305.314	0.19
305.526	0.23
305.739	0.33
305.951	0.21
306.163	0.23
306.375	0.36
306.588	0.25
306.8	0.23
307.012	0.19
307.224	0.26
307.436	0.34
307.649	0.16
307.861	0.24
308.073	0.31
308.285	0.28
308.497	0.21
308.709	0.22
308.921	0.3
309.133	0.33
309.346	0.27
309.558	0.26
309.77	0.3
309.982	0.38
310.194	0.29
310.406	0.19
310.617	0.38
310.829	0.26
311.041	0.31
311.253	0.2
311.465	0.28
311.677	0.26
311.889	0.24
312.101	0.19
312.313	0.29
312.524	0.35
312.736	0.21
312.948	0.21
313.16	0.36
313.372	0.31
313.583	0.28
313.795	0.24
314.007	0.22
314.218	0.29
314.43	0.3
314.642	0.22
314.853	0.14
315.065	0.3
315.277	0.23
315.488	0.28
315.7	0.35
315.912	0.28
316.123	0.23
316.335	0.21
316.546	0.37
316.758	0.23
316.969	0.24
317.181	0.29
317.392	0.26
317.604	0.33
317.815	0.2
318.026	0.25
318.238	0.27
318.449	0.35
318.661	0.15
318.872	0.19
319.083	0.24
319.295	0.3
319.506	0.21
319.717	0.27
319.929	0.28
320.14	0.26
320.351	0.24
320.562	0.22
320.774	0.29
320.985	0.26
321.196	0.24
321.407	0.2
321.618	0.32
321.829	0.26
322.041	0.28
322.252	0.23
322.463	0.34
322.674	0.31
322.885	0.22
323.096	0.27
323.307	0.26
323.518	0.29
323.729	0.22
323.94	0.2
324.151	0.27
324.362	0.27
324.573	0.3
324.784	0.21
324.995	0.31
325.206	0.3
325.417	0.23
325.628	0.25
325.838	0.26
326.049	0.27
326.26	0.29
326.471	0.19
326.682	0.26
326.892	0.29
327.103	0.16
327.314	0.19
327.525	0.34
327.735	0.28
327.946	0.24
328.157	0.18
328.368	0.31
328.578	0.27
328.789	0.32
328.999	0.27
329.21	0.25
329.421	0.37
329.631	0.21
329.842	0.21
330.052	0.25
330.263	0.32
330.473	0.3
330.684	0.24
330.894	0.27
331.105	0.25
331.315	0.21
331.526	0.21
331.736	0.37
331.947	0.24
332.157	0.28
332.367	0.16
332.578	0.33
332.788	0.31
332.999	0.32
333.209	0.23
333.419	0.22
333.629	0.27
333.84	0.27
334.05	0.25
334.26	0.29
334.47	0.28
334.681	0.29
334.891	0.22
335.101	0.31
335.311	0.38
335.521	0.26
335.732	0.21
335.942	0.33
336.152	0.24
336.362	0.31
336.572	0.23
336.782	0.32
336.992	0.25
337.202	0.23
337.412	0.2
337.622	0.31
337.832	0.28
338.042	0.23
338.252	0.23
338.462	0.25
338.672	0.28
338.882	0.25
339.092	0.26
339.302	0.32
339.511	0.3
339.721	0.2
339.931	0.16
340.141	0.34
340.351	0.32
340.561	0.32
340.77	0.27
340.98	0.27
341.19	0.27
341.4	0.28
341.609	0.2
341.819	0.27
342.029	0.21
342.238	0.28
342.448	0.24
342.658	0.3
342.867	0.27
343.077	0.24
343.286	0.25
343.496	0.25
343.706	0.33
343.915	0.19
344.125	0.23
344.334	0.28
344.544	0.2
344.753	0.25
344.963	0.19
345.172	0.22
345.381	0.24
345.591	0.18
345.8	0.24
346.01	0.3
346.219	0.31
346.428	0.13
346.638	0.24
346.847	0.27
347.056	0.35
347.266	0.23
347.475	0.21
347.684	0.3
347.893	0.26
348.103	0.23
348.312	0.21
348.521	0.25
348.73	0.28
348.94	0.25
349.149	0.19
349.358	0.24
349.567	0.24
349.776	0.17
349.985	0.19
350.194	0.33
350.403	0.31
350.612	0.15
350.821	0.17
351.03	0.26
351.239	0.19
351.448	0.26
351.657	0.19
351.866	0.35
352.075	0.25
352.284	0.32
352.493	0.18
352.702	0.31
352.911	0.3
353.12	0.26
353.329	0.26
353.538	0.26
353.746	0.26
353.955	0.23
354.164	0.27
354.373	0.19
354.582	0.3
354.79	0.28
354.999	0.32
355.208	0.25
355.416	0.33
355.625	0.18
355.834	0.24
356.042	0.26
356.251	0.24
356.46	0.18
356.668	0.27
356.877	0.39
357.085	0.32
357.294	0.16
357.503	0.26
357.711	0.26
357.92	0.45
358.128	0.25
358.337	0.22
358.545	0.28
358.754	0.22
358.962	0.26
359.17	0.22
359.379	0.25
359.587	0.27
359.796	0.2
360.004	0.32
360.212	0.3
360.421	0.33
360.629	0.24
360.837	0.21
361.046	0.31
361.254	0.39
361.462	0.23
361.67	0.24
361.879	0.31
362.087	0.31
362.295	0.23
362.503	0.21
362.711	0.2
362.92	0.21
363.128	0.18
363.336	0.22
363.544	0.21
363.752	0.25
363.96	0.25
364.168	0.19
364.376	0.25
364.584	0.29
364.792	0.35
365	0.3
365.208	0.28
365.416	0.3
365.624	0.31
365.832	0.19
366.04	0.34
366.248	0.25
366.456	0.23
366.664	0.23
366.872	0.27
367.079	0.23
367.287	0.21
367.495	0.26
367.703	0.27
367.911	0.28
368.118	0.23
368.326	0.27
368.534	0.22
368.742	0.33
368.949	0.19
369.157	0.22
369.365	0.28
369.572	0.22
369.78	0.21
369.988	0.29
370.195	0.28
370.403	0.3
370.61	0.2
370.818	0.27
371.026	0.36
371.233	0.22
371.441	0.25
371.648	0.2
371.856	0.28
372.063	0.28
372.271	0.23
372.478	0.23
372.685	0.21
372.893	0.33
373.1	0.3
373.308	0.23
373.515	0.38
373.722	0.33
373.93	0.25
374.137	0.28
374.344	0.32
374.552	0.32
374.759	0.32
374.966	0.33
375.173	0.25
375.381	0.32
375.588	0.26
375.795	0.15
376.002	0.24
376.209	0.23
376.417	0.26
376.624	0.27
376.831	0.31
377.038	0.25
377.245	0.17
377.452	0.22
377.659	0.29
377.866	0.21
378.073	0.22
378.28	0.26
378.487	0.36
378.694	0.34
378.901	0.23
379.108	0.26
379.315	0.35
379.522	0.38
379.729	0.26
379.936	0.22
380.143	0.26
380.35	0.27
380.557	0.27
380.763	0.24
380.97	0.27
381.177	0.29
381.384	0.22
381.591	0.29
381.797	0.29
382.004	0.38
382.211	0.27
382.418	0.23
382.624	0.33
382.831	0.32
383.038	0.22
383.244	0.31
383.451	0.26
383.658	0.32
383.864	0.26
384.071	0.21
384.277	0.35
384.484	0.26
384.69	0.39
384.897	0.2
385.103	0.24
385.31	0.27
385.516	0.27
385.723	0.28
385.929	0.28
386.136	0.32
386.342	0.32
386.549	0.24
386.755	0.34
386.961	0.35
387.168	0.28
387.374	0.3
387.58	0.32
387.787	0.31
387.993	0.29
388.199	0.26
388.406	0.23
388.612	0.24
388.818	0.23
389.024	0.21
389.231	0.32
389.437	0.43
389.643	0.31
389.849	0.29
390.055	0.32
390.261	0.33
390.467	0.35
390.674	0.28
390.88	0.31
391.086	0.35
391.292	0.24
391.498	0.36
391.704	0.34
391.91	0.29
392.116	0.26
392.322	0.19
392.528	0.32
392.734	0.31
392.94	0.3
393.146	0.3
393.352	0.34
393.557	0.27
393.763	0.28
393.969	0.34
394.175	0.33
394.381	0.32
394.587	0.24
394.792	0.33
394.998	0.38
395.204	0.35
395.41	0.25
395.615	0.34
395.821	0.32
396.027	0.36
396.233	0.29
396.438	0.39
396.644	0.41
396.85	0.31
397.055	0.33
397.261	0.35
397.466	0.38
397.672	0.33
397.878	0.37
398.083	0.32
398.289	0.33
398.494	0.39
398.7	0.38
398.905	0.24
399.111	0.45
399.316	0.3
399.522	0.4
399.727	0.31
399.932	0.33
400.138	0.32
400.343	0.36
400.549	0.38
400.754	0.36
400.959	0.37
401.165	0.33
401.37	0.34
401.575	0.33
401.78	0.41
401.986	0.33
402.191	0.35
402.396	0.37
402.601	0.41
402.807	0.44
403.012	0.4
403.217	0.46
403.422	0.45
403.627	0.42
403.832	0.4
404.037	0.44
404.243	0.47
404.448	0.38
404.653	0.42
404.858	0.44
405.063	0.45
405.268	0.39
405.473	0.38
405.678	0.43
405.883	0.65
406.088	0.51
406.293	0.4
406.498	0.49
406.703	0.52
406.907	0.5
407.112	0.46
407.317	0.51
407.522	0.61
407.727	0.49
407.932	0.55
408.136	0.68
408.341	0.58
408.546	0.57
408.751	0.58
408.956	0.6
409.16	0.67
409.365	0.57
409.57	0.61
409.774	0.62
409.979	0.69
410.184	0.74
410.388	0.63
410.593	0.78
410.798	0.73
411.002	0.69
411.207	0.85
411.411	0.76
411.616	0.76
411.82	0.8
412.025	0.85
412.229	0.81
412.434	1.04
412.638	0.92
412.843	0.98
413.047	0.97
413.252	0.94
413.456	1.02
413.66	1.08
413.865	1.01
414.069	1.24
414.273	1.14
414.478	1.18
414.682	1.17
414.886	1.21
415.091	1.2
415.295	1.26
415.499	1.46
415.703	1.4
415.908	1.44
416.112	1.38
416.316	1.62
416.52	1.61
416.724	1.55
416.929	1.57
417.133	1.87
417.337	1.74
417.541	1.83
417.745	1.86
417.949	1.97
418.153	2.01
418.357	2
418.561	2.35
418.765	2.24
418.969	2.37
419.173	2.47
419.377	2.45
419.581	2.7
419.785	2.73
419.989	2.74
420.193	2.82
420.397	2.94
420.601	3.09
420.804	3.19
421.008	3.1
421.212	3.31
421.416	3.31
421.62	3.29
421.823	3.39
422.027	3.68
422.231	3.64
422.435	3.54
422.638	3.63
422.842	3.71
423.046	3.81
423.249	3.97
423.453	4.04
423.657	4.18
423.86	4.32
424.064	4.43
424.268	4.66
424.471	4.5
424.675	4.83
424.878	4.91
425.082	4.93
425.285	5.31
425.489	5.19
425.692	5.36
425.896	5.3
426.099	5.5
426.303	5.73
426.506	5.73
426.71	6
426.913	6.33
427.116	6.48
427.32	6.4
427.523	6.55
427.726	6.84
427.93	6.98
428.133	7.29
428.336	7.31
428.54	7.49
428.743	7.72
428.946	7.95
429.149	7.96
429.353	8.02
429.556	8.14
429.759	8.11
429.962	8.13
430.165	8.38
430.368	8.02
430.571	8.27
430.775	8.21
430.978	8.1
431.181	8.24
431.384	8.33
431.587	8.28
431.79	8.75
431.993	8.59
432.196	8.95
432.399	9.31
432.602	9.48
432.805	9.54
433.008	10.11
433.211	9.94
433.414	10.34
433.616	10.32
433.819	10.33
434.022	10.48
434.225	10.71
434.428	10.65
434.631	11.21
434.833	10.88
435.036	11.25
435.239	11.38
435.442	11.35
435.645	11.52
435.847	11.63
436.05	11.93
436.253	12.24
436.455	12.28
436.658	12.03
436.861	12.48
437.063	12.66
437.266	12.51
437.468	12.8
437.671	13.15
437.874	13.24
438.076	13
438.279	13.52
438.481	13.54
438.684	14.33
438.886	13.84
439.089	14.19
439.291	14.26
439.494	14.56
439.696	14.84
439.899	15.36
440.101	15.76
440.303	15.89
440.506	16.66
440.708	16.36
440.91	16.72
441.113	16.78
441.315	16.97
441.517	16.78
441.72	17.45
441.922	16.84
442.124	16.81
442.326	17.26
442.529	17.49
442.731	17.48
442.933	17.68
443.135	17.54
443.337	17.47
443.539	18.01
443.742	17.7
443.944	18.48
444.146	18.27
444.348	18.12
444.55	17.97
444.752	18.12
444.954	18.11
445.156	18.06
445.358	18.42
445.56	18.69
445.762	18.49
445.964	18.88
446.166	18.66
446.368	18.51
446.57	18.52
446.772	18.12
446.974	17.93
447.175	18.16
447.377	17.88
447.579	18.28
447.781	18.03
447.983	17.79
448.184	17.34
448.386	17.68
448.588	17.16
448.79	17.11
448.991	17.53
449.193	17.48
449.395	16.77
449.597	16.48
449.798	16.23
450	15.84
450.202	15.85
450.403	15.75
450.605	15.62
450.806	15.28
451.008	15.15
451.21	14.74
451.411	14.44
451.613	13.56
451.814	13.82
452.016	13.96
452.217	13.18
452.419	13.19
452.62	12.91
452.821	12.54
453.023	12.55
453.224	12.17
453.426	11.68
453.627	10.94
453.828	11.08
454.03	11.12
454.231	11.14
454.432	10.94
454.634	10.79
454.835	10.34
455.036	10.15
455.238	9.86
455.439	9.65
455.64	9.33
455.841	9.26
456.042	9.46
456.244	9.09
456.445	8.83
456.646	8.44
456.847	8.46
457.048	8.42
457.249	8.39
457.45	8.21
457.651	7.67
457.852	7.55
458.054	7.14
458.255	7.16
458.456	7.17
458.657	7.17
458.858	6.68
459.058	6.56
459.259	6.58
459.46	6.39
459.661	6.28
459.862	6.42
460.063	6.24
460.264	6.19
460.465	5.84
460.666	5.98
460.866	5.69
461.067	5.53
461.268	5.49
461.469	5.38
461.67	5.39
461.87	5.12
462.071	5.16
462.272	5.01
462.473	5
462.673	5.27
462.874	5.09
463.075	5.06
463.275	5.09
463.476	5.05
463.676	5.1
463.877	4.89
464.078	4.86
464.278	4.88
464.479	4.79
464.679	4.62
464.88	4.62
465.08	4.63
465.281	4.42
465.481	4.27
465.682	4.12
465.882	4.16
466.083	4.03
466.283	3.95
466.483	3.8
466.684	3.68
466.884	3.58
467.085	3.61
467.285	3.7
467.485	3.58
467.686	3.43
467.886	3.43
468.086	3.3
468.286	3.29
468.487	3.43
468.687	3.22
468.887	3.18
469.087	3.3
469.287	3.25
469.488	3.05
469.688	3.2
469.888	3.2
470.088	3.08
470.288	3.01
470.488	3.06
470.688	2.88
470.888	2.83
471.088	2.66
471.288	2.79
471.488	2.72
471.688	2.71
471.888	2.66
472.088	2.81
472.288	2.68
472.488	2.53
472.688	2.54
472.888	2.56
473.088	2.52
473.288	2.47
473.488	2.38
473.688	2.57
473.887	2.48
474.087	2.42
474.287	2.39
474.487	2.38
474.687	2.39
474.886	2.35
475.086	2.29
475.286	2.34
475.486	2.25
475.685	2.23
475.885	2.2
476.085	2.25
476.284	2.28
476.484	2.23
476.684	2.18
476.883	2.28
477.083	2.17
477.282	2.07
477.482	2.16
477.681	2.15
477.881	2.05
478.08	2.1
478.28	2.03
478.479	2.06
478.679	2.11
478.878	2.03
479.078	2.01
479.277	2.04
479.477	2.06
479.676	2.03
479.875	1.99
480.075	1.93
480.274	2.03
480.473	2.05
480.673	1.99
480.872	2.08
481.071	2
481.271	2.02
481.47	1.97
481.669	1.94
481.868	1.9
482.067	1.97
482.267	1.89
482.466	1.92
482.665	1.93
482.864	1.96
483.063	1.91
483.262	2
483.461	2.06
483.661	2.04
483.86	2.02
484.059	2.03
484.258	2.02
484.457	2
484.656	2.02
484.855	2.11
485.054	1.91
485.253	1.98
485.452	1.92
485.651	2
485.849	2.01
486.048	1.97
486.247	2.03
486.446	2.08
486.645	2
486.844	2.07
487.043	2.03
487.241	2.09
487.44	2.05
487.639	2.13
487.838	2.1
488.037	2.1
488.235	2.21
488.434	2.16
488.633	2.03
488.831	2.19
489.03	2.19
489.229	2.21
489.427	2.21
489.626	2.26
489.825	2.28
490.023	2.34
490.222	2.28
490.42	2.33
490.619	2.35
490.817	2.39
491.016	2.38
491.214	2.43
491.413	2.45
491.611	2.38
491.81	2.38
492.008	2.48
492.207	2.51
492.405	2.53
492.604	2.48
492.802	2.56
493	2.59
493.199	2.61
493.397	2.63
493.595	2.68
493.794	2.65
493.992	2.76
494.19	2.73
494.388	2.82
494.587	2.77
494.785	2.78
494.983	2.69
495.181	2.86
495.379	2.91
495.578	2.94
495.776	2.91
495.974	2.95
496.172	2.92
496.37	3.1
496.568	3.1
496.766	3.08
496.964	3.17
497.162	3.19
497.36	3.21
497.558	3.23
497.756	3.33
497.954	3.28
498.152	3.37
498.35	3.4
498.548	3.38
498.746	3.42
498.944	3.39
499.142	3.47
499.34	3.5
499.538	3.66
499.736	3.53
499.933	3.62
500.131	3.61
500.329	3.78
500.527	3.73
500.725	3.87
500.922	3.91
501.12	3.82
501.318	3.94
501.516	3.94
501.713	4
501.911	3.99
502.109	3.95
502.306	4.11
502.504	4.04
502.701	4.11
502.899	4.14
503.097	4.33
503.294	4.23
503.492	4.34
503.689	4.42
503.887	4.33
504.084	4.52
504.282	4.46
504.479	4.44
504.677	4.57
504.874	4.54
505.072	4.47
505.269	4.68
505.466	4.69
505.664	4.72
505.861	4.64
506.059	4.79
506.256	4.8
506.453	4.77
506.651	4.97
506.848	4.96
507.045	4.97
507.242	5.01
507.44	4.98
507.637	5.1
507.834	5.1
508.031	5.22
508.229	5.14
508.426	5.06
508.623	5.24
508.82	5.31
509.017	5.22
509.214	5.22
509.411	5.41
509.608	5.36
509.805	5.45
510.003	5.48
510.2	5.49
510.397	5.64
510.594	5.54
510.791	5.63
510.988	5.62
511.184	5.66
511.381	5.55
511.578	5.67
511.775	5.85
511.972	5.74
512.169	5.83
512.366	5.84
512.563	5.94
512.76	6.01
512.956	6.02
513.153	5.96
513.35	5.92
513.547	5.89
513.744	6
513.94	6.08
514.137	6.15
514.334	6.14
514.53	6.21
514.727	6.38
514.924	6.25
515.12	6.2
515.317	6.3
515.514	6.19
515.71	6.22
515.907	6.47
516.103	6.41
516.3	6.29
516.497	6.46
516.693	6.51
516.89	6.5
517.086	6.55
517.283	6.56
517.479	6.38
517.676	6.62
517.872	6.66
518.068	6.65
518.265	6.62
518.461	6.52
518.658	6.74
518.854	6.66
519.05	6.82
519.247	6.82
519.443	6.8
519.639	6.93
519.836	6.81
520.032	6.74
520.228	6.91
520.424	6.9
520.621	6.91
520.817	6.98
521.013	6.94
521.209	7.1
521.405	7.04
521.601	7.06
521.798	6.98
521.994	7.04
522.19	6.99
522.386	7
522.582	7.15
522.778	7.26
522.974	7.15
523.17	7.12
523.366	7.13
523.562	7.17
523.758	7.24
523.954	7.03
524.15	7.24
524.346	7.26
524.542	7.27
524.738	7.19
524.934	7.32
525.129	7.31
525.325	7.26
525.521	7.22
525.717	7.48
525.913	7.32
526.109	7.34
526.304	7.43
526.5	7.52
526.696	7.46
526.892	7.39
527.087	7.58
527.283	7.5
527.479	7.52
527.674	7.32
527.87	7.55
528.066	7.53
528.261	7.53
528.457	7.46
528.653	7.58
528.848	7.59
529.044	7.75
529.239	7.53
529.435	7.55
529.63	7.53
529.826	7.54
530.021	7.6
530.217	7.66
530.412	7.59
530.608	7.6
530.803	7.66
530.999	7.54
531.194	7.64
531.389	7.76
531.585	7.69
531.78	7.77
531.975	7.72
532.171	7.76
532.366	7.74
532.561	7.79
532.757	7.71
532.952	7.87
533.147	7.62
533.342	7.79
533.538	7.7
533.733	7.91
533.928	7.58
534.123	7.84
534.318	7.87
534.513	7.74
534.709	8.01
534.904	7.78
535.099	7.88
535.294	7.93
535.489	7.9
535.684	7.76
535.879	7.78
536.074	7.95
536.269	7.86
536.464	7.97
536.659	7.88
536.854	7.89
537.049	7.94
537.244	7.87
537.439	7.87
537.634	7.97
537.828	7.95
538.023	7.95
538.218	7.93
538.413	7.82
538.608	7.88
538.803	7.96
538.997	7.93
539.192	7.98
539.387	7.85
539.582	7.91
539.776	7.89
539.971	7.97
540.166	8.02
540.36	7.88
540.555	8.1
540.75	7.99
540.944	8.02
541.139	8.04
541.334	7.98
541.528	7.99
541.723	8.06
541.917	8.06
542.112	7.96
542.306	7.87
542.501	7.93
542.695	7.96
542.89	7.93
543.084	7.94
543.279	7.97
543.473	8.09
543.668	8.02
543.862	7.88
544.056	7.87
544.251	8.04
544.445	8.15
544.64	8.11
544.834	7.81
545.028	7.66
545.222	8.01
545.417	8.19
545.611	8.1
545.805	8.01
546	7.86
546.194	8.1
546.388	8.11
546.582	7.97
546.776	7.91
546.97	8.05
547.165	8.06
547.359	8
547.553	7.99
547.747	8.02
547.941	8.27
548.135	8.02
548.329	8.14
548.523	8.11
548.717	8.02
548.911	8
549.105	7.99
549.299	8.11
549.493	8.18
549.687	8
549.881	8.19
550.075	8.09
550.269	7.95
550.463	8.1
550.657	8.13
550.85	8.08
551.044	8.08
551.238	8.17
551.432	8.08
551.626	8.1
551.82	8.17
552.013	8.03
552.207	8.17
552.401	8.14
552.594	8.08
552.788	8.02
552.982	8.07
553.176	8.02
553.369	8.21
553.563	8.16
553.756	8.05
553.95	8.15
554.144	8.19
554.337	8.17
554.531	7.95
554.724	8.13
554.918	8.15
555.111	8.06
555.305	8.12
555.498	8.07
555.692	8.17
555.885	8.12
556.079	8.09
556.272	8.12
556.466	8.13
556.659	8.11
556.852	8.17
557.046	8
557.239	7.96
557.432	8
557.626	8.16
557.819	8.15
558.012	8.15
558.206	8.24
558.399	8.13
558.592	8.06
558.785	8.02
558.979	8.15
559.172	8.1
559.365	8.11
559.558	8.12
559.751	8.02
559.944	8.21
560.138	8.09
560.331	8.14
560.524	8.2
560.717	8.07
560.91	8.14
561.103	8.15
561.296	7.97
561.489	8.11
561.682	8.21
561.875	8.19
562.068	8.2
562.261	8.05
562.454	8.32
562.647	8.15
562.84	8.16
563.032	8.12
563.225	8.03
563.418	8.05
563.611	8.18
563.804	8.14
563.997	7.99
564.19	7.87
564.382	8.22
564.575	8.07
564.768	8.03
564.961	8.22
565.153	7.99
565.346	7.95
565.539	8.19
565.731	8.08
565.924	8.18
566.117	8.22
566.309	8.14
566.502	8.03
566.695	8.05
566.887	8.15
567.08	8.05
567.272	8.17
567.465	7.96
567.657	8.13
567.85	7.99
568.042	8.07
568.235	8.13
568.427	7.95
568.62	8.06
568.812	7.98
569.005	8.12
569.197	7.95
569.389	8.01
569.582	8.09
569.774	8.08
569.966	8
570.159	7.94
570.351	7.95
570.543	8.03
570.736	8.05
570.928	7.86
571.12	8.04
571.312	7.94
571.505	7.82
571.697	8.06
571.889	7.98
572.081	7.97
572.273	7.91
572.465	8.01
572.658	7.97
572.85	7.99
573.042	7.98
573.234	7.93
573.426	7.96
573.618	7.95
573.81	7.98
574.002	7.89
574.194	7.95
574.386	7.89
574.578	7.77
574.77	7.91
574.962	7.97
575.154	7.75
575.346	7.86
575.538	7.89
575.729	7.8
575.921	7.99
576.113	7.94
576.305	7.92
576.497	8
576.689	7.81
576.88	7.82
577.072	7.99
577.264	7.87
577.456	7.85
577.647	7.83
577.839	7.97
578.031	7.82
578.223	7.77
578.414	7.75
578.606	7.8
578.798	7.87
578.989	7.78
579.181	7.89
579.372	7.83
579.564	7.86
579.755	7.74
579.947	7.68
580.139	7.83
580.33	7.66
580.522	7.75
580.713	7.69
580.905	7.7
581.096	7.8
581.287	7.76
581.479	7.68
581.67	7.82
581.862	7.68
582.053	7.72
582.244	7.59
582.436	7.84
582.627	7.63
582.818	7.6
583.01	7.6
583.201	7.7
583.392	7.63
583.583	7.61
583.775	7.45
583.966	7.58
584.157	7.65
584.348	7.66
584.54	7.53
584.731	7.64
584.922	7.53
585.113	7.48
585.304	7.59
585.495	7.58
585.686	7.64
585.877	7.57
586.068	7.68
586.259	7.55
586.45	7.46
586.641	7.5
586.832	7.58
587.023	7.53
587.214	7.46
587.405	7.52
587.596	7.43
587.787	7.39
587.978	7.44
588.169	7.42
588.36	7.35
588.551	7.47
588.742	7.44
588.932	7.46
589.123	7.23
589.314	7.51
589.505	7.33
589.696	7.34
589.886	7.29
590.077	7.39
590.268	7.22
590.458	7.17
590.649	7.1
590.84	7.32
591.03	7.28
591.221	7.31
591.412	7.13
591.602	7.29
591.793	7.24
591.984	7.28
592.174	7.21
592.365	7.39
592.555	7.04
592.746	7.09
592.936	7.14
593.127	7.25
593.317	7.21
593.508	7.18
593.698	7.07
593.889	7.1
594.079	7.15
594.269	7.06
594.46	7.05
594.65	7.12
594.84	7.1
595.031	6.97
595.221	7.05
595.411	6.98
595.602	7.02
595.792	6.95
595.982	6.85
596.172	7.1
596.363	6.94
596.553	6.9
596.743	7.01
596.933	6.94
597.123	6.92
597.314	6.78
597.504	6.7
597.694	6.92
597.884	6.73
598.074	6.87
598.264	6.75
598.454	6.86
598.644	6.75
598.834	6.73
599.024	6.68
599.214	6.71
599.404	6.81
599.594	6.66
599.784	6.67
599.974	6.72
600.164	6.7
600.354	6.57
600.544	6.57
600.734	6.64
600.924	6.63
601.114	6.53
601.303	6.6
601.493	6.57
601.683	6.56
601.873	6.51
602.063	6.41
602.252	6.5
602.442	6.46
602.632	6.47
602.821	6.31
603.011	6.5
603.201	6.47
603.39	6.36
603.58	6.25
603.77	6.44
603.959	6.46
604.149	6.35
604.339	6.29
604.528	6.44
604.718	6.4
604.907	6.34
605.097	6.23
605.286	6.23
605.476	6.27
605.665	6.33
605.855	6.21
606.044	6.35
606.234	6.28
606.423	6.16
606.612	6.21
606.802	6.12
606.991	6.21
607.181	6.14
607.37	6.19
607.559	5.93
607.749	6.06
607.938	5.99
608.127	5.97
608.316	5.99
608.506	6.03
608.695	6.11
608.884	5.97
609.073	6.01
609.263	6.06
609.452	5.99
609.641	5.93
609.83	5.88
610.019	5.95
610.208	5.87
610.397	5.87
610.586	5.84
610.775	5.8
610.965	5.81
611.154	5.71
611.343	5.82
611.532	5.8
611.721	5.82
611.91	5.67
612.099	5.71
612.287	5.65
612.476	5.58
612.665	5.75
612.854	5.62
613.043	5.61
613.232	5.61
613.421	5.59
613.61	5.54
613.798	5.54
613.987	5.57
614.176	5.55
614.365	5.54
614.554	5.48
614.742	5.57
614.931	5.31
615.12	5.52
615.309	5.5
615.497	5.44
615.686	5.22
615.875	5.35
616.063	5.36
616.252	5.33
616.44	5.34
616.629	5.32
616.818	5.34
617.006	5.29
617.195	5.2
617.383	5.27
617.572	5.16
617.76	5.21
617.949	5.18
618.137	5.26
618.326	5.25
618.514	4.98
618.703	5.04
618.891	5.23
619.079	5.05
619.268	5.13
619.456	5
619.644	5.14
619.833	5.05
620.021	4.98
620.209	4.9
620.398	5.06
620.586	4.91
620.774	5
620.962	4.92
621.151	5.01
621.339	4.91
621.527	4.78
621.715	4.86
621.903	4.89
622.092	4.73
622.28	4.91
622.468	4.74
622.656	4.79
622.844	4.78
623.032	4.76
623.22	4.68
623.408	4.85
623.596	4.79
623.784	4.74
623.972	4.62
624.16	4.66
624.348	4.67
624.536	4.73
624.724	4.58
624.912	4.63
625.1	4.63
625.288	4.61
625.476	4.55
625.664	4.66
625.851	4.48
626.039	4.58
626.227	4.48
626.415	4.52
626.603	4.38
626.79	4.51
626.978	4.46
627.166	4.46
627.354	4.37
627.541	4.37
627.729	4.22
627.917	4.52
628.104	4.41
628.292	4.33
628.48	4.36
628.667	4.3
628.855	4.37
629.042	4.32
629.23	4.27
629.418	4.25
629.605	4.22
629.793	4.17
629.98	4.21
630.168	4.12
630.355	4.23
630.543	4.14
630.73	4.1
630.917	4.08
631.105	4.21
631.292	4.11
631.48	4.09
631.667	4.18
631.854	4.05
632.042	4.02
632.229	3.96
632.416	4.09
632.604	3.98
632.791	3.85
632.978	4.04
633.165	3.96
633.353	4.04
633.54	3.96
633.727	3.78
633.914	3.9
634.101	3.83
634.289	3.89
634.476	3.76
634.663	3.83
634.85	3.84
635.037	3.76
635.224	3.65
635.411	3.78
635.598	3.69
635.785	3.69
635.972	3.65
636.159	3.69
636.346	3.7
636.533	3.61
636.72	3.66
636.907	3.69
637.094	3.64
637.281	3.48
637.468	3.56
637.655	3.55
637.842	3.57
638.029	3.54
638.215	3.51
638.402	3.51
638.589	3.46
638.776	3.48
638.963	3.45
639.149	3.52
639.336	3.57
639.523	3.44
639.709	3.44
639.896	3.38
640.083	3.4
640.27	3.42
640.456	3.37
640.643	3.36
640.829	3.24
641.016	3.27
641.203	3.22
641.389	3.33
641.576	3.32
641.762	3.23
641.949	3.21
642.135	3.28
642.322	3.26
642.508	3.11
642.695	3.2
642.881	3.15
643.068	3.1
643.254	3.18
643.441	3.19
643.627	3.16
643.813	3.03
644	3.12
644.186	2.99
644.372	3.03
644.559	3.09
644.745	3.05
644.931	3
645.118	3.02
645.304	2.99
645.49	3.06
645.676	2.98
645.862	2.98
646.049	3.01
646.235	2.99
646.421	3.08
646.607	3.06
646.793	2.95
646.979	2.79
647.165	2.9
647.352	2.92
647.538	2.86
647.724	2.85
647.91	2.78
648.096	2.88
648.282	2.87
648.468	2.77
648.654	2.83
648.84	2.78
649.026	2.78
649.212	2.74
649.397	2.69
649.583	2.7
649.769	2.74
649.955	2.71
650.141	2.68
650.327	2.74
650.513	2.63
650.698	2.66
650.884	2.49
651.07	2.65
651.256	2.63
651.442	2.65
651.627	2.54
651.813	2.62
651.999	2.54
652.184	2.58
652.37	2.54
652.556	2.55
652.741	2.64
652.927	2.43
653.113	2.45
653.298	2.58
653.484	2.48
653.669	2.39
653.855	2.39
654.04	2.58
654.226	2.46
654.412	2.39
654.597	2.34
654.782	2.44
654.968	2.45
655.153	2.41
655.339	2.38
655.524	2.3
655.71	2.43
655.895	2.38
656.08	2.34
656.266	2.43
656.451	2.3
656.636	2.28
656.822	2.31
657.007	2.31
657.192	2.26
657.378	2.21
657.563	2.25
657.748	2.28
657.933	2.28
658.118	2.15
658.304	2.24
658.489	2.27
658.674	2.22
658.859	2.16
659.044	2.18
659.229	2.22
659.414	2.15
659.599	2.15
659.785	2.05
659.97	2.09
660.155	2.17
660.34	2.19
660.525	2.05
660.71	2.05
660.895	2.11
661.08	2.07
661.264	1.99
661.449	2.08
661.634	2.05
661.819	2.07
662.004	2.07
662.189	1.98
662.374	2
662.559	1.9
662.743	1.9
662.928	1.97
663.113	2
663.298	1.94
663.483	1.97
663.667	1.93
663.852	1.94
664.037	1.97
664.221	1.91
664.406	1.94
664.591	1.95
664.775	1.91
664.96	1.86
665.145	1.91
665.329	1.94
665.514	1.87
665.698	1.8
665.883	1.78
666.068	1.94
666.252	1.89
666.437	1.81
666.621	1.8
666.806	1.85
666.99	1.78
667.174	1.8
667.359	1.84
667.543	1.76
667.728	1.77
667.912	1.67
668.096	1.83
668.281	1.71
668.465	1.74
668.649	1.72
668.834	1.74
669.018	1.73
669.202	1.67
669.387	1.67
669.571	1.78
669.755	1.64
669.939	1.69
670.124	1.69
670.308	1.75
670.492	1.68
670.676	1.62
670.86	1.65
671.044	1.61
671.228	1.66
671.413	1.54
671.597	1.59
671.781	1.58
671.965	1.63
672.149	1.59
672.333	1.59
672.517	1.53
672.701	1.58
672.885	1.57
673.069	1.42
673.253	1.68
673.437	1.53
673.621	1.5
673.804	1.5
673.988	1.57
674.172	1.51
674.356	1.36
674.54	1.46
674.724	1.59
674.908	1.45
675.091	1.52
675.275	1.46
675.459	1.53
675.643	1.52
675.826	1.48
676.01	1.44
676.194	1.44
676.377	1.55
676.561	1.48
676.745	1.44
676.928	1.5
677.112	1.47
677.296	1.36
677.479	1.39
677.663	1.38
677.846	1.48
678.03	1.36
678.213	1.29
678.397	1.36
678.58	1.38
678.764	1.34
678.947	1.34
679.131	1.36
679.314	1.38
679.498	1.33
679.681	1.35
679.865	1.37
680.048	1.32
680.231	1.24
680.415	1.24
680.598	1.26
680.781	1.25
680.965	1.26
681.148	1.25
681.331	1.28
681.514	1.3
681.698	1.22
681.881	1.25
682.064	1.33
682.247	1.3
682.43	1.13
682.614	1.28
682.797	1.3
682.98	1.23
683.163	1.13
683.346	1.22
683.529	1.23
683.712	1.11
683.895	1.22
684.078	1.12
684.261	1.18
684.444	1.23
684.627	1.3
684.81	1.19
684.993	1.18
685.176	1.19
685.359	1.15
685.542	1.08
685.725	1.25
685.908	1.15
686.091	1.13
686.274	1.22
686.457	1.16
686.639	1.15
686.822	1.11
687.005	1.19
687.188	1.22
687.371	1.28
687.553	1.15
687.736	1.15
687.919	1.24
688.102	1.19
688.284	1.04
688.467	1.1
688.65	1.09
688.832	1.01
689.015	1.04
689.197	0.88
689.38	1.19
689.563	1.17
689.745	1.01
689.928	1
690.11	1.04
690.293	1.07
690.475	0.92
690.658	1.01
690.84	1.02
691.023	0.96
691.205	0.97
691.388	1.01
691.57	1.14
691.752	1.07
691.935	0.92
692.117	0.96
692.3	0.99
692.482	0.93
692.664	0.94
692.847	0.98
693.029	1.09
693.211	1.01
693.393	0.93
693.576	0.95
693.758	0.95
693.94	0.98
694.122	0.96
694.304	0.94
694.487	0.92
694.669	0.98
694.851	0.9
695.033	0.92
695.215	0.92
695.397	0.89
695.579	0.95
695.761	0.86
695.943	0.8
696.125	1
696.308	0.96
696.49	0.81
696.671	1.05
696.853	0.94
697.035	1.13
697.217	0.81
697.399	0.98
697.581	0.88
697.763	0.86
697.945	0.81
698.127	0.89
698.309	0.97
698.491	0.89
698.672	0.92
698.854	0.94
699.036	1
699.218	0.86
699.399	0.89
699.581	0.89
699.763	0.81
699.945	0.79
700.126	0.7
700.308	0.84
700.49	0.82
700.671	0.71
700.853	0.76
701.035	0.76
701.216	0.84
701.398	0.73
701.579	0.74
701.761	0.97
701.943	0.75
702.124	0.74
702.306	0.79
702.487	0.95
702.669	0.74
702.85	0.75
703.031	0.68
703.213	0.93
703.394	0.9
703.576	0.7
703.757	0.96
703.938	0.85
704.12	1.03
704.301	0.78
704.483	0.66
704.664	0.76
704.845	0.87
705.026	0.81
705.208	0.73
705.389	0.79
705.57	0.8
705.751	0.76
705.933	0.7
706.114	0.85
706.295	0.77
706.476	0.64
706.657	0.82
706.838	0.78
707.02	0.79
707.201	0.7
707.382	0.73
707.563	0.76
707.744	0.73
707.925	0.63
708.106	0.66
708.287	0.74
708.468	0.79
708.649	0.71
708.83	0.75
709.011	0.64
709.192	0.83
709.373	0.62
709.554	0.64
709.734	0.76
709.915	0.8
710.096	0.66
710.277	0.53
710.458	0.66
710.639	0.72
710.819	0.52
711	0.61
711.181	0.65
711.362	0.75
711.542	0.68
711.723	0.63
711.904	0.78
712.085	0.71
712.265	0.74
712.446	0.56
712.627	0.65
712.807	0.64
712.988	0.72
713.168	0.48
713.349	0.72
713.53	0.53
713.71	0.58
713.891	0.59
714.071	0.64
714.252	0.57
714.432	0.59
714.613	0.5
714.793	0.61
714.974	0.73
715.154	0.71
715.334	0.67
715.515	0.72
715.695	0.48
715.876	0.52
716.056	0.5
716.236	0.56
716.417	0.63
716.597	0.51
716.777	0.87
716.957	0.57
717.138	0.69
717.318	0.62
717.498	0.48
717.678	0.65
717.859	0.56
718.039	0.51
718.219	0.55
718.399	0.54
718.579	0.5
718.759	0.51
718.939	0.55
719.12	0.62
719.3	0.67
719.48	0.38
719.66	0.42
719.84	0.66
720.02	0.62
720.2	0.53
720.38	0.5
720.56	0.73
720.74	0.46
720.92	0.55
721.1	0.75
721.279	0.56
721.459	0.55
721.639	0.41
721.819	0.59
721.999	0.48
722.179	0.63
722.359	0.39
722.538	0.53
722.718	0.58
722.898	0.48
723.078	0.51
723.257	0.48
723.437	0.56
723.617	0.5
723.797	0.53
723.976	0.54
724.156	0.6
724.336	0.71
724.515	0.68
724.695	0.42
724.874	0.54
725.054	0.61
725.234	0.55
725.413	0.48
725.593	0.45
725.772	0.53
725.952	0.5
726.131	0.47
726.311	0.49
726.49	0.49
726.67	0.41
726.849	0.49
727.028	0.7
727.208	0.53
727.387	0.44
727.567	0.35
727.746	0.55
727.925	0.58
728.105	0.39
728.284	0.55
728.463	0.49
728.643	0.55
728.822	0.35
729.001	0.43
729.18	0.51
729.359	0.63
729.539	0.57
729.718	0.47
729.897	0.63
730.076	0.42
730.255	0.38
730.434	0.53
730.614	0.58
730.793	0.71
730.972	0.45
731.151	0.46
731.33	0.64
731.509	0.56
731.688	0.47
731.867	0.54
732.046	0.41
732.225	0.76
732.404	0.52
732.583	0.44
732.762	0.46
732.941	0.6
733.12	0.59
733.298	0.49
733.477	0.69
733.656	0.38
733.835	0.25
734.014	0.56
734.193	0.52
734.371	0.54
734.55	0.55
734.729	0.4
734.908	0.54
735.086	0.54
735.265	0.62
735.444	0.27
735.623	0.33
735.801	0.51
735.98	0.45
736.159	0.47
736.337	0.58
736.516	0.47
736.694	0.59
736.873	0.51
737.052	0.85
737.23	0.61
737.409	0.39
737.587	0.71
737.766	0.4
737.944	0.41
738.123	0.61
738.301	0.62
738.479	0.42
738.658	0.56
738.836	0.21
739.015	0.49
739.193	0.67
739.371	0.39
739.55	0.53
739.728	0.36
739.906	0.62
740.085	0.77
740.263	0.47
740.441	0.27
740.62	0.71
740.798	0.47
740.976	0.34
741.154	0.44
741.332	0.71
741.511	0.44
741.689	0.44
741.867	0.69
742.045	0.6
742.223	0.56
742.401	0.28
742.579	0.34
742.757	0.62
742.935	0.38
743.114	0.27
743.292	0.42
743.47	0.46
743.648	0.53
743.826	0.47
744.004	0.49
744.181	0.53
744.359	0.31
744.537	0.44
744.715	0.44
744.893	0.41
745.071	0.52
745.249	0.39
745.427	0.46
745.605	0.48
745.782	0.44
745.96	0.58
746.138	0.54
746.316	0.5
746.493	0.47
746.671	0.37
746.849	0.31
747.027	0.63
747.204	0.28
747.382	0.49
747.56	0.31
747.737	0.52
747.915	0.49
748.093	0.49
748.27	0.33
748.448	0.4
748.625	0.3
748.803	0.36
748.98	0.34
749.158	0.52
749.335	0.49
749.513	0.34
749.69	0.31
749.868	0.35
750.045	0.54
750.223	0.3
750.4	0.12
750.578	0.59
750.755	0.41
750.932	0.25
751.11	0.55
751.287	0.36
751.464	0.61
751.642	0.32
751.819	0.43
751.996	0.35
752.173	0.37
752.351	0.27
752.528	0.3
752.705	0.38
752.882	0.23
753.06	0.45
753.237	0.41
753.414	0.58
753.591	0.69
753.768	0.43
753.945	0.32
754.122	0.27
754.299	0.53
754.476	0.3
754.654	0.26
754.831	0.43
755.008	0.39
755.185	0.26
755.362	0.32
755.539	0.36
755.716	0.32
755.892	0.41
756.069	0.35
756.246	0.44
756.423	0.39
756.6	0.58
756.777	0.3
756.954	0.46
757.131	0.3
757.307	0.27
757.484	0.31
757.661	0.46
757.838	0.6
758.015	0.23
758.191	0.45
758.368	0.45
758.545	0.67
758.721	0.45
758.898	0.15
759.075	0.36
759.251	0.55
759.428	0.29
759.605	0.22
759.781	0.35
759.958	0.52
760.134	0.34
760.311	0.36
760.488	0.56
760.664	0.56
760.841	0.34
761.017	0.3
761.194	0.48
761.37	0.59
761.547	0.42
761.723	0.4
761.899	0.53
762.076	0.22
762.252	0.26
762.429	0.21
762.605	0.53
762.781	0.39
762.958	0.5
763.134	0.2
763.31	0.29
763.486	0.57
763.663	0.07
763.839	0.55
764.015	0.16
764.191	0.3
764.368	0.35
764.544	0.27
764.72	0.46
764.896	0.5
765.072	0.48
765.248	0.32
765.425	0.41
765.601	0.48
765.777	0.33
765.953	0.09
766.129	0.33
766.305	0.23
766.481	0.4
766.657	0.38
766.833	0.6
767.009	0.24
767.185	0.36
767.361	0.46
767.537	0.28
767.713	0.53
767.889	0.34
768.065	0.33
768.24	0.3
768.416	0.63
768.592	0.29
768.768	0.37
768.944	0.43
769.12	0.43
769.295	0.31
769.471	0.21
769.647	0.38
769.823	0.52
769.998	0.15
770.174	0.18
770.35	0.8
770.525	0.72
770.701	0.44
770.877	0.34
771.052	0.15
771.228	0.54
771.403	0.38
771.579	0.47
771.755	0.82
771.93	0.42
772.106	0.29
772.281	0.09
772.457	0.37
772.632	0.42
772.808	0.16
772.983	0.29
773.159	0.17
773.334	0.59
773.509	0.5
773.685	0.34
773.86	1.01
774.036	0.58
774.211	0.43
774.386	0.28
774.562	0.45
774.737	0.71
774.912	0.27
775.087	0.61
775.263	0.49
775.438	0.41
775.613	0.34
775.788	0.33
775.964	0.58
776.139	0.97
776.314	0.02
776.489	0.52
776.664	0.4
776.839	0.34
777.014	0.68
777.19	0.57
777.365	0.76
777.54	0.79
777.715	0.16
777.89	0.38
778.065	0.26
778.24	0.45
778.415	0.44
778.59	0.13
778.765	0.29
778.94	0.64
779.115	0.31
779.289	0.49
779.464	0.41
779.639	0.29
779.814	0.02
779.989	0.07
780.164	0.68
780.339	0.51
780.513	0.2
780.688	0.19
780.863	0.49
781.038	0.58
781.212	0.24
781.387	0.33
781.562	0.69
781.737	0.19
781.911	0.57
782.086	0.17
782.261	0.5
782.435	0.69
782.61	0.27
782.784	0.45
782.959	0.7
783.134	0.1
783.308	0.08
783.483	0.39
783.657	0.91
783.832	0.87
784.006	0.19
784.181	0.49
784.355	0.48
784.53	0.08
784.704	0.27
784.878	0.92
785.053	0.49
785.227	0.75
785.402	0.73
785.576	0.14
785.75	0.48
785.925	0.38
786.099	0.43
786.273	0.39
786.448	0.89
786.622	0.74
786.796	0.37
786.97	0.66
787.145	1.1
787.319	0.25
787.493	0.31
787.667	-0.07
787.841	0.49
788.015	0.87
788.19	0.29
788.364	0.33
788.538	0.79
788.712	0.68
788.886	0.46
789.06	0.51
789.234	0.69
789.408	0.24
789.582	0.23
789.756	0.43
789.93	0.18
790.104	0.54
790.278	0.35
790.452	0.37
790.626	0.58
790.8	0.39
790.973	0.68
791.147	0.79
791.321	0.83
791.495	0.67
791.669	0.35
791.843	0.5
792.016	0.53
792.19	1.02
792.364	0.31
792.538	1.17
792.711	0.85
792.885	0.34
793.059	0.32
793.233	-0.28
793.406	0.96
793.58	0.7
793.754	0.5
793.927	0.26
794.101	0.94
794.274	0.53
794.448	0.7
794.622	0.02
794.795	1
794.969	0.36
795.142	0.96
795.316	0.43
795.489	0.38
795.663	1.02
795.836	0.25
796.009	0.24
796.183	0.93
796.356	0.67
796.53	0.37
796.703	0.23
796.876	1.27
797.05	0.63
797.223	0.44
797.396	0.47
797.57	0.66
797.743	1.24
797.916	0.6
798.09	0.36
798.263	0.62
798.436	0.84
798.609	0.41
798.782	0.27
798.956	0.66
799.129	0.5
799.302	0.19
799.475	0.31
799.648	0.55
799.821	0.06
799.994	0.44
800.167	0.09
800.34	0.11
800.514	0.47
800.687	0.48
800.86	0.37
801.033	0.94
801.206	1.12
801.379	0.01
801.551	0.69
801.724	0.84
801.897	1.15
802.07	0.54
802.243	-0.03
802.416	0.24
802.589	0.56
802.762	0.8
802.935	0.32
803.107	0.93
803.28	1.28
803.453	0.69
803.626	0.45
803.798	0.89
803.971	0.07
804.144	0.48
804.317	0.56
804.489	1.12
804.662	0.53
804.835	0.52
805.007	0.36
805.18	0.99
805.353	0.88
805.525	0.2
805.698	0.44
805.87	0.82
806.043	0.76
806.215	0.23
806.388	0.18
806.56	0.59
806.733	0.81
806.905	0.54
807.078	0.32
807.25	0.45
807.423	0.79
807.595	0.54
807.768	0.76
807.94	0.96
808.112	0.97
808.285	0.72
808.457	0.45
808.629	0.61
808.802	0.91
808.974	0.91
809.146	0.22
809.318	0.36
809.491	0.83
809.663	0.99
809.835	0.17
810.007	0.65
810.18	0.6
810.352	-0.19
810.524	0.42
810.696	0.77
810.868	0.83
811.04	0.59
811.212	0.1
811.384	1.16
811.556	0.62
811.728	0.2
811.901	1.39
812.073	0.81
812.245	1.08
812.417	0.56
812.589	-0.37
812.76	0.78
812.932	0.97
813.104	0.85
813.276	0.36
813.448	1.1
813.62	1.01
813.792	0.95
813.964	0.58
814.136	0.82
814.307	0.81
814.479	0.06
814.651	0.25
814.823	1.65
814.995	0.59
815.166	0.44
815.338	0.2
815.51	0.48
815.681	1.6
815.853	0.52
816.025	0.57
816.196	1.62
816.368	1.37
816.54	0.18
816.711	0.31
816.883	0.96
817.054	1.97
817.226	-0.06
817.398	0.34
817.569	0.01
817.741	0.9
817.912	0.4
818.084	0.4
818.255	1.32
818.426	0.55
818.598	0.55
818.769	0.21
818.941	1.05
819.112	1.71
819.283	0.48
819.455	0.41
819.626	0.61
819.798	1.25
819.969	0.62
820.14	0.53
820.311	0.56
820.483	1.4
820.654	1.32
820.825	0.55
820.996	0.5
821.168	0.25
821.339	0.5
821.51	-0.14
821.681	0.33
821.852	0.84
822.023	-0.16
822.195	-0.32
822.366	1.55
822.537	0.56
822.708	1.03
822.879	0.12
823.05	1.52
823.221	0.18
823.392	1.06
823.563	0.73
823.734	1.11
823.905	0.86
824.076	0.75
824.247	-0.07
824.418	0.37
824.589	1.73
824.759	0.41
824.93	0.92
825.101	0.48
825.272	2
825.443	1.4
825.614	1.14
825.784	0.46
825.955	2.22
826.126	1.83
826.297	0.55
826.467	1.58
826.638	2.38
826.809	0.59
826.98	0.61
827.15	0.72
827.321	1.01
827.492	1.39
827.662	0.49
827.833	1.91
828.003	1.69
828.174	0.34
828.345	0.16
828.515	1.63
828.686	1.25
828.856	0.36
829.027	0.79
829.197	1.73
829.368	0.97
829.538	-0.02
829.709	0.3
829.879	1.31
830.049	0.92
830.22	0.78
830.39	0.56
830.56	1.52
830.731	1.13
830.901	0.8
831.072	0.65
831.242	0.95
831.412	1.33
831.582	0.93
831.753	0.1
831.923	1.71
832.093	1.21
832.263	0.55
832.434	0.27
832.604	1.01
832.774	1.83
832.944	0.41
833.114	0.03
833.284	1.1
833.454	0.62
833.624	0.17
833.795	0.95
833.965	1.91
834.135	2.2
834.305	-0.68
834.475	0.05
834.645	0.97
834.815	0.95
834.985	0.48
835.155	0.25
835.325	1.95
835.494	1.7
835.664	0.48
835.834	0.13
836.004	1.4
836.174	1.45
836.344	1.16
836.514	-0.56
836.684	0.61
836.853	0.22
837.023	1.11
837.193	0.67
837.363	1.84
837.532	1.97
837.702	1.18
837.872	0.36
838.041	1.34
838.211	2.66
838.381	-0.2
838.55	0.73
838.72	4.47
838.89	2.59
839.059	1.05
839.229	0.3
839.398	3.24
839.568	1.37
839.738	0.82
839.907	2.15
840.077	1.84
840.246	0.57
840.416	0.08
840.585	-0.04
840.755	3.48
840.924	1.75
841.093	0.13
841.263	-0.04
841.432	1.46
841.602	1.84
841.771	0.15
841.94	1.13
842.11	3.97
842.279	3.27
842.448	0.69
842.617	0.83
842.787	2.62
842.956	0.27
843.125	0.68
843.294	1.04
843.464	3.15
843.633	2.16
843.802	0.44
843.971	1.3
844.14	2.22
844.309	2.43
844.479	-0.68
844.648	-0.3
844.817	0.99
844.986	1.85
845.155	0.74
845.324	0.2
845.493	1.17
845.662	0.44
845.831	1.45
846	0.98
846.169	1.28
846.338	3.32
846.507	1.53
846.676	1.65
846.844	1.56
847.013	2.27
847.182	0.73
847.351	0.29
847.52	1.37
847.689	1.33
847.858	1.07
848.026	0.77
848.195	2.13
848.364	1.48
848.533	0.11
848.701	0.27
848.87	1.93
849.039	3.33
849.207	1.73
849.376	2.49
849.545	3.86
849.713	0.51
849.882	0.69
850.051	1.42
850.219	1.57
850.388	3.34
850.556	-0.22
850.725	0.37
850.893	1.91
851.062	1.72
851.23	1.46
851.399	0.17
851.567	0.97
851.736	0.95
851.904	0.42
852.073	1.47
852.241	3.2
852.41	2.06
852.578	1.29
852.746	1.28
852.915	2.53
853.083	1.26
853.251	-0.23
853.42	1.5
853.588	0.62
853.756	2.79
853.924	0.94
854.093	1.44
854.261	1.22
854.429	-0.78
854.597	1.14
854.765	0.95
854.934	2.34
855.102	3.42
855.27	1.78
855.438	3.22
855.606	3.12
855.774	3.26
855.942	-0.08
856.11	-1.06
856.278	2.44
856.446	2.73
856.614	1.48
856.782	-0.37
856.95	3.83
857.118	2.37
857.286	2
857.454	0.03
857.622	3.35
857.79	2.27
857.958	-0.46
858.126	0.55
858.294	-0.33
858.462	1.37
858.629	0.13
858.797	-0.49
858.965	2.37
859.133	2.52
859.301	0.92
859.468	2.5
859.636	0.12
859.804	4.3
859.971	2.39
860.139	1.08
860.307	4.04
860.474	2.2
860.642	0.6
860.81	0.65
860.977	2.45
861.145	3.62
861.313	1.43
861.48	0.87
861.648	4
861.815	2.5
861.983	-0.85
862.15	1.29
862.318	3.83
862.485	3.25
862.653	0.51
862.82	0.58
862.988	3.94
863.155	3.35
863.322	0.82
863.49	-0.2
863.657	0.79
863.824	4.29
863.992	2.35
864.159	1.06
864.326	3.78
864.494	1.61
864.661	5.09
864.828	0.46
864.996	3.71
865.163	3.4
865.33	-0.04
865.497	-2.32
865.664	-0
865.832	0.16
865.999	1.94
866.166	-0.95
866.333	1.36
866.5	1.57
866.667	1.86
866.834	0.48
867.001	3.46
867.168	-0.67
867.335	1.71
867.502	-0.36
867.669	2.79
867.836	5.75
868.003	1.21
868.17	4.19
868.337	0.87
868.504	5.46
868.671	-1.47
868.838	0.03
869.005	4
869.172	3.46
869.339	1.1
869.505	2.1
869.672	3.29
869.839	4.8
870.006	2.47
870.173	-0.17
870.339	3.01
870.506	5.49
870.673	2.88
870.84	2.11
871.006	2.16
871.173	3.81
871.34	1.05
871.506	-0.48
871.673	3.78
871.839	0.8
872.006	2.47
872.173	0.03
872.339	4.75
872.506	3.99
872.672	0.78
872.839	-1.07
873.005	3.05
873.172	5.55
873.338	4.12
873.505	2.11
873.671	2.54
873.838	5.69
874.004	-0.6
874.171	0.1
874.337	4.45
874.503	4.4
874.67	1.67
874.836	0.62
875.002	4.82
875.169	4.19
875.335	1.8
875.501	2.21
875.668	3.28
875.834	1.63
876	0.96
876.166	3.16
876.332	4.16
876.499	5.76
876.665	2.16
876.831	1.37
876.997	6.55
877.163	5.18
877.329	1.96
877.495	2.12
877.662	4.36
877.828	1.54
877.994	2.26
878.16	-0.26
878.326	1.07
878.492	4.43
878.658	0.22
878.824	3.88
878.99	3.72
879.156	1.12
879.322	5.97
879.487	1.87
879.653	2.75
879.819	2.39
879.985	0.09
880.151	3.43
880.317	3.91
880.483	2.2
880.648	2.17
880.814	-0.6
880.98	1.82
881.146	-1.82
881.312	0.17
881.477	2.25
881.643	2.67
881.809	3.07
881.974	5.89
882.14	-1.78
882.306	3.67
882.471	7.01
882.637	0.79
882.803	2
882.968	4.94
883.134	6.64
883.299	1.83
883.465	2.63
883.63	4.7
883.796	2.5
883.961	2.94
884.127	3.42
884.292	-1.54
884.458	-0.3
884.623	-0.29
