Data from Apollo_Calib_20240827__AbsoluteIrradiance__863__13-32-01-194.txt Node

Date: Wed Aug 28 13:32:01 BST 2024
User: biology
Spectrometer: FLMT08252
Trigger mode: 0
Integration Time (sec): 5.000000E-1
Scans to average: 5
Electric dark correction enabled: true
Nonlinearity correction enabled: false
Boxcar width: 0
XAxis mode: Wavelengths
Number of Pixels in Spectrum: 3648
>>>>>Begin Spectral Data<<<<<
179.588	-0
179.809	-0
180.03	-0
180.251	-0
180.473	-0
180.694	0
180.915	0
181.136	-0
181.357	0
181.578	0
181.799	0
182.02	-0
182.241	-0
182.462	-0
182.683	0
182.904	-0
183.125	-0
183.346	0
183.567	0
183.788	0
184.009	0
184.23	0
184.451	0
184.672	0
184.892	0
185.113	0
185.334	0
185.555	0
185.776	0
185.996	0
186.217	0
186.438	0
186.659	0
186.879	0
187.1	0
187.321	0
187.541	0
187.762	0
187.983	0
188.203	0
188.424	0
188.644	0
188.865	0
189.086	0
189.306	0
189.527	0
189.747	0
189.968	0
190.188	0
190.409	0
190.629	0
190.849	0
191.07	0
191.29	0
191.511	0
191.731	0
191.951	0
192.172	0
192.392	0
192.612	0
192.833	0
193.053	0
193.273	0
193.493	0
193.714	0
193.934	0
194.154	0
194.374	0
194.594	0
194.815	0
195.035	0
195.255	0
195.475	0
195.695	0
195.915	0
196.135	0
196.355	0
196.575	0
196.795	0
197.015	0
197.235	0
197.455	0
197.675	0
197.895	0
198.115	0
198.335	0
198.555	0
198.775	0
198.995	0
199.214	0
199.434	0
199.654	0
199.874	0
200.094	4
200.313	2.81
200.533	1.92
200.753	1.67
200.973	4.08
201.192	3.29
201.412	1.37
201.632	1.64
201.851	3.05
202.071	1.91
202.291	1.52
202.51	1.33
202.73	2.63
202.95	2.01
203.169	1.66
203.389	1.87
203.608	1.82
203.828	1.76
204.047	1.25
204.267	2.23
204.486	2.11
204.706	2.42
204.925	1.78
205.145	1.67
205.364	2.41
205.583	2.85
205.803	1.29
206.022	0.98
206.242	1.64
206.461	1.6
206.68	1.04
206.9	1.66
207.119	2.57
207.338	2
207.557	1.11
207.777	1.11
207.996	1.69
208.215	2.47
208.434	0.91
208.654	0.76
208.873	1.6
209.092	2.34
209.311	0.92
209.53	1.1
209.749	1.21
209.968	1.05
210.187	1.02
210.407	0.65
210.626	1.29
210.845	1.49
211.064	1.24
211.283	0.82
211.502	1.47
211.721	1.02
211.94	1.11
212.159	1.32
212.377	1.37
212.596	1.5
212.815	1.05
213.034	1.32
213.253	1.44
213.472	1.56
213.691	1.14
213.91	0.75
214.128	0.79
214.347	1.33
214.566	0.53
214.785	0.28
215.003	1.41
215.222	1.14
215.441	0.9
215.66	0.51
215.878	0.9
216.097	1.27
216.316	0.62
216.534	0.87
216.753	1.26
216.972	0.83
217.19	0.88
217.409	0.69
217.627	0.88
217.846	0.75
218.064	0.96
218.283	0.59
218.501	1.47
218.72	1.04
218.938	0.59
219.157	0.53
219.375	1.13
219.594	1.02
219.812	0.61
220.031	0.68
220.249	1.2
220.467	1.28
220.686	0.49
220.904	0.6
221.122	0.66
221.341	1.19
221.559	0.75
221.777	0.5
221.995	0.87
222.214	1.02
222.432	0.72
222.65	0.9
222.868	0.69
223.086	0.96
223.305	0.93
223.523	0.62
223.741	1.25
223.959	0.68
224.177	0.42
224.395	0.59
224.613	0.78
224.831	0.94
225.049	0.46
225.267	0.59
225.485	0.84
225.703	0.62
225.921	0.6
226.139	0.6
226.357	0.89
226.575	0.97
226.793	0.49
227.011	1.63
227.229	0.89
227.447	1.01
227.665	0.58
227.883	0.34
228.1	0.76
228.318	0.7
228.536	0.26
228.754	0.38
228.972	0.77
229.189	0.75
229.407	0.54
229.625	0.55
229.843	0.81
230.06	0.86
230.278	0.44
230.496	0.63
230.713	0.75
230.931	0.82
231.149	0.44
231.366	0.29
231.584	0.6
231.801	1.08
232.019	0.54
232.236	0.39
232.454	0.46
232.671	0.66
232.889	0.5
233.106	0.32
233.324	0.58
233.541	0.61
233.759	0.59
233.976	0.36
234.194	0.49
234.411	0.52
234.628	0.44
234.846	0.49
235.063	0.68
235.28	0.57
235.498	0.49
235.715	0.4
235.932	0.84
236.149	0.55
236.367	0.46
236.584	0.55
236.801	0.43
237.018	0.7
237.236	0.51
237.453	0.27
237.67	0.72
237.887	0.49
238.104	0.53
238.321	0.35
238.538	0.34
238.755	0.69
238.973	0.26
239.19	0.55
239.407	0.56
239.624	0.56
239.841	0.45
240.058	0.39
240.275	0.58
240.492	0.57
240.709	0.49
240.925	0.37
241.142	0.47
241.359	0.39
241.576	0.32
241.793	0.38
242.01	0.48
242.227	0.65
242.444	0.49
242.66	0.61
242.877	0.5
243.094	0.44
243.311	0.44
243.527	0.38
243.744	0.54
243.961	0.53
244.178	0.26
244.394	0.38
244.611	0.61
244.828	0.72
245.044	0.33
245.261	0.31
245.477	0.47
245.694	0.54
245.911	0.36
246.127	0.5
246.344	0.62
246.56	0.55
246.777	0.38
246.993	0.36
247.21	0.48
247.426	0.55
247.643	0.37
247.859	0.37
248.076	0.42
248.292	0.66
248.508	0.35
248.725	0.51
248.941	0.51
249.157	0.68
249.374	0.34
249.59	0.44
249.806	0.45
250.023	0.57
250.239	0.43
250.455	0.23
250.671	0.5
250.888	0.49
251.104	0.52
251.32	0.32
251.536	0.38
251.752	0.43
251.969	0.4
252.185	0.41
252.401	0.64
252.617	0.36
252.833	0.37
253.049	0.43
253.265	0.43
253.481	0.49
253.697	0.41
253.913	0.35
254.129	0.49
254.345	0.5
254.561	0.37
254.777	0.35
254.993	0.52
255.209	0.43
255.425	0.35
255.641	0.26
255.857	0.47
256.073	0.45
256.288	0.26
256.504	0.32
256.72	0.44
256.936	0.51
257.152	0.37
257.367	0.32
257.583	0.49
257.799	0.5
258.015	0.4
258.23	0.36
258.446	0.56
258.662	0.33
258.877	0.28
259.093	0.28
259.309	0.37
259.524	0.41
259.74	0.36
259.955	0.29
260.171	0.42
260.387	0.43
260.602	0.45
260.818	0.33
261.033	0.29
261.249	0.45
261.464	0.3
261.68	0.26
261.895	0.5
262.11	0.41
262.326	0.27
262.541	0.28
262.757	0.44
262.972	0.41
263.187	0.33
263.403	0.4
263.618	0.49
263.833	0.41
264.049	0.29
264.264	0.3
264.479	0.38
264.694	0.49
264.91	0.21
265.125	0.3
265.34	0.44
265.555	0.59
265.77	0.37
265.986	0.29
266.201	0.45
266.416	0.49
266.631	0.27
266.846	0.28
267.061	0.44
267.276	0.43
267.491	0.16
267.706	0.41
267.921	0.41
268.136	0.37
268.351	0.33
268.566	0.26
268.781	0.43
268.996	0.43
269.211	0.34
269.426	0.23
269.641	0.34
269.856	0.49
270.071	0.3
270.285	0.3
270.5	0.46
270.715	0.44
270.93	0.41
271.145	0.37
271.359	0.43
271.574	0.28
271.789	0.34
272.004	0.29
272.218	0.31
272.433	0.42
272.648	0.29
272.862	0.4
273.077	0.32
273.292	0.4
273.506	0.23
273.721	0.3
273.936	0.36
274.15	0.39
274.365	0.31
274.579	0.33
274.794	0.4
275.008	0.46
275.223	0.21
275.437	0.3
275.652	0.35
275.866	0.37
276.081	0.32
276.295	0.35
276.509	0.36
276.724	0.4
276.938	0.34
277.153	0.34
277.367	0.44
277.581	0.3
277.796	0.26
278.01	0.25
278.224	0.4
278.438	0.47
278.653	0.22
278.867	0.27
279.081	0.28
279.295	0.34
279.51	0.33
279.724	0.2
279.938	0.31
280.152	0.35
280.366	0.27
280.58	0.38
280.794	0.44
281.008	0.41
281.222	0.27
281.437	0.49
281.651	0.32
281.865	0.39
282.079	0.27
282.293	0.17
282.507	0.33
282.721	0.26
282.935	0.28
283.148	0.2
283.362	0.25
283.576	0.2
283.79	0.31
284.004	0.24
284.218	0.41
284.432	0.3
284.646	0.35
284.859	0.25
285.073	0.23
285.287	0.37
285.501	0.31
285.714	0.28
285.928	0.33
286.142	0.36
286.356	0.26
286.569	0.31
286.783	0.43
286.997	0.4
287.21	0.32
287.424	0.25
287.637	0.28
287.851	0.25
288.065	0.34
288.278	0.31
288.492	0.32
288.705	0.28
288.919	0.34
289.132	0.23
289.346	0.4
289.559	0.2
289.773	0.19
289.986	0.26
290.2	0.27
290.413	0.42
290.626	0.25
290.84	0.25
291.053	0.32
291.267	0.41
291.48	0.3
291.693	0.3
291.906	0.24
292.12	0.32
292.333	0.27
292.546	0.24
292.76	0.39
292.973	0.33
293.186	0.31
293.399	0.21
293.612	0.35
293.826	0.29
294.039	0.23
294.252	0.25
294.465	0.42
294.678	0.31
294.891	0.24
295.104	0.23
295.317	0.27
295.53	0.27
295.743	0.3
295.956	0.23
296.169	0.37
296.382	0.32
296.595	0.26
296.808	0.22
297.021	0.34
297.234	0.34
297.447	0.27
297.66	0.3
297.873	0.39
298.086	0.32
298.299	0.2
298.511	0.21
298.724	0.29
298.937	0.23
299.15	0.23
299.363	0.28
299.575	0.31
299.788	0.3
300.001	0.26
300.213	0.19
300.426	0.31
300.639	0.22
300.852	0.18
301.064	0.32
301.277	0.38
301.489	0.3
301.702	0.28
301.915	0.22
302.127	0.28
302.34	0.28
302.552	0.28
302.765	0.21
302.977	0.31
303.19	0.21
303.402	0.21
303.615	0.24
303.827	0.25
304.04	0.29
304.252	0.32
304.464	0.24
304.677	0.44
304.889	0.34
305.102	0.21
305.314	0.18
305.526	0.29
305.739	0.3
305.951	0.21
306.163	0.22
306.375	0.34
306.588	0.26
306.8	0.23
307.012	0.18
307.224	0.3
307.436	0.37
307.649	0.16
307.861	0.28
308.073	0.3
308.285	0.26
308.497	0.15
308.709	0.2
308.921	0.29
309.133	0.34
309.346	0.27
309.558	0.25
309.77	0.32
309.982	0.35
310.194	0.26
310.406	0.18
310.617	0.39
310.829	0.28
311.041	0.28
311.253	0.21
311.465	0.28
311.677	0.27
311.889	0.26
312.101	0.24
312.313	0.35
312.524	0.36
312.736	0.2
312.948	0.25
313.16	0.4
313.372	0.32
313.583	0.31
313.795	0.26
314.007	0.26
314.218	0.3
314.43	0.24
314.642	0.22
314.853	0.15
315.065	0.33
315.277	0.26
315.488	0.22
315.7	0.33
315.912	0.3
316.123	0.24
316.335	0.26
316.546	0.38
316.758	0.29
316.969	0.22
317.181	0.28
317.392	0.28
317.604	0.38
317.815	0.21
318.026	0.15
318.238	0.22
318.449	0.28
318.661	0.14
318.872	0.18
319.083	0.18
319.295	0.33
319.506	0.26
319.717	0.29
319.929	0.33
320.14	0.29
320.351	0.27
320.562	0.2
320.774	0.34
320.985	0.3
321.196	0.21
321.407	0.18
321.618	0.37
321.829	0.27
322.041	0.27
322.252	0.24
322.463	0.28
322.674	0.31
322.885	0.23
323.096	0.27
323.307	0.28
323.518	0.27
323.729	0.25
323.94	0.23
324.151	0.25
324.362	0.35
324.573	0.26
324.784	0.25
324.995	0.35
325.206	0.27
325.417	0.21
325.628	0.23
325.838	0.29
326.049	0.29
326.26	0.32
326.471	0.2
326.682	0.32
326.892	0.29
327.103	0.18
327.314	0.19
327.525	0.35
327.735	0.28
327.946	0.26
328.157	0.24
328.368	0.34
328.578	0.27
328.789	0.32
328.999	0.26
329.21	0.28
329.421	0.36
329.631	0.24
329.842	0.24
330.052	0.27
330.263	0.3
330.473	0.28
330.684	0.27
330.894	0.25
331.105	0.3
331.315	0.26
331.526	0.17
331.736	0.39
331.947	0.28
332.157	0.3
332.367	0.19
332.578	0.27
332.788	0.31
332.999	0.33
333.209	0.2
333.419	0.25
333.629	0.31
333.84	0.28
334.05	0.24
334.26	0.3
334.47	0.29
334.681	0.28
334.891	0.21
335.101	0.28
335.311	0.42
335.521	0.26
335.732	0.17
335.942	0.34
336.152	0.3
336.362	0.32
336.572	0.26
336.782	0.32
336.992	0.24
337.202	0.25
337.412	0.25
337.622	0.32
337.832	0.24
338.042	0.25
338.252	0.21
338.462	0.28
338.672	0.3
338.882	0.22
339.092	0.22
339.302	0.32
339.511	0.31
339.721	0.2
339.931	0.17
340.141	0.34
340.351	0.33
340.561	0.23
340.77	0.26
340.98	0.25
341.19	0.27
341.4	0.26
341.609	0.17
341.819	0.25
342.029	0.21
342.238	0.3
342.448	0.23
342.658	0.31
342.867	0.24
343.077	0.27
343.286	0.23
343.496	0.27
343.706	0.34
343.915	0.21
344.125	0.26
344.334	0.25
344.544	0.15
344.753	0.25
344.963	0.2
345.172	0.21
345.381	0.22
345.591	0.19
345.8	0.26
346.01	0.31
346.219	0.35
346.428	0.14
346.638	0.27
346.847	0.25
347.056	0.38
347.266	0.24
347.475	0.21
347.684	0.32
347.893	0.32
348.103	0.26
348.312	0.19
348.521	0.27
348.73	0.28
348.94	0.24
349.149	0.22
349.358	0.23
349.567	0.24
349.776	0.17
349.985	0.2
350.194	0.31
350.403	0.27
350.612	0.2
350.821	0.19
351.03	0.28
351.239	0.22
351.448	0.25
351.657	0.23
351.866	0.38
352.075	0.27
352.284	0.29
352.493	0.19
352.702	0.33
352.911	0.26
353.12	0.24
353.329	0.22
353.538	0.25
353.746	0.25
353.955	0.21
354.164	0.25
354.373	0.25
354.582	0.29
354.79	0.24
354.999	0.26
355.208	0.23
355.416	0.38
355.625	0.19
355.834	0.2
356.042	0.29
356.251	0.2
356.46	0.19
356.668	0.26
356.877	0.39
357.085	0.32
357.294	0.18
357.503	0.26
357.711	0.29
357.92	0.45
358.128	0.27
358.337	0.22
358.545	0.32
358.754	0.24
358.962	0.28
359.17	0.25
359.379	0.27
359.587	0.27
359.796	0.24
360.004	0.29
360.212	0.33
360.421	0.32
360.629	0.2
360.837	0.23
361.046	0.33
361.254	0.41
361.462	0.23
361.67	0.22
361.879	0.27
362.087	0.33
362.295	0.25
362.503	0.21
362.711	0.21
362.92	0.23
363.128	0.23
363.336	0.2
363.544	0.22
363.752	0.23
363.96	0.25
364.168	0.24
364.376	0.29
364.584	0.27
364.792	0.3
365	0.28
365.208	0.27
365.416	0.3
365.624	0.33
365.832	0.25
366.04	0.3
366.248	0.28
366.456	0.23
366.664	0.25
366.872	0.25
367.079	0.24
367.287	0.24
367.495	0.25
367.703	0.26
367.911	0.24
368.118	0.22
368.326	0.25
368.534	0.2
368.742	0.33
368.949	0.19
369.157	0.18
369.365	0.27
369.572	0.2
369.78	0.19
369.988	0.28
370.195	0.25
370.403	0.31
370.61	0.23
370.818	0.28
371.026	0.39
371.233	0.25
371.441	0.27
371.648	0.23
371.856	0.28
372.063	0.32
372.271	0.25
372.478	0.24
372.685	0.19
372.893	0.29
373.1	0.28
373.308	0.23
373.515	0.41
373.722	0.28
373.93	0.25
374.137	0.28
374.344	0.34
374.552	0.31
374.759	0.26
374.966	0.23
375.173	0.27
375.381	0.39
375.588	0.26
375.795	0.14
376.002	0.22
376.209	0.24
376.417	0.24
376.624	0.33
376.831	0.32
377.038	0.27
377.245	0.16
377.452	0.21
377.659	0.27
377.866	0.26
378.073	0.24
378.28	0.25
378.487	0.35
378.694	0.35
378.901	0.25
379.108	0.22
379.315	0.36
379.522	0.37
379.729	0.31
379.936	0.27
380.143	0.29
380.35	0.27
380.557	0.25
380.763	0.28
380.97	0.3
381.177	0.29
381.384	0.25
381.591	0.18
381.797	0.35
382.004	0.34
382.211	0.3
382.418	0.22
382.624	0.27
382.831	0.33
383.038	0.23
383.244	0.3
383.451	0.29
383.658	0.29
383.864	0.22
384.071	0.24
384.277	0.38
384.484	0.23
384.69	0.35
384.897	0.21
385.103	0.26
385.31	0.23
385.516	0.25
385.723	0.24
385.929	0.26
386.136	0.25
386.342	0.35
386.549	0.27
386.755	0.4
386.961	0.32
387.168	0.23
387.374	0.3
387.58	0.33
387.787	0.34
387.993	0.31
388.199	0.3
388.406	0.29
388.612	0.27
388.818	0.26
389.024	0.28
389.231	0.29
389.437	0.42
389.643	0.34
389.849	0.32
390.055	0.32
390.261	0.33
390.467	0.35
390.674	0.27
390.88	0.31
391.086	0.3
391.292	0.24
391.498	0.33
391.704	0.26
391.91	0.31
392.116	0.21
392.322	0.18
392.528	0.37
392.734	0.27
392.94	0.29
393.146	0.23
393.352	0.33
393.557	0.27
393.763	0.27
393.969	0.36
394.175	0.27
394.381	0.32
394.587	0.26
394.792	0.31
394.998	0.34
395.204	0.38
395.41	0.26
395.615	0.33
395.821	0.36
396.027	0.36
396.233	0.31
396.438	0.34
396.644	0.36
396.85	0.4
397.055	0.36
397.261	0.34
397.466	0.4
397.672	0.33
397.878	0.34
398.083	0.35
398.289	0.3
398.494	0.43
398.7	0.39
398.905	0.22
399.111	0.43
399.316	0.27
399.522	0.32
399.727	0.34
399.932	0.35
400.138	0.34
400.343	0.36
400.549	0.31
400.754	0.36
400.959	0.38
401.165	0.36
401.37	0.36
401.575	0.49
401.78	0.42
401.986	0.31
402.191	0.35
402.396	0.37
402.601	0.42
402.807	0.4
403.012	0.39
403.217	0.4
403.422	0.37
403.627	0.46
403.832	0.36
404.037	0.49
404.243	0.41
404.448	0.39
404.653	0.42
404.858	0.43
405.063	0.47
405.268	0.44
405.473	0.34
405.678	0.41
405.883	0.66
406.088	0.51
406.293	0.44
406.498	0.45
406.703	0.52
406.907	0.49
407.112	0.43
407.317	0.52
407.522	0.58
407.727	0.49
407.932	0.49
408.136	0.68
408.341	0.52
408.546	0.59
408.751	0.54
408.956	0.58
409.16	0.66
409.365	0.61
409.57	0.62
409.774	0.66
409.979	0.67
410.184	0.68
410.388	0.61
410.593	0.77
410.798	0.8
411.002	0.68
411.207	0.77
411.411	0.81
411.616	0.74
411.82	0.84
412.025	0.86
412.229	0.84
412.434	0.99
412.638	0.92
412.843	0.94
413.047	0.99
413.252	0.93
413.456	1.03
413.66	1.14
413.865	1.06
414.069	1.17
414.273	1.13
414.478	1.11
414.682	1.21
414.886	1.27
415.091	1.18
415.295	1.21
415.499	1.41
415.703	1.39
415.908	1.48
416.112	1.34
416.316	1.58
416.52	1.57
416.724	1.57
416.929	1.64
417.133	1.87
417.337	1.76
417.541	1.78
417.745	1.82
417.949	1.96
418.153	2.02
418.357	1.97
418.561	2.29
418.765	2.18
418.969	2.38
419.173	2.4
419.377	2.41
419.581	2.73
419.785	2.63
419.989	2.62
420.193	2.78
420.397	2.92
420.601	3.11
420.804	3.19
421.008	3.11
421.212	3.34
421.416	3.25
421.62	3.32
421.823	3.42
422.027	3.59
422.231	3.55
422.435	3.48
422.638	3.58
422.842	3.73
423.046	3.71
423.249	3.92
423.453	4.04
423.657	4.19
423.86	4.15
424.064	4.34
424.268	4.46
424.471	4.51
424.675	4.8
424.878	4.87
425.082	5
425.285	5.23
425.489	5.17
425.692	5.3
425.896	5.32
426.099	5.52
426.303	5.65
426.506	5.78
426.71	6.01
426.913	6.22
427.116	6.34
427.32	6.39
427.523	6.41
427.726	6.8
427.93	6.85
428.133	7.2
428.336	7.34
428.54	7.49
428.743	7.69
428.946	7.93
429.149	7.93
429.353	7.95
429.556	8.21
429.759	8.14
429.962	8.18
430.165	8.42
430.368	8
430.571	8.1
430.775	8.16
430.978	8.13
431.181	8.24
431.384	8.25
431.587	8.4
431.79	8.68
431.993	8.85
432.196	8.96
432.399	9.37
432.602	9.52
432.805	9.58
433.008	10.07
433.211	10.03
433.414	10.32
433.616	10.43
433.819	10.24
434.022	10.5
434.225	10.7
434.428	10.65
434.631	11.1
434.833	10.84
435.036	11.17
435.239	11.34
435.442	11.27
435.645	11.65
435.847	11.61
436.05	11.96
436.253	12.04
436.455	12.18
436.658	12.07
436.861	12.37
437.063	12.47
437.266	12.42
437.468	12.81
437.671	13.26
437.874	13.08
438.076	12.95
438.279	13.59
438.481	13.5
438.684	14.36
438.886	14.03
439.089	14.23
439.291	14.26
439.494	14.53
439.696	14.73
439.899	15.18
440.101	15.85
440.303	15.92
440.506	16.64
440.708	16.38
440.91	16.6
441.113	16.84
441.315	17.03
441.517	16.71
441.72	17.27
441.922	16.93
442.124	16.87
442.326	17.21
442.529	17.45
442.731	17.44
442.933	17.76
443.135	17.5
443.337	17.59
443.539	18.04
443.742	17.78
443.944	18.34
444.146	18.11
444.348	18.08
444.55	18.02
444.752	18.14
444.954	18.2
445.156	18.07
445.358	18.37
445.56	18.82
445.762	18.41
445.964	18.84
446.166	18.61
446.368	18.6
446.57	18.6
446.772	18.16
446.974	17.95
447.175	18.2
447.377	18.05
447.579	18.28
447.781	17.94
447.983	17.85
448.184	17.37
448.386	17.77
448.588	17.29
448.79	17.22
448.991	17.53
449.193	17.5
449.395	16.86
449.597	16.47
449.798	16.37
450	15.82
450.202	15.79
450.403	15.93
450.605	15.72
450.806	15.36
451.008	15.2
451.21	14.93
451.411	14.59
451.613	13.79
451.814	14.03
452.016	14.08
452.217	13.24
452.419	13.25
452.62	12.92
452.821	12.7
453.023	12.62
453.224	12.26
453.426	11.83
453.627	10.99
453.828	11.24
454.03	11.24
454.231	11.17
454.432	11.09
454.634	10.86
454.835	10.42
455.036	10.37
455.238	10.03
455.439	9.68
455.64	9.54
455.841	9.37
456.042	9.57
456.244	9.23
456.445	8.8
456.646	8.68
456.847	8.45
457.048	8.48
457.249	8.55
457.45	8.25
457.651	7.66
457.852	7.57
458.054	7.23
458.255	7.18
458.456	7.18
458.657	7.2
458.858	6.68
459.058	6.64
459.259	6.66
459.46	6.46
459.661	6.48
459.862	6.5
460.063	6.34
460.264	6.2
460.465	5.99
460.666	6.04
460.866	5.79
461.067	5.54
461.268	5.51
461.469	5.55
461.67	5.39
461.87	5.19
462.071	5.23
462.272	5.1
462.473	5.15
462.673	5.25
462.874	5.12
463.075	5.12
463.275	5.13
463.476	5.14
463.676	5
463.877	4.88
464.078	4.91
464.278	4.94
464.479	4.84
464.679	4.76
464.88	4.73
465.08	4.6
465.281	4.47
465.481	4.29
465.682	4.14
465.882	4.2
466.083	4.12
466.283	4.04
466.483	3.85
466.684	3.74
466.884	3.6
467.085	3.66
467.285	3.76
467.485	3.6
467.686	3.52
467.886	3.4
468.086	3.33
468.286	3.35
468.487	3.35
468.687	3.28
468.887	3.23
469.087	3.31
469.287	3.2
469.488	3.07
469.688	3.18
469.888	3.12
470.088	3.15
470.288	3.04
470.488	3.07
470.688	2.87
470.888	2.9
471.088	2.63
471.288	2.81
471.488	2.73
471.688	2.75
471.888	2.7
472.088	2.86
472.288	2.71
472.488	2.58
472.688	2.55
472.888	2.61
473.088	2.64
473.288	2.48
473.488	2.47
473.688	2.64
473.887	2.5
474.087	2.39
474.287	2.4
474.487	2.35
474.687	2.43
474.886	2.36
475.086	2.34
475.286	2.32
475.486	2.32
475.685	2.2
475.885	2.19
476.085	2.27
476.284	2.31
476.484	2.25
476.684	2.22
476.883	2.36
477.083	2.16
477.282	2.1
477.482	2.22
477.681	2.15
477.881	2.09
478.08	2.1
478.28	2.02
478.479	2.09
478.679	2.18
478.878	2.02
479.078	1.98
479.277	2.07
479.477	2.05
479.676	2.03
479.875	2.04
480.075	1.96
480.274	1.99
480.473	2.06
480.673	2
480.872	2.13
481.071	2.05
481.271	2.04
481.47	2
481.669	1.99
481.868	1.98
482.067	2
482.267	1.91
482.466	1.95
482.665	1.93
482.864	1.96
483.063	1.93
483.262	2.04
483.461	2.01
483.661	2.06
483.86	1.96
484.059	2.05
484.258	2
484.457	2.03
484.656	2.04
484.855	2.08
485.054	1.89
485.253	1.96
485.452	1.93
485.651	2.06
485.849	2.07
486.048	2.01
486.247	2.03
486.446	2.13
486.645	2.02
486.844	2.05
487.043	2.02
487.241	2.1
487.44	2.07
487.639	2.15
487.838	2.11
488.037	2.13
488.235	2.23
488.434	2.16
488.633	2.05
488.831	2.25
489.03	2.19
489.229	2.22
489.427	2.24
489.626	2.31
489.825	2.3
490.023	2.3
490.222	2.26
490.42	2.34
490.619	2.41
490.817	2.35
491.016	2.37
491.214	2.42
491.413	2.44
491.611	2.34
491.81	2.37
492.008	2.49
492.207	2.57
492.405	2.52
492.604	2.42
492.802	2.55
493	2.64
493.199	2.59
493.397	2.61
493.595	2.67
493.794	2.66
493.992	2.81
494.19	2.75
494.388	2.83
494.587	2.77
494.785	2.81
494.983	2.74
495.181	2.89
495.379	2.92
495.578	2.95
495.776	2.99
495.974	2.94
496.172	2.98
496.37	3.05
496.568	3.09
496.766	3.06
496.964	3.24
497.162	3.16
497.36	3.24
497.558	3.24
497.756	3.32
497.954	3.3
498.152	3.35
498.35	3.45
498.548	3.41
498.746	3.41
498.944	3.42
499.142	3.41
499.34	3.48
499.538	3.64
499.736	3.46
499.933	3.67
500.131	3.63
500.329	3.78
500.527	3.75
500.725	3.88
500.922	3.9
501.12	3.9
501.318	3.96
501.516	3.91
501.713	4
501.911	4
502.109	4.01
502.306	4.13
502.504	3.98
502.701	4.1
502.899	4.18
503.097	4.35
503.294	4.24
503.492	4.34
503.689	4.35
503.887	4.33
504.084	4.48
504.282	4.42
504.479	4.44
504.677	4.63
504.874	4.58
505.072	4.51
505.269	4.69
505.466	4.71
505.664	4.76
505.861	4.67
506.059	4.77
506.256	4.77
506.453	4.84
506.651	5.05
506.848	4.98
507.045	5.01
507.242	5.02
507.44	5.03
507.637	5.14
507.834	5.03
508.031	5.2
508.229	5.14
508.426	5.1
508.623	5.3
508.82	5.26
509.017	5.27
509.214	5.27
509.411	5.42
509.608	5.38
509.805	5.48
510.003	5.48
510.2	5.5
510.397	5.68
510.594	5.53
510.791	5.62
510.988	5.67
511.184	5.65
511.381	5.55
511.578	5.69
511.775	5.87
511.972	5.72
512.169	5.81
512.366	5.8
512.563	6.03
512.76	5.96
512.956	6.01
513.153	5.97
513.35	5.89
513.547	5.85
513.744	6.04
513.94	6.08
514.137	6.15
514.334	6.12
514.53	6.12
514.727	6.36
514.924	6.32
515.12	6.21
515.317	6.31
515.514	6.22
515.71	6.23
515.907	6.47
516.103	6.48
516.3	6.34
516.497	6.49
516.693	6.47
516.89	6.51
517.086	6.55
517.283	6.57
517.479	6.43
517.676	6.64
517.872	6.61
518.068	6.64
518.265	6.62
518.461	6.58
518.658	6.71
518.854	6.72
519.05	6.79
519.247	6.78
519.443	6.77
519.639	6.93
519.836	6.81
520.032	6.81
520.228	6.89
520.424	6.88
520.621	6.93
520.817	6.96
521.013	6.87
521.209	7.11
521.405	7.08
521.601	7.06
521.798	7
521.994	7.09
522.19	6.98
522.386	6.98
522.582	7.15
522.778	7.26
522.974	7.15
523.17	7.15
523.366	7.15
523.562	7.18
523.758	7.21
523.954	6.98
524.15	7.18
524.346	7.28
524.542	7.32
524.738	7.24
524.934	7.38
525.129	7.41
525.325	7.27
525.521	7.27
525.717	7.47
525.913	7.37
526.109	7.35
526.304	7.51
526.5	7.5
526.696	7.48
526.892	7.42
527.087	7.63
527.283	7.54
527.479	7.51
527.674	7.34
527.87	7.49
528.066	7.49
528.261	7.62
528.457	7.45
528.653	7.64
528.848	7.58
529.044	7.68
529.239	7.57
529.435	7.55
529.63	7.51
529.826	7.59
530.021	7.59
530.217	7.69
530.412	7.64
530.608	7.68
530.803	7.63
530.999	7.5
531.194	7.63
531.389	7.7
531.585	7.61
531.78	7.79
531.975	7.7
532.171	7.82
532.366	7.77
532.561	7.76
532.757	7.71
532.952	7.94
533.147	7.65
533.342	7.83
533.538	7.67
533.733	7.97
533.928	7.62
534.123	7.79
534.318	7.84
534.513	7.75
534.709	7.93
534.904	7.87
535.099	7.87
535.294	7.88
535.489	7.95
535.684	7.83
535.879	7.84
536.074	7.92
536.269	7.93
536.464	7.96
536.659	7.89
536.854	7.92
537.049	8
537.244	7.88
537.439	7.93
537.634	8
537.828	8.02
538.023	7.95
538.218	7.96
538.413	7.86
538.608	7.96
538.803	7.92
538.997	7.95
539.192	7.99
539.387	7.96
539.582	8.02
539.776	7.88
539.971	8.01
540.166	8.02
540.36	7.95
540.555	8.1
540.75	7.97
540.944	8.03
541.139	8.02
541.334	7.98
541.528	8.05
541.723	8.1
541.917	8.09
542.112	7.95
542.306	7.93
542.501	7.97
542.695	8
542.89	7.97
543.084	7.99
543.279	8.03
543.473	8.03
543.668	8.12
543.862	7.88
544.056	7.98
544.251	8.08
544.445	8.11
544.64	8.15
544.834	7.83
545.028	7.68
545.222	8.06
545.417	8.26
545.611	8.08
545.805	8.07
546	7.88
546.194	8.11
546.388	8.15
546.582	7.95
546.776	8.09
546.97	8.1
547.165	8.04
547.359	8.06
547.553	8
547.747	8.05
547.941	8.26
548.135	8.04
548.329	8.13
548.523	8.1
548.717	8.04
548.911	8.04
549.105	7.99
549.299	8.15
549.493	8.1
549.687	7.99
549.881	8.2
550.075	8.11
550.269	8
550.463	8.14
550.657	8.09
550.85	8.08
551.044	8.09
551.238	8.14
551.432	8.11
551.626	8.12
551.82	8.17
552.013	8.03
552.207	8.19
552.401	8.25
552.594	8.04
552.788	8.04
552.982	8.01
553.176	7.97
553.369	8.2
553.563	8.2
553.756	8.1
553.95	8.16
554.144	8.16
554.337	8.13
554.531	7.98
554.724	8.15
554.918	8.21
555.111	8.07
555.305	8.1
555.498	8.04
555.692	8.19
555.885	8.15
556.079	8.09
556.272	8.1
556.466	8.09
556.659	8.04
556.852	8.12
557.046	8.09
557.239	7.96
557.432	8.05
557.626	8.19
557.819	8.17
558.012	8.09
558.206	8.22
558.399	8.15
558.592	8.11
558.785	8.06
558.979	8.07
559.172	8.07
559.365	8.13
559.558	8.06
559.751	7.99
559.944	8.22
560.138	8.09
560.331	8.19
560.524	8.15
560.717	8.12
560.91	8.15
561.103	8.17
561.296	8.03
561.489	8.16
561.682	8.21
561.875	8.13
562.068	8.27
562.261	8.08
562.454	8.28
562.647	8.13
562.84	8.11
563.032	8.13
563.225	8.08
563.418	8.1
563.611	8.21
563.804	8.19
563.997	7.96
564.19	7.85
564.382	8.22
564.575	8.13
564.768	8.11
564.961	8.2
565.153	8.05
565.346	8.01
565.539	8.18
565.731	8.13
565.924	8.18
566.117	8.25
566.309	8.18
566.502	8.07
566.695	7.97
566.887	8.14
567.08	8.12
567.272	8.11
567.465	8.03
567.657	8.21
567.85	7.98
568.042	8.11
568.235	8.17
568.427	7.99
568.62	8.11
568.812	8.03
569.005	8.11
569.197	7.98
569.389	8.15
569.582	8.08
569.774	8.06
569.966	7.97
570.159	7.92
570.351	8
570.543	8.09
570.736	8.07
570.928	7.91
571.12	8.06
571.312	7.98
571.505	7.8
571.697	8.07
571.889	7.94
572.081	8.03
572.273	7.97
572.465	7.96
572.658	8.04
572.85	8.07
573.042	8
573.234	7.85
573.426	7.93
573.618	7.92
573.81	8.02
574.002	7.98
574.194	8.06
574.386	7.88
574.578	7.75
574.77	7.9
574.962	7.94
575.154	7.8
575.346	7.81
575.538	7.91
575.729	7.91
575.921	7.92
576.113	8.01
576.305	7.91
576.497	8.02
576.689	7.83
576.88	7.79
577.072	7.99
577.264	7.9
577.456	7.85
577.647	7.81
577.839	7.98
578.031	7.88
578.223	7.85
578.414	7.74
578.606	7.88
578.798	7.94
578.989	7.85
579.181	7.95
579.372	7.86
579.564	7.89
579.755	7.74
579.947	7.7
580.139	7.83
580.33	7.64
580.522	7.79
580.713	7.76
580.905	7.75
581.096	7.79
581.287	7.74
581.479	7.71
581.67	7.82
581.862	7.7
582.053	7.73
582.244	7.6
582.436	7.81
582.627	7.65
582.818	7.63
583.01	7.62
583.201	7.67
583.392	7.65
583.583	7.6
583.775	7.53
583.966	7.61
584.157	7.66
584.348	7.73
584.54	7.57
584.731	7.64
584.922	7.59
585.113	7.49
585.304	7.54
585.495	7.58
585.686	7.73
585.877	7.62
586.068	7.67
586.259	7.6
586.45	7.58
586.641	7.52
586.832	7.62
587.023	7.49
587.214	7.47
587.405	7.53
587.596	7.43
587.787	7.41
587.978	7.45
588.169	7.43
588.36	7.35
588.551	7.43
588.742	7.42
588.932	7.46
589.123	7.26
589.314	7.53
589.505	7.37
589.696	7.35
589.886	7.32
590.077	7.38
590.268	7.3
590.458	7.22
590.649	7.15
590.84	7.27
591.03	7.28
591.221	7.32
591.412	7.14
591.602	7.45
591.793	7.29
591.984	7.32
592.174	7.24
592.365	7.43
592.555	7.07
592.746	7.08
592.936	7.18
593.127	7.29
593.317	7.21
593.508	7.32
593.698	7.18
593.889	7.15
594.079	7.05
594.269	7.07
594.46	7.04
594.65	7.11
594.84	7.08
595.031	6.94
595.221	6.95
595.411	7.07
595.602	7.04
595.792	6.93
595.982	6.82
596.172	7.09
596.363	6.95
596.553	6.94
596.743	6.94
596.933	6.91
597.123	6.9
597.314	6.73
597.504	6.74
597.694	6.99
597.884	6.87
598.074	6.88
598.264	6.81
598.454	6.83
598.644	6.81
598.834	6.8
599.024	6.69
599.214	6.73
599.404	6.8
599.594	6.8
599.784	6.63
599.974	6.72
600.164	6.74
600.354	6.64
600.544	6.53
600.734	6.69
600.924	6.64
601.114	6.52
601.303	6.57
601.493	6.61
601.683	6.55
601.873	6.53
602.063	6.44
602.252	6.51
602.442	6.42
602.632	6.43
602.821	6.37
603.011	6.52
603.201	6.46
603.39	6.34
603.58	6.29
603.77	6.47
603.959	6.47
604.149	6.34
604.339	6.39
604.528	6.48
604.718	6.38
604.907	6.28
605.097	6.26
605.286	6.25
605.476	6.27
605.665	6.33
605.855	6.18
606.044	6.34
606.234	6.22
606.423	6.21
606.612	6.18
606.802	6.09
606.991	6.17
607.181	6.21
607.37	6.12
607.559	5.93
607.749	6.08
607.938	6.02
608.127	6.08
608.316	6.06
608.506	6.02
608.695	6.04
608.884	5.96
609.073	5.98
609.263	6.09
609.452	6.01
609.641	5.87
609.83	5.83
610.019	5.99
610.208	5.86
610.397	5.87
610.586	5.94
610.775	5.76
610.965	5.82
611.154	5.66
611.343	5.81
611.532	5.74
611.721	5.77
611.91	5.66
612.099	5.7
612.287	5.66
612.476	5.58
612.665	5.71
612.854	5.56
613.043	5.7
613.232	5.63
613.421	5.54
613.61	5.64
613.798	5.54
613.987	5.66
614.176	5.57
614.365	5.58
614.554	5.55
614.742	5.52
614.931	5.39
615.12	5.53
615.309	5.51
615.497	5.42
615.686	5.3
615.875	5.38
616.063	5.33
616.252	5.31
616.44	5.38
616.629	5.33
616.818	5.35
617.006	5.28
617.195	5.2
617.383	5.3
617.572	5.2
617.76	5.18
617.949	5.22
618.137	5.27
618.326	5.26
618.514	5.05
618.703	5.01
618.891	5.2
619.079	5.1
619.268	5.2
619.456	5.09
619.644	5.13
619.833	5.02
620.021	5.03
620.209	4.95
620.398	5.05
620.586	4.94
620.774	4.93
620.962	4.97
621.151	5.07
621.339	4.99
621.527	4.86
621.715	4.86
621.903	4.9
622.092	4.73
622.28	4.92
622.468	4.66
622.656	4.85
622.844	4.74
623.032	4.85
623.22	4.67
623.408	4.82
623.596	4.76
623.784	4.76
623.972	4.63
624.16	4.61
624.348	4.74
624.536	4.73
624.724	4.54
624.912	4.65
625.1	4.7
625.288	4.62
625.476	4.5
625.664	4.63
625.851	4.56
626.039	4.61
626.227	4.48
626.415	4.5
626.603	4.35
626.79	4.47
626.978	4.48
627.166	4.59
627.354	4.32
627.541	4.34
627.729	4.28
627.917	4.46
628.104	4.46
628.292	4.29
628.48	4.33
628.667	4.24
628.855	4.36
629.042	4.35
629.23	4.22
629.418	4.25
629.605	4.28
629.793	4.15
629.98	4.2
630.168	4.17
630.355	4.19
630.543	4.22
630.73	4.11
630.917	4.2
631.105	4.19
631.292	4.09
631.48	4.06
631.667	4.24
631.854	4.06
632.042	4.02
632.229	3.96
632.416	4.06
632.604	4.04
632.791	3.86
632.978	3.93
633.165	3.95
633.353	4.06
633.54	3.97
633.727	3.84
633.914	3.81
634.101	3.82
634.289	3.95
634.476	3.75
634.663	3.8
634.85	3.8
635.037	3.75
635.224	3.67
635.411	3.87
635.598	3.75
635.785	3.74
635.972	3.67
636.159	3.74
636.346	3.65
636.533	3.65
636.72	3.69
636.907	3.63
637.094	3.68
637.281	3.49
637.468	3.59
637.655	3.62
637.842	3.59
638.029	3.54
638.215	3.51
638.402	3.51
638.589	3.53
638.776	3.5
638.963	3.45
639.149	3.52
639.336	3.54
639.523	3.42
639.709	3.45
639.896	3.42
640.083	3.46
640.27	3.44
640.456	3.32
640.643	3.43
640.829	3.24
641.016	3.27
641.203	3.22
641.389	3.28
641.576	3.35
641.762	3.28
641.949	3.14
642.135	3.32
642.322	3.24
642.508	3.14
642.695	3.23
642.881	3.16
643.068	3.13
643.254	3.17
643.441	3.16
643.627	3.2
643.813	3.09
644	3.17
644.186	3.04
644.372	3.07
644.559	3.09
644.745	3.06
644.931	2.96
645.118	3.06
645.304	3.05
645.49	2.99
645.676	3.03
645.862	2.98
646.049	3.04
646.235	2.96
646.421	3.05
646.607	3.05
646.793	2.97
646.979	2.9
647.165	2.91
647.352	2.88
647.538	2.9
647.724	2.89
647.91	2.87
648.096	2.95
648.282	2.88
648.468	2.76
648.654	2.81
648.84	2.87
649.026	2.81
649.212	2.72
649.397	2.73
649.583	2.72
649.769	2.79
649.955	2.66
650.141	2.72
650.327	2.69
650.513	2.65
650.698	2.67
650.884	2.57
651.07	2.67
651.256	2.64
651.442	2.63
651.627	2.53
651.813	2.65
651.999	2.6
652.184	2.55
652.37	2.62
652.556	2.55
652.741	2.56
652.927	2.43
653.113	2.53
653.298	2.53
653.484	2.48
653.669	2.42
653.855	2.5
654.04	2.51
654.226	2.52
654.412	2.45
654.597	2.4
654.782	2.45
654.968	2.5
655.153	2.43
655.339	2.39
655.524	2.33
655.71	2.4
655.895	2.31
656.08	2.33
656.266	2.42
656.451	2.31
656.636	2.21
656.822	2.3
657.007	2.27
657.192	2.32
657.378	2.23
657.563	2.23
657.748	2.29
657.933	2.29
658.118	2.16
658.304	2.19
658.489	2.31
658.674	2.22
658.859	2.11
659.044	2.16
659.229	2.21
659.414	2.12
659.599	2.17
659.785	2.09
659.97	2.1
660.155	2.16
660.34	2.17
660.525	2.09
660.71	2.02
660.895	2.11
661.08	2.07
661.264	1.97
661.449	2.16
661.634	2.13
661.819	2.14
662.004	2.04
662.189	1.96
662.374	1.95
662.559	1.95
662.743	1.9
662.928	2.02
663.113	1.96
663.298	1.94
663.483	1.93
663.667	1.96
663.852	1.9
664.037	1.95
664.221	1.86
664.406	1.97
664.591	1.96
664.775	1.93
664.96	1.87
665.145	1.86
665.329	1.88
665.514	1.86
665.698	1.82
665.883	1.84
666.068	1.87
666.252	1.84
666.437	1.81
666.621	1.81
666.806	1.81
666.99	1.8
667.174	1.71
667.359	1.86
667.543	1.75
667.728	1.79
667.912	1.67
668.096	1.76
668.281	1.7
668.465	1.77
668.649	1.72
668.834	1.68
669.018	1.71
669.202	1.76
669.387	1.68
669.571	1.75
669.755	1.66
669.939	1.73
670.124	1.68
670.308	1.74
670.492	1.7
670.676	1.67
670.86	1.63
671.044	1.62
671.228	1.68
671.413	1.6
671.597	1.55
671.781	1.6
671.965	1.6
672.149	1.61
672.333	1.55
672.517	1.57
672.701	1.62
672.885	1.59
673.069	1.53
673.253	1.66
673.437	1.51
673.621	1.56
673.804	1.59
673.988	1.53
674.172	1.55
674.356	1.45
674.54	1.52
674.724	1.66
674.908	1.53
675.091	1.56
675.275	1.45
675.459	1.51
675.643	1.57
675.826	1.47
676.01	1.43
676.194	1.46
676.377	1.47
676.561	1.52
676.745	1.46
676.928	1.46
677.112	1.5
677.296	1.4
677.479	1.34
677.663	1.35
677.846	1.45
678.03	1.34
678.213	1.29
678.397	1.43
678.58	1.34
678.764	1.39
678.947	1.34
679.131	1.4
679.314	1.45
679.498	1.33
679.681	1.36
679.865	1.47
680.048	1.29
680.231	1.34
680.415	1.28
680.598	1.29
680.781	1.3
680.965	1.28
681.148	1.33
681.331	1.23
681.514	1.38
681.698	1.23
681.881	1.26
682.064	1.26
682.247	1.22
682.43	1.17
682.614	1.27
682.797	1.29
682.98	1.26
683.163	1.17
683.346	1.23
683.529	1.18
683.712	1.14
683.895	1.21
684.078	1.16
684.261	1.18
684.444	1.21
684.627	1.27
684.81	1.1
684.993	1.19
685.176	1.19
685.359	1.07
685.542	1.12
685.725	1.25
685.908	1.15
686.091	1.15
686.274	1.17
686.457	1.17
686.639	1.17
686.822	1.18
687.005	1.11
687.188	1.18
687.371	1.24
687.553	1.18
687.736	1.1
687.919	1.22
688.102	1.18
688.284	1.07
688.467	1.07
688.65	1.11
688.832	1
689.015	1.04
689.197	0.99
689.38	1.12
689.563	1.19
689.745	0.97
689.928	0.96
690.11	1.07
690.293	1.05
690.475	0.92
690.658	1.08
690.84	1.04
691.023	0.98
691.205	0.91
691.388	1.06
691.57	1.07
691.752	1.02
691.935	0.91
692.117	0.93
692.3	1.02
692.482	0.94
692.664	0.93
692.847	0.96
693.029	1.06
693.211	1.05
693.393	0.98
693.576	0.89
693.758	0.98
693.94	0.95
694.122	0.95
694.304	0.92
694.487	0.9
694.669	1.04
694.851	0.89
695.033	0.95
695.215	0.93
695.397	0.88
695.579	0.87
695.761	0.87
695.943	0.85
696.125	1.03
696.308	0.96
696.49	0.77
696.671	1.08
696.853	0.85
697.035	1.14
697.217	0.87
697.399	0.97
697.581	0.84
697.763	0.85
697.945	0.77
698.127	0.89
698.309	0.89
698.491	0.92
698.672	0.92
698.854	0.9
699.036	0.96
699.218	0.88
699.399	0.91
699.581	0.93
699.763	0.83
699.945	0.8
700.126	0.73
700.308	0.85
700.49	0.78
700.671	0.71
700.853	0.75
701.035	0.76
701.216	0.76
701.398	0.69
701.579	0.76
701.761	0.88
701.943	0.75
702.124	0.75
702.306	0.8
702.487	0.94
702.669	0.84
702.85	0.75
703.031	0.71
703.213	0.88
703.394	0.86
703.576	0.77
703.757	0.92
703.938	0.81
704.12	0.98
704.301	0.79
704.483	0.66
704.664	0.75
704.845	0.88
705.026	0.77
705.208	0.73
705.389	0.79
705.57	0.71
705.751	0.71
705.933	0.74
706.114	0.86
706.295	0.73
706.476	0.66
706.657	0.84
706.838	0.75
707.02	0.84
707.201	0.69
707.382	0.66
707.563	0.83
707.744	0.71
707.925	0.68
708.106	0.68
708.287	0.74
708.468	0.8
708.649	0.63
708.83	0.72
709.011	0.7
709.192	0.82
709.373	0.62
709.554	0.75
709.734	0.74
709.915	0.79
710.096	0.67
710.277	0.53
710.458	0.7
710.639	0.72
710.819	0.58
711	0.67
711.181	0.69
711.362	0.78
711.542	0.68
711.723	0.7
711.904	0.75
712.085	0.72
712.265	0.66
712.446	0.54
712.627	0.6
712.807	0.61
712.988	0.66
713.168	0.53
713.349	0.76
713.53	0.47
713.71	0.56
713.891	0.49
714.071	0.68
714.252	0.61
714.432	0.64
714.613	0.48
714.793	0.63
714.974	0.79
715.154	0.7
715.334	0.72
715.515	0.78
715.695	0.54
715.876	0.55
716.056	0.56
716.236	0.59
716.417	0.62
716.597	0.56
716.777	0.8
716.957	0.68
717.138	0.66
717.318	0.61
717.498	0.5
717.678	0.63
717.859	0.65
718.039	0.48
718.219	0.59
718.399	0.57
718.579	0.52
718.759	0.52
718.939	0.57
719.12	0.61
719.3	0.53
719.48	0.43
719.66	0.42
719.84	0.69
720.02	0.6
720.2	0.52
720.38	0.52
720.56	0.78
720.74	0.47
720.92	0.57
721.1	0.78
721.279	0.64
721.459	0.6
721.639	0.45
721.819	0.59
721.999	0.55
722.179	0.64
722.359	0.4
722.538	0.47
722.718	0.53
722.898	0.52
723.078	0.54
723.257	0.47
723.437	0.57
723.617	0.59
723.797	0.49
723.976	0.62
724.156	0.66
724.336	0.69
724.515	0.69
724.695	0.41
724.874	0.48
725.054	0.71
725.234	0.44
725.413	0.57
725.593	0.51
725.772	0.59
725.952	0.43
726.131	0.47
726.311	0.46
726.49	0.48
726.67	0.41
726.849	0.44
727.028	0.62
727.208	0.49
727.387	0.56
727.567	0.39
727.746	0.59
727.925	0.54
728.105	0.39
728.284	0.48
728.463	0.48
728.643	0.46
728.822	0.39
729.001	0.44
729.18	0.46
729.359	0.63
729.539	0.41
729.718	0.55
729.897	0.68
730.076	0.53
730.255	0.4
730.434	0.44
730.614	0.65
730.793	0.69
730.972	0.45
731.151	0.54
731.33	0.61
731.509	0.57
731.688	0.47
731.867	0.46
732.046	0.29
732.225	0.68
732.404	0.46
732.583	0.37
732.762	0.49
732.941	0.61
733.12	0.66
733.298	0.48
733.477	0.62
733.656	0.39
733.835	0.39
734.014	0.59
734.193	0.48
734.371	0.62
734.55	0.58
734.729	0.31
734.908	0.58
735.086	0.64
735.265	0.53
735.444	0.38
735.623	0.36
735.801	0.51
735.98	0.47
736.159	0.53
736.337	0.6
736.516	0.53
736.694	0.49
736.873	0.42
737.052	0.75
737.23	0.71
737.409	0.56
737.587	0.78
737.766	0.43
737.944	0.57
738.123	0.51
738.301	0.51
738.479	0.48
738.658	0.62
738.836	0.2
739.015	0.47
739.193	0.67
739.371	0.38
739.55	0.48
739.728	0.36
739.906	0.63
740.085	0.7
740.263	0.43
740.441	0.2
740.62	0.77
740.798	0.7
740.976	0.44
741.154	0.31
741.332	0.68
741.511	0.42
741.689	0.42
741.867	0.52
742.045	0.59
742.223	0.48
742.401	0.36
742.579	0.44
742.757	0.65
742.935	0.37
743.114	0.45
743.292	0.4
743.47	0.48
743.648	0.5
743.826	0.29
744.004	0.52
744.181	0.51
744.359	0.41
744.537	0.45
744.715	0.41
744.893	0.5
745.071	0.43
745.249	0.32
745.427	0.38
745.605	0.57
745.782	0.52
745.96	0.51
746.138	0.62
746.316	0.6
746.493	0.44
746.671	0.4
746.849	0.28
747.027	0.68
747.204	0.31
747.382	0.47
747.56	0.27
747.737	0.37
747.915	0.39
748.093	0.44
748.27	0.41
748.448	0.45
748.625	0.36
748.803	0.39
748.98	0.31
749.158	0.6
749.335	0.57
749.513	0.33
749.69	0.32
749.868	0.5
750.045	0.48
750.223	0.31
750.4	0.16
750.578	0.62
750.755	0.39
750.932	0.33
751.11	0.48
751.287	0.31
751.464	0.66
751.642	0.4
751.819	0.49
751.996	0.44
752.173	0.41
752.351	0.36
752.528	0.34
752.705	0.38
752.882	0.3
753.06	0.4
753.237	0.41
753.414	0.61
753.591	0.83
753.768	0.49
753.945	0.28
754.122	0.35
754.299	0.42
754.476	0.34
754.654	0.41
754.831	0.52
755.008	0.48
755.185	0.3
755.362	0.34
755.539	0.49
755.716	0.34
755.892	0.36
756.069	0.4
756.246	0.41
756.423	0.42
756.6	0.43
756.777	0.26
756.954	0.48
757.131	0.26
757.307	0.27
757.484	0.23
757.661	0.38
757.838	0.56
758.015	0.25
758.191	0.46
758.368	0.48
758.545	0.74
758.721	0.38
758.898	0.3
759.075	0.46
759.251	0.53
759.428	0.39
759.605	0.22
759.781	0.36
759.958	0.51
760.134	0.45
760.311	0.33
760.488	0.58
760.664	0.66
760.841	0.43
761.017	0.32
761.194	0.47
761.37	0.52
761.547	0.33
761.723	0.3
761.899	0.59
762.076	0.3
762.252	0.19
762.429	0.31
762.605	0.47
762.781	0.29
762.958	0.46
763.134	0.22
763.31	0.33
763.486	0.54
763.663	0.07
763.839	0.38
764.015	0.05
764.191	0.34
764.368	0.34
764.544	0.31
764.72	0.42
764.896	0.42
765.072	0.41
765.248	0.37
765.425	0.44
765.601	0.53
765.777	0.42
765.953	0.18
766.129	0.27
766.305	0.3
766.481	0.34
766.657	0.35
766.833	0.63
767.009	0.3
767.185	0.32
767.361	0.47
767.537	0.32
767.713	0.55
767.889	0.3
768.065	0.45
768.24	0.27
768.416	0.56
768.592	0.3
768.768	0.32
768.944	0.46
769.12	0.37
769.295	0.29
769.471	0.31
769.647	0.38
769.823	0.69
769.998	0.27
770.174	0.15
770.35	0.76
770.525	0.78
770.701	0.46
770.877	0.27
771.052	0.18
771.228	0.55
771.403	0.34
771.579	0.38
771.755	0.73
771.93	0.26
772.106	0.23
772.281	0.11
772.457	0.41
772.632	0.46
772.808	0.17
772.983	0.23
773.159	0.15
773.334	0.7
773.509	0.42
773.685	0.31
773.86	0.86
774.036	0.59
774.211	0.39
774.386	0.19
774.562	0.37
774.737	0.57
774.912	0.27
775.087	0.38
775.263	0.38
775.438	0.43
775.613	0.28
775.788	0.23
775.964	0.51
776.139	0.91
776.314	0.11
776.489	0.48
776.664	0.48
776.839	0.37
777.014	0.48
777.19	0.5
777.365	0.66
777.54	0.65
777.715	0.24
777.89	0.3
778.065	0.47
778.24	0.49
778.415	0.56
778.59	0.35
778.765	0.29
778.94	0.53
779.115	0.44
779.289	0.41
779.464	0.32
779.639	0.33
779.814	0.15
779.989	-0.01
780.164	0.64
780.339	0.58
780.513	0.25
780.688	0.27
780.863	0.52
781.038	0.58
781.212	0.11
781.387	0.41
781.562	0.78
781.737	0.33
781.911	0.81
782.086	0.32
782.261	0.31
782.435	0.89
782.61	0.31
782.784	0.57
782.959	0.71
783.134	0.25
783.308	0.25
783.483	0.43
783.657	1.04
783.832	0.57
784.006	-0.01
784.181	0.36
784.355	0.61
784.53	0.3
784.704	0.14
784.878	0.54
785.053	0.77
785.227	0.75
785.402	0.87
785.576	0.15
785.75	0.35
785.925	0.44
786.099	0.4
786.273	0.5
786.448	0.65
786.622	0.66
786.796	0.51
786.97	0.41
787.145	1
787.319	0.32
787.493	0.01
787.667	0.04
787.841	0.43
788.015	0.87
788.19	0.35
788.364	0.37
788.538	0.81
788.712	0.68
788.886	0.37
789.06	0.78
789.234	0.8
789.408	0.25
789.582	0.13
789.756	0.33
789.93	0.14
790.104	0.49
790.278	0.28
790.452	0.27
790.626	0.34
790.8	0.25
790.973	0.55
791.147	0.65
791.321	0.8
791.495	0.63
791.669	0.57
791.843	0.58
792.016	0.61
792.19	1
792.364	0.24
792.538	1.1
792.711	0.79
792.885	0.52
793.059	0.38
793.233	-0.15
793.406	0.64
793.58	0.61
793.754	0.67
793.927	0.29
794.101	0.77
794.274	0.57
794.448	0.62
794.622	0.28
794.795	1.18
794.969	0.48
795.142	0.82
795.316	0.55
795.489	0.09
795.663	0.98
795.836	0.46
796.009	0.29
796.183	0.62
796.356	0.6
796.53	0.55
796.703	0.39
796.876	1.29
797.05	0.36
797.223	0.23
797.396	0.42
797.57	0.44
797.743	1.1
797.916	0.55
798.09	0.22
798.263	0.98
798.436	0.78
798.609	0.28
798.782	0.25
798.956	0.7
799.129	0.66
799.302	0.29
799.475	0.23
799.648	0.33
799.821	0.29
799.994	0.49
800.167	-0.01
800.34	0.41
800.514	0.34
800.687	0.25
800.86	0.19
801.033	0.66
801.206	0.74
801.379	0.18
801.551	0.64
801.724	0.49
801.897	1.44
802.07	0.44
802.243	0.16
802.416	0.76
802.589	0.44
802.762	0.75
802.935	0.55
803.107	1.16
803.28	1.22
803.453	0.66
803.626	0.32
803.798	0.86
803.971	0.27
804.144	0.36
804.317	0.56
804.489	0.92
804.662	0.68
804.835	0.67
805.007	0.29
805.18	1.39
805.353	0.7
805.525	0.5
805.698	0.29
805.87	0.93
806.043	0.92
806.215	0.42
806.388	0.27
806.56	0.56
806.733	1.02
806.905	0.57
807.078	0.2
807.25	0.17
807.423	0.9
807.595	0.52
807.768	0.67
807.94	0.76
808.112	0.81
808.285	0.48
808.457	0.14
808.629	0.9
808.802	0.66
808.974	0.53
809.146	0.53
809.318	0.5
809.491	0.87
809.663	0.99
809.835	0.25
810.007	0.95
810.18	0.45
810.352	0.03
810.524	0.34
810.696	0.79
810.868	1.15
811.04	0.22
811.212	0.39
811.384	1.09
811.556	1.02
811.728	0.41
811.901	1.72
812.073	0.78
812.245	1.1
812.417	0.66
812.589	0.01
812.76	1.11
812.932	1.34
813.104	1.03
813.276	0.73
813.448	1.11
813.62	0.96
813.792	0.94
813.964	0.57
814.136	0.75
814.307	0.72
814.479	0.23
814.651	0.05
814.823	1.74
814.995	0.45
815.166	0.77
815.338	0.32
815.51	-0.06
815.681	1.58
815.853	0.71
816.025	0.61
816.196	1.79
816.368	1.36
816.54	0.21
816.711	0.07
816.883	1.27
817.054	1.99
817.226	-0.03
817.398	1.18
817.569	0.65
817.741	0.94
817.912	0.38
818.084	0.73
818.255	1.48
818.426	0.23
818.598	0.72
818.769	0.22
818.941	0.95
819.112	1.23
819.283	0.68
819.455	0.17
819.626	0.89
819.798	0.86
819.969	0.84
820.14	0.29
820.311	0.38
820.483	1.09
820.654	0.92
820.825	0.7
820.996	0.88
821.168	0.37
821.339	0.41
821.51	-0.12
821.681	0.91
821.852	1.08
822.023	-0.08
822.195	0.32
822.366	1.13
822.537	0.65
822.708	0.3
822.879	0.22
823.05	0.8
823.221	0.7
823.392	0.69
823.563	0.45
823.734	1.07
823.905	0.66
824.076	0.52
824.247	0.3
824.418	0.68
824.589	1.64
824.759	0.67
824.93	0.49
825.101	0.14
825.272	1.25
825.443	1.42
825.614	1.17
825.784	-0.21
825.955	2.44
826.126	0.82
826.297	0.8
826.467	1.56
826.638	2.16
826.809	-0.01
826.98	0.92
827.15	1.03
827.321	1.27
827.492	1.49
827.662	0.79
827.833	2.64
828.003	1.41
828.174	0.68
828.345	0.05
828.515	1.88
828.686	1.28
828.856	0.73
829.027	0.61
829.197	1.59
829.368	1.03
829.538	-0.08
829.709	0.55
829.879	1.38
830.049	0.99
830.22	0.44
830.39	0.48
830.56	1.95
830.731	0.66
830.901	0.17
831.072	0.91
831.242	1.75
831.412	1.11
831.582	0.29
831.753	-0.22
831.923	1.74
832.093	1.62
832.263	0.45
832.434	0.23
832.604	0.29
832.774	1.98
832.944	0.7
833.114	0.49
833.284	1.2
833.454	0.83
833.624	0.71
833.795	0.51
833.965	2.02
834.135	1.84
834.305	-0.46
834.475	-0.14
834.645	1.15
834.815	0.63
834.985	0.14
835.155	0.38
835.325	1.24
835.494	1.43
835.664	0.16
835.834	-0
836.004	1.53
836.174	1.47
836.344	0.96
836.514	-0.24
836.684	1.08
836.853	1.39
837.023	1.21
837.193	0.98
837.363	1.62
837.532	2.3
837.702	1.1
837.872	0.12
838.041	1.74
838.211	2.6
838.381	-0.1
838.55	0.65
838.72	3.66
838.89	2.65
839.059	0.84
839.229	0.48
839.398	3
839.568	1.02
839.738	0.99
839.907	2.25
840.077	1.79
840.246	0.26
840.416	1.08
840.585	0.68
840.755	2.51
840.924	1.88
841.093	0.19
841.263	0.8
841.432	0.78
841.602	0.49
841.771	0.85
841.94	1.48
842.11	3.58
842.279	2.73
842.448	-0.14
842.617	0.38
842.787	3.05
842.956	0.93
843.125	0.91
843.294	0.92
843.464	2.88
843.633	0.98
843.802	0.13
843.971	1.2
844.14	1.54
844.309	2.14
844.479	-0.94
844.648	-0.21
844.817	1.9
844.986	1.58
845.155	0.12
845.324	0.93
845.493	0.9
845.662	1.04
845.831	1.25
846	1.24
846.169	1.32
846.338	2.29
846.507	1.17
846.676	1.72
846.844	0.57
847.013	3.2
847.182	1.83
847.351	-0.5
847.52	0.82
847.689	1.94
847.858	0.45
848.026	1.16
848.195	1.79
848.364	0.49
848.533	0.31
848.701	0.71
848.87	1.62
849.039	2.41
849.207	2.11
849.376	2.7
849.545	3.11
849.713	0.94
849.882	0.77
850.051	1.27
850.219	1.67
850.388	1.91
850.556	0.75
850.725	0.35
850.893	1.5
851.062	1.46
851.23	1.7
851.399	0.76
851.567	1.05
851.736	1.08
851.904	-0.15
852.073	0.66
852.241	2.44
852.41	1.76
852.578	1.53
852.746	-0.06
852.915	1.29
853.083	2.14
853.251	0.16
853.42	0.45
853.588	1.95
853.756	2.22
853.924	1.94
854.093	1.6
854.261	1.07
854.429	0.29
854.597	2.12
854.765	-0.77
854.934	3.39
855.102	2.86
855.27	0.67
855.438	1.9
855.606	3.68
855.774	4.46
855.942	0.35
856.11	0.63
856.278	1.56
856.446	2.74
856.614	1.43
856.782	0.6
856.95	2.87
857.118	2.53
857.286	1.81
857.454	1.02
857.622	3.51
857.79	2.85
857.958	-0.71
858.126	1.05
858.294	-0.73
858.462	1.8
858.629	0.53
858.797	-0.38
858.965	2.28
859.133	2.56
859.301	1.52
859.468	1.25
859.636	1.06
859.804	4.4
859.971	2.08
860.139	1.4
860.307	2.81
860.474	2.48
860.642	0.34
860.81	0.17
860.977	0.89
861.145	3.32
861.313	1.37
861.48	1.59
861.648	2.88
861.815	0.84
861.983	-0.18
862.15	-0.28
862.318	2.29
862.485	4.06
862.653	0.73
862.82	-1.48
862.988	5.1
863.155	3.53
863.322	0.73
863.49	-0.2
863.657	0.15
863.824	5.29
863.992	2.15
864.159	2.19
864.326	4
864.494	0.58
864.661	4.92
864.828	-0.26
864.996	3.02
865.163	3.99
865.33	1.46
865.497	-1.7
865.664	1.62
865.832	-0.98
865.999	1.86
866.166	-0.13
866.333	1.25
866.5	2.19
866.667	0.56
866.834	1.95
867.001	3.22
867.168	0.82
867.335	1.23
867.502	-0.31
867.669	2.12
867.836	7.1
868.003	0.06
868.17	2.47
868.337	4.13
868.504	5.93
868.671	-0.88
868.838	0.47
869.005	3.31
869.172	3.01
869.339	2.35
869.505	1.43
869.672	2.28
869.839	3.46
870.006	2.46
870.173	-0.84
870.339	2.21
870.506	6.79
870.673	-0.38
870.84	4.23
871.006	2.46
871.173	1.45
871.34	2.11
871.506	1.19
871.673	2.75
871.839	-0.34
872.006	1.19
872.173	-1.18
872.339	3.37
872.506	4.02
872.672	1.6
872.839	1.08
873.005	2.11
873.172	6.68
873.338	3.85
873.505	0.97
873.671	4.33
873.838	3.07
874.004	-1.22
874.171	1.5
874.337	2.24
874.503	3.47
874.67	2.05
874.836	1.05
875.002	5.95
875.169	5.12
875.335	2.06
875.501	2.75
875.668	3.5
875.834	2.04
876	2.97
876.166	2.36
876.332	4.92
876.499	7.31
876.665	1.27
876.831	0.79
876.997	7.47
877.163	4.1
877.329	-0.99
877.495	3.04
877.662	4.83
877.828	4.19
877.994	2.95
878.16	-1.4
878.326	2.42
878.492	2.52
878.658	3.56
878.824	4.05
878.99	4.11
879.156	1.92
879.322	4.48
879.487	1.4
879.653	3.81
879.819	3
879.985	-0.09
880.151	2.54
880.317	3.66
880.483	2.9
880.648	1.18
880.814	-0.21
880.98	3.06
881.146	-2.89
881.312	-0.09
881.477	0.32
881.643	1.8
881.809	3.99
881.974	3.2
882.14	-0
882.306	4.48
882.471	7.25
882.637	1.3
882.803	1.52
882.968	4.82
883.134	5.95
883.299	2.49
883.465	1.4
883.63	4.44
883.796	3.77
883.961	2.58
884.127	2.79
884.292	-3.32
884.458	-0.24
884.623	-0.24
