Data from Apollo_Calib_20240827__AbsoluteIrradiance__770__11-59-00-606.txt Node

Date: Wed Aug 28 11:59:00 BST 2024
User: biology
Spectrometer: FLMT08252
Trigger mode: 0
Integration Time (sec): 5.000000E-1
Scans to average: 5
Electric dark correction enabled: true
Nonlinearity correction enabled: false
Boxcar width: 0
XAxis mode: Wavelengths
Number of Pixels in Spectrum: 3648
>>>>>Begin Spectral Data<<<<<
179.588	-0
179.809	-0
180.03	-0
180.251	-0
180.473	-0
180.694	0
180.915	0
181.136	-0
181.357	0
181.578	-0
181.799	-0
182.02	-0
182.241	0
182.462	-0
182.683	0
182.904	-0
183.125	-0
183.346	0
183.567	0
183.788	0
184.009	0
184.23	0
184.451	0
184.672	0
184.892	0
185.113	0
185.334	0
185.555	0
185.776	0
185.996	0
186.217	0
186.438	0
186.659	0
186.879	0
187.1	0
187.321	0
187.541	0
187.762	0
187.983	0
188.203	0
188.424	0
188.644	0
188.865	0
189.086	0
189.306	0
189.527	0
189.747	0
189.968	0
190.188	0
190.409	0
190.629	0
190.849	0
191.07	0
191.29	0
191.511	0
191.731	0
191.951	0
192.172	0
192.392	0
192.612	0
192.833	0
193.053	0
193.273	0
193.493	0
193.714	0
193.934	0
194.154	0
194.374	0
194.594	0
194.815	0
195.035	0
195.255	0
195.475	0
195.695	0
195.915	0
196.135	0
196.355	0
196.575	0
196.795	0
197.015	0
197.235	0
197.455	0
197.675	0
197.895	0
198.115	0
198.335	0
198.555	0
198.775	0
198.995	0
199.214	0
199.434	0
199.654	0
199.874	0
200.094	4.01
200.313	2.71
200.533	2.21
200.753	1.81
200.973	4.01
201.192	3.77
201.412	1.49
201.632	1.85
201.851	2.92
202.071	2.13
202.291	1.76
202.51	1.67
202.73	2.6
202.95	1.7
203.169	1.25
203.389	2
203.608	2.02
203.828	2
204.047	1.56
204.267	2.33
204.486	2.01
204.706	2.33
204.925	1.77
205.145	1.39
205.364	2.61
205.583	2.35
205.803	1.57
206.022	1.15
206.242	1.65
206.461	1.7
206.68	1.29
206.9	1.46
207.119	2.49
207.338	2.61
207.557	1.13
207.777	1.42
207.996	1.11
208.215	1.77
208.434	1.32
208.654	0.83
208.873	1.62
209.092	2.32
209.311	1.26
209.53	1.2
209.749	1.13
209.968	1.18
210.187	0.86
210.407	0.74
210.626	1.4
210.845	1.49
211.064	1.11
211.283	0.85
211.502	1.69
211.721	1.19
211.94	0.97
212.159	1.23
212.377	1.45
212.596	1.54
212.815	1.37
213.034	1.1
213.253	1.46
213.472	1.5
213.691	0.96
213.91	0.95
214.128	0.9
214.347	1.52
214.566	0.63
214.785	0.62
215.003	1.31
215.222	1.09
215.441	1.02
215.66	0.61
215.878	1.05
216.097	1.27
216.316	0.75
216.534	0.82
216.753	1.17
216.972	0.88
217.19	0.95
217.409	0.87
217.627	0.75
217.846	0.64
218.064	0.91
218.283	0.65
218.501	1.27
218.72	1.18
218.938	0.56
219.157	0.57
219.375	1.08
219.594	1.06
219.812	0.61
220.031	0.64
220.249	1.23
220.467	1.25
220.686	0.79
220.904	0.52
221.122	0.71
221.341	1.21
221.559	0.82
221.777	0.5
221.995	0.76
222.214	1.14
222.432	0.7
222.65	0.98
222.868	0.87
223.086	1
223.305	0.9
223.523	0.72
223.741	1.19
223.959	0.64
224.177	0.34
224.395	0.51
224.613	0.88
224.831	0.86
225.049	0.53
225.267	0.62
225.485	0.75
225.703	0.68
225.921	0.76
226.139	0.66
226.357	0.78
226.575	0.76
226.793	0.59
227.011	1.56
227.229	0.77
227.447	0.84
227.665	0.59
227.883	0.23
228.1	0.73
228.318	0.85
228.536	0.31
228.754	0.45
228.972	0.69
229.189	0.78
229.407	0.47
229.625	0.49
229.843	0.79
230.06	0.84
230.278	0.45
230.496	0.53
230.713	0.77
230.931	0.78
231.149	0.48
231.366	0.36
231.584	0.59
231.801	1.03
232.019	0.49
232.236	0.38
232.454	0.58
232.671	0.62
232.889	0.54
233.106	0.4
233.324	0.67
233.541	0.56
233.759	0.55
233.976	0.47
234.194	0.46
234.411	0.66
234.628	0.36
234.846	0.52
235.063	0.55
235.28	0.55
235.498	0.55
235.715	0.35
235.932	0.7
236.149	0.61
236.367	0.44
236.584	0.64
236.801	0.55
237.018	0.64
237.236	0.43
237.453	0.27
237.67	0.75
237.887	0.48
238.104	0.51
238.321	0.45
238.538	0.45
238.755	0.72
238.973	0.31
239.19	0.46
239.407	0.61
239.624	0.58
239.841	0.31
240.058	0.39
240.275	0.51
240.492	0.44
240.709	0.55
240.925	0.43
241.142	0.53
241.359	0.35
241.576	0.34
241.793	0.38
242.01	0.41
242.227	0.67
242.444	0.59
242.66	0.58
242.877	0.5
243.094	0.49
243.311	0.44
243.527	0.43
243.744	0.54
243.961	0.57
244.178	0.32
244.394	0.42
244.611	0.56
244.828	0.75
245.044	0.34
245.261	0.36
245.477	0.53
245.694	0.44
245.911	0.37
246.127	0.57
246.344	0.71
246.56	0.53
246.777	0.37
246.993	0.4
247.21	0.5
247.426	0.54
247.643	0.37
247.859	0.33
248.076	0.42
248.292	0.69
248.508	0.33
248.725	0.48
248.941	0.48
249.157	0.56
249.374	0.4
249.59	0.35
249.806	0.35
250.023	0.63
250.239	0.42
250.455	0.3
250.671	0.4
250.888	0.49
251.104	0.48
251.32	0.32
251.536	0.42
251.752	0.38
251.969	0.4
252.185	0.42
252.401	0.58
252.617	0.43
252.833	0.36
253.049	0.43
253.265	0.41
253.481	0.44
253.697	0.3
253.913	0.32
254.129	0.49
254.345	0.44
254.561	0.33
254.777	0.32
254.993	0.46
255.209	0.39
255.425	0.38
255.641	0.33
255.857	0.46
256.073	0.48
256.288	0.29
256.504	0.29
256.72	0.45
256.936	0.56
257.152	0.4
257.367	0.37
257.583	0.43
257.799	0.39
258.015	0.37
258.23	0.35
258.446	0.56
258.662	0.42
258.877	0.3
259.093	0.34
259.309	0.39
259.524	0.47
259.74	0.34
259.955	0.25
260.171	0.45
260.387	0.43
260.602	0.36
260.818	0.46
261.033	0.31
261.249	0.38
261.464	0.31
261.68	0.22
261.895	0.42
262.11	0.4
262.326	0.29
262.541	0.26
262.757	0.42
262.972	0.47
263.187	0.37
263.403	0.36
263.618	0.48
263.833	0.4
264.049	0.28
264.264	0.4
264.479	0.37
264.694	0.56
264.91	0.32
265.125	0.34
265.34	0.43
265.555	0.57
265.77	0.43
265.986	0.29
266.201	0.47
266.416	0.49
266.631	0.3
266.846	0.35
267.061	0.48
267.276	0.48
267.491	0.23
267.706	0.38
267.921	0.47
268.136	0.45
268.351	0.32
268.566	0.22
268.781	0.47
268.996	0.5
269.211	0.31
269.426	0.3
269.641	0.34
269.856	0.48
270.071	0.31
270.285	0.17
270.5	0.44
270.715	0.4
270.93	0.34
271.145	0.34
271.359	0.4
271.574	0.3
271.789	0.34
272.004	0.29
272.218	0.34
272.433	0.45
272.648	0.27
272.862	0.41
273.077	0.35
273.292	0.38
273.506	0.32
273.721	0.32
273.936	0.38
274.15	0.43
274.365	0.22
274.579	0.35
274.794	0.35
275.008	0.42
275.223	0.24
275.437	0.34
275.652	0.5
275.866	0.33
276.081	0.33
276.295	0.38
276.509	0.39
276.724	0.35
276.938	0.29
277.153	0.31
277.367	0.36
277.581	0.29
277.796	0.27
278.01	0.22
278.224	0.46
278.438	0.49
278.653	0.31
278.867	0.28
279.081	0.2
279.295	0.3
279.51	0.36
279.724	0.23
279.938	0.36
280.152	0.33
280.366	0.27
280.58	0.31
280.794	0.44
281.008	0.39
281.222	0.36
281.437	0.48
281.651	0.4
281.865	0.41
282.079	0.26
282.293	0.19
282.507	0.27
282.721	0.28
282.935	0.26
283.148	0.15
283.362	0.26
283.576	0.22
283.79	0.31
284.004	0.28
284.218	0.4
284.432	0.24
284.646	0.31
284.859	0.29
285.073	0.3
285.287	0.37
285.501	0.35
285.714	0.25
285.928	0.31
286.142	0.33
286.356	0.29
286.569	0.28
286.783	0.34
286.997	0.35
287.21	0.33
287.424	0.27
287.637	0.25
287.851	0.29
288.065	0.33
288.278	0.21
288.492	0.3
288.705	0.32
288.919	0.33
289.132	0.22
289.346	0.38
289.559	0.21
289.773	0.22
289.986	0.29
290.2	0.32
290.413	0.35
290.626	0.25
290.84	0.3
291.053	0.26
291.267	0.38
291.48	0.32
291.693	0.26
291.906	0.25
292.12	0.3
292.333	0.26
292.546	0.26
292.76	0.36
292.973	0.29
293.186	0.33
293.399	0.23
293.612	0.33
293.826	0.3
294.039	0.28
294.252	0.24
294.465	0.34
294.678	0.37
294.891	0.27
295.104	0.22
295.317	0.25
295.53	0.26
295.743	0.25
295.956	0.23
296.169	0.36
296.382	0.35
296.595	0.21
296.808	0.2
297.021	0.33
297.234	0.39
297.447	0.26
297.66	0.28
297.873	0.33
298.086	0.33
298.299	0.23
298.511	0.16
298.724	0.29
298.937	0.2
299.15	0.24
299.363	0.27
299.575	0.32
299.788	0.3
300.001	0.27
300.213	0.23
300.426	0.24
300.639	0.24
300.852	0.21
301.064	0.31
301.277	0.37
301.489	0.3
301.702	0.27
301.915	0.24
302.127	0.27
302.34	0.33
302.552	0.29
302.765	0.18
302.977	0.3
303.19	0.26
303.402	0.24
303.615	0.25
303.827	0.25
304.04	0.26
304.252	0.3
304.464	0.29
304.677	0.4
304.889	0.33
305.102	0.2
305.314	0.23
305.526	0.3
305.739	0.31
305.951	0.21
306.163	0.2
306.375	0.29
306.588	0.26
306.8	0.27
307.012	0.2
307.224	0.32
307.436	0.31
307.649	0.22
307.861	0.27
308.073	0.31
308.285	0.27
308.497	0.21
308.709	0.23
308.921	0.27
309.133	0.36
309.346	0.27
309.558	0.26
309.77	0.3
309.982	0.35
310.194	0.29
310.406	0.21
310.617	0.4
310.829	0.26
311.041	0.29
311.253	0.26
311.465	0.27
311.677	0.31
311.889	0.25
312.101	0.21
312.313	0.35
312.524	0.32
312.736	0.18
312.948	0.25
313.16	0.32
313.372	0.32
313.583	0.28
313.795	0.22
314.007	0.23
314.218	0.34
314.43	0.27
314.642	0.23
314.853	0.19
315.065	0.36
315.277	0.25
315.488	0.27
315.7	0.34
315.912	0.26
316.123	0.27
316.335	0.24
316.546	0.37
316.758	0.24
316.969	0.21
317.181	0.28
317.392	0.26
317.604	0.32
317.815	0.22
318.026	0.22
318.238	0.26
318.449	0.32
318.661	0.16
318.872	0.15
319.083	0.23
319.295	0.34
319.506	0.24
319.717	0.24
319.929	0.38
320.14	0.28
320.351	0.27
320.562	0.22
320.774	0.29
320.985	0.29
321.196	0.16
321.407	0.17
321.618	0.3
321.829	0.24
322.041	0.29
322.252	0.24
322.463	0.29
322.674	0.28
322.885	0.17
323.096	0.23
323.307	0.25
323.518	0.29
323.729	0.24
323.94	0.26
324.151	0.21
324.362	0.31
324.573	0.24
324.784	0.24
324.995	0.34
325.206	0.31
325.417	0.22
325.628	0.22
325.838	0.25
326.049	0.27
326.26	0.3
326.471	0.2
326.682	0.29
326.892	0.29
327.103	0.18
327.314	0.22
327.525	0.4
327.735	0.29
327.946	0.23
328.157	0.2
328.368	0.32
328.578	0.24
328.789	0.26
328.999	0.2
329.21	0.29
329.421	0.34
329.631	0.23
329.842	0.25
330.052	0.26
330.263	0.28
330.473	0.27
330.684	0.2
330.894	0.27
331.105	0.25
331.315	0.27
331.526	0.22
331.736	0.31
331.947	0.28
332.157	0.28
332.367	0.18
332.578	0.32
332.788	0.35
332.999	0.3
333.209	0.24
333.419	0.21
333.629	0.29
333.84	0.3
334.05	0.25
334.26	0.33
334.47	0.26
334.681	0.31
334.891	0.23
335.101	0.3
335.311	0.32
335.521	0.26
335.732	0.24
335.942	0.32
336.152	0.29
336.362	0.25
336.572	0.25
336.782	0.29
336.992	0.23
337.202	0.25
337.412	0.24
337.622	0.3
337.832	0.28
338.042	0.27
338.252	0.21
338.462	0.2
338.672	0.27
338.882	0.26
339.092	0.28
339.302	0.33
339.511	0.31
339.721	0.21
339.931	0.19
340.141	0.34
340.351	0.31
340.561	0.28
340.77	0.29
340.98	0.29
341.19	0.32
341.4	0.22
341.609	0.22
341.819	0.24
342.029	0.21
342.238	0.27
342.448	0.27
342.658	0.3
342.867	0.25
343.077	0.27
343.286	0.22
343.496	0.32
343.706	0.37
343.915	0.22
344.125	0.3
344.334	0.26
344.544	0.21
344.753	0.21
344.963	0.2
345.172	0.22
345.381	0.22
345.591	0.22
345.8	0.25
346.01	0.33
346.219	0.3
346.428	0.12
346.638	0.24
346.847	0.25
347.056	0.34
347.266	0.2
347.475	0.24
347.684	0.27
347.893	0.28
348.103	0.28
348.312	0.24
348.521	0.24
348.73	0.26
348.94	0.27
349.149	0.21
349.358	0.22
349.567	0.23
349.776	0.18
349.985	0.23
350.194	0.29
350.403	0.3
350.612	0.18
350.821	0.24
351.03	0.26
351.239	0.21
351.448	0.24
351.657	0.21
351.866	0.36
352.075	0.29
352.284	0.24
352.493	0.19
352.702	0.31
352.911	0.29
353.12	0.26
353.329	0.25
353.538	0.29
353.746	0.29
353.955	0.23
354.164	0.28
354.373	0.23
354.582	0.31
354.79	0.24
354.999	0.29
355.208	0.23
355.416	0.31
355.625	0.19
355.834	0.23
356.042	0.29
356.251	0.23
356.46	0.22
356.668	0.26
356.877	0.39
357.085	0.31
357.294	0.19
357.503	0.26
357.711	0.26
357.92	0.36
358.128	0.29
358.337	0.23
358.545	0.28
358.754	0.21
358.962	0.28
359.17	0.22
359.379	0.31
359.587	0.27
359.796	0.28
360.004	0.3
360.212	0.29
360.421	0.29
360.629	0.19
360.837	0.24
361.046	0.34
361.254	0.38
361.462	0.25
361.67	0.22
361.879	0.25
362.087	0.33
362.295	0.25
362.503	0.2
362.711	0.23
362.92	0.24
363.128	0.21
363.336	0.19
363.544	0.18
363.752	0.24
363.96	0.23
364.168	0.19
364.376	0.28
364.584	0.26
364.792	0.28
365	0.23
365.208	0.28
365.416	0.27
365.624	0.32
365.832	0.25
366.04	0.31
366.248	0.24
366.456	0.29
366.664	0.29
366.872	0.25
367.079	0.24
367.287	0.26
367.495	0.24
367.703	0.24
367.911	0.27
368.118	0.26
368.326	0.26
368.534	0.24
368.742	0.32
368.949	0.21
369.157	0.2
369.365	0.32
369.572	0.23
369.78	0.23
369.988	0.31
370.195	0.29
370.403	0.32
370.61	0.23
370.818	0.27
371.026	0.4
371.233	0.21
371.441	0.29
371.648	0.25
371.856	0.26
372.063	0.31
372.271	0.25
372.478	0.22
372.685	0.23
372.893	0.32
373.1	0.27
373.308	0.26
373.515	0.41
373.722	0.36
373.93	0.23
374.137	0.28
374.344	0.31
374.552	0.29
374.759	0.27
374.966	0.27
375.173	0.25
375.381	0.33
375.588	0.26
375.795	0.18
376.002	0.25
376.209	0.21
376.417	0.29
376.624	0.29
376.831	0.32
377.038	0.26
377.245	0.21
377.452	0.25
377.659	0.27
377.866	0.26
378.073	0.29
378.28	0.28
378.487	0.34
378.694	0.29
378.901	0.22
379.108	0.27
379.315	0.34
379.522	0.35
379.729	0.27
379.936	0.25
380.143	0.3
380.35	0.33
380.557	0.23
380.763	0.29
380.97	0.25
381.177	0.35
381.384	0.28
381.591	0.18
381.797	0.3
382.004	0.31
382.211	0.32
382.418	0.23
382.624	0.31
382.831	0.31
383.038	0.26
383.244	0.28
383.451	0.32
383.658	0.3
383.864	0.27
384.071	0.23
384.277	0.38
384.484	0.26
384.69	0.36
384.897	0.24
385.103	0.28
385.31	0.25
385.516	0.26
385.723	0.2
385.929	0.27
386.136	0.25
386.342	0.36
386.549	0.25
386.755	0.32
386.961	0.33
387.168	0.28
387.374	0.29
387.58	0.37
387.787	0.29
387.993	0.3
388.199	0.29
388.406	0.23
388.612	0.25
388.818	0.29
389.024	0.23
389.231	0.27
389.437	0.38
389.643	0.34
389.849	0.3
390.055	0.3
390.261	0.32
390.467	0.33
390.674	0.24
390.88	0.33
391.086	0.33
391.292	0.25
391.498	0.31
391.704	0.35
391.91	0.29
392.116	0.3
392.322	0.23
392.528	0.36
392.734	0.28
392.94	0.31
393.146	0.33
393.352	0.32
393.557	0.31
393.763	0.32
393.969	0.29
394.175	0.3
394.381	0.34
394.587	0.26
394.792	0.33
394.998	0.37
395.204	0.36
395.41	0.29
395.615	0.32
395.821	0.32
396.027	0.36
396.233	0.3
396.438	0.34
396.644	0.37
396.85	0.33
397.055	0.29
397.261	0.33
397.466	0.49
397.672	0.38
397.878	0.4
398.083	0.37
398.289	0.33
398.494	0.48
398.7	0.41
398.905	0.27
399.111	0.4
399.316	0.3
399.522	0.37
399.727	0.27
399.932	0.34
400.138	0.31
400.343	0.4
400.549	0.34
400.754	0.38
400.959	0.39
401.165	0.33
401.37	0.36
401.575	0.48
401.78	0.38
401.986	0.35
402.191	0.32
402.396	0.34
402.601	0.44
402.807	0.43
403.012	0.39
403.217	0.48
403.422	0.41
403.627	0.4
403.832	0.38
404.037	0.38
404.243	0.43
404.448	0.41
404.653	0.43
404.858	0.47
405.063	0.45
405.268	0.46
405.473	0.42
405.678	0.42
405.883	0.61
406.088	0.49
406.293	0.38
406.498	0.43
406.703	0.53
406.907	0.52
407.112	0.42
407.317	0.51
407.522	0.6
407.727	0.46
407.932	0.52
408.136	0.67
408.341	0.57
408.546	0.57
408.751	0.58
408.956	0.53
409.16	0.63
409.365	0.6
409.57	0.62
409.774	0.61
409.979	0.69
410.184	0.7
410.388	0.6
410.593	0.71
410.798	0.73
411.002	0.73
411.207	0.83
411.411	0.79
411.616	0.69
411.82	0.84
412.025	0.81
412.229	0.8
412.434	1.01
412.638	0.88
412.843	0.87
413.047	0.98
413.252	0.93
413.456	1.06
413.66	1.01
413.865	0.99
414.069	1.18
414.273	1.1
414.478	1.14
414.682	1.15
414.886	1.17
415.091	1.13
415.295	1.18
415.499	1.37
415.703	1.3
415.908	1.36
416.112	1.34
416.316	1.51
416.52	1.51
416.724	1.46
416.929	1.6
417.133	1.82
417.337	1.71
417.541	1.74
417.745	1.81
417.949	1.87
418.153	1.92
418.357	1.93
418.561	2.19
418.765	2.16
418.969	2.32
419.173	2.36
419.377	2.33
419.581	2.57
419.785	2.51
419.989	2.52
420.193	2.75
420.397	2.78
420.601	2.92
420.804	3.03
421.008	3.01
421.212	3.18
421.416	3.08
421.62	3.14
421.823	3.22
422.027	3.42
422.231	3.38
422.435	3.3
422.638	3.45
422.842	3.54
423.046	3.59
423.249	3.8
423.453	3.79
423.657	4
423.86	4.05
424.064	4.16
424.268	4.32
424.471	4.32
424.675	4.48
424.878	4.59
425.082	4.63
425.285	5.02
425.489	4.92
425.692	5
425.896	5.12
426.099	5.31
426.303	5.44
426.506	5.51
426.71	5.73
426.913	5.98
427.116	6.1
427.32	6.11
427.523	6.19
427.726	6.57
427.93	6.57
428.133	6.88
428.336	7.02
428.54	7.12
428.743	7.46
428.946	7.6
429.149	7.68
429.353	7.78
429.556	7.73
429.759	7.81
429.962	7.93
430.165	8.14
430.368	7.78
430.571	7.82
430.775	7.96
430.978	7.85
431.181	7.92
431.384	8
431.587	8.21
431.79	8.47
431.993	8.41
432.196	8.73
432.399	9.07
432.602	9.17
432.805	9.42
433.008	9.89
433.211	9.74
433.414	9.98
433.616	10
433.819	10.04
434.022	10.19
434.225	10.52
434.428	10.38
434.631	10.97
434.833	10.63
435.036	10.96
435.239	11.11
435.442	11.21
435.645	11.46
435.847	11.3
436.05	11.67
436.253	11.84
436.455	11.92
436.658	11.86
436.861	12.08
437.063	12.27
437.266	12.18
437.468	12.59
437.671	12.84
437.874	12.91
438.076	12.84
438.279	13.23
438.481	13.25
438.684	13.97
438.886	13.57
439.089	13.95
439.291	13.96
439.494	14.36
439.696	14.47
439.899	15.03
440.101	15.33
440.303	15.67
440.506	16.29
440.708	15.99
440.91	16.3
441.113	16.48
441.315	16.66
441.517	16.56
441.72	16.99
441.922	16.77
442.124	16.57
442.326	16.76
442.529	17.06
442.731	17.26
442.933	17.42
443.135	17.14
443.337	17.13
443.539	17.92
443.742	17.49
443.944	18.06
444.146	17.78
444.348	17.88
444.55	17.75
444.752	17.87
444.954	17.92
445.156	17.82
445.358	18.12
445.56	18.44
445.762	18.28
445.964	18.57
446.166	18.44
446.368	18.45
446.57	18.42
446.772	17.99
446.974	17.88
447.175	18.07
447.377	17.8
447.579	18.13
447.781	17.94
447.983	17.73
448.184	17.37
448.386	17.58
448.588	17.22
448.79	17.14
448.991	17.55
449.193	17.4
449.395	16.88
449.597	16.54
449.798	16.32
450	15.97
450.202	15.81
450.403	15.9
450.605	15.79
450.806	15.35
451.008	15.3
451.21	15.17
451.411	14.66
451.613	13.79
451.814	14.25
452.016	14.24
452.217	13.4
452.419	13.47
452.62	13.14
452.821	12.94
453.023	12.76
453.224	12.48
453.426	12.04
453.627	11.36
453.828	11.34
454.03	11.5
454.231	11.37
454.432	11.34
454.634	11.02
454.835	10.61
455.036	10.61
455.238	10.36
455.439	9.99
455.64	9.72
455.841	9.58
456.042	9.75
456.244	9.4
456.445	9.12
456.646	8.82
456.847	8.79
457.048	8.73
457.249	8.63
457.45	8.53
457.651	7.83
457.852	7.76
458.054	7.52
458.255	7.32
458.456	7.43
458.657	7.28
458.858	6.89
459.058	6.87
459.259	6.86
459.46	6.52
459.661	6.58
459.862	6.65
460.063	6.49
460.264	6.37
460.465	6.03
460.666	6.17
460.866	5.86
461.067	5.66
461.268	5.67
461.469	5.65
461.67	5.5
461.87	5.35
462.071	5.41
462.272	5.14
462.473	5.19
462.673	5.35
462.874	5.24
463.075	5.28
463.275	5.17
463.476	5.3
463.676	5.25
463.877	5.09
464.078	4.99
464.278	5.14
464.479	4.93
464.679	4.88
464.88	4.83
465.08	4.76
465.281	4.66
465.481	4.31
465.682	4.22
465.882	4.24
466.083	4.11
466.283	4.07
466.483	4.03
466.684	3.84
466.884	3.71
467.085	3.73
467.285	3.85
467.485	3.71
467.686	3.68
467.886	3.51
468.086	3.46
468.286	3.43
468.487	3.51
468.687	3.36
468.887	3.25
469.087	3.36
469.287	3.29
469.488	3.17
469.688	3.26
469.888	3.25
470.088	3.22
470.288	3.2
470.488	3.05
470.688	3.01
470.888	2.88
471.088	2.77
471.288	2.84
471.488	2.83
471.688	2.81
471.888	2.71
472.088	2.89
472.288	2.83
472.488	2.66
472.688	2.68
472.888	2.66
473.088	2.68
473.288	2.65
473.488	2.52
473.688	2.74
473.887	2.54
474.087	2.5
474.287	2.55
474.487	2.43
474.687	2.43
474.886	2.44
475.086	2.38
475.286	2.34
475.486	2.39
475.685	2.32
475.885	2.23
476.085	2.35
476.284	2.29
476.484	2.28
476.684	2.25
476.883	2.36
477.083	2.23
477.282	2.16
477.482	2.23
477.681	2.2
477.881	2.1
478.08	2.09
478.28	2.08
478.479	2.15
478.679	2.15
478.878	2.08
479.078	2.03
479.277	2.13
479.477	2.09
479.676	2.09
479.875	2.03
480.075	1.99
480.274	2.05
480.473	2.11
480.673	2.03
480.872	2.16
481.071	2.1
481.271	2.08
481.47	1.98
481.669	2
481.868	1.98
482.067	2
482.267	1.99
482.466	1.99
482.665	1.99
482.864	2
483.063	1.97
483.262	2.02
483.461	2.08
483.661	2.1
483.86	2.09
484.059	2.11
484.258	2.06
484.457	2
484.656	2.09
484.855	2.11
485.054	1.98
485.253	2.01
485.452	1.98
485.651	2.08
485.849	2.07
486.048	2.03
486.247	2.07
486.446	2.13
486.645	2.02
486.844	2.08
487.043	2.07
487.241	2.13
487.44	2.08
487.639	2.16
487.838	2.13
488.037	2.15
488.235	2.21
488.434	2.16
488.633	2.12
488.831	2.24
489.03	2.24
489.229	2.24
489.427	2.22
489.626	2.31
489.825	2.31
490.023	2.33
490.222	2.34
490.42	2.35
490.619	2.38
490.817	2.37
491.016	2.39
491.214	2.45
491.413	2.47
491.611	2.4
491.81	2.41
492.008	2.48
492.207	2.56
492.405	2.53
492.604	2.48
492.802	2.58
493	2.57
493.199	2.63
493.397	2.67
493.595	2.74
493.794	2.67
493.992	2.8
494.19	2.78
494.388	2.8
494.587	2.73
494.785	2.79
494.983	2.71
495.181	2.87
495.379	2.93
495.578	2.98
495.776	2.92
495.974	2.97
496.172	2.96
496.37	3.09
496.568	3.07
496.766	3.09
496.964	3.22
497.162	3.15
497.36	3.2
497.558	3.26
497.756	3.35
497.954	3.31
498.152	3.36
498.35	3.52
498.548	3.37
498.746	3.39
498.944	3.41
499.142	3.4
499.34	3.49
499.538	3.66
499.736	3.55
499.933	3.64
500.131	3.64
500.329	3.8
500.527	3.78
500.725	3.82
500.922	3.86
501.12	3.86
501.318	3.96
501.516	3.96
501.713	4
501.911	4.01
502.109	3.93
502.306	4.09
502.504	4.03
502.701	4.09
502.899	4.19
503.097	4.38
503.294	4.23
503.492	4.35
503.689	4.36
503.887	4.39
504.084	4.45
504.282	4.42
504.479	4.37
504.677	4.58
504.874	4.51
505.072	4.45
505.269	4.65
505.466	4.71
505.664	4.74
505.861	4.67
506.059	4.74
506.256	4.8
506.453	4.86
506.651	4.95
506.848	4.95
507.045	4.93
507.242	4.94
507.44	4.95
507.637	5.07
507.834	5.03
508.031	5.22
508.229	5.15
508.426	5.06
508.623	5.23
508.82	5.27
509.017	5.28
509.214	5.27
509.411	5.38
509.608	5.28
509.805	5.43
510.003	5.44
510.2	5.49
510.397	5.63
510.594	5.52
510.791	5.56
510.988	5.64
511.184	5.65
511.381	5.5
511.578	5.62
511.775	5.81
511.972	5.73
512.169	5.77
512.366	5.83
512.563	5.93
512.76	5.94
512.956	5.98
513.153	5.93
513.35	5.89
513.547	5.89
513.744	6.03
513.94	5.98
514.137	6.16
514.334	6.1
514.53	6.16
514.727	6.28
514.924	6.28
515.12	6.25
515.317	6.23
515.514	6.19
515.71	6.14
515.907	6.39
516.103	6.45
516.3	6.3
516.497	6.51
516.693	6.5
516.89	6.46
517.086	6.52
517.283	6.5
517.479	6.42
517.676	6.61
517.872	6.64
518.068	6.62
518.265	6.57
518.461	6.57
518.658	6.68
518.854	6.67
519.05	6.81
519.247	6.79
519.443	6.76
519.639	6.9
519.836	6.75
520.032	6.76
520.228	6.92
520.424	6.83
520.621	6.91
520.817	6.93
521.013	6.85
521.209	7.07
521.405	7.08
521.601	6.99
521.798	7.01
521.994	6.99
522.19	6.96
522.386	7.01
522.582	7.11
522.778	7.29
522.974	7.09
523.17	7.1
523.366	7.08
523.562	7.18
523.758	7.13
523.954	7.01
524.15	7.21
524.346	7.2
524.542	7.25
524.738	7.18
524.934	7.34
525.129	7.38
525.325	7.21
525.521	7.22
525.717	7.45
525.913	7.34
526.109	7.37
526.304	7.44
526.5	7.42
526.696	7.45
526.892	7.38
527.087	7.58
527.283	7.48
527.479	7.5
527.674	7.29
527.87	7.53
528.066	7.48
528.261	7.53
528.457	7.44
528.653	7.6
528.848	7.57
529.044	7.65
529.239	7.48
529.435	7.57
529.63	7.48
529.826	7.53
530.021	7.58
530.217	7.65
530.412	7.56
530.608	7.63
530.803	7.57
530.999	7.46
531.194	7.62
531.389	7.72
531.585	7.72
531.78	7.79
531.975	7.65
532.171	7.77
532.366	7.76
532.561	7.65
532.757	7.69
532.952	7.87
533.147	7.65
533.342	7.81
533.538	7.71
533.733	7.92
533.928	7.59
534.123	7.77
534.318	7.82
534.513	7.72
534.709	7.9
534.904	7.84
535.099	7.9
535.294	7.8
535.489	7.93
535.684	7.78
535.879	7.85
536.074	7.9
536.269	7.93
536.464	7.96
536.659	7.88
536.854	7.89
537.049	8.01
537.244	7.85
537.439	7.94
537.634	7.86
537.828	7.98
538.023	7.9
538.218	7.93
538.413	7.78
538.608	7.95
538.803	7.95
538.997	7.88
539.192	7.89
539.387	7.89
539.582	7.92
539.776	7.84
539.971	7.99
540.166	8.05
540.36	7.91
540.555	8.05
540.75	8.01
540.944	7.98
541.139	8.03
541.334	7.91
541.528	7.97
541.723	8.06
541.917	8.15
542.112	7.94
542.306	7.84
542.501	7.93
542.695	8.03
542.89	7.92
543.084	7.96
543.279	8.03
543.473	8
543.668	8.1
543.862	7.86
544.056	7.89
544.251	8.03
544.445	8.11
544.64	8.09
544.834	7.85
545.028	7.67
545.222	8.07
545.417	8.23
545.611	8.04
545.805	7.98
546	7.83
546.194	8.05
546.388	8.1
546.582	8.02
546.776	7.94
546.97	8.05
547.165	8.03
547.359	8
547.553	8.02
547.747	8.01
547.941	8.23
548.135	8.06
548.329	8.11
548.523	8.14
548.717	7.97
548.911	7.98
549.105	8.01
549.299	8.1
549.493	8.1
549.687	8
549.881	8.14
550.075	8.08
550.269	7.96
550.463	8.1
550.657	8.16
550.85	8.09
551.044	8.07
551.238	8.14
551.432	8.09
551.626	8.09
551.82	8.12
552.013	7.96
552.207	8.17
552.401	8.14
552.594	8.1
552.788	7.98
552.982	8.07
553.176	8.05
553.369	8.25
553.563	8.14
553.756	8.07
553.95	8.18
554.144	8.16
554.337	8.09
554.531	7.95
554.724	8.12
554.918	8.17
555.111	8.09
555.305	8.12
555.498	8.08
555.692	8.19
555.885	8.14
556.079	8.03
556.272	8.08
556.466	8.11
556.659	8.08
556.852	8.12
557.046	8.01
557.239	7.96
557.432	8.01
557.626	8.12
557.819	8.19
558.012	8.09
558.206	8.23
558.399	8.09
558.592	8.09
558.785	8.04
558.979	8.04
559.172	8.08
559.365	8.08
559.558	8.04
559.751	8.03
559.944	8.19
560.138	8.13
560.331	8.08
560.524	8.17
560.717	8.13
560.91	8.04
561.103	8.1
561.296	7.94
561.489	8.17
561.682	8.18
561.875	8.15
562.068	8.22
562.261	8.01
562.454	8.26
562.647	8.08
562.84	8.13
563.032	8.1
563.225	8.01
563.418	8.05
563.611	8.17
563.804	8.15
563.997	7.97
564.19	7.85
564.382	8.2
564.575	8.12
564.768	7.97
564.961	8.12
565.153	8
565.346	7.95
565.539	8.15
565.731	8.06
565.924	8.18
566.117	8.23
566.309	8.14
566.502	8.07
566.695	8.03
566.887	8.14
567.08	8.08
567.272	8.12
567.465	7.96
567.657	8.12
567.85	8
568.042	8.04
568.235	8.11
568.427	7.95
568.62	8.04
568.812	8.04
569.005	8.16
569.197	7.96
569.389	8.07
569.582	8.01
569.774	8.05
569.966	7.94
570.159	7.92
570.351	7.95
570.543	8
570.736	7.99
570.928	7.89
571.12	8.09
571.312	7.97
571.505	7.75
571.697	8
571.889	7.92
572.081	7.94
572.273	7.92
572.465	7.99
572.658	7.97
572.85	8
573.042	7.96
573.234	7.85
573.426	7.93
573.618	7.91
573.81	7.96
574.002	7.95
574.194	8
574.386	7.86
574.578	7.78
574.77	7.94
574.962	7.93
575.154	7.82
575.346	7.81
575.538	7.78
575.729	7.86
575.921	7.92
576.113	7.98
576.305	7.93
576.497	8.01
576.689	7.78
576.88	7.73
577.072	7.92
577.264	7.84
577.456	7.86
577.647	7.81
577.839	7.96
578.031	7.79
578.223	7.79
578.414	7.67
578.606	7.75
578.798	7.85
578.989	7.83
579.181	7.89
579.372	7.82
579.564	7.88
579.755	7.76
579.947	7.72
580.139	7.83
580.33	7.59
580.522	7.79
580.713	7.65
580.905	7.73
581.096	7.86
581.287	7.7
581.479	7.72
581.67	7.83
581.862	7.66
582.053	7.67
582.244	7.58
582.436	7.8
582.627	7.62
582.818	7.65
583.01	7.65
583.201	7.72
583.392	7.62
583.583	7.57
583.775	7.49
583.966	7.63
584.157	7.6
584.348	7.7
584.54	7.53
584.731	7.59
584.922	7.5
585.113	7.44
585.304	7.58
585.495	7.6
585.686	7.66
585.877	7.54
586.068	7.59
586.259	7.56
586.45	7.5
586.641	7.52
586.832	7.56
587.023	7.53
587.214	7.43
587.405	7.47
587.596	7.33
587.787	7.31
587.978	7.41
588.169	7.41
588.36	7.38
588.551	7.45
588.742	7.42
588.932	7.44
589.123	7.26
589.314	7.41
589.505	7.24
589.696	7.43
589.886	7.33
590.077	7.35
590.268	7.25
590.458	7.25
590.649	7.14
590.84	7.25
591.03	7.26
591.221	7.23
591.412	7.1
591.602	7.35
591.793	7.2
591.984	7.2
592.174	7.18
592.365	7.32
592.555	7.11
592.746	7.14
592.936	7.23
593.127	7.21
593.317	7.15
593.508	7.2
593.698	7.1
593.889	7.09
594.079	7.08
594.269	7.02
594.46	6.99
594.65	7.03
594.84	7.04
595.031	6.93
595.221	6.96
595.411	7.02
595.602	6.98
595.792	6.94
595.982	6.86
596.172	7.01
596.363	6.84
596.553	6.9
596.743	6.92
596.933	6.9
597.123	6.87
597.314	6.75
597.504	6.69
597.694	6.85
597.884	6.81
598.074	6.83
598.264	6.81
598.454	6.78
598.644	6.74
598.834	6.78
599.024	6.65
599.214	6.64
599.404	6.8
599.594	6.68
599.784	6.61
599.974	6.77
600.164	6.67
600.354	6.61
600.544	6.52
600.734	6.61
600.924	6.55
601.114	6.56
601.303	6.5
601.493	6.58
601.683	6.52
601.873	6.5
602.063	6.46
602.252	6.57
602.442	6.44
602.632	6.45
602.821	6.39
603.011	6.44
603.201	6.44
603.39	6.38
603.58	6.25
603.77	6.36
603.959	6.43
604.149	6.35
604.339	6.31
604.528	6.44
604.718	6.33
604.907	6.28
605.097	6.24
605.286	6.19
605.476	6.17
605.665	6.26
605.855	6.15
606.044	6.26
606.234	6.19
606.423	6.16
606.612	6.17
606.802	6.08
606.991	6.14
607.181	6.2
607.37	6.08
607.559	5.88
607.749	6.09
607.938	5.99
608.127	6.07
608.316	6.03
608.506	6
608.695	6.1
608.884	5.9
609.073	5.98
609.263	6.04
609.452	6
609.641	5.8
609.83	5.79
610.019	5.92
610.208	5.88
610.397	5.79
610.586	5.79
610.775	5.77
610.965	5.81
611.154	5.68
611.343	5.8
611.532	5.76
611.721	5.77
611.91	5.71
612.099	5.7
612.287	5.63
612.476	5.56
612.665	5.76
612.854	5.55
613.043	5.61
613.232	5.62
613.421	5.54
613.61	5.56
613.798	5.55
613.987	5.6
614.176	5.58
614.365	5.58
614.554	5.52
614.742	5.53
614.931	5.44
615.12	5.52
615.309	5.47
615.497	5.42
615.686	5.3
615.875	5.3
616.063	5.35
616.252	5.35
616.44	5.3
616.629	5.33
616.818	5.3
617.006	5.24
617.195	5.22
617.383	5.2
617.572	5.18
617.76	5.14
617.949	5.15
618.137	5.18
618.326	5.2
618.514	5.08
618.703	5.02
618.891	5.16
619.079	5.03
619.268	5.14
619.456	5
619.644	5.12
619.833	4.93
620.021	4.98
620.209	4.93
620.398	5.02
620.586	4.86
620.774	4.98
620.962	4.93
621.151	4.97
621.339	4.84
621.527	4.8
621.715	4.9
621.903	4.86
622.092	4.75
622.28	4.87
622.468	4.68
622.656	4.78
622.844	4.7
623.032	4.79
623.22	4.63
623.408	4.82
623.596	4.72
623.784	4.72
623.972	4.65
624.16	4.64
624.348	4.74
624.536	4.68
624.724	4.55
624.912	4.6
625.1	4.58
625.288	4.55
625.476	4.52
625.664	4.57
625.851	4.45
626.039	4.5
626.227	4.47
626.415	4.51
626.603	4.37
626.79	4.48
626.978	4.44
627.166	4.52
627.354	4.33
627.541	4.35
627.729	4.25
627.917	4.44
628.104	4.42
628.292	4.32
628.48	4.3
628.667	4.19
628.855	4.39
629.042	4.36
629.23	4.23
629.418	4.24
629.605	4.25
629.793	4.14
629.98	4.1
630.168	4.14
630.355	4.2
630.543	4.17
630.73	4.04
630.917	4.03
631.105	4.2
631.292	4.05
631.48	4.05
631.667	4.14
631.854	4.02
632.042	4.08
632.229	3.97
632.416	3.99
632.604	3.97
632.791	3.84
632.978	3.99
633.165	3.98
633.353	3.98
633.54	3.94
633.727	3.8
633.914	3.84
634.101	3.79
634.289	3.93
634.476	3.82
634.663	3.73
634.85	3.75
635.037	3.74
635.224	3.71
635.411	3.86
635.598	3.71
635.785	3.72
635.972	3.66
636.159	3.75
636.346	3.71
636.533	3.65
636.72	3.6
636.907	3.62
637.094	3.61
637.281	3.55
637.468	3.57
637.655	3.6
637.842	3.54
638.029	3.55
638.215	3.5
638.402	3.55
638.589	3.39
638.776	3.45
638.963	3.41
639.149	3.56
639.336	3.5
639.523	3.39
639.709	3.41
639.896	3.39
640.083	3.39
640.27	3.44
640.456	3.36
640.643	3.35
640.829	3.22
641.016	3.3
641.203	3.25
641.389	3.28
641.576	3.29
641.762	3.27
641.949	3.18
642.135	3.25
642.322	3.19
642.508	3.09
642.695	3.18
642.881	3.14
643.068	3.1
643.254	3.16
643.441	3.12
643.627	3.23
643.813	3.04
644	3.11
644.186	2.99
644.372	3.11
644.559	3.12
644.745	3.08
644.931	2.98
645.118	3.05
645.304	3.03
645.49	2.95
645.676	2.93
645.862	3
646.049	3.06
646.235	2.99
646.421	3.09
646.607	3.01
646.793	2.94
646.979	2.85
647.165	2.88
647.352	2.87
647.538	2.87
647.724	2.88
647.91	2.81
648.096	2.81
648.282	2.89
648.468	2.76
648.654	2.84
648.84	2.77
649.026	2.77
649.212	2.73
649.397	2.72
649.583	2.69
649.769	2.75
649.955	2.66
650.141	2.66
650.327	2.71
650.513	2.64
650.698	2.7
650.884	2.53
651.07	2.69
651.256	2.65
651.442	2.59
651.627	2.54
651.813	2.7
651.999	2.55
652.184	2.55
652.37	2.51
652.556	2.55
652.741	2.62
652.927	2.36
653.113	2.52
653.298	2.55
653.484	2.47
653.669	2.42
653.855	2.42
654.04	2.54
654.226	2.52
654.412	2.4
654.597	2.32
654.782	2.46
654.968	2.43
655.153	2.41
655.339	2.34
655.524	2.35
655.71	2.41
655.895	2.34
656.08	2.35
656.266	2.43
656.451	2.34
656.636	2.28
656.822	2.29
657.007	2.35
657.192	2.31
657.378	2.18
657.563	2.24
657.748	2.25
657.933	2.28
658.118	2.17
658.304	2.22
658.489	2.28
658.674	2.22
658.859	2.18
659.044	2.2
659.229	2.25
659.414	2.15
659.599	2.15
659.785	2.09
659.97	2.17
660.155	2.15
660.34	2.1
660.525	2.08
660.71	2.07
660.895	2.12
661.08	2.05
661.264	2.05
661.449	2.13
661.634	2.05
661.819	2.08
662.004	2.02
662.189	1.98
662.374	2.03
662.559	1.91
662.743	1.94
662.928	2.02
663.113	1.94
663.298	1.87
663.483	1.96
663.667	1.97
663.852	1.91
664.037	1.98
664.221	1.87
664.406	1.93
664.591	1.98
664.775	1.9
664.96	1.87
665.145	1.89
665.329	1.89
665.514	1.9
665.698	1.82
665.883	1.74
666.068	1.88
666.252	1.86
666.437	1.79
666.621	1.83
666.806	1.85
666.99	1.78
667.174	1.76
667.359	1.86
667.543	1.75
667.728	1.77
667.912	1.7
668.096	1.85
668.281	1.69
668.465	1.72
668.649	1.71
668.834	1.69
669.018	1.74
669.202	1.68
669.387	1.6
669.571	1.74
669.755	1.63
669.939	1.69
670.124	1.65
670.308	1.65
670.492	1.7
670.676	1.67
670.86	1.61
671.044	1.58
671.228	1.68
671.413	1.55
671.597	1.56
671.781	1.55
671.965	1.63
672.149	1.6
672.333	1.56
672.517	1.58
672.701	1.56
672.885	1.59
673.069	1.46
673.253	1.65
673.437	1.54
673.621	1.49
673.804	1.53
673.988	1.47
674.172	1.51
674.356	1.36
674.54	1.51
674.724	1.62
674.908	1.47
675.091	1.52
675.275	1.46
675.459	1.53
675.643	1.5
675.826	1.5
676.01	1.42
676.194	1.42
676.377	1.49
676.561	1.45
676.745	1.43
676.928	1.45
677.112	1.51
677.296	1.41
677.479	1.41
677.663	1.36
677.846	1.38
678.03	1.38
678.213	1.32
678.397	1.41
678.58	1.35
678.764	1.39
678.947	1.31
679.131	1.38
679.314	1.43
679.498	1.42
679.681	1.31
679.865	1.45
680.048	1.37
680.231	1.29
680.415	1.28
680.598	1.27
680.781	1.31
680.965	1.25
681.148	1.29
681.331	1.22
681.514	1.35
681.698	1.22
681.881	1.27
682.064	1.24
682.247	1.25
682.43	1.17
682.614	1.2
682.797	1.27
682.98	1.28
683.163	1.18
683.346	1.25
683.529	1.16
683.712	1.16
683.895	1.28
684.078	1.15
684.261	1.18
684.444	1.23
684.627	1.21
684.81	1.19
684.993	1.11
685.176	1.17
685.359	1.11
685.542	1.14
685.725	1.23
685.908	1.18
686.091	1.14
686.274	1.17
686.457	1.17
686.639	1.13
686.822	1.19
687.005	1.14
687.188	1.19
687.371	1.24
687.553	1.13
687.736	1.06
687.919	1.23
688.102	1.2
688.284	1.08
688.467	1.07
688.65	1.08
688.832	1.04
689.015	1.1
689.197	1.05
689.38	1.17
689.563	1.14
689.745	0.99
689.928	1
690.11	1.02
690.293	1.08
690.475	1.02
690.658	1.04
690.84	1.04
691.023	1.03
691.205	0.91
691.388	1
691.57	1.06
691.752	1.07
691.935	0.9
692.117	0.87
692.3	1.02
692.482	1
692.664	0.92
692.847	0.94
693.029	1.01
693.211	1
693.393	0.93
693.576	0.87
693.758	0.95
693.94	0.96
694.122	0.93
694.304	0.95
694.487	0.91
694.669	1.03
694.851	0.89
695.033	0.9
695.215	0.91
695.397	0.93
695.579	0.92
695.761	0.88
695.943	0.84
696.125	0.99
696.308	0.91
696.49	0.8
696.671	1.01
696.853	0.93
697.035	1.1
697.217	0.87
697.399	1.03
697.581	0.87
697.763	0.91
697.945	0.8
698.127	0.95
698.309	0.73
698.491	0.9
698.672	0.96
698.854	0.96
699.036	0.94
699.218	0.79
699.399	0.94
699.581	0.95
699.763	0.86
699.945	0.71
700.126	0.8
700.308	0.85
700.49	0.71
700.671	0.69
700.853	0.75
701.035	0.83
701.216	0.83
701.398	0.73
701.579	0.76
701.761	0.9
701.943	0.83
702.124	0.77
702.306	0.79
702.487	0.94
702.669	0.8
702.85	0.72
703.031	0.7
703.213	0.91
703.394	0.83
703.576	0.75
703.757	0.86
703.938	0.9
704.12	1.02
704.301	0.82
704.483	0.66
704.664	0.83
704.845	0.85
705.026	0.77
705.208	0.78
705.389	0.78
705.57	0.73
705.751	0.79
705.933	0.77
706.114	0.88
706.295	0.74
706.476	0.62
706.657	0.86
706.838	0.81
707.02	0.83
707.201	0.67
707.382	0.7
707.563	0.79
707.744	0.68
707.925	0.7
708.106	0.7
708.287	0.75
708.468	0.85
708.649	0.66
708.83	0.71
709.011	0.74
709.192	0.75
709.373	0.57
709.554	0.64
709.734	0.8
709.915	0.72
710.096	0.69
710.277	0.52
710.458	0.67
710.639	0.69
710.819	0.65
711	0.67
711.181	0.8
711.362	0.75
711.542	0.65
711.723	0.61
711.904	0.77
712.085	0.77
712.265	0.7
712.446	0.54
712.627	0.63
712.807	0.75
712.988	0.66
713.168	0.54
713.349	0.66
713.53	0.55
713.71	0.57
713.891	0.61
714.071	0.66
714.252	0.61
714.432	0.55
714.613	0.52
714.793	0.66
714.974	0.73
715.154	0.7
715.334	0.68
715.515	0.7
715.695	0.52
715.876	0.57
716.056	0.59
716.236	0.54
716.417	0.58
716.597	0.54
716.777	0.85
716.957	0.61
717.138	0.61
717.318	0.59
717.498	0.47
717.678	0.59
717.859	0.63
718.039	0.52
718.219	0.57
718.399	0.68
718.579	0.57
718.759	0.57
718.939	0.58
719.12	0.63
719.3	0.61
719.48	0.45
719.66	0.43
719.84	0.7
720.02	0.56
720.2	0.44
720.38	0.49
720.56	0.72
720.74	0.47
720.92	0.55
721.1	0.66
721.279	0.57
721.459	0.58
721.639	0.44
721.819	0.54
721.999	0.51
722.179	0.55
722.359	0.38
722.538	0.56
722.718	0.55
722.898	0.44
723.078	0.45
723.257	0.48
723.437	0.61
723.617	0.52
723.797	0.51
723.976	0.57
724.156	0.66
724.336	0.64
724.515	0.69
724.695	0.34
724.874	0.55
725.054	0.6
725.234	0.43
725.413	0.5
725.593	0.52
725.772	0.42
725.952	0.45
726.131	0.51
726.311	0.58
726.49	0.46
726.67	0.38
726.849	0.49
727.028	0.58
727.208	0.55
727.387	0.48
727.567	0.45
727.746	0.54
727.925	0.44
728.105	0.37
728.284	0.51
728.463	0.45
728.643	0.61
728.822	0.41
729.001	0.43
729.18	0.54
729.359	0.6
729.539	0.51
729.718	0.47
729.897	0.67
730.076	0.4
730.255	0.41
730.434	0.5
730.614	0.57
730.793	0.63
730.972	0.44
731.151	0.45
731.33	0.52
731.509	0.57
731.688	0.51
731.867	0.51
732.046	0.32
732.225	0.73
732.404	0.57
732.583	0.4
732.762	0.49
732.941	0.62
733.12	0.6
733.298	0.42
733.477	0.54
733.656	0.46
733.835	0.34
734.014	0.63
734.193	0.54
734.371	0.54
734.55	0.59
734.729	0.36
734.908	0.49
735.086	0.53
735.265	0.54
735.444	0.33
735.623	0.32
735.801	0.37
735.98	0.47
736.159	0.4
736.337	0.55
736.516	0.5
736.694	0.53
736.873	0.45
737.052	0.8
737.23	0.63
737.409	0.5
737.587	0.65
737.766	0.41
737.944	0.52
738.123	0.52
738.301	0.61
738.479	0.57
738.658	0.51
738.836	0.29
739.015	0.52
739.193	0.62
739.371	0.29
739.55	0.48
739.728	0.43
739.906	0.64
740.085	0.71
740.263	0.43
740.441	0.19
740.62	0.88
740.798	0.64
740.976	0.43
741.154	0.35
741.332	0.77
741.511	0.47
741.689	0.51
741.867	0.55
742.045	0.6
742.223	0.54
742.401	0.3
742.579	0.35
742.757	0.52
742.935	0.29
743.114	0.42
743.292	0.37
743.47	0.56
743.648	0.37
743.826	0.45
744.004	0.49
744.181	0.64
744.359	0.38
744.537	0.53
744.715	0.35
744.893	0.53
745.071	0.41
745.249	0.39
745.427	0.36
745.605	0.58
745.782	0.43
745.96	0.5
746.138	0.54
746.316	0.61
746.493	0.44
746.671	0.37
746.849	0.45
747.027	0.6
747.204	0.33
747.382	0.55
747.56	0.3
747.737	0.29
747.915	0.37
748.093	0.58
748.27	0.42
748.448	0.49
748.625	0.29
748.803	0.42
748.98	0.4
749.158	0.59
749.335	0.6
749.513	0.34
749.69	0.44
749.868	0.41
750.045	0.53
750.223	0.31
750.4	0.23
750.578	0.62
750.755	0.42
750.932	0.23
751.11	0.55
751.287	0.24
751.464	0.61
751.642	0.23
751.819	0.5
751.996	0.4
752.173	0.35
752.351	0.28
752.528	0.4
752.705	0.4
752.882	0.35
753.06	0.45
753.237	0.45
753.414	0.55
753.591	0.58
753.768	0.38
753.945	0.45
754.122	0.31
754.299	0.54
754.476	0.3
754.654	0.43
754.831	0.51
755.008	0.41
755.185	0.41
755.362	0.29
755.539	0.57
755.716	0.37
755.892	0.37
756.069	0.37
756.246	0.44
756.423	0.4
756.6	0.58
756.777	0.35
756.954	0.47
757.131	0.39
757.307	0.35
757.484	0.21
757.661	0.39
757.838	0.51
758.015	0.25
758.191	0.39
758.368	0.6
758.545	0.59
758.721	0.49
758.898	0.3
759.075	0.49
759.251	0.48
759.428	0.45
759.605	0.23
759.781	0.32
759.958	0.4
760.134	0.51
760.311	0.27
760.488	0.48
760.664	0.58
760.841	0.34
761.017	0.21
761.194	0.52
761.37	0.52
761.547	0.41
761.723	0.25
761.899	0.49
762.076	0.36
762.252	0.31
762.429	0.34
762.605	0.46
762.781	0.37
762.958	0.59
763.134	0.27
763.31	0.38
763.486	0.59
763.663	0.15
763.839	0.41
764.015	0.16
764.191	0.29
764.368	0.3
764.544	0.33
764.72	0.39
764.896	0.41
765.072	0.35
765.248	0.32
765.425	0.35
765.601	0.39
765.777	0.41
765.953	0.08
766.129	0.25
766.305	0.29
766.481	0.51
766.657	0.44
766.833	0.53
767.009	0.2
767.185	0.36
767.361	0.23
767.537	0.31
767.713	0.67
767.889	0.33
768.065	0.27
768.24	0.29
768.416	0.56
768.592	0.29
768.768	0.45
768.944	0.4
769.12	0.33
769.295	0.36
769.471	0.45
769.647	0.26
769.823	0.57
769.998	0.18
770.174	0.24
770.35	0.75
770.525	0.63
770.701	0.46
770.877	0.38
771.052	0.25
771.228	0.56
771.403	0.3
771.579	0.42
771.755	0.72
771.93	0.36
772.106	0.26
772.281	0.1
772.457	0.43
772.632	0.51
772.808	0.1
772.983	0.39
773.159	0.12
773.334	0.6
773.509	0.46
773.685	0.26
773.86	0.85
774.036	0.65
774.211	0.39
774.386	0.29
774.562	0.4
774.737	0.5
774.912	0.37
775.087	0.58
775.263	0.33
775.438	0.51
775.613	0.15
775.788	0.37
775.964	0.63
776.139	0.83
776.314	0.21
776.489	0.42
776.664	0.24
776.839	0.34
777.014	0.45
777.19	0.49
777.365	0.73
777.54	0.82
777.715	0.25
777.89	0.45
778.065	0.33
778.24	0.43
778.415	0.56
778.59	0.19
778.765	0.41
778.94	0.63
779.115	0.39
779.289	0.65
779.464	0.45
779.639	0.28
779.814	0.31
779.989	0.27
780.164	0.49
780.339	0.51
780.513	0.33
780.688	0.28
780.863	0.46
781.038	0.66
781.212	0.14
781.387	0.28
781.562	0.93
781.737	0.35
781.911	0.7
782.086	0.22
782.261	0.55
782.435	0.75
782.61	0.5
782.784	0.4
782.959	0.85
783.134	0.38
783.308	0.28
783.483	0.25
783.657	0.79
783.832	0.67
784.006	0.16
784.181	0.6
784.355	0.61
784.53	0.34
784.704	0.28
784.878	0.85
785.053	0.42
785.227	0.6
785.402	0.87
785.576	0.28
785.75	0.56
785.925	0.57
786.099	0.48
786.273	0.54
786.448	0.61
786.622	0.65
786.796	0.43
786.97	0.5
787.145	1.09
787.319	0.22
787.493	0.45
787.667	0.06
787.841	0.28
788.015	0.75
788.19	0.24
788.364	0.42
788.538	0.72
788.712	0.53
788.886	0.44
789.06	0.69
789.234	0.71
789.408	0.11
789.582	0.48
789.756	0.5
789.93	0.5
790.104	0.45
790.278	0.53
790.452	0.26
790.626	0.51
790.8	0.51
790.973	0.63
791.147	0.77
791.321	0.77
791.495	0.68
791.669	0.58
791.843	0.49
792.016	0.4
792.19	0.88
792.364	0.33
792.538	0.98
792.711	0.62
792.885	0.28
793.059	0.05
793.233	-0.03
793.406	0.91
793.58	0.54
793.754	0.56
793.927	0.19
794.101	0.73
794.274	0.38
794.448	0.77
794.622	-0
794.795	1.05
794.969	0.4
795.142	0.76
795.316	0.53
795.489	0.22
795.663	0.83
795.836	0.59
796.009	0.27
796.183	0.66
796.356	0.61
796.53	0.61
796.703	0.31
796.876	1.56
797.05	0.37
797.223	0.27
797.396	0.47
797.57	0.45
797.743	1.12
797.916	0.29
798.09	0.49
798.263	0.89
798.436	0.82
798.609	0.2
798.782	0.79
798.956	0.75
799.129	0.31
799.302	0.38
799.475	0.28
799.648	0.45
799.821	0.59
799.994	0.47
800.167	0.11
800.34	0.61
800.514	0.47
800.687	0.58
800.86	0.12
801.033	0.69
801.206	0.5
801.379	0.37
801.551	1.03
801.724	0.75
801.897	1.13
802.07	0.58
802.243	-0.1
802.416	0.56
802.589	0.4
802.762	0.55
802.935	0.54
803.107	1.07
803.28	1.06
803.453	0.84
803.626	0.24
803.798	0.64
803.971	0.23
804.144	0.65
804.317	0.42
804.489	1.07
804.662	0.42
804.835	0.52
805.007	0.39
805.18	0.93
805.353	0.69
805.525	0.35
805.698	0.34
805.87	0.86
806.043	1.07
806.215	0.32
806.388	0.28
806.56	0.81
806.733	0.9
806.905	0.45
807.078	0.29
807.25	0.29
807.423	0.82
807.595	0.75
807.768	0.62
807.94	0.86
808.112	0.81
808.285	0.73
808.457	0.39
808.629	0.53
808.802	0.74
808.974	1.18
809.146	0.23
809.318	0.41
809.491	1.04
809.663	0.7
809.835	0.28
810.007	1.09
810.18	0.61
810.352	0.27
810.524	0.12
810.696	0.84
810.868	1.22
811.04	0.65
811.212	0.6
811.384	1.19
811.556	0.91
811.728	0.82
811.901	1.42
812.073	0.79
812.245	0.91
812.417	0.47
812.589	-0.2
812.76	0.92
812.932	1.05
813.104	1.24
813.276	0.86
813.448	1.32
813.62	0.4
813.792	0.63
813.964	0.41
814.136	0.78
814.307	0.54
814.479	0.15
814.651	0.34
814.823	1.53
814.995	0.74
815.166	1.05
815.338	0.64
815.51	0.19
815.681	1.69
815.853	0.58
816.025	0.46
816.196	1.39
816.368	1.1
816.54	-0.3
816.711	0.16
816.883	1.23
817.054	2.19
817.226	0.3
817.398	0.7
817.569	0.41
817.741	0.7
817.912	0.99
818.084	0.54
818.255	1.36
818.426	0.27
818.598	0.51
818.769	0.54
818.941	1.07
819.112	1.64
819.283	0.81
819.455	0.1
819.626	0.71
819.798	1.26
819.969	0.65
820.14	0.6
820.311	0.64
820.483	0.8
820.654	0.83
820.825	0.67
820.996	0.49
821.168	0.13
821.339	1.06
821.51	0.16
821.681	0.54
821.852	0.7
822.023	0.28
822.195	0.41
822.366	1.35
822.537	0.46
822.708	0.78
822.879	0.19
823.05	1.39
823.221	0.85
823.392	0.53
823.563	1.09
823.734	0.58
823.905	1.14
824.076	0.44
824.247	0.46
824.418	0.76
824.589	1.73
824.759	0.87
824.93	0.51
825.101	0.74
825.272	1
825.443	1.51
825.614	1.35
825.784	0.21
825.955	1.73
826.126	1.19
826.297	1.21
826.467	1.67
826.638	2.08
826.809	-0.1
826.98	1.14
827.15	1.38
827.321	1.32
827.492	1.33
827.662	0.54
827.833	2.11
828.003	1.71
828.174	-0.1
828.345	0.28
828.515	1.39
828.686	0.99
828.856	1.27
829.027	0.42
829.197	1.61
829.368	1.31
829.538	0.28
829.709	0.67
829.879	1.21
830.049	0.77
830.22	0.8
830.39	0.28
830.56	1.52
830.731	0.19
830.901	0.81
831.072	0.81
831.242	1.26
831.412	1.67
831.582	0.72
831.753	0.22
831.923	1.51
832.093	1.59
832.263	0.7
832.434	-0.02
832.604	1.17
832.774	1.62
832.944	0.8
833.114	0.56
833.284	1.45
833.454	1.04
833.624	0.7
833.795	0.61
833.965	1.56
834.135	1.68
834.305	-0.99
834.475	-0.1
834.645	0.96
834.815	0.77
834.985	0.5
835.155	0.27
835.325	1.32
835.494	1.15
835.664	0.6
835.834	-0.21
836.004	1.26
836.174	1.7
836.344	0.68
836.514	-0.14
836.684	0.85
836.853	1.3
837.023	1.18
837.193	0.36
837.363	1.54
837.532	1.31
837.702	1.15
837.872	0.39
838.041	1.59
838.211	2.32
838.381	0.32
838.55	1.05
838.72	3.1
838.89	2.53
839.059	0.59
839.229	0.14
839.398	3.22
839.568	1.78
839.738	0.71
839.907	2.44
840.077	1.42
840.246	1.12
840.416	0.32
840.585	0.23
840.755	2.25
840.924	2.77
841.093	0.56
841.263	1.45
841.432	1.51
841.602	0.97
841.771	0.87
841.94	0.61
842.11	3.24
842.279	2.82
842.448	0.15
842.617	1.36
842.787	2.57
842.956	0.61
843.125	1.51
843.294	1.18
843.464	2.76
843.633	1.36
843.802	0.25
843.971	0.56
844.14	1.98
844.309	2.06
844.479	-0.58
844.648	0.73
844.817	1.28
844.986	1.43
845.155	1.04
845.324	1.51
845.493	1.3
845.662	0.83
845.831	2.05
846	1.3
846.169	0.96
846.338	2.8
846.507	1.36
846.676	0.71
846.844	1.7
847.013	2.61
847.182	0.82
847.351	0.62
847.52	1.08
847.689	2.08
847.858	0.29
848.026	0.26
848.195	0.75
848.364	0.98
848.533	1.41
848.701	0.36
848.87	1.04
849.039	2.19
849.207	1.98
849.376	2.36
849.545	2.78
849.713	1.05
849.882	0.67
850.051	0.61
850.219	1.81
850.388	2.18
850.556	0.57
850.725	0.6
850.893	1.9
851.062	2.04
851.23	1.69
851.399	-0.6
851.567	1.29
851.736	1.05
851.904	0.05
852.073	1.93
852.241	2.19
852.41	1.65
852.578	1.02
852.746	0.69
852.915	2.96
853.083	1.38
853.251	-0.24
853.42	0.77
853.588	0.78
853.756	2.58
853.924	2.26
854.093	2.05
854.261	0.93
854.429	0
854.597	1.21
854.765	1.23
854.934	2.37
855.102	2.38
855.27	1.09
855.438	2.16
855.606	2.6
855.774	3.45
855.942	0.11
856.11	-1.03
856.278	1.74
856.446	2.88
856.614	1.29
856.782	-0.15
856.95	2.4
857.118	2.54
857.286	2.04
857.454	-0.29
857.622	2.49
857.79	2.68
857.958	0.76
858.126	0.73
858.294	-1.26
858.462	1.17
858.629	0.15
858.797	0.48
858.965	3.16
859.133	1.38
859.301	0.97
859.468	0.37
859.636	0.56
859.804	4.14
859.971	3.37
860.139	1.06
860.307	3.4
860.474	2.71
860.642	0.28
860.81	0.88
860.977	1.58
861.145	3.19
861.313	1.44
861.48	1.9
861.648	3.36
861.815	2.22
861.983	-1.07
862.15	0.87
862.318	2.54
862.485	2.39
862.653	0.3
862.82	0.01
862.988	3.45
863.155	3.35
863.322	-1.39
863.49	2.04
863.657	1.2
863.824	4.55
863.992	2.36
864.159	2.32
864.326	3.91
864.494	0.58
864.661	4.81
864.828	0.46
864.996	4.17
865.163	3.03
865.33	1.39
865.497	-0.64
865.664	1.74
865.832	-0.04
865.999	2.12
866.166	0.43
866.333	0.42
866.5	0.6
866.667	0.32
866.834	2.58
867.001	4.43
867.168	-0.95
867.335	1.68
867.502	-0.13
867.669	3.93
867.836	5.41
868.003	1.73
868.17	5.21
868.337	2.56
868.504	5.1
868.671	0.5
868.838	1.53
869.005	2.81
869.172	2.96
869.339	1.52
869.505	1.36
869.672	2.17
869.839	4.26
870.006	2.02
870.173	0.73
870.339	3.2
870.506	5.29
870.673	-0.73
870.84	1.67
871.006	2.63
871.173	1.55
871.34	2.75
871.506	2.04
871.673	1.74
871.839	-0.88
872.006	2.83
872.173	0.81
872.339	1.29
872.506	3.54
872.672	1.26
872.839	-0.27
873.005	2.13
873.172	5.05
873.338	3.74
873.505	2.6
873.671	5.6
873.838	2.54
874.004	-2.47
874.171	1.57
874.337	3.78
874.503	3.09
874.67	2.03
874.836	0.34
875.002	5.03
875.169	4.55
875.335	0.78
875.501	2.02
875.668	3.36
875.834	2.68
876	0.3
876.166	2.36
876.332	4.31
876.499	5.36
876.665	1.47
876.831	2.01
876.997	7.23
877.163	4.15
877.329	1.63
877.495	4.3
877.662	4.56
877.828	2.71
877.994	3.02
878.16	-0.15
878.326	0.79
878.492	3.52
878.658	2.07
878.824	2.58
878.99	3.64
879.156	3.59
879.322	3.88
879.487	1.44
879.653	3.01
879.819	3.54
879.985	0.97
880.151	2.15
880.317	3.51
880.483	3.01
880.648	2.33
880.814	-0.26
880.98	3.37
881.146	1.03
881.312	3.15
881.477	3.23
881.643	1.92
881.809	3.54
881.974	4.32
882.14	0.54
882.306	2.47
882.471	5.86
882.637	0.77
882.803	3.45
882.968	6.02
883.134	7.03
883.299	1.81
883.465	2.82
883.63	3.73
883.796	3.71
883.961	2.62
884.127	3.09
884.292	-3.62
884.458	1.9
884.623	1.9
