Data from Apollo_Calib_20240827__AbsoluteIrradiance__819__12-48-01-296.txt Node

Date: Wed Aug 28 12:48:01 BST 2024
User: biology
Spectrometer: FLMT08252
Trigger mode: 0
Integration Time (sec): 5.000000E-1
Scans to average: 5
Electric dark correction enabled: true
Nonlinearity correction enabled: false
Boxcar width: 0
XAxis mode: Wavelengths
Number of Pixels in Spectrum: 3648
>>>>>Begin Spectral Data<<<<<
179.588	-0
179.809	-0
180.03	-0
180.251	-0
180.473	-0
180.694	0
180.915	0
181.136	-0
181.357	0
181.578	-0
181.799	-0
182.02	-0
182.241	-0
182.462	-0
182.683	0
182.904	-0
183.125	-0
183.346	0
183.567	0
183.788	0
184.009	0
184.23	0
184.451	0
184.672	0
184.892	0
185.113	0
185.334	0
185.555	0
185.776	0
185.996	0
186.217	0
186.438	0
186.659	0
186.879	0
187.1	0
187.321	0
187.541	0
187.762	0
187.983	0
188.203	0
188.424	0
188.644	0
188.865	0
189.086	0
189.306	0
189.527	0
189.747	0
189.968	0
190.188	0
190.409	0
190.629	0
190.849	0
191.07	0
191.29	0
191.511	0
191.731	0
191.951	0
192.172	0
192.392	0
192.612	0
192.833	0
193.053	0
193.273	0
193.493	0
193.714	0
193.934	0
194.154	0
194.374	0
194.594	0
194.815	0
195.035	0
195.255	0
195.475	0
195.695	0
195.915	0
196.135	0
196.355	0
196.575	0
196.795	0
197.015	0
197.235	0
197.455	0
197.675	0
197.895	0
198.115	0
198.335	0
198.555	0
198.775	0
198.995	0
199.214	0
199.434	0
199.654	0
199.874	0
200.094	3.31
200.313	1.88
200.533	1.96
200.753	1.69
200.973	3.97
201.192	3.48
201.412	1.4
201.632	1.45
201.851	3.24
202.071	1.73
202.291	1.65
202.51	1.77
202.73	2.56
202.95	1.39
203.169	0.97
203.389	1.77
203.608	2.27
203.828	1.71
204.047	1.57
204.267	2.41
204.486	2.11
204.706	2.21
204.925	1.65
205.145	1.34
205.364	2.12
205.583	2.34
205.803	1.5
206.022	0.92
206.242	1.69
206.461	1.87
206.68	1.19
206.9	1.5
207.119	2.61
207.338	2.1
207.557	1.01
207.777	1.21
207.996	1.28
208.215	2.33
208.434	0.9
208.654	0.88
208.873	1.42
209.092	2.21
209.311	1.17
209.53	1.08
209.749	0.9
209.968	1.1
210.187	1.01
210.407	0.54
210.626	1.21
210.845	1.44
211.064	1.11
211.283	0.96
211.502	1.43
211.721	1.06
211.94	0.97
212.159	1.46
212.377	1.25
212.596	1.23
212.815	1.3
213.034	0.98
213.253	1.35
213.472	1.27
213.691	0.68
213.91	0.54
214.128	0.83
214.347	1.18
214.566	0.46
214.785	0.37
215.003	1.21
215.222	1.29
215.441	0.83
215.66	0.71
215.878	0.84
216.097	1.23
216.316	0.64
216.534	0.87
216.753	1.05
216.972	0.8
217.19	0.72
217.409	0.74
217.627	0.69
217.846	0.94
218.064	0.82
218.283	0.5
218.501	1.14
218.72	1.13
218.938	0.57
219.157	0.6
219.375	1.2
219.594	1.11
219.812	0.64
220.031	0.47
220.249	1.2
220.467	1.18
220.686	0.69
220.904	0.44
221.122	0.62
221.341	1.13
221.559	0.68
221.777	0.4
221.995	0.79
222.214	0.97
222.432	0.6
222.65	0.8
222.868	0.75
223.086	0.91
223.305	0.9
223.523	0.59
223.741	1.2
223.959	0.71
224.177	0.37
224.395	0.57
224.613	0.73
224.831	0.96
225.049	0.38
225.267	0.58
225.485	0.74
225.703	0.66
225.921	0.72
226.139	0.47
226.357	0.99
226.575	0.87
226.793	0.6
227.011	1.65
227.229	0.66
227.447	0.71
227.665	0.38
227.883	0.28
228.1	0.65
228.318	0.79
228.536	0.36
228.754	0.38
228.972	0.8
229.189	0.72
229.407	0.6
229.625	0.57
229.843	0.84
230.06	0.91
230.278	0.53
230.496	0.65
230.713	0.58
230.931	0.86
231.149	0.52
231.366	0.29
231.584	0.68
231.801	1.05
232.019	0.51
232.236	0.37
232.454	0.45
232.671	0.57
232.889	0.49
233.106	0.33
233.324	0.56
233.541	0.5
233.759	0.56
233.976	0.42
234.194	0.5
234.411	0.56
234.628	0.45
234.846	0.44
235.063	0.53
235.28	0.44
235.498	0.46
235.715	0.31
235.932	0.63
236.149	0.58
236.367	0.37
236.584	0.47
236.801	0.42
237.018	0.65
237.236	0.48
237.453	0.24
237.67	0.59
237.887	0.54
238.104	0.41
238.321	0.3
238.538	0.4
238.755	0.75
238.973	0.24
239.19	0.47
239.407	0.51
239.624	0.43
239.841	0.38
240.058	0.37
240.275	0.52
240.492	0.48
240.709	0.44
240.925	0.45
241.142	0.55
241.359	0.38
241.576	0.34
241.793	0.44
242.01	0.51
242.227	0.63
242.444	0.46
242.66	0.57
242.877	0.47
243.094	0.44
243.311	0.39
243.527	0.37
243.744	0.5
243.961	0.5
244.178	0.41
244.394	0.53
244.611	0.53
244.828	0.73
245.044	0.29
245.261	0.32
245.477	0.53
245.694	0.51
245.911	0.3
246.127	0.37
246.344	0.65
246.56	0.51
246.777	0.35
246.993	0.41
247.21	0.49
247.426	0.59
247.643	0.36
247.859	0.33
248.076	0.29
248.292	0.64
248.508	0.29
248.725	0.48
248.941	0.51
249.157	0.57
249.374	0.36
249.59	0.3
249.806	0.43
250.023	0.5
250.239	0.34
250.455	0.36
250.671	0.43
250.888	0.52
251.104	0.53
251.32	0.31
251.536	0.37
251.752	0.4
251.969	0.4
252.185	0.43
252.401	0.66
252.617	0.51
252.833	0.29
253.049	0.43
253.265	0.43
253.481	0.42
253.697	0.34
253.913	0.37
254.129	0.5
254.345	0.44
254.561	0.34
254.777	0.34
254.993	0.45
255.209	0.44
255.425	0.33
255.641	0.28
255.857	0.42
256.073	0.46
256.288	0.25
256.504	0.35
256.72	0.48
256.936	0.57
257.152	0.38
257.367	0.31
257.583	0.4
257.799	0.53
258.015	0.31
258.23	0.32
258.446	0.6
258.662	0.42
258.877	0.31
259.093	0.22
259.309	0.46
259.524	0.44
259.74	0.28
259.955	0.22
260.171	0.38
260.387	0.41
260.602	0.44
260.818	0.39
261.033	0.3
261.249	0.38
261.464	0.31
261.68	0.2
261.895	0.42
262.11	0.45
262.326	0.31
262.541	0.26
262.757	0.41
262.972	0.44
263.187	0.38
263.403	0.33
263.618	0.42
263.833	0.39
264.049	0.31
264.264	0.32
264.479	0.39
264.694	0.41
264.91	0.24
265.125	0.27
265.34	0.43
265.555	0.55
265.77	0.27
265.986	0.22
266.201	0.37
266.416	0.45
266.631	0.25
266.846	0.36
267.061	0.43
267.276	0.42
267.491	0.2
267.706	0.39
267.921	0.46
268.136	0.35
268.351	0.34
268.566	0.22
268.781	0.47
268.996	0.46
269.211	0.34
269.426	0.25
269.641	0.34
269.856	0.45
270.071	0.29
270.285	0.24
270.5	0.45
270.715	0.44
270.93	0.34
271.145	0.39
271.359	0.42
271.574	0.29
271.789	0.27
272.004	0.24
272.218	0.39
272.433	0.39
272.648	0.27
272.862	0.38
273.077	0.39
273.292	0.36
273.506	0.23
273.721	0.28
273.936	0.37
274.15	0.46
274.365	0.24
274.579	0.38
274.794	0.4
275.008	0.43
275.223	0.19
275.437	0.31
275.652	0.42
275.866	0.36
276.081	0.4
276.295	0.38
276.509	0.32
276.724	0.33
276.938	0.3
277.153	0.33
277.367	0.42
277.581	0.28
277.796	0.27
278.01	0.26
278.224	0.34
278.438	0.38
278.653	0.26
278.867	0.25
279.081	0.15
279.295	0.31
279.51	0.29
279.724	0.24
279.938	0.4
280.152	0.32
280.366	0.23
280.58	0.34
280.794	0.49
281.008	0.28
281.222	0.37
281.437	0.41
281.651	0.3
281.865	0.42
282.079	0.3
282.293	0.18
282.507	0.22
282.721	0.31
282.935	0.31
283.148	0.18
283.362	0.24
283.576	0.23
283.79	0.27
284.004	0.2
284.218	0.4
284.432	0.28
284.646	0.26
284.859	0.28
285.073	0.3
285.287	0.3
285.501	0.33
285.714	0.27
285.928	0.28
286.142	0.28
286.356	0.22
286.569	0.27
286.783	0.38
286.997	0.36
287.21	0.27
287.424	0.26
287.637	0.26
287.851	0.29
288.065	0.34
288.278	0.26
288.492	0.3
288.705	0.3
288.919	0.3
289.132	0.23
289.346	0.41
289.559	0.2
289.773	0.23
289.986	0.29
290.2	0.28
290.413	0.35
290.626	0.22
290.84	0.26
291.053	0.29
291.267	0.38
291.48	0.3
291.693	0.25
291.906	0.2
292.12	0.27
292.333	0.22
292.546	0.29
292.76	0.34
292.973	0.28
293.186	0.28
293.399	0.26
293.612	0.36
293.826	0.28
294.039	0.24
294.252	0.22
294.465	0.37
294.678	0.27
294.891	0.26
295.104	0.23
295.317	0.22
295.53	0.3
295.743	0.23
295.956	0.2
296.169	0.39
296.382	0.38
296.595	0.22
296.808	0.22
297.021	0.36
297.234	0.37
297.447	0.26
297.66	0.3
297.873	0.3
298.086	0.33
298.299	0.19
298.511	0.17
298.724	0.26
298.937	0.21
299.15	0.22
299.363	0.24
299.575	0.33
299.788	0.27
300.001	0.22
300.213	0.16
300.426	0.25
300.639	0.25
300.852	0.2
301.064	0.32
301.277	0.37
301.489	0.33
301.702	0.27
301.915	0.22
302.127	0.25
302.34	0.3
302.552	0.3
302.765	0.2
302.977	0.33
303.19	0.23
303.402	0.23
303.615	0.21
303.827	0.23
304.04	0.23
304.252	0.26
304.464	0.22
304.677	0.4
304.889	0.3
305.102	0.23
305.314	0.22
305.526	0.31
305.739	0.33
305.951	0.18
306.163	0.26
306.375	0.34
306.588	0.23
306.8	0.22
307.012	0.18
307.224	0.3
307.436	0.29
307.649	0.15
307.861	0.26
308.073	0.33
308.285	0.22
308.497	0.19
308.709	0.25
308.921	0.3
309.133	0.35
309.346	0.2
309.558	0.24
309.77	0.3
309.982	0.37
310.194	0.29
310.406	0.2
310.617	0.31
310.829	0.3
311.041	0.31
311.253	0.17
311.465	0.21
311.677	0.25
311.889	0.25
312.101	0.2
312.313	0.27
312.524	0.38
312.736	0.14
312.948	0.17
313.16	0.35
313.372	0.31
313.583	0.25
313.795	0.2
314.007	0.24
314.218	0.36
314.43	0.21
314.642	0.23
314.853	0.16
315.065	0.28
315.277	0.23
315.488	0.26
315.7	0.32
315.912	0.31
316.123	0.27
316.335	0.27
316.546	0.37
316.758	0.26
316.969	0.19
317.181	0.23
317.392	0.28
317.604	0.33
317.815	0.17
318.026	0.21
318.238	0.26
318.449	0.27
318.661	0.15
318.872	0.22
319.083	0.18
319.295	0.32
319.506	0.24
319.717	0.26
319.929	0.27
320.14	0.26
320.351	0.25
320.562	0.22
320.774	0.28
320.985	0.23
321.196	0.22
321.407	0.15
321.618	0.28
321.829	0.3
322.041	0.26
322.252	0.26
322.463	0.31
322.674	0.28
322.885	0.19
323.096	0.24
323.307	0.25
323.518	0.29
323.729	0.22
323.94	0.21
324.151	0.21
324.362	0.28
324.573	0.19
324.784	0.23
324.995	0.3
325.206	0.26
325.417	0.25
325.628	0.17
325.838	0.25
326.049	0.27
326.26	0.25
326.471	0.2
326.682	0.31
326.892	0.28
327.103	0.17
327.314	0.17
327.525	0.35
327.735	0.28
327.946	0.28
328.157	0.18
328.368	0.3
328.578	0.26
328.789	0.29
328.999	0.21
329.21	0.21
329.421	0.32
329.631	0.22
329.842	0.2
330.052	0.28
330.263	0.29
330.473	0.24
330.684	0.22
330.894	0.24
331.105	0.28
331.315	0.25
331.526	0.16
331.736	0.36
331.947	0.3
332.157	0.29
332.367	0.18
332.578	0.33
332.788	0.35
332.999	0.27
333.209	0.26
333.419	0.15
333.629	0.3
333.84	0.29
334.05	0.25
334.26	0.33
334.47	0.27
334.681	0.27
334.891	0.26
335.101	0.31
335.311	0.34
335.521	0.24
335.732	0.21
335.942	0.34
336.152	0.28
336.362	0.25
336.572	0.28
336.782	0.27
336.992	0.22
337.202	0.22
337.412	0.19
337.622	0.27
337.832	0.26
338.042	0.24
338.252	0.2
338.462	0.21
338.672	0.26
338.882	0.22
339.092	0.28
339.302	0.33
339.511	0.3
339.721	0.23
339.931	0.18
340.141	0.32
340.351	0.31
340.561	0.25
340.77	0.24
340.98	0.26
341.19	0.27
341.4	0.17
341.609	0.17
341.819	0.24
342.029	0.17
342.238	0.21
342.448	0.21
342.658	0.25
342.867	0.22
343.077	0.18
343.286	0.23
343.496	0.26
343.706	0.32
343.915	0.2
344.125	0.22
344.334	0.29
344.544	0.19
344.753	0.2
344.963	0.22
345.172	0.24
345.381	0.24
345.591	0.18
345.8	0.24
346.01	0.31
346.219	0.3
346.428	0.27
346.638	0.25
346.847	0.23
347.056	0.34
347.266	0.22
347.475	0.22
347.684	0.28
347.893	0.31
348.103	0.28
348.312	0.21
348.521	0.27
348.73	0.27
348.94	0.25
349.149	0.22
349.358	0.25
349.567	0.25
349.776	0.21
349.985	0.21
350.194	0.34
350.403	0.36
350.612	0.14
350.821	0.23
351.03	0.26
351.239	0.2
351.448	0.26
351.657	0.24
351.866	0.31
352.075	0.25
352.284	0.18
352.493	0.19
352.702	0.31
352.911	0.25
353.12	0.29
353.329	0.22
353.538	0.26
353.746	0.24
353.955	0.18
354.164	0.26
354.373	0.24
354.582	0.32
354.79	0.22
354.999	0.26
355.208	0.23
355.416	0.35
355.625	0.18
355.834	0.2
356.042	0.26
356.251	0.2
356.46	0.15
356.668	0.23
356.877	0.36
357.085	0.3
357.294	0.15
357.503	0.27
357.711	0.27
357.92	0.39
358.128	0.24
358.337	0.24
358.545	0.26
358.754	0.18
358.962	0.25
359.17	0.2
359.379	0.26
359.587	0.26
359.796	0.23
360.004	0.32
360.212	0.32
360.421	0.33
360.629	0.18
360.837	0.23
361.046	0.31
361.254	0.38
361.462	0.22
361.67	0.18
361.879	0.28
362.087	0.36
362.295	0.23
362.503	0.21
362.711	0.18
362.92	0.22
363.128	0.21
363.336	0.22
363.544	0.17
363.752	0.22
363.96	0.23
364.168	0.21
364.376	0.25
364.584	0.27
364.792	0.3
365	0.25
365.208	0.24
365.416	0.3
365.624	0.29
365.832	0.22
366.04	0.32
366.248	0.29
366.456	0.24
366.664	0.23
366.872	0.25
367.079	0.25
367.287	0.23
367.495	0.26
367.703	0.25
367.911	0.25
368.118	0.22
368.326	0.24
368.534	0.22
368.742	0.34
368.949	0.2
369.157	0.2
369.365	0.28
369.572	0.25
369.78	0.18
369.988	0.29
370.195	0.3
370.403	0.33
370.61	0.25
370.818	0.27
371.026	0.32
371.233	0.23
371.441	0.24
371.648	0.22
371.856	0.25
372.063	0.27
372.271	0.24
372.478	0.21
372.685	0.19
372.893	0.31
373.1	0.19
373.308	0.2
373.515	0.37
373.722	0.32
373.93	0.2
374.137	0.29
374.344	0.33
374.552	0.33
374.759	0.29
374.966	0.23
375.173	0.21
375.381	0.33
375.588	0.24
375.795	0.16
376.002	0.22
376.209	0.2
376.417	0.27
376.624	0.32
376.831	0.25
377.038	0.26
377.245	0.15
377.452	0.24
377.659	0.26
377.866	0.23
378.073	0.27
378.28	0.23
378.487	0.34
378.694	0.3
378.901	0.28
379.108	0.22
379.315	0.34
379.522	0.38
379.729	0.26
379.936	0.21
380.143	0.27
380.35	0.33
380.557	0.26
380.763	0.29
380.97	0.31
381.177	0.28
381.384	0.27
381.591	0.26
381.797	0.29
382.004	0.29
382.211	0.3
382.418	0.24
382.624	0.24
382.831	0.35
383.038	0.24
383.244	0.3
383.451	0.27
383.658	0.31
383.864	0.26
384.071	0.21
384.277	0.37
384.484	0.25
384.69	0.32
384.897	0.27
385.103	0.23
385.31	0.25
385.516	0.22
385.723	0.23
385.929	0.3
386.136	0.28
386.342	0.3
386.549	0.24
386.755	0.32
386.961	0.31
387.168	0.26
387.374	0.27
387.58	0.3
387.787	0.29
387.993	0.31
388.199	0.25
388.406	0.24
388.612	0.3
388.818	0.25
389.024	0.25
389.231	0.23
389.437	0.36
389.643	0.31
389.849	0.26
390.055	0.32
390.261	0.29
390.467	0.27
390.674	0.26
390.88	0.29
391.086	0.35
391.292	0.2
391.498	0.28
391.704	0.32
391.91	0.25
392.116	0.27
392.322	0.15
392.528	0.33
392.734	0.28
392.94	0.3
393.146	0.25
393.352	0.31
393.557	0.32
393.763	0.29
393.969	0.3
394.175	0.29
394.381	0.33
394.587	0.22
394.792	0.33
394.998	0.38
395.204	0.37
395.41	0.31
395.615	0.31
395.821	0.31
396.027	0.37
396.233	0.26
396.438	0.38
396.644	0.38
396.85	0.34
397.055	0.34
397.261	0.36
397.466	0.38
397.672	0.31
397.878	0.35
398.083	0.38
398.289	0.34
398.494	0.38
398.7	0.35
398.905	0.22
399.111	0.44
399.316	0.26
399.522	0.33
399.727	0.29
399.932	0.33
400.138	0.33
400.343	0.37
400.549	0.32
400.754	0.37
400.959	0.37
401.165	0.34
401.37	0.38
401.575	0.38
401.78	0.38
401.986	0.34
402.191	0.29
402.396	0.35
402.601	0.43
402.807	0.37
403.012	0.38
403.217	0.4
403.422	0.39
403.627	0.38
403.832	0.38
404.037	0.46
404.243	0.43
404.448	0.38
404.653	0.37
404.858	0.38
405.063	0.45
405.268	0.43
405.473	0.34
405.678	0.41
405.883	0.64
406.088	0.52
406.293	0.4
406.498	0.44
406.703	0.49
406.907	0.43
407.112	0.42
407.317	0.54
407.522	0.62
407.727	0.46
407.932	0.54
408.136	0.65
408.341	0.53
408.546	0.59
408.751	0.6
408.956	0.57
409.16	0.68
409.365	0.56
409.57	0.61
409.774	0.6
409.979	0.62
410.184	0.59
410.388	0.59
410.593	0.75
410.798	0.69
411.002	0.73
411.207	0.75
411.411	0.8
411.616	0.75
411.82	0.78
412.025	0.82
412.229	0.82
412.434	0.95
412.638	0.86
412.843	0.89
413.047	0.91
413.252	0.89
413.456	0.97
413.66	0.97
413.865	1.03
414.069	1.09
414.273	1.1
414.478	1.07
414.682	1.11
414.886	1.15
415.091	1.17
415.295	1.19
415.499	1.36
415.703	1.29
415.908	1.38
416.112	1.34
416.316	1.47
416.52	1.44
416.724	1.5
416.929	1.5
417.133	1.79
417.337	1.63
417.541	1.67
417.745	1.78
417.949	1.84
418.153	1.92
418.357	1.91
418.561	2.18
418.765	2.1
418.969	2.27
419.173	2.29
419.377	2.28
419.581	2.59
419.785	2.46
419.989	2.51
420.193	2.66
420.397	2.76
420.601	2.86
420.804	2.91
421.008	2.95
421.212	3.08
421.416	3.05
421.62	3.15
421.823	3.16
422.027	3.32
422.231	3.32
422.435	3.24
422.638	3.4
422.842	3.46
423.046	3.61
423.249	3.73
423.453	3.79
423.657	3.86
423.86	3.99
424.064	4.09
424.268	4.3
424.471	4.26
424.675	4.46
424.878	4.44
425.082	4.58
425.285	5.01
425.489	4.78
425.692	5.06
425.896	4.94
426.099	5.28
426.303	5.32
426.506	5.41
426.71	5.64
426.913	5.87
427.116	6.02
427.32	6
427.523	6.16
427.726	6.45
427.93	6.52
428.133	6.83
428.336	7.01
428.54	7.08
428.743	7.31
428.946	7.52
429.149	7.6
429.353	7.55
429.556	7.75
429.759	7.8
429.962	7.82
430.165	8.03
430.368	7.6
430.571	7.76
430.775	7.85
430.978	7.76
431.181	7.86
431.384	8
431.587	8.11
431.79	8.43
431.993	8.22
432.196	8.7
432.399	9.03
432.602	9.14
432.805	9.18
433.008	9.73
433.211	9.57
433.414	9.95
433.616	10.15
433.819	9.84
434.022	10.09
434.225	10.29
434.428	10.4
434.631	10.65
434.833	10.57
435.036	10.77
435.239	10.91
435.442	10.98
435.645	11.17
435.847	11.29
436.05	11.52
436.253	11.81
436.455	11.77
436.658	11.73
436.861	12.06
437.063	12.12
437.266	12.06
437.468	12.57
437.671	12.68
437.874	12.76
438.076	12.58
438.279	13.24
438.481	13.19
438.684	13.92
438.886	13.49
439.089	13.8
439.291	13.84
439.494	14.19
439.696	14.29
439.899	14.86
440.101	15.28
440.303	15.39
440.506	16.12
440.708	15.82
440.91	16.12
441.113	16.29
441.315	16.6
441.517	16.25
441.72	16.79
441.922	16.53
442.124	16.27
442.326	16.83
442.529	17.08
442.731	17.01
442.933	17.44
443.135	17.01
443.337	17.11
443.539	17.64
443.742	17.2
443.944	17.94
444.146	17.76
444.348	17.75
444.55	17.49
444.752	17.77
444.954	17.82
445.156	17.6
445.358	18.01
445.56	18.32
445.762	18.14
445.964	18.65
446.166	18.25
446.368	18.29
446.57	18.34
446.772	17.9
446.974	17.6
447.175	17.98
447.377	17.77
447.579	18.22
447.781	17.83
447.983	17.63
448.184	17.21
448.386	17.61
448.588	17.05
448.79	17.03
448.991	17.39
449.193	17.34
449.395	16.84
449.597	16.38
449.798	16.39
450	16.01
450.202	15.99
450.403	15.8
450.605	15.75
450.806	15.39
451.008	15.27
451.21	15.04
451.411	14.63
451.613	13.92
451.814	14.24
452.016	14.15
452.217	13.51
452.419	13.52
452.62	13.09
452.821	12.93
453.023	12.87
453.224	12.52
453.426	11.94
453.627	11.41
453.828	11.4
454.03	11.52
454.231	11.45
454.432	11.2
454.634	11.03
454.835	10.61
455.036	10.65
455.238	10.38
455.439	10.12
455.64	9.79
455.841	9.56
456.042	9.65
456.244	9.32
456.445	9.11
456.646	8.9
456.847	8.82
457.048	8.68
457.249	8.56
457.45	8.44
457.651	7.89
457.852	7.84
458.054	7.44
458.255	7.39
458.456	7.42
458.657	7.29
458.858	6.92
459.058	6.77
459.259	6.83
459.46	6.57
459.661	6.57
459.862	6.59
460.063	6.54
460.264	6.32
460.465	6.1
460.666	6.13
460.866	5.89
461.067	5.56
461.268	5.68
461.469	5.62
461.67	5.53
461.87	5.32
462.071	5.3
462.272	5.21
462.473	5.22
462.673	5.47
462.874	5.26
463.075	5.24
463.275	5.2
463.476	5.22
463.676	5.14
463.877	5.06
464.078	4.97
464.278	5.07
464.479	4.97
464.679	4.92
464.88	4.83
465.08	4.75
465.281	4.57
465.481	4.49
465.682	4.24
465.882	4.25
466.083	4.21
466.283	4.12
466.483	4.01
466.684	3.81
466.884	3.73
467.085	3.79
467.285	3.87
467.485	3.72
467.686	3.62
467.886	3.57
468.086	3.52
468.286	3.45
468.487	3.5
468.687	3.39
468.887	3.28
469.087	3.43
469.287	3.36
469.488	3.17
469.688	3.3
469.888	3.26
470.088	3.2
470.288	3.12
470.488	3.11
470.688	2.92
470.888	2.96
471.088	2.77
471.288	2.92
471.488	2.87
471.688	2.77
471.888	2.73
472.088	2.9
472.288	2.79
472.488	2.68
472.688	2.62
472.888	2.66
473.088	2.63
473.288	2.55
473.488	2.56
473.688	2.71
473.887	2.51
474.087	2.52
474.287	2.49
474.487	2.44
474.687	2.48
474.886	2.42
475.086	2.38
475.286	2.45
475.486	2.33
475.685	2.24
475.885	2.27
476.085	2.3
476.284	2.3
476.484	2.29
476.684	2.28
476.883	2.35
477.083	2.25
477.282	2.16
477.482	2.24
477.681	2.19
477.881	2.1
478.08	2.12
478.28	2.05
478.479	2.12
478.679	2.2
478.878	2.07
479.078	2.07
479.277	2.12
479.477	2.08
479.676	2.07
479.875	2.01
480.075	2
480.274	2.05
480.473	2.1
480.673	2.05
480.872	2.15
481.071	2.11
481.271	2.05
481.47	2.02
481.669	2.01
481.868	1.99
482.067	2.05
482.267	1.93
482.466	2
482.665	1.92
482.864	1.99
483.063	1.97
483.262	2.08
483.461	2.06
483.661	2.11
483.86	2.04
484.059	2.07
484.258	2.07
484.457	2.06
484.656	2.04
484.855	2.12
485.054	1.93
485.253	2
485.452	1.97
485.651	2.07
485.849	2.08
486.048	1.98
486.247	2.01
486.446	2.1
486.645	2.05
486.844	2.12
487.043	2.1
487.241	2.12
487.44	2.08
487.639	2.23
487.838	2.18
488.037	2.15
488.235	2.24
488.434	2.18
488.633	2.07
488.831	2.24
489.03	2.27
489.229	2.24
489.427	2.25
489.626	2.3
489.825	2.31
490.023	2.34
490.222	2.27
490.42	2.33
490.619	2.38
490.817	2.38
491.016	2.36
491.214	2.42
491.413	2.43
491.611	2.38
491.81	2.4
492.008	2.48
492.207	2.54
492.405	2.55
492.604	2.47
492.802	2.56
493	2.58
493.199	2.6
493.397	2.66
493.595	2.7
493.794	2.67
493.992	2.81
494.19	2.72
494.388	2.79
494.587	2.75
494.785	2.79
494.983	2.7
495.181	2.86
495.379	2.87
495.578	2.94
495.776	3
495.974	2.93
496.172	2.96
496.37	3.11
496.568	3.09
496.766	3.09
496.964	3.15
497.162	3.14
497.36	3.21
497.558	3.23
497.756	3.32
497.954	3.31
498.152	3.35
498.35	3.47
498.548	3.36
498.746	3.38
498.944	3.37
499.142	3.42
499.34	3.53
499.538	3.62
499.736	3.48
499.933	3.62
500.131	3.63
500.329	3.75
500.527	3.67
500.725	3.84
500.922	3.85
501.12	3.85
501.318	3.95
501.516	3.87
501.713	4
501.911	3.91
502.109	3.89
502.306	4.09
502.504	3.97
502.701	4.05
502.899	4.14
503.097	4.35
503.294	4.21
503.492	4.31
503.689	4.33
503.887	4.33
504.084	4.43
504.282	4.34
504.479	4.37
504.677	4.61
504.874	4.53
505.072	4.44
505.269	4.64
505.466	4.63
505.664	4.65
505.861	4.56
506.059	4.73
506.256	4.77
506.453	4.77
506.651	4.9
506.848	4.93
507.045	4.93
507.242	4.97
507.44	4.99
507.637	5.06
507.834	5.04
508.031	5.13
508.229	5.07
508.426	5.08
508.623	5.26
508.82	5.2
509.017	5.18
509.214	5.25
509.411	5.33
509.608	5.27
509.805	5.41
510.003	5.42
510.2	5.45
510.397	5.62
510.594	5.54
510.791	5.55
510.988	5.6
511.184	5.59
511.381	5.44
511.578	5.69
511.775	5.71
511.972	5.67
512.169	5.76
512.366	5.81
512.563	5.9
512.76	5.94
512.956	5.9
513.153	5.92
513.35	5.82
513.547	5.83
513.744	5.98
513.94	5.99
514.137	6.07
514.334	6.12
514.53	6.11
514.727	6.28
514.924	6.21
515.12	6.19
515.317	6.2
515.514	6.17
515.71	6.15
515.907	6.39
516.103	6.36
516.3	6.3
516.497	6.42
516.693	6.48
516.89	6.42
517.086	6.47
517.283	6.52
517.479	6.38
517.676	6.54
517.872	6.59
518.068	6.58
518.265	6.59
518.461	6.52
518.658	6.59
518.854	6.67
519.05	6.75
519.247	6.76
519.443	6.69
519.639	6.85
519.836	6.75
520.032	6.67
520.228	6.81
520.424	6.81
520.621	6.9
520.817	6.94
521.013	6.86
521.209	7.01
521.405	7.03
521.601	6.99
521.798	6.91
521.994	6.99
522.19	6.94
522.386	6.93
522.582	7.07
522.778	7.24
522.974	7.01
523.17	7.06
523.366	7
523.562	7.15
523.758	7.15
523.954	6.99
524.15	7.21
524.346	7.22
524.542	7.21
524.738	7.18
524.934	7.34
525.129	7.24
525.325	7.2
525.521	7.2
525.717	7.41
525.913	7.27
526.109	7.31
526.304	7.41
526.5	7.42
526.696	7.44
526.892	7.33
527.087	7.54
527.283	7.44
527.479	7.45
527.674	7.28
527.87	7.39
528.066	7.42
528.261	7.49
528.457	7.36
528.653	7.57
528.848	7.52
529.044	7.6
529.239	7.52
529.435	7.46
529.63	7.46
529.826	7.49
530.021	7.54
530.217	7.59
530.412	7.54
530.608	7.58
530.803	7.58
530.999	7.43
531.194	7.55
531.389	7.65
531.585	7.58
531.78	7.73
531.975	7.67
532.171	7.74
532.366	7.69
532.561	7.73
532.757	7.63
532.952	7.8
533.147	7.63
533.342	7.73
533.538	7.68
533.733	7.87
533.928	7.59
534.123	7.69
534.318	7.79
534.513	7.68
534.709	7.81
534.904	7.75
535.099	7.82
535.294	7.82
535.489	7.78
535.684	7.74
535.879	7.82
536.074	7.88
536.269	7.82
536.464	7.87
536.659	7.77
536.854	7.87
537.049	7.86
537.244	7.85
537.439	7.83
537.634	7.86
537.828	7.96
538.023	7.9
538.218	7.87
538.413	7.82
538.608	7.84
538.803	7.87
538.997	7.83
539.192	7.87
539.387	7.89
539.582	7.84
539.776	7.78
539.971	7.95
540.166	7.93
540.36	7.89
540.555	8.03
540.75	8.01
540.944	7.89
541.139	8.03
541.334	7.95
541.528	7.94
541.723	8.02
541.917	8.05
542.112	7.92
542.306	7.82
542.501	7.84
542.695	7.92
542.89	7.87
543.084	7.95
543.279	7.96
543.473	7.99
543.668	8.04
543.862	7.84
544.056	7.88
544.251	8.06
544.445	8.07
544.64	8.18
544.834	7.83
545.028	7.61
545.222	7.99
545.417	8.17
545.611	8.02
545.805	7.98
546	7.82
546.194	8.02
546.388	8.04
546.582	7.9
546.776	7.97
546.97	7.97
547.165	8.03
547.359	7.96
547.553	7.96
547.747	7.97
547.941	8.23
548.135	8
548.329	8.02
548.523	8
548.717	7.96
548.911	7.98
549.105	7.94
549.299	8.01
549.493	8.04
549.687	7.95
549.881	8.09
550.075	8.07
550.269	7.95
550.463	8.11
550.657	8.04
550.85	8
551.044	8.02
551.238	8.07
551.432	8.03
551.626	8.07
551.82	8.09
552.013	7.96
552.207	8.15
552.401	8.14
552.594	8.03
552.788	7.95
552.982	8.01
553.176	7.95
553.369	8.16
553.563	8.09
553.756	8.04
553.95	8.11
554.144	8.1
554.337	8.13
554.531	8
554.724	8.08
554.918	8.18
555.111	8.05
555.305	8.12
555.498	8.06
555.692	8.14
555.885	8.11
556.079	8.07
556.272	8.06
556.466	8.05
556.659	8.03
556.852	8.12
557.046	8.03
557.239	7.92
557.432	8.05
557.626	8.09
557.819	8.15
558.012	8.02
558.206	8.19
558.399	8.11
558.592	8.03
558.785	8.02
558.979	8.04
559.172	8.07
559.365	8.03
559.558	8.02
559.751	8.01
559.944	8.15
560.138	8.08
560.331	8.07
560.524	8.1
560.717	8.03
560.91	8.08
561.103	8.1
561.296	7.95
561.489	8.12
561.682	8.09
561.875	8.09
562.068	8.09
562.261	7.96
562.454	8.24
562.647	8.01
562.84	8.09
563.032	8.03
563.225	7.95
563.418	8
563.611	8.08
563.804	8.09
563.997	7.94
564.19	7.78
564.382	8.19
564.575	8.07
564.768	8.01
564.961	8.08
565.153	7.98
565.346	7.96
565.539	8.11
565.731	8.05
565.924	8.09
566.117	8.16
566.309	8.09
566.502	8
566.695	8.02
566.887	8.09
567.08	7.99
567.272	8.05
567.465	7.96
567.657	8.08
567.85	7.92
568.042	7.99
568.235	8.07
568.427	7.91
568.62	8.05
568.812	7.98
569.005	8.08
569.197	7.94
569.389	8.03
569.582	8.02
569.774	7.99
569.966	7.89
570.159	7.95
570.351	7.94
570.543	7.94
570.736	7.98
570.928	7.79
571.12	8
571.312	7.88
571.505	7.73
571.697	8
571.889	7.99
572.081	7.96
572.273	7.83
572.465	7.92
572.658	8.03
572.85	8
573.042	7.93
573.234	7.84
573.426	7.95
573.618	7.85
573.81	8.01
574.002	7.92
574.194	7.98
574.386	7.88
574.578	7.73
574.77	7.82
574.962	7.91
575.154	7.76
575.346	7.76
575.538	7.81
575.729	7.85
575.921	7.85
576.113	7.97
576.305	7.82
576.497	7.99
576.689	7.75
576.88	7.71
577.072	7.89
577.264	7.82
577.456	7.78
577.647	7.74
577.839	7.99
578.031	7.82
578.223	7.75
578.414	7.64
578.606	7.81
578.798	7.83
578.989	7.79
579.181	7.84
579.372	7.71
579.564	7.8
579.755	7.71
579.947	7.66
580.139	7.79
580.33	7.57
580.522	7.77
580.713	7.62
580.905	7.74
581.096	7.82
581.287	7.68
581.479	7.64
581.67	7.77
581.862	7.64
582.053	7.72
582.244	7.52
582.436	7.72
582.627	7.63
582.818	7.57
583.01	7.57
583.201	7.66
583.392	7.54
583.583	7.59
583.775	7.44
583.966	7.57
584.157	7.55
584.348	7.65
584.54	7.49
584.731	7.59
584.922	7.5
585.113	7.39
585.304	7.56
585.495	7.47
585.686	7.6
585.877	7.49
586.068	7.6
586.259	7.55
586.45	7.42
586.641	7.41
586.832	7.51
587.023	7.43
587.214	7.37
587.405	7.46
587.596	7.36
587.787	7.34
587.978	7.39
588.169	7.33
588.36	7.31
588.551	7.33
588.742	7.43
588.932	7.37
589.123	7.18
589.314	7.42
589.505	7.29
589.696	7.27
589.886	7.28
590.077	7.27
590.268	7.17
590.458	7.17
590.649	7.03
590.84	7.26
591.03	7.26
591.221	7.27
591.412	7.07
591.602	7.34
591.793	7.22
591.984	7.26
592.174	7.16
592.365	7.3
592.555	7.07
592.746	7.04
592.936	7.13
593.127	7.15
593.317	7.17
593.508	7.12
593.698	7.04
593.889	7.06
594.079	7.05
594.269	7.01
594.46	6.93
594.65	7.1
594.84	7.02
595.031	6.92
595.221	6.9
595.411	6.95
595.602	6.99
595.792	6.92
595.982	6.8
596.172	7.02
596.363	6.81
596.553	6.9
596.743	6.88
596.933	6.82
597.123	6.81
597.314	6.7
597.504	6.7
597.694	6.93
597.884	6.76
598.074	6.86
598.264	6.74
598.454	6.72
598.644	6.71
598.834	6.72
599.024	6.64
599.214	6.68
599.404	6.74
599.594	6.69
599.784	6.6
599.974	6.7
600.164	6.58
600.354	6.57
600.544	6.45
600.734	6.56
600.924	6.58
601.114	6.46
601.303	6.5
601.493	6.47
601.683	6.56
601.873	6.45
602.063	6.41
602.252	6.47
602.442	6.35
602.632	6.39
602.821	6.35
603.011	6.43
603.201	6.4
603.39	6.32
603.58	6.24
603.77	6.39
603.959	6.42
604.149	6.24
604.339	6.32
604.528	6.38
604.718	6.3
604.907	6.31
605.097	6.24
605.286	6.24
605.476	6.19
605.665	6.22
605.855	6.09
606.044	6.24
606.234	6.24
606.423	6.07
606.612	6.16
606.802	6.07
606.991	6.15
607.181	6.1
607.37	6.07
607.559	5.85
607.749	6.06
607.938	5.93
608.127	6.02
608.316	6.01
608.506	5.96
608.695	5.98
608.884	5.95
609.073	5.99
609.263	6.04
609.452	5.96
609.641	5.77
609.83	5.78
610.019	5.92
610.208	5.83
610.397	5.81
610.586	5.8
610.775	5.75
610.965	5.76
611.154	5.69
611.343	5.76
611.532	5.67
611.721	5.77
611.91	5.65
612.099	5.64
612.287	5.58
612.476	5.51
612.665	5.65
612.854	5.57
613.043	5.61
613.232	5.62
613.421	5.52
613.61	5.55
613.798	5.59
613.987	5.51
614.176	5.48
614.365	5.53
614.554	5.47
614.742	5.5
614.931	5.27
615.12	5.49
615.309	5.44
615.497	5.33
615.686	5.27
615.875	5.32
616.063	5.31
616.252	5.27
616.44	5.33
616.629	5.25
616.818	5.26
617.006	5.25
617.195	5.17
617.383	5.18
617.572	5.09
617.76	5.17
617.949	5.15
618.137	5.22
618.326	5.26
618.514	4.99
618.703	4.96
618.891	5.17
619.079	4.99
619.268	5.05
619.456	4.95
619.644	5.09
619.833	4.97
620.021	5.02
620.209	4.89
620.398	5.01
620.586	4.89
620.774	4.93
620.962	4.84
621.151	5
621.339	4.88
621.527	4.74
621.715	4.8
621.903	4.85
622.092	4.7
622.28	4.86
622.468	4.64
622.656	4.76
622.844	4.72
623.032	4.71
623.22	4.55
623.408	4.75
623.596	4.63
623.784	4.75
623.972	4.64
624.16	4.68
624.348	4.74
624.536	4.65
624.724	4.55
624.912	4.6
625.1	4.55
625.288	4.58
625.476	4.44
625.664	4.6
625.851	4.47
626.039	4.53
626.227	4.47
626.415	4.5
626.603	4.35
626.79	4.38
626.978	4.43
627.166	4.48
627.354	4.34
627.541	4.36
627.729	4.24
627.917	4.41
628.104	4.4
628.292	4.25
628.48	4.31
628.667	4.23
628.855	4.31
629.042	4.3
629.23	4.2
629.418	4.23
629.605	4.2
629.793	4.12
629.98	4.13
630.168	4.17
630.355	4.11
630.543	4.14
630.73	4.03
630.917	4.03
631.105	4.2
631.292	4.07
631.48	4.01
631.667	4.14
631.854	3.99
632.042	4.01
632.229	3.95
632.416	3.99
632.604	3.95
632.791	3.84
632.978	4
633.165	3.92
633.353	4.04
633.54	3.96
633.727	3.73
633.914	3.77
634.101	3.76
634.289	3.87
634.476	3.79
634.663	3.76
634.85	3.73
635.037	3.75
635.224	3.64
635.411	3.84
635.598	3.68
635.785	3.64
635.972	3.63
636.159	3.76
636.346	3.63
636.533	3.6
636.72	3.61
636.907	3.62
637.094	3.61
637.281	3.53
637.468	3.57
637.655	3.53
637.842	3.56
638.029	3.52
638.215	3.5
638.402	3.48
638.589	3.43
638.776	3.43
638.963	3.4
639.149	3.52
639.336	3.5
639.523	3.38
639.709	3.43
639.896	3.36
640.083	3.38
640.27	3.41
640.456	3.31
640.643	3.32
640.829	3.25
641.016	3.26
641.203	3.24
641.389	3.24
641.576	3.26
641.762	3.19
641.949	3.18
642.135	3.21
642.322	3.17
642.508	3.11
642.695	3.2
642.881	3.19
643.068	3.12
643.254	3.16
643.441	3.18
643.627	3.18
643.813	3.06
644	3.14
644.186	2.98
644.372	3.13
644.559	3.02
644.745	3.02
644.931	2.95
645.118	3.03
645.304	3
645.49	2.97
645.676	2.89
645.862	2.97
646.049	3.04
646.235	2.91
646.421	3.02
646.607	2.97
646.793	2.89
646.979	2.8
647.165	2.87
647.352	2.86
647.538	2.94
647.724	2.83
647.91	2.79
648.096	2.83
648.282	2.82
648.468	2.79
648.654	2.76
648.84	2.78
649.026	2.76
649.212	2.68
649.397	2.67
649.583	2.71
649.769	2.75
649.955	2.73
650.141	2.72
650.327	2.72
650.513	2.6
650.698	2.69
650.884	2.49
651.07	2.62
651.256	2.6
651.442	2.59
651.627	2.52
651.813	2.57
651.999	2.57
652.184	2.55
652.37	2.5
652.556	2.5
652.741	2.56
652.927	2.4
653.113	2.46
653.298	2.48
653.484	2.45
653.669	2.43
653.855	2.44
654.04	2.52
654.226	2.44
654.412	2.4
654.597	2.31
654.782	2.44
654.968	2.44
655.153	2.36
655.339	2.34
655.524	2.31
655.71	2.41
655.895	2.38
656.08	2.34
656.266	2.41
656.451	2.3
656.636	2.28
656.822	2.28
657.007	2.26
657.192	2.27
657.378	2.22
657.563	2.27
657.748	2.28
657.933	2.25
658.118	2.14
658.304	2.17
658.489	2.25
658.674	2.2
658.859	2.09
659.044	2.15
659.229	2.18
659.414	2.16
659.599	2.09
659.785	2.06
659.97	2.09
660.155	2.13
660.34	2.13
660.525	2.09
660.71	2.06
660.895	2.14
661.08	2.04
661.264	1.96
661.449	2.22
661.634	2.03
661.819	2.07
662.004	1.97
662.189	1.95
662.374	1.97
662.559	1.96
662.743	1.91
662.928	2.03
663.113	1.95
663.298	1.89
663.483	1.87
663.667	1.96
663.852	1.86
664.037	1.97
664.221	1.87
664.406	1.99
664.591	1.93
664.775	1.92
664.96	1.84
665.145	1.83
665.329	1.9
665.514	1.81
665.698	1.82
665.883	1.79
666.068	1.89
666.252	1.84
666.437	1.78
666.621	1.78
666.806	1.83
666.99	1.79
667.174	1.75
667.359	1.84
667.543	1.76
667.728	1.73
667.912	1.66
668.096	1.8
668.281	1.67
668.465	1.75
668.649	1.67
668.834	1.65
669.018	1.7
669.202	1.68
669.387	1.66
669.571	1.76
669.755	1.64
669.939	1.62
670.124	1.68
670.308	1.74
670.492	1.67
670.676	1.65
670.86	1.62
671.044	1.55
671.228	1.67
671.413	1.58
671.597	1.5
671.781	1.58
671.965	1.6
672.149	1.6
672.333	1.54
672.517	1.52
672.701	1.57
672.885	1.56
673.069	1.49
673.253	1.64
673.437	1.48
673.621	1.52
673.804	1.55
673.988	1.54
674.172	1.51
674.356	1.44
674.54	1.46
674.724	1.61
674.908	1.47
675.091	1.52
675.275	1.43
675.459	1.54
675.643	1.45
675.826	1.42
676.01	1.45
676.194	1.47
676.377	1.52
676.561	1.49
676.745	1.38
676.928	1.46
677.112	1.54
677.296	1.37
677.479	1.4
677.663	1.34
677.846	1.37
678.03	1.38
678.213	1.3
678.397	1.36
678.58	1.37
678.764	1.36
678.947	1.27
679.131	1.4
679.314	1.43
679.498	1.3
679.681	1.3
679.865	1.38
680.048	1.3
680.231	1.34
680.415	1.28
680.598	1.28
680.781	1.28
680.965	1.25
681.148	1.3
681.331	1.21
681.514	1.34
681.698	1.22
681.881	1.28
682.064	1.28
682.247	1.28
682.43	1.16
682.614	1.24
682.797	1.29
682.98	1.24
683.163	1.14
683.346	1.17
683.529	1.19
683.712	1.12
683.895	1.21
684.078	1.13
684.261	1.17
684.444	1.18
684.627	1.2
684.81	1.12
684.993	1.16
685.176	1.12
685.359	1.07
685.542	1.09
685.725	1.24
685.908	1.17
686.091	1.1
686.274	1.18
686.457	1.23
686.639	1.12
686.822	1.17
687.005	1.07
687.188	1.19
687.371	1.18
687.553	1.22
687.736	1.17
687.919	1.26
688.102	1.18
688.284	1.04
688.467	1.06
688.65	1.08
688.832	1.08
689.015	1.06
689.197	0.98
689.38	1.19
689.563	1.19
689.745	0.94
689.928	0.98
690.11	1.01
690.293	1.08
690.475	0.93
690.658	1.03
690.84	1
691.023	0.99
691.205	0.97
691.388	0.99
691.57	1.07
691.752	1.09
691.935	0.87
692.117	0.97
692.3	0.99
692.482	0.97
692.664	0.94
692.847	0.99
693.029	1.09
693.211	1
693.393	0.95
693.576	0.88
693.758	0.93
693.94	0.91
694.122	0.92
694.304	0.91
694.487	0.91
694.669	0.99
694.851	0.85
695.033	0.86
695.215	0.84
695.397	0.9
695.579	0.89
695.761	0.85
695.943	0.88
696.125	1.01
696.308	0.9
696.49	0.75
696.671	0.96
696.853	0.92
697.035	1.11
697.217	0.83
697.399	0.94
697.581	0.79
697.763	0.84
697.945	0.77
698.127	0.9
698.309	0.95
698.491	0.89
698.672	0.92
698.854	0.92
699.036	0.97
699.218	0.85
699.399	0.91
699.581	0.89
699.763	0.79
699.945	0.79
700.126	0.78
700.308	0.78
700.49	0.83
700.671	0.71
700.853	0.82
701.035	0.79
701.216	0.75
701.398	0.77
701.579	0.75
701.761	0.85
701.943	0.74
702.124	0.7
702.306	0.67
702.487	0.9
702.669	0.81
702.85	0.72
703.031	0.67
703.213	0.86
703.394	0.79
703.576	0.71
703.757	0.93
703.938	0.86
704.12	0.99
704.301	0.72
704.483	0.68
704.664	0.81
704.845	0.81
705.026	0.87
705.208	0.7
705.389	0.79
705.57	0.81
705.751	0.77
705.933	0.78
706.114	0.8
706.295	0.75
706.476	0.71
706.657	0.77
706.838	0.77
707.02	0.85
707.201	0.71
707.382	0.72
707.563	0.73
707.744	0.69
707.925	0.65
708.106	0.69
708.287	0.74
708.468	0.84
708.649	0.72
708.83	0.72
709.011	0.63
709.192	0.77
709.373	0.6
709.554	0.63
709.734	0.77
709.915	0.71
710.096	0.69
710.277	0.5
710.458	0.63
710.639	0.73
710.819	0.57
711	0.62
711.181	0.73
711.362	0.78
711.542	0.67
711.723	0.66
711.904	0.7
712.085	0.79
712.265	0.66
712.446	0.5
712.627	0.56
712.807	0.59
712.988	0.67
713.168	0.52
713.349	0.73
713.53	0.44
713.71	0.56
713.891	0.48
714.071	0.52
714.252	0.57
714.432	0.59
714.613	0.54
714.793	0.6
714.974	0.67
715.154	0.66
715.334	0.68
715.515	0.69
715.695	0.48
715.876	0.54
716.056	0.63
716.236	0.56
716.417	0.57
716.597	0.5
716.777	0.77
716.957	0.64
717.138	0.63
717.318	0.59
717.498	0.45
717.678	0.61
717.859	0.59
718.039	0.37
718.219	0.55
718.399	0.57
718.579	0.54
718.759	0.49
718.939	0.61
719.12	0.54
719.3	0.58
719.48	0.45
719.66	0.5
719.84	0.72
720.02	0.46
720.2	0.52
720.38	0.51
720.56	0.74
720.74	0.36
720.92	0.58
721.1	0.65
721.279	0.68
721.459	0.66
721.639	0.42
721.819	0.58
721.999	0.49
722.179	0.56
722.359	0.36
722.538	0.54
722.718	0.55
722.898	0.48
723.078	0.51
723.257	0.54
723.437	0.54
723.617	0.57
723.797	0.49
723.976	0.47
724.156	0.65
724.336	0.69
724.515	0.74
724.695	0.43
724.874	0.51
725.054	0.62
725.234	0.55
725.413	0.51
725.593	0.6
725.772	0.56
725.952	0.46
726.131	0.48
726.311	0.54
726.49	0.55
726.67	0.41
726.849	0.4
727.028	0.51
727.208	0.49
727.387	0.57
727.567	0.52
727.746	0.51
727.925	0.48
728.105	0.39
728.284	0.42
728.463	0.53
728.643	0.55
728.822	0.38
729.001	0.57
729.18	0.52
729.359	0.55
729.539	0.46
729.718	0.52
729.897	0.57
730.076	0.43
730.255	0.34
730.434	0.51
730.614	0.58
730.793	0.59
730.972	0.45
731.151	0.54
731.33	0.64
731.509	0.46
731.688	0.38
731.867	0.52
732.046	0.33
732.225	0.71
732.404	0.49
732.583	0.33
732.762	0.41
732.941	0.52
733.12	0.52
733.298	0.45
733.477	0.67
733.656	0.45
733.835	0.39
734.014	0.62
734.193	0.45
734.371	0.5
734.55	0.5
734.729	0.43
734.908	0.48
735.086	0.46
735.265	0.57
735.444	0.3
735.623	0.37
735.801	0.45
735.98	0.42
736.159	0.43
736.337	0.52
736.516	0.51
736.694	0.51
736.873	0.45
737.052	0.72
737.23	0.7
737.409	0.38
737.587	0.8
737.766	0.45
737.944	0.47
738.123	0.54
738.301	0.51
738.479	0.44
738.658	0.56
738.836	0.21
739.015	0.48
739.193	0.67
739.371	0.29
739.55	0.48
739.728	0.28
739.906	0.6
740.085	0.69
740.263	0.48
740.441	0.27
740.62	0.75
740.798	0.52
740.976	0.32
741.154	0.38
741.332	0.61
741.511	0.35
741.689	0.46
741.867	0.54
742.045	0.55
742.223	0.36
742.401	0.3
742.579	0.36
742.757	0.57
742.935	0.26
743.114	0.31
743.292	0.51
743.47	0.44
743.648	0.56
743.826	0.34
744.004	0.47
744.181	0.53
744.359	0.41
744.537	0.43
744.715	0.42
744.893	0.52
745.071	0.38
745.249	0.33
745.427	0.4
745.605	0.61
745.782	0.39
745.96	0.4
746.138	0.53
746.316	0.57
746.493	0.43
746.671	0.37
746.849	0.35
747.027	0.5
747.204	0.41
747.382	0.53
747.56	0.29
747.737	0.38
747.915	0.45
748.093	0.48
748.27	0.31
748.448	0.38
748.625	0.31
748.803	0.38
748.98	0.29
749.158	0.51
749.335	0.45
749.513	0.42
749.69	0.38
749.868	0.5
750.045	0.35
750.223	0.24
750.4	0.23
750.578	0.57
750.755	0.3
750.932	0.14
751.11	0.43
751.287	0.18
751.464	0.56
751.642	0.19
751.819	0.53
751.996	0.46
752.173	0.33
752.351	0.29
752.528	0.31
752.705	0.35
752.882	0.35
753.06	0.44
753.237	0.45
753.414	0.49
753.591	0.67
753.768	0.39
753.945	0.39
754.122	0.41
754.299	0.37
754.476	0.31
754.654	0.43
754.831	0.53
755.008	0.41
755.185	0.28
755.362	0.2
755.539	0.5
755.716	0.29
755.892	0.45
756.069	0.25
756.246	0.34
756.423	0.34
756.6	0.46
756.777	0.3
756.954	0.55
757.131	0.32
757.307	0.25
757.484	0.22
757.661	0.4
757.838	0.38
758.015	0.21
758.191	0.37
758.368	0.47
758.545	0.59
758.721	0.34
758.898	0.18
759.075	0.41
759.251	0.51
759.428	0.37
759.605	0.22
759.781	0.37
759.958	0.32
760.134	0.33
760.311	0.28
760.488	0.51
760.664	0.6
760.841	0.4
761.017	0.29
761.194	0.49
761.37	0.52
761.547	0.36
761.723	0.3
761.899	0.56
762.076	0.26
762.252	0.24
762.429	0.33
762.605	0.53
762.781	0.31
762.958	0.41
763.134	0.27
763.31	0.19
763.486	0.51
763.663	0.12
763.839	0.36
764.015	0.14
764.191	0.32
764.368	0.3
764.544	0.27
764.72	0.46
764.896	0.39
765.072	0.5
765.248	0.31
765.425	0.36
765.601	0.39
765.777	0.43
765.953	0.04
766.129	0.27
766.305	0.37
766.481	0.42
766.657	0.35
766.833	0.52
767.009	0.17
767.185	0.35
767.361	0.3
767.537	0.29
767.713	0.57
767.889	0.25
768.065	0.25
768.24	0.43
768.416	0.55
768.592	0.34
768.768	0.33
768.944	0.4
769.12	0.34
769.295	0.23
769.471	0.39
769.647	0.22
769.823	0.56
769.998	0.22
770.174	0.19
770.35	0.81
770.525	0.67
770.701	0.46
770.877	0.3
771.052	0.18
771.228	0.53
771.403	0.4
771.579	0.34
771.755	0.75
771.93	0.33
772.106	0.23
772.281	0.04
772.457	0.4
772.632	0.31
772.808	0.2
772.983	0.29
773.159	0.13
773.334	0.61
773.509	0.43
773.685	0.17
773.86	0.85
774.036	0.67
774.211	0.34
774.386	0.43
774.562	0.43
774.737	0.45
774.912	0.14
775.087	0.46
775.263	0.43
775.438	0.28
775.613	0.19
775.788	0.35
775.964	0.6
776.139	0.94
776.314	0.17
776.489	0.39
776.664	0.57
776.839	0.2
777.014	0.51
777.19	0.47
777.365	0.85
777.54	0.76
777.715	0.16
777.89	0.32
778.065	0.15
778.24	0.24
778.415	0.5
778.59	0.25
778.765	0.41
778.94	0.58
779.115	0.41
779.289	0.31
779.464	0.39
779.639	0.36
779.814	0.09
779.989	0.17
780.164	0.54
780.339	0.54
780.513	0.36
780.688	0.16
780.863	0.57
781.038	0.55
781.212	0.28
781.387	0.28
781.562	0.76
781.737	0.21
781.911	0.67
782.086	0.19
782.261	0.49
782.435	0.75
782.61	0.16
782.784	0.36
782.959	0.65
783.134	0.4
783.308	0.17
783.483	0.06
783.657	0.81
783.832	0.76
784.006	0
784.181	0.3
784.355	0.48
784.53	0.2
784.704	0.16
784.878	0.91
785.053	0.57
785.227	0.67
785.402	0.71
785.576	0.08
785.75	0.27
785.925	0.49
786.099	0.25
786.273	0.4
786.448	0.62
786.622	0.73
786.796	0.45
786.97	0.47
787.145	0.92
787.319	0.03
787.493	0.35
787.667	-0.16
787.841	0.53
788.015	0.57
788.19	0.36
788.364	0.44
788.538	0.75
788.712	0.5
788.886	0.33
789.06	0.52
789.234	0.6
789.408	0.24
789.582	0.4
789.756	0.18
789.93	0.33
790.104	0.37
790.278	0.2
790.452	0.13
790.626	0.53
790.8	0.25
790.973	0.62
791.147	0.72
791.321	0.81
791.495	0.83
791.669	0.67
791.843	0.44
792.016	0.59
792.19	0.9
792.364	0.17
792.538	1.06
792.711	0.67
792.885	0.32
793.059	0.21
793.233	-0.11
793.406	0.74
793.58	0.43
793.754	0.74
793.927	0.23
794.101	0.86
794.274	0.49
794.448	0.25
794.622	0.04
794.795	0.85
794.969	0.25
795.142	0.83
795.316	0.52
795.489	0.1
795.663	0.89
795.836	0.74
796.009	0.21
796.183	0.66
796.356	0.53
796.53	0.44
796.703	0.19
796.876	1.09
797.05	0.28
797.223	0.13
797.396	0.18
797.57	0.3
797.743	0.8
797.916	0.45
798.09	0.32
798.263	0.98
798.436	0.7
798.609	0.37
798.782	0.37
798.956	0.63
799.129	0.39
799.302	0.16
799.475	0.17
799.648	0.54
799.821	0.46
799.994	0.25
800.167	-0.2
800.34	0.48
800.514	0.65
800.687	0.46
800.86	0.16
801.033	0.47
801.206	0.56
801.379	0.24
801.551	0.9
801.724	0.67
801.897	1.09
802.07	0.38
802.243	-0.27
802.416	0.39
802.589	0.55
802.762	0.81
802.935	0.46
803.107	0.8
803.28	0.82
803.453	0.71
803.626	0.45
803.798	0.57
803.971	0.46
804.144	0.44
804.317	0.23
804.489	0.85
804.662	0.3
804.835	0.53
805.007	0.07
805.18	1.23
805.353	0.9
805.525	0.19
805.698	0.04
805.87	1.1
806.043	1.06
806.215	0.07
806.388	0.28
806.56	0.65
806.733	1.15
806.905	0.57
807.078	0.5
807.25	0.37
807.423	0.98
807.595	0.28
807.768	0.83
807.94	0.8
808.112	0.54
808.285	0.54
808.457	0.1
808.629	0.36
808.802	1.01
808.974	0.78
809.146	0.33
809.318	0.29
809.491	0.93
809.663	0.59
809.835	0.21
810.007	1.1
810.18	0.62
810.352	-0.01
810.524	0.5
810.696	0.93
810.868	1.23
811.04	0.6
811.212	0.59
811.384	0.74
811.556	0.74
811.728	0.49
811.901	1.29
812.073	0.44
812.245	0.81
812.417	0.48
812.589	-0.34
812.76	1.06
812.932	0.84
813.104	0.95
813.276	0.58
813.448	0.98
813.62	0.73
813.792	0.54
813.964	0.52
814.136	1.08
814.307	0.46
814.479	0.16
814.651	0.46
814.823	1.8
814.995	0.27
815.166	0.34
815.338	0.36
815.51	0.06
815.681	1.68
815.853	0.23
816.025	0.63
816.196	1.83
816.368	1.2
816.54	0.28
816.711	0.34
816.883	1.17
817.054	1.96
817.226	-0.01
817.398	0.77
817.569	0.33
817.741	0.87
817.912	0.47
818.084	0.3
818.255	1.09
818.426	0.31
818.598	0.7
818.769	0.8
818.941	0.82
819.112	1.61
819.283	0.78
819.455	0.42
819.626	0.72
819.798	0.75
819.969	0.81
820.14	0.76
820.311	0.9
820.483	0.5
820.654	0.77
820.825	0.65
820.996	0.39
821.168	0.1
821.339	0.5
821.51	-0.39
821.681	0.3
821.852	0.2
822.023	-0.12
822.195	0.08
822.366	1.21
822.537	0.83
822.708	0.9
822.879	0.27
823.05	1.16
823.221	0.62
823.392	0.74
823.563	0.68
823.734	1.18
823.905	0.77
824.076	0.13
824.247	0.31
824.418	0.3
824.589	1.56
824.759	0.48
824.93	0.75
825.101	-0.33
825.272	1.8
825.443	1.41
825.614	1.35
825.784	0.02
825.955	2.02
826.126	0.97
826.297	0.87
826.467	1.7
826.638	2.02
826.809	0.19
826.98	0.48
827.15	1.6
827.321	0.77
827.492	1.11
827.662	0.9
827.833	2.12
828.003	1.69
828.174	0.22
828.345	-0.37
828.515	1.24
828.686	0.29
828.856	-0.04
829.027	0.8
829.197	0.76
829.368	1.11
829.538	0.02
829.709	0.31
829.879	0.88
830.049	1.07
830.22	0.61
830.39	0.71
830.56	1.47
830.731	1.08
830.901	-0.05
831.072	0.6
831.242	1.23
831.412	1.57
831.582	0.25
831.753	-0.32
831.923	1.97
832.093	1.31
832.263	0.56
832.434	-0.14
832.604	0.15
832.774	1.32
832.944	0.12
833.114	0.19
833.284	1.11
833.454	0.49
833.624	0.61
833.795	0.57
833.965	1.61
834.135	1.63
834.305	-0.26
834.475	-0.35
834.645	1.15
834.815	0.77
834.985	0.45
835.155	0.44
835.325	1.53
835.494	0.9
835.664	0.32
835.834	-0.25
836.004	1.24
836.174	0.83
836.344	0.79
836.514	-0.53
836.684	0.87
836.853	1.22
837.023	0.83
837.193	0.05
837.363	1.55
837.532	2.23
837.702	0.57
837.872	0.83
838.041	1.6
838.211	3.21
838.381	-0.19
838.55	0.78
838.72	3.3
838.89	2.29
839.059	-0.13
839.229	0.2
839.398	3.66
839.568	1.31
839.738	0.81
839.907	2.28
840.077	1.58
840.246	-0.16
840.416	0.48
840.585	0.57
840.755	2.3
840.924	2.65
841.093	0.61
841.263	-0.22
841.432	1.71
841.602	0.42
841.771	0.5
841.94	1.41
842.11	2.97
842.279	3.08
842.448	-0.7
842.617	0.15
842.787	2.8
842.956	0.77
843.125	0.7
843.294	0.97
843.464	2.61
843.633	1.78
843.802	0.27
843.971	0.07
844.14	1.37
844.309	1.71
844.479	-0.8
844.648	0.51
844.817	0.57
844.986	1.49
845.155	0.02
845.324	0.81
845.493	1.04
845.662	0.58
845.831	1.39
846	1.21
846.169	0.83
846.338	2.63
846.507	1.31
846.676	1.26
846.844	0.93
847.013	1.44
847.182	0.9
847.351	0.48
847.52	1.49
847.689	2.02
847.858	0.42
848.026	0.08
848.195	1.5
848.364	0.44
848.533	0.56
848.701	0.45
848.87	1.9
849.039	1.61
849.207	1.38
849.376	2.12
849.545	2.28
849.713	0.39
849.882	0.09
850.051	0.74
850.219	1.61
850.388	2.06
850.556	0.79
850.725	0.24
850.893	1.1
851.062	1.22
851.23	1.59
851.399	0.12
851.567	1.14
851.736	0.94
851.904	-0.91
852.073	1.54
852.241	2.74
852.41	2.42
852.578	1.01
852.746	0.55
852.915	2.02
853.083	2.22
853.251	-0.17
853.42	1.29
853.588	1.25
853.756	2.75
853.924	2.04
854.093	0.93
854.261	0.88
854.429	-0.36
854.597	1.94
854.765	0.62
854.934	2.81
855.102	2.99
855.27	0.9
855.438	2.79
855.606	3.11
855.774	3.54
855.942	0.17
856.11	-0.11
856.278	2.34
856.446	3.2
856.614	0.98
856.782	-0.53
856.95	2.57
857.118	1.58
857.286	1.46
857.454	0.69
857.622	3.73
857.79	4.16
857.958	-0.2
858.126	1.23
858.294	-2.24
858.462	1.32
858.629	0.21
858.797	-1.2
858.965	0.94
859.133	1.79
859.301	0.27
859.468	1.47
859.636	0.83
859.804	4.41
859.971	2.83
860.139	0.21
860.307	1.94
860.474	2.61
860.642	-0.33
860.81	-0.02
860.977	2.17
861.145	3.8
861.313	0.82
861.48	0.78
861.648	2.77
861.815	1.07
861.983	0.05
862.15	0.22
862.318	2.16
862.485	2.82
862.653	-0.17
862.82	0.03
862.988	4.25
863.155	0.09
863.322	0.42
863.49	-0.19
863.657	-0.07
863.824	4.65
863.992	1.68
864.159	1.34
864.326	3.57
864.494	1.17
864.661	4.34
864.828	1.29
864.996	3.11
865.163	3.23
865.33	1.89
865.497	-1.9
865.664	0.92
865.832	-0.75
865.999	1.36
866.166	0.13
866.333	0.06
866.5	1.53
866.667	1.79
866.834	1.59
867.001	4.04
867.168	-1.99
867.335	0.51
867.502	-1.67
867.669	2.43
867.836	5.04
868.003	1.45
868.17	4.03
868.337	4.29
868.504	6.61
868.671	-2.5
868.838	0.26
869.005	3.37
869.172	3.47
869.339	2.65
869.505	1.21
869.672	2.82
869.839	3.04
870.006	1.26
870.173	-0.27
870.339	2.24
870.506	6.41
870.673	-0.58
870.84	2.92
871.006	2.7
871.173	2.49
871.34	0.51
871.506	-1.38
871.673	2.94
871.839	-0.83
872.006	0.84
872.173	0.71
872.339	2.21
872.506	3.84
872.672	0.55
872.839	-1
873.005	4.1
873.172	5.22
873.338	4.29
873.505	2.62
873.671	1.94
873.838	3.68
874.004	-0.56
874.171	1.54
874.337	2.81
874.503	5.55
874.67	1.41
874.836	0.47
875.002	4.58
875.169	4.38
875.335	-0.09
875.501	1.98
875.668	3.79
875.834	3.51
876	1.3
876.166	2.45
876.332	3.23
876.499	4.84
876.665	-0.11
876.831	0.59
876.997	5.29
877.163	4.19
877.329	1.17
877.495	2.09
877.662	2.18
877.828	2.88
877.994	1.05
878.16	-2.81
878.326	1.41
878.492	2.72
878.658	0.82
878.824	2.19
878.99	2.86
879.156	1.83
879.322	4.87
879.487	2.49
879.653	2.69
879.819	2.57
879.985	1.3
880.151	1.85
880.317	3.8
880.483	1.16
880.648	2.86
880.814	0.23
880.98	5.21
881.146	-1.37
881.312	0.43
881.477	1.9
881.643	2.54
881.809	3.45
881.974	3.71
882.14	-1.58
882.306	1.02
882.471	5.73
882.637	-0.39
882.803	1.72
882.968	5.44
883.134	7.99
883.299	0.67
883.465	1.59
883.63	4.01
883.796	3.41
883.961	3.75
884.127	2.53
884.292	-2.3
884.458	1.2
884.623	1.2
