Data from Apollo_Calib_20240827__AbsoluteIrradiance__758__11-47-00-634.txt Node

Date: Wed Aug 28 11:47:00 BST 2024
User: biology
Spectrometer: FLMT08252
Trigger mode: 0
Integration Time (sec): 5.000000E-1
Scans to average: 5
Electric dark correction enabled: true
Nonlinearity correction enabled: false
Boxcar width: 0
XAxis mode: Wavelengths
Number of Pixels in Spectrum: 3648
>>>>>Begin Spectral Data<<<<<
179.588	-0
179.809	-0
180.03	-0
180.251	-0
180.473	-0
180.694	0
180.915	0
181.136	-0
181.357	0
181.578	-0
181.799	-0
182.02	-0
182.241	0
182.462	-0
182.683	0
182.904	-0
183.125	-0
183.346	0
183.567	0
183.788	0
184.009	0
184.23	0
184.451	0
184.672	0
184.892	0
185.113	0
185.334	0
185.555	0
185.776	0
185.996	0
186.217	0
186.438	0
186.659	0
186.879	0
187.1	0
187.321	0
187.541	0
187.762	0
187.983	0
188.203	0
188.424	0
188.644	0
188.865	0
189.086	0
189.306	0
189.527	0
189.747	0
189.968	0
190.188	0
190.409	0
190.629	0
190.849	0
191.07	0
191.29	0
191.511	0
191.731	0
191.951	0
192.172	0
192.392	0
192.612	0
192.833	0
193.053	0
193.273	0
193.493	0
193.714	0
193.934	0
194.154	0
194.374	0
194.594	0
194.815	0
195.035	0
195.255	0
195.475	0
195.695	0
195.915	0
196.135	0
196.355	0
196.575	0
196.795	0
197.015	0
197.235	0
197.455	0
197.675	0
197.895	0
198.115	0
198.335	0
198.555	0
198.775	0
198.995	0
199.214	0
199.434	0
199.654	0
199.874	0
200.094	3.11
200.313	2.01
200.533	1.23
200.753	1.42
200.973	2.3
201.192	2.59
201.412	0.74
201.632	1.78
201.851	2.59
202.071	1.48
202.291	1.51
202.51	0.79
202.73	2.42
202.95	0.99
203.169	0.86
203.389	1.46
203.608	1.49
203.828	0.95
204.047	1.11
204.267	1.77
204.486	1.52
204.706	1.57
204.925	1.8
205.145	1.21
205.364	1.7
205.583	2.03
205.803	1.07
206.022	1
206.242	1.62
206.461	1.5
206.68	0.95
206.9	1.51
207.119	1.81
207.338	1.99
207.557	0.98
207.777	1.04
207.996	1.03
208.215	1.83
208.434	0.83
208.654	0.72
208.873	1.24
209.092	1.59
209.311	0.77
209.53	0.85
209.749	0.77
209.968	0.8
210.187	0.91
210.407	0.62
210.626	1.16
210.845	1.62
211.064	0.86
211.283	0.62
211.502	1.2
211.721	1.11
211.94	0.77
212.159	1.23
212.377	1.13
212.596	1.22
212.815	0.91
213.034	1.19
213.253	1.19
213.472	1.06
213.691	0.83
213.91	0.72
214.128	0.47
214.347	1.22
214.566	0.46
214.785	0.42
215.003	0.9
215.222	0.99
215.441	0.79
215.66	0.56
215.878	0.66
216.097	1.08
216.316	0.45
216.534	0.77
216.753	1.01
216.972	0.52
217.19	0.78
217.409	0.6
217.627	0.8
217.846	0.74
218.064	0.71
218.283	0.34
218.501	1.13
218.72	0.96
218.938	0.42
219.157	0.5
219.375	1.02
219.594	0.89
219.812	0.42
220.031	0.52
220.249	1.1
220.467	1
220.686	0.35
220.904	0.43
221.122	0.69
221.341	0.95
221.559	0.7
221.777	0.35
221.995	0.67
222.214	0.73
222.432	0.41
222.65	0.72
222.868	0.63
223.086	0.59
223.305	0.67
223.523	0.52
223.741	0.95
223.959	0.48
224.177	0.2
224.395	0.51
224.613	0.6
224.831	0.65
225.049	0.36
225.267	0.49
225.485	0.62
225.703	0.53
225.921	0.45
226.139	0.52
226.357	0.77
226.575	0.66
226.793	0.53
227.011	1.33
227.229	0.56
227.447	0.69
227.665	0.52
227.883	0.26
228.1	0.5
228.318	0.61
228.536	0.34
228.754	0.31
228.972	0.48
229.189	0.59
229.407	0.41
229.625	0.57
229.843	0.67
230.06	0.58
230.278	0.34
230.496	0.43
230.713	0.57
230.931	0.66
231.149	0.46
231.366	0.14
231.584	0.43
231.801	0.98
232.019	0.36
232.236	0.32
232.454	0.36
232.671	0.56
232.889	0.37
233.106	0.36
233.324	0.45
233.541	0.53
233.759	0.37
233.976	0.33
234.194	0.36
234.411	0.4
234.628	0.33
234.846	0.46
235.063	0.49
235.28	0.42
235.498	0.42
235.715	0.32
235.932	0.61
236.149	0.4
236.367	0.29
236.584	0.47
236.801	0.46
237.018	0.48
237.236	0.37
237.453	0.22
237.67	0.58
237.887	0.52
238.104	0.38
238.321	0.3
238.538	0.26
238.755	0.58
238.973	0.3
239.19	0.34
239.407	0.52
239.624	0.49
239.841	0.2
240.058	0.27
240.275	0.4
240.492	0.4
240.709	0.41
240.925	0.33
241.142	0.37
241.359	0.37
241.576	0.3
241.793	0.36
242.01	0.38
242.227	0.5
242.444	0.51
242.66	0.55
242.877	0.38
243.094	0.37
243.311	0.37
243.527	0.35
243.744	0.39
243.961	0.48
244.178	0.42
244.394	0.34
244.611	0.47
244.828	0.57
245.044	0.28
245.261	0.33
245.477	0.37
245.694	0.53
245.911	0.32
246.127	0.39
246.344	0.46
246.56	0.51
246.777	0.33
246.993	0.35
247.21	0.38
247.426	0.44
247.643	0.24
247.859	0.24
248.076	0.31
248.292	0.6
248.508	0.29
248.725	0.37
248.941	0.39
249.157	0.53
249.374	0.22
249.59	0.38
249.806	0.35
250.023	0.52
250.239	0.29
250.455	0.31
250.671	0.35
250.888	0.34
251.104	0.42
251.32	0.38
251.536	0.3
251.752	0.29
251.969	0.31
252.185	0.32
252.401	0.63
252.617	0.44
252.833	0.22
253.049	0.3
253.265	0.34
253.481	0.36
253.697	0.29
253.913	0.24
254.129	0.34
254.345	0.31
254.561	0.29
254.777	0.3
254.993	0.36
255.209	0.31
255.425	0.22
255.641	0.27
255.857	0.42
256.073	0.37
256.288	0.25
256.504	0.24
256.72	0.31
256.936	0.48
257.152	0.27
257.367	0.16
257.583	0.35
257.799	0.42
258.015	0.17
258.23	0.26
258.446	0.5
258.662	0.33
258.877	0.22
259.093	0.19
259.309	0.37
259.524	0.35
259.74	0.17
259.955	0.18
260.171	0.4
260.387	0.34
260.602	0.35
260.818	0.32
261.033	0.22
261.249	0.31
261.464	0.21
261.68	0.15
261.895	0.41
262.11	0.35
262.326	0.25
262.541	0.15
262.757	0.37
262.972	0.37
263.187	0.29
263.403	0.3
263.618	0.41
263.833	0.33
264.049	0.25
264.264	0.3
264.479	0.34
264.694	0.39
264.91	0.16
265.125	0.21
265.34	0.33
265.555	0.53
265.77	0.33
265.986	0.27
266.201	0.38
266.416	0.38
266.631	0.29
266.846	0.23
267.061	0.39
267.276	0.31
267.491	0.16
267.706	0.27
267.921	0.3
268.136	0.31
268.351	0.32
268.566	0.12
268.781	0.44
268.996	0.36
269.211	0.27
269.426	0.18
269.641	0.26
269.856	0.29
270.071	0.18
270.285	0.21
270.5	0.37
270.715	0.35
270.93	0.18
271.145	0.33
271.359	0.36
271.574	0.34
271.789	0.3
272.004	0.18
272.218	0.3
272.433	0.29
272.648	0.21
272.862	0.35
273.077	0.22
273.292	0.29
273.506	0.18
273.721	0.27
273.936	0.34
274.15	0.37
274.365	0.2
274.579	0.29
274.794	0.3
275.008	0.31
275.223	0.16
275.437	0.29
275.652	0.35
275.866	0.31
276.081	0.26
276.295	0.3
276.509	0.26
276.724	0.33
276.938	0.24
277.153	0.25
277.367	0.33
277.581	0.2
277.796	0.2
278.01	0.2
278.224	0.36
278.438	0.39
278.653	0.23
278.867	0.22
279.081	0.12
279.295	0.2
279.51	0.25
279.724	0.2
279.938	0.26
280.152	0.3
280.366	0.2
280.58	0.22
280.794	0.38
281.008	0.26
281.222	0.31
281.437	0.36
281.651	0.32
281.865	0.32
282.079	0.22
282.293	0.08
282.507	0.2
282.721	0.26
282.935	0.25
283.148	0.12
283.362	0.2
283.576	0.16
283.79	0.24
284.004	0.16
284.218	0.34
284.432	0.21
284.646	0.2
284.859	0.24
285.073	0.26
285.287	0.27
285.501	0.2
285.714	0.27
285.928	0.26
286.142	0.32
286.356	0.19
286.569	0.19
286.783	0.32
286.997	0.32
287.21	0.21
287.424	0.24
287.637	0.25
287.851	0.22
288.065	0.32
288.278	0.24
288.492	0.26
288.705	0.27
288.919	0.28
289.132	0.15
289.346	0.28
289.559	0.15
289.773	0.2
289.986	0.21
290.2	0.23
290.413	0.32
290.626	0.19
290.84	0.21
291.053	0.24
291.267	0.32
291.48	0.23
291.693	0.23
291.906	0.17
292.12	0.21
292.333	0.22
292.546	0.2
292.76	0.34
292.973	0.23
293.186	0.27
293.399	0.2
293.612	0.29
293.826	0.2
294.039	0.27
294.252	0.22
294.465	0.32
294.678	0.23
294.891	0.23
295.104	0.16
295.317	0.21
295.53	0.26
295.743	0.23
295.956	0.21
296.169	0.35
296.382	0.24
296.595	0.21
296.808	0.16
297.021	0.27
297.234	0.3
297.447	0.18
297.66	0.19
297.873	0.31
298.086	0.24
298.299	0.17
298.511	0.13
298.724	0.2
298.937	0.17
299.15	0.14
299.363	0.2
299.575	0.28
299.788	0.24
300.001	0.2
300.213	0.18
300.426	0.23
300.639	0.16
300.852	0.15
301.064	0.23
301.277	0.31
301.489	0.22
301.702	0.25
301.915	0.21
302.127	0.21
302.34	0.25
302.552	0.24
302.765	0.2
302.977	0.28
303.19	0.2
303.402	0.19
303.615	0.17
303.827	0.2
304.04	0.23
304.252	0.22
304.464	0.2
304.677	0.37
304.889	0.27
305.102	0.2
305.314	0.17
305.526	0.29
305.739	0.22
305.951	0.13
306.163	0.17
306.375	0.32
306.588	0.2
306.8	0.19
307.012	0.17
307.224	0.26
307.436	0.27
307.649	0.11
307.861	0.17
308.073	0.26
308.285	0.17
308.497	0.15
308.709	0.16
308.921	0.25
309.133	0.26
309.346	0.23
309.558	0.19
309.77	0.24
309.982	0.25
310.194	0.23
310.406	0.18
310.617	0.35
310.829	0.22
311.041	0.26
311.253	0.16
311.465	0.21
311.677	0.2
311.889	0.17
312.101	0.17
312.313	0.28
312.524	0.26
312.736	0.18
312.948	0.18
313.16	0.3
313.372	0.26
313.583	0.23
313.795	0.17
314.007	0.15
314.218	0.24
314.43	0.2
314.642	0.21
314.853	0.15
315.065	0.24
315.277	0.21
315.488	0.24
315.7	0.25
315.912	0.2
316.123	0.19
316.335	0.21
316.546	0.33
316.758	0.21
316.969	0.22
317.181	0.21
317.392	0.26
317.604	0.25
317.815	0.17
318.026	0.18
318.238	0.17
318.449	0.2
318.661	0.12
318.872	0.16
319.083	0.19
319.295	0.22
319.506	0.19
319.717	0.21
319.929	0.23
320.14	0.19
320.351	0.19
320.562	0.19
320.774	0.23
320.985	0.19
321.196	0.17
321.407	0.11
321.618	0.26
321.829	0.23
322.041	0.24
322.252	0.23
322.463	0.22
322.674	0.28
322.885	0.16
323.096	0.21
323.307	0.24
323.518	0.23
323.729	0.2
323.94	0.19
324.151	0.18
324.362	0.23
324.573	0.25
324.784	0.18
324.995	0.28
325.206	0.25
325.417	0.16
325.628	0.15
325.838	0.17
326.049	0.28
326.26	0.23
326.471	0.18
326.682	0.22
326.892	0.25
327.103	0.14
327.314	0.16
327.525	0.3
327.735	0.23
327.946	0.18
328.157	0.15
328.368	0.26
328.578	0.19
328.789	0.24
328.999	0.23
329.21	0.22
329.421	0.28
329.631	0.18
329.842	0.13
330.052	0.2
330.263	0.28
330.473	0.22
330.684	0.2
330.894	0.23
331.105	0.22
331.315	0.2
331.526	0.14
331.736	0.26
331.947	0.23
332.157	0.28
332.367	0.15
332.578	0.24
332.788	0.23
332.999	0.24
333.209	0.18
333.419	0.15
333.629	0.25
333.84	0.21
334.05	0.22
334.26	0.32
334.47	0.24
334.681	0.24
334.891	0.19
335.101	0.25
335.311	0.29
335.521	0.2
335.732	0.19
335.942	0.27
336.152	0.22
336.362	0.2
336.572	0.2
336.782	0.26
336.992	0.2
337.202	0.16
337.412	0.13
337.622	0.24
337.832	0.2
338.042	0.22
338.252	0.15
338.462	0.18
338.672	0.21
338.882	0.15
339.092	0.22
339.302	0.22
339.511	0.22
339.721	0.2
339.931	0.17
340.141	0.3
340.351	0.3
340.561	0.18
340.77	0.22
340.98	0.25
341.19	0.2
341.4	0.21
341.609	0.18
341.819	0.16
342.029	0.14
342.238	0.23
342.448	0.14
342.658	0.22
342.867	0.2
343.077	0.21
343.286	0.2
343.496	0.19
343.706	0.27
343.915	0.14
344.125	0.23
344.334	0.26
344.544	0.17
344.753	0.15
344.963	0.16
345.172	0.2
345.381	0.23
345.591	0.2
345.8	0.17
346.01	0.27
346.219	0.26
346.428	0.04
346.638	0.21
346.847	0.18
347.056	0.3
347.266	0.18
347.475	0.16
347.684	0.25
347.893	0.25
348.103	0.21
348.312	0.2
348.521	0.18
348.73	0.21
348.94	0.21
349.149	0.16
349.358	0.21
349.567	0.2
349.776	0.12
349.985	0.21
350.194	0.26
350.403	0.24
350.612	0.14
350.821	0.18
351.03	0.24
351.239	0.15
351.448	0.19
351.657	0.16
351.866	0.28
352.075	0.2
352.284	0.2
352.493	0.2
352.702	0.27
352.911	0.22
353.12	0.21
353.329	0.16
353.538	0.21
353.746	0.18
353.955	0.16
354.164	0.2
354.373	0.17
354.582	0.26
354.79	0.24
354.999	0.25
355.208	0.17
355.416	0.22
355.625	0.15
355.834	0.17
356.042	0.25
356.251	0.19
356.46	0.17
356.668	0.22
356.877	0.29
357.085	0.23
357.294	0.1
357.503	0.22
357.711	0.18
357.92	0.37
358.128	0.22
358.337	0.18
358.545	0.2
358.754	0.14
358.962	0.25
359.17	0.2
359.379	0.2
359.587	0.2
359.796	0.17
360.004	0.23
360.212	0.2
360.421	0.29
360.629	0.17
360.837	0.19
361.046	0.23
361.254	0.34
361.462	0.18
361.67	0.19
361.879	0.21
362.087	0.22
362.295	0.21
362.503	0.2
362.711	0.18
362.92	0.16
363.128	0.15
363.336	0.18
363.544	0.12
363.752	0.2
363.96	0.19
364.168	0.15
364.376	0.18
364.584	0.24
364.792	0.27
365	0.24
365.208	0.21
365.416	0.24
365.624	0.24
365.832	0.17
366.04	0.25
366.248	0.22
366.456	0.22
366.664	0.22
366.872	0.19
367.079	0.22
367.287	0.19
367.495	0.21
367.703	0.23
367.911	0.22
368.118	0.19
368.326	0.19
368.534	0.19
368.742	0.24
368.949	0.17
369.157	0.19
369.365	0.25
369.572	0.19
369.78	0.15
369.988	0.23
370.195	0.24
370.403	0.23
370.61	0.17
370.818	0.22
371.026	0.27
371.233	0.17
371.441	0.2
371.648	0.17
371.856	0.22
372.063	0.21
372.271	0.19
372.478	0.14
372.685	0.17
372.893	0.25
373.1	0.17
373.308	0.18
373.515	0.32
373.722	0.25
373.93	0.18
374.137	0.24
374.344	0.32
374.552	0.26
374.759	0.26
374.966	0.19
375.173	0.2
375.381	0.29
375.588	0.2
375.795	0.12
376.002	0.16
376.209	0.21
376.417	0.21
376.624	0.16
376.831	0.27
377.038	0.19
377.245	0.14
377.452	0.22
377.659	0.22
377.866	0.2
378.073	0.19
378.28	0.2
378.487	0.31
378.694	0.21
378.901	0.2
379.108	0.23
379.315	0.27
379.522	0.3
379.729	0.22
379.936	0.22
380.143	0.24
380.35	0.21
380.557	0.21
380.763	0.19
380.97	0.22
381.177	0.25
381.384	0.27
381.591	0.23
381.797	0.24
382.004	0.24
382.211	0.24
382.418	0.2
382.624	0.26
382.831	0.27
383.038	0.16
383.244	0.24
383.451	0.2
383.658	0.24
383.864	0.19
384.071	0.22
384.277	0.29
384.484	0.18
384.69	0.29
384.897	0.2
385.103	0.2
385.31	0.17
385.516	0.17
385.723	0.18
385.929	0.21
386.136	0.21
386.342	0.27
386.549	0.16
386.755	0.29
386.961	0.28
387.168	0.25
387.374	0.21
387.58	0.28
387.787	0.21
387.993	0.28
388.199	0.22
388.406	0.19
388.612	0.18
388.818	0.21
389.024	0.17
389.231	0.22
389.437	0.32
389.643	0.28
389.849	0.26
390.055	0.24
390.261	0.22
390.467	0.28
390.674	0.19
390.88	0.23
391.086	0.29
391.292	0.17
391.498	0.27
391.704	0.27
391.91	0.26
392.116	0.23
392.322	0.17
392.528	0.25
392.734	0.24
392.94	0.25
393.146	0.24
393.352	0.26
393.557	0.22
393.763	0.26
393.969	0.25
394.175	0.28
394.381	0.28
394.587	0.19
394.792	0.23
394.998	0.25
395.204	0.26
395.41	0.16
395.615	0.24
395.821	0.23
396.027	0.28
396.233	0.19
396.438	0.26
396.644	0.31
396.85	0.34
397.055	0.25
397.261	0.25
397.466	0.28
397.672	0.28
397.878	0.32
398.083	0.28
398.289	0.26
398.494	0.33
398.7	0.32
398.905	0.19
399.111	0.35
399.316	0.24
399.522	0.29
399.727	0.25
399.932	0.28
400.138	0.26
400.343	0.32
400.549	0.3
400.754	0.3
400.959	0.33
401.165	0.31
401.37	0.31
401.575	0.43
401.78	0.31
401.986	0.27
402.191	0.27
402.396	0.3
402.601	0.31
402.807	0.36
403.012	0.3
403.217	0.4
403.422	0.26
403.627	0.35
403.832	0.28
404.037	0.39
404.243	0.37
404.448	0.29
404.653	0.34
404.858	0.35
405.063	0.36
405.268	0.33
405.473	0.33
405.678	0.34
405.883	0.55
406.088	0.42
406.293	0.32
406.498	0.37
406.703	0.39
406.907	0.35
407.112	0.35
407.317	0.43
407.522	0.45
407.727	0.36
407.932	0.43
408.136	0.53
408.341	0.41
408.546	0.46
408.751	0.42
408.956	0.46
409.16	0.56
409.365	0.47
409.57	0.49
409.774	0.51
409.979	0.53
410.184	0.6
410.388	0.53
410.593	0.64
410.798	0.56
411.002	0.61
411.207	0.68
411.411	0.64
411.616	0.62
411.82	0.69
412.025	0.65
412.229	0.68
412.434	0.83
412.638	0.79
412.843	0.75
413.047	0.77
413.252	0.78
413.456	0.83
413.66	0.93
413.865	0.86
414.069	0.92
414.273	0.93
414.478	0.87
414.682	0.95
414.886	1.02
415.091	0.96
415.295	1.02
415.499	1.15
415.703	1.07
415.908	1.21
416.112	1.1
416.316	1.3
416.52	1.26
416.724	1.29
416.929	1.29
417.133	1.59
417.337	1.35
417.541	1.5
417.745	1.55
417.949	1.64
418.153	1.65
418.357	1.68
418.561	1.86
418.765	1.82
418.969	1.89
419.173	2.04
419.377	1.99
419.581	2.22
419.785	2.13
419.989	2.21
420.193	2.33
420.397	2.34
420.601	2.51
420.804	2.59
421.008	2.56
421.212	2.7
421.416	2.74
421.62	2.75
421.823	2.78
422.027	2.92
422.231	2.9
422.435	2.91
422.638	2.98
422.842	3.05
423.046	3.04
423.249	3.2
423.453	3.28
423.657	3.45
423.86	3.48
424.064	3.62
424.268	3.75
424.471	3.74
424.675	4
424.878	4.01
425.082	4.06
425.285	4.37
425.489	4.24
425.692	4.38
425.896	4.41
426.099	4.61
426.303	4.68
426.506	4.79
426.71	5.04
426.913	5.21
427.116	5.26
427.32	5.28
427.523	5.32
427.726	5.59
427.93	5.7
428.133	5.99
428.336	6.03
428.54	6.1
428.743	6.38
428.946	6.61
429.149	6.59
429.353	6.58
429.556	6.63
429.759	6.84
429.962	6.92
430.165	6.9
430.368	6.63
430.571	6.73
430.775	6.73
430.978	6.81
431.181	6.78
431.384	6.81
431.587	6.92
431.79	7.3
431.993	7.21
432.196	7.42
432.399	7.73
432.602	7.89
432.805	7.93
433.008	8.42
433.211	8.28
433.414	8.51
433.616	8.57
433.819	8.6
434.022	8.74
434.225	8.81
434.428	8.83
434.631	9.17
434.833	9.12
435.036	9.23
435.239	9.39
435.442	9.39
435.645	9.74
435.847	9.75
436.05	9.88
436.253	10.18
436.455	10.2
436.658	10.08
436.861	10.37
437.063	10.39
437.266	10.42
437.468	10.74
437.671	11.06
437.874	10.99
438.076	10.85
438.279	11.29
438.481	11.32
438.684	11.84
438.886	11.68
439.089	11.83
439.291	11.89
439.494	12.23
439.696	12.23
439.899	12.76
440.101	13.21
440.303	13.33
440.506	13.91
440.708	13.72
440.91	13.9
441.113	14.17
441.315	14.34
441.517	14.08
441.72	14.65
441.922	14.25
442.124	14.26
442.326	14.62
442.529	14.81
442.731	14.81
442.933	15.01
443.135	14.83
443.337	14.84
443.539	15.36
443.742	15.06
443.944	15.62
444.146	15.4
444.348	15.33
444.55	15.35
444.752	15.39
444.954	15.54
445.156	15.41
445.358	15.77
445.56	16.05
445.762	15.88
445.964	16.18
446.166	15.88
446.368	16
446.57	15.96
446.772	15.59
446.974	15.55
447.175	15.62
447.377	15.35
447.579	15.76
447.781	15.49
447.983	15.36
448.184	14.94
448.386	15.19
448.588	14.97
448.79	14.77
448.991	15
449.193	15.11
449.395	14.44
449.597	14.17
449.798	14.21
450	13.62
450.202	13.6
450.403	13.67
450.605	13.42
450.806	13.2
451.008	13.03
451.21	12.97
451.411	12.46
451.613	11.87
451.814	12.14
452.016	12.02
452.217	11.44
452.419	11.49
452.62	11.12
452.821	10.9
453.023	10.84
453.224	10.52
453.426	10.06
453.627	9.53
453.828	9.67
454.03	9.83
454.231	9.66
454.432	9.47
454.634	9.29
454.835	8.9
455.036	8.91
455.238	8.55
455.439	8.42
455.64	8.05
455.841	8.02
456.042	8.18
456.244	7.9
456.445	7.5
456.646	7.28
456.847	7.25
457.048	7.2
457.249	7.17
457.45	7.1
457.651	6.53
457.852	6.47
458.054	6.19
458.255	6.07
458.456	6.08
458.657	6.14
458.858	5.74
459.058	5.59
459.259	5.62
459.46	5.44
459.661	5.4
459.862	5.52
460.063	5.4
460.264	5.32
460.465	4.99
460.666	5.14
460.866	4.86
461.067	4.56
461.268	4.71
461.469	4.59
461.67	4.62
461.87	4.48
462.071	4.45
462.272	4.32
462.473	4.25
462.673	4.5
462.874	4.33
463.075	4.33
463.275	4.31
463.476	4.43
463.676	4.27
463.877	4.18
464.078	4.2
464.278	4.23
464.479	4.09
464.679	3.94
464.88	3.96
465.08	4
465.281	3.78
465.481	3.66
465.682	3.5
465.882	3.54
466.083	3.41
466.283	3.46
466.483	3.34
466.684	3.2
466.884	3.08
467.085	3.11
467.285	3.18
467.485	3.09
467.686	2.93
467.886	2.81
468.086	2.86
468.286	2.87
468.487	2.94
468.687	2.74
468.887	2.77
469.087	2.86
469.287	2.8
469.488	2.53
469.688	2.69
469.888	2.69
470.088	2.64
470.288	2.54
470.488	2.54
470.688	2.4
470.888	2.38
471.088	2.27
471.288	2.32
471.488	2.36
471.688	2.26
471.888	2.27
472.088	2.4
472.288	2.29
472.488	2.18
472.688	2.14
472.888	2.23
473.088	2.18
473.288	2.07
473.488	2.06
473.688	2.21
473.887	2.04
474.087	2.07
474.287	2.03
474.487	1.99
474.687	2.05
474.886	1.95
475.086	1.9
475.286	1.91
475.486	1.94
475.685	1.88
475.885	1.81
476.085	1.89
476.284	1.92
476.484	1.9
476.684	1.89
476.883	1.98
477.083	1.77
477.282	1.78
477.482	1.82
477.681	1.81
477.881	1.75
478.08	1.74
478.28	1.73
478.479	1.78
478.679	1.77
478.878	1.68
479.078	1.73
479.277	1.75
479.477	1.79
479.676	1.69
479.875	1.64
480.075	1.63
480.274	1.73
480.473	1.7
480.673	1.66
480.872	1.71
481.071	1.71
481.271	1.71
481.47	1.67
481.669	1.7
481.868	1.66
482.067	1.72
482.267	1.61
482.466	1.6
482.665	1.61
482.864	1.6
483.063	1.64
483.262	1.67
483.461	1.71
483.661	1.7
483.86	1.7
484.059	1.71
484.258	1.76
484.457	1.7
484.656	1.68
484.855	1.77
485.054	1.59
485.253	1.67
485.452	1.65
485.651	1.71
485.849	1.71
486.048	1.69
486.247	1.68
486.446	1.76
486.645	1.7
486.844	1.74
487.043	1.71
487.241	1.79
487.44	1.73
487.639	1.79
487.838	1.77
488.037	1.76
488.235	1.89
488.434	1.77
488.633	1.7
488.831	1.9
489.03	1.87
489.229	1.85
489.427	1.89
489.626	1.91
489.825	1.94
490.023	1.94
490.222	1.9
490.42	1.96
490.619	1.95
490.817	2.01
491.016	1.97
491.214	2.04
491.413	2.03
491.611	2.03
491.81	2.08
492.008	2.04
492.207	2.17
492.405	2.14
492.604	2.07
492.802	2.16
493	2.22
493.199	2.21
493.397	2.24
493.595	2.33
493.794	2.22
493.992	2.36
494.19	2.31
494.388	2.37
494.587	2.39
494.785	2.38
494.983	2.3
495.181	2.42
495.379	2.47
495.578	2.47
495.776	2.53
495.974	2.5
496.172	2.51
496.37	2.58
496.568	2.67
496.766	2.61
496.964	2.68
497.162	2.72
497.36	2.71
497.558	2.78
497.756	2.8
497.954	2.78
498.152	2.89
498.35	2.91
498.548	2.85
498.746	2.88
498.944	2.89
499.142	2.93
499.34	3.02
499.538	3.08
499.736	3.02
499.933	3.11
500.131	3.11
500.329	3.21
500.527	3.2
500.725	3.28
500.922	3.31
501.12	3.31
501.318	3.32
501.516	3.31
501.713	3.42
501.911	3.43
502.109	3.36
502.306	3.53
502.504	3.43
502.701	3.46
502.899	3.55
503.097	3.77
503.294	3.6
503.492	3.7
503.689	3.73
503.887	3.7
504.084	3.86
504.282	3.77
504.479	3.76
504.677	3.91
504.874	3.88
505.072	3.8
505.269	3.98
505.466	4.06
505.664	4.05
505.861	3.94
506.059	4.03
506.256	4.11
506.453	4.13
506.651	4.25
506.848	4.31
507.045	4.22
507.242	4.25
507.44	4.23
507.637	4.35
507.834	4.31
508.031	4.41
508.229	4.42
508.426	4.38
508.623	4.49
508.82	4.56
509.017	4.53
509.214	4.52
509.411	4.67
509.608	4.61
509.805	4.72
510.003	4.65
510.2	4.74
510.397	4.85
510.594	4.78
510.791	4.81
510.988	4.84
511.184	4.82
511.381	4.76
511.578	4.91
511.775	5.02
511.972	4.91
512.169	4.98
512.366	4.95
512.563	5.06
512.76	5.15
512.956	5.14
513.153	5.1
513.35	5.05
513.547	5.07
513.744	5.16
513.94	5.13
514.137	5.28
514.334	5.21
514.53	5.23
514.727	5.43
514.924	5.37
515.12	5.36
515.317	5.39
515.514	5.3
515.71	5.33
515.907	5.6
516.103	5.47
516.3	5.41
516.497	5.56
516.693	5.6
516.89	5.6
517.086	5.56
517.283	5.67
517.479	5.46
517.676	5.63
517.872	5.73
518.068	5.68
518.265	5.66
518.461	5.59
518.658	5.77
518.854	5.76
519.05	5.85
519.247	5.84
519.443	5.82
519.639	5.95
519.836	5.83
520.032	5.81
520.228	5.93
520.424	5.91
520.621	5.94
520.817	5.98
521.013	5.85
521.209	6.03
521.405	6.08
521.601	6.01
521.798	6.06
521.994	6
522.19	6
522.386	5.99
522.582	6.15
522.778	6.2
522.974	6.06
523.17	6.12
523.366	6.08
523.562	6.18
523.758	6.14
523.954	6.06
524.15	6.17
524.346	6.25
524.542	6.22
524.738	6.17
524.934	6.34
525.129	6.28
525.325	6.19
525.521	6.21
525.717	6.43
525.913	6.3
526.109	6.29
526.304	6.36
526.5	6.37
526.696	6.42
526.892	6.34
527.087	6.51
527.283	6.48
527.479	6.47
527.674	6.28
527.87	6.46
528.066	6.48
528.261	6.46
528.457	6.4
528.653	6.53
528.848	6.53
529.044	6.55
529.239	6.46
529.435	6.48
529.63	6.46
529.826	6.49
530.021	6.5
530.217	6.56
530.412	6.5
530.608	6.54
530.803	6.54
530.999	6.47
531.194	6.53
531.389	6.57
531.585	6.61
531.78	6.68
531.975	6.62
532.171	6.65
532.366	6.63
532.561	6.59
532.757	6.56
532.952	6.79
533.147	6.56
533.342	6.64
533.538	6.62
533.733	6.84
533.928	6.51
534.123	6.67
534.318	6.7
534.513	6.58
534.709	6.78
534.904	6.73
535.099	6.76
535.294	6.74
535.489	6.79
535.684	6.73
535.879	6.69
536.074	6.72
536.269	6.77
536.464	6.82
536.659	6.74
536.854	6.7
537.049	6.88
537.244	6.78
537.439	6.81
537.634	6.79
537.828	6.82
538.023	6.77
538.218	6.77
538.413	6.71
538.608	6.79
538.803	6.83
538.997	6.81
539.192	6.83
539.387	6.73
539.582	6.77
539.776	6.74
539.971	6.86
540.166	6.9
540.36	6.79
540.555	6.93
540.75	6.83
540.944	6.9
541.139	6.8
541.334	6.88
541.528	6.85
541.723	6.92
541.917	6.93
542.112	6.81
542.306	6.72
542.501	6.81
542.695	6.8
542.89	6.82
543.084	6.83
543.279	6.87
543.473	6.89
543.668	6.9
543.862	6.85
544.056	6.77
544.251	6.86
544.445	7
544.64	6.96
544.834	6.64
545.028	6.62
545.222	6.93
545.417	7.04
545.611	6.94
545.805	6.89
546	6.76
546.194	6.96
546.388	6.95
546.582	6.85
546.776	6.9
546.97	6.9
547.165	6.88
547.359	6.89
547.553	6.84
547.747	6.9
547.941	7.07
548.135	6.84
548.329	6.93
548.523	6.89
548.717	6.92
548.911	6.83
549.105	6.87
549.299	6.9
549.493	6.98
549.687	6.87
549.881	7.01
550.075	6.94
550.269	6.82
550.463	6.94
550.657	6.93
550.85	6.84
551.044	6.96
551.238	6.97
551.432	6.94
551.626	6.95
551.82	7.01
552.013	6.84
552.207	6.98
552.401	6.99
552.594	6.92
552.788	6.8
552.982	6.92
553.176	6.88
553.369	7.05
553.563	7.01
553.756	6.92
553.95	7.02
554.144	6.98
554.337	7
554.531	6.79
554.724	6.98
554.918	7
555.111	6.94
555.305	6.93
555.498	6.86
555.692	7.03
555.885	6.94
556.079	6.88
556.272	6.98
556.466	6.97
556.659	6.9
556.852	7.01
557.046	6.82
557.239	6.78
557.432	6.93
557.626	6.97
557.819	7.07
558.012	7.02
558.206	7.02
558.399	6.97
558.592	6.92
558.785	6.9
558.979	6.97
559.172	6.97
559.365	7
559.558	6.87
559.751	6.83
559.944	7.03
560.138	6.88
560.331	6.96
560.524	7.06
560.717	6.91
560.91	6.91
561.103	6.99
561.296	6.8
561.489	6.94
561.682	7.03
561.875	7.07
562.068	7.07
562.261	6.86
562.454	7.05
562.647	6.95
562.84	7.01
563.032	7.04
563.225	6.89
563.418	6.88
563.611	6.93
563.804	6.98
563.997	6.78
564.19	6.74
564.382	7
564.575	6.93
564.768	6.95
564.961	6.97
565.153	6.86
565.346	6.8
565.539	6.96
565.731	6.97
565.924	7.02
566.117	6.99
566.309	6.99
566.502	6.87
566.695	6.88
566.887	7
567.08	6.92
567.272	6.97
567.465	6.85
567.657	6.97
567.85	6.81
568.042	6.89
568.235	6.98
568.427	6.76
568.62	6.88
568.812	6.85
569.005	7
569.197	6.81
569.389	6.93
569.582	6.91
569.774	6.92
569.966	6.88
570.159	6.8
570.351	6.82
570.543	6.85
570.736	6.87
570.928	6.75
571.12	6.93
571.312	6.83
571.505	6.71
571.697	6.93
571.889	6.84
572.081	6.88
572.273	6.79
572.465	6.82
572.658	6.92
572.85	6.83
573.042	6.83
573.234	6.74
573.426	6.85
573.618	6.81
573.81	6.89
574.002	6.83
574.194	6.86
574.386	6.76
574.578	6.73
574.77	6.79
574.962	6.74
575.154	6.7
575.346	6.65
575.538	6.69
575.729	6.71
575.921	6.85
576.113	6.85
576.305	6.75
576.497	6.86
576.689	6.64
576.88	6.71
577.072	6.8
577.264	6.75
577.456	6.73
577.647	6.71
577.839	6.82
578.031	6.75
578.223	6.69
578.414	6.63
578.606	6.7
578.798	6.79
578.989	6.78
579.181	6.81
579.372	6.7
579.564	6.68
579.755	6.65
579.947	6.59
580.139	6.7
580.33	6.51
580.522	6.74
580.713	6.65
580.905	6.6
581.096	6.72
581.287	6.65
581.479	6.57
581.67	6.64
581.862	6.56
582.053	6.6
582.244	6.52
582.436	6.67
582.627	6.55
582.818	6.54
583.01	6.48
583.201	6.58
583.392	6.53
583.583	6.51
583.775	6.41
583.966	6.54
584.157	6.56
584.348	6.6
584.54	6.43
584.731	6.51
584.922	6.43
585.113	6.37
585.304	6.52
585.495	6.52
585.686	6.59
585.877	6.51
586.068	6.53
586.259	6.49
586.45	6.48
586.641	6.45
586.832	6.46
587.023	6.38
587.214	6.42
587.405	6.46
587.596	6.3
587.787	6.38
587.978	6.46
588.169	6.35
588.36	6.29
588.551	6.39
588.742	6.41
588.932	6.39
589.123	6.23
589.314	6.36
589.505	6.24
589.696	6.32
589.886	6.26
590.077	6.32
590.268	6.22
590.458	6.22
590.649	6.15
590.84	6.26
591.03	6.21
591.221	6.25
591.412	6.13
591.602	6.31
591.793	6.26
591.984	6.2
592.174	6.17
592.365	6.29
592.555	6.08
592.746	6.09
592.936	6.13
593.127	6.14
593.317	6.24
593.508	6.16
593.698	6.06
593.889	6.15
594.079	6.03
594.269	6.02
594.46	6.04
594.65	6.09
594.84	6.04
595.031	5.93
595.221	5.98
595.411	5.97
595.602	6.03
595.792	5.93
595.982	5.8
596.172	6.06
596.363	5.9
596.553	5.9
596.743	5.98
596.933	5.91
597.123	5.89
597.314	5.84
597.504	5.8
597.694	5.94
597.884	5.82
598.074	5.84
598.264	5.84
598.454	5.8
598.644	5.82
598.834	5.82
599.024	5.71
599.214	5.81
599.404	5.81
599.594	5.76
599.784	5.73
599.974	5.73
600.164	5.79
600.354	5.72
600.544	5.61
600.734	5.72
600.924	5.7
601.114	5.63
601.303	5.6
601.493	5.6
601.683	5.64
601.873	5.64
602.063	5.54
602.252	5.65
602.442	5.53
602.632	5.54
602.821	5.45
603.011	5.54
603.201	5.52
603.39	5.49
603.58	5.36
603.77	5.51
603.959	5.53
604.149	5.49
604.339	5.49
604.528	5.55
604.718	5.47
604.907	5.39
605.097	5.32
605.286	5.42
605.476	5.38
605.665	5.4
605.855	5.25
606.044	5.4
606.234	5.33
606.423	5.29
606.612	5.28
606.802	5.21
606.991	5.34
607.181	5.38
607.37	5.29
607.559	5.05
607.749	5.24
607.938	5.13
608.127	5.17
608.316	5.25
608.506	5.15
608.695	5.19
608.884	5.08
609.073	5.11
609.263	5.24
609.452	5.12
609.641	5.03
609.83	5.01
610.019	5.12
610.208	5.04
610.397	5.02
610.586	5.05
610.775	4.99
610.965	4.99
611.154	4.93
611.343	4.94
611.532	4.86
611.721	5.01
611.91	4.94
612.099	4.86
612.287	4.8
612.476	4.76
612.665	4.94
612.854	4.8
613.043	4.86
613.232	4.84
613.421	4.75
613.61	4.82
613.798	4.74
613.987	4.81
614.176	4.76
614.365	4.77
614.554	4.72
614.742	4.78
614.931	4.67
615.12	4.77
615.309	4.71
615.497	4.65
615.686	4.55
615.875	4.61
616.063	4.56
616.252	4.52
616.44	4.6
616.629	4.57
616.818	4.55
617.006	4.55
617.195	4.41
617.383	4.49
617.572	4.44
617.76	4.46
617.949	4.43
618.137	4.5
618.326	4.46
618.514	4.31
618.703	4.29
618.891	4.45
619.079	4.34
619.268	4.4
619.456	4.24
619.644	4.36
619.833	4.29
620.021	4.32
620.209	4.17
620.398	4.28
620.586	4.27
620.774	4.31
620.962	4.25
621.151	4.28
621.339	4.17
621.527	4.11
621.715	4.19
621.903	4.19
622.092	4.07
622.28	4.22
622.468	4.04
622.656	4.07
622.844	4.06
623.032	4.13
623.22	3.98
623.408	4.17
623.596	4
623.784	4.06
623.972	3.93
624.16	3.98
624.348	4.02
624.536	4.06
624.724	3.93
624.912	3.98
625.1	3.99
625.288	4.02
625.476	3.82
625.664	3.93
625.851	3.87
626.039	3.91
626.227	3.79
626.415	3.86
626.603	3.77
626.79	3.84
626.978	3.82
627.166	3.75
627.354	3.7
627.541	3.75
627.729	3.64
627.917	3.87
628.104	3.78
628.292	3.68
628.48	3.74
628.667	3.67
628.855	3.7
629.042	3.74
629.23	3.63
629.418	3.65
629.605	3.63
629.793	3.53
629.98	3.61
630.168	3.54
630.355	3.57
630.543	3.57
630.73	3.49
630.917	3.55
631.105	3.59
631.292	3.52
631.48	3.49
631.667	3.58
631.854	3.46
632.042	3.42
632.229	3.34
632.416	3.46
632.604	3.42
632.791	3.35
632.978	3.42
633.165	3.36
633.353	3.41
633.54	3.4
633.727	3.32
633.914	3.27
634.101	3.19
634.289	3.36
634.476	3.23
634.663	3.23
634.85	3.25
635.037	3.24
635.224	3.08
635.411	3.28
635.598	3.24
635.785	3.17
635.972	3.18
636.159	3.15
636.346	3.13
636.533	3.1
636.72	3.1
636.907	3.09
637.094	3.07
637.281	2.99
637.468	3.05
637.655	3.09
637.842	3.08
638.029	3.05
638.215	2.98
638.402	3.03
638.589	2.93
638.776	2.96
638.963	2.96
639.149	2.98
639.336	3.04
639.523	2.95
639.709	2.95
639.896	2.89
640.083	2.89
640.27	2.98
640.456	2.86
640.643	2.88
640.829	2.79
641.016	2.84
641.203	2.73
641.389	2.82
641.576	2.78
641.762	2.77
641.949	2.72
642.135	2.79
642.322	2.74
642.508	2.63
642.695	2.76
642.881	2.65
643.068	2.66
643.254	2.73
643.441	2.72
643.627	2.73
643.813	2.58
644	2.66
644.186	2.55
644.372	2.66
644.559	2.67
644.745	2.6
644.931	2.56
645.118	2.54
645.304	2.57
645.49	2.5
645.676	2.47
645.862	2.53
646.049	2.54
646.235	2.5
646.421	2.61
646.607	2.57
646.793	2.44
646.979	2.4
647.165	2.47
647.352	2.48
647.538	2.47
647.724	2.42
647.91	2.37
648.096	2.42
648.282	2.45
648.468	2.37
648.654	2.42
648.84	2.41
649.026	2.4
649.212	2.33
649.397	2.28
649.583	2.33
649.769	2.32
649.955	2.3
650.141	2.33
650.327	2.33
650.513	2.28
650.698	2.29
650.884	2.16
651.07	2.29
651.256	2.22
651.442	2.23
651.627	2.14
651.813	2.24
651.999	2.15
652.184	2.15
652.37	2.18
652.556	2.13
652.741	2.16
652.927	2.07
653.113	2.14
653.298	2.14
653.484	2.08
653.669	2.07
653.855	2.11
654.04	2.15
654.226	2.13
654.412	2.07
654.597	1.98
654.782	2.07
654.968	2.06
655.153	2.03
655.339	2.05
655.524	1.98
655.71	1.98
655.895	2.01
656.08	2.02
656.266	2.07
656.451	1.99
656.636	1.9
656.822	1.94
657.007	1.95
657.192	1.94
657.378	1.9
657.563	1.9
657.748	1.95
657.933	1.93
658.118	1.8
658.304	1.87
658.489	1.93
658.674	1.89
658.859	1.84
659.044	1.84
659.229	1.86
659.414	1.81
659.599	1.82
659.785	1.77
659.97	1.78
660.155	1.8
660.34	1.79
660.525	1.77
660.71	1.7
660.895	1.8
661.08	1.72
661.264	1.71
661.449	1.75
661.634	1.75
661.819	1.79
662.004	1.71
662.189	1.64
662.374	1.69
662.559	1.65
662.743	1.64
662.928	1.7
663.113	1.66
663.298	1.62
663.483	1.6
663.667	1.68
663.852	1.61
664.037	1.68
664.221	1.59
664.406	1.71
664.591	1.67
664.775	1.63
664.96	1.65
665.145	1.57
665.329	1.61
665.514	1.54
665.698	1.56
665.883	1.46
666.068	1.6
666.252	1.56
666.437	1.51
666.621	1.57
666.806	1.52
666.99	1.51
667.174	1.49
667.359	1.54
667.543	1.46
667.728	1.52
667.912	1.38
668.096	1.51
668.281	1.44
668.465	1.47
668.649	1.43
668.834	1.42
669.018	1.39
669.202	1.45
669.387	1.43
669.571	1.47
669.755	1.36
669.939	1.44
670.124	1.39
670.308	1.41
670.492	1.46
670.676	1.42
670.86	1.37
671.044	1.39
671.228	1.38
671.413	1.36
671.597	1.26
671.781	1.31
671.965	1.33
672.149	1.31
672.333	1.3
672.517	1.28
672.701	1.34
672.885	1.29
673.069	1.24
673.253	1.41
673.437	1.25
673.621	1.26
673.804	1.27
673.988	1.24
674.172	1.29
674.356	1.21
674.54	1.28
674.724	1.38
674.908	1.25
675.091	1.3
675.275	1.27
675.459	1.31
675.643	1.22
675.826	1.25
676.01	1.2
676.194	1.23
676.377	1.25
676.561	1.25
676.745	1.24
676.928	1.21
677.112	1.27
677.296	1.14
677.479	1.16
677.663	1.15
677.846	1.18
678.03	1.11
678.213	1.12
678.397	1.14
678.58	1.12
678.764	1.13
678.947	1.07
679.131	1.12
679.314	1.19
679.498	1.13
679.681	1.16
679.865	1.23
680.048	1.13
680.231	1.07
680.415	1.08
680.598	1.03
680.781	1.08
680.965	1.04
681.148	1.08
681.331	1.05
681.514	1.1
681.698	1.03
681.881	1.05
682.064	1.11
682.247	1.11
682.43	0.95
682.614	1.08
682.797	1.13
682.98	1.06
683.163	0.92
683.346	1.05
683.529	1
683.712	1.01
683.895	1.06
684.078	0.93
684.261	0.95
684.444	1.01
684.627	1
684.81	0.93
684.993	0.97
685.176	0.99
685.359	0.9
685.542	0.95
685.725	1.01
685.908	0.92
686.091	0.96
686.274	1.01
686.457	0.99
686.639	0.94
686.822	1
687.005	0.96
687.188	0.96
687.371	0.99
687.553	0.95
687.736	0.94
687.919	1.04
688.102	0.99
688.284	0.85
688.467	0.87
688.65	0.89
688.832	0.85
689.015	0.88
689.197	0.84
689.38	1.02
689.563	0.95
689.745	0.89
689.928	0.8
690.11	0.84
690.293	0.83
690.475	0.82
690.658	0.91
690.84	0.83
691.023	0.8
691.205	0.76
691.388	0.88
691.57	0.92
691.752	0.85
691.935	0.78
692.117	0.77
692.3	0.81
692.482	0.8
692.664	0.82
692.847	0.78
693.029	0.87
693.211	0.82
693.393	0.78
693.576	0.79
693.758	0.83
693.94	0.77
694.122	0.76
694.304	0.77
694.487	0.76
694.669	0.89
694.851	0.69
695.033	0.74
695.215	0.77
695.397	0.75
695.579	0.81
695.761	0.71
695.943	0.71
696.125	0.86
696.308	0.73
696.49	0.65
696.671	0.85
696.853	0.71
697.035	0.96
697.217	0.77
697.399	0.78
697.581	0.66
697.763	0.7
697.945	0.65
698.127	0.74
698.309	0.78
698.491	0.75
698.672	0.75
698.854	0.71
699.036	0.76
699.218	0.73
699.399	0.75
699.581	0.78
699.763	0.62
699.945	0.58
700.126	0.6
700.308	0.68
700.49	0.6
700.671	0.5
700.853	0.61
701.035	0.69
701.216	0.67
701.398	0.65
701.579	0.64
701.761	0.72
701.943	0.64
702.124	0.6
702.306	0.67
702.487	0.85
702.669	0.63
702.85	0.59
703.031	0.59
703.213	0.79
703.394	0.73
703.576	0.67
703.757	0.75
703.938	0.76
704.12	0.82
704.301	0.58
704.483	0.52
704.664	0.63
704.845	0.79
705.026	0.66
705.208	0.61
705.389	0.66
705.57	0.63
705.751	0.6
705.933	0.62
706.114	0.68
706.295	0.65
706.476	0.56
706.657	0.74
706.838	0.66
707.02	0.69
707.201	0.57
707.382	0.57
707.563	0.6
707.744	0.57
707.925	0.57
708.106	0.55
708.287	0.65
708.468	0.68
708.649	0.53
708.83	0.69
709.011	0.52
709.192	0.71
709.373	0.49
709.554	0.56
709.734	0.69
709.915	0.63
710.096	0.6
710.277	0.43
710.458	0.54
710.639	0.62
710.819	0.43
711	0.5
711.181	0.65
711.362	0.65
711.542	0.56
711.723	0.58
711.904	0.63
712.085	0.55
712.265	0.53
712.446	0.4
712.627	0.5
712.807	0.55
712.988	0.59
713.168	0.43
713.349	0.61
713.53	0.42
713.71	0.48
713.891	0.46
714.071	0.53
714.252	0.53
714.432	0.47
714.613	0.39
714.793	0.48
714.974	0.57
715.154	0.56
715.334	0.52
715.515	0.62
715.695	0.4
715.876	0.5
716.056	0.41
716.236	0.48
716.417	0.42
716.597	0.44
716.777	0.74
716.957	0.46
717.138	0.48
717.318	0.53
717.498	0.38
717.678	0.48
717.859	0.52
718.039	0.4
718.219	0.46
718.399	0.52
718.579	0.4
718.759	0.44
718.939	0.54
719.12	0.41
719.3	0.48
719.48	0.33
719.66	0.4
719.84	0.58
720.02	0.47
720.2	0.34
720.38	0.5
720.56	0.6
720.74	0.37
720.92	0.4
721.1	0.59
721.279	0.61
721.459	0.42
721.639	0.38
721.819	0.43
721.999	0.46
722.179	0.52
722.359	0.33
722.538	0.44
722.718	0.44
722.898	0.47
723.078	0.48
723.257	0.35
723.437	0.48
723.617	0.42
723.797	0.42
723.976	0.38
724.156	0.52
724.336	0.52
724.515	0.6
724.695	0.34
724.874	0.48
725.054	0.48
725.234	0.4
725.413	0.39
725.593	0.44
725.772	0.38
725.952	0.29
726.131	0.43
726.311	0.39
726.49	0.45
726.67	0.33
726.849	0.34
727.028	0.41
727.208	0.33
727.387	0.45
727.567	0.31
727.746	0.34
727.925	0.33
728.105	0.22
728.284	0.32
728.463	0.35
728.643	0.48
728.822	0.3
729.001	0.28
729.18	0.47
729.359	0.5
729.539	0.37
729.718	0.43
729.897	0.53
730.076	0.42
730.255	0.23
730.434	0.36
730.614	0.4
730.793	0.43
730.972	0.33
731.151	0.38
731.33	0.5
731.509	0.35
731.688	0.46
731.867	0.37
732.046	0.16
732.225	0.6
732.404	0.25
732.583	0.33
732.762	0.36
732.941	0.47
733.12	0.38
733.298	0.38
733.477	0.4
733.656	0.38
733.835	0.23
734.014	0.5
734.193	0.36
734.371	0.53
734.55	0.41
734.729	0.31
734.908	0.5
735.086	0.48
735.265	0.51
735.444	0.25
735.623	0.27
735.801	0.21
735.98	0.35
736.159	0.39
736.337	0.49
736.516	0.44
736.694	0.44
736.873	0.39
737.052	0.62
737.23	0.48
737.409	0.34
737.587	0.52
737.766	0.32
737.944	0.42
738.123	0.4
738.301	0.48
738.479	0.53
738.658	0.37
738.836	0.2
739.015	0.37
739.193	0.43
739.371	0.26
739.55	0.27
739.728	0.33
739.906	0.64
740.085	0.51
740.263	0.44
740.441	0.19
740.62	0.6
740.798	0.45
740.976	0.2
741.154	0.3
741.332	0.56
741.511	0.39
741.689	0.38
741.867	0.32
742.045	0.52
742.223	0.3
742.401	0.29
742.579	0.41
742.757	0.53
742.935	0.31
743.114	0.23
743.292	0.34
743.47	0.46
743.648	0.38
743.826	0.31
744.004	0.43
744.181	0.37
744.359	0.22
744.537	0.39
744.715	0.38
744.893	0.29
745.071	0.34
745.249	0.32
745.427	0.35
745.605	0.49
745.782	0.39
745.96	0.41
746.138	0.36
746.316	0.51
746.493	0.21
746.671	0.35
746.849	0.25
747.027	0.49
747.204	0.28
747.382	0.4
747.56	0.19
747.737	0.47
747.915	0.26
748.093	0.34
748.27	0.21
748.448	0.45
748.625	0.16
748.803	0.19
748.98	0.21
749.158	0.43
749.335	0.38
749.513	0.19
749.69	0.18
749.868	0.37
750.045	0.37
750.223	0.16
750.4	0.12
750.578	0.52
750.755	0.35
750.932	0.15
751.11	0.41
751.287	0.28
751.464	0.43
751.642	0.17
751.819	0.27
751.996	0.32
752.173	0.3
752.351	0.22
752.528	0.36
752.705	0.27
752.882	0.25
753.06	0.25
753.237	0.39
753.414	0.59
753.591	0.49
753.768	0.34
753.945	0.26
754.122	0.25
754.299	0.38
754.476	0.14
754.654	0.19
754.831	0.44
755.008	0.32
755.185	0.22
755.362	0.19
755.539	0.35
755.716	0.14
755.892	0.21
756.069	0.29
756.246	0.29
756.423	0.37
756.6	0.52
756.777	0.21
756.954	0.48
757.131	0.24
757.307	0.25
757.484	0.25
757.661	0.4
757.838	0.42
758.015	0.12
758.191	0.38
758.368	0.46
758.545	0.48
758.721	0.28
758.898	0.15
759.075	0.33
759.251	0.45
759.428	0.31
759.605	0.12
759.781	0.23
759.958	0.31
760.134	0.39
760.311	0.17
760.488	0.48
760.664	0.42
760.841	0.34
761.017	0.15
761.194	0.31
761.37	0.38
761.547	0.25
761.723	0.35
761.899	0.4
762.076	0.2
762.252	0.11
762.429	0.24
762.605	0.44
762.781	0.21
762.958	0.34
763.134	0.25
763.31	0.32
763.486	0.47
763.663	0.09
763.839	0.34
764.015	0.15
764.191	0.24
764.368	0.26
764.544	0.21
764.72	0.25
764.896	0.31
765.072	0.28
765.248	0.15
765.425	0.36
765.601	0.22
765.777	0.25
765.953	0.03
766.129	0.16
766.305	0.14
766.481	0.48
766.657	0.26
766.833	0.53
767.009	0.28
767.185	0.27
767.361	0.28
767.537	0.08
767.713	0.34
767.889	0.2
768.065	0.23
768.24	0.38
768.416	0.53
768.592	0.31
768.768	0.31
768.944	0.4
769.12	0.22
769.295	0.32
769.471	0.26
769.647	0.27
769.823	0.4
769.998	0.15
770.174	0.09
770.35	0.52
770.525	0.56
770.701	0.39
770.877	0.22
771.052	0.2
771.228	0.44
771.403	0.4
771.579	0.31
771.755	0.58
771.93	0.18
772.106	0.14
772.281	-0.07
772.457	0.21
772.632	0.3
772.808	0.15
772.983	0.19
773.159	0.18
773.334	0.36
773.509	0.34
773.685	0.18
773.86	0.69
774.036	0.61
774.211	0.49
774.386	0.21
774.562	0.3
774.737	0.48
774.912	0.22
775.087	0.35
775.263	0.26
775.438	0.38
775.613	0.2
775.788	0.3
775.964	0.26
776.139	0.83
776.314	0.04
776.489	0.37
776.664	0.18
776.839	0.14
777.014	0.4
777.19	0.36
777.365	0.62
777.54	0.53
777.715	0.14
777.89	0.23
778.065	0.17
778.24	0.41
778.415	0.44
778.59	0.17
778.765	0.25
778.94	0.42
779.115	0.23
779.289	0.26
779.464	0.23
779.639	0.23
779.814	0.04
779.989	0.08
780.164	0.46
780.339	0.23
780.513	0.09
780.688	0.04
780.863	0.2
781.038	0.47
781.212	0.18
781.387	0.17
781.562	0.58
781.737	0.36
781.911	0.59
782.086	0.07
782.261	0.33
782.435	0.57
782.61	0.23
782.784	0.32
782.959	0.45
783.134	0.27
783.308	0.13
783.483	0.23
783.657	0.8
783.832	0.43
784.006	-0.02
784.181	0.26
784.355	0.53
784.53	0.28
784.704	0.1
784.878	0.67
785.053	0.52
785.227	0.36
785.402	0.6
785.576	0.24
785.75	0.21
785.925	0.3
786.099	0.37
786.273	0.46
786.448	0.35
786.622	0.32
786.796	0.08
786.97	0.36
787.145	0.81
787.319	-0.04
787.493	0.23
787.667	-0.21
787.841	0.41
788.015	0.69
788.19	0.15
788.364	0.28
788.538	0.62
788.712	0.65
788.886	0.45
789.06	0.4
789.234	0.7
789.408	0.26
789.582	0.31
789.756	0.23
789.93	0.32
790.104	0.3
790.278	0.28
790.452	0.09
790.626	0.55
790.8	0.05
790.973	0.49
791.147	0.49
791.321	0.53
791.495	0.56
791.669	0.55
791.843	0.27
792.016	0.49
792.19	0.65
792.364	-0.2
792.538	1.01
792.711	0.56
792.885	0.14
793.059	0.14
793.233	-0.24
793.406	0.45
793.58	0.42
793.754	0.5
793.927	0.07
794.101	0.71
794.274	0.31
794.448	0.76
794.622	0.13
794.795	0.66
794.969	0.15
795.142	0.45
795.316	0.23
795.489	0.15
795.663	0.99
795.836	0.55
796.009	0.07
796.183	0.68
796.356	0.44
796.53	0.31
796.703	0.2
796.876	1.08
797.05	0.3
797.223	0.08
797.396	0.5
797.57	0.54
797.743	0.63
797.916	0.36
798.09	0.37
798.263	0.54
798.436	0.61
798.609	0.22
798.782	0.35
798.956	0.42
799.129	0.41
799.302	0.17
799.475	0.31
799.648	0.08
799.821	0.17
799.994	0.68
800.167	0.04
800.34	0.32
800.514	0.28
800.687	0.21
800.86	-0.03
801.033	0.27
801.206	0.79
801.379	0.17
801.551	0.55
801.724	0.58
801.897	0.8
802.07	0.24
802.243	-0.18
802.416	0.35
802.589	0.52
802.762	0.73
802.935	0.68
803.107	0.72
803.28	0.96
803.453	0.74
803.626	0.19
803.798	0.36
803.971	0.22
804.144	0.46
804.317	0.23
804.489	0.77
804.662	0.4
804.835	0.47
805.007	0.25
805.18	0.94
805.353	0.33
805.525	0.14
805.698	0.25
805.87	0.68
806.043	0.53
806.215	-0.04
806.388	0.26
806.56	0.65
806.733	0.69
806.905	0.62
807.078	-0.03
807.25	0.21
807.423	0.88
807.595	0.37
807.768	0.43
807.94	1.27
808.112	0.58
808.285	0.28
808.457	0.48
808.629	0.34
808.802	0.95
808.974	0.8
809.146	-0.22
809.318	0.24
809.491	0.68
809.663	0.78
809.835	0.01
810.007	0.34
810.18	0.45
810.352	0.12
810.524	0.23
810.696	0.64
810.868	0.72
811.04	0.08
811.212	0.5
811.384	0.86
811.556	0.9
811.728	0.34
811.901	1.21
812.073	0.37
812.245	0.67
812.417	0.67
812.589	-0.62
812.76	0.93
812.932	0.86
813.104	1.01
813.276	0.27
813.448	0.72
813.62	0.86
813.792	0.57
813.964	0.55
814.136	0.55
814.307	0.23
814.479	-0.02
814.651	0.18
814.823	1.27
814.995	0.28
815.166	0.7
815.338	0.66
815.51	0.02
815.681	1.29
815.853	0.45
816.025	0.26
816.196	1.26
816.368	1.34
816.54	-0.15
816.711	0.03
816.883	0.86
817.054	1.8
817.226	-0.35
817.398	0.55
817.569	0.21
817.741	0.6
817.912	0.07
818.084	0.41
818.255	0.92
818.426	0.51
818.598	0.63
818.769	0.38
818.941	0.72
819.112	1.39
819.283	0.78
819.455	0
819.626	0.41
819.798	0.84
819.969	0.31
820.14	0.48
820.311	0.11
820.483	0.62
820.654	0.71
820.825	0.84
820.996	0.25
821.168	0.11
821.339	0.46
821.51	0.26
821.681	0.76
821.852	0.89
822.023	0.08
822.195	0.69
822.366	1.17
822.537	0.46
822.708	0.65
822.879	0.29
823.05	0.61
823.221	0.21
823.392	0.52
823.563	0.81
823.734	0.87
823.905	0.45
824.076	0.13
824.247	-0.1
824.418	0.25
824.589	0.95
824.759	0.49
824.93	0.81
825.101	-0.04
825.272	1.16
825.443	0.93
825.614	1.07
825.784	0.21
825.955	1.82
826.126	1.71
826.297	0.59
826.467	2.18
826.638	1.49
826.809	-0.15
826.98	0.83
827.15	0.69
827.321	0.13
827.492	1.39
827.662	0.37
827.833	2.27
828.003	1.08
828.174	0.34
828.345	0.13
828.515	1.5
828.686	0.56
828.856	0.34
829.027	0.81
829.197	1.09
829.368	0.73
829.538	-0.11
829.709	0.4
829.879	1.1
830.049	0.74
830.22	0.53
830.39	0.49
830.56	0.81
830.731	0.54
830.901	-0.19
831.072	0.48
831.242	0.82
831.412	0.42
831.582	0.6
831.753	0
831.923	1.26
832.093	1.33
832.263	0.66
832.434	0.24
832.604	0.13
832.774	1.36
832.944	0.49
833.114	0.12
833.284	1.42
833.454	-0.27
833.624	0.36
833.795	0.48
833.965	1.6
834.135	1.65
834.305	-0.62
834.475	-0.54
834.645	0.48
834.815	-0.23
834.985	0.5
835.155	0.06
835.325	1.04
835.494	0.77
835.664	0.43
835.834	-0.22
836.004	1.02
836.174	0.83
836.344	1.09
836.514	-0.09
836.684	0.58
836.853	0.68
837.023	1.16
837.193	0.09
837.363	1.61
837.532	0.63
837.702	0.64
837.872	0.05
838.041	1.69
838.211	2.25
838.381	0.41
838.55	0.46
838.72	2.51
838.89	2.35
839.059	0.54
839.229	0.32
839.398	1.8
839.568	1.19
839.738	0.43
839.907	2.06
840.077	0.54
840.246	0.37
840.416	-0.3
840.585	-0.15
840.755	2.28
840.924	2.02
841.093	-0.39
841.263	-0.15
841.432	0.55
841.602	0.13
841.771	0.32
841.94	0.57
842.11	2.89
842.279	1.94
842.448	0.34
842.617	-0.17
842.787	2.3
842.956	-0.01
843.125	0.97
843.294	0.89
843.464	2.16
843.633	1.29
843.802	0.11
843.971	0.18
844.14	1.28
844.309	1.11
844.479	-0.6
844.648	-0.23
844.817	1.01
844.986	0.93
845.155	0.39
845.324	0.84
845.493	0.19
845.662	0.13
845.831	1.21
846	1.41
846.169	0.47
846.338	2.04
846.507	1.31
846.676	1.04
846.844	-0.12
847.013	2.36
847.182	0.14
847.351	-0.41
847.52	1.06
847.689	2.47
847.858	1.09
848.026	-0.45
848.195	1.42
848.364	0.38
848.533	0.27
848.701	0.22
848.87	1.36
849.039	1.74
849.207	1.8
849.376	2.11
849.545	2.52
849.713	0.81
849.882	0.33
850.051	-0.11
850.219	0.41
850.388	2.31
850.556	0.58
850.725	-0
850.893	1.26
851.062	0.78
851.23	1.11
851.399	-0.92
851.567	1.03
851.736	1.1
851.904	0.03
852.073	1
852.241	1.95
852.41	1
852.578	0.02
852.746	-0.09
852.915	0.91
853.083	1.16
853.251	-0.39
853.42	-0.19
853.588	0.82
853.756	2.14
853.924	0.42
854.093	0.16
854.261	0.46
854.429	-0.56
854.597	1.21
854.765	0.23
854.934	1.72
855.102	2.71
855.27	1.18
855.438	0.95
855.606	4.17
855.774	2.4
855.942	-1.14
856.11	-0.21
856.278	1.27
856.446	2.52
856.614	1.23
856.782	0.38
856.95	2.5
857.118	0.96
857.286	1.79
857.454	0.33
857.622	2.69
857.79	1.01
857.958	1.38
858.126	-0.24
858.294	-0.29
858.462	0.04
858.629	0.75
858.797	-0.91
858.965	1.4
859.133	0.37
859.301	0.04
859.468	0.81
859.636	0.44
859.804	3.76
859.971	2.49
860.139	0.2
860.307	3.09
860.474	0.51
860.642	0.39
860.81	-0.21
860.977	1.78
861.145	2.99
861.313	-0.46
861.48	0.5
861.648	1.93
861.815	0.88
861.983	-0.45
862.15	0.38
862.318	2.49
862.485	3.15
862.653	0.47
862.82	0.01
862.988	2.86
863.155	4.33
863.322	0.84
863.49	-0.37
863.657	0.4
863.824	3.9
863.992	2.31
864.159	0.19
864.326	1.75
864.494	-0.56
864.661	4.22
864.828	0.09
864.996	1.9
865.163	2.53
865.33	0.72
865.497	-1.33
865.664	0.87
865.832	-2.81
865.999	1.49
866.166	0.29
866.333	0.38
866.5	1.99
866.667	1.27
866.834	-0.39
867.001	2.44
867.168	0.19
867.335	0.32
867.502	-0.58
867.669	1.91
867.836	3.05
868.003	1.14
868.17	3.21
868.337	0.74
868.504	4
868.671	-1.28
868.838	0.61
869.005	2.56
869.172	1.44
869.339	1.95
869.505	1.43
869.672	3.2
869.839	3.97
870.006	0.66
870.173	1.78
870.339	2.19
870.506	2.77
870.673	1.27
870.84	2.14
871.006	0.88
871.173	0.74
871.34	0.06
871.506	0.57
871.673	2.3
871.839	0.37
872.006	1.27
872.173	0.41
872.339	0.62
872.506	2.15
872.672	2.36
872.839	-0.79
873.005	1.74
873.172	3.55
873.338	3.4
873.505	1.84
873.671	2
873.838	3.79
874.004	-1.23
874.171	-0.07
874.337	3.28
874.503	1.28
874.67	0.58
874.836	1.27
875.002	3.73
875.169	4.02
875.335	1.93
875.501	0.61
875.668	3.55
875.834	1.68
876	-0.24
876.166	2.5
876.332	1.77
876.499	4.67
876.665	-1.33
876.831	1.51
876.997	5.43
877.163	2.25
877.329	-0.23
877.495	1.24
877.662	1.57
877.828	2.32
877.994	1.28
878.16	-1.5
878.326	0.84
878.492	2.14
878.658	0.83
878.824	1.63
878.99	2.73
879.156	0.35
879.322	2.87
879.487	2.5
879.653	1.26
879.819	2.38
879.985	-0.08
880.151	1
880.317	0.76
880.483	0.63
880.648	1.6
880.814	0.63
880.98	1.51
881.146	-1.64
881.312	0.16
881.477	0.31
881.643	-0.19
881.809	3.89
881.974	1.7
882.14	-1.13
882.306	0.78
882.471	3.87
882.637	-0.03
882.803	4
882.968	4.15
883.134	4.91
883.299	0.95
883.465	1.08
883.63	3.87
883.796	3.68
883.961	3.33
884.127	2.26
884.292	-3.01
884.458	-1.58
884.623	-1.57
