Data from Apollo_Calib_20240827__AbsoluteIrradiance__839__13-08-01-249.txt Node

Date: Wed Aug 28 13:08:01 BST 2024
User: biology
Spectrometer: FLMT08252
Trigger mode: 0
Integration Time (sec): 5.000000E-1
Scans to average: 5
Electric dark correction enabled: true
Nonlinearity correction enabled: false
Boxcar width: 0
XAxis mode: Wavelengths
Number of Pixels in Spectrum: 3648
>>>>>Begin Spectral Data<<<<<
179.588	-0
179.809	-0
180.03	-0
180.251	-0
180.473	-0
180.694	0
180.915	0
181.136	-0
181.357	0
181.578	-0
181.799	-0
182.02	0
182.241	-0
182.462	-0
182.683	0
182.904	-0
183.125	-0
183.346	0
183.567	0
183.788	0
184.009	0
184.23	0
184.451	0
184.672	0
184.892	0
185.113	0
185.334	0
185.555	0
185.776	0
185.996	0
186.217	0
186.438	0
186.659	0
186.879	0
187.1	0
187.321	0
187.541	0
187.762	0
187.983	0
188.203	0
188.424	0
188.644	0
188.865	0
189.086	0
189.306	0
189.527	0
189.747	0
189.968	0
190.188	0
190.409	0
190.629	0
190.849	0
191.07	0
191.29	0
191.511	0
191.731	0
191.951	0
192.172	0
192.392	0
192.612	0
192.833	0
193.053	0
193.273	0
193.493	0
193.714	0
193.934	0
194.154	0
194.374	0
194.594	0
194.815	0
195.035	0
195.255	0
195.475	0
195.695	0
195.915	0
196.135	0
196.355	0
196.575	0
196.795	0
197.015	0
197.235	0
197.455	0
197.675	0
197.895	0
198.115	0
198.335	0
198.555	0
198.775	0
198.995	0
199.214	0
199.434	0
199.654	0
199.874	0
200.094	3.92
200.313	2.48
200.533	1.73
200.753	1.39
200.973	3.87
201.192	3.31
201.412	1.13
201.632	1.84
201.851	3.43
202.071	1.7
202.291	1.98
202.51	1.09
202.73	2.93
202.95	1.23
203.169	1.06
203.389	1.4
203.608	1.83
203.828	1.49
204.047	1.67
204.267	1.96
204.486	2.25
204.706	2.48
204.925	2.1
205.145	1.78
205.364	2.22
205.583	2.63
205.803	0.94
206.022	1.32
206.242	1.64
206.461	1.9
206.68	1.21
206.9	1.65
207.119	2.56
207.338	2.26
207.557	1.06
207.777	1.4
207.996	1.48
208.215	2.26
208.434	1.29
208.654	0.58
208.873	1.69
209.092	2.04
209.311	1.18
209.53	1.09
209.749	1.37
209.968	1.04
210.187	0.92
210.407	0.9
210.626	1.14
210.845	1.58
211.064	1.09
211.283	0.76
211.502	1.54
211.721	1.11
211.94	0.74
212.159	1.33
212.377	1.65
212.596	1.56
212.815	1.29
213.034	1.26
213.253	1.41
213.472	1.42
213.691	1.12
213.91	0.84
214.128	0.72
214.347	1.42
214.566	0.62
214.785	0.6
215.003	1.33
215.222	1.06
215.441	0.99
215.66	0.55
215.878	0.93
216.097	1.36
216.316	0.61
216.534	0.7
216.753	0.99
216.972	0.84
217.19	0.98
217.409	0.74
217.627	0.82
217.846	0.69
218.064	0.96
218.283	0.72
218.501	1.49
218.72	1.2
218.938	0.48
219.157	0.73
219.375	1.16
219.594	0.97
219.812	0.44
220.031	0.32
220.249	1.3
220.467	1.15
220.686	0.55
220.904	0.53
221.122	0.8
221.341	1.06
221.559	0.9
221.777	0.52
221.995	0.77
222.214	1.04
222.432	0.62
222.65	0.83
222.868	0.91
223.086	0.97
223.305	0.93
223.523	0.57
223.741	1.16
223.959	0.72
224.177	0.33
224.395	0.68
224.613	0.9
224.831	0.89
225.049	0.57
225.267	0.59
225.485	0.74
225.703	0.64
225.921	0.5
226.139	0.54
226.357	0.85
226.575	0.79
226.793	0.47
227.011	1.54
227.229	0.72
227.447	1.11
227.665	0.51
227.883	0.42
228.1	0.61
228.318	0.85
228.536	0.33
228.754	0.39
228.972	0.8
229.189	0.77
229.407	0.64
229.625	0.56
229.843	0.82
230.06	0.84
230.278	0.43
230.496	0.6
230.713	0.73
230.931	0.81
231.149	0.49
231.366	0.32
231.584	0.61
231.801	1.08
232.019	0.49
232.236	0.4
232.454	0.39
232.671	0.61
232.889	0.43
233.106	0.28
233.324	0.53
233.541	0.58
233.759	0.57
233.976	0.42
234.194	0.48
234.411	0.52
234.628	0.42
234.846	0.4
235.063	0.53
235.28	0.59
235.498	0.47
235.715	0.34
235.932	0.82
236.149	0.57
236.367	0.43
236.584	0.55
236.801	0.44
237.018	0.64
237.236	0.53
237.453	0.31
237.67	0.73
237.887	0.56
238.104	0.37
238.321	0.29
238.538	0.41
238.755	0.7
238.973	0.28
239.19	0.51
239.407	0.65
239.624	0.53
239.841	0.28
240.058	0.35
240.275	0.6
240.492	0.48
240.709	0.4
240.925	0.43
241.142	0.5
241.359	0.36
241.576	0.36
241.793	0.39
242.01	0.42
242.227	0.8
242.444	0.55
242.66	0.67
242.877	0.58
243.094	0.37
243.311	0.5
243.527	0.32
243.744	0.5
243.961	0.63
244.178	0.37
244.394	0.35
244.611	0.56
244.828	0.71
245.044	0.3
245.261	0.36
245.477	0.45
245.694	0.52
245.911	0.37
246.127	0.39
246.344	0.58
246.56	0.49
246.777	0.38
246.993	0.43
247.21	0.48
247.426	0.58
247.643	0.27
247.859	0.29
248.076	0.31
248.292	0.77
248.508	0.38
248.725	0.47
248.941	0.49
249.157	0.57
249.374	0.37
249.59	0.39
249.806	0.38
250.023	0.54
250.239	0.41
250.455	0.35
250.671	0.42
250.888	0.52
251.104	0.48
251.32	0.27
251.536	0.46
251.752	0.4
251.969	0.33
252.185	0.4
252.401	0.63
252.617	0.35
252.833	0.37
253.049	0.36
253.265	0.39
253.481	0.52
253.697	0.31
253.913	0.29
254.129	0.51
254.345	0.48
254.561	0.38
254.777	0.38
254.993	0.46
255.209	0.39
255.425	0.39
255.641	0.39
255.857	0.52
256.073	0.43
256.288	0.21
256.504	0.4
256.72	0.45
256.936	0.55
257.152	0.31
257.367	0.22
257.583	0.4
257.799	0.49
258.015	0.33
258.23	0.39
258.446	0.55
258.662	0.39
258.877	0.27
259.093	0.3
259.309	0.43
259.524	0.44
259.74	0.31
259.955	0.3
260.171	0.33
260.387	0.36
260.602	0.44
260.818	0.43
261.033	0.33
261.249	0.39
261.464	0.36
261.68	0.31
261.895	0.47
262.11	0.49
262.326	0.38
262.541	0.27
262.757	0.45
262.972	0.39
263.187	0.4
263.403	0.34
263.618	0.45
263.833	0.36
264.049	0.3
264.264	0.3
264.479	0.43
264.694	0.59
264.91	0.21
265.125	0.28
265.34	0.48
265.555	0.59
265.77	0.34
265.986	0.28
266.201	0.42
266.416	0.5
266.631	0.31
266.846	0.33
267.061	0.44
267.276	0.41
267.491	0.19
267.706	0.35
267.921	0.41
268.136	0.42
268.351	0.37
268.566	0.21
268.781	0.5
268.996	0.45
269.211	0.28
269.426	0.23
269.641	0.31
269.856	0.4
270.071	0.23
270.285	0.21
270.5	0.42
270.715	0.49
270.93	0.34
271.145	0.36
271.359	0.39
271.574	0.32
271.789	0.36
272.004	0.28
272.218	0.27
272.433	0.4
272.648	0.24
272.862	0.43
273.077	0.35
273.292	0.36
273.506	0.26
273.721	0.33
273.936	0.4
274.15	0.41
274.365	0.26
274.579	0.39
274.794	0.33
275.008	0.46
275.223	0.26
275.437	0.32
275.652	0.45
275.866	0.39
276.081	0.31
276.295	0.35
276.509	0.34
276.724	0.32
276.938	0.3
277.153	0.33
277.367	0.39
277.581	0.35
277.796	0.25
278.01	0.19
278.224	0.38
278.438	0.45
278.653	0.24
278.867	0.22
279.081	0.17
279.295	0.28
279.51	0.26
279.724	0.19
279.938	0.38
280.152	0.29
280.366	0.23
280.58	0.34
280.794	0.42
281.008	0.38
281.222	0.31
281.437	0.48
281.651	0.34
281.865	0.35
282.079	0.26
282.293	0.15
282.507	0.24
282.721	0.29
282.935	0.29
283.148	0.17
283.362	0.26
283.576	0.22
283.79	0.28
284.004	0.24
284.218	0.39
284.432	0.28
284.646	0.28
284.859	0.23
285.073	0.28
285.287	0.33
285.501	0.29
285.714	0.26
285.928	0.3
286.142	0.37
286.356	0.28
286.569	0.28
286.783	0.37
286.997	0.37
287.21	0.32
287.424	0.26
287.637	0.26
287.851	0.29
288.065	0.34
288.278	0.26
288.492	0.31
288.705	0.31
288.919	0.3
289.132	0.22
289.346	0.33
289.559	0.21
289.773	0.21
289.986	0.25
290.2	0.27
290.413	0.4
290.626	0.24
290.84	0.28
291.053	0.3
291.267	0.36
291.48	0.26
291.693	0.28
291.906	0.22
292.12	0.29
292.333	0.24
292.546	0.26
292.76	0.37
292.973	0.29
293.186	0.36
293.399	0.21
293.612	0.35
293.826	0.28
294.039	0.26
294.252	0.22
294.465	0.36
294.678	0.28
294.891	0.31
295.104	0.21
295.317	0.29
295.53	0.3
295.743	0.21
295.956	0.25
296.169	0.39
296.382	0.38
296.595	0.25
296.808	0.23
297.021	0.35
297.234	0.31
297.447	0.22
297.66	0.29
297.873	0.35
298.086	0.35
298.299	0.25
298.511	0.16
298.724	0.27
298.937	0.22
299.15	0.22
299.363	0.29
299.575	0.34
299.788	0.33
300.001	0.26
300.213	0.27
300.426	0.26
300.639	0.22
300.852	0.17
301.064	0.31
301.277	0.35
301.489	0.29
301.702	0.24
301.915	0.28
302.127	0.25
302.34	0.25
302.552	0.31
302.765	0.19
302.977	0.33
303.19	0.26
303.402	0.21
303.615	0.21
303.827	0.25
304.04	0.27
304.252	0.34
304.464	0.24
304.677	0.38
304.889	0.32
305.102	0.18
305.314	0.22
305.526	0.28
305.739	0.27
305.951	0.2
306.163	0.25
306.375	0.35
306.588	0.22
306.8	0.25
307.012	0.17
307.224	0.28
307.436	0.38
307.649	0.16
307.861	0.28
308.073	0.32
308.285	0.29
308.497	0.18
308.709	0.2
308.921	0.28
309.133	0.31
309.346	0.23
309.558	0.25
309.77	0.34
309.982	0.32
310.194	0.28
310.406	0.2
310.617	0.35
310.829	0.31
311.041	0.3
311.253	0.18
311.465	0.24
311.677	0.27
311.889	0.27
312.101	0.2
312.313	0.29
312.524	0.37
312.736	0.17
312.948	0.25
313.16	0.36
313.372	0.34
313.583	0.29
313.795	0.21
314.007	0.28
314.218	0.34
314.43	0.28
314.642	0.24
314.853	0.19
315.065	0.35
315.277	0.25
315.488	0.25
315.7	0.33
315.912	0.3
316.123	0.25
316.335	0.28
316.546	0.35
316.758	0.27
316.969	0.27
317.181	0.24
317.392	0.24
317.604	0.33
317.815	0.19
318.026	0.24
318.238	0.29
318.449	0.28
318.661	0.12
318.872	0.21
319.083	0.17
319.295	0.29
319.506	0.24
319.717	0.26
319.929	0.37
320.14	0.28
320.351	0.23
320.562	0.23
320.774	0.29
320.985	0.29
321.196	0.26
321.407	0.17
321.618	0.31
321.829	0.3
322.041	0.27
322.252	0.31
322.463	0.3
322.674	0.34
322.885	0.18
323.096	0.23
323.307	0.22
323.518	0.27
323.729	0.22
323.94	0.17
324.151	0.25
324.362	0.29
324.573	0.27
324.784	0.24
324.995	0.31
325.206	0.28
325.417	0.24
325.628	0.21
325.838	0.25
326.049	0.29
326.26	0.3
326.471	0.25
326.682	0.29
326.892	0.27
327.103	0.16
327.314	0.25
327.525	0.34
327.735	0.26
327.946	0.24
328.157	0.19
328.368	0.33
328.578	0.28
328.789	0.26
328.999	0.26
329.21	0.23
329.421	0.31
329.631	0.22
329.842	0.21
330.052	0.25
330.263	0.29
330.473	0.28
330.684	0.2
330.894	0.23
331.105	0.3
331.315	0.25
331.526	0.18
331.736	0.37
331.947	0.26
332.157	0.29
332.367	0.16
332.578	0.32
332.788	0.34
332.999	0.3
333.209	0.21
333.419	0.2
333.629	0.29
333.84	0.29
334.05	0.28
334.26	0.38
334.47	0.25
334.681	0.34
334.891	0.24
335.101	0.3
335.311	0.35
335.521	0.22
335.732	0.24
335.942	0.33
336.152	0.29
336.362	0.31
336.572	0.24
336.782	0.31
336.992	0.22
337.202	0.24
337.412	0.24
337.622	0.27
337.832	0.23
338.042	0.25
338.252	0.19
338.462	0.23
338.672	0.29
338.882	0.32
339.092	0.27
339.302	0.36
339.511	0.29
339.721	0.24
339.931	0.21
340.141	0.35
340.351	0.34
340.561	0.25
340.77	0.26
340.98	0.28
341.19	0.29
341.4	0.21
341.609	0.2
341.819	0.25
342.029	0.25
342.238	0.27
342.448	0.23
342.658	0.27
342.867	0.28
343.077	0.24
343.286	0.24
343.496	0.26
343.706	0.36
343.915	0.23
344.125	0.22
344.334	0.27
344.544	0.19
344.753	0.24
344.963	0.24
345.172	0.18
345.381	0.23
345.591	0.18
345.8	0.25
346.01	0.33
346.219	0.31
346.428	0.15
346.638	0.23
346.847	0.26
347.056	0.33
347.266	0.23
347.475	0.25
347.684	0.27
347.893	0.28
348.103	0.26
348.312	0.22
348.521	0.24
348.73	0.29
348.94	0.28
349.149	0.22
349.358	0.24
349.567	0.22
349.776	0.23
349.985	0.22
350.194	0.32
350.403	0.34
350.612	0.17
350.821	0.23
351.03	0.22
351.239	0.18
351.448	0.2
351.657	0.21
351.866	0.36
352.075	0.23
352.284	0.31
352.493	0.15
352.702	0.3
352.911	0.27
353.12	0.27
353.329	0.23
353.538	0.27
353.746	0.26
353.955	0.22
354.164	0.29
354.373	0.24
354.582	0.27
354.79	0.26
354.999	0.24
355.208	0.28
355.416	0.34
355.625	0.2
355.834	0.23
356.042	0.26
356.251	0.25
356.46	0.15
356.668	0.24
356.877	0.38
357.085	0.32
357.294	0.13
357.503	0.23
357.711	0.24
357.92	0.41
358.128	0.25
358.337	0.2
358.545	0.27
358.754	0.23
358.962	0.26
359.17	0.21
359.379	0.31
359.587	0.31
359.796	0.26
360.004	0.31
360.212	0.31
360.421	0.37
360.629	0.23
360.837	0.23
361.046	0.35
361.254	0.4
361.462	0.25
361.67	0.22
361.879	0.28
362.087	0.34
362.295	0.25
362.503	0.21
362.711	0.2
362.92	0.21
363.128	0.24
363.336	0.21
363.544	0.16
363.752	0.23
363.96	0.17
364.168	0.24
364.376	0.26
364.584	0.26
364.792	0.27
365	0.27
365.208	0.26
365.416	0.28
365.624	0.31
365.832	0.19
366.04	0.34
366.248	0.24
366.456	0.25
366.664	0.25
366.872	0.28
367.079	0.27
367.287	0.24
367.495	0.24
367.703	0.25
367.911	0.23
368.118	0.26
368.326	0.27
368.534	0.2
368.742	0.33
368.949	0.18
369.157	0.22
369.365	0.25
369.572	0.25
369.78	0.18
369.988	0.27
370.195	0.27
370.403	0.28
370.61	0.24
370.818	0.29
371.026	0.34
371.233	0.2
371.441	0.28
371.648	0.19
371.856	0.28
372.063	0.31
372.271	0.25
372.478	0.17
372.685	0.25
372.893	0.31
373.1	0.23
373.308	0.25
373.515	0.4
373.722	0.32
373.93	0.25
374.137	0.28
374.344	0.37
374.552	0.32
374.759	0.32
374.966	0.23
375.173	0.23
375.381	0.32
375.588	0.25
375.795	0.16
376.002	0.21
376.209	0.24
376.417	0.23
376.624	0.28
376.831	0.29
377.038	0.24
377.245	0.14
377.452	0.23
377.659	0.28
377.866	0.22
378.073	0.27
378.28	0.26
378.487	0.34
378.694	0.32
378.901	0.22
379.108	0.19
379.315	0.29
379.522	0.37
379.729	0.27
379.936	0.24
380.143	0.3
380.35	0.28
380.557	0.27
380.763	0.23
380.97	0.29
381.177	0.33
381.384	0.29
381.591	0.23
381.797	0.28
382.004	0.31
382.211	0.28
382.418	0.19
382.624	0.3
382.831	0.36
383.038	0.26
383.244	0.3
383.451	0.27
383.658	0.34
383.864	0.24
384.071	0.21
384.277	0.37
384.484	0.28
384.69	0.33
384.897	0.25
385.103	0.25
385.31	0.24
385.516	0.23
385.723	0.21
385.929	0.29
386.136	0.24
386.342	0.3
386.549	0.28
386.755	0.33
386.961	0.32
387.168	0.24
387.374	0.25
387.58	0.32
387.787	0.3
387.993	0.33
388.199	0.26
388.406	0.21
388.612	0.24
388.818	0.25
389.024	0.27
389.231	0.29
389.437	0.37
389.643	0.37
389.849	0.27
390.055	0.3
390.261	0.31
390.467	0.33
390.674	0.25
390.88	0.28
391.086	0.34
391.292	0.24
391.498	0.37
391.704	0.35
391.91	0.32
392.116	0.23
392.322	0.2
392.528	0.35
392.734	0.29
392.94	0.32
393.146	0.3
393.352	0.33
393.557	0.29
393.763	0.3
393.969	0.37
394.175	0.32
394.381	0.33
394.587	0.26
394.792	0.29
394.998	0.37
395.204	0.37
395.41	0.28
395.615	0.33
395.821	0.33
396.027	0.33
396.233	0.26
396.438	0.4
396.644	0.35
396.85	0.33
397.055	0.34
397.261	0.34
397.466	0.46
397.672	0.37
397.878	0.35
398.083	0.34
398.289	0.31
398.494	0.44
398.7	0.39
398.905	0.25
399.111	0.46
399.316	0.3
399.522	0.34
399.727	0.31
399.932	0.35
400.138	0.29
400.343	0.36
400.549	0.37
400.754	0.38
400.959	0.41
401.165	0.35
401.37	0.37
401.575	0.48
401.78	0.38
401.986	0.35
402.191	0.34
402.396	0.39
402.601	0.44
402.807	0.41
403.012	0.42
403.217	0.45
403.422	0.41
403.627	0.41
403.832	0.36
404.037	0.48
404.243	0.44
404.448	0.39
404.653	0.43
404.858	0.47
405.063	0.5
405.268	0.43
405.473	0.36
405.678	0.4
405.883	0.64
406.088	0.47
406.293	0.39
406.498	0.47
406.703	0.52
406.907	0.5
407.112	0.44
407.317	0.52
407.522	0.59
407.727	0.5
407.932	0.57
408.136	0.7
408.341	0.52
408.546	0.59
408.751	0.57
408.956	0.6
409.16	0.64
409.365	0.63
409.57	0.6
409.774	0.63
409.979	0.69
410.184	0.69
410.388	0.59
410.593	0.8
410.798	0.77
411.002	0.79
411.207	0.87
411.411	0.74
411.616	0.75
411.82	0.84
412.025	0.87
412.229	0.85
412.434	0.97
412.638	0.93
412.843	0.92
413.047	0.96
413.252	1
413.456	1.06
413.66	1.07
413.865	1.09
414.069	1.21
414.273	1.14
414.478	1.12
414.682	1.23
414.886	1.23
415.091	1.22
415.295	1.25
415.499	1.46
415.703	1.39
415.908	1.4
416.112	1.37
416.316	1.63
416.52	1.51
416.724	1.61
416.929	1.64
417.133	1.87
417.337	1.82
417.541	1.85
417.745	1.84
417.949	2.03
418.153	2.05
418.357	2.07
418.561	2.37
418.765	2.27
418.969	2.47
419.173	2.45
419.377	2.48
419.581	2.75
419.785	2.68
419.989	2.65
420.193	2.84
420.397	2.97
420.601	3.16
420.804	3.18
421.008	3.14
421.212	3.31
421.416	3.37
421.62	3.32
421.823	3.41
422.027	3.58
422.231	3.6
422.435	3.56
422.638	3.64
422.842	3.79
423.046	3.82
423.249	4
423.453	4
423.657	4.19
423.86	4.28
424.064	4.45
424.268	4.55
424.471	4.6
424.675	4.84
424.878	4.89
425.082	5.02
425.285	5.32
425.489	5.19
425.692	5.28
425.896	5.35
426.099	5.66
426.303	5.76
426.506	5.76
426.71	6.03
426.913	6.28
427.116	6.47
427.32	6.42
427.523	6.57
427.726	6.93
427.93	6.86
428.133	7.3
428.336	7.38
428.54	7.52
428.743	7.72
428.946	8.06
429.149	8.05
429.353	7.99
429.556	8.1
429.759	8.22
429.962	8.33
430.165	8.42
430.368	8.16
430.571	8.13
430.775	8.14
430.978	8.08
431.181	8.26
431.384	8.37
431.587	8.45
431.79	8.8
431.993	8.75
432.196	9.13
432.399	9.51
432.602	9.53
432.805	9.76
433.008	10.12
433.211	10.1
433.414	10.46
433.616	10.47
433.819	10.45
434.022	10.5
434.225	10.83
434.428	10.77
434.631	11.17
434.833	10.96
435.036	11.2
435.239	11.5
435.442	11.43
435.645	11.58
435.847	11.71
436.05	12.03
436.253	12.19
436.455	12.3
436.658	12.12
436.861	12.55
437.063	12.61
437.266	12.54
437.468	12.91
437.671	13.31
437.874	13.18
438.076	13.14
438.279	13.58
438.481	13.69
438.684	14.41
438.886	14.01
439.089	14.31
439.291	14.26
439.494	14.68
439.696	14.8
439.899	15.36
440.101	15.75
440.303	15.96
440.506	16.78
440.708	16.36
440.91	16.79
441.113	16.84
441.315	17.16
441.517	16.91
441.72	17.46
441.922	16.99
442.124	16.95
442.326	17.16
442.529	17.64
442.731	17.54
442.933	17.85
443.135	17.53
443.337	17.67
443.539	18.17
443.742	17.91
443.944	18.35
444.146	18.21
444.348	18.25
444.55	17.96
444.752	18.18
444.954	18.23
445.156	18.19
445.358	18.59
445.56	18.82
445.762	18.62
445.964	19.03
446.166	18.6
446.368	18.65
446.57	18.73
446.772	18.16
446.974	18.15
447.175	18.49
447.377	18.15
447.579	18.38
447.781	18.03
447.983	17.95
448.184	17.49
448.386	17.76
448.588	17.23
448.79	17.17
448.991	17.52
449.193	17.53
449.395	16.76
449.597	16.36
449.798	16.4
450	15.9
450.202	15.79
450.403	15.8
450.605	15.81
450.806	15.25
451.008	15.06
451.21	14.9
451.411	14.48
451.613	13.68
451.814	14.01
452.016	14.03
452.217	13.26
452.419	13.19
452.62	12.83
452.821	12.67
453.023	12.48
453.224	12.1
453.426	11.8
453.627	10.94
453.828	11.02
454.03	11.13
454.231	11.26
454.432	10.96
454.634	10.74
454.835	10.48
455.036	10.3
455.238	9.95
455.439	9.79
455.64	9.42
455.841	9.3
456.042	9.44
456.244	9.07
456.445	8.82
456.646	8.56
456.847	8.42
457.048	8.35
457.249	8.4
457.45	8.23
457.651	7.52
457.852	7.53
458.054	7.18
458.255	7.12
458.456	7.17
458.657	7.16
458.858	6.59
459.058	6.62
459.259	6.67
459.46	6.32
459.661	6.35
459.862	6.43
460.063	6.29
460.264	6.18
460.465	5.89
460.666	6.05
460.866	5.63
461.067	5.47
461.268	5.54
461.469	5.41
461.67	5.34
461.87	5.13
462.071	5.11
462.272	5.12
462.473	5.09
462.673	5.3
462.874	5.12
463.075	5.09
463.275	5.1
463.476	5.08
463.676	5.05
463.877	4.89
464.078	4.84
464.278	4.91
464.479	4.71
464.679	4.72
464.88	4.64
465.08	4.61
465.281	4.44
465.481	4.31
465.682	4.17
465.882	4.21
466.083	4.05
466.283	3.94
466.483	3.89
466.684	3.76
466.884	3.64
467.085	3.61
467.285	3.7
467.485	3.51
467.686	3.45
467.886	3.44
468.086	3.33
468.286	3.32
468.487	3.38
468.687	3.21
468.887	3.2
469.087	3.36
469.287	3.15
469.488	3.03
469.688	3.19
469.888	3.17
470.088	3.11
470.288	3.08
470.488	3
470.688	2.85
470.888	2.81
471.088	2.65
471.288	2.8
471.488	2.73
471.688	2.71
471.888	2.63
472.088	2.78
472.288	2.77
472.488	2.55
472.688	2.54
472.888	2.59
473.088	2.55
473.288	2.46
473.488	2.41
473.688	2.62
473.887	2.43
474.087	2.36
474.287	2.47
474.487	2.34
474.687	2.36
474.886	2.3
475.086	2.32
475.286	2.31
475.486	2.26
475.685	2.19
475.885	2.17
476.085	2.24
476.284	2.29
476.484	2.21
476.684	2.19
476.883	2.28
477.083	2.16
477.282	2.1
477.482	2.15
477.681	2.16
477.881	2.1
478.08	2.1
478.28	2.04
478.479	2.14
478.679	2.11
478.878	2
479.078	2.03
479.277	2.05
479.477	2.04
479.676	2
479.875	1.99
480.075	1.96
480.274	2.01
480.473	2.03
480.673	1.97
480.872	2.09
481.071	2.02
481.271	2.03
481.47	2
481.669	2.01
481.868	1.97
482.067	1.96
482.267	1.86
482.466	1.94
482.665	1.91
482.864	1.96
483.063	1.89
483.262	2.01
483.461	2.01
483.661	2.07
483.86	2.01
484.059	2.08
484.258	2.01
484.457	1.97
484.656	2
484.855	2.08
485.054	1.93
485.253	1.95
485.452	1.9
485.651	2.07
485.849	2
486.048	2
486.247	2.03
486.446	2.05
486.645	2.03
486.844	2.02
487.043	2.05
487.241	2.08
487.44	2.05
487.639	2.13
487.838	2.1
488.037	2.13
488.235	2.21
488.434	2.14
488.633	2.03
488.831	2.22
489.03	2.2
489.229	2.23
489.427	2.21
489.626	2.27
489.825	2.28
490.023	2.26
490.222	2.27
490.42	2.34
490.619	2.35
490.817	2.36
491.016	2.34
491.214	2.4
491.413	2.39
491.611	2.38
491.81	2.36
492.008	2.45
492.207	2.56
492.405	2.51
492.604	2.51
492.802	2.6
493	2.59
493.199	2.57
493.397	2.64
493.595	2.69
493.794	2.68
493.992	2.8
494.19	2.77
494.388	2.86
494.587	2.73
494.785	2.83
494.983	2.69
495.181	2.89
495.379	2.91
495.578	2.97
495.776	2.95
495.974	2.91
496.172	2.96
496.37	3.06
496.568	3.1
496.766	3.08
496.964	3.21
497.162	3.22
497.36	3.22
497.558	3.23
497.756	3.32
497.954	3.3
498.152	3.34
498.35	3.44
498.548	3.32
498.746	3.37
498.944	3.4
499.142	3.45
499.34	3.54
499.538	3.62
499.736	3.53
499.933	3.65
500.131	3.67
500.329	3.82
500.527	3.78
500.725	3.87
500.922	3.9
501.12	3.88
501.318	3.93
501.516	3.96
501.713	4.05
501.911	3.99
502.109	3.95
502.306	4.06
502.504	4.01
502.701	4.12
502.899	4.17
503.097	4.37
503.294	4.23
503.492	4.37
503.689	4.36
503.887	4.41
504.084	4.46
504.282	4.44
504.479	4.44
504.677	4.59
504.874	4.55
505.072	4.47
505.269	4.68
505.466	4.7
505.664	4.76
505.861	4.67
506.059	4.79
506.256	4.8
506.453	4.86
506.651	4.99
506.848	4.97
507.045	5.02
507.242	4.98
507.44	4.96
507.637	5.08
507.834	5.14
508.031	5.19
508.229	5.17
508.426	5.17
508.623	5.33
508.82	5.31
509.017	5.26
509.214	5.28
509.411	5.45
509.608	5.37
509.805	5.47
510.003	5.43
510.2	5.55
510.397	5.7
510.594	5.56
510.791	5.63
510.988	5.67
511.184	5.66
511.381	5.54
511.578	5.66
511.775	5.86
511.972	5.82
512.169	5.86
512.366	5.82
512.563	5.93
512.76	6.01
512.956	6.01
513.153	6.02
513.35	5.99
513.547	5.92
513.744	6.11
513.94	6.03
514.137	6.2
514.334	6.11
514.53	6.16
514.727	6.37
514.924	6.29
515.12	6.26
515.317	6.31
515.514	6.21
515.71	6.18
515.907	6.46
516.103	6.44
516.3	6.4
516.497	6.47
516.693	6.5
516.89	6.57
517.086	6.48
517.283	6.54
517.479	6.52
517.676	6.68
517.872	6.63
518.068	6.66
518.265	6.68
518.461	6.6
518.658	6.74
518.854	6.73
519.05	6.85
519.247	6.85
519.443	6.76
519.639	6.91
519.836	6.76
520.032	6.77
520.228	6.88
520.424	6.92
520.621	6.97
520.817	7.01
521.013	6.94
521.209	7.14
521.405	7.12
521.601	7.08
521.798	7.05
521.994	7.11
522.19	6.95
522.386	7.04
522.582	7.13
522.778	7.27
522.974	7.14
523.17	7.19
523.366	7.13
523.562	7.24
523.758	7.21
523.954	7.07
524.15	7.26
524.346	7.31
524.542	7.26
524.738	7.23
524.934	7.36
525.129	7.22
525.325	7.29
525.521	7.27
525.717	7.48
525.913	7.37
526.109	7.39
526.304	7.51
526.5	7.46
526.696	7.42
526.892	7.38
527.087	7.62
527.283	7.57
527.479	7.54
527.674	7.37
527.87	7.48
528.066	7.54
528.261	7.52
528.457	7.47
528.653	7.62
528.848	7.65
529.044	7.64
529.239	7.55
529.435	7.57
529.63	7.53
529.826	7.6
530.021	7.61
530.217	7.62
530.412	7.63
530.608	7.66
530.803	7.67
530.999	7.56
531.194	7.66
531.389	7.73
531.585	7.71
531.78	7.8
531.975	7.75
532.171	7.84
532.366	7.77
532.561	7.76
532.757	7.83
532.952	7.91
533.147	7.71
533.342	7.83
533.538	7.75
533.733	7.94
533.928	7.65
534.123	7.82
534.318	7.89
534.513	7.74
534.709	7.94
534.904	7.85
535.099	7.97
535.294	7.92
535.489	7.92
535.684	7.88
535.879	7.84
536.074	7.93
536.269	7.97
536.464	7.91
536.659	7.87
536.854	7.93
537.049	8.02
537.244	7.89
537.439	7.92
537.634	7.96
537.828	8.01
538.023	7.98
538.218	7.97
538.413	7.9
538.608	7.93
538.803	7.96
538.997	7.9
539.192	7.97
539.387	7.95
539.582	7.91
539.776	7.85
539.971	8.03
540.166	8.08
540.36	7.98
540.555	8.1
540.75	7.95
540.944	8.03
541.139	8.04
541.334	8.01
541.528	7.99
541.723	8.08
541.917	8.11
542.112	7.97
542.306	7.89
542.501	7.93
542.695	8.04
542.89	7.95
543.084	7.99
543.279	8.11
543.473	8.1
543.668	8.09
543.862	7.97
544.056	7.96
544.251	8.15
544.445	8.15
544.64	8.19
544.834	7.85
545.028	7.75
545.222	8.11
545.417	8.23
545.611	8.13
545.805	8.04
546	7.91
546.194	8.06
546.388	8.14
546.582	8
546.776	8.02
546.97	8.09
547.165	8.09
547.359	8.02
547.553	7.98
547.747	7.96
547.941	8.26
548.135	8.03
548.329	8.11
548.523	8.06
548.717	8.08
548.911	8.1
549.105	8.02
549.299	8.13
549.493	8.14
549.687	8.05
549.881	8.22
550.075	8.16
550.269	8.03
550.463	8.16
550.657	8.14
550.85	8.07
551.044	8.07
551.238	8.19
551.432	8.09
551.626	8.16
551.82	8.19
552.013	8.06
552.207	8.22
552.401	8.2
552.594	8.08
552.788	8.01
552.982	8.03
553.176	8.08
553.369	8.22
553.563	8.15
553.756	8.12
553.95	8.12
554.144	8.19
554.337	8.17
554.531	7.94
554.724	8.18
554.918	8.16
555.111	8.09
555.305	8.14
555.498	8.07
555.692	8.19
555.885	8.2
556.079	8.05
556.272	8.1
556.466	8.11
556.659	8.06
556.852	8.18
557.046	8
557.239	8.02
557.432	8.08
557.626	8.17
557.819	8.2
558.012	8.15
558.206	8.21
558.399	8.11
558.592	8.09
558.785	8.09
558.979	8.12
559.172	8.16
559.365	8.11
559.558	8.08
559.751	8.07
559.944	8.26
560.138	8.12
560.331	8.16
560.524	8.17
560.717	8.08
560.91	8.08
561.103	8.14
561.296	8.05
561.489	8.16
561.682	8.19
561.875	8.14
562.068	8.29
562.261	8
562.454	8.3
562.647	8.13
562.84	8.15
563.032	8.17
563.225	8.07
563.418	8.09
563.611	8.16
563.804	8.15
563.997	8
564.19	7.86
564.382	8.17
564.575	8.09
564.768	8.03
564.961	8.2
565.153	8.04
565.346	8
565.539	8.18
565.731	8.1
565.924	8.19
566.117	8.29
566.309	8.14
566.502	8.08
566.695	8.03
566.887	8.13
567.08	8.11
567.272	8.18
567.465	8.02
567.657	8.11
567.85	8.02
568.042	8.08
568.235	8.11
568.427	7.95
568.62	8.08
568.812	8.03
569.005	8.1
569.197	7.98
569.389	8.14
569.582	8.07
569.774	8.09
569.966	7.98
570.159	7.93
570.351	7.89
570.543	8.04
570.736	8.01
570.928	7.88
571.12	8.06
571.312	7.95
571.505	7.81
571.697	7.98
571.889	8.04
572.081	8.01
572.273	7.98
572.465	8.01
572.658	8
572.85	7.99
573.042	8.06
573.234	7.94
573.426	7.97
573.618	7.98
573.81	8.05
574.002	7.96
574.194	7.99
574.386	7.94
574.578	7.77
574.77	7.9
574.962	7.97
575.154	7.85
575.346	7.81
575.538	7.88
575.729	7.86
575.921	7.96
576.113	8
576.305	7.97
576.497	8.09
576.689	7.81
576.88	7.81
577.072	7.93
577.264	7.91
577.456	7.96
577.647	7.83
577.839	8.03
578.031	7.87
578.223	7.83
578.414	7.78
578.606	7.85
578.798	7.93
578.989	7.86
579.181	7.99
579.372	7.84
579.564	7.81
579.755	7.79
579.947	7.73
580.139	7.84
580.33	7.63
580.522	7.8
580.713	7.72
580.905	7.8
581.096	7.82
581.287	7.75
581.479	7.75
581.67	7.83
581.862	7.73
582.053	7.69
582.244	7.59
582.436	7.79
582.627	7.69
582.818	7.65
583.01	7.59
583.201	7.73
583.392	7.61
583.583	7.63
583.775	7.52
583.966	7.59
584.157	7.68
584.348	7.71
584.54	7.56
584.731	7.61
584.922	7.61
585.113	7.46
585.304	7.61
585.495	7.6
585.686	7.68
585.877	7.66
586.068	7.72
586.259	7.59
586.45	7.51
586.641	7.54
586.832	7.59
587.023	7.48
587.214	7.45
587.405	7.6
587.596	7.44
587.787	7.37
587.978	7.49
588.169	7.41
588.36	7.43
588.551	7.39
588.742	7.42
588.932	7.53
589.123	7.26
589.314	7.51
589.505	7.41
589.696	7.34
589.886	7.4
590.077	7.4
590.268	7.3
590.458	7.22
590.649	7.15
590.84	7.35
591.03	7.31
591.221	7.27
591.412	7.18
591.602	7.34
591.793	7.23
591.984	7.23
592.174	7.28
592.365	7.37
592.555	7.17
592.746	7.15
592.936	7.13
593.127	7.26
593.317	7.25
593.508	7.25
593.698	7.1
593.889	7.11
594.079	7.14
594.269	7.05
594.46	7.08
594.65	7.17
594.84	7.13
595.031	6.96
595.221	6.99
595.411	7.01
595.602	7.09
595.792	7.03
595.982	6.89
596.172	7.05
596.363	6.92
596.553	6.96
596.743	6.97
596.933	6.96
597.123	6.9
597.314	6.82
597.504	6.75
597.694	6.93
597.884	6.83
598.074	6.87
598.264	6.82
598.454	6.83
598.644	6.78
598.834	6.8
599.024	6.73
599.214	6.74
599.404	6.78
599.594	6.77
599.784	6.66
599.974	6.72
600.164	6.75
600.354	6.61
600.544	6.56
600.734	6.67
600.924	6.66
601.114	6.49
601.303	6.55
601.493	6.59
601.683	6.62
601.873	6.64
602.063	6.44
602.252	6.54
602.442	6.4
602.632	6.38
602.821	6.37
603.011	6.55
603.201	6.47
603.39	6.42
603.58	6.36
603.77	6.44
603.959	6.49
604.149	6.41
604.339	6.4
604.528	6.42
604.718	6.39
604.907	6.31
605.097	6.26
605.286	6.2
605.476	6.28
605.665	6.29
605.855	6.22
606.044	6.31
606.234	6.26
606.423	6.2
606.612	6.21
606.802	6.13
606.991	6.24
607.181	6.24
607.37	6.19
607.559	5.98
607.749	6.16
607.938	6.01
608.127	5.98
608.316	6.07
608.506	6.05
608.695	6.1
608.884	6
609.073	6.05
609.263	6.1
609.452	6.04
609.641	5.88
609.83	5.85
610.019	5.98
610.208	5.87
610.397	5.85
610.586	5.85
610.775	5.84
610.965	5.85
611.154	5.68
611.343	5.81
611.532	5.74
611.721	5.82
611.91	5.63
612.099	5.69
612.287	5.65
612.476	5.61
612.665	5.83
612.854	5.61
613.043	5.69
613.232	5.62
613.421	5.56
613.61	5.59
613.798	5.58
613.987	5.59
614.176	5.56
614.365	5.52
614.554	5.57
614.742	5.53
614.931	5.35
615.12	5.63
615.309	5.5
615.497	5.41
615.686	5.34
615.875	5.41
616.063	5.41
616.252	5.32
616.44	5.35
616.629	5.36
616.818	5.26
617.006	5.21
617.195	5.28
617.383	5.23
617.572	5.18
617.76	5.16
617.949	5.2
618.137	5.26
618.326	5.35
618.514	5.01
618.703	5.05
618.891	5.19
619.079	5.08
619.268	5.18
619.456	5.08
619.644	5.11
619.833	5.05
620.021	5
620.209	4.94
620.398	4.99
620.586	4.91
620.774	4.95
620.962	4.96
621.151	5.04
621.339	4.95
621.527	4.82
621.715	4.84
621.903	4.84
622.092	4.81
622.28	4.9
622.468	4.67
622.656	4.77
622.844	4.85
623.032	4.88
623.22	4.69
623.408	4.86
623.596	4.74
623.784	4.77
623.972	4.65
624.16	4.63
624.348	4.77
624.536	4.72
624.724	4.57
624.912	4.69
625.1	4.65
625.288	4.58
625.476	4.51
625.664	4.6
625.851	4.5
626.039	4.5
626.227	4.51
626.415	4.48
626.603	4.43
626.79	4.47
626.978	4.46
627.166	4.5
627.354	4.37
627.541	4.37
627.729	4.28
627.917	4.47
628.104	4.42
628.292	4.28
628.48	4.33
628.667	4.29
628.855	4.4
629.042	4.47
629.23	4.29
629.418	4.23
629.605	4.24
629.793	4.18
629.98	4.18
630.168	4.13
630.355	4.27
630.543	4.17
630.73	4.08
630.917	4.14
631.105	4.26
631.292	4.1
631.48	4.15
631.667	4.19
631.854	4.06
632.042	4.02
632.229	3.97
632.416	4.05
632.604	3.97
632.791	3.92
632.978	4.02
633.165	3.97
633.353	4.1
633.54	3.98
633.727	3.84
633.914	3.86
634.101	3.8
634.289	3.92
634.476	3.79
634.663	3.75
634.85	3.77
635.037	3.76
635.224	3.66
635.411	3.83
635.598	3.86
635.785	3.7
635.972	3.71
636.159	3.7
636.346	3.64
636.533	3.62
636.72	3.68
636.907	3.6
637.094	3.66
637.281	3.5
637.468	3.6
637.655	3.59
637.842	3.62
638.029	3.5
638.215	3.57
638.402	3.55
638.589	3.47
638.776	3.41
638.963	3.49
639.149	3.54
639.336	3.6
639.523	3.44
639.709	3.48
639.896	3.38
640.083	3.45
640.27	3.45
640.456	3.41
640.643	3.39
640.829	3.25
641.016	3.32
641.203	3.28
641.389	3.4
641.576	3.33
641.762	3.24
641.949	3.19
642.135	3.27
642.322	3.27
642.508	3.13
642.695	3.21
642.881	3.14
643.068	3.16
643.254	3.18
643.441	3.14
643.627	3.2
643.813	3.07
644	3.19
644.186	3.01
644.372	3.03
644.559	3.1
644.745	3.04
644.931	3.04
645.118	3.03
645.304	3.08
645.49	2.99
645.676	2.92
645.862	2.99
646.049	3
646.235	2.97
646.421	3.09
646.607	3.06
646.793	2.9
646.979	2.84
647.165	2.92
647.352	2.91
647.538	2.93
647.724	2.86
647.91	2.84
648.096	2.91
648.282	2.86
648.468	2.79
648.654	2.81
648.84	2.78
649.026	2.8
649.212	2.72
649.397	2.63
649.583	2.72
649.769	2.72
649.955	2.69
650.141	2.73
650.327	2.76
650.513	2.65
650.698	2.68
650.884	2.53
651.07	2.68
651.256	2.64
651.442	2.63
651.627	2.56
651.813	2.67
651.999	2.57
652.184	2.59
652.37	2.56
652.556	2.59
652.741	2.62
652.927	2.46
653.113	2.49
653.298	2.44
653.484	2.49
653.669	2.43
653.855	2.45
654.04	2.5
654.226	2.38
654.412	2.43
654.597	2.36
654.782	2.41
654.968	2.48
655.153	2.44
655.339	2.36
655.524	2.32
655.71	2.4
655.895	2.33
656.08	2.36
656.266	2.43
656.451	2.32
656.636	2.27
656.822	2.33
657.007	2.29
657.192	2.31
657.378	2.28
657.563	2.29
657.748	2.26
657.933	2.28
658.118	2.23
658.304	2.18
658.489	2.27
658.674	2.23
658.859	2.13
659.044	2.15
659.229	2.17
659.414	2.16
659.599	2.19
659.785	2.08
659.97	2.1
660.155	2.18
660.34	2.15
660.525	2.07
660.71	2.07
660.895	2.13
661.08	2.12
661.264	1.98
661.449	2.15
661.634	2.03
661.819	2.07
662.004	1.99
662.189	1.92
662.374	2.02
662.559	1.99
662.743	1.93
662.928	2.03
663.113	1.92
663.298	1.97
663.483	1.93
663.667	1.9
663.852	1.89
664.037	1.98
664.221	1.87
664.406	1.94
664.591	1.99
664.775	1.92
664.96	1.87
665.145	1.86
665.329	1.97
665.514	1.82
665.698	1.81
665.883	1.76
666.068	1.9
666.252	1.84
666.437	1.76
666.621	1.82
666.806	1.84
666.99	1.8
667.174	1.77
667.359	1.88
667.543	1.78
667.728	1.73
667.912	1.66
668.096	1.77
668.281	1.68
668.465	1.77
668.649	1.68
668.834	1.69
669.018	1.7
669.202	1.72
669.387	1.67
669.571	1.77
669.755	1.65
669.939	1.64
670.124	1.64
670.308	1.7
670.492	1.67
670.676	1.62
670.86	1.6
671.044	1.58
671.228	1.71
671.413	1.54
671.597	1.57
671.781	1.57
671.965	1.65
672.149	1.54
672.333	1.57
672.517	1.56
672.701	1.6
672.885	1.61
673.069	1.47
673.253	1.6
673.437	1.53
673.621	1.53
673.804	1.54
673.988	1.62
674.172	1.53
674.356	1.47
674.54	1.51
674.724	1.63
674.908	1.48
675.091	1.56
675.275	1.49
675.459	1.56
675.643	1.47
675.826	1.48
676.01	1.49
676.194	1.44
676.377	1.49
676.561	1.47
676.745	1.42
676.928	1.49
677.112	1.5
677.296	1.36
677.479	1.32
677.663	1.37
677.846	1.47
678.03	1.39
678.213	1.34
678.397	1.44
678.58	1.37
678.764	1.4
678.947	1.31
679.131	1.37
679.314	1.3
679.498	1.36
679.681	1.33
679.865	1.4
680.048	1.3
680.231	1.27
680.415	1.24
680.598	1.27
680.781	1.28
680.965	1.24
681.148	1.28
681.331	1.2
681.514	1.3
681.698	1.21
681.881	1.31
682.064	1.24
682.247	1.31
682.43	1.18
682.614	1.28
682.797	1.27
682.98	1.26
683.163	1.17
683.346	1.19
683.529	1.18
683.712	1.16
683.895	1.23
684.078	1.12
684.261	1.14
684.444	1.26
684.627	1.22
684.81	1.16
684.993	1.18
685.176	1.23
685.359	1.1
685.542	1.1
685.725	1.23
685.908	1.15
686.091	1.16
686.274	1.21
686.457	1.19
686.639	1.12
686.822	1.16
687.005	1.15
687.188	1.14
687.371	1.29
687.553	1.19
687.736	1.12
687.919	1.19
688.102	1.22
688.284	1.04
688.467	1.08
688.65	1.08
688.832	0.99
689.015	1
689.197	0.97
689.38	1.22
689.563	1.21
689.745	1
689.928	1.01
690.11	1.04
690.293	1.09
690.475	0.91
690.658	1.05
690.84	1.05
691.023	1.01
691.205	0.98
691.388	1.06
691.57	1.12
691.752	1.09
691.935	0.93
692.117	1.02
692.3	1.05
692.482	0.98
692.664	0.95
692.847	0.95
693.029	1.07
693.211	1.01
693.393	0.92
693.576	0.9
693.758	1.01
693.94	0.99
694.122	1.01
694.304	0.91
694.487	0.86
694.669	0.98
694.851	0.83
695.033	0.87
695.215	0.91
695.397	0.85
695.579	0.89
695.761	0.88
695.943	0.87
696.125	1.07
696.308	0.91
696.49	0.81
696.671	1.07
696.853	0.92
697.035	1.14
697.217	0.88
697.399	0.94
697.581	0.83
697.763	0.85
697.945	0.83
698.127	0.93
698.309	0.98
698.491	0.87
698.672	0.9
698.854	0.86
699.036	0.94
699.218	0.86
699.399	0.84
699.581	0.9
699.763	0.83
699.945	0.78
700.126	0.72
700.308	0.89
700.49	0.81
700.671	0.75
700.853	0.75
701.035	0.84
701.216	0.89
701.398	0.75
701.579	0.77
701.761	0.94
701.943	0.69
702.124	0.72
702.306	0.77
702.487	0.9
702.669	0.82
702.85	0.76
703.031	0.65
703.213	0.91
703.394	0.9
703.576	0.71
703.757	0.9
703.938	0.87
704.12	1.02
704.301	0.81
704.483	0.65
704.664	0.77
704.845	0.9
705.026	0.82
705.208	0.68
705.389	0.81
705.57	0.75
705.751	0.73
705.933	0.77
706.114	0.82
706.295	0.76
706.476	0.63
706.657	0.87
706.838	0.83
707.02	0.74
707.201	0.66
707.382	0.71
707.563	0.8
707.744	0.69
707.925	0.67
708.106	0.61
708.287	0.72
708.468	0.81
708.649	0.7
708.83	0.73
709.011	0.64
709.192	0.8
709.373	0.65
709.554	0.67
709.734	0.76
709.915	0.74
710.096	0.67
710.277	0.55
710.458	0.68
710.639	0.75
710.819	0.52
711	0.65
711.181	0.73
711.362	0.78
711.542	0.6
711.723	0.65
711.904	0.67
712.085	0.65
712.265	0.62
712.446	0.58
712.627	0.64
712.807	0.64
712.988	0.56
713.168	0.53
713.349	0.68
713.53	0.51
713.71	0.58
713.891	0.54
714.071	0.66
714.252	0.65
714.432	0.54
714.613	0.43
714.793	0.64
714.974	0.73
715.154	0.69
715.334	0.7
715.515	0.78
715.695	0.52
715.876	0.57
716.056	0.52
716.236	0.63
716.417	0.55
716.597	0.57
716.777	0.83
716.957	0.64
717.138	0.61
717.318	0.53
717.498	0.43
717.678	0.57
717.859	0.56
718.039	0.54
718.219	0.66
718.399	0.62
718.579	0.5
718.759	0.44
718.939	0.62
719.12	0.64
719.3	0.52
719.48	0.38
719.66	0.42
719.84	0.72
720.02	0.54
720.2	0.49
720.38	0.57
720.56	0.72
720.74	0.47
720.92	0.54
721.1	0.77
721.279	0.66
721.459	0.51
721.639	0.41
721.819	0.52
721.999	0.52
722.179	0.61
722.359	0.38
722.538	0.51
722.718	0.53
722.898	0.51
723.078	0.55
723.257	0.53
723.437	0.58
723.617	0.63
723.797	0.49
723.976	0.51
724.156	0.62
724.336	0.62
724.515	0.64
724.695	0.43
724.874	0.54
725.054	0.62
725.234	0.49
725.413	0.48
725.593	0.53
725.772	0.46
725.952	0.49
726.131	0.5
726.311	0.54
726.49	0.52
726.67	0.47
726.849	0.4
727.028	0.6
727.208	0.47
727.387	0.55
727.567	0.38
727.746	0.48
727.925	0.5
728.105	0.44
728.284	0.39
728.463	0.45
728.643	0.51
728.822	0.35
729.001	0.51
729.18	0.58
729.359	0.54
729.539	0.54
729.718	0.49
729.897	0.56
730.076	0.47
730.255	0.46
730.434	0.53
730.614	0.59
730.793	0.54
730.972	0.38
731.151	0.51
731.33	0.62
731.509	0.51
731.688	0.48
731.867	0.51
732.046	0.37
732.225	0.77
732.404	0.49
732.583	0.29
732.762	0.46
732.941	0.57
733.12	0.54
733.298	0.41
733.477	0.6
733.656	0.45
733.835	0.37
734.014	0.57
734.193	0.53
734.371	0.53
734.55	0.59
734.729	0.29
734.908	0.56
735.086	0.52
735.265	0.66
735.444	0.31
735.623	0.35
735.801	0.4
735.98	0.43
736.159	0.54
736.337	0.45
736.516	0.48
736.694	0.6
736.873	0.33
737.052	0.71
737.23	0.76
737.409	0.45
737.587	0.64
737.766	0.46
737.944	0.43
738.123	0.55
738.301	0.62
738.479	0.53
738.658	0.56
738.836	0.25
739.015	0.46
739.193	0.6
739.371	0.32
739.55	0.45
739.728	0.31
739.906	0.73
740.085	0.7
740.263	0.6
740.441	0.27
740.62	0.74
740.798	0.56
740.976	0.4
741.154	0.4
741.332	0.68
741.511	0.48
741.689	0.52
741.867	0.52
742.045	0.65
742.223	0.39
742.401	0.35
742.579	0.32
742.757	0.46
742.935	0.41
743.114	0.34
743.292	0.44
743.47	0.5
743.648	0.51
743.826	0.24
744.004	0.55
744.181	0.56
744.359	0.43
744.537	0.51
744.715	0.38
744.893	0.42
745.071	0.46
745.249	0.38
745.427	0.35
745.605	0.48
745.782	0.45
745.96	0.49
746.138	0.66
746.316	0.65
746.493	0.32
746.671	0.5
746.849	0.29
747.027	0.57
747.204	0.46
747.382	0.4
747.56	0.22
747.737	0.23
747.915	0.44
748.093	0.43
748.27	0.35
748.448	0.46
748.625	0.23
748.803	0.33
748.98	0.38
749.158	0.58
749.335	0.57
749.513	0.38
749.69	0.3
749.868	0.4
750.045	0.53
750.223	0.39
750.4	0.15
750.578	0.68
750.755	0.39
750.932	0.31
751.11	0.54
751.287	0.25
751.464	0.62
751.642	0.27
751.819	0.46
751.996	0.5
752.173	0.31
752.351	0.31
752.528	0.35
752.705	0.45
752.882	0.35
753.06	0.47
753.237	0.41
753.414	0.57
753.591	0.67
753.768	0.31
753.945	0.32
754.122	0.27
754.299	0.52
754.476	0.25
754.654	0.37
754.831	0.54
755.008	0.48
755.185	0.32
755.362	0.3
755.539	0.5
755.716	0.29
755.892	0.43
756.069	0.39
756.246	0.42
756.423	0.4
756.6	0.31
756.777	0.24
756.954	0.55
757.131	0.41
757.307	0.26
757.484	0.31
757.661	0.37
757.838	0.51
758.015	0.15
758.191	0.41
758.368	0.51
758.545	0.66
758.721	0.5
758.898	0.12
759.075	0.47
759.251	0.43
759.428	0.43
759.605	0.16
759.781	0.39
759.958	0.54
760.134	0.44
760.311	0.32
760.488	0.59
760.664	0.57
760.841	0.37
761.017	0.23
761.194	0.47
761.37	0.51
761.547	0.47
761.723	0.16
761.899	0.57
762.076	0.29
762.252	0.15
762.429	0.3
762.605	0.61
762.781	0.22
762.958	0.43
763.134	0.26
763.31	0.31
763.486	0.52
763.663	0.1
763.839	0.36
764.015	0.21
764.191	0.44
764.368	0.27
764.544	0.29
764.72	0.38
764.896	0.46
765.072	0.31
765.248	0.27
765.425	0.4
765.601	0.5
765.777	0.29
765.953	0.13
766.129	0.34
766.305	0.21
766.481	0.42
766.657	0.38
766.833	0.6
767.009	0.17
767.185	0.4
767.361	0.32
767.537	0.44
767.713	0.56
767.889	0.27
768.065	0.4
768.24	0.56
768.416	0.5
768.592	0.27
768.768	0.53
768.944	0.31
769.12	0.14
769.295	0.4
769.471	0.38
769.647	0.36
769.823	0.61
769.998	0.3
770.174	0.18
770.35	0.77
770.525	0.67
770.701	0.3
770.877	0.3
771.052	0.27
771.228	0.56
771.403	0.45
771.579	0.5
771.755	0.69
771.93	0.27
772.106	0.25
772.281	0.08
772.457	0.46
772.632	0.64
772.808	0.16
772.983	0.3
773.159	0.11
773.334	0.6
773.509	0.36
773.685	0.25
773.86	0.97
774.036	0.58
774.211	0.38
774.386	0.23
774.562	0.39
774.737	0.53
774.912	0.15
775.087	0.52
775.263	0.45
775.438	0.42
775.613	0.25
775.788	0.22
775.964	0.48
776.139	0.95
776.314	0.24
776.489	0.46
776.664	0.57
776.839	0.14
777.014	0.54
777.19	0.38
777.365	0.77
777.54	0.67
777.715	0.18
777.89	0.44
778.065	0.41
778.24	0.42
778.415	0.49
778.59	0.19
778.765	0.41
778.94	0.46
779.115	0.39
779.289	0.33
779.464	0.44
779.639	0.38
779.814	0.18
779.989	0.03
780.164	0.55
780.339	0.61
780.513	0.11
780.688	0.14
780.863	0.39
781.038	0.71
781.212	0.13
781.387	0.39
781.562	0.72
781.737	0.16
781.911	0.62
782.086	0.19
782.261	0.34
782.435	0.74
782.61	0.27
782.784	0.33
782.959	0.73
783.134	0.11
783.308	0.23
783.483	0.38
783.657	0.87
783.832	0.46
784.006	0.27
784.181	0.37
784.355	0.46
784.53	0.26
784.704	0.33
784.878	0.54
785.053	0.83
785.227	0.72
785.402	0.68
785.576	0.17
785.75	0.53
785.925	0.57
786.099	0.41
786.273	0.5
786.448	0.55
786.622	0.53
786.796	0.38
786.97	0.36
787.145	1.21
787.319	0.1
787.493	0.24
787.667	-0.07
787.841	0.31
788.015	0.94
788.19	0.43
788.364	0.36
788.538	0.61
788.712	0.67
788.886	0.19
789.06	0.56
789.234	0.6
789.408	0.11
789.582	-0
789.756	0.37
789.93	0.07
790.104	0.45
790.278	0.22
790.452	0.16
790.626	0.4
790.8	0.35
790.973	0.71
791.147	0.76
791.321	0.81
791.495	0.83
791.669	0.48
791.843	0.63
792.016	0.57
792.19	1.12
792.364	0.18
792.538	0.96
792.711	0.9
792.885	0.43
793.059	0.11
793.233	-0.12
793.406	0.67
793.58	0.46
793.754	0.55
793.927	0.43
794.101	0.8
794.274	0.44
794.448	0.84
794.622	0.01
794.795	0.98
794.969	0.49
795.142	0.69
795.316	0.46
795.489	0.23
795.663	1.01
795.836	0.36
796.009	0.28
796.183	0.83
796.356	0.65
796.53	0.65
796.703	0.45
796.876	1.12
797.05	0.29
797.223	0.51
797.396	0.37
797.57	0.62
797.743	1.14
797.916	0.65
798.09	0.51
798.263	0.84
798.436	0.61
798.609	0.18
798.782	0.27
798.956	0.76
799.129	0.44
799.302	0.29
799.475	0.48
799.648	0.13
799.821	0.43
799.994	0.45
800.167	-0.2
800.34	0.3
800.514	0.66
800.687	0.18
800.86	0.05
801.033	0.67
801.206	0.84
801.379	0.21
801.551	0.72
801.724	0.74
801.897	1.21
802.07	0.24
802.243	0.21
802.416	0.68
802.589	0.64
802.762	0.55
802.935	0.55
803.107	0.6
803.28	1.03
803.453	0.6
803.626	0.56
803.798	0.76
803.971	0.54
804.144	0.74
804.317	1.02
804.489	0.62
804.662	0.5
804.835	0.26
805.007	0.01
805.18	0.97
805.353	0.5
805.525	0.26
805.698	0.27
805.87	0.75
806.043	0.84
806.215	0.27
806.388	0.07
806.56	0.87
806.733	1.06
806.905	0.32
807.078	0.38
807.25	0.28
807.423	1.04
807.595	0.56
807.768	0.65
807.94	0.63
808.112	0.87
808.285	0.54
808.457	0.27
808.629	0.8
808.802	1.06
808.974	0.64
809.146	0.55
809.318	0.31
809.491	0.79
809.663	1.06
809.835	0.28
810.007	0.63
810.18	0.66
810.352	0.02
810.524	0.53
810.696	1.08
810.868	1.28
811.04	0.24
811.212	0.43
811.384	1.2
811.556	0.7
811.728	0.44
811.901	1.72
812.073	0.58
812.245	1.16
812.417	0.5
812.589	-0.2
812.76	1.17
812.932	1
813.104	0.86
813.276	0.48
813.448	0.88
813.62	0.84
813.792	0.73
813.964	0.69
814.136	0.77
814.307	0.32
814.479	0.09
814.651	0.36
814.823	1.61
814.995	0.71
815.166	0.79
815.338	0.14
815.51	0.11
815.681	1.66
815.853	0.73
816.025	0.36
816.196	1.74
816.368	1.65
816.54	0.3
816.711	0.43
816.883	1.12
817.054	2.22
817.226	0.17
817.398	1.18
817.569	0.59
817.741	0.88
817.912	0.24
818.084	0.81
818.255	0.93
818.426	0.38
818.598	0.27
818.769	-0.06
818.941	1.2
819.112	1.25
819.283	0.74
819.455	0.1
819.626	0.78
819.798	1.27
819.969	0.89
820.14	0.36
820.311	0.52
820.483	0.78
820.654	0.71
820.825	0.63
820.996	0.57
821.168	-0.09
821.339	0.49
821.51	0.1
821.681	0.29
821.852	0.84
822.023	0.09
822.195	-0.01
822.366	1.24
822.537	0.9
822.708	1.01
822.879	0.18
823.05	1.52
823.221	0.9
823.392	0.67
823.563	0.92
823.734	1.03
823.905	0.9
824.076	0.5
824.247	-0.18
824.418	0.79
824.589	1.61
824.759	0.75
824.93	0.4
825.101	-0.12
825.272	1.41
825.443	1.06
825.614	1.27
825.784	0.35
825.955	1.91
826.126	1.22
826.297	0.72
826.467	1.92
826.638	1.9
826.809	0.31
826.98	1.04
827.15	1.51
827.321	1.14
827.492	1.29
827.662	0.57
827.833	2.59
828.003	1.78
828.174	-0.01
828.345	0.14
828.515	2.12
828.686	1.06
828.856	0.26
829.027	0.67
829.197	1.13
829.368	1.42
829.538	0.38
829.709	0.28
829.879	1.55
830.049	1.14
830.22	0.33
830.39	0.46
830.56	1.41
830.731	0.7
830.901	0.77
831.072	1.19
831.242	1.77
831.412	0.82
831.582	1.05
831.753	-0.65
831.923	1.41
832.093	1.23
832.263	0.82
832.434	0.25
832.604	0.73
832.774	2.08
832.944	0.32
833.114	0.16
833.284	1.15
833.454	0.29
833.624	0.56
833.795	0.88
833.965	2.42
834.135	1.73
834.305	-0.3
834.475	-0.22
834.645	0.76
834.815	1.11
834.985	1.01
835.155	0.54
835.325	1.91
835.494	1.45
835.664	-0.01
835.834	-0.14
836.004	0.83
836.174	1.44
836.344	0.97
836.514	-0.46
836.684	0.47
836.853	0.97
837.023	1.16
837.193	0.52
837.363	2.42
837.532	1.87
837.702	0.82
837.872	0.09
838.041	1.84
838.211	3.01
838.381	-0.37
838.55	0.11
838.72	4.02
838.89	2.71
839.059	0.43
839.229	0.13
839.398	3.36
839.568	0.91
839.738	0.71
839.907	1.88
840.077	1.75
840.246	0.64
840.416	0.44
840.585	0.37
840.755	2.98
840.924	2.28
841.093	0.06
841.263	0.63
841.432	0.82
841.602	0.68
841.771	0.47
841.94	0.57
842.11	3.61
842.279	2.24
842.448	0.33
842.617	-0.12
842.787	2.06
842.956	0.18
843.125	0.15
843.294	1.07
843.464	2.63
843.633	1.88
843.802	0.54
843.971	1.02
844.14	1.61
844.309	2.86
844.479	-0.85
844.648	0.69
844.817	0.9
844.986	2.09
845.155	0.67
845.324	0.85
845.493	0.88
845.662	1.29
845.831	2.05
846	1.65
846.169	0.86
846.338	2.84
846.507	1.14
846.676	1.77
846.844	1.25
847.013	1.02
847.182	1.4
847.351	1.14
847.52	1.39
847.689	0.9
847.858	0.9
848.026	0.1
848.195	0.89
848.364	0.73
848.533	-0.33
848.701	0.59
848.87	1.01
849.039	2.52
849.207	1.57
849.376	3.11
849.545	3.12
849.713	0.48
849.882	1
850.051	1.16
850.219	1.71
850.388	2.34
850.556	0.37
850.725	-0.58
850.893	1.92
851.062	1.1
851.23	1.73
851.399	-0.91
851.567	2.69
851.736	0.88
851.904	0.3
852.073	0.76
852.241	1.94
852.41	2.39
852.578	1.57
852.746	0.06
852.915	2.6
853.083	1.53
853.251	0.21
853.42	0.96
853.588	0.7
853.756	3.25
853.924	1.48
854.093	0.57
854.261	0.83
854.429	0.42
854.597	2.34
854.765	0.26
854.934	2.15
855.102	2.03
855.27	0.3
855.438	3.19
855.606	3.66
855.774	3.31
855.942	-0.26
856.11	-0.33
856.278	2.57
856.446	2.2
856.614	0.68
856.782	-0.54
856.95	2.81
857.118	3.18
857.286	1.4
857.454	-0.24
857.622	3.95
857.79	3.44
857.958	0.17
858.126	0.99
858.294	-0.91
858.462	1.1
858.629	0.73
858.797	0.14
858.965	1.43
859.133	1.33
859.301	1.59
859.468	1.55
859.636	1.29
859.804	5.19
859.971	3.23
860.139	0.17
860.307	2
860.474	1.61
860.642	0.53
860.81	0.37
860.977	1.14
861.145	2.53
861.313	0.02
861.48	-0.15
861.648	2.92
861.815	1.56
861.983	0.01
862.15	1.99
862.318	3.22
862.485	3.7
862.653	0.35
862.82	1.07
862.988	4.49
863.155	3.46
863.322	0.94
863.49	0.47
863.657	1.5
863.824	4.85
863.992	0.88
864.159	2
864.326	4.37
864.494	0.9
864.661	4.62
864.828	-0.58
864.996	3.9
865.163	4.55
865.33	0.25
865.497	-1.16
865.664	1
865.832	-1.91
865.999	1.99
866.166	-0.02
866.333	1.07
866.5	0.97
866.667	1.17
866.834	2.14
867.001	3.94
867.168	-0.86
867.335	1.48
867.502	-0.83
867.669	0.65
867.836	4.18
868.003	-0.03
868.17	2.94
868.337	6.19
868.504	5.31
868.671	0.07
868.838	-0.31
869.005	3.41
869.172	3.6
869.339	2.41
869.505	1.53
869.672	2.47
869.839	5.5
870.006	1.65
870.173	0.66
870.339	2.27
870.506	4.99
870.673	3.1
870.84	1.4
871.006	1.43
871.173	1.07
871.34	1.36
871.506	-1.14
871.673	3.33
871.839	0.54
872.006	1.75
872.173	1.18
872.339	2.87
872.506	5.08
872.672	2.08
872.839	0.95
873.005	2.71
873.172	7.42
873.338	3.37
873.505	1.42
873.671	1.09
873.838	3
874.004	-1.75
874.171	0.92
874.337	3.03
874.503	4.71
874.67	1.12
874.836	2.17
875.002	3.71
875.169	4.38
875.335	1.2
875.501	1.17
875.668	3.61
875.834	2.66
876	0.32
876.166	2.48
876.332	4.06
876.499	5.3
876.665	0.63
876.831	1.99
876.997	6.08
877.163	4.02
877.329	0.49
877.495	2.45
877.662	3.13
877.828	5.05
877.994	1.82
878.16	-1.78
878.326	2.36
878.492	3.15
878.658	0.11
878.824	2.6
878.99	2.68
879.156	1.69
879.322	4.22
879.487	1.12
879.653	2.35
879.819	3.37
879.985	0.98
880.151	2.26
880.317	4.54
880.483	3.32
880.648	3.49
880.814	0.13
880.98	3.39
881.146	-1.63
881.312	0.77
881.477	0.9
881.643	0.98
881.809	4.86
881.974	3.51
882.14	-1.8
882.306	0.92
882.471	7.1
882.637	0.73
882.803	2.92
882.968	4.21
883.134	6.19
883.299	2.58
883.465	1.53
883.63	4.7
883.796	2.01
883.961	1.15
884.127	3.31
884.292	-1.62
884.458	0.94
884.623	0.94
