Data from Apollo_Calib_20240827__AbsoluteIrradiance__7__23-16-02-659.txt Node

Date: Tue Aug 27 23:16:02 BST 2024
User: biology
Spectrometer: FLMT08252
Trigger mode: 0
Integration Time (sec): 5.000000E-1
Scans to average: 5
Electric dark correction enabled: true
Nonlinearity correction enabled: false
Boxcar width: 0
XAxis mode: Wavelengths
Number of Pixels in Spectrum: 3648
>>>>>Begin Spectral Data<<<<<
179.588	-0
179.809	-0
180.03	-0
180.251	-0
180.473	-0
180.694	0
180.915	0
181.136	-0
181.357	-0
181.578	0
181.799	-0
182.02	-0
182.241	0
182.462	-0
182.683	0
182.904	-0
183.125	-0
183.346	0
183.567	0
183.788	0
184.009	0
184.23	0
184.451	0
184.672	0
184.892	0
185.113	0
185.334	0
185.555	0
185.776	0
185.996	0
186.217	0
186.438	0
186.659	0
186.879	0
187.1	0
187.321	0
187.541	0
187.762	0
187.983	0
188.203	0
188.424	0
188.644	0
188.865	0
189.086	0
189.306	0
189.527	0
189.747	0
189.968	0
190.188	0
190.409	0
190.629	0
190.849	0
191.07	0
191.29	0
191.511	0
191.731	0
191.951	0
192.172	0
192.392	0
192.612	0
192.833	0
193.053	0
193.273	0
193.493	0
193.714	0
193.934	0
194.154	0
194.374	0
194.594	0
194.815	0
195.035	0
195.255	0
195.475	0
195.695	0
195.915	0
196.135	0
196.355	0
196.575	0
196.795	0
197.015	0
197.235	0
197.455	0
197.675	0
197.895	0
198.115	0
198.335	0
198.555	0
198.775	0
198.995	0
199.214	0
199.434	0
199.654	0
199.874	0
200.094	3.7
200.313	2.6
200.533	3.33
200.753	2.28
200.973	2.9
201.192	2.71
201.412	1.45
201.632	2.25
201.851	3.1
202.071	1.87
202.291	1.66
202.51	1.51
202.73	2.38
202.95	2.29
203.169	1.74
203.389	1.88
203.608	2.07
203.828	1.07
204.047	2.32
204.267	2.51
204.486	2.18
204.706	1.7
204.925	1.85
205.145	1.59
205.364	2.06
205.583	2.21
205.803	1.7
206.022	1.51
206.242	1.66
206.461	1.48
206.68	1.23
206.9	2.16
207.119	1.92
207.338	2.03
207.557	1.53
207.777	1.63
207.996	1.24
208.215	1.86
208.434	1.28
208.654	1.23
208.873	1.47
209.092	1.83
209.311	1
209.53	1.46
209.749	1.42
209.968	1.21
210.187	1.28
210.407	1.05
210.626	1.12
210.845	1.26
211.064	1.16
211.283	1.15
211.502	1.5
211.721	1.36
211.94	1.28
212.159	1.43
212.377	1.35
212.596	1.51
212.815	1.11
213.034	1.28
213.253	1.08
213.472	1.11
213.691	0.94
213.91	0.92
214.128	1.06
214.347	1.27
214.566	0.7
214.785	0.78
215.003	1.3
215.222	1.22
215.441	1.02
215.66	0.8
215.878	0.9
216.097	1.2
216.316	0.79
216.534	0.99
216.753	0.82
216.972	0.85
217.19	0.89
217.409	0.87
217.627	0.85
217.846	0.81
218.064	1.03
218.283	0.72
218.501	1.27
218.72	1.13
218.938	0.61
219.157	0.68
219.375	0.95
219.594	0.78
219.812	0.51
220.031	0.55
220.249	1.12
220.467	1.13
220.686	0.8
220.904	0.65
221.122	0.46
221.341	1.02
221.559	0.88
221.777	0.82
221.995	0.64
222.214	0.75
222.432	0.71
222.65	0.81
222.868	0.86
223.086	0.78
223.305	1.02
223.523	0.82
223.741	1.12
223.959	0.59
224.177	0.46
224.395	0.67
224.613	0.82
224.831	0.85
225.049	0.62
225.267	0.7
225.485	0.78
225.703	0.6
225.921	0.66
226.139	0.66
226.357	0.82
226.575	0.68
226.793	0.67
227.011	1.14
227.229	0.68
227.447	0.78
227.665	0.71
227.883	0.48
228.1	0.73
228.318	0.62
228.536	0.44
228.754	0.49
228.972	0.65
229.189	0.73
229.407	0.57
229.625	0.58
229.843	0.84
230.06	0.8
230.278	0.63
230.496	0.7
230.713	0.64
230.931	0.66
231.149	0.57
231.366	0.34
231.584	0.58
231.801	0.9
232.019	0.59
232.236	0.51
232.454	0.42
232.671	0.73
232.889	0.69
233.106	0.47
233.324	0.6
233.541	0.5
233.759	0.69
233.976	0.45
234.194	0.54
234.411	0.54
234.628	0.55
234.846	0.5
235.063	0.46
235.28	0.42
235.498	0.72
235.715	0.44
235.932	0.76
236.149	0.54
236.367	0.5
236.584	0.53
236.801	0.46
237.018	0.59
237.236	0.61
237.453	0.39
237.67	0.6
237.887	0.45
238.104	0.43
238.321	0.39
238.538	0.46
238.755	0.57
238.973	0.35
239.19	0.47
239.407	0.55
239.624	0.51
239.841	0.41
240.058	0.51
240.275	0.56
240.492	0.38
240.709	0.59
240.925	0.52
241.142	0.52
241.359	0.4
241.576	0.41
241.793	0.47
242.01	0.53
242.227	0.5
242.444	0.55
242.66	0.57
242.877	0.52
243.094	0.5
243.311	0.49
243.527	0.48
243.744	0.46
243.961	0.59
244.178	0.41
244.394	0.45
244.611	0.64
244.828	0.53
245.044	0.38
245.261	0.42
245.477	0.48
245.694	0.39
245.911	0.45
246.127	0.43
246.344	0.45
246.56	0.44
246.777	0.36
246.993	0.46
247.21	0.53
247.426	0.47
247.643	0.45
247.859	0.41
248.076	0.39
248.292	0.65
248.508	0.4
248.725	0.46
248.941	0.47
249.157	0.54
249.374	0.38
249.59	0.37
249.806	0.4
250.023	0.43
250.239	0.4
250.455	0.4
250.671	0.41
250.888	0.45
251.104	0.4
251.32	0.44
251.536	0.42
251.752	0.33
251.969	0.55
252.185	0.51
252.401	0.61
252.617	0.51
252.833	0.38
253.049	0.38
253.265	0.44
253.481	0.48
253.697	0.45
253.913	0.34
254.129	0.4
254.345	0.38
254.561	0.39
254.777	0.4
254.993	0.5
255.209	0.46
255.425	0.43
255.641	0.33
255.857	0.49
256.073	0.35
256.288	0.33
256.504	0.39
256.72	0.38
256.936	0.51
257.152	0.37
257.367	0.29
257.583	0.41
257.799	0.45
258.015	0.34
258.23	0.35
258.446	0.48
258.662	0.37
258.877	0.41
259.093	0.36
259.309	0.42
259.524	0.33
259.74	0.38
259.955	0.36
260.171	0.41
260.387	0.3
260.602	0.42
260.818	0.46
261.033	0.3
261.249	0.33
261.464	0.38
261.68	0.31
261.895	0.33
262.11	0.41
262.326	0.31
262.541	0.29
262.757	0.41
262.972	0.39
263.187	0.43
263.403	0.39
263.618	0.39
263.833	0.39
264.049	0.35
264.264	0.37
264.479	0.42
264.694	0.46
264.91	0.3
265.125	0.33
265.34	0.4
265.555	0.49
265.77	0.38
265.986	0.31
266.201	0.44
266.416	0.4
266.631	0.32
266.846	0.36
267.061	0.4
267.276	0.43
267.491	0.25
267.706	0.41
267.921	0.36
268.136	0.37
268.351	0.41
268.566	0.28
268.781	0.43
268.996	0.4
269.211	0.37
269.426	0.32
269.641	0.35
269.856	0.34
270.071	0.31
270.285	0.29
270.5	0.38
270.715	0.41
270.93	0.29
271.145	0.4
271.359	0.4
271.574	0.25
271.789	0.35
272.004	0.37
272.218	0.35
272.433	0.41
272.648	0.25
272.862	0.43
273.077	0.36
273.292	0.31
273.506	0.29
273.721	0.34
273.936	0.35
274.15	0.36
274.365	0.31
274.579	0.38
274.794	0.37
275.008	0.4
275.223	0.2
275.437	0.32
275.652	0.45
275.866	0.33
276.081	0.25
276.295	0.38
276.509	0.37
276.724	0.37
276.938	0.31
277.153	0.36
277.367	0.38
277.581	0.33
277.796	0.24
278.01	0.28
278.224	0.37
278.438	0.45
278.653	0.24
278.867	0.32
279.081	0.32
279.295	0.36
279.51	0.34
279.724	0.2
279.938	0.34
280.152	0.3
280.366	0.29
280.58	0.33
280.794	0.35
281.008	0.34
281.222	0.3
281.437	0.39
281.651	0.29
281.865	0.36
282.079	0.28
282.293	0.21
282.507	0.34
282.721	0.3
282.935	0.29
283.148	0.24
283.362	0.3
283.576	0.25
283.79	0.26
284.004	0.29
284.218	0.32
284.432	0.22
284.646	0.26
284.859	0.26
285.073	0.27
285.287	0.3
285.501	0.29
285.714	0.29
285.928	0.3
286.142	0.29
286.356	0.29
286.569	0.3
286.783	0.31
286.997	0.37
287.21	0.3
287.424	0.29
287.637	0.33
287.851	0.24
288.065	0.37
288.278	0.26
288.492	0.31
288.705	0.31
288.919	0.28
289.132	0.27
289.346	0.36
289.559	0.21
289.773	0.29
289.986	0.26
290.2	0.31
290.413	0.34
290.626	0.28
290.84	0.26
291.053	0.29
291.267	0.36
291.48	0.33
291.693	0.27
291.906	0.3
292.12	0.27
292.333	0.26
292.546	0.25
292.76	0.32
292.973	0.3
293.186	0.3
293.399	0.23
293.612	0.33
293.826	0.28
294.039	0.27
294.252	0.31
294.465	0.32
294.678	0.24
294.891	0.24
295.104	0.23
295.317	0.3
295.53	0.3
295.743	0.27
295.956	0.31
296.169	0.35
296.382	0.32
296.595	0.28
296.808	0.2
297.021	0.33
297.234	0.29
297.447	0.28
297.66	0.32
297.873	0.32
298.086	0.22
298.299	0.24
298.511	0.18
298.724	0.3
298.937	0.25
299.15	0.21
299.363	0.28
299.575	0.26
299.788	0.29
300.001	0.25
300.213	0.23
300.426	0.25
300.639	0.27
300.852	0.25
301.064	0.28
301.277	0.32
301.489	0.28
301.702	0.29
301.915	0.29
302.127	0.26
302.34	0.27
302.552	0.28
302.765	0.27
302.977	0.3
303.19	0.2
303.402	0.24
303.615	0.28
303.827	0.22
304.04	0.27
304.252	0.31
304.464	0.25
304.677	0.34
304.889	0.3
305.102	0.25
305.314	0.23
305.526	0.25
305.739	0.24
305.951	0.23
306.163	0.28
306.375	0.34
306.588	0.23
306.8	0.24
307.012	0.23
307.224	0.28
307.436	0.27
307.649	0.2
307.861	0.21
308.073	0.24
308.285	0.24
308.497	0.22
308.709	0.28
308.921	0.31
309.133	0.27
309.346	0.28
309.558	0.26
309.77	0.27
309.982	0.29
310.194	0.33
310.406	0.22
310.617	0.33
310.829	0.27
311.041	0.25
311.253	0.23
311.465	0.26
311.677	0.25
311.889	0.25
312.101	0.22
312.313	0.29
312.524	0.29
312.736	0.23
312.948	0.26
313.16	0.33
313.372	0.25
313.583	0.26
313.795	0.26
314.007	0.25
314.218	0.23
314.43	0.25
314.642	0.22
314.853	0.26
315.065	0.27
315.277	0.26
315.488	0.27
315.7	0.3
315.912	0.27
316.123	0.27
316.335	0.23
316.546	0.32
316.758	0.24
316.969	0.25
317.181	0.28
317.392	0.27
317.604	0.31
317.815	0.2
318.026	0.25
318.238	0.22
318.449	0.27
318.661	0.21
318.872	0.21
319.083	0.22
319.295	0.27
319.506	0.25
319.717	0.28
319.929	0.28
320.14	0.22
320.351	0.31
320.562	0.23
320.774	0.22
320.985	0.23
321.196	0.21
321.407	0.18
321.618	0.27
321.829	0.26
322.041	0.28
322.252	0.23
322.463	0.26
322.674	0.31
322.885	0.24
323.096	0.24
323.307	0.25
323.518	0.26
323.729	0.22
323.94	0.24
324.151	0.2
324.362	0.24
324.573	0.27
324.784	0.23
324.995	0.29
325.206	0.3
325.417	0.21
325.628	0.29
325.838	0.26
326.049	0.25
326.26	0.3
326.471	0.22
326.682	0.3
326.892	0.25
327.103	0.24
327.314	0.18
327.525	0.34
327.735	0.23
327.946	0.23
328.157	0.26
328.368	0.29
328.578	0.24
328.789	0.29
328.999	0.24
329.21	0.27
329.421	0.25
329.631	0.24
329.842	0.25
330.052	0.27
330.263	0.27
330.473	0.25
330.684	0.22
330.894	0.23
331.105	0.25
331.315	0.25
331.526	0.23
331.736	0.33
331.947	0.31
332.157	0.28
332.367	0.23
332.578	0.28
332.788	0.35
332.999	0.26
333.209	0.26
333.419	0.21
333.629	0.24
333.84	0.25
334.05	0.26
334.26	0.32
334.47	0.29
334.681	0.28
334.891	0.23
335.101	0.27
335.311	0.31
335.521	0.28
335.732	0.22
335.942	0.28
336.152	0.26
336.362	0.3
336.572	0.26
336.782	0.29
336.992	0.25
337.202	0.27
337.412	0.21
337.622	0.27
337.832	0.25
338.042	0.27
338.252	0.19
338.462	0.21
338.672	0.29
338.882	0.26
339.092	0.24
339.302	0.3
339.511	0.26
339.721	0.23
339.931	0.24
340.141	0.27
340.351	0.27
340.561	0.32
340.77	0.27
340.98	0.22
341.19	0.29
341.4	0.23
341.609	0.23
341.819	0.29
342.029	0.28
342.238	0.28
342.448	0.22
342.658	0.25
342.867	0.26
343.077	0.27
343.286	0.24
343.496	0.26
343.706	0.31
343.915	0.19
344.125	0.24
344.334	0.29
344.544	0.16
344.753	0.25
344.963	0.24
345.172	0.25
345.381	0.16
345.591	0.25
345.8	0.26
346.01	0.29
346.219	0.25
346.428	0.13
346.638	0.25
346.847	0.24
347.056	0.32
347.266	0.21
347.475	0.28
347.684	0.28
347.893	0.28
348.103	0.28
348.312	0.26
348.521	0.27
348.73	0.24
348.94	0.28
349.149	0.25
349.358	0.25
349.567	0.2
349.776	0.21
349.985	0.26
350.194	0.28
350.403	0.22
350.612	0.22
350.821	0.24
351.03	0.24
351.239	0.17
351.448	0.23
351.657	0.22
351.866	0.36
352.075	0.25
352.284	0.31
352.493	0.21
352.702	0.28
352.911	0.26
353.12	0.28
353.329	0.24
353.538	0.3
353.746	0.27
353.955	0.23
354.164	0.29
354.373	0.24
354.582	0.27
354.79	0.26
354.999	0.27
355.208	0.24
355.416	0.26
355.625	0.25
355.834	0.26
356.042	0.26
356.251	0.21
356.46	0.2
356.668	0.23
356.877	0.29
357.085	0.29
357.294	0.18
357.503	0.27
357.711	0.23
357.92	0.39
358.128	0.27
358.337	0.25
358.545	0.26
358.754	0.2
358.962	0.29
359.17	0.22
359.379	0.24
359.587	0.26
359.796	0.21
360.004	0.27
360.212	0.25
360.421	0.28
360.629	0.21
360.837	0.25
361.046	0.28
361.254	0.31
361.462	0.27
361.67	0.24
361.879	0.28
362.087	0.29
362.295	0.25
362.503	0.22
362.711	0.18
362.92	0.26
363.128	0.16
363.336	0.24
363.544	0.18
363.752	0.26
363.96	0.24
364.168	0.22
364.376	0.26
364.584	0.28
364.792	0.29
365	0.25
365.208	0.24
365.416	0.28
365.624	0.31
365.832	0.25
366.04	0.28
366.248	0.23
366.456	0.24
366.664	0.28
366.872	0.25
367.079	0.22
367.287	0.24
367.495	0.28
367.703	0.25
367.911	0.23
368.118	0.24
368.326	0.25
368.534	0.22
368.742	0.3
368.949	0.18
369.157	0.22
369.365	0.24
369.572	0.21
369.78	0.21
369.988	0.3
370.195	0.25
370.403	0.27
370.61	0.22
370.818	0.27
371.026	0.31
371.233	0.24
371.441	0.26
371.648	0.27
371.856	0.27
372.063	0.23
372.271	0.26
372.478	0.27
372.685	0.22
372.893	0.29
373.1	0.24
373.308	0.25
373.515	0.3
373.722	0.23
373.93	0.23
374.137	0.3
374.344	0.32
374.552	0.27
374.759	0.28
374.966	0.23
375.173	0.25
375.381	0.28
375.588	0.26
375.795	0.16
376.002	0.22
376.209	0.2
376.417	0.25
376.624	0.28
376.831	0.28
377.038	0.26
377.245	0.2
377.452	0.3
377.659	0.24
377.866	0.23
378.073	0.27
378.28	0.24
378.487	0.26
378.694	0.28
378.901	0.26
379.108	0.23
379.315	0.29
379.522	0.37
379.729	0.27
379.936	0.24
380.143	0.28
380.35	0.25
380.557	0.27
380.763	0.3
380.97	0.27
381.177	0.29
381.384	0.29
381.591	0.27
381.797	0.3
382.004	0.26
382.211	0.31
382.418	0.3
382.624	0.28
382.831	0.31
383.038	0.29
383.244	0.29
383.451	0.25
383.658	0.29
383.864	0.27
384.071	0.23
384.277	0.37
384.484	0.25
384.69	0.28
384.897	0.24
385.103	0.29
385.31	0.25
385.516	0.26
385.723	0.25
385.929	0.25
386.136	0.23
386.342	0.27
386.549	0.25
386.755	0.32
386.961	0.27
387.168	0.27
387.374	0.34
387.58	0.32
387.787	0.31
387.993	0.33
388.199	0.29
388.406	0.23
388.612	0.31
388.818	0.25
389.024	0.22
389.231	0.34
389.437	0.35
389.643	0.32
389.849	0.26
390.055	0.31
390.261	0.31
390.467	0.31
390.674	0.24
390.88	0.3
391.086	0.29
391.292	0.28
391.498	0.31
391.704	0.3
391.91	0.29
392.116	0.27
392.322	0.23
392.528	0.37
392.734	0.27
392.94	0.29
393.146	0.28
393.352	0.31
393.557	0.34
393.763	0.32
393.969	0.3
394.175	0.31
394.381	0.34
394.587	0.24
394.792	0.26
394.998	0.31
395.204	0.35
395.41	0.31
395.615	0.37
395.821	0.35
396.027	0.34
396.233	0.23
396.438	0.32
396.644	0.38
396.85	0.38
397.055	0.33
397.261	0.35
397.466	0.33
397.672	0.33
397.878	0.4
398.083	0.33
398.289	0.28
398.494	0.36
398.7	0.31
398.905	0.27
399.111	0.35
399.316	0.31
399.522	0.35
399.727	0.32
399.932	0.33
400.138	0.29
400.343	0.32
400.549	0.32
400.754	0.31
400.959	0.37
401.165	0.37
401.37	0.38
401.575	0.45
401.78	0.34
401.986	0.32
402.191	0.37
402.396	0.4
402.601	0.41
402.807	0.41
403.012	0.37
403.217	0.43
403.422	0.36
403.627	0.41
403.832	0.44
404.037	0.43
404.243	0.38
404.448	0.44
404.653	0.4
404.858	0.45
405.063	0.45
405.268	0.4
405.473	0.43
405.678	0.41
405.883	0.51
406.088	0.51
406.293	0.4
406.498	0.46
406.703	0.49
406.907	0.46
407.112	0.45
407.317	0.47
407.522	0.56
407.727	0.47
407.932	0.55
408.136	0.63
408.341	0.54
408.546	0.57
408.751	0.59
408.956	0.59
409.16	0.6
409.365	0.56
409.57	0.63
409.774	0.63
409.979	0.67
410.184	0.7
410.388	0.6
410.593	0.74
410.798	0.67
411.002	0.7
411.207	0.78
411.411	0.79
411.616	0.75
411.82	0.76
412.025	0.85
412.229	0.83
412.434	0.87
412.638	0.84
412.843	0.91
413.047	0.98
413.252	0.89
413.456	0.95
413.66	1
413.865	1.02
414.069	1.14
414.273	1.14
414.478	1.13
414.682	1.16
414.886	1.16
415.091	1.17
415.295	1.19
415.499	1.34
415.703	1.31
415.908	1.48
416.112	1.33
416.316	1.58
416.52	1.56
416.724	1.54
416.929	1.57
417.133	1.76
417.337	1.66
417.541	1.78
417.745	1.78
417.949	1.93
418.153	2.02
418.357	1.95
418.561	2.18
418.765	2.14
418.969	2.21
419.173	2.36
419.377	2.32
419.581	2.57
419.785	2.56
419.989	2.56
420.193	2.76
420.397	2.77
420.601	2.93
420.804	3.01
421.008	2.97
421.212	3.13
421.416	3.15
421.62	3.18
421.823	3.26
422.027	3.4
422.231	3.32
422.435	3.46
422.638	3.49
422.842	3.58
423.046	3.62
423.249	3.9
423.453	3.82
423.657	3.94
423.86	4.1
424.064	4.22
424.268	4.37
424.471	4.31
424.675	4.59
424.878	4.64
425.082	4.84
425.285	5.11
425.489	4.93
425.692	5.16
425.896	5.08
426.099	5.36
426.303	5.51
426.506	5.71
426.71	5.82
426.913	6.01
427.116	6.15
427.32	6.2
427.523	6.29
427.726	6.57
427.93	6.64
428.133	7.04
428.336	7.09
428.54	7.12
428.743	7.48
428.946	7.7
429.149	7.73
429.353	7.81
429.556	7.88
429.759	7.93
429.962	8.05
430.165	8.2
430.368	7.8
430.571	7.87
430.775	8.01
430.978	7.97
431.181	7.93
431.384	8.13
431.587	8.2
431.79	8.55
431.993	8.41
432.196	8.87
432.399	9.22
432.602	9.27
432.805	9.37
433.008	9.86
433.211	9.75
433.414	10.01
433.616	10.06
433.819	10.07
434.022	10.32
434.225	10.3
434.428	10.6
434.631	10.89
434.833	10.63
435.036	10.98
435.239	11.19
435.442	11.29
435.645	11.4
435.847	11.46
436.05	11.77
436.253	11.95
436.455	12.04
436.658	11.86
436.861	12.17
437.063	12.44
437.266	12.34
437.468	12.55
437.671	12.88
437.874	12.98
438.076	12.83
438.279	13.35
438.481	13.32
438.684	14.08
438.886	13.73
439.089	14.08
439.291	14.01
439.494	14.42
439.696	14.62
439.899	15.1
440.101	15.49
440.303	15.81
440.506	16.49
440.708	16.03
440.91	16.32
441.113	16.61
441.315	16.92
441.517	16.55
441.72	17.07
441.922	16.7
442.124	16.65
442.326	17.07
442.529	17.29
442.731	17.19
442.933	17.6
443.135	17.35
443.337	17.42
443.539	17.91
443.742	17.56
443.944	18.27
444.146	18.01
444.348	17.88
444.55	17.98
444.752	18
444.954	18.04
445.156	18.01
445.358	18.47
445.56	18.58
445.762	18.39
445.964	18.81
446.166	18.48
446.368	18.61
446.57	18.55
446.772	18.21
446.974	17.97
447.175	18.38
447.377	17.97
447.579	18.42
447.781	18
447.983	17.79
448.184	17.45
448.386	17.86
448.588	17.37
448.79	17.18
448.991	17.55
449.193	17.66
449.395	16.93
449.597	16.65
449.798	16.5
450	16.24
450.202	15.91
450.403	16.08
450.605	15.94
450.806	15.53
451.008	15.43
451.21	15.22
451.411	14.85
451.613	14
451.814	14.19
452.016	14.19
452.217	13.54
452.419	13.47
452.62	13.19
452.821	13.05
453.023	12.84
453.224	12.6
453.426	12.03
453.627	11.2
453.828	11.44
454.03	11.54
454.231	11.45
454.432	11.36
454.634	10.96
454.835	10.73
455.036	10.65
455.238	10.09
455.439	9.95
455.64	9.74
455.841	9.52
456.042	9.6
456.244	9.43
456.445	9.18
456.646	8.87
456.847	8.7
457.048	8.6
457.249	8.64
457.45	8.22
457.651	7.91
457.852	7.66
458.054	7.47
458.255	7.42
458.456	7.41
458.657	7.34
458.858	6.97
459.058	6.8
459.259	6.8
459.46	6.5
459.661	6.57
459.862	6.55
460.063	6.51
460.264	6.34
460.465	6.11
460.666	6.17
460.866	5.9
461.067	5.64
461.268	5.6
461.469	5.61
461.67	5.42
461.87	5.36
462.071	5.38
462.272	5.23
462.473	5.18
462.673	5.3
462.874	5.23
463.075	5.26
463.275	5.15
463.476	5.27
463.676	5.24
463.877	5.05
464.078	4.91
464.278	5.01
464.479	4.98
464.679	4.85
464.88	4.84
465.08	4.62
465.281	4.59
465.481	4.39
465.682	4.21
465.882	4.23
466.083	4.11
466.283	4.1
466.483	3.98
466.684	3.88
466.884	3.68
467.085	3.74
467.285	3.87
467.485	3.7
467.686	3.61
467.886	3.52
468.086	3.44
468.286	3.44
468.487	3.44
468.687	3.32
468.887	3.26
469.087	3.36
469.287	3.3
469.488	3.13
469.688	3.19
469.888	3.25
470.088	3.13
470.288	3.11
470.488	3.01
470.688	2.8
470.888	2.95
471.088	2.75
471.288	2.85
471.488	2.83
471.688	2.81
471.888	2.76
472.088	2.81
472.288	2.76
472.488	2.66
472.688	2.59
472.888	2.67
473.088	2.64
473.288	2.56
473.488	2.41
473.688	2.64
473.887	2.5
474.087	2.56
474.287	2.5
474.487	2.37
474.687	2.5
474.886	2.33
475.086	2.31
475.286	2.38
475.486	2.33
475.685	2.27
475.885	2.27
476.085	2.28
476.284	2.23
476.484	2.29
476.684	2.31
476.883	2.31
477.083	2.22
477.282	2.12
477.482	2.18
477.681	2.14
477.881	2.04
478.08	2.1
478.28	2.09
478.479	2.17
478.679	2.16
478.878	2.06
479.078	2.05
479.277	2.11
479.477	2.01
479.676	2.07
479.875	2.03
480.075	2.02
480.274	2.02
480.473	2.08
480.673	2.02
480.872	2.07
481.071	2.1
481.271	2.03
481.47	2.03
481.669	2.04
481.868	1.97
482.067	1.99
482.267	1.96
482.466	1.96
482.665	1.99
482.864	1.95
483.063	1.94
483.262	2.03
483.461	2.05
483.661	2.1
483.86	2.03
484.059	2.05
484.258	2.06
484.457	2.07
484.656	2.04
484.855	2.1
485.054	1.94
485.253	2.03
485.452	1.99
485.651	2.07
485.849	2.03
486.048	2.03
486.247	2.01
486.446	2.04
486.645	2.08
486.844	2.12
487.043	2.09
487.241	2.12
487.44	2.09
487.639	2.14
487.838	2.12
488.037	2.12
488.235	2.21
488.434	2.19
488.633	2.06
488.831	2.25
489.03	2.25
489.229	2.21
489.427	2.25
489.626	2.24
489.825	2.23
490.023	2.29
490.222	2.3
490.42	2.27
490.619	2.32
490.817	2.35
491.016	2.35
491.214	2.42
491.413	2.42
491.611	2.36
491.81	2.39
492.008	2.42
492.207	2.55
492.405	2.47
492.604	2.47
492.802	2.55
493	2.6
493.199	2.63
493.397	2.7
493.595	2.68
493.794	2.67
493.992	2.79
494.19	2.73
494.388	2.8
494.587	2.71
494.785	2.73
494.983	2.75
495.181	2.85
495.379	2.89
495.578	2.98
495.776	2.95
495.974	2.95
496.172	2.96
496.37	3.07
496.568	3.12
496.766	3.07
496.964	3.14
497.162	3.2
497.36	3.25
497.558	3.2
497.756	3.29
497.954	3.28
498.152	3.34
498.35	3.39
498.548	3.34
498.746	3.32
498.944	3.4
499.142	3.42
499.34	3.51
499.538	3.62
499.736	3.5
499.933	3.61
500.131	3.6
500.329	3.74
500.527	3.72
500.725	3.8
500.922	3.83
501.12	3.81
501.318	3.92
501.516	3.91
501.713	4.01
501.911	4.01
502.109	3.95
502.306	4.1
502.504	3.99
502.701	4.07
502.899	4.17
503.097	4.29
503.294	4.2
503.492	4.36
503.689	4.37
503.887	4.38
504.084	4.43
504.282	4.39
504.479	4.38
504.677	4.55
504.874	4.53
505.072	4.39
505.269	4.7
505.466	4.64
505.664	4.71
505.861	4.66
506.059	4.77
506.256	4.77
506.453	4.81
506.651	4.91
506.848	4.94
507.045	4.92
507.242	4.99
507.44	5.01
507.637	5.05
507.834	5.04
508.031	5.21
508.229	5.1
508.426	5.08
508.623	5.24
508.82	5.26
509.017	5.23
509.214	5.26
509.411	5.38
509.608	5.33
509.805	5.43
510.003	5.43
510.2	5.5
510.397	5.66
510.594	5.48
510.791	5.65
510.988	5.65
511.184	5.59
511.381	5.47
511.578	5.66
511.775	5.75
511.972	5.74
512.169	5.71
512.366	5.77
512.563	5.9
512.76	5.91
512.956	5.98
513.153	5.91
513.35	5.9
513.547	5.88
513.744	5.99
513.94	6
514.137	6.11
514.334	6.05
514.53	6.16
514.727	6.3
514.924	6.24
515.12	6.21
515.317	6.25
515.514	6.11
515.71	6.14
515.907	6.37
516.103	6.36
516.3	6.32
516.497	6.43
516.693	6.44
516.89	6.42
517.086	6.5
517.283	6.5
517.479	6.44
517.676	6.59
517.872	6.62
518.068	6.58
518.265	6.63
518.461	6.56
518.658	6.72
518.854	6.66
519.05	6.77
519.247	6.81
519.443	6.71
519.639	6.85
519.836	6.74
520.032	6.72
520.228	6.91
520.424	6.78
520.621	6.91
520.817	6.97
521.013	6.84
521.209	7.09
521.405	7.08
521.601	7.03
521.798	7.01
521.994	6.93
522.19	6.94
522.386	7.02
522.582	7.1
522.778	7.26
522.974	7.04
523.17	7.11
523.366	7.08
523.562	7.11
523.758	7.18
523.954	6.98
524.15	7.22
524.346	7.2
524.542	7.28
524.738	7.21
524.934	7.34
525.129	7.35
525.325	7.19
525.521	7.23
525.717	7.44
525.913	7.22
526.109	7.31
526.304	7.39
526.5	7.4
526.696	7.43
526.892	7.33
527.087	7.6
527.283	7.49
527.479	7.45
527.674	7.29
527.87	7.55
528.066	7.54
528.261	7.52
528.457	7.44
528.653	7.57
528.848	7.63
529.044	7.61
529.239	7.47
529.435	7.54
529.63	7.46
529.826	7.46
530.021	7.54
530.217	7.6
530.412	7.55
530.608	7.6
530.803	7.56
530.999	7.45
531.194	7.64
531.389	7.74
531.585	7.71
531.78	7.75
531.975	7.67
532.171	7.73
532.366	7.71
532.561	7.76
532.757	7.72
532.952	7.85
533.147	7.61
533.342	7.74
533.538	7.63
533.733	7.82
533.928	7.58
534.123	7.77
534.318	7.82
534.513	7.75
534.709	7.86
534.904	7.8
535.099	7.84
535.294	7.89
535.489	7.86
535.684	7.82
535.879	7.79
536.074	7.87
536.269	7.89
536.464	7.91
536.659	7.85
536.854	7.87
537.049	7.89
537.244	7.87
537.439	7.82
537.634	7.85
537.828	7.96
538.023	7.94
538.218	7.87
538.413	7.78
538.608	7.91
538.803	7.9
538.997	7.96
539.192	7.91
539.387	7.84
539.582	7.93
539.776	7.83
539.971	7.97
540.166	8.03
540.36	7.95
540.555	8.05
540.75	7.99
540.944	7.99
541.139	8.02
541.334	8
541.528	7.99
541.723	8.04
541.917	8.05
542.112	7.91
542.306	7.86
542.501	7.86
542.695	7.96
542.89	7.91
543.084	8.04
543.279	7.99
543.473	8.02
543.668	8.06
543.862	7.9
544.056	7.86
544.251	8.12
544.445	8.06
544.64	8.13
544.834	7.8
545.028	7.6
545.222	8.06
545.417	8.18
545.611	8.08
545.805	7.97
546	7.85
546.194	8.06
546.388	8.12
546.582	7.94
546.776	8.03
546.97	8.07
547.165	8.05
547.359	7.97
547.553	7.97
547.747	7.96
547.941	8.26
548.135	7.96
548.329	8.06
548.523	8.06
548.717	8
548.911	8.01
549.105	7.98
549.299	8.13
549.493	8.04
549.687	7.96
549.881	8.16
550.075	8.08
550.269	8.06
550.463	8.06
550.657	8.12
550.85	8.1
551.044	8.1
551.238	8.05
551.432	8.14
551.626	8.21
551.82	8.12
552.013	8.03
552.207	8.09
552.401	8.11
552.594	8.01
552.788	8
552.982	8.08
553.176	7.98
553.369	8.25
553.563	8.12
553.756	8.09
553.95	8.11
554.144	8.13
554.337	8.15
554.531	7.92
554.724	8.09
554.918	8.15
555.111	8.04
555.305	8.06
555.498	8
555.692	8.16
555.885	8.11
556.079	8
556.272	8.09
556.466	8.06
556.659	8.01
556.852	8.2
557.046	7.98
557.239	7.96
557.432	8.06
557.626	8.18
557.819	8.2
558.012	8.12
558.206	8.21
558.399	8.09
558.592	8.06
558.785	8.02
558.979	8.05
559.172	8.11
559.365	8.06
559.558	8
559.751	7.98
559.944	8.19
560.138	8.1
560.331	8.11
560.524	8.13
560.717	8.04
560.91	8.09
561.103	8.1
561.296	7.96
561.489	8.09
561.682	8.21
561.875	8.15
562.068	8.2
562.261	7.97
562.454	8.22
562.647	8.12
562.84	8.1
563.032	8.14
563.225	7.97
563.418	8.03
563.611	8.12
563.804	8.19
563.997	8.02
564.19	7.82
564.382	8.22
564.575	8.09
564.768	7.98
564.961	8.08
565.153	8.03
565.346	7.99
565.539	8.18
565.731	8.05
565.924	8.11
566.117	8.24
566.309	8.16
566.502	8.01
566.695	7.97
566.887	8.15
567.08	8.04
567.272	8.08
567.465	7.99
567.657	8.09
567.85	7.92
568.042	8.02
568.235	8.08
568.427	7.92
568.62	8.04
568.812	7.99
569.005	8.11
569.197	8.04
569.389	8.06
569.582	7.98
569.774	8
569.966	8
570.159	7.95
570.351	7.93
570.543	7.99
570.736	8.01
570.928	7.82
571.12	8.03
571.312	7.94
571.505	7.77
571.697	8.04
571.889	8.02
572.081	8
572.273	7.88
572.465	7.95
572.658	7.98
572.85	7.94
573.042	8.03
573.234	7.89
573.426	7.87
573.618	7.91
573.81	7.88
574.002	7.91
574.194	7.94
574.386	7.92
574.578	7.75
574.77	7.82
574.962	7.97
575.154	7.77
575.346	7.81
575.538	7.85
575.729	7.78
575.921	7.88
576.113	7.88
576.305	7.94
576.497	7.91
576.689	7.82
576.88	7.77
577.072	7.9
577.264	7.86
577.456	7.85
577.647	7.75
577.839	7.92
578.031	7.87
578.223	7.78
578.414	7.72
578.606	7.8
578.798	7.82
578.989	7.8
579.181	7.88
579.372	7.76
579.564	7.8
579.755	7.72
579.947	7.71
580.139	7.84
580.33	7.68
580.522	7.72
580.713	7.68
580.905	7.77
581.096	7.88
581.287	7.71
581.479	7.64
581.67	7.74
581.862	7.68
582.053	7.67
582.244	7.61
582.436	7.73
582.627	7.58
582.818	7.59
583.01	7.63
583.201	7.65
583.392	7.57
583.583	7.53
583.775	7.45
583.966	7.49
584.157	7.63
584.348	7.72
584.54	7.6
584.731	7.58
584.922	7.49
585.113	7.46
585.304	7.58
585.495	7.58
585.686	7.56
585.877	7.59
586.068	7.66
586.259	7.56
586.45	7.5
586.641	7.54
586.832	7.64
587.023	7.44
587.214	7.5
587.405	7.58
587.596	7.4
587.787	7.29
587.978	7.39
588.169	7.41
588.36	7.37
588.551	7.4
588.742	7.39
588.932	7.46
589.123	7.26
589.314	7.45
589.505	7.29
589.696	7.34
589.886	7.31
590.077	7.31
590.268	7.27
590.458	7.18
590.649	7.1
590.84	7.26
591.03	7.24
591.221	7.29
591.412	7.08
591.602	7.27
591.793	7.18
591.984	7.29
592.174	7.17
592.365	7.33
592.555	7.07
592.746	7.12
592.936	7.18
593.127	7.21
593.317	7.19
593.508	7.18
593.698	7.02
593.889	7.09
594.079	7.03
594.269	6.98
594.46	7.02
594.65	7.06
594.84	6.99
595.031	6.94
595.221	6.96
595.411	6.95
595.602	6.95
595.792	6.9
595.982	6.84
596.172	6.99
596.363	6.87
596.553	6.85
596.743	6.91
596.933	6.92
597.123	6.84
597.314	6.76
597.504	6.75
597.694	6.81
597.884	6.82
598.074	6.85
598.264	6.77
598.454	6.76
598.644	6.7
598.834	6.72
599.024	6.69
599.214	6.66
599.404	6.79
599.594	6.72
599.784	6.6
599.974	6.74
600.164	6.71
600.354	6.6
600.544	6.51
600.734	6.57
600.924	6.55
601.114	6.46
601.303	6.55
601.493	6.52
601.683	6.63
601.873	6.57
602.063	6.44
602.252	6.47
602.442	6.4
602.632	6.4
602.821	6.38
603.011	6.4
603.201	6.39
603.39	6.35
603.58	6.31
603.77	6.41
603.959	6.42
604.149	6.31
604.339	6.39
604.528	6.43
604.718	6.37
604.907	6.29
605.097	6.23
605.286	6.21
605.476	6.21
605.665	6.24
605.855	6.17
606.044	6.25
606.234	6.24
606.423	6.16
606.612	6.17
606.802	6.08
606.991	6.17
607.181	6.22
607.37	6.09
607.559	5.84
607.749	6.1
607.938	5.98
608.127	6.02
608.316	6.03
608.506	5.91
608.695	6.03
608.884	5.92
609.073	5.98
609.263	6.02
609.452	5.99
609.641	5.8
609.83	5.86
610.019	5.93
610.208	5.87
610.397	5.82
610.586	5.81
610.775	5.75
610.965	5.8
611.154	5.75
611.343	5.75
611.532	5.71
611.721	5.8
611.91	5.71
612.099	5.69
612.287	5.56
612.476	5.56
612.665	5.72
612.854	5.58
613.043	5.61
613.232	5.58
613.421	5.47
613.61	5.53
613.798	5.55
613.987	5.56
614.176	5.46
614.365	5.55
614.554	5.51
614.742	5.49
614.931	5.35
615.12	5.51
615.309	5.5
615.497	5.34
615.686	5.27
615.875	5.37
616.063	5.34
616.252	5.33
616.44	5.33
616.629	5.27
616.818	5.29
617.006	5.22
617.195	5.21
617.383	5.24
617.572	5.21
617.76	5.22
617.949	5.16
618.137	5.3
618.326	5.17
618.514	5.06
618.703	5.02
618.891	5.17
619.079	5.08
619.268	5.08
619.456	5.01
619.644	5.09
619.833	4.98
620.021	5.02
620.209	4.88
620.398	4.92
620.586	4.88
620.774	4.98
620.962	4.94
621.151	4.98
621.339	4.88
621.527	4.8
621.715	4.83
621.903	4.87
622.092	4.82
622.28	4.84
622.468	4.67
622.656	4.81
622.844	4.69
623.032	4.79
623.22	4.68
623.408	4.8
623.596	4.71
623.784	4.74
623.972	4.64
624.16	4.7
624.348	4.65
624.536	4.74
624.724	4.6
624.912	4.57
625.1	4.62
625.288	4.65
625.476	4.56
625.664	4.54
625.851	4.51
626.039	4.6
626.227	4.51
626.415	4.48
626.603	4.35
626.79	4.48
626.978	4.49
627.166	4.47
627.354	4.4
627.541	4.38
627.729	4.27
627.917	4.44
628.104	4.36
628.292	4.3
628.48	4.35
628.667	4.26
628.855	4.36
629.042	4.36
629.23	4.26
629.418	4.29
629.605	4.27
629.793	4.14
629.98	4.19
630.168	4.12
630.355	4.18
630.543	4.17
630.73	4.13
630.917	4.12
631.105	4.2
631.292	4.09
631.48	4.07
631.667	4.09
631.854	4.12
632.042	4.06
632.229	3.97
632.416	4.07
632.604	3.96
632.791	3.86
632.978	3.96
633.165	3.91
633.353	3.94
633.54	4.01
633.727	3.81
633.914	3.82
634.101	3.81
634.289	3.95
634.476	3.76
634.663	3.86
634.85	3.81
635.037	3.83
635.224	3.71
635.411	3.76
635.598	3.72
635.785	3.76
635.972	3.74
636.159	3.76
636.346	3.64
636.533	3.63
636.72	3.68
636.907	3.73
637.094	3.59
637.281	3.52
637.468	3.58
637.655	3.66
637.842	3.62
638.029	3.56
638.215	3.53
638.402	3.56
638.589	3.44
638.776	3.49
638.963	3.5
639.149	3.51
639.336	3.45
639.523	3.47
639.709	3.43
639.896	3.46
640.083	3.41
640.27	3.46
640.456	3.38
640.643	3.35
640.829	3.26
641.016	3.34
641.203	3.23
641.389	3.31
641.576	3.26
641.762	3.25
641.949	3.17
642.135	3.31
642.322	3.24
642.508	3.15
642.695	3.24
642.881	3.14
643.068	3.15
643.254	3.2
643.441	3.17
643.627	3.19
643.813	3.08
644	3.14
644.186	3.08
644.372	3.14
644.559	3.12
644.745	3.08
644.931	3.05
645.118	3.05
645.304	3.08
645.49	3.05
645.676	3.03
645.862	3.01
646.049	3.11
646.235	3
646.421	3.07
646.607	3.04
646.793	2.92
646.979	2.93
647.165	2.99
647.352	2.92
647.538	2.91
647.724	2.89
647.91	2.91
648.096	2.93
648.282	2.92
648.468	2.85
648.654	2.86
648.84	2.82
649.026	2.8
649.212	2.76
649.397	2.77
649.583	2.76
649.769	2.8
649.955	2.79
650.141	2.82
650.327	2.77
650.513	2.73
650.698	2.74
650.884	2.66
651.07	2.76
651.256	2.69
651.442	2.7
651.627	2.61
651.813	2.7
651.999	2.61
652.184	2.63
652.37	2.65
652.556	2.65
652.741	2.6
652.927	2.51
653.113	2.58
653.298	2.61
653.484	2.57
653.669	2.5
653.855	2.53
654.04	2.63
654.226	2.51
654.412	2.49
654.597	2.5
654.782	2.52
654.968	2.49
655.153	2.53
655.339	2.47
655.524	2.43
655.71	2.48
655.895	2.46
656.08	2.42
656.266	2.47
656.451	2.41
656.636	2.38
656.822	2.42
657.007	2.4
657.192	2.36
657.378	2.32
657.563	2.38
657.748	2.36
657.933	2.36
658.118	2.28
658.304	2.35
658.489	2.39
658.674	2.31
658.859	2.26
659.044	2.29
659.229	2.27
659.414	2.25
659.599	2.29
659.785	2.24
659.97	2.23
660.155	2.26
660.34	2.26
660.525	2.2
660.71	2.2
660.895	2.21
661.08	2.17
661.264	2.15
661.449	2.27
661.634	2.19
661.819	2.17
662.004	2.11
662.189	2.07
662.374	2.15
662.559	2.09
662.743	2.04
662.928	2.11
663.113	1.99
663.298	1.99
663.483	2.06
663.667	2.04
663.852	2.01
664.037	2.07
664.221	2.01
664.406	2.06
664.591	1.99
664.775	1.98
664.96	2
665.145	1.9
665.329	1.92
665.514	1.92
665.698	1.96
665.883	1.86
666.068	1.97
666.252	1.86
666.437	1.83
666.621	1.88
666.806	1.84
666.99	1.81
667.174	1.76
667.359	1.89
667.543	1.77
667.728	1.79
667.912	1.75
668.096	1.77
668.281	1.7
668.465	1.79
668.649	1.79
668.834	1.76
669.018	1.69
669.202	1.76
669.387	1.68
669.571	1.78
669.755	1.68
669.939	1.69
670.124	1.67
670.308	1.71
670.492	1.72
670.676	1.68
670.86	1.69
671.044	1.61
671.228	1.67
671.413	1.58
671.597	1.59
671.781	1.6
671.965	1.66
672.149	1.66
672.333	1.6
672.517	1.56
672.701	1.63
672.885	1.62
673.069	1.49
673.253	1.6
673.437	1.55
673.621	1.54
673.804	1.49
673.988	1.49
674.172	1.48
674.356	1.43
674.54	1.5
674.724	1.52
674.908	1.46
675.091	1.51
675.275	1.45
675.459	1.54
675.643	1.5
675.826	1.47
676.01	1.42
676.194	1.43
676.377	1.46
676.561	1.52
676.745	1.45
676.928	1.44
677.112	1.5
677.296	1.41
677.479	1.37
677.663	1.41
677.846	1.41
678.03	1.44
678.213	1.32
678.397	1.47
678.58	1.38
678.764	1.43
678.947	1.34
679.131	1.33
679.314	1.33
679.498	1.39
679.681	1.42
679.865	1.35
680.048	1.35
680.231	1.32
680.415	1.32
680.598	1.28
680.781	1.27
680.965	1.28
681.148	1.3
681.331	1.27
681.514	1.28
681.698	1.27
681.881	1.33
682.064	1.28
682.247	1.24
682.43	1.15
682.614	1.31
682.797	1.3
682.98	1.31
683.163	1.2
683.346	1.22
683.529	1.18
683.712	1.18
683.895	1.27
684.078	1.14
684.261	1.15
684.444	1.26
684.627	1.22
684.81	1.12
684.993	1.14
685.176	1.21
685.359	1.14
685.542	1.1
685.725	1.2
685.908	1.14
686.091	1.11
686.274	1.17
686.457	1.14
686.639	1.09
686.822	1.17
687.005	1.16
687.188	1.06
687.371	1.21
687.553	1.15
687.736	1.12
687.919	1.13
688.102	1.13
688.284	1.08
688.467	1.03
688.65	1.04
688.832	1.02
689.015	1.07
689.197	0.95
689.38	1.17
689.563	1.09
689.745	1
689.928	1.02
690.11	0.99
690.293	1.09
690.475	0.96
690.658	1.04
690.84	0.97
691.023	0.96
691.205	0.98
691.388	0.98
691.57	1.06
691.752	0.99
691.935	0.93
692.117	0.95
692.3	1
692.482	0.96
692.664	0.95
692.847	0.96
693.029	1.01
693.211	1.08
693.393	0.97
693.576	0.88
693.758	0.91
693.94	0.96
694.122	0.9
694.304	0.95
694.487	0.9
694.669	0.95
694.851	0.89
695.033	0.91
695.215	0.94
695.397	0.86
695.579	0.95
695.761	0.83
695.943	0.77
696.125	0.93
696.308	0.91
696.49	0.81
696.671	0.92
696.853	0.89
697.035	1.01
697.217	0.89
697.399	0.9
697.581	0.85
697.763	0.89
697.945	0.84
698.127	0.87
698.309	0.88
698.491	0.89
698.672	0.88
698.854	0.86
699.036	0.92
699.218	0.87
699.399	0.96
699.581	0.88
699.763	0.8
699.945	0.83
700.126	0.76
700.308	0.85
700.49	0.75
700.671	0.73
700.853	0.8
701.035	0.84
701.216	0.83
701.398	0.74
701.579	0.78
701.761	0.85
701.943	0.7
702.124	0.77
702.306	0.73
702.487	0.94
702.669	0.73
702.85	0.77
703.031	0.71
703.213	0.88
703.394	0.78
703.576	0.73
703.757	0.86
703.938	0.82
704.12	0.84
704.301	0.75
704.483	0.81
704.664	0.77
704.845	0.92
705.026	0.8
705.208	0.74
705.389	0.81
705.57	0.82
705.751	0.67
705.933	0.78
706.114	0.89
706.295	0.7
706.476	0.72
706.657	0.82
706.838	0.76
707.02	0.78
707.201	0.77
707.382	0.71
707.563	0.7
707.744	0.76
707.925	0.69
708.106	0.7
708.287	0.72
708.468	0.82
708.649	0.76
708.83	0.71
709.011	0.69
709.192	0.73
709.373	0.65
709.554	0.66
709.734	0.77
709.915	0.69
710.096	0.68
710.277	0.62
710.458	0.75
710.639	0.69
710.819	0.54
711	0.67
711.181	0.75
711.362	0.69
711.542	0.68
711.723	0.63
711.904	0.69
712.085	0.71
712.265	0.72
712.446	0.64
712.627	0.58
712.807	0.65
712.988	0.66
713.168	0.65
713.349	0.65
713.53	0.52
713.71	0.63
713.891	0.6
714.071	0.62
714.252	0.58
714.432	0.63
714.613	0.61
714.793	0.62
714.974	0.67
715.154	0.7
715.334	0.72
715.515	0.7
715.695	0.54
715.876	0.64
716.056	0.56
716.236	0.63
716.417	0.61
716.597	0.61
716.777	0.72
716.957	0.55
717.138	0.56
717.318	0.73
717.498	0.48
717.678	0.6
717.859	0.69
718.039	0.51
718.219	0.68
718.399	0.64
718.579	0.53
718.759	0.61
718.939	0.64
719.12	0.63
719.3	0.62
719.48	0.49
719.66	0.47
719.84	0.64
720.02	0.6
720.2	0.58
720.38	0.57
720.56	0.66
720.74	0.54
720.92	0.64
721.1	0.72
721.279	0.61
721.459	0.62
721.639	0.45
721.819	0.56
721.999	0.59
722.179	0.6
722.359	0.5
722.538	0.67
722.718	0.58
722.898	0.51
723.078	0.59
723.257	0.49
723.437	0.68
723.617	0.58
723.797	0.51
723.976	0.54
724.156	0.63
724.336	0.71
724.515	0.73
724.695	0.41
724.874	0.63
725.054	0.59
725.234	0.52
725.413	0.63
725.593	0.56
725.772	0.58
725.952	0.55
726.131	0.56
726.311	0.57
726.49	0.59
726.67	0.56
726.849	0.59
727.028	0.62
727.208	0.52
727.387	0.62
727.567	0.52
727.746	0.61
727.925	0.52
728.105	0.51
728.284	0.59
728.463	0.52
728.643	0.62
728.822	0.55
729.001	0.6
729.18	0.54
729.359	0.56
729.539	0.52
729.718	0.59
729.897	0.46
730.076	0.51
730.255	0.55
730.434	0.6
730.614	0.55
730.793	0.56
730.972	0.61
731.151	0.56
731.33	0.65
731.509	0.66
731.688	0.59
731.867	0.57
732.046	0.46
732.225	0.6
732.404	0.48
732.583	0.49
732.762	0.65
732.941	0.57
733.12	0.59
733.298	0.61
733.477	0.71
733.656	0.6
733.835	0.51
734.014	0.67
734.193	0.62
734.371	0.65
734.55	0.58
734.729	0.44
734.908	0.66
735.086	0.7
735.265	0.67
735.444	0.45
735.623	0.49
735.801	0.45
735.98	0.62
736.159	0.58
736.337	0.66
736.516	0.68
736.694	0.55
736.873	0.51
737.052	0.63
737.23	0.68
737.409	0.58
737.587	0.7
737.766	0.37
737.944	0.52
738.123	0.71
738.301	0.61
738.479	0.61
738.658	0.63
738.836	0.45
739.015	0.72
739.193	0.77
739.371	0.56
739.55	0.49
739.728	0.49
739.906	0.73
740.085	0.7
740.263	0.6
740.441	0.47
740.62	0.77
740.798	0.59
740.976	0.51
741.154	0.55
741.332	0.64
741.511	0.54
741.689	0.65
741.867	0.57
742.045	0.51
742.223	0.55
742.401	0.46
742.579	0.52
742.757	0.56
742.935	0.49
743.114	0.55
743.292	0.48
743.47	0.54
743.648	0.45
743.826	0.38
744.004	0.58
744.181	0.61
744.359	0.41
744.537	0.53
744.715	0.46
744.893	0.41
745.071	0.54
745.249	0.44
745.427	0.38
745.605	0.56
745.782	0.52
745.96	0.48
746.138	0.58
746.316	0.41
746.493	0.35
746.671	0.42
746.849	0.39
747.027	0.55
747.204	0.36
747.382	0.53
747.56	0.24
747.737	0.5
747.915	0.38
748.093	0.42
748.27	0.52
748.448	0.37
748.625	0.38
748.803	0.42
748.98	0.41
749.158	0.44
749.335	0.5
749.513	0.46
749.69	0.36
749.868	0.42
750.045	0.48
750.223	0.33
750.4	0.3
750.578	0.61
750.755	0.4
750.932	0.26
751.11	0.55
751.287	0.26
751.464	0.58
751.642	0.27
751.819	0.4
751.996	0.39
752.173	0.33
752.351	0.23
752.528	0.38
752.705	0.44
752.882	0.41
753.06	0.43
753.237	0.47
753.414	0.55
753.591	0.51
753.768	0.41
753.945	0.27
754.122	0.31
754.299	0.49
754.476	0.35
754.654	0.4
754.831	0.4
755.008	0.37
755.185	0.37
755.362	0.32
755.539	0.35
755.716	0.57
755.892	0.35
756.069	0.38
756.246	0.4
756.423	0.41
756.6	0.48
756.777	0.36
756.954	0.46
757.131	0.37
757.307	0.34
757.484	0.31
757.661	0.41
757.838	0.47
758.015	0.32
758.191	0.5
758.368	0.55
758.545	0.46
758.721	0.35
758.898	0.3
759.075	0.56
759.251	0.49
759.428	0.51
759.605	0.25
759.781	0.42
759.958	0.42
760.134	0.46
760.311	0.37
760.488	0.51
760.664	0.47
760.841	0.41
761.017	0.3
761.194	0.5
761.37	0.44
761.547	0.36
761.723	0.23
761.899	0.53
762.076	0.33
762.252	0.39
762.429	0.39
762.605	0.38
762.781	0.34
762.958	0.46
763.134	0.31
763.31	0.21
763.486	0.46
763.663	0.17
763.839	0.48
764.015	0.27
764.191	0.24
764.368	0.25
764.544	0.31
764.72	0.34
764.896	0.42
765.072	0.39
765.248	0.33
765.425	0.36
765.601	0.3
765.777	0.46
765.953	0.24
766.129	0.44
766.305	0.23
766.481	0.44
766.657	0.38
766.833	0.49
767.009	0.23
767.185	0.29
767.361	0.46
767.537	0.25
767.713	0.47
767.889	0.26
768.065	0.35
768.24	0.36
768.416	0.52
768.592	0.34
768.768	0.39
768.944	0.34
769.12	0.28
769.295	0.4
769.471	0.46
769.647	0.39
769.823	0.34
769.998	0.34
770.174	0.29
770.35	0.69
770.525	0.56
770.701	0.49
770.877	0.38
771.052	0.34
771.228	0.31
771.403	0.45
771.579	0.36
771.755	0.66
771.93	0.37
772.106	0.24
772.281	0.19
772.457	0.37
772.632	0.47
772.808	0.36
772.983	0.33
773.159	0.23
773.334	0.29
773.509	0.34
773.685	0.24
773.86	0.63
774.036	0.45
774.211	0.45
774.386	0.33
774.562	0.52
774.737	0.33
774.912	0.35
775.087	0.5
775.263	0.35
775.438	0.36
775.613	0.31
775.788	0.36
775.964	0.38
776.139	0.53
776.314	0.23
776.489	0.51
776.664	0.4
776.839	0.2
777.014	0.57
777.19	0.57
777.365	0.6
777.54	0.62
777.715	0.16
777.89	0.44
778.065	0.3
778.24	0.45
778.415	0.53
778.59	0.27
778.765	0.38
778.94	0.25
779.115	0.36
779.289	0.35
779.464	0.27
779.639	0.41
779.814	0.13
779.989	0.28
780.164	0.53
780.339	0.4
780.513	0.33
780.688	0.3
780.863	0.23
781.038	0.54
781.212	0.39
781.387	0.24
781.562	0.62
781.737	0.55
781.911	0.47
782.086	0.43
782.261	0.46
782.435	0.55
782.61	0.38
782.784	0.33
782.959	0.69
783.134	0.36
783.308	0.08
783.483	0.36
783.657	0.71
783.832	0.63
784.006	0.22
784.181	0.53
784.355	0.66
784.53	0.47
784.704	0.31
784.878	0.75
785.053	0.39
785.227	0.44
785.402	0.62
785.576	0.05
785.75	0.45
785.925	0.39
786.099	0.3
786.273	0.66
786.448	0.49
786.622	0.53
786.796	0.48
786.97	0.31
787.145	0.68
787.319	0.32
787.493	0.35
787.667	0.37
787.841	0.48
788.015	0.61
788.19	0.45
788.364	0.73
788.538	0.56
788.712	0.61
788.886	0.35
789.06	0.66
789.234	0.68
789.408	0.37
789.582	0.28
789.756	0.38
789.93	0.35
790.104	0.39
790.278	0.4
790.452	0.31
790.626	0.54
790.8	0.41
790.973	0.56
791.147	0.6
791.321	0.52
791.495	0.35
791.669	0.39
791.843	0.49
792.016	0.56
792.19	0.76
792.364	0.4
792.538	0.71
792.711	0.75
792.885	0.28
793.059	0.3
793.233	-0.08
793.406	0.54
793.58	0.56
793.754	0.61
793.927	0.6
794.101	0.55
794.274	0.46
794.448	0.56
794.622	0.11
794.795	0.61
794.969	0.21
795.142	0.9
795.316	0.61
795.489	0.43
795.663	0.61
795.836	0.57
796.009	0.46
796.183	0.84
796.356	0.59
796.53	0.35
796.703	0.53
796.876	0.84
797.05	0.34
797.223	0.41
797.396	0.65
797.57	0.51
797.743	0.6
797.916	0.76
798.09	0.48
798.263	0.69
798.436	0.67
798.609	0.45
798.782	0.42
798.956	0.49
799.129	0.38
799.302	0.44
799.475	0.54
799.648	0.31
799.821	0.68
799.994	0.5
800.167	0.18
800.34	0.32
800.514	0.55
800.687	0.54
800.86	0.47
801.033	0.7
801.206	0.56
801.379	0.26
801.551	0.87
801.724	1.03
801.897	1.06
802.07	0.5
802.243	0.44
802.416	0.48
802.589	0.52
802.762	0.88
802.935	0.65
803.107	0.89
803.28	0.77
803.453	0.82
803.626	0.24
803.798	0.46
803.971	0.24
804.144	0.68
804.317	0.64
804.489	0.82
804.662	0.48
804.835	0.63
805.007	0.15
805.18	0.67
805.353	0.66
805.525	0.24
805.698	0.25
805.87	0.68
806.043	0.5
806.215	0.33
806.388	0.74
806.56	0.49
806.733	0.97
806.905	0.75
807.078	0.42
807.25	0.43
807.423	0.33
807.595	0.12
807.768	0.77
807.94	1.13
808.112	0.34
808.285	0.75
808.457	0.63
808.629	0.7
808.802	0.66
808.974	0.73
809.146	0.48
809.318	0.15
809.491	0.73
809.663	0.76
809.835	0.47
810.007	0.77
810.18	0.54
810.352	0.25
810.524	0.56
810.696	0.57
810.868	0.67
811.04	0.5
811.212	0.52
811.384	0.58
811.556	0.56
811.728	0.59
811.901	1.34
812.073	0.4
812.245	0.65
812.417	0.56
812.589	0.24
812.76	0.62
812.932	0.87
813.104	1.13
813.276	0.44
813.448	1.11
813.62	0.82
813.792	0.48
813.964	0.82
814.136	0.3
814.307	0.43
814.479	0.25
814.651	0.41
814.823	1.5
814.995	0.58
815.166	1.42
815.338	0.28
815.51	0.37
815.681	1.09
815.853	0.75
816.025	0.81
816.196	1.31
816.368	0.9
816.54	0.67
816.711	0.48
816.883	0.83
817.054	1.38
817.226	0.61
817.398	0.68
817.569	0.83
817.741	0.74
817.912	0.84
818.084	0.72
818.255	0.75
818.426	0.57
818.598	0.83
818.769	0.6
818.941	0.76
819.112	1.21
819.283	1.05
819.455	0.26
819.626	0.97
819.798	0.57
819.969	0.76
820.14	0.65
820.311	0.9
820.483	0.95
820.654	1.01
820.825	0.52
820.996	0.66
821.168	0.47
821.339	0.66
821.51	0.45
821.681	0.69
821.852	0.6
822.023	0.6
822.195	0.25
822.366	0.94
822.537	0.77
822.708	0.83
822.879	0.34
823.05	1.3
823.221	0.52
823.392	1.08
823.563	0.91
823.734	0.94
823.905	1.05
824.076	0.49
824.247	0.36
824.418	0.54
824.589	1.29
824.759	0.82
824.93	1.2
825.101	-0.01
825.272	1.2
825.443	1.34
825.614	1.53
825.784	0.48
825.955	1.86
826.126	1.46
826.297	0.61
826.467	1.58
826.638	1.5
826.809	0.11
826.98	0.55
827.15	1.46
827.321	0.02
827.492	1.78
827.662	1.24
827.833	1.46
828.003	1.47
828.174	0.67
828.345	0.78
828.515	1.36
828.686	1.3
828.856	0.85
829.027	0.6
829.197	0.89
829.368	0.78
829.538	0.19
829.709	0.31
829.879	0.93
830.049	1.03
830.22	0.52
830.39	0.76
830.56	1.63
830.731	0.47
830.901	0.32
831.072	1.08
831.242	1.05
831.412	0.74
831.582	1.43
831.753	0.38
831.923	1.37
832.093	0.74
832.263	1.18
832.434	0.38
832.604	0.6
832.774	1.35
832.944	0.86
833.114	0.47
833.284	1.14
833.454	0.24
833.624	0.32
833.795	1.14
833.965	1.79
834.135	1.05
834.305	0.62
834.475	0.56
834.645	0.44
834.815	0.94
834.985	0.21
835.155	1
835.325	0.96
835.494	0.44
835.664	0.83
835.834	0.67
836.004	0.62
836.174	1.48
836.344	1.76
836.514	0.07
836.684	0.22
836.853	1.02
837.023	1.29
837.193	0.55
837.363	1.44
837.532	1.27
837.702	0.55
837.872	-0.01
838.041	1.09
838.211	2.08
838.381	0.39
838.55	0.91
838.72	1.86
838.89	1.42
839.059	0.95
839.229	1.21
839.398	2.15
839.568	1.37
839.738	1.29
839.907	1.14
840.077	0.95
840.246	0.82
840.416	0.67
840.585	0.37
840.755	1.33
840.924	1.7
841.093	0.6
841.263	0.58
841.432	1.07
841.602	0.27
841.771	0.34
841.94	0.84
842.11	2.02
842.279	1.71
842.448	1.01
842.617	0.62
842.787	2.42
842.956	0.73
843.125	0.95
843.294	0.92
843.464	0.55
843.633	0.29
843.802	1
843.971	1.61
844.14	1.32
844.309	1.12
844.479	0.41
844.648	0.54
844.817	-0.16
844.986	0.55
845.155	0.99
845.324	1.54
845.493	1.41
845.662	1.54
845.831	1.08
846	1.88
846.169	0.81
846.338	1.95
846.507	1.89
846.676	2.16
846.844	0.82
847.013	1.05
847.182	1.02
847.351	1.12
847.52	0.74
847.689	1.08
847.858	1.45
848.026	0.12
848.195	1.3
848.364	1.39
848.533	0.44
848.701	1.16
848.87	1.61
849.039	1.13
849.207	1.83
849.376	1.83
849.545	1.58
849.713	1.04
849.882	0.97
850.051	1.6
850.219	2.51
850.388	1.24
850.556	1.02
850.725	1.08
850.893	1.67
851.062	1.19
851.23	1.78
851.399	0.38
851.567	0.23
851.736	1.56
851.904	1.24
852.073	1
852.241	1.38
852.41	2.45
852.578	1.33
852.746	1.37
852.915	1.93
853.083	1.45
853.251	1.19
853.42	0.91
853.588	1.46
853.756	2.99
853.924	0.51
854.093	0.54
854.261	0.55
854.429	0.92
854.597	2.06
854.765	0.21
854.934	1.47
855.102	2.59
855.27	1.14
855.438	1.33
855.606	3.23
855.774	2.42
855.942	-0.09
856.11	0.98
856.278	0.86
856.446	1.37
856.614	1.42
856.782	2.54
856.95	1.93
857.118	1.51
857.286	1.47
857.454	1
857.622	2.58
857.79	0.94
857.958	0.35
858.126	1.47
858.294	0.88
858.462	0.96
858.629	1.71
858.797	1.38
858.965	1.19
859.133	2.27
859.301	0.85
859.468	2.33
859.636	0.08
859.804	1.98
859.971	3.17
860.139	0.9
860.307	2.48
860.474	1.34
860.642	0.86
860.81	1.33
860.977	1.04
861.145	1.22
861.313	-0.36
861.48	2.28
861.648	2.87
861.815	1.42
861.983	0.87
862.15	1.73
862.318	1.9
862.485	2.76
862.653	1.22
862.82	0.24
862.988	2.76
863.155	2.58
863.322	1.06
863.49	0.8
863.657	0.5
863.824	2.34
863.992	2.01
864.159	1.52
864.326	2.89
864.494	0.63
864.661	5.14
864.828	1.04
864.996	2.01
865.163	4.2
865.33	0.57
865.497	-0.1
865.664	1.19
865.832	-0.41
865.999	0.67
866.166	0.93
866.333	0.98
866.5	0.46
866.667	1.2
866.834	0.73
867.001	3.22
867.168	1.19
867.335	2
867.502	1.09
867.669	1.84
867.836	3.38
868.003	1.09
868.17	4.06
868.337	2.53
868.504	3.53
868.671	1.47
868.838	1.33
869.005	1.45
869.172	2.34
869.339	2.16
869.505	1.81
869.672	0.82
869.839	3.29
870.006	1.81
870.173	0.35
870.339	3.15
870.506	3.98
870.673	0.19
870.84	3.3
871.006	1.92
871.173	2.63
871.34	0.75
871.506	0.03
871.673	1.8
871.839	1.93
872.006	2.62
872.173	3.49
872.339	1.43
872.506	3.76
872.672	2.06
872.839	-0.23
873.005	2.83
873.172	5.07
873.338	2.85
873.505	2.14
873.671	0.99
873.838	2.25
874.004	0.17
874.171	1.47
874.337	0.84
874.503	2.06
874.67	3.89
874.836	1.41
875.002	3.2
875.169	1.67
875.335	2.88
875.501	2.84
875.668	2.87
875.834	1.81
876	1.88
876.166	5.01
876.332	2.89
876.499	6.68
876.665	2.07
876.831	1.29
876.997	2.96
877.163	3.4
877.329	-0.04
877.495	3.38
877.662	3.28
877.828	0.14
877.994	2.63
878.16	0.65
878.326	2.09
878.492	4.11
878.658	1.15
878.824	1.99
878.99	1.56
879.156	1.49
879.322	4.22
879.487	4.15
879.653	3.98
879.819	2.64
879.985	1.75
880.151	3.04
880.317	2.86
880.483	3.12
880.648	2.67
880.814	1.12
880.98	2.32
881.146	0.86
881.312	0.62
881.477	1.86
881.643	3.78
881.809	3.26
881.974	4.29
882.14	0.71
882.306	1.81
882.471	5.18
882.637	0.92
882.803	3.76
882.968	3.93
883.134	3.16
883.299	2.09
883.465	3.75
883.63	4.53
883.796	2.66
883.961	3.2
884.127	2.64
884.292	-0.8
884.458	0.52
884.623	0.51
