Data from Apollo_Calib_20240827__AbsoluteIrradiance__870__13-39-00-379.txt Node

Date: Wed Aug 28 13:39:00 BST 2024
User: biology
Spectrometer: FLMT08252
Trigger mode: 0
Integration Time (sec): 5.000000E-1
Scans to average: 5
Electric dark correction enabled: true
Nonlinearity correction enabled: false
Boxcar width: 0
XAxis mode: Wavelengths
Number of Pixels in Spectrum: 3648
>>>>>Begin Spectral Data<<<<<
179.588	-0
179.809	-0
180.03	-0
180.251	-0
180.473	-0
180.694	0
180.915	0
181.136	-0
181.357	0
181.578	0
181.799	-0
182.02	-0
182.241	0
182.462	-0
182.683	0
182.904	-0
183.125	-0
183.346	0
183.567	0
183.788	0
184.009	0
184.23	0
184.451	0
184.672	0
184.892	0
185.113	0
185.334	0
185.555	0
185.776	0
185.996	0
186.217	0
186.438	0
186.659	0
186.879	0
187.1	0
187.321	0
187.541	0
187.762	0
187.983	0
188.203	0
188.424	0
188.644	0
188.865	0
189.086	0
189.306	0
189.527	0
189.747	0
189.968	0
190.188	0
190.409	0
190.629	0
190.849	0
191.07	0
191.29	0
191.511	0
191.731	0
191.951	0
192.172	0
192.392	0
192.612	0
192.833	0
193.053	0
193.273	0
193.493	0
193.714	0
193.934	0
194.154	0
194.374	0
194.594	0
194.815	0
195.035	0
195.255	0
195.475	0
195.695	0
195.915	0
196.135	0
196.355	0
196.575	0
196.795	0
197.015	0
197.235	0
197.455	0
197.675	0
197.895	0
198.115	0
198.335	0
198.555	0
198.775	0
198.995	0
199.214	0
199.434	0
199.654	0
199.874	0
200.094	4.46
200.313	3.28
200.533	1.84
200.753	1.83
200.973	3.87
201.192	2.86
201.412	1.4
201.632	1.73
201.851	3.89
202.071	1.83
202.291	1.64
202.51	1.2
202.73	2.71
202.95	1.64
203.169	1.41
203.389	2.36
203.608	2.44
203.828	2.11
204.047	1.57
204.267	2.37
204.486	2.3
204.706	2.43
204.925	1.53
205.145	1.25
205.364	2.34
205.583	2.78
205.803	1.16
206.022	0.99
206.242	1.51
206.461	1.73
206.68	1.54
206.9	1.42
207.119	2.38
207.338	2.48
207.557	1.22
207.777	1.24
207.996	1.38
208.215	2.2
208.434	1.11
208.654	1
208.873	1.49
209.092	2
209.311	1.08
209.53	1.09
209.749	1.15
209.968	1.21
210.187	0.97
210.407	0.89
210.626	1.11
210.845	1.7
211.064	0.89
211.283	0.71
211.502	1.75
211.721	1.09
211.94	0.86
212.159	1.19
212.377	1.36
212.596	1.71
212.815	1.05
213.034	1.04
213.253	1.26
213.472	1.4
213.691	0.82
213.91	0.64
214.128	0.84
214.347	1.78
214.566	0.7
214.785	0.51
215.003	0.99
215.222	1.25
215.441	0.96
215.66	0.45
215.878	0.94
216.097	1.27
216.316	0.67
216.534	0.93
216.753	1.01
216.972	0.76
217.19	0.87
217.409	0.44
217.627	0.7
217.846	0.79
218.064	0.94
218.283	0.57
218.501	1.34
218.72	1.19
218.938	0.4
219.157	0.6
219.375	1.16
219.594	1.14
219.812	0.51
220.031	0.62
220.249	1.24
220.467	1.07
220.686	0.79
220.904	0.51
221.122	0.65
221.341	1.29
221.559	0.81
221.777	0.46
221.995	0.85
222.214	0.97
222.432	0.61
222.65	0.85
222.868	0.67
223.086	0.86
223.305	0.81
223.523	0.59
223.741	1.16
223.959	0.76
224.177	0.35
224.395	0.55
224.613	0.88
224.831	0.93
225.049	0.34
225.267	0.71
225.485	0.77
225.703	0.56
225.921	0.56
226.139	0.53
226.357	0.73
226.575	0.88
226.793	0.48
227.011	1.49
227.229	0.74
227.447	0.86
227.665	0.4
227.883	0.33
228.1	0.67
228.318	0.78
228.536	0.36
228.754	0.54
228.972	0.76
229.189	0.77
229.407	0.53
229.625	0.49
229.843	0.92
230.06	0.83
230.278	0.48
230.496	0.59
230.713	0.68
230.931	0.78
231.149	0.54
231.366	0.31
231.584	0.71
231.801	1.05
232.019	0.51
232.236	0.39
232.454	0.47
232.671	0.64
232.889	0.39
233.106	0.43
233.324	0.6
233.541	0.56
233.759	0.57
233.976	0.34
234.194	0.46
234.411	0.54
234.628	0.44
234.846	0.53
235.063	0.62
235.28	0.58
235.498	0.44
235.715	0.33
235.932	0.79
236.149	0.67
236.367	0.36
236.584	0.55
236.801	0.5
237.018	0.73
237.236	0.41
237.453	0.22
237.67	0.69
237.887	0.52
238.104	0.48
238.321	0.34
238.538	0.44
238.755	0.79
238.973	0.29
239.19	0.49
239.407	0.66
239.624	0.43
239.841	0.42
240.058	0.34
240.275	0.51
240.492	0.56
240.709	0.49
240.925	0.46
241.142	0.43
241.359	0.27
241.576	0.31
241.793	0.32
242.01	0.53
242.227	0.75
242.444	0.58
242.66	0.55
242.877	0.54
243.094	0.34
243.311	0.32
243.527	0.45
243.744	0.56
243.961	0.53
244.178	0.3
244.394	0.46
244.611	0.64
244.828	0.77
245.044	0.36
245.261	0.37
245.477	0.52
245.694	0.43
245.911	0.34
246.127	0.46
246.344	0.64
246.56	0.58
246.777	0.28
246.993	0.47
247.21	0.44
247.426	0.58
247.643	0.29
247.859	0.39
248.076	0.33
248.292	0.63
248.508	0.3
248.725	0.53
248.941	0.49
249.157	0.63
249.374	0.27
249.59	0.39
249.806	0.4
250.023	0.47
250.239	0.32
250.455	0.39
250.671	0.45
250.888	0.53
251.104	0.41
251.32	0.23
251.536	0.44
251.752	0.35
251.969	0.39
252.185	0.42
252.401	0.6
252.617	0.46
252.833	0.28
253.049	0.41
253.265	0.39
253.481	0.47
253.697	0.33
253.913	0.3
254.129	0.51
254.345	0.38
254.561	0.31
254.777	0.31
254.993	0.51
255.209	0.44
255.425	0.39
255.641	0.32
255.857	0.52
256.073	0.45
256.288	0.24
256.504	0.37
256.72	0.46
256.936	0.57
257.152	0.35
257.367	0.25
257.583	0.46
257.799	0.41
258.015	0.24
258.23	0.26
258.446	0.57
258.662	0.36
258.877	0.32
259.093	0.34
259.309	0.35
259.524	0.47
259.74	0.33
259.955	0.25
260.171	0.39
260.387	0.46
260.602	0.42
260.818	0.42
261.033	0.37
261.249	0.37
261.464	0.31
261.68	0.3
261.895	0.46
262.11	0.44
262.326	0.33
262.541	0.25
262.757	0.43
262.972	0.4
263.187	0.38
263.403	0.42
263.618	0.46
263.833	0.35
264.049	0.24
264.264	0.25
264.479	0.37
264.694	0.49
264.91	0.18
265.125	0.29
265.34	0.45
265.555	0.51
265.77	0.37
265.986	0.23
266.201	0.38
266.416	0.51
266.631	0.33
266.846	0.33
267.061	0.39
267.276	0.47
267.491	0.12
267.706	0.41
267.921	0.42
268.136	0.39
268.351	0.36
268.566	0.19
268.781	0.48
268.996	0.4
269.211	0.33
269.426	0.25
269.641	0.35
269.856	0.46
270.071	0.24
270.285	0.22
270.5	0.43
270.715	0.41
270.93	0.34
271.145	0.32
271.359	0.47
271.574	0.31
271.789	0.34
272.004	0.33
272.218	0.28
272.433	0.36
272.648	0.32
272.862	0.47
273.077	0.43
273.292	0.33
273.506	0.29
273.721	0.28
273.936	0.37
274.15	0.44
274.365	0.24
274.579	0.37
274.794	0.43
275.008	0.41
275.223	0.26
275.437	0.31
275.652	0.39
275.866	0.44
276.081	0.3
276.295	0.39
276.509	0.28
276.724	0.32
276.938	0.28
277.153	0.35
277.367	0.39
277.581	0.27
277.796	0.22
278.01	0.23
278.224	0.42
278.438	0.44
278.653	0.2
278.867	0.24
279.081	0.15
279.295	0.33
279.51	0.38
279.724	0.19
279.938	0.36
280.152	0.38
280.366	0.24
280.58	0.33
280.794	0.5
281.008	0.37
281.222	0.39
281.437	0.46
281.651	0.35
281.865	0.48
282.079	0.28
282.293	0.12
282.507	0.29
282.721	0.29
282.935	0.27
283.148	0.15
283.362	0.29
283.576	0.22
283.79	0.34
284.004	0.28
284.218	0.41
284.432	0.26
284.646	0.31
284.859	0.23
285.073	0.31
285.287	0.35
285.501	0.28
285.714	0.26
285.928	0.33
286.142	0.34
286.356	0.17
286.569	0.17
286.783	0.41
286.997	0.38
287.21	0.3
287.424	0.3
287.637	0.29
287.851	0.32
288.065	0.36
288.278	0.2
288.492	0.27
288.705	0.26
288.919	0.32
289.132	0.2
289.346	0.34
289.559	0.22
289.773	0.19
289.986	0.19
290.2	0.22
290.413	0.38
290.626	0.26
290.84	0.22
291.053	0.28
291.267	0.34
291.48	0.24
291.693	0.23
291.906	0.28
292.12	0.32
292.333	0.23
292.546	0.29
292.76	0.38
292.973	0.26
293.186	0.31
293.399	0.18
293.612	0.32
293.826	0.29
294.039	0.26
294.252	0.22
294.465	0.34
294.678	0.32
294.891	0.27
295.104	0.24
295.317	0.25
295.53	0.28
295.743	0.3
295.956	0.25
296.169	0.43
296.382	0.31
296.595	0.25
296.808	0.23
297.021	0.36
297.234	0.35
297.447	0.27
297.66	0.27
297.873	0.33
298.086	0.3
298.299	0.21
298.511	0.21
298.724	0.28
298.937	0.23
299.15	0.22
299.363	0.22
299.575	0.32
299.788	0.31
300.001	0.24
300.213	0.22
300.426	0.29
300.639	0.19
300.852	0.19
301.064	0.27
301.277	0.32
301.489	0.34
301.702	0.28
301.915	0.25
302.127	0.28
302.34	0.27
302.552	0.31
302.765	0.22
302.977	0.31
303.19	0.27
303.402	0.25
303.615	0.28
303.827	0.24
304.04	0.23
304.252	0.3
304.464	0.24
304.677	0.43
304.889	0.35
305.102	0.21
305.314	0.26
305.526	0.24
305.739	0.34
305.951	0.21
306.163	0.25
306.375	0.35
306.588	0.25
306.8	0.22
307.012	0.21
307.224	0.29
307.436	0.4
307.649	0.17
307.861	0.27
308.073	0.33
308.285	0.21
308.497	0.21
308.709	0.2
308.921	0.24
309.133	0.35
309.346	0.26
309.558	0.26
309.77	0.27
309.982	0.35
310.194	0.34
310.406	0.23
310.617	0.37
310.829	0.27
311.041	0.28
311.253	0.22
311.465	0.25
311.677	0.26
311.889	0.2
312.101	0.18
312.313	0.34
312.524	0.36
312.736	0.18
312.948	0.21
313.16	0.35
313.372	0.3
313.583	0.3
313.795	0.22
314.007	0.23
314.218	0.31
314.43	0.24
314.642	0.2
314.853	0.15
315.065	0.3
315.277	0.23
315.488	0.27
315.7	0.32
315.912	0.35
316.123	0.26
316.335	0.26
316.546	0.34
316.758	0.25
316.969	0.21
317.181	0.25
317.392	0.27
317.604	0.34
317.815	0.22
318.026	0.21
318.238	0.24
318.449	0.33
318.661	0.15
318.872	0.22
319.083	0.22
319.295	0.33
319.506	0.24
319.717	0.23
319.929	0.32
320.14	0.3
320.351	0.25
320.562	0.2
320.774	0.29
320.985	0.26
321.196	0.21
321.407	0.17
321.618	0.31
321.829	0.3
322.041	0.3
322.252	0.27
322.463	0.34
322.674	0.27
322.885	0.18
323.096	0.26
323.307	0.28
323.518	0.31
323.729	0.22
323.94	0.25
324.151	0.22
324.362	0.37
324.573	0.26
324.784	0.24
324.995	0.35
325.206	0.23
325.417	0.24
325.628	0.2
325.838	0.27
326.049	0.28
326.26	0.29
326.471	0.22
326.682	0.24
326.892	0.26
327.103	0.19
327.314	0.23
327.525	0.36
327.735	0.27
327.946	0.21
328.157	0.24
328.368	0.29
328.578	0.25
328.789	0.3
328.999	0.26
329.21	0.26
329.421	0.31
329.631	0.24
329.842	0.19
330.052	0.26
330.263	0.31
330.473	0.31
330.684	0.23
330.894	0.3
331.105	0.29
331.315	0.27
331.526	0.21
331.736	0.36
331.947	0.32
332.157	0.23
332.367	0.17
332.578	0.29
332.788	0.33
332.999	0.3
333.209	0.23
333.419	0.21
333.629	0.29
333.84	0.28
334.05	0.22
334.26	0.36
334.47	0.29
334.681	0.28
334.891	0.24
335.101	0.31
335.311	0.38
335.521	0.21
335.732	0.23
335.942	0.33
336.152	0.3
336.362	0.24
336.572	0.27
336.782	0.3
336.992	0.24
337.202	0.22
337.412	0.23
337.622	0.29
337.832	0.23
338.042	0.26
338.252	0.2
338.462	0.24
338.672	0.25
338.882	0.27
339.092	0.25
339.302	0.39
339.511	0.29
339.721	0.28
339.931	0.17
340.141	0.34
340.351	0.33
340.561	0.27
340.77	0.31
340.98	0.32
341.19	0.31
341.4	0.2
341.609	0.18
341.819	0.25
342.029	0.23
342.238	0.21
342.448	0.26
342.658	0.32
342.867	0.29
343.077	0.26
343.286	0.21
343.496	0.3
343.706	0.36
343.915	0.19
344.125	0.26
344.334	0.27
344.544	0.15
344.753	0.2
344.963	0.22
345.172	0.25
345.381	0.25
345.591	0.19
345.8	0.24
346.01	0.3
346.219	0.34
346.428	0.12
346.638	0.22
346.847	0.31
347.056	0.36
347.266	0.24
347.475	0.19
347.684	0.34
347.893	0.31
348.103	0.32
348.312	0.21
348.521	0.26
348.73	0.3
348.94	0.29
349.149	0.24
349.358	0.26
349.567	0.24
349.776	0.21
349.985	0.2
350.194	0.34
350.403	0.31
350.612	0.15
350.821	0.21
351.03	0.28
351.239	0.2
351.448	0.24
351.657	0.19
351.866	0.32
352.075	0.25
352.284	0.3
352.493	0.15
352.702	0.34
352.911	0.29
353.12	0.22
353.329	0.27
353.538	0.32
353.746	0.27
353.955	0.15
354.164	0.25
354.373	0.25
354.582	0.31
354.79	0.25
354.999	0.26
355.208	0.26
355.416	0.38
355.625	0.17
355.834	0.21
356.042	0.27
356.251	0.19
356.46	0.18
356.668	0.26
356.877	0.38
357.085	0.3
357.294	0.17
357.503	0.27
357.711	0.28
357.92	0.41
358.128	0.22
358.337	0.2
358.545	0.29
358.754	0.19
358.962	0.26
359.17	0.25
359.379	0.24
359.587	0.29
359.796	0.24
360.004	0.32
360.212	0.31
360.421	0.35
360.629	0.22
360.837	0.24
361.046	0.3
361.254	0.36
361.462	0.22
361.67	0.21
361.879	0.28
362.087	0.27
362.295	0.28
362.503	0.17
362.711	0.21
362.92	0.21
363.128	0.22
363.336	0.18
363.544	0.21
363.752	0.25
363.96	0.22
364.168	0.21
364.376	0.22
364.584	0.26
364.792	0.3
365	0.22
365.208	0.25
365.416	0.3
365.624	0.32
365.832	0.2
366.04	0.37
366.248	0.27
366.456	0.29
366.664	0.22
366.872	0.25
367.079	0.26
367.287	0.26
367.495	0.25
367.703	0.23
367.911	0.23
368.118	0.24
368.326	0.21
368.534	0.21
368.742	0.38
368.949	0.17
369.157	0.23
369.365	0.25
369.572	0.29
369.78	0.22
369.988	0.28
370.195	0.24
370.403	0.31
370.61	0.21
370.818	0.21
371.026	0.37
371.233	0.23
371.441	0.27
371.648	0.24
371.856	0.27
372.063	0.25
372.271	0.21
372.478	0.22
372.685	0.19
372.893	0.26
373.1	0.24
373.308	0.22
373.515	0.41
373.722	0.31
373.93	0.24
374.137	0.3
374.344	0.37
374.552	0.31
374.759	0.32
374.966	0.25
375.173	0.31
375.381	0.35
375.588	0.27
375.795	0.15
376.002	0.26
376.209	0.21
376.417	0.22
376.624	0.3
376.831	0.32
377.038	0.29
377.245	0.2
377.452	0.26
377.659	0.26
377.866	0.26
378.073	0.26
378.28	0.27
378.487	0.36
378.694	0.28
378.901	0.24
379.108	0.25
379.315	0.37
379.522	0.4
379.729	0.27
379.936	0.26
380.143	0.28
380.35	0.3
380.557	0.24
380.763	0.27
380.97	0.29
381.177	0.33
381.384	0.3
381.591	0.24
381.797	0.29
382.004	0.29
382.211	0.26
382.418	0.24
382.624	0.3
382.831	0.31
383.038	0.24
383.244	0.31
383.451	0.27
383.658	0.35
383.864	0.26
384.071	0.23
384.277	0.41
384.484	0.29
384.69	0.35
384.897	0.23
385.103	0.27
385.31	0.26
385.516	0.27
385.723	0.2
385.929	0.28
386.136	0.27
386.342	0.3
386.549	0.22
386.755	0.38
386.961	0.3
387.168	0.22
387.374	0.27
387.58	0.34
387.787	0.31
387.993	0.32
388.199	0.28
388.406	0.22
388.612	0.28
388.818	0.28
389.024	0.26
389.231	0.27
389.437	0.39
389.643	0.33
389.849	0.29
390.055	0.31
390.261	0.31
390.467	0.35
390.674	0.25
390.88	0.32
391.086	0.31
391.292	0.22
391.498	0.34
391.704	0.36
391.91	0.29
392.116	0.26
392.322	0.23
392.528	0.32
392.734	0.26
392.94	0.26
393.146	0.28
393.352	0.31
393.557	0.3
393.763	0.31
393.969	0.31
394.175	0.3
394.381	0.33
394.587	0.27
394.792	0.28
394.998	0.36
395.204	0.35
395.41	0.32
395.615	0.3
395.821	0.33
396.027	0.35
396.233	0.26
396.438	0.33
396.644	0.36
396.85	0.36
397.055	0.31
397.261	0.35
397.466	0.39
397.672	0.34
397.878	0.42
398.083	0.34
398.289	0.28
398.494	0.38
398.7	0.41
398.905	0.28
399.111	0.44
399.316	0.28
399.522	0.37
399.727	0.31
399.932	0.34
400.138	0.34
400.343	0.39
400.549	0.33
400.754	0.34
400.959	0.41
401.165	0.35
401.37	0.37
401.575	0.48
401.78	0.36
401.986	0.33
402.191	0.35
402.396	0.4
402.601	0.43
402.807	0.45
403.012	0.39
403.217	0.48
403.422	0.41
403.627	0.47
403.832	0.37
404.037	0.49
404.243	0.43
404.448	0.39
404.653	0.38
404.858	0.44
405.063	0.47
405.268	0.4
405.473	0.38
405.678	0.43
405.883	0.65
406.088	0.51
406.293	0.42
406.498	0.48
406.703	0.56
406.907	0.48
407.112	0.43
407.317	0.53
407.522	0.58
407.727	0.44
407.932	0.5
408.136	0.64
408.341	0.55
408.546	0.56
408.751	0.56
408.956	0.64
409.16	0.68
409.365	0.66
409.57	0.62
409.774	0.64
409.979	0.66
410.184	0.7
410.388	0.65
410.593	0.83
410.798	0.76
411.002	0.76
411.207	0.78
411.411	0.78
411.616	0.74
411.82	0.84
412.025	0.87
412.229	0.86
412.434	0.98
412.638	0.93
412.843	0.92
413.047	1.01
413.252	0.97
413.456	1.04
413.66	1.03
413.865	1.05
414.069	1.21
414.273	1.15
414.478	1.14
414.682	1.22
414.886	1.3
415.091	1.21
415.295	1.22
415.499	1.41
415.703	1.39
415.908	1.5
416.112	1.42
416.316	1.6
416.52	1.62
416.724	1.63
416.929	1.66
417.133	1.89
417.337	1.74
417.541	1.88
417.745	1.81
417.949	2.05
418.153	2.06
418.357	2.03
418.561	2.31
418.765	2.25
418.969	2.43
419.173	2.47
419.377	2.47
419.581	2.74
419.785	2.69
419.989	2.72
420.193	2.89
420.397	2.98
420.601	3.14
420.804	3.22
421.008	3.15
421.212	3.35
421.416	3.35
421.62	3.32
421.823	3.41
422.027	3.68
422.231	3.57
422.435	3.57
422.638	3.59
422.842	3.81
423.046	3.83
423.249	4.05
423.453	4.07
423.657	4.28
423.86	4.32
424.064	4.4
424.268	4.6
424.471	4.58
424.675	4.82
424.878	4.89
425.082	5.01
425.285	5.37
425.489	5.27
425.692	5.34
425.896	5.37
426.099	5.59
426.303	5.78
426.506	5.8
426.71	6.03
426.913	6.27
427.116	6.59
427.32	6.43
427.523	6.61
427.726	6.81
427.93	7
428.133	7.28
428.336	7.35
428.54	7.47
428.743	7.93
428.946	8.1
429.149	8.04
429.353	8.17
429.556	8.17
429.759	8.1
429.962	8.26
430.165	8.55
430.368	8.01
430.571	8.16
430.775	8.14
430.978	8.12
431.181	8.33
431.384	8.39
431.587	8.46
431.79	8.83
431.993	8.8
432.196	9.08
432.399	9.4
432.602	9.58
432.805	9.62
433.008	10.19
433.211	10.04
433.414	10.49
433.616	10.36
433.819	10.36
434.022	10.51
434.225	10.74
434.428	10.72
434.631	11.17
434.833	10.9
435.036	11.22
435.239	11.36
435.442	11.45
435.645	11.57
435.847	11.79
436.05	11.98
436.253	12.28
436.455	12.25
436.658	12.15
436.861	12.54
437.063	12.56
437.266	12.46
437.468	12.95
437.671	13.32
437.874	13.24
438.076	13.14
438.279	13.65
438.481	13.52
438.684	14.26
438.886	14.04
439.089	14.11
439.291	14.26
439.494	14.59
439.696	14.87
439.899	15.39
440.101	15.8
440.303	15.96
440.506	16.75
440.708	16.34
440.91	16.69
441.113	16.89
441.315	17.09
441.517	16.8
441.72	17.28
441.922	17.11
442.124	16.79
442.326	17.27
442.529	17.48
442.731	17.51
442.933	17.82
443.135	17.55
443.337	17.59
443.539	18.08
443.742	17.79
443.944	18.43
444.146	18.23
444.348	18.13
444.55	17.91
444.752	18.18
444.954	18.29
445.156	18.17
445.358	18.58
445.56	18.85
445.762	18.68
445.964	18.87
446.166	18.62
446.368	18.67
446.57	18.59
446.772	18.21
446.974	18.04
447.175	18.36
447.377	17.96
447.579	18.45
447.781	17.87
447.983	17.76
448.184	17.46
448.386	17.84
448.588	17.21
448.79	17.17
448.991	17.46
449.193	17.46
449.395	16.72
449.597	16.48
449.798	16.39
450	15.66
450.202	15.76
450.403	15.84
450.605	15.69
450.806	15.3
451.008	15.18
451.21	14.92
451.411	14.54
451.613	13.75
451.814	13.8
452.016	13.96
452.217	13.21
452.419	13.23
452.62	12.86
452.821	12.56
453.023	12.52
453.224	12.25
453.426	11.73
453.627	10.95
453.828	11.15
454.03	11.14
454.231	11.14
454.432	10.99
454.634	10.79
454.835	10.38
455.036	10.24
455.238	9.97
455.439	9.67
455.64	9.43
455.841	9.28
456.042	9.41
456.244	9.14
456.445	8.77
456.646	8.6
456.847	8.48
457.048	8.27
457.249	8.36
457.45	8.24
457.651	7.54
457.852	7.52
458.054	7.17
458.255	7.01
458.456	7.14
458.657	7.12
458.858	6.65
459.058	6.49
459.259	6.7
459.46	6.41
459.661	6.24
459.862	6.36
460.063	6.23
460.264	6.2
460.465	5.94
460.666	5.99
460.866	5.67
461.067	5.46
461.268	5.49
461.469	5.44
461.67	5.34
461.87	5.18
462.071	5.25
462.272	5.06
462.473	5.13
462.673	5.24
462.874	5.15
463.075	5.09
463.275	5.06
463.476	5.16
463.676	5.08
463.877	4.91
464.078	4.97
464.278	4.85
464.479	4.81
464.679	4.66
464.88	4.63
465.08	4.64
465.281	4.45
465.481	4.22
465.682	4.12
465.882	4.2
466.083	4.11
466.283	4.02
466.483	3.86
466.684	3.58
466.884	3.6
467.085	3.68
467.285	3.68
467.485	3.54
467.686	3.43
467.886	3.37
468.086	3.36
468.286	3.37
468.487	3.45
468.687	3.19
468.887	3.24
469.087	3.36
469.287	3.2
469.488	3.04
469.688	3.19
469.888	3.18
470.088	3.09
470.288	2.97
470.488	3
470.688	2.84
470.888	2.84
471.088	2.67
471.288	2.74
471.488	2.76
471.688	2.73
471.888	2.6
472.088	2.83
472.288	2.72
472.488	2.58
472.688	2.48
472.888	2.61
473.088	2.56
473.288	2.47
473.488	2.45
473.688	2.6
473.887	2.44
474.087	2.43
474.287	2.39
474.487	2.34
474.687	2.37
474.886	2.35
475.086	2.32
475.286	2.32
475.486	2.32
475.685	2.27
475.885	2.18
476.085	2.27
476.284	2.24
476.484	2.28
476.684	2.15
476.883	2.31
477.083	2.15
477.282	2.08
477.482	2.16
477.681	2.15
477.881	2.08
478.08	2.05
478.28	2.05
478.479	2.09
478.679	2.13
478.878	2.03
479.078	1.99
479.277	2.06
479.477	2.03
479.676	2.03
479.875	1.99
480.075	1.96
480.274	2
480.473	2.03
480.673	1.95
480.872	2.09
481.071	2.02
481.271	2.01
481.47	1.98
481.669	1.97
481.868	2
482.067	1.97
482.267	1.86
482.466	1.89
482.665	1.93
482.864	1.94
483.063	1.91
483.262	1.99
483.461	2.04
483.661	2.03
483.86	1.98
484.059	2.06
484.258	2.01
484.457	2.05
484.656	2
484.855	2.09
485.054	1.96
485.253	1.99
485.452	1.98
485.651	2.06
485.849	2.07
486.048	1.98
486.247	2.01
486.446	2.02
486.645	2.03
486.844	2.06
487.043	2.01
487.241	2.1
487.44	2.05
487.639	2.13
487.838	2.1
488.037	2.11
488.235	2.2
488.434	2.15
488.633	2
488.831	2.22
489.03	2.23
489.229	2.2
489.427	2.21
489.626	2.28
489.825	2.26
490.023	2.29
490.222	2.25
490.42	2.3
490.619	2.35
490.817	2.36
491.016	2.35
491.214	2.39
491.413	2.41
491.611	2.35
491.81	2.37
492.008	2.47
492.207	2.57
492.405	2.49
492.604	2.46
492.802	2.56
493	2.63
493.199	2.62
493.397	2.63
493.595	2.71
493.794	2.66
493.992	2.77
494.19	2.71
494.388	2.82
494.587	2.77
494.785	2.8
494.983	2.72
495.181	2.82
495.379	2.92
495.578	2.95
495.776	2.93
495.974	2.92
496.172	2.98
496.37	3.07
496.568	3.09
496.766	3.13
496.964	3.24
497.162	3.16
497.36	3.2
497.558	3.27
497.756	3.32
497.954	3.33
498.152	3.35
498.35	3.44
498.548	3.38
498.746	3.4
498.944	3.44
499.142	3.49
499.34	3.54
499.538	3.67
499.736	3.49
499.933	3.62
500.131	3.61
500.329	3.78
500.527	3.79
500.725	3.89
500.922	3.89
501.12	3.85
501.318	3.96
501.516	3.95
501.713	4.04
501.911	4.02
502.109	4
502.306	4.07
502.504	3.97
502.701	4.13
502.899	4.15
503.097	4.36
503.294	4.25
503.492	4.38
503.689	4.37
503.887	4.38
504.084	4.44
504.282	4.44
504.479	4.41
504.677	4.58
504.874	4.55
505.072	4.48
505.269	4.74
505.466	4.66
505.664	4.76
505.861	4.7
506.059	4.74
506.256	4.83
506.453	4.85
506.651	5.02
506.848	5.02
507.045	4.97
507.242	4.99
507.44	5.03
507.637	5.13
507.834	5.06
508.031	5.28
508.229	5.15
508.426	5.14
508.623	5.28
508.82	5.3
509.017	5.29
509.214	5.26
509.411	5.38
509.608	5.38
509.805	5.56
510.003	5.46
510.2	5.51
510.397	5.66
510.594	5.57
510.791	5.65
510.988	5.66
511.184	5.66
511.381	5.54
511.578	5.72
511.775	5.83
511.972	5.81
512.169	5.84
512.366	5.85
512.563	5.95
512.76	5.99
512.956	5.97
513.153	5.97
513.35	5.96
513.547	5.99
513.744	6.08
513.94	6.02
514.137	6.2
514.334	6.13
514.53	6.18
514.727	6.36
514.924	6.28
515.12	6.2
515.317	6.3
515.514	6.22
515.71	6.26
515.907	6.43
516.103	6.48
516.3	6.39
516.497	6.49
516.693	6.49
516.89	6.47
517.086	6.55
517.283	6.6
517.479	6.5
517.676	6.61
517.872	6.72
518.068	6.63
518.265	6.62
518.461	6.59
518.658	6.75
518.854	6.73
519.05	6.78
519.247	6.85
519.443	6.81
519.639	6.97
519.836	6.84
520.032	6.78
520.228	6.91
520.424	6.91
520.621	6.97
520.817	7.01
521.013	6.93
521.209	7.08
521.405	7.11
521.601	7.03
521.798	7.07
521.994	7.04
522.19	6.98
522.386	6.99
522.582	7.12
522.778	7.26
522.974	7.11
523.17	7.12
523.366	7.17
523.562	7.22
523.758	7.18
523.954	7.06
524.15	7.28
524.346	7.24
524.542	7.34
524.738	7.24
524.934	7.4
525.129	7.36
525.325	7.29
525.521	7.29
525.717	7.49
525.913	7.34
526.109	7.4
526.304	7.48
526.5	7.52
526.696	7.46
526.892	7.39
527.087	7.61
527.283	7.59
527.479	7.57
527.674	7.37
527.87	7.49
528.066	7.54
528.261	7.56
528.457	7.47
528.653	7.64
528.848	7.63
529.044	7.71
529.239	7.52
529.435	7.57
529.63	7.53
529.826	7.62
530.021	7.6
530.217	7.63
530.412	7.61
530.608	7.65
530.803	7.66
530.999	7.57
531.194	7.64
531.389	7.79
531.585	7.74
531.78	7.85
531.975	7.72
532.171	7.81
532.366	7.76
532.561	7.73
532.757	7.81
532.952	7.87
533.147	7.68
533.342	7.85
533.538	7.72
533.733	7.94
533.928	7.57
534.123	7.75
534.318	7.87
534.513	7.77
534.709	7.98
534.904	7.84
535.099	7.95
535.294	7.93
535.489	7.98
535.684	7.91
535.879	7.85
536.074	7.99
536.269	7.93
536.464	7.98
536.659	7.86
536.854	7.91
537.049	8.02
537.244	7.92
537.439	7.89
537.634	7.87
537.828	8.02
538.023	7.98
538.218	7.9
538.413	7.8
538.608	7.99
538.803	7.95
538.997	7.95
539.192	8.03
539.387	7.98
539.582	7.99
539.776	7.91
539.971	7.98
540.166	8.05
540.36	7.94
540.555	8.1
540.75	8.01
540.944	8.01
541.139	7.99
541.334	8.01
541.528	8.01
541.723	8.06
541.917	8.09
542.112	8.06
542.306	7.87
542.501	7.91
542.695	7.97
542.89	7.94
543.084	8.01
543.279	8.04
543.473	8.11
543.668	8.12
543.862	7.96
544.056	7.91
544.251	8.02
544.445	8.16
544.64	8.22
544.834	7.85
545.028	7.75
545.222	8.06
545.417	8.22
545.611	8.14
545.805	8.03
546	7.92
546.194	8.07
546.388	8.15
546.582	8.02
546.776	8.06
546.97	8.06
547.165	8.1
547.359	8.03
547.553	8.02
547.747	8.06
547.941	8.28
548.135	8.02
548.329	8.07
548.523	8.15
548.717	8.09
548.911	8.08
549.105	8.01
549.299	8.13
549.493	8.12
549.687	8.04
549.881	8.2
550.075	8.1
550.269	7.93
550.463	8.13
550.657	8.2
550.85	8.1
551.044	8.1
551.238	8.14
551.432	8.13
551.626	8.19
551.82	8.14
552.013	8.05
552.207	8.21
552.401	8.24
552.594	8.1
552.788	7.98
552.982	8.08
553.176	8.04
553.369	8.28
553.563	8.24
553.756	8.04
553.95	8.16
554.144	8.15
554.337	8.25
554.531	7.99
554.724	8.2
554.918	8.26
555.111	8.13
555.305	8.15
555.498	8.05
555.692	8.22
555.885	8.14
556.079	8.08
556.272	8.1
556.466	8.07
556.659	8.1
556.852	8.2
557.046	8.06
557.239	8.01
557.432	8.08
557.626	8.15
557.819	8.19
558.012	8.17
558.206	8.21
558.399	8.15
558.592	8.09
558.785	8.12
558.979	8.14
559.172	8.06
559.365	8.12
559.558	8
559.751	8
559.944	8.21
560.138	8.1
560.331	8.16
560.524	8.2
560.717	8.1
560.91	8.12
561.103	8.18
561.296	8.03
561.489	8.14
561.682	8.18
561.875	8.15
562.068	8.22
562.261	8.04
562.454	8.35
562.647	8.1
562.84	8.19
563.032	8.14
563.225	8.05
563.418	8.1
563.611	8.21
563.804	8.15
563.997	8.02
564.19	7.89
564.382	8.18
564.575	8.13
564.768	8.08
564.961	8.2
565.153	8.07
565.346	7.96
565.539	8.21
565.731	8.06
565.924	8.16
566.117	8.24
566.309	8.13
566.502	8.01
566.695	8.02
566.887	8.14
567.08	8.11
567.272	8.19
567.465	8.02
567.657	8.17
567.85	7.99
568.042	8.16
568.235	8.15
568.427	7.96
568.62	8.13
568.812	8
569.005	8.11
569.197	7.97
569.389	8.06
569.582	8.07
569.774	8.07
569.966	8.01
570.159	7.96
570.351	7.97
570.543	8.04
570.736	8.08
570.928	7.97
571.12	8.03
571.312	7.96
571.505	7.78
571.697	8.06
571.889	8.04
572.081	8.01
572.273	7.89
572.465	7.99
572.658	7.98
572.85	8.03
573.042	8.08
573.234	8.02
573.426	7.99
573.618	7.86
573.81	8.01
574.002	7.96
574.194	8.01
574.386	7.92
574.578	7.79
574.77	7.93
574.962	7.94
575.154	7.84
575.346	7.87
575.538	7.9
575.729	7.84
575.921	7.95
576.113	8.02
576.305	7.97
576.497	8.06
576.689	7.87
576.88	7.8
577.072	7.97
577.264	7.83
577.456	7.93
577.647	7.84
577.839	7.99
578.031	7.89
578.223	7.87
578.414	7.74
578.606	7.83
578.798	7.93
578.989	7.85
579.181	7.93
579.372	7.86
579.564	7.88
579.755	7.8
579.947	7.77
580.139	7.82
580.33	7.66
580.522	7.72
580.713	7.7
580.905	7.77
581.096	7.84
581.287	7.71
581.479	7.74
581.67	7.82
581.862	7.71
582.053	7.76
582.244	7.56
582.436	7.81
582.627	7.64
582.818	7.63
583.01	7.63
583.201	7.72
583.392	7.63
583.583	7.58
583.775	7.49
583.966	7.65
584.157	7.63
584.348	7.68
584.54	7.58
584.731	7.67
584.922	7.53
585.113	7.49
585.304	7.56
585.495	7.66
585.686	7.71
585.877	7.55
586.068	7.69
586.259	7.58
586.45	7.53
586.641	7.51
586.832	7.67
587.023	7.55
587.214	7.49
587.405	7.58
587.596	7.42
587.787	7.42
587.978	7.47
588.169	7.42
588.36	7.4
588.551	7.48
588.742	7.45
588.932	7.51
589.123	7.24
589.314	7.5
589.505	7.34
589.696	7.39
589.886	7.41
590.077	7.38
590.268	7.26
590.458	7.27
590.649	7.15
590.84	7.37
591.03	7.23
591.221	7.31
591.412	7.15
591.602	7.4
591.793	7.29
591.984	7.19
592.174	7.24
592.365	7.36
592.555	7.18
592.746	7.13
592.936	7.18
593.127	7.22
593.317	7.23
593.508	7.24
593.698	7.09
593.889	7.13
594.079	7.12
594.269	7.02
594.46	7.1
594.65	7.14
594.84	7.12
595.031	6.97
595.221	6.98
595.411	7.04
595.602	7.04
595.792	6.95
595.982	6.88
596.172	7.02
596.363	6.92
596.553	6.91
596.743	6.95
596.933	6.91
597.123	6.88
597.314	6.8
597.504	6.8
597.694	6.97
597.884	6.77
598.074	6.88
598.264	6.82
598.454	6.84
598.644	6.78
598.834	6.78
599.024	6.71
599.214	6.74
599.404	6.85
599.594	6.74
599.784	6.65
599.974	6.8
600.164	6.72
600.354	6.59
600.544	6.6
600.734	6.64
600.924	6.63
601.114	6.59
601.303	6.57
601.493	6.57
601.683	6.61
601.873	6.55
602.063	6.53
602.252	6.55
602.442	6.41
602.632	6.47
602.821	6.44
603.011	6.48
603.201	6.46
603.39	6.42
603.58	6.26
603.77	6.41
603.959	6.45
604.149	6.38
604.339	6.37
604.528	6.44
604.718	6.4
604.907	6.36
605.097	6.28
605.286	6.24
605.476	6.28
605.665	6.34
605.855	6.24
606.044	6.27
606.234	6.27
606.423	6.22
606.612	6.18
606.802	6.14
606.991	6.22
607.181	6.2
607.37	6.09
607.559	5.96
607.749	6.14
607.938	5.99
608.127	6
608.316	6.07
608.506	6.06
608.695	6.1
608.884	5.98
609.073	6.06
609.263	6.1
609.452	6.05
609.641	5.87
609.83	5.87
610.019	5.96
610.208	5.87
610.397	5.87
610.586	5.91
610.775	5.78
610.965	5.85
611.154	5.72
611.343	5.77
611.532	5.67
611.721	5.87
611.91	5.73
612.099	5.72
612.287	5.64
612.476	5.63
612.665	5.68
612.854	5.6
613.043	5.64
613.232	5.63
613.421	5.57
613.61	5.59
613.798	5.51
613.987	5.62
614.176	5.53
614.365	5.61
614.554	5.58
614.742	5.56
614.931	5.43
615.12	5.63
615.309	5.44
615.497	5.43
615.686	5.29
615.875	5.36
616.063	5.38
616.252	5.33
616.44	5.39
616.629	5.33
616.818	5.32
617.006	5.22
617.195	5.21
617.383	5.26
617.572	5.2
617.76	5.22
617.949	5.21
618.137	5.36
618.326	5.33
618.514	5.04
618.703	5.1
618.891	5.18
619.079	5.09
619.268	5.12
619.456	4.99
619.644	5.18
619.833	4.99
620.021	5.04
620.209	4.9
620.398	5.08
620.586	4.97
620.774	5.02
620.962	4.93
621.151	5.03
621.339	4.94
621.527	4.83
621.715	4.85
621.903	4.83
622.092	4.82
622.28	4.93
622.468	4.68
622.656	4.79
622.844	4.77
623.032	4.82
623.22	4.7
623.408	4.84
623.596	4.78
623.784	4.83
623.972	4.66
624.16	4.68
624.348	4.72
624.536	4.71
624.724	4.57
624.912	4.69
625.1	4.66
625.288	4.62
625.476	4.5
625.664	4.62
625.851	4.52
626.039	4.56
626.227	4.51
626.415	4.5
626.603	4.4
626.79	4.5
626.978	4.44
627.166	4.51
627.354	4.4
627.541	4.37
627.729	4.25
627.917	4.53
628.104	4.45
628.292	4.31
628.48	4.32
628.667	4.31
628.855	4.41
629.042	4.45
629.23	4.26
629.418	4.25
629.605	4.3
629.793	4.17
629.98	4.21
630.168	4.16
630.355	4.19
630.543	4.13
630.73	4.12
630.917	4.08
631.105	4.18
631.292	4.1
631.48	4.14
631.667	4.21
631.854	4.1
632.042	4.05
632.229	4.03
632.416	4.07
632.604	4.02
632.791	3.87
632.978	3.96
633.165	3.9
633.353	4.03
633.54	3.99
633.727	3.79
633.914	3.83
634.101	3.81
634.289	3.95
634.476	3.78
634.663	3.85
634.85	3.82
635.037	3.75
635.224	3.7
635.411	3.83
635.598	3.76
635.785	3.7
635.972	3.7
636.159	3.75
636.346	3.63
636.533	3.67
636.72	3.65
636.907	3.64
637.094	3.68
637.281	3.52
637.468	3.6
637.655	3.63
637.842	3.61
638.029	3.54
638.215	3.57
638.402	3.57
638.589	3.48
638.776	3.5
638.963	3.45
639.149	3.53
639.336	3.54
639.523	3.43
639.709	3.4
639.896	3.38
640.083	3.46
640.27	3.42
640.456	3.36
640.643	3.37
640.829	3.26
641.016	3.3
641.203	3.24
641.389	3.31
641.576	3.33
641.762	3.24
641.949	3.19
642.135	3.27
642.322	3.22
642.508	3.11
642.695	3.2
642.881	3.16
643.068	3.11
643.254	3.19
643.441	3.19
643.627	3.21
643.813	3.05
644	3.15
644.186	3.01
644.372	3.06
644.559	3.11
644.745	3.02
644.931	2.96
645.118	3.05
645.304	3.02
645.49	2.98
645.676	3.01
645.862	2.99
646.049	3.05
646.235	3
646.421	3.11
646.607	3.1
646.793	2.93
646.979	2.82
647.165	2.97
647.352	2.92
647.538	2.91
647.724	2.8
647.91	2.81
648.096	2.87
648.282	2.91
648.468	2.77
648.654	2.88
648.84	2.85
649.026	2.81
649.212	2.73
649.397	2.73
649.583	2.73
649.769	2.7
649.955	2.77
650.141	2.72
650.327	2.79
650.513	2.68
650.698	2.7
650.884	2.58
651.07	2.69
651.256	2.65
651.442	2.67
651.627	2.57
651.813	2.62
651.999	2.58
652.184	2.56
652.37	2.57
652.556	2.5
652.741	2.61
652.927	2.43
653.113	2.52
653.298	2.54
653.484	2.47
653.669	2.45
653.855	2.45
654.04	2.51
654.226	2.45
654.412	2.41
654.597	2.34
654.782	2.47
654.968	2.44
655.153	2.38
655.339	2.39
655.524	2.36
655.71	2.39
655.895	2.37
656.08	2.33
656.266	2.38
656.451	2.32
656.636	2.28
656.822	2.34
657.007	2.24
657.192	2.28
657.378	2.19
657.563	2.22
657.748	2.25
657.933	2.21
658.118	2.19
658.304	2.23
658.489	2.28
658.674	2.23
658.859	2.12
659.044	2.2
659.229	2.19
659.414	2.1
659.599	2.18
659.785	2.1
659.97	2.15
660.155	2.09
660.34	2.12
660.525	2.09
660.71	2.07
660.895	2.11
661.08	2.08
661.264	1.97
661.449	2.16
661.634	2.07
661.819	2.09
662.004	1.99
662.189	1.94
662.374	2.04
662.559	1.95
662.743	1.88
662.928	2.04
663.113	1.95
663.298	1.9
663.483	1.94
663.667	1.93
663.852	1.91
664.037	2.01
664.221	1.9
664.406	1.99
664.591	2
664.775	1.95
664.96	1.81
665.145	1.85
665.329	1.94
665.514	1.89
665.698	1.81
665.883	1.8
666.068	1.87
666.252	1.83
666.437	1.79
666.621	1.76
666.806	1.84
666.99	1.86
667.174	1.73
667.359	1.86
667.543	1.79
667.728	1.74
667.912	1.69
668.096	1.77
668.281	1.71
668.465	1.77
668.649	1.65
668.834	1.64
669.018	1.67
669.202	1.68
669.387	1.67
669.571	1.76
669.755	1.66
669.939	1.69
670.124	1.61
670.308	1.76
670.492	1.72
670.676	1.64
670.86	1.61
671.044	1.63
671.228	1.66
671.413	1.59
671.597	1.52
671.781	1.59
671.965	1.61
672.149	1.55
672.333	1.61
672.517	1.54
672.701	1.6
672.885	1.58
673.069	1.47
673.253	1.67
673.437	1.55
673.621	1.48
673.804	1.53
673.988	1.5
674.172	1.52
674.356	1.42
674.54	1.46
674.724	1.61
674.908	1.45
675.091	1.51
675.275	1.49
675.459	1.55
675.643	1.46
675.826	1.45
676.01	1.48
676.194	1.46
676.377	1.46
676.561	1.44
676.745	1.41
676.928	1.45
677.112	1.5
677.296	1.39
677.479	1.32
677.663	1.37
677.846	1.38
678.03	1.43
678.213	1.3
678.397	1.47
678.58	1.34
678.764	1.37
678.947	1.33
679.131	1.38
679.314	1.4
679.498	1.33
679.681	1.36
679.865	1.36
680.048	1.33
680.231	1.33
680.415	1.32
680.598	1.3
680.781	1.27
680.965	1.3
681.148	1.27
681.331	1.26
681.514	1.36
681.698	1.25
681.881	1.26
682.064	1.3
682.247	1.29
682.43	1.15
682.614	1.24
682.797	1.32
682.98	1.29
683.163	1.15
683.346	1.2
683.529	1.19
683.712	1.1
683.895	1.27
684.078	1.15
684.261	1.19
684.444	1.25
684.627	1.22
684.81	1.18
684.993	1.14
685.176	1.23
685.359	1.09
685.542	1.08
685.725	1.25
685.908	1.13
686.091	1.09
686.274	1.16
686.457	1.16
686.639	1.16
686.822	1.18
687.005	1.1
687.188	1.17
687.371	1.25
687.553	1.19
687.736	1.13
687.919	1.29
688.102	1.19
688.284	1.11
688.467	1.01
688.65	1.06
688.832	1.06
689.015	1.07
689.197	0.97
689.38	1.16
689.563	1.18
689.745	0.98
689.928	1.01
690.11	1.02
690.293	1.03
690.475	0.92
690.658	1.07
690.84	1.07
691.023	0.98
691.205	0.94
691.388	1.02
691.57	1.07
691.752	0.99
691.935	0.84
692.117	0.98
692.3	1
692.482	0.97
692.664	0.95
692.847	0.98
693.029	1.14
693.211	1.06
693.393	0.91
693.576	0.94
693.758	1
693.94	0.94
694.122	0.95
694.304	0.89
694.487	0.89
694.669	1
694.851	0.91
695.033	0.82
695.215	0.88
695.397	0.93
695.579	0.9
695.761	0.8
695.943	0.87
696.125	1.02
696.308	0.9
696.49	0.76
696.671	1.15
696.853	0.92
697.035	1.13
697.217	0.78
697.399	0.99
697.581	0.88
697.763	0.82
697.945	0.83
698.127	0.85
698.309	0.9
698.491	0.89
698.672	0.82
698.854	0.92
699.036	0.98
699.218	0.85
699.399	0.9
699.581	0.91
699.763	0.8
699.945	0.76
700.126	0.71
700.308	0.84
700.49	0.81
700.671	0.77
700.853	0.75
701.035	0.81
701.216	0.82
701.398	0.73
701.579	0.83
701.761	0.88
701.943	0.76
702.124	0.75
702.306	0.78
702.487	0.93
702.669	0.76
702.85	0.76
703.031	0.67
703.213	0.82
703.394	0.89
703.576	0.74
703.757	0.92
703.938	0.87
704.12	0.99
704.301	0.76
704.483	0.71
704.664	0.83
704.845	0.91
705.026	0.81
705.208	0.67
705.389	0.83
705.57	0.8
705.751	0.71
705.933	0.76
706.114	0.86
706.295	0.81
706.476	0.66
706.657	0.85
706.838	0.77
707.02	0.8
707.201	0.67
707.382	0.66
707.563	0.78
707.744	0.69
707.925	0.63
708.106	0.68
708.287	0.77
708.468	0.82
708.649	0.7
708.83	0.77
709.011	0.64
709.192	0.84
709.373	0.66
709.554	0.67
709.734	0.8
709.915	0.74
710.096	0.63
710.277	0.56
710.458	0.7
710.639	0.72
710.819	0.57
711	0.61
711.181	0.69
711.362	0.76
711.542	0.71
711.723	0.65
711.904	0.78
712.085	0.68
712.265	0.66
712.446	0.61
712.627	0.62
712.807	0.61
712.988	0.62
713.168	0.46
713.349	0.72
713.53	0.46
713.71	0.52
713.891	0.55
714.071	0.7
714.252	0.54
714.432	0.67
714.613	0.45
714.793	0.64
714.974	0.76
715.154	0.73
715.334	0.71
715.515	0.79
715.695	0.54
715.876	0.59
716.056	0.58
716.236	0.56
716.417	0.58
716.597	0.49
716.777	0.78
716.957	0.56
717.138	0.66
717.318	0.59
717.498	0.43
717.678	0.64
717.859	0.7
718.039	0.53
718.219	0.55
718.399	0.56
718.579	0.52
718.759	0.47
718.939	0.58
719.12	0.62
719.3	0.58
719.48	0.43
719.66	0.41
719.84	0.71
720.02	0.56
720.2	0.48
720.38	0.54
720.56	0.79
720.74	0.48
720.92	0.6
721.1	0.75
721.279	0.66
721.459	0.55
721.639	0.48
721.819	0.51
721.999	0.49
722.179	0.59
722.359	0.46
722.538	0.61
722.718	0.49
722.898	0.54
723.078	0.53
723.257	0.53
723.437	0.57
723.617	0.57
723.797	0.54
723.976	0.46
724.156	0.6
724.336	0.7
724.515	0.77
724.695	0.42
724.874	0.58
725.054	0.61
725.234	0.42
725.413	0.59
725.593	0.49
725.772	0.48
725.952	0.47
726.131	0.47
726.311	0.51
726.49	0.49
726.67	0.36
726.849	0.43
727.028	0.65
727.208	0.41
727.387	0.56
727.567	0.36
727.746	0.5
727.925	0.53
728.105	0.36
728.284	0.48
728.463	0.48
728.643	0.51
728.822	0.35
729.001	0.42
729.18	0.59
729.359	0.57
729.539	0.46
729.718	0.41
729.897	0.58
730.076	0.53
730.255	0.31
730.434	0.47
730.614	0.64
730.793	0.64
730.972	0.37
731.151	0.48
731.33	0.56
731.509	0.5
731.688	0.48
731.867	0.43
732.046	0.31
732.225	0.76
732.404	0.34
732.583	0.41
732.762	0.51
732.941	0.61
733.12	0.48
733.298	0.52
733.477	0.56
733.656	0.42
733.835	0.27
734.014	0.51
734.193	0.59
734.371	0.48
734.55	0.61
734.729	0.38
734.908	0.54
735.086	0.48
735.265	0.55
735.444	0.3
735.623	0.31
735.801	0.43
735.98	0.43
736.159	0.53
736.337	0.5
736.516	0.55
736.694	0.5
736.873	0.39
737.052	0.68
737.23	0.73
737.409	0.38
737.587	0.7
737.766	0.41
737.944	0.51
738.123	0.52
738.301	0.51
738.479	0.49
738.658	0.49
738.836	0.24
739.015	0.38
739.193	0.65
739.371	0.27
739.55	0.46
739.728	0.39
739.906	0.53
740.085	0.7
740.263	0.52
740.441	0.19
740.62	0.67
740.798	0.71
740.976	0.37
741.154	0.43
741.332	0.74
741.511	0.49
741.689	0.53
741.867	0.51
742.045	0.55
742.223	0.47
742.401	0.38
742.579	0.38
742.757	0.47
742.935	0.29
743.114	0.37
743.292	0.41
743.47	0.47
743.648	0.43
743.826	0.45
744.004	0.49
744.181	0.48
744.359	0.35
744.537	0.4
744.715	0.44
744.893	0.44
745.071	0.59
745.249	0.4
745.427	0.46
745.605	0.61
745.782	0.52
745.96	0.55
746.138	0.58
746.316	0.54
746.493	0.39
746.671	0.32
746.849	0.4
747.027	0.68
747.204	0.33
747.382	0.53
747.56	0.2
747.737	0.41
747.915	0.33
748.093	0.49
748.27	0.27
748.448	0.43
748.625	0.26
748.803	0.44
748.98	0.29
749.158	0.5
749.335	0.55
749.513	0.3
749.69	0.47
749.868	0.33
750.045	0.47
750.223	0.42
750.4	0.27
750.578	0.6
750.755	0.5
750.932	0.21
751.11	0.51
751.287	0.34
751.464	0.57
751.642	0.25
751.819	0.36
751.996	0.45
752.173	0.38
752.351	0.25
752.528	0.44
752.705	0.42
752.882	0.35
753.06	0.33
753.237	0.49
753.414	0.61
753.591	0.65
753.768	0.48
753.945	0.34
754.122	0.45
754.299	0.65
754.476	0.16
754.654	0.27
754.831	0.51
755.008	0.53
755.185	0.31
755.362	0.22
755.539	0.49
755.716	0.31
755.892	0.34
756.069	0.35
756.246	0.46
756.423	0.48
756.6	0.5
756.777	0.21
756.954	0.61
757.131	0.4
757.307	0.38
757.484	0.22
757.661	0.48
757.838	0.41
758.015	0.25
758.191	0.42
758.368	0.43
758.545	0.64
758.721	0.49
758.898	0.3
759.075	0.4
759.251	0.5
759.428	0.56
759.605	0.24
759.781	0.28
759.958	0.5
760.134	0.42
760.311	0.37
760.488	0.59
760.664	0.45
760.841	0.33
761.017	0.35
761.194	0.43
761.37	0.51
761.547	0.4
761.723	0.24
761.899	0.63
762.076	0.31
762.252	0.25
762.429	0.23
762.605	0.56
762.781	0.27
762.958	0.34
763.134	0.38
763.31	0.24
763.486	0.63
763.663	0.14
763.839	0.46
764.015	0.15
764.191	0.31
764.368	0.33
764.544	0.25
764.72	0.5
764.896	0.41
765.072	0.34
765.248	0.33
765.425	0.26
765.601	0.44
765.777	0.29
765.953	0.09
766.129	0.3
766.305	0.28
766.481	0.45
766.657	0.45
766.833	0.45
767.009	0.29
767.185	0.31
767.361	0.23
767.537	0.23
767.713	0.63
767.889	0.36
768.065	0.31
768.24	0.21
768.416	0.59
768.592	0.28
768.768	0.36
768.944	0.36
769.12	0.33
769.295	0.25
769.471	0.27
769.647	0.35
769.823	0.52
769.998	0.22
770.174	0.13
770.35	0.71
770.525	0.79
770.701	0.39
770.877	0.34
771.052	0.22
771.228	0.56
771.403	0.44
771.579	0.49
771.755	0.62
771.93	0.35
772.106	0.19
772.281	0.06
772.457	0.44
772.632	0.41
772.808	0.16
772.983	0.36
773.159	0.1
773.334	0.71
773.509	0.29
773.685	0.34
773.86	0.98
774.036	0.67
774.211	0.44
774.386	0.26
774.562	0.32
774.737	0.54
774.912	0.13
775.087	0.38
775.263	0.32
775.438	0.42
775.613	0.28
775.788	0.27
775.964	0.62
776.139	0.95
776.314	0.16
776.489	0.46
776.664	0.39
776.839	0.18
777.014	0.58
777.19	0.45
777.365	0.89
777.54	0.76
777.715	0.26
777.89	0.38
778.065	0.22
778.24	0.27
778.415	0.51
778.59	0.06
778.765	0.27
778.94	0.68
779.115	0.32
779.289	0.22
779.464	0.37
779.639	0.29
779.814	0.18
779.989	0.07
780.164	0.46
780.339	0.51
780.513	0.28
780.688	0.24
780.863	0.55
781.038	0.54
781.212	0.2
781.387	0.3
781.562	0.69
781.737	0.27
781.911	0.59
782.086	0.13
782.261	0.43
782.435	0.73
782.61	0.23
782.784	0.29
782.959	0.59
783.134	0.44
783.308	0.32
783.483	0.3
783.657	0.92
783.832	0.71
784.006	-0.05
784.181	0.37
784.355	0.55
784.53	0.4
784.704	0.36
784.878	0.74
785.053	0.5
785.227	0.77
785.402	0.79
785.576	0.33
785.75	0.27
785.925	0.37
786.099	0.24
786.273	0.53
786.448	0.6
786.622	0.56
786.796	0.3
786.97	0.39
787.145	1.34
787.319	0.26
787.493	0.28
787.667	0.07
787.841	0.14
788.015	0.83
788.19	0.41
788.364	0.23
788.538	0.64
788.712	0.45
788.886	0.43
789.06	0.73
789.234	0.66
789.408	0.15
789.582	0.27
789.756	0.23
789.93	0.45
790.104	0.51
790.278	0.29
790.452	0.44
790.626	0.38
790.8	0.34
790.973	0.68
791.147	0.95
791.321	0.97
791.495	0.83
791.669	0.63
791.843	0.43
792.016	0.64
792.19	0.96
792.364	-0.02
792.538	1.19
792.711	0.98
792.885	0.27
793.059	0.22
793.233	-0.05
793.406	0.76
793.58	0.64
793.754	0.39
793.927	0.27
794.101	0.96
794.274	0.67
794.448	0.61
794.622	0.07
794.795	1
794.969	0.21
795.142	0.65
795.316	0.31
795.489	0.19
795.663	0.89
795.836	0.34
796.009	0.15
796.183	0.82
796.356	0.7
796.53	0.59
796.703	0.48
796.876	1.33
797.05	0.4
797.223	0.55
797.396	0.28
797.57	0.37
797.743	1.26
797.916	0.55
798.09	0.33
798.263	0.97
798.436	0.7
798.609	0.21
798.782	0.35
798.956	0.83
799.129	0.68
799.302	0.41
799.475	0.19
799.648	0.38
799.821	0.49
799.994	0.41
800.167	-0.33
800.34	0.14
800.514	0.41
800.687	0.07
800.86	0.18
801.033	0.61
801.206	0.59
801.379	0.24
801.551	0.72
801.724	0.6
801.897	1.2
802.07	0.51
802.243	0.09
802.416	0.56
802.589	0.36
802.762	0.55
802.935	0.55
803.107	0.8
803.28	0.98
803.453	0.93
803.626	0.19
803.798	0.58
803.971	0.39
804.144	0.73
804.317	0.63
804.489	0.99
804.662	0.66
804.835	0.54
805.007	0.25
805.18	1.11
805.353	0.85
805.525	0.54
805.698	0.33
805.87	1.1
806.043	0.82
806.215	-0.05
806.388	-0.05
806.56	0.66
806.733	1.05
806.905	0.73
807.078	0.35
807.25	0.22
807.423	0.76
807.595	0.64
807.768	0.45
807.94	0.88
808.112	0.82
808.285	0.75
808.457	0.4
808.629	0.65
808.802	0.51
808.974	0.63
809.146	0.17
809.318	0.39
809.491	0.68
809.663	1.22
809.835	0.37
810.007	0.72
810.18	0.68
810.352	0.06
810.524	0.58
810.696	0.82
810.868	1.33
811.04	0.31
811.212	0.64
811.384	0.71
811.556	0.4
811.728	0.6
811.901	1.65
812.073	0.63
812.245	1.31
812.417	0.38
812.589	0
812.76	0.99
812.932	0.78
813.104	1.13
813.276	0.45
813.448	1.07
813.62	0.32
813.792	0.27
813.964	0.25
814.136	1.05
814.307	0.72
814.479	0.07
814.651	0.52
814.823	1.62
814.995	0.49
815.166	0.63
815.338	0.25
815.51	0.17
815.681	2.04
815.853	0.62
816.025	0.5
816.196	1.81
816.368	1.31
816.54	0.29
816.711	0.29
816.883	1.45
817.054	1.69
817.226	-0.02
817.398	0.84
817.569	0.37
817.741	1
817.912	0.75
818.084	0.02
818.255	1.63
818.426	0.21
818.598	0.62
818.769	0.48
818.941	1.4
819.112	1.6
819.283	1.07
819.455	0.35
819.626	0.4
819.798	1.04
819.969	0.59
820.14	0.69
820.311	0.38
820.483	1.06
820.654	0.87
820.825	0.17
820.996	0.61
821.168	0.03
821.339	0.56
821.51	0.05
821.681	0.52
821.852	0.83
822.023	0.29
822.195	-0.36
822.366	0.89
822.537	0.89
822.708	0.98
822.879	0.35
823.05	1.62
823.221	0.71
823.392	1.24
823.563	0.51
823.734	0.9
823.905	1.19
824.076	0.35
824.247	0.02
824.418	0.71
824.589	1.12
824.759	0.54
824.93	0.89
825.101	-0.18
825.272	1.94
825.443	1.15
825.614	0.88
825.784	-0.07
825.955	2.65
826.126	1.02
826.297	1.01
826.467	1.75
826.638	2.11
826.809	0.65
826.98	0.99
827.15	1.77
827.321	0.55
827.492	2.17
827.662	1.09
827.833	1.84
828.003	1.79
828.174	0.44
828.345	-0.21
828.515	1.39
828.686	0.98
828.856	0.65
829.027	0.83
829.197	1.13
829.368	1.26
829.538	0.38
829.709	0.15
829.879	1.73
830.049	0.92
830.22	0.43
830.39	0.38
830.56	1.75
830.731	1.09
830.901	-0.32
831.072	0.59
831.242	0.7
831.412	1.48
831.582	0.75
831.753	0.01
831.923	1.82
832.093	1.81
832.263	0.27
832.434	0.33
832.604	0.28
832.774	1.26
832.944	0.18
833.114	0.39
833.284	1.2
833.454	0.39
833.624	0.12
833.795	0.78
833.965	2.15
834.135	1.96
834.305	-0.49
834.475	-0.01
834.645	1.38
834.815	0.45
834.985	0.36
835.155	0.47
835.325	1.22
835.494	1.95
835.664	0.17
835.834	0.1
836.004	1.35
836.174	1.73
836.344	0.43
836.514	-0.02
836.684	0.66
836.853	0.66
837.023	1.07
837.193	0.63
837.363	2.03
837.532	1.88
837.702	0.89
837.872	0.48
838.041	1.68
838.211	3.2
838.381	-0.26
838.55	0.95
838.72	3.88
838.89	2.04
839.059	0.63
839.229	-0.1
839.398	2.55
839.568	1.54
839.738	0.92
839.907	1.96
840.077	1.02
840.246	0.91
840.416	0.15
840.585	0.1
840.755	2.68
840.924	2.15
841.093	-0.31
841.263	0.45
841.432	1.11
841.602	0.61
841.771	0.5
841.94	1.18
842.11	3.09
842.279	2.93
842.448	-0.48
842.617	0.65
842.787	2.99
842.956	-0.14
843.125	0.88
843.294	0.58
843.464	2.75
843.633	1.71
843.802	-0.44
843.971	0.72
844.14	1.7
844.309	2.97
844.479	0.5
844.648	-0.34
844.817	1.64
844.986	1.24
845.155	0.26
845.324	0.17
845.493	1.18
845.662	1.27
845.831	1.12
846	1.98
846.169	1.61
846.338	3.37
846.507	0.8
846.676	1.06
846.844	0.43
847.013	2.14
847.182	1.05
847.351	1.49
847.52	1.57
847.689	2.42
847.858	1.03
848.026	-0.4
848.195	1.12
848.364	0.7
848.533	-0.03
848.701	0.68
848.87	1.52
849.039	3.23
849.207	1.77
849.376	2.61
849.545	2.95
849.713	0.03
849.882	1.33
850.051	1.19
850.219	2.23
850.388	1.89
850.556	-0.22
850.725	-0.38
850.893	1.64
851.062	1.31
851.23	1.4
851.399	-0.77
851.567	1.17
851.736	0.99
851.904	0.17
852.073	1.21
852.241	2.29
852.41	1.62
852.578	1.03
852.746	0.73
852.915	2.17
853.083	1.5
853.251	-0.27
853.42	1.07
853.588	2.24
853.756	2.91
853.924	1.8
854.093	1.93
854.261	1.43
854.429	0.13
854.597	1.03
854.765	0.26
854.934	2.67
855.102	2.8
855.27	1.37
855.438	2.04
855.606	2.97
855.774	3.96
855.942	-0.9
856.11	-0.67
856.278	1.69
856.446	2.73
856.614	1.57
856.782	-0.1
856.95	2.02
857.118	2.23
857.286	1.38
857.454	0.29
857.622	3.37
857.79	1.66
857.958	-0.05
858.126	1.01
858.294	-1.29
858.462	1.77
858.629	0.98
858.797	0.64
858.965	2.07
859.133	1.97
859.301	0.91
859.468	2.17
859.636	2.04
859.804	4.32
859.971	2.47
860.139	0.66
860.307	2.71
860.474	2.99
860.642	0.21
860.81	0.72
860.977	2.72
861.145	3.01
861.313	1.67
861.48	0.32
861.648	3.31
861.815	0.93
861.983	-1.7
862.15	0.08
862.318	2.95
862.485	2.83
862.653	1.37
862.82	0.7
862.988	4.83
863.155	0.92
863.322	0.91
863.49	-0.68
863.657	0.33
863.824	5.14
863.992	1.31
864.159	1.63
864.326	4.55
864.494	0.55
864.661	4.2
864.828	0.29
864.996	3.92
865.163	3.67
865.33	1.08
865.497	-1.54
865.664	0.92
865.832	-2.06
865.999	1.93
866.166	0.24
866.333	1.21
866.5	1.84
866.667	0.12
866.834	1.5
867.001	4.76
867.168	-1.43
867.335	1.35
867.502	-0.71
867.669	2.24
867.836	6.82
868.003	-0.07
868.17	3.73
868.337	6.16
868.504	5.96
868.671	-0.97
868.838	0.52
869.005	3.07
869.172	1.84
869.339	3.17
869.505	0.98
869.672	3.07
869.839	5.38
870.006	2.38
870.173	1.02
870.339	3.63
870.506	4.69
870.673	2.24
870.84	3.79
871.006	3.6
871.173	0.08
871.34	1.39
871.506	1.24
871.673	2.03
871.839	-0.2
872.006	2
872.173	2.06
872.339	4.41
872.506	3.35
872.672	-0.58
872.839	0.07
873.005	3.33
873.172	5.08
873.338	2.03
873.505	3.05
873.671	2.14
873.838	3.47
874.004	-1.22
874.171	0.99
874.337	4.71
874.503	5.22
874.67	2.65
874.836	0.95
875.002	5.55
875.169	5.39
875.335	1.33
875.501	0.72
875.668	4.38
875.834	1.24
876	0.55
876.166	3.4
876.332	3.3
876.499	6.62
876.665	0.8
876.831	2.99
876.997	7.94
877.163	3.86
877.329	1.76
877.495	2.18
877.662	2.38
877.828	4.16
877.994	2.76
878.16	-0.92
878.326	0.41
878.492	2.22
878.658	1.83
878.824	2.08
878.99	5.41
879.156	2.94
879.322	4.8
879.487	1.79
879.653	2.5
879.819	3.6
879.985	-0.59
880.151	2.31
880.317	2.47
880.483	3.03
880.648	3.49
880.814	0.19
880.98	2.47
881.146	0.39
881.312	-1.13
881.477	0.51
881.643	1.86
881.809	3.62
881.974	3.48
882.14	-0.75
882.306	3.75
882.471	5.5
882.637	-0.58
882.803	3.05
882.968	5.44
883.134	7.01
883.299	1.72
883.465	2.35
883.63	5.33
883.796	3.47
883.961	3.9
884.127	2.75
884.292	-4.1
884.458	-0.7
884.623	-0.7
