Data from Apollo_Calib_20240827__AbsoluteIrradiance__743__11-32-01-468.txt Node

Date: Wed Aug 28 11:32:01 BST 2024
User: biology
Spectrometer: FLMT08252
Trigger mode: 0
Integration Time (sec): 5.000000E-1
Scans to average: 5
Electric dark correction enabled: true
Nonlinearity correction enabled: false
Boxcar width: 0
XAxis mode: Wavelengths
Number of Pixels in Spectrum: 3648
>>>>>Begin Spectral Data<<<<<
179.588	-0
179.809	-0
180.03	-0
180.251	-0
180.473	-0
180.694	0
180.915	0
181.136	-0
181.357	0
181.578	0
181.799	-0
182.02	-0
182.241	0
182.462	-0
182.683	0
182.904	-0
183.125	-0
183.346	0
183.567	0
183.788	0
184.009	0
184.23	0
184.451	0
184.672	0
184.892	0
185.113	0
185.334	0
185.555	0
185.776	0
185.996	0
186.217	0
186.438	0
186.659	0
186.879	0
187.1	0
187.321	0
187.541	0
187.762	0
187.983	0
188.203	0
188.424	0
188.644	0
188.865	0
189.086	0
189.306	0
189.527	0
189.747	0
189.968	0
190.188	0
190.409	0
190.629	0
190.849	0
191.07	0
191.29	0
191.511	0
191.731	0
191.951	0
192.172	0
192.392	0
192.612	0
192.833	0
193.053	0
193.273	0
193.493	0
193.714	0
193.934	0
194.154	0
194.374	0
194.594	0
194.815	0
195.035	0
195.255	0
195.475	0
195.695	0
195.915	0
196.135	0
196.355	0
196.575	0
196.795	0
197.015	0
197.235	0
197.455	0
197.675	0
197.895	0
198.115	0
198.335	0
198.555	0
198.775	0
198.995	0
199.214	0
199.434	0
199.654	0
199.874	0
200.094	2.89
200.313	0.96
200.533	1.18
200.753	0.88
200.973	2.64
201.192	2.24
201.412	0.38
201.632	1.21
201.851	2.1
202.071	1.23
202.291	1.05
202.51	0.8
202.73	2.02
202.95	1.11
203.169	0.89
203.389	0.91
203.608	1.34
203.828	0.87
204.047	1.01
204.267	1.39
204.486	1.3
204.706	1.45
204.925	1.04
205.145	0.74
205.364	1.21
205.583	1.86
205.803	1.03
206.022	0.56
206.242	1
206.461	1.16
206.68	0.8
206.9	0.9
207.119	1.61
207.338	1.7
207.557	0.56
207.777	0.81
207.996	0.72
208.215	1.24
208.434	0.62
208.654	0.58
208.873	1.05
209.092	1.44
209.311	0.61
209.53	0.9
209.749	0.72
209.968	0.78
210.187	0.78
210.407	0.19
210.626	0.79
210.845	1.01
211.064	0.78
211.283	0.39
211.502	1.07
211.721	0.93
211.94	0.46
212.159	0.78
212.377	0.86
212.596	1.27
212.815	0.82
213.034	0.94
213.253	1.06
213.472	0.79
213.691	0.4
213.91	0.24
214.128	0.43
214.347	1.01
214.566	0.15
214.785	0.14
215.003	0.88
215.222	0.81
215.441	0.6
215.66	0.36
215.878	0.29
216.097	0.94
216.316	0.3
216.534	0.65
216.753	0.74
216.972	0.54
217.19	0.5
217.409	0.34
217.627	0.46
217.846	0.34
218.064	0.39
218.283	0.26
218.501	0.95
218.72	0.87
218.938	0.44
219.157	0.25
219.375	0.64
219.594	0.68
219.812	0.29
220.031	0.18
220.249	0.94
220.467	0.75
220.686	0.34
220.904	0.35
221.122	0.45
221.341	0.7
221.559	0.49
221.777	0.2
221.995	0.43
222.214	0.56
222.432	0.32
222.65	0.62
222.868	0.65
223.086	0.43
223.305	0.75
223.523	0.33
223.741	0.87
223.959	0.26
224.177	0.06
224.395	0.26
224.613	0.57
224.831	0.65
225.049	0.23
225.267	0.4
225.485	0.38
225.703	0.34
225.921	0.36
226.139	0.39
226.357	0.43
226.575	0.51
226.793	0.29
227.011	0.99
227.229	0.49
227.447	0.6
227.665	0.35
227.883	0.05
228.1	0.35
228.318	0.53
228.536	0.08
228.754	0.37
228.972	0.44
229.189	0.58
229.407	0.21
229.625	0.34
229.843	0.6
230.06	0.52
230.278	0.25
230.496	0.33
230.713	0.4
230.931	0.57
231.149	0.35
231.366	0.16
231.584	0.37
231.801	0.75
232.019	0.26
232.236	0.17
232.454	0.25
232.671	0.37
232.889	0.24
233.106	0.22
233.324	0.36
233.541	0.24
233.759	0.3
233.976	0.11
234.194	0.48
234.411	0.17
234.628	0.22
234.846	0.22
235.063	0.24
235.28	0.36
235.498	0.28
235.715	0.2
235.932	0.41
236.149	0.31
236.367	0.28
236.584	0.24
236.801	0.3
237.018	0.38
237.236	0.36
237.453	0.18
237.67	0.47
237.887	0.31
238.104	0.29
238.321	0.21
238.538	0.25
238.755	0.38
238.973	0.09
239.19	0.24
239.407	0.25
239.624	0.32
239.841	0.26
240.058	0.24
240.275	0.33
240.492	0.3
240.709	0.32
240.925	0.21
241.142	0.34
241.359	0.2
241.576	0.15
241.793	0.17
242.01	0.33
242.227	0.47
242.444	0.22
242.66	0.38
242.877	0.24
243.094	0.21
243.311	0.24
243.527	0.25
243.744	0.31
243.961	0.33
244.178	0.21
244.394	0.18
244.611	0.37
244.828	0.37
245.044	0.26
245.261	0.23
245.477	0.29
245.694	0.31
245.911	0.24
246.127	0.29
246.344	0.45
246.56	0.37
246.777	0.22
246.993	0.22
247.21	0.34
247.426	0.36
247.643	0.15
247.859	0.17
248.076	0.12
248.292	0.45
248.508	0.29
248.725	0.36
248.941	0.33
249.157	0.38
249.374	0.13
249.59	0.33
249.806	0.28
250.023	0.44
250.239	0.18
250.455	0.19
250.671	0.13
250.888	0.41
251.104	0.35
251.32	0.24
251.536	0.24
251.752	0.21
251.969	0.21
252.185	0.28
252.401	0.38
252.617	0.32
252.833	0.19
253.049	0.24
253.265	0.21
253.481	0.27
253.697	0.13
253.913	0.17
254.129	0.29
254.345	0.24
254.561	0.21
254.777	0.16
254.993	0.33
255.209	0.26
255.425	0.26
255.641	0.18
255.857	0.32
256.073	0.24
256.288	0.09
256.504	0.12
256.72	0.32
256.936	0.34
257.152	0.19
257.367	0.12
257.583	0.24
257.799	0.33
258.015	0.18
258.23	0.15
258.446	0.36
258.662	0.24
258.877	0.15
259.093	0.11
259.309	0.3
259.524	0.3
259.74	0.14
259.955	0.12
260.171	0.27
260.387	0.23
260.602	0.27
260.818	0.27
261.033	0.2
261.249	0.23
261.464	0.17
261.68	0.12
261.895	0.26
262.11	0.28
262.326	0.17
262.541	0.12
262.757	0.29
262.972	0.29
263.187	0.24
263.403	0.22
263.618	0.34
263.833	0.18
264.049	0.16
264.264	0.23
264.479	0.2
264.694	0.29
264.91	0.16
265.125	0.21
265.34	0.21
265.555	0.38
265.77	0.19
265.986	0.19
266.201	0.27
266.416	0.26
266.631	0.27
266.846	0.16
267.061	0.32
267.276	0.28
267.491	0.05
267.706	0.25
267.921	0.24
268.136	0.23
268.351	0.13
268.566	0.15
268.781	0.27
268.996	0.23
269.211	0.25
269.426	0.15
269.641	0.17
269.856	0.26
270.071	0.17
270.285	0.15
270.5	0.36
270.715	0.25
270.93	0.16
271.145	0.15
271.359	0.29
271.574	0.15
271.789	0.21
272.004	0.17
272.218	0.22
272.433	0.23
272.648	0.15
272.862	0.29
273.077	0.2
273.292	0.2
273.506	0.11
273.721	0.2
273.936	0.21
274.15	0.26
274.365	0.16
274.579	0.18
274.794	0.23
275.008	0.25
275.223	0.07
275.437	0.14
275.652	0.17
275.866	0.26
276.081	0.19
276.295	0.2
276.509	0.21
276.724	0.19
276.938	0.21
277.153	0.2
277.367	0.22
277.581	0.15
277.796	0.18
278.01	0.14
278.224	0.27
278.438	0.31
278.653	0.16
278.867	0.13
279.081	-0
279.295	0.16
279.51	0.18
279.724	0.11
279.938	0.24
280.152	0.21
280.366	0.14
280.58	0.19
280.794	0.3
281.008	0.24
281.222	0.2
281.437	0.33
281.651	0.17
281.865	0.26
282.079	0.12
282.293	0.05
282.507	0.09
282.721	0.17
282.935	0.16
283.148	0.11
283.362	0.15
283.576	0.19
283.79	0.16
284.004	0.13
284.218	0.23
284.432	0.11
284.646	0.15
284.859	0.13
285.073	0.18
285.287	0.21
285.501	0.17
285.714	0.15
285.928	0.19
286.142	0.19
286.356	0.18
286.569	0.13
286.783	0.26
286.997	0.22
287.21	0.12
287.424	0.15
287.637	0.14
287.851	0.15
288.065	0.23
288.278	0.17
288.492	0.18
288.705	0.19
288.919	0.18
289.132	0.11
289.346	0.23
289.559	0.12
289.773	0.09
289.986	0.16
290.2	0.18
290.413	0.3
290.626	0.12
290.84	0.16
291.053	0.17
291.267	0.22
291.48	0.16
291.693	0.15
291.906	0.14
292.12	0.15
292.333	0.11
292.546	0.13
292.76	0.23
292.973	0.18
293.186	0.19
293.399	0.16
293.612	0.24
293.826	0.16
294.039	0.14
294.252	0.17
294.465	0.23
294.678	0.2
294.891	0.17
295.104	0.13
295.317	0.17
295.53	0.16
295.743	0.18
295.956	0.17
296.169	0.22
296.382	0.2
296.595	0.14
296.808	0.14
297.021	0.22
297.234	0.25
297.447	0.17
297.66	0.16
297.873	0.24
298.086	0.2
298.299	0.11
298.511	0.1
298.724	0.17
298.937	0.1
299.15	0.13
299.363	0.16
299.575	0.19
299.788	0.21
300.001	0.13
300.213	0.15
300.426	0.15
300.639	0.13
300.852	0.14
301.064	0.19
301.277	0.25
301.489	0.19
301.702	0.21
301.915	0.18
302.127	0.21
302.34	0.2
302.552	0.17
302.765	0.14
302.977	0.2
303.19	0.1
303.402	0.16
303.615	0.14
303.827	0.11
304.04	0.14
304.252	0.24
304.464	0.12
304.677	0.27
304.889	0.18
305.102	0.13
305.314	0.13
305.526	0.21
305.739	0.21
305.951	0.15
306.163	0.15
306.375	0.24
306.588	0.14
306.8	0.13
307.012	0.08
307.224	0.19
307.436	0.21
307.649	0.07
307.861	0.18
308.073	0.19
308.285	0.12
308.497	0.1
308.709	0.15
308.921	0.17
309.133	0.22
309.346	0.16
309.558	0.17
309.77	0.24
309.982	0.23
310.194	0.21
310.406	0.09
310.617	0.23
310.829	0.17
311.041	0.21
311.253	0.16
311.465	0.16
311.677	0.14
311.889	0.15
312.101	0.17
312.313	0.18
312.524	0.22
312.736	0.1
312.948	0.13
313.16	0.27
313.372	0.15
313.583	0.15
313.795	0.14
314.007	0.15
314.218	0.14
314.43	0.11
314.642	0.12
314.853	0.08
315.065	0.19
315.277	0.17
315.488	0.15
315.7	0.22
315.912	0.2
316.123	0.19
316.335	0.14
316.546	0.25
316.758	0.22
316.969	0.11
317.181	0.15
317.392	0.16
317.604	0.21
317.815	0.13
318.026	0.09
318.238	0.15
318.449	0.19
318.661	0.1
318.872	0.1
319.083	0.09
319.295	0.2
319.506	0.16
319.717	0.2
319.929	0.2
320.14	0.13
320.351	0.19
320.562	0.12
320.774	0.16
320.985	0.18
321.196	0.11
321.407	0.08
321.618	0.2
321.829	0.21
322.041	0.17
322.252	0.18
322.463	0.19
322.674	0.18
322.885	0.1
323.096	0.12
323.307	0.12
323.518	0.18
323.729	0.11
323.94	0.11
324.151	0.13
324.362	0.14
324.573	0.16
324.784	0.11
324.995	0.17
325.206	0.19
325.417	0.16
325.628	0.14
325.838	0.18
326.049	0.15
326.26	0.24
326.471	0.1
326.682	0.16
326.892	0.15
327.103	0.07
327.314	0.15
327.525	0.24
327.735	0.17
327.946	0.14
328.157	0.08
328.368	0.16
328.578	0.14
328.789	0.22
328.999	0.14
329.21	0.14
329.421	0.2
329.631	0.09
329.842	0.12
330.052	0.16
330.263	0.17
330.473	0.19
330.684	0.11
330.894	0.17
331.105	0.17
331.315	0.16
331.526	0.1
331.736	0.24
331.947	0.19
332.157	0.15
332.367	0.08
332.578	0.21
332.788	0.23
332.999	0.17
333.209	0.19
333.419	0.06
333.629	0.21
333.84	0.14
334.05	0.15
334.26	0.2
334.47	0.16
334.681	0.2
334.891	0.13
335.101	0.17
335.311	0.22
335.521	0.17
335.732	0.08
335.942	0.23
336.152	0.17
336.362	0.18
336.572	0.18
336.782	0.2
336.992	0.13
337.202	0.13
337.412	0.12
337.622	0.17
337.832	0.16
338.042	0.1
338.252	0.12
338.462	0.1
338.672	0.19
338.882	0.1
339.092	0.15
339.302	0.2
339.511	0.19
339.721	0.13
339.931	0.1
340.141	0.22
340.351	0.22
340.561	0.14
340.77	0.15
340.98	0.12
341.19	0.17
341.4	0.13
341.609	0.09
341.819	0.15
342.029	0.13
342.238	0.16
342.448	0.15
342.658	0.21
342.867	0.16
343.077	0.12
343.286	0.17
343.496	0.17
343.706	0.18
343.915	0.09
344.125	0.15
344.334	0.19
344.544	0.12
344.753	0.14
344.963	0.1
345.172	0.1
345.381	0.15
345.591	0.07
345.8	0.16
346.01	0.18
346.219	0.18
346.428	0.04
346.638	0.15
346.847	0.16
347.056	0.24
347.266	0.1
347.475	0.1
347.684	0.2
347.893	0.15
348.103	0.16
348.312	0.14
348.521	0.14
348.73	0.16
348.94	0.14
349.149	0.12
349.358	0.17
349.567	0.12
349.776	0.07
349.985	0.11
350.194	0.16
350.403	0.19
350.612	0.07
350.821	0.1
351.03	0.11
351.239	0.15
351.448	0.11
351.657	0.15
351.866	0.22
352.075	0.18
352.284	0.2
352.493	0.08
352.702	0.18
352.911	0.2
353.12	0.17
353.329	0.13
353.538	0.13
353.746	0.13
353.955	0.1
354.164	0.17
354.373	0.13
354.582	0.19
354.79	0.16
354.999	0.19
355.208	0.14
355.416	0.18
355.625	0.07
355.834	0.12
356.042	0.17
356.251	0.15
356.46	0.13
356.668	0.14
356.877	0.23
357.085	0.22
357.294	0.08
357.503	0.14
357.711	0.13
357.92	0.29
358.128	0.16
358.337	0.13
358.545	0.17
358.754	0.15
358.962	0.15
359.17	0.15
359.379	0.18
359.587	0.17
359.796	0.15
360.004	0.19
360.212	0.16
360.421	0.18
360.629	0.12
360.837	0.12
361.046	0.19
361.254	0.28
361.462	0.15
361.67	0.14
361.879	0.18
362.087	0.25
362.295	0.18
362.503	0.1
362.711	0.12
362.92	0.13
363.128	0.13
363.336	0.12
363.544	0.09
363.752	0.12
363.96	0.13
364.168	0.14
364.376	0.14
364.584	0.13
364.792	0.19
365	0.15
365.208	0.16
365.416	0.16
365.624	0.2
365.832	0.12
366.04	0.16
366.248	0.16
366.456	0.13
366.664	0.16
366.872	0.14
367.079	0.25
367.287	0.16
367.495	0.13
367.703	0.17
367.911	0.15
368.118	0.14
368.326	0.14
368.534	0.13
368.742	0.21
368.949	0.11
369.157	0.13
369.365	0.2
369.572	0.15
369.78	0.11
369.988	0.17
370.195	0.18
370.403	0.17
370.61	0.11
370.818	0.16
371.026	0.22
371.233	0.11
371.441	0.2
371.648	0.11
371.856	0.13
372.063	0.16
372.271	0.14
372.478	0.12
372.685	0.18
372.893	0.22
373.1	0.13
373.308	0.13
373.515	0.25
373.722	0.22
373.93	0.14
374.137	0.18
374.344	0.27
374.552	0.23
374.759	0.18
374.966	0.14
375.173	0.16
375.381	0.2
375.588	0.17
375.795	0.1
376.002	0.15
376.209	0.08
376.417	0.12
376.624	0.21
376.831	0.15
377.038	0.15
377.245	0.1
377.452	0.12
377.659	0.16
377.866	0.15
378.073	0.14
378.28	0.17
378.487	0.2
378.694	0.17
378.901	0.16
379.108	0.12
379.315	0.19
379.522	0.25
379.729	0.17
379.936	0.16
380.143	0.17
380.35	0.16
380.557	0.17
380.763	0.18
380.97	0.17
381.177	0.18
381.384	0.2
381.591	0.17
381.797	0.18
382.004	0.2
382.211	0.22
382.418	0.1
382.624	0.2
382.831	0.16
383.038	0.17
383.244	0.18
383.451	0.15
383.658	0.18
383.864	0.15
384.071	0.11
384.277	0.26
384.484	0.13
384.69	0.22
384.897	0.14
385.103	0.17
385.31	0.17
385.516	0.13
385.723	0.12
385.929	0.18
386.136	0.14
386.342	0.19
386.549	0.13
386.755	0.26
386.961	0.21
387.168	0.14
387.374	0.14
387.58	0.19
387.787	0.18
387.993	0.2
388.199	0.17
388.406	0.1
388.612	0.14
388.818	0.13
389.024	0.17
389.231	0.2
389.437	0.28
389.643	0.21
389.849	0.18
390.055	0.2
390.261	0.16
390.467	0.19
390.674	0.14
390.88	0.19
391.086	0.18
391.292	0.15
391.498	0.2
391.704	0.19
391.91	0.17
392.116	0.16
392.322	0.1
392.528	0.19
392.734	0.18
392.94	0.18
393.146	0.18
393.352	0.2
393.557	0.15
393.763	0.17
393.969	0.23
394.175	0.18
394.381	0.19
394.587	0.15
394.792	0.15
394.998	0.23
395.204	0.23
395.41	0.15
395.615	0.24
395.821	0.2
396.027	0.23
396.233	0.16
396.438	0.2
396.644	0.26
396.85	0.23
397.055	0.18
397.261	0.21
397.466	0.28
397.672	0.21
397.878	0.25
398.083	0.23
398.289	0.17
398.494	0.2
398.7	0.21
398.905	0.12
399.111	0.27
399.316	0.12
399.522	0.21
399.727	0.16
399.932	0.21
400.138	0.17
400.343	0.26
400.549	0.18
400.754	0.22
400.959	0.23
401.165	0.18
401.37	0.23
401.575	0.12
401.78	0.26
401.986	0.2
402.191	0.21
402.396	0.25
402.601	0.26
402.807	0.22
403.012	0.22
403.217	0.27
403.422	0.23
403.627	0.25
403.832	0.18
404.037	0.28
404.243	0.22
404.448	0.27
404.653	0.26
404.858	0.27
405.063	0.29
405.268	0.23
405.473	0.21
405.678	0.18
405.883	0.4
406.088	0.32
406.293	0.2
406.498	0.28
406.703	0.32
406.907	0.27
407.112	0.2
407.317	0.31
407.522	0.33
407.727	0.23
407.932	0.29
408.136	0.43
408.341	0.31
408.546	0.33
408.751	0.34
408.956	0.33
409.16	0.36
409.365	0.38
409.57	0.37
409.774	0.35
409.979	0.4
410.184	0.41
410.388	0.36
410.593	0.41
410.798	0.39
411.002	0.36
411.207	0.49
411.411	0.47
411.616	0.37
411.82	0.41
412.025	0.48
412.229	0.44
412.434	0.56
412.638	0.51
412.843	0.5
413.047	0.52
413.252	0.47
413.456	0.59
413.66	0.56
413.865	0.6
414.069	0.7
414.273	0.56
414.478	0.6
414.682	0.64
414.886	0.68
415.091	0.64
415.295	0.65
415.499	0.74
415.703	0.72
415.908	0.8
416.112	0.71
416.316	0.85
416.52	0.87
416.724	0.82
416.929	0.85
417.133	1.02
417.337	0.93
417.541	1.01
417.745	1
417.949	1.15
418.153	1.13
418.357	1.06
418.561	1.21
418.765	1.19
418.969	1.34
419.173	1.34
419.377	1.36
419.581	1.49
419.785	1.44
419.989	1.43
420.193	1.53
420.397	1.55
420.601	1.69
420.804	1.77
421.008	1.66
421.212	1.82
421.416	1.81
421.62	1.81
421.823	1.89
422.027	1.97
422.231	2.02
422.435	1.91
422.638	1.95
422.842	2.04
423.046	2.09
423.249	2.2
423.453	2.19
423.657	2.29
423.86	2.36
424.064	2.41
424.268	2.54
424.471	2.52
424.675	2.68
424.878	2.76
425.082	2.76
425.285	2.89
425.489	2.89
425.692	2.97
425.896	2.96
426.099	3.06
426.303	3.05
426.506	3.18
426.71	3.36
426.913	3.53
427.116	3.57
427.32	3.56
427.523	3.55
427.726	3.82
427.93	3.83
428.133	4.04
428.336	4.04
428.54	4.2
428.743	4.31
428.946	4.42
429.149	4.39
429.353	4.41
429.556	4.6
429.759	4.49
429.962	4.56
430.165	4.69
430.368	4.47
430.571	4.54
430.775	4.55
430.978	4.59
431.181	4.6
431.384	4.67
431.587	4.63
431.79	4.95
431.993	4.86
432.196	5.06
432.399	5.25
432.602	5.34
432.805	5.39
433.008	5.74
433.211	5.57
433.414	5.85
433.616	5.88
433.819	5.84
434.022	5.97
434.225	6.05
434.428	6.09
434.631	6.39
434.833	6.19
435.036	6.31
435.239	6.45
435.442	6.44
435.645	6.56
435.847	6.71
436.05	6.95
436.253	6.93
436.455	6.87
436.658	6.89
436.861	7.14
437.063	7.15
437.266	7.12
437.468	7.42
437.671	7.59
437.874	7.67
438.076	7.46
438.279	7.83
438.481	7.92
438.684	8.25
438.886	8.11
439.089	8.27
439.291	8.28
439.494	8.58
439.696	8.59
439.899	8.89
440.101	9.09
440.303	9.32
440.506	9.82
440.708	9.59
440.91	9.77
441.113	9.85
441.315	10.14
441.517	9.95
441.72	10.25
441.922	10.12
442.124	10.03
442.326	10.33
442.529	10.48
442.731	10.36
442.933	10.63
443.135	10.62
443.337	10.51
443.539	10.96
443.742	10.67
443.944	11.11
444.146	10.99
444.348	11.1
444.55	10.89
444.752	11.13
444.954	11.31
445.156	11.1
445.358	11.3
445.56	11.58
445.762	11.41
445.964	11.67
446.166	11.47
446.368	11.52
446.57	11.62
446.772	11.34
446.974	11.16
447.175	11.56
447.377	11.33
447.579	11.52
447.781	11.36
447.983	11.26
448.184	11.07
448.386	11.27
448.588	10.95
448.79	10.93
448.991	11.12
449.193	11.23
449.395	10.76
449.597	10.56
449.798	10.41
450	10.22
450.202	10.22
450.403	10.2
450.605	10.1
450.806	9.88
451.008	9.83
451.21	9.68
451.411	9.44
451.613	8.81
451.814	9
452.016	9
452.217	8.57
452.419	8.65
452.62	8.44
452.821	8.23
453.023	8.18
453.224	7.9
453.426	7.59
453.627	7.12
453.828	7.15
454.03	7.27
454.231	7.24
454.432	7.1
454.634	6.86
454.835	6.65
455.036	6.61
455.238	6.39
455.439	6.36
455.64	6.06
455.841	5.98
456.042	6.13
456.244	5.92
456.445	5.69
456.646	5.48
456.847	5.48
457.048	5.39
457.249	5.37
457.45	5.37
457.651	4.9
457.852	4.81
458.054	4.7
458.255	4.53
458.456	4.64
458.657	4.51
458.858	4.25
459.058	4.2
459.259	4.27
459.46	4.02
459.661	4.04
459.862	4.16
460.063	3.96
460.264	4
460.465	3.75
460.666	3.83
460.866	3.66
461.067	3.49
461.268	3.52
461.469	3.4
461.67	3.34
461.87	3.26
462.071	3.26
462.272	3.24
462.473	3.21
462.673	3.35
462.874	3.14
463.075	3.22
463.275	3.22
463.476	3.14
463.676	3.27
463.877	3.14
464.078	3.11
464.278	3.2
464.479	3.06
464.679	3.06
464.88	2.92
465.08	2.93
465.281	2.8
465.481	2.74
465.682	2.6
465.882	2.6
466.083	2.63
466.283	2.47
466.483	2.47
466.684	2.38
466.884	2.25
467.085	2.32
467.285	2.37
467.485	2.26
467.686	2.24
467.886	2.13
468.086	2.15
468.286	2.09
468.487	2.14
468.687	1.99
468.887	1.96
469.087	2.11
469.287	2.04
469.488	1.85
469.688	2.05
469.888	2.01
470.088	2
470.288	1.92
470.488	1.9
470.688	1.74
470.888	1.73
471.088	1.67
471.288	1.76
471.488	1.78
471.688	1.72
471.888	1.66
472.088	1.8
472.288	1.66
472.488	1.61
472.688	1.54
472.888	1.64
473.088	1.61
473.288	1.52
473.488	1.53
473.688	1.63
473.887	1.51
474.087	1.48
474.287	1.52
474.487	1.4
474.687	1.49
474.886	1.48
475.086	1.38
475.286	1.42
475.486	1.39
475.685	1.44
475.885	1.35
476.085	1.37
476.284	1.41
476.484	1.36
476.684	1.34
476.883	1.46
477.083	1.33
477.282	1.29
477.482	1.35
477.681	1.32
477.881	1.29
478.08	1.26
478.28	1.22
478.479	1.31
478.679	1.34
478.878	1.24
479.078	1.21
479.277	1.25
479.477	1.26
479.676	1.3
479.875	1.24
480.075	1.17
480.274	1.27
480.473	1.28
480.673	1.23
480.872	1.27
481.071	1.27
481.271	1.26
481.47	1.22
481.669	1.19
481.868	1.21
482.067	1.25
482.267	1.16
482.466	1.13
482.665	1.18
482.864	1.15
483.063	1.17
483.262	1.2
483.461	1.27
483.661	1.27
483.86	1.21
484.059	1.25
484.258	1.23
484.457	1.22
484.656	1.21
484.855	1.28
485.054	1.15
485.253	1.21
485.452	1.16
485.651	1.25
485.849	1.21
486.048	1.21
486.247	1.21
486.446	1.25
486.645	1.22
486.844	1.25
487.043	1.27
487.241	1.3
487.44	1.24
487.639	1.31
487.838	1.3
488.037	1.34
488.235	1.39
488.434	1.29
488.633	1.27
488.831	1.33
489.03	1.39
489.229	1.35
489.427	1.37
489.626	1.4
489.825	1.38
490.023	1.41
490.222	1.41
490.42	1.42
490.619	1.45
490.817	1.48
491.016	1.44
491.214	1.5
491.413	1.47
491.611	1.45
491.81	1.46
492.008	1.55
492.207	1.58
492.405	1.55
492.604	1.47
492.802	1.59
493	1.6
493.199	1.61
493.397	1.6
493.595	1.66
493.794	1.65
493.992	1.7
494.19	1.66
494.388	1.74
494.587	1.67
494.785	1.7
494.983	1.69
495.181	1.77
495.379	1.79
495.578	1.87
495.776	1.85
495.974	1.78
496.172	1.87
496.37	1.91
496.568	1.9
496.766	1.89
496.964	2
497.162	1.98
497.36	2
497.558	2
497.756	2.06
497.954	2
498.152	2.08
498.35	2.15
498.548	2.07
498.746	2.08
498.944	2.11
499.142	2.11
499.34	2.17
499.538	2.3
499.736	2.2
499.933	2.26
500.131	2.3
500.329	2.34
500.527	2.36
500.725	2.41
500.922	2.46
501.12	2.45
501.318	2.48
501.516	2.44
501.713	2.55
501.911	2.46
502.109	2.44
502.306	2.57
502.504	2.48
502.701	2.54
502.899	2.58
503.097	2.75
503.294	2.61
503.492	2.7
503.689	2.75
503.887	2.73
504.084	2.81
504.282	2.78
504.479	2.72
504.677	2.8
504.874	2.8
505.072	2.77
505.269	2.89
505.466	2.95
505.664	2.96
505.861	2.89
506.059	2.99
506.256	3.03
506.453	3.02
506.651	3.15
506.848	3.13
507.045	3.15
507.242	3.13
507.44	3.15
507.637	3.19
507.834	3.18
508.031	3.29
508.229	3.23
508.426	3.19
508.623	3.27
508.82	3.32
509.017	3.28
509.214	3.31
509.411	3.35
509.608	3.33
509.805	3.47
510.003	3.41
510.2	3.47
510.397	3.58
510.594	3.45
510.791	3.5
510.988	3.52
511.184	3.54
511.381	3.47
511.578	3.58
511.775	3.67
511.972	3.61
512.169	3.65
512.366	3.66
512.563	3.76
512.76	3.76
512.956	3.78
513.153	3.74
513.35	3.73
513.547	3.7
513.744	3.8
513.94	3.77
514.137	3.88
514.334	3.87
514.53	3.89
514.727	4.03
514.924	3.95
515.12	3.93
515.317	3.9
515.514	3.89
515.71	3.87
515.907	4.02
516.103	4.06
516.3	3.98
516.497	4.08
516.693	4.08
516.89	4.08
517.086	4.11
517.283	4.15
517.479	4.07
517.676	4.16
517.872	4.15
518.068	4.22
518.265	4.16
518.461	4.16
518.658	4.21
518.854	4.22
519.05	4.22
519.247	4.28
519.443	4.24
519.639	4.31
519.836	4.24
520.032	4.3
520.228	4.34
520.424	4.37
520.621	4.36
520.817	4.39
521.013	4.34
521.209	4.5
521.405	4.47
521.601	4.45
521.798	4.41
521.994	4.43
522.19	4.35
522.386	4.39
522.582	4.46
522.778	4.56
522.974	4.49
523.17	4.5
523.366	4.44
523.562	4.53
523.758	4.55
523.954	4.4
524.15	4.53
524.346	4.58
524.542	4.56
524.738	4.55
524.934	4.68
525.129	4.65
525.325	4.61
525.521	4.59
525.717	4.78
525.913	4.57
526.109	4.61
526.304	4.72
526.5	4.7
526.696	4.71
526.892	4.65
527.087	4.82
527.283	4.7
527.479	4.69
527.674	4.6
527.87	4.69
528.066	4.71
528.261	4.77
528.457	4.69
528.653	4.85
528.848	4.73
529.044	4.85
529.239	4.72
529.435	4.78
529.63	4.7
529.826	4.79
530.021	4.75
530.217	4.82
530.412	4.77
530.608	4.76
530.803	4.77
530.999	4.73
531.194	4.82
531.389	4.83
531.585	4.82
531.78	4.91
531.975	4.88
532.171	4.86
532.366	4.83
532.561	4.9
532.757	4.76
532.952	4.95
533.147	4.81
533.342	4.91
533.538	4.83
533.733	4.95
533.928	4.78
534.123	4.89
534.318	4.9
534.513	4.86
534.709	4.96
534.904	4.89
535.099	4.99
535.294	4.97
535.489	5
535.684	4.92
535.879	4.94
536.074	4.97
536.269	4.98
536.464	5.01
536.659	4.95
536.854	4.95
537.049	5.01
537.244	4.99
537.439	4.98
537.634	4.97
537.828	5.01
538.023	4.95
538.218	4.94
538.413	4.94
538.608	4.94
538.803	4.99
538.997	4.98
539.192	5.06
539.387	4.93
539.582	4.99
539.776	4.91
539.971	4.98
540.166	5.06
540.36	5.01
540.555	5.07
540.75	5
540.944	5.02
541.139	5.04
541.334	5
541.528	5.03
541.723	5.08
541.917	5.1
542.112	4.97
542.306	4.93
542.501	4.94
542.695	4.99
542.89	4.99
543.084	5.02
543.279	5.02
543.473	5.07
543.668	5.1
543.862	4.95
544.056	4.97
544.251	5.01
544.445	5.09
544.64	5.12
544.834	4.9
545.028	4.82
545.222	5.04
545.417	5.16
545.611	5.11
545.805	5.03
546	4.98
546.194	5.1
546.388	5.08
546.582	5.02
546.776	5.04
546.97	5.04
547.165	5.07
547.359	5
547.553	5.02
547.747	5.05
547.941	5.15
548.135	5.03
548.329	5.06
548.523	5.07
548.717	5.08
548.911	4.99
549.105	5.01
549.299	5.08
549.493	5.11
549.687	5.01
549.881	5.08
550.075	5.09
550.269	5.01
550.463	5.11
550.657	5.08
550.85	5.07
551.044	5.04
551.238	5.12
551.432	5.05
551.626	5.12
551.82	5.09
552.013	5.02
552.207	5.13
552.401	5.13
552.594	5.11
552.788	5.05
552.982	5.04
553.176	5.03
553.369	5.19
553.563	5.15
553.756	5.05
553.95	5.09
554.144	5.11
554.337	5.13
554.531	4.93
554.724	5.14
554.918	5.14
555.111	5.06
555.305	5.11
555.498	5.08
555.692	5.16
555.885	5.1
556.079	5.04
556.272	5.07
556.466	5.03
556.659	5.05
556.852	5.12
557.046	5.07
557.239	5
557.432	5.08
557.626	5.06
557.819	5.12
558.012	5.14
558.206	5.11
558.399	5.11
558.592	5.08
558.785	5.06
558.979	5.07
559.172	5.06
559.365	5.07
559.558	5.06
559.751	5.04
559.944	5.16
560.138	5.04
560.331	5.05
560.524	5.1
560.717	5.11
560.91	5.06
561.103	5.13
561.296	4.96
561.489	5.13
561.682	5.13
561.875	5.16
562.068	5.11
562.261	5.05
562.454	5.22
562.647	5.08
562.84	5.18
563.032	5.11
563.225	5.03
563.418	5.1
563.611	5.11
563.804	5.1
563.997	5
564.19	4.93
564.382	5.13
564.575	5.11
564.768	5.03
564.961	5.11
565.153	5.03
565.346	5.05
565.539	5.14
565.731	5.08
565.924	5.14
566.117	5.16
566.309	5.1
566.502	5.07
566.695	5.06
566.887	5.12
567.08	5.1
567.272	5.1
567.465	5
567.657	5.08
567.85	4.99
568.042	5.08
568.235	5.13
568.427	4.98
568.62	5.05
568.812	5.02
569.005	5.12
569.197	4.99
569.389	5.05
569.582	5.02
569.774	5.06
569.966	5
570.159	4.99
570.351	5.06
570.543	5.04
570.736	5.01
570.928	4.96
571.12	5.05
571.312	4.98
571.505	4.89
571.697	5.09
571.889	5.03
572.081	5.07
572.273	4.98
572.465	5.03
572.658	5.04
572.85	5.02
573.042	5
573.234	4.98
573.426	5.05
573.618	4.95
573.81	5.04
574.002	5.03
574.194	5.01
574.386	4.96
574.578	4.9
574.77	4.97
574.962	4.99
575.154	4.88
575.346	4.92
575.538	4.91
575.729	4.91
575.921	5
576.113	4.96
576.305	4.95
576.497	5.03
576.689	4.86
576.88	4.88
577.072	5.02
577.264	4.94
577.456	4.97
577.647	4.92
577.839	5.02
578.031	4.95
578.223	4.87
578.414	4.85
578.606	4.94
578.798	4.97
578.989	4.91
579.181	4.98
579.372	4.92
579.564	4.91
579.755	4.91
579.947	4.84
580.139	4.95
580.33	4.77
580.522	4.92
580.713	4.81
580.905	4.89
581.096	4.95
581.287	4.87
581.479	4.87
581.67	4.9
581.862	4.81
582.053	4.89
582.244	4.69
582.436	4.87
582.627	4.84
582.818	4.82
583.01	4.85
583.201	4.83
583.392	4.76
583.583	4.84
583.775	4.73
583.966	4.77
584.157	4.79
584.348	4.86
584.54	4.79
584.731	4.79
584.922	4.74
585.113	4.67
585.304	4.76
585.495	4.8
585.686	4.83
585.877	4.81
586.068	4.84
586.259	4.8
586.45	4.77
586.641	4.73
586.832	4.81
587.023	4.76
587.214	4.72
587.405	4.69
587.596	4.67
587.787	4.73
587.978	4.69
588.169	4.72
588.36	4.66
588.551	4.69
588.742	4.68
588.932	4.73
589.123	4.56
589.314	4.73
589.505	4.6
589.696	4.65
589.886	4.57
590.077	4.59
590.268	4.56
590.458	4.55
590.649	4.51
590.84	4.57
591.03	4.61
591.221	4.54
591.412	4.52
591.602	4.61
591.793	4.56
591.984	4.62
592.174	4.55
592.365	4.67
592.555	4.43
592.746	4.5
592.936	4.54
593.127	4.58
593.317	4.55
593.508	4.53
593.698	4.45
593.889	4.5
594.079	4.47
594.269	4.43
594.46	4.42
594.65	4.45
594.84	4.44
595.031	4.4
595.221	4.43
595.411	4.43
595.602	4.41
595.792	4.36
595.982	4.32
596.172	4.48
596.363	4.31
596.553	4.36
596.743	4.35
596.933	4.42
597.123	4.33
597.314	4.25
597.504	4.27
597.694	4.37
597.884	4.3
598.074	4.3
598.264	4.29
598.454	4.32
598.644	4.23
598.834	4.31
599.024	4.17
599.214	4.23
599.404	4.26
599.594	4.18
599.784	4.17
599.974	4.34
600.164	4.25
600.354	4.16
600.544	4.08
600.734	4.18
600.924	4.15
601.114	4.12
601.303	4.11
601.493	4.12
601.683	4.14
601.873	4.14
602.063	4.1
602.252	4.12
602.442	4.01
602.632	4.04
602.821	4.04
603.011	4.07
603.201	4.1
603.39	4.03
603.58	3.96
603.77	4.08
603.959	4.07
604.149	3.97
604.339	4
604.528	4.08
604.718	4.05
604.907	3.97
605.097	3.91
605.286	3.92
605.476	3.94
605.665	3.96
605.855	3.95
606.044	3.97
606.234	3.95
606.423	3.9
606.612	3.82
606.802	3.8
606.991	3.94
607.181	3.9
607.37	3.87
607.559	3.71
607.749	3.8
607.938	3.77
608.127	3.81
608.316	3.84
608.506	3.81
608.695	3.82
608.884	3.7
609.073	3.73
609.263	3.81
609.452	3.8
609.641	3.71
609.83	3.68
610.019	3.74
610.208	3.7
610.397	3.71
610.586	3.7
610.775	3.6
610.965	3.68
611.154	3.55
611.343	3.69
611.532	3.57
611.721	3.68
611.91	3.61
612.099	3.6
612.287	3.52
612.476	3.51
612.665	3.63
612.854	3.51
613.043	3.56
613.232	3.51
613.421	3.49
613.61	3.53
613.798	3.48
613.987	3.51
614.176	3.52
614.365	3.46
614.554	3.49
614.742	3.45
614.931	3.4
615.12	3.49
615.309	3.43
615.497	3.4
615.686	3.31
615.875	3.39
616.063	3.37
616.252	3.35
616.44	3.38
616.629	3.36
616.818	3.26
617.006	3.3
617.195	3.28
617.383	3.32
617.572	3.29
617.76	3.23
617.949	3.28
618.137	3.35
618.326	3.3
618.514	3.12
618.703	3.15
618.891	3.27
619.079	3.17
619.268	3.25
619.456	3.15
619.644	3.21
619.833	3.11
620.021	3.13
620.209	3.05
620.398	3.14
620.586	3.07
620.774	3.2
620.962	3.12
621.151	3.17
621.339	3.1
621.527	3.04
621.715	2.99
621.903	3.06
622.092	2.99
622.28	3.08
622.468	2.96
622.656	2.96
622.844	2.95
623.032	3
623.22	2.92
623.408	3.09
623.596	2.91
623.784	3.01
623.972	2.84
624.16	2.94
624.348	2.96
624.536	3.01
624.724	2.86
624.912	2.92
625.1	2.95
625.288	2.85
625.476	2.8
625.664	2.92
625.851	2.78
626.039	2.87
626.227	2.84
626.415	2.87
626.603	2.73
626.79	2.81
626.978	2.8
627.166	2.77
627.354	2.74
627.541	2.78
627.729	2.68
627.917	2.82
628.104	2.8
628.292	2.65
628.48	2.73
628.667	2.71
628.855	2.74
629.042	2.72
629.23	2.71
629.418	2.66
629.605	2.67
629.793	2.63
629.98	2.63
630.168	2.6
630.355	2.63
630.543	2.54
630.73	2.57
630.917	2.56
631.105	2.62
631.292	2.56
631.48	2.58
631.667	2.6
631.854	2.53
632.042	2.52
632.229	2.47
632.416	2.51
632.604	2.49
632.791	2.39
632.978	2.48
633.165	2.47
633.353	2.5
633.54	2.53
633.727	2.34
633.914	2.4
634.101	2.36
634.289	2.51
634.476	2.3
634.663	2.36
634.85	2.41
635.037	2.34
635.224	2.32
635.411	2.4
635.598	2.31
635.785	2.32
635.972	2.3
636.159	2.37
636.346	2.29
636.533	2.26
636.72	2.23
636.907	2.28
637.094	2.24
637.281	2.2
637.468	2.26
637.655	2.22
637.842	2.23
638.029	2.19
638.215	2.22
638.402	2.22
638.589	2.16
638.776	2.14
638.963	2.11
639.149	2.19
639.336	2.28
639.523	2.12
639.709	2.15
639.896	2.06
640.083	2.18
640.27	2.14
640.456	2.06
640.643	2.12
640.829	1.97
641.016	2.03
641.203	1.99
641.389	2.07
641.576	2.05
641.762	2.04
641.949	2
642.135	2
642.322	2.03
642.508	1.91
642.695	2
642.881	1.98
643.068	1.9
643.254	1.97
643.441	1.99
643.627	2.02
643.813	1.85
644	2
644.186	1.89
644.372	1.95
644.559	1.9
644.745	1.91
644.931	1.84
645.118	1.9
645.304	1.93
645.49	1.87
645.676	1.84
645.862	1.88
646.049	1.88
646.235	1.87
646.421	1.94
646.607	1.91
646.793	1.81
646.979	1.71
647.165	1.79
647.352	1.81
647.538	1.77
647.724	1.77
647.91	1.74
648.096	1.75
648.282	1.81
648.468	1.71
648.654	1.78
648.84	1.73
649.026	1.71
649.212	1.68
649.397	1.65
649.583	1.64
649.769	1.71
649.955	1.66
650.141	1.65
650.327	1.68
650.513	1.57
650.698	1.69
650.884	1.49
651.07	1.68
651.256	1.63
651.442	1.6
651.627	1.57
651.813	1.67
651.999	1.59
652.184	1.59
652.37	1.63
652.556	1.55
652.741	1.58
652.927	1.46
653.113	1.54
653.298	1.56
653.484	1.49
653.669	1.48
653.855	1.51
654.04	1.54
654.226	1.52
654.412	1.45
654.597	1.42
654.782	1.48
654.968	1.54
655.153	1.48
655.339	1.47
655.524	1.45
655.71	1.46
655.895	1.46
656.08	1.39
656.266	1.48
656.451	1.43
656.636	1.36
656.822	1.43
657.007	1.39
657.192	1.41
657.378	1.36
657.563	1.36
657.748	1.39
657.933	1.39
658.118	1.35
658.304	1.34
658.489	1.43
658.674	1.38
658.859	1.33
659.044	1.34
659.229	1.37
659.414	1.3
659.599	1.3
659.785	1.29
659.97	1.36
660.155	1.33
660.34	1.35
660.525	1.26
660.71	1.27
660.895	1.32
661.08	1.25
661.264	1.24
661.449	1.32
661.634	1.27
661.819	1.31
662.004	1.29
662.189	1.17
662.374	1.23
662.559	1.19
662.743	1.16
662.928	1.19
663.113	1.17
663.298	1.2
663.483	1.18
663.667	1.2
663.852	1.16
664.037	1.23
664.221	1.13
664.406	1.22
664.591	1.21
664.775	1.21
664.96	1.13
665.145	1.13
665.329	1.19
665.514	1.15
665.698	1.1
665.883	1.05
666.068	1.18
666.252	1.16
666.437	1.09
666.621	1.09
666.806	1.14
666.99	1.1
667.174	1.1
667.359	1.17
667.543	1.03
667.728	1.09
667.912	0.96
668.096	1.11
668.281	1.06
668.465	1.07
668.649	1.06
668.834	1.03
669.018	1.12
669.202	1.03
669.387	0.98
669.571	1.12
669.755	1
669.939	1.01
670.124	1.01
670.308	1.09
670.492	1.06
670.676	1.03
670.86	0.97
671.044	0.94
671.228	1.04
671.413	0.96
671.597	0.96
671.781	0.92
671.965	1.04
672.149	0.95
672.333	0.97
672.517	0.94
672.701	1.01
672.885	0.92
673.069	0.88
673.253	0.95
673.437	0.98
673.621	0.9
673.804	0.94
673.988	0.94
674.172	0.87
674.356	0.86
674.54	0.89
674.724	1.01
674.908	0.92
675.091	0.95
675.275	0.92
675.459	0.96
675.643	0.85
675.826	0.89
676.01	0.88
676.194	0.89
676.377	0.91
676.561	0.88
676.745	0.86
676.928	0.89
677.112	0.9
677.296	0.83
677.479	0.84
677.663	0.83
677.846	0.89
678.03	0.82
678.213	0.84
678.397	0.84
678.58	0.82
678.764	0.76
678.947	0.84
679.131	0.79
679.314	0.88
679.498	0.78
679.681	0.88
679.865	0.9
680.048	0.77
680.231	0.79
680.415	0.76
680.598	0.75
680.781	0.77
680.965	0.82
681.148	0.76
681.331	0.79
681.514	0.78
681.698	0.78
681.881	0.73
682.064	0.76
682.247	0.78
682.43	0.67
682.614	0.78
682.797	0.81
682.98	0.77
683.163	0.72
683.346	0.77
683.529	0.71
683.712	0.72
683.895	0.74
684.078	0.69
684.261	0.66
684.444	0.81
684.627	0.73
684.81	0.63
684.993	0.7
685.176	0.73
685.359	0.68
685.542	0.67
685.725	0.77
685.908	0.72
686.091	0.69
686.274	0.73
686.457	0.73
686.639	0.66
686.822	0.76
687.005	0.69
687.188	0.7
687.371	0.77
687.553	0.65
687.736	0.68
687.919	0.75
688.102	0.77
688.284	0.6
688.467	0.66
688.65	0.64
688.832	0.69
689.015	0.6
689.197	0.55
689.38	0.66
689.563	0.72
689.745	0.61
689.928	0.59
690.11	0.62
690.293	0.65
690.475	0.59
690.658	0.59
690.84	0.64
691.023	0.58
691.205	0.55
691.388	0.66
691.57	0.65
691.752	0.62
691.935	0.54
692.117	0.59
692.3	0.58
692.482	0.58
692.664	0.59
692.847	0.62
693.029	0.62
693.211	0.62
693.393	0.56
693.576	0.6
693.758	0.54
693.94	0.53
694.122	0.54
694.304	0.61
694.487	0.57
694.669	0.67
694.851	0.54
695.033	0.51
695.215	0.53
695.397	0.54
695.579	0.51
695.761	0.5
695.943	0.46
696.125	0.6
696.308	0.54
696.49	0.44
696.671	0.63
696.853	0.55
697.035	0.74
697.217	0.52
697.399	0.62
697.581	0.52
697.763	0.51
697.945	0.45
698.127	0.52
698.309	0.6
698.491	0.52
698.672	0.59
698.854	0.56
699.036	0.55
699.218	0.5
699.399	0.55
699.581	0.56
699.763	0.52
699.945	0.46
700.126	0.42
700.308	0.56
700.49	0.5
700.671	0.4
700.853	0.46
701.035	0.5
701.216	0.51
701.398	0.4
701.579	0.48
701.761	0.52
701.943	0.4
702.124	0.46
702.306	0.47
702.487	0.61
702.669	0.45
702.85	0.41
703.031	0.44
703.213	0.61
703.394	0.5
703.576	0.5
703.757	0.57
703.938	0.52
704.12	0.64
704.301	0.43
704.483	0.41
704.664	0.52
704.845	0.59
705.026	0.5
705.208	0.44
705.389	0.43
705.57	0.5
705.751	0.41
705.933	0.47
706.114	0.53
706.295	0.44
706.476	0.38
706.657	0.47
706.838	0.53
707.02	0.55
707.201	0.43
707.382	0.38
707.563	0.49
707.744	0.4
707.925	0.37
708.106	0.36
708.287	0.42
708.468	0.4
708.649	0.41
708.83	0.49
709.011	0.42
709.192	0.47
709.373	0.38
709.554	0.36
709.734	0.45
709.915	0.42
710.096	0.45
710.277	0.29
710.458	0.47
710.639	0.51
710.819	0.26
711	0.35
711.181	0.49
711.362	0.49
711.542	0.38
711.723	0.37
711.904	0.46
712.085	0.48
712.265	0.4
712.446	0.3
712.627	0.39
712.807	0.38
712.988	0.43
713.168	0.28
713.349	0.42
713.53	0.2
713.71	0.31
713.891	0.27
714.071	0.33
714.252	0.37
714.432	0.35
714.613	0.26
714.793	0.44
714.974	0.43
715.154	0.42
715.334	0.41
715.515	0.46
715.695	0.25
715.876	0.38
716.056	0.37
716.236	0.31
716.417	0.39
716.597	0.24
716.777	0.52
716.957	0.37
717.138	0.37
717.318	0.3
717.498	0.32
717.678	0.38
717.859	0.33
718.039	0.26
718.219	0.42
718.399	0.4
718.579	0.3
718.759	0.35
718.939	0.34
719.12	0.34
719.3	0.35
719.48	0.24
719.66	0.28
719.84	0.41
720.02	0.3
720.2	0.3
720.38	0.3
720.56	0.46
720.74	0.26
720.92	0.34
721.1	0.45
721.279	0.44
721.459	0.35
721.639	0.24
721.819	0.3
721.999	0.32
722.179	0.4
722.359	0.27
722.538	0.32
722.718	0.31
722.898	0.36
723.078	0.28
723.257	0.28
723.437	0.39
723.617	0.31
723.797	0.27
723.976	0.41
724.156	0.43
724.336	0.35
724.515	0.47
724.695	0.18
724.874	0.32
725.054	0.41
725.234	0.27
725.413	0.34
725.593	0.26
725.772	0.27
725.952	0.28
726.131	0.32
726.311	0.31
726.49	0.33
726.67	0.22
726.849	0.22
727.028	0.36
727.208	0.35
727.387	0.3
727.567	0.17
727.746	0.25
727.925	0.27
728.105	0.15
728.284	0.22
728.463	0.25
728.643	0.35
728.822	0.28
729.001	0.27
729.18	0.36
729.359	0.38
729.539	0.37
729.718	0.29
729.897	0.41
730.076	0.31
730.255	0.18
730.434	0.35
730.614	0.36
730.793	0.45
730.972	0.3
731.151	0.32
731.33	0.36
731.509	0.36
731.688	0.26
731.867	0.37
732.046	0.16
732.225	0.56
732.404	0.26
732.583	0.14
732.762	0.31
732.941	0.35
733.12	0.3
733.298	0.17
733.477	0.3
733.656	0.16
733.835	0.24
734.014	0.37
734.193	0.3
734.371	0.39
734.55	0.28
734.729	0.13
734.908	0.4
735.086	0.36
735.265	0.44
735.444	0.14
735.623	0.25
735.801	0.18
735.98	0.28
736.159	0.24
736.337	0.46
736.516	0.35
736.694	0.35
736.873	0.17
737.052	0.43
737.23	0.37
737.409	0.27
737.587	0.41
737.766	0.1
737.944	0.31
738.123	0.35
738.301	0.25
738.479	0.32
738.658	0.28
738.836	0.08
739.015	0.3
739.193	0.34
739.371	0.13
739.55	0.25
739.728	0.29
739.906	0.43
740.085	0.46
740.263	0.33
740.441	0.11
740.62	0.54
740.798	0.41
740.976	0.23
741.154	0.21
741.332	0.45
741.511	0.28
741.689	0.43
741.867	0.43
742.045	0.37
742.223	0.27
742.401	0.11
742.579	0.24
742.757	0.35
742.935	0.23
743.114	0.21
743.292	0.26
743.47	0.36
743.648	0.29
743.826	0.15
744.004	0.38
744.181	0.26
744.359	0.29
744.537	0.2
744.715	0.26
744.893	0.26
745.071	0.28
745.249	0.24
745.427	0.24
745.605	0.28
745.782	0.31
745.96	0.24
746.138	0.3
746.316	0.38
746.493	0.28
746.671	0.19
746.849	0.22
747.027	0.52
747.204	0.17
747.382	0.3
747.56	0.02
747.737	0.23
747.915	0.23
748.093	0.21
748.27	0.21
748.448	0.28
748.625	0.13
748.803	0.11
748.98	0.2
749.158	0.24
749.335	0.25
749.513	0.18
749.69	0.18
749.868	0.26
750.045	0.26
750.223	0.23
750.4	0.02
750.578	0.49
750.755	0.21
750.932	0.05
751.11	0.35
751.287	0.08
751.464	0.42
751.642	0.15
751.819	0.3
751.996	0.27
752.173	0.23
752.351	0.27
752.528	0.23
752.705	0.26
752.882	0.19
753.06	0.24
753.237	0.33
753.414	0.38
753.591	0.4
753.768	0.22
753.945	0.2
754.122	0.23
754.299	0.34
754.476	0.24
754.654	0.26
754.831	0.33
755.008	0.25
755.185	0.19
755.362	0.17
755.539	0.32
755.716	0.25
755.892	0.2
756.069	0.13
756.246	0.2
756.423	0.21
756.6	0.34
756.777	0.14
756.954	0.31
757.131	0.21
757.307	0.16
757.484	0.16
757.661	0.26
757.838	0.29
758.015	0.07
758.191	0.23
758.368	0.28
758.545	0.41
758.721	0.34
758.898	0.17
759.075	0.31
759.251	0.32
759.428	0.35
759.605	0.15
759.781	0.22
759.958	0.25
760.134	0.25
760.311	0.16
760.488	0.35
760.664	0.32
760.841	0.24
761.017	0.11
761.194	0.33
761.37	0.24
761.547	0.29
761.723	0.21
761.899	0.31
762.076	0.06
762.252	0.11
762.429	0.17
762.605	0.34
762.781	0.2
762.958	0.35
763.134	0.19
763.31	0.18
763.486	0.38
763.663	0.02
763.839	0.27
764.015	0.07
764.191	0.29
764.368	0.24
764.544	0.18
764.72	0.28
764.896	0.29
765.072	0.23
765.248	0.23
765.425	0.08
765.601	0.17
765.777	0.18
765.953	0.06
766.129	0.09
766.305	0.13
766.481	0.27
766.657	0.18
766.833	0.37
767.009	0.04
767.185	0.17
767.361	0.21
767.537	0.05
767.713	0.42
767.889	0.24
768.065	0.4
768.24	0.05
768.416	0.42
768.592	0.18
768.768	0.16
768.944	0.35
769.12	0.2
769.295	0.16
769.471	0.13
769.647	0.27
769.823	0.36
769.998	0.25
770.174	0.18
770.35	0.63
770.525	0.5
770.701	0.33
770.877	0.09
771.052	0.19
771.228	0.36
771.403	0.19
771.579	0.33
771.755	0.51
771.93	0.2
772.106	0.1
772.281	-0.11
772.457	0.26
772.632	0.33
772.808	0.16
772.983	0.03
773.159	0.1
773.334	0.5
773.509	0.22
773.685	0.18
773.86	0.65
774.036	0.45
774.211	0.28
774.386	0.12
774.562	0.23
774.737	0.39
774.912	0.06
775.087	0.27
775.263	0.31
775.438	0.27
775.613	-0.05
775.788	0.12
775.964	0.49
776.139	0.49
776.314	0.03
776.489	0.28
776.664	0.33
776.839	0.18
777.014	0.49
777.19	0.3
777.365	0.44
777.54	0.49
777.715	0.26
777.89	0.15
778.065	0.1
778.24	0.26
778.415	0.41
778.59	0.11
778.765	0.24
778.94	0.36
779.115	0.13
779.289	0.17
779.464	0.28
779.639	0.26
779.814	0.06
779.989	0.09
780.164	0.37
780.339	0.36
780.513	0.13
780.688	0.03
780.863	0.07
781.038	0.34
781.212	0.14
781.387	0.19
781.562	0.67
781.737	0.21
781.911	0.46
782.086	-0.03
782.261	0.19
782.435	0.5
782.61	0.18
782.784	0.4
782.959	0.51
783.134	0.09
783.308	0.2
783.483	0.15
783.657	0.53
783.832	0.63
784.006	-0.17
784.181	0.36
784.355	0.39
784.53	0.05
784.704	0.08
784.878	0.42
785.053	0.41
785.227	0.26
785.402	0.64
785.576	0.1
785.75	0.53
785.925	0.03
786.099	0.15
786.273	0.27
786.448	0.54
786.622	0.44
786.796	0.28
786.97	0.21
787.145	0.65
787.319	-0.13
787.493	0.21
787.667	-0.18
787.841	0.23
788.015	0.69
788.19	0.14
788.364	0.19
788.538	0.54
788.712	0.49
788.886	0.28
789.06	0.58
789.234	0.44
789.408	-0.1
789.582	-0.11
789.756	0.29
789.93	0.05
790.104	0.26
790.278	0.24
790.452	0.13
790.626	0.11
790.8	0.04
790.973	0.32
791.147	0.58
791.321	0.52
791.495	0.4
791.669	0.37
791.843	0.56
792.016	0.09
792.19	0.66
792.364	-0.01
792.538	0.93
792.711	0.55
792.885	0.1
793.059	-0.02
793.233	-0.1
793.406	0.56
793.58	0.37
793.754	0.42
793.927	0.18
794.101	0.79
794.274	0.5
794.448	0.55
794.622	0.26
794.795	0.5
794.969	0.14
795.142	0.6
795.316	0.29
795.489	0
795.663	0.87
795.836	0.46
796.009	0.21
796.183	0.8
796.356	0.34
796.53	0.75
796.703	0.01
796.876	0.94
797.05	0.03
797.223	0.28
797.396	0.31
797.57	0.49
797.743	0.72
797.916	0.19
798.09	0.38
798.263	0.8
798.436	0.5
798.609	0.21
798.782	0.33
798.956	0.61
799.129	0.44
799.302	0.14
799.475	0.14
799.648	0.08
799.821	0.1
799.994	0.47
800.167	-0.17
800.34	0.19
800.514	0.54
800.687	0.35
800.86	0.06
801.033	0.11
801.206	0.39
801.379	-0
801.551	0.62
801.724	0.69
801.897	0.67
802.07	0.26
802.243	-0.19
802.416	0.26
802.589	0.31
802.762	0.58
802.935	0.22
803.107	0.65
803.28	0.46
803.453	0.57
803.626	0.14
803.798	0.49
803.971	0.55
804.144	0.23
804.317	0.49
804.489	0.74
804.662	-0.01
804.835	0.32
805.007	0.07
805.18	0.55
805.353	0.59
805.525	0.13
805.698	0.2
805.87	0.78
806.043	0.63
806.215	-0.34
806.388	0.08
806.56	0.37
806.733	0.96
806.905	0.27
807.078	0.06
807.25	-0.13
807.423	0.53
807.595	0.36
807.768	0.2
807.94	1.04
808.112	0.76
808.285	0.32
808.457	-0.07
808.629	0.66
808.802	0.97
808.974	0.3
809.146	0.17
809.318	0.26
809.491	0.73
809.663	0.79
809.835	0.18
810.007	0.27
810.18	0.41
810.352	0.08
810.524	0.26
810.696	0.36
810.868	1.15
811.04	0.2
811.212	0.06
811.384	0.48
811.556	0.54
811.728	0.39
811.901	0.97
812.073	0.12
812.245	0.26
812.417	0.34
812.589	-0.17
812.76	0.58
812.932	0.68
813.104	0.8
813.276	0.14
813.448	0.65
813.62	0.42
813.792	0.38
813.964	0.3
814.136	0.63
814.307	0.08
814.479	0.33
814.651	-0.35
814.823	0.98
814.995	0.19
815.166	0.45
815.338	0.14
815.51	0.29
815.681	1.61
815.853	0.46
816.025	0.52
816.196	1.4
816.368	1.23
816.54	-0.08
816.711	-0.06
816.883	0.31
817.054	1.23
817.226	-0.71
817.398	0.87
817.569	0.44
817.741	0.48
817.912	0.59
818.084	0.76
818.255	0.38
818.426	0.01
818.598	0.18
818.769	0.34
818.941	0.5
819.112	1.01
819.283	0.67
819.455	0.2
819.626	0.24
819.798	0.78
819.969	0.55
820.14	0.39
820.311	0.42
820.483	0.44
820.654	0.7
820.825	0.55
820.996	0.2
821.168	-0.02
821.339	0.33
821.51	0.09
821.681	0.33
821.852	0.38
822.023	-0.1
822.195	-0.13
822.366	0.97
822.537	0.68
822.708	0.58
822.879	0.23
823.05	1
823.221	-0.02
823.392	0.48
823.563	0.66
823.734	0.66
823.905	0.22
824.076	0.03
824.247	-0.04
824.418	0.43
824.589	1.4
824.759	0.63
824.93	0.37
825.101	-0.12
825.272	0.96
825.443	1.34
825.614	1.25
825.784	-0.01
825.955	1.21
826.126	0.98
826.297	0.82
826.467	1.25
826.638	1.63
826.809	-0.24
826.98	0.33
827.15	0.95
827.321	0.57
827.492	0.68
827.662	0.37
827.833	1.65
828.003	1.19
828.174	-0.53
828.345	0.27
828.515	1.55
828.686	0.58
828.856	0.42
829.027	0.93
829.197	0.82
829.368	0.88
829.538	0.43
829.709	0.2
829.879	0.55
830.049	0.74
830.22	-0.06
830.39	0.5
830.56	0.85
830.731	0.38
830.901	0.26
831.072	0.58
831.242	0.87
831.412	-0.05
831.582	0.95
831.753	-0.2
831.923	1.09
832.093	0.45
832.263	0.43
832.434	-0.43
832.604	0.12
832.774	0.79
832.944	0.06
833.114	0.33
833.284	0.76
833.454	-0.38
833.624	0.02
833.795	0.49
833.965	1.86
834.135	1.04
834.305	-0.51
834.475	-0.21
834.645	0.09
834.815	0.51
834.985	0.21
835.155	0.02
835.325	0.52
835.494	0.87
835.664	0.62
835.834	0.1
836.004	0.55
836.174	0.88
836.344	0.21
836.514	-0.72
836.684	-0.25
836.853	1.05
837.023	0.59
837.193	-0.03
837.363	0.78
837.532	1.36
837.702	0.46
837.872	0.2
838.041	1.22
838.211	2.1
838.381	-0.34
838.55	0.77
838.72	2.32
838.89	1.22
839.059	0.25
839.229	-0.44
839.398	2.62
839.568	0.98
839.738	1.15
839.907	1.03
840.077	1.09
840.246	0.58
840.416	-0.5
840.585	-0.21
840.755	2.03
840.924	1.6
841.093	0.39
841.263	0.48
841.432	0.76
841.602	0.25
841.771	-0.25
841.94	1.27
842.11	2.88
842.279	2.6
842.448	0.13
842.617	0.12
842.787	1.45
842.956	-0.18
843.125	0.43
843.294	0.94
843.464	2.11
843.633	0.67
843.802	0.45
843.971	0.58
844.14	0.93
844.309	1.69
844.479	-0.31
844.648	-0.42
844.817	0.98
844.986	1.15
845.155	0.41
845.324	-0.05
845.493	-0.02
845.662	-0.07
845.831	0.72
846	1.6
846.169	0.81
846.338	1.95
846.507	0.22
846.676	1.59
846.844	0.34
847.013	1.96
847.182	0.61
847.351	0.22
847.52	0.67
847.689	1.55
847.858	0.5
848.026	0.3
848.195	1.03
848.364	0.46
848.533	0.69
848.701	-0.49
848.87	0.61
849.039	1
849.207	1.11
849.376	2.19
849.545	2.46
849.713	0.91
849.882	-0.52
850.051	0.94
850.219	1.49
850.388	1.7
850.556	-0.08
850.725	0.18
850.893	1.2
851.062	1.32
851.23	1.99
851.399	0.03
851.567	0.62
851.736	0.52
851.904	-0.77
852.073	0.83
852.241	0.87
852.41	0.65
852.578	0.76
852.746	0.37
852.915	1.62
853.083	0.76
853.251	-0.87
853.42	0.14
853.588	1.12
853.756	1.94
853.924	1.11
854.093	0.46
854.261	0.21
854.429	0.17
854.597	1.54
854.765	0.15
854.934	1.03
855.102	2.26
855.27	1.83
855.438	2.45
855.606	2.05
855.774	2.85
855.942	-0.66
856.11	-0.57
856.278	1.12
856.446	1.69
856.614	1.15
856.782	0.11
856.95	2.07
857.118	1.44
857.286	0.43
857.454	0.25
857.622	2.93
857.79	1.11
857.958	0.03
858.126	0.11
858.294	-1.8
858.462	1.25
858.629	0.2
858.797	0.65
858.965	0.88
859.133	0.04
859.301	0.97
859.468	2.02
859.636	0.2
859.804	3.12
859.971	2.07
860.139	-0.66
860.307	1.72
860.474	1.59
860.642	0.49
860.81	0.8
860.977	1.1
861.145	2.42
861.313	0.26
861.48	0.29
861.648	1.78
861.815	0.64
861.983	-1.26
862.15	-0.27
862.318	1.59
862.485	1.99
862.653	0.54
862.82	-0.57
862.988	3.2
863.155	1.98
863.322	-0.39
863.49	0.42
863.657	0.38
863.824	3.24
863.992	2.37
864.159	1.6
864.326	2.23
864.494	-1.09
864.661	3.34
864.828	-0.03
864.996	2.62
865.163	4.33
865.33	-0.34
865.497	-1.22
865.664	-0.59
865.832	-1.42
865.999	1.52
866.166	0.99
866.333	0.43
866.5	-1.23
866.667	1.43
866.834	1.05
867.001	2.31
867.168	-1.44
867.335	1.05
867.502	-1.04
867.669	1.54
867.836	3.54
868.003	0.09
868.17	3.15
868.337	3.54
868.504	5.3
868.671	-1.68
868.838	-0.49
869.005	3.14
869.172	1.6
869.339	1.99
869.505	2.1
869.672	-0.19
869.839	3.98
870.006	0.88
870.173	-0.65
870.339	2.89
870.506	4.71
870.673	0.95
870.84	2
871.006	1.84
871.173	1.72
871.34	1.12
871.506	1.2
871.673	2.29
871.839	-1.68
872.006	1.75
872.173	0.44
872.339	0.13
872.506	2.52
872.672	0.5
872.839	1.28
873.005	3.13
873.172	3.62
873.338	1.9
873.505	2.06
873.671	3.37
873.838	3.05
874.004	-1.31
874.171	-0.7
874.337	0.82
874.503	3.66
874.67	1.53
874.836	0.85
875.002	2.83
875.169	1.88
875.335	0.87
875.501	1.05
875.668	4.21
875.834	0.94
876	1.42
876.166	3.97
876.332	2.26
876.499	4.84
876.665	0.09
876.831	2.56
876.997	5.31
877.163	2.83
877.329	0.37
877.495	1.34
877.662	2.55
877.828	2.23
877.994	2.15
878.16	-2.24
878.326	1.16
878.492	0.85
878.658	0.48
878.824	1.04
878.99	2.6
879.156	0.65
879.322	2.76
879.487	-0.78
879.653	0.28
879.819	-0.52
879.985	1.3
880.151	2.67
880.317	2.95
880.483	2.33
880.648	2
880.814	-1.83
880.98	1.11
881.146	-1.69
881.312	1.31
881.477	1.97
881.643	0.09
881.809	2.13
881.974	4.74
882.14	-1.95
882.306	0.04
882.471	2.45
882.637	0.13
882.803	2.7
882.968	3.83
883.134	5.03
883.299	1.93
883.465	2.11
883.63	4.46
883.796	4.05
883.961	2.88
884.127	4.46
884.292	-4.14
884.458	-0.39
884.623	-0.39
