Data from Apollo_Calib_20240827__AbsoluteIrradiance__740__11-29-02-273.txt Node

Date: Wed Aug 28 11:29:02 BST 2024
User: biology
Spectrometer: FLMT08252
Trigger mode: 0
Integration Time (sec): 5.000000E-1
Scans to average: 5
Electric dark correction enabled: true
Nonlinearity correction enabled: false
Boxcar width: 0
XAxis mode: Wavelengths
Number of Pixels in Spectrum: 3648
>>>>>Begin Spectral Data<<<<<
179.588	-0
179.809	-0
180.03	-0
180.251	-0
180.473	-0
180.694	0
180.915	0
181.136	-0
181.357	0
181.578	-0
181.799	-0
182.02	-0
182.241	0
182.462	-0
182.683	0
182.904	-0
183.125	-0
183.346	0
183.567	0
183.788	0
184.009	0
184.23	0
184.451	0
184.672	0
184.892	0
185.113	0
185.334	0
185.555	0
185.776	0
185.996	0
186.217	0
186.438	0
186.659	0
186.879	0
187.1	0
187.321	0
187.541	0
187.762	0
187.983	0
188.203	0
188.424	0
188.644	0
188.865	0
189.086	0
189.306	0
189.527	0
189.747	0
189.968	0
190.188	0
190.409	0
190.629	0
190.849	0
191.07	0
191.29	0
191.511	0
191.731	0
191.951	0
192.172	0
192.392	0
192.612	0
192.833	0
193.053	0
193.273	0
193.493	0
193.714	0
193.934	0
194.154	0
194.374	0
194.594	0
194.815	0
195.035	0
195.255	0
195.475	0
195.695	0
195.915	0
196.135	0
196.355	0
196.575	0
196.795	0
197.015	0
197.235	0
197.455	0
197.675	0
197.895	0
198.115	0
198.335	0
198.555	0
198.775	0
198.995	0
199.214	0
199.434	0
199.654	0
199.874	0
200.094	2.35
200.313	1.07
200.533	0.8
200.753	0.31
200.973	1.97
201.192	2.1
201.412	0.66
201.632	0.71
201.851	2.04
202.071	0.74
202.291	0.88
202.51	0.38
202.73	1.14
202.95	1.16
203.169	0.54
203.389	0.97
203.608	1.09
203.828	0.43
204.047	0.74
204.267	1.39
204.486	0.96
204.706	0.95
204.925	0.71
205.145	0.54
205.364	1.14
205.583	1.87
205.803	0.64
206.022	0.56
206.242	0.95
206.461	1.28
206.68	0.67
206.9	0.97
207.119	1.78
207.338	1.42
207.557	0.49
207.777	0.42
207.996	0.89
208.215	1.03
208.434	0.71
208.654	0.27
208.873	0.71
209.092	1.28
209.311	0.4
209.53	0.6
209.749	0.66
209.968	0.53
210.187	0.48
210.407	0.02
210.626	0.58
210.845	0.98
211.064	0.57
211.283	0.48
211.502	0.92
211.721	0.55
211.94	0.51
212.159	0.68
212.377	0.92
212.596	1.05
212.815	0.65
213.034	0.71
213.253	0.7
213.472	0.75
213.691	0.32
213.91	-0.03
214.128	0.47
214.347	1.05
214.566	0.07
214.785	0.19
215.003	0.72
215.222	0.67
215.441	0.51
215.66	0.18
215.878	0.59
216.097	0.78
216.316	0.41
216.534	0.53
216.753	0.58
216.972	0.38
217.19	0.42
217.409	0.33
217.627	0.38
217.846	0.53
218.064	0.41
218.283	0.26
218.501	0.9
218.72	0.61
218.938	0.24
219.157	0.18
219.375	0.68
219.594	0.57
219.812	0.26
220.031	0.21
220.249	0.72
220.467	0.81
220.686	0.35
220.904	0.11
221.122	0.29
221.341	0.94
221.559	0.4
221.777	0.17
221.995	0.33
222.214	0.58
222.432	0.32
222.65	0.51
222.868	0.32
223.086	0.5
223.305	0.51
223.523	0.27
223.741	0.78
223.959	0.35
224.177	0.17
224.395	0.3
224.613	0.4
224.831	0.54
225.049	0.11
225.267	0.28
225.485	0.48
225.703	0.18
225.921	0.26
226.139	0.23
226.357	0.45
226.575	0.34
226.793	0.26
227.011	0.99
227.229	0.41
227.447	0.48
227.665	0.26
227.883	0.19
228.1	0.32
228.318	0.5
228.536	0
228.754	0.2
228.972	0.38
229.189	0.34
229.407	0.25
229.625	0.32
229.843	0.56
230.06	0.49
230.278	0.23
230.496	0.28
230.713	0.34
230.931	0.48
231.149	0.13
231.366	0.08
231.584	0.25
231.801	0.65
232.019	0.23
232.236	0.21
232.454	0.2
232.671	0.37
232.889	0.29
233.106	0.22
233.324	0.32
233.541	0.31
233.759	0.27
233.976	0.25
234.194	0.3
234.411	0.26
234.628	0.18
234.846	0.16
235.063	0.27
235.28	0.28
235.498	0.29
235.715	0.11
235.932	0.42
236.149	0.24
236.367	0.3
236.584	0.35
236.801	0.27
237.018	0.41
237.236	0.21
237.453	0.08
237.67	0.41
237.887	0.3
238.104	0.28
238.321	0.15
238.538	0.18
238.755	0.37
238.973	0.05
239.19	0.3
239.407	0.36
239.624	0.31
239.841	0.08
240.058	0.18
240.275	0.24
240.492	0.25
240.709	0.2
240.925	0.28
241.142	0.16
241.359	0.19
241.576	0.15
241.793	0.17
242.01	0.19
242.227	0.33
242.444	0.25
242.66	0.4
242.877	0.36
243.094	0.13
243.311	0.24
243.527	0.19
243.744	0.3
243.961	0.3
244.178	0.12
244.394	0.24
244.611	0.31
244.828	0.43
245.044	0.13
245.261	0.31
245.477	0.29
245.694	0.36
245.911	0.13
246.127	0.2
246.344	0.34
246.56	0.25
246.777	0.2
246.993	0.22
247.21	0.3
247.426	0.32
247.643	0.2
247.859	0.09
248.076	0.18
248.292	0.42
248.508	0.13
248.725	0.28
248.941	0.28
249.157	0.32
249.374	0.13
249.59	0.22
249.806	0.2
250.023	0.43
250.239	0.11
250.455	0.1
250.671	0.24
250.888	0.26
251.104	0.28
251.32	0.19
251.536	0.21
251.752	0.2
251.969	0.19
252.185	0.16
252.401	0.37
252.617	0.22
252.833	0.17
253.049	0.25
253.265	0.18
253.481	0.16
253.697	0.11
253.913	0.19
254.129	0.26
254.345	0.24
254.561	0.22
254.777	0.22
254.993	0.31
255.209	0.25
255.425	0.2
255.641	0.16
255.857	0.29
256.073	0.28
256.288	0.09
256.504	0.16
256.72	0.24
256.936	0.3
257.152	0.21
257.367	0.18
257.583	0.3
257.799	0.25
258.015	0.13
258.23	0.18
258.446	0.4
258.662	0.2
258.877	0.08
259.093	0.1
259.309	0.2
259.524	0.27
259.74	0.14
259.955	0.02
260.171	0.24
260.387	0.22
260.602	0.23
260.818	0.23
261.033	0.13
261.249	0.22
261.464	0.16
261.68	0.08
261.895	0.22
262.11	0.23
262.326	0.19
262.541	0.04
262.757	0.24
262.972	0.21
263.187	0.24
263.403	0.22
263.618	0.27
263.833	0.13
264.049	0.11
264.264	0.19
264.479	0.25
264.694	0.33
264.91	0.03
265.125	0.19
265.34	0.23
265.555	0.35
265.77	0.2
265.986	0.13
266.201	0.22
266.416	0.26
266.631	0.15
266.846	0.21
267.061	0.26
267.276	0.26
267.491	0.06
267.706	0.24
267.921	0.17
268.136	0.26
268.351	0.15
268.566	0.11
268.781	0.21
268.996	0.24
269.211	0.18
269.426	0.12
269.641	0.17
269.856	0.23
270.071	0.13
270.285	0.15
270.5	0.27
270.715	0.28
270.93	0.22
271.145	0.2
271.359	0.2
271.574	0.11
271.789	0.18
272.004	0.11
272.218	0.15
272.433	0.29
272.648	0.16
272.862	0.21
273.077	0.19
273.292	0.19
273.506	0.15
273.721	0.17
273.936	0.25
274.15	0.27
274.365	0.14
274.579	0.21
274.794	0.21
275.008	0.18
275.223	0.1
275.437	0.19
275.652	0.25
275.866	0.21
276.081	0.19
276.295	0.22
276.509	0.16
276.724	0.15
276.938	0.1
277.153	0.17
277.367	0.24
277.581	0.15
277.796	0.14
278.01	0.11
278.224	0.25
278.438	0.32
278.653	0.06
278.867	0.16
279.081	0.02
279.295	0.16
279.51	0.17
279.724	0.07
279.938	0.22
280.152	0.14
280.366	0.12
280.58	0.19
280.794	0.29
281.008	0.24
281.222	0.19
281.437	0.29
281.651	0.18
281.865	0.24
282.079	0.15
282.293	0.05
282.507	0.09
282.721	0.12
282.935	0.2
283.148	0.1
283.362	0.1
283.576	0.1
283.79	0.15
284.004	0.15
284.218	0.29
284.432	0.1
284.646	0.15
284.859	0.15
285.073	0.11
285.287	0.23
285.501	0.15
285.714	0.08
285.928	0.14
286.142	0.16
286.356	0.1
286.569	0.13
286.783	0.26
286.997	0.17
287.21	0.17
287.424	0.13
287.637	0.1
287.851	0.13
288.065	0.18
288.278	0.14
288.492	0.16
288.705	0.11
288.919	0.2
289.132	0.05
289.346	0.17
289.559	0.08
289.773	0.07
289.986	0.12
290.2	0.13
290.413	0.22
290.626	0.12
290.84	0.11
291.053	0.14
291.267	0.22
291.48	0.16
291.693	0.15
291.906	0.12
292.12	0.15
292.333	0.13
292.546	0.2
292.76	0.22
292.973	0.16
293.186	0.16
293.399	0.11
293.612	0.24
293.826	0.1
294.039	0.16
294.252	0.11
294.465	0.16
294.678	0.21
294.891	0.1
295.104	0.09
295.317	0.11
295.53	0.13
295.743	0.15
295.956	0.13
296.169	0.21
296.382	0.14
296.595	0.11
296.808	0.07
297.021	0.17
297.234	0.23
297.447	0.13
297.66	0.14
297.873	0.17
298.086	0.17
298.299	0.07
298.511	0.08
298.724	0.13
298.937	0.11
299.15	0.1
299.363	0.1
299.575	0.15
299.788	0.16
300.001	0.1
300.213	0.09
300.426	0.15
300.639	0.09
300.852	0.09
301.064	0.16
301.277	0.25
301.489	0.18
301.702	0.19
301.915	0.15
302.127	0.15
302.34	0.18
302.552	0.2
302.765	0.12
302.977	0.2
303.19	0.1
303.402	0.15
303.615	0.1
303.827	0.11
304.04	0.13
304.252	0.19
304.464	0.13
304.677	0.25
304.889	0.2
305.102	0.12
305.314	0.14
305.526	0.2
305.739	0.19
305.951	0.1
306.163	0.14
306.375	0.2
306.588	0.14
306.8	0.12
307.012	0.09
307.224	0.15
307.436	0.2
307.649	0.06
307.861	0.16
308.073	0.18
308.285	0.14
308.497	0.1
308.709	0.06
308.921	0.16
309.133	0.2
309.346	0.11
309.558	0.12
309.77	0.14
309.982	0.23
310.194	0.19
310.406	0.13
310.617	0.21
310.829	0.12
311.041	0.13
311.253	0.09
311.465	0.11
311.677	0.11
311.889	0.17
312.101	0.1
312.313	0.18
312.524	0.22
312.736	0.05
312.948	0.12
313.16	0.21
313.372	0.17
313.583	0.13
313.795	0.14
314.007	0.12
314.218	0.14
314.43	0.14
314.642	0.06
314.853	0.09
315.065	0.13
315.277	0.14
315.488	0.17
315.7	0.18
315.912	0.16
316.123	0.13
316.335	0.11
316.546	0.25
316.758	0.13
316.969	0.11
317.181	0.13
317.392	0.14
317.604	0.2
317.815	0.09
318.026	0.13
318.238	0.13
318.449	0.19
318.661	0.05
318.872	0.06
319.083	0.13
319.295	0.14
319.506	0.09
319.717	0.15
319.929	0.15
320.14	0.14
320.351	0.14
320.562	0.1
320.774	0.15
320.985	0.17
321.196	0.08
321.407	0.04
321.618	0.15
321.829	0.16
322.041	0.15
322.252	0.13
322.463	0.17
322.674	0.16
322.885	0.04
323.096	0.12
323.307	0.15
323.518	0.11
323.729	0.08
323.94	0.09
324.151	0.12
324.362	0.12
324.573	0.12
324.784	0.1
324.995	0.2
325.206	0.16
325.417	0.13
325.628	0.11
325.838	0.14
326.049	0.14
326.26	0.15
326.471	0.11
326.682	0.16
326.892	0.14
327.103	0.05
327.314	0.1
327.525	0.19
327.735	0.15
327.946	0.14
328.157	0.09
328.368	0.18
328.578	0.13
328.789	0.16
328.999	0.12
329.21	0.12
329.421	0.14
329.631	0.1
329.842	0.08
330.052	0.17
330.263	0.16
330.473	0.14
330.684	0.12
330.894	0.15
331.105	0.16
331.315	0.18
331.526	0.1
331.736	0.21
331.947	0.18
332.157	0.16
332.367	0.07
332.578	0.17
332.788	0.2
332.999	0.16
333.209	0.16
333.419	0.06
333.629	0.16
333.84	0.12
334.05	0.12
334.26	0.22
334.47	0.12
334.681	0.2
334.891	0.1
335.101	0.22
335.311	0.22
335.521	0.12
335.732	0.09
335.942	0.22
336.152	0.17
336.362	0.23
336.572	0.16
336.782	0.15
336.992	0.08
337.202	0.15
337.412	0.11
337.622	0.14
337.832	0.09
338.042	0.16
338.252	0.08
338.462	0.13
338.672	0.17
338.882	0.11
339.092	0.13
339.302	0.22
339.511	0.16
339.721	0.1
339.931	0.06
340.141	0.21
340.351	0.2
340.561	0.17
340.77	0.12
340.98	0.14
341.19	0.18
341.4	0.1
341.609	0.05
341.819	0.1
342.029	0.03
342.238	0.14
342.448	0.09
342.658	0.18
342.867	0.14
343.077	0.13
343.286	0.12
343.496	0.17
343.706	0.2
343.915	0.11
344.125	0.15
344.334	0.15
344.544	0.06
344.753	0.11
344.963	0.13
345.172	0.11
345.381	0.12
345.591	0.09
345.8	0.16
346.01	0.17
346.219	0.18
346.428	0.01
346.638	0.12
346.847	0.13
347.056	0.18
347.266	0.13
347.475	0.14
347.684	0.17
347.893	0.14
348.103	0.13
348.312	0.12
348.521	0.14
348.73	0.15
348.94	0.15
349.149	0.09
349.358	0.13
349.567	0.1
349.776	0.07
349.985	0.09
350.194	0.15
350.403	0.18
350.612	0.07
350.821	0.1
351.03	0.14
351.239	0.11
351.448	0.13
351.657	0.07
351.866	0.19
352.075	0.14
352.284	0.18
352.493	0.08
352.702	0.22
352.911	0.18
353.12	0.14
353.329	0.1
353.538	0.18
353.746	0.17
353.955	0.1
354.164	0.15
354.373	0.11
354.582	0.15
354.79	0.14
354.999	0.18
355.208	0.17
355.416	0.25
355.625	0.07
355.834	0.1
356.042	0.16
356.251	0.11
356.46	0.11
356.668	0.14
356.877	0.22
357.085	0.17
357.294	0.04
357.503	0.1
357.711	0.13
357.92	0.28
358.128	0.14
358.337	0.11
358.545	0.18
358.754	0.13
358.962	0.2
359.17	0.09
359.379	0.18
359.587	0.18
359.796	0.13
360.004	0.16
360.212	0.15
360.421	0.17
360.629	0.13
360.837	0.08
361.046	0.17
361.254	0.23
361.462	0.12
361.67	0.13
361.879	0.14
362.087	0.17
362.295	0.17
362.503	0.13
362.711	0.06
362.92	0.1
363.128	0.07
363.336	0.1
363.544	0.06
363.752	0.12
363.96	0.11
364.168	0.16
364.376	0.15
364.584	0.13
364.792	0.16
365	0.17
365.208	0.15
365.416	0.15
365.624	0.16
365.832	0.11
366.04	0.18
366.248	0.14
366.456	0.16
366.664	0.13
366.872	0.14
367.079	0.13
367.287	0.13
367.495	0.14
367.703	0.1
367.911	0.07
368.118	0.12
368.326	0.13
368.534	0.11
368.742	0.19
368.949	0.09
369.157	0.1
369.365	0.18
369.572	0.17
369.78	0.15
369.988	0.15
370.195	0.16
370.403	0.19
370.61	0.1
370.818	0.15
371.026	0.23
371.233	0.12
371.441	0.17
371.648	0.14
371.856	0.14
372.063	0.15
372.271	0.07
372.478	0.11
372.685	0.12
372.893	0.21
373.1	0.16
373.308	0.1
373.515	0.18
373.722	0.17
373.93	0.13
374.137	0.14
374.344	0.21
374.552	0.19
374.759	0.21
374.966	0.17
375.173	0.14
375.381	0.15
375.588	0.13
375.795	0.04
376.002	0.11
376.209	0.12
376.417	0.12
376.624	0.14
376.831	0.18
377.038	0.11
377.245	0.1
377.452	0.11
377.659	0.11
377.866	0.11
378.073	0.16
378.28	0.12
378.487	0.17
378.694	0.15
378.901	0.11
379.108	0.12
379.315	0.18
379.522	0.23
379.729	0.17
379.936	0.12
380.143	0.19
380.35	0.12
380.557	0.12
380.763	0.11
380.97	0.13
381.177	0.14
381.384	0.18
381.591	0.15
381.797	0.15
382.004	0.12
382.211	0.16
382.418	0.09
382.624	0.19
382.831	0.17
383.038	0.14
383.244	0.11
383.451	0.14
383.658	0.18
383.864	0.1
384.071	0.11
384.277	0.21
384.484	0.14
384.69	0.14
384.897	0.12
385.103	0.15
385.31	0.12
385.516	0.14
385.723	0.15
385.929	0.16
386.136	0.15
386.342	0.18
386.549	0.14
386.755	0.21
386.961	0.15
387.168	0.12
387.374	0.17
387.58	0.17
387.787	0.17
387.993	0.17
388.199	0.12
388.406	0.08
388.612	0.16
388.818	0.14
389.024	0.13
389.231	0.17
389.437	0.22
389.643	0.19
389.849	0.15
390.055	0.17
390.261	0.14
390.467	0.21
390.674	0.12
390.88	0.15
391.086	0.18
391.292	0.18
391.498	0.19
391.704	0.17
391.91	0.13
392.116	0.12
392.322	0.05
392.528	0.19
392.734	0.15
392.94	0.17
393.146	0.11
393.352	0.18
393.557	0.17
393.763	0.15
393.969	0.19
394.175	0.17
394.381	0.18
394.587	0.13
394.792	0.14
394.998	0.18
395.204	0.2
395.41	0.16
395.615	0.23
395.821	0.18
396.027	0.18
396.233	0.16
396.438	0.18
396.644	0.17
396.85	0.23
397.055	0.19
397.261	0.15
397.466	0.3
397.672	0.19
397.878	0.24
398.083	0.2
398.289	0.16
398.494	0.21
398.7	0.22
398.905	0.09
399.111	0.27
399.316	0.11
399.522	0.19
399.727	0.13
399.932	0.15
400.138	0.14
400.343	0.23
400.549	0.18
400.754	0.18
400.959	0.19
401.165	0.17
401.37	0.24
401.575	0.11
401.78	0.16
401.986	0.14
402.191	0.15
402.396	0.19
402.601	0.23
402.807	0.19
403.012	0.19
403.217	0.24
403.422	0.19
403.627	0.2
403.832	0.15
404.037	0.24
404.243	0.23
404.448	0.16
404.653	0.21
404.858	0.22
405.063	0.28
405.268	0.17
405.473	0.2
405.678	0.19
405.883	0.39
406.088	0.28
406.293	0.16
406.498	0.23
406.703	0.25
406.907	0.24
407.112	0.2
407.317	0.26
407.522	0.27
407.727	0.19
407.932	0.27
408.136	0.39
408.341	0.27
408.546	0.27
408.751	0.28
408.956	0.28
409.16	0.34
409.365	0.34
409.57	0.3
409.774	0.31
409.979	0.29
410.184	0.33
410.388	0.31
410.593	0.38
410.798	0.37
411.002	0.34
411.207	0.36
411.411	0.38
411.616	0.37
411.82	0.4
412.025	0.48
412.229	0.4
412.434	0.49
412.638	0.47
412.843	0.38
413.047	0.45
413.252	0.4
413.456	0.48
413.66	0.54
413.865	0.51
414.069	0.56
414.273	0.53
414.478	0.49
414.682	0.52
414.886	0.6
415.091	0.54
415.295	0.54
415.499	0.67
415.703	0.62
415.908	0.69
416.112	0.61
416.316	0.72
416.52	0.71
416.724	0.76
416.929	0.73
417.133	0.94
417.337	0.81
417.541	0.82
417.745	0.83
417.949	0.96
418.153	0.96
418.357	0.94
418.561	1.14
418.765	1.03
418.969	1.15
419.173	1.13
419.377	1.13
419.581	1.29
419.785	1.24
419.989	1.22
420.193	1.28
420.397	1.4
420.601	1.46
420.804	1.52
421.008	1.49
421.212	1.59
421.416	1.6
421.62	1.51
421.823	1.59
422.027	1.71
422.231	1.65
422.435	1.65
422.638	1.7
422.842	1.79
423.046	1.68
423.249	1.92
423.453	1.94
423.657	1.97
423.86	2.06
424.064	2.1
424.268	2.19
424.471	2.19
424.675	2.31
424.878	2.32
425.082	2.4
425.285	2.57
425.489	2.44
425.692	2.52
425.896	2.56
426.099	2.68
426.303	2.74
426.506	2.76
426.71	2.83
426.913	3.09
427.116	3.01
427.32	3.09
427.523	3.09
427.726	3.3
427.93	3.21
428.133	3.43
428.336	3.51
428.54	3.59
428.743	3.69
428.946	3.83
429.149	3.82
429.353	3.86
429.556	3.77
429.759	3.92
429.962	3.96
430.165	4.05
430.368	3.91
430.571	3.91
430.775	3.95
430.978	3.86
431.181	3.94
431.384	4.05
431.587	4.04
431.79	4.26
431.993	4.26
432.196	4.35
432.399	4.52
432.602	4.66
432.805	4.55
433.008	4.98
433.211	4.79
433.414	4.99
433.616	5.03
433.819	5.02
434.022	5.05
434.225	5.23
434.428	5.19
434.631	5.44
434.833	5.23
435.036	5.49
435.239	5.63
435.442	5.59
435.645	5.62
435.847	5.7
436.05	5.9
436.253	6.02
436.455	6
436.658	5.94
436.861	6.07
437.063	6.17
437.266	6.17
437.468	6.43
437.671	6.63
437.874	6.57
438.076	6.45
438.279	6.7
438.481	6.65
438.684	7.15
438.886	6.97
439.089	7.1
439.291	7.12
439.494	7.42
439.696	7.44
439.899	7.73
440.101	8.02
440.303	8.09
440.506	8.5
440.708	8.36
440.91	8.47
441.113	8.59
441.315	8.76
441.517	8.64
441.72	8.94
441.922	8.69
442.124	8.71
442.326	8.99
442.529	9.17
442.731	9.06
442.933	9.41
443.135	9.21
443.337	9.28
443.539	9.45
443.742	9.4
443.944	9.68
444.146	9.61
444.348	9.57
444.55	9.59
444.752	9.72
444.954	9.73
445.156	9.75
445.358	9.93
445.56	10.19
445.762	9.92
445.964	10.17
446.166	10.08
446.368	10.15
446.57	10.13
446.772	9.97
446.974	9.83
447.175	10.19
447.377	9.81
447.579	10.16
447.781	9.97
447.983	9.91
448.184	9.6
448.386	9.86
448.588	9.69
448.79	9.58
448.991	9.69
449.193	9.86
449.395	9.36
449.597	9.31
449.798	9.2
450	8.89
450.202	8.87
450.403	8.88
450.605	8.89
450.806	8.67
451.008	8.56
451.21	8.48
451.411	8.2
451.613	7.79
451.814	7.92
452.016	8.03
452.217	7.44
452.419	7.39
452.62	7.36
452.821	7.22
453.023	7.12
453.224	6.85
453.426	6.66
453.627	6.28
453.828	6.38
454.03	6.38
454.231	6.27
454.432	6.27
454.634	6.14
454.835	5.92
455.036	5.82
455.238	5.6
455.439	5.53
455.64	5.29
455.841	5.12
456.042	5.31
456.244	5.02
456.445	4.94
456.646	4.79
456.847	4.66
457.048	4.64
457.249	4.68
457.45	4.65
457.651	4.19
457.852	4.18
458.054	3.96
458.255	3.92
458.456	3.96
458.657	3.94
458.858	3.69
459.058	3.68
459.259	3.68
459.46	3.47
459.661	3.49
459.862	3.65
460.063	3.39
460.264	3.4
460.465	3.3
460.666	3.29
460.866	3.12
461.067	2.97
461.268	3.01
461.469	2.95
461.67	2.89
461.87	2.8
462.071	2.88
462.272	2.8
462.473	2.75
462.673	2.81
462.874	2.81
463.075	2.8
463.275	2.69
463.476	2.78
463.676	2.73
463.877	2.7
464.078	2.67
464.278	2.69
464.479	2.69
464.679	2.61
464.88	2.61
465.08	2.49
465.281	2.42
465.481	2.28
465.682	2.22
465.882	2.29
466.083	2.21
466.283	2.17
466.483	2.16
466.684	2
466.884	1.97
467.085	1.97
467.285	2.04
467.485	1.94
467.686	1.93
467.886	1.8
468.086	1.88
468.286	1.82
468.487	1.92
468.687	1.7
468.887	1.7
469.087	1.83
469.287	1.77
469.488	1.63
469.688	1.8
469.888	1.75
470.088	1.72
470.288	1.69
470.488	1.59
470.688	1.5
470.888	1.49
471.088	1.41
471.288	1.52
471.488	1.49
471.688	1.48
471.888	1.43
472.088	1.55
472.288	1.48
472.488	1.34
472.688	1.38
472.888	1.42
473.088	1.33
473.288	1.33
473.488	1.27
473.688	1.41
473.887	1.34
474.087	1.24
474.287	1.29
474.487	1.27
474.687	1.27
474.886	1.25
475.086	1.25
475.286	1.19
475.486	1.18
475.685	1.2
475.885	1.19
476.085	1.21
476.284	1.14
476.484	1.16
476.684	1.19
476.883	1.25
477.083	1.17
477.282	1.09
477.482	1.19
477.681	1.11
477.881	1.15
478.08	1.07
478.28	1.08
478.479	1.12
478.679	1.16
478.878	1.05
479.078	1.07
479.277	1.13
479.477	1.07
479.676	1.08
479.875	1.07
480.075	1
480.274	1.09
480.473	1.1
480.673	1.08
480.872	1.1
481.071	1.08
481.271	1.09
481.47	1.06
481.669	1.07
481.868	1.04
482.067	1.02
482.267	1.01
482.466	0.98
482.665	0.99
482.864	0.99
483.063	0.95
483.262	1.08
483.461	1.1
483.661	1.12
483.86	1.08
484.059	1.08
484.258	1.06
484.457	1.04
484.656	1.04
484.855	1.1
485.054	0.95
485.253	1.02
485.452	1.02
485.651	1.08
485.849	1.06
486.048	1.05
486.247	1.01
486.446	1.06
486.645	1.05
486.844	1.07
487.043	1.05
487.241	1.1
487.44	1.09
487.639	1.1
487.838	1.12
488.037	1.12
488.235	1.18
488.434	1.15
488.633	1.04
488.831	1.21
489.03	1.19
489.229	1.15
489.427	1.19
489.626	1.23
489.825	1.23
490.023	1.2
490.222	1.18
490.42	1.22
490.619	1.26
490.817	1.24
491.016	1.28
491.214	1.34
491.413	1.26
491.611	1.28
491.81	1.26
492.008	1.29
492.207	1.37
492.405	1.32
492.604	1.29
492.802	1.35
493	1.4
493.199	1.38
493.397	1.39
493.595	1.44
493.794	1.38
493.992	1.52
494.19	1.43
494.388	1.54
494.587	1.46
494.785	1.48
494.983	1.46
495.181	1.5
495.379	1.56
495.578	1.6
495.776	1.62
495.974	1.56
496.172	1.57
496.37	1.64
496.568	1.68
496.766	1.66
496.964	1.73
497.162	1.69
497.36	1.73
497.558	1.78
497.756	1.81
497.954	1.77
498.152	1.78
498.35	1.87
498.548	1.82
498.746	1.81
498.944	1.81
499.142	1.88
499.34	1.85
499.538	1.95
499.736	1.9
499.933	1.98
500.131	1.99
500.329	2.04
500.527	2.03
500.725	2.09
500.922	2.11
501.12	2.11
501.318	2.14
501.516	2.13
501.713	2.21
501.911	2.16
502.109	2.16
502.306	2.25
502.504	2.17
502.701	2.2
502.899	2.27
503.097	2.37
503.294	2.34
503.492	2.41
503.689	2.38
503.887	2.4
504.084	2.45
504.282	2.39
504.479	2.39
504.677	2.54
504.874	2.52
505.072	2.44
505.269	2.54
505.466	2.59
505.664	2.57
505.861	2.51
506.059	2.59
506.256	2.63
506.453	2.63
506.651	2.77
506.848	2.73
507.045	2.74
507.242	2.74
507.44	2.7
507.637	2.8
507.834	2.77
508.031	2.84
508.229	2.77
508.426	2.8
508.623	2.93
508.82	2.9
509.017	2.88
509.214	2.86
509.411	2.95
509.608	2.9
509.805	3.04
510.003	2.99
510.2	3.02
510.397	3.11
510.594	3.02
510.791	3.05
510.988	3.13
511.184	3.07
511.381	3.05
511.578	3.14
511.775	3.23
511.972	3.18
512.169	3.22
512.366	3.21
512.563	3.31
512.76	3.28
512.956	3.28
513.153	3.24
513.35	3.29
513.547	3.26
513.744	3.31
513.94	3.28
514.137	3.37
514.334	3.36
514.53	3.37
514.727	3.49
514.924	3.46
515.12	3.45
515.317	3.45
515.514	3.39
515.71	3.4
515.907	3.54
516.103	3.57
516.3	3.48
516.497	3.61
516.693	3.62
516.89	3.6
517.086	3.56
517.283	3.61
517.479	3.51
517.676	3.68
517.872	3.68
518.068	3.7
518.265	3.64
518.461	3.6
518.658	3.72
518.854	3.67
519.05	3.71
519.247	3.76
519.443	3.73
519.639	3.84
519.836	3.76
520.032	3.75
520.228	3.8
520.424	3.82
520.621	3.84
520.817	3.86
521.013	3.81
521.209	3.91
521.405	3.9
521.601	3.89
521.798	3.88
521.994	3.89
522.19	3.85
522.386	3.89
522.582	3.91
522.778	4
522.974	3.94
523.17	3.93
523.366	3.89
523.562	3.96
523.758	4.01
523.954	3.88
524.15	3.95
524.346	4
524.542	4.01
524.738	3.97
524.934	4.07
525.129	4.01
525.325	3.96
525.521	4
525.717	4.14
525.913	4
526.109	4.03
526.304	4.09
526.5	4.09
526.696	4.12
526.892	4.07
527.087	4.18
527.283	4.18
527.479	4.17
527.674	4.01
527.87	4.12
528.066	4.13
528.261	4.16
528.457	4.1
528.653	4.19
528.848	4.17
529.044	4.22
529.239	4.13
529.435	4.19
529.63	4.12
529.826	4.21
530.021	4.13
530.217	4.25
530.412	4.16
530.608	4.2
530.803	4.21
530.999	4.13
531.194	4.21
531.389	4.26
531.585	4.21
531.78	4.3
531.975	4.26
532.171	4.3
532.366	4.24
532.561	4.23
532.757	4.21
532.952	4.33
533.147	4.23
533.342	4.29
533.538	4.22
533.733	4.39
533.928	4.19
534.123	4.26
534.318	4.3
534.513	4.25
534.709	4.33
534.904	4.31
535.099	4.4
535.294	4.37
535.489	4.34
535.684	4.33
535.879	4.29
536.074	4.35
536.269	4.4
536.464	4.36
536.659	4.27
536.854	4.32
537.049	4.4
537.244	4.32
537.439	4.33
537.634	4.37
537.828	4.44
538.023	4.36
538.218	4.32
538.413	4.33
538.608	4.36
538.803	4.37
538.997	4.33
539.192	4.39
539.387	4.36
539.582	4.35
539.776	4.35
539.971	4.39
540.166	4.42
540.36	4.31
540.555	4.44
540.75	4.41
540.944	4.39
541.139	4.38
541.334	4.38
541.528	4.42
541.723	4.42
541.917	4.4
542.112	4.35
542.306	4.33
542.501	4.34
542.695	4.36
542.89	4.34
543.084	4.41
543.279	4.45
543.473	4.41
543.668	4.45
543.862	4.32
544.056	4.35
544.251	4.42
544.445	4.45
544.64	4.47
544.834	4.25
545.028	4.27
545.222	4.47
545.417	4.54
545.611	4.5
545.805	4.42
546	4.31
546.194	4.45
546.388	4.42
546.582	4.39
546.776	4.4
546.97	4.42
547.165	4.42
547.359	4.38
547.553	4.38
547.747	4.39
547.941	4.57
548.135	4.43
548.329	4.43
548.523	4.41
548.717	4.39
548.911	4.39
549.105	4.37
549.299	4.44
549.493	4.4
549.687	4.39
549.881	4.47
550.075	4.44
550.269	4.32
550.463	4.49
550.657	4.44
550.85	4.42
551.044	4.4
551.238	4.45
551.432	4.42
551.626	4.45
551.82	4.47
552.013	4.37
552.207	4.46
552.401	4.49
552.594	4.44
552.788	4.41
552.982	4.43
553.176	4.38
553.369	4.53
553.563	4.53
553.756	4.45
553.95	4.45
554.144	4.47
554.337	4.51
554.531	4.36
554.724	4.47
554.918	4.42
555.111	4.46
555.305	4.46
555.498	4.43
555.692	4.47
555.885	4.47
556.079	4.42
556.272	4.43
556.466	4.46
556.659	4.44
556.852	4.48
557.046	4.39
557.239	4.43
557.432	4.39
557.626	4.46
557.819	4.44
558.012	4.47
558.206	4.47
558.399	4.47
558.592	4.42
558.785	4.39
558.979	4.47
559.172	4.43
559.365	4.41
559.558	4.4
559.751	4.39
559.944	4.51
560.138	4.44
560.331	4.44
560.524	4.44
560.717	4.34
560.91	4.45
561.103	4.48
561.296	4.34
561.489	4.47
561.682	4.45
561.875	4.48
562.068	4.5
562.261	4.42
562.454	4.51
562.647	4.38
562.84	4.46
563.032	4.45
563.225	4.39
563.418	4.43
563.611	4.46
563.804	4.45
563.997	4.34
564.19	4.34
564.382	4.47
564.575	4.46
564.768	4.42
564.961	4.5
565.153	4.38
565.346	4.39
565.539	4.5
565.731	4.41
565.924	4.54
566.117	4.5
566.309	4.49
566.502	4.41
566.695	4.38
566.887	4.45
567.08	4.44
567.272	4.45
567.465	4.41
567.657	4.47
567.85	4.4
568.042	4.45
568.235	4.45
568.427	4.38
568.62	4.44
568.812	4.45
569.005	4.51
569.197	4.37
569.389	4.41
569.582	4.44
569.774	4.39
569.966	4.32
570.159	4.42
570.351	4.38
570.543	4.39
570.736	4.42
570.928	4.31
571.12	4.44
571.312	4.35
571.505	4.3
571.697	4.44
571.889	4.4
572.081	4.41
572.273	4.32
572.465	4.42
572.658	4.38
572.85	4.4
573.042	4.37
573.234	4.33
573.426	4.41
573.618	4.31
573.81	4.38
574.002	4.33
574.194	4.35
574.386	4.34
574.578	4.29
574.77	4.33
574.962	4.39
575.154	4.3
575.346	4.31
575.538	4.27
575.729	4.29
575.921	4.31
576.113	4.39
576.305	4.34
576.497	4.38
576.689	4.27
576.88	4.22
577.072	4.37
577.264	4.3
577.456	4.38
577.647	4.26
577.839	4.4
578.031	4.3
578.223	4.27
578.414	4.2
578.606	4.32
578.798	4.29
578.989	4.34
579.181	4.38
579.372	4.29
579.564	4.27
579.755	4.27
579.947	4.23
580.139	4.39
580.33	4.19
580.522	4.25
580.713	4.24
580.905	4.21
581.096	4.36
581.287	4.27
581.479	4.23
581.67	4.29
581.862	4.24
582.053	4.24
582.244	4.18
582.436	4.29
582.627	4.21
582.818	4.22
583.01	4.17
583.201	4.25
583.392	4.24
583.583	4.19
583.775	4.11
583.966	4.14
584.157	4.18
584.348	4.22
584.54	4.12
584.731	4.18
584.922	4.12
585.113	4.09
585.304	4.19
585.495	4.21
585.686	4.23
585.877	4.2
586.068	4.24
586.259	4.19
586.45	4.15
586.641	4.11
586.832	4.16
587.023	4.11
587.214	4.12
587.405	4.18
587.596	4.03
587.787	4.1
587.978	4.17
588.169	4.1
588.36	4.08
588.551	4.03
588.742	4.09
588.932	4.13
589.123	3.93
589.314	4.11
589.505	4.06
589.696	4.05
589.886	4.03
590.077	4.03
590.268	4.02
590.458	3.95
590.649	3.92
590.84	4.04
591.03	4.01
591.221	3.95
591.412	3.93
591.602	4.1
591.793	3.99
591.984	3.95
592.174	3.97
592.365	4.08
592.555	3.87
592.746	3.92
592.936	3.96
593.127	3.93
593.317	3.97
593.508	3.95
593.698	3.89
593.889	3.92
594.079	3.9
594.269	3.88
594.46	3.84
594.65	3.85
594.84	3.85
595.031	3.83
595.221	3.82
595.411	3.85
595.602	3.9
595.792	3.83
595.982	3.77
596.172	3.92
596.363	3.79
596.553	3.83
596.743	3.86
596.933	3.8
597.123	3.78
597.314	3.75
597.504	3.72
597.694	3.77
597.884	3.78
598.074	3.78
598.264	3.71
598.454	3.78
598.644	3.72
598.834	3.76
599.024	3.57
599.214	3.66
599.404	3.75
599.594	3.71
599.784	3.66
599.974	3.72
600.164	3.71
600.354	3.67
600.544	3.54
600.734	3.68
600.924	3.65
601.114	3.59
601.303	3.6
601.493	3.66
601.683	3.62
601.873	3.61
602.063	3.57
602.252	3.62
602.442	3.5
602.632	3.53
602.821	3.5
603.011	3.6
603.201	3.57
603.39	3.5
603.58	3.45
603.77	3.59
603.959	3.55
604.149	3.5
604.339	3.5
604.528	3.56
604.718	3.52
604.907	3.48
605.097	3.43
605.286	3.44
605.476	3.43
605.665	3.43
605.855	3.35
606.044	3.49
606.234	3.43
606.423	3.41
606.612	3.32
606.802	3.39
606.991	3.44
607.181	3.47
607.37	3.36
607.559	3.26
607.749	3.34
607.938	3.29
608.127	3.39
608.316	3.34
608.506	3.29
608.695	3.34
608.884	3.26
609.073	3.3
609.263	3.34
609.452	3.33
609.641	3.26
609.83	3.17
610.019	3.3
610.208	3.2
610.397	3.22
610.586	3.21
610.775	3.15
610.965	3.19
611.154	3.15
611.343	3.22
611.532	3.18
611.721	3.26
611.91	3.14
612.099	3.17
612.287	3.15
612.476	3.07
612.665	3.2
612.854	3.07
613.043	3.1
613.232	3.08
613.421	3.02
613.61	3.09
613.798	3.08
613.987	3.09
614.176	3.02
614.365	3.07
614.554	3.08
614.742	3.04
614.931	2.93
615.12	3.06
615.309	2.97
615.497	2.98
615.686	2.98
615.875	3.01
616.063	2.93
616.252	2.9
616.44	2.92
616.629	2.94
616.818	2.93
617.006	2.96
617.195	2.84
617.383	2.89
617.572	2.81
617.76	2.85
617.949	2.9
618.137	2.95
618.326	2.88
618.514	2.7
618.703	2.76
618.891	2.85
619.079	2.75
619.268	2.8
619.456	2.74
619.644	2.83
619.833	2.73
620.021	2.76
620.209	2.69
620.398	2.8
620.586	2.66
620.774	2.74
620.962	2.72
621.151	2.77
621.339	2.65
621.527	2.61
621.715	2.6
621.903	2.62
622.092	2.6
622.28	2.64
622.468	2.57
622.656	2.64
622.844	2.61
623.032	2.61
623.22	2.57
623.408	2.64
623.596	2.6
623.784	2.66
623.972	2.49
624.16	2.57
624.348	2.59
624.536	2.59
624.724	2.5
624.912	2.51
625.1	2.49
625.288	2.55
625.476	2.44
625.664	2.56
625.851	2.47
626.039	2.5
626.227	2.46
626.415	2.44
626.603	2.4
626.79	2.47
626.978	2.4
627.166	2.43
627.354	2.38
627.541	2.37
627.729	2.28
627.917	2.45
628.104	2.37
628.292	2.39
628.48	2.35
628.667	2.38
628.855	2.37
629.042	2.41
629.23	2.3
629.418	2.31
629.605	2.34
629.793	2.22
629.98	2.23
630.168	2.26
630.355	2.32
630.543	2.27
630.73	2.2
630.917	2.25
631.105	2.35
631.292	2.26
631.48	2.21
631.667	2.28
631.854	2.22
632.042	2.21
632.229	2.09
632.416	2.2
632.604	2.21
632.791	2.1
632.978	2.19
633.165	2.17
633.353	2.21
633.54	2.24
633.727	2.08
633.914	2.11
634.101	2.07
634.289	2.12
634.476	2.03
634.663	2.07
634.85	2.1
635.037	2
635.224	1.95
635.411	2.14
635.598	2.04
635.785	1.98
635.972	1.99
636.159	2.07
636.346	1.98
636.533	2.01
636.72	2.03
636.907	1.99
637.094	1.96
637.281	1.91
637.468	1.98
637.655	1.93
637.842	1.94
638.029	1.91
638.215	1.98
638.402	1.94
638.589	1.84
638.776	1.9
638.963	1.89
639.149	1.93
639.336	1.96
639.523	1.85
639.709	1.89
639.896	1.87
640.083	1.85
640.27	1.89
640.456	1.84
640.643	1.81
640.829	1.71
641.016	1.79
641.203	1.72
641.389	1.81
641.576	1.79
641.762	1.78
641.949	1.76
642.135	1.77
642.322	1.74
642.508	1.68
642.695	1.71
642.881	1.71
643.068	1.69
643.254	1.72
643.441	1.73
643.627	1.74
643.813	1.65
644	1.73
644.186	1.57
644.372	1.68
644.559	1.67
644.745	1.64
644.931	1.59
645.118	1.64
645.304	1.66
645.49	1.62
645.676	1.58
645.862	1.63
646.049	1.66
646.235	1.58
646.421	1.73
646.607	1.63
646.793	1.56
646.979	1.56
647.165	1.6
647.352	1.54
647.538	1.55
647.724	1.58
647.91	1.53
648.096	1.59
648.282	1.57
648.468	1.48
648.654	1.53
648.84	1.52
649.026	1.46
649.212	1.48
649.397	1.42
649.583	1.41
649.769	1.51
649.955	1.41
650.141	1.49
650.327	1.51
650.513	1.39
650.698	1.46
650.884	1.32
651.07	1.46
651.256	1.44
651.442	1.44
651.627	1.35
651.813	1.47
651.999	1.4
652.184	1.39
652.37	1.38
652.556	1.38
652.741	1.42
652.927	1.25
653.113	1.35
653.298	1.34
653.484	1.3
653.669	1.28
653.855	1.29
654.04	1.36
654.226	1.3
654.412	1.33
654.597	1.21
654.782	1.29
654.968	1.32
655.153	1.29
655.339	1.28
655.524	1.2
655.71	1.3
655.895	1.25
656.08	1.23
656.266	1.29
656.451	1.23
656.636	1.21
656.822	1.22
657.007	1.23
657.192	1.21
657.378	1.16
657.563	1.2
657.748	1.19
657.933	1.22
658.118	1.14
658.304	1.16
658.489	1.23
658.674	1.12
658.859	1.15
659.044	1.19
659.229	1.17
659.414	1.15
659.599	1.16
659.785	1.06
659.97	1.15
660.155	1.12
660.34	1.17
660.525	1.11
660.71	1.07
660.895	1.14
661.08	1.06
661.264	1.04
661.449	1.15
661.634	1.09
661.819	1.14
662.004	1.1
662.189	1.04
662.374	1.03
662.559	1
662.743	1
662.928	1.11
663.113	1.03
663.298	0.95
663.483	1.02
663.667	1.02
663.852	0.97
664.037	1.04
664.221	1.01
664.406	1.05
664.591	1.05
664.775	1.02
664.96	1
665.145	1
665.329	1.05
665.514	0.98
665.698	0.96
665.883	0.93
666.068	1.05
666.252	0.96
666.437	0.94
666.621	0.92
666.806	0.94
666.99	0.92
667.174	0.94
667.359	1.02
667.543	0.94
667.728	0.94
667.912	0.85
668.096	0.93
668.281	0.91
668.465	0.9
668.649	0.94
668.834	0.85
669.018	0.91
669.202	0.91
669.387	0.89
669.571	0.9
669.755	0.88
669.939	0.9
670.124	0.87
670.308	0.93
670.492	0.93
670.676	0.92
670.86	0.85
671.044	0.82
671.228	0.93
671.413	0.83
671.597	0.79
671.781	0.81
671.965	0.88
672.149	0.83
672.333	0.85
672.517	0.84
672.701	0.88
672.885	0.77
673.069	0.74
673.253	0.84
673.437	0.79
673.621	0.78
673.804	0.82
673.988	0.81
674.172	0.74
674.356	0.74
674.54	0.81
674.724	0.83
674.908	0.72
675.091	0.81
675.275	0.79
675.459	0.86
675.643	0.74
675.826	0.78
676.01	0.72
676.194	0.78
676.377	0.8
676.561	0.8
676.745	0.74
676.928	0.8
677.112	0.78
677.296	0.69
677.479	0.7
677.663	0.72
677.846	0.78
678.03	0.76
678.213	0.73
678.397	0.75
678.58	0.69
678.764	0.69
678.947	0.64
679.131	0.68
679.314	0.77
679.498	0.68
679.681	0.74
679.865	0.72
680.048	0.67
680.231	0.67
680.415	0.63
680.598	0.67
680.781	0.67
680.965	0.64
681.148	0.74
681.331	0.63
681.514	0.71
681.698	0.63
681.881	0.7
682.064	0.7
682.247	0.65
682.43	0.58
682.614	0.67
682.797	0.72
682.98	0.67
683.163	0.58
683.346	0.63
683.529	0.59
683.712	0.6
683.895	0.67
684.078	0.56
684.261	0.6
684.444	0.71
684.627	0.7
684.81	0.56
684.993	0.61
685.176	0.65
685.359	0.57
685.542	0.6
685.725	0.68
685.908	0.58
686.091	0.55
686.274	0.61
686.457	0.62
686.639	0.59
686.822	0.59
687.005	0.61
687.188	0.61
687.371	0.65
687.553	0.65
687.736	0.63
687.919	0.66
688.102	0.66
688.284	0.58
688.467	0.54
688.65	0.55
688.832	0.52
689.015	0.56
689.197	0.47
689.38	0.68
689.563	0.66
689.745	0.44
689.928	0.51
690.11	0.58
690.293	0.54
690.475	0.51
690.658	0.56
690.84	0.55
691.023	0.51
691.205	0.48
691.388	0.53
691.57	0.59
691.752	0.53
691.935	0.44
692.117	0.49
692.3	0.53
692.482	0.51
692.664	0.5
692.847	0.5
693.029	0.54
693.211	0.53
693.393	0.46
693.576	0.49
693.758	0.54
693.94	0.47
694.122	0.49
694.304	0.44
694.487	0.48
694.669	0.57
694.851	0.45
695.033	0.43
695.215	0.43
695.397	0.48
695.579	0.52
695.761	0.42
695.943	0.39
696.125	0.54
696.308	0.49
696.49	0.36
696.671	0.58
696.853	0.53
697.035	0.58
697.217	0.49
697.399	0.54
697.581	0.45
697.763	0.42
697.945	0.42
698.127	0.48
698.309	0.47
698.491	0.47
698.672	0.45
698.854	0.51
699.036	0.49
699.218	0.41
699.399	0.49
699.581	0.48
699.763	0.41
699.945	0.31
700.126	0.4
700.308	0.42
700.49	0.41
700.671	0.36
700.853	0.36
701.035	0.37
701.216	0.38
701.398	0.36
701.579	0.37
701.761	0.5
701.943	0.36
702.124	0.32
702.306	0.4
702.487	0.53
702.669	0.37
702.85	0.38
703.031	0.38
703.213	0.52
703.394	0.47
703.576	0.35
703.757	0.49
703.938	0.46
704.12	0.56
704.301	0.41
704.483	0.37
704.664	0.43
704.845	0.41
705.026	0.48
705.208	0.41
705.389	0.33
705.57	0.41
705.751	0.45
705.933	0.39
706.114	0.49
706.295	0.41
706.476	0.31
706.657	0.51
706.838	0.4
707.02	0.45
707.201	0.39
707.382	0.35
707.563	0.44
707.744	0.34
707.925	0.28
708.106	0.29
708.287	0.37
708.468	0.5
708.649	0.31
708.83	0.39
709.011	0.32
709.192	0.48
709.373	0.3
709.554	0.37
709.734	0.43
709.915	0.46
710.096	0.35
710.277	0.24
710.458	0.38
710.639	0.4
710.819	0.23
711	0.34
711.181	0.42
711.362	0.4
711.542	0.37
711.723	0.32
711.904	0.41
712.085	0.39
712.265	0.36
712.446	0.25
712.627	0.34
712.807	0.33
712.988	0.35
713.168	0.27
713.349	0.37
713.53	0.23
713.71	0.24
713.891	0.25
714.071	0.28
714.252	0.25
714.432	0.29
714.613	0.23
714.793	0.29
714.974	0.35
715.154	0.39
715.334	0.39
715.515	0.45
715.695	0.3
715.876	0.27
716.056	0.28
716.236	0.29
716.417	0.38
716.597	0.23
716.777	0.45
716.957	0.37
717.138	0.28
717.318	0.27
717.498	0.19
717.678	0.34
717.859	0.32
718.039	0.19
718.219	0.25
718.399	0.38
718.579	0.36
718.759	0.21
718.939	0.3
719.12	0.28
719.3	0.36
719.48	0.14
719.66	0.18
719.84	0.38
720.02	0.3
720.2	0.18
720.38	0.29
720.56	0.4
720.74	0.16
720.92	0.27
721.1	0.41
721.279	0.32
721.459	0.23
721.639	0.24
721.819	0.29
721.999	0.3
722.179	0.31
722.359	0.16
722.538	0.34
722.718	0.29
722.898	0.2
723.078	0.25
723.257	0.2
723.437	0.33
723.617	0.27
723.797	0.28
723.976	0.3
724.156	0.34
724.336	0.4
724.515	0.46
724.695	0.15
724.874	0.25
725.054	0.3
725.234	0.2
725.413	0.26
725.593	0.28
725.772	0.27
725.952	0.2
726.131	0.22
726.311	0.21
726.49	0.3
726.67	0.15
726.849	0.3
727.028	0.34
727.208	0.27
727.387	0.28
727.567	0.3
727.746	0.28
727.925	0.23
728.105	0.2
728.284	0.23
728.463	0.15
728.643	0.25
728.822	0.18
729.001	0.12
729.18	0.31
729.359	0.36
729.539	0.22
729.718	0.26
729.897	0.34
730.076	0.25
730.255	0.18
730.434	0.31
730.614	0.31
730.793	0.28
730.972	0.18
731.151	0.26
731.33	0.32
731.509	0.27
731.688	0.3
731.867	0.16
732.046	0.12
732.225	0.44
732.404	0.17
732.583	0.16
732.762	0.3
732.941	0.29
733.12	0.23
733.298	0.21
733.477	0.36
733.656	0.24
733.835	0.24
734.014	0.36
734.193	0.25
734.371	0.35
734.55	0.29
734.729	0.13
734.908	0.35
735.086	0.3
735.265	0.35
735.444	0.18
735.623	0.18
735.801	0.16
735.98	0.25
736.159	0.26
736.337	0.28
736.516	0.25
736.694	0.25
736.873	0.09
737.052	0.42
737.23	0.39
737.409	0.14
737.587	0.41
737.766	0.12
737.944	0.14
738.123	0.36
738.301	0.29
738.479	0.25
738.658	0.31
738.836	0
739.015	0.21
739.193	0.35
739.371	0.17
739.55	0.25
739.728	0.16
739.906	0.36
740.085	0.44
740.263	0.26
740.441	0.07
740.62	0.54
740.798	0.36
740.976	0.06
741.154	0.11
741.332	0.37
741.511	0.18
741.689	0.25
741.867	0.36
742.045	0.26
742.223	0.2
742.401	0.15
742.579	0.18
742.757	0.31
742.935	0.03
743.114	0.11
743.292	0.19
743.47	0.21
743.648	0.23
743.826	0.08
744.004	0.39
744.181	0.22
744.359	0.15
744.537	0.18
744.715	0.2
744.893	0.2
745.071	0.29
745.249	0.16
745.427	0.28
745.605	0.32
745.782	0.18
745.96	0.25
746.138	0.23
746.316	0.32
746.493	0.19
746.671	0.18
746.849	0.14
747.027	0.4
747.204	0.2
747.382	0.31
747.56	0.07
747.737	0.3
747.915	0.21
748.093	0.28
748.27	0.13
748.448	0.1
748.625	0.06
748.803	0.1
748.98	0.16
749.158	0.28
749.335	0.31
749.513	0.23
749.69	0.27
749.868	0.27
750.045	0.18
750.223	0.15
750.4	0.06
750.578	0.38
750.755	0.2
750.932	0.13
751.11	0.32
751.287	0.14
751.464	0.39
751.642	-0.03
751.819	0.15
751.996	0.24
752.173	0.13
752.351	0.05
752.528	0.23
752.705	0.16
752.882	0.18
753.06	0.18
753.237	0.28
753.414	0.35
753.591	0.3
753.768	0.27
753.945	0.13
754.122	0.11
754.299	0.35
754.476	0.15
754.654	0.22
754.831	0.31
755.008	0.38
755.185	0.17
755.362	0.04
755.539	0.27
755.716	0.14
755.892	0.2
756.069	0.18
756.246	0.19
756.423	0.1
756.6	0.38
756.777	0.21
756.954	0.29
757.131	0.18
757.307	0.11
757.484	0.07
757.661	0.24
757.838	0.2
758.015	0.06
758.191	0.24
758.368	0.2
758.545	0.38
758.721	0.23
758.898	0.1
759.075	0.25
759.251	0.35
759.428	0.24
759.605	0.04
759.781	0.17
759.958	0.29
760.134	0.24
760.311	0.03
760.488	0.4
760.664	0.36
760.841	0.19
761.017	0.06
761.194	0.18
761.37	0.31
761.547	0.21
761.723	0.17
761.899	0.3
762.076	0.09
762.252	0.04
762.429	0.15
762.605	0.37
762.781	0.1
762.958	0.21
763.134	0.12
763.31	0.19
763.486	0.26
763.663	-0.02
763.839	0.36
764.015	-0.02
764.191	0.06
764.368	0.27
764.544	0.15
764.72	0.1
764.896	0.41
765.072	0.17
765.248	0.19
765.425	0.17
765.601	0.16
765.777	0.2
765.953	-0.01
766.129	0.09
766.305	0.04
766.481	0.28
766.657	0.09
766.833	0.43
767.009	-0.02
767.185	0.17
767.361	0.18
767.537	0.06
767.713	0.28
767.889	0.08
768.065	0.24
768.24	0.03
768.416	0.3
768.592	0.1
768.768	0.22
768.944	0.33
769.12	0.19
769.295	0.15
769.471	0.2
769.647	0.2
769.823	0.36
769.998	0.12
770.174	0.12
770.35	0.56
770.525	0.41
770.701	0.37
770.877	0.11
771.052	0.16
771.228	0.33
771.403	0.2
771.579	0.31
771.755	0.5
771.93	0.13
772.106	0.06
772.281	-0.19
772.457	0.31
772.632	0.32
772.808	0.2
772.983	0.06
773.159	-0.03
773.334	0.31
773.509	0.22
773.685	0.09
773.86	0.62
774.036	0.49
774.211	0.22
774.386	0.2
774.562	0.19
774.737	0.34
774.912	0.13
775.087	0.39
775.263	0.12
775.438	0.26
775.613	0.03
775.788	0.15
775.964	0.38
776.139	0.54
776.314	-0.01
776.489	0.25
776.664	0.25
776.839	0.01
777.014	0.33
777.19	0.35
777.365	0.34
777.54	0.35
777.715	0.07
777.89	0.22
778.065	0.08
778.24	0.27
778.415	0.35
778.59	0.03
778.765	0.18
778.94	0.13
779.115	0.07
779.289	0.24
779.464	0.17
779.639	0.17
779.814	0.08
779.989	0.01
780.164	0.44
780.339	0.24
780.513	0.15
780.688	0.19
780.863	0.27
781.038	0.27
781.212	0.03
781.387	0.24
781.562	0.49
781.737	0.16
781.911	0.41
782.086	0.1
782.261	0.12
782.435	0.5
782.61	0.04
782.784	0.05
782.959	0.44
783.134	0.11
783.308	0.07
783.483	0.3
783.657	0.66
783.832	0.33
784.006	-0.11
784.181	0.24
784.355	0.33
784.53	0.01
784.704	0.09
784.878	0.51
785.053	0.4
785.227	0.45
785.402	0.46
785.576	-0.06
785.75	0.24
785.925	0.15
786.099	0.34
786.273	0.35
786.448	0.45
786.622	0.34
786.796	0.28
786.97	0.26
787.145	0.92
787.319	-0.07
787.493	-0.05
787.667	-0.08
787.841	0.04
788.015	0.47
788.19	0.29
788.364	0.31
788.538	0.51
788.712	0.29
788.886	0.27
789.06	0.44
789.234	0.33
789.408	0.05
789.582	0.21
789.756	0.23
789.93	0.14
790.104	0.24
790.278	0.13
790.452	-0.04
790.626	0.39
790.8	0.26
790.973	0.31
791.147	0.44
791.321	0.59
791.495	0.42
791.669	0.29
791.843	0.47
792.016	0.23
792.19	0.64
792.364	0.04
792.538	0.69
792.711	0.41
792.885	0.22
793.059	0.16
793.233	0.04
793.406	0.48
793.58	0.39
793.754	0.3
793.927	0.16
794.101	0.54
794.274	0.18
794.448	0.48
794.622	-0.02
794.795	0.47
794.969	-0.15
795.142	0.45
795.316	0.08
795.489	0.12
795.663	0.76
795.836	0.47
796.009	0.15
796.183	0.73
796.356	0.21
796.53	0.23
796.703	0.14
796.876	0.71
797.05	0.1
797.223	0.23
797.396	0.18
797.57	0.15
797.743	0.7
797.916	0.33
798.09	0.4
798.263	0.4
798.436	0.19
798.609	0.18
798.782	0.07
798.956	0.33
799.129	0.08
799.302	0.06
799.475	0.29
799.648	0.06
799.821	0.21
799.994	0.23
800.167	-0.19
800.34	-0.16
800.514	0.16
800.687	0.27
800.86	0.17
801.033	0.4
801.206	0.36
801.379	-0.03
801.551	0.55
801.724	0.33
801.897	0.93
802.07	0.08
802.243	-0.12
802.416	0.03
802.589	0.34
802.762	0.27
802.935	0.21
803.107	0.41
803.28	0.67
803.453	0.58
803.626	-0.04
803.798	0.17
803.971	0.27
804.144	0.35
804.317	0.39
804.489	0.66
804.662	0.23
804.835	0.39
805.007	-0.09
805.18	0.42
805.353	0.4
805.525	-0.06
805.698	0.27
805.87	0.44
806.043	0.74
806.215	-0.14
806.388	0.25
806.56	0.33
806.733	0.64
806.905	0.14
807.078	0.04
807.25	-0.01
807.423	0.52
807.595	0.57
807.768	0.51
807.94	0.7
808.112	0.66
808.285	0.36
808.457	0.38
808.629	0.09
808.802	0.7
808.974	0.4
809.146	0.28
809.318	0.23
809.491	0.48
809.663	0.44
809.835	0.18
810.007	0.43
810.18	0.11
810.352	-0.16
810.524	0
810.696	0.28
810.868	0.83
811.04	-0.03
811.212	0.51
811.384	0.53
811.556	0.3
811.728	0.2
811.901	0.95
812.073	-0.03
812.245	0.94
812.417	0.76
812.589	-0.57
812.76	0.45
812.932	0.67
813.104	0.9
813.276	0.08
813.448	0.52
813.62	0.15
813.792	0.56
813.964	0.33
814.136	0.34
814.307	0.29
814.479	0.07
814.651	0.05
814.823	1.43
814.995	0.31
815.166	0.32
815.338	0.22
815.51	-0.08
815.681	1.26
815.853	0.46
816.025	0.25
816.196	0.73
816.368	0.82
816.54	-0.04
816.711	0.33
816.883	0.53
817.054	1.15
817.226	-0.31
817.398	0.45
817.569	0.13
817.741	0.56
817.912	0.31
818.084	1.06
818.255	0.77
818.426	0.08
818.598	0.33
818.769	0.13
818.941	0.61
819.112	0.82
819.283	0.04
819.455	0.23
819.626	0.6
819.798	0.59
819.969	0.41
820.14	0.54
820.311	0.12
820.483	0.49
820.654	0.69
820.825	0.21
820.996	0.12
821.168	-0.02
821.339	0.38
821.51	-0.22
821.681	0.01
821.852	0.69
822.023	0.05
822.195	-0.36
822.366	0.65
822.537	0.65
822.708	0.33
822.879	0.03
823.05	0.78
823.221	0.12
823.392	0.4
823.563	0.67
823.734	0.5
823.905	0.06
824.076	0.4
824.247	-0.2
824.418	0.71
824.589	0.75
824.759	-0.05
824.93	0.47
825.101	-0.63
825.272	1.03
825.443	1.05
825.614	0.95
825.784	-0.31
825.955	1.2
826.126	0.92
826.297	0.52
826.467	1.16
826.638	1.45
826.809	0.07
826.98	0.5
827.15	0.47
827.321	0.2
827.492	1.19
827.662	0.18
827.833	1.44
828.003	0.51
828.174	0.37
828.345	0.01
828.515	0.96
828.686	0.64
828.856	-0.22
829.027	0.83
829.197	0.53
829.368	0.99
829.538	0.19
829.709	0.45
829.879	0.77
830.049	0.55
830.22	0.3
830.39	0.08
830.56	1.29
830.731	0.09
830.901	0.35
831.072	0
831.242	0.92
831.412	0.94
831.582	0.94
831.753	0.1
831.923	0.58
832.093	0.95
832.263	-0.13
832.434	0.01
832.604	-0.13
832.774	1.11
832.944	0.11
833.114	0.1
833.284	0.77
833.454	-0.41
833.624	-0.08
833.795	0.34
833.965	1.48
834.135	1.67
834.305	-0.34
834.475	-0.04
834.645	0.4
834.815	-0.04
834.985	-0.07
835.155	0.57
835.325	0.83
835.494	0.75
835.664	0.03
835.834	0.21
836.004	-0.06
836.174	0.74
836.344	0.01
836.514	-0.7
836.684	0.3
836.853	0.77
837.023	0.83
837.193	-0.04
837.363	0.79
837.532	1.15
837.702	0.58
837.872	-0.01
838.041	1.11
838.211	1.63
838.381	-0.04
838.55	0.8
838.72	2.52
838.89	2.41
839.059	1.1
839.229	-0.18
839.398	2.35
839.568	0.33
839.738	0.57
839.907	1.78
840.077	0.28
840.246	-0.12
840.416	0.08
840.585	0.18
840.755	1.89
840.924	1.07
841.093	0.14
841.263	0.6
841.432	0.68
841.602	-0.07
841.771	-0.18
841.94	0.46
842.11	3.23
842.279	1.98
842.448	-0.51
842.617	0.33
842.787	1.96
842.956	-0.46
843.125	0.45
843.294	1.07
843.464	2.07
843.633	1.6
843.802	-0.63
843.971	0.37
844.14	1.6
844.309	0.85
844.479	-1.14
844.648	-1.07
844.817	1.1
844.986	1.31
845.155	0.31
845.324	0.49
845.493	0.01
845.662	0.45
845.831	1.76
846	1.11
846.169	0.61
846.338	1.89
846.507	0.67
846.676	0.53
846.844	-0.02
847.013	0.77
847.182	0.84
847.351	0.04
847.52	0.74
847.689	1.16
847.858	0.84
848.026	0.54
848.195	1.04
848.364	0.8
848.533	-0.12
848.701	0.78
848.87	1.17
849.039	1.24
849.207	1.86
849.376	1.66
849.545	2.56
849.713	-0.32
849.882	0.37
850.051	0.52
850.219	0.94
850.388	2.08
850.556	-0.05
850.725	0.38
850.893	0.78
851.062	0.15
851.23	0.86
851.399	-0.65
851.567	0.35
851.736	0.03
851.904	-0.77
852.073	1.07
852.241	1.62
852.41	1.78
852.578	0.89
852.746	0.84
852.915	1.47
853.083	0.58
853.251	-0.03
853.42	-0.11
853.588	0.67
853.756	2.02
853.924	1.55
854.093	0.63
854.261	-0.11
854.429	0.17
854.597	1.2
854.765	-0.5
854.934	1.58
855.102	2.28
855.27	0.14
855.438	1.9
855.606	1.8
855.774	3.07
855.942	-0.67
856.11	-1.27
856.278	1.07
856.446	2.1
856.614	0.94
856.782	-0.22
856.95	1.81
857.118	1.46
857.286	0.84
857.454	-0.84
857.622	1.86
857.79	1.29
857.958	-0.05
858.126	0.18
858.294	-0.67
858.462	0.67
858.629	0.31
858.797	-0.57
858.965	0.53
859.133	1.41
859.301	-0.07
859.468	2.09
859.636	0.45
859.804	2.81
859.971	1.59
860.139	-0.16
860.307	1.25
860.474	1.51
860.642	-0.21
860.81	-1.06
860.977	1.41
861.145	1.01
861.313	1
861.48	-1
861.648	3.3
861.815	0.86
861.983	-0.1
862.15	0.26
862.318	2.65
862.485	1.44
862.653	-0.05
862.82	-0.6
862.988	2.21
863.155	3.36
863.322	-0.51
863.49	-0.85
863.657	-0.61
863.824	2.71
863.992	1.84
864.159	1.65
864.326	2.45
864.494	0.98
864.661	3.32
864.828	0.24
864.996	3.1
865.163	2.7
865.33	0.07
865.497	-1.44
865.664	0.1
865.832	-1.99
865.999	0.48
866.166	-0.2
866.333	0.43
866.5	-0.04
866.667	0.09
866.834	0.66
867.001	2.37
867.168	-0.71
867.335	0.61
867.502	-0.95
867.669	1.03
867.836	3.34
868.003	0.55
868.17	0.88
868.337	2.93
868.504	4.98
868.671	-0.38
868.838	0.25
869.005	0.36
869.172	2.45
869.339	1.05
869.505	-0.75
869.672	1.19
869.839	3.18
870.006	1.01
870.173	-0.61
870.339	0.93
870.506	2.59
870.673	-1.02
870.84	2.89
871.006	1.18
871.173	-0.25
871.34	2.75
871.506	-0.62
871.673	1.46
871.839	-0.7
872.006	1.74
872.173	-0.24
872.339	1.21
872.506	2.9
872.672	-0.38
872.839	-0.71
873.005	1.3
873.172	4.04
873.338	1.65
873.505	2.11
873.671	2.61
873.838	1.07
874.004	-0.61
874.171	-0.46
874.337	1.6
874.503	2.05
874.67	1.47
874.836	0.93
875.002	3.43
875.169	3.06
875.335	1.21
875.501	0.25
875.668	1.8
875.834	0.07
876	0.8
876.166	2.83
876.332	2.46
876.499	4.14
876.665	-0.54
876.831	2.08
876.997	5.11
877.163	0.9
877.329	-0.29
877.495	1.52
877.662	0.94
877.828	1.3
877.994	0.39
878.16	-0.03
878.326	1.24
878.492	2.71
878.658	-0.33
878.824	0.56
878.99	2.53
879.156	-0.43
879.322	2.97
879.487	0.68
879.653	1.27
879.819	2.44
879.985	0.52
880.151	1.96
880.317	2.3
880.483	2.54
880.648	1.85
880.814	-1.6
880.98	1.18
881.146	-1.67
881.312	-0.5
881.477	0.49
881.643	1.9
881.809	2.94
881.974	2.69
882.14	-0.56
882.306	0.62
882.471	4.49
882.637	0.55
882.803	2.51
882.968	4.64
883.134	4.32
883.299	1.27
883.465	2.37
883.63	3.04
883.796	2.91
883.961	1.53
884.127	1.96
884.292	-2.17
884.458	-2.21
884.623	-2.21
