Data from Apollo_Calib_20240827__AbsoluteIrradiance__857__13-26-02-809.txt Node

Date: Wed Aug 28 13:26:02 BST 2024
User: biology
Spectrometer: FLMT08252
Trigger mode: 0
Integration Time (sec): 5.000000E-1
Scans to average: 5
Electric dark correction enabled: true
Nonlinearity correction enabled: false
Boxcar width: 0
XAxis mode: Wavelengths
Number of Pixels in Spectrum: 3648
>>>>>Begin Spectral Data<<<<<
179.588	-0
179.809	-0
180.03	-0
180.251	-0
180.473	-0
180.694	0
180.915	0
181.136	-0
181.357	0
181.578	-0
181.799	-0
182.02	-0
182.241	0
182.462	-0
182.683	0
182.904	-0
183.125	-0
183.346	0
183.567	0
183.788	0
184.009	0
184.23	0
184.451	0
184.672	0
184.892	0
185.113	0
185.334	0
185.555	0
185.776	0
185.996	0
186.217	0
186.438	0
186.659	0
186.879	0
187.1	0
187.321	0
187.541	0
187.762	0
187.983	0
188.203	0
188.424	0
188.644	0
188.865	0
189.086	0
189.306	0
189.527	0
189.747	0
189.968	0
190.188	0
190.409	0
190.629	0
190.849	0
191.07	0
191.29	0
191.511	0
191.731	0
191.951	0
192.172	0
192.392	0
192.612	0
192.833	0
193.053	0
193.273	0
193.493	0
193.714	0
193.934	0
194.154	0
194.374	0
194.594	0
194.815	0
195.035	0
195.255	0
195.475	0
195.695	0
195.915	0
196.135	0
196.355	0
196.575	0
196.795	0
197.015	0
197.235	0
197.455	0
197.675	0
197.895	0
198.115	0
198.335	0
198.555	0
198.775	0
198.995	0
199.214	0
199.434	0
199.654	0
199.874	0
200.094	3.77
200.313	2.75
200.533	1.99
200.753	1.45
200.973	4.22
201.192	3.23
201.412	1.85
201.632	1.37
201.851	3.59
202.071	2.09
202.291	1.68
202.51	1.47
202.73	2.57
202.95	1.58
203.169	1.67
203.389	1.83
203.608	1.81
203.828	1.7
204.047	1.38
204.267	1.91
204.486	2.48
204.706	1.76
204.925	1.71
205.145	1.35
205.364	2.43
205.583	2.65
205.803	1.5
206.022	1.31
206.242	1.82
206.461	1.63
206.68	1.29
206.9	1.61
207.119	2.31
207.338	2.29
207.557	1.25
207.777	1.26
207.996	1.36
208.215	2.1
208.434	1.01
208.654	0.81
208.873	1.65
209.092	2.26
209.311	1.11
209.53	1.13
209.749	1.35
209.968	1.4
210.187	0.79
210.407	0.71
210.626	1.1
210.845	1.66
211.064	1.31
211.283	0.86
211.502	1.59
211.721	1.4
211.94	1.02
212.159	1.43
212.377	1.6
212.596	1.79
212.815	1.11
213.034	1.4
213.253	1.32
213.472	1.45
213.691	1.22
213.91	0.89
214.128	0.7
214.347	1.44
214.566	0.43
214.785	0.53
215.003	1.34
215.222	1.21
215.441	1.13
215.66	0.67
215.878	1.08
216.097	1.11
216.316	0.7
216.534	0.77
216.753	1.1
216.972	0.94
217.19	0.88
217.409	0.5
217.627	0.86
217.846	0.71
218.064	1.13
218.283	0.6
218.501	1.34
218.72	1.02
218.938	0.64
219.157	0.68
219.375	1.11
219.594	1.08
219.812	0.55
220.031	0.48
220.249	1.45
220.467	1.22
220.686	0.58
220.904	0.73
221.122	0.64
221.341	0.96
221.559	0.82
221.777	0.46
221.995	0.9
222.214	1.01
222.432	0.6
222.65	0.83
222.868	0.78
223.086	0.75
223.305	0.95
223.523	0.52
223.741	1.21
223.959	0.74
224.177	0.4
224.395	0.55
224.613	0.79
224.831	1.01
225.049	0.39
225.267	0.67
225.485	0.73
225.703	0.67
225.921	0.59
226.139	0.47
226.357	0.81
226.575	0.83
226.793	0.54
227.011	1.5
227.229	0.73
227.447	0.91
227.665	0.58
227.883	0.36
228.1	0.64
228.318	0.76
228.536	0.39
228.754	0.46
228.972	0.78
229.189	0.8
229.407	0.59
229.625	0.62
229.843	0.81
230.06	0.85
230.278	0.6
230.496	0.63
230.713	0.66
230.931	0.89
231.149	0.5
231.366	0.3
231.584	0.62
231.801	0.95
232.019	0.59
232.236	0.36
232.454	0.44
232.671	0.76
232.889	0.38
233.106	0.34
233.324	0.62
233.541	0.59
233.759	0.56
233.976	0.39
234.194	0.57
234.411	0.59
234.628	0.24
234.846	0.42
235.063	0.52
235.28	0.57
235.498	0.49
235.715	0.31
235.932	0.8
236.149	0.52
236.367	0.52
236.584	0.7
236.801	0.43
237.018	0.67
237.236	0.5
237.453	0.4
237.67	0.66
237.887	0.56
238.104	0.4
238.321	0.43
238.538	0.35
238.755	0.74
238.973	0.35
239.19	0.46
239.407	0.57
239.624	0.62
239.841	0.44
240.058	0.38
240.275	0.52
240.492	0.45
240.709	0.43
240.925	0.35
241.142	0.49
241.359	0.32
241.576	0.4
241.793	0.36
242.01	0.49
242.227	0.63
242.444	0.59
242.66	0.66
242.877	0.59
243.094	0.44
243.311	0.41
243.527	0.43
243.744	0.55
243.961	0.56
244.178	0.28
244.394	0.44
244.611	0.7
244.828	0.7
245.044	0.35
245.261	0.46
245.477	0.51
245.694	0.56
245.911	0.31
246.127	0.43
246.344	0.66
246.56	0.61
246.777	0.41
246.993	0.4
247.21	0.5
247.426	0.58
247.643	0.33
247.859	0.3
248.076	0.31
248.292	0.76
248.508	0.37
248.725	0.48
248.941	0.54
249.157	0.59
249.374	0.34
249.59	0.44
249.806	0.49
250.023	0.62
250.239	0.34
250.455	0.33
250.671	0.4
250.888	0.5
251.104	0.4
251.32	0.34
251.536	0.4
251.752	0.39
251.969	0.43
252.185	0.38
252.401	0.64
252.617	0.54
252.833	0.36
253.049	0.42
253.265	0.48
253.481	0.45
253.697	0.36
253.913	0.34
254.129	0.52
254.345	0.5
254.561	0.34
254.777	0.38
254.993	0.5
255.209	0.44
255.425	0.42
255.641	0.31
255.857	0.54
256.073	0.48
256.288	0.22
256.504	0.37
256.72	0.48
256.936	0.63
257.152	0.35
257.367	0.26
257.583	0.45
257.799	0.53
258.015	0.37
258.23	0.34
258.446	0.58
258.662	0.3
258.877	0.3
259.093	0.29
259.309	0.45
259.524	0.36
259.74	0.32
259.955	0.3
260.171	0.39
260.387	0.4
260.602	0.49
260.818	0.43
261.033	0.32
261.249	0.42
261.464	0.32
261.68	0.33
261.895	0.45
262.11	0.44
262.326	0.31
262.541	0.29
262.757	0.45
262.972	0.47
263.187	0.38
263.403	0.36
263.618	0.45
263.833	0.36
264.049	0.25
264.264	0.36
264.479	0.38
264.694	0.53
264.91	0.23
265.125	0.32
265.34	0.46
265.555	0.63
265.77	0.38
265.986	0.29
266.201	0.43
266.416	0.44
266.631	0.32
266.846	0.34
267.061	0.54
267.276	0.44
267.491	0.17
267.706	0.4
267.921	0.4
268.136	0.41
268.351	0.34
268.566	0.22
268.781	0.5
268.996	0.43
269.211	0.27
269.426	0.22
269.641	0.38
269.856	0.43
270.071	0.25
270.285	0.21
270.5	0.37
270.715	0.54
270.93	0.32
271.145	0.38
271.359	0.46
271.574	0.21
271.789	0.32
272.004	0.3
272.218	0.28
272.433	0.4
272.648	0.21
272.862	0.36
273.077	0.39
273.292	0.35
273.506	0.27
273.721	0.29
273.936	0.41
274.15	0.41
274.365	0.27
274.579	0.38
274.794	0.37
275.008	0.42
275.223	0.21
275.437	0.3
275.652	0.44
275.866	0.41
276.081	0.33
276.295	0.36
276.509	0.33
276.724	0.38
276.938	0.34
277.153	0.33
277.367	0.41
277.581	0.35
277.796	0.25
278.01	0.25
278.224	0.4
278.438	0.55
278.653	0.26
278.867	0.27
279.081	0.4
279.295	0.32
279.51	0.33
279.724	0.2
279.938	0.4
280.152	0.4
280.366	0.32
280.58	0.32
280.794	0.38
281.008	0.33
281.222	0.35
281.437	0.44
281.651	0.31
281.865	0.44
282.079	0.29
282.293	0.13
282.507	0.29
282.721	0.28
282.935	0.29
283.148	0.21
283.362	0.29
283.576	0.27
283.79	0.29
284.004	0.27
284.218	0.4
284.432	0.26
284.646	0.29
284.859	0.19
285.073	0.3
285.287	0.34
285.501	0.32
285.714	0.23
285.928	0.33
286.142	0.35
286.356	0.22
286.569	0.24
286.783	0.4
286.997	0.4
287.21	0.27
287.424	0.32
287.637	0.28
287.851	0.25
288.065	0.38
288.278	0.26
288.492	0.31
288.705	0.29
288.919	0.32
289.132	0.19
289.346	0.35
289.559	0.23
289.773	0.23
289.986	0.26
290.2	0.25
290.413	0.39
290.626	0.27
290.84	0.24
291.053	0.3
291.267	0.37
291.48	0.28
291.693	0.25
291.906	0.26
292.12	0.31
292.333	0.26
292.546	0.24
292.76	0.36
292.973	0.32
293.186	0.31
293.399	0.2
293.612	0.35
293.826	0.33
294.039	0.24
294.252	0.23
294.465	0.33
294.678	0.38
294.891	0.29
295.104	0.26
295.317	0.27
295.53	0.26
295.743	0.29
295.956	0.22
296.169	0.4
296.382	0.35
296.595	0.3
296.808	0.22
297.021	0.35
297.234	0.38
297.447	0.26
297.66	0.3
297.873	0.39
298.086	0.32
298.299	0.22
298.511	0.19
298.724	0.27
298.937	0.24
299.15	0.22
299.363	0.27
299.575	0.35
299.788	0.31
300.001	0.23
300.213	0.27
300.426	0.23
300.639	0.25
300.852	0.23
301.064	0.35
301.277	0.36
301.489	0.29
301.702	0.27
301.915	0.24
302.127	0.25
302.34	0.28
302.552	0.29
302.765	0.21
302.977	0.32
303.19	0.22
303.402	0.24
303.615	0.24
303.827	0.2
304.04	0.27
304.252	0.27
304.464	0.23
304.677	0.41
304.889	0.3
305.102	0.22
305.314	0.23
305.526	0.31
305.739	0.31
305.951	0.2
306.163	0.26
306.375	0.35
306.588	0.23
306.8	0.2
307.012	0.17
307.224	0.3
307.436	0.37
307.649	0.17
307.861	0.26
308.073	0.31
308.285	0.23
308.497	0.19
308.709	0.24
308.921	0.27
309.133	0.37
309.346	0.25
309.558	0.22
309.77	0.27
309.982	0.34
310.194	0.26
310.406	0.22
310.617	0.35
310.829	0.26
311.041	0.31
311.253	0.2
311.465	0.26
311.677	0.27
311.889	0.26
312.101	0.2
312.313	0.35
312.524	0.36
312.736	0.18
312.948	0.25
313.16	0.37
313.372	0.28
313.583	0.32
313.795	0.21
314.007	0.22
314.218	0.34
314.43	0.26
314.642	0.24
314.853	0.19
315.065	0.34
315.277	0.21
315.488	0.29
315.7	0.32
315.912	0.33
316.123	0.22
316.335	0.24
316.546	0.37
316.758	0.27
316.969	0.24
317.181	0.26
317.392	0.26
317.604	0.31
317.815	0.23
318.026	0.23
318.238	0.27
318.449	0.29
318.661	0.18
318.872	0.21
319.083	0.24
319.295	0.32
319.506	0.27
319.717	0.22
319.929	0.33
320.14	0.28
320.351	0.26
320.562	0.24
320.774	0.27
320.985	0.26
321.196	0.21
321.407	0.17
321.618	0.31
321.829	0.29
322.041	0.26
322.252	0.24
322.463	0.32
322.674	0.34
322.885	0.2
323.096	0.21
323.307	0.3
323.518	0.31
323.729	0.21
323.94	0.24
324.151	0.26
324.362	0.28
324.573	0.28
324.784	0.24
324.995	0.34
325.206	0.28
325.417	0.25
325.628	0.21
325.838	0.26
326.049	0.31
326.26	0.32
326.471	0.19
326.682	0.27
326.892	0.27
327.103	0.17
327.314	0.22
327.525	0.31
327.735	0.32
327.946	0.23
328.157	0.19
328.368	0.33
328.578	0.25
328.789	0.32
328.999	0.26
329.21	0.27
329.421	0.34
329.631	0.23
329.842	0.21
330.052	0.3
330.263	0.3
330.473	0.35
330.684	0.21
330.894	0.28
331.105	0.26
331.315	0.3
331.526	0.19
331.736	0.37
331.947	0.33
332.157	0.24
332.367	0.14
332.578	0.3
332.788	0.36
332.999	0.29
333.209	0.21
333.419	0.18
333.629	0.28
333.84	0.3
334.05	0.27
334.26	0.32
334.47	0.24
334.681	0.3
334.891	0.25
335.101	0.33
335.311	0.38
335.521	0.29
335.732	0.24
335.942	0.35
336.152	0.3
336.362	0.23
336.572	0.26
336.782	0.34
336.992	0.23
337.202	0.23
337.412	0.24
337.622	0.27
337.832	0.25
338.042	0.22
338.252	0.23
338.462	0.25
338.672	0.24
338.882	0.2
339.092	0.22
339.302	0.4
339.511	0.33
339.721	0.24
339.931	0.2
340.141	0.35
340.351	0.37
340.561	0.3
340.77	0.28
340.98	0.29
341.19	0.26
341.4	0.23
341.609	0.21
341.819	0.27
342.029	0.23
342.238	0.28
342.448	0.23
342.658	0.28
342.867	0.25
343.077	0.27
343.286	0.27
343.496	0.27
343.706	0.35
343.915	0.21
344.125	0.27
344.334	0.23
344.544	0.16
344.753	0.24
344.963	0.23
345.172	0.2
345.381	0.21
345.591	0.18
345.8	0.23
346.01	0.34
346.219	0.28
346.428	0.13
346.638	0.27
346.847	0.23
347.056	0.33
347.266	0.2
347.475	0.27
347.684	0.32
347.893	0.29
348.103	0.26
348.312	0.21
348.521	0.3
348.73	0.27
348.94	0.28
349.149	0.21
349.358	0.26
349.567	0.28
349.776	0.21
349.985	0.23
350.194	0.33
350.403	0.32
350.612	0.15
350.821	0.21
351.03	0.27
351.239	0.2
351.448	0.25
351.657	0.2
351.866	0.33
352.075	0.26
352.284	0.32
352.493	0.23
352.702	0.38
352.911	0.24
353.12	0.25
353.329	0.23
353.538	0.27
353.746	0.24
353.955	0.21
354.164	0.27
354.373	0.25
354.582	0.36
354.79	0.23
354.999	0.29
355.208	0.25
355.416	0.34
355.625	0.17
355.834	0.2
356.042	0.28
356.251	0.22
356.46	0.21
356.668	0.25
356.877	0.37
357.085	0.31
357.294	0.18
357.503	0.25
357.711	0.26
357.92	0.39
358.128	0.22
358.337	0.21
358.545	0.3
358.754	0.18
358.962	0.28
359.17	0.27
359.379	0.24
359.587	0.27
359.796	0.2
360.004	0.29
360.212	0.25
360.421	0.33
360.629	0.26
360.837	0.21
361.046	0.33
361.254	0.41
361.462	0.29
361.67	0.25
361.879	0.28
362.087	0.33
362.295	0.28
362.503	0.24
362.711	0.21
362.92	0.21
363.128	0.22
363.336	0.19
363.544	0.21
363.752	0.25
363.96	0.22
364.168	0.24
364.376	0.25
364.584	0.28
364.792	0.34
365	0.25
365.208	0.25
365.416	0.29
365.624	0.28
365.832	0.22
366.04	0.35
366.248	0.28
366.456	0.29
366.664	0.24
366.872	0.26
367.079	0.25
367.287	0.24
367.495	0.26
367.703	0.28
367.911	0.25
368.118	0.23
368.326	0.27
368.534	0.21
368.742	0.34
368.949	0.21
369.157	0.23
369.365	0.26
369.572	0.21
369.78	0.21
369.988	0.28
370.195	0.26
370.403	0.28
370.61	0.22
370.818	0.21
371.026	0.37
371.233	0.21
371.441	0.25
371.648	0.26
371.856	0.29
372.063	0.28
372.271	0.26
372.478	0.25
372.685	0.22
372.893	0.32
373.1	0.24
373.308	0.25
373.515	0.36
373.722	0.29
373.93	0.29
374.137	0.28
374.344	0.35
374.552	0.3
374.759	0.32
374.966	0.23
375.173	0.27
375.381	0.36
375.588	0.23
375.795	0.18
376.002	0.28
376.209	0.26
376.417	0.26
376.624	0.29
376.831	0.3
377.038	0.3
377.245	0.19
377.452	0.23
377.659	0.3
377.866	0.23
378.073	0.23
378.28	0.27
378.487	0.34
378.694	0.29
378.901	0.25
379.108	0.3
379.315	0.35
379.522	0.4
379.729	0.28
379.936	0.25
380.143	0.25
380.35	0.31
380.557	0.28
380.763	0.23
380.97	0.27
381.177	0.27
381.384	0.27
381.591	0.22
381.797	0.34
382.004	0.31
382.211	0.32
382.418	0.2
382.624	0.3
382.831	0.32
383.038	0.25
383.244	0.27
383.451	0.32
383.658	0.33
383.864	0.3
384.071	0.24
384.277	0.37
384.484	0.28
384.69	0.3
384.897	0.22
385.103	0.3
385.31	0.25
385.516	0.27
385.723	0.24
385.929	0.27
386.136	0.29
386.342	0.33
386.549	0.22
386.755	0.33
386.961	0.31
387.168	0.28
387.374	0.29
387.58	0.37
387.787	0.29
387.993	0.3
388.199	0.29
388.406	0.25
388.612	0.27
388.818	0.25
389.024	0.28
389.231	0.31
389.437	0.39
389.643	0.31
389.849	0.28
390.055	0.33
390.261	0.32
390.467	0.36
390.674	0.28
390.88	0.3
391.086	0.33
391.292	0.21
391.498	0.33
391.704	0.36
391.91	0.34
392.116	0.27
392.322	0.23
392.528	0.3
392.734	0.3
392.94	0.32
393.146	0.35
393.352	0.36
393.557	0.3
393.763	0.28
393.969	0.34
394.175	0.33
394.381	0.33
394.587	0.25
394.792	0.33
394.998	0.38
395.204	0.38
395.41	0.3
395.615	0.31
395.821	0.39
396.027	0.38
396.233	0.32
396.438	0.39
396.644	0.4
396.85	0.36
397.055	0.32
397.261	0.36
397.466	0.5
397.672	0.34
397.878	0.35
398.083	0.36
398.289	0.3
398.494	0.42
398.7	0.34
398.905	0.28
399.111	0.48
399.316	0.32
399.522	0.36
399.727	0.34
399.932	0.34
400.138	0.36
400.343	0.36
400.549	0.35
400.754	0.39
400.959	0.44
401.165	0.36
401.37	0.4
401.575	0.51
401.78	0.41
401.986	0.39
402.191	0.32
402.396	0.35
402.601	0.38
402.807	0.47
403.012	0.35
403.217	0.46
403.422	0.37
403.627	0.42
403.832	0.4
404.037	0.48
404.243	0.46
404.448	0.36
404.653	0.42
404.858	0.5
405.063	0.48
405.268	0.39
405.473	0.37
405.678	0.46
405.883	0.63
406.088	0.46
406.293	0.42
406.498	0.47
406.703	0.53
406.907	0.48
407.112	0.48
407.317	0.51
407.522	0.59
407.727	0.45
407.932	0.55
408.136	0.62
408.341	0.54
408.546	0.55
408.751	0.56
408.956	0.55
409.16	0.67
409.365	0.57
409.57	0.57
409.774	0.67
409.979	0.74
410.184	0.73
410.388	0.56
410.593	0.81
410.798	0.73
411.002	0.67
411.207	0.83
411.411	0.8
411.616	0.75
411.82	0.79
412.025	0.81
412.229	0.76
412.434	0.98
412.638	0.93
412.843	0.88
413.047	0.92
413.252	0.88
413.456	0.99
413.66	1.04
413.865	0.97
414.069	1.15
414.273	1.06
414.478	1.07
414.682	1.13
414.886	1.21
415.091	1.21
415.295	1.16
415.499	1.41
415.703	1.37
415.908	1.45
416.112	1.28
416.316	1.56
416.52	1.5
416.724	1.45
416.929	1.54
417.133	1.78
417.337	1.69
417.541	1.71
417.745	1.77
417.949	1.91
418.153	1.96
418.357	1.95
418.561	2.2
418.765	2.22
418.969	2.3
419.173	2.35
419.377	2.33
419.581	2.6
419.785	2.57
419.989	2.57
420.193	2.67
420.397	2.85
420.601	2.97
420.804	3.06
421.008	2.98
421.212	3.12
421.416	3.1
421.62	3.14
421.823	3.27
422.027	3.4
422.231	3.4
422.435	3.35
422.638	3.46
422.842	3.59
423.046	3.51
423.249	3.82
423.453	3.82
423.657	3.98
423.86	4.02
424.064	4.21
424.268	4.34
424.471	4.32
424.675	4.51
424.878	4.57
425.082	4.67
425.285	4.98
425.489	4.87
425.692	4.99
425.896	5.11
426.099	5.27
426.303	5.44
426.506	5.52
426.71	5.77
426.913	5.94
427.116	6.06
427.32	6.15
427.523	6.21
427.726	6.51
427.93	6.62
428.133	6.84
428.336	6.93
428.54	7.19
428.743	7.44
428.946	7.65
429.149	7.7
429.353	7.61
429.556	7.74
429.759	7.8
429.962	7.93
430.165	8.08
430.368	7.77
430.571	7.9
430.775	7.89
430.978	7.9
431.181	7.82
431.384	8.03
431.587	8.15
431.79	8.5
431.993	8.41
432.196	8.79
432.399	9.11
432.602	9.17
432.805	9.47
433.008	9.77
433.211	9.72
433.414	10.11
433.616	10.1
433.819	9.91
434.022	10.23
434.225	10.34
434.428	10.41
434.631	10.97
434.833	10.56
435.036	10.87
435.239	11.08
435.442	11.21
435.645	11.33
435.847	11.32
436.05	11.77
436.253	11.99
436.455	11.84
436.658	11.87
436.861	12.18
437.063	12.18
437.266	12.09
437.468	12.58
437.671	12.81
437.874	12.84
438.076	12.71
438.279	13.19
438.481	13.2
438.684	14
438.886	13.57
439.089	13.85
439.291	14.04
439.494	14.25
439.696	14.42
439.899	14.95
440.101	15.38
440.303	15.49
440.506	16.19
440.708	15.97
440.91	16.22
441.113	16.43
441.315	16.83
441.517	16.43
441.72	17.01
441.922	16.53
442.124	16.41
442.326	16.8
442.529	17.12
442.731	17.02
442.933	17.46
443.135	17.14
443.337	17.1
443.539	17.7
443.742	17.32
443.944	18.03
444.146	17.86
444.348	17.69
444.55	17.57
444.752	17.84
444.954	17.89
445.156	17.83
445.358	18.26
445.56	18.46
445.762	18.31
445.964	18.45
446.166	18.32
446.368	18.47
446.57	18.42
446.772	18.01
446.974	17.84
447.175	18.12
447.377	17.79
447.579	18.11
447.781	17.92
447.983	17.58
448.184	17.31
448.386	17.82
448.588	17.12
448.79	17.25
448.991	17.5
449.193	17.34
449.395	16.95
449.597	16.44
449.798	16.48
450	16.08
450.202	15.87
450.403	15.91
450.605	15.9
450.806	15.46
451.008	15.29
451.21	15.04
451.411	14.59
451.613	13.91
451.814	14.24
452.016	14.18
452.217	13.39
452.419	13.44
452.62	13.09
452.821	12.9
453.023	12.84
453.224	12.42
453.426	12
453.627	11.34
453.828	11.42
454.03	11.56
454.231	11.33
454.432	11.24
454.634	10.92
454.835	10.81
455.036	10.62
455.238	10.2
455.439	9.94
455.64	9.74
455.841	9.69
456.042	9.77
456.244	9.35
456.445	9.11
456.646	8.79
456.847	8.67
457.048	8.71
457.249	8.65
457.45	8.52
457.651	7.89
457.852	7.84
458.054	7.5
458.255	7.29
458.456	7.42
458.657	7.28
458.858	6.81
459.058	6.73
459.259	6.92
459.46	6.7
459.661	6.54
459.862	6.62
460.063	6.48
460.264	6.48
460.465	6.15
460.666	6.17
460.866	5.86
461.067	5.59
461.268	5.67
461.469	5.59
461.67	5.54
461.87	5.37
462.071	5.34
462.272	5.18
462.473	5.23
462.673	5.46
462.874	5.27
463.075	5.2
463.275	5.19
463.476	5.25
463.676	5.19
463.877	5.02
464.078	5.09
464.278	5.08
464.479	4.98
464.679	4.9
464.88	4.8
465.08	4.78
465.281	4.51
465.481	4.42
465.682	4.25
465.882	4.24
466.083	4.16
466.283	4.15
466.483	4.01
466.684	3.83
466.884	3.74
467.085	3.79
467.285	3.85
467.485	3.73
467.686	3.6
467.886	3.53
468.086	3.49
468.286	3.44
468.487	3.59
468.687	3.38
468.887	3.32
469.087	3.42
469.287	3.36
469.488	3.15
469.688	3.31
469.888	3.28
470.088	3.26
470.288	3.16
470.488	3.14
470.688	2.95
470.888	2.91
471.088	2.77
471.288	2.89
471.488	2.86
471.688	2.83
471.888	2.71
472.088	2.95
472.288	2.8
472.488	2.68
472.688	2.65
472.888	2.65
473.088	2.68
473.288	2.54
473.488	2.51
473.688	2.73
473.887	2.59
474.087	2.51
474.287	2.47
474.487	2.46
474.687	2.46
474.886	2.44
475.086	2.4
475.286	2.4
475.486	2.37
475.685	2.34
475.885	2.27
476.085	2.31
476.284	2.3
476.484	2.32
476.684	2.23
476.883	2.33
477.083	2.28
477.282	2.16
477.482	2.31
477.681	2.16
477.881	2.11
478.08	2.12
478.28	2.05
478.479	2.16
478.679	2.18
478.878	2.08
479.078	2.08
479.277	2.13
479.477	2.1
479.676	2.08
479.875	2.03
480.075	1.96
480.274	2.05
480.473	2.08
480.673	2.06
480.872	2.17
481.071	2.05
481.271	2.09
481.47	2.04
481.669	2.02
481.868	2.01
482.067	2.02
482.267	1.95
482.466	1.98
482.665	1.97
482.864	2.02
483.063	1.97
483.262	2.09
483.461	2.12
483.661	2.12
483.86	2.03
484.059	2.07
484.258	2.08
484.457	2.06
484.656	2.07
484.855	2.15
485.054	1.91
485.253	2.01
485.452	1.97
485.651	2.08
485.849	2.04
486.048	2.02
486.247	2.09
486.446	2.08
486.645	2.04
486.844	2.08
487.043	2.05
487.241	2.12
487.44	2.08
487.639	2.17
487.838	2.15
488.037	2.16
488.235	2.27
488.434	2.19
488.633	2.08
488.831	2.24
489.03	2.29
489.229	2.26
489.427	2.29
489.626	2.31
489.825	2.32
490.023	2.34
490.222	2.25
490.42	2.36
490.619	2.43
490.817	2.37
491.016	2.39
491.214	2.43
491.413	2.43
491.611	2.42
491.81	2.44
492.008	2.46
492.207	2.58
492.405	2.52
492.604	2.47
492.802	2.58
493	2.62
493.199	2.62
493.397	2.66
493.595	2.72
493.794	2.65
493.992	2.78
494.19	2.78
494.388	2.8
494.587	2.76
494.785	2.77
494.983	2.72
495.181	2.88
495.379	2.88
495.578	2.93
495.776	2.93
495.974	2.94
496.172	2.96
496.37	3.08
496.568	3.13
496.766	3.09
496.964	3.18
497.162	3.23
497.36	3.2
497.558	3.22
497.756	3.33
497.954	3.28
498.152	3.36
498.35	3.45
498.548	3.39
498.746	3.44
498.944	3.4
499.142	3.42
499.34	3.51
499.538	3.63
499.736	3.48
499.933	3.68
500.131	3.61
500.329	3.79
500.527	3.75
500.725	3.89
500.922	3.89
501.12	3.87
501.318	3.93
501.516	3.97
501.713	4.04
501.911	3.98
502.109	3.95
502.306	4.09
502.504	3.98
502.701	4.11
502.899	4.14
503.097	4.33
503.294	4.21
503.492	4.3
503.689	4.36
503.887	4.37
504.084	4.48
504.282	4.43
504.479	4.4
504.677	4.6
504.874	4.55
505.072	4.43
505.269	4.65
505.466	4.69
505.664	4.74
505.861	4.68
506.059	4.74
506.256	4.81
506.453	4.8
506.651	4.96
506.848	5.01
507.045	4.94
507.242	4.99
507.44	5.01
507.637	5.08
507.834	5.01
508.031	5.17
508.229	5.16
508.426	5.07
508.623	5.3
508.82	5.29
509.017	5.24
509.214	5.2
509.411	5.36
509.608	5.29
509.805	5.48
510.003	5.42
510.2	5.51
510.397	5.64
510.594	5.53
510.791	5.6
510.988	5.59
511.184	5.61
511.381	5.53
511.578	5.61
511.775	5.83
511.972	5.69
512.169	5.81
512.366	5.79
512.563	5.98
512.76	5.99
512.956	5.99
513.153	5.92
513.35	5.9
513.547	5.87
513.744	5.98
513.94	6.02
514.137	6.14
514.334	6.09
514.53	6.13
514.727	6.37
514.924	6.22
515.12	6.13
515.317	6.23
515.514	6.15
515.71	6.16
515.907	6.4
516.103	6.33
516.3	6.29
516.497	6.43
516.693	6.43
516.89	6.42
517.086	6.51
517.283	6.48
517.479	6.44
517.676	6.57
517.872	6.64
518.068	6.63
518.265	6.6
518.461	6.53
518.658	6.65
518.854	6.7
519.05	6.74
519.247	6.78
519.443	6.74
519.639	6.84
519.836	6.73
520.032	6.74
520.228	6.86
520.424	6.83
520.621	6.93
520.817	6.9
521.013	6.88
521.209	7.08
521.405	7.06
521.601	6.97
521.798	6.98
521.994	6.98
522.19	6.95
522.386	7.01
522.582	7.11
522.778	7.2
522.974	7.07
523.17	7.13
523.366	7.09
523.562	7.12
523.758	7.12
523.954	7
524.15	7.21
524.346	7.23
524.542	7.27
524.738	7.16
524.934	7.32
525.129	7.32
525.325	7.24
525.521	7.18
525.717	7.5
525.913	7.31
526.109	7.3
526.304	7.45
526.5	7.42
526.696	7.46
526.892	7.31
527.087	7.61
527.283	7.48
527.479	7.48
527.674	7.25
527.87	7.47
528.066	7.44
528.261	7.46
528.457	7.39
528.653	7.61
528.848	7.55
529.044	7.66
529.239	7.55
529.435	7.54
529.63	7.46
529.826	7.51
530.021	7.53
530.217	7.62
530.412	7.54
530.608	7.58
530.803	7.65
530.999	7.55
531.194	7.64
531.389	7.69
531.585	7.64
531.78	7.79
531.975	7.69
532.171	7.77
532.366	7.71
532.561	7.73
532.757	7.69
532.952	7.82
533.147	7.62
533.342	7.8
533.538	7.69
533.733	7.88
533.928	7.62
534.123	7.8
534.318	7.83
534.513	7.73
534.709	7.9
534.904	7.81
535.099	8
535.294	7.93
535.489	7.92
535.684	7.82
535.879	7.81
536.074	7.94
536.269	7.89
536.464	7.92
536.659	7.92
536.854	7.89
537.049	7.96
537.244	7.88
537.439	7.89
537.634	7.92
537.828	8
538.023	7.97
538.218	7.93
538.413	7.84
538.608	7.91
538.803	7.98
538.997	7.87
539.192	7.96
539.387	7.91
539.582	7.89
539.776	7.86
539.971	8.01
540.166	8
540.36	7.89
540.555	8
540.75	8.03
540.944	8
541.139	8.03
541.334	7.98
541.528	8
541.723	8.07
541.917	8.03
542.112	7.96
542.306	7.85
542.501	7.91
542.695	7.94
542.89	7.92
543.084	8.02
543.279	8.08
543.473	8.1
543.668	8.09
543.862	7.89
544.056	7.95
544.251	8.12
544.445	8.15
544.64	8.12
544.834	7.75
545.028	7.68
545.222	7.99
545.417	8.21
545.611	8.06
545.805	7.99
546	7.83
546.194	8.03
546.388	8.09
546.582	7.94
546.776	8.04
546.97	7.98
547.165	8.04
547.359	8.02
547.553	7.95
547.747	8.05
547.941	8.26
548.135	7.96
548.329	8.11
548.523	8.07
548.717	8.01
548.911	8.01
549.105	7.99
549.299	8.18
549.493	8.13
549.687	7.98
549.881	8.17
550.075	8.15
550.269	7.94
550.463	8.07
550.657	8.11
550.85	8.04
551.044	8.07
551.238	8.09
551.432	8.08
551.626	8.12
551.82	8.12
552.013	8.06
552.207	8.11
552.401	8.2
552.594	8.1
552.788	7.96
552.982	8
553.176	7.95
553.369	8.2
553.563	8.1
553.756	8.05
553.95	8.17
554.144	8.13
554.337	8.15
554.531	7.93
554.724	8.13
554.918	8.17
555.111	8.07
555.305	8.1
555.498	8.01
555.692	8.2
555.885	8.09
556.079	8.06
556.272	8.13
556.466	8.12
556.659	8.02
556.852	8.19
557.046	7.97
557.239	7.94
557.432	8.06
557.626	8.14
557.819	8.18
558.012	8.11
558.206	8.12
558.399	8.15
558.592	8.02
558.785	8.07
558.979	8.1
559.172	8.09
559.365	8.08
559.558	7.99
559.751	8.04
559.944	8.26
560.138	8.03
560.331	8.13
560.524	8.16
560.717	8.12
560.91	8.08
561.103	8.1
561.296	7.96
561.489	8.08
561.682	8.14
561.875	8.16
562.068	8.2
562.261	8.03
562.454	8.25
562.647	8.12
562.84	8.1
563.032	8.11
563.225	8.05
563.418	8.04
563.611	8.14
563.804	8.1
563.997	7.95
564.19	7.88
564.382	8.17
564.575	8.13
564.768	8
564.961	8.12
565.153	8.09
565.346	7.95
565.539	8.2
565.731	8.02
565.924	8.22
566.117	8.16
566.309	8.14
566.502	8.03
566.695	8.04
566.887	8.16
567.08	8.05
567.272	8.04
567.465	8.02
567.657	8.18
567.85	7.97
568.042	8.05
568.235	8.11
568.427	7.88
568.62	7.99
568.812	7.95
569.005	8.11
569.197	7.95
569.389	8.05
569.582	7.99
569.774	8.09
569.966	7.93
570.159	7.92
570.351	7.97
570.543	7.98
570.736	8.02
570.928	7.85
571.12	8.05
571.312	7.92
571.505	7.72
571.697	8
571.889	7.96
572.081	8.03
572.273	7.99
572.465	8
572.658	8.04
572.85	7.99
573.042	8
573.234	7.86
573.426	7.97
573.618	7.85
573.81	7.96
574.002	7.9
574.194	7.94
574.386	7.84
574.578	7.76
574.77	7.94
574.962	7.96
575.154	7.81
575.346	7.82
575.538	7.81
575.729	7.75
575.921	7.94
576.113	7.98
576.305	7.88
576.497	7.96
576.689	7.77
576.88	7.75
577.072	7.95
577.264	7.89
577.456	7.9
577.647	7.75
577.839	7.98
578.031	7.81
578.223	7.82
578.414	7.76
578.606	7.83
578.798	7.92
578.989	7.82
579.181	7.86
579.372	7.81
579.564	7.82
579.755	7.74
579.947	7.73
580.139	7.86
580.33	7.62
580.522	7.77
580.713	7.68
580.905	7.68
581.096	7.81
581.287	7.68
581.479	7.71
581.67	7.78
581.862	7.67
582.053	7.66
582.244	7.61
582.436	7.77
582.627	7.63
582.818	7.6
583.01	7.59
583.201	7.7
583.392	7.56
583.583	7.61
583.775	7.43
583.966	7.56
584.157	7.61
584.348	7.7
584.54	7.53
584.731	7.66
584.922	7.51
585.113	7.48
585.304	7.56
585.495	7.54
585.686	7.64
585.877	7.62
586.068	7.63
586.259	7.54
586.45	7.51
586.641	7.49
586.832	7.56
587.023	7.46
587.214	7.48
587.405	7.55
587.596	7.35
587.787	7.27
587.978	7.45
588.169	7.38
588.36	7.27
588.551	7.37
588.742	7.37
588.932	7.48
589.123	7.25
589.314	7.4
589.505	7.33
589.696	7.38
589.886	7.3
590.077	7.35
590.268	7.26
590.458	7.2
590.649	7.08
590.84	7.32
591.03	7.23
591.221	7.21
591.412	7.18
591.602	7.33
591.793	7.23
591.984	7.24
592.174	7.21
592.365	7.38
592.555	7.12
592.746	7.12
592.936	7.15
593.127	7.19
593.317	7.19
593.508	7.17
593.698	7.09
593.889	7.1
594.079	7.01
594.269	7
594.46	7.05
594.65	7.07
594.84	7.04
595.031	6.95
595.221	6.96
595.411	6.96
595.602	7.03
595.792	6.93
595.982	6.82
596.172	7.03
596.363	6.85
596.553	6.82
596.743	6.93
596.933	6.87
597.123	6.81
597.314	6.71
597.504	6.73
597.694	6.89
597.884	6.8
598.074	6.82
598.264	6.71
598.454	6.81
598.644	6.71
598.834	6.78
599.024	6.69
599.214	6.68
599.404	6.76
599.594	6.7
599.784	6.63
599.974	6.69
600.164	6.75
600.354	6.62
600.544	6.51
600.734	6.63
600.924	6.57
601.114	6.51
601.303	6.5
601.493	6.52
601.683	6.54
601.873	6.56
602.063	6.41
602.252	6.53
602.442	6.41
602.632	6.37
602.821	6.37
603.011	6.51
603.201	6.42
603.39	6.41
603.58	6.28
603.77	6.38
603.959	6.43
604.149	6.34
604.339	6.29
604.528	6.44
604.718	6.39
604.907	6.28
605.097	6.19
605.286	6.22
605.476	6.23
605.665	6.27
605.855	6.18
606.044	6.28
606.234	6.21
606.423	6.2
606.612	6.17
606.802	6.08
606.991	6.15
607.181	6.12
607.37	6.11
607.559	5.94
607.749	6.11
607.938	6.02
608.127	6.01
608.316	5.96
608.506	6.01
608.695	6.07
608.884	5.95
609.073	5.99
609.263	6.04
609.452	5.95
609.641	5.85
609.83	5.78
610.019	5.96
610.208	5.84
610.397	5.85
610.586	5.87
610.775	5.78
610.965	5.83
611.154	5.65
611.343	5.76
611.532	5.68
611.721	5.81
611.91	5.66
612.099	5.72
612.287	5.63
612.476	5.55
612.665	5.74
612.854	5.61
613.043	5.6
613.232	5.62
613.421	5.55
613.61	5.57
613.798	5.59
613.987	5.62
614.176	5.49
614.365	5.5
614.554	5.5
614.742	5.5
614.931	5.36
615.12	5.49
615.309	5.41
615.497	5.37
615.686	5.25
615.875	5.35
616.063	5.37
616.252	5.28
616.44	5.32
616.629	5.36
616.818	5.31
617.006	5.28
617.195	5.22
617.383	5.23
617.572	5.17
617.76	5.16
617.949	5.23
618.137	5.22
618.326	5.17
618.514	4.94
618.703	5.04
618.891	5.14
619.079	5.06
619.268	5.11
619.456	4.99
619.644	5.17
619.833	5.01
620.021	4.99
620.209	4.86
620.398	5.01
620.586	4.92
620.774	4.98
620.962	4.94
621.151	5.07
621.339	4.86
621.527	4.81
621.715	4.86
621.903	4.91
622.092	4.67
622.28	4.89
622.468	4.6
622.656	4.78
622.844	4.78
623.032	4.77
623.22	4.66
623.408	4.85
623.596	4.71
623.784	4.75
623.972	4.67
624.16	4.64
624.348	4.77
624.536	4.71
624.724	4.62
624.912	4.57
625.1	4.61
625.288	4.56
625.476	4.52
625.664	4.54
625.851	4.51
626.039	4.54
626.227	4.46
626.415	4.49
626.603	4.44
626.79	4.46
626.978	4.41
627.166	4.46
627.354	4.37
627.541	4.3
627.729	4.22
627.917	4.41
628.104	4.39
628.292	4.31
628.48	4.35
628.667	4.27
628.855	4.37
629.042	4.32
629.23	4.22
629.418	4.25
629.605	4.24
629.793	4.18
629.98	4.22
630.168	4.15
630.355	4.14
630.543	4.1
630.73	4.05
630.917	4.1
631.105	4.24
631.292	4.16
631.48	4.07
631.667	4.17
631.854	4.01
632.042	4
632.229	3.94
632.416	3.99
632.604	4.02
632.791	3.83
632.978	3.97
633.165	3.92
633.353	3.97
633.54	3.96
633.727	3.84
633.914	3.84
634.101	3.8
634.289	3.88
634.476	3.77
634.663	3.77
634.85	3.77
635.037	3.76
635.224	3.69
635.411	3.8
635.598	3.74
635.785	3.69
635.972	3.71
636.159	3.72
636.346	3.7
636.533	3.61
636.72	3.63
636.907	3.63
637.094	3.64
637.281	3.52
637.468	3.57
637.655	3.52
637.842	3.62
638.029	3.51
638.215	3.49
638.402	3.52
638.589	3.48
638.776	3.43
638.963	3.43
639.149	3.54
639.336	3.58
639.523	3.42
639.709	3.42
639.896	3.39
640.083	3.39
640.27	3.44
640.456	3.36
640.643	3.34
640.829	3.27
641.016	3.29
641.203	3.27
641.389	3.29
641.576	3.3
641.762	3.25
641.949	3.24
642.135	3.22
642.322	3.22
642.508	3.11
642.695	3.23
642.881	3.15
643.068	3.12
643.254	3.14
643.441	3.13
643.627	3.14
643.813	3.05
644	3.14
644.186	3.01
644.372	3.09
644.559	3.12
644.745	3
644.931	2.95
645.118	3.02
645.304	3.02
645.49	3.01
645.676	2.95
645.862	3.03
646.049	3.04
646.235	2.92
646.421	3.1
646.607	3
646.793	2.91
646.979	2.78
647.165	2.91
647.352	2.86
647.538	2.93
647.724	2.86
647.91	2.78
648.096	2.89
648.282	2.89
648.468	2.79
648.654	2.83
648.84	2.78
649.026	2.8
649.212	2.74
649.397	2.69
649.583	2.71
649.769	2.77
649.955	2.73
650.141	2.73
650.327	2.69
650.513	2.69
650.698	2.66
650.884	2.56
651.07	2.68
651.256	2.62
651.442	2.6
651.627	2.51
651.813	2.62
651.999	2.54
652.184	2.59
652.37	2.54
652.556	2.53
652.741	2.65
652.927	2.44
653.113	2.5
653.298	2.5
653.484	2.51
653.669	2.43
653.855	2.48
654.04	2.55
654.226	2.49
654.412	2.45
654.597	2.32
654.782	2.41
654.968	2.43
655.153	2.32
655.339	2.34
655.524	2.34
655.71	2.41
655.895	2.35
656.08	2.35
656.266	2.39
656.451	2.34
656.636	2.26
656.822	2.29
657.007	2.31
657.192	2.29
657.378	2.22
657.563	2.25
657.748	2.34
657.933	2.28
658.118	2.21
658.304	2.2
658.489	2.28
658.674	2.22
658.859	2.15
659.044	2.24
659.229	2.17
659.414	2.14
659.599	2.19
659.785	2.08
659.97	2.11
660.155	2.14
660.34	2.15
660.525	2.06
660.71	2.04
660.895	2.09
661.08	2.06
661.264	2.02
661.449	2.14
661.634	2.09
661.819	2.07
662.004	2.06
662.189	1.96
662.374	1.99
662.559	1.96
662.743	1.85
662.928	2.01
663.113	1.92
663.298	1.91
663.483	1.93
663.667	1.92
663.852	1.9
664.037	1.98
664.221	1.96
664.406	2.02
664.591	1.96
664.775	1.92
664.96	1.85
665.145	1.9
665.329	1.93
665.514	1.89
665.698	1.82
665.883	1.75
666.068	1.88
666.252	1.87
666.437	1.79
666.621	1.78
666.806	1.87
666.99	1.8
667.174	1.75
667.359	1.9
667.543	1.76
667.728	1.76
667.912	1.71
668.096	1.78
668.281	1.69
668.465	1.69
668.649	1.72
668.834	1.71
669.018	1.74
669.202	1.69
669.387	1.65
669.571	1.77
669.755	1.61
669.939	1.63
670.124	1.64
670.308	1.73
670.492	1.71
670.676	1.65
670.86	1.66
671.044	1.57
671.228	1.7
671.413	1.58
671.597	1.54
671.781	1.61
671.965	1.64
672.149	1.58
672.333	1.56
672.517	1.57
672.701	1.64
672.885	1.54
673.069	1.42
673.253	1.66
673.437	1.53
673.621	1.5
673.804	1.53
673.988	1.55
674.172	1.48
674.356	1.46
674.54	1.53
674.724	1.66
674.908	1.54
675.091	1.5
675.275	1.51
675.459	1.59
675.643	1.58
675.826	1.48
676.01	1.45
676.194	1.47
676.377	1.54
676.561	1.45
676.745	1.42
676.928	1.44
677.112	1.5
677.296	1.36
677.479	1.4
677.663	1.42
677.846	1.43
678.03	1.45
678.213	1.33
678.397	1.47
678.58	1.41
678.764	1.36
678.947	1.27
679.131	1.37
679.314	1.36
679.498	1.39
679.681	1.34
679.865	1.44
680.048	1.37
680.231	1.3
680.415	1.3
680.598	1.32
680.781	1.28
680.965	1.31
681.148	1.33
681.331	1.32
681.514	1.34
681.698	1.19
681.881	1.24
682.064	1.28
682.247	1.38
682.43	1.19
682.614	1.28
682.797	1.32
682.98	1.24
683.163	1.18
683.346	1.23
683.529	1.22
683.712	1.12
683.895	1.25
684.078	1.06
684.261	1.14
684.444	1.28
684.627	1.23
684.81	1.11
684.993	1.21
685.176	1.22
685.359	1.1
685.542	1.08
685.725	1.24
685.908	1.14
686.091	1.07
686.274	1.18
686.457	1.16
686.639	1.14
686.822	1.21
687.005	1.17
687.188	1.17
687.371	1.3
687.553	1.21
687.736	1.12
687.919	1.2
688.102	1.21
688.284	1.04
688.467	1.09
688.65	1.09
688.832	1.04
689.015	1.05
689.197	0.93
689.38	1.2
689.563	1.21
689.745	1.03
689.928	1.01
690.11	1.05
690.293	1.05
690.475	0.9
690.658	1.04
690.84	1.06
691.023	1.01
691.205	1.01
691.388	1
691.57	1.06
691.752	1.14
691.935	0.87
692.117	0.94
692.3	1.03
692.482	0.98
692.664	0.92
692.847	0.94
693.029	1.11
693.211	1.03
693.393	0.88
693.576	0.87
693.758	1.02
693.94	1
694.122	0.98
694.304	0.88
694.487	0.96
694.669	1.02
694.851	0.85
695.033	0.86
695.215	0.91
695.397	0.9
695.579	0.96
695.761	0.89
695.943	0.83
696.125	1.08
696.308	0.97
696.49	0.79
696.671	1.03
696.853	0.93
697.035	1.1
697.217	0.85
697.399	0.96
697.581	0.82
697.763	0.9
697.945	0.78
698.127	0.91
698.309	0.91
698.491	0.93
698.672	0.96
698.854	0.97
699.036	0.97
699.218	0.88
699.399	0.93
699.581	0.95
699.763	0.86
699.945	0.78
700.126	0.78
700.308	0.84
700.49	0.82
700.671	0.71
700.853	0.75
701.035	0.78
701.216	0.84
701.398	0.75
701.579	0.81
701.761	0.9
701.943	0.77
702.124	0.72
702.306	0.77
702.487	0.94
702.669	0.87
702.85	0.84
703.031	0.69
703.213	0.93
703.394	0.89
703.576	0.72
703.757	0.86
703.938	0.81
704.12	1.04
704.301	0.78
704.483	0.72
704.664	0.77
704.845	0.96
705.026	0.81
705.208	0.69
705.389	0.8
705.57	0.78
705.751	0.78
705.933	0.76
706.114	0.86
706.295	0.78
706.476	0.67
706.657	0.84
706.838	0.8
707.02	0.78
707.201	0.69
707.382	0.75
707.563	0.8
707.744	0.72
707.925	0.68
708.106	0.66
708.287	0.76
708.468	0.84
708.649	0.73
708.83	0.77
709.011	0.64
709.192	0.74
709.373	0.63
709.554	0.65
709.734	0.73
709.915	0.72
710.096	0.68
710.277	0.58
710.458	0.74
710.639	0.73
710.819	0.55
711	0.66
711.181	0.77
711.362	0.83
711.542	0.7
711.723	0.69
711.904	0.78
712.085	0.67
712.265	0.66
712.446	0.56
712.627	0.72
712.807	0.67
712.988	0.71
713.168	0.59
713.349	0.67
713.53	0.52
713.71	0.63
713.891	0.54
714.071	0.63
714.252	0.56
714.432	0.59
714.613	0.56
714.793	0.57
714.974	0.77
715.154	0.64
715.334	0.64
715.515	0.74
715.695	0.57
715.876	0.66
716.056	0.57
716.236	0.53
716.417	0.57
716.597	0.53
716.777	0.84
716.957	0.63
717.138	0.69
717.318	0.56
717.498	0.4
717.678	0.63
717.859	0.72
718.039	0.49
718.219	0.61
718.399	0.62
718.579	0.54
718.759	0.54
718.939	0.55
719.12	0.57
719.3	0.63
719.48	0.41
719.66	0.51
719.84	0.65
720.02	0.54
720.2	0.56
720.38	0.54
720.56	0.8
720.74	0.5
720.92	0.58
721.1	0.73
721.279	0.64
721.459	0.57
721.639	0.47
721.819	0.51
721.999	0.56
722.179	0.53
722.359	0.47
722.538	0.54
722.718	0.61
722.898	0.56
723.078	0.56
723.257	0.54
723.437	0.63
723.617	0.57
723.797	0.48
723.976	0.47
724.156	0.62
724.336	0.69
724.515	0.73
724.695	0.39
724.874	0.53
725.054	0.69
725.234	0.46
725.413	0.54
725.593	0.45
725.772	0.61
725.952	0.5
726.131	0.46
726.311	0.54
726.49	0.62
726.67	0.5
726.849	0.45
727.028	0.59
727.208	0.51
727.387	0.56
727.567	0.34
727.746	0.51
727.925	0.45
728.105	0.42
728.284	0.42
728.463	0.43
728.643	0.61
728.822	0.39
729.001	0.44
729.18	0.57
729.359	0.61
729.539	0.5
729.718	0.5
729.897	0.64
730.076	0.42
730.255	0.39
730.434	0.48
730.614	0.47
730.793	0.73
730.972	0.49
731.151	0.53
731.33	0.67
731.509	0.5
731.688	0.5
731.867	0.57
732.046	0.32
732.225	0.78
732.404	0.39
732.583	0.34
732.762	0.53
732.941	0.64
733.12	0.47
733.298	0.38
733.477	0.63
733.656	0.47
733.835	0.39
734.014	0.55
734.193	0.56
734.371	0.57
734.55	0.61
734.729	0.37
734.908	0.52
735.086	0.46
735.265	0.61
735.444	0.35
735.623	0.48
735.801	0.5
735.98	0.54
736.159	0.47
736.337	0.56
736.516	0.5
736.694	0.54
736.873	0.48
737.052	0.75
737.23	0.81
737.409	0.53
737.587	0.74
737.766	0.32
737.944	0.55
738.123	0.46
738.301	0.56
738.479	0.62
738.658	0.54
738.836	0.35
739.015	0.49
739.193	0.62
739.371	0.32
739.55	0.43
739.728	0.45
739.906	0.62
740.085	0.78
740.263	0.55
740.441	0.27
740.62	0.73
740.798	0.58
740.976	0.39
741.154	0.37
741.332	0.72
741.511	0.46
741.689	0.5
741.867	0.57
742.045	0.51
742.223	0.43
742.401	0.32
742.579	0.41
742.757	0.6
742.935	0.35
743.114	0.37
743.292	0.42
743.47	0.56
743.648	0.62
743.826	0.54
744.004	0.55
744.181	0.61
744.359	0.41
744.537	0.56
744.715	0.42
744.893	0.56
745.071	0.49
745.249	0.44
745.427	0.41
745.605	0.55
745.782	0.58
745.96	0.52
746.138	0.61
746.316	0.64
746.493	0.38
746.671	0.41
746.849	0.38
747.027	0.58
747.204	0.39
747.382	0.46
747.56	0.29
747.737	0.5
747.915	0.48
748.093	0.51
748.27	0.35
748.448	0.36
748.625	0.29
748.803	0.35
748.98	0.35
749.158	0.53
749.335	0.51
749.513	0.4
749.69	0.5
749.868	0.48
750.045	0.49
750.223	0.4
750.4	0.16
750.578	0.58
750.755	0.48
750.932	0.26
751.11	0.53
751.287	0.29
751.464	0.67
751.642	0.27
751.819	0.46
751.996	0.48
752.173	0.34
752.351	0.27
752.528	0.37
752.705	0.41
752.882	0.42
753.06	0.45
753.237	0.43
753.414	0.62
753.591	0.65
753.768	0.41
753.945	0.33
754.122	0.4
754.299	0.58
754.476	0.29
754.654	0.41
754.831	0.57
755.008	0.49
755.185	0.41
755.362	0.11
755.539	0.59
755.716	0.41
755.892	0.35
756.069	0.34
756.246	0.48
756.423	0.39
756.6	0.56
756.777	0.36
756.954	0.61
757.131	0.36
757.307	0.29
757.484	0.26
757.661	0.42
757.838	0.54
758.015	0.28
758.191	0.44
758.368	0.5
758.545	0.71
758.721	0.53
758.898	0.22
759.075	0.43
759.251	0.64
759.428	0.46
759.605	0.23
759.781	0.3
759.958	0.5
760.134	0.38
760.311	0.34
760.488	0.49
760.664	0.63
760.841	0.37
761.017	0.17
761.194	0.52
761.37	0.64
761.547	0.45
761.723	0.38
761.899	0.56
762.076	0.4
762.252	0.3
762.429	0.23
762.605	0.51
762.781	0.38
762.958	0.46
763.134	0.38
763.31	0.25
763.486	0.57
763.663	0.04
763.839	0.37
764.015	0.17
764.191	0.31
764.368	0.41
764.544	0.35
764.72	0.51
764.896	0.45
765.072	0.51
765.248	0.38
765.425	0.43
765.601	0.45
765.777	0.28
765.953	0.06
766.129	0.29
766.305	0.25
766.481	0.51
766.657	0.35
766.833	0.57
767.009	0.24
767.185	0.27
767.361	0.32
767.537	0.3
767.713	0.53
767.889	0.27
768.065	0.39
768.24	0.66
768.416	0.56
768.592	0.25
768.768	0.4
768.944	0.54
769.12	0.32
769.295	0.42
769.471	0.26
769.647	0.4
769.823	0.51
769.998	0.26
770.174	0.26
770.35	0.77
770.525	0.78
770.701	0.43
770.877	0.3
771.052	0.33
771.228	0.53
771.403	0.49
771.579	0.31
771.755	0.78
771.93	0.28
772.106	0.31
772.281	0.17
772.457	0.41
772.632	0.43
772.808	0.12
772.983	0.3
773.159	0.21
773.334	0.58
773.509	0.55
773.685	0.22
773.86	0.76
774.036	0.59
774.211	0.49
774.386	0.45
774.562	0.49
774.737	0.56
774.912	0.18
775.087	0.36
775.263	0.31
775.438	0.43
775.613	0.33
775.788	0.49
775.964	0.54
776.139	1.02
776.314	0.12
776.489	0.52
776.664	0.34
776.839	0.1
777.014	0.56
777.19	0.6
777.365	0.61
777.54	0.7
777.715	0.45
777.89	0.33
778.065	0.27
778.24	0.44
778.415	0.49
778.59	0.12
778.765	0.37
778.94	0.54
779.115	0.41
779.289	0.39
779.464	0.5
779.639	0.43
779.814	0.26
779.989	0.18
780.164	0.67
780.339	0.46
780.513	0.21
780.688	0.07
780.863	0.62
781.038	0.68
781.212	0.23
781.387	0.35
781.562	0.8
781.737	0.28
781.911	0.63
782.086	0.22
782.261	0.38
782.435	0.88
782.61	0.48
782.784	0.43
782.959	0.94
783.134	0.26
783.308	0.3
783.483	0.46
783.657	1.16
783.832	0.7
784.006	-0.04
784.181	0.5
784.355	0.69
784.53	0.44
784.704	0.22
784.878	0.66
785.053	0.58
785.227	0.72
785.402	0.92
785.576	0.19
785.75	0.21
785.925	0.32
786.099	0.51
786.273	0.53
786.448	0.68
786.622	0.63
786.796	0.44
786.97	0.32
787.145	1.18
787.319	-0.03
787.493	0.2
787.667	0.04
787.841	0.56
788.015	0.8
788.19	0.29
788.364	0.58
788.538	0.78
788.712	0.75
788.886	0.38
789.06	0.66
789.234	0.72
789.408	0.11
789.582	0.34
789.756	0.42
789.93	0.31
790.104	0.35
790.278	0.61
790.452	0.23
790.626	0.55
790.8	0.41
790.973	0.63
791.147	0.83
791.321	1.11
791.495	0.84
791.669	0.62
791.843	0.51
792.016	0.67
792.19	1.02
792.364	0.31
792.538	0.98
792.711	0.75
792.885	0.63
793.059	0.15
793.233	-0.2
793.406	0.59
793.58	0.48
793.754	0.76
793.927	0.25
794.101	0.86
794.274	0.47
794.448	0.61
794.622	0.13
794.795	0.97
794.969	0.25
795.142	0.72
795.316	0.45
795.489	0.36
795.663	1.19
795.836	0.43
796.009	0.17
796.183	1.11
796.356	0.56
796.53	0.6
796.703	0.53
796.876	1.17
797.05	0.44
797.223	0.36
797.396	0.31
797.57	0.45
797.743	0.9
797.916	0.57
798.09	0.55
798.263	1.03
798.436	0.73
798.609	0.41
798.782	0.39
798.956	0.69
799.129	0.51
799.302	0.36
799.475	0.32
799.648	0.54
799.821	0.12
799.994	0.37
800.167	0.05
800.34	0.63
800.514	0.44
800.687	0.43
800.86	0.4
801.033	0.8
801.206	0.66
801.379	0.39
801.551	0.87
801.724	0.85
801.897	1.18
802.07	0.4
802.243	0.08
802.416	0.67
802.589	0.5
802.762	0.69
802.935	0.6
803.107	0.8
803.28	1.28
803.453	0.39
803.626	0.56
803.798	0.5
803.971	0.52
804.144	0.65
804.317	0.78
804.489	1.04
804.662	0.53
804.835	0.43
805.007	0.46
805.18	1.25
805.353	0.73
805.525	0.23
805.698	0.31
805.87	1.12
806.043	1.02
806.215	-0.05
806.388	0.2
806.56	0.71
806.733	0.83
806.905	0.44
807.078	0.61
807.25	0.22
807.423	0.91
807.595	0.67
807.768	0.59
807.94	0.83
808.112	0.96
808.285	0.91
808.457	0.35
808.629	0.62
808.802	0.81
808.974	0.85
809.146	0.21
809.318	0.54
809.491	0.76
809.663	0.68
809.835	0.5
810.007	0.64
810.18	1.04
810.352	0.12
810.524	0.27
810.696	1.1
810.868	1.24
811.04	0.26
811.212	0.33
811.384	0.99
811.556	0.87
811.728	0.19
811.901	1.44
812.073	0.76
812.245	1.12
812.417	0.76
812.589	0.03
812.76	0.83
812.932	1.31
813.104	1.01
813.276	0.48
813.448	0.74
813.62	0.81
813.792	0.58
813.964	0.18
814.136	1.05
814.307	0.62
814.479	0.25
814.651	0.7
814.823	1.33
814.995	0.28
815.166	0.91
815.338	0.61
815.51	0.39
815.681	1.76
815.853	1.01
816.025	0.51
816.196	1.67
816.368	1.24
816.54	0.29
816.711	0.07
816.883	1.4
817.054	1.88
817.226	0.17
817.398	0.95
817.569	0.09
817.741	0.48
817.912	0.49
818.084	0.57
818.255	1.46
818.426	0.24
818.598	0.31
818.769	0.28
818.941	0.89
819.112	2.07
819.283	0.97
819.455	0.47
819.626	0.74
819.798	1.17
819.969	0.92
820.14	0.62
820.311	0.45
820.483	0.97
820.654	0.61
820.825	0.69
820.996	0.61
821.168	0.24
821.339	0.65
821.51	0.14
821.681	0.55
821.852	1.29
822.023	0.52
822.195	0.5
822.366	1.35
822.537	0.71
822.708	0.85
822.879	0.57
823.05	1.83
823.221	0.55
823.392	1.03
823.563	0.89
823.734	0.69
823.905	1.05
824.076	0.76
824.247	0.56
824.418	0.72
824.589	2.06
824.759	0.79
824.93	0.58
825.101	0.18
825.272	1.75
825.443	1.7
825.614	1.33
825.784	0.11
825.955	2.71
826.126	1.75
826.297	1.02
826.467	1.95
826.638	2.17
826.809	0.33
826.98	0.86
827.15	1.65
827.321	0.9
827.492	1.68
827.662	0.45
827.833	2.88
828.003	1.21
828.174	-0.12
828.345	0.1
828.515	2.2
828.686	0.85
828.856	0.45
829.027	0.64
829.197	0.79
829.368	1.26
829.538	0.5
829.709	0.91
829.879	1.26
830.049	1.09
830.22	0.56
830.39	0.85
830.56	1.79
830.731	0.82
830.901	0.42
831.072	0.47
831.242	0.87
831.412	1.36
831.582	0.76
831.753	-0.41
831.923	2
832.093	2.12
832.263	1
832.434	-0
832.604	1.3
832.774	1.17
832.944	0.61
833.114	0.13
833.284	1.59
833.454	0.73
833.624	0.23
833.795	1.01
833.965	1.63
834.135	2.28
834.305	-0.73
834.475	-0.44
834.645	1.32
834.815	0.9
834.985	0.39
835.155	0.08
835.325	1.98
835.494	1.61
835.664	0.17
835.834	-0.29
836.004	1.15
836.174	1.96
836.344	0.41
836.514	0.09
836.684	0.53
836.853	0.6
837.023	1.28
837.193	-0.13
837.363	2.41
837.532	2.07
837.702	1
837.872	0.42
838.041	1.57
838.211	3.14
838.381	0.14
838.55	0.45
838.72	3.35
838.89	2.13
839.059	0.24
839.229	-0.24
839.398	3.5
839.568	1.01
839.738	0.59
839.907	2.9
840.077	1.5
840.246	0.38
840.416	0.55
840.585	0.25
840.755	3.03
840.924	2.39
841.093	0.12
841.263	0.72
841.432	1.98
841.602	0.59
841.771	0.54
841.94	0.86
842.11	3.18
842.279	3.11
842.448	0.23
842.617	-0.1
842.787	2.76
842.956	0.05
843.125	0.94
843.294	0.66
843.464	2.54
843.633	2.15
843.802	0.14
843.971	1.1
844.14	2.44
844.309	2.65
844.479	-0.75
844.648	0.2
844.817	1.01
844.986	1.93
845.155	0.45
845.324	0.71
845.493	1.39
845.662	0.33
845.831	2.14
846	2.13
846.169	0.93
846.338	2.27
846.507	1.22
846.676	1.69
846.844	1.03
847.013	1.6
847.182	1.31
847.351	-0.27
847.52	0.95
847.689	1.85
847.858	0.58
848.026	0.36
848.195	1.59
848.364	0.55
848.533	0.45
848.701	-0.2
848.87	1.32
849.039	3.03
849.207	1.53
849.376	3.23
849.545	3.42
849.713	0.96
849.882	0.43
850.051	0.49
850.219	0.71
850.388	3.47
850.556	1.55
850.725	0.15
850.893	1.53
851.062	2.18
851.23	1.81
851.399	-0.26
851.567	1.49
851.736	1.12
851.904	0.51
852.073	1.18
852.241	3.09
852.41	2.2
852.578	0.7
852.746	1.26
852.915	2.98
853.083	1.93
853.251	0.04
853.42	1.79
853.588	2.12
853.756	3.38
853.924	1.58
854.093	1.8
854.261	1.39
854.429	-0.33
854.597	1.73
854.765	0.14
854.934	2.59
855.102	2.08
855.27	0.73
855.438	2.62
855.606	3.23
855.774	4.49
855.942	-1.07
856.11	0.53
856.278	2.55
856.446	2.27
856.614	1.41
856.782	-0.07
856.95	2.44
857.118	2.25
857.286	2.55
857.454	1.21
857.622	3.2
857.79	2.88
857.958	-0.05
858.126	0.96
858.294	-1.1
858.462	2.14
858.629	0.77
858.797	1.73
858.965	3.49
859.133	1.61
859.301	0.75
859.468	2.04
859.636	2
859.804	4.89
859.971	1.78
860.139	0.18
860.307	4.4
860.474	2.51
860.642	1.21
860.81	0.86
860.977	0.95
861.145	3.25
861.313	1.53
861.48	1.6
861.648	3.96
861.815	2.51
861.983	-1.36
862.15	0.95
862.318	3.28
862.485	3.41
862.653	0.78
862.82	0.55
862.988	3.46
863.155	3.68
863.322	1.23
863.49	-0.31
863.657	1.56
863.824	4.48
863.992	1.2
864.159	1.91
864.326	4.42
864.494	1.85
864.661	4.45
864.828	-0.05
864.996	4.57
865.163	4.33
865.33	0.56
865.497	-0.35
865.664	0.79
865.832	0.24
865.999	0.98
866.166	-0.21
866.333	1.29
866.5	2.3
866.667	1.92
866.834	2.02
867.001	5.25
867.168	-0.15
867.335	0.92
867.502	0.44
867.669	1.39
867.836	5.94
868.003	0.53
868.17	4
868.337	5.53
868.504	5.64
868.671	-2.44
868.838	-0.02
869.005	4.18
869.172	2.16
869.339	1.78
869.505	0.01
869.672	3.08
869.839	4.83
870.006	2.64
870.173	1.34
870.339	3.34
870.506	6.15
870.673	-0.26
870.84	2.58
871.006	1.85
871.173	2.67
871.34	1.31
871.506	-0.02
871.673	2.56
871.839	1.06
872.006	1.35
872.173	0.74
872.339	2.6
872.506	4.75
872.672	2.52
872.839	0.13
873.005	2.38
873.172	6.26
873.338	4.83
873.505	1.82
873.671	5.77
873.838	2.71
874.004	-1.25
874.171	1.33
874.337	4.43
874.503	4.6
874.67	1.05
874.836	1.48
875.002	5.15
875.169	5.24
875.335	1.08
875.501	2.26
875.668	3.27
875.834	1.82
876	3.04
876.166	4.11
876.332	3.24
876.499	6.64
876.665	1.92
876.831	2.41
876.997	7.46
877.163	3.34
877.329	0.53
877.495	2.56
877.662	4.21
877.828	2.28
877.994	2
878.16	-1.83
878.326	0.86
878.492	2.09
878.658	-0.41
878.824	3.28
878.99	1.85
879.156	1.8
879.322	5.67
879.487	0.99
879.653	2.76
879.819	3.76
879.985	0.29
880.151	2.29
880.317	3.14
880.483	3.26
880.648	3.95
880.814	-0.68
880.98	5.86
881.146	-0.64
881.312	0.48
881.477	1.27
881.643	3.17
881.809	3.37
881.974	5.34
882.14	-0.53
882.306	2.16
882.471	5.83
882.637	0.92
882.803	1.62
882.968	5.77
883.134	5.77
883.299	1.85
883.465	2.68
883.63	4.45
883.796	3.22
883.961	3.57
884.127	2.39
884.292	-1.47
884.458	-0.3
884.623	-0.3
