Data from Apollo_Calib_20240827__AbsoluteIrradiance__862__13-31-00-397.txt Node

Date: Wed Aug 28 13:31:00 BST 2024
User: biology
Spectrometer: FLMT08252
Trigger mode: 0
Integration Time (sec): 5.000000E-1
Scans to average: 5
Electric dark correction enabled: true
Nonlinearity correction enabled: false
Boxcar width: 0
XAxis mode: Wavelengths
Number of Pixels in Spectrum: 3648
>>>>>Begin Spectral Data<<<<<
179.588	-0
179.809	-0
180.03	-0
180.251	-0
180.473	-0
180.694	0
180.915	0
181.136	-0
181.357	-0
181.578	-0
181.799	0
182.02	-0
182.241	-0
182.462	-0
182.683	0
182.904	-0
183.125	-0
183.346	0
183.567	0
183.788	0
184.009	0
184.23	0
184.451	0
184.672	0
184.892	0
185.113	0
185.334	0
185.555	0
185.776	0
185.996	0
186.217	0
186.438	0
186.659	0
186.879	0
187.1	0
187.321	0
187.541	0
187.762	0
187.983	0
188.203	0
188.424	0
188.644	0
188.865	0
189.086	0
189.306	0
189.527	0
189.747	0
189.968	0
190.188	0
190.409	0
190.629	0
190.849	0
191.07	0
191.29	0
191.511	0
191.731	0
191.951	0
192.172	0
192.392	0
192.612	0
192.833	0
193.053	0
193.273	0
193.493	0
193.714	0
193.934	0
194.154	0
194.374	0
194.594	0
194.815	0
195.035	0
195.255	0
195.475	0
195.695	0
195.915	0
196.135	0
196.355	0
196.575	0
196.795	0
197.015	0
197.235	0
197.455	0
197.675	0
197.895	0
198.115	0
198.335	0
198.555	0
198.775	0
198.995	0
199.214	0
199.434	0
199.654	0
199.874	0
200.094	4.4
200.313	2.12
200.533	2.24
200.753	1.45
200.973	4.05
201.192	3.3
201.412	1.55
201.632	2.39
201.851	3.6
202.071	1.75
202.291	1.26
202.51	1.25
202.73	2.86
202.95	1.86
203.169	1.11
203.389	1.88
203.608	2.41
203.828	1.65
204.047	1.24
204.267	1.91
204.486	1.79
204.706	2.35
204.925	1.67
205.145	1.54
205.364	2.49
205.583	2.81
205.803	1.2
206.022	1.33
206.242	1.94
206.461	2
206.68	1.45
206.9	1.68
207.119	2.76
207.338	2.58
207.557	1.19
207.777	1.31
207.996	1.42
208.215	2.21
208.434	0.89
208.654	0.96
208.873	1.53
209.092	2.18
209.311	1.19
209.53	1.42
209.749	1.3
209.968	1.17
210.187	1.19
210.407	0.71
210.626	1.37
210.845	1.4
211.064	1.13
211.283	0.91
211.502	1.61
211.721	1.1
211.94	0.97
212.159	1.36
212.377	1.74
212.596	1.81
212.815	1.52
213.034	1.35
213.253	1.37
213.472	1.34
213.691	1.09
213.91	0.75
214.128	0.8
214.347	1.49
214.566	0.58
214.785	0.56
215.003	1.36
215.222	1.3
215.441	0.98
215.66	0.51
215.878	0.94
216.097	1.28
216.316	0.6
216.534	0.72
216.753	1.01
216.972	0.78
217.19	0.85
217.409	0.62
217.627	0.78
217.846	0.94
218.064	1.05
218.283	0.7
218.501	1.34
218.72	1.2
218.938	0.66
219.157	0.58
219.375	1.11
219.594	1.19
219.812	0.54
220.031	0.52
220.249	1.21
220.467	1.2
220.686	0.61
220.904	0.67
221.122	0.75
221.341	1.47
221.559	0.74
221.777	0.43
221.995	0.8
222.214	1.03
222.432	0.62
222.65	0.74
222.868	0.68
223.086	0.71
223.305	0.87
223.523	0.61
223.741	1.21
223.959	0.72
224.177	0.41
224.395	0.44
224.613	0.74
224.831	0.86
225.049	0.59
225.267	0.63
225.485	0.78
225.703	0.67
225.921	0.48
226.139	0.48
226.357	0.75
226.575	0.94
226.793	0.51
227.011	1.57
227.229	0.84
227.447	1.06
227.665	0.59
227.883	0.3
228.1	0.62
228.318	0.84
228.536	0.3
228.754	0.51
228.972	0.8
229.189	0.8
229.407	0.52
229.625	0.6
229.843	0.9
230.06	0.84
230.278	0.53
230.496	0.62
230.713	0.71
230.931	0.88
231.149	0.5
231.366	0.33
231.584	0.61
231.801	1.07
232.019	0.41
232.236	0.31
232.454	0.49
232.671	0.74
232.889	0.44
233.106	0.41
233.324	0.64
233.541	0.5
233.759	0.51
233.976	0.34
234.194	0.51
234.411	0.65
234.628	0.36
234.846	0.52
235.063	0.45
235.28	0.57
235.498	0.67
235.715	0.38
235.932	0.77
236.149	0.65
236.367	0.38
236.584	0.5
236.801	0.51
237.018	0.62
237.236	0.6
237.453	0.31
237.67	0.6
237.887	0.48
238.104	0.51
238.321	0.33
238.538	0.46
238.755	0.77
238.973	0.29
239.19	0.49
239.407	0.69
239.624	0.58
239.841	0.42
240.058	0.41
240.275	0.58
240.492	0.47
240.709	0.44
240.925	0.39
241.142	0.56
241.359	0.36
241.576	0.32
241.793	0.36
242.01	0.51
242.227	0.66
242.444	0.57
242.66	0.55
242.877	0.48
243.094	0.49
243.311	0.41
243.527	0.4
243.744	0.66
243.961	0.6
244.178	0.3
244.394	0.44
244.611	0.56
244.828	0.67
245.044	0.3
245.261	0.37
245.477	0.5
245.694	0.57
245.911	0.39
246.127	0.42
246.344	0.67
246.56	0.52
246.777	0.4
246.993	0.46
247.21	0.55
247.426	0.43
247.643	0.38
247.859	0.48
248.076	0.33
248.292	0.77
248.508	0.31
248.725	0.43
248.941	0.54
249.157	0.63
249.374	0.41
249.59	0.48
249.806	0.44
250.023	0.66
250.239	0.29
250.455	0.4
250.671	0.48
250.888	0.46
251.104	0.56
251.32	0.35
251.536	0.46
251.752	0.41
251.969	0.46
252.185	0.48
252.401	0.58
252.617	0.47
252.833	0.31
253.049	0.45
253.265	0.47
253.481	0.41
253.697	0.35
253.913	0.3
254.129	0.48
254.345	0.45
254.561	0.35
254.777	0.26
254.993	0.56
255.209	0.49
255.425	0.34
255.641	0.25
255.857	0.52
256.073	0.44
256.288	0.25
256.504	0.24
256.72	0.43
256.936	0.59
257.152	0.36
257.367	0.28
257.583	0.45
257.799	0.56
258.015	0.31
258.23	0.35
258.446	0.6
258.662	0.43
258.877	0.28
259.093	0.33
259.309	0.44
259.524	0.45
259.74	0.24
259.955	0.28
260.171	0.43
260.387	0.47
260.602	0.44
260.818	0.43
261.033	0.28
261.249	0.43
261.464	0.33
261.68	0.23
261.895	0.47
262.11	0.51
262.326	0.33
262.541	0.25
262.757	0.47
262.972	0.45
263.187	0.37
263.403	0.42
263.618	0.46
263.833	0.42
264.049	0.32
264.264	0.29
264.479	0.36
264.694	0.57
264.91	0.27
265.125	0.35
265.34	0.47
265.555	0.6
265.77	0.37
265.986	0.25
266.201	0.5
266.416	0.43
266.631	0.31
266.846	0.26
267.061	0.47
267.276	0.42
267.491	0.25
267.706	0.39
267.921	0.43
268.136	0.41
268.351	0.35
268.566	0.26
268.781	0.47
268.996	0.49
269.211	0.34
269.426	0.26
269.641	0.33
269.856	0.44
270.071	0.27
270.285	0.21
270.5	0.48
270.715	0.5
270.93	0.3
271.145	0.44
271.359	0.43
271.574	0.31
271.789	0.31
272.004	0.29
272.218	0.37
272.433	0.41
272.648	0.34
272.862	0.4
273.077	0.39
273.292	0.38
273.506	0.28
273.721	0.36
273.936	0.38
274.15	0.41
274.365	0.28
274.579	0.39
274.794	0.39
275.008	0.47
275.223	0.22
275.437	0.3
275.652	0.45
275.866	0.37
276.081	0.3
276.295	0.37
276.509	0.32
276.724	0.34
276.938	0.31
277.153	0.33
277.367	0.36
277.581	0.29
277.796	0.28
278.01	0.21
278.224	0.42
278.438	0.49
278.653	0.23
278.867	0.23
279.081	0.21
279.295	0.34
279.51	0.28
279.724	0.26
279.938	0.35
280.152	0.42
280.366	0.23
280.58	0.37
280.794	0.46
281.008	0.39
281.222	0.39
281.437	0.52
281.651	0.36
281.865	0.4
282.079	0.27
282.293	0.17
282.507	0.27
282.721	0.27
282.935	0.28
283.148	0.2
283.362	0.33
283.576	0.29
283.79	0.29
284.004	0.23
284.218	0.39
284.432	0.29
284.646	0.28
284.859	0.29
285.073	0.28
285.287	0.35
285.501	0.27
285.714	0.28
285.928	0.35
286.142	0.36
286.356	0.33
286.569	0.24
286.783	0.4
286.997	0.38
287.21	0.26
287.424	0.3
287.637	0.27
287.851	0.29
288.065	0.39
288.278	0.25
288.492	0.3
288.705	0.29
288.919	0.35
289.132	0.19
289.346	0.37
289.559	0.25
289.773	0.19
289.986	0.31
290.2	0.25
290.413	0.4
290.626	0.29
290.84	0.24
291.053	0.27
291.267	0.4
291.48	0.24
291.693	0.3
291.906	0.24
292.12	0.32
292.333	0.22
292.546	0.21
292.76	0.39
292.973	0.31
293.186	0.34
293.399	0.24
293.612	0.35
293.826	0.31
294.039	0.27
294.252	0.25
294.465	0.36
294.678	0.31
294.891	0.31
295.104	0.21
295.317	0.28
295.53	0.32
295.743	0.27
295.956	0.27
296.169	0.36
296.382	0.35
296.595	0.25
296.808	0.22
297.021	0.4
297.234	0.38
297.447	0.29
297.66	0.26
297.873	0.34
298.086	0.34
298.299	0.2
298.511	0.22
298.724	0.3
298.937	0.24
299.15	0.24
299.363	0.23
299.575	0.36
299.788	0.3
300.001	0.24
300.213	0.24
300.426	0.28
300.639	0.22
300.852	0.22
301.064	0.32
301.277	0.4
301.489	0.33
301.702	0.3
301.915	0.27
302.127	0.3
302.34	0.33
302.552	0.28
302.765	0.2
302.977	0.3
303.19	0.21
303.402	0.25
303.615	0.24
303.827	0.3
304.04	0.25
304.252	0.32
304.464	0.25
304.677	0.42
304.889	0.3
305.102	0.27
305.314	0.22
305.526	0.3
305.739	0.33
305.951	0.21
306.163	0.26
306.375	0.39
306.588	0.31
306.8	0.22
307.012	0.15
307.224	0.25
307.436	0.33
307.649	0.2
307.861	0.25
308.073	0.31
308.285	0.28
308.497	0.17
308.709	0.22
308.921	0.33
309.133	0.37
309.346	0.21
309.558	0.22
309.77	0.35
309.982	0.4
310.194	0.31
310.406	0.19
310.617	0.4
310.829	0.3
311.041	0.34
311.253	0.22
311.465	0.24
311.677	0.29
311.889	0.29
312.101	0.22
312.313	0.31
312.524	0.38
312.736	0.17
312.948	0.26
313.16	0.37
313.372	0.33
313.583	0.3
313.795	0.26
314.007	0.29
314.218	0.34
314.43	0.26
314.642	0.27
314.853	0.16
315.065	0.33
315.277	0.25
315.488	0.29
315.7	0.33
315.912	0.28
316.123	0.24
316.335	0.21
316.546	0.42
316.758	0.24
316.969	0.27
317.181	0.26
317.392	0.32
317.604	0.38
317.815	0.17
318.026	0.24
318.238	0.25
318.449	0.34
318.661	0.18
318.872	0.2
319.083	0.21
319.295	0.28
319.506	0.2
319.717	0.23
319.929	0.27
320.14	0.26
320.351	0.25
320.562	0.22
320.774	0.29
320.985	0.29
321.196	0.24
321.407	0.15
321.618	0.32
321.829	0.3
322.041	0.3
322.252	0.25
322.463	0.29
322.674	0.3
322.885	0.21
323.096	0.23
323.307	0.26
323.518	0.28
323.729	0.27
323.94	0.23
324.151	0.24
324.362	0.32
324.573	0.24
324.784	0.21
324.995	0.33
325.206	0.29
325.417	0.23
325.628	0.2
325.838	0.25
326.049	0.26
326.26	0.24
326.471	0.18
326.682	0.32
326.892	0.24
327.103	0.21
327.314	0.27
327.525	0.35
327.735	0.28
327.946	0.23
328.157	0.2
328.368	0.36
328.578	0.3
328.789	0.3
328.999	0.27
329.21	0.22
329.421	0.3
329.631	0.27
329.842	0.21
330.052	0.27
330.263	0.33
330.473	0.33
330.684	0.22
330.894	0.26
331.105	0.27
331.315	0.3
331.526	0.2
331.736	0.35
331.947	0.3
332.157	0.28
332.367	0.22
332.578	0.31
332.788	0.35
332.999	0.31
333.209	0.26
333.419	0.19
333.629	0.3
333.84	0.29
334.05	0.25
334.26	0.38
334.47	0.27
334.681	0.3
334.891	0.21
335.101	0.34
335.311	0.37
335.521	0.27
335.732	0.25
335.942	0.31
336.152	0.26
336.362	0.27
336.572	0.28
336.782	0.33
336.992	0.25
337.202	0.24
337.412	0.25
337.622	0.33
337.832	0.26
338.042	0.26
338.252	0.22
338.462	0.26
338.672	0.29
338.882	0.22
339.092	0.26
339.302	0.39
339.511	0.29
339.721	0.25
339.931	0.2
340.141	0.32
340.351	0.37
340.561	0.29
340.77	0.33
340.98	0.32
341.19	0.27
341.4	0.23
341.609	0.19
341.819	0.26
342.029	0.18
342.238	0.29
342.448	0.25
342.658	0.34
342.867	0.24
343.077	0.28
343.286	0.23
343.496	0.28
343.706	0.31
343.915	0.23
344.125	0.26
344.334	0.24
344.544	0.17
344.753	0.22
344.963	0.16
345.172	0.2
345.381	0.24
345.591	0.23
345.8	0.25
346.01	0.3
346.219	0.33
346.428	0.1
346.638	0.23
346.847	0.26
347.056	0.32
347.266	0.23
347.475	0.26
347.684	0.37
347.893	0.3
348.103	0.3
348.312	0.2
348.521	0.26
348.73	0.3
348.94	0.25
349.149	0.23
349.358	0.23
349.567	0.23
349.776	0.19
349.985	0.24
350.194	0.33
350.403	0.33
350.612	0.16
350.821	0.2
351.03	0.3
351.239	0.2
351.448	0.25
351.657	0.27
351.866	0.38
352.075	0.28
352.284	0.32
352.493	0.2
352.702	0.29
352.911	0.28
353.12	0.28
353.329	0.25
353.538	0.26
353.746	0.29
353.955	0.23
354.164	0.28
354.373	0.24
354.582	0.32
354.79	0.26
354.999	0.29
355.208	0.25
355.416	0.37
355.625	0.2
355.834	0.26
356.042	0.29
356.251	0.22
356.46	0.17
356.668	0.26
356.877	0.4
357.085	0.33
357.294	0.16
357.503	0.29
357.711	0.28
357.92	0.41
358.128	0.29
358.337	0.2
358.545	0.24
358.754	0.21
358.962	0.31
359.17	0.22
359.379	0.29
359.587	0.3
359.796	0.24
360.004	0.27
360.212	0.28
360.421	0.32
360.629	0.25
360.837	0.23
361.046	0.33
361.254	0.45
361.462	0.25
361.67	0.2
361.879	0.28
362.087	0.31
362.295	0.27
362.503	0.23
362.711	0.21
362.92	0.25
363.128	0.23
363.336	0.19
363.544	0.21
363.752	0.29
363.96	0.21
364.168	0.2
364.376	0.24
364.584	0.27
364.792	0.37
365	0.26
365.208	0.27
365.416	0.28
365.624	0.3
365.832	0.23
366.04	0.34
366.248	0.28
366.456	0.26
366.664	0.26
366.872	0.29
367.079	0.21
367.287	0.24
367.495	0.24
367.703	0.27
367.911	0.27
368.118	0.24
368.326	0.23
368.534	0.22
368.742	0.36
368.949	0.19
369.157	0.23
369.365	0.29
369.572	0.24
369.78	0.19
369.988	0.28
370.195	0.31
370.403	0.32
370.61	0.22
370.818	0.23
371.026	0.36
371.233	0.27
371.441	0.28
371.648	0.22
371.856	0.28
372.063	0.3
372.271	0.24
372.478	0.21
372.685	0.23
372.893	0.32
373.1	0.3
373.308	0.25
373.515	0.37
373.722	0.36
373.93	0.24
374.137	0.28
374.344	0.36
374.552	0.33
374.759	0.27
374.966	0.29
375.173	0.22
375.381	0.33
375.588	0.3
375.795	0.21
376.002	0.25
376.209	0.23
376.417	0.23
376.624	0.3
376.831	0.3
377.038	0.24
377.245	0.16
377.452	0.2
377.659	0.27
377.866	0.25
378.073	0.27
378.28	0.25
378.487	0.36
378.694	0.31
378.901	0.27
379.108	0.23
379.315	0.36
379.522	0.4
379.729	0.3
379.936	0.27
380.143	0.3
380.35	0.3
380.557	0.25
380.763	0.27
380.97	0.27
381.177	0.29
381.384	0.31
381.591	0.24
381.797	0.27
382.004	0.32
382.211	0.32
382.418	0.21
382.624	0.36
382.831	0.32
383.038	0.3
383.244	0.29
383.451	0.27
383.658	0.36
383.864	0.26
384.071	0.23
384.277	0.38
384.484	0.28
384.69	0.36
384.897	0.27
385.103	0.25
385.31	0.22
385.516	0.25
385.723	0.25
385.929	0.29
386.136	0.3
386.342	0.33
386.549	0.26
386.755	0.41
386.961	0.34
387.168	0.25
387.374	0.25
387.58	0.35
387.787	0.28
387.993	0.31
388.199	0.25
388.406	0.24
388.612	0.27
388.818	0.31
389.024	0.26
389.231	0.27
389.437	0.44
389.643	0.29
389.849	0.3
390.055	0.32
390.261	0.31
390.467	0.31
390.674	0.29
390.88	0.3
391.086	0.34
391.292	0.26
391.498	0.34
391.704	0.36
391.91	0.33
392.116	0.3
392.322	0.21
392.528	0.32
392.734	0.3
392.94	0.29
393.146	0.25
393.352	0.33
393.557	0.32
393.763	0.3
393.969	0.39
394.175	0.32
394.381	0.34
394.587	0.24
394.792	0.31
394.998	0.39
395.204	0.39
395.41	0.26
395.615	0.34
395.821	0.38
396.027	0.38
396.233	0.32
396.438	0.4
396.644	0.42
396.85	0.35
397.055	0.34
397.261	0.33
397.466	0.44
397.672	0.38
397.878	0.4
398.083	0.43
398.289	0.33
398.494	0.38
398.7	0.37
398.905	0.22
399.111	0.44
399.316	0.31
399.522	0.39
399.727	0.33
399.932	0.36
400.138	0.37
400.343	0.39
400.549	0.37
400.754	0.4
400.959	0.36
401.165	0.35
401.37	0.36
401.575	0.5
401.78	0.4
401.986	0.42
402.191	0.39
402.396	0.4
402.601	0.46
402.807	0.42
403.012	0.4
403.217	0.46
403.422	0.42
403.627	0.4
403.832	0.36
404.037	0.43
404.243	0.46
404.448	0.42
404.653	0.43
404.858	0.45
405.063	0.52
405.268	0.44
405.473	0.4
405.678	0.43
405.883	0.72
406.088	0.59
406.293	0.38
406.498	0.5
406.703	0.51
406.907	0.49
407.112	0.43
407.317	0.53
407.522	0.57
407.727	0.49
407.932	0.58
408.136	0.69
408.341	0.55
408.546	0.61
408.751	0.56
408.956	0.59
409.16	0.69
409.365	0.59
409.57	0.61
409.774	0.66
409.979	0.7
410.184	0.69
410.388	0.59
410.593	0.78
410.798	0.8
411.002	0.72
411.207	0.81
411.411	0.8
411.616	0.71
411.82	0.81
412.025	0.85
412.229	0.85
412.434	1
412.638	0.9
412.843	0.9
413.047	0.99
413.252	1
413.456	1.04
413.66	1.06
413.865	1.12
414.069	1.19
414.273	1.11
414.478	1.11
414.682	1.17
414.886	1.26
415.091	1.22
415.295	1.23
415.499	1.44
415.703	1.39
415.908	1.47
416.112	1.38
416.316	1.57
416.52	1.6
416.724	1.55
416.929	1.66
417.133	1.89
417.337	1.7
417.541	1.81
417.745	1.77
417.949	2.02
418.153	2.05
418.357	2.06
418.561	2.26
418.765	2.19
418.969	2.4
419.173	2.42
419.377	2.47
419.581	2.73
419.785	2.66
419.989	2.64
420.193	2.82
420.397	2.92
420.601	3
420.804	3.16
421.008	3.09
421.212	3.31
421.416	3.33
421.62	3.26
421.823	3.33
422.027	3.52
422.231	3.57
422.435	3.56
422.638	3.52
422.842	3.69
423.046	3.69
423.249	3.94
423.453	3.98
423.657	4.17
423.86	4.22
424.064	4.31
424.268	4.57
424.471	4.49
424.675	4.68
424.878	4.8
425.082	4.96
425.285	5.2
425.489	5.09
425.692	5.26
425.896	5.27
426.099	5.46
426.303	5.55
426.506	5.69
426.71	6.02
426.913	6.22
427.116	6.36
427.32	6.28
427.523	6.43
427.726	6.71
427.93	6.85
428.133	7.06
428.336	7.32
428.54	7.38
428.743	7.69
428.946	7.95
429.149	7.95
429.353	7.93
429.556	8.01
429.759	8.09
429.962	8.13
430.165	8.29
430.368	8.02
430.571	8.07
430.775	8.09
430.978	8
431.181	8.09
431.384	8.21
431.587	8.35
431.79	8.77
431.993	8.53
432.196	8.99
432.399	9.36
432.602	9.48
432.805	9.5
433.008	10.1
433.211	9.91
433.414	10.29
433.616	10.48
433.819	10.26
434.022	10.42
434.225	10.65
434.428	10.63
434.631	11.17
434.833	10.84
435.036	11.12
435.239	11.3
435.442	11.4
435.645	11.56
435.847	11.64
436.05	11.93
436.253	12.14
436.455	12.23
436.658	12.01
436.861	12.34
437.063	12.57
437.266	12.45
437.468	12.84
437.671	13.2
437.874	13.17
438.076	12.93
438.279	13.47
438.481	13.49
438.684	14.14
438.886	13.91
439.089	14.05
439.291	14.19
439.494	14.57
439.696	14.66
439.899	15.27
440.101	15.65
440.303	15.9
440.506	16.53
440.708	16.22
440.91	16.54
441.113	16.84
441.315	16.92
441.517	16.74
441.72	17.22
441.922	16.88
442.124	16.71
442.326	17.21
442.529	17.49
442.731	17.44
442.933	17.69
443.135	17.4
443.337	17.54
443.539	17.92
443.742	17.63
443.944	18.48
444.146	18.22
444.348	18.07
444.55	18.06
444.752	18.16
444.954	17.97
445.156	18.17
445.358	18.38
445.56	18.71
445.762	18.55
445.964	18.96
446.166	18.59
446.368	18.56
446.57	18.56
446.772	18.2
446.974	18.04
447.175	18.36
447.377	18.06
447.579	18.34
447.781	18.04
447.983	17.93
448.184	17.32
448.386	17.68
448.588	17.26
448.79	17.2
448.991	17.42
449.193	17.38
449.395	16.8
449.597	16.35
449.798	16.4
450	15.98
450.202	15.82
450.403	15.91
450.605	15.72
450.806	15.37
451.008	15.2
451.21	15.01
451.411	14.52
451.613	13.75
451.814	14.06
452.016	14.05
452.217	13.19
452.419	13.22
452.62	12.91
452.821	12.73
453.023	12.56
453.224	12.24
453.426	11.83
453.627	11.05
453.828	11.19
454.03	11.21
454.231	11.24
454.432	10.99
454.634	10.84
454.835	10.44
455.036	10.4
455.238	10.01
455.439	9.87
455.64	9.51
455.841	9.39
456.042	9.34
456.244	9.09
456.445	8.79
456.646	8.57
456.847	8.49
457.048	8.51
457.249	8.4
457.45	8.27
457.651	7.81
457.852	7.64
458.054	7.27
458.255	7.14
458.456	7.3
458.657	7.17
458.858	6.62
459.058	6.68
459.259	6.76
459.46	6.44
459.661	6.42
459.862	6.5
460.063	6.42
460.264	6.27
460.465	5.99
460.666	6.08
460.866	5.76
461.067	5.53
461.268	5.47
461.469	5.48
461.67	5.43
461.87	5.28
462.071	5.26
462.272	5.14
462.473	5.09
462.673	5.28
462.874	5.19
463.075	5.16
463.275	5.1
463.476	5.22
463.676	5.09
463.877	4.92
464.078	5.01
464.278	5.07
464.479	4.86
464.679	4.74
464.88	4.69
465.08	4.71
465.281	4.54
465.481	4.26
465.682	4.16
465.882	4.27
466.083	4.14
466.283	4.06
466.483	3.93
466.684	3.77
466.884	3.63
467.085	3.71
467.285	3.77
467.485	3.61
467.686	3.53
467.886	3.42
468.086	3.37
468.286	3.37
468.487	3.5
468.687	3.19
468.887	3.25
469.087	3.38
469.287	3.31
469.488	3.09
469.688	3.23
469.888	3.19
470.088	3.17
470.288	3.04
470.488	3.09
470.688	2.86
470.888	2.85
471.088	2.67
471.288	2.82
471.488	2.76
471.688	2.81
471.888	2.65
472.088	2.87
472.288	2.75
472.488	2.62
472.688	2.58
472.888	2.64
473.088	2.65
473.288	2.55
473.488	2.42
473.688	2.6
473.887	2.54
474.087	2.41
474.287	2.5
474.487	2.41
474.687	2.42
474.886	2.38
475.086	2.3
475.286	2.32
475.486	2.32
475.685	2.22
475.885	2.25
476.085	2.29
476.284	2.27
476.484	2.29
476.684	2.24
476.883	2.31
477.083	2.21
477.282	2.06
477.482	2.22
477.681	2.14
477.881	2.1
478.08	2.11
478.28	2.06
478.479	2.09
478.679	2.15
478.878	2.04
479.078	2.06
479.277	2.13
479.477	2.09
479.676	2.05
479.875	2.03
480.075	1.96
480.274	2.01
480.473	2.08
480.673	2.04
480.872	2.08
481.071	2.09
481.271	2.07
481.47	2.01
481.669	2.02
481.868	1.93
482.067	1.97
482.267	1.94
482.466	1.93
482.665	1.92
482.864	1.95
483.063	1.97
483.262	2
483.461	2.11
483.661	2.05
483.86	2.03
484.059	2.06
484.258	2.05
484.457	2
484.656	2.02
484.855	2.11
485.054	1.94
485.253	1.95
485.452	2
485.651	2.05
485.849	1.99
486.048	1.99
486.247	2.05
486.446	2.1
486.645	2.04
486.844	2.05
487.043	2.05
487.241	2.08
487.44	2.1
487.639	2.13
487.838	2.14
488.037	2.13
488.235	2.22
488.434	2.16
488.633	2.06
488.831	2.24
489.03	2.23
489.229	2.24
489.427	2.22
489.626	2.27
489.825	2.3
490.023	2.32
490.222	2.26
490.42	2.31
490.619	2.38
490.817	2.38
491.016	2.31
491.214	2.43
491.413	2.44
491.611	2.37
491.81	2.43
492.008	2.48
492.207	2.59
492.405	2.52
492.604	2.48
492.802	2.54
493	2.61
493.199	2.6
493.397	2.66
493.595	2.72
493.794	2.69
493.992	2.79
494.19	2.73
494.388	2.8
494.587	2.75
494.785	2.82
494.983	2.76
495.181	2.87
495.379	2.95
495.578	2.95
495.776	2.93
495.974	2.96
496.172	3
496.37	3.08
496.568	3.11
496.766	3.1
496.964	3.14
497.162	3.17
497.36	3.26
497.558	3.27
497.756	3.32
497.954	3.28
498.152	3.33
498.35	3.44
498.548	3.37
498.746	3.44
498.944	3.43
499.142	3.44
499.34	3.56
499.538	3.63
499.736	3.53
499.933	3.65
500.131	3.63
500.329	3.8
500.527	3.8
500.725	3.86
500.922	3.86
501.12	3.89
501.318	3.98
501.516	3.94
501.713	4.02
501.911	4.01
502.109	4
502.306	4.09
502.504	4.07
502.701	4.11
502.899	4.16
503.097	4.4
503.294	4.16
503.492	4.34
503.689	4.38
503.887	4.36
504.084	4.48
504.282	4.41
504.479	4.46
504.677	4.56
504.874	4.53
505.072	4.48
505.269	4.66
505.466	4.64
505.664	4.73
505.861	4.64
506.059	4.76
506.256	4.78
506.453	4.85
506.651	5.01
506.848	5.01
507.045	4.96
507.242	5.01
507.44	5.03
507.637	5.11
507.834	5.06
508.031	5.23
508.229	5.12
508.426	5.11
508.623	5.29
508.82	5.29
509.017	5.25
509.214	5.28
509.411	5.39
509.608	5.35
509.805	5.52
510.003	5.43
510.2	5.57
510.397	5.69
510.594	5.57
510.791	5.63
510.988	5.63
511.184	5.65
511.381	5.56
511.578	5.68
511.775	5.82
511.972	5.72
512.169	5.84
512.366	5.83
512.563	5.97
512.76	5.94
512.956	6.01
513.153	6
513.35	5.91
513.547	5.95
513.744	6.03
513.94	5.99
514.137	6.16
514.334	6.16
514.53	6.15
514.727	6.33
514.924	6.32
515.12	6.21
515.317	6.24
515.514	6.27
515.71	6.18
515.907	6.47
516.103	6.47
516.3	6.35
516.497	6.46
516.693	6.5
516.89	6.53
517.086	6.49
517.283	6.6
517.479	6.45
517.676	6.64
517.872	6.73
518.068	6.66
518.265	6.62
518.461	6.61
518.658	6.74
518.854	6.74
519.05	6.84
519.247	6.79
519.443	6.77
519.639	6.97
519.836	6.78
520.032	6.78
520.228	6.93
520.424	6.91
520.621	6.92
520.817	6.99
521.013	6.87
521.209	7.06
521.405	7.08
521.601	7.1
521.798	6.98
521.994	7.06
522.19	6.98
522.386	7.04
522.582	7.12
522.778	7.29
522.974	7.11
523.17	7.17
523.366	7.1
523.562	7.21
523.758	7.24
523.954	7.07
524.15	7.2
524.346	7.31
524.542	7.27
524.738	7.2
524.934	7.39
525.129	7.35
525.325	7.27
525.521	7.29
525.717	7.48
525.913	7.36
526.109	7.37
526.304	7.46
526.5	7.43
526.696	7.51
526.892	7.43
527.087	7.63
527.283	7.53
527.479	7.5
527.674	7.37
527.87	7.55
528.066	7.55
528.261	7.59
528.457	7.48
528.653	7.66
528.848	7.61
529.044	7.7
529.239	7.55
529.435	7.56
529.63	7.55
529.826	7.6
530.021	7.6
530.217	7.68
530.412	7.66
530.608	7.63
530.803	7.65
530.999	7.53
531.194	7.66
531.389	7.75
531.585	7.66
531.78	7.84
531.975	7.69
532.171	7.81
532.366	7.73
532.561	7.74
532.757	7.74
532.952	7.91
533.147	7.64
533.342	7.88
533.538	7.69
533.733	7.89
533.928	7.6
534.123	7.78
534.318	7.85
534.513	7.69
534.709	7.93
534.904	7.9
535.099	7.91
535.294	7.98
535.489	7.91
535.684	7.84
535.879	7.88
536.074	7.96
536.269	7.89
536.464	7.99
536.659	7.86
536.854	7.87
537.049	7.99
537.244	7.93
537.439	7.94
537.634	7.93
537.828	8.03
538.023	7.93
538.218	7.97
538.413	7.86
538.608	7.95
538.803	7.96
538.997	7.99
539.192	7.99
539.387	7.95
539.582	7.88
539.776	7.82
539.971	8.05
540.166	8.06
540.36	7.93
540.555	8.09
540.75	7.98
540.944	8.06
541.139	8.04
541.334	8.04
541.528	8.01
541.723	8.08
541.917	8.07
542.112	7.98
542.306	7.88
542.501	7.97
542.695	7.97
542.89	7.96
543.084	7.97
543.279	8.03
543.473	8.07
543.668	8.08
543.862	7.9
544.056	7.95
544.251	8.06
544.445	8.16
544.64	8.19
544.834	7.82
545.028	7.72
545.222	8.04
545.417	8.23
545.611	8.1
545.805	8.08
546	7.92
546.194	8.09
546.388	8.1
546.582	7.95
546.776	8
546.97	8.07
547.165	8.08
547.359	8.02
547.553	7.99
547.747	8.07
547.941	8.31
548.135	8.07
548.329	8.08
548.523	8.1
548.717	8.01
548.911	8.07
549.105	7.98
549.299	8.17
549.493	8.13
549.687	8.05
549.881	8.19
550.075	8.1
550.269	8.03
550.463	8.14
550.657	8.1
550.85	8.11
551.044	8.07
551.238	8.1
551.432	8.08
551.626	8.16
551.82	8.21
552.013	7.95
552.207	8.2
552.401	8.18
552.594	8.07
552.788	8.05
552.982	8.09
553.176	7.96
553.369	8.23
553.563	8.18
553.756	8.06
553.95	8.17
554.144	8.18
554.337	8.14
554.531	7.98
554.724	8.15
554.918	8.2
555.111	8.11
555.305	8.14
555.498	8.08
555.692	8.27
555.885	8.17
556.079	8.05
556.272	8.15
556.466	8.1
556.659	8.13
556.852	8.16
557.046	8.04
557.239	7.95
557.432	8.03
557.626	8.11
557.819	8.16
558.012	8.17
558.206	8.24
558.399	8.11
558.592	8.08
558.785	8.1
558.979	8.13
559.172	8.1
559.365	8.17
559.558	8.11
559.751	8.06
559.944	8.24
560.138	8.09
560.331	8.15
560.524	8.15
560.717	8.13
560.91	8.19
561.103	8.18
561.296	7.97
561.489	8.15
561.682	8.28
561.875	8.13
562.068	8.18
562.261	8.03
562.454	8.27
562.647	8.04
562.84	8.19
563.032	8.19
563.225	8.04
563.418	8.12
563.611	8.14
563.804	8.16
563.997	7.97
564.19	7.88
564.382	8.21
564.575	8.1
564.768	8.06
564.961	8.12
565.153	8.09
565.346	8.03
565.539	8.23
565.731	8.16
565.924	8.26
566.117	8.22
566.309	8.12
566.502	8.07
566.695	8.04
566.887	8.2
567.08	8.1
567.272	8.11
567.465	8.02
567.657	8.15
567.85	7.93
568.042	8.13
568.235	8.14
568.427	7.95
568.62	8.07
568.812	8.03
569.005	8.1
569.197	7.97
569.389	8.04
569.582	8.12
569.774	8.06
569.966	7.97
570.159	7.96
570.351	7.96
570.543	8.01
570.736	8.06
570.928	7.88
571.12	8.06
571.312	7.93
571.505	7.79
571.697	8.12
571.889	8.06
572.081	8.04
572.273	7.94
572.465	8.03
572.658	8.05
572.85	8.01
573.042	8.08
573.234	7.96
573.426	7.96
573.618	7.94
573.81	8.04
574.002	7.91
574.194	7.99
574.386	7.94
574.578	7.88
574.77	7.93
574.962	7.96
575.154	7.83
575.346	7.81
575.538	7.81
575.729	7.85
575.921	7.95
576.113	8
576.305	7.95
576.497	7.95
576.689	7.79
576.88	7.79
577.072	7.98
577.264	7.88
577.456	7.87
577.647	7.87
577.839	8.01
578.031	7.85
578.223	7.79
578.414	7.75
578.606	7.83
578.798	7.9
578.989	7.88
579.181	7.97
579.372	7.83
579.564	7.91
579.755	7.78
579.947	7.78
580.139	7.84
580.33	7.66
580.522	7.81
580.713	7.72
580.905	7.74
581.096	7.87
581.287	7.74
581.479	7.72
581.67	7.85
581.862	7.72
582.053	7.71
582.244	7.63
582.436	7.82
582.627	7.69
582.818	7.62
583.01	7.57
583.201	7.74
583.392	7.65
583.583	7.63
583.775	7.52
583.966	7.64
584.157	7.67
584.348	7.8
584.54	7.56
584.731	7.62
584.922	7.55
585.113	7.45
585.304	7.6
585.495	7.6
585.686	7.68
585.877	7.63
586.068	7.66
586.259	7.59
586.45	7.55
586.641	7.51
586.832	7.58
587.023	7.56
587.214	7.47
587.405	7.54
587.596	7.44
587.787	7.44
587.978	7.49
588.169	7.41
588.36	7.3
588.551	7.44
588.742	7.49
588.932	7.45
589.123	7.24
589.314	7.49
589.505	7.37
589.696	7.4
589.886	7.34
590.077	7.35
590.268	7.28
590.458	7.22
590.649	7.14
590.84	7.3
591.03	7.33
591.221	7.3
591.412	7.17
591.602	7.35
591.793	7.22
591.984	7.26
592.174	7.21
592.365	7.38
592.555	7.04
592.746	7.1
592.936	7.14
593.127	7.2
593.317	7.25
593.508	7.22
593.698	7.11
593.889	7.08
594.079	7.12
594.269	7.07
594.46	7.03
594.65	7.09
594.84	7.08
595.031	6.94
595.221	7
595.411	7.05
595.602	6.99
595.792	7
595.982	6.88
596.172	7.05
596.363	6.93
596.553	6.94
596.743	6.95
596.933	6.9
597.123	6.95
597.314	6.74
597.504	6.76
597.694	6.95
597.884	6.91
598.074	6.9
598.264	6.75
598.454	6.8
598.644	6.8
598.834	6.75
599.024	6.65
599.214	6.78
599.404	6.8
599.594	6.77
599.784	6.62
599.974	6.77
600.164	6.71
600.354	6.63
600.544	6.55
600.734	6.73
600.924	6.6
601.114	6.49
601.303	6.55
601.493	6.6
601.683	6.56
601.873	6.51
602.063	6.55
602.252	6.58
602.442	6.42
602.632	6.45
602.821	6.39
603.011	6.47
603.201	6.43
603.39	6.42
603.58	6.28
603.77	6.49
603.959	6.41
604.149	6.33
604.339	6.4
604.528	6.43
604.718	6.39
604.907	6.3
605.097	6.23
605.286	6.24
605.476	6.29
605.665	6.28
605.855	6.25
606.044	6.23
606.234	6.21
606.423	6.19
606.612	6.17
606.802	6.14
606.991	6.22
607.181	6.19
607.37	6.22
607.559	5.96
607.749	6.2
607.938	6
608.127	6.09
608.316	6.07
608.506	6.04
608.695	6.11
608.884	5.99
609.073	6.03
609.263	6.08
609.452	6.02
609.641	5.84
609.83	5.87
610.019	5.98
610.208	5.86
610.397	5.86
610.586	5.9
610.775	5.84
610.965	5.83
611.154	5.7
611.343	5.81
611.532	5.73
611.721	5.81
611.91	5.68
612.099	5.74
612.287	5.68
612.476	5.6
612.665	5.74
612.854	5.62
613.043	5.66
613.232	5.66
613.421	5.56
613.61	5.6
613.798	5.58
613.987	5.63
614.176	5.56
614.365	5.63
614.554	5.53
614.742	5.52
614.931	5.4
615.12	5.57
615.309	5.46
615.497	5.43
615.686	5.28
615.875	5.41
616.063	5.38
616.252	5.35
616.44	5.38
616.629	5.31
616.818	5.33
617.006	5.33
617.195	5.2
617.383	5.3
617.572	5.2
617.76	5.2
617.949	5.24
618.137	5.27
618.326	5.25
618.514	4.92
618.703	5.05
618.891	5.18
619.079	5.06
619.268	5.18
619.456	5.07
619.644	5.13
619.833	5.03
620.021	5.04
620.209	4.88
620.398	4.97
620.586	4.95
620.774	5.04
620.962	4.93
621.151	5.06
621.339	4.95
621.527	4.8
621.715	4.83
621.903	4.85
622.092	4.81
622.28	4.93
622.468	4.73
622.656	4.78
622.844	4.81
623.032	4.81
623.22	4.63
623.408	4.83
623.596	4.74
623.784	4.75
623.972	4.67
624.16	4.65
624.348	4.7
624.536	4.75
624.724	4.57
624.912	4.59
625.1	4.64
625.288	4.56
625.476	4.49
625.664	4.65
625.851	4.48
626.039	4.58
626.227	4.53
626.415	4.45
626.603	4.4
626.79	4.46
626.978	4.43
627.166	4.44
627.354	4.39
627.541	4.38
627.729	4.28
627.917	4.48
628.104	4.46
628.292	4.3
628.48	4.35
628.667	4.27
628.855	4.4
629.042	4.41
629.23	4.26
629.418	4.3
629.605	4.29
629.793	4.19
629.98	4.18
630.168	4.17
630.355	4.26
630.543	4.17
630.73	4.01
630.917	4.12
631.105	4.23
631.292	4.1
631.48	4.1
631.667	4.26
631.854	4.03
632.042	4.07
632.229	3.96
632.416	4.11
632.604	4.02
632.791	3.9
632.978	4.01
633.165	3.93
633.353	4.02
633.54	4.03
633.727	3.84
633.914	3.86
634.101	3.83
634.289	3.9
634.476	3.73
634.663	3.74
634.85	3.79
635.037	3.74
635.224	3.66
635.411	3.82
635.598	3.75
635.785	3.7
635.972	3.66
636.159	3.78
636.346	3.62
636.533	3.63
636.72	3.67
636.907	3.62
637.094	3.64
637.281	3.5
637.468	3.63
637.655	3.61
637.842	3.61
638.029	3.52
638.215	3.54
638.402	3.56
638.589	3.43
638.776	3.46
638.963	3.43
639.149	3.54
639.336	3.6
639.523	3.41
639.709	3.44
639.896	3.47
640.083	3.41
640.27	3.43
640.456	3.37
640.643	3.43
640.829	3.29
641.016	3.31
641.203	3.22
641.389	3.33
641.576	3.28
641.762	3.27
641.949	3.22
642.135	3.27
642.322	3.21
642.508	3.16
642.695	3.24
642.881	3.12
643.068	3.14
643.254	3.18
643.441	3.21
643.627	3.23
643.813	3.06
644	3.17
644.186	3.04
644.372	3.09
644.559	3.1
644.745	3.03
644.931	3.04
645.118	3.08
645.304	3.07
645.49	3.01
645.676	2.97
645.862	2.96
646.049	3.02
646.235	2.98
646.421	3.08
646.607	3.07
646.793	2.91
646.979	2.85
647.165	2.9
647.352	2.94
647.538	2.86
647.724	2.86
647.91	2.81
648.096	2.9
648.282	2.84
648.468	2.77
648.654	2.84
648.84	2.89
649.026	2.84
649.212	2.74
649.397	2.7
649.583	2.71
649.769	2.75
649.955	2.7
650.141	2.76
650.327	2.73
650.513	2.64
650.698	2.66
650.884	2.53
651.07	2.7
651.256	2.6
651.442	2.65
651.627	2.5
651.813	2.63
651.999	2.58
652.184	2.52
652.37	2.56
652.556	2.57
652.741	2.64
652.927	2.45
653.113	2.49
653.298	2.53
653.484	2.46
653.669	2.47
653.855	2.47
654.04	2.59
654.226	2.51
654.412	2.38
654.597	2.36
654.782	2.44
654.968	2.46
655.153	2.35
655.339	2.44
655.524	2.32
655.71	2.43
655.895	2.35
656.08	2.37
656.266	2.41
656.451	2.31
656.636	2.31
656.822	2.26
657.007	2.3
657.192	2.29
657.378	2.23
657.563	2.23
657.748	2.28
657.933	2.28
658.118	2.2
658.304	2.19
658.489	2.29
658.674	2.27
658.859	2.21
659.044	2.19
659.229	2.25
659.414	2.16
659.599	2.15
659.785	2.05
659.97	2.16
660.155	2.2
660.34	2.17
660.525	2.11
660.71	2.04
660.895	2.19
661.08	2.06
661.264	2.03
661.449	2.11
661.634	2.09
661.819	2.12
662.004	2.05
662.189	2
662.374	2.01
662.559	1.99
662.743	1.92
662.928	2.02
663.113	2.01
663.298	1.93
663.483	1.93
663.667	1.94
663.852	1.87
664.037	1.97
664.221	1.84
664.406	2.02
664.591	2
664.775	1.89
664.96	1.9
665.145	1.89
665.329	1.95
665.514	1.86
665.698	1.83
665.883	1.73
666.068	1.88
666.252	1.88
666.437	1.76
666.621	1.82
666.806	1.87
666.99	1.84
667.174	1.73
667.359	1.88
667.543	1.79
667.728	1.8
667.912	1.68
668.096	1.75
668.281	1.72
668.465	1.8
668.649	1.76
668.834	1.69
669.018	1.72
669.202	1.71
669.387	1.73
669.571	1.77
669.755	1.6
669.939	1.71
670.124	1.67
670.308	1.72
670.492	1.67
670.676	1.61
670.86	1.59
671.044	1.58
671.228	1.71
671.413	1.57
671.597	1.59
671.781	1.58
671.965	1.63
672.149	1.62
672.333	1.57
672.517	1.54
672.701	1.63
672.885	1.53
673.069	1.49
673.253	1.65
673.437	1.54
673.621	1.55
673.804	1.56
673.988	1.53
674.172	1.55
674.356	1.51
674.54	1.53
674.724	1.6
674.908	1.5
675.091	1.57
675.275	1.47
675.459	1.51
675.643	1.55
675.826	1.45
676.01	1.44
676.194	1.52
676.377	1.52
676.561	1.52
676.745	1.43
676.928	1.49
677.112	1.49
677.296	1.39
677.479	1.42
677.663	1.37
677.846	1.39
678.03	1.39
678.213	1.32
678.397	1.46
678.58	1.39
678.764	1.35
678.947	1.26
679.131	1.34
679.314	1.41
679.498	1.3
679.681	1.34
679.865	1.46
680.048	1.34
680.231	1.28
680.415	1.29
680.598	1.34
680.781	1.27
680.965	1.29
681.148	1.32
681.331	1.27
681.514	1.36
681.698	1.21
681.881	1.27
682.064	1.32
682.247	1.29
682.43	1.2
682.614	1.27
682.797	1.36
682.98	1.34
683.163	1.12
683.346	1.23
683.529	1.25
683.712	1.21
683.895	1.22
684.078	1.13
684.261	1.15
684.444	1.27
684.627	1.24
684.81	1.14
684.993	1.25
685.176	1.27
685.359	1.11
685.542	1.14
685.725	1.3
685.908	1.13
686.091	1.07
686.274	1.23
686.457	1.23
686.639	1.16
686.822	1.2
687.005	1.11
687.188	1.15
687.371	1.24
687.553	1.18
687.736	1.15
687.919	1.21
688.102	1.19
688.284	1.14
688.467	1.08
688.65	1.13
688.832	1.05
689.015	1.01
689.197	0.96
689.38	1.13
689.563	1.17
689.745	0.96
689.928	1
690.11	1.06
690.293	1.07
690.475	0.99
690.658	1.04
690.84	1.09
691.023	0.99
691.205	1.02
691.388	0.99
691.57	1.07
691.752	1.06
691.935	0.88
692.117	1
692.3	1.07
692.482	1
692.664	0.98
692.847	1.03
693.029	1.14
693.211	1.07
693.393	0.96
693.576	0.9
693.758	1.03
693.94	0.94
694.122	0.95
694.304	0.92
694.487	0.93
694.669	1.02
694.851	0.87
695.033	0.92
695.215	0.94
695.397	0.89
695.579	0.92
695.761	0.89
695.943	0.89
696.125	1.05
696.308	0.95
696.49	0.78
696.671	1.07
696.853	0.93
697.035	1.21
697.217	0.84
697.399	0.99
697.581	0.8
697.763	0.9
697.945	0.87
698.127	0.95
698.309	0.97
698.491	0.86
698.672	0.95
698.854	0.97
699.036	0.95
699.218	0.85
699.399	0.91
699.581	1
699.763	0.88
699.945	0.81
700.126	0.75
700.308	0.86
700.49	0.84
700.671	0.74
700.853	0.8
701.035	0.86
701.216	0.83
701.398	0.81
701.579	0.78
701.761	0.8
701.943	0.82
702.124	0.73
702.306	0.84
702.487	1
702.669	0.8
702.85	0.76
703.031	0.68
703.213	0.93
703.394	0.91
703.576	0.78
703.757	0.88
703.938	0.82
704.12	1
704.301	0.82
704.483	0.68
704.664	0.85
704.845	0.88
705.026	0.81
705.208	0.81
705.389	0.8
705.57	0.82
705.751	0.73
705.933	0.83
706.114	0.83
706.295	0.81
706.476	0.66
706.657	0.82
706.838	0.78
707.02	0.82
707.201	0.7
707.382	0.69
707.563	0.76
707.744	0.66
707.925	0.64
708.106	0.66
708.287	0.77
708.468	0.82
708.649	0.72
708.83	0.76
709.011	0.66
709.192	0.81
709.373	0.61
709.554	0.66
709.734	0.85
709.915	0.82
710.096	0.76
710.277	0.5
710.458	0.67
710.639	0.72
710.819	0.63
711	0.64
711.181	0.77
711.362	0.73
711.542	0.7
711.723	0.64
711.904	0.8
712.085	0.69
712.265	0.72
712.446	0.58
712.627	0.66
712.807	0.66
712.988	0.7
713.168	0.46
713.349	0.71
713.53	0.44
713.71	0.59
713.891	0.58
714.071	0.64
714.252	0.63
714.432	0.59
714.613	0.56
714.793	0.65
714.974	0.76
715.154	0.74
715.334	0.74
715.515	0.76
715.695	0.53
715.876	0.59
716.056	0.59
716.236	0.65
716.417	0.55
716.597	0.54
716.777	0.77
716.957	0.62
717.138	0.64
717.318	0.57
717.498	0.5
717.678	0.61
717.859	0.7
718.039	0.52
718.219	0.56
718.399	0.58
718.579	0.56
718.759	0.42
718.939	0.59
719.12	0.67
719.3	0.6
719.48	0.41
719.66	0.43
719.84	0.79
720.02	0.6
720.2	0.51
720.38	0.53
720.56	0.76
720.74	0.44
720.92	0.55
721.1	0.72
721.279	0.71
721.459	0.58
721.639	0.38
721.819	0.57
721.999	0.57
722.179	0.62
722.359	0.45
722.538	0.47
722.718	0.62
722.898	0.54
723.078	0.55
723.257	0.46
723.437	0.58
723.617	0.65
723.797	0.57
723.976	0.56
724.156	0.7
724.336	0.73
724.515	0.8
724.695	0.42
724.874	0.52
725.054	0.63
725.234	0.46
725.413	0.53
725.593	0.5
725.772	0.64
725.952	0.55
726.131	0.51
726.311	0.49
726.49	0.51
726.67	0.42
726.849	0.44
727.028	0.56
727.208	0.5
727.387	0.55
727.567	0.45
727.746	0.48
727.925	0.53
728.105	0.4
728.284	0.44
728.463	0.39
728.643	0.53
728.822	0.39
729.001	0.46
729.18	0.51
729.359	0.6
729.539	0.57
729.718	0.48
729.897	0.62
730.076	0.49
730.255	0.43
730.434	0.54
730.614	0.63
730.793	0.75
730.972	0.39
731.151	0.52
731.33	0.62
731.509	0.56
731.688	0.42
731.867	0.49
732.046	0.35
732.225	0.75
732.404	0.39
732.583	0.4
732.762	0.52
732.941	0.61
733.12	0.53
733.298	0.48
733.477	0.59
733.656	0.42
733.835	0.41
734.014	0.55
734.193	0.43
734.371	0.48
734.55	0.62
734.729	0.35
734.908	0.53
735.086	0.56
735.265	0.58
735.444	0.26
735.623	0.41
735.801	0.47
735.98	0.39
736.159	0.48
736.337	0.54
736.516	0.65
736.694	0.57
736.873	0.44
737.052	0.79
737.23	0.74
737.409	0.48
737.587	0.86
737.766	0.36
737.944	0.45
738.123	0.5
738.301	0.5
738.479	0.59
738.658	0.56
738.836	0.26
739.015	0.44
739.193	0.66
739.371	0.4
739.55	0.42
739.728	0.36
739.906	0.63
740.085	0.71
740.263	0.5
740.441	0.25
740.62	0.71
740.798	0.57
740.976	0.42
741.154	0.4
741.332	0.71
741.511	0.53
741.689	0.46
741.867	0.49
742.045	0.64
742.223	0.47
742.401	0.44
742.579	0.38
742.757	0.54
742.935	0.33
743.114	0.45
743.292	0.47
743.47	0.57
743.648	0.56
743.826	0.5
744.004	0.52
744.181	0.64
744.359	0.46
744.537	0.48
744.715	0.46
744.893	0.53
745.071	0.57
745.249	0.35
745.427	0.45
745.605	0.53
745.782	0.57
745.96	0.49
746.138	0.53
746.316	0.63
746.493	0.47
746.671	0.33
746.849	0.31
747.027	0.71
747.204	0.34
747.382	0.44
747.56	0.22
747.737	0.37
747.915	0.44
748.093	0.48
748.27	0.37
748.448	0.39
748.625	0.26
748.803	0.4
748.98	0.42
749.158	0.55
749.335	0.55
749.513	0.37
749.69	0.45
749.868	0.5
750.045	0.54
750.223	0.37
750.4	0.27
750.578	0.59
750.755	0.46
750.932	0.16
751.11	0.54
751.287	0.35
751.464	0.63
751.642	0.33
751.819	0.37
751.996	0.44
752.173	0.28
752.351	0.34
752.528	0.34
752.705	0.38
752.882	0.38
753.06	0.4
753.237	0.47
753.414	0.63
753.591	0.63
753.768	0.42
753.945	0.4
754.122	0.41
754.299	0.53
754.476	0.29
754.654	0.45
754.831	0.6
755.008	0.55
755.185	0.23
755.362	0.29
755.539	0.44
755.716	0.4
755.892	0.46
756.069	0.27
756.246	0.38
756.423	0.44
756.6	0.65
756.777	0.29
756.954	0.58
757.131	0.29
757.307	0.26
757.484	0.19
757.661	0.55
757.838	0.43
758.015	0.25
758.191	0.45
758.368	0.46
758.545	0.65
758.721	0.49
758.898	0.25
759.075	0.49
759.251	0.43
759.428	0.47
759.605	0.3
759.781	0.36
759.958	0.59
760.134	0.44
760.311	0.19
760.488	0.67
760.664	0.6
760.841	0.37
761.017	0.31
761.194	0.45
761.37	0.56
761.547	0.45
761.723	0.25
761.899	0.53
762.076	0.24
762.252	0.21
762.429	0.4
762.605	0.55
762.781	0.37
762.958	0.43
763.134	0.33
763.31	0.28
763.486	0.57
763.663	0.24
763.839	0.55
764.015	0.14
764.191	0.34
764.368	0.34
764.544	0.32
764.72	0.42
764.896	0.5
765.072	0.38
765.248	0.32
765.425	0.3
765.601	0.53
765.777	0.28
765.953	-0.01
766.129	0.35
766.305	0.3
766.481	0.43
766.657	0.55
766.833	0.56
767.009	0.27
767.185	0.39
767.361	0.48
767.537	0.28
767.713	0.58
767.889	0.33
768.065	0.41
768.24	0.23
768.416	0.6
768.592	0.37
768.768	0.42
768.944	0.48
769.12	0.28
769.295	0.36
769.471	0.44
769.647	0.32
769.823	0.7
769.998	0.34
770.174	0.17
770.35	0.71
770.525	0.6
770.701	0.45
770.877	0.35
771.052	0.23
771.228	0.58
771.403	0.44
771.579	0.41
771.755	0.61
771.93	0.3
772.106	0.12
772.281	0.11
772.457	0.44
772.632	0.58
772.808	0.2
772.983	0.34
773.159	0.08
773.334	0.7
773.509	0.45
773.685	0.22
773.86	0.83
774.036	0.7
774.211	0.49
774.386	0.46
774.562	0.51
774.737	0.55
774.912	0.43
775.087	0.46
775.263	0.56
775.438	0.39
775.613	0.14
775.788	0.27
775.964	0.57
776.139	0.97
776.314	0.11
776.489	0.55
776.664	0.42
776.839	0.16
777.014	0.46
777.19	0.51
777.365	0.76
777.54	0.7
777.715	0.27
777.89	0.46
778.065	0.21
778.24	0.59
778.415	0.56
778.59	0.16
778.765	0.4
778.94	0.55
779.115	0.36
779.289	0.41
779.464	0.45
779.639	0.36
779.814	0.12
779.989	0.24
780.164	0.55
780.339	0.56
780.513	0.41
780.688	0.07
780.863	0.6
781.038	0.62
781.212	0.29
781.387	0.52
781.562	0.78
781.737	0.3
781.911	0.6
782.086	0.12
782.261	0.24
782.435	0.74
782.61	0.19
782.784	0.46
782.959	0.74
783.134	0.1
783.308	0.08
783.483	0.11
783.657	1.04
783.832	0.81
784.006	0.02
784.181	0.53
784.355	0.47
784.53	0.15
784.704	0.22
784.878	0.52
785.053	0.77
785.227	0.85
785.402	0.78
785.576	0.19
785.75	0.73
785.925	0.27
786.099	0.55
786.273	0.54
786.448	0.84
786.622	0.78
786.796	0.59
786.97	0.5
787.145	1.16
787.319	0.18
787.493	0.31
787.667	0.02
787.841	0.51
788.015	0.85
788.19	0.37
788.364	0.44
788.538	0.68
788.712	0.62
788.886	0.31
789.06	0.67
789.234	0.57
789.408	0.29
789.582	0.36
789.756	0.28
789.93	0.47
790.104	0.78
790.278	0.44
790.452	0.44
790.626	0.64
790.8	0.16
790.973	0.44
791.147	0.77
791.321	1.01
791.495	0.95
791.669	0.48
791.843	0.53
792.016	0.39
792.19	0.9
792.364	0.24
792.538	1.2
792.711	0.79
792.885	0.35
793.059	0.17
793.233	-0.13
793.406	0.78
793.58	0.65
793.754	0.55
793.927	0.31
794.101	0.78
794.274	0.55
794.448	0.48
794.622	0.06
794.795	0.84
794.969	0.46
795.142	0.9
795.316	0.27
795.489	0.36
795.663	0.87
795.836	0.42
796.009	-0.05
796.183	0.77
796.356	0.53
796.53	0.55
796.703	0.44
796.876	1.29
797.05	0.38
797.223	0.25
797.396	0.48
797.57	0.4
797.743	1.09
797.916	0.64
798.09	0.47
798.263	1.19
798.436	0.82
798.609	0.44
798.782	0.41
798.956	0.6
799.129	0.56
799.302	0.34
799.475	0.31
799.648	0.43
799.821	0.35
799.994	0.49
800.167	0.01
800.34	0.37
800.514	0.65
800.687	0.26
800.86	0.35
801.033	0.59
801.206	1.31
801.379	0.48
801.551	0.91
801.724	0.57
801.897	1.18
802.07	0.56
802.243	0.09
802.416	0.58
802.589	0.54
802.762	0.83
802.935	0.72
803.107	1.1
803.28	0.93
803.453	0.78
803.626	0.27
803.798	0.28
803.971	0.52
804.144	0.93
804.317	0.53
804.489	0.95
804.662	0.49
804.835	0.51
805.007	0.22
805.18	1.25
805.353	0.61
805.525	0.34
805.698	0.53
805.87	0.94
806.043	1.05
806.215	0.22
806.388	0.5
806.56	0.8
806.733	0.97
806.905	0.65
807.078	0.29
807.25	0.38
807.423	0.87
807.595	0.49
807.768	0.5
807.94	0.73
808.112	0.88
808.285	0.48
808.457	0.11
808.629	0.9
808.802	0.72
808.974	0.67
809.146	0.15
809.318	0.46
809.491	0.64
809.663	1.1
809.835	0.32
810.007	0.86
810.18	0.66
810.352	-0.09
810.524	0.33
810.696	1.13
810.868	1.38
811.04	0.45
811.212	0.46
811.384	1.1
811.556	0.83
811.728	0.47
811.901	1.44
812.073	0.62
812.245	1.02
812.417	0.64
812.589	-0.25
812.76	0.56
812.932	1.15
813.104	0.77
813.276	0.57
813.448	1.57
813.62	0.92
813.792	0.86
813.964	0.68
814.136	0.97
814.307	0.64
814.479	0.34
814.651	0.37
814.823	2.05
814.995	0.37
815.166	0.6
815.338	0.4
815.51	0.48
815.681	1.95
815.853	0.8
816.025	0.57
816.196	1.38
816.368	1.42
816.54	0.17
816.711	0.33
816.883	1.39
817.054	2.22
817.226	-0.04
817.398	0.91
817.569	0.35
817.741	1.3
817.912	0.67
818.084	0.63
818.255	1.14
818.426	0.28
818.598	0.36
818.769	0.15
818.941	1.1
819.112	1.5
819.283	0.65
819.455	0.1
819.626	0.71
819.798	1.14
819.969	0.86
820.14	0.33
820.311	0.84
820.483	0.86
820.654	0.68
820.825	0.73
820.996	0.61
821.168	0.43
821.339	0.75
821.51	0.21
821.681	0.53
821.852	1.02
822.023	0.02
822.195	0.28
822.366	1.44
822.537	0.73
822.708	0.99
822.879	0.32
823.05	1.62
823.221	0.75
823.392	0.84
823.563	0.75
823.734	0.88
823.905	0.86
824.076	0.48
824.247	0.47
824.418	0.85
824.589	1.83
824.759	0.45
824.93	0.5
825.101	0.28
825.272	1.54
825.443	1.27
825.614	1.63
825.784	0.68
825.955	1.94
826.126	1.37
826.297	1.17
826.467	2.23
826.638	2.34
826.809	0.25
826.98	1.45
827.15	1.51
827.321	1.17
827.492	1.1
827.662	0.47
827.833	2.37
828.003	1.76
828.174	0.47
828.345	-0.12
828.515	1.75
828.686	0.64
828.856	0.53
829.027	0.93
829.197	1.4
829.368	0.93
829.538	0.29
829.709	0.48
829.879	1.12
830.049	0.88
830.22	1.1
830.39	0.56
830.56	2.36
830.731	0.38
830.901	0.29
831.072	0.42
831.242	1.43
831.412	1.56
831.582	0.92
831.753	0.25
831.923	1.92
832.093	1.25
832.263	1.34
832.434	0.76
832.604	0.82
832.774	1.5
832.944	0.8
833.114	0.13
833.284	1.4
833.454	-0.03
833.624	0.98
833.795	0.77
833.965	2.27
834.135	2.51
834.305	-0.52
834.475	0.35
834.645	1.32
834.815	0.14
834.985	0.71
835.155	0.37
835.325	1.83
835.494	2.23
835.664	0.62
835.834	0.45
836.004	0.6
836.174	1.67
836.344	0.51
836.514	0.08
836.684	0.65
836.853	1.25
837.023	2.17
837.193	0.46
837.363	2.65
837.532	2.4
837.702	0.49
837.872	0.3
838.041	1.92
838.211	2.48
838.381	0.04
838.55	0.91
838.72	3.67
838.89	2.46
839.059	0.43
839.229	-0.14
839.398	3.46
839.568	1.49
839.738	0.74
839.907	2.3
840.077	1.17
840.246	0.02
840.416	0.45
840.585	-0.33
840.755	3.08
840.924	2.95
841.093	0.01
841.263	0.58
841.432	1.22
841.602	0.82
841.771	0.62
841.94	0.58
842.11	4.29
842.279	3.59
842.448	0.34
842.617	-0.53
842.787	2.52
842.956	0.39
843.125	1.05
843.294	0.84
843.464	2.55
843.633	0.69
843.802	0.46
843.971	0.94
844.14	1.38
844.309	2.82
844.479	-0.49
844.648	0.29
844.817	1.16
844.986	1.91
845.155	-0.01
845.324	1.54
845.493	1.22
845.662	0.74
845.831	1.71
846	1.25
846.169	1.09
846.338	3.22
846.507	1.58
846.676	1.53
846.844	0
847.013	1.57
847.182	1.06
847.351	0.62
847.52	0.81
847.689	1.91
847.858	0.63
848.026	1.11
848.195	1.4
848.364	1.2
848.533	0.39
848.701	0.76
848.87	1.77
849.039	2.92
849.207	2.76
849.376	2.53
849.545	3.67
849.713	0.92
849.882	0.24
850.051	0.66
850.219	1.1
850.388	1.38
850.556	0.87
850.725	1.18
850.893	2.4
851.062	1.08
851.23	1.45
851.399	-0.31
851.567	1.22
851.736	0.97
851.904	0.6
852.073	1.15
852.241	2.69
852.41	1.44
852.578	1.21
852.746	0.71
852.915	2.71
853.083	0.69
853.251	-0.2
853.42	0.73
853.588	1.2
853.756	3.34
853.924	1.61
854.093	0.5
854.261	1.05
854.429	0.07
854.597	2.04
854.765	-0.38
854.934	3.08
855.102	3.26
855.27	1.14
855.438	2.9
855.606	3.09
855.774	3.59
855.942	-1.03
856.11	-0.74
856.278	3.51
856.446	3.71
856.614	1.37
856.782	0.82
856.95	3.07
857.118	2.47
857.286	2.85
857.454	0.06
857.622	3.53
857.79	2.23
857.958	1.34
858.126	1.12
858.294	-0.54
858.462	0.87
858.629	1.58
858.797	-0.14
858.965	2.3
859.133	1.05
859.301	1.73
859.468	2.55
859.636	2.14
859.804	4.65
859.971	2.37
860.139	1.32
860.307	3.66
860.474	2.03
860.642	1.77
860.81	0.6
860.977	2.54
861.145	3.56
861.313	2.08
861.48	1.36
861.648	4.38
861.815	1.52
861.983	-0.44
862.15	0.45
862.318	3.11
862.485	4.12
862.653	0.15
862.82	0.36
862.988	4.51
863.155	4.32
863.322	1.29
863.49	0.01
863.657	1.77
863.824	4.71
863.992	2.15
864.159	1.14
864.326	4.43
864.494	0.55
864.661	4.46
864.828	-0.02
864.996	3.1
865.163	4.28
865.33	-0.52
865.497	-1.72
865.664	-0.09
865.832	-0.05
865.999	2.32
866.166	-0.02
866.333	0.99
866.5	4.07
866.667	1
866.834	2.93
867.001	4.78
867.168	0.05
867.335	1
867.502	0.08
867.669	2.25
867.836	6.34
868.003	1.64
868.17	3.01
868.337	1.74
868.504	6.06
868.671	-0.99
868.838	0.76
869.005	4.54
869.172	3.31
869.339	1.45
869.505	1.82
869.672	4.33
869.839	4.9
870.006	3.47
870.173	1.66
870.339	3.73
870.506	5.99
870.673	0.03
870.84	2.83
871.006	1.79
871.173	2.7
871.34	1.06
871.506	0.72
871.673	3.11
871.839	-0.14
872.006	3.66
872.173	1
872.339	3.21
872.506	4.17
872.672	-0.17
872.839	-1.29
873.005	3.42
873.172	4.94
873.338	3.4
873.505	1
873.671	1.78
873.838	3.47
874.004	-1.13
874.171	1.8
874.337	3.78
874.503	4.22
874.67	1.92
874.836	1.7
875.002	5.28
875.169	4.21
875.335	2.98
875.501	1.68
875.668	4.89
875.834	1.66
876	1.17
876.166	4.41
876.332	4.8
876.499	6.72
876.665	0.81
876.831	1.96
876.997	6.07
877.163	3.65
877.329	2.12
877.495	2.81
877.662	3.2
877.828	3.49
877.994	2.07
878.16	-1.8
878.326	2.04
878.492	3.38
878.658	1.71
878.824	3.33
878.99	2.65
879.156	2.8
879.322	5.78
879.487	3.77
879.653	2.59
879.819	3.38
879.985	0.98
880.151	3.87
880.317	4.35
880.483	3.86
880.648	4.25
880.814	0.12
880.98	3.24
881.146	-0.59
881.312	0.95
881.477	0.97
881.643	2.92
881.809	5.62
881.974	3.73
882.14	0.61
882.306	3.4
882.471	8.92
882.637	1.4
882.803	3.05
882.968	6.33
883.134	6.61
883.299	1.1
883.465	2.21
883.63	6.3
883.796	5.55
883.961	2.18
884.127	3.32
884.292	-2.88
884.458	0.56
884.623	0.56
