Data from Apollo_Calib_20240827__AbsoluteIrradiance__807__12-36-01-322.txt Node

Date: Wed Aug 28 12:36:01 BST 2024
User: biology
Spectrometer: FLMT08252
Trigger mode: 0
Integration Time (sec): 5.000000E-1
Scans to average: 5
Electric dark correction enabled: true
Nonlinearity correction enabled: false
Boxcar width: 0
XAxis mode: Wavelengths
Number of Pixels in Spectrum: 3648
>>>>>Begin Spectral Data<<<<<
179.588	-0
179.809	-0
180.03	-0
180.251	-0
180.473	-0
180.694	0
180.915	0
181.136	-0
181.357	0
181.578	-0
181.799	0
182.02	-0
182.241	-0
182.462	-0
182.683	0
182.904	-0
183.125	-0
183.346	0
183.567	0
183.788	0
184.009	0
184.23	0
184.451	0
184.672	0
184.892	0
185.113	0
185.334	0
185.555	0
185.776	0
185.996	0
186.217	0
186.438	0
186.659	0
186.879	0
187.1	0
187.321	0
187.541	0
187.762	0
187.983	0
188.203	0
188.424	0
188.644	0
188.865	0
189.086	0
189.306	0
189.527	0
189.747	0
189.968	0
190.188	0
190.409	0
190.629	0
190.849	0
191.07	0
191.29	0
191.511	0
191.731	0
191.951	0
192.172	0
192.392	0
192.612	0
192.833	0
193.053	0
193.273	0
193.493	0
193.714	0
193.934	0
194.154	0
194.374	0
194.594	0
194.815	0
195.035	0
195.255	0
195.475	0
195.695	0
195.915	0
196.135	0
196.355	0
196.575	0
196.795	0
197.015	0
197.235	0
197.455	0
197.675	0
197.895	0
198.115	0
198.335	0
198.555	0
198.775	0
198.995	0
199.214	0
199.434	0
199.654	0
199.874	0
200.094	3.48
200.313	2.96
200.533	1.83
200.753	1.8
200.973	3.97
201.192	3.4
201.412	1.54
201.632	1.81
201.851	3.31
202.071	1.65
202.291	2.11
202.51	1.23
202.73	2.73
202.95	2.21
203.169	1.5
203.389	1.73
203.608	2.17
203.828	1.94
204.047	1.26
204.267	2.28
204.486	2.16
204.706	2.49
204.925	1.61
205.145	1.61
205.364	2.44
205.583	2.31
205.803	1.28
206.022	1.24
206.242	1.89
206.461	2.27
206.68	1.6
206.9	1.81
207.119	2.56
207.338	2.35
207.557	1.33
207.777	1.26
207.996	1.36
208.215	2.28
208.434	1.05
208.654	0.93
208.873	1.64
209.092	2.02
209.311	1.16
209.53	1.38
209.749	1.34
209.968	1.21
210.187	0.85
210.407	0.81
210.626	1.21
210.845	1.52
211.064	1.16
211.283	0.86
211.502	1.5
211.721	0.97
211.94	1.17
212.159	1.37
212.377	1.42
212.596	1.48
212.815	1.19
213.034	1.35
213.253	1.43
213.472	1.33
213.691	1.15
213.91	0.88
214.128	0.77
214.347	1.45
214.566	0.5
214.785	0.47
215.003	1.42
215.222	1.19
215.441	0.72
215.66	0.56
215.878	1.05
216.097	1.33
216.316	0.53
216.534	0.93
216.753	1.07
216.972	1.05
217.19	1.02
217.409	0.59
217.627	0.85
217.846	0.89
218.064	0.83
218.283	0.75
218.501	1.47
218.72	1.05
218.938	0.66
219.157	0.75
219.375	1.14
219.594	1.1
219.812	0.59
220.031	0.54
220.249	1.38
220.467	1.17
220.686	0.61
220.904	0.49
221.122	0.76
221.341	1.27
221.559	0.73
221.777	0.57
221.995	0.76
222.214	0.98
222.432	0.65
222.65	0.91
222.868	0.82
223.086	0.81
223.305	0.97
223.523	0.7
223.741	1.18
223.959	0.76
224.177	0.48
224.395	0.5
224.613	0.87
224.831	1.07
225.049	0.51
225.267	0.62
225.485	0.75
225.703	0.58
225.921	0.56
226.139	0.56
226.357	0.94
226.575	0.94
226.793	0.6
227.011	1.58
227.229	0.78
227.447	0.87
227.665	0.61
227.883	0.31
228.1	0.78
228.318	0.78
228.536	0.39
228.754	0.36
228.972	0.76
229.189	0.73
229.407	0.54
229.625	0.62
229.843	0.89
230.06	0.93
230.278	0.52
230.496	0.67
230.713	0.76
230.931	1.02
231.149	0.53
231.366	0.4
231.584	0.61
231.801	1.11
232.019	0.47
232.236	0.43
232.454	0.41
232.671	0.68
232.889	0.56
233.106	0.51
233.324	0.65
233.541	0.53
233.759	0.54
233.976	0.47
234.194	0.6
234.411	0.56
234.628	0.39
234.846	0.47
235.063	0.54
235.28	0.55
235.498	0.41
235.715	0.45
235.932	0.77
236.149	0.63
236.367	0.45
236.584	0.59
236.801	0.54
237.018	0.75
237.236	0.57
237.453	0.3
237.67	0.77
237.887	0.49
238.104	0.62
238.321	0.39
238.538	0.37
238.755	0.73
238.973	0.28
239.19	0.47
239.407	0.65
239.624	0.49
239.841	0.34
240.058	0.38
240.275	0.62
240.492	0.46
240.709	0.45
240.925	0.47
241.142	0.56
241.359	0.35
241.576	0.38
241.793	0.42
242.01	0.48
242.227	0.78
242.444	0.56
242.66	0.67
242.877	0.52
243.094	0.46
243.311	0.44
243.527	0.46
243.744	0.46
243.961	0.63
244.178	0.41
244.394	0.41
244.611	0.6
244.828	0.64
245.044	0.34
245.261	0.45
245.477	0.59
245.694	0.64
245.911	0.4
246.127	0.45
246.344	0.74
246.56	0.5
246.777	0.3
246.993	0.45
247.21	0.49
247.426	0.62
247.643	0.36
247.859	0.34
248.076	0.44
248.292	0.79
248.508	0.42
248.725	0.52
248.941	0.6
249.157	0.63
249.374	0.35
249.59	0.46
249.806	0.42
250.023	0.48
250.239	0.4
250.455	0.32
250.671	0.41
250.888	0.51
251.104	0.48
251.32	0.32
251.536	0.41
251.752	0.43
251.969	0.47
252.185	0.44
252.401	0.69
252.617	0.56
252.833	0.35
253.049	0.46
253.265	0.49
253.481	0.49
253.697	0.38
253.913	0.4
254.129	0.41
254.345	0.48
254.561	0.37
254.777	0.44
254.993	0.52
255.209	0.46
255.425	0.4
255.641	0.35
255.857	0.47
256.073	0.41
256.288	0.27
256.504	0.33
256.72	0.46
256.936	0.6
257.152	0.32
257.367	0.37
257.583	0.35
257.799	0.58
258.015	0.35
258.23	0.33
258.446	0.6
258.662	0.43
258.877	0.32
259.093	0.3
259.309	0.42
259.524	0.43
259.74	0.36
259.955	0.2
260.171	0.39
260.387	0.43
260.602	0.46
260.818	0.43
261.033	0.26
261.249	0.51
261.464	0.32
261.68	0.22
261.895	0.48
262.11	0.46
262.326	0.37
262.541	0.26
262.757	0.48
262.972	0.42
263.187	0.43
263.403	0.41
263.618	0.51
263.833	0.36
264.049	0.29
264.264	0.35
264.479	0.39
264.694	0.56
264.91	0.27
265.125	0.34
265.34	0.45
265.555	0.64
265.77	0.44
265.986	0.33
266.201	0.41
266.416	0.51
266.631	0.29
266.846	0.33
267.061	0.47
267.276	0.47
267.491	0.15
267.706	0.43
267.921	0.43
268.136	0.41
268.351	0.39
268.566	0.24
268.781	0.43
268.996	0.49
269.211	0.34
269.426	0.22
269.641	0.33
269.856	0.48
270.071	0.29
270.285	0.22
270.5	0.47
270.715	0.47
270.93	0.29
271.145	0.37
271.359	0.45
271.574	0.3
271.789	0.35
272.004	0.34
272.218	0.34
272.433	0.39
272.648	0.24
272.862	0.39
273.077	0.4
273.292	0.29
273.506	0.25
273.721	0.33
273.936	0.32
274.15	0.5
274.365	0.29
274.579	0.39
274.794	0.44
275.008	0.45
275.223	0.23
275.437	0.31
275.652	0.49
275.866	0.43
276.081	0.33
276.295	0.37
276.509	0.37
276.724	0.37
276.938	0.29
277.153	0.42
277.367	0.44
277.581	0.29
277.796	0.26
278.01	0.25
278.224	0.42
278.438	0.54
278.653	0.24
278.867	0.31
279.081	0.22
279.295	0.31
279.51	0.31
279.724	0.22
279.938	0.36
280.152	0.39
280.366	0.24
280.58	0.32
280.794	0.39
281.008	0.42
281.222	0.36
281.437	0.5
281.651	0.41
281.865	0.44
282.079	0.29
282.293	0.21
282.507	0.27
282.721	0.32
282.935	0.3
283.148	0.18
283.362	0.31
283.576	0.24
283.79	0.31
284.004	0.23
284.218	0.41
284.432	0.28
284.646	0.3
284.859	0.24
285.073	0.33
285.287	0.3
285.501	0.3
285.714	0.32
285.928	0.33
286.142	0.37
286.356	0.26
286.569	0.25
286.783	0.43
286.997	0.38
287.21	0.31
287.424	0.34
287.637	0.31
287.851	0.27
288.065	0.36
288.278	0.29
288.492	0.38
288.705	0.26
288.919	0.36
289.132	0.23
289.346	0.42
289.559	0.21
289.773	0.18
289.986	0.27
290.2	0.29
290.413	0.38
290.626	0.25
290.84	0.28
291.053	0.3
291.267	0.4
291.48	0.29
291.693	0.31
291.906	0.25
292.12	0.32
292.333	0.23
292.546	0.29
292.76	0.36
292.973	0.32
293.186	0.31
293.399	0.28
293.612	0.36
293.826	0.28
294.039	0.29
294.252	0.27
294.465	0.3
294.678	0.29
294.891	0.26
295.104	0.24
295.317	0.29
295.53	0.29
295.743	0.27
295.956	0.25
296.169	0.38
296.382	0.33
296.595	0.24
296.808	0.21
297.021	0.39
297.234	0.35
297.447	0.22
297.66	0.28
297.873	0.37
298.086	0.35
298.299	0.2
298.511	0.21
298.724	0.26
298.937	0.24
299.15	0.19
299.363	0.29
299.575	0.33
299.788	0.28
300.001	0.23
300.213	0.2
300.426	0.25
300.639	0.25
300.852	0.27
301.064	0.31
301.277	0.38
301.489	0.36
301.702	0.3
301.915	0.26
302.127	0.29
302.34	0.32
302.552	0.32
302.765	0.24
302.977	0.32
303.19	0.22
303.402	0.26
303.615	0.25
303.827	0.25
304.04	0.29
304.252	0.34
304.464	0.24
304.677	0.43
304.889	0.31
305.102	0.27
305.314	0.24
305.526	0.25
305.739	0.36
305.951	0.19
306.163	0.29
306.375	0.33
306.588	0.27
306.8	0.27
307.012	0.2
307.224	0.32
307.436	0.36
307.649	0.2
307.861	0.28
308.073	0.32
308.285	0.22
308.497	0.25
308.709	0.24
308.921	0.34
309.133	0.37
309.346	0.26
309.558	0.25
309.77	0.32
309.982	0.37
310.194	0.33
310.406	0.25
310.617	0.4
310.829	0.28
311.041	0.32
311.253	0.25
311.465	0.27
311.677	0.26
311.889	0.25
312.101	0.26
312.313	0.35
312.524	0.38
312.736	0.21
312.948	0.27
313.16	0.35
313.372	0.34
313.583	0.29
313.795	0.21
314.007	0.29
314.218	0.35
314.43	0.26
314.642	0.23
314.853	0.19
315.065	0.33
315.277	0.24
315.488	0.3
315.7	0.34
315.912	0.29
316.123	0.24
316.335	0.27
316.546	0.39
316.758	0.27
316.969	0.25
317.181	0.26
317.392	0.24
317.604	0.32
317.815	0.21
318.026	0.21
318.238	0.24
318.449	0.3
318.661	0.2
318.872	0.19
319.083	0.23
319.295	0.28
319.506	0.28
319.717	0.29
319.929	0.34
320.14	0.27
320.351	0.27
320.562	0.25
320.774	0.27
320.985	0.33
321.196	0.28
321.407	0.2
321.618	0.32
321.829	0.32
322.041	0.32
322.252	0.22
322.463	0.33
322.674	0.33
322.885	0.2
323.096	0.23
323.307	0.29
323.518	0.29
323.729	0.26
323.94	0.21
324.151	0.24
324.362	0.3
324.573	0.3
324.784	0.25
324.995	0.32
325.206	0.31
325.417	0.26
325.628	0.2
325.838	0.29
326.049	0.28
326.26	0.3
326.471	0.26
326.682	0.33
326.892	0.26
327.103	0.18
327.314	0.22
327.525	0.32
327.735	0.27
327.946	0.23
328.157	0.24
328.368	0.36
328.578	0.23
328.789	0.35
328.999	0.28
329.21	0.22
329.421	0.35
329.631	0.2
329.842	0.2
330.052	0.28
330.263	0.33
330.473	0.26
330.684	0.26
330.894	0.23
331.105	0.29
331.315	0.27
331.526	0.17
331.736	0.39
331.947	0.28
332.157	0.32
332.367	0.22
332.578	0.3
332.788	0.37
332.999	0.33
333.209	0.23
333.419	0.21
333.629	0.31
333.84	0.29
334.05	0.24
334.26	0.34
334.47	0.26
334.681	0.32
334.891	0.26
335.101	0.35
335.311	0.4
335.521	0.25
335.732	0.22
335.942	0.39
336.152	0.3
336.362	0.26
336.572	0.28
336.782	0.33
336.992	0.25
337.202	0.24
337.412	0.25
337.622	0.32
337.832	0.25
338.042	0.22
338.252	0.22
338.462	0.23
338.672	0.3
338.882	0.26
339.092	0.3
339.302	0.33
339.511	0.33
339.721	0.25
339.931	0.21
340.141	0.34
340.351	0.34
340.561	0.31
340.77	0.29
340.98	0.3
341.19	0.26
341.4	0.23
341.609	0.19
341.819	0.22
342.029	0.19
342.238	0.3
342.448	0.21
342.658	0.3
342.867	0.25
343.077	0.22
343.286	0.24
343.496	0.3
343.706	0.34
343.915	0.22
344.125	0.26
344.334	0.32
344.544	0.19
344.753	0.22
344.963	0.22
345.172	0.24
345.381	0.27
345.591	0.2
345.8	0.24
346.01	0.36
346.219	0.35
346.428	0.15
346.638	0.29
346.847	0.27
347.056	0.31
347.266	0.25
347.475	0.2
347.684	0.35
347.893	0.32
348.103	0.28
348.312	0.22
348.521	0.24
348.73	0.3
348.94	0.3
349.149	0.24
349.358	0.28
349.567	0.21
349.776	0.18
349.985	0.2
350.194	0.29
350.403	0.3
350.612	0.2
350.821	0.23
351.03	0.27
351.239	0.2
351.448	0.24
351.657	0.24
351.866	0.36
352.075	0.25
352.284	0.32
352.493	0.25
352.702	0.33
352.911	0.26
353.12	0.26
353.329	0.23
353.538	0.31
353.746	0.22
353.955	0.19
354.164	0.24
354.373	0.25
354.582	0.3
354.79	0.29
354.999	0.27
355.208	0.26
355.416	0.34
355.625	0.18
355.834	0.21
356.042	0.29
356.251	0.24
356.46	0.17
356.668	0.28
356.877	0.37
357.085	0.28
357.294	0.17
357.503	0.27
357.711	0.29
357.92	0.42
358.128	0.27
358.337	0.2
358.545	0.27
358.754	0.24
358.962	0.32
359.17	0.23
359.379	0.29
359.587	0.28
359.796	0.23
360.004	0.32
360.212	0.35
360.421	0.35
360.629	0.26
360.837	0.28
361.046	0.31
361.254	0.4
361.462	0.27
361.67	0.22
361.879	0.28
362.087	0.32
362.295	0.25
362.503	0.23
362.711	0.23
362.92	0.25
363.128	0.22
363.336	0.24
363.544	0.17
363.752	0.27
363.96	0.18
364.168	0.21
364.376	0.27
364.584	0.28
364.792	0.33
365	0.27
365.208	0.3
365.416	0.31
365.624	0.34
365.832	0.23
366.04	0.32
366.248	0.25
366.456	0.31
366.664	0.26
366.872	0.26
367.079	0.27
367.287	0.26
367.495	0.25
367.703	0.35
367.911	0.26
368.118	0.23
368.326	0.21
368.534	0.21
368.742	0.36
368.949	0.22
369.157	0.25
369.365	0.29
369.572	0.23
369.78	0.2
369.988	0.31
370.195	0.24
370.403	0.32
370.61	0.2
370.818	0.27
371.026	0.38
371.233	0.26
371.441	0.26
371.648	0.24
371.856	0.29
372.063	0.26
372.271	0.2
372.478	0.23
372.685	0.22
372.893	0.33
373.1	0.29
373.308	0.26
373.515	0.35
373.722	0.33
373.93	0.25
374.137	0.31
374.344	0.35
374.552	0.33
374.759	0.28
374.966	0.27
375.173	0.3
375.381	0.36
375.588	0.29
375.795	0.24
376.002	0.26
376.209	0.23
376.417	0.28
376.624	0.26
376.831	0.33
377.038	0.24
377.245	0.18
377.452	0.22
377.659	0.31
377.866	0.21
378.073	0.23
378.28	0.24
378.487	0.36
378.694	0.35
378.901	0.29
379.108	0.27
379.315	0.34
379.522	0.4
379.729	0.24
379.936	0.28
380.143	0.28
380.35	0.3
380.557	0.25
380.763	0.25
380.97	0.32
381.177	0.31
381.384	0.28
381.591	0.21
381.797	0.31
382.004	0.32
382.211	0.31
382.418	0.28
382.624	0.32
382.831	0.32
383.038	0.27
383.244	0.3
383.451	0.27
383.658	0.32
383.864	0.25
384.071	0.22
384.277	0.36
384.484	0.3
384.69	0.37
384.897	0.29
385.103	0.29
385.31	0.27
385.516	0.24
385.723	0.22
385.929	0.31
386.136	0.28
386.342	0.33
386.549	0.27
386.755	0.37
386.961	0.33
387.168	0.27
387.374	0.29
387.58	0.3
387.787	0.31
387.993	0.32
388.199	0.26
388.406	0.25
388.612	0.25
388.818	0.26
389.024	0.26
389.231	0.3
389.437	0.41
389.643	0.33
389.849	0.29
390.055	0.3
390.261	0.3
390.467	0.37
390.674	0.29
390.88	0.3
391.086	0.35
391.292	0.27
391.498	0.33
391.704	0.32
391.91	0.34
392.116	0.26
392.322	0.21
392.528	0.39
392.734	0.3
392.94	0.32
393.146	0.28
393.352	0.34
393.557	0.32
393.763	0.26
393.969	0.4
394.175	0.3
394.381	0.32
394.587	0.27
394.792	0.33
394.998	0.37
395.204	0.36
395.41	0.27
395.615	0.35
395.821	0.35
396.027	0.34
396.233	0.33
396.438	0.35
396.644	0.39
396.85	0.34
397.055	0.32
397.261	0.38
397.466	0.3
397.672	0.35
397.878	0.39
398.083	0.37
398.289	0.33
398.494	0.4
398.7	0.37
398.905	0.33
399.111	0.41
399.316	0.3
399.522	0.31
399.727	0.37
399.932	0.33
400.138	0.31
400.343	0.41
400.549	0.37
400.754	0.4
400.959	0.39
401.165	0.35
401.37	0.36
401.575	0.45
401.78	0.42
401.986	0.39
402.191	0.34
402.396	0.37
402.601	0.45
402.807	0.4
403.012	0.4
403.217	0.45
403.422	0.42
403.627	0.45
403.832	0.42
404.037	0.49
404.243	0.44
404.448	0.44
404.653	0.42
404.858	0.48
405.063	0.48
405.268	0.46
405.473	0.39
405.678	0.39
405.883	0.71
406.088	0.49
406.293	0.44
406.498	0.52
406.703	0.5
406.907	0.45
407.112	0.43
407.317	0.52
407.522	0.61
407.727	0.5
407.932	0.53
408.136	0.68
408.341	0.56
408.546	0.64
408.751	0.56
408.956	0.6
409.16	0.71
409.365	0.63
409.57	0.64
409.774	0.62
409.979	0.69
410.184	0.7
410.388	0.66
410.593	0.74
410.798	0.74
411.002	0.73
411.207	0.79
411.411	0.82
411.616	0.7
411.82	0.83
412.025	0.9
412.229	0.88
412.434	0.98
412.638	0.96
412.843	0.95
413.047	1.01
413.252	0.94
413.456	1.03
413.66	1.1
413.865	1.03
414.069	1.15
414.273	1.09
414.478	1.11
414.682	1.18
414.886	1.26
415.091	1.18
415.295	1.25
415.499	1.45
415.703	1.32
415.908	1.5
416.112	1.36
416.316	1.59
416.52	1.59
416.724	1.55
416.929	1.65
417.133	1.96
417.337	1.79
417.541	1.89
417.745	1.84
417.949	1.98
418.153	2.05
418.357	2.04
418.561	2.32
418.765	2.23
418.969	2.41
419.173	2.42
419.377	2.46
419.581	2.71
419.785	2.71
419.989	2.7
420.193	2.88
420.397	2.94
420.601	3.16
420.804	3.19
421.008	3.13
421.212	3.35
421.416	3.34
421.62	3.35
421.823	3.4
422.027	3.57
422.231	3.62
422.435	3.61
422.638	3.58
422.842	3.77
423.046	3.76
423.249	4.02
423.453	4.03
423.657	4.17
423.86	4.33
424.064	4.46
424.268	4.52
424.471	4.56
424.675	4.74
424.878	4.88
425.082	4.96
425.285	5.3
425.489	5.23
425.692	5.43
425.896	5.36
426.099	5.53
426.303	5.76
426.506	5.83
426.71	6.09
426.913	6.26
427.116	6.5
427.32	6.4
427.523	6.55
427.726	6.85
427.93	6.84
428.133	7.21
428.336	7.37
428.54	7.45
428.743	7.82
428.946	8.14
429.149	7.96
429.353	7.99
429.556	8.15
429.759	8.18
429.962	8.39
430.165	8.51
430.368	8.03
430.571	8.2
430.775	8.22
430.978	8.21
431.181	8.24
431.384	8.37
431.587	8.49
431.79	8.84
431.993	8.79
432.196	9.03
432.399	9.45
432.602	9.56
432.805	9.66
433.008	10.23
433.211	10.08
433.414	10.46
433.616	10.42
433.819	10.38
434.022	10.53
434.225	10.7
434.428	10.69
434.631	11.17
434.833	10.92
435.036	11.24
435.239	11.34
435.442	11.43
435.645	11.66
435.847	11.73
436.05	12.11
436.253	12.29
436.455	12.12
436.658	12.27
436.861	12.49
437.063	12.58
437.266	12.49
437.468	12.98
437.671	13.17
437.874	13.23
438.076	13.12
438.279	13.52
438.481	13.49
438.684	14.44
438.886	13.84
439.089	14.31
439.291	14.23
439.494	14.71
439.696	14.76
439.899	15.34
440.101	15.65
440.303	15.94
440.506	16.74
440.708	16.41
440.91	16.51
441.113	16.76
441.315	17.15
441.517	16.92
441.72	17.37
441.922	16.96
442.124	16.94
442.326	17.26
442.529	17.53
442.731	17.41
442.933	17.82
443.135	17.56
443.337	17.57
443.539	18.19
443.742	17.86
443.944	18.53
444.146	18.1
444.348	18.15
444.55	18.02
444.752	18.24
444.954	18.28
445.156	18.17
445.358	18.57
445.56	18.69
445.762	18.6
445.964	18.95
446.166	18.68
446.368	18.59
446.57	18.79
446.772	18.2
446.974	18.07
447.175	18.26
447.377	18.02
447.579	18.36
447.781	18.03
447.983	17.87
448.184	17.3
448.386	17.71
448.588	17.26
448.79	17.16
448.991	17.55
449.193	17.5
449.395	16.76
449.597	16.48
449.798	16.27
450	15.85
450.202	15.8
450.403	15.86
450.605	15.71
450.806	15.41
451.008	15.18
451.21	15
451.411	14.56
451.613	13.7
451.814	14.06
452.016	14.03
452.217	13.18
452.419	13.21
452.62	12.83
452.821	12.71
453.023	12.57
453.224	12.18
453.426	11.68
453.627	10.99
453.828	11.1
454.03	11.14
454.231	11.23
454.432	10.91
454.634	10.71
454.835	10.5
455.036	10.3
455.238	9.95
455.439	9.67
455.64	9.39
455.841	9.34
456.042	9.47
456.244	9.09
456.445	8.83
456.646	8.54
456.847	8.48
457.048	8.38
457.249	8.45
457.45	8.25
457.651	7.64
457.852	7.49
458.054	7.18
458.255	7.13
458.456	7.15
458.657	7.19
458.858	6.67
459.058	6.54
459.259	6.6
459.46	6.43
459.661	6.38
459.862	6.42
460.063	6.34
460.264	6.21
460.465	5.93
460.666	5.98
460.866	5.67
461.067	5.5
461.268	5.51
461.469	5.45
461.67	5.38
461.87	5.2
462.071	5.25
462.272	5.15
462.473	5.1
462.673	5.24
462.874	5.07
463.075	5.03
463.275	5.06
463.476	5.12
463.676	5.08
463.877	4.9
464.078	4.93
464.278	5.01
464.479	4.84
464.679	4.67
464.88	4.65
465.08	4.6
465.281	4.5
465.481	4.29
465.682	4.09
465.882	4.12
466.083	4
466.283	4.07
466.483	3.95
466.684	3.75
466.884	3.57
467.085	3.62
467.285	3.69
467.485	3.61
467.686	3.51
467.886	3.42
468.086	3.35
468.286	3.32
468.487	3.48
468.687	3.28
468.887	3.18
469.087	3.28
469.287	3.21
469.488	3.07
469.688	3.15
469.888	3.18
470.088	3.11
470.288	3.07
470.488	3.02
470.688	2.85
470.888	2.84
471.088	2.69
471.288	2.79
471.488	2.74
471.688	2.73
471.888	2.7
472.088	2.85
472.288	2.72
472.488	2.6
472.688	2.51
472.888	2.64
473.088	2.59
473.288	2.5
473.488	2.46
473.688	2.55
473.887	2.47
474.087	2.42
474.287	2.43
474.487	2.39
474.687	2.42
474.886	2.34
475.086	2.3
475.286	2.32
475.486	2.28
475.685	2.14
475.885	2.2
476.085	2.27
476.284	2.24
476.484	2.2
476.684	2.21
476.883	2.3
477.083	2.21
477.282	2.08
477.482	2.2
477.681	2.12
477.881	2.03
478.08	2.09
478.28	2.02
478.479	2.05
478.679	2.13
478.878	2.08
479.078	1.98
479.277	2.09
479.477	2.08
479.676	2.03
479.875	2.02
480.075	1.91
480.274	2.03
480.473	2.09
480.673	1.99
480.872	2.05
481.071	2.06
481.271	2.04
481.47	2
481.669	2
481.868	1.98
482.067	1.95
482.267	1.92
482.466	1.92
482.665	1.93
482.864	1.92
483.063	1.89
483.262	2.01
483.461	2.07
483.661	2.06
483.86	2
484.059	2.06
484.258	2.04
484.457	2
484.656	2.02
484.855	2.13
485.054	1.89
485.253	1.98
485.452	1.97
485.651	2.08
485.849	2.02
486.048	2
486.247	2.02
486.446	2.12
486.645	2.06
486.844	2.06
487.043	2.02
487.241	2.1
487.44	2.07
487.639	2.14
487.838	2.12
488.037	2.12
488.235	2.19
488.434	2.17
488.633	2.06
488.831	2.25
489.03	2.24
489.229	2.19
489.427	2.21
489.626	2.3
489.825	2.3
490.023	2.31
490.222	2.24
490.42	2.31
490.619	2.37
490.817	2.38
491.016	2.35
491.214	2.44
491.413	2.44
491.611	2.39
491.81	2.37
492.008	2.48
492.207	2.55
492.405	2.56
492.604	2.46
492.802	2.57
493	2.62
493.199	2.63
493.397	2.64
493.595	2.68
493.794	2.67
493.992	2.76
494.19	2.72
494.388	2.83
494.587	2.75
494.785	2.76
494.983	2.74
495.181	2.87
495.379	2.92
495.578	2.98
495.776	2.94
495.974	2.98
496.172	3
496.37	3.08
496.568	3.09
496.766	3.14
496.964	3.21
497.162	3.2
497.36	3.23
497.558	3.25
497.756	3.33
497.954	3.29
498.152	3.33
498.35	3.45
498.548	3.41
498.746	3.38
498.944	3.44
499.142	3.42
499.34	3.52
499.538	3.67
499.736	3.53
499.933	3.65
500.131	3.63
500.329	3.8
500.527	3.81
500.725	3.85
500.922	3.94
501.12	3.89
501.318	4
501.516	3.95
501.713	4.03
501.911	4.01
502.109	3.96
502.306	4.12
502.504	4.03
502.701	4.07
502.899	4.2
503.097	4.38
503.294	4.22
503.492	4.33
503.689	4.4
503.887	4.41
504.084	4.48
504.282	4.41
504.479	4.41
504.677	4.63
504.874	4.54
505.072	4.46
505.269	4.74
505.466	4.76
505.664	4.77
505.861	4.68
506.059	4.78
506.256	4.82
506.453	4.84
506.651	4.97
506.848	5.05
507.045	5
507.242	5.01
507.44	5.03
507.637	5.13
507.834	5.05
508.031	5.22
508.229	5.19
508.426	5.14
508.623	5.35
508.82	5.35
509.017	5.3
509.214	5.34
509.411	5.38
509.608	5.29
509.805	5.51
510.003	5.44
510.2	5.52
510.397	5.69
510.594	5.56
510.791	5.65
510.988	5.63
511.184	5.71
511.381	5.58
511.578	5.75
511.775	5.88
511.972	5.83
512.169	5.85
512.366	5.78
512.563	5.97
512.76	5.99
512.956	6.03
513.153	5.97
513.35	5.94
513.547	5.95
513.744	6.08
513.94	6.09
514.137	6.17
514.334	6.12
514.53	6.22
514.727	6.44
514.924	6.35
515.12	6.29
515.317	6.3
515.514	6.21
515.71	6.23
515.907	6.49
516.103	6.48
516.3	6.38
516.497	6.53
516.693	6.53
516.89	6.51
517.086	6.55
517.283	6.63
517.479	6.44
517.676	6.65
517.872	6.66
518.068	6.68
518.265	6.69
518.461	6.58
518.658	6.72
518.854	6.78
519.05	6.86
519.247	6.84
519.443	6.79
519.639	6.9
519.836	6.84
520.032	6.79
520.228	6.9
520.424	6.92
520.621	6.92
520.817	6.99
521.013	6.96
521.209	7.14
521.405	7.08
521.601	7.08
521.798	7.04
521.994	7.08
522.19	6.99
522.386	7.05
522.582	7.1
522.778	7.25
522.974	7.11
523.17	7.16
523.366	7.16
523.562	7.21
523.758	7.18
523.954	7.04
524.15	7.21
524.346	7.25
524.542	7.38
524.738	7.33
524.934	7.38
525.129	7.33
525.325	7.33
525.521	7.28
525.717	7.5
525.913	7.35
526.109	7.39
526.304	7.5
526.5	7.49
526.696	7.55
526.892	7.36
527.087	7.67
527.283	7.58
527.479	7.53
527.674	7.33
527.87	7.5
528.066	7.58
528.261	7.51
528.457	7.49
528.653	7.65
528.848	7.66
529.044	7.68
529.239	7.55
529.435	7.54
529.63	7.53
529.826	7.56
530.021	7.63
530.217	7.7
530.412	7.55
530.608	7.61
530.803	7.68
530.999	7.57
531.194	7.66
531.389	7.78
531.585	7.71
531.78	7.85
531.975	7.7
532.171	7.83
532.366	7.74
532.561	7.85
532.757	7.75
532.952	7.9
533.147	7.63
533.342	7.83
533.538	7.71
533.733	7.94
533.928	7.64
534.123	7.8
534.318	7.83
534.513	7.78
534.709	7.93
534.904	7.86
535.099	7.92
535.294	7.89
535.489	7.92
535.684	7.88
535.879	7.88
536.074	7.89
536.269	7.95
536.464	7.95
536.659	7.86
536.854	7.97
537.049	8.03
537.244	7.95
537.439	7.99
537.634	7.92
537.828	8.04
538.023	7.9
538.218	7.95
538.413	7.87
538.608	7.97
538.803	7.97
538.997	7.95
539.192	7.94
539.387	7.94
539.582	7.96
539.776	7.84
539.971	8.03
540.166	8.12
540.36	7.89
540.555	8.11
540.75	8.03
540.944	8.06
541.139	8.07
541.334	8.05
541.528	8.03
541.723	8.13
541.917	8.1
542.112	7.95
542.306	7.94
542.501	7.96
542.695	8.01
542.89	8
543.084	8.02
543.279	8.08
543.473	8.11
543.668	8.09
543.862	8
544.056	8
544.251	8.12
544.445	8.12
544.64	8.13
544.834	7.79
545.028	7.73
545.222	8.05
545.417	8.25
545.611	8.13
545.805	8.07
546	7.93
546.194	8.07
546.388	8.13
546.582	7.98
546.776	8.04
546.97	8.09
547.165	8.1
547.359	8.04
547.553	8.03
547.747	8.07
547.941	8.22
548.135	8.03
548.329	8.16
548.523	8.09
548.717	8.06
548.911	8.06
549.105	8.03
549.299	8.12
549.493	8.11
549.687	8.01
549.881	8.14
550.075	8.14
550.269	8.02
550.463	8.13
550.657	8.16
550.85	8.08
551.044	8.07
551.238	8.14
551.432	8.14
551.626	8.11
551.82	8.17
552.013	7.99
552.207	8.21
552.401	8.18
552.594	8.13
552.788	8.04
552.982	8.09
553.176	8
553.369	8.3
553.563	8.15
553.756	8.07
553.95	8.17
554.144	8.18
554.337	8.16
554.531	7.95
554.724	8.13
554.918	8.19
555.111	8.16
555.305	8.15
555.498	8.07
555.692	8.23
555.885	8.17
556.079	8.12
556.272	8.1
556.466	8.16
556.659	8.09
556.852	8.18
557.046	8.09
557.239	7.95
557.432	8
557.626	8.23
557.819	8.19
558.012	8.21
558.206	8.21
558.399	8.12
558.592	8.04
558.785	8.08
558.979	8.16
559.172	8.1
559.365	8.12
559.558	8.08
559.751	8.07
559.944	8.26
560.138	8.1
560.331	8.14
560.524	8.24
560.717	8.08
560.91	8.17
561.103	8.18
561.296	8.02
561.489	8.14
561.682	8.2
561.875	8.15
562.068	8.19
562.261	8.08
562.454	8.33
562.647	8.06
562.84	8.17
563.032	8.16
563.225	8.05
563.418	8.12
563.611	8.23
563.804	8.08
563.997	7.98
564.19	7.91
564.382	8.2
564.575	8.16
564.768	8.03
564.961	8.21
565.153	8.06
565.346	8.03
565.539	8.1
565.731	8.11
565.924	8.23
566.117	8.27
566.309	8.18
566.502	8.13
566.695	8.07
566.887	8.16
567.08	8.03
567.272	8.14
567.465	8.01
567.657	8.2
567.85	8.01
568.042	8.08
568.235	8.1
568.427	7.98
568.62	8.12
568.812	8.02
569.005	8.18
569.197	8.04
569.389	8.15
569.582	8.15
569.774	8.05
569.966	7.98
570.159	7.97
570.351	7.99
570.543	8.04
570.736	8.03
570.928	7.85
571.12	8.08
571.312	7.96
571.505	7.79
571.697	8.1
571.889	8.08
572.081	8.06
572.273	7.92
572.465	8.08
572.658	8.02
572.85	8.03
573.042	8.09
573.234	7.95
573.426	8.02
573.618	7.93
573.81	8.01
574.002	8
574.194	7.98
574.386	7.93
574.578	7.83
574.77	8
574.962	7.92
575.154	7.82
575.346	7.88
575.538	7.89
575.729	7.81
575.921	7.95
576.113	7.98
576.305	7.93
576.497	8.04
576.689	7.84
576.88	7.77
577.072	8.01
577.264	7.96
577.456	7.88
577.647	7.9
577.839	7.98
578.031	7.86
578.223	7.83
578.414	7.77
578.606	7.82
578.798	7.87
578.989	7.86
579.181	7.95
579.372	7.78
579.564	7.9
579.755	7.76
579.947	7.81
580.139	7.9
580.33	7.65
580.522	7.85
580.713	7.71
580.905	7.71
581.096	7.93
581.287	7.75
581.479	7.76
581.67	7.86
581.862	7.74
582.053	7.72
582.244	7.65
582.436	7.83
582.627	7.67
582.818	7.61
583.01	7.65
583.201	7.72
583.392	7.71
583.583	7.61
583.775	7.46
583.966	7.65
584.157	7.62
584.348	7.7
584.54	7.56
584.731	7.69
584.922	7.53
585.113	7.44
585.304	7.6
585.495	7.58
585.686	7.65
585.877	7.6
586.068	7.74
586.259	7.62
586.45	7.55
586.641	7.55
586.832	7.62
587.023	7.57
587.214	7.48
587.405	7.51
587.596	7.51
587.787	7.47
587.978	7.51
588.169	7.41
588.36	7.35
588.551	7.51
588.742	7.47
588.932	7.53
589.123	7.26
589.314	7.55
589.505	7.34
589.696	7.43
589.886	7.35
590.077	7.32
590.268	7.29
590.458	7.27
590.649	7.16
590.84	7.33
591.03	7.41
591.221	7.32
591.412	7.14
591.602	7.36
591.793	7.3
591.984	7.26
592.174	7.23
592.365	7.42
592.555	7.1
592.746	7.19
592.936	7.17
593.127	7.24
593.317	7.26
593.508	7.24
593.698	7.14
593.889	7.18
594.079	7.1
594.269	7.06
594.46	7.08
594.65	7.1
594.84	7.04
595.031	6.96
595.221	7.01
595.411	7.03
595.602	7.03
595.792	6.97
595.982	6.87
596.172	7.12
596.363	6.96
596.553	6.87
596.743	6.96
596.933	6.97
597.123	6.92
597.314	6.71
597.504	6.76
597.694	7.01
597.884	6.88
598.074	6.87
598.264	6.84
598.454	6.8
598.644	6.78
598.834	6.79
599.024	6.72
599.214	6.76
599.404	6.84
599.594	6.78
599.784	6.63
599.974	6.75
600.164	6.69
600.354	6.67
600.544	6.54
600.734	6.64
600.924	6.68
601.114	6.59
601.303	6.6
601.493	6.66
601.683	6.61
601.873	6.63
602.063	6.47
602.252	6.54
602.442	6.49
602.632	6.46
602.821	6.46
603.011	6.51
603.201	6.45
603.39	6.4
603.58	6.37
603.77	6.46
603.959	6.47
604.149	6.36
604.339	6.37
604.528	6.52
604.718	6.39
604.907	6.33
605.097	6.25
605.286	6.22
605.476	6.31
605.665	6.29
605.855	6.23
606.044	6.32
606.234	6.25
606.423	6.21
606.612	6.2
606.802	6.11
606.991	6.21
607.181	6.2
607.37	6.18
607.559	5.94
607.749	6.04
607.938	6.05
608.127	6.04
608.316	6.03
608.506	6.06
608.695	6.04
608.884	5.95
609.073	6.06
609.263	6.06
609.452	6.01
609.641	5.91
609.83	5.83
610.019	6
610.208	5.83
610.397	5.89
610.586	5.92
610.775	5.86
610.965	5.84
611.154	5.74
611.343	5.86
611.532	5.79
611.721	5.8
611.91	5.7
612.099	5.8
612.287	5.63
612.476	5.64
612.665	5.74
612.854	5.57
613.043	5.66
613.232	5.6
613.421	5.52
613.61	5.59
613.798	5.57
613.987	5.58
614.176	5.48
614.365	5.65
614.554	5.53
614.742	5.59
614.931	5.45
615.12	5.63
615.309	5.52
615.497	5.37
615.686	5.34
615.875	5.36
616.063	5.45
616.252	5.35
616.44	5.4
616.629	5.33
616.818	5.33
617.006	5.24
617.195	5.25
617.383	5.3
617.572	5.16
617.76	5.24
617.949	5.19
618.137	5.28
618.326	5.25
618.514	5.05
618.703	5.06
618.891	5.22
619.079	5.1
619.268	5.22
619.456	4.99
619.644	5.15
619.833	5.02
620.021	5.04
620.209	4.94
620.398	5
620.586	4.93
620.774	4.98
620.962	4.97
621.151	5.07
621.339	4.94
621.527	4.9
621.715	4.9
621.903	4.88
622.092	4.83
622.28	4.9
622.468	4.74
622.656	4.84
622.844	4.79
623.032	4.78
623.22	4.69
623.408	4.85
623.596	4.72
623.784	4.79
623.972	4.61
624.16	4.65
624.348	4.8
624.536	4.75
624.724	4.56
624.912	4.64
625.1	4.67
625.288	4.61
625.476	4.51
625.664	4.58
625.851	4.5
626.039	4.57
626.227	4.46
626.415	4.54
626.603	4.46
626.79	4.53
626.978	4.46
627.166	4.49
627.354	4.37
627.541	4.38
627.729	4.24
627.917	4.53
628.104	4.45
628.292	4.35
628.48	4.38
628.667	4.31
628.855	4.43
629.042	4.34
629.23	4.26
629.418	4.31
629.605	4.29
629.793	4.19
629.98	4.23
630.168	4.19
630.355	4.23
630.543	4.21
630.73	4.11
630.917	4.12
631.105	4.25
631.292	4.09
631.48	4.07
631.667	4.26
631.854	4.08
632.042	4.04
632.229	3.97
632.416	4.1
632.604	4
632.791	3.86
632.978	3.99
633.165	4
633.353	4.06
633.54	3.97
633.727	3.87
633.914	3.89
634.101	3.77
634.289	3.97
634.476	3.84
634.663	3.84
634.85	3.88
635.037	3.76
635.224	3.72
635.411	3.86
635.598	3.76
635.785	3.74
635.972	3.72
636.159	3.76
636.346	3.66
636.533	3.68
636.72	3.65
636.907	3.65
637.094	3.66
637.281	3.54
637.468	3.66
637.655	3.59
637.842	3.6
638.029	3.57
638.215	3.52
638.402	3.62
638.589	3.47
638.776	3.47
638.963	3.5
639.149	3.53
639.336	3.56
639.523	3.44
639.709	3.46
639.896	3.42
640.083	3.42
640.27	3.47
640.456	3.33
640.643	3.38
640.829	3.27
641.016	3.38
641.203	3.24
641.389	3.36
641.576	3.31
641.762	3.22
641.949	3.28
642.135	3.24
642.322	3.27
642.508	3.12
642.695	3.25
642.881	3.18
643.068	3.16
643.254	3.13
643.441	3.17
643.627	3.24
643.813	3.07
644	3.18
644.186	3.02
644.372	3.13
644.559	3.11
644.745	3.08
644.931	3.01
645.118	3.07
645.304	3.04
645.49	2.98
645.676	2.97
645.862	2.96
646.049	3.04
646.235	2.95
646.421	3.09
646.607	2.97
646.793	2.97
646.979	2.87
647.165	2.87
647.352	2.88
647.538	2.87
647.724	2.85
647.91	2.88
648.096	2.87
648.282	2.88
648.468	2.85
648.654	2.82
648.84	2.84
649.026	2.87
649.212	2.74
649.397	2.72
649.583	2.72
649.769	2.79
649.955	2.73
650.141	2.78
650.327	2.75
650.513	2.67
650.698	2.69
650.884	2.52
651.07	2.67
651.256	2.63
651.442	2.65
651.627	2.57
651.813	2.66
651.999	2.63
652.184	2.56
652.37	2.54
652.556	2.58
652.741	2.59
652.927	2.37
653.113	2.51
653.298	2.53
653.484	2.49
653.669	2.45
653.855	2.5
654.04	2.53
654.226	2.48
654.412	2.46
654.597	2.39
654.782	2.43
654.968	2.45
655.153	2.45
655.339	2.38
655.524	2.34
655.71	2.43
655.895	2.34
656.08	2.36
656.266	2.42
656.451	2.34
656.636	2.26
656.822	2.33
657.007	2.3
657.192	2.31
657.378	2.23
657.563	2.25
657.748	2.27
657.933	2.32
658.118	2.19
658.304	2.16
658.489	2.32
658.674	2.27
658.859	2.2
659.044	2.17
659.229	2.24
659.414	2.17
659.599	2.18
659.785	2.08
659.97	2.1
660.155	2.15
660.34	2.21
660.525	2.13
660.71	2.12
660.895	2.11
661.08	2.1
661.264	2.02
661.449	2.17
661.634	2.02
661.819	2.04
662.004	2.01
662.189	1.97
662.374	2.02
662.559	1.97
662.743	1.92
662.928	2.01
663.113	1.97
663.298	1.98
663.483	1.95
663.667	1.93
663.852	1.93
664.037	1.99
664.221	1.89
664.406	1.97
664.591	2.02
664.775	1.98
664.96	1.88
665.145	1.89
665.329	1.92
665.514	1.86
665.698	1.83
665.883	1.84
666.068	1.9
666.252	1.89
666.437	1.8
666.621	1.79
666.806	1.91
666.99	1.79
667.174	1.77
667.359	1.84
667.543	1.82
667.728	1.78
667.912	1.66
668.096	1.79
668.281	1.68
668.465	1.71
668.649	1.74
668.834	1.69
669.018	1.74
669.202	1.74
669.387	1.67
669.571	1.77
669.755	1.68
669.939	1.69
670.124	1.69
670.308	1.72
670.492	1.71
670.676	1.66
670.86	1.59
671.044	1.6
671.228	1.72
671.413	1.56
671.597	1.57
671.781	1.57
671.965	1.63
672.149	1.56
672.333	1.65
672.517	1.55
672.701	1.63
672.885	1.53
673.069	1.47
673.253	1.66
673.437	1.54
673.621	1.54
673.804	1.6
673.988	1.57
674.172	1.52
674.356	1.39
674.54	1.49
674.724	1.61
674.908	1.49
675.091	1.52
675.275	1.46
675.459	1.61
675.643	1.47
675.826	1.47
676.01	1.47
676.194	1.46
676.377	1.47
676.561	1.48
676.745	1.44
676.928	1.49
677.112	1.55
677.296	1.38
677.479	1.34
677.663	1.38
677.846	1.43
678.03	1.41
678.213	1.35
678.397	1.44
678.58	1.38
678.764	1.39
678.947	1.3
679.131	1.35
679.314	1.41
679.498	1.37
679.681	1.39
679.865	1.43
680.048	1.35
680.231	1.32
680.415	1.32
680.598	1.31
680.781	1.29
680.965	1.32
681.148	1.34
681.331	1.32
681.514	1.31
681.698	1.29
681.881	1.31
682.064	1.26
682.247	1.28
682.43	1.2
682.614	1.21
682.797	1.35
682.98	1.32
683.163	1.16
683.346	1.23
683.529	1.16
683.712	1.18
683.895	1.24
684.078	1.13
684.261	1.2
684.444	1.25
684.627	1.26
684.81	1.17
684.993	1.19
685.176	1.27
685.359	1.15
685.542	1.11
685.725	1.27
685.908	1.17
686.091	1.16
686.274	1.21
686.457	1.21
686.639	1.15
686.822	1.16
687.005	1.13
687.188	1.18
687.371	1.22
687.553	1.15
687.736	1.11
687.919	1.25
688.102	1.19
688.284	1.16
688.467	1.11
688.65	1.13
688.832	1.04
689.015	1.08
689.197	0.95
689.38	1.15
689.563	1.23
689.745	1.02
689.928	1
690.11	1.05
690.293	1.09
690.475	0.96
690.658	1.04
690.84	1.01
691.023	1.04
691.205	0.99
691.388	1.04
691.57	1.06
691.752	1.1
691.935	0.89
692.117	0.99
692.3	1.05
692.482	1.04
692.664	0.93
692.847	0.99
693.029	1.06
693.211	1.07
693.393	0.95
693.576	0.92
693.758	0.94
693.94	0.94
694.122	0.97
694.304	0.96
694.487	0.92
694.669	0.99
694.851	0.87
695.033	0.87
695.215	0.93
695.397	0.93
695.579	0.91
695.761	0.91
695.943	0.84
696.125	1.01
696.308	0.96
696.49	0.77
696.671	1.03
696.853	0.89
697.035	1.13
697.217	0.85
697.399	1.02
697.581	0.84
697.763	0.89
697.945	0.81
698.127	0.89
698.309	0.92
698.491	0.87
698.672	0.93
698.854	0.91
699.036	0.97
699.218	0.88
699.399	0.9
699.581	0.9
699.763	0.89
699.945	0.77
700.126	0.75
700.308	0.89
700.49	0.89
700.671	0.72
700.853	0.79
701.035	0.77
701.216	0.78
701.398	0.7
701.579	0.81
701.761	0.84
701.943	0.78
702.124	0.74
702.306	0.76
702.487	0.93
702.669	0.81
702.85	0.73
703.031	0.64
703.213	0.95
703.394	0.88
703.576	0.76
703.757	1.01
703.938	0.85
704.12	1
704.301	0.7
704.483	0.7
704.664	0.77
704.845	0.84
705.026	0.82
705.208	0.68
705.389	0.77
705.57	0.76
705.751	0.68
705.933	0.8
706.114	0.92
706.295	0.76
706.476	0.62
706.657	0.87
706.838	0.8
707.02	0.85
707.201	0.74
707.382	0.74
707.563	0.81
707.744	0.76
707.925	0.64
708.106	0.66
708.287	0.76
708.468	0.81
708.649	0.72
708.83	0.73
709.011	0.7
709.192	0.79
709.373	0.64
709.554	0.67
709.734	0.78
709.915	0.79
710.096	0.64
710.277	0.59
710.458	0.61
710.639	0.81
710.819	0.58
711	0.67
711.181	0.78
711.362	0.76
711.542	0.66
711.723	0.66
711.904	0.72
712.085	0.74
712.265	0.66
712.446	0.54
712.627	0.62
712.807	0.74
712.988	0.62
713.168	0.56
713.349	0.71
713.53	0.52
713.71	0.61
713.891	0.53
714.071	0.61
714.252	0.59
714.432	0.64
714.613	0.49
714.793	0.69
714.974	0.74
715.154	0.74
715.334	0.64
715.515	0.73
715.695	0.56
715.876	0.58
716.056	0.58
716.236	0.6
716.417	0.58
716.597	0.5
716.777	0.86
716.957	0.65
717.138	0.66
717.318	0.54
717.498	0.45
717.678	0.59
717.859	0.73
718.039	0.56
718.219	0.64
718.399	0.63
718.579	0.54
718.759	0.51
718.939	0.67
719.12	0.63
719.3	0.6
719.48	0.42
719.66	0.42
719.84	0.73
720.02	0.62
720.2	0.48
720.38	0.57
720.56	0.69
720.74	0.47
720.92	0.6
721.1	0.74
721.279	0.6
721.459	0.64
721.639	0.46
721.819	0.53
721.999	0.53
722.179	0.65
722.359	0.51
722.538	0.58
722.718	0.5
722.898	0.56
723.078	0.53
723.257	0.54
723.437	0.61
723.617	0.66
723.797	0.49
723.976	0.61
724.156	0.66
724.336	0.7
724.515	0.77
724.695	0.38
724.874	0.56
725.054	0.66
725.234	0.53
725.413	0.52
725.593	0.51
725.772	0.6
725.952	0.52
726.131	0.52
726.311	0.56
726.49	0.48
726.67	0.49
726.849	0.51
727.028	0.54
727.208	0.61
727.387	0.59
727.567	0.43
727.746	0.59
727.925	0.45
728.105	0.53
728.284	0.45
728.463	0.51
728.643	0.54
728.822	0.43
729.001	0.56
729.18	0.54
729.359	0.61
729.539	0.48
729.718	0.52
729.897	0.59
730.076	0.51
730.255	0.39
730.434	0.53
730.614	0.58
730.793	0.78
730.972	0.51
731.151	0.48
731.33	0.62
731.509	0.53
731.688	0.55
731.867	0.43
732.046	0.41
732.225	0.78
732.404	0.35
732.583	0.41
732.762	0.49
732.941	0.57
733.12	0.55
733.298	0.4
733.477	0.6
733.656	0.46
733.835	0.47
734.014	0.58
734.193	0.56
734.371	0.58
734.55	0.51
734.729	0.42
734.908	0.53
735.086	0.5
735.265	0.61
735.444	0.45
735.623	0.37
735.801	0.52
735.98	0.43
736.159	0.5
736.337	0.6
736.516	0.55
736.694	0.58
736.873	0.52
737.052	0.66
737.23	0.73
737.409	0.37
737.587	0.68
737.766	0.35
737.944	0.4
738.123	0.59
738.301	0.54
738.479	0.55
738.658	0.56
738.836	0.35
739.015	0.57
739.193	0.6
739.371	0.34
739.55	0.43
739.728	0.38
739.906	0.71
740.085	0.71
740.263	0.43
740.441	0.24
740.62	0.77
740.798	0.62
740.976	0.4
741.154	0.39
741.332	0.82
741.511	0.47
741.689	0.54
741.867	0.61
742.045	0.49
742.223	0.4
742.401	0.42
742.579	0.49
742.757	0.55
742.935	0.34
743.114	0.47
743.292	0.41
743.47	0.55
743.648	0.54
743.826	0.37
744.004	0.58
744.181	0.55
744.359	0.42
744.537	0.52
744.715	0.46
744.893	0.52
745.071	0.53
745.249	0.43
745.427	0.48
745.605	0.62
745.782	0.47
745.96	0.47
746.138	0.56
746.316	0.51
746.493	0.42
746.671	0.54
746.849	0.36
747.027	0.66
747.204	0.47
747.382	0.56
747.56	0.34
747.737	0.48
747.915	0.4
748.093	0.54
748.27	0.37
748.448	0.51
748.625	0.38
748.803	0.32
748.98	0.33
749.158	0.52
749.335	0.45
749.513	0.35
749.69	0.4
749.868	0.42
750.045	0.46
750.223	0.35
750.4	0.21
750.578	0.65
750.755	0.51
750.932	0.23
751.11	0.46
751.287	0.43
751.464	0.6
751.642	0.24
751.819	0.48
751.996	0.49
752.173	0.37
752.351	0.37
752.528	0.39
752.705	0.31
752.882	0.34
753.06	0.39
753.237	0.46
753.414	0.63
753.591	0.73
753.768	0.4
753.945	0.37
754.122	0.43
754.299	0.54
754.476	0.31
754.654	0.39
754.831	0.62
755.008	0.56
755.185	0.34
755.362	0.32
755.539	0.46
755.716	0.39
755.892	0.5
756.069	0.35
756.246	0.4
756.423	0.43
756.6	0.5
756.777	0.23
756.954	0.62
757.131	0.32
757.307	0.34
757.484	0.3
757.661	0.52
757.838	0.52
758.015	0.23
758.191	0.54
758.368	0.47
758.545	0.67
758.721	0.54
758.898	0.33
759.075	0.42
759.251	0.5
759.428	0.42
759.605	0.25
759.781	0.34
759.958	0.44
760.134	0.39
760.311	0.38
760.488	0.53
760.664	0.6
760.841	0.37
761.017	0.31
761.194	0.51
761.37	0.58
761.547	0.39
761.723	0.32
761.899	0.62
762.076	0.36
762.252	0.32
762.429	0.2
762.605	0.54
762.781	0.31
762.958	0.45
763.134	0.31
763.31	0.35
763.486	0.59
763.663	0.13
763.839	0.47
764.015	0.24
764.191	0.39
764.368	0.36
764.544	0.32
764.72	0.37
764.896	0.4
765.072	0.36
765.248	0.46
765.425	0.4
765.601	0.38
765.777	0.37
765.953	0.08
766.129	0.36
766.305	0.32
766.481	0.59
766.657	0.43
766.833	0.76
767.009	0.34
767.185	0.36
767.361	0.3
767.537	0.3
767.713	0.69
767.889	0.32
768.065	0.45
768.24	0.5
768.416	0.5
768.592	0.41
768.768	0.35
768.944	0.47
769.12	0.37
769.295	0.47
769.471	0.35
769.647	0.35
769.823	0.62
769.998	0.34
770.174	0.31
770.35	0.93
770.525	0.67
770.701	0.39
770.877	0.45
771.052	0.31
771.228	0.67
771.403	0.56
771.579	0.44
771.755	0.7
771.93	0.38
772.106	0.26
772.281	-0.03
772.457	0.28
772.632	0.53
772.808	0.18
772.983	0.28
773.159	0.19
773.334	0.51
773.509	0.46
773.685	0.33
773.86	0.95
774.036	0.71
774.211	0.53
774.386	0.34
774.562	0.56
774.737	0.74
774.912	0.28
775.087	0.46
775.263	0.4
775.438	0.48
775.613	0.46
775.788	0.35
775.964	0.57
776.139	0.93
776.314	0.19
776.489	0.46
776.664	0.32
776.839	0.18
777.014	0.58
777.19	0.62
777.365	0.73
777.54	0.89
777.715	0.2
777.89	0.47
778.065	0.21
778.24	0.47
778.415	0.55
778.59	0.2
778.765	0.47
778.94	0.67
779.115	0.4
779.289	0.31
779.464	0.46
779.639	0.31
779.814	0.23
779.989	0.28
780.164	0.45
780.339	0.7
780.513	0.3
780.688	0.16
780.863	0.59
781.038	0.66
781.212	0.28
781.387	0.28
781.562	0.74
781.737	0.34
781.911	0.69
782.086	0.4
782.261	0.38
782.435	0.65
782.61	0.31
782.784	0.39
782.959	0.81
783.134	0.21
783.308	0.21
783.483	0.42
783.657	1.09
783.832	0.71
784.006	0.12
784.181	0.31
784.355	0.64
784.53	0.37
784.704	0.49
784.878	0.78
785.053	0.59
785.227	0.73
785.402	0.84
785.576	0.18
785.75	0.39
785.925	0.42
786.099	0.49
786.273	0.67
786.448	0.84
786.622	0.85
786.796	0.2
786.97	0.58
787.145	1.24
787.319	0.09
787.493	0.3
787.667	0.1
787.841	0.6
788.015	0.89
788.19	0.37
788.364	0.3
788.538	0.83
788.712	0.72
788.886	0.53
789.06	0.85
789.234	0.74
789.408	0.34
789.582	0.55
789.756	0.16
789.93	0.56
790.104	0.48
790.278	0.57
790.452	0.15
790.626	0.58
790.8	0.38
790.973	0.76
791.147	0.76
791.321	1.14
791.495	0.91
791.669	0.51
791.843	0.55
792.016	0.67
792.19	0.93
792.364	0.17
792.538	1.08
792.711	1.02
792.885	0.43
793.059	0.09
793.233	-0.09
793.406	0.46
793.58	0.62
793.754	0.61
793.927	0.4
794.101	0.9
794.274	0.67
794.448	0.57
794.622	0.35
794.795	1.08
794.969	0.64
795.142	0.87
795.316	0.43
795.489	0.5
795.663	0.98
795.836	0.33
796.009	0.41
796.183	1.04
796.356	0.58
796.53	0.56
796.703	0.59
796.876	1.28
797.05	0.51
797.223	0.45
797.396	0.69
797.57	0.51
797.743	1.06
797.916	0.65
798.09	0.61
798.263	0.98
798.436	0.76
798.609	0.53
798.782	0.51
798.956	0.7
799.129	0.63
799.302	0.21
799.475	0.5
799.648	0.38
799.821	0.4
799.994	0.66
800.167	0.08
800.34	0.52
800.514	0.51
800.687	0.57
800.86	0.29
801.033	0.68
801.206	0.75
801.379	0.1
801.551	0.84
801.724	0.49
801.897	1.41
802.07	0.53
802.243	-0.32
802.416	0.65
802.589	0.59
802.762	1.03
802.935	0.71
803.107	0.92
803.28	1.07
803.453	0.93
803.626	0.25
803.798	1.03
803.971	0.35
804.144	0.79
804.317	0.61
804.489	0.86
804.662	0.65
804.835	0.56
805.007	0.4
805.18	1.17
805.353	0.35
805.525	0.23
805.698	0.46
805.87	1.17
806.043	1.19
806.215	0
806.388	0.17
806.56	0.68
806.733	1.3
806.905	0.66
807.078	0.54
807.25	0.44
807.423	1
807.595	0.95
807.768	0.7
807.94	0.65
808.112	0.99
808.285	1.06
808.457	0.18
808.629	0.71
808.802	0.94
808.974	0.82
809.146	0.43
809.318	0.54
809.491	0.66
809.663	0.84
809.835	0.32
810.007	0.7
810.18	0.62
810.352	0.32
810.524	0.05
810.696	0.97
810.868	1.56
811.04	0.48
811.212	0.57
811.384	1.15
811.556	0.83
811.728	0.42
811.901	1.89
812.073	0.56
812.245	1.1
812.417	0.96
812.589	-0.06
812.76	0.81
812.932	1.6
813.104	1.03
813.276	0.59
813.448	1.22
813.62	0.5
813.792	0.78
813.964	0.88
814.136	0.89
814.307	0.57
814.479	0.11
814.651	0.43
814.823	1.42
814.995	0.51
815.166	0.84
815.338	0.46
815.51	0.43
815.681	1.77
815.853	0.79
816.025	0.6
816.196	1.62
816.368	1.28
816.54	0.28
816.711	0.09
816.883	1.39
817.054	1.96
817.226	0.05
817.398	1.09
817.569	0.89
817.741	0.65
817.912	0.93
818.084	0.56
818.255	1.43
818.426	0.62
818.598	0.72
818.769	0.23
818.941	1.34
819.112	1.7
819.283	1.04
819.455	0.46
819.626	0.96
819.798	1.32
819.969	0.73
820.14	0.13
820.311	0.71
820.483	0.93
820.654	1.37
820.825	0.61
820.996	0.43
821.168	0.17
821.339	0.94
821.51	0.41
821.681	1.05
821.852	0.99
822.023	0.38
822.195	0.41
822.366	1.37
822.537	1.28
822.708	1.16
822.879	0.5
823.05	1.38
823.221	0.68
823.392	1.19
823.563	1.3
823.734	1.35
823.905	1.06
824.076	0.94
824.247	0.33
824.418	0.78
824.589	1.89
824.759	0.51
824.93	0.99
825.101	-0.15
825.272	1.67
825.443	1.5
825.614	1.88
825.784	0.42
825.955	2.11
826.126	1.79
826.297	1.31
826.467	2
826.638	2.36
826.809	0.2
826.98	0.29
827.15	1.31
827.321	1.34
827.492	1.94
827.662	1.52
827.833	2.14
828.003	1.44
828.174	0.26
828.345	0.14
828.515	1.77
828.686	1.54
828.856	0.86
829.027	0.93
829.197	0.94
829.368	1.15
829.538	0.58
829.709	0.93
829.879	1.21
830.049	1.47
830.22	1.17
830.39	0.77
830.56	1.92
830.731	0.84
830.901	0.73
831.072	1.08
831.242	1.61
831.412	1.78
831.582	0.43
831.753	0.3
831.923	1.78
832.093	0.94
832.263	0.63
832.434	0.45
832.604	0.46
832.774	1.75
832.944	0.55
833.114	0.58
833.284	1.09
833.454	0.85
833.624	0.42
833.795	0.9
833.965	1.75
834.135	2.86
834.305	-0.28
834.475	0.06
834.645	1.32
834.815	0.11
834.985	0.45
835.155	0.55
835.325	1.39
835.494	1.2
835.664	0.83
835.834	0.25
836.004	1.75
836.174	1.53
836.344	0.66
836.514	-0.42
836.684	1.06
836.853	1.37
837.023	1.62
837.193	0.2
837.363	1.4
837.532	2.34
837.702	1.17
837.872	-0.31
838.041	2.19
838.211	2.72
838.381	0.5
838.55	1.65
838.72	4.39
838.89	2.86
839.059	0.57
839.229	0.39
839.398	3.69
839.568	2.06
839.738	1.06
839.907	2.3
840.077	1.71
840.246	0.61
840.416	0.42
840.585	0.67
840.755	2.97
840.924	2.65
841.093	0.78
841.263	0.48
841.432	1.3
841.602	0.54
841.771	1
841.94	1.24
842.11	3.08
842.279	3.23
842.448	0.59
842.617	1.32
842.787	2.81
842.956	0.27
843.125	1.09
843.294	1.38
843.464	2.46
843.633	1.94
843.802	0.78
843.971	1.54
844.14	1.92
844.309	2.99
844.479	-0.57
844.648	0.32
844.817	1.57
844.986	1.82
845.155	0.81
845.324	1.07
845.493	1.71
845.662	0.67
845.831	2.67
846	1.89
846.169	0.92
846.338	3.4
846.507	1.5
846.676	1.35
846.844	0.91
847.013	2.75
847.182	1.51
847.351	0.36
847.52	1.26
847.689	1.56
847.858	1.52
848.026	0.83
848.195	2.37
848.364	0.7
848.533	0.76
848.701	0.07
848.87	1.63
849.039	2.4
849.207	2.77
849.376	2.03
849.545	4.86
849.713	0.93
849.882	1.16
850.051	0.69
850.219	1.03
850.388	1.85
850.556	0.8
850.725	0.8
850.893	1.34
851.062	1.01
851.23	2.49
851.399	-0.06
851.567	2
851.736	1.28
851.904	0.32
852.073	1.41
852.241	2.45
852.41	1.36
852.578	1.36
852.746	1.22
852.915	2.34
853.083	2.75
853.251	-0.15
853.42	1.21
853.588	2.09
853.756	3.49
853.924	1.44
854.093	0.98
854.261	0.86
854.429	0.32
854.597	2.11
854.765	0.38
854.934	3.56
855.102	3.56
855.27	1.63
855.438	2.69
855.606	3.1
855.774	4.5
855.942	-0.27
856.11	1.12
856.278	1.37
856.446	2.32
856.614	0.67
856.782	0.01
856.95	2.62
857.118	2.54
857.286	2.54
857.454	0.82
857.622	3.01
857.79	3.04
857.958	0.77
858.126	0.37
858.294	-0.22
858.462	1.62
858.629	1.58
858.797	1.09
858.965	3
859.133	1.6
859.301	1
859.468	2.06
859.636	2.15
859.804	4.27
859.971	2.44
860.139	1.54
860.307	2.69
860.474	1.99
860.642	0.42
860.81	0.78
860.977	2.39
861.145	3.33
861.313	1.45
861.48	0.71
861.648	3.29
861.815	1.39
861.983	0.61
862.15	1.13
862.318	3.65
862.485	3.7
862.653	1.07
862.82	0.94
862.988	4.69
863.155	2.81
863.322	2.41
863.49	1.11
863.657	2.08
863.824	3.74
863.992	2.03
864.159	2.79
864.326	4.11
864.494	0.48
864.661	3.52
864.828	0.8
864.996	4.42
865.163	3.64
865.33	1.94
865.497	-1.67
865.664	2.2
865.832	0.95
865.999	2.19
866.166	0.19
866.333	2.07
866.5	2.14
866.667	0.57
866.834	2.67
867.001	4.47
867.168	-0.22
867.335	2.21
867.502	0.19
867.669	1.61
867.836	5.35
868.003	1.32
868.17	3.42
868.337	6.11
868.504	6.78
868.671	0.17
868.838	1.05
869.005	4.19
869.172	4.06
869.339	1.89
869.505	0.8
869.672	2.35
869.839	4.75
870.006	1.43
870.173	1.05
870.339	4.27
870.506	6.68
870.673	0.87
870.84	3.96
871.006	3.19
871.173	2.34
871.34	1.63
871.506	0.03
871.673	2.5
871.839	-0.12
872.006	3.53
872.173	1.25
872.339	3.38
872.506	5.6
872.672	1.53
872.839	0.56
873.005	3.93
873.172	5.2
873.338	4.1
873.505	2.23
873.671	2.83
873.838	3.83
874.004	-0.97
874.171	2.05
874.337	5.34
874.503	3.88
874.67	1.55
874.836	1.55
875.002	5.86
875.169	2.97
875.335	2.46
875.501	1.45
875.668	4.19
875.834	3.47
876	0.5
876.166	3.18
876.332	3.48
876.499	6.44
876.665	1.63
876.831	0.98
876.997	6.95
877.163	4.5
877.329	0.07
877.495	2.6
877.662	3.81
877.828	4.32
877.994	2.36
878.16	-0.8
878.326	1.81
878.492	2.63
878.658	3.17
878.824	3.43
878.99	3.59
879.156	2.12
879.322	6.66
879.487	2.48
879.653	3.53
879.819	3.76
879.985	2.56
880.151	2.82
880.317	2.99
880.483	4.85
880.648	4.46
880.814	-0.32
880.98	4.31
881.146	-1.95
881.312	0.32
881.477	0.86
881.643	1.16
881.809	4.39
881.974	4.96
882.14	-0.79
882.306	4.59
882.471	6.42
882.637	1.9
882.803	4.4
882.968	6.69
883.134	8.41
883.299	1.81
883.465	0.02
883.63	4.94
883.796	3.13
883.961	3.8
884.127	3.16
884.292	-2.27
884.458	0.87
884.623	0.86
