Data from Apollo_Calib_20240827__AbsoluteIrradiance__831__13-00-01-267.txt Node

Date: Wed Aug 28 13:00:01 BST 2024
User: biology
Spectrometer: FLMT08252
Trigger mode: 0
Integration Time (sec): 5.000000E-1
Scans to average: 5
Electric dark correction enabled: true
Nonlinearity correction enabled: false
Boxcar width: 0
XAxis mode: Wavelengths
Number of Pixels in Spectrum: 3648
>>>>>Begin Spectral Data<<<<<
179.588	-0
179.809	-0
180.03	-0
180.251	-0
180.473	-0
180.694	0
180.915	0
181.136	-0
181.357	0
181.578	-0
181.799	-0
182.02	-0
182.241	-0
182.462	-0
182.683	0
182.904	-0
183.125	-0
183.346	0
183.567	0
183.788	0
184.009	0
184.23	0
184.451	0
184.672	0
184.892	0
185.113	0
185.334	0
185.555	0
185.776	0
185.996	0
186.217	0
186.438	0
186.659	0
186.879	0
187.1	0
187.321	0
187.541	0
187.762	0
187.983	0
188.203	0
188.424	0
188.644	0
188.865	0
189.086	0
189.306	0
189.527	0
189.747	0
189.968	0
190.188	0
190.409	0
190.629	0
190.849	0
191.07	0
191.29	0
191.511	0
191.731	0
191.951	0
192.172	0
192.392	0
192.612	0
192.833	0
193.053	0
193.273	0
193.493	0
193.714	0
193.934	0
194.154	0
194.374	0
194.594	0
194.815	0
195.035	0
195.255	0
195.475	0
195.695	0
195.915	0
196.135	0
196.355	0
196.575	0
196.795	0
197.015	0
197.235	0
197.455	0
197.675	0
197.895	0
198.115	0
198.335	0
198.555	0
198.775	0
198.995	0
199.214	0
199.434	0
199.654	0
199.874	0
200.094	4.28
200.313	2.17
200.533	1.91
200.753	1.42
200.973	3.91
201.192	3.46
201.412	1.07
201.632	1.66
201.851	3.31
202.071	2
202.291	1.63
202.51	1.43
202.73	2.79
202.95	1.87
203.169	1.32
203.389	1.82
203.608	2.19
203.828	1.58
204.047	1.13
204.267	2.46
204.486	2.31
204.706	2.6
204.925	1.68
205.145	0.95
205.364	2.49
205.583	2.9
205.803	1.21
206.022	1.28
206.242	1.94
206.461	1.69
206.68	1.34
206.9	1.7
207.119	2.44
207.338	2.41
207.557	1.25
207.777	1.27
207.996	1.41
208.215	2.64
208.434	0.94
208.654	0.76
208.873	1.43
209.092	2.18
209.311	1
209.53	1.04
209.749	1.21
209.968	1.21
210.187	1.07
210.407	0.71
210.626	1.42
210.845	1.64
211.064	1.22
211.283	0.75
211.502	1.63
211.721	1.39
211.94	0.97
212.159	1.46
212.377	1.56
212.596	1.66
212.815	1.41
213.034	1.22
213.253	1.47
213.472	1.41
213.691	0.78
213.91	0.74
214.128	0.85
214.347	1.37
214.566	0.45
214.785	0.39
215.003	1.4
215.222	1.08
215.441	1.07
215.66	0.5
215.878	0.99
216.097	1.22
216.316	0.85
216.534	0.95
216.753	0.95
216.972	0.89
217.19	0.91
217.409	0.74
217.627	1.03
217.846	0.97
218.064	0.93
218.283	0.76
218.501	1.42
218.72	1.32
218.938	0.76
219.157	0.78
219.375	1.23
219.594	1.03
219.812	0.57
220.031	0.59
220.249	1.26
220.467	1.28
220.686	0.57
220.904	0.71
221.122	0.83
221.341	1.24
221.559	0.9
221.777	0.51
221.995	0.74
222.214	0.96
222.432	0.72
222.65	0.87
222.868	0.93
223.086	0.85
223.305	0.81
223.523	0.68
223.741	1.19
223.959	0.84
224.177	0.4
224.395	0.47
224.613	0.72
224.831	1
225.049	0.5
225.267	0.65
225.485	0.69
225.703	0.71
225.921	0.6
226.139	0.6
226.357	0.8
226.575	0.83
226.793	0.58
227.011	1.41
227.229	0.72
227.447	0.96
227.665	0.53
227.883	0.44
228.1	0.59
228.318	0.84
228.536	0.31
228.754	0.52
228.972	0.8
229.189	0.89
229.407	0.51
229.625	0.58
229.843	1.06
230.06	0.81
230.278	0.46
230.496	0.56
230.713	0.72
230.931	0.97
231.149	0.51
231.366	0.32
231.584	0.63
231.801	1.11
232.019	0.53
232.236	0.46
232.454	0.41
232.671	0.83
232.889	0.6
233.106	0.52
233.324	0.5
233.541	0.53
233.759	0.69
233.976	0.42
234.194	0.52
234.411	0.45
234.628	0.43
234.846	0.48
235.063	0.53
235.28	0.7
235.498	0.51
235.715	0.44
235.932	0.7
236.149	0.57
236.367	0.36
236.584	0.57
236.801	0.55
237.018	0.71
237.236	0.5
237.453	0.3
237.67	0.76
237.887	0.47
238.104	0.38
238.321	0.32
238.538	0.4
238.755	0.8
238.973	0.19
239.19	0.44
239.407	0.61
239.624	0.57
239.841	0.42
240.058	0.26
240.275	0.53
240.492	0.46
240.709	0.44
240.925	0.39
241.142	0.55
241.359	0.36
241.576	0.39
241.793	0.38
242.01	0.51
242.227	0.59
242.444	0.56
242.66	0.6
242.877	0.52
243.094	0.42
243.311	0.49
243.527	0.41
243.744	0.55
243.961	0.6
244.178	0.24
244.394	0.44
244.611	0.67
244.828	0.78
245.044	0.39
245.261	0.45
245.477	0.54
245.694	0.5
245.911	0.35
246.127	0.46
246.344	0.73
246.56	0.57
246.777	0.34
246.993	0.35
247.21	0.48
247.426	0.62
247.643	0.35
247.859	0.37
248.076	0.42
248.292	0.69
248.508	0.36
248.725	0.52
248.941	0.5
249.157	0.71
249.374	0.29
249.59	0.48
249.806	0.48
250.023	0.61
250.239	0.33
250.455	0.33
250.671	0.48
250.888	0.55
251.104	0.55
251.32	0.33
251.536	0.37
251.752	0.5
251.969	0.43
252.185	0.33
252.401	0.69
252.617	0.37
252.833	0.42
253.049	0.51
253.265	0.41
253.481	0.52
253.697	0.34
253.913	0.27
254.129	0.48
254.345	0.46
254.561	0.36
254.777	0.3
254.993	0.49
255.209	0.43
255.425	0.39
255.641	0.36
255.857	0.55
256.073	0.44
256.288	0.32
256.504	0.31
256.72	0.48
256.936	0.62
257.152	0.39
257.367	0.28
257.583	0.43
257.799	0.49
258.015	0.4
258.23	0.34
258.446	0.63
258.662	0.35
258.877	0.24
259.093	0.24
259.309	0.39
259.524	0.38
259.74	0.31
259.955	0.23
260.171	0.41
260.387	0.42
260.602	0.46
260.818	0.45
261.033	0.35
261.249	0.46
261.464	0.39
261.68	0.25
261.895	0.5
262.11	0.56
262.326	0.31
262.541	0.25
262.757	0.52
262.972	0.45
263.187	0.4
263.403	0.4
263.618	0.5
263.833	0.4
264.049	0.32
264.264	0.38
264.479	0.41
264.694	0.52
264.91	0.24
265.125	0.35
265.34	0.43
265.555	0.56
265.77	0.41
265.986	0.33
266.201	0.44
266.416	0.45
266.631	0.32
266.846	0.3
267.061	0.39
267.276	0.46
267.491	0.22
267.706	0.38
267.921	0.4
268.136	0.41
268.351	0.38
268.566	0.26
268.781	0.44
268.996	0.48
269.211	0.27
269.426	0.27
269.641	0.37
269.856	0.45
270.071	0.3
270.285	0.28
270.5	0.42
270.715	0.47
270.93	0.34
271.145	0.35
271.359	0.45
271.574	0.33
271.789	0.33
272.004	0.29
272.218	0.32
272.433	0.37
272.648	0.33
272.862	0.33
273.077	0.35
273.292	0.3
273.506	0.25
273.721	0.28
273.936	0.41
274.15	0.39
274.365	0.26
274.579	0.34
274.794	0.43
275.008	0.46
275.223	0.2
275.437	0.31
275.652	0.47
275.866	0.37
276.081	0.34
276.295	0.46
276.509	0.35
276.724	0.29
276.938	0.31
277.153	0.41
277.367	0.45
277.581	0.3
277.796	0.27
278.01	0.25
278.224	0.42
278.438	0.55
278.653	0.25
278.867	0.23
279.081	0.21
279.295	0.26
279.51	0.31
279.724	0.22
279.938	0.41
280.152	0.39
280.366	0.31
280.58	0.35
280.794	0.46
281.008	0.39
281.222	0.36
281.437	0.52
281.651	0.34
281.865	0.41
282.079	0.26
282.293	0.2
282.507	0.23
282.721	0.34
282.935	0.33
283.148	0.24
283.362	0.3
283.576	0.25
283.79	0.27
284.004	0.29
284.218	0.44
284.432	0.26
284.646	0.34
284.859	0.29
285.073	0.29
285.287	0.33
285.501	0.31
285.714	0.27
285.928	0.35
286.142	0.34
286.356	0.28
286.569	0.25
286.783	0.41
286.997	0.39
287.21	0.33
287.424	0.32
287.637	0.32
287.851	0.27
288.065	0.3
288.278	0.28
288.492	0.34
288.705	0.3
288.919	0.35
289.132	0.25
289.346	0.32
289.559	0.24
289.773	0.18
289.986	0.25
290.2	0.29
290.413	0.39
290.626	0.28
290.84	0.3
291.053	0.35
291.267	0.32
291.48	0.27
291.693	0.29
291.906	0.26
292.12	0.28
292.333	0.27
292.546	0.28
292.76	0.41
292.973	0.33
293.186	0.26
293.399	0.23
293.612	0.37
293.826	0.26
294.039	0.33
294.252	0.25
294.465	0.4
294.678	0.28
294.891	0.27
295.104	0.19
295.317	0.31
295.53	0.31
295.743	0.27
295.956	0.26
296.169	0.41
296.382	0.36
296.595	0.22
296.808	0.22
297.021	0.35
297.234	0.34
297.447	0.26
297.66	0.33
297.873	0.35
298.086	0.36
298.299	0.2
298.511	0.19
298.724	0.25
298.937	0.21
299.15	0.24
299.363	0.28
299.575	0.27
299.788	0.28
300.001	0.24
300.213	0.18
300.426	0.25
300.639	0.27
300.852	0.23
301.064	0.31
301.277	0.37
301.489	0.32
301.702	0.28
301.915	0.24
302.127	0.29
302.34	0.34
302.552	0.27
302.765	0.23
302.977	0.35
303.19	0.25
303.402	0.26
303.615	0.22
303.827	0.26
304.04	0.27
304.252	0.3
304.464	0.26
304.677	0.38
304.889	0.3
305.102	0.23
305.314	0.2
305.526	0.31
305.739	0.3
305.951	0.22
306.163	0.22
306.375	0.34
306.588	0.31
306.8	0.25
307.012	0.13
307.224	0.29
307.436	0.34
307.649	0.14
307.861	0.24
308.073	0.37
308.285	0.23
308.497	0.19
308.709	0.22
308.921	0.31
309.133	0.32
309.346	0.26
309.558	0.22
309.77	0.34
309.982	0.35
310.194	0.28
310.406	0.24
310.617	0.39
310.829	0.29
311.041	0.3
311.253	0.2
311.465	0.23
311.677	0.27
311.889	0.24
312.101	0.22
312.313	0.32
312.524	0.38
312.736	0.19
312.948	0.24
313.16	0.39
313.372	0.29
313.583	0.26
313.795	0.19
314.007	0.25
314.218	0.34
314.43	0.26
314.642	0.28
314.853	0.19
315.065	0.29
315.277	0.25
315.488	0.27
315.7	0.34
315.912	0.29
316.123	0.29
316.335	0.28
316.546	0.41
316.758	0.29
316.969	0.21
317.181	0.29
317.392	0.27
317.604	0.31
317.815	0.27
318.026	0.2
318.238	0.23
318.449	0.33
318.661	0.17
318.872	0.18
319.083	0.24
319.295	0.3
319.506	0.2
319.717	0.3
319.929	0.34
320.14	0.31
320.351	0.32
320.562	0.21
320.774	0.26
320.985	0.26
321.196	0.22
321.407	0.18
321.618	0.32
321.829	0.29
322.041	0.25
322.252	0.31
322.463	0.32
322.674	0.29
322.885	0.23
323.096	0.27
323.307	0.32
323.518	0.25
323.729	0.24
323.94	0.21
324.151	0.26
324.362	0.29
324.573	0.32
324.784	0.27
324.995	0.33
325.206	0.27
325.417	0.24
325.628	0.21
325.838	0.28
326.049	0.33
326.26	0.34
326.471	0.26
326.682	0.28
326.892	0.27
327.103	0.19
327.314	0.24
327.525	0.34
327.735	0.3
327.946	0.24
328.157	0.25
328.368	0.34
328.578	0.28
328.789	0.29
328.999	0.25
329.21	0.21
329.421	0.33
329.631	0.24
329.842	0.19
330.052	0.27
330.263	0.3
330.473	0.3
330.684	0.25
330.894	0.26
331.105	0.28
331.315	0.29
331.526	0.18
331.736	0.37
331.947	0.29
332.157	0.3
332.367	0.2
332.578	0.32
332.788	0.37
332.999	0.32
333.209	0.24
333.419	0.18
333.629	0.3
333.84	0.31
334.05	0.26
334.26	0.36
334.47	0.28
334.681	0.3
334.891	0.22
335.101	0.29
335.311	0.38
335.521	0.24
335.732	0.18
335.942	0.28
336.152	0.34
336.362	0.27
336.572	0.28
336.782	0.3
336.992	0.21
337.202	0.25
337.412	0.22
337.622	0.27
337.832	0.24
338.042	0.27
338.252	0.23
338.462	0.29
338.672	0.27
338.882	0.28
339.092	0.25
339.302	0.36
339.511	0.33
339.721	0.21
339.931	0.19
340.141	0.32
340.351	0.34
340.561	0.3
340.77	0.27
340.98	0.25
341.19	0.27
341.4	0.22
341.609	0.24
341.819	0.26
342.029	0.19
342.238	0.27
342.448	0.27
342.658	0.33
342.867	0.27
343.077	0.26
343.286	0.21
343.496	0.31
343.706	0.38
343.915	0.21
344.125	0.27
344.334	0.27
344.544	0.2
344.753	0.25
344.963	0.23
345.172	0.21
345.381	0.25
345.591	0.18
345.8	0.22
346.01	0.32
346.219	0.34
346.428	0.18
346.638	0.23
346.847	0.27
347.056	0.36
347.266	0.23
347.475	0.2
347.684	0.31
347.893	0.3
348.103	0.31
348.312	0.2
348.521	0.27
348.73	0.28
348.94	0.28
349.149	0.26
349.358	0.27
349.567	0.2
349.776	0.22
349.985	0.24
350.194	0.3
350.403	0.32
350.612	0.15
350.821	0.24
351.03	0.25
351.239	0.19
351.448	0.27
351.657	0.19
351.866	0.35
352.075	0.26
352.284	0.28
352.493	0.2
352.702	0.3
352.911	0.31
353.12	0.24
353.329	0.27
353.538	0.28
353.746	0.22
353.955	0.21
354.164	0.26
354.373	0.25
354.582	0.33
354.79	0.28
354.999	0.24
355.208	0.25
355.416	0.29
355.625	0.18
355.834	0.27
356.042	0.3
356.251	0.25
356.46	0.2
356.668	0.25
356.877	0.36
357.085	0.34
357.294	0.17
357.503	0.29
357.711	0.25
357.92	0.4
358.128	0.3
358.337	0.26
358.545	0.29
358.754	0.21
358.962	0.27
359.17	0.29
359.379	0.31
359.587	0.27
359.796	0.25
360.004	0.34
360.212	0.28
360.421	0.37
360.629	0.27
360.837	0.26
361.046	0.35
361.254	0.43
361.462	0.25
361.67	0.25
361.879	0.29
362.087	0.33
362.295	0.29
362.503	0.19
362.711	0.21
362.92	0.2
363.128	0.2
363.336	0.19
363.544	0.2
363.752	0.28
363.96	0.25
364.168	0.2
364.376	0.24
364.584	0.23
364.792	0.33
365	0.28
365.208	0.29
365.416	0.26
365.624	0.32
365.832	0.21
366.04	0.33
366.248	0.24
366.456	0.24
366.664	0.25
366.872	0.26
367.079	0.25
367.287	0.25
367.495	0.26
367.703	0.28
367.911	0.23
368.118	0.26
368.326	0.22
368.534	0.21
368.742	0.3
368.949	0.18
369.157	0.2
369.365	0.29
369.572	0.27
369.78	0.26
369.988	0.28
370.195	0.3
370.403	0.28
370.61	0.19
370.818	0.26
371.026	0.38
371.233	0.21
371.441	0.23
371.648	0.24
371.856	0.28
372.063	0.28
372.271	0.23
372.478	0.21
372.685	0.29
372.893	0.29
373.1	0.28
373.308	0.25
373.515	0.39
373.722	0.37
373.93	0.29
374.137	0.32
374.344	0.35
374.552	0.3
374.759	0.31
374.966	0.22
375.173	0.28
375.381	0.33
375.588	0.26
375.795	0.15
376.002	0.27
376.209	0.25
376.417	0.2
376.624	0.32
376.831	0.36
377.038	0.26
377.245	0.18
377.452	0.22
377.659	0.24
377.866	0.23
378.073	0.26
378.28	0.3
378.487	0.33
378.694	0.37
378.901	0.27
379.108	0.24
379.315	0.31
379.522	0.38
379.729	0.27
379.936	0.23
380.143	0.31
380.35	0.31
380.557	0.26
380.763	0.26
380.97	0.26
381.177	0.31
381.384	0.27
381.591	0.28
381.797	0.31
382.004	0.29
382.211	0.32
382.418	0.17
382.624	0.32
382.831	0.31
383.038	0.3
383.244	0.29
383.451	0.28
383.658	0.3
383.864	0.25
384.071	0.23
384.277	0.37
384.484	0.26
384.69	0.33
384.897	0.25
385.103	0.26
385.31	0.27
385.516	0.26
385.723	0.2
385.929	0.3
386.136	0.27
386.342	0.32
386.549	0.24
386.755	0.41
386.961	0.32
387.168	0.27
387.374	0.23
387.58	0.32
387.787	0.29
387.993	0.33
388.199	0.3
388.406	0.26
388.612	0.29
388.818	0.27
389.024	0.28
389.231	0.29
389.437	0.44
389.643	0.33
389.849	0.31
390.055	0.28
390.261	0.29
390.467	0.33
390.674	0.27
390.88	0.33
391.086	0.32
391.292	0.21
391.498	0.35
391.704	0.33
391.91	0.29
392.116	0.31
392.322	0.22
392.528	0.35
392.734	0.29
392.94	0.32
393.146	0.32
393.352	0.33
393.557	0.27
393.763	0.3
393.969	0.36
394.175	0.34
394.381	0.3
394.587	0.27
394.792	0.33
394.998	0.39
395.204	0.38
395.41	0.29
395.615	0.34
395.821	0.36
396.027	0.36
396.233	0.35
396.438	0.35
396.644	0.39
396.85	0.31
397.055	0.36
397.261	0.36
397.466	0.43
397.672	0.37
397.878	0.37
398.083	0.39
398.289	0.25
398.494	0.42
398.7	0.36
398.905	0.3
399.111	0.47
399.316	0.26
399.522	0.36
399.727	0.34
399.932	0.37
400.138	0.36
400.343	0.39
400.549	0.36
400.754	0.42
400.959	0.42
401.165	0.36
401.37	0.38
401.575	0.47
401.78	0.37
401.986	0.38
402.191	0.38
402.396	0.37
402.601	0.41
402.807	0.41
403.012	0.4
403.217	0.49
403.422	0.45
403.627	0.44
403.832	0.39
404.037	0.46
404.243	0.48
404.448	0.4
404.653	0.42
404.858	0.46
405.063	0.47
405.268	0.37
405.473	0.34
405.678	0.41
405.883	0.72
406.088	0.5
406.293	0.45
406.498	0.47
406.703	0.57
406.907	0.49
407.112	0.44
407.317	0.56
407.522	0.54
407.727	0.47
407.932	0.53
408.136	0.67
408.341	0.56
408.546	0.55
408.751	0.57
408.956	0.6
409.16	0.64
409.365	0.59
409.57	0.58
409.774	0.67
409.979	0.65
410.184	0.67
410.388	0.66
410.593	0.75
410.798	0.72
411.002	0.72
411.207	0.78
411.411	0.87
411.616	0.76
411.82	0.81
412.025	0.87
412.229	0.86
412.434	1.03
412.638	0.96
412.843	0.92
413.047	0.99
413.252	0.91
413.456	1.07
413.66	1.1
413.865	1.06
414.069	1.15
414.273	1.11
414.478	1.11
414.682	1.17
414.886	1.22
415.091	1.22
415.295	1.27
415.499	1.43
415.703	1.38
415.908	1.47
416.112	1.34
416.316	1.6
416.52	1.6
416.724	1.58
416.929	1.64
417.133	1.88
417.337	1.73
417.541	1.83
417.745	1.83
417.949	2.05
418.153	2.06
418.357	2
418.561	2.29
418.765	2.21
418.969	2.39
419.173	2.4
419.377	2.44
419.581	2.71
419.785	2.67
419.989	2.64
420.193	2.79
420.397	2.95
420.601	3.12
420.804	3.15
421.008	3.09
421.212	3.22
421.416	3.33
421.62	3.25
421.823	3.31
422.027	3.53
422.231	3.55
422.435	3.5
422.638	3.59
422.842	3.74
423.046	3.78
423.249	3.97
423.453	4.01
423.657	4.14
423.86	4.22
424.064	4.44
424.268	4.48
424.471	4.51
424.675	4.7
424.878	4.79
425.082	4.94
425.285	5.17
425.489	5.14
425.692	5.27
425.896	5.25
426.099	5.42
426.303	5.61
426.506	5.75
426.71	6.01
426.913	6.17
427.116	6.39
427.32	6.31
427.523	6.48
427.726	6.68
427.93	6.79
428.133	7.08
428.336	7.3
428.54	7.47
428.743	7.65
428.946	7.92
429.149	7.82
429.353	7.86
429.556	8.04
429.759	8.08
429.962	8.2
430.165	8.34
430.368	8.01
430.571	7.98
430.775	8.09
430.978	8.05
431.181	8.11
431.384	8.29
431.587	8.27
431.79	8.74
431.993	8.49
432.196	8.88
432.399	9.27
432.602	9.5
432.805	9.52
433.008	10.06
433.211	9.91
433.414	10.29
433.616	10.35
433.819	10.23
434.022	10.4
434.225	10.66
434.428	10.59
434.631	11.04
434.833	10.74
435.036	11.11
435.239	11.36
435.442	11.34
435.645	11.53
435.847	11.58
436.05	11.94
436.253	12.09
436.455	12.16
436.658	12.11
436.861	12.41
437.063	12.49
437.266	12.39
437.468	12.91
437.671	12.97
437.874	13.12
438.076	12.9
438.279	13.53
438.481	13.5
438.684	14.23
438.886	13.87
439.089	14.14
439.291	14.23
439.494	14.44
439.696	14.69
439.899	15.28
440.101	15.69
440.303	15.83
440.506	16.7
440.708	16.3
440.91	16.59
441.113	16.59
441.315	16.98
441.517	16.67
441.72	17.19
441.922	16.91
442.124	16.84
442.326	17.24
442.529	17.4
442.731	17.32
442.933	17.72
443.135	17.44
443.337	17.38
443.539	18
443.742	17.7
443.944	18.27
444.146	18.1
444.348	18.01
444.55	17.94
444.752	18.01
444.954	18.02
445.156	17.98
445.358	18.46
445.56	18.69
445.762	18.5
445.964	18.82
446.166	18.64
446.368	18.58
446.57	18.61
446.772	18.23
446.974	18
447.175	18.42
447.377	17.96
447.579	18.29
447.781	17.98
447.983	17.92
448.184	17.44
448.386	17.67
448.588	17.27
448.79	17.19
448.991	17.45
449.193	17.46
449.395	16.86
449.597	16.46
449.798	16.4
450	16.01
450.202	15.87
450.403	15.81
450.605	15.7
450.806	15.32
451.008	15.16
451.21	15.06
451.411	14.64
451.613	13.74
451.814	14.06
452.016	13.92
452.217	13.31
452.419	13.36
452.62	13.06
452.821	12.73
453.023	12.59
453.224	12.24
453.426	11.75
453.627	11.11
453.828	11.28
454.03	11.37
454.231	11.29
454.432	10.97
454.634	10.77
454.835	10.47
455.036	10.38
455.238	10
455.439	9.82
455.64	9.54
455.841	9.28
456.042	9.5
456.244	9.18
456.445	9
456.646	8.5
456.847	8.58
457.048	8.48
457.249	8.44
457.45	8.25
457.651	7.81
457.852	7.64
458.054	7.23
458.255	7.19
458.456	7.32
458.657	7.09
458.858	6.65
459.058	6.63
459.259	6.62
459.46	6.39
459.661	6.45
459.862	6.43
460.063	6.34
460.264	6.37
460.465	6.02
460.666	6.14
460.866	5.78
461.067	5.46
461.268	5.6
461.469	5.48
461.67	5.41
461.87	5.26
462.071	5.2
462.272	5.12
462.473	5.13
462.673	5.36
462.874	5.1
463.075	5.14
463.275	5.09
463.476	5.18
463.676	5.16
463.877	4.99
464.078	4.98
464.278	4.97
464.479	4.92
464.679	4.73
464.88	4.7
465.08	4.64
465.281	4.48
465.481	4.31
465.682	4.14
465.882	4.15
466.083	4.09
466.283	4.04
466.483	3.89
466.684	3.76
466.884	3.62
467.085	3.72
467.285	3.81
467.485	3.62
467.686	3.5
467.886	3.4
468.086	3.38
468.286	3.38
468.487	3.47
468.687	3.33
468.887	3.28
469.087	3.38
469.287	3.26
469.488	2.94
469.688	3.22
469.888	3.27
470.088	3.16
470.288	3.09
470.488	3.06
470.688	2.89
470.888	2.87
471.088	2.69
471.288	2.81
471.488	2.86
471.688	2.74
471.888	2.68
472.088	2.8
472.288	2.78
472.488	2.63
472.688	2.62
472.888	2.65
473.088	2.61
473.288	2.51
473.488	2.49
473.688	2.61
473.887	2.48
474.087	2.42
474.287	2.43
474.487	2.36
474.687	2.46
474.886	2.35
475.086	2.31
475.286	2.37
475.486	2.31
475.685	2.26
475.885	2.17
476.085	2.28
476.284	2.28
476.484	2.23
476.684	2.19
476.883	2.31
477.083	2.16
477.282	2.15
477.482	2.19
477.681	2.15
477.881	2.05
478.08	2.1
478.28	2.03
478.479	2.14
478.679	2.17
478.878	2.05
479.078	2.08
479.277	2.04
479.477	2.12
479.676	2.06
479.875	1.98
480.075	1.97
480.274	2.03
480.473	2.08
480.673	2.01
480.872	2.14
481.071	2.04
481.271	2.05
481.47	2
481.669	2.02
481.868	2.01
482.067	2.03
482.267	1.93
482.466	1.94
482.665	1.9
482.864	1.94
483.063	1.93
483.262	2.01
483.461	2.05
483.661	2.1
483.86	2
484.059	2.08
484.258	2.03
484.457	2.01
484.656	2.04
484.855	2.09
485.054	1.9
485.253	1.99
485.452	1.98
485.651	2.04
485.849	2.03
486.048	2.01
486.247	2.03
486.446	2.11
486.645	2.01
486.844	2.07
487.043	2.05
487.241	2.12
487.44	2.09
487.639	2.11
487.838	2.12
488.037	2.12
488.235	2.22
488.434	2.17
488.633	2.07
488.831	2.25
489.03	2.24
489.229	2.22
489.427	2.23
489.626	2.28
489.825	2.35
490.023	2.31
490.222	2.31
490.42	2.34
490.619	2.37
490.817	2.38
491.016	2.36
491.214	2.44
491.413	2.46
491.611	2.41
491.81	2.41
492.008	2.47
492.207	2.56
492.405	2.52
492.604	2.49
492.802	2.58
493	2.62
493.199	2.63
493.397	2.67
493.595	2.68
493.794	2.68
493.992	2.76
494.19	2.75
494.388	2.84
494.587	2.77
494.785	2.78
494.983	2.76
495.181	2.89
495.379	2.92
495.578	2.95
495.776	3
495.974	2.93
496.172	3
496.37	3.1
496.568	3.09
496.766	3.08
496.964	3.18
497.162	3.19
497.36	3.17
497.558	3.28
497.756	3.36
497.954	3.31
498.152	3.35
498.35	3.44
498.548	3.35
498.746	3.38
498.944	3.41
499.142	3.44
499.34	3.53
499.538	3.63
499.736	3.49
499.933	3.7
500.131	3.65
500.329	3.76
500.527	3.76
500.725	3.87
500.922	3.86
501.12	3.87
501.318	3.95
501.516	3.95
501.713	4.08
501.911	4
502.109	3.95
502.306	4.07
502.504	4.01
502.701	4.07
502.899	4.19
503.097	4.4
503.294	4.24
503.492	4.35
503.689	4.36
503.887	4.42
504.084	4.47
504.282	4.42
504.479	4.38
504.677	4.6
504.874	4.53
505.072	4.45
505.269	4.66
505.466	4.68
505.664	4.75
505.861	4.66
506.059	4.78
506.256	4.78
506.453	4.84
506.651	4.98
506.848	4.99
507.045	4.95
507.242	4.96
507.44	5.01
507.637	5.14
507.834	5.07
508.031	5.21
508.229	5.15
508.426	5.15
508.623	5.29
508.82	5.31
509.017	5.26
509.214	5.31
509.411	5.39
509.608	5.37
509.805	5.52
510.003	5.47
510.2	5.49
510.397	5.7
510.594	5.55
510.791	5.65
510.988	5.67
511.184	5.61
511.381	5.53
511.578	5.73
511.775	5.86
511.972	5.7
512.169	5.8
512.366	5.82
512.563	6.01
512.76	5.97
512.956	5.98
513.153	5.9
513.35	5.86
513.547	5.88
513.744	6.09
513.94	6.01
514.137	6.16
514.334	6.14
514.53	6.21
514.727	6.37
514.924	6.23
515.12	6.28
515.317	6.26
515.514	6.24
515.71	6.21
515.907	6.45
516.103	6.46
516.3	6.3
516.497	6.44
516.693	6.56
516.89	6.47
517.086	6.53
517.283	6.57
517.479	6.4
517.676	6.65
517.872	6.64
518.068	6.64
518.265	6.67
518.461	6.6
518.658	6.71
518.854	6.68
519.05	6.84
519.247	6.87
519.443	6.77
519.639	6.87
519.836	6.78
520.032	6.73
520.228	6.91
520.424	6.88
520.621	6.94
520.817	6.97
521.013	6.9
521.209	7.1
521.405	7.12
521.601	7.03
521.798	7.02
521.994	7.09
522.19	6.98
522.386	7.04
522.582	7.13
522.778	7.23
522.974	7.12
523.17	7.13
523.366	7.15
523.562	7.2
523.758	7.23
523.954	7
524.15	7.28
524.346	7.26
524.542	7.29
524.738	7.22
524.934	7.35
525.129	7.27
525.325	7.24
525.521	7.27
525.717	7.51
525.913	7.34
526.109	7.34
526.304	7.47
526.5	7.46
526.696	7.49
526.892	7.38
527.087	7.62
527.283	7.51
527.479	7.55
527.674	7.34
527.87	7.55
528.066	7.51
528.261	7.56
528.457	7.46
528.653	7.64
528.848	7.62
529.044	7.67
529.239	7.58
529.435	7.54
529.63	7.48
529.826	7.63
530.021	7.62
530.217	7.61
530.412	7.56
530.608	7.64
530.803	7.67
530.999	7.56
531.194	7.64
531.389	7.67
531.585	7.74
531.78	7.84
531.975	7.68
532.171	7.8
532.366	7.76
532.561	7.76
532.757	7.73
532.952	7.86
533.147	7.65
533.342	7.77
533.538	7.69
533.733	7.89
533.928	7.63
534.123	7.77
534.318	7.84
534.513	7.75
534.709	7.89
534.904	7.89
535.099	7.9
535.294	7.87
535.489	7.91
535.684	7.84
535.879	7.86
536.074	7.91
536.269	7.9
536.464	7.96
536.659	7.87
536.854	7.86
537.049	8
537.244	7.94
537.439	7.94
537.634	7.91
537.828	8.03
538.023	7.91
538.218	7.97
538.413	7.86
538.608	7.96
538.803	7.92
538.997	7.88
539.192	7.97
539.387	7.9
539.582	7.92
539.776	7.87
539.971	7.98
540.166	8.09
540.36	7.92
540.555	8.11
540.75	7.99
540.944	8.06
541.139	8.05
541.334	8.04
541.528	8.01
541.723	8.11
541.917	8.1
542.112	7.96
542.306	7.84
542.501	7.93
542.695	7.97
542.89	7.96
543.084	7.98
543.279	8.07
543.473	8.09
543.668	8.14
543.862	7.96
544.056	7.98
544.251	8.12
544.445	8.14
544.64	8.14
544.834	7.81
545.028	7.71
545.222	8.07
545.417	8.24
545.611	8.09
545.805	8.07
546	7.83
546.194	8.06
546.388	8.13
546.582	7.96
546.776	7.99
546.97	8.09
547.165	8.06
547.359	8.06
547.553	8
547.747	8.09
547.941	8.25
548.135	8.11
548.329	8.14
548.523	8.09
548.717	8.01
548.911	7.95
549.105	7.99
549.299	8.12
549.493	8.07
549.687	8.04
549.881	8.16
550.075	8.19
550.269	7.98
550.463	8.18
550.657	8.1
550.85	8.05
551.044	8.05
551.238	8.15
551.432	8.1
551.626	8.16
551.82	8.17
552.013	8.04
552.207	8.2
552.401	8.13
552.594	8.05
552.788	8.06
552.982	8.1
553.176	8.05
553.369	8.23
553.563	8.18
553.756	8.07
553.95	8.13
554.144	8.18
554.337	8.15
554.531	7.95
554.724	8.17
554.918	8.21
555.111	8.16
555.305	8.07
555.498	8.07
555.692	8.21
555.885	8.15
556.079	8.12
556.272	8.1
556.466	8.15
556.659	8.06
556.852	8.15
557.046	8.04
557.239	7.94
557.432	8.08
557.626	8.14
557.819	8.23
558.012	8.12
558.206	8.22
558.399	8.16
558.592	8.04
558.785	8.12
558.979	8.09
559.172	8.13
559.365	8.19
559.558	8.05
559.751	7.97
559.944	8.21
560.138	8.13
560.331	8.15
560.524	8.18
560.717	8.07
560.91	8.14
561.103	8.17
561.296	7.99
561.489	8.17
561.682	8.21
561.875	8.18
562.068	8.26
562.261	7.99
562.454	8.28
562.647	8.05
562.84	8.14
563.032	8.2
563.225	8.08
563.418	8.11
563.611	8.15
563.804	8.13
563.997	8.02
564.19	7.84
564.382	8.17
564.575	8.17
564.768	8.07
564.961	8.2
565.153	8.08
565.346	7.99
565.539	8.17
565.731	8.11
565.924	8.17
566.117	8.29
566.309	8.19
566.502	8.04
566.695	7.98
566.887	8.14
567.08	8.12
567.272	8.14
567.465	8.01
567.657	8.13
567.85	8.05
568.042	8.16
568.235	8.12
568.427	7.95
568.62	8.08
568.812	8.01
569.005	8.13
569.197	8
569.389	8.09
569.582	8.04
569.774	8.04
569.966	8.04
570.159	7.93
570.351	7.96
570.543	8.05
570.736	8
570.928	7.91
571.12	8.05
571.312	7.95
571.505	7.78
571.697	8.05
571.889	7.99
572.081	8.02
572.273	7.92
572.465	8.03
572.658	8.05
572.85	8.02
573.042	8.03
573.234	7.88
573.426	8
573.618	7.94
573.81	8.03
574.002	7.96
574.194	8.04
574.386	7.98
574.578	7.88
574.77	7.92
574.962	7.99
575.154	7.8
575.346	7.86
575.538	7.85
575.729	7.91
575.921	7.97
576.113	8.02
576.305	7.86
576.497	8.03
576.689	7.77
576.88	7.82
577.072	7.93
577.264	7.88
577.456	7.86
577.647	7.84
577.839	8.01
578.031	7.87
578.223	7.85
578.414	7.71
578.606	7.84
578.798	7.89
578.989	7.87
579.181	7.91
579.372	7.83
579.564	7.83
579.755	7.77
579.947	7.71
580.139	7.85
580.33	7.68
580.522	7.8
580.713	7.77
580.905	7.71
581.096	7.85
581.287	7.74
581.479	7.69
581.67	7.76
581.862	7.65
582.053	7.72
582.244	7.69
582.436	7.79
582.627	7.64
582.818	7.65
583.01	7.61
583.201	7.68
583.392	7.64
583.583	7.63
583.775	7.5
583.966	7.6
584.157	7.67
584.348	7.68
584.54	7.59
584.731	7.69
584.922	7.62
585.113	7.5
585.304	7.62
585.495	7.54
585.686	7.63
585.877	7.62
586.068	7.69
586.259	7.65
586.45	7.53
586.641	7.55
586.832	7.61
587.023	7.49
587.214	7.42
587.405	7.52
587.596	7.4
587.787	7.43
587.978	7.45
588.169	7.44
588.36	7.33
588.551	7.46
588.742	7.44
588.932	7.51
589.123	7.27
589.314	7.44
589.505	7.4
589.696	7.38
589.886	7.3
590.077	7.37
590.268	7.21
590.458	7.17
590.649	7.1
590.84	7.37
591.03	7.35
591.221	7.28
591.412	7.14
591.602	7.32
591.793	7.27
591.984	7.24
592.174	7.22
592.365	7.37
592.555	7.17
592.746	7.15
592.936	7.13
593.127	7.2
593.317	7.2
593.508	7.21
593.698	7.11
593.889	7.15
594.079	7.08
594.269	7.05
594.46	7.07
594.65	7.11
594.84	7.06
595.031	6.96
595.221	6.96
595.411	6.98
595.602	7.09
595.792	6.97
595.982	6.89
596.172	7.02
596.363	6.89
596.553	6.93
596.743	6.95
596.933	6.91
597.123	6.92
597.314	6.83
597.504	6.78
597.694	6.95
597.884	6.87
598.074	6.9
598.264	6.82
598.454	6.81
598.644	6.81
598.834	6.77
599.024	6.69
599.214	6.73
599.404	6.82
599.594	6.74
599.784	6.6
599.974	6.78
600.164	6.74
600.354	6.63
600.544	6.58
600.734	6.68
600.924	6.61
601.114	6.52
601.303	6.56
601.493	6.6
601.683	6.59
601.873	6.57
602.063	6.46
602.252	6.52
602.442	6.44
602.632	6.45
602.821	6.42
603.011	6.53
603.201	6.48
603.39	6.42
603.58	6.3
603.77	6.35
603.959	6.49
604.149	6.39
604.339	6.34
604.528	6.42
604.718	6.41
604.907	6.29
605.097	6.29
605.286	6.25
605.476	6.23
605.665	6.28
605.855	6.25
606.044	6.27
606.234	6.27
606.423	6.19
606.612	6.14
606.802	6.14
606.991	6.25
607.181	6.15
607.37	6.15
607.559	5.99
607.749	6.13
607.938	5.96
608.127	6.05
608.316	6.05
608.506	5.95
608.695	6.07
608.884	5.97
609.073	6
609.263	6.05
609.452	6.03
609.641	5.89
609.83	5.79
610.019	5.97
610.208	5.85
610.397	5.8
610.586	5.85
610.775	5.84
610.965	5.8
611.154	5.67
611.343	5.76
611.532	5.71
611.721	5.8
611.91	5.7
612.099	5.71
612.287	5.61
612.476	5.57
612.665	5.77
612.854	5.56
613.043	5.64
613.232	5.62
613.421	5.57
613.61	5.54
613.798	5.61
613.987	5.58
614.176	5.54
614.365	5.56
614.554	5.5
614.742	5.65
614.931	5.38
615.12	5.53
615.309	5.42
615.497	5.41
615.686	5.31
615.875	5.38
616.063	5.41
616.252	5.36
616.44	5.39
616.629	5.28
616.818	5.35
617.006	5.31
617.195	5.22
617.383	5.23
617.572	5.23
617.76	5.23
617.949	5.21
618.137	5.26
618.326	5.22
618.514	5.02
618.703	5.04
618.891	5.2
619.079	5.1
619.268	5.22
619.456	5
619.644	5.14
619.833	5.09
620.021	5.06
620.209	4.89
620.398	5.05
620.586	4.9
620.774	4.92
620.962	4.94
621.151	5.11
621.339	4.94
621.527	4.85
621.715	4.89
621.903	4.89
622.092	4.82
622.28	4.89
622.468	4.77
622.656	4.81
622.844	4.8
623.032	4.86
623.22	4.64
623.408	4.82
623.596	4.78
623.784	4.75
623.972	4.64
624.16	4.59
624.348	4.73
624.536	4.69
624.724	4.62
624.912	4.67
625.1	4.68
625.288	4.58
625.476	4.54
625.664	4.58
625.851	4.52
626.039	4.57
626.227	4.47
626.415	4.51
626.603	4.41
626.79	4.52
626.978	4.46
627.166	4.47
627.354	4.39
627.541	4.39
627.729	4.22
627.917	4.51
628.104	4.41
628.292	4.3
628.48	4.41
628.667	4.21
628.855	4.35
629.042	4.34
629.23	4.28
629.418	4.26
629.605	4.22
629.793	4.18
629.98	4.18
630.168	4.18
630.355	4.23
630.543	4.16
630.73	4.1
630.917	4.14
631.105	4.2
631.292	4.11
631.48	4.09
631.667	4.23
631.854	4.07
632.042	4.02
632.229	3.96
632.416	4.03
632.604	4.04
632.791	3.89
632.978	4.01
633.165	4.01
633.353	4.09
633.54	4.01
633.727	3.81
633.914	3.89
634.101	3.85
634.289	3.95
634.476	3.78
634.663	3.75
634.85	3.82
635.037	3.79
635.224	3.7
635.411	3.83
635.598	3.76
635.785	3.71
635.972	3.73
636.159	3.79
636.346	3.71
636.533	3.66
636.72	3.68
636.907	3.61
637.094	3.66
637.281	3.48
637.468	3.59
637.655	3.56
637.842	3.61
638.029	3.54
638.215	3.54
638.402	3.56
638.589	3.48
638.776	3.48
638.963	3.48
639.149	3.57
639.336	3.55
639.523	3.41
639.709	3.43
639.896	3.4
640.083	3.47
640.27	3.43
640.456	3.33
640.643	3.38
640.829	3.28
641.016	3.29
641.203	3.23
641.389	3.34
641.576	3.34
641.762	3.23
641.949	3.19
642.135	3.27
642.322	3.28
642.508	3.13
642.695	3.23
642.881	3.14
643.068	3.16
643.254	3.12
643.441	3.17
643.627	3.19
643.813	3.06
644	3.15
644.186	3.04
644.372	3.14
644.559	3.06
644.745	3.07
644.931	3
645.118	3.02
645.304	3
645.49	3
645.676	2.97
645.862	2.98
646.049	3.01
646.235	2.93
646.421	3.07
646.607	3.09
646.793	2.87
646.979	2.87
647.165	2.89
647.352	2.93
647.538	2.92
647.724	2.85
647.91	2.83
648.096	2.87
648.282	2.95
648.468	2.85
648.654	2.83
648.84	2.82
649.026	2.8
649.212	2.73
649.397	2.7
649.583	2.74
649.769	2.77
649.955	2.74
650.141	2.66
650.327	2.75
650.513	2.65
650.698	2.69
650.884	2.52
651.07	2.67
651.256	2.59
651.442	2.61
651.627	2.57
651.813	2.66
651.999	2.56
652.184	2.54
652.37	2.5
652.556	2.54
652.741	2.63
652.927	2.44
653.113	2.53
653.298	2.56
653.484	2.49
653.669	2.44
653.855	2.48
654.04	2.52
654.226	2.45
654.412	2.43
654.597	2.32
654.782	2.43
654.968	2.44
655.153	2.43
655.339	2.39
655.524	2.31
655.71	2.41
655.895	2.38
656.08	2.34
656.266	2.45
656.451	2.32
656.636	2.29
656.822	2.29
657.007	2.3
657.192	2.28
657.378	2.28
657.563	2.23
657.748	2.26
657.933	2.31
658.118	2.2
658.304	2.26
658.489	2.3
658.674	2.28
658.859	2.16
659.044	2.19
659.229	2.25
659.414	2.17
659.599	2.19
659.785	2.07
659.97	2.12
660.155	2.19
660.34	2.13
660.525	2.03
660.71	2.04
660.895	2.23
661.08	2.06
661.264	2.03
661.449	2.19
661.634	2.09
661.819	2.1
662.004	2.01
662.189	1.94
662.374	2.02
662.559	1.93
662.743	1.95
662.928	1.98
663.113	1.96
663.298	1.84
663.483	2
663.667	1.91
663.852	1.89
664.037	1.92
664.221	1.96
664.406	1.95
664.591	1.91
664.775	1.9
664.96	1.84
665.145	1.89
665.329	1.93
665.514	1.84
665.698	1.81
665.883	1.77
666.068	1.89
666.252	1.85
666.437	1.76
666.621	1.84
666.806	1.87
666.99	1.8
667.174	1.79
667.359	1.88
667.543	1.75
667.728	1.75
667.912	1.66
668.096	1.77
668.281	1.74
668.465	1.78
668.649	1.71
668.834	1.69
669.018	1.75
669.202	1.65
669.387	1.63
669.571	1.78
669.755	1.68
669.939	1.7
670.124	1.66
670.308	1.73
670.492	1.74
670.676	1.62
670.86	1.66
671.044	1.62
671.228	1.7
671.413	1.59
671.597	1.57
671.781	1.57
671.965	1.64
672.149	1.58
672.333	1.58
672.517	1.55
672.701	1.62
672.885	1.56
673.069	1.47
673.253	1.68
673.437	1.52
673.621	1.53
673.804	1.54
673.988	1.5
674.172	1.55
674.356	1.39
674.54	1.52
674.724	1.59
674.908	1.47
675.091	1.52
675.275	1.49
675.459	1.51
675.643	1.56
675.826	1.47
676.01	1.45
676.194	1.5
676.377	1.51
676.561	1.52
676.745	1.49
676.928	1.46
677.112	1.54
677.296	1.42
677.479	1.35
677.663	1.43
677.846	1.39
678.03	1.4
678.213	1.34
678.397	1.42
678.58	1.39
678.764	1.38
678.947	1.33
679.131	1.39
679.314	1.4
679.498	1.36
679.681	1.35
679.865	1.45
680.048	1.35
680.231	1.33
680.415	1.26
680.598	1.33
680.781	1.29
680.965	1.25
681.148	1.32
681.331	1.3
681.514	1.28
681.698	1.29
681.881	1.31
682.064	1.25
682.247	1.27
682.43	1.2
682.614	1.23
682.797	1.32
682.98	1.3
683.163	1.17
683.346	1.29
683.529	1.2
683.712	1.17
683.895	1.23
684.078	1.12
684.261	1.18
684.444	1.26
684.627	1.17
684.81	1.16
684.993	1.16
685.176	1.25
685.359	1.11
685.542	1.12
685.725	1.21
685.908	1.21
686.091	1.13
686.274	1.2
686.457	1.21
686.639	1.16
686.822	1.18
687.005	1.15
687.188	1.2
687.371	1.2
687.553	1.2
687.736	1.11
687.919	1.23
688.102	1.17
688.284	1.11
688.467	1.04
688.65	1.11
688.832	1.09
689.015	1.07
689.197	0.99
689.38	1.18
689.563	1.18
689.745	0.99
689.928	0.98
690.11	1.02
690.293	1.1
690.475	0.95
690.658	1.06
690.84	1.05
691.023	1.01
691.205	0.95
691.388	1.08
691.57	1.09
691.752	1.07
691.935	0.91
692.117	0.97
692.3	0.99
692.482	0.94
692.664	0.92
692.847	1.01
693.029	1.06
693.211	1
693.393	0.95
693.576	0.8
693.758	0.97
693.94	0.94
694.122	0.95
694.304	0.93
694.487	0.93
694.669	0.98
694.851	0.84
695.033	0.89
695.215	0.93
695.397	0.92
695.579	0.89
695.761	0.88
695.943	0.82
696.125	1.03
696.308	0.94
696.49	0.79
696.671	1.03
696.853	0.9
697.035	1.14
697.217	0.91
697.399	0.95
697.581	0.89
697.763	0.92
697.945	0.82
698.127	0.87
698.309	0.92
698.491	0.87
698.672	0.85
698.854	0.93
699.036	0.98
699.218	0.79
699.399	0.91
699.581	0.93
699.763	0.89
699.945	0.82
700.126	0.75
700.308	0.83
700.49	0.84
700.671	0.66
700.853	0.78
701.035	0.78
701.216	0.81
701.398	0.71
701.579	0.84
701.761	0.93
701.943	0.83
702.124	0.78
702.306	0.78
702.487	0.89
702.669	0.81
702.85	0.75
703.031	0.7
703.213	0.98
703.394	0.79
703.576	0.8
703.757	0.94
703.938	0.86
704.12	0.98
704.301	0.73
704.483	0.79
704.664	0.78
704.845	0.95
705.026	0.79
705.208	0.68
705.389	0.86
705.57	0.81
705.751	0.73
705.933	0.74
706.114	0.79
706.295	0.76
706.476	0.69
706.657	0.84
706.838	0.72
707.02	0.81
707.201	0.71
707.382	0.71
707.563	0.81
707.744	0.67
707.925	0.62
708.106	0.72
708.287	0.76
708.468	0.88
708.649	0.7
708.83	0.77
709.011	0.64
709.192	0.77
709.373	0.65
709.554	0.75
709.734	0.79
709.915	0.76
710.096	0.68
710.277	0.55
710.458	0.72
710.639	0.74
710.819	0.63
711	0.65
711.181	0.76
711.362	0.76
711.542	0.7
711.723	0.67
711.904	0.8
712.085	0.82
712.265	0.64
712.446	0.6
712.627	0.6
712.807	0.64
712.988	0.7
713.168	0.55
713.349	0.68
713.53	0.5
713.71	0.57
713.891	0.54
714.071	0.68
714.252	0.63
714.432	0.56
714.613	0.53
714.793	0.64
714.974	0.75
715.154	0.72
715.334	0.76
715.515	0.71
715.695	0.53
715.876	0.68
716.056	0.56
716.236	0.61
716.417	0.5
716.597	0.47
716.777	0.85
716.957	0.63
717.138	0.63
717.318	0.56
717.498	0.45
717.678	0.72
717.859	0.59
718.039	0.45
718.219	0.58
718.399	0.62
718.579	0.53
718.759	0.47
718.939	0.64
719.12	0.63
719.3	0.6
719.48	0.34
719.66	0.43
719.84	0.78
720.02	0.59
720.2	0.53
720.38	0.54
720.56	0.72
720.74	0.45
720.92	0.54
721.1	0.67
721.279	0.68
721.459	0.6
721.639	0.45
721.819	0.64
721.999	0.49
722.179	0.58
722.359	0.43
722.538	0.51
722.718	0.56
722.898	0.52
723.078	0.54
723.257	0.43
723.437	0.52
723.617	0.56
723.797	0.53
723.976	0.56
724.156	0.67
724.336	0.76
724.515	0.78
724.695	0.4
724.874	0.56
725.054	0.63
725.234	0.46
725.413	0.51
725.593	0.52
725.772	0.59
725.952	0.59
726.131	0.51
726.311	0.53
726.49	0.57
726.67	0.36
726.849	0.51
727.028	0.55
727.208	0.47
727.387	0.57
727.567	0.43
727.746	0.52
727.925	0.5
728.105	0.44
728.284	0.53
728.463	0.49
728.643	0.63
728.822	0.39
729.001	0.49
729.18	0.48
729.359	0.61
729.539	0.42
729.718	0.5
729.897	0.68
730.076	0.52
730.255	0.41
730.434	0.49
730.614	0.6
730.793	0.66
730.972	0.46
731.151	0.49
731.33	0.63
731.509	0.58
731.688	0.52
731.867	0.51
732.046	0.46
732.225	0.84
732.404	0.42
732.583	0.4
732.762	0.49
732.941	0.55
733.12	0.52
733.298	0.47
733.477	0.65
733.656	0.51
733.835	0.44
734.014	0.52
734.193	0.5
734.371	0.5
734.55	0.61
734.729	0.41
734.908	0.52
735.086	0.6
735.265	0.58
735.444	0.41
735.623	0.4
735.801	0.47
735.98	0.5
736.159	0.53
736.337	0.6
736.516	0.57
736.694	0.56
736.873	0.36
737.052	0.82
737.23	0.63
737.409	0.45
737.587	0.77
737.766	0.45
737.944	0.5
738.123	0.6
738.301	0.62
738.479	0.54
738.658	0.57
738.836	0.31
739.015	0.58
739.193	0.61
739.371	0.33
739.55	0.49
739.728	0.47
739.906	0.7
740.085	0.73
740.263	0.56
740.441	0.31
740.62	0.73
740.798	0.67
740.976	0.37
741.154	0.45
741.332	0.7
741.511	0.5
741.689	0.46
741.867	0.63
742.045	0.52
742.223	0.55
742.401	0.46
742.579	0.34
742.757	0.62
742.935	0.34
743.114	0.44
743.292	0.42
743.47	0.42
743.648	0.55
743.826	0.28
744.004	0.56
744.181	0.63
744.359	0.45
744.537	0.51
744.715	0.5
744.893	0.45
745.071	0.54
745.249	0.54
745.427	0.46
745.605	0.44
745.782	0.5
745.96	0.49
746.138	0.65
746.316	0.55
746.493	0.44
746.671	0.46
746.849	0.44
747.027	0.69
747.204	0.49
747.382	0.5
747.56	0.29
747.737	0.42
747.915	0.39
748.093	0.43
748.27	0.34
748.448	0.37
748.625	0.3
748.803	0.34
748.98	0.34
749.158	0.56
749.335	0.44
749.513	0.41
749.69	0.35
749.868	0.48
750.045	0.51
750.223	0.27
750.4	0.16
750.578	0.61
750.755	0.41
750.932	0.29
751.11	0.57
751.287	0.3
751.464	0.44
751.642	0.33
751.819	0.44
751.996	0.45
752.173	0.44
752.351	0.27
752.528	0.46
752.705	0.35
752.882	0.41
753.06	0.51
753.237	0.41
753.414	0.71
753.591	0.65
753.768	0.45
753.945	0.39
754.122	0.41
754.299	0.42
754.476	0.31
754.654	0.37
754.831	0.47
755.008	0.53
755.185	0.36
755.362	0.3
755.539	0.54
755.716	0.42
755.892	0.25
756.069	0.45
756.246	0.4
756.423	0.34
756.6	0.52
756.777	0.3
756.954	0.59
757.131	0.4
757.307	0.33
757.484	0.26
757.661	0.5
757.838	0.48
758.015	0.19
758.191	0.46
758.368	0.51
758.545	0.51
758.721	0.46
758.898	0.19
759.075	0.41
759.251	0.46
759.428	0.45
759.605	0.3
759.781	0.4
759.958	0.44
760.134	0.51
760.311	0.25
760.488	0.5
760.664	0.58
760.841	0.32
761.017	0.27
761.194	0.44
761.37	0.54
761.547	0.39
761.723	0.33
761.899	0.54
762.076	0.29
762.252	0.12
762.429	0.34
762.605	0.57
762.781	0.32
762.958	0.4
763.134	0.28
763.31	0.33
763.486	0.59
763.663	0.07
763.839	0.45
764.015	0.2
764.191	0.3
764.368	0.27
764.544	0.27
764.72	0.47
764.896	0.51
765.072	0.47
765.248	0.42
765.425	0.32
765.601	0.38
765.777	0.28
765.953	0.07
766.129	0.31
766.305	0.26
766.481	0.53
766.657	0.32
766.833	0.55
767.009	0.27
767.185	0.23
767.361	0.32
767.537	0.29
767.713	0.59
767.889	0.26
768.065	0.44
768.24	0.55
768.416	0.5
768.592	0.38
768.768	0.38
768.944	0.48
769.12	0.19
769.295	0.25
769.471	0.27
769.647	0.47
769.823	0.51
769.998	0.26
770.174	0.24
770.35	0.81
770.525	0.79
770.701	0.39
770.877	0.36
771.052	0.29
771.228	0.56
771.403	0.56
771.579	0.41
771.755	0.86
771.93	0.33
772.106	0.29
772.281	0
772.457	0.46
772.632	0.61
772.808	0.34
772.983	0.39
773.159	0.2
773.334	0.64
773.509	0.55
773.685	0.32
773.86	0.75
774.036	0.77
774.211	0.45
774.386	0.23
774.562	0.39
774.737	0.69
774.912	0.17
775.087	0.6
775.263	0.46
775.438	0.5
775.613	0.17
775.788	0.35
775.964	0.77
776.139	0.96
776.314	0.26
776.489	0.43
776.664	0.33
776.839	0.25
777.014	0.58
777.19	0.53
777.365	0.71
777.54	0.68
777.715	0.37
777.89	0.34
778.065	0.35
778.24	0.42
778.415	0.65
778.59	0.15
778.765	0.35
778.94	0.56
779.115	0.38
779.289	0.48
779.464	0.36
779.639	0.44
779.814	0.07
779.989	0.24
780.164	0.77
780.339	0.57
780.513	0.45
780.688	0.28
780.863	0.29
781.038	0.71
781.212	0.26
781.387	0.39
781.562	0.78
781.737	0.19
781.911	0.49
782.086	0.21
782.261	0.38
782.435	0.67
782.61	0.38
782.784	0.55
782.959	0.66
783.134	0.38
783.308	0.25
783.483	0.42
783.657	0.97
783.832	0.78
784.006	0.09
784.181	0.45
784.355	0.62
784.53	0.41
784.704	0.14
784.878	0.84
785.053	0.66
785.227	0.56
785.402	0.83
785.576	0.3
785.75	0.52
785.925	0.38
786.099	0.49
786.273	0.51
786.448	0.79
786.622	0.72
786.796	0.48
786.97	0.5
787.145	0.96
787.319	0.03
787.493	0.38
787.667	0
787.841	0.63
788.015	0.86
788.19	0.15
788.364	0.41
788.538	0.78
788.712	0.58
788.886	0.47
789.06	0.74
789.234	0.61
789.408	0.06
789.582	0.31
789.756	0.28
789.93	0.27
790.104	0.54
790.278	0.29
790.452	0.35
790.626	0.6
790.8	0.23
790.973	0.52
791.147	0.89
791.321	0.88
791.495	1.06
791.669	0.51
791.843	0.83
792.016	0.75
792.19	1.19
792.364	0.43
792.538	1.01
792.711	0.71
792.885	0.47
793.059	0.16
793.233	-0.22
793.406	0.87
793.58	0.35
793.754	0.58
793.927	0.52
794.101	0.97
794.274	0.4
794.448	0.82
794.622	0.14
794.795	1.05
794.969	0.19
795.142	0.77
795.316	0.48
795.489	0.26
795.663	1.09
795.836	0.88
796.009	0.34
796.183	0.94
796.356	0.55
796.53	0.65
796.703	0.68
796.876	1.33
797.05	0.58
797.223	0.26
797.396	0.63
797.57	0.61
797.743	0.92
797.916	0.72
798.09	0.27
798.263	0.65
798.436	0.65
798.609	0.39
798.782	0.52
798.956	0.64
799.129	0.62
799.302	0.3
799.475	0.22
799.648	0.23
799.821	0.41
799.994	0.54
800.167	0.22
800.34	0.39
800.514	0.56
800.687	0.38
800.86	0.34
801.033	0.93
801.206	0.84
801.379	0.29
801.551	0.98
801.724	0.74
801.897	1.26
802.07	0.41
802.243	-0.28
802.416	0.52
802.589	0.27
802.762	0.92
802.935	0.38
803.107	0.97
803.28	1.11
803.453	0.51
803.626	0.51
803.798	0.7
803.971	0.46
804.144	0.67
804.317	0.75
804.489	1.17
804.662	0.84
804.835	0.5
805.007	0.33
805.18	1.22
805.353	0.66
805.525	0.47
805.698	0.38
805.87	1.01
806.043	0.82
806.215	0.18
806.388	0.33
806.56	0.5
806.733	1.13
806.905	0.84
807.078	0.33
807.25	0.81
807.423	1.01
807.595	0.52
807.768	0.7
807.94	0.99
808.112	0.87
808.285	0.67
808.457	0.78
808.629	0.79
808.802	0.85
808.974	0.83
809.146	0.12
809.318	0.34
809.491	0.64
809.663	0.88
809.835	0.18
810.007	0.75
810.18	0.74
810.352	0.05
810.524	0.65
810.696	0.89
810.868	1.19
811.04	0.66
811.212	0.64
811.384	0.8
811.556	0.62
811.728	0.21
811.901	1.64
812.073	0.63
812.245	1.02
812.417	0.76
812.589	0.1
812.76	0.73
812.932	1.28
813.104	0.88
813.276	0.61
813.448	1.31
813.62	0.87
813.792	1.16
813.964	0.83
814.136	1.12
814.307	0.72
814.479	0.19
814.651	0.24
814.823	1.73
814.995	0.88
815.166	0.79
815.338	0.71
815.51	-0.02
815.681	1.63
815.853	0.56
816.025	0.36
816.196	1.79
816.368	1.13
816.54	-0.1
816.711	0.39
816.883	1.24
817.054	2.17
817.226	0.11
817.398	0.87
817.569	0.35
817.741	0.8
817.912	0.91
818.084	0.42
818.255	1.3
818.426	0.59
818.598	0.68
818.769	0.35
818.941	0.99
819.112	1.57
819.283	0.71
819.455	0.09
819.626	0.48
819.798	1.09
819.969	1.06
820.14	0.16
820.311	0.63
820.483	1.14
820.654	1.02
820.825	0.74
820.996	1.08
821.168	-0.07
821.339	0.66
821.51	0.44
821.681	0.37
821.852	1.08
822.023	0.35
822.195	-0.29
822.366	1.48
822.537	1.13
822.708	1.01
822.879	0.48
823.05	1.58
823.221	0.63
823.392	0.17
823.563	1.13
823.734	0.7
823.905	0.98
824.076	0.32
824.247	0.1
824.418	0.81
824.589	1.36
824.759	0.94
824.93	0.68
825.101	0.18
825.272	1.62
825.443	1.66
825.614	1.29
825.784	0.31
825.955	2.36
826.126	2.07
826.297	1.29
826.467	1.63
826.638	2.77
826.809	0.53
826.98	0.71
827.15	1.56
827.321	0.88
827.492	1.88
827.662	1.18
827.833	2.21
828.003	1.49
828.174	-0.08
828.345	0.48
828.515	2.23
828.686	1.07
828.856	0.49
829.027	0.77
829.197	1.35
829.368	0.98
829.538	0.39
829.709	0.31
829.879	1.41
830.049	0.84
830.22	0.66
830.39	0.86
830.56	2.06
830.731	1.27
830.901	0.3
831.072	1.39
831.242	1
831.412	1.13
831.582	0.84
831.753	-0.41
831.923	1.36
832.093	1.81
832.263	0.96
832.434	0.59
832.604	0.4
832.774	1.73
832.944	0.3
833.114	0.55
833.284	1.23
833.454	0.16
833.624	1.11
833.795	0.45
833.965	1.53
834.135	2.45
834.305	-0.55
834.475	-0.21
834.645	1.43
834.815	0.78
834.985	-0.29
835.155	0.15
835.325	1.74
835.494	1.76
835.664	0.58
835.834	0.64
836.004	0.66
836.174	2.4
836.344	1.27
836.514	0.2
836.684	0.74
836.853	1.13
837.023	1.07
837.193	0.04
837.363	1.9
837.532	2.43
837.702	1.02
837.872	0.56
838.041	1.85
838.211	2.45
838.381	0.49
838.55	0.83
838.72	3.47
838.89	2.35
839.059	0.46
839.229	-0.26
839.398	3.51
839.568	1.35
839.738	0.63
839.907	1.94
840.077	1.46
840.246	0.78
840.416	0.45
840.585	-0.08
840.755	3.15
840.924	2.31
841.093	0.3
841.263	0.82
841.432	1.28
841.602	0.96
841.771	0.24
841.94	1.64
842.11	3.58
842.279	2.6
842.448	0.03
842.617	0.01
842.787	2.75
842.956	-0.2
843.125	0.61
843.294	0.55
843.464	2.84
843.633	2.14
843.802	0
843.971	1.12
844.14	2.56
844.309	2.35
844.479	-0.71
844.648	-0.16
844.817	1.33
844.986	1.92
845.155	0.44
845.324	0.83
845.493	1.11
845.662	0.3
845.831	1.61
846	1.4
846.169	0.68
846.338	2.7
846.507	1.29
846.676	1.92
846.844	1.7
847.013	2.26
847.182	1.45
847.351	0.83
847.52	1.47
847.689	1.74
847.858	1.42
848.026	0.23
848.195	0.75
848.364	0.46
848.533	0.46
848.701	0.94
848.87	1.59
849.039	2.76
849.207	2.17
849.376	1.69
849.545	3.1
849.713	1.26
849.882	1.96
850.051	1.68
850.219	2.2
850.388	2.18
850.556	0.76
850.725	0.4
850.893	2.59
851.062	2.03
851.23	2.49
851.399	0.11
851.567	1.77
851.736	1.5
851.904	-0.09
852.073	1.21
852.241	1.04
852.41	0.72
852.578	1.27
852.746	0.17
852.915	3.76
853.083	1.69
853.251	-0.58
853.42	1.33
853.588	1.68
853.756	3.34
853.924	1.37
854.093	1.92
854.261	1.92
854.429	-0.02
854.597	1.7
854.765	0.48
854.934	3.04
855.102	2.79
855.27	0.6
855.438	3.06
855.606	2.8
855.774	3.42
855.942	-0.51
856.11	0.85
856.278	1.31
856.446	3.46
856.614	0.92
856.782	0.33
856.95	2.48
857.118	2.28
857.286	2.04
857.454	0.8
857.622	3.45
857.79	2.56
857.958	0.27
858.126	1.04
858.294	-1.13
858.462	1.53
858.629	-0.04
858.797	0.43
858.965	2.61
859.133	2.26
859.301	1.11
859.468	2.31
859.636	1.66
859.804	4.1
859.971	1.54
860.139	0.96
860.307	2.68
860.474	2.81
860.642	1.41
860.81	0.46
860.977	0.71
861.145	3.1
861.313	0.55
861.48	1.55
861.648	3.76
861.815	2.25
861.983	0.05
862.15	1.46
862.318	3.31
862.485	4.72
862.653	0.12
862.82	0.6
862.988	3.69
863.155	3.29
863.322	0.39
863.49	0.87
863.657	1.2
863.824	5.36
863.992	2.39
864.159	2.28
864.326	4.44
864.494	0.82
864.661	3.03
864.828	0.85
864.996	4.73
865.163	4.12
865.33	2.19
865.497	-1.1
865.664	0.07
865.832	-0.19
865.999	2.12
866.166	-0.09
866.333	0.63
866.5	3.18
866.667	1.83
866.834	1.77
867.001	4.31
867.168	1.45
867.335	2.09
867.502	-0.95
867.669	1.72
867.836	3.92
868.003	-0.77
868.17	4.96
868.337	2.65
868.504	6.37
868.671	-1.88
868.838	0.43
869.005	3.37
869.172	1.9
869.339	2.04
869.505	3.41
869.672	2.55
869.839	3.46
870.006	3.09
870.173	-1.01
870.339	1.12
870.506	5.01
870.673	0.07
870.84	1.8
871.006	2.86
871.173	2.65
871.34	3.04
871.506	-0.22
871.673	3.33
871.839	1.96
872.006	1.84
872.173	0.2
872.339	2.97
872.506	3.55
872.672	2.16
872.839	-0.71
873.005	3.58
873.172	6.49
873.338	3.97
873.505	2.33
873.671	3.52
873.838	4.17
874.004	-0.64
874.171	0.55
874.337	3.96
874.503	5.16
874.67	3.55
874.836	0.05
875.002	5.65
875.169	5.61
875.335	2.1
875.501	1.95
875.668	4.85
875.834	1.07
876	1.05
876.166	3.88
876.332	3.25
876.499	6.1
876.665	1.89
876.831	3
876.997	7.18
877.163	4.87
877.329	0.79
877.495	3.35
877.662	3.12
877.828	3.01
877.994	1
878.16	-1.31
878.326	1.8
878.492	2.73
878.658	2.48
878.824	2.45
878.99	3.83
879.156	1.36
879.322	4.05
879.487	0.21
879.653	2.53
879.819	4.94
879.985	2.12
880.151	3.92
880.317	2.17
880.483	2.43
880.648	3.42
880.814	-0.3
880.98	2.78
881.146	-1.46
881.312	-0.11
881.477	0.87
881.643	3.57
881.809	3.47
881.974	5.38
882.14	-0.18
882.306	2.34
882.471	6.86
882.637	-0.3
882.803	4.2
882.968	6.92
883.134	5.88
883.299	-0.31
883.465	3.01
883.63	4.63
883.796	3.62
883.961	4.82
884.127	4.56
884.292	-3.34
884.458	-0.16
884.623	-0.16
