Data from Apollo_Calib_20240827__AbsoluteIrradiance__815__12-44-01-304.txt Node

Date: Wed Aug 28 12:44:01 BST 2024
User: biology
Spectrometer: FLMT08252
Trigger mode: 0
Integration Time (sec): 5.000000E-1
Scans to average: 5
Electric dark correction enabled: true
Nonlinearity correction enabled: false
Boxcar width: 0
XAxis mode: Wavelengths
Number of Pixels in Spectrum: 3648
>>>>>Begin Spectral Data<<<<<
179.588	-0
179.809	-0
180.03	-0
180.251	-0
180.473	-0
180.694	0
180.915	0
181.136	-0
181.357	0
181.578	-0
181.799	0
182.02	-0
182.241	0
182.462	-0
182.683	0
182.904	-0
183.125	0
183.346	0
183.567	0
183.788	0
184.009	0
184.23	0
184.451	0
184.672	0
184.892	0
185.113	0
185.334	0
185.555	0
185.776	0
185.996	0
186.217	0
186.438	0
186.659	0
186.879	0
187.1	0
187.321	0
187.541	0
187.762	0
187.983	0
188.203	0
188.424	0
188.644	0
188.865	0
189.086	0
189.306	0
189.527	0
189.747	0
189.968	0
190.188	0
190.409	0
190.629	0
190.849	0
191.07	0
191.29	0
191.511	0
191.731	0
191.951	0
192.172	0
192.392	0
192.612	0
192.833	0
193.053	0
193.273	0
193.493	0
193.714	0
193.934	0
194.154	0
194.374	0
194.594	0
194.815	0
195.035	0
195.255	0
195.475	0
195.695	0
195.915	0
196.135	0
196.355	0
196.575	0
196.795	0
197.015	0
197.235	0
197.455	0
197.675	0
197.895	0
198.115	0
198.335	0
198.555	0
198.775	0
198.995	0
199.214	0
199.434	0
199.654	0
199.874	0
200.094	4.28
200.313	2.13
200.533	1.89
200.753	1.71
200.973	3.63
201.192	2.97
201.412	1.61
201.632	2.05
201.851	3.7
202.071	1.81
202.291	1.69
202.51	1.37
202.73	2.73
202.95	1.7
203.169	1.31
203.389	1.35
203.608	1.92
203.828	1.82
204.047	1.45
204.267	2.38
204.486	2.39
204.706	2.48
204.925	1.88
205.145	1.2
205.364	2.36
205.583	2.77
205.803	1.36
206.022	1.3
206.242	1.76
206.461	1.59
206.68	1.35
206.9	1.17
207.119	2.32
207.338	2.2
207.557	1.17
207.777	1.18
207.996	1.5
208.215	2.47
208.434	1.24
208.654	0.91
208.873	1.62
209.092	2.16
209.311	1.05
209.53	1.23
209.749	1.3
209.968	1.19
210.187	1.2
210.407	0.65
210.626	1.35
210.845	1.66
211.064	1.05
211.283	0.81
211.502	1.5
211.721	1.31
211.94	1.16
212.159	1.35
212.377	1.63
212.596	1.48
212.815	1.06
213.034	1.23
213.253	1.46
213.472	1.41
213.691	0.97
213.91	0.8
214.128	0.72
214.347	1.53
214.566	0.71
214.785	0.39
215.003	1.38
215.222	1.17
215.441	1.03
215.66	0.57
215.878	0.84
216.097	1.15
216.316	0.66
216.534	0.98
216.753	1.12
216.972	0.79
217.19	0.67
217.409	0.65
217.627	0.72
217.846	0.76
218.064	0.9
218.283	0.46
218.501	1.53
218.72	0.92
218.938	0.57
219.157	0.68
219.375	1.11
219.594	1
219.812	0.47
220.031	0.41
220.249	1.23
220.467	1.26
220.686	0.68
220.904	0.46
221.122	0.67
221.341	1.24
221.559	0.89
221.777	0.54
221.995	0.84
222.214	0.93
222.432	0.65
222.65	0.87
222.868	0.79
223.086	0.94
223.305	0.83
223.523	0.62
223.741	1.23
223.959	0.7
224.177	0.41
224.395	0.45
224.613	0.82
224.831	0.86
225.049	0.44
225.267	0.56
225.485	0.73
225.703	0.77
225.921	0.6
226.139	0.49
226.357	0.68
226.575	0.85
226.793	0.51
227.011	1.63
227.229	0.77
227.447	0.86
227.665	0.5
227.883	0.45
228.1	0.73
228.318	0.77
228.536	0.27
228.754	0.39
228.972	0.72
229.189	0.83
229.407	0.43
229.625	0.43
229.843	0.83
230.06	0.83
230.278	0.42
230.496	0.5
230.713	0.75
230.931	0.81
231.149	0.42
231.366	0.39
231.584	0.58
231.801	1
232.019	0.52
232.236	0.39
232.454	0.33
232.671	0.65
232.889	0.53
233.106	0.39
233.324	0.56
233.541	0.58
233.759	0.45
233.976	0.43
234.194	0.53
234.411	0.55
234.628	0.47
234.846	0.47
235.063	0.52
235.28	0.59
235.498	0.49
235.715	0.39
235.932	0.83
236.149	0.53
236.367	0.42
236.584	0.68
236.801	0.46
237.018	0.68
237.236	0.44
237.453	0.24
237.67	0.69
237.887	0.48
238.104	0.46
238.321	0.42
238.538	0.33
238.755	0.71
238.973	0.25
239.19	0.52
239.407	0.54
239.624	0.59
239.841	0.32
240.058	0.34
240.275	0.59
240.492	0.52
240.709	0.41
240.925	0.41
241.142	0.42
241.359	0.32
241.576	0.24
241.793	0.38
242.01	0.43
242.227	0.59
242.444	0.47
242.66	0.64
242.877	0.53
243.094	0.44
243.311	0.4
243.527	0.43
243.744	0.54
243.961	0.43
244.178	0.39
244.394	0.42
244.611	0.58
244.828	0.65
245.044	0.41
245.261	0.39
245.477	0.5
245.694	0.54
245.911	0.33
246.127	0.45
246.344	0.52
246.56	0.5
246.777	0.39
246.993	0.37
247.21	0.42
247.426	0.53
247.643	0.34
247.859	0.37
248.076	0.43
248.292	0.72
248.508	0.33
248.725	0.43
248.941	0.55
249.157	0.63
249.374	0.31
249.59	0.45
249.806	0.44
250.023	0.51
250.239	0.31
250.455	0.32
250.671	0.44
250.888	0.53
251.104	0.47
251.32	0.34
251.536	0.48
251.752	0.44
251.969	0.36
252.185	0.36
252.401	0.63
252.617	0.45
252.833	0.36
253.049	0.43
253.265	0.52
253.481	0.35
253.697	0.34
253.913	0.34
254.129	0.45
254.345	0.48
254.561	0.27
254.777	0.39
254.993	0.47
255.209	0.37
255.425	0.4
255.641	0.37
255.857	0.47
256.073	0.47
256.288	0.25
256.504	0.31
256.72	0.49
256.936	0.53
257.152	0.36
257.367	0.24
257.583	0.35
257.799	0.52
258.015	0.35
258.23	0.34
258.446	0.66
258.662	0.31
258.877	0.33
259.093	0.26
259.309	0.34
259.524	0.42
259.74	0.35
259.955	0.24
260.171	0.39
260.387	0.38
260.602	0.45
260.818	0.46
261.033	0.27
261.249	0.47
261.464	0.3
261.68	0.21
261.895	0.46
262.11	0.46
262.326	0.33
262.541	0.23
262.757	0.49
262.972	0.44
263.187	0.41
263.403	0.38
263.618	0.41
263.833	0.4
264.049	0.33
264.264	0.29
264.479	0.42
264.694	0.54
264.91	0.26
265.125	0.3
265.34	0.41
265.555	0.52
265.77	0.36
265.986	0.37
266.201	0.45
266.416	0.51
266.631	0.3
266.846	0.33
267.061	0.39
267.276	0.45
267.491	0.19
267.706	0.37
267.921	0.39
268.136	0.38
268.351	0.31
268.566	0.26
268.781	0.5
268.996	0.41
269.211	0.36
269.426	0.24
269.641	0.34
269.856	0.51
270.071	0.27
270.285	0.24
270.5	0.46
270.715	0.43
270.93	0.28
271.145	0.31
271.359	0.46
271.574	0.32
271.789	0.39
272.004	0.28
272.218	0.3
272.433	0.41
272.648	0.34
272.862	0.42
273.077	0.31
273.292	0.35
273.506	0.25
273.721	0.31
273.936	0.41
274.15	0.42
274.365	0.31
274.579	0.34
274.794	0.39
275.008	0.42
275.223	0.22
275.437	0.35
275.652	0.38
275.866	0.39
276.081	0.28
276.295	0.39
276.509	0.32
276.724	0.36
276.938	0.28
277.153	0.41
277.367	0.39
277.581	0.24
277.796	0.3
278.01	0.22
278.224	0.39
278.438	0.45
278.653	0.28
278.867	0.22
279.081	0.17
279.295	0.31
279.51	0.32
279.724	0.18
279.938	0.39
280.152	0.38
280.366	0.27
280.58	0.31
280.794	0.5
281.008	0.35
281.222	0.3
281.437	0.45
281.651	0.32
281.865	0.39
282.079	0.25
282.293	0.2
282.507	0.25
282.721	0.33
282.935	0.27
283.148	0.24
283.362	0.32
283.576	0.24
283.79	0.32
284.004	0.25
284.218	0.36
284.432	0.33
284.646	0.3
284.859	0.23
285.073	0.29
285.287	0.31
285.501	0.3
285.714	0.28
285.928	0.34
286.142	0.34
286.356	0.26
286.569	0.28
286.783	0.41
286.997	0.34
287.21	0.32
287.424	0.28
287.637	0.21
287.851	0.31
288.065	0.39
288.278	0.28
288.492	0.28
288.705	0.28
288.919	0.31
289.132	0.15
289.346	0.37
289.559	0.22
289.773	0.25
289.986	0.26
290.2	0.26
290.413	0.38
290.626	0.26
290.84	0.27
291.053	0.29
291.267	0.4
291.48	0.3
291.693	0.25
291.906	0.26
292.12	0.34
292.333	0.23
292.546	0.25
292.76	0.41
292.973	0.31
293.186	0.34
293.399	0.23
293.612	0.36
293.826	0.29
294.039	0.27
294.252	0.27
294.465	0.36
294.678	0.32
294.891	0.3
295.104	0.2
295.317	0.27
295.53	0.3
295.743	0.28
295.956	0.26
296.169	0.41
296.382	0.29
296.595	0.27
296.808	0.2
297.021	0.33
297.234	0.34
297.447	0.25
297.66	0.29
297.873	0.38
298.086	0.36
298.299	0.21
298.511	0.16
298.724	0.28
298.937	0.2
299.15	0.21
299.363	0.29
299.575	0.35
299.788	0.26
300.001	0.23
300.213	0.21
300.426	0.25
300.639	0.24
300.852	0.19
301.064	0.32
301.277	0.39
301.489	0.32
301.702	0.27
301.915	0.23
302.127	0.26
302.34	0.26
302.552	0.27
302.765	0.24
302.977	0.31
303.19	0.22
303.402	0.19
303.615	0.24
303.827	0.27
304.04	0.28
304.252	0.3
304.464	0.27
304.677	0.39
304.889	0.33
305.102	0.24
305.314	0.17
305.526	0.32
305.739	0.31
305.951	0.19
306.163	0.25
306.375	0.34
306.588	0.23
306.8	0.24
307.012	0.17
307.224	0.29
307.436	0.37
307.649	0.19
307.861	0.24
308.073	0.27
308.285	0.24
308.497	0.21
308.709	0.21
308.921	0.26
309.133	0.29
309.346	0.26
309.558	0.2
309.77	0.31
309.982	0.33
310.194	0.31
310.406	0.23
310.617	0.38
310.829	0.27
311.041	0.31
311.253	0.24
311.465	0.24
311.677	0.3
311.889	0.26
312.101	0.21
312.313	0.33
312.524	0.34
312.736	0.2
312.948	0.28
313.16	0.36
313.372	0.33
313.583	0.29
313.795	0.19
314.007	0.28
314.218	0.34
314.43	0.22
314.642	0.23
314.853	0.17
315.065	0.28
315.277	0.27
315.488	0.27
315.7	0.32
315.912	0.31
316.123	0.22
316.335	0.23
316.546	0.41
316.758	0.25
316.969	0.24
317.181	0.25
317.392	0.23
317.604	0.34
317.815	0.25
318.026	0.21
318.238	0.28
318.449	0.3
318.661	0.15
318.872	0.16
319.083	0.23
319.295	0.24
319.506	0.21
319.717	0.25
319.929	0.32
320.14	0.28
320.351	0.26
320.562	0.23
320.774	0.31
320.985	0.28
321.196	0.2
321.407	0.17
321.618	0.3
321.829	0.26
322.041	0.27
322.252	0.27
322.463	0.29
322.674	0.33
322.885	0.17
323.096	0.26
323.307	0.3
323.518	0.26
323.729	0.18
323.94	0.21
324.151	0.26
324.362	0.29
324.573	0.27
324.784	0.21
324.995	0.29
325.206	0.29
325.417	0.2
325.628	0.2
325.838	0.33
326.049	0.3
326.26	0.27
326.471	0.21
326.682	0.3
326.892	0.28
327.103	0.18
327.314	0.2
327.525	0.35
327.735	0.3
327.946	0.25
328.157	0.18
328.368	0.34
328.578	0.33
328.789	0.3
328.999	0.26
329.21	0.25
329.421	0.31
329.631	0.26
329.842	0.24
330.052	0.24
330.263	0.34
330.473	0.29
330.684	0.24
330.894	0.28
331.105	0.28
331.315	0.28
331.526	0.2
331.736	0.37
331.947	0.29
332.157	0.27
332.367	0.2
332.578	0.31
332.788	0.38
332.999	0.31
333.209	0.23
333.419	0.2
333.629	0.3
333.84	0.29
334.05	0.26
334.26	0.34
334.47	0.27
334.681	0.32
334.891	0.23
335.101	0.3
335.311	0.36
335.521	0.27
335.732	0.22
335.942	0.36
336.152	0.29
336.362	0.27
336.572	0.25
336.782	0.29
336.992	0.21
337.202	0.26
337.412	0.24
337.622	0.28
337.832	0.29
338.042	0.24
338.252	0.25
338.462	0.23
338.672	0.25
338.882	0.26
339.092	0.24
339.302	0.34
339.511	0.31
339.721	0.23
339.931	0.19
340.141	0.33
340.351	0.31
340.561	0.26
340.77	0.31
340.98	0.32
341.19	0.27
341.4	0.24
341.609	0.24
341.819	0.25
342.029	0.22
342.238	0.28
342.448	0.25
342.658	0.31
342.867	0.26
343.077	0.23
343.286	0.25
343.496	0.3
343.706	0.3
343.915	0.23
344.125	0.23
344.334	0.27
344.544	0.17
344.753	0.18
344.963	0.24
345.172	0.19
345.381	0.18
345.591	0.22
345.8	0.27
346.01	0.31
346.219	0.33
346.428	0.25
346.638	0.23
346.847	0.28
347.056	0.3
347.266	0.24
347.475	0.2
347.684	0.32
347.893	0.29
348.103	0.26
348.312	0.24
348.521	0.27
348.73	0.29
348.94	0.26
349.149	0.23
349.358	0.26
349.567	0.24
349.776	0.16
349.985	0.2
350.194	0.33
350.403	0.37
350.612	0.16
350.821	0.21
351.03	0.25
351.239	0.19
351.448	0.27
351.657	0.2
351.866	0.35
352.075	0.24
352.284	0.25
352.493	0.22
352.702	0.36
352.911	0.31
353.12	0.24
353.329	0.22
353.538	0.27
353.746	0.27
353.955	0.21
354.164	0.25
354.373	0.24
354.582	0.3
354.79	0.25
354.999	0.27
355.208	0.22
355.416	0.34
355.625	0.2
355.834	0.22
356.042	0.29
356.251	0.24
356.46	0.16
356.668	0.27
356.877	0.37
357.085	0.29
357.294	0.13
357.503	0.28
357.711	0.23
357.92	0.41
358.128	0.27
358.337	0.19
358.545	0.32
358.754	0.24
358.962	0.26
359.17	0.19
359.379	0.25
359.587	0.28
359.796	0.24
360.004	0.33
360.212	0.28
360.421	0.29
360.629	0.27
360.837	0.26
361.046	0.3
361.254	0.4
361.462	0.22
361.67	0.23
361.879	0.29
362.087	0.32
362.295	0.28
362.503	0.24
362.711	0.18
362.92	0.21
363.128	0.21
363.336	0.2
363.544	0.23
363.752	0.27
363.96	0.22
364.168	0.23
364.376	0.28
364.584	0.29
364.792	0.31
365	0.27
365.208	0.25
365.416	0.31
365.624	0.27
365.832	0.2
366.04	0.33
366.248	0.27
366.456	0.28
366.664	0.24
366.872	0.29
367.079	0.24
367.287	0.23
367.495	0.27
367.703	0.24
367.911	0.3
368.118	0.25
368.326	0.27
368.534	0.22
368.742	0.32
368.949	0.16
369.157	0.23
369.365	0.29
369.572	0.24
369.78	0.18
369.988	0.27
370.195	0.25
370.403	0.32
370.61	0.25
370.818	0.23
371.026	0.36
371.233	0.21
371.441	0.24
371.648	0.22
371.856	0.26
372.063	0.29
372.271	0.23
372.478	0.22
372.685	0.24
372.893	0.29
373.1	0.22
373.308	0.25
373.515	0.33
373.722	0.29
373.93	0.24
374.137	0.3
374.344	0.34
374.552	0.32
374.759	0.27
374.966	0.27
375.173	0.23
375.381	0.35
375.588	0.25
375.795	0.22
376.002	0.27
376.209	0.24
376.417	0.25
376.624	0.24
376.831	0.31
377.038	0.26
377.245	0.17
377.452	0.3
377.659	0.26
377.866	0.24
378.073	0.24
378.28	0.25
378.487	0.35
378.694	0.35
378.901	0.26
379.108	0.25
379.315	0.26
379.522	0.39
379.729	0.26
379.936	0.28
380.143	0.28
380.35	0.28
380.557	0.25
380.763	0.27
380.97	0.24
381.177	0.27
381.384	0.29
381.591	0.2
381.797	0.27
382.004	0.31
382.211	0.31
382.418	0.18
382.624	0.33
382.831	0.38
383.038	0.25
383.244	0.3
383.451	0.29
383.658	0.32
383.864	0.23
384.071	0.23
384.277	0.34
384.484	0.26
384.69	0.39
384.897	0.26
385.103	0.3
385.31	0.25
385.516	0.25
385.723	0.23
385.929	0.28
386.136	0.29
386.342	0.28
386.549	0.27
386.755	0.36
386.961	0.32
387.168	0.3
387.374	0.26
387.58	0.32
387.787	0.26
387.993	0.32
388.199	0.27
388.406	0.26
388.612	0.25
388.818	0.23
389.024	0.26
389.231	0.25
389.437	0.43
389.643	0.29
389.849	0.26
390.055	0.29
390.261	0.26
390.467	0.34
390.674	0.21
390.88	0.3
391.086	0.31
391.292	0.24
391.498	0.3
391.704	0.33
391.91	0.32
392.116	0.26
392.322	0.21
392.528	0.38
392.734	0.29
392.94	0.31
393.146	0.28
393.352	0.35
393.557	0.31
393.763	0.3
393.969	0.34
394.175	0.31
394.381	0.34
394.587	0.24
394.792	0.27
394.998	0.4
395.204	0.35
395.41	0.27
395.615	0.36
395.821	0.34
396.027	0.35
396.233	0.26
396.438	0.31
396.644	0.38
396.85	0.3
397.055	0.36
397.261	0.37
397.466	0.32
397.672	0.38
397.878	0.38
398.083	0.37
398.289	0.29
398.494	0.39
398.7	0.38
398.905	0.24
399.111	0.47
399.316	0.27
399.522	0.35
399.727	0.34
399.932	0.35
400.138	0.33
400.343	0.38
400.549	0.33
400.754	0.35
400.959	0.38
401.165	0.35
401.37	0.43
401.575	0.35
401.78	0.37
401.986	0.38
402.191	0.35
402.396	0.37
402.601	0.38
402.807	0.41
403.012	0.38
403.217	0.45
403.422	0.44
403.627	0.4
403.832	0.4
404.037	0.5
404.243	0.49
404.448	0.46
404.653	0.42
404.858	0.47
405.063	0.47
405.268	0.4
405.473	0.4
405.678	0.46
405.883	0.69
406.088	0.51
406.293	0.43
406.498	0.48
406.703	0.5
406.907	0.45
407.112	0.43
407.317	0.53
407.522	0.58
407.727	0.46
407.932	0.51
408.136	0.72
408.341	0.55
408.546	0.61
408.751	0.55
408.956	0.59
409.16	0.69
409.365	0.62
409.57	0.62
409.774	0.64
409.979	0.69
410.184	0.65
410.388	0.61
410.593	0.78
410.798	0.75
411.002	0.75
411.207	0.75
411.411	0.8
411.616	0.77
411.82	0.82
412.025	0.86
412.229	0.83
412.434	0.92
412.638	0.95
412.843	0.91
413.047	0.99
413.252	0.95
413.456	0.96
413.66	1.07
413.865	0.99
414.069	1.17
414.273	1.08
414.478	1.09
414.682	1.16
414.886	1.21
415.091	1.2
415.295	1.22
415.499	1.36
415.703	1.29
415.908	1.47
416.112	1.37
416.316	1.6
416.52	1.55
416.724	1.52
416.929	1.62
417.133	1.81
417.337	1.75
417.541	1.81
417.745	1.84
417.949	1.92
418.153	1.94
418.357	2.05
418.561	2.19
418.765	2.11
418.969	2.35
419.173	2.41
419.377	2.41
419.581	2.67
419.785	2.61
419.989	2.6
420.193	2.78
420.397	2.87
420.601	3
420.804	3.08
421.008	3.06
421.212	3.15
421.416	3.25
421.62	3.21
421.823	3.34
422.027	3.52
422.231	3.51
422.435	3.45
422.638	3.47
422.842	3.67
423.046	3.7
423.249	3.92
423.453	3.81
423.657	4.1
423.86	4.12
424.064	4.26
424.268	4.33
424.471	4.44
424.675	4.61
424.878	4.75
425.082	4.82
425.285	5.11
425.489	5.1
425.692	5.26
425.896	5.27
426.099	5.48
426.303	5.54
426.506	5.7
426.71	5.96
426.913	6.2
427.116	6.37
427.32	6.18
427.523	6.44
427.726	6.67
427.93	6.75
428.133	7.07
428.336	7.27
428.54	7.38
428.743	7.56
428.946	7.76
429.149	7.82
429.353	7.8
429.556	7.98
429.759	7.92
429.962	8.06
430.165	8.24
430.368	7.96
430.571	7.94
430.775	8.12
430.978	8.05
431.181	8.2
431.384	8.14
431.587	8.27
431.79	8.67
431.993	8.56
432.196	8.95
432.399	9.21
432.602	9.36
432.805	9.46
433.008	9.92
433.211	9.88
433.414	10.29
433.616	10.31
433.819	10.19
434.022	10.48
434.225	10.5
434.428	10.52
434.631	11.05
434.833	10.67
435.036	10.95
435.239	11.16
435.442	11.31
435.645	11.44
435.847	11.54
436.05	11.94
436.253	12.01
436.455	12.06
436.658	11.98
436.861	12.25
437.063	12.37
437.266	12.39
437.468	12.6
437.671	13.1
437.874	12.93
438.076	12.98
438.279	13.25
438.481	13.42
438.684	14.15
438.886	13.76
439.089	13.97
439.291	14.05
439.494	14.42
439.696	14.62
439.899	15.18
440.101	15.55
440.303	15.66
440.506	16.3
440.708	16.09
440.91	16.5
441.113	16.52
441.315	16.84
441.517	16.54
441.72	17.27
441.922	16.72
442.124	16.73
442.326	17.11
442.529	17.3
442.731	17.33
442.933	17.74
443.135	17.27
443.337	17.33
443.539	18.05
443.742	17.53
443.944	18.16
444.146	17.93
444.348	17.95
444.55	17.74
444.752	17.91
444.954	18.08
445.156	17.9
445.358	18.34
445.56	18.54
445.762	18.52
445.964	18.84
446.166	18.53
446.368	18.46
446.57	18.41
446.772	18.12
446.974	17.89
447.175	18.27
447.377	17.84
447.579	18.22
447.781	17.99
447.983	17.76
448.184	17.29
448.386	17.69
448.588	17.16
448.79	17.18
448.991	17.43
449.193	17.45
449.395	16.86
449.597	16.47
449.798	16.26
450	15.84
450.202	15.88
450.403	15.78
450.605	15.65
450.806	15.29
451.008	15.2
451.21	14.95
451.411	14.53
451.613	13.84
451.814	14.05
452.016	14.13
452.217	13.35
452.419	13.37
452.62	12.96
452.821	12.92
453.023	12.7
453.224	12.36
453.426	11.78
453.627	11.14
453.828	11.17
454.03	11.4
454.231	11.38
454.432	11.06
454.634	10.65
454.835	10.42
455.036	10.51
455.238	9.97
455.439	9.83
455.64	9.62
455.841	9.41
456.042	9.5
456.244	9.27
456.445	8.97
456.646	8.54
456.847	8.62
457.048	8.43
457.249	8.5
457.45	8.28
457.651	7.73
457.852	7.69
458.054	7.29
458.255	7.24
458.456	7.28
458.657	7.19
458.858	6.75
459.058	6.65
459.259	6.76
459.46	6.45
459.661	6.5
459.862	6.51
460.063	6.34
460.264	6.24
460.465	6
460.666	6.09
460.866	5.77
461.067	5.52
461.268	5.48
461.469	5.48
461.67	5.33
461.87	5.14
462.071	5.25
462.272	5.1
462.473	5.12
462.673	5.31
462.874	5.16
463.075	5.16
463.275	5.17
463.476	5.15
463.676	5.12
463.877	5.08
464.078	4.98
464.278	4.91
464.479	4.87
464.679	4.81
464.88	4.72
465.08	4.72
465.281	4.49
465.481	4.33
465.682	4.14
465.882	4.18
466.083	4.13
466.283	4.07
466.483	3.97
466.684	3.72
466.884	3.64
467.085	3.64
467.285	3.81
467.485	3.59
467.686	3.48
467.886	3.48
468.086	3.37
468.286	3.39
468.487	3.45
468.687	3.26
468.887	3.2
469.087	3.33
469.287	3.22
469.488	3.14
469.688	3.19
469.888	3.2
470.088	3.13
470.288	3.03
470.488	3.14
470.688	2.84
470.888	2.89
471.088	2.65
471.288	2.84
471.488	2.8
471.688	2.73
471.888	2.67
472.088	2.84
472.288	2.76
472.488	2.62
472.688	2.57
472.888	2.62
473.088	2.64
473.288	2.53
473.488	2.49
473.688	2.64
473.887	2.51
474.087	2.41
474.287	2.53
474.487	2.42
474.687	2.44
474.886	2.4
475.086	2.31
475.286	2.3
475.486	2.37
475.685	2.32
475.885	2.23
476.085	2.3
476.284	2.28
476.484	2.25
476.684	2.22
476.883	2.35
477.083	2.21
477.282	2.15
477.482	2.2
477.681	2.18
477.881	2.08
478.08	2.07
478.28	2.03
478.479	2.11
478.679	2.21
478.878	2.07
479.078	2.03
479.277	2.13
479.477	2.08
479.676	2.05
479.875	2.04
480.075	1.93
480.274	2.02
480.473	2.07
480.673	2.06
480.872	2.11
481.071	2.08
481.271	2.08
481.47	2.01
481.669	2
481.868	2
482.067	1.95
482.267	1.88
482.466	1.93
482.665	1.94
482.864	1.99
483.063	1.94
483.262	2.03
483.461	2.06
483.661	2.08
483.86	2
484.059	2.06
484.258	2.03
484.457	1.99
484.656	2.03
484.855	2.06
485.054	1.92
485.253	1.99
485.452	1.92
485.651	2.09
485.849	2.01
486.048	2.01
486.247	2.05
486.446	2.1
486.645	1.99
486.844	2.08
487.043	2.06
487.241	2.09
487.44	2.05
487.639	2.1
487.838	2.15
488.037	2.12
488.235	2.24
488.434	2.17
488.633	2.05
488.831	2.22
489.03	2.22
489.229	2.21
489.427	2.21
489.626	2.26
489.825	2.33
490.023	2.33
490.222	2.3
490.42	2.31
490.619	2.39
490.817	2.31
491.016	2.35
491.214	2.42
491.413	2.42
491.611	2.39
491.81	2.42
492.008	2.48
492.207	2.51
492.405	2.53
492.604	2.46
492.802	2.53
493	2.59
493.199	2.61
493.397	2.6
493.595	2.7
493.794	2.64
493.992	2.76
494.19	2.77
494.388	2.86
494.587	2.73
494.785	2.76
494.983	2.75
495.181	2.86
495.379	2.89
495.578	2.96
495.776	2.99
495.974	2.9
496.172	2.98
496.37	3.08
496.568	3.09
496.766	3.06
496.964	3.2
497.162	3.19
497.36	3.19
497.558	3.21
497.756	3.3
497.954	3.29
498.152	3.32
498.35	3.44
498.548	3.35
498.746	3.37
498.944	3.38
499.142	3.38
499.34	3.55
499.538	3.61
499.736	3.5
499.933	3.63
500.131	3.62
500.329	3.77
500.527	3.73
500.725	3.88
500.922	3.85
501.12	3.87
501.318	3.93
501.516	3.91
501.713	4.04
501.911	3.99
502.109	3.98
502.306	4.09
502.504	3.97
502.701	4.06
502.899	4.16
503.097	4.33
503.294	4.19
503.492	4.36
503.689	4.35
503.887	4.34
504.084	4.44
504.282	4.37
504.479	4.37
504.677	4.57
504.874	4.54
505.072	4.39
505.269	4.67
505.466	4.68
505.664	4.77
505.861	4.64
506.059	4.7
506.256	4.75
506.453	4.82
506.651	4.94
506.848	4.98
507.045	4.95
507.242	4.93
507.44	5.01
507.637	5.08
507.834	5.02
508.031	5.23
508.229	5.1
508.426	5.08
508.623	5.3
508.82	5.32
509.017	5.23
509.214	5.24
509.411	5.37
509.608	5.33
509.805	5.49
510.003	5.46
510.2	5.49
510.397	5.65
510.594	5.49
510.791	5.63
510.988	5.63
511.184	5.57
511.381	5.43
511.578	5.67
511.775	5.83
511.972	5.72
512.169	5.82
512.366	5.85
512.563	5.89
512.76	5.93
512.956	6.03
513.153	5.95
513.35	5.91
513.547	5.88
513.744	6.01
513.94	6.01
514.137	6.17
514.334	6.18
514.53	6.13
514.727	6.33
514.924	6.22
515.12	6.2
515.317	6.34
515.514	6.18
515.71	6.18
515.907	6.41
516.103	6.4
516.3	6.26
516.497	6.45
516.693	6.46
516.89	6.45
517.086	6.52
517.283	6.52
517.479	6.46
517.676	6.65
517.872	6.64
518.068	6.56
518.265	6.62
518.461	6.53
518.658	6.69
518.854	6.69
519.05	6.75
519.247	6.76
519.443	6.72
519.639	6.87
519.836	6.76
520.032	6.72
520.228	6.88
520.424	6.9
520.621	6.91
520.817	6.94
521.013	6.84
521.209	7.08
521.405	7.04
521.601	7.02
521.798	7.02
521.994	7.05
522.19	7
522.386	6.99
522.582	7.16
522.778	7.24
522.974	7.09
523.17	7.13
523.366	7.07
523.562	7.21
523.758	7.18
523.954	7.01
524.15	7.22
524.346	7.28
524.542	7.22
524.738	7.21
524.934	7.36
525.129	7.23
525.325	7.23
525.521	7.25
525.717	7.45
525.913	7.32
526.109	7.31
526.304	7.44
526.5	7.44
526.696	7.43
526.892	7.39
527.087	7.61
527.283	7.45
527.479	7.49
527.674	7.31
527.87	7.46
528.066	7.46
528.261	7.57
528.457	7.44
528.653	7.63
528.848	7.58
529.044	7.64
529.239	7.46
529.435	7.52
529.63	7.47
529.826	7.51
530.021	7.55
530.217	7.59
530.412	7.57
530.608	7.6
530.803	7.58
530.999	7.5
531.194	7.61
531.389	7.7
531.585	7.67
531.78	7.8
531.975	7.6
532.171	7.76
532.366	7.72
532.561	7.69
532.757	7.7
532.952	7.87
533.147	7.61
533.342	7.77
533.538	7.7
533.733	7.89
533.928	7.55
534.123	7.82
534.318	7.8
534.513	7.74
534.709	7.9
534.904	7.85
535.099	7.87
535.294	7.87
535.489	7.93
535.684	7.85
535.879	7.82
536.074	7.87
536.269	7.92
536.464	7.92
536.659	7.83
536.854	7.88
537.049	7.94
537.244	7.9
537.439	7.84
537.634	7.89
537.828	8
538.023	7.95
538.218	7.94
538.413	7.81
538.608	7.92
538.803	7.86
538.997	7.86
539.192	7.96
539.387	7.93
539.582	7.89
539.776	7.87
539.971	8
540.166	8.08
540.36	7.86
540.555	7.97
540.75	7.97
540.944	8
541.139	8.02
541.334	7.99
541.528	7.97
541.723	8.08
541.917	8.07
542.112	7.95
542.306	7.78
542.501	7.95
542.695	7.94
542.89	7.9
543.084	7.97
543.279	7.99
543.473	8.05
543.668	8.03
543.862	7.95
544.056	7.95
544.251	8.06
544.445	8.11
544.64	8.08
544.834	7.79
545.028	7.63
545.222	8.11
545.417	8.21
545.611	8.08
545.805	8.05
546	7.83
546.194	8.09
546.388	8.05
546.582	7.91
546.776	7.98
546.97	8.01
547.165	8.05
547.359	8.05
547.553	7.92
547.747	8.03
547.941	8.23
548.135	7.97
548.329	8.06
548.523	8.09
548.717	7.94
548.911	7.96
549.105	8
549.299	8.09
549.493	8.06
549.687	7.95
549.881	8.14
550.075	8.1
550.269	7.97
550.463	8.05
550.657	8.11
550.85	8.08
551.044	8.05
551.238	8.09
551.432	8.04
551.626	8.12
551.82	8.17
552.013	7.99
552.207	8.21
552.401	8.13
552.594	8.05
552.788	7.99
552.982	8.04
553.176	8.02
553.369	8.23
553.563	8.21
553.756	7.99
553.95	8.08
554.144	8.14
554.337	8.2
554.531	7.89
554.724	8.12
554.918	8.16
555.111	8.07
555.305	8.11
555.498	8.01
555.692	8.18
555.885	8.07
556.079	8.09
556.272	8.09
556.466	8.09
556.659	8.1
556.852	8.15
557.046	8.01
557.239	7.98
557.432	8.02
557.626	8.1
557.819	8.17
558.012	8.13
558.206	8.17
558.399	8.13
558.592	8.01
558.785	8.03
558.979	8.08
559.172	8.11
559.365	8.06
559.558	8.13
559.751	8.01
559.944	8.25
560.138	8.11
560.331	8.1
560.524	8.06
560.717	8.01
560.91	8.05
561.103	8.17
561.296	7.97
561.489	8.13
561.682	8.23
561.875	8.19
562.068	8.18
562.261	8.03
562.454	8.23
562.647	8.03
562.84	8.15
563.032	8.15
563.225	8.07
563.418	8.05
563.611	8.14
563.804	8.1
563.997	7.94
564.19	7.84
564.382	8.21
564.575	8.05
564.768	8.07
564.961	8.16
565.153	8.08
565.346	7.94
565.539	8.15
565.731	8.08
565.924	8.14
566.117	8.16
566.309	8.14
566.502	8.01
566.695	7.96
566.887	8.09
567.08	8.07
567.272	8.15
567.465	7.96
567.657	8.14
567.85	8
568.042	8.06
568.235	8.14
568.427	7.89
568.62	8.1
568.812	8.04
569.005	8.15
569.197	7.9
569.389	8.04
569.582	8.04
569.774	8.04
569.966	7.89
570.159	7.94
570.351	7.87
570.543	7.99
570.736	7.99
570.928	7.87
571.12	8.01
571.312	7.92
571.505	7.72
571.697	7.98
571.889	7.95
572.081	8
572.273	7.89
572.465	8.07
572.658	7.98
572.85	7.98
573.042	8.03
573.234	7.87
573.426	7.98
573.618	7.9
573.81	7.96
574.002	7.99
574.194	7.95
574.386	7.89
574.578	7.78
574.77	7.91
574.962	7.93
575.154	7.77
575.346	7.9
575.538	7.84
575.729	7.87
575.921	7.91
576.113	8
576.305	7.92
576.497	8.04
576.689	7.79
576.88	7.74
577.072	7.92
577.264	7.86
577.456	7.84
577.647	7.79
577.839	7.99
578.031	7.85
578.223	7.82
578.414	7.71
578.606	7.83
578.798	7.84
578.989	7.77
579.181	7.88
579.372	7.8
579.564	7.87
579.755	7.76
579.947	7.71
580.139	7.81
580.33	7.69
580.522	7.78
580.713	7.7
580.905	7.74
581.096	7.82
581.287	7.67
581.479	7.74
581.67	7.76
581.862	7.68
582.053	7.71
582.244	7.5
582.436	7.82
582.627	7.64
582.818	7.6
583.01	7.6
583.201	7.63
583.392	7.58
583.583	7.57
583.775	7.47
583.966	7.55
584.157	7.64
584.348	7.74
584.54	7.57
584.731	7.57
584.922	7.51
585.113	7.44
585.304	7.55
585.495	7.53
585.686	7.67
585.877	7.62
586.068	7.59
586.259	7.57
586.45	7.52
586.641	7.48
586.832	7.51
587.023	7.52
587.214	7.46
587.405	7.5
587.596	7.39
587.787	7.33
587.978	7.45
588.169	7.41
588.36	7.34
588.551	7.37
588.742	7.38
588.932	7.48
589.123	7.26
589.314	7.51
589.505	7.33
589.696	7.34
589.886	7.34
590.077	7.38
590.268	7.32
590.458	7.17
590.649	7.08
590.84	7.26
591.03	7.26
591.221	7.22
591.412	7.12
591.602	7.31
591.793	7.25
591.984	7.25
592.174	7.16
592.365	7.34
592.555	7.07
592.746	7.06
592.936	7.17
593.127	7.21
593.317	7.18
593.508	7.16
593.698	7.04
593.889	7.06
594.079	7.11
594.269	6.89
594.46	7.02
594.65	7.08
594.84	7.07
595.031	6.88
595.221	6.89
595.411	6.98
595.602	7
595.792	6.94
595.982	6.88
596.172	7
596.363	6.85
596.553	6.9
596.743	6.93
596.933	6.85
597.123	6.8
597.314	6.76
597.504	6.77
597.694	6.86
597.884	6.75
598.074	6.84
598.264	6.85
598.454	6.79
598.644	6.76
598.834	6.78
599.024	6.69
599.214	6.72
599.404	6.76
599.594	6.7
599.784	6.68
599.974	6.75
600.164	6.65
600.354	6.54
600.544	6.53
600.734	6.66
600.924	6.67
601.114	6.52
601.303	6.53
601.493	6.52
601.683	6.56
601.873	6.59
602.063	6.44
602.252	6.5
602.442	6.38
602.632	6.4
602.821	6.41
603.011	6.38
603.201	6.47
603.39	6.37
603.58	6.31
603.77	6.37
603.959	6.45
604.149	6.34
604.339	6.29
604.528	6.45
604.718	6.33
604.907	6.22
605.097	6.24
605.286	6.26
605.476	6.21
605.665	6.33
605.855	6.19
606.044	6.25
606.234	6.29
606.423	6.2
606.612	6.14
606.802	6.14
606.991	6.24
607.181	6.24
607.37	6.09
607.559	5.87
607.749	6.05
607.938	6.01
608.127	6.01
608.316	6.03
608.506	5.97
608.695	6.08
608.884	5.92
609.073	6.07
609.263	6.05
609.452	5.95
609.641	5.81
609.83	5.82
610.019	5.94
610.208	5.83
610.397	5.83
610.586	5.91
610.775	5.73
610.965	5.84
611.154	5.68
611.343	5.82
611.532	5.65
611.721	5.77
611.91	5.68
612.099	5.71
612.287	5.63
612.476	5.63
612.665	5.69
612.854	5.58
613.043	5.68
613.232	5.6
613.421	5.58
613.61	5.54
613.798	5.56
613.987	5.64
614.176	5.52
614.365	5.52
614.554	5.52
614.742	5.54
614.931	5.38
615.12	5.57
615.309	5.45
615.497	5.34
615.686	5.32
615.875	5.35
616.063	5.32
616.252	5.33
616.44	5.36
616.629	5.31
616.818	5.29
617.006	5.25
617.195	5.18
617.383	5.24
617.572	5.22
617.76	5.21
617.949	5.17
618.137	5.31
618.326	5.26
618.514	5.02
618.703	5.01
618.891	5.13
619.079	5.07
619.268	5.16
619.456	5.01
619.644	5.17
619.833	4.98
620.021	5.08
620.209	4.92
620.398	4.96
620.586	4.92
620.774	4.97
620.962	4.88
621.151	5.04
621.339	4.87
621.527	4.84
621.715	4.76
621.903	4.86
622.092	4.72
622.28	4.9
622.468	4.68
622.656	4.8
622.844	4.76
623.032	4.79
623.22	4.6
623.408	4.78
623.596	4.74
623.784	4.8
623.972	4.69
624.16	4.63
624.348	4.7
624.536	4.7
624.724	4.53
624.912	4.65
625.1	4.61
625.288	4.6
625.476	4.53
625.664	4.6
625.851	4.5
626.039	4.58
626.227	4.48
626.415	4.49
626.603	4.35
626.79	4.44
626.978	4.48
627.166	4.49
627.354	4.31
627.541	4.36
627.729	4.23
627.917	4.45
628.104	4.37
628.292	4.27
628.48	4.28
628.667	4.28
628.855	4.3
629.042	4.35
629.23	4.23
629.418	4.23
629.605	4.24
629.793	4.13
629.98	4.16
630.168	4.12
630.355	4.21
630.543	4.1
630.73	4.03
630.917	4.11
631.105	4.21
631.292	4.12
631.48	4.05
631.667	4.16
631.854	4.04
632.042	3.99
632.229	3.93
632.416	4.06
632.604	3.96
632.791	3.89
632.978	4
633.165	3.93
633.353	4.03
633.54	3.94
633.727	3.8
633.914	3.85
634.101	3.75
634.289	3.97
634.476	3.76
634.663	3.73
634.85	3.83
635.037	3.71
635.224	3.71
635.411	3.79
635.598	3.73
635.785	3.69
635.972	3.65
636.159	3.71
636.346	3.69
636.533	3.65
636.72	3.67
636.907	3.62
637.094	3.64
637.281	3.51
637.468	3.6
637.655	3.54
637.842	3.54
638.029	3.51
638.215	3.51
638.402	3.52
638.589	3.47
638.776	3.44
638.963	3.42
639.149	3.54
639.336	3.54
639.523	3.48
639.709	3.45
639.896	3.39
640.083	3.4
640.27	3.43
640.456	3.33
640.643	3.35
640.829	3.27
641.016	3.26
641.203	3.23
641.389	3.31
641.576	3.27
641.762	3.2
641.949	3.23
642.135	3.23
642.322	3.22
642.508	3.13
642.695	3.25
642.881	3.12
643.068	3.15
643.254	3.11
643.441	3.16
643.627	3.14
643.813	3.04
644	3.08
644.186	3.03
644.372	3.1
644.559	3.08
644.745	3.04
644.931	2.92
645.118	3.02
645.304	3.02
645.49	2.93
645.676	2.99
645.862	2.98
646.049	3.01
646.235	2.91
646.421	3.08
646.607	3
646.793	2.94
646.979	2.78
647.165	2.92
647.352	2.97
647.538	2.85
647.724	2.82
647.91	2.85
648.096	2.86
648.282	2.86
648.468	2.8
648.654	2.87
648.84	2.84
649.026	2.78
649.212	2.73
649.397	2.72
649.583	2.72
649.769	2.76
649.955	2.71
650.141	2.73
650.327	2.73
650.513	2.65
650.698	2.68
650.884	2.53
651.07	2.64
651.256	2.62
651.442	2.63
651.627	2.51
651.813	2.65
651.999	2.55
652.184	2.56
652.37	2.6
652.556	2.55
652.741	2.56
652.927	2.4
653.113	2.51
653.298	2.53
653.484	2.5
653.669	2.43
653.855	2.44
654.04	2.49
654.226	2.5
654.412	2.43
654.597	2.34
654.782	2.41
654.968	2.44
655.153	2.41
655.339	2.3
655.524	2.34
655.71	2.41
655.895	2.34
656.08	2.36
656.266	2.43
656.451	2.35
656.636	2.24
656.822	2.33
657.007	2.27
657.192	2.31
657.378	2.25
657.563	2.24
657.748	2.27
657.933	2.26
658.118	2.17
658.304	2.19
658.489	2.21
658.674	2.22
658.859	2.14
659.044	2.2
659.229	2.24
659.414	2.09
659.599	2.13
659.785	2.04
659.97	2.13
660.155	2.17
660.34	2.15
660.525	2.1
660.71	2.09
660.895	2.13
661.08	2.06
661.264	2.03
661.449	2.15
661.634	2.05
661.819	2.03
662.004	2.04
662.189	1.97
662.374	2
662.559	1.91
662.743	1.93
662.928	1.98
663.113	1.98
663.298	1.96
663.483	1.95
663.667	1.95
663.852	1.83
664.037	1.96
664.221	1.87
664.406	1.98
664.591	1.9
664.775	1.95
664.96	1.84
665.145	1.85
665.329	1.91
665.514	1.89
665.698	1.79
665.883	1.72
666.068	1.92
666.252	1.86
666.437	1.84
666.621	1.79
666.806	1.84
666.99	1.79
667.174	1.81
667.359	1.88
667.543	1.8
667.728	1.75
667.912	1.65
668.096	1.79
668.281	1.72
668.465	1.77
668.649	1.68
668.834	1.65
669.018	1.73
669.202	1.73
669.387	1.62
669.571	1.68
669.755	1.67
669.939	1.7
670.124	1.64
670.308	1.75
670.492	1.69
670.676	1.66
670.86	1.58
671.044	1.58
671.228	1.62
671.413	1.56
671.597	1.59
671.781	1.59
671.965	1.63
672.149	1.56
672.333	1.57
672.517	1.57
672.701	1.63
672.885	1.55
673.069	1.46
673.253	1.62
673.437	1.55
673.621	1.49
673.804	1.55
673.988	1.51
674.172	1.46
674.356	1.4
674.54	1.46
674.724	1.62
674.908	1.5
675.091	1.52
675.275	1.47
675.459	1.56
675.643	1.46
675.826	1.45
676.01	1.46
676.194	1.39
676.377	1.48
676.561	1.46
676.745	1.41
676.928	1.46
677.112	1.47
677.296	1.41
677.479	1.38
677.663	1.39
677.846	1.47
678.03	1.34
678.213	1.3
678.397	1.41
678.58	1.37
678.764	1.38
678.947	1.35
679.131	1.39
679.314	1.43
679.498	1.34
679.681	1.38
679.865	1.42
680.048	1.33
680.231	1.28
680.415	1.32
680.598	1.29
680.781	1.24
680.965	1.27
681.148	1.29
681.331	1.21
681.514	1.31
681.698	1.26
681.881	1.28
682.064	1.29
682.247	1.3
682.43	1.16
682.614	1.25
682.797	1.34
682.98	1.28
683.163	1.14
683.346	1.17
683.529	1.21
683.712	1.13
683.895	1.26
684.078	1.09
684.261	1.12
684.444	1.26
684.627	1.19
684.81	1.14
684.993	1.18
685.176	1.2
685.359	1.1
685.542	1.09
685.725	1.26
685.908	1.13
686.091	1.15
686.274	1.17
686.457	1.19
686.639	1.11
686.822	1.13
687.005	1.11
687.188	1.17
687.371	1.28
687.553	1.2
687.736	1.17
687.919	1.2
688.102	1.19
688.284	1.07
688.467	1.07
688.65	1.14
688.832	1.02
689.015	1.06
689.197	0.96
689.38	1.16
689.563	1.15
689.745	0.99
689.928	1.03
690.11	1.03
690.293	1.04
690.475	1.04
690.658	1.04
690.84	1.01
691.023	1.03
691.205	0.98
691.388	1.06
691.57	1.05
691.752	1.09
691.935	0.84
692.117	0.94
692.3	0.99
692.482	0.98
692.664	0.98
692.847	0.94
693.029	1.12
693.211	1.04
693.393	0.94
693.576	0.88
693.758	1
693.94	0.99
694.122	0.92
694.304	0.93
694.487	0.89
694.669	0.98
694.851	0.84
695.033	0.93
695.215	0.86
695.397	0.91
695.579	0.84
695.761	0.78
695.943	0.77
696.125	1.06
696.308	1
696.49	0.79
696.671	1.06
696.853	0.9
697.035	1.12
697.217	0.91
697.399	0.98
697.581	0.87
697.763	0.95
697.945	0.77
698.127	0.87
698.309	0.92
698.491	0.85
698.672	0.93
698.854	0.93
699.036	0.96
699.218	0.83
699.399	0.88
699.581	0.9
699.763	0.8
699.945	0.78
700.126	0.77
700.308	0.86
700.49	0.81
700.671	0.8
700.853	0.82
701.035	0.84
701.216	0.79
701.398	0.74
701.579	0.74
701.761	0.89
701.943	0.78
702.124	0.8
702.306	0.76
702.487	0.93
702.669	0.82
702.85	0.8
703.031	0.69
703.213	0.89
703.394	0.88
703.576	0.73
703.757	0.94
703.938	0.87
704.12	0.97
704.301	0.76
704.483	0.7
704.664	0.75
704.845	0.84
705.026	0.79
705.208	0.78
705.389	0.76
705.57	0.79
705.751	0.68
705.933	0.78
706.114	0.81
706.295	0.72
706.476	0.69
706.657	0.79
706.838	0.76
707.02	0.83
707.201	0.67
707.382	0.64
707.563	0.8
707.744	0.74
707.925	0.61
708.106	0.7
708.287	0.71
708.468	0.84
708.649	0.77
708.83	0.73
709.011	0.67
709.192	0.74
709.373	0.58
709.554	0.72
709.734	0.86
709.915	0.77
710.096	0.67
710.277	0.54
710.458	0.67
710.639	0.81
710.819	0.57
711	0.58
711.181	0.7
711.362	0.8
711.542	0.68
711.723	0.6
711.904	0.79
712.085	0.74
712.265	0.64
712.446	0.52
712.627	0.6
712.807	0.68
712.988	0.69
713.168	0.52
713.349	0.69
713.53	0.53
713.71	0.56
713.891	0.56
714.071	0.72
714.252	0.57
714.432	0.62
714.613	0.44
714.793	0.57
714.974	0.7
715.154	0.68
715.334	0.64
715.515	0.7
715.695	0.61
715.876	0.59
716.056	0.51
716.236	0.59
716.417	0.59
716.597	0.48
716.777	0.79
716.957	0.58
717.138	0.63
717.318	0.55
717.498	0.48
717.678	0.65
717.859	0.64
718.039	0.5
718.219	0.62
718.399	0.63
718.579	0.49
718.759	0.52
718.939	0.61
719.12	0.64
719.3	0.58
719.48	0.37
719.66	0.48
719.84	0.76
720.02	0.59
720.2	0.52
720.38	0.6
720.56	0.71
720.74	0.5
720.92	0.54
721.1	0.79
721.279	0.64
721.459	0.58
721.639	0.48
721.819	0.54
721.999	0.48
722.179	0.59
722.359	0.5
722.538	0.58
722.718	0.51
722.898	0.56
723.078	0.53
723.257	0.5
723.437	0.62
723.617	0.6
723.797	0.5
723.976	0.52
724.156	0.64
724.336	0.64
724.515	0.75
724.695	0.47
724.874	0.49
725.054	0.61
725.234	0.49
725.413	0.47
725.593	0.6
725.772	0.59
725.952	0.52
726.131	0.53
726.311	0.45
726.49	0.47
726.67	0.46
726.849	0.5
727.028	0.61
727.208	0.52
727.387	0.53
727.567	0.42
727.746	0.4
727.925	0.59
728.105	0.34
728.284	0.48
728.463	0.47
728.643	0.54
728.822	0.43
729.001	0.55
729.18	0.48
729.359	0.65
729.539	0.48
729.718	0.45
729.897	0.61
730.076	0.51
730.255	0.46
730.434	0.51
730.614	0.6
730.793	0.59
730.972	0.53
731.151	0.52
731.33	0.56
731.509	0.52
731.688	0.49
731.867	0.46
732.046	0.42
732.225	0.75
732.404	0.46
732.583	0.35
732.762	0.53
732.941	0.52
733.12	0.46
733.298	0.49
733.477	0.7
733.656	0.4
733.835	0.38
734.014	0.6
734.193	0.52
734.371	0.55
734.55	0.55
734.729	0.36
734.908	0.54
735.086	0.58
735.265	0.66
735.444	0.35
735.623	0.39
735.801	0.44
735.98	0.51
736.159	0.47
736.337	0.56
736.516	0.52
736.694	0.51
736.873	0.43
737.052	0.76
737.23	0.77
737.409	0.37
737.587	0.75
737.766	0.46
737.944	0.43
738.123	0.52
738.301	0.58
738.479	0.48
738.658	0.55
738.836	0.29
739.015	0.56
739.193	0.57
739.371	0.24
739.55	0.41
739.728	0.33
739.906	0.67
740.085	0.78
740.263	0.61
740.441	0.24
740.62	0.72
740.798	0.58
740.976	0.39
741.154	0.34
741.332	0.71
741.511	0.44
741.689	0.55
741.867	0.66
742.045	0.41
742.223	0.48
742.401	0.4
742.579	0.39
742.757	0.55
742.935	0.37
743.114	0.43
743.292	0.36
743.47	0.48
743.648	0.5
743.826	0.48
744.004	0.59
744.181	0.48
744.359	0.43
744.537	0.52
744.715	0.48
744.893	0.49
745.071	0.59
745.249	0.42
745.427	0.41
745.605	0.56
745.782	0.43
745.96	0.54
746.138	0.62
746.316	0.63
746.493	0.33
746.671	0.47
746.849	0.47
747.027	0.62
747.204	0.36
747.382	0.6
747.56	0.29
747.737	0.43
747.915	0.42
748.093	0.46
748.27	0.37
748.448	0.45
748.625	0.25
748.803	0.42
748.98	0.38
749.158	0.58
749.335	0.55
749.513	0.36
749.69	0.39
749.868	0.41
750.045	0.49
750.223	0.37
750.4	0.18
750.578	0.66
750.755	0.35
750.932	0.23
751.11	0.43
751.287	0.32
751.464	0.7
751.642	0.27
751.819	0.4
751.996	0.37
752.173	0.41
752.351	0.24
752.528	0.4
752.705	0.4
752.882	0.27
753.06	0.28
753.237	0.39
753.414	0.61
753.591	0.78
753.768	0.46
753.945	0.29
754.122	0.41
754.299	0.54
754.476	0.24
754.654	0.35
754.831	0.46
755.008	0.43
755.185	0.37
755.362	0.35
755.539	0.54
755.716	0.34
755.892	0.36
756.069	0.4
756.246	0.36
756.423	0.44
756.6	0.58
756.777	0.28
756.954	0.6
757.131	0.35
757.307	0.3
757.484	0.31
757.661	0.35
757.838	0.54
758.015	0.24
758.191	0.51
758.368	0.41
758.545	0.63
758.721	0.47
758.898	0.3
759.075	0.46
759.251	0.45
759.428	0.46
759.605	0.1
759.781	0.37
759.958	0.38
760.134	0.45
760.311	0.42
760.488	0.58
760.664	0.66
760.841	0.21
761.017	0.27
761.194	0.49
761.37	0.49
761.547	0.33
761.723	0.44
761.899	0.58
762.076	0.33
762.252	0.36
762.429	0.36
762.605	0.66
762.781	0.3
762.958	0.42
763.134	0.3
763.31	0.24
763.486	0.55
763.663	0.16
763.839	0.41
764.015	0.22
764.191	0.31
764.368	0.35
764.544	0.24
764.72	0.52
764.896	0.5
765.072	0.44
765.248	0.34
765.425	0.28
765.601	0.38
765.777	0.36
765.953	0.12
766.129	0.33
766.305	0.25
766.481	0.49
766.657	0.34
766.833	0.62
767.009	0.19
767.185	0.34
767.361	0.24
767.537	0.26
767.713	0.63
767.889	0.31
768.065	0.22
768.24	0.12
768.416	0.51
768.592	0.48
768.768	0.33
768.944	0.63
769.12	0.29
769.295	0.3
769.471	0.41
769.647	0.33
769.823	0.64
769.998	0.27
770.174	0.26
770.35	0.76
770.525	0.72
770.701	0.59
770.877	0.26
771.052	0.17
771.228	0.41
771.403	0.4
771.579	0.37
771.755	0.81
771.93	0.33
772.106	0.24
772.281	0.17
772.457	0.44
772.632	0.42
772.808	0.17
772.983	0.43
773.159	0.18
773.334	0.57
773.509	0.3
773.685	0.34
773.86	0.7
774.036	0.73
774.211	0.55
774.386	0.35
774.562	0.25
774.737	0.61
774.912	0.36
775.087	0.49
775.263	0.5
775.438	0.32
775.613	0.16
775.788	0.35
775.964	0.65
776.139	1
776.314	0.2
776.489	0.33
776.664	0.43
776.839	0.19
777.014	0.57
777.19	0.59
777.365	0.62
777.54	0.7
777.715	0.21
777.89	0.27
778.065	0.36
778.24	0.42
778.415	0.46
778.59	0.16
778.765	0.31
778.94	0.54
779.115	0.43
779.289	0.3
779.464	0.34
779.639	0.41
779.814	0.15
779.989	0.22
780.164	0.59
780.339	0.38
780.513	0.38
780.688	0.08
780.863	0.44
781.038	0.61
781.212	0.1
781.387	0.38
781.562	0.92
781.737	0.19
781.911	0.6
782.086	0.14
782.261	0.43
782.435	0.72
782.61	0.31
782.784	0.26
782.959	0.72
783.134	0.36
783.308	0.05
783.483	0.28
783.657	1.01
783.832	0.68
784.006	-0.01
784.181	0.46
784.355	0.73
784.53	0.29
784.704	0.15
784.878	0.71
785.053	0.65
785.227	0.73
785.402	1.01
785.576	0.29
785.75	0.47
785.925	0.45
786.099	0.47
786.273	0.46
786.448	0.58
786.622	0.61
786.796	0.25
786.97	0.3
787.145	0.99
787.319	0.1
787.493	0.52
787.667	-0.07
787.841	0.44
788.015	0.81
788.19	0.38
788.364	0.4
788.538	0.9
788.712	0.62
788.886	0.4
789.06	0.39
789.234	0.77
789.408	-0.03
789.582	0.33
789.756	0.26
789.93	0.35
790.104	0.29
790.278	0.27
790.452	0.34
790.626	0.5
790.8	0.23
790.973	0.69
791.147	0.72
791.321	0.8
791.495	0.84
791.669	0.56
791.843	0.53
792.016	0.53
792.19	0.97
792.364	0.1
792.538	0.87
792.711	0.71
792.885	0.43
793.059	0.27
793.233	-0.2
793.406	0.8
793.58	0.54
793.754	0.78
793.927	0.38
794.101	0.81
794.274	0.47
794.448	0.69
794.622	0.05
794.795	0.83
794.969	0.36
795.142	0.97
795.316	0.31
795.489	0.43
795.663	0.97
795.836	0.47
796.009	0.14
796.183	0.7
796.356	0.63
796.53	0.6
796.703	0.33
796.876	1.21
797.05	0.5
797.223	0.41
797.396	0.56
797.57	0.42
797.743	0.94
797.916	0.31
798.09	0.39
798.263	0.76
798.436	0.7
798.609	0.41
798.782	0.24
798.956	0.77
799.129	0.66
799.302	0.54
799.475	0.29
799.648	0.32
799.821	0.21
799.994	0.4
800.167	0.21
800.34	0.56
800.514	0.66
800.687	0.4
800.86	0.23
801.033	0.8
801.206	0.73
801.379	0.2
801.551	0.73
801.724	0.7
801.897	1.22
802.07	0.1
802.243	-0.02
802.416	0.66
802.589	0.46
802.762	0.83
802.935	0.69
803.107	0.9
803.28	0.95
803.453	0.74
803.626	0.23
803.798	0.73
803.971	0.56
804.144	0.72
804.317	0.74
804.489	1.32
804.662	0.74
804.835	0.67
805.007	0.28
805.18	1.02
805.353	0.47
805.525	-0.05
805.698	0.25
805.87	1.12
806.043	0.92
806.215	0.11
806.388	0.3
806.56	0.81
806.733	1.13
806.905	0.67
807.078	0.38
807.25	0.23
807.423	0.68
807.595	0.21
807.768	0.55
807.94	0.68
808.112	0.88
808.285	0.97
808.457	0.53
808.629	0.64
808.802	0.74
808.974	0.72
809.146	0.35
809.318	0.28
809.491	1.07
809.663	0.98
809.835	0.35
810.007	1.24
810.18	0.74
810.352	0.07
810.524	0.43
810.696	0.94
810.868	1.09
811.04	0.22
811.212	0.26
811.384	1.02
811.556	0.74
811.728	0.51
811.901	1.38
812.073	0.68
812.245	1.17
812.417	0.64
812.589	-0.41
812.76	0.62
812.932	1.14
813.104	1.19
813.276	0.56
813.448	1.34
813.62	0.73
813.792	0.57
813.964	0.28
814.136	0.89
814.307	0.13
814.479	0.62
814.651	0.4
814.823	1.5
814.995	0.74
815.166	0.84
815.338	0.66
815.51	0.34
815.681	1.64
815.853	0.94
816.025	0.7
816.196	1.73
816.368	1.02
816.54	-0.12
816.711	0.13
816.883	0.81
817.054	2.04
817.226	0.06
817.398	1.05
817.569	0.14
817.741	0.95
817.912	0.61
818.084	0.25
818.255	1.38
818.426	0.55
818.598	0.6
818.769	0.38
818.941	1.17
819.112	1.46
819.283	0.91
819.455	0.33
819.626	0.52
819.798	1.16
819.969	0.64
820.14	0.66
820.311	0.79
820.483	0.67
820.654	0.91
820.825	0.3
820.996	0.51
821.168	0.37
821.339	0.46
821.51	0.27
821.681	0.74
821.852	0.87
822.023	0.19
822.195	0.5
822.366	1.26
822.537	0.73
822.708	0.46
822.879	0.65
823.05	0.87
823.221	0.59
823.392	0.53
823.563	0.35
823.734	1.04
823.905	0.93
824.076	0.18
824.247	0.14
824.418	1.04
824.589	1.9
824.759	0.85
824.93	0.6
825.101	0.02
825.272	1.86
825.443	1.16
825.614	1.54
825.784	0.08
825.955	2.02
826.126	1.15
826.297	1
826.467	2.23
826.638	2.55
826.809	0.44
826.98	0.94
827.15	1.16
827.321	0.92
827.492	1.44
827.662	0.46
827.833	1.57
828.003	1.6
828.174	0.56
828.345	0.2
828.515	1.81
828.686	0.94
828.856	0.3
829.027	0.9
829.197	0.95
829.368	0.62
829.538	0.5
829.709	0.32
829.879	1.3
830.049	0.84
830.22	0.63
830.39	0.71
830.56	2.38
830.731	1.05
830.901	0.19
831.072	1.07
831.242	1.33
831.412	1.3
831.582	1.01
831.753	0.12
831.923	1.78
832.093	1.27
832.263	0.61
832.434	0.39
832.604	0.87
832.774	1.22
832.944	0.18
833.114	0.83
833.284	1.27
833.454	0.54
833.624	0.58
833.795	0.45
833.965	2.02
834.135	2.2
834.305	-0.64
834.475	0.39
834.645	1.11
834.815	0.74
834.985	0.42
835.155	0.36
835.325	2.12
835.494	1.3
835.664	1.03
835.834	0.25
836.004	1.7
836.174	1.45
836.344	0.52
836.514	-0.5
836.684	0.58
836.853	1.02
837.023	1.24
837.193	0.23
837.363	2.16
837.532	2.14
837.702	1.16
837.872	0.14
838.041	1.68
838.211	2.84
838.381	-0.52
838.55	1.34
838.72	3.62
838.89	2.51
839.059	-0.2
839.229	0.42
839.398	3.84
839.568	1.55
839.738	0.7
839.907	2.02
840.077	0.96
840.246	0.58
840.416	0.24
840.585	-0.1
840.755	2.82
840.924	2.04
841.093	-0.26
841.263	0.47
841.432	1.09
841.602	0.14
841.771	-0.11
841.94	0.49
842.11	3.1
842.279	2.92
842.448	0.73
842.617	0.05
842.787	3.12
842.956	0.31
843.125	0.93
843.294	0.66
843.464	2.8
843.633	1.35
843.802	0.73
843.971	0.57
844.14	1.61
844.309	2.44
844.479	-0.33
844.648	-0.08
844.817	0.87
844.986	0.83
845.155	0.13
845.324	0.97
845.493	1.09
845.662	0.3
845.831	1.68
846	1.5
846.169	0.56
846.338	2.52
846.507	1.57
846.676	1.06
846.844	1.13
847.013	3.05
847.182	1.76
847.351	0.76
847.52	2.66
847.689	2.13
847.858	0.6
848.026	0.48
848.195	1.94
848.364	0.98
848.533	0.1
848.701	0.13
848.87	1.78
849.039	2.55
849.207	1.77
849.376	2.59
849.545	3.29
849.713	0.35
849.882	0.27
850.051	1.08
850.219	1.39
850.388	1.88
850.556	1.13
850.725	-0.45
850.893	2.26
851.062	0.89
851.23	2.33
851.399	0.17
851.567	1.2
851.736	1.23
851.904	0.12
852.073	2.49
852.241	1.8
852.41	1.79
852.578	1.1
852.746	0.48
852.915	2.45
853.083	0.6
853.251	-0.26
853.42	1.41
853.588	1.49
853.756	3.36
853.924	0.59
854.093	1.12
854.261	1.49
854.429	0.39
854.597	1.98
854.765	-0.35
854.934	2.12
855.102	3.42
855.27	1.08
855.438	1.83
855.606	2.93
855.774	3.89
855.942	0.14
856.11	0.98
856.278	1.69
856.446	3.23
856.614	0.47
856.782	-0.21
856.95	2.86
857.118	2.67
857.286	1.63
857.454	1.72
857.622	3.28
857.79	3.65
857.958	0.52
858.126	0.4
858.294	-0.18
858.462	0.93
858.629	0.89
858.797	-0.46
858.965	2.01
859.133	2.22
859.301	1.07
859.468	2.92
859.636	1.32
859.804	4.23
859.971	1.93
860.139	1.02
860.307	2.92
860.474	0.99
860.642	0.09
860.81	0.88
860.977	1.32
861.145	2.45
861.313	3.03
861.48	1.71
861.648	2.78
861.815	0.59
861.983	0.51
862.15	0.74
862.318	4.12
862.485	3.65
862.653	-0.16
862.82	0.04
862.988	3.96
863.155	3.51
863.322	0.38
863.49	0.05
863.657	0.12
863.824	3.59
863.992	2.1
864.159	2.72
864.326	3.18
864.494	1.75
864.661	3.69
864.828	1.46
864.996	3.36
865.163	3.88
865.33	0.45
865.497	-0.8
865.664	0.78
865.832	-0.01
865.999	1.86
866.166	0.18
866.333	1
866.5	2.41
866.667	0.54
866.834	1.84
867.001	4.77
867.168	-0.46
867.335	3.14
867.502	-0.71
867.669	3.19
867.836	6.24
868.003	2.25
868.17	3.93
868.337	5.25
868.504	6.98
868.671	0.79
868.838	0.69
869.005	4.97
869.172	4.47
869.339	2.19
869.505	1.2
869.672	2.25
869.839	4.96
870.006	2.91
870.173	1.09
870.339	4.18
870.506	5.16
870.673	0.16
870.84	2.53
871.006	2.95
871.173	1.55
871.34	3.15
871.506	-0.06
871.673	2.19
871.839	-0.42
872.006	2.11
872.173	1.2
872.339	3.35
872.506	2.63
872.672	1.75
872.839	-0.47
873.005	4
873.172	6.52
873.338	4.27
873.505	2.78
873.671	3.03
873.838	2.54
874.004	-0.83
874.171	0.7
874.337	5.21
874.503	3.95
874.67	1.07
874.836	2.72
875.002	4.87
875.169	4.71
875.335	2.63
875.501	1.75
875.668	5.04
875.834	2.5
876	1.49
876.166	4.92
876.332	1.92
876.499	5.56
876.665	-0.11
876.831	1.73
876.997	5.55
877.163	4.65
877.329	0.77
877.495	2.98
877.662	3.52
877.828	2.56
877.994	2.23
878.16	-2.03
878.326	2.22
878.492	1.72
878.658	0.91
878.824	1.82
878.99	4.16
879.156	1.25
879.322	4.33
879.487	0.95
879.653	2.19
879.819	2.65
879.985	0.95
880.151	2.07
880.317	2.65
880.483	4.17
880.648	3.14
880.814	0.15
880.98	2.51
881.146	-0.66
881.312	1.09
881.477	1.67
881.643	1.94
881.809	5.18
881.974	4.61
882.14	-0.62
882.306	5.95
882.471	7.06
882.637	1.5
882.803	3.35
882.968	5.4
883.134	5.8
883.299	1.51
883.465	2.11
883.63	3.49
883.796	3.49
883.961	2.84
884.127	1.58
884.292	-2.49
884.458	1.09
884.623	1.09
