Data from Apollo_Calib_20240827__AbsoluteIrradiance__26__23-35-01-813.txt Node

Date: Tue Aug 27 23:35:01 BST 2024
User: biology
Spectrometer: FLMT08252
Trigger mode: 0
Integration Time (sec): 5.000000E-1
Scans to average: 5
Electric dark correction enabled: true
Nonlinearity correction enabled: false
Boxcar width: 0
XAxis mode: Wavelengths
Number of Pixels in Spectrum: 3648
>>>>>Begin Spectral Data<<<<<
179.588	-0
179.809	-0
180.03	-0
180.251	-0
180.473	-0
180.694	0
180.915	0
181.136	-0
181.357	0
181.578	-0
181.799	-0
182.02	-0
182.241	0
182.462	-0
182.683	0
182.904	-0
183.125	-0
183.346	0
183.567	0
183.788	0
184.009	0
184.23	0
184.451	0
184.672	0
184.892	0
185.113	0
185.334	0
185.555	0
185.776	0
185.996	0
186.217	0
186.438	0
186.659	0
186.879	0
187.1	0
187.321	0
187.541	0
187.762	0
187.983	0
188.203	0
188.424	0
188.644	0
188.865	0
189.086	0
189.306	0
189.527	0
189.747	0
189.968	0
190.188	0
190.409	0
190.629	0
190.849	0
191.07	0
191.29	0
191.511	0
191.731	0
191.951	0
192.172	0
192.392	0
192.612	0
192.833	0
193.053	0
193.273	0
193.493	0
193.714	0
193.934	0
194.154	0
194.374	0
194.594	0
194.815	0
195.035	0
195.255	0
195.475	0
195.695	0
195.915	0
196.135	0
196.355	0
196.575	0
196.795	0
197.015	0
197.235	0
197.455	0
197.675	0
197.895	0
198.115	0
198.335	0
198.555	0
198.775	0
198.995	0
199.214	0
199.434	0
199.654	0
199.874	0
200.094	4.63
200.313	2.95
200.533	2.37
200.753	1.31
200.973	3.14
201.192	3.29
201.412	1.53
201.632	2.07
201.851	3.65
202.071	1.69
202.291	1.61
202.51	1.78
202.73	2.24
202.95	2.34
203.169	1.8
203.389	1.83
203.608	2.05
203.828	1.5
204.047	2
204.267	2.65
204.486	2.06
204.706	1.99
204.925	1.86
205.145	1.65
205.364	2.42
205.583	2.73
205.803	1.29
206.022	1.3
206.242	2.15
206.461	1.84
206.68	1.46
206.9	1.47
207.119	2.05
207.338	2.01
207.557	1.3
207.777	1.56
207.996	1.47
208.215	2.3
208.434	1.19
208.654	1.32
208.873	1.45
209.092	2.02
209.311	1.51
209.53	1.25
209.749	1.31
209.968	1.32
210.187	1.45
210.407	0.85
210.626	1.14
210.845	1.31
211.064	1.58
211.283	1.01
211.502	1.6
211.721	1.16
211.94	0.97
212.159	1.37
212.377	1.19
212.596	1.5
212.815	1.27
213.034	1.19
213.253	1.34
213.472	1.39
213.691	0.87
213.91	0.92
214.128	0.94
214.347	1.45
214.566	0.56
214.785	0.65
215.003	1.4
215.222	1.07
215.441	1.11
215.66	0.87
215.878	0.95
216.097	1.35
216.316	0.71
216.534	0.86
216.753	1.15
216.972	0.99
217.19	1.06
217.409	0.75
217.627	0.73
217.846	0.81
218.064	0.88
218.283	0.94
218.501	1.41
218.72	1.17
218.938	0.76
219.157	0.82
219.375	1.08
219.594	1
219.812	0.54
220.031	0.7
220.249	1.12
220.467	1.09
220.686	0.81
220.904	0.56
221.122	0.66
221.341	1.03
221.559	0.95
221.777	0.66
221.995	0.83
222.214	0.89
222.432	0.73
222.65	0.86
222.868	0.8
223.086	1.06
223.305	0.94
223.523	0.69
223.741	1.08
223.959	0.6
224.177	0.54
224.395	0.74
224.613	0.82
224.831	0.9
225.049	0.59
225.267	0.64
225.485	0.67
225.703	0.6
225.921	0.64
226.139	0.6
226.357	0.99
226.575	0.82
226.793	0.66
227.011	1.4
227.229	0.89
227.447	0.89
227.665	0.52
227.883	0.39
228.1	0.63
228.318	0.71
228.536	0.5
228.754	0.52
228.972	0.76
229.189	0.8
229.407	0.49
229.625	0.58
229.843	0.73
230.06	0.73
230.278	0.53
230.496	0.49
230.713	0.68
230.931	0.75
231.149	0.56
231.366	0.36
231.584	0.65
231.801	0.87
232.019	0.42
232.236	0.45
232.454	0.4
232.671	0.62
232.889	0.63
233.106	0.35
233.324	0.49
233.541	0.58
233.759	0.64
233.976	0.52
234.194	0.56
234.411	0.43
234.628	0.45
234.846	0.51
235.063	0.66
235.28	0.57
235.498	0.49
235.715	0.37
235.932	0.76
236.149	0.51
236.367	0.43
236.584	0.53
236.801	0.48
237.018	0.62
237.236	0.56
237.453	0.31
237.67	0.68
237.887	0.65
238.104	0.31
238.321	0.39
238.538	0.45
238.755	0.64
238.973	0.42
239.19	0.54
239.407	0.6
239.624	0.64
239.841	0.3
240.058	0.45
240.275	0.54
240.492	0.5
240.709	0.55
240.925	0.52
241.142	0.5
241.359	0.45
241.576	0.4
241.793	0.49
242.01	0.48
242.227	0.59
242.444	0.54
242.66	0.66
242.877	0.56
243.094	0.47
243.311	0.46
243.527	0.52
243.744	0.46
243.961	0.54
244.178	0.41
244.394	0.54
244.611	0.58
244.828	0.67
245.044	0.37
245.261	0.47
245.477	0.51
245.694	0.65
245.911	0.46
246.127	0.43
246.344	0.56
246.56	0.58
246.777	0.42
246.993	0.44
247.21	0.5
247.426	0.62
247.643	0.41
247.859	0.37
248.076	0.39
248.292	0.66
248.508	0.4
248.725	0.52
248.941	0.5
249.157	0.59
249.374	0.39
249.59	0.49
249.806	0.48
250.023	0.51
250.239	0.38
250.455	0.38
250.671	0.44
250.888	0.52
251.104	0.54
251.32	0.43
251.536	0.44
251.752	0.45
251.969	0.47
252.185	0.49
252.401	0.61
252.617	0.59
252.833	0.44
253.049	0.44
253.265	0.4
253.481	0.46
253.697	0.42
253.913	0.38
254.129	0.44
254.345	0.43
254.561	0.38
254.777	0.4
254.993	0.57
255.209	0.46
255.425	0.32
255.641	0.31
255.857	0.51
256.073	0.42
256.288	0.33
256.504	0.33
256.72	0.37
256.936	0.55
257.152	0.43
257.367	0.36
257.583	0.41
257.799	0.49
258.015	0.35
258.23	0.33
258.446	0.54
258.662	0.44
258.877	0.33
259.093	0.32
259.309	0.37
259.524	0.44
259.74	0.39
259.955	0.26
260.171	0.44
260.387	0.43
260.602	0.41
260.818	0.41
261.033	0.35
261.249	0.34
261.464	0.36
261.68	0.28
261.895	0.45
262.11	0.44
262.326	0.4
262.541	0.32
262.757	0.53
262.972	0.46
263.187	0.36
263.403	0.41
263.618	0.44
263.833	0.41
264.049	0.33
264.264	0.34
264.479	0.43
264.694	0.43
264.91	0.25
265.125	0.37
265.34	0.48
265.555	0.62
265.77	0.48
265.986	0.29
266.201	0.43
266.416	0.43
266.631	0.37
266.846	0.39
267.061	0.41
267.276	0.38
267.491	0.24
267.706	0.39
267.921	0.43
268.136	0.4
268.351	0.42
268.566	0.29
268.781	0.43
268.996	0.41
269.211	0.33
269.426	0.27
269.641	0.27
269.856	0.4
270.071	0.3
270.285	0.26
270.5	0.51
270.715	0.4
270.93	0.35
271.145	0.38
271.359	0.39
271.574	0.31
271.789	0.38
272.004	0.36
272.218	0.31
272.433	0.45
272.648	0.31
272.862	0.39
273.077	0.37
273.292	0.32
273.506	0.24
273.721	0.33
273.936	0.37
274.15	0.4
274.365	0.27
274.579	0.37
274.794	0.36
275.008	0.36
275.223	0.28
275.437	0.33
275.652	0.55
275.866	0.37
276.081	0.29
276.295	0.41
276.509	0.34
276.724	0.36
276.938	0.38
277.153	0.37
277.367	0.39
277.581	0.31
277.796	0.26
278.01	0.27
278.224	0.38
278.438	0.41
278.653	0.25
278.867	0.27
279.081	0.37
279.295	0.31
279.51	0.38
279.724	0.26
279.938	0.33
280.152	0.31
280.366	0.25
280.58	0.33
280.794	0.4
281.008	0.37
281.222	0.32
281.437	0.49
281.651	0.39
281.865	0.4
282.079	0.27
282.293	0.18
282.507	0.29
282.721	0.31
282.935	0.33
283.148	0.28
283.362	0.21
283.576	0.25
283.79	0.29
284.004	0.22
284.218	0.34
284.432	0.21
284.646	0.31
284.859	0.23
285.073	0.29
285.287	0.3
285.501	0.27
285.714	0.26
285.928	0.3
286.142	0.32
286.356	0.29
286.569	0.27
286.783	0.33
286.997	0.39
287.21	0.3
287.424	0.27
287.637	0.3
287.851	0.31
288.065	0.32
288.278	0.24
288.492	0.31
288.705	0.29
288.919	0.29
289.132	0.23
289.346	0.3
289.559	0.24
289.773	0.2
289.986	0.28
290.2	0.32
290.413	0.36
290.626	0.25
290.84	0.27
291.053	0.28
291.267	0.37
291.48	0.32
291.693	0.31
291.906	0.28
292.12	0.32
292.333	0.27
292.546	0.27
292.76	0.37
292.973	0.3
293.186	0.33
293.399	0.29
293.612	0.34
293.826	0.3
294.039	0.26
294.252	0.31
294.465	0.36
294.678	0.28
294.891	0.27
295.104	0.23
295.317	0.27
295.53	0.32
295.743	0.23
295.956	0.23
296.169	0.33
296.382	0.35
296.595	0.25
296.808	0.23
297.021	0.28
297.234	0.34
297.447	0.26
297.66	0.28
297.873	0.36
298.086	0.28
298.299	0.28
298.511	0.19
298.724	0.26
298.937	0.21
299.15	0.23
299.363	0.31
299.575	0.29
299.788	0.33
300.001	0.28
300.213	0.26
300.426	0.25
300.639	0.23
300.852	0.26
301.064	0.26
301.277	0.38
301.489	0.3
301.702	0.33
301.915	0.25
302.127	0.28
302.34	0.29
302.552	0.31
302.765	0.26
302.977	0.31
303.19	0.25
303.402	0.27
303.615	0.24
303.827	0.25
304.04	0.24
304.252	0.33
304.464	0.26
304.677	0.44
304.889	0.32
305.102	0.22
305.314	0.24
305.526	0.32
305.739	0.26
305.951	0.22
306.163	0.25
306.375	0.32
306.588	0.22
306.8	0.26
307.012	0.2
307.224	0.31
307.436	0.37
307.649	0.17
307.861	0.28
308.073	0.31
308.285	0.22
308.497	0.22
308.709	0.25
308.921	0.31
309.133	0.29
309.346	0.26
309.558	0.27
309.77	0.26
309.982	0.32
310.194	0.3
310.406	0.23
310.617	0.34
310.829	0.27
311.041	0.3
311.253	0.22
311.465	0.24
311.677	0.25
311.889	0.24
312.101	0.22
312.313	0.32
312.524	0.31
312.736	0.22
312.948	0.2
313.16	0.37
313.372	0.25
313.583	0.28
313.795	0.22
314.007	0.25
314.218	0.3
314.43	0.28
314.642	0.25
314.853	0.17
315.065	0.31
315.277	0.26
315.488	0.27
315.7	0.31
315.912	0.27
316.123	0.28
316.335	0.25
316.546	0.37
316.758	0.28
316.969	0.25
317.181	0.23
317.392	0.27
317.604	0.33
317.815	0.28
318.026	0.21
318.238	0.25
318.449	0.25
318.661	0.21
318.872	0.18
319.083	0.23
319.295	0.31
319.506	0.25
319.717	0.28
319.929	0.31
320.14	0.25
320.351	0.29
320.562	0.26
320.774	0.26
320.985	0.26
321.196	0.24
321.407	0.17
321.618	0.3
321.829	0.27
322.041	0.3
322.252	0.28
322.463	0.29
322.674	0.27
322.885	0.2
323.096	0.27
323.307	0.24
323.518	0.32
323.729	0.22
323.94	0.27
324.151	0.2
324.362	0.28
324.573	0.28
324.784	0.21
324.995	0.31
325.206	0.27
325.417	0.25
325.628	0.23
325.838	0.25
326.049	0.29
326.26	0.31
326.471	0.23
326.682	0.3
326.892	0.26
327.103	0.21
327.314	0.22
327.525	0.33
327.735	0.28
327.946	0.24
328.157	0.27
328.368	0.31
328.578	0.27
328.789	0.26
328.999	0.3
329.21	0.25
329.421	0.34
329.631	0.21
329.842	0.24
330.052	0.29
330.263	0.28
330.473	0.31
330.684	0.22
330.894	0.24
331.105	0.29
331.315	0.27
331.526	0.21
331.736	0.35
331.947	0.25
332.157	0.31
332.367	0.23
332.578	0.28
332.788	0.29
332.999	0.27
333.209	0.28
333.419	0.16
333.629	0.29
333.84	0.3
334.05	0.25
334.26	0.29
334.47	0.29
334.681	0.31
334.891	0.26
335.101	0.3
335.311	0.3
335.521	0.26
335.732	0.24
335.942	0.3
336.152	0.23
336.362	0.25
336.572	0.22
336.782	0.29
336.992	0.26
337.202	0.24
337.412	0.26
337.622	0.29
337.832	0.25
338.042	0.29
338.252	0.26
338.462	0.24
338.672	0.27
338.882	0.23
339.092	0.24
339.302	0.34
339.511	0.3
339.721	0.25
339.931	0.22
340.141	0.31
340.351	0.31
340.561	0.3
340.77	0.22
340.98	0.26
341.19	0.3
341.4	0.24
341.609	0.21
341.819	0.25
342.029	0.25
342.238	0.26
342.448	0.25
342.658	0.27
342.867	0.26
343.077	0.31
343.286	0.26
343.496	0.26
343.706	0.33
343.915	0.16
344.125	0.18
344.334	0.3
344.544	0.22
344.753	0.23
344.963	0.25
345.172	0.23
345.381	0.2
345.591	0.27
345.8	0.23
346.01	0.33
346.219	0.35
346.428	0.13
346.638	0.3
346.847	0.23
347.056	0.35
347.266	0.25
347.475	0.32
347.684	0.27
347.893	0.26
348.103	0.28
348.312	0.24
348.521	0.22
348.73	0.27
348.94	0.29
349.149	0.24
349.358	0.27
349.567	0.26
349.776	0.16
349.985	0.23
350.194	0.28
350.403	0.3
350.612	0.19
350.821	0.25
351.03	0.25
351.239	0.2
351.448	0.24
351.657	0.19
351.866	0.26
352.075	0.26
352.284	0.31
352.493	0.21
352.702	0.31
352.911	0.29
353.12	0.3
353.329	0.19
353.538	0.28
353.746	0.28
353.955	0.19
354.164	0.26
354.373	0.27
354.582	0.32
354.79	0.28
354.999	0.29
355.208	0.25
355.416	0.29
355.625	0.2
355.834	0.26
356.042	0.26
356.251	0.25
356.46	0.19
356.668	0.25
356.877	0.31
357.085	0.3
357.294	0.18
357.503	0.28
357.711	0.25
357.92	0.41
358.128	0.28
358.337	0.25
358.545	0.27
358.754	0.19
358.962	0.29
359.17	0.22
359.379	0.29
359.587	0.26
359.796	0.25
360.004	0.32
360.212	0.23
360.421	0.32
360.629	0.24
360.837	0.24
361.046	0.27
361.254	0.36
361.462	0.25
361.67	0.23
361.879	0.27
362.087	0.29
362.295	0.27
362.503	0.24
362.711	0.21
362.92	0.26
363.128	0.24
363.336	0.22
363.544	0.19
363.752	0.27
363.96	0.22
364.168	0.22
364.376	0.23
364.584	0.24
364.792	0.29
365	0.26
365.208	0.27
365.416	0.27
365.624	0.29
365.832	0.26
366.04	0.3
366.248	0.28
366.456	0.31
366.664	0.28
366.872	0.24
367.079	0.22
367.287	0.26
367.495	0.25
367.703	0.28
367.911	0.26
368.118	0.26
368.326	0.24
368.534	0.23
368.742	0.27
368.949	0.22
369.157	0.22
369.365	0.28
369.572	0.23
369.78	0.2
369.988	0.33
370.195	0.26
370.403	0.26
370.61	0.22
370.818	0.25
371.026	0.32
371.233	0.22
371.441	0.29
371.648	0.25
371.856	0.3
372.063	0.27
372.271	0.24
372.478	0.23
372.685	0.26
372.893	0.32
373.1	0.25
373.308	0.27
373.515	0.34
373.722	0.28
373.93	0.29
374.137	0.31
374.344	0.34
374.552	0.32
374.759	0.3
374.966	0.25
375.173	0.25
375.381	0.31
375.588	0.23
375.795	0.21
376.002	0.21
376.209	0.24
376.417	0.25
376.624	0.22
376.831	0.3
377.038	0.22
377.245	0.17
377.452	0.26
377.659	0.29
377.866	0.2
378.073	0.26
378.28	0.28
378.487	0.33
378.694	0.28
378.901	0.25
379.108	0.24
379.315	0.32
379.522	0.34
379.729	0.31
379.936	0.26
380.143	0.26
380.35	0.27
380.557	0.24
380.763	0.27
380.97	0.3
381.177	0.3
381.384	0.33
381.591	0.28
381.797	0.26
382.004	0.33
382.211	0.29
382.418	0.26
382.624	0.28
382.831	0.3
383.038	0.28
383.244	0.29
383.451	0.32
383.658	0.32
383.864	0.27
384.071	0.22
384.277	0.35
384.484	0.29
384.69	0.36
384.897	0.25
385.103	0.29
385.31	0.26
385.516	0.28
385.723	0.22
385.929	0.23
386.136	0.24
386.342	0.27
386.549	0.25
386.755	0.36
386.961	0.34
387.168	0.29
387.374	0.32
387.58	0.33
387.787	0.29
387.993	0.28
388.199	0.28
388.406	0.22
388.612	0.26
388.818	0.25
389.024	0.26
389.231	0.33
389.437	0.34
389.643	0.29
389.849	0.31
390.055	0.32
390.261	0.29
390.467	0.32
390.674	0.26
390.88	0.32
391.086	0.36
391.292	0.26
391.498	0.34
391.704	0.32
391.91	0.3
392.116	0.29
392.322	0.2
392.528	0.33
392.734	0.3
392.94	0.29
393.146	0.3
393.352	0.3
393.557	0.27
393.763	0.28
393.969	0.35
394.175	0.3
394.381	0.31
394.587	0.27
394.792	0.31
394.998	0.36
395.204	0.38
395.41	0.28
395.615	0.41
395.821	0.36
396.027	0.37
396.233	0.34
396.438	0.32
396.644	0.36
396.85	0.38
397.055	0.33
397.261	0.37
397.466	0.44
397.672	0.35
397.878	0.36
398.083	0.36
398.289	0.32
398.494	0.39
398.7	0.36
398.905	0.27
399.111	0.42
399.316	0.3
399.522	0.37
399.727	0.35
399.932	0.32
400.138	0.36
400.343	0.39
400.549	0.37
400.754	0.35
400.959	0.36
401.165	0.37
401.37	0.38
401.575	0.46
401.78	0.39
401.986	0.36
402.191	0.37
402.396	0.35
402.601	0.4
402.807	0.43
403.012	0.44
403.217	0.47
403.422	0.43
403.627	0.39
403.832	0.4
404.037	0.46
404.243	0.43
404.448	0.42
404.653	0.45
404.858	0.45
405.063	0.5
405.268	0.38
405.473	0.38
405.678	0.39
405.883	0.55
406.088	0.49
406.293	0.42
406.498	0.43
406.703	0.55
406.907	0.51
407.112	0.46
407.317	0.48
407.522	0.57
407.727	0.54
407.932	0.52
408.136	0.66
408.341	0.53
408.546	0.64
408.751	0.61
408.956	0.57
409.16	0.66
409.365	0.58
409.57	0.61
409.774	0.6
409.979	0.68
410.184	0.7
410.388	0.66
410.593	0.73
410.798	0.73
411.002	0.71
411.207	0.78
411.411	0.81
411.616	0.77
411.82	0.84
412.025	0.87
412.229	0.86
412.434	0.97
412.638	0.89
412.843	0.93
413.047	0.96
413.252	0.9
413.456	1.04
413.66	1.11
413.865	1.03
414.069	1.12
414.273	1.13
414.478	1.1
414.682	1.12
414.886	1.17
415.091	1.21
415.295	1.27
415.499	1.42
415.703	1.31
415.908	1.39
416.112	1.43
416.316	1.57
416.52	1.55
416.724	1.55
416.929	1.64
417.133	1.85
417.337	1.72
417.541	1.86
417.745	1.83
417.949	1.91
418.153	2.05
418.357	2.07
418.561	2.25
418.765	2.14
418.969	2.3
419.173	2.41
419.377	2.37
419.581	2.63
419.785	2.54
419.989	2.66
420.193	2.77
420.397	2.89
420.601	2.98
420.804	3.06
421.008	3.09
421.212	3.28
421.416	3.29
421.62	3.24
421.823	3.34
422.027	3.5
422.231	3.47
422.435	3.45
422.638	3.54
422.842	3.65
423.046	3.77
423.249	3.95
423.453	3.87
423.657	4.09
423.86	4.18
424.064	4.3
424.268	4.38
424.471	4.49
424.675	4.62
424.878	4.74
425.082	4.88
425.285	5.16
425.489	5
425.692	5.17
425.896	5.28
426.099	5.4
426.303	5.55
426.506	5.75
426.71	5.94
426.913	6.17
427.116	6.32
427.32	6.27
427.523	6.38
427.726	6.62
427.93	6.76
428.133	7.08
428.336	7.25
428.54	7.37
428.743	7.55
428.946	7.85
429.149	7.85
429.353	7.89
429.556	7.91
429.759	7.99
429.962	8.18
430.165	8.31
430.368	8.01
430.571	7.98
430.775	8.08
430.978	8
431.181	8.09
431.384	8.05
431.587	8.32
431.79	8.66
431.993	8.55
432.196	8.85
432.399	9.27
432.602	9.36
432.805	9.59
433.008	10.12
433.211	9.9
433.414	10.26
433.616	10.29
433.819	10.15
434.022	10.31
434.225	10.65
434.428	10.68
434.631	10.97
434.833	10.75
435.036	11.13
435.239	11.25
435.442	11.33
435.645	11.46
435.847	11.5
436.05	11.87
436.253	11.96
436.455	12.14
436.658	11.87
436.861	12.33
437.063	12.47
437.266	12.45
437.468	12.71
437.671	12.9
437.874	13.11
438.076	12.91
438.279	13.43
438.481	13.43
438.684	14.16
438.886	13.78
439.089	14.08
439.291	14.13
439.494	14.44
439.696	14.61
439.899	15.28
440.101	15.67
440.303	15.74
440.506	16.47
440.708	16.32
440.91	16.38
441.113	16.64
441.315	16.9
441.517	16.68
441.72	17.17
441.922	16.88
442.124	16.81
442.326	17.09
442.529	17.41
442.731	17.3
442.933	17.64
443.135	17.4
443.337	17.51
443.539	18.17
443.742	17.51
443.944	18.39
444.146	18.07
444.348	18.09
444.55	17.93
444.752	18.03
444.954	18.21
445.156	17.99
445.358	18.63
445.56	18.64
445.762	18.48
445.964	18.78
446.166	18.54
446.368	18.63
446.57	18.62
446.772	18.2
446.974	18.12
447.175	18.41
447.377	18.01
447.579	18.51
447.781	18.04
447.983	17.86
448.184	17.39
448.386	17.77
448.588	17.31
448.79	17.29
448.991	17.61
449.193	17.54
449.395	16.94
449.597	16.51
449.798	16.42
450	16.02
450.202	15.95
450.403	15.89
450.605	15.77
450.806	15.43
451.008	15.31
451.21	15.09
451.411	14.65
451.613	13.92
451.814	14.24
452.016	14.08
452.217	13.31
452.419	13.44
452.62	13.03
452.821	12.8
453.023	12.59
453.224	12.31
453.426	11.96
453.627	11.3
453.828	11.46
454.03	11.38
454.231	11.31
454.432	11.19
454.634	10.95
454.835	10.71
455.036	10.43
455.238	10.08
455.439	9.91
455.64	9.54
455.841	9.5
456.042	9.6
456.244	9.27
456.445	9.07
456.646	8.75
456.847	8.65
457.048	8.56
457.249	8.52
457.45	8.23
457.651	7.78
457.852	7.63
458.054	7.33
458.255	7.25
458.456	7.43
458.657	7.24
458.858	6.85
459.058	6.76
459.259	6.81
459.46	6.53
459.661	6.47
459.862	6.41
460.063	6.41
460.264	6.24
460.465	5.98
460.666	6.09
460.866	5.79
461.067	5.63
461.268	5.57
461.469	5.53
461.67	5.38
461.87	5.32
462.071	5.23
462.272	5.11
462.473	5.18
462.673	5.36
462.874	5.2
463.075	5.16
463.275	5.23
463.476	5.16
463.676	5.13
463.877	5.01
464.078	4.94
464.278	5.07
464.479	4.91
464.679	4.81
464.88	4.67
465.08	4.7
465.281	4.55
465.481	4.37
465.682	4.13
465.882	4.14
466.083	4.12
466.283	4.12
466.483	4
466.684	3.75
466.884	3.71
467.085	3.7
467.285	3.86
467.485	3.64
467.686	3.6
467.886	3.47
468.086	3.39
468.286	3.42
468.487	3.49
468.687	3.33
468.887	3.23
469.087	3.34
469.287	3.31
469.488	3.06
469.688	3.25
469.888	3.16
470.088	3.12
470.288	3.13
470.488	2.98
470.688	2.9
470.888	2.88
471.088	2.7
471.288	2.85
471.488	2.78
471.688	2.73
471.888	2.65
472.088	2.77
472.288	2.7
472.488	2.61
472.688	2.6
472.888	2.59
473.088	2.62
473.288	2.55
473.488	2.47
473.688	2.63
473.887	2.53
474.087	2.5
474.287	2.47
474.487	2.41
474.687	2.47
474.886	2.34
475.086	2.32
475.286	2.3
475.486	2.3
475.685	2.28
475.885	2.21
476.085	2.26
476.284	2.27
476.484	2.22
476.684	2.26
476.883	2.27
477.083	2.2
477.282	2.14
477.482	2.16
477.681	2.17
477.881	2.13
478.08	2.12
478.28	2.06
478.479	2.16
478.679	2.11
478.878	2.03
479.078	2.05
479.277	2.12
479.477	2.07
479.676	2.03
479.875	2.01
480.075	2.01
480.274	2.02
480.473	2.07
480.673	2.03
480.872	2.1
481.071	2.05
481.271	2.03
481.47	1.99
481.669	1.97
481.868	2
482.067	2.02
482.267	1.92
482.466	1.97
482.665	1.98
482.864	1.97
483.063	1.93
483.262	2.06
483.461	2.04
483.661	2.08
483.86	1.96
484.059	2.06
484.258	2.03
484.457	2.02
484.656	2.04
484.855	2.14
485.054	1.92
485.253	1.98
485.452	1.95
485.651	2.09
485.849	2
486.048	2.02
486.247	2.07
486.446	2.09
486.645	2.05
486.844	2.1
487.043	2.04
487.241	2.12
487.44	2.08
487.639	2.12
487.838	2.12
488.037	2.09
488.235	2.2
488.434	2.18
488.633	2.06
488.831	2.23
489.03	2.2
489.229	2.19
489.427	2.26
489.626	2.25
489.825	2.27
490.023	2.29
490.222	2.27
490.42	2.33
490.619	2.32
490.817	2.36
491.016	2.36
491.214	2.38
491.413	2.43
491.611	2.37
491.81	2.41
492.008	2.46
492.207	2.54
492.405	2.55
492.604	2.5
492.802	2.58
493	2.64
493.199	2.62
493.397	2.66
493.595	2.68
493.794	2.68
493.992	2.76
494.19	2.78
494.388	2.81
494.587	2.75
494.785	2.79
494.983	2.71
495.181	2.89
495.379	2.95
495.578	2.95
495.776	2.94
495.974	2.91
496.172	2.93
496.37	3.06
496.568	3.13
496.766	3.11
496.964	3.16
497.162	3.19
497.36	3.22
497.558	3.23
497.756	3.28
497.954	3.29
498.152	3.31
498.35	3.4
498.548	3.35
498.746	3.36
498.944	3.42
499.142	3.43
499.34	3.5
499.538	3.62
499.736	3.51
499.933	3.62
500.131	3.63
500.329	3.83
500.527	3.74
500.725	3.83
500.922	3.85
501.12	3.94
501.318	3.95
501.516	3.95
501.713	4.02
501.911	3.94
502.109	4
502.306	4.05
502.504	4
502.701	4.08
502.899	4.15
503.097	4.34
503.294	4.14
503.492	4.4
503.689	4.39
503.887	4.38
504.084	4.42
504.282	4.41
504.479	4.39
504.677	4.54
504.874	4.55
505.072	4.43
505.269	4.68
505.466	4.69
505.664	4.7
505.861	4.62
506.059	4.76
506.256	4.8
506.453	4.83
506.651	4.95
506.848	4.98
507.045	4.96
507.242	4.94
507.44	5.04
507.637	5.13
507.834	5.04
508.031	5.16
508.229	5.11
508.426	5.1
508.623	5.28
508.82	5.3
509.017	5.26
509.214	5.29
509.411	5.41
509.608	5.35
509.805	5.44
510.003	5.46
510.2	5.47
510.397	5.62
510.594	5.52
510.791	5.63
510.988	5.66
511.184	5.62
511.381	5.47
511.578	5.61
511.775	5.8
511.972	5.68
512.169	5.77
512.366	5.8
512.563	5.95
512.76	5.91
512.956	5.95
513.153	5.94
513.35	5.92
513.547	5.89
513.744	5.98
513.94	6.02
514.137	6.17
514.334	6.14
514.53	6.14
514.727	6.36
514.924	6.26
515.12	6.19
515.317	6.25
515.514	6.2
515.71	6.19
515.907	6.41
516.103	6.4
516.3	6.3
516.497	6.46
516.693	6.48
516.89	6.49
517.086	6.45
517.283	6.54
517.479	6.42
517.676	6.65
517.872	6.63
518.068	6.63
518.265	6.65
518.461	6.54
518.658	6.72
518.854	6.72
519.05	6.69
519.247	6.81
519.443	6.79
519.639	6.82
519.836	6.75
520.032	6.73
520.228	6.84
520.424	6.84
520.621	6.94
520.817	6.91
521.013	6.87
521.209	7.08
521.405	7.07
521.601	7.02
521.798	6.99
521.994	7.07
522.19	6.96
522.386	7
522.582	7.08
522.778	7.21
522.974	7.05
523.17	7.12
523.366	7.08
523.562	7.14
523.758	7.14
523.954	7.03
524.15	7.26
524.346	7.22
524.542	7.28
524.738	7.21
524.934	7.35
525.129	7.29
525.325	7.2
525.521	7.23
525.717	7.47
525.913	7.3
526.109	7.32
526.304	7.43
526.5	7.44
526.696	7.45
526.892	7.38
527.087	7.59
527.283	7.51
527.479	7.44
527.674	7.3
527.87	7.46
528.066	7.48
528.261	7.55
528.457	7.38
528.653	7.59
528.848	7.57
529.044	7.63
529.239	7.48
529.435	7.53
529.63	7.57
529.826	7.51
530.021	7.55
530.217	7.54
530.412	7.6
530.608	7.62
530.803	7.62
530.999	7.59
531.194	7.61
531.389	7.69
531.585	7.69
531.78	7.8
531.975	7.69
532.171	7.75
532.366	7.74
532.561	7.79
532.757	7.68
532.952	7.87
533.147	7.66
533.342	7.76
533.538	7.74
533.733	7.9
533.928	7.59
534.123	7.71
534.318	7.83
534.513	7.75
534.709	7.91
534.904	7.86
535.099	7.85
535.294	7.9
535.489	7.9
535.684	7.78
535.879	7.86
536.074	7.91
536.269	7.92
536.464	7.96
536.659	7.88
536.854	7.83
537.049	7.96
537.244	7.85
537.439	7.85
537.634	7.93
537.828	7.96
538.023	7.87
538.218	7.92
538.413	7.86
538.608	7.94
538.803	7.93
538.997	7.9
539.192	7.92
539.387	7.83
539.582	7.86
539.776	7.89
539.971	8
540.166	8.02
540.36	7.88
540.555	8.09
540.75	7.99
540.944	7.98
541.139	8.02
541.334	7.97
541.528	8
541.723	8.09
541.917	8.03
542.112	7.96
542.306	7.86
542.501	7.86
542.695	7.91
542.89	7.92
543.084	7.98
543.279	8.04
543.473	8.06
543.668	8.07
543.862	7.91
544.056	7.91
544.251	8.1
544.445	8.03
544.64	8.09
544.834	7.79
545.028	7.67
545.222	7.97
545.417	8.21
545.611	8.09
545.805	8.06
546	7.84
546.194	8
546.388	8.06
546.582	7.95
546.776	8.02
546.97	8.02
547.165	7.94
547.359	8.04
547.553	7.97
547.747	7.96
547.941	8.18
548.135	8.03
548.329	8.11
548.523	8.03
548.717	7.98
548.911	8.01
549.105	7.99
549.299	8.1
549.493	8.08
549.687	7.99
549.881	8.15
550.075	8.05
550.269	7.93
550.463	8.13
550.657	8.07
550.85	8.17
551.044	8.06
551.238	8.2
551.432	8.06
551.626	8.12
551.82	8.1
552.013	7.96
552.207	8.16
552.401	8.14
552.594	8.08
552.788	7.99
552.982	8.09
553.176	8.01
553.369	8.16
553.563	8.09
553.756	8.07
553.95	8.12
554.144	8.15
554.337	8.1
554.531	7.98
554.724	8.1
554.918	8.14
555.111	8.04
555.305	8.09
555.498	8.03
555.692	8.15
555.885	8.1
556.079	8.04
556.272	8.09
556.466	8.14
556.659	8.08
556.852	8.08
557.046	8.04
557.239	7.97
557.432	8.05
557.626	8.19
557.819	8.16
558.012	8.14
558.206	8.22
558.399	8.13
558.592	8.11
558.785	8.07
558.979	8.12
559.172	8.06
559.365	8.07
559.558	8.04
559.751	7.98
559.944	8.16
560.138	8.13
560.331	8.16
560.524	8.16
560.717	8.11
560.91	8.13
561.103	8.11
561.296	7.94
561.489	8.15
561.682	8.18
561.875	8.14
562.068	8.18
562.261	8.01
562.454	8.22
562.647	8.06
562.84	8.1
563.032	8.13
563.225	8.02
563.418	8.02
563.611	8.2
563.804	8.15
563.997	8.02
564.19	7.85
564.382	8.22
564.575	8.14
564.768	8.08
564.961	8.16
565.153	8.07
565.346	8
565.539	8.17
565.731	8.11
565.924	8.17
566.117	8.28
566.309	8.13
566.502	8.08
566.695	7.99
566.887	8.09
567.08	8.07
567.272	8.17
567.465	8
567.657	8.14
567.85	7.96
568.042	8.09
568.235	8.05
568.427	7.87
568.62	8.04
568.812	8.01
569.005	8.09
569.197	7.93
569.389	8.06
569.582	8.03
569.774	8.03
569.966	8.02
570.159	7.95
570.351	7.9
570.543	8.03
570.736	8.04
570.928	7.77
571.12	8
571.312	7.92
571.505	7.76
571.697	7.97
571.889	7.99
572.081	8.01
572.273	7.96
572.465	7.99
572.658	7.97
572.85	8
573.042	8.07
573.234	7.91
573.426	7.91
573.618	7.91
573.81	7.99
574.002	7.99
574.194	7.93
574.386	7.9
574.578	7.82
574.77	7.92
574.962	7.92
575.154	7.75
575.346	7.84
575.538	7.82
575.729	7.8
575.921	7.97
576.113	7.97
576.305	7.89
576.497	8.01
576.689	7.75
576.88	7.74
577.072	7.86
577.264	7.88
577.456	7.88
577.647	7.78
577.839	7.92
578.031	7.83
578.223	7.8
578.414	7.68
578.606	7.83
578.798	7.87
578.989	7.85
579.181	7.92
579.372	7.86
579.564	7.83
579.755	7.69
579.947	7.71
580.139	7.79
580.33	7.64
580.522	7.8
580.713	7.71
580.905	7.71
581.096	7.78
581.287	7.68
581.479	7.73
581.67	7.78
581.862	7.7
582.053	7.72
582.244	7.58
582.436	7.75
582.627	7.62
582.818	7.62
583.01	7.62
583.201	7.65
583.392	7.63
583.583	7.56
583.775	7.5
583.966	7.57
584.157	7.6
584.348	7.69
584.54	7.53
584.731	7.58
584.922	7.52
585.113	7.43
585.304	7.59
585.495	7.57
585.686	7.63
585.877	7.65
586.068	7.68
586.259	7.51
586.45	7.5
586.641	7.5
586.832	7.58
587.023	7.49
587.214	7.47
587.405	7.53
587.596	7.39
587.787	7.36
587.978	7.47
588.169	7.38
588.36	7.38
588.551	7.48
588.742	7.4
588.932	7.49
589.123	7.25
589.314	7.55
589.505	7.3
589.696	7.38
589.886	7.35
590.077	7.31
590.268	7.23
590.458	7.27
590.649	7.16
590.84	7.27
591.03	7.31
591.221	7.25
591.412	7.11
591.602	7.32
591.793	7.25
591.984	7.25
592.174	7.23
592.365	7.31
592.555	7.05
592.746	7.17
592.936	7.17
593.127	7.17
593.317	7.2
593.508	7.1
593.698	7.08
593.889	7.1
594.079	7.06
594.269	7.05
594.46	7.06
594.65	7.15
594.84	7.07
595.031	6.96
595.221	6.92
595.411	7.02
595.602	7.06
595.792	6.94
595.982	6.86
596.172	7.02
596.363	6.94
596.553	6.91
596.743	6.94
596.933	6.86
597.123	6.82
597.314	6.69
597.504	6.8
597.694	6.86
597.884	6.77
598.074	6.85
598.264	6.85
598.454	6.8
598.644	6.68
598.834	6.75
599.024	6.67
599.214	6.68
599.404	6.8
599.594	6.79
599.784	6.66
599.974	6.71
600.164	6.67
600.354	6.6
600.544	6.58
600.734	6.59
600.924	6.57
601.114	6.55
601.303	6.49
601.493	6.61
601.683	6.55
601.873	6.5
602.063	6.46
602.252	6.51
602.442	6.38
602.632	6.42
602.821	6.36
603.011	6.47
603.201	6.48
603.39	6.4
603.58	6.3
603.77	6.36
603.959	6.43
604.149	6.32
604.339	6.32
604.528	6.41
604.718	6.4
604.907	6.31
605.097	6.18
605.286	6.25
605.476	6.25
605.665	6.27
605.855	6.17
606.044	6.25
606.234	6.23
606.423	6.17
606.612	6.18
606.802	6.12
606.991	6.15
607.181	6.23
607.37	6.13
607.559	5.95
607.749	6.07
607.938	6.01
608.127	5.99
608.316	6.02
608.506	6.03
608.695	6.06
608.884	5.97
609.073	5.97
609.263	6
609.452	6.02
609.641	5.86
609.83	5.84
610.019	5.93
610.208	5.9
610.397	5.84
610.586	5.86
610.775	5.76
610.965	5.83
611.154	5.69
611.343	5.78
611.532	5.68
611.721	5.76
611.91	5.69
612.099	5.66
612.287	5.61
612.476	5.55
612.665	5.78
612.854	5.6
613.043	5.65
613.232	5.62
613.421	5.55
613.61	5.57
613.798	5.55
613.987	5.6
614.176	5.57
614.365	5.55
614.554	5.5
614.742	5.52
614.931	5.35
615.12	5.5
615.309	5.45
615.497	5.42
615.686	5.33
615.875	5.41
616.063	5.34
616.252	5.33
616.44	5.39
616.629	5.28
616.818	5.28
617.006	5.26
617.195	5.23
617.383	5.27
617.572	5.16
617.76	5.19
617.949	5.17
618.137	5.3
618.326	5.2
618.514	5.03
618.703	5.03
618.891	5.16
619.079	5.1
619.268	5.17
619.456	5.01
619.644	5.08
619.833	5.03
620.021	5.06
620.209	4.87
620.398	5
620.586	4.91
620.774	5.01
620.962	4.97
621.151	5
621.339	4.9
621.527	4.91
621.715	4.79
621.903	4.85
622.092	4.77
622.28	4.91
622.468	4.63
622.656	4.82
622.844	4.79
623.032	4.83
623.22	4.69
623.408	4.79
623.596	4.71
623.784	4.78
623.972	4.6
624.16	4.66
624.348	4.65
624.536	4.75
624.724	4.59
624.912	4.68
625.1	4.6
625.288	4.63
625.476	4.54
625.664	4.63
625.851	4.56
626.039	4.57
626.227	4.49
626.415	4.48
626.603	4.4
626.79	4.49
626.978	4.48
627.166	4.52
627.354	4.37
627.541	4.44
627.729	4.31
627.917	4.53
628.104	4.47
628.292	4.35
628.48	4.35
628.667	4.32
628.855	4.38
629.042	4.34
629.23	4.3
629.418	4.3
629.605	4.29
629.793	4.17
629.98	4.22
630.168	4.15
630.355	4.19
630.543	4.22
630.73	4.09
630.917	4.07
631.105	4.25
631.292	4.11
631.48	4.11
631.667	4.14
631.854	4.04
632.042	4.09
632.229	3.99
632.416	4.09
632.604	4.06
632.791	3.89
632.978	4.02
633.165	3.94
633.353	4.04
633.54	4
633.727	3.85
633.914	3.84
634.101	3.81
634.289	3.91
634.476	3.78
634.663	3.81
634.85	3.81
635.037	3.72
635.224	3.69
635.411	3.8
635.598	3.75
635.785	3.71
635.972	3.71
636.159	3.77
636.346	3.74
636.533	3.65
636.72	3.67
636.907	3.63
637.094	3.62
637.281	3.53
637.468	3.62
637.655	3.62
637.842	3.64
638.029	3.57
638.215	3.53
638.402	3.58
638.589	3.43
638.776	3.47
638.963	3.48
639.149	3.53
639.336	3.62
639.523	3.49
639.709	3.39
639.896	3.45
640.083	3.41
640.27	3.45
640.456	3.41
640.643	3.37
640.829	3.31
641.016	3.32
641.203	3.3
641.389	3.33
641.576	3.26
641.762	3.26
641.949	3.22
642.135	3.34
642.322	3.25
642.508	3.15
642.695	3.23
642.881	3.21
643.068	3.16
643.254	3.2
643.441	3.17
643.627	3.2
643.813	3.08
644	3.18
644.186	3.1
644.372	3.18
644.559	3.1
644.745	3.07
644.931	3.06
645.118	3.07
645.304	3.08
645.49	3.08
645.676	2.96
645.862	3.06
646.049	3.12
646.235	3.03
646.421	3.15
646.607	3.02
646.793	2.96
646.979	2.87
647.165	2.99
647.352	2.93
647.538	2.93
647.724	2.94
647.91	2.93
648.096	2.91
648.282	2.91
648.468	2.89
648.654	2.91
648.84	2.87
649.026	2.86
649.212	2.77
649.397	2.82
649.583	2.81
649.769	2.84
649.955	2.81
650.141	2.83
650.327	2.76
650.513	2.76
650.698	2.77
650.884	2.72
651.07	2.79
651.256	2.72
651.442	2.74
651.627	2.63
651.813	2.74
651.999	2.65
652.184	2.66
652.37	2.62
652.556	2.66
652.741	2.67
652.927	2.52
653.113	2.61
653.298	2.67
653.484	2.55
653.669	2.53
653.855	2.56
654.04	2.6
654.226	2.59
654.412	2.6
654.597	2.48
654.782	2.52
654.968	2.53
655.153	2.52
655.339	2.49
655.524	2.44
655.71	2.51
655.895	2.51
656.08	2.41
656.266	2.51
656.451	2.5
656.636	2.37
656.822	2.45
657.007	2.41
657.192	2.44
657.378	2.39
657.563	2.36
657.748	2.39
657.933	2.39
658.118	2.36
658.304	2.35
658.489	2.42
658.674	2.37
658.859	2.28
659.044	2.36
659.229	2.32
659.414	2.26
659.599	2.35
659.785	2.23
659.97	2.25
660.155	2.27
660.34	2.29
660.525	2.23
660.71	2.16
660.895	2.28
661.08	2.23
661.264	2.15
661.449	2.19
661.634	2.18
661.819	2.19
662.004	2.14
662.189	2.07
662.374	2.12
662.559	2.02
662.743	2.04
662.928	2.07
663.113	2
663.298	2.01
663.483	2.03
663.667	2.04
663.852	1.94
664.037	2.11
664.221	1.94
664.406	2.04
664.591	2
664.775	1.95
664.96	1.91
665.145	1.91
665.329	1.92
665.514	1.88
665.698	1.9
665.883	1.87
666.068	1.91
666.252	1.94
666.437	1.82
666.621	1.84
666.806	1.92
666.99	1.84
667.174	1.83
667.359	1.87
667.543	1.83
667.728	1.78
667.912	1.72
668.096	1.82
668.281	1.74
668.465	1.79
668.649	1.73
668.834	1.68
669.018	1.76
669.202	1.71
669.387	1.68
669.571	1.76
669.755	1.68
669.939	1.71
670.124	1.68
670.308	1.67
670.492	1.72
670.676	1.68
670.86	1.66
671.044	1.58
671.228	1.7
671.413	1.61
671.597	1.57
671.781	1.6
671.965	1.66
672.149	1.62
672.333	1.63
672.517	1.56
672.701	1.61
672.885	1.59
673.069	1.5
673.253	1.63
673.437	1.53
673.621	1.54
673.804	1.58
673.988	1.54
674.172	1.54
674.356	1.48
674.54	1.51
674.724	1.64
674.908	1.47
675.091	1.53
675.275	1.51
675.459	1.53
675.643	1.46
675.826	1.5
676.01	1.48
676.194	1.47
676.377	1.48
676.561	1.49
676.745	1.45
676.928	1.45
677.112	1.44
677.296	1.4
677.479	1.43
677.663	1.35
677.846	1.43
678.03	1.41
678.213	1.36
678.397	1.34
678.58	1.4
678.764	1.36
678.947	1.28
679.131	1.37
679.314	1.34
679.498	1.31
679.681	1.39
679.865	1.37
680.048	1.3
680.231	1.26
680.415	1.36
680.598	1.37
680.781	1.27
680.965	1.33
681.148	1.32
681.331	1.28
681.514	1.35
681.698	1.25
681.881	1.33
682.064	1.26
682.247	1.33
682.43	1.22
682.614	1.25
682.797	1.27
682.98	1.24
683.163	1.15
683.346	1.33
683.529	1.18
683.712	1.2
683.895	1.27
684.078	1.15
684.261	1.2
684.444	1.22
684.627	1.24
684.81	1.18
684.993	1.17
685.176	1.16
685.359	1.11
685.542	1.17
685.725	1.21
685.908	1.18
686.091	1.18
686.274	1.16
686.457	1.19
686.639	1.21
686.822	1.14
687.005	1.12
687.188	1.15
687.371	1.23
687.553	1.18
687.736	1.16
687.919	1.2
688.102	1.16
688.284	1.11
688.467	1.12
688.65	1.1
688.832	1.04
689.015	1.06
689.197	1.05
689.38	1.21
689.563	1.16
689.745	1
689.928	1.05
690.11	1.05
690.293	1.05
690.475	0.94
690.658	1
690.84	1.02
691.023	0.98
691.205	1.02
691.388	1.04
691.57	1.09
691.752	1.03
691.935	0.91
692.117	1
692.3	1.04
692.482	0.97
692.664	0.98
692.847	0.95
693.029	1.01
693.211	1
693.393	0.92
693.576	0.91
693.758	0.92
693.94	0.96
694.122	0.96
694.304	0.9
694.487	0.89
694.669	1
694.851	0.92
695.033	0.93
695.215	0.91
695.397	0.85
695.579	0.93
695.761	0.77
695.943	0.86
696.125	0.97
696.308	0.88
696.49	0.8
696.671	1.08
696.853	0.85
697.035	1.11
697.217	0.92
697.399	0.91
697.581	0.79
697.763	0.95
697.945	0.79
698.127	0.92
698.309	0.92
698.491	0.86
698.672	0.9
698.854	0.89
699.036	0.95
699.218	0.83
699.399	0.94
699.581	0.87
699.763	0.83
699.945	0.77
700.126	0.82
700.308	0.83
700.49	0.85
700.671	0.7
700.853	0.82
701.035	0.76
701.216	0.76
701.398	0.73
701.579	0.78
701.761	0.87
701.943	0.73
702.124	0.73
702.306	0.78
702.487	0.93
702.669	0.85
702.85	0.79
703.031	0.71
703.213	0.9
703.394	0.87
703.576	0.76
703.757	0.92
703.938	0.88
704.12	0.94
704.301	0.79
704.483	0.79
704.664	0.81
704.845	0.92
705.026	0.78
705.208	0.75
705.389	0.83
705.57	0.77
705.751	0.76
705.933	0.82
706.114	0.87
706.295	0.8
706.476	0.68
706.657	0.87
706.838	0.76
707.02	0.8
707.201	0.75
707.382	0.72
707.563	0.8
707.744	0.7
707.925	0.57
708.106	0.65
708.287	0.81
708.468	0.75
708.649	0.75
708.83	0.79
709.011	0.7
709.192	0.82
709.373	0.64
709.554	0.7
709.734	0.7
709.915	0.75
710.096	0.67
710.277	0.6
710.458	0.75
710.639	0.74
710.819	0.55
711	0.63
711.181	0.74
711.362	0.81
711.542	0.71
711.723	0.63
711.904	0.7
712.085	0.68
712.265	0.71
712.446	0.55
712.627	0.72
712.807	0.56
712.988	0.63
713.168	0.61
713.349	0.74
713.53	0.53
713.71	0.63
713.891	0.62
714.071	0.7
714.252	0.64
714.432	0.62
714.613	0.54
714.793	0.7
714.974	0.75
715.154	0.69
715.334	0.66
715.515	0.76
715.695	0.57
715.876	0.67
716.056	0.62
716.236	0.64
716.417	0.64
716.597	0.61
716.777	0.8
716.957	0.64
717.138	0.67
717.318	0.66
717.498	0.58
717.678	0.64
717.859	0.63
718.039	0.54
718.219	0.65
718.399	0.69
718.579	0.6
718.759	0.52
718.939	0.63
719.12	0.61
719.3	0.64
719.48	0.52
719.66	0.5
719.84	0.77
720.02	0.58
720.2	0.52
720.38	0.71
720.56	0.71
720.74	0.6
720.92	0.67
721.1	0.7
721.279	0.74
721.459	0.61
721.639	0.6
721.819	0.59
721.999	0.51
722.179	0.63
722.359	0.48
722.538	0.53
722.718	0.66
722.898	0.58
723.078	0.66
723.257	0.57
723.437	0.67
723.617	0.7
723.797	0.6
723.976	0.6
724.156	0.64
724.336	0.7
724.515	0.8
724.695	0.54
724.874	0.62
725.054	0.65
725.234	0.59
725.413	0.56
725.593	0.55
725.772	0.63
725.952	0.6
726.131	0.63
726.311	0.59
726.49	0.59
726.67	0.54
726.849	0.56
727.028	0.7
727.208	0.53
727.387	0.67
727.567	0.59
727.746	0.64
727.925	0.55
728.105	0.61
728.284	0.61
728.463	0.47
728.643	0.6
728.822	0.46
729.001	0.6
729.18	0.64
729.359	0.69
729.539	0.52
729.718	0.56
729.897	0.62
730.076	0.57
730.255	0.46
730.434	0.71
730.614	0.56
730.793	0.65
730.972	0.56
731.151	0.65
731.33	0.69
731.509	0.59
731.688	0.63
731.867	0.72
732.046	0.54
732.225	0.76
732.404	0.55
732.583	0.54
732.762	0.6
732.941	0.69
733.12	0.71
733.298	0.56
733.477	0.62
733.656	0.58
733.835	0.57
734.014	0.65
734.193	0.62
734.371	0.62
734.55	0.73
734.729	0.45
734.908	0.59
735.086	0.61
735.265	0.66
735.444	0.48
735.623	0.6
735.801	0.66
735.98	0.65
736.159	0.6
736.337	0.75
736.516	0.61
736.694	0.65
736.873	0.48
737.052	0.73
737.23	0.81
737.409	0.6
737.587	0.86
737.766	0.38
737.944	0.55
738.123	0.69
738.301	0.51
738.479	0.78
738.658	0.6
738.836	0.49
739.015	0.63
739.193	0.65
739.371	0.5
739.55	0.5
739.728	0.46
739.906	0.64
740.085	0.77
740.263	0.56
740.441	0.42
740.62	0.75
740.798	0.67
740.976	0.56
741.154	0.46
741.332	0.71
741.511	0.5
741.689	0.52
741.867	0.57
742.045	0.62
742.223	0.55
742.401	0.46
742.579	0.48
742.757	0.6
742.935	0.39
743.114	0.48
743.292	0.48
743.47	0.56
743.648	0.56
743.826	0.51
744.004	0.53
744.181	0.54
744.359	0.44
744.537	0.56
744.715	0.56
744.893	0.49
745.071	0.49
745.249	0.5
745.427	0.45
745.605	0.69
745.782	0.52
745.96	0.61
746.138	0.53
746.316	0.57
746.493	0.41
746.671	0.47
746.849	0.35
747.027	0.48
747.204	0.29
747.382	0.48
747.56	0.4
747.737	0.48
747.915	0.36
748.093	0.54
748.27	0.41
748.448	0.43
748.625	0.41
748.803	0.44
748.98	0.34
749.158	0.43
749.335	0.54
749.513	0.51
749.69	0.42
749.868	0.44
750.045	0.53
750.223	0.44
750.4	0.21
750.578	0.55
750.755	0.43
750.932	0.3
751.11	0.66
751.287	0.32
751.464	0.47
751.642	0.37
751.819	0.55
751.996	0.4
752.173	0.34
752.351	0.2
752.528	0.47
752.705	0.47
752.882	0.37
753.06	0.46
753.237	0.42
753.414	0.66
753.591	0.64
753.768	0.51
753.945	0.42
754.122	0.34
754.299	0.56
754.476	0.36
754.654	0.37
754.831	0.36
755.008	0.43
755.185	0.28
755.362	0.33
755.539	0.38
755.716	0.54
755.892	0.43
756.069	0.37
756.246	0.44
756.423	0.33
756.6	0.62
756.777	0.46
756.954	0.62
757.131	0.45
757.307	0.27
757.484	0.38
757.661	0.49
757.838	0.48
758.015	0.33
758.191	0.53
758.368	0.49
758.545	0.52
758.721	0.59
758.898	0.43
759.075	0.44
759.251	0.48
759.428	0.54
759.605	0.32
759.781	0.29
759.958	0.43
760.134	0.43
760.311	0.35
760.488	0.48
760.664	0.53
760.841	0.3
761.017	0.24
761.194	0.48
761.37	0.53
761.547	0.47
761.723	0.3
761.899	0.6
762.076	0.28
762.252	0.29
762.429	0.49
762.605	0.62
762.781	0.36
762.958	0.58
763.134	0.31
763.31	0.45
763.486	0.37
763.663	0.12
763.839	0.39
764.015	0.22
764.191	0.27
764.368	0.34
764.544	0.31
764.72	0.47
764.896	0.5
765.072	0.37
765.248	0.41
765.425	0.44
765.601	0.37
765.777	0.36
765.953	0.17
766.129	0.27
766.305	0.32
766.481	0.52
766.657	0.34
766.833	0.57
767.009	0.34
767.185	0.36
767.361	0.34
767.537	0.33
767.713	0.56
767.889	0.38
768.065	0.46
768.24	0.39
768.416	0.38
768.592	0.31
768.768	0.47
768.944	0.38
769.12	0.4
769.295	0.48
769.471	0.6
769.647	0.47
769.823	0.57
769.998	0.29
770.174	0.25
770.35	0.68
770.525	0.69
770.701	0.44
770.877	0.34
771.052	0.36
771.228	0.33
771.403	0.46
771.579	0.51
771.755	0.61
771.93	0.34
772.106	0.26
772.281	0.12
772.457	0.38
772.632	0.47
772.808	0.2
772.983	0.34
773.159	0.23
773.334	0.59
773.509	0.32
773.685	0.33
773.86	0.6
774.036	0.58
774.211	0.4
774.386	0.33
774.562	0.51
774.737	0.59
774.912	0.31
775.087	0.58
775.263	0.47
775.438	0.43
775.613	0.25
775.788	0.36
775.964	0.54
776.139	0.76
776.314	0.33
776.489	0.37
776.664	0.31
776.839	0.34
777.014	0.56
777.19	0.52
777.365	0.54
777.54	0.53
777.715	0.19
777.89	0.46
778.065	0.26
778.24	0.35
778.415	0.52
778.59	0.31
778.765	0.4
778.94	0.51
779.115	0.23
779.289	0.22
779.464	0.43
779.639	0.45
779.814	0.15
779.989	0.26
780.164	0.61
780.339	0.37
780.513	0.24
780.688	0.31
780.863	0.49
781.038	0.59
781.212	0.16
781.387	0.5
781.562	0.51
781.737	0.56
781.911	0.62
782.086	0.37
782.261	0.43
782.435	0.53
782.61	0.24
782.784	0.42
782.959	0.68
783.134	0.44
783.308	0.31
783.483	0.37
783.657	0.89
783.832	0.7
784.006	0.18
784.181	0.35
784.355	0.71
784.53	0.69
784.704	0.39
784.878	0.68
785.053	0.63
785.227	0.67
785.402	0.74
785.576	0.11
785.75	0.54
785.925	0.29
786.099	0.52
786.273	0.68
786.448	0.64
786.622	0.91
786.796	0.28
786.97	0.4
787.145	0.9
787.319	0.24
787.493	0.22
787.667	0.21
787.841	0.41
788.015	0.79
788.19	0.29
788.364	0.59
788.538	0.57
788.712	0.48
788.886	0.5
789.06	0.65
789.234	0.65
789.408	0.39
789.582	0.45
789.756	0.54
789.93	0.44
790.104	0.41
790.278	0.37
790.452	0.1
790.626	0.62
790.8	0.4
790.973	0.54
791.147	0.78
791.321	0.79
791.495	0.66
791.669	0.49
791.843	0.39
792.016	0.43
792.19	0.94
792.364	0.27
792.538	1.01
792.711	0.81
792.885	0.29
793.059	0.14
793.233	0.05
793.406	0.72
793.58	0.39
793.754	0.67
793.927	0.66
794.101	0.93
794.274	0.77
794.448	0.72
794.622	0.42
794.795	0.52
794.969	0.28
795.142	0.74
795.316	0.5
795.489	0.46
795.663	0.87
795.836	0.37
796.009	0.29
796.183	0.79
796.356	0.59
796.53	0.47
796.703	0.36
796.876	1.09
797.05	0.5
797.223	0.55
797.396	0.66
797.57	0.63
797.743	0.99
797.916	0.45
798.09	0.47
798.263	0.54
798.436	0.74
798.609	0.31
798.782	0.3
798.956	0.5
799.129	0.53
799.302	0.55
799.475	0.57
799.648	0.4
799.821	0.41
799.994	0.41
800.167	0.22
800.34	0.63
800.514	0.33
800.687	0.51
800.86	0.54
801.033	0.68
801.206	0.13
801.379	0.59
801.551	0.87
801.724	0.73
801.897	0.99
802.07	0.59
802.243	0.26
802.416	0.56
802.589	0.53
802.762	0.43
802.935	0.84
803.107	0.67
803.28	0.71
803.453	0.71
803.626	0.42
803.798	0.72
803.971	0.61
804.144	0.78
804.317	1.05
804.489	0.82
804.662	0.55
804.835	0.17
805.007	0.39
805.18	1.07
805.353	0.57
805.525	0.37
805.698	0.38
805.87	0.9
806.043	0.94
806.215	0.36
806.388	0.62
806.56	0.79
806.733	0.67
806.905	0.66
807.078	0.41
807.25	0.34
807.423	0.8
807.595	0.5
807.768	0.38
807.94	1.12
808.112	0.78
808.285	0.75
808.457	0.33
808.629	0.23
808.802	0.98
808.974	0.69
809.146	0.64
809.318	0.41
809.491	0.67
809.663	0.58
809.835	0.63
810.007	0.79
810.18	0.77
810.352	0.26
810.524	0.77
810.696	0.99
810.868	0.92
811.04	0.57
811.212	0.41
811.384	0.55
811.556	0.89
811.728	0.39
811.901	1.41
812.073	0.4
812.245	0.77
812.417	0.69
812.589	0.2
812.76	0.95
812.932	0.68
813.104	0.98
813.276	0.53
813.448	0.95
813.62	0.49
813.792	0.73
813.964	0.89
814.136	1.17
814.307	0.32
814.479	0.14
814.651	0.53
814.823	1.1
814.995	0.69
815.166	0.96
815.338	0.3
815.51	0.14
815.681	1.33
815.853	0.78
816.025	0.35
816.196	1.37
816.368	0.86
816.54	0.59
816.711	0.68
816.883	1.11
817.054	1.44
817.226	-0.15
817.398	0.92
817.569	0.39
817.741	0.6
817.912	0.78
818.084	0.89
818.255	0.52
818.426	0.28
818.598	0.62
818.769	0.31
818.941	1.4
819.112	1.32
819.283	0.88
819.455	0.42
819.626	0.51
819.798	0.85
819.969	0.84
820.14	0.57
820.311	0.19
820.483	0.86
820.654	0.86
820.825	0.94
820.996	0.53
821.168	0.4
821.339	0.79
821.51	0.27
821.681	0.49
821.852	0.78
822.023	0.14
822.195	0.02
822.366	1.35
822.537	0.73
822.708	0.9
822.879	0.65
823.05	0.81
823.221	0.63
823.392	1.19
823.563	0.53
823.734	1.22
823.905	0.87
824.076	0.81
824.247	0.36
824.418	0.28
824.589	1.61
824.759	0.66
824.93	0.88
825.101	0.59
825.272	1.61
825.443	1.89
825.614	1.73
825.784	0.09
825.955	1.97
826.126	0.79
826.297	1.79
826.467	1.51
826.638	1.93
826.809	-0.08
826.98	1.16
827.15	1.42
827.321	0.57
827.492	1.72
827.662	0.42
827.833	1.78
828.003	1.84
828.174	0.33
828.345	-0.11
828.515	1.9
828.686	0.88
828.856	0.97
829.027	1.22
829.197	0.93
829.368	0.96
829.538	0.3
829.709	0.46
829.879	0.59
830.049	0.66
830.22	0.35
830.39	0.63
830.56	1.12
830.731	1
830.901	0.49
831.072	1.02
831.242	1.36
831.412	0.94
831.582	0.88
831.753	0.57
831.923	1.87
832.093	1
832.263	0.41
832.434	0.97
832.604	0.92
832.774	1.46
832.944	0.44
833.114	0.6
833.284	1.2
833.454	-0.11
833.624	0.52
833.795	0.76
833.965	1.8
834.135	1.7
834.305	-0.03
834.475	0.16
834.645	1.21
834.815	0.43
834.985	0.52
835.155	0.06
835.325	1.62
835.494	1.13
835.664	1.13
835.834	0.39
836.004	0.3
836.174	0.87
836.344	1.04
836.514	-0.71
836.684	0.99
836.853	1.08
837.023	0.61
837.193	0.51
837.363	2.15
837.532	1.82
837.702	1
837.872	0.18
838.041	1.62
838.211	2.33
838.381	0.29
838.55	1.12
838.72	3.18
838.89	2.42
839.059	0.66
839.229	0.91
839.398	2.17
839.568	0.72
839.738	1.37
839.907	2
840.077	1.45
840.246	1.27
840.416	0.46
840.585	0.5
840.755	2.54
840.924	1.72
841.093	0.1
841.263	0.85
841.432	0.74
841.602	0.66
841.771	0.64
841.94	1.57
842.11	2.8
842.279	2.69
842.448	0.67
842.617	1.13
842.787	2.42
842.956	0.67
843.125	2.21
843.294	1.86
843.464	1.64
843.633	1.22
843.802	0.51
843.971	0.87
844.14	1.85
844.309	1.68
844.479	0.74
844.648	0.13
844.817	0.37
844.986	1.88
845.155	1.06
845.324	0.95
845.493	1.59
845.662	0.78
845.831	1.54
846	1.81
846.169	0.81
846.338	2.29
846.507	1.42
846.676	2.12
846.844	0.51
847.013	2.4
847.182	1.01
847.351	1.51
847.52	0.73
847.689	2.38
847.858	1.86
848.026	0.64
848.195	1.93
848.364	1.01
848.533	1.1
848.701	1.81
848.87	0.72
849.039	2.15
849.207	1.97
849.376	3.03
849.545	3.36
849.713	0.73
849.882	1.24
850.051	0.87
850.219	1.85
850.388	2.74
850.556	0.59
850.725	0.58
850.893	2.36
851.062	2.01
851.23	1.54
851.399	0.19
851.567	0.88
851.736	1.07
851.904	0.18
852.073	2.36
852.241	1.97
852.41	1.86
852.578	1.75
852.746	1.85
852.915	1.86
853.083	1.02
853.251	-0.34
853.42	1.28
853.588	1.94
853.756	2.46
853.924	1.73
854.093	1.07
854.261	1.73
854.429	0.77
854.597	1.61
854.765	0.44
854.934	0.09
855.102	2.76
855.27	2.29
855.438	2.47
855.606	2.58
855.774	3.19
855.942	-1.03
856.11	0.56
856.278	1.75
856.446	1.76
856.614	1.57
856.782	0.67
856.95	2.36
857.118	2.43
857.286	0.58
857.454	1.2
857.622	1.99
857.79	1.52
857.958	0.25
858.126	1.89
858.294	0.75
858.462	2
858.629	-0.02
858.797	1.38
858.965	1.91
859.133	0.72
859.301	1.3
859.468	0.84
859.636	1.09
859.804	2.67
859.971	3.07
860.139	0.18
860.307	2.47
860.474	1.51
860.642	0.93
860.81	2.19
860.977	0.92
861.145	2.39
861.313	2.02
861.48	1.89
861.648	1.86
861.815	1.44
861.983	0.35
862.15	1.61
862.318	1.86
862.485	3.21
862.653	1.41
862.82	1.05
862.988	3.88
863.155	3.04
863.322	0.85
863.49	0.52
863.657	0.97
863.824	3.91
863.992	1.69
864.159	2.11
864.326	3.53
864.494	2.34
864.661	4.75
864.828	2.38
864.996	3.91
865.163	3.04
865.33	0.49
865.497	1.09
865.664	1.16
865.832	-0.22
865.999	1.38
866.166	0.1
866.333	1.42
866.5	1.01
866.667	1.07
866.834	1.39
867.001	3.23
867.168	-1.6
867.335	3.09
867.502	-1.1
867.669	2.02
867.836	4.65
868.003	0.26
868.17	3.83
868.337	3.73
868.504	4.1
868.671	0.52
868.838	0.71
869.005	2.74
869.172	1.58
869.339	1.4
869.505	1.43
869.672	0.45
869.839	3.56
870.006	1.5
870.173	-0.13
870.339	2.48
870.506	3.94
870.673	2.71
870.84	3.43
871.006	2.99
871.173	0.15
871.34	2.5
871.506	0.09
871.673	2.61
871.839	0.19
872.006	3.9
872.173	1.31
872.339	2.07
872.506	3.27
872.672	2.35
872.839	1.72
873.005	3.79
873.172	6.06
873.338	2.86
873.505	4.01
873.671	2.65
873.838	4.23
874.004	-0.42
874.171	1.48
874.337	2.68
874.503	3.34
874.67	1.06
874.836	1.97
875.002	5
875.169	3.05
875.335	2.5
875.501	1.22
875.668	3.44
875.834	1.41
876	1.75
876.166	5.07
876.332	4.28
876.499	4.92
876.665	2.55
876.831	3.59
876.997	5.35
877.163	2.91
877.329	2.02
877.495	2.42
877.662	4.44
877.828	2.66
877.994	2.64
878.16	-0.56
878.326	1.54
878.492	2.45
878.658	1.58
878.824	4.17
878.99	2.18
879.156	1.8
879.322	4.9
879.487	4.57
879.653	3.54
879.819	2.84
879.985	1.74
880.151	3.4
880.317	3.09
880.483	3
880.648	3.82
880.814	-0.14
880.98	3.38
881.146	0.27
881.312	0.83
881.477	1.83
881.643	1.27
881.809	3.68
881.974	4.67
882.14	-0.16
882.306	1.03
882.471	5.68
882.637	2.55
882.803	4.07
882.968	5.54
883.134	5.94
883.299	2.35
883.465	2.74
883.63	2.71
883.796	3.01
883.961	4.32
884.127	3.75
884.292	-2.4
884.458	0.54
884.623	0.54
