Data from Apollo_Calib_20240827__AbsoluteIrradiance__860__13-29-02-003.txt Node

Date: Wed Aug 28 13:29:02 BST 2024
User: biology
Spectrometer: FLMT08252
Trigger mode: 0
Integration Time (sec): 5.000000E-1
Scans to average: 5
Electric dark correction enabled: true
Nonlinearity correction enabled: false
Boxcar width: 0
XAxis mode: Wavelengths
Number of Pixels in Spectrum: 3648
>>>>>Begin Spectral Data<<<<<
179.588	-0
179.809	-0
180.03	-0
180.251	-0
180.473	-0
180.694	0
180.915	0
181.136	-0
181.357	0
181.578	-0
181.799	0
182.02	-0
182.241	0
182.462	-0
182.683	0
182.904	-0
183.125	-0
183.346	0
183.567	0
183.788	0
184.009	0
184.23	0
184.451	0
184.672	0
184.892	0
185.113	0
185.334	0
185.555	0
185.776	0
185.996	0
186.217	0
186.438	0
186.659	0
186.879	0
187.1	0
187.321	0
187.541	0
187.762	0
187.983	0
188.203	0
188.424	0
188.644	0
188.865	0
189.086	0
189.306	0
189.527	0
189.747	0
189.968	0
190.188	0
190.409	0
190.629	0
190.849	0
191.07	0
191.29	0
191.511	0
191.731	0
191.951	0
192.172	0
192.392	0
192.612	0
192.833	0
193.053	0
193.273	0
193.493	0
193.714	0
193.934	0
194.154	0
194.374	0
194.594	0
194.815	0
195.035	0
195.255	0
195.475	0
195.695	0
195.915	0
196.135	0
196.355	0
196.575	0
196.795	0
197.015	0
197.235	0
197.455	0
197.675	0
197.895	0
198.115	0
198.335	0
198.555	0
198.775	0
198.995	0
199.214	0
199.434	0
199.654	0
199.874	0
200.094	3.87
200.313	2.09
200.533	1.53
200.753	0.9
200.973	3.38
201.192	2.72
201.412	1.18
201.632	1.74
201.851	3.51
202.071	1.51
202.291	1.4
202.51	1.44
202.73	2.71
202.95	1.61
203.169	0.67
203.389	1.61
203.608	2.45
203.828	1.77
204.047	1.7
204.267	1.84
204.486	2.59
204.706	1.93
204.925	1.51
205.145	1.37
205.364	2.66
205.583	2.65
205.803	1.32
206.022	0.78
206.242	1.84
206.461	1.95
206.68	1.35
206.9	1.7
207.119	2.42
207.338	2.55
207.557	0.99
207.777	1.33
207.996	1.37
208.215	2.12
208.434	0.98
208.654	0.83
208.873	1.29
209.092	2.14
209.311	0.99
209.53	1.1
209.749	1.35
209.968	0.94
210.187	1.09
210.407	0.59
210.626	0.91
210.845	1.59
211.064	1.11
211.283	0.69
211.502	1.44
211.721	1.23
211.94	0.93
212.159	1.2
212.377	1.39
212.596	1.42
212.815	1.22
213.034	1.06
213.253	1.56
213.472	1.58
213.691	0.85
213.91	0.62
214.128	0.56
214.347	1.37
214.566	0.6
214.785	0.37
215.003	1.17
215.222	1.22
215.441	0.95
215.66	0.45
215.878	1.04
216.097	1.18
216.316	0.66
216.534	0.84
216.753	1.11
216.972	0.77
217.19	0.88
217.409	0.75
217.627	0.76
217.846	0.9
218.064	0.91
218.283	0.6
218.501	1.48
218.72	1.15
218.938	0.57
219.157	0.67
219.375	1.22
219.594	0.98
219.812	0.56
220.031	0.52
220.249	1.26
220.467	1.16
220.686	0.52
220.904	0.49
221.122	0.65
221.341	1.15
221.559	0.84
221.777	0.45
221.995	0.66
222.214	1
222.432	0.6
222.65	0.89
222.868	0.89
223.086	0.93
223.305	0.94
223.523	0.64
223.741	1.25
223.959	0.64
224.177	0.29
224.395	0.55
224.613	0.72
224.831	0.98
225.049	0.48
225.267	0.43
225.485	0.82
225.703	0.65
225.921	0.59
226.139	0.52
226.357	1
226.575	0.82
226.793	0.42
227.011	1.7
227.229	0.74
227.447	0.85
227.665	0.48
227.883	0.28
228.1	0.71
228.318	0.74
228.536	0.27
228.754	0.35
228.972	0.79
229.189	0.81
229.407	0.52
229.625	0.48
229.843	0.82
230.06	0.74
230.278	0.45
230.496	0.57
230.713	0.61
230.931	0.76
231.149	0.54
231.366	0.28
231.584	0.41
231.801	1.04
232.019	0.49
232.236	0.27
232.454	0.41
232.671	0.64
232.889	0.45
233.106	0.46
233.324	0.7
233.541	0.48
233.759	0.41
233.976	0.3
234.194	0.61
234.411	0.56
234.628	0.35
234.846	0.42
235.063	0.56
235.28	0.58
235.498	0.45
235.715	0.47
235.932	0.72
236.149	0.56
236.367	0.34
236.584	0.52
236.801	0.37
237.018	0.67
237.236	0.41
237.453	0.26
237.67	0.64
237.887	0.43
238.104	0.39
238.321	0.25
238.538	0.4
238.755	0.73
238.973	0.39
239.19	0.47
239.407	0.6
239.624	0.54
239.841	0.32
240.058	0.38
240.275	0.58
240.492	0.46
240.709	0.42
240.925	0.37
241.142	0.56
241.359	0.27
241.576	0.33
241.793	0.34
242.01	0.45
242.227	0.55
242.444	0.56
242.66	0.58
242.877	0.48
243.094	0.42
243.311	0.36
243.527	0.36
243.744	0.51
243.961	0.5
244.178	0.37
244.394	0.38
244.611	0.62
244.828	0.83
245.044	0.37
245.261	0.33
245.477	0.59
245.694	0.68
245.911	0.4
246.127	0.45
246.344	0.69
246.56	0.57
246.777	0.32
246.993	0.45
247.21	0.49
247.426	0.6
247.643	0.36
247.859	0.31
248.076	0.34
248.292	0.66
248.508	0.33
248.725	0.49
248.941	0.49
249.157	0.54
249.374	0.25
249.59	0.38
249.806	0.47
250.023	0.57
250.239	0.34
250.455	0.27
250.671	0.43
250.888	0.38
251.104	0.48
251.32	0.31
251.536	0.39
251.752	0.38
251.969	0.41
252.185	0.39
252.401	0.58
252.617	0.45
252.833	0.37
253.049	0.35
253.265	0.41
253.481	0.4
253.697	0.44
253.913	0.34
254.129	0.44
254.345	0.48
254.561	0.35
254.777	0.39
254.993	0.56
255.209	0.47
255.425	0.36
255.641	0.38
255.857	0.51
256.073	0.47
256.288	0.2
256.504	0.32
256.72	0.44
256.936	0.62
257.152	0.36
257.367	0.35
257.583	0.38
257.799	0.43
258.015	0.31
258.23	0.3
258.446	0.58
258.662	0.43
258.877	0.28
259.093	0.21
259.309	0.38
259.524	0.46
259.74	0.3
259.955	0.28
260.171	0.37
260.387	0.39
260.602	0.36
260.818	0.38
261.033	0.29
261.249	0.37
261.464	0.31
261.68	0.22
261.895	0.41
262.11	0.47
262.326	0.28
262.541	0.25
262.757	0.47
262.972	0.43
263.187	0.41
263.403	0.37
263.618	0.46
263.833	0.38
264.049	0.28
264.264	0.39
264.479	0.38
264.694	0.52
264.91	0.21
265.125	0.33
265.34	0.44
265.555	0.54
265.77	0.42
265.986	0.35
266.201	0.37
266.416	0.5
266.631	0.26
266.846	0.31
267.061	0.44
267.276	0.43
267.491	0.15
267.706	0.38
267.921	0.36
268.136	0.38
268.351	0.35
268.566	0.19
268.781	0.49
268.996	0.44
269.211	0.33
269.426	0.22
269.641	0.38
269.856	0.44
270.071	0.2
270.285	0.23
270.5	0.45
270.715	0.4
270.93	0.3
271.145	0.34
271.359	0.43
271.574	0.32
271.789	0.32
272.004	0.3
272.218	0.35
272.433	0.38
272.648	0.3
272.862	0.37
273.077	0.36
273.292	0.31
273.506	0.24
273.721	0.25
273.936	0.37
274.15	0.53
274.365	0.22
274.579	0.37
274.794	0.41
275.008	0.39
275.223	0.22
275.437	0.36
275.652	0.39
275.866	0.42
276.081	0.32
276.295	0.37
276.509	0.34
276.724	0.37
276.938	0.38
277.153	0.35
277.367	0.41
277.581	0.27
277.796	0.25
278.01	0.28
278.224	0.41
278.438	0.5
278.653	0.22
278.867	0.27
279.081	0.45
279.295	0.28
279.51	0.33
279.724	0.19
279.938	0.34
280.152	0.38
280.366	0.25
280.58	0.31
280.794	0.45
281.008	0.38
281.222	0.31
281.437	0.5
281.651	0.33
281.865	0.36
282.079	0.26
282.293	0.17
282.507	0.22
282.721	0.26
282.935	0.32
283.148	0.18
283.362	0.29
283.576	0.23
283.79	0.21
284.004	0.21
284.218	0.38
284.432	0.25
284.646	0.27
284.859	0.25
285.073	0.24
285.287	0.28
285.501	0.33
285.714	0.29
285.928	0.3
286.142	0.34
286.356	0.25
286.569	0.27
286.783	0.46
286.997	0.35
287.21	0.27
287.424	0.29
287.637	0.32
287.851	0.27
288.065	0.31
288.278	0.27
288.492	0.31
288.705	0.27
288.919	0.33
289.132	0.25
289.346	0.32
289.559	0.25
289.773	0.19
289.986	0.32
290.2	0.28
290.413	0.35
290.626	0.27
290.84	0.28
291.053	0.27
291.267	0.37
291.48	0.28
291.693	0.26
291.906	0.25
292.12	0.26
292.333	0.21
292.546	0.23
292.76	0.41
292.973	0.34
293.186	0.34
293.399	0.2
293.612	0.34
293.826	0.26
294.039	0.26
294.252	0.23
294.465	0.34
294.678	0.29
294.891	0.28
295.104	0.21
295.317	0.27
295.53	0.27
295.743	0.24
295.956	0.23
296.169	0.4
296.382	0.29
296.595	0.26
296.808	0.23
297.021	0.38
297.234	0.32
297.447	0.25
297.66	0.29
297.873	0.39
298.086	0.34
298.299	0.24
298.511	0.15
298.724	0.28
298.937	0.24
299.15	0.2
299.363	0.25
299.575	0.32
299.788	0.29
300.001	0.25
300.213	0.21
300.426	0.22
300.639	0.26
300.852	0.22
301.064	0.35
301.277	0.4
301.489	0.32
301.702	0.26
301.915	0.27
302.127	0.24
302.34	0.27
302.552	0.3
302.765	0.18
302.977	0.35
303.19	0.21
303.402	0.25
303.615	0.26
303.827	0.24
304.04	0.27
304.252	0.29
304.464	0.21
304.677	0.43
304.889	0.3
305.102	0.2
305.314	0.18
305.526	0.29
305.739	0.31
305.951	0.22
306.163	0.23
306.375	0.34
306.588	0.26
306.8	0.21
307.012	0.17
307.224	0.3
307.436	0.38
307.649	0.19
307.861	0.19
308.073	0.29
308.285	0.27
308.497	0.18
308.709	0.16
308.921	0.28
309.133	0.31
309.346	0.24
309.558	0.26
309.77	0.3
309.982	0.35
310.194	0.32
310.406	0.21
310.617	0.33
310.829	0.3
311.041	0.31
311.253	0.21
311.465	0.27
311.677	0.25
311.889	0.23
312.101	0.2
312.313	0.32
312.524	0.37
312.736	0.21
312.948	0.23
313.16	0.36
313.372	0.31
313.583	0.23
313.795	0.22
314.007	0.26
314.218	0.29
314.43	0.22
314.642	0.23
314.853	0.18
315.065	0.28
315.277	0.21
315.488	0.26
315.7	0.28
315.912	0.33
316.123	0.26
316.335	0.25
316.546	0.41
316.758	0.25
316.969	0.24
317.181	0.29
317.392	0.31
317.604	0.39
317.815	0.15
318.026	0.24
318.238	0.21
318.449	0.3
318.661	0.15
318.872	0.16
319.083	0.25
319.295	0.29
319.506	0.2
319.717	0.21
319.929	0.31
320.14	0.26
320.351	0.28
320.562	0.22
320.774	0.28
320.985	0.21
321.196	0.25
321.407	0.18
321.618	0.31
321.829	0.32
322.041	0.29
322.252	0.23
322.463	0.3
322.674	0.32
322.885	0.21
323.096	0.24
323.307	0.25
323.518	0.26
323.729	0.2
323.94	0.22
324.151	0.24
324.362	0.35
324.573	0.26
324.784	0.28
324.995	0.31
325.206	0.28
325.417	0.24
325.628	0.21
325.838	0.24
326.049	0.33
326.26	0.29
326.471	0.23
326.682	0.29
326.892	0.22
327.103	0.17
327.314	0.22
327.525	0.34
327.735	0.26
327.946	0.24
328.157	0.2
328.368	0.33
328.578	0.23
328.789	0.3
328.999	0.25
329.21	0.23
329.421	0.39
329.631	0.23
329.842	0.18
330.052	0.28
330.263	0.22
330.473	0.27
330.684	0.24
330.894	0.28
331.105	0.26
331.315	0.24
331.526	0.18
331.736	0.4
331.947	0.27
332.157	0.3
332.367	0.17
332.578	0.25
332.788	0.35
332.999	0.28
333.209	0.19
333.419	0.18
333.629	0.3
333.84	0.22
334.05	0.25
334.26	0.3
334.47	0.26
334.681	0.3
334.891	0.23
335.101	0.3
335.311	0.38
335.521	0.24
335.732	0.18
335.942	0.31
336.152	0.31
336.362	0.22
336.572	0.27
336.782	0.33
336.992	0.21
337.202	0.23
337.412	0.18
337.622	0.28
337.832	0.24
338.042	0.22
338.252	0.21
338.462	0.19
338.672	0.23
338.882	0.2
339.092	0.25
339.302	0.34
339.511	0.29
339.721	0.26
339.931	0.19
340.141	0.29
340.351	0.34
340.561	0.27
340.77	0.27
340.98	0.22
341.19	0.26
341.4	0.23
341.609	0.17
341.819	0.26
342.029	0.19
342.238	0.29
342.448	0.26
342.658	0.27
342.867	0.21
343.077	0.27
343.286	0.22
343.496	0.26
343.706	0.32
343.915	0.17
344.125	0.21
344.334	0.27
344.544	0.16
344.753	0.2
344.963	0.21
345.172	0.2
345.381	0.2
345.591	0.23
345.8	0.23
346.01	0.28
346.219	0.27
346.428	0.12
346.638	0.25
346.847	0.29
347.056	0.36
347.266	0.2
347.475	0.23
347.684	0.3
347.893	0.29
348.103	0.29
348.312	0.2
348.521	0.27
348.73	0.32
348.94	0.25
349.149	0.21
349.358	0.24
349.567	0.23
349.776	0.15
349.985	0.2
350.194	0.28
350.403	0.33
350.612	0.16
350.821	0.2
351.03	0.23
351.239	0.17
351.448	0.24
351.657	0.2
351.866	0.31
352.075	0.27
352.284	0.3
352.493	0.19
352.702	0.38
352.911	0.23
353.12	0.24
353.329	0.24
353.538	0.24
353.746	0.25
353.955	0.22
354.164	0.23
354.373	0.22
354.582	0.3
354.79	0.24
354.999	0.27
355.208	0.25
355.416	0.29
355.625	0.21
355.834	0.26
356.042	0.26
356.251	0.22
356.46	0.16
356.668	0.25
356.877	0.39
357.085	0.32
357.294	0.14
357.503	0.24
357.711	0.24
357.92	0.45
358.128	0.23
358.337	0.21
358.545	0.26
358.754	0.19
358.962	0.29
359.17	0.23
359.379	0.27
359.587	0.29
359.796	0.23
360.004	0.29
360.212	0.34
360.421	0.3
360.629	0.25
360.837	0.23
361.046	0.29
361.254	0.41
361.462	0.26
361.67	0.18
361.879	0.23
362.087	0.32
362.295	0.22
362.503	0.24
362.711	0.17
362.92	0.25
363.128	0.21
363.336	0.18
363.544	0.23
363.752	0.26
363.96	0.28
364.168	0.23
364.376	0.27
364.584	0.26
364.792	0.32
365	0.31
365.208	0.24
365.416	0.26
365.624	0.31
365.832	0.27
366.04	0.31
366.248	0.25
366.456	0.24
366.664	0.25
366.872	0.26
367.079	0.21
367.287	0.24
367.495	0.25
367.703	0.27
367.911	0.24
368.118	0.2
368.326	0.22
368.534	0.21
368.742	0.32
368.949	0.22
369.157	0.2
369.365	0.27
369.572	0.19
369.78	0.2
369.988	0.24
370.195	0.27
370.403	0.32
370.61	0.24
370.818	0.24
371.026	0.34
371.233	0.23
371.441	0.25
371.648	0.19
371.856	0.3
372.063	0.26
372.271	0.22
372.478	0.25
372.685	0.19
372.893	0.29
373.1	0.19
373.308	0.25
373.515	0.38
373.722	0.33
373.93	0.27
374.137	0.27
374.344	0.33
374.552	0.31
374.759	0.31
374.966	0.23
375.173	0.27
375.381	0.31
375.588	0.26
375.795	0.16
376.002	0.26
376.209	0.23
376.417	0.24
376.624	0.31
376.831	0.29
377.038	0.22
377.245	0.16
377.452	0.22
377.659	0.24
377.866	0.27
378.073	0.25
378.28	0.21
378.487	0.34
378.694	0.33
378.901	0.22
379.108	0.25
379.315	0.28
379.522	0.38
379.729	0.26
379.936	0.22
380.143	0.3
380.35	0.27
380.557	0.23
380.763	0.26
380.97	0.29
381.177	0.26
381.384	0.28
381.591	0.25
381.797	0.3
382.004	0.31
382.211	0.24
382.418	0.24
382.624	0.35
382.831	0.37
383.038	0.23
383.244	0.28
383.451	0.29
383.658	0.32
383.864	0.25
384.071	0.24
384.277	0.34
384.484	0.28
384.69	0.29
384.897	0.22
385.103	0.26
385.31	0.25
385.516	0.28
385.723	0.23
385.929	0.26
386.136	0.28
386.342	0.3
386.549	0.25
386.755	0.34
386.961	0.29
387.168	0.23
387.374	0.28
387.58	0.3
387.787	0.3
387.993	0.27
388.199	0.27
388.406	0.23
388.612	0.29
388.818	0.26
389.024	0.25
389.231	0.27
389.437	0.44
389.643	0.32
389.849	0.26
390.055	0.3
390.261	0.31
390.467	0.33
390.674	0.22
390.88	0.28
391.086	0.35
391.292	0.24
391.498	0.34
391.704	0.31
391.91	0.26
392.116	0.25
392.322	0.14
392.528	0.37
392.734	0.27
392.94	0.31
393.146	0.32
393.352	0.29
393.557	0.28
393.763	0.28
393.969	0.37
394.175	0.33
394.381	0.32
394.587	0.24
394.792	0.28
394.998	0.37
395.204	0.39
395.41	0.3
395.615	0.33
395.821	0.38
396.027	0.36
396.233	0.31
396.438	0.36
396.644	0.38
396.85	0.35
397.055	0.31
397.261	0.34
397.466	0.41
397.672	0.38
397.878	0.4
398.083	0.34
398.289	0.28
398.494	0.37
398.7	0.38
398.905	0.2
399.111	0.43
399.316	0.3
399.522	0.35
399.727	0.31
399.932	0.32
400.138	0.32
400.343	0.33
400.549	0.34
400.754	0.33
400.959	0.41
401.165	0.35
401.37	0.36
401.575	0.49
401.78	0.39
401.986	0.37
402.191	0.35
402.396	0.37
402.601	0.42
402.807	0.39
403.012	0.35
403.217	0.43
403.422	0.43
403.627	0.42
403.832	0.41
404.037	0.49
404.243	0.5
404.448	0.34
404.653	0.47
404.858	0.49
405.063	0.46
405.268	0.36
405.473	0.39
405.678	0.44
405.883	0.67
406.088	0.51
406.293	0.42
406.498	0.45
406.703	0.54
406.907	0.47
407.112	0.45
407.317	0.49
407.522	0.6
407.727	0.42
407.932	0.53
408.136	0.67
408.341	0.53
408.546	0.53
408.751	0.53
408.956	0.58
409.16	0.69
409.365	0.62
409.57	0.59
409.774	0.62
409.979	0.68
410.184	0.61
410.388	0.59
410.593	0.71
410.798	0.73
411.002	0.68
411.207	0.79
411.411	0.82
411.616	0.7
411.82	0.8
412.025	0.86
412.229	0.82
412.434	1.01
412.638	0.89
412.843	0.87
413.047	1
413.252	0.85
413.456	0.97
413.66	1.07
413.865	1.02
414.069	1.19
414.273	1.09
414.478	1.14
414.682	1.17
414.886	1.24
415.091	1.18
415.295	1.25
415.499	1.37
415.703	1.35
415.908	1.47
416.112	1.36
416.316	1.57
416.52	1.61
416.724	1.55
416.929	1.59
417.133	1.81
417.337	1.64
417.541	1.74
417.745	1.82
417.949	1.97
418.153	1.97
418.357	2
418.561	2.24
418.765	2.18
418.969	2.41
419.173	2.38
419.377	2.37
419.581	2.6
419.785	2.62
419.989	2.6
420.193	2.76
420.397	2.9
420.601	2.99
420.804	3.13
421.008	3
421.212	3.19
421.416	3.24
421.62	3.32
421.823	3.29
422.027	3.48
422.231	3.47
422.435	3.49
422.638	3.47
422.842	3.68
423.046	3.74
423.249	3.92
423.453	3.88
423.657	4.08
423.86	4.15
424.064	4.31
424.268	4.51
424.471	4.47
424.675	4.68
424.878	4.75
425.082	4.79
425.285	5.16
425.489	4.99
425.692	5.27
425.896	5.2
426.099	5.38
426.303	5.49
426.506	5.62
426.71	5.89
426.913	6.06
427.116	6.37
427.32	6.29
427.523	6.33
427.726	6.58
427.93	6.78
428.133	7.03
428.336	7.21
428.54	7.35
428.743	7.63
428.946	7.89
429.149	7.77
429.353	7.77
429.556	7.87
429.759	7.97
429.962	8.03
430.165	8.31
430.368	7.99
430.571	7.99
430.775	8.08
430.978	8.01
431.181	7.99
431.384	8.15
431.587	8.26
431.79	8.64
431.993	8.63
432.196	8.9
432.399	9.23
432.602	9.49
432.805	9.44
433.008	9.99
433.211	9.91
433.414	10.32
433.616	10.28
433.819	10.19
434.022	10.44
434.225	10.57
434.428	10.55
434.631	11
434.833	10.77
435.036	11.15
435.239	11.31
435.442	11.36
435.645	11.46
435.847	11.54
436.05	11.87
436.253	12.11
436.455	12.01
436.658	12.01
436.861	12.25
437.063	12.45
437.266	12.34
437.468	12.65
437.671	13.08
437.874	13.18
438.076	12.87
438.279	13.43
438.481	13.44
438.684	14.28
438.886	13.77
439.089	14.07
439.291	14.05
439.494	14.5
439.696	14.61
439.899	15.15
440.101	15.76
440.303	15.66
440.506	16.53
440.708	16.09
440.91	16.34
441.113	16.55
441.315	16.87
441.517	16.74
441.72	17.22
441.922	16.73
442.124	16.65
442.326	17.16
442.529	17.46
442.731	17.29
442.933	17.66
443.135	17.38
443.337	17.38
443.539	17.95
443.742	17.64
443.944	18.26
444.146	18.06
444.348	18.15
444.55	17.89
444.752	18.13
444.954	18.05
445.156	18.05
445.358	18.33
445.56	18.68
445.762	18.48
445.964	18.88
446.166	18.57
446.368	18.46
446.57	18.58
446.772	18.18
446.974	17.93
447.175	18.25
447.377	17.82
447.579	18.32
447.781	18.15
447.983	17.67
448.184	17.35
448.386	17.78
448.588	17.19
448.79	17.29
448.991	17.4
449.193	17.43
449.395	16.82
449.597	16.42
449.798	16.29
450	15.9
450.202	15.78
450.403	15.82
450.605	15.76
450.806	15.3
451.008	15.12
451.21	15
451.411	14.55
451.613	13.76
451.814	14.05
452.016	14.06
452.217	13.28
452.419	13.39
452.62	12.96
452.821	12.73
453.023	12.59
453.224	12.26
453.426	11.85
453.627	11.14
453.828	11.23
454.03	11.34
454.231	11.29
454.432	11.07
454.634	10.96
454.835	10.54
455.036	10.43
455.238	10.05
455.439	9.87
455.64	9.53
455.841	9.55
456.042	9.59
456.244	9.28
456.445	8.99
456.646	8.61
456.847	8.56
457.048	8.51
457.249	8.57
457.45	8.28
457.651	7.74
457.852	7.65
458.054	7.37
458.255	7.23
458.456	7.38
458.657	7.18
458.858	6.72
459.058	6.7
459.259	6.75
459.46	6.52
459.661	6.5
459.862	6.51
460.063	6.41
460.264	6.29
460.465	6.03
460.666	6.12
460.866	5.82
461.067	5.49
461.268	5.62
461.469	5.51
461.67	5.39
461.87	5.23
462.071	5.19
462.272	5.1
462.473	5.18
462.673	5.38
462.874	5.2
463.075	5.09
463.275	5.11
463.476	5.18
463.676	5.11
463.877	4.9
464.078	4.98
464.278	4.99
464.479	4.91
464.679	4.75
464.88	4.7
465.08	4.69
465.281	4.49
465.481	4.36
465.682	4.15
465.882	4.32
466.083	4.07
466.283	4.06
466.483	3.98
466.684	3.71
466.884	3.62
467.085	3.65
467.285	3.79
467.485	3.6
467.686	3.61
467.886	3.42
468.086	3.38
468.286	3.48
468.487	3.48
468.687	3.27
468.887	3.23
469.087	3.37
469.287	3.23
469.488	3.04
469.688	3.22
469.888	3.16
470.088	3.16
470.288	3.08
470.488	3.09
470.688	2.89
470.888	2.88
471.088	2.72
471.288	2.78
471.488	2.82
471.688	2.8
471.888	2.72
472.088	2.86
472.288	2.72
472.488	2.61
472.688	2.55
472.888	2.65
473.088	2.56
473.288	2.54
473.488	2.47
473.688	2.6
473.887	2.48
474.087	2.4
474.287	2.42
474.487	2.41
474.687	2.44
474.886	2.3
475.086	2.3
475.286	2.31
475.486	2.31
475.685	2.26
475.885	2.21
476.085	2.28
476.284	2.28
476.484	2.22
476.684	2.27
476.883	2.32
477.083	2.2
477.282	2.12
477.482	2.22
477.681	2.18
477.881	2.1
478.08	2.09
478.28	2.04
478.479	2.12
478.679	2.2
478.878	2
479.078	2.05
479.277	2.1
479.477	2.09
479.676	2.03
479.875	2.07
480.075	1.98
480.274	2.05
480.473	2.05
480.673	1.99
480.872	2.1
481.071	2.03
481.271	2.01
481.47	2.01
481.669	2.02
481.868	1.99
482.067	1.97
482.267	1.92
482.466	1.95
482.665	1.95
482.864	2.02
483.063	1.93
483.262	2.04
483.461	2.06
483.661	2.06
483.86	1.99
484.059	2.09
484.258	2.02
484.457	2.01
484.656	2.04
484.855	2.09
485.054	1.94
485.253	1.96
485.452	1.97
485.651	2.1
485.849	2.04
486.048	2.05
486.247	2.04
486.446	2.08
486.645	2.04
486.844	2.09
487.043	2.07
487.241	2.1
487.44	2.1
487.639	2.12
487.838	2.16
488.037	2.13
488.235	2.26
488.434	2.2
488.633	2.04
488.831	2.22
489.03	2.2
489.229	2.26
489.427	2.2
489.626	2.29
489.825	2.24
490.023	2.29
490.222	2.25
490.42	2.29
490.619	2.37
490.817	2.37
491.016	2.37
491.214	2.45
491.413	2.39
491.611	2.34
491.81	2.42
492.008	2.45
492.207	2.52
492.405	2.54
492.604	2.47
492.802	2.55
493	2.58
493.199	2.65
493.397	2.68
493.595	2.69
493.794	2.66
493.992	2.78
494.19	2.71
494.388	2.85
494.587	2.76
494.785	2.83
494.983	2.72
495.181	2.87
495.379	2.88
495.578	2.92
495.776	2.96
495.974	2.9
496.172	2.94
496.37	3.09
496.568	3.12
496.766	3.08
496.964	3.17
497.162	3.2
497.36	3.21
497.558	3.28
497.756	3.29
497.954	3.29
498.152	3.33
498.35	3.47
498.548	3.36
498.746	3.39
498.944	3.46
499.142	3.48
499.34	3.57
499.538	3.69
499.736	3.55
499.933	3.64
500.131	3.65
500.329	3.75
500.527	3.75
500.725	3.9
500.922	3.88
501.12	3.84
501.318	3.93
501.516	3.95
501.713	4
501.911	4
502.109	3.96
502.306	4.1
502.504	4.02
502.701	4.11
502.899	4.22
503.097	4.36
503.294	4.22
503.492	4.36
503.689	4.38
503.887	4.36
504.084	4.45
504.282	4.42
504.479	4.4
504.677	4.56
504.874	4.55
505.072	4.45
505.269	4.62
505.466	4.7
505.664	4.72
505.861	4.65
506.059	4.77
506.256	4.82
506.453	4.88
506.651	4.96
506.848	4.98
507.045	5.02
507.242	4.99
507.44	5.08
507.637	5.09
507.834	5.08
508.031	5.25
508.229	5.19
508.426	5.08
508.623	5.28
508.82	5.3
509.017	5.25
509.214	5.25
509.411	5.38
509.608	5.35
509.805	5.52
510.003	5.47
510.2	5.53
510.397	5.7
510.594	5.51
510.791	5.62
510.988	5.7
511.184	5.62
511.381	5.54
511.578	5.66
511.775	5.83
511.972	5.73
512.169	5.8
512.366	5.83
512.563	5.93
512.76	5.93
512.956	6.03
513.153	5.94
513.35	5.91
513.547	5.93
513.744	5.99
513.94	6
514.137	6.15
514.334	6.12
514.53	6.17
514.727	6.38
514.924	6.31
515.12	6.21
515.317	6.25
515.514	6.16
515.71	6.26
515.907	6.46
516.103	6.41
516.3	6.35
516.497	6.51
516.693	6.48
516.89	6.5
517.086	6.54
517.283	6.55
517.479	6.4
517.676	6.62
517.872	6.62
518.068	6.7
518.265	6.63
518.461	6.53
518.658	6.66
518.854	6.68
519.05	6.77
519.247	6.81
519.443	6.8
519.639	6.92
519.836	6.82
520.032	6.73
520.228	6.93
520.424	6.87
520.621	6.96
520.817	6.98
521.013	6.88
521.209	7.1
521.405	7.1
521.601	7.03
521.798	6.96
521.994	7.04
522.19	6.95
522.386	6.98
522.582	7.12
522.778	7.26
522.974	7.13
523.17	7.16
523.366	7.12
523.562	7.19
523.758	7.14
523.954	7.05
524.15	7.23
524.346	7.24
524.542	7.27
524.738	7.26
524.934	7.41
525.129	7.32
525.325	7.25
525.521	7.32
525.717	7.47
525.913	7.31
526.109	7.34
526.304	7.42
526.5	7.41
526.696	7.47
526.892	7.36
527.087	7.64
527.283	7.56
527.479	7.47
527.674	7.28
527.87	7.55
528.066	7.53
528.261	7.54
528.457	7.46
528.653	7.63
528.848	7.62
529.044	7.66
529.239	7.51
529.435	7.57
529.63	7.49
529.826	7.54
530.021	7.58
530.217	7.66
530.412	7.59
530.608	7.6
530.803	7.61
530.999	7.5
531.194	7.6
531.389	7.71
531.585	7.68
531.78	7.79
531.975	7.7
532.171	7.79
532.366	7.76
532.561	7.76
532.757	7.7
532.952	7.85
533.147	7.63
533.342	7.78
533.538	7.7
533.733	7.92
533.928	7.57
534.123	7.84
534.318	7.83
534.513	7.73
534.709	7.93
534.904	7.83
535.099	7.94
535.294	7.87
535.489	7.94
535.684	7.83
535.879	7.85
536.074	7.92
536.269	7.87
536.464	7.94
536.659	7.89
536.854	7.93
537.049	7.95
537.244	7.91
537.439	7.95
537.634	7.99
537.828	8
538.023	7.92
538.218	7.91
538.413	7.84
538.608	7.96
538.803	7.94
538.997	7.9
539.192	7.98
539.387	7.99
539.582	7.92
539.776	7.85
539.971	8.04
540.166	8.02
540.36	7.92
540.555	8.06
540.75	7.93
540.944	8
541.139	7.97
541.334	7.96
541.528	8.03
541.723	8.09
541.917	8.08
542.112	7.95
542.306	7.88
542.501	7.96
542.695	7.97
542.89	7.99
543.084	8.01
543.279	8.06
543.473	8.12
543.668	8.12
543.862	7.89
544.056	7.93
544.251	8.06
544.445	8.05
544.64	8.12
544.834	7.84
545.028	7.69
545.222	8.04
545.417	8.21
545.611	8.12
545.805	8.06
546	7.86
546.194	8.09
546.388	8.1
546.582	8.01
546.776	8.09
546.97	8.07
547.165	8.07
547.359	8.05
547.553	7.98
547.747	8.09
547.941	8.25
548.135	8.08
548.329	8.09
548.523	8.15
548.717	8.01
548.911	8.04
549.105	8.11
549.299	8.11
549.493	8.06
549.687	8.02
549.881	8.15
550.075	8.08
550.269	7.98
550.463	8.15
550.657	8.13
550.85	8.12
551.044	8.07
551.238	8.14
551.432	8.14
551.626	8.17
551.82	8.1
552.013	7.99
552.207	8.19
552.401	8.16
552.594	8.07
552.788	7.98
552.982	8.04
553.176	8.06
553.369	8.27
553.563	8.16
553.756	8.15
553.95	8.1
554.144	8.19
554.337	8.13
554.531	7.99
554.724	8.13
554.918	8.2
555.111	8.07
555.305	8.14
555.498	8.03
555.692	8.19
555.885	8.21
556.079	8.06
556.272	8.1
556.466	8.15
556.659	8.11
556.852	8.17
557.046	8.03
557.239	7.98
557.432	8.02
557.626	8.15
557.819	8.22
558.012	8.16
558.206	8.21
558.399	8.14
558.592	8.09
558.785	8.07
558.979	8.09
559.172	8.09
559.365	8.16
559.558	8.08
559.751	8.07
559.944	8.23
560.138	8.08
560.331	8.21
560.524	8.19
560.717	8.14
560.91	8.1
561.103	8.13
561.296	8
561.489	8.14
561.682	8.18
561.875	8.13
562.068	8.22
562.261	8.01
562.454	8.25
562.647	8.09
562.84	8.14
563.032	8.13
563.225	8
563.418	8.09
563.611	8.16
563.804	8.14
563.997	7.97
564.19	7.84
564.382	8.17
564.575	8.06
564.768	8.06
564.961	8.14
565.153	8.06
565.346	7.97
565.539	8.16
565.731	8.07
565.924	8.21
566.117	8.22
566.309	8.11
566.502	8.1
566.695	7.95
566.887	8.16
567.08	8.07
567.272	8.13
567.465	8.04
567.657	8.22
567.85	7.99
568.042	8.19
568.235	8.12
568.427	7.9
568.62	8.03
568.812	8.07
569.005	8.13
569.197	7.95
569.389	8.14
569.582	8.07
569.774	8.04
569.966	7.98
570.159	7.9
570.351	7.94
570.543	8.02
570.736	8.01
570.928	7.88
571.12	8.03
571.312	7.99
571.505	7.84
571.697	8.05
571.889	8.02
572.081	8.01
572.273	7.9
572.465	8.01
572.658	8.01
572.85	8.05
573.042	8.02
573.234	7.91
573.426	8.01
573.618	7.99
573.81	8.06
574.002	7.96
574.194	8.02
574.386	7.89
574.578	7.81
574.77	7.91
574.962	7.93
575.154	7.87
575.346	7.8
575.538	7.83
575.729	7.87
575.921	7.92
576.113	8.01
576.305	7.96
576.497	8.03
576.689	7.74
576.88	7.78
577.072	7.95
577.264	7.88
577.456	7.87
577.647	7.84
577.839	7.96
578.031	7.82
578.223	7.75
578.414	7.71
578.606	7.8
578.798	7.88
578.989	7.82
579.181	7.93
579.372	7.86
579.564	7.84
579.755	7.78
579.947	7.7
580.139	7.85
580.33	7.69
580.522	7.77
580.713	7.71
580.905	7.77
581.096	7.84
581.287	7.69
581.479	7.71
581.67	7.82
581.862	7.72
582.053	7.7
582.244	7.56
582.436	7.8
582.627	7.63
582.818	7.64
583.01	7.66
583.201	7.71
583.392	7.64
583.583	7.64
583.775	7.46
583.966	7.56
584.157	7.63
584.348	7.7
584.54	7.53
584.731	7.62
584.922	7.58
585.113	7.46
585.304	7.65
585.495	7.6
585.686	7.62
585.877	7.66
586.068	7.66
586.259	7.56
586.45	7.52
586.641	7.52
586.832	7.6
587.023	7.52
587.214	7.49
587.405	7.52
587.596	7.43
587.787	7.36
587.978	7.47
588.169	7.44
588.36	7.33
588.551	7.41
588.742	7.46
588.932	7.55
589.123	7.26
589.314	7.52
589.505	7.32
589.696	7.4
589.886	7.32
590.077	7.34
590.268	7.29
590.458	7.23
590.649	7.16
590.84	7.36
591.03	7.27
591.221	7.28
591.412	7.17
591.602	7.35
591.793	7.22
591.984	7.3
592.174	7.2
592.365	7.33
592.555	7.1
592.746	7.12
592.936	7.15
593.127	7.17
593.317	7.25
593.508	7.15
593.698	7.05
593.889	7.09
594.079	7.12
594.269	7.03
594.46	7.05
594.65	7.12
594.84	7.11
595.031	6.94
595.221	6.93
595.411	7.03
595.602	7.05
595.792	6.94
595.982	6.85
596.172	7.01
596.363	6.94
596.553	6.95
596.743	6.92
596.933	6.89
597.123	6.85
597.314	6.73
597.504	6.75
597.694	6.95
597.884	6.86
598.074	6.86
598.264	6.8
598.454	6.77
598.644	6.72
598.834	6.76
599.024	6.74
599.214	6.79
599.404	6.82
599.594	6.75
599.784	6.59
599.974	6.76
600.164	6.77
600.354	6.61
600.544	6.5
600.734	6.65
600.924	6.58
601.114	6.51
601.303	6.51
601.493	6.61
601.683	6.58
601.873	6.52
602.063	6.42
602.252	6.49
602.442	6.37
602.632	6.38
602.821	6.42
603.011	6.38
603.201	6.42
603.39	6.4
603.58	6.31
603.77	6.46
603.959	6.43
604.149	6.35
604.339	6.37
604.528	6.43
604.718	6.37
604.907	6.26
605.097	6.25
605.286	6.19
605.476	6.24
605.665	6.23
605.855	6.12
606.044	6.32
606.234	6.28
606.423	6.15
606.612	6.14
606.802	6.1
606.991	6.2
607.181	6.19
607.37	6.14
607.559	5.9
607.749	6.15
607.938	5.97
608.127	6
608.316	6.02
608.506	5.98
608.695	6.05
608.884	5.99
609.073	6.04
609.263	6.04
609.452	6.05
609.641	5.87
609.83	5.89
610.019	5.94
610.208	5.84
610.397	5.79
610.586	5.92
610.775	5.78
610.965	5.81
611.154	5.66
611.343	5.89
611.532	5.69
611.721	5.79
611.91	5.67
612.099	5.69
612.287	5.64
612.476	5.62
612.665	5.79
612.854	5.61
613.043	5.66
613.232	5.6
613.421	5.52
613.61	5.62
613.798	5.54
613.987	5.56
614.176	5.5
614.365	5.52
614.554	5.54
614.742	5.51
614.931	5.36
615.12	5.53
615.309	5.41
615.497	5.36
615.686	5.34
615.875	5.33
616.063	5.35
616.252	5.31
616.44	5.39
616.629	5.3
616.818	5.35
617.006	5.27
617.195	5.18
617.383	5.23
617.572	5.18
617.76	5.22
617.949	5.16
618.137	5.33
618.326	5.27
618.514	5.02
618.703	5.04
618.891	5.17
619.079	5.04
619.268	5.15
619.456	4.95
619.644	5.15
619.833	5.05
620.021	4.94
620.209	4.91
620.398	5.05
620.586	4.89
620.774	4.96
620.962	4.94
621.151	5.04
621.339	4.93
621.527	4.88
621.715	4.8
621.903	4.85
622.092	4.76
622.28	4.92
622.468	4.65
622.656	4.82
622.844	4.79
623.032	4.81
623.22	4.72
623.408	4.78
623.596	4.75
623.784	4.82
623.972	4.63
624.16	4.65
624.348	4.71
624.536	4.69
624.724	4.62
624.912	4.6
625.1	4.66
625.288	4.63
625.476	4.51
625.664	4.58
625.851	4.49
626.039	4.53
626.227	4.52
626.415	4.48
626.603	4.42
626.79	4.48
626.978	4.46
627.166	4.48
627.354	4.37
627.541	4.34
627.729	4.24
627.917	4.51
628.104	4.44
628.292	4.29
628.48	4.3
628.667	4.26
628.855	4.41
629.042	4.37
629.23	4.27
629.418	4.25
629.605	4.24
629.793	4.14
629.98	4.15
630.168	4.16
630.355	4.21
630.543	4.12
630.73	4.07
630.917	4.11
631.105	4.23
631.292	4.11
631.48	4.11
631.667	4.18
631.854	4.02
632.042	4.02
632.229	3.93
632.416	4.02
632.604	3.97
632.791	3.85
632.978	3.99
633.165	4.01
633.353	3.98
633.54	3.97
633.727	3.83
633.914	3.84
634.101	3.79
634.289	3.92
634.476	3.78
634.663	3.78
634.85	3.76
635.037	3.81
635.224	3.68
635.411	3.81
635.598	3.71
635.785	3.72
635.972	3.68
636.159	3.76
636.346	3.72
636.533	3.63
636.72	3.64
636.907	3.66
637.094	3.61
637.281	3.47
637.468	3.57
637.655	3.6
637.842	3.6
638.029	3.48
638.215	3.51
638.402	3.57
638.589	3.47
638.776	3.45
638.963	3.46
639.149	3.55
639.336	3.54
639.523	3.45
639.709	3.42
639.896	3.4
640.083	3.39
640.27	3.42
640.456	3.37
640.643	3.39
640.829	3.26
641.016	3.3
641.203	3.24
641.389	3.36
641.576	3.33
641.762	3.22
641.949	3.13
642.135	3.26
642.322	3.24
642.508	3.16
642.695	3.15
642.881	3.16
643.068	3.13
643.254	3.15
643.441	3.18
643.627	3.17
643.813	3.07
644	3.14
644.186	3.02
644.372	3.13
644.559	3.1
644.745	3.01
644.931	2.95
645.118	3
645.304	3.02
645.49	2.94
645.676	2.97
645.862	2.96
646.049	3.01
646.235	2.97
646.421	3.11
646.607	3.08
646.793	2.97
646.979	2.86
647.165	2.92
647.352	2.9
647.538	2.91
647.724	2.87
647.91	2.84
648.096	2.87
648.282	2.87
648.468	2.76
648.654	2.78
648.84	2.81
649.026	2.8
649.212	2.77
649.397	2.62
649.583	2.72
649.769	2.77
649.955	2.71
650.141	2.71
650.327	2.69
650.513	2.63
650.698	2.66
650.884	2.52
651.07	2.68
651.256	2.6
651.442	2.6
651.627	2.53
651.813	2.61
651.999	2.54
652.184	2.59
652.37	2.54
652.556	2.53
652.741	2.61
652.927	2.39
653.113	2.54
653.298	2.53
653.484	2.42
653.669	2.42
653.855	2.39
654.04	2.54
654.226	2.51
654.412	2.46
654.597	2.3
654.782	2.47
654.968	2.42
655.153	2.4
655.339	2.4
655.524	2.37
655.71	2.38
655.895	2.37
656.08	2.3
656.266	2.46
656.451	2.29
656.636	2.24
656.822	2.35
657.007	2.3
657.192	2.3
657.378	2.24
657.563	2.27
657.748	2.24
657.933	2.23
658.118	2.19
658.304	2.17
658.489	2.27
658.674	2.19
658.859	2.13
659.044	2.17
659.229	2.21
659.414	2.14
659.599	2.15
659.785	2.03
659.97	2.13
660.155	2.18
660.34	2.16
660.525	2.09
660.71	2.09
660.895	2.1
661.08	2.1
661.264	2
661.449	2.16
661.634	2.08
661.819	2.1
662.004	2.04
662.189	1.99
662.374	1.98
662.559	1.93
662.743	1.87
662.928	1.99
663.113	1.97
663.298	1.88
663.483	1.93
663.667	1.95
663.852	1.89
664.037	1.97
664.221	1.88
664.406	2.01
664.591	1.96
664.775	1.88
664.96	1.89
665.145	1.92
665.329	1.92
665.514	1.83
665.698	1.83
665.883	1.75
666.068	1.89
666.252	1.82
666.437	1.79
666.621	1.82
666.806	1.86
666.99	1.79
667.174	1.78
667.359	1.87
667.543	1.79
667.728	1.72
667.912	1.63
668.096	1.75
668.281	1.71
668.465	1.77
668.649	1.76
668.834	1.64
669.018	1.72
669.202	1.71
669.387	1.64
669.571	1.77
669.755	1.7
669.939	1.69
670.124	1.65
670.308	1.76
670.492	1.67
670.676	1.63
670.86	1.62
671.044	1.6
671.228	1.67
671.413	1.55
671.597	1.58
671.781	1.56
671.965	1.61
672.149	1.58
672.333	1.59
672.517	1.5
672.701	1.56
672.885	1.55
673.069	1.47
673.253	1.62
673.437	1.52
673.621	1.48
673.804	1.56
673.988	1.54
674.172	1.51
674.356	1.48
674.54	1.49
674.724	1.62
674.908	1.48
675.091	1.5
675.275	1.47
675.459	1.54
675.643	1.55
675.826	1.48
676.01	1.43
676.194	1.43
676.377	1.51
676.561	1.47
676.745	1.42
676.928	1.46
677.112	1.49
677.296	1.34
677.479	1.37
677.663	1.41
677.846	1.39
678.03	1.38
678.213	1.33
678.397	1.47
678.58	1.43
678.764	1.33
678.947	1.29
679.131	1.4
679.314	1.4
679.498	1.31
679.681	1.31
679.865	1.38
680.048	1.33
680.231	1.29
680.415	1.31
680.598	1.33
680.781	1.21
680.965	1.29
681.148	1.34
681.331	1.3
681.514	1.32
681.698	1.26
681.881	1.26
682.064	1.33
682.247	1.28
682.43	1.12
682.614	1.23
682.797	1.28
682.98	1.26
683.163	1.15
683.346	1.25
683.529	1.16
683.712	1.13
683.895	1.2
684.078	1.1
684.261	1.2
684.444	1.23
684.627	1.21
684.81	1.14
684.993	1.12
685.176	1.3
685.359	1.08
685.542	1.15
685.725	1.23
685.908	1.13
686.091	1.11
686.274	1.22
686.457	1.2
686.639	1.2
686.822	1.12
687.005	1.13
687.188	1.18
687.371	1.23
687.553	1.16
687.736	1.13
687.919	1.2
688.102	1.18
688.284	1.06
688.467	1.06
688.65	1.09
688.832	0.99
689.015	1.07
689.197	0.97
689.38	1.16
689.563	1.2
689.745	1.02
689.928	1.01
690.11	0.97
690.293	1.1
690.475	0.89
690.658	1.1
690.84	1.01
691.023	1.02
691.205	0.94
691.388	0.98
691.57	1.08
691.752	1.08
691.935	0.87
692.117	0.95
692.3	1.04
692.482	1
692.664	0.95
692.847	0.98
693.029	1.11
693.211	1.04
693.393	0.94
693.576	0.91
693.758	0.98
693.94	0.94
694.122	0.91
694.304	0.92
694.487	0.83
694.669	1.02
694.851	0.82
695.033	0.84
695.215	0.88
695.397	0.82
695.579	0.95
695.761	0.85
695.943	0.81
696.125	1.06
696.308	0.95
696.49	0.8
696.671	1.04
696.853	0.94
697.035	1.12
697.217	0.85
697.399	0.95
697.581	0.86
697.763	0.89
697.945	0.75
698.127	0.93
698.309	0.93
698.491	0.89
698.672	0.92
698.854	0.91
699.036	0.95
699.218	0.84
699.399	0.82
699.581	0.95
699.763	0.8
699.945	0.75
700.126	0.72
700.308	0.84
700.49	0.83
700.671	0.7
700.853	0.7
701.035	0.79
701.216	0.82
701.398	0.7
701.579	0.77
701.761	0.93
701.943	0.75
702.124	0.78
702.306	0.72
702.487	1.01
702.669	0.77
702.85	0.7
703.031	0.66
703.213	0.99
703.394	0.86
703.576	0.74
703.757	0.93
703.938	0.86
704.12	0.98
704.301	0.75
704.483	0.72
704.664	0.72
704.845	0.87
705.026	0.83
705.208	0.72
705.389	0.84
705.57	0.79
705.751	0.71
705.933	0.75
706.114	0.86
706.295	0.71
706.476	0.65
706.657	0.83
706.838	0.77
707.02	0.82
707.201	0.66
707.382	0.64
707.563	0.77
707.744	0.67
707.925	0.62
708.106	0.65
708.287	0.79
708.468	0.84
708.649	0.67
708.83	0.73
709.011	0.66
709.192	0.82
709.373	0.57
709.554	0.68
709.734	0.77
709.915	0.75
710.096	0.66
710.277	0.6
710.458	0.7
710.639	0.77
710.819	0.58
711	0.6
711.181	0.73
711.362	0.71
711.542	0.76
711.723	0.6
711.904	0.75
712.085	0.75
712.265	0.7
712.446	0.54
712.627	0.63
712.807	0.62
712.988	0.71
713.168	0.54
713.349	0.71
713.53	0.54
713.71	0.5
713.891	0.49
714.071	0.65
714.252	0.59
714.432	0.6
714.613	0.51
714.793	0.6
714.974	0.73
715.154	0.69
715.334	0.64
715.515	0.73
715.695	0.53
715.876	0.62
716.056	0.58
716.236	0.56
716.417	0.56
716.597	0.5
716.777	0.82
716.957	0.59
717.138	0.64
717.318	0.6
717.498	0.5
717.678	0.6
717.859	0.7
718.039	0.5
718.219	0.57
718.399	0.58
718.579	0.57
718.759	0.49
718.939	0.57
719.12	0.58
719.3	0.71
719.48	0.38
719.66	0.46
719.84	0.72
720.02	0.54
720.2	0.49
720.38	0.47
720.56	0.73
720.74	0.48
720.92	0.57
721.1	0.68
721.279	0.61
721.459	0.58
721.639	0.42
721.819	0.57
721.999	0.47
722.179	0.58
722.359	0.43
722.538	0.51
722.718	0.55
722.898	0.58
723.078	0.51
723.257	0.48
723.437	0.6
723.617	0.53
723.797	0.47
723.976	0.52
724.156	0.6
724.336	0.76
724.515	0.72
724.695	0.38
724.874	0.45
725.054	0.6
725.234	0.52
725.413	0.5
725.593	0.49
725.772	0.52
725.952	0.47
726.131	0.49
726.311	0.55
726.49	0.51
726.67	0.43
726.849	0.51
727.028	0.61
727.208	0.49
727.387	0.5
727.567	0.4
727.746	0.45
727.925	0.43
728.105	0.34
728.284	0.49
728.463	0.41
728.643	0.55
728.822	0.4
729.001	0.48
729.18	0.48
729.359	0.61
729.539	0.42
729.718	0.52
729.897	0.6
730.076	0.47
730.255	0.34
730.434	0.4
730.614	0.6
730.793	0.66
730.972	0.43
731.151	0.45
731.33	0.54
731.509	0.54
731.688	0.53
731.867	0.53
732.046	0.35
732.225	0.72
732.404	0.44
732.583	0.37
732.762	0.47
732.941	0.64
733.12	0.49
733.298	0.46
733.477	0.61
733.656	0.43
733.835	0.39
734.014	0.55
734.193	0.5
734.371	0.54
734.55	0.46
734.729	0.36
734.908	0.43
735.086	0.54
735.265	0.55
735.444	0.26
735.623	0.35
735.801	0.41
735.98	0.45
736.159	0.43
736.337	0.59
736.516	0.58
736.694	0.61
736.873	0.34
737.052	0.75
737.23	0.62
737.409	0.39
737.587	0.74
737.766	0.36
737.944	0.42
738.123	0.53
738.301	0.5
738.479	0.54
738.658	0.53
738.836	0.25
739.015	0.47
739.193	0.61
739.371	0.47
739.55	0.45
739.728	0.36
739.906	0.65
740.085	0.67
740.263	0.55
740.441	0.24
740.62	0.71
740.798	0.57
740.976	0.38
741.154	0.26
741.332	0.66
741.511	0.45
741.689	0.44
741.867	0.51
742.045	0.48
742.223	0.47
742.401	0.36
742.579	0.33
742.757	0.62
742.935	0.3
743.114	0.38
743.292	0.5
743.47	0.58
743.648	0.44
743.826	0.51
744.004	0.45
744.181	0.67
744.359	0.43
744.537	0.57
744.715	0.48
744.893	0.42
745.071	0.5
745.249	0.37
745.427	0.31
745.605	0.46
745.782	0.46
745.96	0.47
746.138	0.62
746.316	0.61
746.493	0.4
746.671	0.38
746.849	0.35
747.027	0.54
747.204	0.36
747.382	0.51
747.56	0.3
747.737	0.25
747.915	0.34
748.093	0.39
748.27	0.33
748.448	0.48
748.625	0.28
748.803	0.28
748.98	0.27
749.158	0.59
749.335	0.57
749.513	0.4
749.69	0.29
749.868	0.43
750.045	0.46
750.223	0.31
750.4	0.16
750.578	0.59
750.755	0.35
750.932	0.27
751.11	0.6
751.287	0.24
751.464	0.59
751.642	0.36
751.819	0.4
751.996	0.42
752.173	0.29
752.351	0.34
752.528	0.54
752.705	0.3
752.882	0.43
753.06	0.35
753.237	0.38
753.414	0.55
753.591	0.66
753.768	0.49
753.945	0.3
754.122	0.29
754.299	0.53
754.476	0.32
754.654	0.36
754.831	0.56
755.008	0.54
755.185	0.32
755.362	0.33
755.539	0.41
755.716	0.37
755.892	0.28
756.069	0.37
756.246	0.36
756.423	0.43
756.6	0.52
756.777	0.26
756.954	0.47
757.131	0.35
757.307	0.39
757.484	0.24
757.661	0.48
757.838	0.47
758.015	0.3
758.191	0.39
758.368	0.38
758.545	0.54
758.721	0.4
758.898	0.24
759.075	0.36
759.251	0.52
759.428	0.47
759.605	0.18
759.781	0.36
759.958	0.51
760.134	0.38
760.311	0.24
760.488	0.6
760.664	0.63
760.841	0.32
761.017	0.25
761.194	0.34
761.37	0.6
761.547	0.46
761.723	0.26
761.899	0.5
762.076	0.33
762.252	0.26
762.429	0.34
762.605	0.61
762.781	0.28
762.958	0.35
763.134	0.3
763.31	0.22
763.486	0.52
763.663	0.09
763.839	0.32
764.015	0.12
764.191	0.37
764.368	0.35
764.544	0.29
764.72	0.37
764.896	0.47
765.072	0.45
765.248	0.33
765.425	0.3
765.601	0.52
765.777	0.3
765.953	0.08
766.129	0.25
766.305	0.32
766.481	0.39
766.657	0.41
766.833	0.51
767.009	0.26
767.185	0.28
767.361	0.38
767.537	0.23
767.713	0.62
767.889	0.22
768.065	0.41
768.24	0.54
768.416	0.39
768.592	0.4
768.768	0.31
768.944	0.44
769.12	0.26
769.295	0.35
769.471	0.39
769.647	0.33
769.823	0.58
769.998	0.31
770.174	0.34
770.35	0.8
770.525	0.62
770.701	0.45
770.877	0.41
771.052	0.36
771.228	0.59
771.403	0.55
771.579	0.33
771.755	0.78
771.93	0.34
772.106	0.17
772.281	0.03
772.457	0.41
772.632	0.56
772.808	0.15
772.983	0.22
773.159	0.21
773.334	0.56
773.509	0.35
773.685	0.1
773.86	0.77
774.036	0.6
774.211	0.37
774.386	0.35
774.562	0.47
774.737	0.62
774.912	0.28
775.087	0.42
775.263	0.42
775.438	0.47
775.613	0.34
775.788	0.27
775.964	0.53
776.139	0.93
776.314	0.1
776.489	0.44
776.664	0.46
776.839	0.09
777.014	0.43
777.19	0.48
777.365	0.75
777.54	0.63
777.715	0.25
777.89	0.31
778.065	0.39
778.24	0.35
778.415	0.53
778.59	0.16
778.765	0.38
778.94	0.48
779.115	0.24
779.289	0.33
779.464	0.22
779.639	0.44
779.814	0.04
779.989	0.13
780.164	0.6
780.339	0.41
780.513	0.16
780.688	0.18
780.863	0.38
781.038	0.71
781.212	0.19
781.387	0.46
781.562	0.85
781.737	0.34
781.911	0.54
782.086	0.17
782.261	0.32
782.435	0.77
782.61	0.13
782.784	0.2
782.959	0.46
783.134	0.39
783.308	0.22
783.483	0.39
783.657	0.97
783.832	0.62
784.006	-0.06
784.181	0.38
784.355	0.7
784.53	0.28
784.704	0.21
784.878	0.55
785.053	0.54
785.227	0.66
785.402	0.79
785.576	0.3
785.75	0.45
785.925	0.56
786.099	0.5
786.273	0.37
786.448	0.61
786.622	0.75
786.796	0.52
786.97	0.36
787.145	1.05
787.319	0.09
787.493	0.27
787.667	0.09
787.841	0.52
788.015	0.79
788.19	0.34
788.364	0.4
788.538	0.67
788.712	0.6
788.886	0.21
789.06	0.78
789.234	0.62
789.408	0.17
789.582	0.33
789.756	0.19
789.93	0.46
790.104	0.38
790.278	0.25
790.452	0.22
790.626	0.68
790.8	0.3
790.973	0.61
791.147	0.98
791.321	0.79
791.495	0.86
791.669	0.51
791.843	0.27
792.016	0.5
792.19	1.03
792.364	0.26
792.538	1.21
792.711	0.85
792.885	0.39
793.059	0.44
793.233	-0.2
793.406	0.83
793.58	0.42
793.754	0.48
793.927	0.26
794.101	0.78
794.274	0.33
794.448	0.56
794.622	0.11
794.795	1.07
794.969	0.49
795.142	0.65
795.316	0.33
795.489	0.32
795.663	0.79
795.836	0.33
796.009	0.15
796.183	1.04
796.356	0.68
796.53	0.5
796.703	0.53
796.876	1.22
797.05	0.26
797.223	0.44
797.396	0.48
797.57	0.37
797.743	0.85
797.916	0.66
798.09	0.45
798.263	0.85
798.436	0.78
798.609	0.36
798.782	0.24
798.956	0.65
799.129	0.42
799.302	0.52
799.475	0.33
799.648	0.49
799.821	0.41
799.994	0.57
800.167	-0.07
800.34	0.59
800.514	0.5
800.687	0.17
800.86	0.27
801.033	0.76
801.206	0.8
801.379	0.35
801.551	0.94
801.724	0.77
801.897	1.23
802.07	0.22
802.243	-0.03
802.416	0.5
802.589	0.33
802.762	0.73
802.935	0.71
803.107	0.96
803.28	0.82
803.453	0.63
803.626	0.06
803.798	0.7
803.971	0.39
804.144	0.34
804.317	0.38
804.489	0.89
804.662	0.53
804.835	0.42
805.007	0.34
805.18	1.2
805.353	0.53
805.525	0.34
805.698	0.54
805.87	0.85
806.043	0.74
806.215	-0.13
806.388	0.04
806.56	0.41
806.733	1.06
806.905	0.38
807.078	0.26
807.25	0.56
807.423	0.88
807.595	0.76
807.768	0.6
807.94	0.88
808.112	0.82
808.285	0.69
808.457	0.39
808.629	0.34
808.802	0.75
808.974	0.98
809.146	0.42
809.318	0.48
809.491	1.02
809.663	0.77
809.835	0.43
810.007	1.17
810.18	0.5
810.352	0.08
810.524	0.18
810.696	0.91
810.868	1.28
811.04	0.76
811.212	0.31
811.384	1.14
811.556	0.41
811.728	0.35
811.901	1.8
812.073	0.36
812.245	0.67
812.417	0.56
812.589	-0.03
812.76	0.88
812.932	0.87
813.104	0.68
813.276	0.47
813.448	1.03
813.62	0.56
813.792	0.57
813.964	0.82
814.136	0.63
814.307	0.61
814.479	0.48
814.651	0.12
814.823	1.88
814.995	0.5
815.166	0.89
815.338	0.38
815.51	0.31
815.681	1.69
815.853	0.76
816.025	0.23
816.196	1.62
816.368	1.38
816.54	-0.01
816.711	0.1
816.883	0.59
817.054	2
817.226	0.04
817.398	1.04
817.569	0.68
817.741	1
817.912	0.45
818.084	0.35
818.255	1.4
818.426	0.41
818.598	0.75
818.769	0.26
818.941	1.14
819.112	1.52
819.283	0.77
819.455	0.2
819.626	0.8
819.798	1.22
819.969	0.6
820.14	0.3
820.311	0.58
820.483	1.07
820.654	1.18
820.825	0.41
820.996	0.33
821.168	0.08
821.339	0.86
821.51	-0.22
821.681	0.5
821.852	1.43
822.023	0.48
822.195	0.35
822.366	1.38
822.537	0.72
822.708	0.54
822.879	0.39
823.05	1.15
823.221	0.58
823.392	0.88
823.563	0.87
823.734	0.78
823.905	0.39
824.076	0.17
824.247	0.04
824.418	0.86
824.589	1.98
824.759	0.85
824.93	0.45
825.101	0.04
825.272	1.3
825.443	1.31
825.614	1.09
825.784	0.4
825.955	2.12
826.126	1.4
826.297	1.25
826.467	1.89
826.638	3.12
826.809	-0.72
826.98	1.36
827.15	0.94
827.321	1.18
827.492	1.45
827.662	0.81
827.833	2.8
828.003	1.72
828.174	0.56
828.345	0.24
828.515	1.35
828.686	0.67
828.856	0.91
829.027	1.13
829.197	0.98
829.368	1.14
829.538	0.31
829.709	0.01
829.879	1.1
830.049	1.07
830.22	0.3
830.39	0.9
830.56	1.96
830.731	0.7
830.901	0.55
831.072	0.71
831.242	1.15
831.412	1.07
831.582	1.37
831.753	-0.12
831.923	0.72
832.093	1.1
832.263	0.54
832.434	0.24
832.604	0.54
832.774	1.54
832.944	0.73
833.114	0.03
833.284	1.41
833.454	0.3
833.624	0.44
833.795	0.27
833.965	1.31
834.135	2.31
834.305	-0.46
834.475	0.24
834.645	1.12
834.815	1.07
834.985	0.22
835.155	0.04
835.325	1.14
835.494	1.99
835.664	0.33
835.834	0.57
836.004	1.06
836.174	1.32
836.344	0.1
836.514	-0.1
836.684	0.65
836.853	1.5
837.023	1.42
837.193	0.86
837.363	1.7
837.532	2.25
837.702	0.79
837.872	0.15
838.041	1.19
838.211	3.02
838.381	0.03
838.55	1.3
838.72	3.35
838.89	2.37
839.059	0.35
839.229	0.3
839.398	3.01
839.568	1.32
839.738	0.15
839.907	2.12
840.077	1
840.246	0.79
840.416	0.42
840.585	0.29
840.755	2.47
840.924	2.24
841.093	-0.41
841.263	0.46
841.432	0.64
841.602	0.71
841.771	0.59
841.94	0.94
842.11	2.96
842.279	2.7
842.448	-0.34
842.617	-0.53
842.787	2.63
842.956	0.12
843.125	0.56
843.294	0.78
843.464	3.17
843.633	1.38
843.802	0.44
843.971	0.73
844.14	2.19
844.309	1.77
844.479	-0.2
844.648	-0.06
844.817	1.07
844.986	1.52
845.155	0.65
845.324	0.47
845.493	1.13
845.662	0.32
845.831	1.65
846	1.72
846.169	1.12
846.338	2.6
846.507	1.65
846.676	1.36
846.844	1.29
847.013	1.68
847.182	1.12
847.351	0.88
847.52	1.05
847.689	1.93
847.858	1.5
848.026	-0.31
848.195	1.63
848.364	1.05
848.533	-0.04
848.701	0.21
848.87	2.06
849.039	2.56
849.207	2.17
849.376	1.85
849.545	3.25
849.713	0.67
849.882	0.78
850.051	0.14
850.219	1.17
850.388	2.01
850.556	0.34
850.725	1.18
850.893	1.59
851.062	1.98
851.23	1.48
851.399	0.33
851.567	0.75
851.736	1.09
851.904	0.78
852.073	0.41
852.241	2.34
852.41	1.94
852.578	0.26
852.746	0.91
852.915	2.36
853.083	0.61
853.251	-0.15
853.42	1.05
853.588	1.78
853.756	2.79
853.924	1.45
854.093	1.99
854.261	0.06
854.429	-0.25
854.597	1.83
854.765	0.02
854.934	2.97
855.102	2.82
855.27	1.04
855.438	1.82
855.606	3.92
855.774	3.63
855.942	-0.33
856.11	0.28
856.278	2.19
856.446	3.66
856.614	0.97
856.782	-0.27
856.95	3.32
857.118	1.88
857.286	2.19
857.454	0.41
857.622	2.66
857.79	2.62
857.958	-0.65
858.126	0.14
858.294	-1.17
858.462	1.79
858.629	-0.1
858.797	0.16
858.965	1.56
859.133	2.03
859.301	1.22
859.468	1.33
859.636	0.73
859.804	4.49
859.971	3.01
860.139	0.26
860.307	3.26
860.474	2.04
860.642	0.35
860.81	0.59
860.977	1.86
861.145	3.41
861.313	0.92
861.48	0.33
861.648	3.38
861.815	1.85
861.983	-0.23
862.15	1.08
862.318	3.27
862.485	2.98
862.653	-0.48
862.82	0.48
862.988	3.95
863.155	-0.43
863.322	0.91
863.49	-0.79
863.657	1.07
863.824	4.57
863.992	2.33
864.159	0.58
864.326	3.72
864.494	1.22
864.661	4.14
864.828	-0
864.996	5.01
865.163	4.17
865.33	0.92
865.497	-1.91
865.664	0.41
865.832	-1.06
865.999	2.39
866.166	-0.68
866.333	0.67
866.5	1.64
866.667	0.06
866.834	0.83
867.001	3.17
867.168	0.2
867.335	0.13
867.502	-0.05
867.669	2.12
867.836	6.09
868.003	1.51
868.17	3
868.337	2.57
868.504	5.34
868.671	0.25
868.838	0.33
869.005	3.35
869.172	4.25
869.339	2.39
869.505	2.23
869.672	2.07
869.839	4.92
870.006	1.7
870.173	0.15
870.339	3.24
870.506	6.14
870.673	0.29
870.84	3.72
871.006	1.85
871.173	0.79
871.34	2.18
871.506	-0.62
871.673	4.07
871.839	0.47
872.006	1.75
872.173	2.41
872.339	2.55
872.506	5.03
872.672	0.39
872.839	-0.11
873.005	4.07
873.172	5.45
873.338	1.63
873.505	2.41
873.671	4.61
873.838	3.94
874.004	-2.47
874.171	0.59
874.337	2.72
874.503	3.33
874.67	1.3
874.836	1.15
875.002	3.26
875.169	3.1
875.335	1.69
875.501	0.84
875.668	3.04
875.834	1.73
876	0.35
876.166	3.59
876.332	3.1
876.499	6.44
876.665	0.74
876.831	2.79
876.997	8.3
877.163	2.55
877.329	-0.68
877.495	2.32
877.662	3.49
877.828	2.98
877.994	1.32
878.16	-1.87
878.326	0.2
878.492	4.62
878.658	1.2
878.824	2.72
878.99	2.45
879.156	1.65
879.322	4.96
879.487	1.36
879.653	3.4
879.819	2.57
879.985	0.09
880.151	1.65
880.317	3.62
880.483	2.42
880.648	2.03
880.814	-1.05
880.98	3.26
881.146	-2.88
881.312	-0.79
881.477	3.04
881.643	2.68
881.809	4.85
881.974	4.66
882.14	0.03
882.306	3.91
882.471	6.96
882.637	1.72
882.803	1.57
882.968	5.92
883.134	8.32
883.299	1.81
883.465	1.49
883.63	3.31
883.796	2.77
883.961	2.14
884.127	3.47
884.292	-3.16
884.458	0.81
884.623	0.81
