Data from Apollo_Calib_20240827__AbsoluteIrradiance__880__13-49-01-956.txt Node

Date: Wed Aug 28 13:49:01 BST 2024
User: biology
Spectrometer: FLMT08252
Trigger mode: 0
Integration Time (sec): 5.000000E-1
Scans to average: 5
Electric dark correction enabled: true
Nonlinearity correction enabled: false
Boxcar width: 0
XAxis mode: Wavelengths
Number of Pixels in Spectrum: 3648
>>>>>Begin Spectral Data<<<<<
179.588	-0
179.809	-0
180.03	-0
180.251	-0
180.473	-0
180.694	0
180.915	0
181.136	-0
181.357	-0
181.578	-0
181.799	-0
182.02	-0
182.241	0
182.462	-0
182.683	0
182.904	-0
183.125	-0
183.346	0
183.567	0
183.788	0
184.009	0
184.23	0
184.451	0
184.672	0
184.892	0
185.113	0
185.334	0
185.555	0
185.776	0
185.996	0
186.217	0
186.438	0
186.659	0
186.879	0
187.1	0
187.321	0
187.541	0
187.762	0
187.983	0
188.203	0
188.424	0
188.644	0
188.865	0
189.086	0
189.306	0
189.527	0
189.747	0
189.968	0
190.188	0
190.409	0
190.629	0
190.849	0
191.07	0
191.29	0
191.511	0
191.731	0
191.951	0
192.172	0
192.392	0
192.612	0
192.833	0
193.053	0
193.273	0
193.493	0
193.714	0
193.934	0
194.154	0
194.374	0
194.594	0
194.815	0
195.035	0
195.255	0
195.475	0
195.695	0
195.915	0
196.135	0
196.355	0
196.575	0
196.795	0
197.015	0
197.235	0
197.455	0
197.675	0
197.895	0
198.115	0
198.335	0
198.555	0
198.775	0
198.995	0
199.214	0
199.434	0
199.654	0
199.874	0
200.094	4.03
200.313	2.12
200.533	1.65
200.753	1.76
200.973	3.12
201.192	3.29
201.412	1.22
201.632	1.43
201.851	3.05
202.071	1.4
202.291	1.24
202.51	1.4
202.73	2.5
202.95	1.75
203.169	1.08
203.389	1.59
203.608	2.23
203.828	1.04
204.047	1.38
204.267	2.21
204.486	1.99
204.706	2.42
204.925	1.47
205.145	1.37
205.364	2.03
205.583	2.34
205.803	1.08
206.022	0.94
206.242	2.35
206.461	1.78
206.68	1.21
206.9	1.54
207.119	2.54
207.338	2.05
207.557	1.12
207.777	0.99
207.996	1.15
208.215	2
208.434	1.01
208.654	0.38
208.873	1.65
209.092	2.01
209.311	1.04
209.53	0.85
209.749	1.3
209.968	1.12
210.187	0.98
210.407	0.97
210.626	1.26
210.845	1.72
211.064	1.04
211.283	0.78
211.502	1.47
211.721	1.01
211.94	0.99
212.159	1.36
212.377	1.6
212.596	1.44
212.815	1.11
213.034	1.03
213.253	1.53
213.472	1.46
213.691	0.82
213.91	0.73
214.128	0.66
214.347	1.37
214.566	0.38
214.785	0.48
215.003	1.16
215.222	1.08
215.441	0.82
215.66	0.54
215.878	0.9
216.097	1.12
216.316	0.72
216.534	0.94
216.753	0.97
216.972	0.71
217.19	0.76
217.409	0.65
217.627	0.87
217.846	0.83
218.064	0.86
218.283	0.51
218.501	1.39
218.72	1.2
218.938	0.47
219.157	0.51
219.375	1.11
219.594	1.03
219.812	0.47
220.031	0.51
220.249	1.45
220.467	1.36
220.686	0.63
220.904	0.48
221.122	0.63
221.341	1.01
221.559	0.82
221.777	0.49
221.995	0.69
222.214	1
222.432	0.61
222.65	1.07
222.868	0.76
223.086	0.84
223.305	0.87
223.523	0.52
223.741	1.12
223.959	0.75
224.177	0.38
224.395	0.4
224.613	0.82
224.831	1.02
225.049	0.29
225.267	0.45
225.485	0.81
225.703	0.48
225.921	0.53
226.139	0.48
226.357	0.84
226.575	0.77
226.793	0.37
227.011	1.55
227.229	0.75
227.447	0.93
227.665	0.49
227.883	0.23
228.1	0.62
228.318	0.66
228.536	0.25
228.754	0.34
228.972	0.75
229.189	0.72
229.407	0.49
229.625	0.51
229.843	0.97
230.06	0.86
230.278	0.34
230.496	0.39
230.713	0.76
230.931	0.79
231.149	0.43
231.366	0.29
231.584	0.59
231.801	1
232.019	0.56
232.236	0.36
232.454	0.45
232.671	0.66
232.889	0.4
233.106	0.4
233.324	0.57
233.541	0.54
233.759	0.51
233.976	0.4
234.194	0.59
234.411	0.45
234.628	0.37
234.846	0.45
235.063	0.56
235.28	0.49
235.498	0.4
235.715	0.24
235.932	0.8
236.149	0.54
236.367	0.27
236.584	0.45
236.801	0.38
237.018	0.77
237.236	0.5
237.453	0.26
237.67	0.65
237.887	0.51
238.104	0.48
238.321	0.38
238.538	0.3
238.755	0.66
238.973	0.27
239.19	0.46
239.407	0.46
239.624	0.57
239.841	0.33
240.058	0.32
240.275	0.54
240.492	0.48
240.709	0.43
240.925	0.31
241.142	0.49
241.359	0.35
241.576	0.36
241.793	0.34
242.01	0.38
242.227	0.63
242.444	0.46
242.66	0.6
242.877	0.52
243.094	0.41
243.311	0.42
243.527	0.44
243.744	0.5
243.961	0.47
244.178	0.35
244.394	0.33
244.611	0.6
244.828	0.72
245.044	0.27
245.261	0.4
245.477	0.44
245.694	0.6
245.911	0.3
246.127	0.42
246.344	0.7
246.56	0.48
246.777	0.28
246.993	0.4
247.21	0.52
247.426	0.43
247.643	0.31
247.859	0.34
248.076	0.35
248.292	0.75
248.508	0.29
248.725	0.44
248.941	0.5
249.157	0.58
249.374	0.35
249.59	0.42
249.806	0.41
250.023	0.47
250.239	0.22
250.455	0.28
250.671	0.42
250.888	0.54
251.104	0.51
251.32	0.32
251.536	0.45
251.752	0.43
251.969	0.39
252.185	0.4
252.401	0.64
252.617	0.47
252.833	0.3
253.049	0.34
253.265	0.3
253.481	0.41
253.697	0.35
253.913	0.24
254.129	0.51
254.345	0.4
254.561	0.33
254.777	0.31
254.993	0.46
255.209	0.41
255.425	0.35
255.641	0.2
255.857	0.48
256.073	0.4
256.288	0.24
256.504	0.31
256.72	0.3
256.936	0.51
257.152	0.28
257.367	0.33
257.583	0.39
257.799	0.44
258.015	0.3
258.23	0.3
258.446	0.62
258.662	0.45
258.877	0.27
259.093	0.21
259.309	0.43
259.524	0.45
259.74	0.28
259.955	0.2
260.171	0.37
260.387	0.36
260.602	0.47
260.818	0.4
261.033	0.28
261.249	0.35
261.464	0.3
261.68	0.24
261.895	0.48
262.11	0.47
262.326	0.32
262.541	0.22
262.757	0.46
262.972	0.42
263.187	0.4
263.403	0.32
263.618	0.5
263.833	0.39
264.049	0.25
264.264	0.33
264.479	0.33
264.694	0.51
264.91	0.17
265.125	0.31
265.34	0.46
265.555	0.59
265.77	0.33
265.986	0.32
266.201	0.44
266.416	0.46
266.631	0.27
266.846	0.27
267.061	0.48
267.276	0.36
267.491	0.16
267.706	0.37
267.921	0.41
268.136	0.4
268.351	0.31
268.566	0.31
268.781	0.43
268.996	0.41
269.211	0.34
269.426	0.29
269.641	0.3
269.856	0.4
270.071	0.31
270.285	0.15
270.5	0.41
270.715	0.4
270.93	0.29
271.145	0.4
271.359	0.4
271.574	0.32
271.789	0.31
272.004	0.29
272.218	0.27
272.433	0.44
272.648	0.25
272.862	0.37
273.077	0.32
273.292	0.3
273.506	0.22
273.721	0.29
273.936	0.38
274.15	0.42
274.365	0.22
274.579	0.4
274.794	0.39
275.008	0.44
275.223	0.22
275.437	0.28
275.652	0.42
275.866	0.34
276.081	0.31
276.295	0.3
276.509	0.36
276.724	0.32
276.938	0.34
277.153	0.39
277.367	0.41
277.581	0.26
277.796	0.25
278.01	0.19
278.224	0.37
278.438	0.49
278.653	0.19
278.867	0.21
279.081	0.19
279.295	0.33
279.51	0.3
279.724	0.14
279.938	0.32
280.152	0.31
280.366	0.23
280.58	0.33
280.794	0.37
281.008	0.39
281.222	0.32
281.437	0.46
281.651	0.3
281.865	0.41
282.079	0.24
282.293	0.14
282.507	0.26
282.721	0.32
282.935	0.25
283.148	0.18
283.362	0.3
283.576	0.24
283.79	0.32
284.004	0.25
284.218	0.39
284.432	0.23
284.646	0.28
284.859	0.22
285.073	0.28
285.287	0.31
285.501	0.28
285.714	0.29
285.928	0.28
286.142	0.34
286.356	0.24
286.569	0.26
286.783	0.41
286.997	0.35
287.21	0.29
287.424	0.26
287.637	0.27
287.851	0.25
288.065	0.36
288.278	0.26
288.492	0.34
288.705	0.25
288.919	0.33
289.132	0.15
289.346	0.37
289.559	0.21
289.773	0.2
289.986	0.29
290.2	0.25
290.413	0.36
290.626	0.23
290.84	0.25
291.053	0.27
291.267	0.45
291.48	0.29
291.693	0.29
291.906	0.24
292.12	0.28
292.333	0.2
292.546	0.19
292.76	0.37
292.973	0.3
293.186	0.31
293.399	0.21
293.612	0.33
293.826	0.27
294.039	0.28
294.252	0.27
294.465	0.34
294.678	0.27
294.891	0.27
295.104	0.19
295.317	0.28
295.53	0.28
295.743	0.26
295.956	0.25
296.169	0.4
296.382	0.3
296.595	0.26
296.808	0.21
297.021	0.37
297.234	0.29
297.447	0.24
297.66	0.3
297.873	0.3
298.086	0.36
298.299	0.19
298.511	0.17
298.724	0.23
298.937	0.25
299.15	0.22
299.363	0.25
299.575	0.32
299.788	0.32
300.001	0.23
300.213	0.24
300.426	0.24
300.639	0.24
300.852	0.21
301.064	0.25
301.277	0.35
301.489	0.3
301.702	0.29
301.915	0.22
302.127	0.23
302.34	0.31
302.552	0.26
302.765	0.18
302.977	0.31
303.19	0.22
303.402	0.23
303.615	0.27
303.827	0.25
304.04	0.26
304.252	0.27
304.464	0.24
304.677	0.4
304.889	0.33
305.102	0.23
305.314	0.19
305.526	0.33
305.739	0.32
305.951	0.18
306.163	0.26
306.375	0.36
306.588	0.26
306.8	0.2
307.012	0.19
307.224	0.29
307.436	0.38
307.649	0.14
307.861	0.22
308.073	0.29
308.285	0.2
308.497	0.13
308.709	0.22
308.921	0.23
309.133	0.32
309.346	0.2
309.558	0.26
309.77	0.29
309.982	0.35
310.194	0.26
310.406	0.21
310.617	0.36
310.829	0.29
311.041	0.29
311.253	0.16
311.465	0.23
311.677	0.29
311.889	0.2
312.101	0.16
312.313	0.33
312.524	0.37
312.736	0.17
312.948	0.25
313.16	0.36
313.372	0.26
313.583	0.27
313.795	0.24
314.007	0.25
314.218	0.33
314.43	0.22
314.642	0.23
314.853	0.19
315.065	0.28
315.277	0.22
315.488	0.29
315.7	0.33
315.912	0.27
316.123	0.25
316.335	0.23
316.546	0.36
316.758	0.26
316.969	0.2
317.181	0.27
317.392	0.29
317.604	0.31
317.815	0.22
318.026	0.15
318.238	0.21
318.449	0.3
318.661	0.21
318.872	0.23
319.083	0.2
319.295	0.26
319.506	0.2
319.717	0.25
319.929	0.32
320.14	0.24
320.351	0.24
320.562	0.16
320.774	0.23
320.985	0.29
321.196	0.22
321.407	0.17
321.618	0.33
321.829	0.23
322.041	0.27
322.252	0.25
322.463	0.35
322.674	0.29
322.885	0.16
323.096	0.21
323.307	0.21
323.518	0.26
323.729	0.19
323.94	0.21
324.151	0.23
324.362	0.3
324.573	0.27
324.784	0.22
324.995	0.34
325.206	0.3
325.417	0.23
325.628	0.21
325.838	0.26
326.049	0.28
326.26	0.27
326.471	0.17
326.682	0.23
326.892	0.24
327.103	0.18
327.314	0.21
327.525	0.29
327.735	0.31
327.946	0.24
328.157	0.18
328.368	0.28
328.578	0.23
328.789	0.29
328.999	0.25
329.21	0.27
329.421	0.3
329.631	0.23
329.842	0.21
330.052	0.28
330.263	0.27
330.473	0.28
330.684	0.2
330.894	0.23
331.105	0.27
331.315	0.24
331.526	0.19
331.736	0.29
331.947	0.28
332.157	0.27
332.367	0.21
332.578	0.29
332.788	0.39
332.999	0.3
333.209	0.23
333.419	0.17
333.629	0.29
333.84	0.27
334.05	0.23
334.26	0.35
334.47	0.25
334.681	0.3
334.891	0.19
335.101	0.31
335.311	0.38
335.521	0.21
335.732	0.2
335.942	0.31
336.152	0.26
336.362	0.2
336.572	0.26
336.782	0.32
336.992	0.21
337.202	0.25
337.412	0.23
337.622	0.26
337.832	0.24
338.042	0.27
338.252	0.19
338.462	0.25
338.672	0.23
338.882	0.24
339.092	0.26
339.302	0.35
339.511	0.28
339.721	0.24
339.931	0.16
340.141	0.31
340.351	0.35
340.561	0.27
340.77	0.28
340.98	0.27
341.19	0.29
341.4	0.21
341.609	0.18
341.819	0.23
342.029	0.16
342.238	0.3
342.448	0.21
342.658	0.3
342.867	0.25
343.077	0.21
343.286	0.22
343.496	0.26
343.706	0.33
343.915	0.2
344.125	0.27
344.334	0.29
344.544	0.18
344.753	0.21
344.963	0.23
345.172	0.23
345.381	0.21
345.591	0.17
345.8	0.24
346.01	0.34
346.219	0.37
346.428	0.13
346.638	0.25
346.847	0.25
347.056	0.3
347.266	0.23
347.475	0.26
347.684	0.3
347.893	0.27
348.103	0.22
348.312	0.21
348.521	0.23
348.73	0.28
348.94	0.22
349.149	0.21
349.358	0.2
349.567	0.21
349.776	0.18
349.985	0.22
350.194	0.3
350.403	0.34
350.612	0.19
350.821	0.18
351.03	0.27
351.239	0.15
351.448	0.25
351.657	0.21
351.866	0.32
352.075	0.27
352.284	0.29
352.493	0.14
352.702	0.3
352.911	0.28
353.12	0.22
353.329	0.22
353.538	0.3
353.746	0.24
353.955	0.18
354.164	0.24
354.373	0.21
354.582	0.33
354.79	0.24
354.999	0.28
355.208	0.22
355.416	0.33
355.625	0.2
355.834	0.19
356.042	0.28
356.251	0.18
356.46	0.2
356.668	0.24
356.877	0.39
357.085	0.26
357.294	0.13
357.503	0.25
357.711	0.25
357.92	0.44
358.128	0.22
358.337	0.19
358.545	0.25
358.754	0.24
358.962	0.29
359.17	0.2
359.379	0.25
359.587	0.26
359.796	0.22
360.004	0.31
360.212	0.31
360.421	0.31
360.629	0.23
360.837	0.2
361.046	0.31
361.254	0.35
361.462	0.21
361.67	0.23
361.879	0.29
362.087	0.33
362.295	0.25
362.503	0.22
362.711	0.18
362.92	0.2
363.128	0.19
363.336	0.22
363.544	0.18
363.752	0.24
363.96	0.19
364.168	0.18
364.376	0.28
364.584	0.29
364.792	0.25
365	0.24
365.208	0.25
365.416	0.3
365.624	0.28
365.832	0.23
366.04	0.34
366.248	0.24
366.456	0.25
366.664	0.23
366.872	0.25
367.079	0.25
367.287	0.22
367.495	0.24
367.703	0.26
367.911	0.22
368.118	0.26
368.326	0.24
368.534	0.22
368.742	0.32
368.949	0.17
369.157	0.2
369.365	0.28
369.572	0.21
369.78	0.2
369.988	0.29
370.195	0.24
370.403	0.3
370.61	0.22
370.818	0.23
371.026	0.31
371.233	0.18
371.441	0.3
371.648	0.25
371.856	0.27
372.063	0.28
372.271	0.23
372.478	0.18
372.685	0.27
372.893	0.31
373.1	0.23
373.308	0.21
373.515	0.38
373.722	0.36
373.93	0.23
374.137	0.25
374.344	0.34
374.552	0.35
374.759	0.3
374.966	0.19
375.173	0.24
375.381	0.33
375.588	0.24
375.795	0.19
376.002	0.25
376.209	0.23
376.417	0.25
376.624	0.21
376.831	0.28
377.038	0.27
377.245	0.12
377.452	0.24
377.659	0.23
377.866	0.2
378.073	0.29
378.28	0.28
378.487	0.33
378.694	0.31
378.901	0.22
379.108	0.21
379.315	0.28
379.522	0.38
379.729	0.28
379.936	0.26
380.143	0.27
380.35	0.26
380.557	0.28
380.763	0.23
380.97	0.26
381.177	0.23
381.384	0.3
381.591	0.25
381.797	0.31
382.004	0.36
382.211	0.3
382.418	0.16
382.624	0.29
382.831	0.31
383.038	0.23
383.244	0.29
383.451	0.25
383.658	0.35
383.864	0.21
384.071	0.23
384.277	0.38
384.484	0.2
384.69	0.37
384.897	0.23
385.103	0.27
385.31	0.18
385.516	0.22
385.723	0.2
385.929	0.28
386.136	0.28
386.342	0.29
386.549	0.22
386.755	0.34
386.961	0.34
387.168	0.24
387.374	0.28
387.58	0.38
387.787	0.26
387.993	0.29
388.199	0.25
388.406	0.23
388.612	0.28
388.818	0.25
389.024	0.21
389.231	0.28
389.437	0.4
389.643	0.3
389.849	0.27
390.055	0.3
390.261	0.27
390.467	0.34
390.674	0.25
390.88	0.27
391.086	0.37
391.292	0.23
391.498	0.31
391.704	0.3
391.91	0.3
392.116	0.29
392.322	0.18
392.528	0.3
392.734	0.32
392.94	0.29
393.146	0.29
393.352	0.32
393.557	0.25
393.763	0.25
393.969	0.35
394.175	0.28
394.381	0.3
394.587	0.26
394.792	0.28
394.998	0.38
395.204	0.38
395.41	0.25
395.615	0.24
395.821	0.32
396.027	0.35
396.233	0.27
396.438	0.35
396.644	0.35
396.85	0.35
397.055	0.28
397.261	0.33
397.466	0.42
397.672	0.36
397.878	0.38
398.083	0.32
398.289	0.28
398.494	0.4
398.7	0.34
398.905	0.25
399.111	0.46
399.316	0.29
399.522	0.32
399.727	0.33
399.932	0.29
400.138	0.33
400.343	0.39
400.549	0.31
400.754	0.37
400.959	0.39
401.165	0.36
401.37	0.37
401.575	0.48
401.78	0.35
401.986	0.4
402.191	0.32
402.396	0.34
402.601	0.43
402.807	0.4
403.012	0.33
403.217	0.48
403.422	0.41
403.627	0.44
403.832	0.4
404.037	0.44
404.243	0.45
404.448	0.39
404.653	0.42
404.858	0.43
405.063	0.47
405.268	0.38
405.473	0.39
405.678	0.41
405.883	0.71
406.088	0.47
406.293	0.35
406.498	0.43
406.703	0.51
406.907	0.44
407.112	0.43
407.317	0.5
407.522	0.57
407.727	0.44
407.932	0.47
408.136	0.63
408.341	0.51
408.546	0.56
408.751	0.57
408.956	0.57
409.16	0.66
409.365	0.61
409.57	0.58
409.774	0.67
409.979	0.67
410.184	0.69
410.388	0.6
410.593	0.71
410.798	0.71
411.002	0.66
411.207	0.82
411.411	0.74
411.616	0.71
411.82	0.78
412.025	0.8
412.229	0.83
412.434	1
412.638	0.84
412.843	0.88
413.047	0.92
413.252	0.9
413.456	0.97
413.66	1.03
413.865	0.99
414.069	1.12
414.273	1.06
414.478	1.06
414.682	1.17
414.886	1.14
415.091	1.13
415.295	1.23
415.499	1.33
415.703	1.29
415.908	1.43
416.112	1.32
416.316	1.56
416.52	1.53
416.724	1.48
416.929	1.51
417.133	1.77
417.337	1.66
417.541	1.72
417.745	1.7
417.949	1.89
418.153	1.91
418.357	1.91
418.561	2.17
418.765	2.16
418.969	2.3
419.173	2.33
419.377	2.25
419.581	2.55
419.785	2.47
419.989	2.5
420.193	2.7
420.397	2.78
420.601	2.92
420.804	3.01
421.008	2.88
421.212	3.11
421.416	3.11
421.62	3.1
421.823	3.2
422.027	3.38
422.231	3.34
422.435	3.34
422.638	3.42
422.842	3.45
423.046	3.54
423.249	3.76
423.453	3.73
423.657	3.92
423.86	3.94
424.064	4.07
424.268	4.29
424.471	4.25
424.675	4.52
424.878	4.59
425.082	4.62
425.285	4.93
425.489	4.87
425.692	4.97
425.896	4.94
426.099	5.25
426.303	5.3
426.506	5.37
426.71	5.66
426.913	5.95
427.116	6.13
427.32	6.06
427.523	6.17
427.726	6.45
427.93	6.56
428.133	6.78
428.336	6.92
428.54	7
428.743	7.29
428.946	7.53
429.149	7.51
429.353	7.66
429.556	7.75
429.759	7.71
429.962	7.94
430.165	8.07
430.368	7.73
430.571	7.77
430.775	7.83
430.978	7.81
431.181	7.83
431.384	8.02
431.587	8.07
431.79	8.43
431.993	8.28
432.196	8.62
432.399	9
432.602	9.13
432.805	9.21
433.008	9.66
433.211	9.61
433.414	10
433.616	10.02
433.819	10.01
434.022	10.2
434.225	10.28
434.428	10.38
434.631	10.77
434.833	10.5
435.036	10.83
435.239	10.97
435.442	11.09
435.645	11.18
435.847	11.28
436.05	11.65
436.253	11.79
436.455	11.91
436.658	11.75
436.861	12.1
437.063	12.14
437.266	12.06
437.468	12.51
437.671	12.71
437.874	12.88
438.076	12.67
438.279	13.02
438.481	13.01
438.684	13.98
438.886	13.46
439.089	13.74
439.291	13.86
439.494	14.07
439.696	14.38
439.899	14.86
440.101	15.31
440.303	15.57
440.506	16.05
440.708	15.85
440.91	16.12
441.113	16.31
441.315	16.61
441.517	16.28
441.72	16.86
441.922	16.48
442.124	16.42
442.326	16.8
442.529	17.02
442.731	17.04
442.933	17.32
443.135	17.02
443.337	17.11
443.539	17.57
443.742	17.22
443.944	18.04
444.146	17.7
444.348	17.6
444.55	17.57
444.752	17.76
444.954	17.71
445.156	17.77
445.358	18.11
445.56	18.38
445.762	18.24
445.964	18.56
446.166	18.29
446.368	18.16
446.57	18.24
446.772	17.84
446.974	17.76
447.175	18.07
447.377	17.77
447.579	18.15
447.781	17.8
447.983	17.61
448.184	17.26
448.386	17.53
448.588	17.13
448.79	17.1
448.991	17.33
449.193	17.41
449.395	16.67
449.597	16.37
449.798	16.37
450	16.02
450.202	15.77
450.403	16.01
450.605	15.77
450.806	15.43
451.008	15.3
451.21	15.03
451.411	14.63
451.613	13.93
451.814	14.08
452.016	14.19
452.217	13.43
452.419	13.44
452.62	12.98
452.821	12.9
453.023	12.78
453.224	12.42
453.426	11.96
453.627	11.16
453.828	11.33
454.03	11.45
454.231	11.43
454.432	11.27
454.634	10.95
454.835	10.67
455.036	10.58
455.238	10.2
455.439	10.02
455.64	9.71
455.841	9.66
456.042	9.74
456.244	9.44
456.445	9.08
456.646	8.77
456.847	8.79
457.048	8.61
457.249	8.59
457.45	8.43
457.651	7.83
457.852	7.8
458.054	7.44
458.255	7.38
458.456	7.45
458.657	7.35
458.858	6.8
459.058	6.76
459.259	6.93
459.46	6.52
459.661	6.48
459.862	6.7
460.063	6.44
460.264	6.36
460.465	6.06
460.666	6.2
460.866	5.89
461.067	5.63
461.268	5.66
461.469	5.58
461.67	5.45
461.87	5.29
462.071	5.31
462.272	5.21
462.473	5.18
462.673	5.34
462.874	5.21
463.075	5.26
463.275	5.25
463.476	5.21
463.676	5.16
463.877	5.03
464.078	5.01
464.278	5.05
464.479	4.93
464.679	4.83
464.88	4.85
465.08	4.71
465.281	4.63
465.481	4.37
465.682	4.18
465.882	4.25
466.083	4.2
466.283	4.16
466.483	3.96
466.684	3.81
466.884	3.65
467.085	3.75
467.285	3.88
467.485	3.73
467.686	3.58
467.886	3.56
468.086	3.44
468.286	3.43
468.487	3.52
468.687	3.35
468.887	3.28
469.087	3.47
469.287	3.36
469.488	3.15
469.688	3.31
469.888	3.32
470.088	3.26
470.288	3.12
470.488	3.13
470.688	2.9
470.888	2.94
471.088	2.73
471.288	2.88
471.488	2.84
471.688	2.8
471.888	2.76
472.088	2.96
472.288	2.79
472.488	2.66
472.688	2.67
472.888	2.61
473.088	2.64
473.288	2.56
473.488	2.5
473.688	2.71
473.887	2.52
474.087	2.52
474.287	2.49
474.487	2.44
474.687	2.51
474.886	2.4
475.086	2.33
475.286	2.4
475.486	2.28
475.685	2.33
475.885	2.24
476.085	2.34
476.284	2.29
476.484	2.31
476.684	2.23
476.883	2.34
477.083	2.21
477.282	2.17
477.482	2.24
477.681	2.15
477.881	2.1
478.08	2.16
478.28	2.06
478.479	2.16
478.679	2.22
478.878	2.08
479.078	2.03
479.277	2.12
479.477	2.09
479.676	2.07
479.875	2.01
480.075	2.02
480.274	2.08
480.473	2.09
480.673	2.05
480.872	2.09
481.071	2.12
481.271	2.07
481.47	2
481.669	2.05
481.868	2.04
482.067	2
482.267	1.95
482.466	1.97
482.665	1.95
482.864	1.94
483.063	1.97
483.262	2.06
483.461	2.09
483.661	2.11
483.86	2.02
484.059	2.08
484.258	2.05
484.457	2.05
484.656	1.99
484.855	2.14
485.054	1.92
485.253	2.02
485.452	1.98
485.651	2.05
485.849	2
486.048	2.02
486.247	2.01
486.446	2.09
486.645	2.06
486.844	2.09
487.043	2.05
487.241	2.14
487.44	2.11
487.639	2.15
487.838	2.16
488.037	2.16
488.235	2.26
488.434	2.19
488.633	2.02
488.831	2.23
489.03	2.27
489.229	2.21
489.427	2.24
489.626	2.3
489.825	2.32
490.023	2.29
490.222	2.26
490.42	2.38
490.619	2.36
490.817	2.41
491.016	2.34
491.214	2.45
491.413	2.43
491.611	2.38
491.81	2.39
492.008	2.43
492.207	2.55
492.405	2.54
492.604	2.44
492.802	2.55
493	2.64
493.199	2.63
493.397	2.65
493.595	2.71
493.794	2.68
493.992	2.76
494.19	2.75
494.388	2.83
494.587	2.76
494.785	2.74
494.983	2.71
495.181	2.88
495.379	2.9
495.578	2.96
495.776	2.96
495.974	2.95
496.172	2.94
496.37	3.08
496.568	3.12
496.766	3.08
496.964	3.15
497.162	3.15
497.36	3.21
497.558	3.19
497.756	3.31
497.954	3.27
498.152	3.32
498.35	3.43
498.548	3.35
498.746	3.41
498.944	3.4
499.142	3.42
499.34	3.49
499.538	3.64
499.736	3.47
499.933	3.62
500.131	3.63
500.329	3.74
500.527	3.72
500.725	3.84
500.922	3.89
501.12	3.86
501.318	3.93
501.516	3.91
501.713	3.96
501.911	3.97
502.109	3.92
502.306	4.05
502.504	3.99
502.701	4.08
502.899	4.09
503.097	4.31
503.294	4.19
503.492	4.36
503.689	4.3
503.887	4.34
504.084	4.43
504.282	4.42
504.479	4.37
504.677	4.6
504.874	4.57
505.072	4.43
505.269	4.64
505.466	4.68
505.664	4.73
505.861	4.56
506.059	4.72
506.256	4.79
506.453	4.83
506.651	4.98
506.848	4.99
507.045	4.93
507.242	4.95
507.44	4.94
507.637	5.03
507.834	4.99
508.031	5.19
508.229	5.09
508.426	5.03
508.623	5.22
508.82	5.25
509.017	5.22
509.214	5.25
509.411	5.35
509.608	5.27
509.805	5.47
510.003	5.4
510.2	5.5
510.397	5.63
510.594	5.47
510.791	5.58
510.988	5.57
511.184	5.55
511.381	5.49
511.578	5.69
511.775	5.8
511.972	5.65
512.169	5.7
512.366	5.79
512.563	5.92
512.76	5.93
512.956	5.93
513.153	5.93
513.35	5.85
513.547	5.85
513.744	5.97
513.94	6.02
514.137	6.09
514.334	6.1
514.53	6.13
514.727	6.33
514.924	6.2
515.12	6.25
515.317	6.25
515.514	6.21
515.71	6.12
515.907	6.39
516.103	6.39
516.3	6.29
516.497	6.41
516.693	6.44
516.89	6.45
517.086	6.46
517.283	6.5
517.479	6.34
517.676	6.5
517.872	6.6
518.068	6.59
518.265	6.57
518.461	6.53
518.658	6.66
518.854	6.65
519.05	6.73
519.247	6.76
519.443	6.72
519.639	6.88
519.836	6.74
520.032	6.61
520.228	6.86
520.424	6.84
520.621	6.91
520.817	6.94
521.013	6.82
521.209	7.07
521.405	7.06
521.601	6.99
521.798	6.93
521.994	6.98
522.19	6.89
522.386	6.96
522.582	7.09
522.778	7.19
522.974	7.08
523.17	7.1
523.366	7.08
523.562	7.12
523.758	7.11
523.954	7.03
524.15	7.15
524.346	7.17
524.542	7.21
524.738	7.13
524.934	7.27
525.129	7.29
525.325	7.18
525.521	7.21
525.717	7.43
525.913	7.29
526.109	7.32
526.304	7.37
526.5	7.35
526.696	7.38
526.892	7.29
527.087	7.51
527.283	7.45
527.479	7.41
527.674	7.28
527.87	7.52
528.066	7.43
528.261	7.45
528.457	7.43
528.653	7.53
528.848	7.53
529.044	7.61
529.239	7.49
529.435	7.41
529.63	7.46
529.826	7.56
530.021	7.5
530.217	7.56
530.412	7.49
530.608	7.55
530.803	7.6
530.999	7.42
531.194	7.58
531.389	7.69
531.585	7.62
531.78	7.79
531.975	7.66
532.171	7.66
532.366	7.64
532.561	7.67
532.757	7.61
532.952	7.8
533.147	7.62
533.342	7.67
533.538	7.59
533.733	7.87
533.928	7.51
534.123	7.72
534.318	7.74
534.513	7.74
534.709	7.82
534.904	7.77
535.099	7.85
535.294	7.83
535.489	7.84
535.684	7.79
535.879	7.78
536.074	7.89
536.269	7.85
536.464	7.89
536.659	7.81
536.854	7.83
537.049	7.85
537.244	7.86
537.439	7.83
537.634	7.83
537.828	7.93
538.023	7.88
538.218	7.95
538.413	7.77
538.608	7.86
538.803	7.89
538.997	7.78
539.192	7.95
539.387	7.84
539.582	7.85
539.776	7.8
539.971	8.01
540.166	7.97
540.36	7.87
540.555	8
540.75	7.96
540.944	7.99
541.139	7.96
541.334	7.91
541.528	7.96
541.723	8
541.917	7.99
542.112	7.89
542.306	7.9
542.501	7.91
542.695	7.88
542.89	7.95
543.084	7.92
543.279	8
543.473	8.05
543.668	8.02
543.862	7.84
544.056	7.89
544.251	8.01
544.445	8.08
544.64	8.11
544.834	7.75
545.028	7.64
545.222	8.05
545.417	8.16
545.611	8.09
545.805	8.02
546	7.83
546.194	8.02
546.388	8.06
546.582	7.95
546.776	7.94
546.97	7.99
547.165	8
547.359	8.01
547.553	7.94
547.747	8
547.941	8.16
548.135	8.08
548.329	8.04
548.523	8.04
548.717	8
548.911	7.95
549.105	7.99
549.299	8.11
549.493	8.07
549.687	7.95
549.881	8.1
550.075	8.03
550.269	7.97
550.463	8.09
550.657	8.06
550.85	8.01
551.044	8.01
551.238	8.08
551.432	7.99
551.626	8.12
551.82	8.07
552.013	7.98
552.207	8.13
552.401	8.15
552.594	7.98
552.788	8.02
552.982	8.05
553.176	7.9
553.369	8.14
553.563	8.1
553.756	8.06
553.95	8.08
554.144	8.08
554.337	8.07
554.531	7.9
554.724	8.09
554.918	8.16
555.111	8.01
555.305	8.04
555.498	8.04
555.692	8.17
555.885	8.1
556.079	8.02
556.272	8.04
556.466	8.09
556.659	8.02
556.852	8.11
557.046	7.98
557.239	7.95
557.432	8.03
557.626	8.11
557.819	8.13
558.012	8.04
558.206	8.17
558.399	8.09
558.592	8.01
558.785	8.01
558.979	8.09
559.172	8.02
559.365	8.07
559.558	7.94
559.751	7.97
559.944	8.13
560.138	8
560.331	8.11
560.524	8.13
560.717	8.02
560.91	8.04
561.103	8.08
561.296	7.93
561.489	8.08
561.682	8.14
561.875	8.09
562.068	8.2
562.261	8.04
562.454	8.2
562.647	8.09
562.84	8.15
563.032	8.05
563.225	7.97
563.418	8.09
563.611	8.12
563.804	8.07
563.997	7.95
564.19	7.78
564.382	8.12
564.575	8.02
564.768	7.97
564.961	8.1
565.153	8.02
565.346	7.97
565.539	8.09
565.731	8.08
565.924	8.12
566.117	8.18
566.309	8.07
566.502	8
566.695	7.97
566.887	8.08
567.08	8.01
567.272	8.13
567.465	7.95
567.657	8.08
567.85	7.99
568.042	8.05
568.235	8.14
568.427	7.89
568.62	8.03
568.812	7.94
569.005	8.06
569.197	7.87
569.389	8.04
569.582	8.03
569.774	8.02
569.966	7.9
570.159	7.85
570.351	7.9
570.543	7.94
570.736	7.97
570.928	7.81
571.12	7.98
571.312	7.89
571.505	7.76
571.697	7.99
571.889	7.97
572.081	7.89
572.273	7.84
572.465	7.97
572.658	7.99
572.85	7.99
573.042	7.93
573.234	7.9
573.426	7.91
573.618	7.86
573.81	7.96
574.002	7.9
574.194	7.94
574.386	7.85
574.578	7.78
574.77	7.84
574.962	7.93
575.154	7.72
575.346	7.81
575.538	7.85
575.729	7.72
575.921	7.84
576.113	7.89
576.305	7.87
576.497	7.92
576.689	7.7
576.88	7.74
577.072	7.9
577.264	7.82
577.456	7.82
577.647	7.77
577.839	7.99
578.031	7.78
578.223	7.76
578.414	7.67
578.606	7.78
578.798	7.86
578.989	7.77
579.181	7.85
579.372	7.79
579.564	7.78
579.755	7.7
579.947	7.66
580.139	7.81
580.33	7.61
580.522	7.79
580.713	7.7
580.905	7.67
581.096	7.78
581.287	7.65
581.479	7.66
581.67	7.71
581.862	7.63
582.053	7.64
582.244	7.49
582.436	7.76
582.627	7.65
582.818	7.54
583.01	7.6
583.201	7.63
583.392	7.5
583.583	7.61
583.775	7.36
583.966	7.58
584.157	7.58
584.348	7.66
584.54	7.52
584.731	7.62
584.922	7.48
585.113	7.4
585.304	7.51
585.495	7.55
585.686	7.61
585.877	7.51
586.068	7.64
586.259	7.47
586.45	7.54
586.641	7.4
586.832	7.55
587.023	7.45
587.214	7.4
587.405	7.45
587.596	7.33
587.787	7.36
587.978	7.34
588.169	7.35
588.36	7.29
588.551	7.32
588.742	7.45
588.932	7.37
589.123	7.14
589.314	7.43
589.505	7.28
589.696	7.32
589.886	7.33
590.077	7.3
590.268	7.26
590.458	7.19
590.649	6.99
590.84	7.26
591.03	7.25
591.221	7.16
591.412	7.09
591.602	7.29
591.793	7.15
591.984	7.22
592.174	7.12
592.365	7.31
592.555	7.03
592.746	7.08
592.936	7.07
593.127	7.17
593.317	7.16
593.508	7.14
593.698	7.05
593.889	7.04
594.079	7.03
594.269	6.94
594.46	6.96
594.65	7.09
594.84	7.01
595.031	6.9
595.221	6.92
595.411	6.93
595.602	6.99
595.792	6.83
595.982	6.86
596.172	7.02
596.363	6.83
596.553	6.84
596.743	6.83
596.933	6.9
597.123	6.84
597.314	6.72
597.504	6.66
597.694	6.88
597.884	6.76
598.074	6.8
598.264	6.7
598.454	6.78
598.644	6.7
598.834	6.7
599.024	6.62
599.214	6.65
599.404	6.69
599.594	6.69
599.784	6.54
599.974	6.69
600.164	6.64
600.354	6.59
600.544	6.47
600.734	6.64
600.924	6.52
601.114	6.49
601.303	6.46
601.493	6.49
601.683	6.49
601.873	6.52
602.063	6.41
602.252	6.51
602.442	6.38
602.632	6.4
602.821	6.33
603.011	6.45
603.201	6.41
603.39	6.33
603.58	6.28
603.77	6.34
603.959	6.42
604.149	6.28
604.339	6.3
604.528	6.34
604.718	6.39
604.907	6.25
605.097	6.21
605.286	6.16
605.476	6.22
605.665	6.26
605.855	6.2
606.044	6.26
606.234	6.2
606.423	6.12
606.612	6.14
606.802	6.06
606.991	6.16
607.181	6.15
607.37	6.07
607.559	5.87
607.749	6.05
607.938	5.96
608.127	6.02
608.316	5.97
608.506	5.95
608.695	6.05
608.884	5.96
609.073	5.89
609.263	6.03
609.452	5.93
609.641	5.79
609.83	5.78
610.019	5.93
610.208	5.75
610.397	5.8
610.586	5.76
610.775	5.79
610.965	5.76
611.154	5.64
611.343	5.79
611.532	5.67
611.721	5.76
611.91	5.65
612.099	5.62
612.287	5.56
612.476	5.52
612.665	5.68
612.854	5.54
613.043	5.57
613.232	5.48
613.421	5.46
613.61	5.55
613.798	5.58
613.987	5.58
614.176	5.5
614.365	5.54
614.554	5.45
614.742	5.55
614.931	5.31
615.12	5.5
615.309	5.48
615.497	5.36
615.686	5.22
615.875	5.35
616.063	5.33
616.252	5.26
616.44	5.36
616.629	5.27
616.818	5.27
617.006	5.22
617.195	5.2
617.383	5.2
617.572	5.11
617.76	5.06
617.949	5.21
618.137	5.26
618.326	5.22
618.514	4.95
618.703	4.95
618.891	5.12
619.079	4.95
619.268	5.11
619.456	4.99
619.644	5.1
619.833	4.99
620.021	5.01
620.209	4.88
620.398	5.02
620.586	4.86
620.774	4.94
620.962	4.85
621.151	4.96
621.339	4.87
621.527	4.75
621.715	4.79
621.903	4.81
622.092	4.74
622.28	4.88
622.468	4.7
622.656	4.75
622.844	4.74
623.032	4.73
623.22	4.66
623.408	4.81
623.596	4.7
623.784	4.74
623.972	4.57
624.16	4.59
624.348	4.63
624.536	4.69
624.724	4.55
624.912	4.61
625.1	4.61
625.288	4.58
625.476	4.5
625.664	4.59
625.851	4.48
626.039	4.51
626.227	4.5
626.415	4.46
626.603	4.31
626.79	4.45
626.978	4.36
627.166	4.43
627.354	4.31
627.541	4.35
627.729	4.25
627.917	4.5
628.104	4.38
628.292	4.26
628.48	4.31
628.667	4.22
628.855	4.32
629.042	4.31
629.23	4.23
629.418	4.27
629.605	4.2
629.793	4.12
629.98	4.13
630.168	4.11
630.355	4.14
630.543	4.18
630.73	4.1
630.917	4.09
631.105	4.23
631.292	4.07
631.48	4.09
631.667	4.16
631.854	4.07
632.042	4
632.229	3.94
632.416	4.02
632.604	3.98
632.791	3.87
632.978	3.92
633.165	3.92
633.353	3.99
633.54	3.97
633.727	3.77
633.914	3.79
634.101	3.73
634.289	3.89
634.476	3.75
634.663	3.72
634.85	3.74
635.037	3.71
635.224	3.65
635.411	3.79
635.598	3.67
635.785	3.64
635.972	3.64
636.159	3.67
636.346	3.61
636.533	3.57
636.72	3.61
636.907	3.62
637.094	3.63
637.281	3.51
637.468	3.52
637.655	3.54
637.842	3.54
638.029	3.46
638.215	3.49
638.402	3.56
638.589	3.39
638.776	3.44
638.963	3.4
639.149	3.52
639.336	3.5
639.523	3.38
639.709	3.39
639.896	3.34
640.083	3.4
640.27	3.41
640.456	3.29
640.643	3.37
640.829	3.25
641.016	3.32
641.203	3.17
641.389	3.23
641.576	3.28
641.762	3.22
641.949	3.15
642.135	3.22
642.322	3.2
642.508	3.07
642.695	3.17
642.881	3.15
643.068	3.08
643.254	3.15
643.441	3.21
643.627	3.21
643.813	3.07
644	3.09
644.186	2.97
644.372	3.05
644.559	3.08
644.745	3
644.931	2.98
645.118	2.98
645.304	2.98
645.49	2.97
645.676	2.98
645.862	2.93
646.049	3.04
646.235	2.9
646.421	3.07
646.607	3.02
646.793	2.89
646.979	2.87
647.165	2.86
647.352	2.87
647.538	2.84
647.724	2.8
647.91	2.8
648.096	2.83
648.282	2.84
648.468	2.73
648.654	2.83
648.84	2.8
649.026	2.78
649.212	2.7
649.397	2.66
649.583	2.67
649.769	2.76
649.955	2.65
650.141	2.7
650.327	2.72
650.513	2.61
650.698	2.68
650.884	2.5
651.07	2.62
651.256	2.6
651.442	2.59
651.627	2.51
651.813	2.63
651.999	2.55
652.184	2.57
652.37	2.5
652.556	2.52
652.741	2.61
652.927	2.44
653.113	2.49
653.298	2.51
653.484	2.48
653.669	2.44
653.855	2.41
654.04	2.47
654.226	2.47
654.412	2.39
654.597	2.32
654.782	2.45
654.968	2.44
655.153	2.39
655.339	2.3
655.524	2.31
655.71	2.36
655.895	2.35
656.08	2.3
656.266	2.45
656.451	2.29
656.636	2.26
656.822	2.3
657.007	2.27
657.192	2.32
657.378	2.26
657.563	2.28
657.748	2.26
657.933	2.25
658.118	2.14
658.304	2.13
658.489	2.22
658.674	2.25
658.859	2.13
659.044	2.1
659.229	2.2
659.414	2.09
659.599	2.1
659.785	2.04
659.97	2.09
660.155	2.13
660.34	2.14
660.525	2.09
660.71	2.07
660.895	2.14
661.08	2.04
661.264	1.99
661.449	2.05
661.634	2.08
661.819	2.09
662.004	2.05
662.189	1.95
662.374	1.99
662.559	1.94
662.743	1.89
662.928	1.97
663.113	1.95
663.298	1.88
663.483	1.92
663.667	1.94
663.852	1.88
664.037	1.94
664.221	1.87
664.406	1.93
664.591	1.93
664.775	1.91
664.96	1.89
665.145	1.87
665.329	1.92
665.514	1.85
665.698	1.83
665.883	1.78
666.068	1.89
666.252	1.82
666.437	1.74
666.621	1.79
666.806	1.86
666.99	1.76
667.174	1.74
667.359	1.85
667.543	1.76
667.728	1.76
667.912	1.64
668.096	1.77
668.281	1.66
668.465	1.75
668.649	1.71
668.834	1.71
669.018	1.72
669.202	1.69
669.387	1.62
669.571	1.74
669.755	1.62
669.939	1.6
670.124	1.65
670.308	1.66
670.492	1.7
670.676	1.62
670.86	1.61
671.044	1.61
671.228	1.62
671.413	1.56
671.597	1.55
671.781	1.59
671.965	1.63
672.149	1.59
672.333	1.58
672.517	1.54
672.701	1.6
672.885	1.55
673.069	1.44
673.253	1.61
673.437	1.56
673.621	1.43
673.804	1.55
673.988	1.58
674.172	1.49
674.356	1.39
674.54	1.49
674.724	1.61
674.908	1.5
675.091	1.52
675.275	1.44
675.459	1.51
675.643	1.39
675.826	1.49
676.01	1.41
676.194	1.46
676.377	1.47
676.561	1.5
676.745	1.43
676.928	1.47
677.112	1.46
677.296	1.37
677.479	1.41
677.663	1.38
677.846	1.44
678.03	1.36
678.213	1.33
678.397	1.42
678.58	1.37
678.764	1.32
678.947	1.26
679.131	1.31
679.314	1.4
679.498	1.34
679.681	1.4
679.865	1.33
680.048	1.25
680.231	1.28
680.415	1.23
680.598	1.34
680.781	1.26
680.965	1.26
681.148	1.34
681.331	1.22
681.514	1.33
681.698	1.21
681.881	1.27
682.064	1.33
682.247	1.24
682.43	1.14
682.614	1.25
682.797	1.32
682.98	1.26
683.163	1.15
683.346	1.19
683.529	1.2
683.712	1.14
683.895	1.22
684.078	1.1
684.261	1.16
684.444	1.26
684.627	1.2
684.81	1.08
684.993	1.15
685.176	1.18
685.359	1.07
685.542	1.12
685.725	1.25
685.908	1.14
686.091	1.18
686.274	1.18
686.457	1.19
686.639	1.14
686.822	1.17
687.005	1.09
687.188	1.18
687.371	1.26
687.553	1.18
687.736	1.15
687.919	1.25
688.102	1.24
688.284	1.04
688.467	1.03
688.65	1.12
688.832	0.98
689.015	1.03
689.197	0.93
689.38	1.16
689.563	1.17
689.745	0.97
689.928	0.96
690.11	1.02
690.293	1.09
690.475	0.97
690.658	0.99
690.84	0.96
691.023	1
691.205	0.91
691.388	0.95
691.57	1.06
691.752	1.01
691.935	0.95
692.117	0.98
692.3	1.04
692.482	0.97
692.664	0.96
692.847	0.94
693.029	1
693.211	1.01
693.393	0.94
693.576	0.9
693.758	0.99
693.94	0.97
694.122	0.94
694.304	0.94
694.487	0.93
694.669	1.02
694.851	0.82
695.033	0.9
695.215	0.83
695.397	0.85
695.579	0.85
695.761	0.85
695.943	0.78
696.125	1.02
696.308	0.94
696.49	0.78
696.671	1.03
696.853	0.92
697.035	1.16
697.217	0.85
697.399	0.99
697.581	0.82
697.763	0.82
697.945	0.81
698.127	0.91
698.309	0.96
698.491	0.86
698.672	0.86
698.854	0.91
699.036	0.96
699.218	0.84
699.399	0.91
699.581	0.95
699.763	0.83
699.945	0.7
700.126	0.71
700.308	0.79
700.49	0.78
700.671	0.67
700.853	0.75
701.035	0.77
701.216	0.86
701.398	0.72
701.579	0.78
701.761	0.86
701.943	0.75
702.124	0.69
702.306	0.72
702.487	0.96
702.669	0.78
702.85	0.68
703.031	0.65
703.213	0.91
703.394	0.8
703.576	0.73
703.757	0.93
703.938	0.84
704.12	1
704.301	0.75
704.483	0.66
704.664	0.75
704.845	0.91
705.026	0.77
705.208	0.71
705.389	0.81
705.57	0.74
705.751	0.7
705.933	0.74
706.114	0.9
706.295	0.77
706.476	0.67
706.657	0.83
706.838	0.83
707.02	0.82
707.201	0.66
707.382	0.67
707.563	0.76
707.744	0.66
707.925	0.58
708.106	0.66
708.287	0.75
708.468	0.82
708.649	0.72
708.83	0.75
709.011	0.64
709.192	0.73
709.373	0.56
709.554	0.66
709.734	0.81
709.915	0.8
710.096	0.75
710.277	0.56
710.458	0.61
710.639	0.71
710.819	0.51
711	0.64
711.181	0.75
711.362	0.74
711.542	0.69
711.723	0.71
711.904	0.76
712.085	0.71
712.265	0.64
712.446	0.58
712.627	0.63
712.807	0.69
712.988	0.66
713.168	0.57
713.349	0.68
713.53	0.48
713.71	0.53
713.891	0.5
714.071	0.63
714.252	0.58
714.432	0.66
714.613	0.5
714.793	0.62
714.974	0.79
715.154	0.7
715.334	0.64
715.515	0.81
715.695	0.5
715.876	0.57
716.056	0.54
716.236	0.54
716.417	0.56
716.597	0.48
716.777	0.85
716.957	0.65
717.138	0.69
717.318	0.59
717.498	0.5
717.678	0.54
717.859	0.57
718.039	0.44
718.219	0.58
718.399	0.54
718.579	0.5
718.759	0.41
718.939	0.57
719.12	0.66
719.3	0.59
719.48	0.33
719.66	0.39
719.84	0.68
720.02	0.54
720.2	0.48
720.38	0.52
720.56	0.66
720.74	0.46
720.92	0.54
721.1	0.68
721.279	0.66
721.459	0.6
721.639	0.49
721.819	0.51
721.999	0.53
722.179	0.58
722.359	0.46
722.538	0.51
722.718	0.58
722.898	0.42
723.078	0.46
723.257	0.46
723.437	0.55
723.617	0.64
723.797	0.52
723.976	0.55
724.156	0.59
724.336	0.55
724.515	0.74
724.695	0.4
724.874	0.51
725.054	0.63
725.234	0.49
725.413	0.49
725.593	0.52
725.772	0.48
725.952	0.43
726.131	0.48
726.311	0.52
726.49	0.53
726.67	0.38
726.849	0.48
727.028	0.59
727.208	0.52
727.387	0.43
727.567	0.3
727.746	0.49
727.925	0.43
728.105	0.38
728.284	0.42
728.463	0.56
728.643	0.53
728.822	0.37
729.001	0.45
729.18	0.45
729.359	0.56
729.539	0.49
729.718	0.47
729.897	0.56
730.076	0.43
730.255	0.34
730.434	0.41
730.614	0.63
730.793	0.56
730.972	0.45
731.151	0.51
731.33	0.61
731.509	0.51
731.688	0.43
731.867	0.49
732.046	0.32
732.225	0.75
732.404	0.29
732.583	0.28
732.762	0.48
732.941	0.54
733.12	0.5
733.298	0.41
733.477	0.63
733.656	0.4
733.835	0.43
734.014	0.53
734.193	0.59
734.371	0.55
734.55	0.56
734.729	0.19
734.908	0.41
735.086	0.53
735.265	0.52
735.444	0.27
735.623	0.37
735.801	0.39
735.98	0.35
736.159	0.32
736.337	0.58
736.516	0.5
736.694	0.52
736.873	0.53
737.052	0.72
737.23	0.72
737.409	0.44
737.587	0.71
737.766	0.39
737.944	0.47
738.123	0.49
738.301	0.47
738.479	0.45
738.658	0.52
738.836	0.25
739.015	0.46
739.193	0.55
739.371	0.21
739.55	0.47
739.728	0.46
739.906	0.66
740.085	0.64
740.263	0.47
740.441	0.19
740.62	0.87
740.798	0.55
740.976	0.34
741.154	0.32
741.332	0.67
741.511	0.4
741.689	0.41
741.867	0.53
742.045	0.5
742.223	0.41
742.401	0.44
742.579	0.26
742.757	0.7
742.935	0.28
743.114	0.44
743.292	0.4
743.47	0.45
743.648	0.53
743.826	0.29
744.004	0.47
744.181	0.55
744.359	0.36
744.537	0.49
744.715	0.41
744.893	0.46
745.071	0.58
745.249	0.43
745.427	0.36
745.605	0.62
745.782	0.33
745.96	0.51
746.138	0.56
746.316	0.57
746.493	0.39
746.671	0.45
746.849	0.36
747.027	0.58
747.204	0.27
747.382	0.42
747.56	0.26
747.737	0.38
747.915	0.49
748.093	0.44
748.27	0.34
748.448	0.43
748.625	0.22
748.803	0.41
748.98	0.35
749.158	0.48
749.335	0.55
749.513	0.41
749.69	0.36
749.868	0.38
750.045	0.42
750.223	0.22
750.4	0.15
750.578	0.61
750.755	0.39
750.932	0.25
751.11	0.49
751.287	0.31
751.464	0.58
751.642	0.3
751.819	0.39
751.996	0.47
752.173	0.37
752.351	0.2
752.528	0.32
752.705	0.37
752.882	0.31
753.06	0.33
753.237	0.32
753.414	0.65
753.591	0.7
753.768	0.31
753.945	0.38
754.122	0.28
754.299	0.39
754.476	0.31
754.654	0.3
754.831	0.45
755.008	0.39
755.185	0.4
755.362	0.23
755.539	0.41
755.716	0.37
755.892	0.36
756.069	0.34
756.246	0.34
756.423	0.38
756.6	0.51
756.777	0.23
756.954	0.57
757.131	0.38
757.307	0.33
757.484	0.23
757.661	0.33
757.838	0.43
758.015	0.29
758.191	0.48
758.368	0.43
758.545	0.5
758.721	0.49
758.898	0.17
759.075	0.4
759.251	0.54
759.428	0.46
759.605	0.15
759.781	0.31
759.958	0.37
760.134	0.43
760.311	0.22
760.488	0.59
760.664	0.47
760.841	0.32
761.017	0.16
761.194	0.51
761.37	0.54
761.547	0.37
761.723	0.19
761.899	0.59
762.076	0.24
762.252	0.18
762.429	0.31
762.605	0.48
762.781	0.44
762.958	0.39
763.134	0.33
763.31	0.27
763.486	0.61
763.663	0.06
763.839	0.41
764.015	0.11
764.191	0.31
764.368	0.34
764.544	0.24
764.72	0.38
764.896	0.44
765.072	0.36
765.248	0.37
765.425	0.19
765.601	0.31
765.777	0.27
765.953	-0.02
766.129	0.34
766.305	0.31
766.481	0.53
766.657	0.4
766.833	0.54
767.009	0.19
767.185	0.29
767.361	0.28
767.537	0.27
767.713	0.48
767.889	0.26
768.065	0.25
768.24	0.57
768.416	0.45
768.592	0.31
768.768	0.41
768.944	0.44
769.12	0.24
769.295	0.22
769.471	0.38
769.647	0.43
769.823	0.49
769.998	0.22
770.174	0.14
770.35	0.74
770.525	0.65
770.701	0.48
770.877	0.24
771.052	0.18
771.228	0.47
771.403	0.33
771.579	0.4
771.755	0.82
771.93	0.38
772.106	0.12
772.281	-0.01
772.457	0.31
772.632	0.45
772.808	0.03
772.983	0.25
773.159	0.04
773.334	0.68
773.509	0.5
773.685	0.29
773.86	0.8
774.036	0.56
774.211	0.37
774.386	0.24
774.562	0.3
774.737	0.64
774.912	0.29
775.087	0.37
775.263	0.37
775.438	0.42
775.613	0.29
775.788	0.32
775.964	0.41
776.139	0.92
776.314	0.17
776.489	0.31
776.664	0.37
776.839	0.13
777.014	0.49
777.19	0.57
777.365	0.72
777.54	0.81
777.715	0.1
777.89	0.28
778.065	0.26
778.24	0.34
778.415	0.56
778.59	0.05
778.765	0.31
778.94	0.51
779.115	0.36
779.289	0.27
779.464	0.32
779.639	0.36
779.814	0.09
779.989	0.09
780.164	0.54
780.339	0.38
780.513	0.43
780.688	0.19
780.863	0.51
781.038	0.83
781.212	0.12
781.387	0.36
781.562	0.79
781.737	0.33
781.911	0.68
782.086	0.17
782.261	0.39
782.435	0.85
782.61	0.31
782.784	0.21
782.959	0.59
783.134	0.29
783.308	-0.08
783.483	0.26
783.657	0.88
783.832	0.66
784.006	0.16
784.181	0.42
784.355	0.62
784.53	0.33
784.704	0.11
784.878	0.67
785.053	0.7
785.227	0.81
785.402	0.88
785.576	0.33
785.75	0.63
785.925	0.26
786.099	0.47
786.273	0.55
786.448	0.74
786.622	0.65
786.796	0.49
786.97	0.18
787.145	0.99
787.319	0.1
787.493	0.32
787.667	-0.06
787.841	0.47
788.015	0.78
788.19	0.36
788.364	0.28
788.538	0.74
788.712	0.67
788.886	0.38
789.06	0.55
789.234	0.62
789.408	0.27
789.582	0.4
789.756	0.14
789.93	0.33
790.104	0.27
790.278	0.4
790.452	-0.02
790.626	0.54
790.8	0.28
790.973	0.59
791.147	0.59
791.321	0.73
791.495	0.76
791.669	0.4
791.843	0.55
792.016	0.61
792.19	1.04
792.364	0.19
792.538	1.18
792.711	0.61
792.885	0.27
793.059	0.11
793.233	-0.13
793.406	0.75
793.58	0.48
793.754	0.4
793.927	0.28
794.101	0.72
794.274	0.54
794.448	0.53
794.622	0.12
794.795	0.93
794.969	0.36
795.142	0.77
795.316	-0.03
795.489	0.16
795.663	0.92
795.836	0.46
796.009	0.07
796.183	0.73
796.356	0.6
796.53	0.55
796.703	0.18
796.876	0.93
797.05	0.27
797.223	0.33
797.396	0.51
797.57	0.3
797.743	1.11
797.916	0.49
798.09	0.4
798.263	0.69
798.436	0.61
798.609	0.41
798.782	0.45
798.956	0.74
799.129	0.52
799.302	0.29
799.475	0.15
799.648	0.25
799.821	0.26
799.994	0.26
800.167	-0.06
800.34	0.58
800.514	0.15
800.687	0.31
800.86	-0.02
801.033	0.74
801.206	0.69
801.379	0.13
801.551	0.76
801.724	0.82
801.897	1.16
802.07	0.16
802.243	-0.02
802.416	0.62
802.589	0.53
802.762	0.33
802.935	0.47
803.107	0.68
803.28	0.67
803.453	0.95
803.626	0.38
803.798	0.64
803.971	0.21
804.144	0.54
804.317	0.62
804.489	0.94
804.662	0.67
804.835	0.55
805.007	0.15
805.18	1.07
805.353	0.37
805.525	0.19
805.698	0.37
805.87	0.91
806.043	0.71
806.215	0.03
806.388	0.31
806.56	0.64
806.733	0.92
806.905	0.53
807.078	0.19
807.25	0.32
807.423	0.85
807.595	0.44
807.768	0.47
807.94	1
808.112	1
808.285	0.58
808.457	0.21
808.629	0.47
808.802	1
808.974	0.42
809.146	0.25
809.318	0.61
809.491	0.55
809.663	0.45
809.835	0.38
810.007	0.74
810.18	0.33
810.352	-0.13
810.524	0.3
810.696	1.04
810.868	0.85
811.04	0.38
811.212	0.46
811.384	0.88
811.556	0.94
811.728	0.32
811.901	1.29
812.073	0.92
812.245	1.18
812.417	0.4
812.589	-0.19
812.76	0.59
812.932	1.02
813.104	0.69
813.276	0.5
813.448	0.99
813.62	0.9
813.792	0.44
813.964	0.56
814.136	0.49
814.307	0.31
814.479	0.1
814.651	0.37
814.823	1.56
814.995	0.26
815.166	0.53
815.338	0.38
815.51	0.06
815.681	1.57
815.853	1
816.025	0.51
816.196	1.54
816.368	1.44
816.54	0.26
816.711	0.72
816.883	1.01
817.054	2
817.226	0.38
817.398	1
817.569	0.02
817.741	0.63
817.912	0.22
818.084	0.34
818.255	1.53
818.426	0.09
818.598	0.76
818.769	0.18
818.941	0.82
819.112	1.21
819.283	0.9
819.455	0.09
819.626	0.32
819.798	0.91
819.969	0.52
820.14	0.39
820.311	0.79
820.483	0.66
820.654	0.63
820.825	0.55
820.996	0.73
821.168	0.36
821.339	0.61
821.51	-0.32
821.681	0.56
821.852	0.72
822.023	0.11
822.195	-0.36
822.366	1.36
822.537	1.04
822.708	0.45
822.879	0.6
823.05	1.74
823.221	0.65
823.392	0.93
823.563	0.43
823.734	0.55
823.905	0.76
824.076	-0.11
824.247	0.12
824.418	0.15
824.589	1.26
824.759	1
824.93	0.4
825.101	-0.18
825.272	1.84
825.443	0.91
825.614	1.7
825.784	0.01
825.955	2.43
826.126	1.53
826.297	0.5
826.467	1.94
826.638	2
826.809	0.01
826.98	0.84
827.15	1.04
827.321	0.24
827.492	1.49
827.662	0.79
827.833	2.04
828.003	1.29
828.174	-0.01
828.345	-0.11
828.515	1.51
828.686	1.06
828.856	0.61
829.027	0.73
829.197	0.99
829.368	1.5
829.538	0.09
829.709	0.56
829.879	0.97
830.049	1.14
830.22	0.77
830.39	0.61
830.56	2.09
830.731	1.6
830.901	0.39
831.072	0.89
831.242	1.26
831.412	1.45
831.582	0.57
831.753	-0.18
831.923	1.57
832.093	0.87
832.263	0.49
832.434	0.2
832.604	0.33
832.774	1.82
832.944	0.83
833.114	0.43
833.284	1.16
833.454	0.59
833.624	0.41
833.795	0.41
833.965	2.02
834.135	1.48
834.305	-0.7
834.475	-0.34
834.645	0.97
834.815	1.02
834.985	0.16
835.155	0.29
835.325	1.73
835.494	1.68
835.664	0.48
835.834	-0.01
836.004	0.63
836.174	0.75
836.344	0.29
836.514	-0.37
836.684	0.96
836.853	0.8
837.023	1.22
837.193	0.53
837.363	1.98
837.532	1.42
837.702	0.59
837.872	0.38
838.041	2.06
838.211	2.69
838.381	-0.13
838.55	0.22
838.72	4.23
838.89	2.1
839.059	0.74
839.229	0.02
839.398	3.18
839.568	1.19
839.738	0.54
839.907	1.83
840.077	1.21
840.246	0.23
840.416	-0.01
840.585	-0.11
840.755	2.2
840.924	2.14
841.093	-0.11
841.263	0.69
841.432	1.2
841.602	0.94
841.771	0.27
841.94	0.94
842.11	2.98
842.279	3.18
842.448	0.4
842.617	-0.37
842.787	2.79
842.956	-0.04
843.125	0.76
843.294	0.28
843.464	2.34
843.633	0.99
843.802	-0.43
843.971	0.27
844.14	1.88
844.309	2.51
844.479	-0.34
844.648	-0.28
844.817	1.04
844.986	1.47
845.155	0.72
845.324	1.12
845.493	0.97
845.662	0.37
845.831	1.54
846	1.57
846.169	0.65
846.338	2.47
846.507	0.63
846.676	0.8
846.844	1.25
847.013	1.51
847.182	1.53
847.351	0.71
847.52	0.41
847.689	1.26
847.858	0.67
848.026	0.8
848.195	1.65
848.364	0.65
848.533	0.23
848.701	0.99
848.87	1.33
849.039	1.95
849.207	1.32
849.376	2.67
849.545	3.9
849.713	0.82
849.882	1.28
850.051	0.85
850.219	1.44
850.388	1.84
850.556	-0.05
850.725	0.51
850.893	0.95
851.062	1.69
851.23	1.6
851.399	-0.01
851.567	1.35
851.736	1.29
851.904	-0.27
852.073	0.94
852.241	1.84
852.41	0.76
852.578	0.99
852.746	0.45
852.915	1.92
853.083	0.63
853.251	-0.39
853.42	-0.04
853.588	0.97
853.756	2.78
853.924	0.94
854.093	0.96
854.261	1.86
854.429	-0.69
854.597	1.49
854.765	0.24
854.934	2.7
855.102	2.73
855.27	1.16
855.438	1.96
855.606	2.73
855.774	2.52
855.942	-0.65
856.11	-0.03
856.278	2.7
856.446	1.98
856.614	0.44
856.782	-0.85
856.95	2.53
857.118	2.7
857.286	2.44
857.454	0.25
857.622	2.33
857.79	2.97
857.958	-0.14
858.126	0.18
858.294	-1.02
858.462	1.7
858.629	0.39
858.797	0.45
858.965	1.29
859.133	2.52
859.301	1.79
859.468	0.58
859.636	2.14
859.804	5.18
859.971	1.28
860.139	0.44
860.307	2.16
860.474	2.64
860.642	0.53
860.81	-0.45
860.977	1.65
861.145	3.17
861.313	1.84
861.48	0.42
861.648	2.35
861.815	0.37
861.983	-0.22
862.15	0.12
862.318	3.34
862.485	2.84
862.653	0.32
862.82	-0.56
862.988	3.1
863.155	2.63
863.322	0.25
863.49	0.72
863.657	1.76
863.824	3.33
863.992	1.85
864.159	2
864.326	4.61
864.494	0.63
864.661	3.27
864.828	0.45
864.996	4.3
865.163	4.89
865.33	0.12
865.497	-2.35
865.664	0.05
865.832	-0.43
865.999	1.04
866.166	0.01
866.333	0.8
866.5	0.5
866.667	0.05
866.834	1.06
867.001	5.3
867.168	-1.36
867.335	0.88
867.502	-1.12
867.669	1.56
867.836	5.53
868.003	0.82
868.17	2.43
868.337	1.56
868.504	5.65
868.671	-1.81
868.838	0.46
869.005	3.07
869.172	2.12
869.339	0.77
869.505	1.27
869.672	2.44
869.839	3.74
870.006	1.63
870.173	-1.63
870.339	4.12
870.506	5.11
870.673	-0.15
870.84	3.97
871.006	1.39
871.173	1.65
871.34	1.52
871.506	-0.51
871.673	1.35
871.839	0.01
872.006	1.5
872.173	0.01
872.339	0.91
872.506	3.35
872.672	1.72
872.839	-0.53
873.005	2.79
873.172	6.08
873.338	3.04
873.505	2.59
873.671	0.83
873.838	3.67
874.004	-2.03
874.171	0.62
874.337	2.27
874.503	4.13
874.67	0.49
874.836	1.27
875.002	4.43
875.169	2.6
875.335	0.84
875.501	1.81
875.668	5.17
875.834	3.29
876	0.49
876.166	2.42
876.332	2.47
876.499	3.92
876.665	1.62
876.831	1.19
876.997	6.45
877.163	1.83
877.329	2.37
877.495	1.22
877.662	4.22
877.828	3.8
877.994	0.27
878.16	-3.06
878.326	1.67
878.492	-0.05
878.658	1.67
878.824	3.59
878.99	2.03
879.156	1.07
879.322	4.23
879.487	2.04
879.653	1.2
879.819	2.02
879.985	0.34
880.151	1.76
880.317	4.34
880.483	4.42
880.648	2.53
880.814	0.16
880.98	0.65
881.146	-2.81
881.312	0.7
881.477	0.76
881.643	1.36
881.809	4.9
881.974	3.03
882.14	-1.36
882.306	2.94
882.471	6.17
882.637	-0.29
882.803	3.47
882.968	6.5
883.134	7.6
883.299	1.19
883.465	1.5
883.63	3.94
883.796	0.64
883.961	2
884.127	3.36
884.292	-3.57
884.458	-1.36
884.623	-1.36
