Data from Apollo_Calib_20240827__AbsoluteIrradiance__761__11-50-03-027.txt Node

Date: Wed Aug 28 11:50:03 BST 2024
User: biology
Spectrometer: FLMT08252
Trigger mode: 0
Integration Time (sec): 5.000000E-1
Scans to average: 5
Electric dark correction enabled: true
Nonlinearity correction enabled: false
Boxcar width: 0
XAxis mode: Wavelengths
Number of Pixels in Spectrum: 3648
>>>>>Begin Spectral Data<<<<<
179.588	-0
179.809	-0
180.03	-0
180.251	-0
180.473	-0
180.694	0
180.915	0
181.136	-0
181.357	0
181.578	-0
181.799	0
182.02	-0
182.241	-0
182.462	-0
182.683	0
182.904	-0
183.125	-0
183.346	-0
183.567	0
183.788	0
184.009	0
184.23	0
184.451	0
184.672	0
184.892	0
185.113	0
185.334	0
185.555	0
185.776	0
185.996	0
186.217	0
186.438	0
186.659	0
186.879	0
187.1	0
187.321	0
187.541	0
187.762	0
187.983	0
188.203	0
188.424	0
188.644	0
188.865	0
189.086	0
189.306	0
189.527	0
189.747	0
189.968	0
190.188	0
190.409	0
190.629	0
190.849	0
191.07	0
191.29	0
191.511	0
191.731	0
191.951	0
192.172	0
192.392	0
192.612	0
192.833	0
193.053	0
193.273	0
193.493	0
193.714	0
193.934	0
194.154	0
194.374	0
194.594	0
194.815	0
195.035	0
195.255	0
195.475	0
195.695	0
195.915	0
196.135	0
196.355	0
196.575	0
196.795	0
197.015	0
197.235	0
197.455	0
197.675	0
197.895	0
198.115	0
198.335	0
198.555	0
198.775	0
198.995	0
199.214	0
199.434	0
199.654	0
199.874	0
200.094	3.6
200.313	2.04
200.533	1.81
200.753	1.07
200.973	2.59
201.192	2.58
201.412	0.86
201.632	2.06
201.851	3.09
202.071	1.79
202.291	1.48
202.51	1.02
202.73	2.24
202.95	1.35
203.169	1.17
203.389	1.33
203.608	1.44
203.828	1.46
204.047	1.17
204.267	1.74
204.486	2.11
204.706	1.86
204.925	1.44
205.145	1.19
205.364	2.12
205.583	2.08
205.803	0.98
206.022	0.83
206.242	1.45
206.461	1.37
206.68	1.02
206.9	1.33
207.119	1.92
207.338	1.61
207.557	0.99
207.777	1.01
207.996	0.92
208.215	1.99
208.434	0.87
208.654	0.87
208.873	1.04
209.092	1.75
209.311	0.65
209.53	1.07
209.749	0.77
209.968	0.94
210.187	0.61
210.407	0.39
210.626	0.92
210.845	1.42
211.064	0.83
211.283	0.56
211.502	1.27
211.721	0.93
211.94	0.72
212.159	1.24
212.377	1.19
212.596	1.28
212.815	0.71
213.034	0.81
213.253	1.11
213.472	1.24
213.691	0.88
213.91	0.62
214.128	0.58
214.347	1.3
214.566	0.38
214.785	0.3
215.003	1.05
215.222	0.81
215.441	0.68
215.66	0.47
215.878	0.86
216.097	1.05
216.316	0.6
216.534	0.64
216.753	1.09
216.972	0.52
217.19	0.9
217.409	0.5
217.627	0.74
217.846	0.64
218.064	0.64
218.283	0.49
218.501	1.21
218.72	0.96
218.938	0.62
219.157	0.39
219.375	0.88
219.594	0.95
219.812	0.29
220.031	0.3
220.249	0.84
220.467	1.26
220.686	0.54
220.904	0.28
221.122	0.56
221.341	0.93
221.559	0.61
221.777	0.38
221.995	0.7
222.214	0.88
222.432	0.55
222.65	0.69
222.868	0.65
223.086	0.62
223.305	0.65
223.523	0.72
223.741	0.97
223.959	0.52
224.177	0.2
224.395	0.47
224.613	0.69
224.831	0.75
225.049	0.37
225.267	0.54
225.485	0.64
225.703	0.35
225.921	0.41
226.139	0.4
226.357	0.73
226.575	0.72
226.793	0.48
227.011	1.29
227.229	0.57
227.447	0.83
227.665	0.44
227.883	0.31
228.1	0.55
228.318	0.6
228.536	0.25
228.754	0.3
228.972	0.69
229.189	0.69
229.407	0.37
229.625	0.37
229.843	0.78
230.06	0.71
230.278	0.42
230.496	0.41
230.713	0.51
230.931	0.73
231.149	0.45
231.366	0.24
231.584	0.46
231.801	0.77
232.019	0.42
232.236	0.3
232.454	0.34
232.671	0.47
232.889	0.46
233.106	0.34
233.324	0.44
233.541	0.45
233.759	0.51
233.976	0.39
234.194	0.47
234.411	0.4
234.628	0.3
234.846	0.3
235.063	0.43
235.28	0.4
235.498	0.45
235.715	0.22
235.932	0.69
236.149	0.41
236.367	0.19
236.584	0.5
236.801	0.32
237.018	0.54
237.236	0.47
237.453	0.2
237.67	0.61
237.887	0.45
238.104	0.43
238.321	0.29
238.538	0.34
238.755	0.6
238.973	0.16
239.19	0.38
239.407	0.5
239.624	0.48
239.841	0.28
240.058	0.33
240.275	0.5
240.492	0.43
240.709	0.37
240.925	0.37
241.142	0.38
241.359	0.25
241.576	0.25
241.793	0.28
242.01	0.41
242.227	0.59
242.444	0.46
242.66	0.53
242.877	0.33
243.094	0.3
243.311	0.38
243.527	0.32
243.744	0.49
243.961	0.46
244.178	0.28
244.394	0.4
244.611	0.55
244.828	0.68
245.044	0.3
245.261	0.32
245.477	0.41
245.694	0.41
245.911	0.25
246.127	0.35
246.344	0.62
246.56	0.44
246.777	0.35
246.993	0.38
247.21	0.38
247.426	0.39
247.643	0.31
247.859	0.25
248.076	0.26
248.292	0.59
248.508	0.29
248.725	0.39
248.941	0.47
249.157	0.46
249.374	0.25
249.59	0.32
249.806	0.34
250.023	0.59
250.239	0.26
250.455	0.26
250.671	0.39
250.888	0.44
251.104	0.43
251.32	0.21
251.536	0.31
251.752	0.33
251.969	0.34
252.185	0.33
252.401	0.52
252.617	0.39
252.833	0.26
253.049	0.35
253.265	0.41
253.481	0.44
253.697	0.34
253.913	0.2
254.129	0.4
254.345	0.38
254.561	0.34
254.777	0.3
254.993	0.42
255.209	0.4
255.425	0.36
255.641	0.24
255.857	0.39
256.073	0.35
256.288	0.15
256.504	0.33
256.72	0.33
256.936	0.5
257.152	0.28
257.367	0.27
257.583	0.34
257.799	0.4
258.015	0.29
258.23	0.27
258.446	0.49
258.662	0.31
258.877	0.22
259.093	0.25
259.309	0.36
259.524	0.34
259.74	0.22
259.955	0.17
260.171	0.32
260.387	0.29
260.602	0.38
260.818	0.37
261.033	0.28
261.249	0.22
261.464	0.29
261.68	0.19
261.895	0.4
262.11	0.35
262.326	0.26
262.541	0.18
262.757	0.36
262.972	0.37
263.187	0.3
263.403	0.28
263.618	0.43
263.833	0.32
264.049	0.23
264.264	0.29
264.479	0.34
264.694	0.51
264.91	0.16
265.125	0.24
265.34	0.4
265.555	0.48
265.77	0.34
265.986	0.25
266.201	0.33
266.416	0.39
266.631	0.26
266.846	0.31
267.061	0.33
267.276	0.32
267.491	0.13
267.706	0.31
267.921	0.3
268.136	0.35
268.351	0.32
268.566	0.16
268.781	0.37
268.996	0.34
269.211	0.26
269.426	0.13
269.641	0.26
269.856	0.34
270.071	0.23
270.285	0.17
270.5	0.33
270.715	0.42
270.93	0.28
271.145	0.27
271.359	0.35
271.574	0.16
271.789	0.24
272.004	0.16
272.218	0.2
272.433	0.34
272.648	0.26
272.862	0.33
273.077	0.32
273.292	0.26
273.506	0.24
273.721	0.26
273.936	0.34
274.15	0.29
274.365	0.2
274.579	0.38
274.794	0.31
275.008	0.36
275.223	0.16
275.437	0.23
275.652	0.38
275.866	0.32
276.081	0.25
276.295	0.32
276.509	0.27
276.724	0.26
276.938	0.33
277.153	0.3
277.367	0.32
277.581	0.23
277.796	0.21
278.01	0.15
278.224	0.33
278.438	0.4
278.653	0.18
278.867	0.19
279.081	0.3
279.295	0.28
279.51	0.31
279.724	0.12
279.938	0.3
280.152	0.28
280.366	0.2
280.58	0.28
280.794	0.39
281.008	0.34
281.222	0.29
281.437	0.46
281.651	0.27
281.865	0.36
282.079	0.22
282.293	0.14
282.507	0.24
282.721	0.27
282.935	0.22
283.148	0.09
283.362	0.25
283.576	0.19
283.79	0.22
284.004	0.18
284.218	0.32
284.432	0.19
284.646	0.25
284.859	0.25
285.073	0.21
285.287	0.28
285.501	0.29
285.714	0.21
285.928	0.26
286.142	0.25
286.356	0.17
286.569	0.2
286.783	0.32
286.997	0.32
287.21	0.27
287.424	0.21
287.637	0.28
287.851	0.23
288.065	0.27
288.278	0.16
288.492	0.28
288.705	0.22
288.919	0.29
289.132	0.17
289.346	0.28
289.559	0.12
289.773	0.21
289.986	0.25
290.2	0.26
290.413	0.31
290.626	0.19
290.84	0.19
291.053	0.24
291.267	0.34
291.48	0.23
291.693	0.24
291.906	0.2
292.12	0.22
292.333	0.19
292.546	0.23
292.76	0.35
292.973	0.28
293.186	0.28
293.399	0.16
293.612	0.32
293.826	0.21
294.039	0.21
294.252	0.19
294.465	0.25
294.678	0.27
294.891	0.21
295.104	0.19
295.317	0.21
295.53	0.24
295.743	0.18
295.956	0.25
296.169	0.33
296.382	0.26
296.595	0.19
296.808	0.17
297.021	0.3
297.234	0.35
297.447	0.23
297.66	0.26
297.873	0.25
298.086	0.23
298.299	0.2
298.511	0.1
298.724	0.21
298.937	0.16
299.15	0.2
299.363	0.18
299.575	0.28
299.788	0.23
300.001	0.17
300.213	0.17
300.426	0.18
300.639	0.18
300.852	0.18
301.064	0.26
301.277	0.28
301.489	0.24
301.702	0.26
301.915	0.23
302.127	0.18
302.34	0.24
302.552	0.23
302.765	0.19
302.977	0.28
303.19	0.19
303.402	0.2
303.615	0.2
303.827	0.22
304.04	0.2
304.252	0.24
304.464	0.19
304.677	0.37
304.889	0.25
305.102	0.17
305.314	0.16
305.526	0.28
305.739	0.23
305.951	0.13
306.163	0.17
306.375	0.29
306.588	0.17
306.8	0.17
307.012	0.13
307.224	0.21
307.436	0.3
307.649	0.15
307.861	0.23
308.073	0.27
308.285	0.19
308.497	0.15
308.709	0.17
308.921	0.28
309.133	0.28
309.346	0.23
309.558	0.17
309.77	0.24
309.982	0.31
310.194	0.21
310.406	0.23
310.617	0.32
310.829	0.21
311.041	0.27
311.253	0.16
311.465	0.24
311.677	0.19
311.889	0.19
312.101	0.13
312.313	0.25
312.524	0.31
312.736	0.15
312.948	0.17
313.16	0.29
313.372	0.29
313.583	0.22
313.795	0.21
314.007	0.16
314.218	0.27
314.43	0.2
314.642	0.22
314.853	0.15
315.065	0.25
315.277	0.24
315.488	0.23
315.7	0.25
315.912	0.26
316.123	0.22
316.335	0.21
316.546	0.34
316.758	0.25
316.969	0.21
317.181	0.21
317.392	0.22
317.604	0.32
317.815	0.14
318.026	0.18
318.238	0.17
318.449	0.21
318.661	0.13
318.872	0.16
319.083	0.2
319.295	0.23
319.506	0.18
319.717	0.24
319.929	0.21
320.14	0.24
320.351	0.22
320.562	0.18
320.774	0.26
320.985	0.19
321.196	0.17
321.407	0.13
321.618	0.3
321.829	0.22
322.041	0.22
322.252	0.23
322.463	0.22
322.674	0.22
322.885	0.16
323.096	0.21
323.307	0.26
323.518	0.26
323.729	0.17
323.94	0.2
324.151	0.17
324.362	0.19
324.573	0.26
324.784	0.21
324.995	0.23
325.206	0.26
325.417	0.21
325.628	0.18
325.838	0.19
326.049	0.22
326.26	0.25
326.471	0.19
326.682	0.23
326.892	0.22
327.103	0.15
327.314	0.14
327.525	0.29
327.735	0.24
327.946	0.19
328.157	0.17
328.368	0.22
328.578	0.2
328.789	0.25
328.999	0.23
329.21	0.22
329.421	0.33
329.631	0.16
329.842	0.13
330.052	0.22
330.263	0.25
330.473	0.27
330.684	0.17
330.894	0.22
331.105	0.25
331.315	0.19
331.526	0.13
331.736	0.27
331.947	0.24
332.157	0.23
332.367	0.13
332.578	0.28
332.788	0.32
332.999	0.23
333.209	0.22
333.419	0.13
333.629	0.25
333.84	0.26
334.05	0.2
334.26	0.3
334.47	0.21
334.681	0.29
334.891	0.2
335.101	0.24
335.311	0.27
335.521	0.22
335.732	0.21
335.942	0.27
336.152	0.23
336.362	0.22
336.572	0.21
336.782	0.28
336.992	0.19
337.202	0.21
337.412	0.19
337.622	0.24
337.832	0.23
338.042	0.24
338.252	0.16
338.462	0.19
338.672	0.22
338.882	0.18
339.092	0.15
339.302	0.26
339.511	0.22
339.721	0.19
339.931	0.16
340.141	0.31
340.351	0.28
340.561	0.25
340.77	0.24
340.98	0.25
341.19	0.24
341.4	0.15
341.609	0.14
341.819	0.2
342.029	0.15
342.238	0.19
342.448	0.14
342.658	0.26
342.867	0.21
343.077	0.2
343.286	0.21
343.496	0.19
343.706	0.3
343.915	0.18
344.125	0.22
344.334	0.24
344.544	0.15
344.753	0.17
344.963	0.16
345.172	0.17
345.381	0.18
345.591	0.16
345.8	0.19
346.01	0.26
346.219	0.24
346.428	0.09
346.638	0.21
346.847	0.22
347.056	0.25
347.266	0.19
347.475	0.24
347.684	0.27
347.893	0.25
348.103	0.25
348.312	0.21
348.521	0.17
348.73	0.2
348.94	0.23
349.149	0.22
349.358	0.22
349.567	0.15
349.776	0.17
349.985	0.15
350.194	0.24
350.403	0.26
350.612	0.11
350.821	0.17
351.03	0.24
351.239	0.16
351.448	0.19
351.657	0.18
351.866	0.33
352.075	0.19
352.284	0.18
352.493	0.18
352.702	0.25
352.911	0.23
353.12	0.21
353.329	0.19
353.538	0.26
353.746	0.21
353.955	0.17
354.164	0.25
354.373	0.21
354.582	0.25
354.79	0.2
354.999	0.24
355.208	0.23
355.416	0.27
355.625	0.14
355.834	0.16
356.042	0.21
356.251	0.19
356.46	0.16
356.668	0.21
356.877	0.3
357.085	0.25
357.294	0.13
357.503	0.23
357.711	0.19
357.92	0.36
358.128	0.2
358.337	0.2
358.545	0.22
358.754	0.18
358.962	0.22
359.17	0.19
359.379	0.2
359.587	0.23
359.796	0.21
360.004	0.26
360.212	0.28
360.421	0.25
360.629	0.18
360.837	0.16
361.046	0.2
361.254	0.32
361.462	0.22
361.67	0.15
361.879	0.19
362.087	0.25
362.295	0.2
362.503	0.16
362.711	0.19
362.92	0.18
363.128	0.21
363.336	0.17
363.544	0.15
363.752	0.15
363.96	0.17
364.168	0.16
364.376	0.2
364.584	0.21
364.792	0.25
365	0.22
365.208	0.23
365.416	0.25
365.624	0.25
365.832	0.16
366.04	0.25
366.248	0.21
366.456	0.24
366.664	0.21
366.872	0.22
367.079	0.19
367.287	0.19
367.495	0.2
367.703	0.23
367.911	0.16
368.118	0.22
368.326	0.21
368.534	0.18
368.742	0.3
368.949	0.15
369.157	0.22
369.365	0.25
369.572	0.22
369.78	0.16
369.988	0.27
370.195	0.24
370.403	0.28
370.61	0.19
370.818	0.19
371.026	0.31
371.233	0.19
371.441	0.21
371.648	0.2
371.856	0.21
372.063	0.25
372.271	0.16
372.478	0.18
372.685	0.18
372.893	0.23
373.1	0.2
373.308	0.19
373.515	0.3
373.722	0.26
373.93	0.2
374.137	0.23
374.344	0.32
374.552	0.26
374.759	0.24
374.966	0.23
375.173	0.2
375.381	0.28
375.588	0.23
375.795	0.14
376.002	0.21
376.209	0.15
376.417	0.16
376.624	0.19
376.831	0.23
377.038	0.25
377.245	0.11
377.452	0.19
377.659	0.19
377.866	0.19
378.073	0.19
378.28	0.22
378.487	0.28
378.694	0.25
378.901	0.27
379.108	0.21
379.315	0.29
379.522	0.31
379.729	0.24
379.936	0.18
380.143	0.23
380.35	0.23
380.557	0.22
380.763	0.2
380.97	0.24
381.177	0.27
381.384	0.24
381.591	0.24
381.797	0.27
382.004	0.25
382.211	0.25
382.418	0.22
382.624	0.25
382.831	0.28
383.038	0.25
383.244	0.26
383.451	0.22
383.658	0.27
383.864	0.21
384.071	0.2
384.277	0.32
384.484	0.22
384.69	0.28
384.897	0.23
385.103	0.21
385.31	0.23
385.516	0.19
385.723	0.18
385.929	0.24
386.136	0.23
386.342	0.29
386.549	0.18
386.755	0.29
386.961	0.23
387.168	0.24
387.374	0.23
387.58	0.23
387.787	0.28
387.993	0.28
388.199	0.21
388.406	0.17
388.612	0.19
388.818	0.21
389.024	0.22
389.231	0.25
389.437	0.37
389.643	0.29
389.849	0.26
390.055	0.24
390.261	0.26
390.467	0.24
390.674	0.2
390.88	0.27
391.086	0.28
391.292	0.19
391.498	0.27
391.704	0.24
391.91	0.26
392.116	0.22
392.322	0.14
392.528	0.29
392.734	0.26
392.94	0.25
393.146	0.25
393.352	0.24
393.557	0.21
393.763	0.26
393.969	0.3
394.175	0.24
394.381	0.26
394.587	0.22
394.792	0.26
394.998	0.34
395.204	0.3
395.41	0.21
395.615	0.27
395.821	0.28
396.027	0.32
396.233	0.2
396.438	0.28
396.644	0.31
396.85	0.29
397.055	0.26
397.261	0.26
397.466	0.37
397.672	0.27
397.878	0.3
398.083	0.31
398.289	0.2
398.494	0.38
398.7	0.31
398.905	0.2
399.111	0.37
399.316	0.22
399.522	0.3
399.727	0.29
399.932	0.26
400.138	0.26
400.343	0.34
400.549	0.27
400.754	0.33
400.959	0.31
401.165	0.29
401.37	0.31
401.575	0.42
401.78	0.29
401.986	0.28
402.191	0.29
402.396	0.29
402.601	0.33
402.807	0.34
403.012	0.29
403.217	0.41
403.422	0.37
403.627	0.35
403.832	0.26
404.037	0.39
404.243	0.39
404.448	0.32
404.653	0.36
404.858	0.37
405.063	0.4
405.268	0.33
405.473	0.31
405.678	0.33
405.883	0.53
406.088	0.44
406.293	0.36
406.498	0.33
406.703	0.42
406.907	0.39
407.112	0.34
407.317	0.39
407.522	0.48
407.727	0.4
407.932	0.41
408.136	0.56
408.341	0.47
408.546	0.45
408.751	0.45
408.956	0.47
409.16	0.49
409.365	0.47
409.57	0.49
409.774	0.51
409.979	0.55
410.184	0.49
410.388	0.49
410.593	0.64
410.798	0.6
411.002	0.55
411.207	0.67
411.411	0.67
411.616	0.61
411.82	0.7
412.025	0.72
412.229	0.7
412.434	0.82
412.638	0.78
412.843	0.73
413.047	0.81
413.252	0.79
413.456	0.81
413.66	0.85
413.865	0.84
414.069	0.98
414.273	0.9
414.478	0.87
414.682	0.9
414.886	0.96
415.091	0.91
415.295	0.98
415.499	1.14
415.703	1.1
415.908	1.2
416.112	1.09
416.316	1.28
416.52	1.23
416.724	1.2
416.929	1.27
417.133	1.47
417.337	1.39
417.541	1.46
417.745	1.44
417.949	1.6
418.153	1.65
418.357	1.63
418.561	1.87
418.765	1.78
418.969	1.91
419.173	1.96
419.377	1.97
419.581	2.16
419.785	2.03
419.989	2.09
420.193	2.22
420.397	2.35
420.601	2.43
420.804	2.6
421.008	2.51
421.212	2.66
421.416	2.69
421.62	2.65
421.823	2.8
422.027	2.91
422.231	2.82
422.435	2.9
422.638	2.9
422.842	3.08
423.046	3.01
423.249	3.24
423.453	3.16
423.657	3.34
423.86	3.42
424.064	3.48
424.268	3.65
424.471	3.69
424.675	3.92
424.878	3.93
425.082	4.03
425.285	4.21
425.489	4.18
425.692	4.23
425.896	4.27
426.099	4.47
426.303	4.63
426.506	4.72
426.71	4.82
426.913	5.02
427.116	5.25
427.32	5.19
427.523	5.21
427.726	5.55
427.93	5.54
428.133	5.87
428.336	5.86
428.54	6.05
428.743	6.36
428.946	6.5
429.149	6.35
429.353	6.5
429.556	6.64
429.759	6.64
429.962	6.63
430.165	6.87
430.368	6.58
430.571	6.61
430.775	6.71
430.978	6.63
431.181	6.75
431.384	6.74
431.587	6.92
431.79	7.13
431.993	7.16
432.196	7.38
432.399	7.63
432.602	7.85
432.805	7.84
433.008	8.23
433.211	8.14
433.414	8.46
433.616	8.5
433.819	8.4
434.022	8.57
434.225	8.81
434.428	8.72
434.631	9.19
434.833	8.87
435.036	9.2
435.239	9.37
435.442	9.44
435.645	9.5
435.847	9.56
436.05	9.84
436.253	10.13
436.455	10.11
436.658	9.96
436.861	10.25
437.063	10.21
437.266	10.26
437.468	10.63
437.671	10.95
437.874	10.91
438.076	10.69
438.279	11.19
438.481	11.17
438.684	11.77
438.886	11.51
439.089	11.81
439.291	11.74
439.494	12.04
439.696	12.23
439.899	12.84
440.101	13.08
440.303	13.18
440.506	13.85
440.708	13.55
440.91	13.84
441.113	13.95
441.315	14.18
441.517	14.1
441.72	14.39
441.922	14.18
442.124	14.1
442.326	14.45
442.529	14.81
442.731	14.67
442.933	14.84
443.135	14.71
443.337	14.62
443.539	15.11
443.742	14.88
443.944	15.69
444.146	15.28
444.348	15.41
444.55	15.23
444.752	15.34
444.954	15.4
445.156	15.29
445.358	15.66
445.56	15.78
445.762	15.73
445.964	16.02
446.166	15.86
446.368	15.86
446.57	15.74
446.772	15.61
446.974	15.29
447.175	15.52
447.377	15.27
447.579	15.77
447.781	15.48
447.983	15.26
448.184	14.89
448.386	15.23
448.588	14.85
448.79	14.82
448.991	15.14
449.193	14.98
449.395	14.53
449.597	14.16
449.798	14.1
450	13.68
450.202	13.69
450.403	13.68
450.605	13.63
450.806	13.29
451.008	13.12
451.21	12.98
451.411	12.57
451.613	11.92
451.814	12.04
452.016	12.02
452.217	11.47
452.419	11.49
452.62	11.18
452.821	11.09
453.023	10.87
453.224	10.54
453.426	10.18
453.627	9.69
453.828	9.58
454.03	9.86
454.231	9.74
454.432	9.58
454.634	9.34
454.835	9.18
455.036	9.11
455.238	8.67
455.439	8.37
455.64	8.18
455.841	8.09
456.042	8.27
456.244	7.89
456.445	7.67
456.646	7.36
456.847	7.3
457.048	7.23
457.249	7.32
457.45	7.06
457.651	6.61
457.852	6.55
458.054	6.33
458.255	6.27
458.456	6.29
458.657	6.16
458.858	5.78
459.058	5.75
459.259	5.81
459.46	5.51
459.661	5.59
459.862	5.54
460.063	5.47
460.264	5.46
460.465	5.14
460.666	5.25
460.866	4.95
461.067	4.74
461.268	4.81
461.469	4.72
461.67	4.59
461.87	4.52
462.071	4.48
462.272	4.44
462.473	4.36
462.673	4.56
462.874	4.38
463.075	4.34
463.275	4.38
463.476	4.45
463.676	4.44
463.877	4.24
464.078	4.22
464.278	4.3
464.479	4.19
464.679	4.11
464.88	4.03
465.08	3.97
465.281	3.94
465.481	3.74
465.682	3.5
465.882	3.56
466.083	3.54
466.283	3.52
466.483	3.3
466.684	3.21
466.884	3.14
467.085	3.13
467.285	3.16
467.485	3.13
467.686	3.04
467.886	2.94
468.086	2.92
468.286	2.88
468.487	2.93
468.687	2.78
468.887	2.77
469.087	2.9
469.287	2.81
469.488	2.61
469.688	2.77
469.888	2.66
470.088	2.72
470.288	2.62
470.488	2.59
470.688	2.39
470.888	2.48
471.088	2.28
471.288	2.41
471.488	2.39
471.688	2.36
471.888	2.28
472.088	2.44
472.288	2.31
472.488	2.23
472.688	2.17
472.888	2.24
473.088	2.23
473.288	2.07
473.488	2.06
473.688	2.19
473.887	2.06
474.087	2.03
474.287	2.12
474.487	2.01
474.687	2.07
474.886	2
475.086	1.95
475.286	1.95
475.486	1.92
475.685	1.94
475.885	1.86
476.085	1.98
476.284	1.94
476.484	1.94
476.684	1.88
476.883	1.98
477.083	1.87
477.282	1.83
477.482	1.8
477.681	1.84
477.881	1.78
478.08	1.74
478.28	1.74
478.479	1.8
478.679	1.81
478.878	1.73
479.078	1.7
479.277	1.79
479.477	1.75
479.676	1.68
479.875	1.7
480.075	1.64
480.274	1.73
480.473	1.77
480.673	1.69
480.872	1.83
481.071	1.72
481.271	1.78
481.47	1.66
481.669	1.7
481.868	1.68
482.067	1.65
482.267	1.6
482.466	1.65
482.665	1.6
482.864	1.64
483.063	1.62
483.262	1.71
483.461	1.77
483.661	1.76
483.86	1.7
484.059	1.74
484.258	1.72
484.457	1.71
484.656	1.74
484.855	1.8
485.054	1.64
485.253	1.7
485.452	1.63
485.651	1.74
485.849	1.73
486.048	1.67
486.247	1.7
486.446	1.81
486.645	1.73
486.844	1.74
487.043	1.72
487.241	1.79
487.44	1.7
487.639	1.81
487.838	1.78
488.037	1.78
488.235	1.88
488.434	1.86
488.633	1.73
488.831	1.94
489.03	1.89
489.229	1.88
489.427	1.88
489.626	1.95
489.825	1.92
490.023	1.98
490.222	1.97
490.42	1.94
490.619	2.03
490.817	2.05
491.016	2.01
491.214	2.04
491.413	2.02
491.611	2.01
491.81	2.06
492.008	2.08
492.207	2.14
492.405	2.13
492.604	2.09
492.802	2.21
493	2.22
493.199	2.22
493.397	2.18
493.595	2.28
493.794	2.25
493.992	2.38
494.19	2.33
494.388	2.41
494.587	2.34
494.785	2.34
494.983	2.34
495.181	2.42
495.379	2.48
495.578	2.51
495.776	2.53
495.974	2.48
496.172	2.53
496.37	2.62
496.568	2.62
496.766	2.63
496.964	2.75
497.162	2.71
497.36	2.71
497.558	2.78
497.756	2.78
497.954	2.77
498.152	2.85
498.35	2.92
498.548	2.86
498.746	2.89
498.944	2.88
499.142	2.94
499.34	3.01
499.538	3.12
499.736	3.03
499.933	3.09
500.131	3.09
500.329	3.24
500.527	3.18
500.725	3.28
500.922	3.33
501.12	3.3
501.318	3.38
501.516	3.37
501.713	3.42
501.911	3.42
502.109	3.36
502.306	3.51
502.504	3.41
502.701	3.53
502.899	3.54
503.097	3.74
503.294	3.63
503.492	3.72
503.689	3.72
503.887	3.71
504.084	3.79
504.282	3.8
504.479	3.75
504.677	3.89
504.874	3.91
505.072	3.82
505.269	3.98
505.466	3.99
505.664	4.02
505.861	3.97
506.059	4.04
506.256	4.11
506.453	4.1
506.651	4.23
506.848	4.25
507.045	4.24
507.242	4.22
507.44	4.28
507.637	4.39
507.834	4.31
508.031	4.43
508.229	4.4
508.426	4.34
508.623	4.49
508.82	4.51
509.017	4.49
509.214	4.5
509.411	4.64
509.608	4.57
509.805	4.69
510.003	4.7
510.2	4.73
510.397	4.86
510.594	4.75
510.791	4.89
510.988	4.81
511.184	4.8
511.381	4.76
511.578	4.84
511.775	4.94
511.972	4.88
512.169	4.95
512.366	4.96
512.563	5.08
512.76	5.17
512.956	5.14
513.153	5.09
513.35	5.05
513.547	5.07
513.744	5.18
513.94	5.13
514.137	5.26
514.334	5.27
514.53	5.27
514.727	5.41
514.924	5.37
515.12	5.38
515.317	5.38
515.514	5.31
515.71	5.3
515.907	5.49
516.103	5.47
516.3	5.38
516.497	5.56
516.693	5.58
516.89	5.58
517.086	5.6
517.283	5.6
517.479	5.5
517.676	5.6
517.872	5.7
518.068	5.63
518.265	5.64
518.461	5.59
518.658	5.76
518.854	5.73
519.05	5.82
519.247	5.89
519.443	5.78
519.639	5.92
519.836	5.85
520.032	5.81
520.228	5.91
520.424	5.89
520.621	5.93
520.817	5.99
521.013	5.88
521.209	6.04
521.405	6.09
521.601	6.03
521.798	5.98
521.994	6.03
522.19	5.91
522.386	5.95
522.582	6.06
522.778	6.2
522.974	6.08
523.17	6.1
523.366	6.07
523.562	6.17
523.758	6.16
523.954	5.97
524.15	6.17
524.346	6.16
524.542	6.21
524.738	6.17
524.934	6.26
525.129	6.28
525.325	6.22
525.521	6.23
525.717	6.4
525.913	6.23
526.109	6.31
526.304	6.4
526.5	6.34
526.696	6.43
526.892	6.32
527.087	6.55
527.283	6.45
527.479	6.41
527.674	6.24
527.87	6.43
528.066	6.41
528.261	6.43
528.457	6.37
528.653	6.51
528.848	6.49
529.044	6.53
529.239	6.42
529.435	6.44
529.63	6.45
529.826	6.46
530.021	6.53
530.217	6.53
530.412	6.49
530.608	6.48
530.803	6.5
530.999	6.43
531.194	6.58
531.389	6.63
531.585	6.61
531.78	6.7
531.975	6.61
532.171	6.65
532.366	6.66
532.561	6.66
532.757	6.59
532.952	6.74
533.147	6.55
533.342	6.67
533.538	6.59
533.733	6.76
533.928	6.51
534.123	6.69
534.318	6.72
534.513	6.61
534.709	6.79
534.904	6.7
535.099	6.76
535.294	6.74
535.489	6.78
535.684	6.72
535.879	6.63
536.074	6.78
536.269	6.77
536.464	6.75
536.659	6.7
536.854	6.74
537.049	6.79
537.244	6.77
537.439	6.78
537.634	6.74
537.828	6.79
538.023	6.88
538.218	6.81
538.413	6.72
538.608	6.77
538.803	6.78
538.997	6.76
539.192	6.78
539.387	6.78
539.582	6.79
539.776	6.71
539.971	6.86
540.166	6.91
540.36	6.78
540.555	6.89
540.75	6.82
540.944	6.84
541.139	6.87
541.334	6.88
541.528	6.82
541.723	6.89
541.917	6.92
542.112	6.8
542.306	6.75
542.501	6.8
542.695	6.83
542.89	6.78
543.084	6.85
543.279	6.85
543.473	6.92
543.668	6.92
543.862	6.83
544.056	6.75
544.251	6.89
544.445	6.93
544.64	6.95
544.834	6.67
545.028	6.59
545.222	6.88
545.417	7.06
545.611	6.95
545.805	6.87
546	6.72
546.194	6.95
546.388	6.93
546.582	6.9
546.776	6.81
546.97	6.94
547.165	6.91
547.359	6.84
547.553	6.84
547.747	6.87
547.941	7.03
548.135	6.83
548.329	6.89
548.523	6.96
548.717	6.91
548.911	6.86
549.105	6.87
549.299	6.93
549.493	6.91
549.687	6.82
549.881	6.97
550.075	6.89
550.269	6.73
550.463	6.92
550.657	6.97
550.85	6.9
551.044	6.91
551.238	6.97
551.432	6.92
551.626	6.98
551.82	6.99
552.013	6.82
552.207	6.96
552.401	6.97
552.594	6.91
552.788	6.81
552.982	6.85
553.176	6.84
553.369	7.02
553.563	6.92
553.756	6.91
553.95	6.97
554.144	6.98
554.337	6.94
554.531	6.81
554.724	6.97
554.918	7
555.111	6.92
555.305	6.92
555.498	6.89
555.692	7.06
555.885	6.96
556.079	6.82
556.272	6.93
556.466	6.91
556.659	6.85
556.852	7.04
557.046	6.88
557.239	6.79
557.432	6.9
557.626	6.96
557.819	7.02
558.012	6.96
558.206	7.02
558.399	6.95
558.592	6.91
558.785	6.86
558.979	6.97
559.172	6.96
559.365	6.91
559.558	6.85
559.751	6.82
559.944	7.02
560.138	6.94
560.331	6.98
560.524	6.9
560.717	6.87
560.91	6.93
561.103	6.96
561.296	6.87
561.489	6.97
561.682	6.96
561.875	7
562.068	6.97
562.261	6.88
562.454	7.1
562.647	7
562.84	7.01
563.032	6.96
563.225	6.9
563.418	6.92
563.611	6.99
563.804	6.93
563.997	6.83
564.19	6.79
564.382	6.99
564.575	6.95
564.768	6.9
564.961	6.96
565.153	6.91
565.346	6.82
565.539	6.97
565.731	6.88
565.924	6.97
566.117	7
566.309	6.98
566.502	6.87
566.695	6.85
566.887	6.95
567.08	6.92
567.272	6.98
567.465	6.79
567.657	6.97
567.85	6.85
568.042	6.97
568.235	6.98
568.427	6.77
568.62	6.87
568.812	6.88
569.005	6.96
569.197	6.78
569.389	6.92
569.582	6.92
569.774	6.91
569.966	6.81
570.159	6.79
570.351	6.76
570.543	6.88
570.736	6.83
570.928	6.74
571.12	6.94
571.312	6.81
571.505	6.63
571.697	6.87
571.889	6.86
572.081	6.84
572.273	6.77
572.465	6.92
572.658	6.84
572.85	6.9
573.042	6.83
573.234	6.77
573.426	6.78
573.618	6.78
573.81	6.92
574.002	6.78
574.194	6.81
574.386	6.77
574.578	6.64
574.77	6.78
574.962	6.76
575.154	6.73
575.346	6.73
575.538	6.69
575.729	6.69
575.921	6.87
576.113	6.84
576.305	6.75
576.497	6.89
576.689	6.68
576.88	6.59
577.072	6.83
577.264	6.75
577.456	6.71
577.647	6.65
577.839	6.84
578.031	6.69
578.223	6.64
578.414	6.6
578.606	6.79
578.798	6.74
578.989	6.63
579.181	6.75
579.372	6.72
579.564	6.71
579.755	6.63
579.947	6.6
580.139	6.67
580.33	6.48
580.522	6.67
580.713	6.65
580.905	6.62
581.096	6.72
581.287	6.59
581.479	6.6
581.67	6.67
581.862	6.6
582.053	6.61
582.244	6.49
582.436	6.65
582.627	6.55
582.818	6.53
583.01	6.49
583.201	6.6
583.392	6.53
583.583	6.53
583.775	6.38
583.966	6.49
584.157	6.53
584.348	6.6
584.54	6.41
584.731	6.55
584.922	6.41
585.113	6.44
585.304	6.46
585.495	6.48
585.686	6.56
585.877	6.5
586.068	6.55
586.259	6.54
586.45	6.48
586.641	6.43
586.832	6.45
587.023	6.45
587.214	6.4
587.405	6.44
587.596	6.3
587.787	6.26
587.978	6.39
588.169	6.31
588.36	6.3
588.551	6.35
588.742	6.32
588.932	6.41
589.123	6.17
589.314	6.46
589.505	6.28
589.696	6.31
589.886	6.31
590.077	6.25
590.268	6.22
590.458	6.18
590.649	6.15
590.84	6.26
591.03	6.27
591.221	6.26
591.412	6.1
591.602	6.34
591.793	6.21
591.984	6.27
592.174	6.17
592.365	6.36
592.555	6.1
592.746	6.15
592.936	6.1
593.127	6.17
593.317	6.19
593.508	6.15
593.698	6.11
593.889	6.1
594.079	6.1
594.269	5.98
594.46	5.97
594.65	6.07
594.84	6.1
595.031	5.94
595.221	5.95
595.411	6
595.602	6.05
595.792	5.94
595.982	5.89
596.172	6.08
596.363	5.86
596.553	5.94
596.743	5.96
596.933	5.92
597.123	5.89
597.314	5.83
597.504	5.75
597.694	5.97
597.884	5.85
598.074	5.87
598.264	5.82
598.454	5.85
598.644	5.81
598.834	5.78
599.024	5.74
599.214	5.74
599.404	5.75
599.594	5.77
599.784	5.66
599.974	5.73
600.164	5.7
600.354	5.64
600.544	5.59
600.734	5.73
600.924	5.68
601.114	5.6
601.303	5.58
601.493	5.6
601.683	5.64
601.873	5.59
602.063	5.53
602.252	5.58
602.442	5.51
602.632	5.49
602.821	5.45
603.011	5.56
603.201	5.53
603.39	5.53
603.58	5.36
603.77	5.5
603.959	5.56
604.149	5.44
604.339	5.42
604.528	5.55
604.718	5.41
604.907	5.34
605.097	5.36
605.286	5.37
605.476	5.31
605.665	5.4
605.855	5.26
606.044	5.33
606.234	5.38
606.423	5.34
606.612	5.31
606.802	5.24
606.991	5.3
607.181	5.27
607.37	5.28
607.559	5.06
607.749	5.23
607.938	5.12
608.127	5.2
608.316	5.18
608.506	5.18
608.695	5.18
608.884	5.09
609.073	5.16
609.263	5.2
609.452	5.15
609.641	5.06
609.83	4.99
610.019	5.07
610.208	4.98
610.397	5.05
610.586	5.01
610.775	4.96
610.965	4.94
611.154	4.92
611.343	4.96
611.532	4.87
611.721	4.99
611.91	4.88
612.099	4.83
612.287	4.79
612.476	4.76
612.665	4.89
612.854	4.81
613.043	4.81
613.232	4.84
613.421	4.73
613.61	4.7
613.798	4.77
613.987	4.78
614.176	4.73
614.365	4.77
614.554	4.81
614.742	4.77
614.931	4.59
615.12	4.8
615.309	4.68
615.497	4.68
615.686	4.53
615.875	4.57
616.063	4.59
616.252	4.59
616.44	4.58
616.629	4.5
616.818	4.55
617.006	4.54
617.195	4.55
617.383	4.5
617.572	4.45
617.76	4.41
617.949	4.46
618.137	4.5
618.326	4.47
618.514	4.38
618.703	4.26
618.891	4.47
619.079	4.33
619.268	4.39
619.456	4.26
619.644	4.41
619.833	4.24
620.021	4.28
620.209	4.19
620.398	4.24
620.586	4.18
620.774	4.29
620.962	4.21
621.151	4.32
621.339	4.19
621.527	4.09
621.715	4.18
621.903	4.15
622.092	4.06
622.28	4.19
622.468	4.04
622.656	4.09
622.844	4.07
623.032	4.11
623.22	3.95
623.408	4.11
623.596	4.09
623.784	4.1
623.972	3.92
624.16	3.98
624.348	4.05
624.536	4.02
624.724	3.93
624.912	4.02
625.1	3.95
625.288	3.97
625.476	3.84
625.664	3.97
625.851	3.84
626.039	3.92
626.227	3.87
626.415	3.8
626.603	3.73
626.79	3.85
626.978	3.81
627.166	3.82
627.354	3.75
627.541	3.73
627.729	3.7
627.917	3.78
628.104	3.81
628.292	3.63
628.48	3.71
628.667	3.7
628.855	3.73
629.042	3.72
629.23	3.6
629.418	3.63
629.605	3.66
629.793	3.55
629.98	3.54
630.168	3.5
630.355	3.58
630.543	3.59
630.73	3.5
630.917	3.53
631.105	3.57
631.292	3.56
631.48	3.55
631.667	3.61
631.854	3.4
632.042	3.45
632.229	3.3
632.416	3.51
632.604	3.45
632.791	3.27
632.978	3.41
633.165	3.42
633.353	3.39
633.54	3.37
633.727	3.26
633.914	3.24
634.101	3.24
634.289	3.38
634.476	3.25
634.663	3.22
634.85	3.27
635.037	3.2
635.224	3.11
635.411	3.29
635.598	3.17
635.785	3.19
635.972	3.14
636.159	3.14
636.346	3.1
636.533	3.11
636.72	3.12
636.907	3.17
637.094	3.1
637.281	3
637.468	3.09
637.655	3.06
637.842	3.06
638.029	3.01
638.215	3.04
638.402	3.05
638.589	2.96
638.776	2.95
638.963	2.94
639.149	3.01
639.336	3.03
639.523	2.94
639.709	2.89
639.896	2.9
640.083	2.85
640.27	2.91
640.456	2.88
640.643	2.88
640.829	2.79
641.016	2.82
641.203	2.8
641.389	2.85
641.576	2.76
641.762	2.77
641.949	2.72
642.135	2.8
642.322	2.71
642.508	2.68
642.695	2.72
642.881	2.66
643.068	2.71
643.254	2.64
643.441	2.71
643.627	2.71
643.813	2.54
644	2.65
644.186	2.56
644.372	2.66
644.559	2.6
644.745	2.55
644.931	2.54
645.118	2.59
645.304	2.58
645.49	2.55
645.676	2.49
645.862	2.55
646.049	2.6
646.235	2.51
646.421	2.64
646.607	2.59
646.793	2.47
646.979	2.43
647.165	2.49
647.352	2.45
647.538	2.44
647.724	2.48
647.91	2.41
648.096	2.4
648.282	2.44
648.468	2.37
648.654	2.37
648.84	2.39
649.026	2.4
649.212	2.33
649.397	2.3
649.583	2.32
649.769	2.35
649.955	2.28
650.141	2.32
650.327	2.35
650.513	2.25
650.698	2.28
650.884	2.13
651.07	2.28
651.256	2.21
651.442	2.2
651.627	2.15
651.813	2.25
651.999	2.2
652.184	2.15
652.37	2.16
652.556	2.12
652.741	2.23
652.927	2.06
653.113	2.15
653.298	2.18
653.484	2.15
653.669	2.05
653.855	2.1
654.04	2.11
654.226	2.05
654.412	2.06
654.597	1.97
654.782	2.08
654.968	2.07
655.153	2.02
655.339	2.03
655.524	1.96
655.71	2.05
655.895	2
656.08	1.98
656.266	2.03
656.451	1.96
656.636	1.94
656.822	1.92
657.007	1.95
657.192	1.97
657.378	1.82
657.563	1.88
657.748	1.91
657.933	1.93
658.118	1.84
658.304	1.93
658.489	1.95
658.674	1.85
658.859	1.81
659.044	1.88
659.229	1.86
659.414	1.82
659.599	1.83
659.785	1.77
659.97	1.81
660.155	1.83
660.34	1.79
660.525	1.75
660.71	1.74
660.895	1.83
661.08	1.71
661.264	1.67
661.449	1.8
661.634	1.71
661.819	1.7
662.004	1.71
662.189	1.66
662.374	1.7
662.559	1.65
662.743	1.61
662.928	1.68
663.113	1.64
663.298	1.61
663.483	1.63
663.667	1.66
663.852	1.64
664.037	1.69
664.221	1.63
664.406	1.65
664.591	1.7
664.775	1.62
664.96	1.62
665.145	1.6
665.329	1.6
665.514	1.56
665.698	1.52
665.883	1.48
666.068	1.61
666.252	1.62
666.437	1.51
666.621	1.59
666.806	1.57
666.99	1.53
667.174	1.47
667.359	1.55
667.543	1.49
667.728	1.47
667.912	1.42
668.096	1.5
668.281	1.47
668.465	1.48
668.649	1.46
668.834	1.38
669.018	1.46
669.202	1.47
669.387	1.44
669.571	1.5
669.755	1.35
669.939	1.38
670.124	1.4
670.308	1.47
670.492	1.43
670.676	1.39
670.86	1.35
671.044	1.35
671.228	1.42
671.413	1.37
671.597	1.32
671.781	1.34
671.965	1.39
672.149	1.36
672.333	1.31
672.517	1.27
672.701	1.38
672.885	1.32
673.069	1.21
673.253	1.39
673.437	1.3
673.621	1.28
673.804	1.34
673.988	1.3
674.172	1.28
674.356	1.2
674.54	1.26
674.724	1.38
674.908	1.22
675.091	1.27
675.275	1.19
675.459	1.32
675.643	1.29
675.826	1.24
676.01	1.2
676.194	1.28
676.377	1.24
676.561	1.22
676.745	1.22
676.928	1.22
677.112	1.23
677.296	1.18
677.479	1.15
677.663	1.18
677.846	1.22
678.03	1.16
678.213	1.1
678.397	1.2
678.58	1.14
678.764	1.16
678.947	1.09
679.131	1.14
679.314	1.19
679.498	1.15
679.681	1.16
679.865	1.22
680.048	1.09
680.231	1.12
680.415	1.06
680.598	1.07
680.781	1.09
680.965	1.1
681.148	1.09
681.331	1.04
681.514	1.1
681.698	1.05
681.881	1.07
682.064	1.1
682.247	0.99
682.43	0.99
682.614	1.1
682.797	1.11
682.98	1.04
683.163	1.05
683.346	1.04
683.529	0.99
683.712	0.95
683.895	1.07
684.078	0.94
684.261	0.93
684.444	1.09
684.627	1.03
684.81	1
684.993	0.96
685.176	1.07
685.359	0.91
685.542	0.91
685.725	1.03
685.908	1.01
686.091	0.92
686.274	1.02
686.457	1.01
686.639	0.96
686.822	1.05
687.005	0.96
687.188	0.96
687.371	1.07
687.553	0.97
687.736	0.95
687.919	0.99
688.102	1.03
688.284	0.87
688.467	0.89
688.65	0.95
688.832	0.9
689.015	0.87
689.197	0.82
689.38	0.99
689.563	1.04
689.745	0.83
689.928	0.81
690.11	0.86
690.293	0.9
690.475	0.81
690.658	0.89
690.84	0.85
691.023	0.79
691.205	0.8
691.388	0.83
691.57	0.92
691.752	0.85
691.935	0.82
692.117	0.8
692.3	0.9
692.482	0.81
692.664	0.79
692.847	0.81
693.029	0.84
693.211	0.82
693.393	0.78
693.576	0.73
693.758	0.82
693.94	0.8
694.122	0.78
694.304	0.74
694.487	0.81
694.669	0.84
694.851	0.69
695.033	0.7
695.215	0.68
695.397	0.74
695.579	0.79
695.761	0.69
695.943	0.68
696.125	0.84
696.308	0.78
696.49	0.66
696.671	0.87
696.853	0.72
697.035	0.94
697.217	0.72
697.399	0.75
697.581	0.75
697.763	0.78
697.945	0.68
698.127	0.73
698.309	0.79
698.491	0.75
698.672	0.78
698.854	0.78
699.036	0.74
699.218	0.69
699.399	0.78
699.581	0.77
699.763	0.72
699.945	0.63
700.126	0.58
700.308	0.67
700.49	0.7
700.671	0.59
700.853	0.64
701.035	0.63
701.216	0.64
701.398	0.6
701.579	0.7
701.761	0.76
701.943	0.62
702.124	0.67
702.306	0.67
702.487	0.86
702.669	0.64
702.85	0.59
703.031	0.61
703.213	0.85
703.394	0.72
703.576	0.59
703.757	0.81
703.938	0.69
704.12	0.85
704.301	0.66
704.483	0.67
704.664	0.68
704.845	0.8
705.026	0.67
705.208	0.64
705.389	0.64
705.57	0.63
705.751	0.56
705.933	0.67
706.114	0.71
706.295	0.64
706.476	0.53
706.657	0.71
706.838	0.68
707.02	0.69
707.201	0.57
707.382	0.53
707.563	0.63
707.744	0.49
707.925	0.53
708.106	0.57
708.287	0.65
708.468	0.7
708.649	0.55
708.83	0.56
709.011	0.56
709.192	0.73
709.373	0.5
709.554	0.53
709.734	0.69
709.915	0.63
710.096	0.6
710.277	0.42
710.458	0.56
710.639	0.61
710.819	0.48
711	0.56
711.181	0.63
711.362	0.64
711.542	0.6
711.723	0.53
711.904	0.63
712.085	0.57
712.265	0.56
712.446	0.42
712.627	0.48
712.807	0.56
712.988	0.59
713.168	0.41
713.349	0.52
713.53	0.38
713.71	0.49
713.891	0.49
714.071	0.54
714.252	0.5
714.432	0.44
714.613	0.42
714.793	0.53
714.974	0.61
715.154	0.59
715.334	0.54
715.515	0.58
715.695	0.39
715.876	0.48
716.056	0.48
716.236	0.4
716.417	0.46
716.597	0.44
716.777	0.72
716.957	0.48
717.138	0.52
717.318	0.42
717.498	0.45
717.678	0.56
717.859	0.51
718.039	0.37
718.219	0.5
718.399	0.49
718.579	0.45
718.759	0.42
718.939	0.49
719.12	0.49
719.3	0.46
719.48	0.33
719.66	0.36
719.84	0.62
720.02	0.49
720.2	0.29
720.38	0.5
720.56	0.56
720.74	0.32
720.92	0.54
721.1	0.57
721.279	0.52
721.459	0.53
721.639	0.32
721.819	0.48
721.999	0.44
722.179	0.57
722.359	0.37
722.538	0.48
722.718	0.43
722.898	0.43
723.078	0.39
723.257	0.4
723.437	0.46
723.617	0.44
723.797	0.35
723.976	0.4
724.156	0.58
724.336	0.56
724.515	0.64
724.695	0.3
724.874	0.5
725.054	0.55
725.234	0.43
725.413	0.45
725.593	0.46
725.772	0.46
725.952	0.37
726.131	0.42
726.311	0.41
726.49	0.45
726.67	0.27
726.849	0.41
727.028	0.49
727.208	0.45
727.387	0.51
727.567	0.33
727.746	0.47
727.925	0.31
728.105	0.33
728.284	0.39
728.463	0.4
728.643	0.47
728.822	0.33
729.001	0.39
729.18	0.49
729.359	0.55
729.539	0.35
729.718	0.43
729.897	0.44
730.076	0.32
730.255	0.31
730.434	0.37
730.614	0.46
730.793	0.57
730.972	0.36
731.151	0.44
731.33	0.5
731.509	0.39
731.688	0.43
731.867	0.39
732.046	0.21
732.225	0.6
732.404	0.4
732.583	0.28
732.762	0.43
732.941	0.49
733.12	0.41
733.298	0.43
733.477	0.42
733.656	0.28
733.835	0.33
734.014	0.45
734.193	0.37
734.371	0.45
734.55	0.52
734.729	0.25
734.908	0.44
735.086	0.43
735.265	0.5
735.444	0.1
735.623	0.25
735.801	0.32
735.98	0.31
736.159	0.38
736.337	0.48
736.516	0.47
736.694	0.36
736.873	0.37
737.052	0.65
737.23	0.43
737.409	0.41
737.587	0.67
737.766	0.27
737.944	0.33
738.123	0.51
738.301	0.49
738.479	0.27
738.658	0.56
738.836	0.16
739.015	0.39
739.193	0.54
739.371	0.36
739.55	0.37
739.728	0.33
739.906	0.41
740.085	0.61
740.263	0.47
740.441	0.2
740.62	0.6
740.798	0.56
740.976	0.25
741.154	0.33
741.332	0.6
741.511	0.4
741.689	0.45
741.867	0.43
742.045	0.39
742.223	0.39
742.401	0.31
742.579	0.43
742.757	0.46
742.935	0.28
743.114	0.31
743.292	0.26
743.47	0.36
743.648	0.38
743.826	0.41
744.004	0.41
744.181	0.41
744.359	0.42
744.537	0.41
744.715	0.34
744.893	0.48
745.071	0.37
745.249	0.44
745.427	0.37
745.605	0.36
745.782	0.35
745.96	0.4
746.138	0.34
746.316	0.44
746.493	0.34
746.671	0.35
746.849	0.26
747.027	0.35
747.204	0.34
747.382	0.46
747.56	0.24
747.737	0.36
747.915	0.28
748.093	0.5
748.27	0.33
748.448	0.33
748.625	0.29
748.803	0.24
748.98	0.28
749.158	0.34
749.335	0.47
749.513	0.29
749.69	0.37
749.868	0.39
750.045	0.4
750.223	0.32
750.4	0.13
750.578	0.5
750.755	0.28
750.932	0.14
751.11	0.48
751.287	0.21
751.464	0.43
751.642	0.13
751.819	0.4
751.996	0.35
752.173	0.27
752.351	0.27
752.528	0.19
752.705	0.25
752.882	0.23
753.06	0.37
753.237	0.35
753.414	0.58
753.591	0.53
753.768	0.28
753.945	0.27
754.122	0.19
754.299	0.31
754.476	0.27
754.654	0.34
754.831	0.37
755.008	0.39
755.185	0.26
755.362	0.23
755.539	0.43
755.716	0.29
755.892	0.23
756.069	0.36
756.246	0.33
756.423	0.28
756.6	0.45
756.777	0.15
756.954	0.41
757.131	0.25
757.307	0.13
757.484	0.22
757.661	0.3
757.838	0.43
758.015	0.19
758.191	0.43
758.368	0.32
758.545	0.48
758.721	0.31
758.898	0.18
759.075	0.33
759.251	0.46
759.428	0.36
759.605	0.13
759.781	0.31
759.958	0.52
760.134	0.24
760.311	0.22
760.488	0.61
760.664	0.44
760.841	0.28
761.017	0.29
761.194	0.36
761.37	0.39
761.547	0.39
761.723	0.29
761.899	0.52
762.076	0.21
762.252	0.13
762.429	0.13
762.605	0.52
762.781	0.24
762.958	0.31
763.134	0.17
763.31	0.19
763.486	0.41
763.663	0.05
763.839	0.39
764.015	0.13
764.191	0.15
764.368	0.18
764.544	0.07
764.72	0.31
764.896	0.34
765.072	0.34
765.248	0.35
765.425	0.31
765.601	0.3
765.777	0.39
765.953	0.12
766.129	0.3
766.305	0.18
766.481	0.36
766.657	0.38
766.833	0.57
767.009	0.07
767.185	0.31
767.361	0.36
767.537	0.25
767.713	0.43
767.889	0.24
768.065	0.36
768.24	0.4
768.416	0.44
768.592	0.13
768.768	0.24
768.944	0.38
769.12	0.15
769.295	0.17
769.471	0.29
769.647	0.32
769.823	0.5
769.998	0.22
770.174	0.22
770.35	0.74
770.525	0.61
770.701	0.25
770.877	0.31
771.052	0.28
771.228	0.44
771.403	0.32
771.579	0.36
771.755	0.68
771.93	0.17
772.106	0.18
772.281	0.01
772.457	0.44
772.632	0.42
772.808	0.14
772.983	0.31
773.159	0.15
773.334	0.44
773.509	0.23
773.685	0.08
773.86	0.65
774.036	0.56
774.211	0.27
774.386	0.13
774.562	0.32
774.737	0.57
774.912	0.32
775.087	0.44
775.263	0.43
775.438	0.39
775.613	0.28
775.788	0.22
775.964	0.43
776.139	0.58
776.314	0.11
776.489	0.26
776.664	0.5
776.839	0.22
777.014	0.38
777.19	0.5
777.365	0.66
777.54	0.56
777.715	0.2
777.89	0.23
778.065	0.21
778.24	0.36
778.415	0.41
778.59	0.14
778.765	0.26
778.94	0.57
779.115	0.27
779.289	0.35
779.464	0.38
779.639	0.19
779.814	0.03
779.989	0.18
780.164	0.48
780.339	0.26
780.513	0.09
780.688	0.17
780.863	0.4
781.038	0.44
781.212	0.27
781.387	0.27
781.562	0.85
781.737	0.04
781.911	0.57
782.086	0.22
782.261	0.35
782.435	0.58
782.61	0.1
782.784	0.24
782.959	0.43
783.134	0.12
783.308	0.02
783.483	0.28
783.657	0.84
783.832	0.45
784.006	0.13
784.181	0.2
784.355	0.4
784.53	0.09
784.704	0.23
784.878	0.55
785.053	0.53
785.227	0.57
785.402	0.85
785.576	0.12
785.75	0.37
785.925	0.17
786.099	0.4
786.273	0.43
786.448	0.55
786.622	0.38
786.796	0.16
786.97	0.16
787.145	0.93
787.319	0.08
787.493	0.14
787.667	-0.09
787.841	0.35
788.015	0.71
788.19	0.3
788.364	0.31
788.538	0.59
788.712	0.66
788.886	0.38
789.06	0.54
789.234	0.61
789.408	0.17
789.582	0.2
789.756	0.44
789.93	0.02
790.104	0.32
790.278	0.21
790.452	-0.02
790.626	0.49
790.8	0.24
790.973	0.57
791.147	0.66
791.321	0.72
791.495	0.55
791.669	0.42
791.843	0.43
792.016	0.4
792.19	0.92
792.364	0.32
792.538	0.85
792.711	0.52
792.885	0.16
793.059	0.24
793.233	-0.12
793.406	0.5
793.58	0.53
793.754	0.47
793.927	0.27
794.101	0.74
794.274	0.41
794.448	0.56
794.622	0.03
794.795	0.94
794.969	0.51
795.142	0.78
795.316	0.35
795.489	0.18
795.663	0.84
795.836	0.26
796.009	0.14
796.183	0.55
796.356	0.43
796.53	0.52
796.703	0.22
796.876	1.2
797.05	0.26
797.223	0.3
797.396	0.37
797.57	0.65
797.743	0.87
797.916	0.26
798.09	0.19
798.263	0.61
798.436	0.74
798.609	0.28
798.782	0.64
798.956	0.53
799.129	0.3
799.302	0.25
799.475	0.24
799.648	0.58
799.821	0.29
799.994	0.27
800.167	-0.23
800.34	0.24
800.514	0.55
800.687	0.24
800.86	0.14
801.033	0.52
801.206	0.41
801.379	0.12
801.551	0.65
801.724	0.49
801.897	0.75
802.07	0.05
802.243	-0.02
802.416	0.38
802.589	0.29
802.762	0.6
802.935	0.54
803.107	0.77
803.28	0.98
803.453	1.01
803.626	0.33
803.798	0.67
803.971	0.05
804.144	0.63
804.317	0.78
804.489	0.93
804.662	0.61
804.835	0.66
805.007	0.01
805.18	0.96
805.353	0.8
805.525	0.16
805.698	-0.04
805.87	0.9
806.043	0.87
806.215	-0.27
806.388	0.12
806.56	0.45
806.733	0.61
806.905	0.46
807.078	0.06
807.25	0.39
807.423	0.91
807.595	0.29
807.768	0.46
807.94	0.71
808.112	0.61
808.285	0.49
808.457	0.27
808.629	0.31
808.802	0.72
808.974	0.41
809.146	0.16
809.318	0.33
809.491	0.87
809.663	0.7
809.835	-0.04
810.007	0.51
810.18	0.56
810.352	-0.18
810.524	0.29
810.696	0.8
810.868	0.76
811.04	0.25
811.212	0.21
811.384	0.88
811.556	0.6
811.728	0.23
811.901	1.43
812.073	0.43
812.245	0.88
812.417	0.34
812.589	-0.24
812.76	0.54
812.932	0.9
813.104	0.8
813.276	0.3
813.448	0.79
813.62	0.55
813.792	0.44
813.964	0.65
814.136	0.83
814.307	0.27
814.479	0.11
814.651	0.33
814.823	1.42
814.995	0.48
815.166	0.39
815.338	-0.03
815.51	-0.12
815.681	1.53
815.853	0.75
816.025	0.24
816.196	1.72
816.368	1.01
816.54	0.12
816.711	0.11
816.883	0.75
817.054	1.38
817.226	-0.05
817.398	0.71
817.569	0.58
817.741	0.83
817.912	0.49
818.084	0.53
818.255	0.81
818.426	0.53
818.598	0.48
818.769	0.05
818.941	0.55
819.112	1.34
819.283	0.67
819.455	0.3
819.626	0.51
819.798	0.7
819.969	0.65
820.14	0.43
820.311	0.15
820.483	0.59
820.654	1.07
820.825	0.12
820.996	0.13
821.168	-0.04
821.339	0.19
821.51	0.12
821.681	0.47
821.852	0.17
822.023	0.01
822.195	0.42
822.366	0.93
822.537	0.63
822.708	1.24
822.879	0
823.05	1.55
823.221	0.06
823.392	1.23
823.563	0.81
823.734	0.85
823.905	0.39
824.076	0
824.247	0.42
824.418	0.07
824.589	1.63
824.759	0.72
824.93	0.35
825.101	0.11
825.272	1.22
825.443	1.4
825.614	1.02
825.784	-0.11
825.955	1.69
826.126	1.78
826.297	0.79
826.467	1.41
826.638	1.56
826.809	-0.37
826.98	0.8
827.15	1.54
827.321	0.51
827.492	0.92
827.662	0.6
827.833	1.94
828.003	1.18
828.174	-0.14
828.345	-0.13
828.515	2.05
828.686	0.99
828.856	0.69
829.027	0.87
829.197	1.08
829.368	0.86
829.538	0.47
829.709	0.63
829.879	0.96
830.049	1.18
830.22	0.24
830.39	0.63
830.56	1.1
830.731	0.71
830.901	0.27
831.072	0.32
831.242	1.55
831.412	0.73
831.582	1.04
831.753	-0.43
831.923	0.97
832.093	0.42
832.263	0.27
832.434	-0.69
832.604	0.48
832.774	1.06
832.944	0.75
833.114	-0.06
833.284	0.95
833.454	0.03
833.624	0.9
833.795	0.03
833.965	2.58
834.135	1.43
834.305	-0.24
834.475	0.41
834.645	0.49
834.815	0.4
834.985	-0
835.155	0.34
835.325	1.12
835.494	0.95
835.664	0.29
835.834	-0.02
836.004	0.8
836.174	0.99
836.344	0.53
836.514	-0.63
836.684	0.53
836.853	0.71
837.023	0.95
837.193	-0.31
837.363	1.51
837.532	1.52
837.702	-0.03
837.872	-0.01
838.041	1.62
838.211	2.76
838.381	-0.16
838.55	0.87
838.72	3.31
838.89	2.16
839.059	0.7
839.229	-0.08
839.398	1.99
839.568	1.34
839.738	0.88
839.907	1.66
840.077	1.48
840.246	0.71
840.416	-0.15
840.585	0.37
840.755	2.19
840.924	1.96
841.093	0.11
841.263	0.58
841.432	0.71
841.602	-0.09
841.771	-0.29
841.94	1.23
842.11	2.66
842.279	2.44
842.448	-0.36
842.617	0.19
842.787	2.02
842.956	-0.51
843.125	1
843.294	1.17
843.464	2.69
843.633	1.18
843.802	-0.19
843.971	0.9
844.14	0.88
844.309	2.24
844.479	-0.97
844.648	0.11
844.817	1.03
844.986	1.18
845.155	1.11
845.324	0.04
845.493	0.66
845.662	0.03
845.831	1.22
846	0.73
846.169	1
846.338	2.65
846.507	1.04
846.676	0.61
846.844	0.56
847.013	2.45
847.182	1.23
847.351	-0.23
847.52	0.95
847.689	1.16
847.858	0.46
848.026	0.62
848.195	1.03
848.364	0.49
848.533	0.5
848.701	-0.15
848.87	0.46
849.039	1.9
849.207	1.92
849.376	1.87
849.545	3.08
849.713	0.07
849.882	0.9
850.051	0.47
850.219	2.01
850.388	2.55
850.556	0.05
850.725	0.91
850.893	1.73
851.062	0.79
851.23	1.18
851.399	-0.27
851.567	0.42
851.736	0.97
851.904	0.52
852.073	1.36
852.241	1.82
852.41	1.22
852.578	1.25
852.746	0.06
852.915	1.65
853.083	0.02
853.251	-0.08
853.42	0.29
853.588	1.38
853.756	2.34
853.924	1.02
854.093	1.37
854.261	1.08
854.429	-0.56
854.597	0.75
854.765	0.03
854.934	1.82
855.102	2.11
855.27	0.84
855.438	1.87
855.606	2.55
855.774	3
855.942	-0.63
856.11	-0.73
856.278	1.9
856.446	1.77
856.614	1.32
856.782	0.24
856.95	1.78
857.118	2.14
857.286	0.47
857.454	0.49
857.622	2.59
857.79	2.1
857.958	0.36
858.126	-0.22
858.294	-1.83
858.462	1.3
858.629	-0
858.797	-0.09
858.965	2.23
859.133	1.53
859.301	0.12
859.468	2.05
859.636	-0.32
859.804	3.91
859.971	2.67
860.139	-0.05
860.307	2.52
860.474	1.59
860.642	0.22
860.81	-0.33
860.977	0.99
861.145	3.56
861.313	1.65
861.48	1.57
861.648	2.53
861.815	1.07
861.983	0.58
862.15	0.73
862.318	1.27
862.485	2.11
862.653	0.22
862.82	0.03
862.988	3.29
863.155	3.5
863.322	0.01
863.49	1.39
863.657	0.59
863.824	3.35
863.992	2.38
864.159	2.3
864.326	3.89
864.494	0.84
864.661	4.78
864.828	-0.6
864.996	1.69
865.163	3.46
865.33	0.29
865.497	-2.07
865.664	-0.84
865.832	-0.21
865.999	2.16
866.166	-0.2
866.333	1.77
866.5	1.85
866.667	1.21
866.834	1.81
867.001	3.22
867.168	-0.59
867.335	0.41
867.502	-0.38
867.669	1.39
867.836	3.39
868.003	1.53
868.17	0.65
868.337	3.69
868.504	6.66
868.671	-1.07
868.838	-0.53
869.005	2.25
869.172	1.41
869.339	1.37
869.505	0.99
869.672	2.49
869.839	5.17
870.006	2.02
870.173	-0.61
870.339	2.01
870.506	5.11
870.673	0.88
870.84	1.73
871.006	3.43
871.173	2.65
871.34	2.02
871.506	-0.25
871.673	2.09
871.839	0.09
872.006	0.45
872.173	-0.55
872.339	1.94
872.506	3.52
872.672	0.67
872.839	-1.62
873.005	2.19
873.172	4.64
873.338	3.38
873.505	1.18
873.671	1.95
873.838	2.6
874.004	-0.53
874.171	0.93
874.337	2.53
874.503	2.6
874.67	0.01
874.836	1.15
875.002	3.81
875.169	2.7
875.335	2.09
875.501	0.99
875.668	2.51
875.834	2.08
876	1.17
876.166	2.84
876.332	4.05
876.499	6.04
876.665	0.77
876.831	2.62
876.997	4.28
877.163	4.35
877.329	0.71
877.495	0.89
877.662	3.14
877.828	2.54
877.994	2.79
878.16	-2.21
878.326	2.28
878.492	1.34
878.658	1.38
878.824	0.09
878.99	1.46
879.156	1
879.322	3.71
879.487	1.82
879.653	2.48
879.819	3.05
879.985	0.51
880.151	0.09
880.317	2.98
880.483	1.67
880.648	2.03
880.814	-1.46
880.98	3.54
881.146	-2.73
881.312	1.17
881.477	1.16
881.643	0.84
881.809	4.15
881.974	4.56
882.14	-0.97
882.306	2.74
882.471	6.75
882.637	-0.31
882.803	1.85
882.968	6.28
883.134	5.73
883.299	2.22
883.465	1.02
883.63	2.9
883.796	3.01
883.961	2.36
884.127	2.37
884.292	-2.64
884.458	-0.75
884.623	-0.75
