Data from Apollo_Calib_20240827__AbsoluteIrradiance__28__23-37-00-209.txt Node

Date: Tue Aug 27 23:37:00 BST 2024
User: biology
Spectrometer: FLMT08252
Trigger mode: 0
Integration Time (sec): 5.000000E-1
Scans to average: 5
Electric dark correction enabled: true
Nonlinearity correction enabled: false
Boxcar width: 0
XAxis mode: Wavelengths
Number of Pixels in Spectrum: 3648
>>>>>Begin Spectral Data<<<<<
179.588	-0
179.809	-0
180.03	-0
180.251	-0
180.473	-0
180.694	0
180.915	0
181.136	-0
181.357	0
181.578	-0
181.799	-0
182.02	-0
182.241	-0
182.462	-0
182.683	0
182.904	0
183.125	-0
183.346	0
183.567	0
183.788	0
184.009	0
184.23	0
184.451	0
184.672	0
184.892	0
185.113	0
185.334	0
185.555	0
185.776	0
185.996	0
186.217	0
186.438	0
186.659	0
186.879	0
187.1	0
187.321	0
187.541	0
187.762	0
187.983	0
188.203	0
188.424	0
188.644	0
188.865	0
189.086	0
189.306	0
189.527	0
189.747	0
189.968	0
190.188	0
190.409	0
190.629	0
190.849	0
191.07	0
191.29	0
191.511	0
191.731	0
191.951	0
192.172	0
192.392	0
192.612	0
192.833	0
193.053	0
193.273	0
193.493	0
193.714	0
193.934	0
194.154	0
194.374	0
194.594	0
194.815	0
195.035	0
195.255	0
195.475	0
195.695	0
195.915	0
196.135	0
196.355	0
196.575	0
196.795	0
197.015	0
197.235	0
197.455	0
197.675	0
197.895	0
198.115	0
198.335	0
198.555	0
198.775	0
198.995	0
199.214	0
199.434	0
199.654	0
199.874	0
200.094	3.37
200.313	1.99
200.533	2.38
200.753	2
200.973	3.19
201.192	2.56
201.412	1.08
201.632	2.07
201.851	3.48
202.071	1.62
202.291	1.69
202.51	1.78
202.73	2.78
202.95	1.42
203.169	1.42
203.389	1.5
203.608	2.05
203.828	1.1
204.047	1.34
204.267	2.01
204.486	1.58
204.706	2.2
204.925	1.52
205.145	1.49
205.364	2.08
205.583	2.05
205.803	1.63
206.022	1.15
206.242	1.65
206.461	1.93
206.68	1.2
206.9	1.71
207.119	1.99
207.338	2.07
207.557	1.47
207.777	1.13
207.996	1.37
208.215	1.78
208.434	1.28
208.654	1.04
208.873	1.31
209.092	1.84
209.311	1.04
209.53	1.15
209.749	1.18
209.968	1.07
210.187	1.21
210.407	0.93
210.626	1.07
210.845	1.47
211.064	1.05
211.283	0.92
211.502	1.48
211.721	1.11
211.94	0.89
212.159	1.49
212.377	1.37
212.596	1.45
212.815	1.27
213.034	1.16
213.253	1.35
213.472	1.22
213.691	0.82
213.91	0.76
214.128	0.73
214.347	1.27
214.566	0.63
214.785	0.58
215.003	1.18
215.222	1.03
215.441	1.06
215.66	0.77
215.878	0.84
216.097	1.14
216.316	0.63
216.534	0.5
216.753	0.97
216.972	0.99
217.19	0.92
217.409	0.74
217.627	0.81
217.846	0.82
218.064	0.91
218.283	0.71
218.501	1.35
218.72	1.11
218.938	0.55
219.157	0.55
219.375	0.96
219.594	0.99
219.812	0.56
220.031	0.48
220.249	1.07
220.467	0.97
220.686	0.63
220.904	0.46
221.122	0.7
221.341	1.1
221.559	0.77
221.777	0.6
221.995	0.84
222.214	0.76
222.432	0.63
222.65	0.86
222.868	0.79
223.086	0.79
223.305	0.79
223.523	0.62
223.741	1.21
223.959	0.6
224.177	0.49
224.395	0.55
224.613	0.6
224.831	0.88
225.049	0.47
225.267	0.65
225.485	0.74
225.703	0.62
225.921	0.5
226.139	0.58
226.357	0.8
226.575	0.76
226.793	0.63
227.011	1.38
227.229	0.82
227.447	0.77
227.665	0.46
227.883	0.37
228.1	0.69
228.318	0.57
228.536	0.31
228.754	0.4
228.972	0.7
229.189	0.85
229.407	0.58
229.625	0.46
229.843	0.8
230.06	0.59
230.278	0.61
230.496	0.62
230.713	0.58
230.931	0.67
231.149	0.55
231.366	0.39
231.584	0.55
231.801	0.89
232.019	0.42
232.236	0.35
232.454	0.46
232.671	0.52
232.889	0.48
233.106	0.37
233.324	0.59
233.541	0.57
233.759	0.56
233.976	0.45
234.194	0.59
234.411	0.66
234.628	0.5
234.846	0.4
235.063	0.55
235.28	0.47
235.498	0.47
235.715	0.33
235.932	0.65
236.149	0.56
236.367	0.48
236.584	0.52
236.801	0.44
237.018	0.64
237.236	0.49
237.453	0.37
237.67	0.51
237.887	0.41
238.104	0.54
238.321	0.39
238.538	0.43
238.755	0.65
238.973	0.33
239.19	0.43
239.407	0.53
239.624	0.53
239.841	0.38
240.058	0.32
240.275	0.61
240.492	0.46
240.709	0.44
240.925	0.38
241.142	0.47
241.359	0.3
241.576	0.38
241.793	0.35
242.01	0.41
242.227	0.54
242.444	0.58
242.66	0.62
242.877	0.51
243.094	0.46
243.311	0.53
243.527	0.42
243.744	0.48
243.961	0.46
244.178	0.38
244.394	0.38
244.611	0.51
244.828	0.57
245.044	0.3
245.261	0.45
245.477	0.54
245.694	0.55
245.911	0.3
246.127	0.48
246.344	0.57
246.56	0.48
246.777	0.43
246.993	0.44
247.21	0.41
247.426	0.47
247.643	0.34
247.859	0.35
248.076	0.41
248.292	0.63
248.508	0.37
248.725	0.43
248.941	0.46
249.157	0.49
249.374	0.33
249.59	0.44
249.806	0.46
250.023	0.41
250.239	0.27
250.455	0.33
250.671	0.48
250.888	0.38
251.104	0.4
251.32	0.37
251.536	0.42
251.752	0.37
251.969	0.46
252.185	0.38
252.401	0.6
252.617	0.49
252.833	0.33
253.049	0.4
253.265	0.35
253.481	0.39
253.697	0.36
253.913	0.32
254.129	0.4
254.345	0.45
254.561	0.32
254.777	0.41
254.993	0.44
255.209	0.41
255.425	0.32
255.641	0.31
255.857	0.42
256.073	0.37
256.288	0.25
256.504	0.29
256.72	0.46
256.936	0.56
257.152	0.36
257.367	0.32
257.583	0.38
257.799	0.46
258.015	0.27
258.23	0.32
258.446	0.52
258.662	0.36
258.877	0.32
259.093	0.33
259.309	0.39
259.524	0.44
259.74	0.27
259.955	0.24
260.171	0.37
260.387	0.37
260.602	0.45
260.818	0.4
261.033	0.34
261.249	0.3
261.464	0.3
261.68	0.24
261.895	0.45
262.11	0.4
262.326	0.34
262.541	0.22
262.757	0.47
262.972	0.45
263.187	0.42
263.403	0.33
263.618	0.45
263.833	0.31
264.049	0.31
264.264	0.39
264.479	0.37
264.694	0.4
264.91	0.32
265.125	0.29
265.34	0.43
265.555	0.51
265.77	0.37
265.986	0.32
266.201	0.41
266.416	0.39
266.631	0.39
266.846	0.28
267.061	0.39
267.276	0.36
267.491	0.2
267.706	0.39
267.921	0.3
268.136	0.31
268.351	0.31
268.566	0.23
268.781	0.47
268.996	0.4
269.211	0.31
269.426	0.21
269.641	0.33
269.856	0.42
270.071	0.34
270.285	0.22
270.5	0.37
270.715	0.39
270.93	0.26
271.145	0.32
271.359	0.42
271.574	0.33
271.789	0.33
272.004	0.33
272.218	0.3
272.433	0.33
272.648	0.29
272.862	0.42
273.077	0.32
273.292	0.31
273.506	0.24
273.721	0.2
273.936	0.31
274.15	0.41
274.365	0.29
274.579	0.37
274.794	0.36
275.008	0.4
275.223	0.18
275.437	0.3
275.652	0.49
275.866	0.4
276.081	0.35
276.295	0.4
276.509	0.36
276.724	0.34
276.938	0.35
277.153	0.33
277.367	0.32
277.581	0.24
277.796	0.33
278.01	0.18
278.224	0.38
278.438	0.46
278.653	0.33
278.867	0.28
279.081	0.09
279.295	0.31
279.51	0.32
279.724	0.22
279.938	0.27
280.152	0.35
280.366	0.25
280.58	0.3
280.794	0.39
281.008	0.3
281.222	0.35
281.437	0.46
281.651	0.28
281.865	0.37
282.079	0.25
282.293	0.27
282.507	0.3
282.721	0.28
282.935	0.26
283.148	0.16
283.362	0.28
283.576	0.23
283.79	0.28
284.004	0.3
284.218	0.33
284.432	0.27
284.646	0.3
284.859	0.2
285.073	0.3
285.287	0.26
285.501	0.31
285.714	0.28
285.928	0.3
286.142	0.31
286.356	0.26
286.569	0.26
286.783	0.34
286.997	0.31
287.21	0.31
287.424	0.3
287.637	0.27
287.851	0.24
288.065	0.34
288.278	0.29
288.492	0.3
288.705	0.27
288.919	0.31
289.132	0.19
289.346	0.3
289.559	0.15
289.773	0.24
289.986	0.29
290.2	0.29
290.413	0.32
290.626	0.23
290.84	0.28
291.053	0.25
291.267	0.35
291.48	0.28
291.693	0.25
291.906	0.24
292.12	0.27
292.333	0.2
292.546	0.25
292.76	0.34
292.973	0.27
293.186	0.3
293.399	0.24
293.612	0.32
293.826	0.26
294.039	0.28
294.252	0.28
294.465	0.31
294.678	0.26
294.891	0.2
295.104	0.24
295.317	0.23
295.53	0.3
295.743	0.25
295.956	0.23
296.169	0.36
296.382	0.29
296.595	0.25
296.808	0.22
297.021	0.29
297.234	0.27
297.447	0.25
297.66	0.25
297.873	0.31
298.086	0.3
298.299	0.23
298.511	0.23
298.724	0.31
298.937	0.18
299.15	0.24
299.363	0.26
299.575	0.29
299.788	0.26
300.001	0.24
300.213	0.24
300.426	0.2
300.639	0.2
300.852	0.19
301.064	0.27
301.277	0.31
301.489	0.29
301.702	0.28
301.915	0.24
302.127	0.28
302.34	0.29
302.552	0.3
302.765	0.19
302.977	0.33
303.19	0.21
303.402	0.25
303.615	0.22
303.827	0.2
304.04	0.24
304.252	0.29
304.464	0.21
304.677	0.32
304.889	0.27
305.102	0.2
305.314	0.19
305.526	0.26
305.739	0.27
305.951	0.19
306.163	0.21
306.375	0.33
306.588	0.18
306.8	0.22
307.012	0.18
307.224	0.25
307.436	0.36
307.649	0.16
307.861	0.25
308.073	0.31
308.285	0.25
308.497	0.23
308.709	0.19
308.921	0.25
309.133	0.27
309.346	0.25
309.558	0.24
309.77	0.26
309.982	0.32
310.194	0.28
310.406	0.23
310.617	0.38
310.829	0.25
311.041	0.26
311.253	0.21
311.465	0.23
311.677	0.29
311.889	0.26
312.101	0.2
312.313	0.29
312.524	0.27
312.736	0.22
312.948	0.25
313.16	0.35
313.372	0.24
313.583	0.23
313.795	0.28
314.007	0.24
314.218	0.32
314.43	0.25
314.642	0.21
314.853	0.22
315.065	0.29
315.277	0.25
315.488	0.27
315.7	0.27
315.912	0.27
316.123	0.24
316.335	0.21
316.546	0.36
316.758	0.25
316.969	0.23
317.181	0.25
317.392	0.26
317.604	0.26
317.815	0.27
318.026	0.21
318.238	0.22
318.449	0.29
318.661	0.18
318.872	0.19
319.083	0.22
319.295	0.26
319.506	0.22
319.717	0.24
319.929	0.31
320.14	0.28
320.351	0.25
320.562	0.23
320.774	0.25
320.985	0.26
321.196	0.22
321.407	0.13
321.618	0.28
321.829	0.24
322.041	0.24
322.252	0.23
322.463	0.27
322.674	0.3
322.885	0.2
323.096	0.23
323.307	0.21
323.518	0.28
323.729	0.18
323.94	0.2
324.151	0.23
324.362	0.26
324.573	0.26
324.784	0.25
324.995	0.28
325.206	0.25
325.417	0.21
325.628	0.21
325.838	0.22
326.049	0.26
326.26	0.22
326.471	0.26
326.682	0.32
326.892	0.25
327.103	0.19
327.314	0.2
327.525	0.27
327.735	0.23
327.946	0.26
328.157	0.19
328.368	0.23
328.578	0.25
328.789	0.29
328.999	0.24
329.21	0.22
329.421	0.29
329.631	0.23
329.842	0.16
330.052	0.29
330.263	0.26
330.473	0.31
330.684	0.23
330.894	0.2
331.105	0.24
331.315	0.26
331.526	0.18
331.736	0.33
331.947	0.3
332.157	0.29
332.367	0.19
332.578	0.29
332.788	0.3
332.999	0.3
333.209	0.25
333.419	0.19
333.629	0.24
333.84	0.3
334.05	0.25
334.26	0.28
334.47	0.31
334.681	0.28
334.891	0.2
335.101	0.26
335.311	0.36
335.521	0.25
335.732	0.18
335.942	0.29
336.152	0.28
336.362	0.26
336.572	0.26
336.782	0.37
336.992	0.22
337.202	0.19
337.412	0.21
337.622	0.25
337.832	0.26
338.042	0.24
338.252	0.23
338.462	0.22
338.672	0.27
338.882	0.25
339.092	0.18
339.302	0.33
339.511	0.29
339.721	0.22
339.931	0.21
340.141	0.29
340.351	0.28
340.561	0.3
340.77	0.31
340.98	0.27
341.19	0.23
341.4	0.25
341.609	0.2
341.819	0.17
342.029	0.26
342.238	0.26
342.448	0.23
342.658	0.31
342.867	0.26
343.077	0.26
343.286	0.2
343.496	0.23
343.706	0.29
343.915	0.19
344.125	0.25
344.334	0.24
344.544	0.17
344.753	0.25
344.963	0.23
345.172	0.22
345.381	0.17
345.591	0.22
345.8	0.26
346.01	0.28
346.219	0.31
346.428	0.08
346.638	0.26
346.847	0.23
347.056	0.35
347.266	0.21
347.475	0.25
347.684	0.27
347.893	0.25
348.103	0.27
348.312	0.25
348.521	0.22
348.73	0.25
348.94	0.25
349.149	0.22
349.358	0.23
349.567	0.21
349.776	0.19
349.985	0.19
350.194	0.28
350.403	0.28
350.612	0.2
350.821	0.21
351.03	0.25
351.239	0.18
351.448	0.22
351.657	0.2
351.866	0.33
352.075	0.26
352.284	0.27
352.493	0.18
352.702	0.3
352.911	0.25
353.12	0.21
353.329	0.26
353.538	0.25
353.746	0.28
353.955	0.21
354.164	0.29
354.373	0.27
354.582	0.29
354.79	0.25
354.999	0.3
355.208	0.26
355.416	0.35
355.625	0.24
355.834	0.24
356.042	0.29
356.251	0.21
356.46	0.2
356.668	0.25
356.877	0.36
357.085	0.3
357.294	0.2
357.503	0.28
357.711	0.26
357.92	0.38
358.128	0.24
358.337	0.24
358.545	0.25
358.754	0.21
358.962	0.25
359.17	0.19
359.379	0.29
359.587	0.29
359.796	0.25
360.004	0.28
360.212	0.25
360.421	0.3
360.629	0.2
360.837	0.21
361.046	0.24
361.254	0.32
361.462	0.24
361.67	0.28
361.879	0.27
362.087	0.29
362.295	0.26
362.503	0.23
362.711	0.17
362.92	0.26
363.128	0.19
363.336	0.19
363.544	0.18
363.752	0.26
363.96	0.22
364.168	0.2
364.376	0.23
364.584	0.24
364.792	0.3
365	0.28
365.208	0.24
365.416	0.26
365.624	0.23
365.832	0.22
366.04	0.29
366.248	0.26
366.456	0.27
366.664	0.26
366.872	0.27
367.079	0.27
367.287	0.22
367.495	0.25
367.703	0.21
367.911	0.17
368.118	0.19
368.326	0.24
368.534	0.24
368.742	0.31
368.949	0.19
369.157	0.22
369.365	0.25
369.572	0.21
369.78	0.18
369.988	0.29
370.195	0.29
370.403	0.27
370.61	0.21
370.818	0.21
371.026	0.31
371.233	0.23
371.441	0.27
371.648	0.22
371.856	0.27
372.063	0.23
372.271	0.24
372.478	0.24
372.685	0.2
372.893	0.27
373.1	0.22
373.308	0.25
373.515	0.36
373.722	0.29
373.93	0.22
374.137	0.31
374.344	0.32
374.552	0.29
374.759	0.26
374.966	0.27
375.173	0.23
375.381	0.29
375.588	0.24
375.795	0.16
376.002	0.19
376.209	0.22
376.417	0.26
376.624	0.24
376.831	0.28
377.038	0.2
377.245	0.14
377.452	0.27
377.659	0.24
377.866	0.17
378.073	0.24
378.28	0.24
378.487	0.29
378.694	0.27
378.901	0.23
379.108	0.23
379.315	0.28
379.522	0.36
379.729	0.29
379.936	0.25
380.143	0.27
380.35	0.26
380.557	0.27
380.763	0.25
380.97	0.27
381.177	0.27
381.384	0.26
381.591	0.27
381.797	0.23
382.004	0.3
382.211	0.26
382.418	0.27
382.624	0.3
382.831	0.28
383.038	0.28
383.244	0.26
383.451	0.19
383.658	0.27
383.864	0.27
384.071	0.2
384.277	0.34
384.484	0.23
384.69	0.34
384.897	0.21
385.103	0.27
385.31	0.25
385.516	0.2
385.723	0.22
385.929	0.26
386.136	0.2
386.342	0.28
386.549	0.26
386.755	0.35
386.961	0.28
387.168	0.23
387.374	0.29
387.58	0.3
387.787	0.28
387.993	0.26
388.199	0.27
388.406	0.22
388.612	0.26
388.818	0.21
389.024	0.31
389.231	0.31
389.437	0.36
389.643	0.32
389.849	0.3
390.055	0.28
390.261	0.3
390.467	0.3
390.674	0.25
390.88	0.28
391.086	0.33
391.292	0.28
391.498	0.32
391.704	0.33
391.91	0.24
392.116	0.27
392.322	0.19
392.528	0.35
392.734	0.26
392.94	0.31
393.146	0.21
393.352	0.28
393.557	0.3
393.763	0.27
393.969	0.29
394.175	0.27
394.381	0.35
394.587	0.26
394.792	0.32
394.998	0.35
395.204	0.34
395.41	0.3
395.615	0.29
395.821	0.31
396.027	0.34
396.233	0.26
396.438	0.37
396.644	0.41
396.85	0.35
397.055	0.29
397.261	0.38
397.466	0.36
397.672	0.34
397.878	0.32
398.083	0.3
398.289	0.32
398.494	0.38
398.7	0.35
398.905	0.23
399.111	0.41
399.316	0.3
399.522	0.37
399.727	0.27
399.932	0.29
400.138	0.26
400.343	0.38
400.549	0.35
400.754	0.36
400.959	0.38
401.165	0.33
401.37	0.35
401.575	0.32
401.78	0.38
401.986	0.36
402.191	0.36
402.396	0.38
402.601	0.45
402.807	0.42
403.012	0.37
403.217	0.43
403.422	0.4
403.627	0.42
403.832	0.39
404.037	0.48
404.243	0.47
404.448	0.36
404.653	0.42
404.858	0.38
405.063	0.41
405.268	0.4
405.473	0.38
405.678	0.39
405.883	0.61
406.088	0.5
406.293	0.38
406.498	0.49
406.703	0.45
406.907	0.47
407.112	0.43
407.317	0.53
407.522	0.57
407.727	0.45
407.932	0.48
408.136	0.65
408.341	0.57
408.546	0.54
408.751	0.6
408.956	0.57
409.16	0.66
409.365	0.6
409.57	0.59
409.774	0.61
409.979	0.66
410.184	0.68
410.388	0.69
410.593	0.76
410.798	0.71
411.002	0.71
411.207	0.73
411.411	0.8
411.616	0.71
411.82	0.8
412.025	0.85
412.229	0.84
412.434	0.9
412.638	0.92
412.843	0.95
413.047	0.94
413.252	0.9
413.456	1.02
413.66	1.1
413.865	1.04
414.069	1.09
414.273	1.07
414.478	1.11
414.682	1.15
414.886	1.18
415.091	1.21
415.295	1.22
415.499	1.38
415.703	1.32
415.908	1.42
416.112	1.35
416.316	1.59
416.52	1.57
416.724	1.51
416.929	1.59
417.133	1.79
417.337	1.71
417.541	1.79
417.745	1.78
417.949	1.94
418.153	1.98
418.357	1.99
418.561	2.22
418.765	2.18
418.969	2.28
419.173	2.4
419.377	2.35
419.581	2.6
419.785	2.59
419.989	2.62
420.193	2.75
420.397	2.78
420.601	2.98
420.804	3.13
421.008	3.08
421.212	3.23
421.416	3.15
421.62	3.14
421.823	3.35
422.027	3.47
422.231	3.5
422.435	3.41
422.638	3.49
422.842	3.63
423.046	3.74
423.249	3.98
423.453	3.89
423.657	4.15
423.86	4.23
424.064	4.3
424.268	4.43
424.471	4.46
424.675	4.62
424.878	4.74
425.082	4.78
425.285	5.11
425.489	5.11
425.692	5.23
425.896	5.22
426.099	5.46
426.303	5.51
426.506	5.76
426.71	5.95
426.913	6.1
427.116	6.36
427.32	6.26
427.523	6.27
427.726	6.59
427.93	6.73
428.133	7.14
428.336	7.24
428.54	7.34
428.743	7.59
428.946	7.83
429.149	7.87
429.353	7.84
429.556	7.92
429.759	8.04
429.962	8.18
430.165	8.31
430.368	8.06
430.571	8.06
430.775	7.98
430.978	8.12
431.181	8.07
431.384	8.16
431.587	8.3
431.79	8.67
431.993	8.54
432.196	8.84
432.399	9.32
432.602	9.42
432.805	9.41
433.008	10
433.211	9.94
433.414	10.18
433.616	10.18
433.819	10.19
434.022	10.39
434.225	10.53
434.428	10.57
434.631	10.99
434.833	10.74
435.036	11.09
435.239	11.17
435.442	11.3
435.645	11.51
435.847	11.53
436.05	11.92
436.253	12.07
436.455	12.14
436.658	11.92
436.861	12.25
437.063	12.39
437.266	12.31
437.468	12.82
437.671	13.06
437.874	13.04
438.076	12.9
438.279	13.47
438.481	13.42
438.684	14.23
438.886	13.75
439.089	14.05
439.291	14
439.494	14.34
439.696	14.52
439.899	15.3
440.101	15.69
440.303	15.87
440.506	16.42
440.708	16.29
440.91	16.43
441.113	16.64
441.315	17
441.517	16.69
441.72	17.16
441.922	16.88
442.124	16.87
442.326	17.19
442.529	17.33
442.731	17.35
442.933	17.74
443.135	17.47
443.337	17.31
443.539	17.89
443.742	17.69
443.944	18.33
444.146	18.13
444.348	18.17
444.55	17.93
444.752	18.07
444.954	18.19
445.156	18
445.358	18.44
445.56	18.8
445.762	18.51
445.964	18.81
446.166	18.69
446.368	18.61
446.57	18.63
446.772	18.18
446.974	17.89
447.175	18.31
447.377	17.98
447.579	18.4
447.781	18.1
447.983	17.84
448.184	17.44
448.386	17.8
448.588	17.43
448.79	17.16
448.991	17.53
449.193	17.6
449.395	16.8
449.597	16.52
449.798	16.46
450	16.07
450.202	15.86
450.403	15.93
450.605	15.79
450.806	15.56
451.008	15.33
451.21	15.04
451.411	14.6
451.613	13.97
451.814	14.17
452.016	14.02
452.217	13.4
452.419	13.36
452.62	13.11
452.821	12.72
453.023	12.67
453.224	12.34
453.426	11.91
453.627	11.25
453.828	11.3
454.03	11.31
454.231	11.32
454.432	11.16
454.634	10.86
454.835	10.5
455.036	10.49
455.238	10.15
455.439	9.82
455.64	9.67
455.841	9.39
456.042	9.62
456.244	9.3
456.445	8.88
456.646	8.69
456.847	8.65
457.048	8.54
457.249	8.51
457.45	8.27
457.651	7.76
457.852	7.69
458.054	7.25
458.255	7.38
458.456	7.32
458.657	7.2
458.858	6.82
459.058	6.65
459.259	6.69
459.46	6.43
459.661	6.45
459.862	6.46
460.063	6.33
460.264	6.39
460.465	6.02
460.666	6.04
460.866	5.73
461.067	5.54
461.268	5.61
461.469	5.55
461.67	5.36
461.87	5.25
462.071	5.14
462.272	5.16
462.473	5.13
462.673	5.27
462.874	5.15
463.075	5.16
463.275	5.16
463.476	5.2
463.676	5.11
463.877	4.93
464.078	4.96
464.278	4.96
464.479	4.88
464.679	4.71
464.88	4.73
465.08	4.75
465.281	4.46
465.481	4.26
465.682	4.1
465.882	4.16
466.083	4.02
466.283	4
466.483	3.9
466.684	3.72
466.884	3.63
467.085	3.66
467.285	3.72
467.485	3.66
467.686	3.54
467.886	3.44
468.086	3.36
468.286	3.35
468.487	3.44
468.687	3.28
468.887	3.21
469.087	3.41
469.287	3.24
469.488	2.97
469.688	3.19
469.888	3.15
470.088	3.2
470.288	3.03
470.488	2.98
470.688	2.87
470.888	2.86
471.088	2.7
471.288	2.8
471.488	2.77
471.688	2.73
471.888	2.66
472.088	2.81
472.288	2.72
472.488	2.59
472.688	2.57
472.888	2.62
473.088	2.61
473.288	2.53
473.488	2.43
473.688	2.6
473.887	2.43
474.087	2.42
474.287	2.47
474.487	2.42
474.687	2.42
474.886	2.34
475.086	2.29
475.286	2.34
475.486	2.23
475.685	2.22
475.885	2.2
476.085	2.27
476.284	2.29
476.484	2.28
476.684	2.24
476.883	2.31
477.083	2.24
477.282	2.15
477.482	2.14
477.681	2.13
477.881	2.09
478.08	2.1
478.28	2.09
478.479	2.06
478.679	2.07
478.878	2.04
479.078	2.03
479.277	2.09
479.477	2.02
479.676	2.04
479.875	1.98
480.075	1.99
480.274	2.02
480.473	2.07
480.673	2.01
480.872	2.04
481.071	2
481.271	2.06
481.47	1.99
481.669	2
481.868	1.97
482.067	2
482.267	1.95
482.466	1.93
482.665	1.9
482.864	1.95
483.063	1.92
483.262	2
483.461	1.99
483.661	2.07
483.86	1.98
484.059	2.04
484.258	2.05
484.457	2.04
484.656	1.98
484.855	2.1
485.054	1.91
485.253	1.97
485.452	2
485.651	2.04
485.849	2
486.048	1.97
486.247	2.03
486.446	2.08
486.645	2.01
486.844	2.02
487.043	2.06
487.241	2.06
487.44	2.05
487.639	2.14
487.838	2.12
488.037	2.09
488.235	2.18
488.434	2.19
488.633	2
488.831	2.18
489.03	2.17
489.229	2.25
489.427	2.19
489.626	2.23
489.825	2.28
490.023	2.28
490.222	2.27
490.42	2.3
490.619	2.33
490.817	2.34
491.016	2.33
491.214	2.39
491.413	2.39
491.611	2.36
491.81	2.42
492.008	2.46
492.207	2.54
492.405	2.51
492.604	2.48
492.802	2.49
493	2.58
493.199	2.63
493.397	2.63
493.595	2.67
493.794	2.63
493.992	2.74
494.19	2.74
494.388	2.81
494.587	2.71
494.785	2.76
494.983	2.72
495.181	2.85
495.379	2.88
495.578	2.92
495.776	2.92
495.974	2.92
496.172	2.98
496.37	3.09
496.568	3.09
496.766	3.05
496.964	3.13
497.162	3.19
497.36	3.16
497.558	3.21
497.756	3.27
497.954	3.26
498.152	3.39
498.35	3.41
498.548	3.34
498.746	3.35
498.944	3.37
499.142	3.41
499.34	3.49
499.538	3.59
499.736	3.53
499.933	3.67
500.131	3.6
500.329	3.77
500.527	3.76
500.725	3.81
500.922	3.84
501.12	3.84
501.318	3.9
501.516	3.96
501.713	4
501.911	4
502.109	3.92
502.306	4.1
502.504	3.95
502.701	4.12
502.899	4.2
503.097	4.32
503.294	4.21
503.492	4.27
503.689	4.35
503.887	4.36
504.084	4.42
504.282	4.37
504.479	4.35
504.677	4.55
504.874	4.47
505.072	4.42
505.269	4.64
505.466	4.68
505.664	4.71
505.861	4.67
506.059	4.73
506.256	4.83
506.453	4.81
506.651	4.95
506.848	5.01
507.045	4.9
507.242	4.94
507.44	5
507.637	5.03
507.834	5.03
508.031	5.2
508.229	5.15
508.426	5.08
508.623	5.23
508.82	5.3
509.017	5.24
509.214	5.27
509.411	5.41
509.608	5.32
509.805	5.48
510.003	5.44
510.2	5.49
510.397	5.65
510.594	5.52
510.791	5.68
510.988	5.68
511.184	5.61
511.381	5.49
511.578	5.68
511.775	5.79
511.972	5.69
512.169	5.79
512.366	5.78
512.563	5.88
512.76	5.94
512.956	5.99
513.153	5.89
513.35	5.88
513.547	5.91
513.744	6.02
513.94	6.07
514.137	6.11
514.334	6.08
514.53	6.15
514.727	6.35
514.924	6.2
515.12	6.25
515.317	6.25
515.514	6.22
515.71	6.14
515.907	6.38
516.103	6.37
516.3	6.33
516.497	6.41
516.693	6.47
516.89	6.49
517.086	6.46
517.283	6.57
517.479	6.41
517.676	6.61
517.872	6.62
518.068	6.58
518.265	6.59
518.461	6.56
518.658	6.7
518.854	6.65
519.05	6.81
519.247	6.8
519.443	6.79
519.639	6.9
519.836	6.74
520.032	6.72
520.228	6.89
520.424	6.83
520.621	6.84
520.817	6.97
521.013	6.92
521.209	7.08
521.405	7.04
521.601	7.02
521.798	7.04
521.994	7.03
522.19	6.93
522.386	7.02
522.582	7.07
522.778	7.19
522.974	7.1
523.17	7.09
523.366	7.09
523.562	7.18
523.758	7.17
523.954	6.99
524.15	7.2
524.346	7.31
524.542	7.33
524.738	7.16
524.934	7.31
525.129	7.22
525.325	7.18
525.521	7.21
525.717	7.43
525.913	7.27
526.109	7.3
526.304	7.37
526.5	7.39
526.696	7.44
526.892	7.36
527.087	7.57
527.283	7.51
527.479	7.39
527.674	7.27
527.87	7.51
528.066	7.45
528.261	7.47
528.457	7.41
528.653	7.54
528.848	7.62
529.044	7.63
529.239	7.53
529.435	7.53
529.63	7.54
529.826	7.54
530.021	7.6
530.217	7.59
530.412	7.54
530.608	7.64
530.803	7.54
530.999	7.49
531.194	7.59
531.389	7.71
531.585	7.66
531.78	7.83
531.975	7.68
532.171	7.7
532.366	7.73
532.561	7.75
532.757	7.69
532.952	7.91
533.147	7.6
533.342	7.72
533.538	7.68
533.733	7.88
533.928	7.56
534.123	7.75
534.318	7.84
534.513	7.76
534.709	7.91
534.904	7.83
535.099	7.9
535.294	7.84
535.489	7.94
535.684	7.76
535.879	7.88
536.074	7.89
536.269	7.87
536.464	7.91
536.659	7.82
536.854	7.89
537.049	7.89
537.244	7.89
537.439	7.91
537.634	7.89
537.828	7.95
538.023	7.9
538.218	7.85
538.413	7.79
538.608	7.94
538.803	7.9
538.997	7.93
539.192	7.91
539.387	7.9
539.582	7.86
539.776	7.84
539.971	7.95
540.166	7.96
540.36	7.88
540.555	8.06
540.75	7.97
540.944	7.96
541.139	8
541.334	7.97
541.528	7.97
541.723	8
541.917	8.07
542.112	7.9
542.306	7.85
542.501	7.9
542.695	7.92
542.89	7.96
543.084	8.05
543.279	8.03
543.473	8.03
543.668	8.05
543.862	7.88
544.056	7.89
544.251	8.07
544.445	8.06
544.64	8.12
544.834	7.78
545.028	7.71
545.222	8.02
545.417	8.18
545.611	8.08
545.805	8
546	7.85
546.194	8.03
546.388	8.06
546.582	7.9
546.776	7.97
546.97	8.06
547.165	8.01
547.359	8.02
547.553	7.95
547.747	8.01
547.941	8.18
548.135	8.03
548.329	8.06
548.523	8.02
548.717	7.96
548.911	7.95
549.105	7.95
549.299	8.16
549.493	8.06
549.687	7.94
549.881	8.06
550.075	8.03
550.269	7.93
550.463	8.05
550.657	8.08
550.85	8.02
551.044	8.06
551.238	8.05
551.432	8.1
551.626	8.13
551.82	8.14
552.013	8.03
552.207	8.16
552.401	8.08
552.594	8.08
552.788	8.02
552.982	8.02
553.176	8.02
553.369	8.24
553.563	8.1
553.756	8.06
553.95	8.14
554.144	8.07
554.337	8.1
554.531	7.94
554.724	8.12
554.918	8.19
555.111	8.01
555.305	8.08
555.498	7.96
555.692	8.18
555.885	8.13
556.079	8.02
556.272	8.04
556.466	8.08
556.659	8.06
556.852	8.2
557.046	7.99
557.239	7.97
557.432	8.04
557.626	8.16
557.819	8.22
558.012	8.14
558.206	8.19
558.399	8.14
558.592	8.04
558.785	8.08
558.979	8.06
559.172	8.06
559.365	8.08
559.558	8.07
559.751	8.05
559.944	8.19
560.138	8.04
560.331	8.13
560.524	8.13
560.717	8.08
560.91	8.07
561.103	8.1
561.296	7.98
561.489	8.16
561.682	8.18
561.875	8.07
562.068	8.16
562.261	8.04
562.454	8.22
562.647	8.08
562.84	8.08
563.032	8.12
563.225	7.94
563.418	7.99
563.611	8.17
563.804	8.13
563.997	7.99
564.19	7.93
564.382	8.24
564.575	8.04
564.768	8.07
564.961	8.15
565.153	8.09
565.346	7.97
565.539	8.17
565.731	8.02
565.924	8.14
566.117	8.21
566.309	8.08
566.502	8.04
566.695	7.95
566.887	8.12
567.08	8.1
567.272	8.14
567.465	7.99
567.657	8.03
567.85	7.96
568.042	8.06
568.235	8.11
568.427	7.92
568.62	7.99
568.812	7.98
569.005	8.07
569.197	7.99
569.389	8.03
569.582	8.04
569.774	8
569.966	7.99
570.159	7.93
570.351	7.89
570.543	8
570.736	8.02
570.928	7.85
571.12	7.99
571.312	7.98
571.505	7.77
571.697	7.99
571.889	7.98
572.081	7.92
572.273	7.9
572.465	7.96
572.658	7.93
572.85	8
573.042	8.06
573.234	7.82
573.426	7.85
573.618	7.91
573.81	7.95
574.002	7.89
574.194	7.94
574.386	7.93
574.578	7.77
574.77	7.92
574.962	7.93
575.154	7.77
575.346	7.85
575.538	7.79
575.729	7.8
575.921	7.93
576.113	7.96
576.305	7.91
576.497	7.93
576.689	7.83
576.88	7.77
577.072	7.89
577.264	7.81
577.456	7.86
577.647	7.84
577.839	7.9
578.031	7.84
578.223	7.86
578.414	7.67
578.606	7.77
578.798	7.89
578.989	7.88
579.181	7.87
579.372	7.83
579.564	7.83
579.755	7.75
579.947	7.67
580.139	7.82
580.33	7.69
580.522	7.78
580.713	7.74
580.905	7.66
581.096	7.78
581.287	7.71
581.479	7.7
581.67	7.69
581.862	7.63
582.053	7.7
582.244	7.59
582.436	7.81
582.627	7.64
582.818	7.6
583.01	7.65
583.201	7.69
583.392	7.63
583.583	7.53
583.775	7.46
583.966	7.55
584.157	7.6
584.348	7.7
584.54	7.57
584.731	7.6
584.922	7.46
585.113	7.46
585.304	7.63
585.495	7.55
585.686	7.61
585.877	7.62
586.068	7.66
586.259	7.56
586.45	7.48
586.641	7.48
586.832	7.59
587.023	7.48
587.214	7.47
587.405	7.5
587.596	7.44
587.787	7.38
587.978	7.44
588.169	7.36
588.36	7.34
588.551	7.43
588.742	7.42
588.932	7.46
589.123	7.23
589.314	7.44
589.505	7.29
589.696	7.32
589.886	7.34
590.077	7.36
590.268	7.25
590.458	7.23
590.649	7.1
590.84	7.27
591.03	7.29
591.221	7.22
591.412	7.18
591.602	7.32
591.793	7.19
591.984	7.23
592.174	7.21
592.365	7.37
592.555	7.09
592.746	7.12
592.936	7.12
593.127	7.17
593.317	7.18
593.508	7.18
593.698	7.05
593.889	7.08
594.079	7.07
594.269	6.98
594.46	7
594.65	7.09
594.84	7.06
595.031	6.89
595.221	6.95
595.411	7.02
595.602	6.98
595.792	6.93
595.982	6.91
596.172	7.01
596.363	6.89
596.553	6.89
596.743	6.95
596.933	6.87
597.123	6.84
597.314	6.72
597.504	6.78
597.694	6.96
597.884	6.78
598.074	6.93
598.264	6.85
598.454	6.77
598.644	6.72
598.834	6.78
599.024	6.71
599.214	6.72
599.404	6.79
599.594	6.66
599.784	6.6
599.974	6.79
600.164	6.62
600.354	6.59
600.544	6.54
600.734	6.65
600.924	6.6
601.114	6.49
601.303	6.54
601.493	6.51
601.683	6.55
601.873	6.54
602.063	6.4
602.252	6.48
602.442	6.43
602.632	6.38
602.821	6.33
603.011	6.46
603.201	6.43
603.39	6.39
603.58	6.23
603.77	6.37
603.959	6.43
604.149	6.33
604.339	6.38
604.528	6.4
604.718	6.4
604.907	6.27
605.097	6.22
605.286	6.26
605.476	6.21
605.665	6.31
605.855	6.14
606.044	6.24
606.234	6.21
606.423	6.14
606.612	6.17
606.802	6.07
606.991	6.21
607.181	6.14
607.37	6.17
607.559	5.88
607.749	6.1
607.938	5.96
608.127	6.02
608.316	6.02
608.506	5.91
608.695	6.06
608.884	6.02
609.073	5.94
609.263	6.08
609.452	5.99
609.641	5.88
609.83	5.83
610.019	5.94
610.208	5.84
610.397	5.85
610.586	5.82
610.775	5.75
610.965	5.72
611.154	5.7
611.343	5.75
611.532	5.69
611.721	5.79
611.91	5.67
612.099	5.76
612.287	5.65
612.476	5.53
612.665	5.8
612.854	5.59
613.043	5.67
613.232	5.61
613.421	5.55
613.61	5.57
613.798	5.51
613.987	5.58
614.176	5.53
614.365	5.54
614.554	5.47
614.742	5.57
614.931	5.39
615.12	5.49
615.309	5.44
615.497	5.34
615.686	5.34
615.875	5.37
616.063	5.3
616.252	5.31
616.44	5.3
616.629	5.29
616.818	5.24
617.006	5.25
617.195	5.23
617.383	5.17
617.572	5.15
617.76	5.19
617.949	5.15
618.137	5.26
618.326	5.22
618.514	4.96
618.703	4.96
618.891	5.14
619.079	4.98
619.268	5.08
619.456	5.04
619.644	5.12
619.833	4.96
620.021	4.97
620.209	4.85
620.398	4.97
620.586	4.94
620.774	5.01
620.962	4.98
621.151	4.98
621.339	4.89
621.527	4.83
621.715	4.79
621.903	4.87
622.092	4.77
622.28	4.95
622.468	4.67
622.656	4.78
622.844	4.72
623.032	4.76
623.22	4.69
623.408	4.76
623.596	4.68
623.784	4.78
623.972	4.63
624.16	4.73
624.348	4.7
624.536	4.73
624.724	4.59
624.912	4.56
625.1	4.64
625.288	4.58
625.476	4.52
625.664	4.6
625.851	4.5
626.039	4.54
626.227	4.44
626.415	4.48
626.603	4.42
626.79	4.51
626.978	4.44
627.166	4.44
627.354	4.37
627.541	4.34
627.729	4.17
627.917	4.48
628.104	4.41
628.292	4.3
628.48	4.34
628.667	4.29
628.855	4.35
629.042	4.32
629.23	4.27
629.418	4.23
629.605	4.28
629.793	4.18
629.98	4.21
630.168	4.19
630.355	4.19
630.543	4.2
630.73	4.07
630.917	4.06
631.105	4.21
631.292	4.13
631.48	4.06
631.667	4.15
631.854	4.11
632.042	4.09
632.229	3.96
632.416	4.02
632.604	3.97
632.791	3.88
632.978	4.06
633.165	3.94
633.353	4
633.54	4.07
633.727	3.89
633.914	3.83
634.101	3.8
634.289	3.91
634.476	3.78
634.663	3.78
634.85	3.77
635.037	3.8
635.224	3.71
635.411	3.81
635.598	3.79
635.785	3.76
635.972	3.72
636.159	3.67
636.346	3.68
636.533	3.67
636.72	3.65
636.907	3.65
637.094	3.6
637.281	3.53
637.468	3.58
637.655	3.63
637.842	3.63
638.029	3.46
638.215	3.54
638.402	3.53
638.589	3.42
638.776	3.5
638.963	3.44
639.149	3.59
639.336	3.57
639.523	3.45
639.709	3.46
639.896	3.44
640.083	3.38
640.27	3.42
640.456	3.39
640.643	3.34
640.829	3.29
641.016	3.27
641.203	3.25
641.389	3.29
641.576	3.31
641.762	3.24
641.949	3.22
642.135	3.29
642.322	3.2
642.508	3.22
642.695	3.23
642.881	3.16
643.068	3.18
643.254	3.19
643.441	3.16
643.627	3.21
643.813	3.05
644	3.18
644.186	3.05
644.372	3.19
644.559	3.07
644.745	3.1
644.931	3.04
645.118	3.07
645.304	3.07
645.49	3.06
645.676	3.03
645.862	3
646.049	3.06
646.235	3.01
646.421	3.09
646.607	3.04
646.793	2.95
646.979	2.9
647.165	2.95
647.352	2.95
647.538	2.94
647.724	2.94
647.91	2.89
648.096	2.92
648.282	2.89
648.468	2.84
648.654	2.86
648.84	2.85
649.026	2.85
649.212	2.83
649.397	2.71
649.583	2.79
649.769	2.78
649.955	2.77
650.141	2.8
650.327	2.77
650.513	2.73
650.698	2.74
650.884	2.66
651.07	2.74
651.256	2.65
651.442	2.69
651.627	2.62
651.813	2.7
651.999	2.59
652.184	2.64
652.37	2.66
652.556	2.59
652.741	2.61
652.927	2.44
653.113	2.67
653.298	2.62
653.484	2.59
653.669	2.54
653.855	2.49
654.04	2.61
654.226	2.52
654.412	2.51
654.597	2.44
654.782	2.56
654.968	2.54
655.153	2.56
655.339	2.45
655.524	2.44
655.71	2.49
655.895	2.52
656.08	2.49
656.266	2.57
656.451	2.47
656.636	2.33
656.822	2.47
657.007	2.37
657.192	2.44
657.378	2.34
657.563	2.37
657.748	2.37
657.933	2.42
658.118	2.27
658.304	2.34
658.489	2.39
658.674	2.34
658.859	2.31
659.044	2.29
659.229	2.35
659.414	2.27
659.599	2.26
659.785	2.21
659.97	2.29
660.155	2.23
660.34	2.26
660.525	2.19
660.71	2.18
660.895	2.24
661.08	2.2
661.264	2.15
661.449	2.2
661.634	2.16
661.819	2.19
662.004	2.05
662.189	2.09
662.374	2.11
662.559	2.02
662.743	2
662.928	2.06
663.113	2.02
663.298	1.96
663.483	2.04
663.667	2.03
663.852	1.99
664.037	2.06
664.221	2
664.406	2.02
664.591	1.99
664.775	2.01
664.96	1.93
665.145	1.97
665.329	1.96
665.514	1.89
665.698	1.86
665.883	1.81
666.068	1.92
666.252	1.87
666.437	1.81
666.621	1.8
666.806	1.87
666.99	1.82
667.174	1.78
667.359	1.87
667.543	1.75
667.728	1.74
667.912	1.72
668.096	1.77
668.281	1.72
668.465	1.81
668.649	1.77
668.834	1.68
669.018	1.73
669.202	1.74
669.387	1.64
669.571	1.75
669.755	1.64
669.939	1.68
670.124	1.65
670.308	1.68
670.492	1.69
670.676	1.7
670.86	1.64
671.044	1.6
671.228	1.67
671.413	1.56
671.597	1.6
671.781	1.57
671.965	1.65
672.149	1.58
672.333	1.62
672.517	1.56
672.701	1.62
672.885	1.52
673.069	1.51
673.253	1.63
673.437	1.48
673.621	1.51
673.804	1.53
673.988	1.55
674.172	1.49
674.356	1.48
674.54	1.53
674.724	1.59
674.908	1.47
675.091	1.55
675.275	1.48
675.459	1.53
675.643	1.51
675.826	1.45
676.01	1.41
676.194	1.42
676.377	1.46
676.561	1.55
676.745	1.45
676.928	1.46
677.112	1.45
677.296	1.35
677.479	1.34
677.663	1.37
677.846	1.37
678.03	1.43
678.213	1.3
678.397	1.37
678.58	1.34
678.764	1.33
678.947	1.32
679.131	1.37
679.314	1.39
679.498	1.33
679.681	1.37
679.865	1.39
680.048	1.36
680.231	1.31
680.415	1.32
680.598	1.29
680.781	1.29
680.965	1.29
681.148	1.31
681.331	1.23
681.514	1.29
681.698	1.27
681.881	1.27
682.064	1.28
682.247	1.26
682.43	1.16
682.614	1.25
682.797	1.27
682.98	1.28
683.163	1.14
683.346	1.21
683.529	1.19
683.712	1.24
683.895	1.23
684.078	1.13
684.261	1.15
684.444	1.25
684.627	1.23
684.81	1.13
684.993	1.15
685.176	1.16
685.359	1.12
685.542	1.13
685.725	1.25
685.908	1.13
686.091	1.12
686.274	1.15
686.457	1.14
686.639	1.14
686.822	1.12
687.005	1.15
687.188	1.12
687.371	1.18
687.553	1.14
687.736	1.09
687.919	1.15
688.102	1.07
688.284	1.08
688.467	1.04
688.65	1.09
688.832	1.02
689.015	1.07
689.197	0.99
689.38	1.12
689.563	1.12
689.745	1
689.928	1.03
690.11	1.04
690.293	1.02
690.475	0.89
690.658	1.05
690.84	0.97
691.023	1
691.205	1
691.388	0.99
691.57	1.02
691.752	1.01
691.935	0.92
692.117	0.95
692.3	0.92
692.482	0.91
692.664	0.9
692.847	0.9
693.029	0.99
693.211	0.97
693.393	0.97
693.576	0.92
693.758	0.93
693.94	0.96
694.122	0.93
694.304	0.86
694.487	0.88
694.669	0.98
694.851	0.85
695.033	0.95
695.215	0.92
695.397	0.87
695.579	0.93
695.761	0.82
695.943	0.85
696.125	0.99
696.308	0.92
696.49	0.76
696.671	1
696.853	0.86
697.035	1.11
697.217	0.89
697.399	0.94
697.581	0.82
697.763	0.93
697.945	0.84
698.127	0.83
698.309	0.89
698.491	0.86
698.672	0.89
698.854	0.86
699.036	0.89
699.218	0.8
699.399	0.89
699.581	0.84
699.763	0.82
699.945	0.79
700.126	0.72
700.308	0.82
700.49	0.82
700.671	0.73
700.853	0.74
701.035	0.76
701.216	0.82
701.398	0.74
701.579	0.82
701.761	0.82
701.943	0.77
702.124	0.78
702.306	0.79
702.487	0.97
702.669	0.83
702.85	0.73
703.031	0.74
703.213	0.86
703.394	0.79
703.576	0.71
703.757	0.92
703.938	0.8
704.12	0.86
704.301	0.82
704.483	0.71
704.664	0.81
704.845	0.91
705.026	0.81
705.208	0.69
705.389	0.77
705.57	0.76
705.751	0.81
705.933	0.81
706.114	0.79
706.295	0.76
706.476	0.58
706.657	0.87
706.838	0.81
707.02	0.81
707.201	0.71
707.382	0.73
707.563	0.8
707.744	0.7
707.925	0.64
708.106	0.69
708.287	0.7
708.468	0.73
708.649	0.7
708.83	0.75
709.011	0.67
709.192	0.79
709.373	0.64
709.554	0.68
709.734	0.76
709.915	0.76
710.096	0.66
710.277	0.54
710.458	0.71
710.639	0.72
710.819	0.52
711	0.71
711.181	0.77
711.362	0.77
711.542	0.72
711.723	0.65
711.904	0.66
712.085	0.62
712.265	0.67
712.446	0.52
712.627	0.67
712.807	0.64
712.988	0.71
713.168	0.56
713.349	0.68
713.53	0.51
713.71	0.57
713.891	0.53
714.071	0.62
714.252	0.61
714.432	0.57
714.613	0.5
714.793	0.66
714.974	0.65
715.154	0.7
715.334	0.62
715.515	0.66
715.695	0.61
715.876	0.59
716.056	0.64
716.236	0.59
716.417	0.59
716.597	0.65
716.777	0.83
716.957	0.6
717.138	0.6
717.318	0.63
717.498	0.46
717.678	0.6
717.859	0.57
718.039	0.5
718.219	0.57
718.399	0.65
718.579	0.55
718.759	0.57
718.939	0.6
719.12	0.67
719.3	0.61
719.48	0.42
719.66	0.48
719.84	0.66
720.02	0.49
720.2	0.54
720.38	0.58
720.56	0.68
720.74	0.55
720.92	0.62
721.1	0.71
721.279	0.67
721.459	0.57
721.639	0.49
721.819	0.52
721.999	0.58
722.179	0.61
722.359	0.47
722.538	0.56
722.718	0.54
722.898	0.52
723.078	0.54
723.257	0.5
723.437	0.55
723.617	0.66
723.797	0.58
723.976	0.56
724.156	0.6
724.336	0.61
724.515	0.74
724.695	0.46
724.874	0.52
725.054	0.64
725.234	0.4
725.413	0.62
725.593	0.52
725.772	0.62
725.952	0.6
726.131	0.56
726.311	0.49
726.49	0.58
726.67	0.46
726.849	0.51
727.028	0.6
727.208	0.61
727.387	0.66
727.567	0.46
727.746	0.58
727.925	0.44
728.105	0.51
728.284	0.44
728.463	0.56
728.643	0.62
728.822	0.48
729.001	0.62
729.18	0.62
729.359	0.71
729.539	0.59
729.718	0.59
729.897	0.61
730.076	0.53
730.255	0.43
730.434	0.56
730.614	0.73
730.793	0.65
730.972	0.54
731.151	0.54
731.33	0.65
731.509	0.62
731.688	0.62
731.867	0.57
732.046	0.36
732.225	0.72
732.404	0.53
732.583	0.39
732.762	0.59
732.941	0.59
733.12	0.48
733.298	0.5
733.477	0.55
733.656	0.58
733.835	0.54
734.014	0.62
734.193	0.62
734.371	0.66
734.55	0.62
734.729	0.51
734.908	0.56
735.086	0.64
735.265	0.71
735.444	0.38
735.623	0.58
735.801	0.43
735.98	0.57
736.159	0.49
736.337	0.69
736.516	0.71
736.694	0.54
736.873	0.47
737.052	0.77
737.23	0.67
737.409	0.52
737.587	0.68
737.766	0.47
737.944	0.63
738.123	0.67
738.301	0.69
738.479	0.57
738.658	0.47
738.836	0.36
739.015	0.57
739.193	0.72
739.371	0.46
739.55	0.57
739.728	0.4
739.906	0.65
740.085	0.64
740.263	0.52
740.441	0.38
740.62	0.76
740.798	0.62
740.976	0.37
741.154	0.42
741.332	0.69
741.511	0.44
741.689	0.64
741.867	0.6
742.045	0.62
742.223	0.42
742.401	0.37
742.579	0.36
742.757	0.61
742.935	0.36
743.114	0.41
743.292	0.59
743.47	0.55
743.648	0.48
743.826	0.43
744.004	0.48
744.181	0.49
744.359	0.43
744.537	0.53
744.715	0.44
744.893	0.48
745.071	0.51
745.249	0.41
745.427	0.36
745.605	0.48
745.782	0.57
745.96	0.55
746.138	0.49
746.316	0.59
746.493	0.4
746.671	0.39
746.849	0.44
747.027	0.57
747.204	0.39
747.382	0.44
747.56	0.25
747.737	0.44
747.915	0.32
748.093	0.46
748.27	0.36
748.448	0.42
748.625	0.25
748.803	0.37
748.98	0.34
749.158	0.46
749.335	0.54
749.513	0.38
749.69	0.35
749.868	0.39
750.045	0.49
750.223	0.33
750.4	0.16
750.578	0.53
750.755	0.5
750.932	0.18
751.11	0.48
751.287	0.42
751.464	0.53
751.642	0.26
751.819	0.39
751.996	0.39
752.173	0.29
752.351	0.21
752.528	0.41
752.705	0.5
752.882	0.43
753.06	0.36
753.237	0.44
753.414	0.55
753.591	0.53
753.768	0.36
753.945	0.31
754.122	0.45
754.299	0.46
754.476	0.29
754.654	0.4
754.831	0.4
755.008	0.46
755.185	0.3
755.362	0.26
755.539	0.33
755.716	0.52
755.892	0.36
756.069	0.33
756.246	0.41
756.423	0.36
756.6	0.49
756.777	0.31
756.954	0.51
757.131	0.33
757.307	0.26
757.484	0.24
757.661	0.43
757.838	0.54
758.015	0.26
758.191	0.45
758.368	0.34
758.545	0.54
758.721	0.42
758.898	0.23
759.075	0.4
759.251	0.43
759.428	0.37
759.605	0.17
759.781	0.37
759.958	0.29
760.134	0.39
760.311	0.35
760.488	0.41
760.664	0.57
760.841	0.31
761.017	0.26
761.194	0.32
761.37	0.44
761.547	0.31
761.723	0.25
761.899	0.48
762.076	0.28
762.252	0.2
762.429	0.23
762.605	0.51
762.781	0.27
762.958	0.42
763.134	0.37
763.31	0.22
763.486	0.45
763.663	0.11
763.839	0.42
764.015	0.15
764.191	0.25
764.368	0.33
764.544	0.34
764.72	0.41
764.896	0.38
765.072	0.39
765.248	0.26
765.425	0.44
765.601	0.39
765.777	0.36
765.953	0.19
766.129	0.32
766.305	0.26
766.481	0.38
766.657	0.24
766.833	0.45
767.009	0.21
767.185	0.21
767.361	0.29
767.537	0.21
767.713	0.53
767.889	0.28
768.065	0.3
768.24	0.39
768.416	0.41
768.592	0.28
768.768	0.38
768.944	0.27
769.12	0.09
769.295	0.3
769.471	0.32
769.647	0.25
769.823	0.43
769.998	0.2
770.174	0.24
770.35	0.48
770.525	0.59
770.701	0.45
770.877	0.19
771.052	0.24
771.228	0.44
771.403	0.36
771.579	0.45
771.755	0.65
771.93	0.19
772.106	0.12
772.281	0.18
772.457	0.38
772.632	0.39
772.808	0.03
772.983	0.22
773.159	0.29
773.334	0.49
773.509	0.2
773.685	0.26
773.86	0.6
774.036	0.47
774.211	0.25
774.386	0.24
774.562	0.36
774.737	0.31
774.912	0.22
775.087	0.47
775.263	0.4
775.438	0.54
775.613	0.28
775.788	0.22
775.964	0.58
776.139	0.66
776.314	0.21
776.489	0.4
776.664	0.47
776.839	0.21
777.014	0.41
777.19	0.43
777.365	0.4
777.54	0.58
777.715	0.3
777.89	0.29
778.065	0.24
778.24	0.42
778.415	0.69
778.59	0.09
778.765	0.23
778.94	0.33
779.115	0.27
779.289	0.35
779.464	0.31
779.639	0.38
779.814	0.15
779.989	0.29
780.164	0.43
780.339	0.31
780.513	0.33
780.688	0.17
780.863	0.48
781.038	0.6
781.212	0.24
781.387	0.47
781.562	0.54
781.737	0.59
781.911	0.59
782.086	0.37
782.261	0.38
782.435	0.55
782.61	0.31
782.784	0.17
782.959	0.52
783.134	0.23
783.308	0.18
783.483	0.24
783.657	0.73
783.832	0.27
784.006	0.08
784.181	0.36
784.355	0.47
784.53	0.5
784.704	0.26
784.878	0.62
785.053	0.48
785.227	0.7
785.402	0.81
785.576	0.26
785.75	0.32
785.925	0.47
786.099	0.46
786.273	0.41
786.448	0.65
786.622	0.43
786.796	0.55
786.97	0.49
787.145	0.89
787.319	0.29
787.493	0.29
787.667	0.17
787.841	0.59
788.015	0.45
788.19	0.19
788.364	0.5
788.538	0.58
788.712	0.52
788.886	0.46
789.06	0.45
789.234	0.36
789.408	0.24
789.582	0.35
789.756	0.42
789.93	0.19
790.104	0.16
790.278	0.18
790.452	0.05
790.626	0.5
790.8	0.32
790.973	0.5
791.147	0.56
791.321	0.59
791.495	0.53
791.669	0.45
791.843	0.31
792.016	0.45
792.19	0.6
792.364	0.12
792.538	0.97
792.711	0.7
792.885	0.28
793.059	0.16
793.233	-0.13
793.406	0.47
793.58	0.43
793.754	0.44
793.927	0.48
794.101	0.78
794.274	0.69
794.448	0.51
794.622	0.07
794.795	0.9
794.969	0.15
795.142	0.74
795.316	0.19
795.489	0.35
795.663	0.82
795.836	0.42
796.009	0.41
796.183	0.5
796.356	0.62
796.53	0.47
796.703	0.44
796.876	0.96
797.05	0.38
797.223	0.3
797.396	0.66
797.57	0.4
797.743	0.53
797.916	0.47
798.09	0.27
798.263	0.64
798.436	0.79
798.609	0.45
798.782	0.25
798.956	0.5
799.129	0.42
799.302	0.43
799.475	0.28
799.648	0.23
799.821	0.17
799.994	0.49
800.167	-0.01
800.34	0.45
800.514	0.54
800.687	0.56
800.86	0.43
801.033	0.22
801.206	0.49
801.379	0.18
801.551	0.52
801.724	0.63
801.897	0.74
802.07	0.44
802.243	-0.06
802.416	0.27
802.589	0.32
802.762	0.76
802.935	0.47
803.107	0.72
803.28	1.08
803.453	0.56
803.626	0.28
803.798	0.53
803.971	0.52
804.144	0.67
804.317	0.29
804.489	0.61
804.662	0.83
804.835	0.44
805.007	0.35
805.18	0.89
805.353	0.91
805.525	0.14
805.698	0.41
805.87	0.67
806.043	0.75
806.215	0.44
806.388	0.33
806.56	0.79
806.733	0.86
806.905	0.67
807.078	0.36
807.25	0.45
807.423	0.48
807.595	0.33
807.768	0.69
807.94	0.76
808.112	0.56
808.285	0.48
808.457	0.46
808.629	0.55
808.802	0.53
808.974	0.56
809.146	0.29
809.318	0.17
809.491	0.8
809.663	0.6
809.835	0.39
810.007	0.83
810.18	0.63
810.352	0.36
810.524	0.41
810.696	0.68
810.868	0.92
811.04	0.45
811.212	0.44
811.384	0.86
811.556	0.94
811.728	0.53
811.901	1.09
812.073	0.4
812.245	0.89
812.417	0.78
812.589	0.17
812.76	0.7
812.932	0.79
813.104	0.8
813.276	0.42
813.448	1.03
813.62	0.28
813.792	0.47
813.964	0.61
814.136	0.62
814.307	0.15
814.479	0.28
814.651	0.29
814.823	0.82
814.995	0.31
815.166	0.86
815.338	0.68
815.51	0.02
815.681	1.62
815.853	0.72
816.025	0.54
816.196	1.17
816.368	0.63
816.54	0.39
816.711	-0.22
816.883	0.64
817.054	1.78
817.226	-0.14
817.398	0.56
817.569	0.71
817.741	0.5
817.912	0.93
818.084	0.52
818.255	0.86
818.426	0.23
818.598	0.56
818.769	0.22
818.941	0.96
819.112	1.06
819.283	0.75
819.455	0.07
819.626	0.74
819.798	0.43
819.969	0.86
820.14	0.49
820.311	0.09
820.483	0.73
820.654	0.77
820.825	0.66
820.996	0.78
821.168	0.24
821.339	0.69
821.51	0.31
821.681	0.71
821.852	0.67
822.023	0.32
822.195	0.03
822.366	1.12
822.537	0.88
822.708	0.24
822.879	0.32
823.05	1.08
823.221	0.9
823.392	0.69
823.563	0.62
823.734	0.78
823.905	0.37
824.076	0.28
824.247	0.25
824.418	0.67
824.589	1.34
824.759	0.82
824.93	0.87
825.101	-0.02
825.272	0.81
825.443	1.31
825.614	1.39
825.784	-0.18
825.955	1.71
826.126	1.63
826.297	1.12
826.467	1.14
826.638	1.65
826.809	0.23
826.98	0.33
827.15	1.06
827.321	0.86
827.492	1.59
827.662	0.36
827.833	2.05
828.003	0.92
828.174	0.21
828.345	0.26
828.515	1.32
828.686	0.83
828.856	0.27
829.027	1.08
829.197	0.98
829.368	0.99
829.538	0.4
829.709	0.19
829.879	1.22
830.049	0.79
830.22	0.3
830.39	0.31
830.56	0.67
830.731	0.65
830.901	-0.1
831.072	0.45
831.242	1.18
831.412	1.3
831.582	1.19
831.753	0.28
831.923	0.83
832.093	0.98
832.263	0.28
832.434	0.38
832.604	0.31
832.774	1.31
832.944	0.37
833.114	0.52
833.284	0.57
833.454	0.31
833.624	-0.08
833.795	1.03
833.965	0.83
834.135	1.56
834.305	-0.44
834.475	-0.22
834.645	1.07
834.815	0.93
834.985	0.23
835.155	0.17
835.325	1.19
835.494	1.57
835.664	0.77
835.834	0.51
836.004	1.34
836.174	1.02
836.344	0.74
836.514	0.3
836.684	-0.06
836.853	0.3
837.023	0.98
837.193	0.68
837.363	1.14
837.532	1.58
837.702	0.22
837.872	0.58
838.041	1.22
838.211	2.38
838.381	-0.31
838.55	1.14
838.72	2.55
838.89	1.73
839.059	0.71
839.229	0.18
839.398	2.2
839.568	1.01
839.738	0.65
839.907	1.7
840.077	1.56
840.246	0.63
840.416	0.18
840.585	0.8
840.755	2.88
840.924	1.61
841.093	0.31
841.263	0.5
841.432	1.64
841.602	0.59
841.771	0.76
841.94	1.37
842.11	2.78
842.279	3.03
842.448	-0.3
842.617	0.57
842.787	1.37
842.956	0.78
843.125	0.66
843.294	0.73
843.464	1.34
843.633	1.06
843.802	0.01
843.971	0.93
844.14	1.17
844.309	2.02
844.479	0.63
844.648	0.08
844.817	0.56
844.986	1.82
845.155	0.6
845.324	1.22
845.493	0.13
845.662	1.94
845.831	1.89
846	1.3
846.169	0.02
846.338	1.3
846.507	1.68
846.676	1.2
846.844	0.13
847.013	2.51
847.182	0.66
847.351	0.2
847.52	1.47
847.689	1.67
847.858	0.97
848.026	0.59
848.195	1.25
848.364	1.73
848.533	0.59
848.701	0.05
848.87	0.77
849.039	0.92
849.207	1.52
849.376	1.96
849.545	2.27
849.713	0.4
849.882	1.4
850.051	0.76
850.219	0.48
850.388	1.61
850.556	-0.03
850.725	0.45
850.893	1.87
851.062	0.33
851.23	2
851.399	-0.13
851.567	0.68
851.736	0.82
851.904	0.18
852.073	1.57
852.241	1.26
852.41	1.63
852.578	0.56
852.746	1.08
852.915	2.4
853.083	2.18
853.251	1.01
853.42	0.87
853.588	0.14
853.756	1.76
853.924	0.71
854.093	1.34
854.261	0.29
854.429	-0.07
854.597	0.73
854.765	0.21
854.934	1.98
855.102	2.6
855.27	0.57
855.438	1.22
855.606	2.36
855.774	2.32
855.942	-0.07
856.11	0.7
856.278	1.64
856.446	2.03
856.614	0.79
856.782	0.09
856.95	1.6
857.118	2.93
857.286	1.69
857.454	0.21
857.622	2.78
857.79	1.01
857.958	0.06
858.126	0.58
858.294	0.48
858.462	1.59
858.629	1.24
858.797	0.68
858.965	1.5
859.133	1.44
859.301	0.71
859.468	2.8
859.636	-0.19
859.804	2.77
859.971	2.16
860.139	1.35
860.307	2.51
860.474	1.92
860.642	0.36
860.81	1.22
860.977	1.49
861.145	2.99
861.313	0.09
861.48	0.54
861.648	2.3
861.815	-0.19
861.983	-0.92
862.15	0.91
862.318	1.42
862.485	2.89
862.653	1.18
862.82	1.18
862.988	2.13
863.155	1.68
863.322	0.06
863.49	-0.36
863.657	1.68
863.824	2.79
863.992	3.07
864.159	1.14
864.326	2.47
864.494	0.72
864.661	3.71
864.828	0.71
864.996	1.32
865.163	2.02
865.33	0.19
865.497	-1.34
865.664	0.12
865.832	0.67
865.999	2.36
866.166	0.23
866.333	-0.01
866.5	0.71
866.667	0.99
866.834	0.83
867.001	3.9
867.168	-1.23
867.335	2.08
867.502	-0.37
867.669	1.71
867.836	5.03
868.003	1.62
868.17	3.81
868.337	2.25
868.504	4.68
868.671	-0.45
868.838	1
869.005	2.66
869.172	1.59
869.339	1.34
869.505	2.48
869.672	2.45
869.839	4.46
870.006	1.31
870.173	-0.22
870.339	2.57
870.506	4.93
870.673	0.73
870.84	2.83
871.006	1.73
871.173	0.55
871.34	0.58
871.506	-1.2
871.673	2.6
871.839	1
872.006	1.98
872.173	0.5
872.339	0.99
872.506	3.73
872.672	1.72
872.839	-0.3
873.005	2.4
873.172	5.32
873.338	2.72
873.505	2.59
873.671	1.96
873.838	1.92
874.004	-1.9
874.171	1.8
874.337	1.17
874.503	2.72
874.67	1.81
874.836	1.59
875.002	4.62
875.169	2.99
875.335	2.34
875.501	2.06
875.668	3.84
875.834	3.62
876	0.63
876.166	2.83
876.332	1.89
876.499	6.68
876.665	-0.23
876.831	1.39
876.997	5.37
877.163	4.38
877.329	1.67
877.495	0.96
877.662	2.6
877.828	1.49
877.994	2.6
878.16	-2.43
878.326	1.22
878.492	3.26
878.658	0.62
878.824	2.7
878.99	2.24
879.156	0.45
879.322	3.25
879.487	0.98
879.653	1.61
879.819	1.09
879.985	0.69
880.151	2.41
880.317	3.76
880.483	2.3
880.648	1.37
880.814	-0.57
880.98	2.39
881.146	0.06
881.312	-0.26
881.477	1.32
881.643	1.87
881.809	3.43
881.974	1.72
882.14	-2.61
882.306	3.41
882.471	5.94
882.637	1.09
882.803	1.52
882.968	4.59
883.134	5.58
883.299	1.91
883.465	2.06
883.63	5.21
883.796	1.4
883.961	1.94
884.127	1.6
884.292	-1.26
884.458	-1.07
884.623	-1.06
