Data from Apollo_Calib_20240827__AbsoluteIrradiance__826__12-55-00-480.txt Node

Date: Wed Aug 28 12:55:00 BST 2024
User: biology
Spectrometer: FLMT08252
Trigger mode: 0
Integration Time (sec): 5.000000E-1
Scans to average: 5
Electric dark correction enabled: true
Nonlinearity correction enabled: false
Boxcar width: 0
XAxis mode: Wavelengths
Number of Pixels in Spectrum: 3648
>>>>>Begin Spectral Data<<<<<
179.588	-0
179.809	-0
180.03	-0
180.251	-0
180.473	-0
180.694	0
180.915	0
181.136	-0
181.357	0
181.578	0
181.799	-0
182.02	-0
182.241	-0
182.462	-0
182.683	0
182.904	-0
183.125	-0
183.346	0
183.567	0
183.788	0
184.009	0
184.23	0
184.451	0
184.672	0
184.892	0
185.113	0
185.334	0
185.555	0
185.776	0
185.996	0
186.217	0
186.438	0
186.659	0
186.879	0
187.1	0
187.321	0
187.541	0
187.762	0
187.983	0
188.203	0
188.424	0
188.644	0
188.865	0
189.086	0
189.306	0
189.527	0
189.747	0
189.968	0
190.188	0
190.409	0
190.629	0
190.849	0
191.07	0
191.29	0
191.511	0
191.731	0
191.951	0
192.172	0
192.392	0
192.612	0
192.833	0
193.053	0
193.273	0
193.493	0
193.714	0
193.934	0
194.154	0
194.374	0
194.594	0
194.815	0
195.035	0
195.255	0
195.475	0
195.695	0
195.915	0
196.135	0
196.355	0
196.575	0
196.795	0
197.015	0
197.235	0
197.455	0
197.675	0
197.895	0
198.115	0
198.335	0
198.555	0
198.775	0
198.995	0
199.214	0
199.434	0
199.654	0
199.874	0
200.094	3.74
200.313	2.5
200.533	1.62
200.753	1.35
200.973	3.81
201.192	3.41
201.412	1.26
201.632	1.99
201.851	3.8
202.071	1.68
202.291	1.35
202.51	1.67
202.73	2.08
202.95	1.44
203.169	0.99
203.389	1.69
203.608	2.39
203.828	1.68
204.047	1.62
204.267	2.35
204.486	2.03
204.706	2.05
204.925	1.47
205.145	1.35
205.364	2.17
205.583	2.5
205.803	1.51
206.022	1.08
206.242	2.11
206.461	1.52
206.68	1.08
206.9	1.46
207.119	2.52
207.338	2.05
207.557	1.08
207.777	0.98
207.996	1.58
208.215	1.88
208.434	1.1
208.654	0.79
208.873	1.59
209.092	2.13
209.311	1.09
209.53	0.94
209.749	1.19
209.968	1.02
210.187	0.78
210.407	0.75
210.626	0.92
210.845	1.76
211.064	0.86
211.283	0.57
211.502	1.62
211.721	1.05
211.94	1.06
212.159	1.26
212.377	1.61
212.596	1.36
212.815	1.07
213.034	1.43
213.253	1.33
213.472	1.26
213.691	0.91
213.91	0.55
214.128	0.62
214.347	1.56
214.566	0.42
214.785	0.64
215.003	1.2
215.222	1.07
215.441	1
215.66	0.59
215.878	0.84
216.097	1.07
216.316	0.63
216.534	0.89
216.753	0.91
216.972	0.83
217.19	0.91
217.409	0.6
217.627	0.69
217.846	0.78
218.064	0.98
218.283	0.64
218.501	1.4
218.72	0.97
218.938	0.59
219.157	0.45
219.375	1.04
219.594	1.03
219.812	0.24
220.031	0.45
220.249	1.22
220.467	1.08
220.686	0.55
220.904	0.54
221.122	0.51
221.341	1.3
221.559	0.82
221.777	0.32
221.995	0.72
222.214	0.97
222.432	0.63
222.65	0.85
222.868	0.69
223.086	0.84
223.305	0.99
223.523	0.51
223.741	0.89
223.959	0.79
224.177	0.24
224.395	0.38
224.613	0.72
224.831	1.07
225.049	0.19
225.267	0.51
225.485	0.7
225.703	0.51
225.921	0.53
226.139	0.51
226.357	0.75
226.575	0.75
226.793	0.38
227.011	1.64
227.229	0.71
227.447	0.85
227.665	0.5
227.883	0.41
228.1	0.58
228.318	0.71
228.536	0.37
228.754	0.38
228.972	0.81
229.189	0.68
229.407	0.6
229.625	0.5
229.843	0.83
230.06	0.77
230.278	0.44
230.496	0.6
230.713	0.51
230.931	0.77
231.149	0.41
231.366	0.28
231.584	0.55
231.801	1
232.019	0.52
232.236	0.39
232.454	0.37
232.671	0.65
232.889	0.4
233.106	0.43
233.324	0.67
233.541	0.46
233.759	0.46
233.976	0.35
234.194	0.53
234.411	0.41
234.628	0.38
234.846	0.4
235.063	0.43
235.28	0.43
235.498	0.42
235.715	0.26
235.932	0.7
236.149	0.56
236.367	0.36
236.584	0.49
236.801	0.4
237.018	0.8
237.236	0.55
237.453	0.3
237.67	0.64
237.887	0.57
238.104	0.38
238.321	0.33
238.538	0.35
238.755	0.58
238.973	0.3
239.19	0.49
239.407	0.44
239.624	0.57
239.841	0.26
240.058	0.35
240.275	0.47
240.492	0.47
240.709	0.4
240.925	0.45
241.142	0.43
241.359	0.27
241.576	0.29
241.793	0.31
242.01	0.37
242.227	0.67
242.444	0.59
242.66	0.59
242.877	0.44
243.094	0.45
243.311	0.41
243.527	0.36
243.744	0.54
243.961	0.52
244.178	0.29
244.394	0.37
244.611	0.57
244.828	0.66
245.044	0.31
245.261	0.36
245.477	0.47
245.694	0.52
245.911	0.31
246.127	0.4
246.344	0.52
246.56	0.5
246.777	0.34
246.993	0.39
247.21	0.48
247.426	0.55
247.643	0.24
247.859	0.3
248.076	0.34
248.292	0.69
248.508	0.26
248.725	0.43
248.941	0.41
249.157	0.61
249.374	0.23
249.59	0.36
249.806	0.45
250.023	0.49
250.239	0.27
250.455	0.27
250.671	0.43
250.888	0.45
251.104	0.49
251.32	0.25
251.536	0.37
251.752	0.36
251.969	0.38
252.185	0.36
252.401	0.63
252.617	0.45
252.833	0.33
253.049	0.37
253.265	0.42
253.481	0.42
253.697	0.31
253.913	0.29
254.129	0.42
254.345	0.41
254.561	0.32
254.777	0.35
254.993	0.5
255.209	0.45
255.425	0.28
255.641	0.26
255.857	0.47
256.073	0.43
256.288	0.18
256.504	0.3
256.72	0.45
256.936	0.61
257.152	0.33
257.367	0.29
257.583	0.43
257.799	0.55
258.015	0.32
258.23	0.28
258.446	0.52
258.662	0.35
258.877	0.32
259.093	0.22
259.309	0.36
259.524	0.41
259.74	0.3
259.955	0.19
260.171	0.37
260.387	0.43
260.602	0.38
260.818	0.41
261.033	0.22
261.249	0.37
261.464	0.27
261.68	0.29
261.895	0.39
262.11	0.46
262.326	0.3
262.541	0.22
262.757	0.43
262.972	0.41
263.187	0.36
263.403	0.45
263.618	0.5
263.833	0.35
264.049	0.27
264.264	0.38
264.479	0.36
264.694	0.46
264.91	0.26
265.125	0.26
265.34	0.45
265.555	0.55
265.77	0.38
265.986	0.28
266.201	0.4
266.416	0.42
266.631	0.26
266.846	0.29
267.061	0.52
267.276	0.45
267.491	0.17
267.706	0.35
267.921	0.34
268.136	0.38
268.351	0.32
268.566	0.17
268.781	0.44
268.996	0.43
269.211	0.25
269.426	0.2
269.641	0.3
269.856	0.45
270.071	0.27
270.285	0.2
270.5	0.4
270.715	0.39
270.93	0.3
271.145	0.3
271.359	0.36
271.574	0.31
271.789	0.32
272.004	0.29
272.218	0.34
272.433	0.4
272.648	0.24
272.862	0.36
273.077	0.38
273.292	0.33
273.506	0.25
273.721	0.3
273.936	0.34
274.15	0.42
274.365	0.22
274.579	0.4
274.794	0.45
275.008	0.33
275.223	0.21
275.437	0.29
275.652	0.41
275.866	0.36
276.081	0.27
276.295	0.31
276.509	0.35
276.724	0.32
276.938	0.33
277.153	0.34
277.367	0.4
277.581	0.26
277.796	0.31
278.01	0.22
278.224	0.39
278.438	0.48
278.653	0.2
278.867	0.25
279.081	0.09
279.295	0.24
279.51	0.35
279.724	0.17
279.938	0.4
280.152	0.37
280.366	0.24
280.58	0.27
280.794	0.39
281.008	0.32
281.222	0.33
281.437	0.46
281.651	0.33
281.865	0.43
282.079	0.27
282.293	0.12
282.507	0.24
282.721	0.3
282.935	0.26
283.148	0.16
283.362	0.21
283.576	0.23
283.79	0.26
284.004	0.21
284.218	0.41
284.432	0.27
284.646	0.29
284.859	0.19
285.073	0.27
285.287	0.32
285.501	0.26
285.714	0.25
285.928	0.28
286.142	0.3
286.356	0.21
286.569	0.24
286.783	0.39
286.997	0.34
287.21	0.27
287.424	0.26
287.637	0.28
287.851	0.24
288.065	0.3
288.278	0.23
288.492	0.23
288.705	0.27
288.919	0.31
289.132	0.18
289.346	0.36
289.559	0.19
289.773	0.19
289.986	0.3
290.2	0.26
290.413	0.37
290.626	0.25
290.84	0.21
291.053	0.29
291.267	0.35
291.48	0.26
291.693	0.24
291.906	0.18
292.12	0.3
292.333	0.21
292.546	0.25
292.76	0.3
292.973	0.31
293.186	0.27
293.399	0.2
293.612	0.32
293.826	0.27
294.039	0.29
294.252	0.22
294.465	0.38
294.678	0.35
294.891	0.24
295.104	0.2
295.317	0.26
295.53	0.29
295.743	0.24
295.956	0.25
296.169	0.38
296.382	0.32
296.595	0.23
296.808	0.25
297.021	0.33
297.234	0.34
297.447	0.24
297.66	0.26
297.873	0.32
298.086	0.3
298.299	0.23
298.511	0.13
298.724	0.22
298.937	0.2
299.15	0.19
299.363	0.25
299.575	0.28
299.788	0.29
300.001	0.26
300.213	0.17
300.426	0.24
300.639	0.26
300.852	0.19
301.064	0.25
301.277	0.36
301.489	0.27
301.702	0.28
301.915	0.25
302.127	0.24
302.34	0.25
302.552	0.27
302.765	0.18
302.977	0.34
303.19	0.23
303.402	0.22
303.615	0.22
303.827	0.26
304.04	0.25
304.252	0.26
304.464	0.18
304.677	0.41
304.889	0.27
305.102	0.22
305.314	0.19
305.526	0.24
305.739	0.3
305.951	0.23
306.163	0.22
306.375	0.33
306.588	0.28
306.8	0.23
307.012	0.16
307.224	0.27
307.436	0.35
307.649	0.17
307.861	0.24
308.073	0.31
308.285	0.22
308.497	0.19
308.709	0.18
308.921	0.24
309.133	0.33
309.346	0.23
309.558	0.23
309.77	0.27
309.982	0.35
310.194	0.23
310.406	0.19
310.617	0.34
310.829	0.3
311.041	0.3
311.253	0.21
311.465	0.26
311.677	0.21
311.889	0.24
312.101	0.21
312.313	0.3
312.524	0.33
312.736	0.17
312.948	0.24
313.16	0.36
313.372	0.29
313.583	0.31
313.795	0.26
314.007	0.24
314.218	0.31
314.43	0.28
314.642	0.17
314.853	0.17
315.065	0.34
315.277	0.25
315.488	0.24
315.7	0.3
315.912	0.28
316.123	0.19
316.335	0.21
316.546	0.34
316.758	0.21
316.969	0.22
317.181	0.24
317.392	0.25
317.604	0.35
317.815	0.19
318.026	0.2
318.238	0.2
318.449	0.29
318.661	0.18
318.872	0.18
319.083	0.22
319.295	0.3
319.506	0.2
319.717	0.26
319.929	0.28
320.14	0.23
320.351	0.22
320.562	0.21
320.774	0.27
320.985	0.25
321.196	0.24
321.407	0.2
321.618	0.3
321.829	0.29
322.041	0.26
322.252	0.24
322.463	0.29
322.674	0.27
322.885	0.18
323.096	0.22
323.307	0.23
323.518	0.28
323.729	0.17
323.94	0.2
324.151	0.25
324.362	0.32
324.573	0.23
324.784	0.2
324.995	0.33
325.206	0.28
325.417	0.2
325.628	0.17
325.838	0.24
326.049	0.26
326.26	0.26
326.471	0.2
326.682	0.29
326.892	0.26
327.103	0.13
327.314	0.19
327.525	0.31
327.735	0.21
327.946	0.21
328.157	0.22
328.368	0.3
328.578	0.23
328.789	0.3
328.999	0.23
329.21	0.2
329.421	0.26
329.631	0.24
329.842	0.17
330.052	0.28
330.263	0.24
330.473	0.28
330.684	0.21
330.894	0.26
331.105	0.26
331.315	0.25
331.526	0.13
331.736	0.35
331.947	0.28
332.157	0.21
332.367	0.17
332.578	0.3
332.788	0.36
332.999	0.28
333.209	0.22
333.419	0.21
333.629	0.28
333.84	0.27
334.05	0.23
334.26	0.34
334.47	0.23
334.681	0.3
334.891	0.21
335.101	0.32
335.311	0.36
335.521	0.26
335.732	0.21
335.942	0.34
336.152	0.23
336.362	0.28
336.572	0.26
336.782	0.29
336.992	0.23
337.202	0.2
337.412	0.19
337.622	0.26
337.832	0.26
338.042	0.28
338.252	0.18
338.462	0.23
338.672	0.24
338.882	0.21
339.092	0.26
339.302	0.33
339.511	0.29
339.721	0.19
339.931	0.17
340.141	0.33
340.351	0.31
340.561	0.26
340.77	0.23
340.98	0.33
341.19	0.28
341.4	0.21
341.609	0.21
341.819	0.19
342.029	0.18
342.238	0.26
342.448	0.16
342.658	0.28
342.867	0.25
343.077	0.25
343.286	0.24
343.496	0.28
343.706	0.34
343.915	0.15
344.125	0.26
344.334	0.26
344.544	0.17
344.753	0.24
344.963	0.21
345.172	0.22
345.381	0.2
345.591	0.18
345.8	0.23
346.01	0.37
346.219	0.31
346.428	0.18
346.638	0.2
346.847	0.25
347.056	0.34
347.266	0.23
347.475	0.2
347.684	0.28
347.893	0.29
348.103	0.26
348.312	0.18
348.521	0.24
348.73	0.26
348.94	0.23
349.149	0.2
349.358	0.24
349.567	0.22
349.776	0.16
349.985	0.19
350.194	0.28
350.403	0.31
350.612	0.11
350.821	0.19
351.03	0.25
351.239	0.2
351.448	0.26
351.657	0.2
351.866	0.37
352.075	0.26
352.284	0.25
352.493	0.17
352.702	0.3
352.911	0.26
353.12	0.23
353.329	0.21
353.538	0.27
353.746	0.25
353.955	0.22
354.164	0.23
354.373	0.24
354.582	0.28
354.79	0.23
354.999	0.22
355.208	0.24
355.416	0.36
355.625	0.16
355.834	0.17
356.042	0.26
356.251	0.23
356.46	0.15
356.668	0.25
356.877	0.36
357.085	0.28
357.294	0.13
357.503	0.24
357.711	0.23
357.92	0.45
358.128	0.24
358.337	0.19
358.545	0.27
358.754	0.2
358.962	0.27
359.17	0.23
359.379	0.27
359.587	0.23
359.796	0.23
360.004	0.29
360.212	0.26
360.421	0.31
360.629	0.2
360.837	0.22
361.046	0.31
361.254	0.4
361.462	0.22
361.67	0.21
361.879	0.28
362.087	0.32
362.295	0.29
362.503	0.22
362.711	0.17
362.92	0.2
363.128	0.2
363.336	0.21
363.544	0.17
363.752	0.22
363.96	0.24
364.168	0.23
364.376	0.26
364.584	0.25
364.792	0.34
365	0.24
365.208	0.25
365.416	0.28
365.624	0.29
365.832	0.2
366.04	0.27
366.248	0.24
366.456	0.25
366.664	0.25
366.872	0.23
367.079	0.19
367.287	0.23
367.495	0.25
367.703	0.22
367.911	0.23
368.118	0.26
368.326	0.24
368.534	0.16
368.742	0.29
368.949	0.2
369.157	0.23
369.365	0.27
369.572	0.26
369.78	0.2
369.988	0.28
370.195	0.27
370.403	0.29
370.61	0.24
370.818	0.24
371.026	0.38
371.233	0.21
371.441	0.26
371.648	0.19
371.856	0.27
372.063	0.25
372.271	0.22
372.478	0.21
372.685	0.21
372.893	0.31
373.1	0.25
373.308	0.21
373.515	0.36
373.722	0.33
373.93	0.23
374.137	0.3
374.344	0.34
374.552	0.31
374.759	0.3
374.966	0.27
375.173	0.21
375.381	0.33
375.588	0.2
375.795	0.15
376.002	0.28
376.209	0.2
376.417	0.24
376.624	0.28
376.831	0.31
377.038	0.24
377.245	0.15
377.452	0.18
377.659	0.26
377.866	0.28
378.073	0.18
378.28	0.22
378.487	0.32
378.694	0.3
378.901	0.25
379.108	0.22
379.315	0.29
379.522	0.33
379.729	0.26
379.936	0.25
380.143	0.28
380.35	0.31
380.557	0.2
380.763	0.25
380.97	0.27
381.177	0.25
381.384	0.27
381.591	0.21
381.797	0.28
382.004	0.3
382.211	0.23
382.418	0.23
382.624	0.27
382.831	0.31
383.038	0.28
383.244	0.28
383.451	0.3
383.658	0.28
383.864	0.27
384.071	0.22
384.277	0.32
384.484	0.27
384.69	0.29
384.897	0.2
385.103	0.25
385.31	0.22
385.516	0.22
385.723	0.2
385.929	0.25
386.136	0.25
386.342	0.26
386.549	0.21
386.755	0.34
386.961	0.32
387.168	0.23
387.374	0.2
387.58	0.33
387.787	0.29
387.993	0.32
388.199	0.22
388.406	0.25
388.612	0.25
388.818	0.21
389.024	0.2
389.231	0.24
389.437	0.38
389.643	0.32
389.849	0.22
390.055	0.31
390.261	0.31
390.467	0.31
390.674	0.22
390.88	0.33
391.086	0.27
391.292	0.26
391.498	0.33
391.704	0.34
391.91	0.28
392.116	0.23
392.322	0.2
392.528	0.34
392.734	0.31
392.94	0.38
393.146	0.28
393.352	0.31
393.557	0.27
393.763	0.31
393.969	0.3
394.175	0.27
394.381	0.3
394.587	0.26
394.792	0.33
394.998	0.34
395.204	0.35
395.41	0.29
395.615	0.3
395.821	0.28
396.027	0.35
396.233	0.26
396.438	0.33
396.644	0.38
396.85	0.34
397.055	0.33
397.261	0.27
397.466	0.33
397.672	0.35
397.878	0.33
398.083	0.34
398.289	0.31
398.494	0.41
398.7	0.37
398.905	0.23
399.111	0.42
399.316	0.29
399.522	0.32
399.727	0.32
399.932	0.4
400.138	0.34
400.343	0.39
400.549	0.35
400.754	0.35
400.959	0.38
401.165	0.35
401.37	0.38
401.575	0.44
401.78	0.4
401.986	0.33
402.191	0.33
402.396	0.37
402.601	0.41
402.807	0.39
403.012	0.36
403.217	0.41
403.422	0.41
403.627	0.44
403.832	0.33
404.037	0.43
404.243	0.42
404.448	0.36
404.653	0.4
404.858	0.39
405.063	0.45
405.268	0.41
405.473	0.4
405.678	0.43
405.883	0.65
406.088	0.47
406.293	0.37
406.498	0.44
406.703	0.52
406.907	0.48
407.112	0.44
407.317	0.48
407.522	0.56
407.727	0.47
407.932	0.55
408.136	0.63
408.341	0.54
408.546	0.54
408.751	0.56
408.956	0.59
409.16	0.63
409.365	0.58
409.57	0.56
409.774	0.65
409.979	0.64
410.184	0.64
410.388	0.55
410.593	0.74
410.798	0.76
411.002	0.69
411.207	0.79
411.411	0.79
411.616	0.71
411.82	0.76
412.025	0.78
412.229	0.81
412.434	1.01
412.638	0.85
412.843	0.87
413.047	0.96
413.252	0.93
413.456	0.99
413.66	1.03
413.865	0.99
414.069	1.15
414.273	1.07
414.478	1.05
414.682	1.13
414.886	1.21
415.091	1.12
415.295	1.16
415.499	1.39
415.703	1.35
415.908	1.39
416.112	1.34
416.316	1.51
416.52	1.45
416.724	1.48
416.929	1.57
417.133	1.84
417.337	1.58
417.541	1.75
417.745	1.75
417.949	1.87
418.153	1.9
418.357	1.9
418.561	2.15
418.765	2.1
418.969	2.26
419.173	2.29
419.377	2.32
419.581	2.55
419.785	2.52
419.989	2.5
420.193	2.64
420.397	2.69
420.601	2.85
420.804	2.96
421.008	2.95
421.212	3.14
421.416	3.13
421.62	3.09
421.823	3.14
422.027	3.36
422.231	3.4
422.435	3.3
422.638	3.37
422.842	3.49
423.046	3.48
423.249	3.76
423.453	3.73
423.657	3.9
423.86	3.97
424.064	4.08
424.268	4.28
424.471	4.34
424.675	4.54
424.878	4.54
425.082	4.59
425.285	4.9
425.489	4.88
425.692	5.05
425.896	5.06
426.099	5.27
426.303	5.41
426.506	5.44
426.71	5.6
426.913	5.94
427.116	6.03
427.32	6.01
427.523	6.12
427.726	6.4
427.93	6.49
428.133	6.79
428.336	6.94
428.54	7.05
428.743	7.34
428.946	7.62
429.149	7.54
429.353	7.53
429.556	7.69
429.759	7.7
429.962	7.79
430.165	8.04
430.368	7.7
430.571	7.77
430.775	7.81
430.978	7.74
431.181	7.87
431.384	7.99
431.587	7.99
431.79	8.46
431.993	8.3
432.196	8.64
432.399	8.99
432.602	9.16
432.805	9.34
433.008	9.81
433.211	9.68
433.414	10.02
433.616	9.99
433.819	10.05
434.022	10.03
434.225	10.37
434.428	10.41
434.631	10.85
434.833	10.59
435.036	10.83
435.239	11.05
435.442	11.04
435.645	11.24
435.847	11.29
436.05	11.64
436.253	11.86
436.455	11.8
436.658	11.72
436.861	11.97
437.063	12.17
437.266	12.16
437.468	12.53
437.671	12.76
437.874	12.79
438.076	12.57
438.279	13.21
438.481	13.17
438.684	13.94
438.886	13.48
439.089	13.82
439.291	13.82
439.494	14.12
439.696	14.43
439.899	14.85
440.101	15.31
440.303	15.56
440.506	16.13
440.708	15.98
440.91	16.14
441.113	16.31
441.315	16.47
441.517	16.22
441.72	16.75
441.922	16.56
442.124	16.46
442.326	16.79
442.529	17.09
442.731	17
442.933	17.41
443.135	17.11
443.337	17.18
443.539	17.58
443.742	17.36
443.944	18.01
444.146	17.68
444.348	17.78
444.55	17.5
444.752	17.86
444.954	17.76
445.156	17.75
445.358	18.07
445.56	18.28
445.762	18.14
445.964	18.61
446.166	18.33
446.368	18.23
446.57	18.32
446.772	17.95
446.974	17.83
447.175	18.02
447.377	17.88
447.579	18.13
447.781	17.86
447.983	17.66
448.184	17.38
448.386	17.53
448.588	17.13
448.79	17.19
448.991	17.4
449.193	17.48
449.395	16.76
449.597	16.49
449.798	16.33
450	15.89
450.202	15.97
450.403	15.97
450.605	15.79
450.806	15.43
451.008	15.34
451.21	15.11
451.411	14.72
451.613	13.81
451.814	14.2
452.016	14.21
452.217	13.55
452.419	13.53
452.62	13.15
452.821	12.99
453.023	12.9
453.224	12.43
453.426	12.11
453.627	11.37
453.828	11.49
454.03	11.6
454.231	11.49
454.432	11.23
454.634	11.11
454.835	10.73
455.036	10.65
455.238	10.27
455.439	9.97
455.64	9.76
455.841	9.65
456.042	9.77
456.244	9.46
456.445	9.07
456.646	8.87
456.847	8.73
457.048	8.77
457.249	8.75
457.45	8.52
457.651	7.9
457.852	7.86
458.054	7.47
458.255	7.43
458.456	7.57
458.657	7.37
458.858	6.93
459.058	6.86
459.259	6.92
459.46	6.54
459.661	6.54
459.862	6.6
460.063	6.43
460.264	6.52
460.465	6.11
460.666	6.2
460.866	5.96
461.067	5.63
461.268	5.71
461.469	5.69
461.67	5.52
461.87	5.37
462.071	5.34
462.272	5.29
462.473	5.25
462.673	5.47
462.874	5.31
463.075	5.16
463.275	5.2
463.476	5.29
463.676	5.16
463.877	5.09
464.078	5.11
464.278	5.12
464.479	4.95
464.679	4.86
464.88	4.79
465.08	4.79
465.281	4.64
465.481	4.39
465.682	4.26
465.882	4.33
466.083	4.26
466.283	4.09
466.483	4.07
466.684	3.8
466.884	3.67
467.085	3.76
467.285	3.85
467.485	3.71
467.686	3.59
467.886	3.56
468.086	3.5
468.286	3.5
468.487	3.51
468.687	3.39
468.887	3.34
469.087	3.41
469.287	3.38
469.488	3.15
469.688	3.32
469.888	3.33
470.088	3.26
470.288	3.11
470.488	3.15
470.688	2.98
470.888	2.92
471.088	2.8
471.288	2.9
471.488	2.83
471.688	2.86
471.888	2.76
472.088	2.9
472.288	2.78
472.488	2.65
472.688	2.61
472.888	2.69
473.088	2.71
473.288	2.57
473.488	2.52
473.688	2.68
473.887	2.51
474.087	2.49
474.287	2.47
474.487	2.43
474.687	2.55
474.886	2.47
475.086	2.38
475.286	2.47
475.486	2.32
475.685	2.28
475.885	2.23
476.085	2.35
476.284	2.25
476.484	2.28
476.684	2.31
476.883	2.38
477.083	2.23
477.282	2.18
477.482	2.26
477.681	2.16
477.881	2.1
478.08	2.13
478.28	2.1
478.479	2.14
478.679	2.18
478.878	2.09
479.078	2.09
479.277	2.14
479.477	2.07
479.676	2.06
479.875	2.05
480.075	1.98
480.274	2.09
480.473	2.09
480.673	2.09
480.872	2.13
481.071	2.11
481.271	2.08
481.47	2
481.669	2.03
481.868	2.03
482.067	2.05
482.267	1.93
482.466	1.99
482.665	2.01
482.864	1.93
483.063	1.98
483.262	2.06
483.461	2.04
483.661	2.11
483.86	2.04
484.059	2.11
484.258	2.07
484.457	2
484.656	2.07
484.855	2.15
485.054	1.98
485.253	2.04
485.452	1.99
485.651	2.12
485.849	2.03
486.048	2.04
486.247	2.07
486.446	2.15
486.645	2.04
486.844	2.11
487.043	2.11
487.241	2.16
487.44	2.1
487.639	2.17
487.838	2.16
488.037	2.14
488.235	2.26
488.434	2.17
488.633	2.07
488.831	2.22
489.03	2.27
489.229	2.27
489.427	2.25
489.626	2.29
489.825	2.32
490.023	2.31
490.222	2.25
490.42	2.36
490.619	2.39
490.817	2.41
491.016	2.37
491.214	2.43
491.413	2.44
491.611	2.38
491.81	2.4
492.008	2.49
492.207	2.53
492.405	2.55
492.604	2.44
492.802	2.56
493	2.62
493.199	2.63
493.397	2.63
493.595	2.65
493.794	2.66
493.992	2.81
494.19	2.71
494.388	2.83
494.587	2.73
494.785	2.83
494.983	2.73
495.181	2.85
495.379	2.91
495.578	2.97
495.776	2.93
495.974	2.9
496.172	2.94
496.37	3.06
496.568	3.07
496.766	3.09
496.964	3.14
497.162	3.17
497.36	3.17
497.558	3.29
497.756	3.29
497.954	3.31
498.152	3.37
498.35	3.44
498.548	3.39
498.746	3.39
498.944	3.43
499.142	3.41
499.34	3.55
499.538	3.6
499.736	3.46
499.933	3.64
500.131	3.65
500.329	3.75
500.527	3.77
500.725	3.84
500.922	3.82
501.12	3.86
501.318	3.91
501.516	3.88
501.713	4.01
501.911	3.99
502.109	3.91
502.306	4.07
502.504	3.98
502.701	4.04
502.899	4.15
503.097	4.35
503.294	4.21
503.492	4.31
503.689	4.4
503.887	4.35
504.084	4.4
504.282	4.39
504.479	4.34
504.677	4.59
504.874	4.51
505.072	4.43
505.269	4.64
505.466	4.66
505.664	4.71
505.861	4.63
506.059	4.75
506.256	4.82
506.453	4.83
506.651	4.95
506.848	4.97
507.045	4.95
507.242	4.99
507.44	4.93
507.637	5.06
507.834	5
508.031	5.19
508.229	5.1
508.426	5.04
508.623	5.27
508.82	5.27
509.017	5.23
509.214	5.24
509.411	5.35
509.608	5.32
509.805	5.47
510.003	5.48
510.2	5.48
510.397	5.67
510.594	5.47
510.791	5.66
510.988	5.57
511.184	5.56
511.381	5.52
511.578	5.67
511.775	5.79
511.972	5.72
512.169	5.81
512.366	5.73
512.563	5.9
512.76	5.94
512.956	5.99
513.153	5.93
513.35	5.93
513.547	5.88
513.744	6.02
513.94	5.97
514.137	6.19
514.334	6.06
514.53	6.11
514.727	6.35
514.924	6.25
515.12	6.2
515.317	6.21
515.514	6.2
515.71	6.19
515.907	6.36
516.103	6.41
516.3	6.32
516.497	6.43
516.693	6.48
516.89	6.47
517.086	6.45
517.283	6.46
517.479	6.37
517.676	6.51
517.872	6.6
518.068	6.6
518.265	6.57
518.461	6.52
518.658	6.68
518.854	6.65
519.05	6.74
519.247	6.79
519.443	6.72
519.639	6.88
519.836	6.76
520.032	6.72
520.228	6.84
520.424	6.84
520.621	6.91
520.817	6.94
521.013	6.84
521.209	7.06
521.405	6.99
521.601	7.01
521.798	6.95
521.994	7.03
522.19	7.02
522.386	7
522.582	7.1
522.778	7.21
522.974	7.06
523.17	7.06
523.366	7.06
523.562	7.18
523.758	7.18
523.954	6.98
524.15	7.19
524.346	7.22
524.542	7.22
524.738	7.19
524.934	7.33
525.129	7.27
525.325	7.22
525.521	7.14
525.717	7.51
525.913	7.32
526.109	7.3
526.304	7.38
526.5	7.4
526.696	7.51
526.892	7.34
527.087	7.6
527.283	7.49
527.479	7.44
527.674	7.28
527.87	7.43
528.066	7.47
528.261	7.51
528.457	7.4
528.653	7.56
528.848	7.57
529.044	7.66
529.239	7.52
529.435	7.47
529.63	7.45
529.826	7.53
530.021	7.55
530.217	7.54
530.412	7.53
530.608	7.6
530.803	7.59
530.999	7.51
531.194	7.61
531.389	7.73
531.585	7.62
531.78	7.74
531.975	7.62
532.171	7.7
532.366	7.68
532.561	7.69
532.757	7.65
532.952	7.83
533.147	7.64
533.342	7.82
533.538	7.73
533.733	7.88
533.928	7.57
534.123	7.74
534.318	7.77
534.513	7.65
534.709	7.83
534.904	7.77
535.099	7.88
535.294	7.82
535.489	7.87
535.684	7.74
535.879	7.79
536.074	7.86
536.269	7.91
536.464	7.94
536.659	7.85
536.854	7.86
537.049	7.9
537.244	7.8
537.439	7.8
537.634	7.89
537.828	7.94
538.023	7.89
538.218	7.89
538.413	7.78
538.608	7.83
538.803	7.92
538.997	7.88
539.192	7.95
539.387	7.94
539.582	7.9
539.776	7.84
539.971	7.96
540.166	8.04
540.36	7.93
540.555	8.04
540.75	7.95
540.944	7.97
541.139	7.96
541.334	7.98
541.528	7.97
541.723	8.04
541.917	8.08
542.112	7.91
542.306	7.85
542.501	7.9
542.695	7.95
542.89	7.9
543.084	8.03
543.279	7.97
543.473	8.09
543.668	8.05
543.862	7.9
544.056	7.91
544.251	8.05
544.445	8.11
544.64	8.07
544.834	7.81
545.028	7.65
545.222	7.95
545.417	8.21
545.611	8.05
545.805	8.01
546	7.85
546.194	8.05
546.388	8.03
546.582	7.95
546.776	7.98
546.97	8.05
547.165	8.02
547.359	8
547.553	7.99
547.747	8.01
547.941	8.16
548.135	7.96
548.329	8.04
548.523	8.11
548.717	8
548.911	7.98
549.105	8.01
549.299	8.09
549.493	8.09
549.687	7.95
549.881	8.11
550.075	8.09
550.269	8
550.463	8.1
550.657	8.1
550.85	8.05
551.044	7.99
551.238	8.03
551.432	8.04
551.626	8.12
551.82	8.15
552.013	7.96
552.207	8.2
552.401	8.16
552.594	8.03
552.788	8
552.982	7.98
553.176	7.93
553.369	8.17
553.563	8.1
553.756	8.06
553.95	8.13
554.144	8.15
554.337	8.13
554.531	7.9
554.724	8.11
554.918	8.19
555.111	8.07
555.305	8.11
555.498	8.03
555.692	8.2
555.885	8.1
556.079	8.04
556.272	8.07
556.466	8.05
556.659	8.02
556.852	8.15
557.046	8.02
557.239	7.96
557.432	8.03
557.626	8.09
557.819	8.14
558.012	8.12
558.206	8.19
558.399	8.09
558.592	8.04
558.785	8.04
558.979	8.1
559.172	8.08
559.365	8.15
559.558	8.06
559.751	8
559.944	8.14
560.138	8.09
560.331	8.08
560.524	8.08
560.717	8
560.91	8.08
561.103	8.08
561.296	7.92
561.489	8.11
561.682	8.18
561.875	8.13
562.068	8.19
562.261	7.98
562.454	8.21
562.647	8.02
562.84	8.13
563.032	8.13
563.225	8.1
563.418	8.09
563.611	8.1
563.804	8.09
563.997	7.96
564.19	7.83
564.382	8.14
564.575	8.05
564.768	8
564.961	8.15
565.153	8
565.346	7.98
565.539	8.09
565.731	8.07
565.924	8.16
566.117	8.18
566.309	8.11
566.502	8.03
566.695	7.98
566.887	8.12
567.08	8.04
567.272	8.17
567.465	7.98
567.657	8.08
567.85	7.91
568.042	8.05
568.235	8.14
568.427	7.87
568.62	8.04
568.812	7.98
569.005	8.12
569.197	7.96
569.389	8.04
569.582	7.97
569.774	8.05
569.966	8
570.159	7.9
570.351	7.95
570.543	8.01
570.736	7.98
570.928	7.84
571.12	8.04
571.312	7.93
571.505	7.77
571.697	8.03
571.889	8.01
572.081	8.01
572.273	7.9
572.465	8.01
572.658	7.95
572.85	7.97
573.042	8
573.234	7.88
573.426	7.94
573.618	7.88
573.81	7.94
574.002	7.93
574.194	7.96
574.386	7.87
574.578	7.76
574.77	7.84
574.962	7.9
575.154	7.82
575.346	7.86
575.538	7.8
575.729	7.76
575.921	7.95
576.113	7.89
576.305	7.84
576.497	8.04
576.689	7.75
576.88	7.7
577.072	7.96
577.264	7.85
577.456	7.78
577.647	7.77
577.839	7.93
578.031	7.8
578.223	7.8
578.414	7.68
578.606	7.84
578.798	7.83
578.989	7.82
579.181	7.89
579.372	7.8
579.564	7.85
579.755	7.7
579.947	7.66
580.139	7.74
580.33	7.64
580.522	7.74
580.713	7.72
580.905	7.7
581.096	7.83
581.287	7.69
581.479	7.7
581.67	7.81
581.862	7.67
582.053	7.66
582.244	7.57
582.436	7.76
582.627	7.58
582.818	7.57
583.01	7.55
583.201	7.66
583.392	7.6
583.583	7.55
583.775	7.43
583.966	7.62
584.157	7.5
584.348	7.72
584.54	7.5
584.731	7.63
584.922	7.54
585.113	7.43
585.304	7.56
585.495	7.53
585.686	7.63
585.877	7.53
586.068	7.6
586.259	7.48
586.45	7.54
586.641	7.47
586.832	7.52
587.023	7.39
587.214	7.41
587.405	7.54
587.596	7.39
587.787	7.36
587.978	7.42
588.169	7.42
588.36	7.36
588.551	7.4
588.742	7.41
588.932	7.42
589.123	7.15
589.314	7.42
589.505	7.28
589.696	7.31
589.886	7.27
590.077	7.29
590.268	7.31
590.458	7.12
590.649	7.08
590.84	7.28
591.03	7.23
591.221	7.2
591.412	7.08
591.602	7.3
591.793	7.2
591.984	7.21
592.174	7.18
592.365	7.38
592.555	7.09
592.746	7.09
592.936	7.12
593.127	7.17
593.317	7.16
593.508	7.07
593.698	7.09
593.889	7.06
594.079	7.01
594.269	6.94
594.46	6.96
594.65	7.08
594.84	6.97
595.031	6.92
595.221	6.99
595.411	6.95
595.602	7.02
595.792	6.92
595.982	6.85
596.172	6.99
596.363	6.86
596.553	6.88
596.743	6.94
596.933	6.88
597.123	6.91
597.314	6.72
597.504	6.76
597.694	6.85
597.884	6.72
598.074	6.77
598.264	6.79
598.454	6.76
598.644	6.76
598.834	6.76
599.024	6.67
599.214	6.65
599.404	6.73
599.594	6.68
599.784	6.61
599.974	6.79
600.164	6.64
600.354	6.56
600.544	6.51
600.734	6.58
600.924	6.52
601.114	6.51
601.303	6.49
601.493	6.53
601.683	6.55
601.873	6.49
602.063	6.41
602.252	6.46
602.442	6.34
602.632	6.41
602.821	6.31
603.011	6.46
603.201	6.41
603.39	6.3
603.58	6.25
603.77	6.37
603.959	6.39
604.149	6.31
604.339	6.32
604.528	6.34
604.718	6.41
604.907	6.24
605.097	6.25
605.286	6.22
605.476	6.29
605.665	6.26
605.855	6.21
606.044	6.25
606.234	6.23
606.423	6.12
606.612	6.19
606.802	6.08
606.991	6.14
607.181	6.19
607.37	6.1
607.559	5.86
607.749	6.03
607.938	5.95
608.127	6.04
608.316	5.99
608.506	5.91
608.695	6.1
608.884	5.93
609.073	5.97
609.263	6.01
609.452	5.98
609.641	5.77
609.83	5.77
610.019	5.88
610.208	5.83
610.397	5.84
610.586	5.91
610.775	5.83
610.965	5.77
611.154	5.68
611.343	5.79
611.532	5.66
611.721	5.79
611.91	5.69
612.099	5.69
612.287	5.57
612.476	5.54
612.665	5.76
612.854	5.6
613.043	5.63
613.232	5.53
613.421	5.53
613.61	5.56
613.798	5.51
613.987	5.56
614.176	5.49
614.365	5.51
614.554	5.47
614.742	5.53
614.931	5.36
615.12	5.48
615.309	5.46
615.497	5.36
615.686	5.25
615.875	5.36
616.063	5.36
616.252	5.23
616.44	5.27
616.629	5.29
616.818	5.25
617.006	5.19
617.195	5.2
617.383	5.25
617.572	5.17
617.76	5.11
617.949	5.14
618.137	5.25
618.326	5.26
618.514	5.02
618.703	4.98
618.891	5.15
619.079	5.05
619.268	5.12
619.456	4.96
619.644	5.09
619.833	4.96
620.021	4.97
620.209	4.86
620.398	5.02
620.586	4.86
620.774	5.02
620.962	4.87
621.151	4.98
621.339	4.9
621.527	4.78
621.715	4.78
621.903	4.84
622.092	4.74
622.28	4.91
622.468	4.67
622.656	4.75
622.844	4.72
623.032	4.8
623.22	4.61
623.408	4.78
623.596	4.64
623.784	4.69
623.972	4.56
624.16	4.61
624.348	4.73
624.536	4.72
624.724	4.6
624.912	4.57
625.1	4.56
625.288	4.55
625.476	4.46
625.664	4.57
625.851	4.46
626.039	4.53
626.227	4.42
626.415	4.47
626.603	4.39
626.79	4.45
626.978	4.42
627.166	4.44
627.354	4.27
627.541	4.39
627.729	4.24
627.917	4.49
628.104	4.37
628.292	4.29
628.48	4.34
628.667	4.32
628.855	4.33
629.042	4.28
629.23	4.23
629.418	4.23
629.605	4.21
629.793	4.13
629.98	4.18
630.168	4.14
630.355	4.13
630.543	4.13
630.73	4.03
630.917	4.05
631.105	4.17
631.292	4.12
631.48	4.05
631.667	4.14
631.854	4.02
632.042	4
632.229	3.95
632.416	4.04
632.604	3.99
632.791	3.86
632.978	3.97
633.165	3.91
633.353	4.03
633.54	3.94
633.727	3.79
633.914	3.85
634.101	3.81
634.289	3.93
634.476	3.78
634.663	3.8
634.85	3.79
635.037	3.7
635.224	3.65
635.411	3.83
635.598	3.71
635.785	3.7
635.972	3.63
636.159	3.71
636.346	3.66
636.533	3.6
636.72	3.56
636.907	3.63
637.094	3.63
637.281	3.48
637.468	3.59
637.655	3.58
637.842	3.58
638.029	3.52
638.215	3.44
638.402	3.46
638.589	3.44
638.776	3.48
638.963	3.33
639.149	3.51
639.336	3.5
639.523	3.42
639.709	3.44
639.896	3.33
640.083	3.38
640.27	3.46
640.456	3.37
640.643	3.32
640.829	3.24
641.016	3.23
641.203	3.18
641.389	3.34
641.576	3.23
641.762	3.22
641.949	3.18
642.135	3.21
642.322	3.17
642.508	3.07
642.695	3.18
642.881	3.11
643.068	3.17
643.254	3.13
643.441	3.11
643.627	3.17
643.813	3.06
644	3.11
644.186	3.01
644.372	3.09
644.559	3.06
644.745	3.02
644.931	2.98
645.118	3.04
645.304	2.97
645.49	3.02
645.676	2.97
645.862	2.98
646.049	2.99
646.235	2.97
646.421	3.03
646.607	3.05
646.793	2.88
646.979	2.8
647.165	2.91
647.352	2.93
647.538	2.9
647.724	2.8
647.91	2.75
648.096	2.82
648.282	2.85
648.468	2.76
648.654	2.82
648.84	2.78
649.026	2.8
649.212	2.68
649.397	2.63
649.583	2.7
649.769	2.66
649.955	2.67
650.141	2.73
650.327	2.73
650.513	2.67
650.698	2.64
650.884	2.5
651.07	2.69
651.256	2.61
651.442	2.62
651.627	2.54
651.813	2.66
651.999	2.57
652.184	2.57
652.37	2.51
652.556	2.54
652.741	2.55
652.927	2.39
653.113	2.46
653.298	2.47
653.484	2.5
653.669	2.39
653.855	2.45
654.04	2.5
654.226	2.4
654.412	2.37
654.597	2.35
654.782	2.43
654.968	2.44
655.153	2.33
655.339	2.33
655.524	2.29
655.71	2.36
655.895	2.32
656.08	2.34
656.266	2.32
656.451	2.31
656.636	2.21
656.822	2.28
657.007	2.31
657.192	2.26
657.378	2.2
657.563	2.23
657.748	2.24
657.933	2.24
658.118	2.15
658.304	2.25
658.489	2.26
658.674	2.22
658.859	2.13
659.044	2.19
659.229	2.2
659.414	2.13
659.599	2.14
659.785	2.1
659.97	2.11
660.155	2.11
660.34	2.2
660.525	2.03
660.71	2.05
660.895	2.08
661.08	2.05
661.264	1.97
661.449	2.15
661.634	2.07
661.819	2.09
662.004	2
662.189	1.96
662.374	1.95
662.559	1.97
662.743	1.91
662.928	1.99
663.113	1.92
663.298	1.88
663.483	1.93
663.667	1.95
663.852	1.89
664.037	1.94
664.221	1.89
664.406	1.93
664.591	1.95
664.775	1.97
664.96	1.81
665.145	1.88
665.329	1.91
665.514	1.85
665.698	1.83
665.883	1.8
666.068	1.87
666.252	1.82
666.437	1.81
666.621	1.8
666.806	1.76
666.99	1.76
667.174	1.72
667.359	1.85
667.543	1.73
667.728	1.73
667.912	1.61
668.096	1.76
668.281	1.73
668.465	1.77
668.649	1.61
668.834	1.63
669.018	1.72
669.202	1.7
669.387	1.66
669.571	1.75
669.755	1.63
669.939	1.67
670.124	1.65
670.308	1.7
670.492	1.67
670.676	1.65
670.86	1.59
671.044	1.53
671.228	1.71
671.413	1.57
671.597	1.53
671.781	1.51
671.965	1.6
672.149	1.61
672.333	1.61
672.517	1.51
672.701	1.56
672.885	1.56
673.069	1.45
673.253	1.65
673.437	1.51
673.621	1.49
673.804	1.54
673.988	1.57
674.172	1.51
674.356	1.4
674.54	1.49
674.724	1.54
674.908	1.44
675.091	1.5
675.275	1.47
675.459	1.48
675.643	1.51
675.826	1.44
676.01	1.39
676.194	1.46
676.377	1.49
676.561	1.49
676.745	1.42
676.928	1.46
677.112	1.42
677.296	1.36
677.479	1.35
677.663	1.42
677.846	1.42
678.03	1.39
678.213	1.32
678.397	1.42
678.58	1.41
678.764	1.37
678.947	1.27
679.131	1.32
679.314	1.39
679.498	1.31
679.681	1.36
679.865	1.45
680.048	1.34
680.231	1.27
680.415	1.19
680.598	1.31
680.781	1.22
680.965	1.25
681.148	1.26
681.331	1.22
681.514	1.35
681.698	1.23
681.881	1.26
682.064	1.26
682.247	1.29
682.43	1.16
682.614	1.21
682.797	1.28
682.98	1.25
683.163	1.16
683.346	1.23
683.529	1.14
683.712	1.19
683.895	1.2
684.078	1.13
684.261	1.21
684.444	1.21
684.627	1.24
684.81	1.14
684.993	1.15
685.176	1.27
685.359	1.12
685.542	1.1
685.725	1.23
685.908	1.2
686.091	1.08
686.274	1.14
686.457	1.15
686.639	1.13
686.822	1.12
687.005	1.07
687.188	1.13
687.371	1.22
687.553	1.15
687.736	1.12
687.919	1.22
688.102	1.19
688.284	1.03
688.467	1.05
688.65	1.13
688.832	0.97
689.015	1.08
689.197	0.95
689.38	1.12
689.563	1.13
689.745	0.99
689.928	1.05
690.11	1.02
690.293	1.09
690.475	0.98
690.658	1.06
690.84	1
691.023	0.94
691.205	0.93
691.388	0.99
691.57	1.05
691.752	0.98
691.935	0.9
692.117	0.92
692.3	1.05
692.482	1.01
692.664	0.95
692.847	0.94
693.029	1.05
693.211	1.02
693.393	0.9
693.576	0.88
693.758	0.94
693.94	0.96
694.122	0.95
694.304	0.9
694.487	0.87
694.669	1
694.851	0.82
695.033	0.89
695.215	0.91
695.397	0.85
695.579	0.89
695.761	0.79
695.943	0.84
696.125	0.97
696.308	0.94
696.49	0.8
696.671	1.05
696.853	0.89
697.035	1.02
697.217	0.81
697.399	0.95
697.581	0.81
697.763	0.85
697.945	0.8
698.127	0.93
698.309	0.93
698.491	0.81
698.672	0.88
698.854	0.89
699.036	0.89
699.218	0.8
699.399	0.88
699.581	0.89
699.763	0.87
699.945	0.76
700.126	0.73
700.308	0.88
700.49	0.79
700.671	0.69
700.853	0.75
701.035	0.76
701.216	0.85
701.398	0.68
701.579	0.79
701.761	0.89
701.943	0.78
702.124	0.71
702.306	0.72
702.487	0.94
702.669	0.78
702.85	0.75
703.031	0.68
703.213	0.85
703.394	0.86
703.576	0.75
703.757	0.86
703.938	0.77
704.12	1.01
704.301	0.73
704.483	0.73
704.664	0.78
704.845	0.83
705.026	0.81
705.208	0.69
705.389	0.77
705.57	0.72
705.751	0.82
705.933	0.73
706.114	0.84
706.295	0.79
706.476	0.62
706.657	0.91
706.838	0.81
707.02	0.83
707.201	0.68
707.382	0.68
707.563	0.77
707.744	0.65
707.925	0.61
708.106	0.67
708.287	0.73
708.468	0.82
708.649	0.66
708.83	0.69
709.011	0.6
709.192	0.8
709.373	0.59
709.554	0.69
709.734	0.78
709.915	0.72
710.096	0.63
710.277	0.47
710.458	0.6
710.639	0.72
710.819	0.51
711	0.57
711.181	0.73
711.362	0.77
711.542	0.65
711.723	0.65
711.904	0.74
712.085	0.76
712.265	0.66
712.446	0.56
712.627	0.59
712.807	0.62
712.988	0.66
713.168	0.48
713.349	0.65
713.53	0.45
713.71	0.57
713.891	0.49
714.071	0.63
714.252	0.61
714.432	0.56
714.613	0.49
714.793	0.57
714.974	0.77
715.154	0.71
715.334	0.62
715.515	0.7
715.695	0.5
715.876	0.58
716.056	0.6
716.236	0.49
716.417	0.61
716.597	0.51
716.777	0.84
716.957	0.57
717.138	0.6
717.318	0.54
717.498	0.43
717.678	0.64
717.859	0.62
718.039	0.51
718.219	0.58
718.399	0.51
718.579	0.48
718.759	0.5
718.939	0.6
719.12	0.64
719.3	0.56
719.48	0.37
719.66	0.39
719.84	0.7
720.02	0.52
720.2	0.51
720.38	0.49
720.56	0.69
720.74	0.43
720.92	0.61
721.1	0.72
721.279	0.66
721.459	0.61
721.639	0.42
721.819	0.51
721.999	0.43
722.179	0.6
722.359	0.41
722.538	0.49
722.718	0.53
722.898	0.54
723.078	0.46
723.257	0.46
723.437	0.52
723.617	0.56
723.797	0.55
723.976	0.54
724.156	0.6
724.336	0.63
724.515	0.77
724.695	0.31
724.874	0.46
725.054	0.56
725.234	0.43
725.413	0.52
725.593	0.5
725.772	0.54
725.952	0.54
726.131	0.53
726.311	0.58
726.49	0.46
726.67	0.43
726.849	0.44
727.028	0.61
727.208	0.47
727.387	0.55
727.567	0.35
727.746	0.47
727.925	0.41
728.105	0.44
728.284	0.43
728.463	0.43
728.643	0.48
728.822	0.28
729.001	0.43
729.18	0.54
729.359	0.6
729.539	0.46
729.718	0.49
729.897	0.6
730.076	0.5
730.255	0.42
730.434	0.44
730.614	0.56
730.793	0.69
730.972	0.48
731.151	0.41
731.33	0.6
731.509	0.48
731.688	0.46
731.867	0.42
732.046	0.3
732.225	0.66
732.404	0.52
732.583	0.34
732.762	0.43
732.941	0.51
733.12	0.4
733.298	0.51
733.477	0.57
733.656	0.44
733.835	0.32
734.014	0.54
734.193	0.52
734.371	0.49
734.55	0.58
734.729	0.38
734.908	0.55
735.086	0.52
735.265	0.54
735.444	0.34
735.623	0.32
735.801	0.37
735.98	0.46
736.159	0.43
736.337	0.52
736.516	0.53
736.694	0.38
736.873	0.44
737.052	0.79
737.23	0.72
737.409	0.41
737.587	0.65
737.766	0.26
737.944	0.47
738.123	0.56
738.301	0.57
738.479	0.44
738.658	0.51
738.836	0.17
739.015	0.35
739.193	0.62
739.371	0.29
739.55	0.39
739.728	0.35
739.906	0.68
740.085	0.7
740.263	0.5
740.441	0.24
740.62	0.73
740.798	0.58
740.976	0.35
741.154	0.34
741.332	0.71
741.511	0.39
741.689	0.51
741.867	0.51
742.045	0.51
742.223	0.47
742.401	0.26
742.579	0.33
742.757	0.54
742.935	0.17
743.114	0.46
743.292	0.41
743.47	0.43
743.648	0.45
743.826	0.26
744.004	0.53
744.181	0.53
744.359	0.38
744.537	0.4
744.715	0.39
744.893	0.34
745.071	0.54
745.249	0.36
745.427	0.3
745.605	0.54
745.782	0.45
745.96	0.42
746.138	0.54
746.316	0.59
746.493	0.36
746.671	0.52
746.849	0.27
747.027	0.55
747.204	0.29
747.382	0.41
747.56	0.3
747.737	0.43
747.915	0.42
748.093	0.47
748.27	0.3
748.448	0.34
748.625	0.28
748.803	0.3
748.98	0.25
749.158	0.44
749.335	0.51
749.513	0.32
749.69	0.36
749.868	0.36
750.045	0.41
750.223	0.31
750.4	0.18
750.578	0.66
750.755	0.36
750.932	0.21
751.11	0.47
751.287	0.33
751.464	0.54
751.642	0.19
751.819	0.44
751.996	0.36
752.173	0.37
752.351	0.24
752.528	0.28
752.705	0.31
752.882	0.36
753.06	0.38
753.237	0.38
753.414	0.56
753.591	0.67
753.768	0.46
753.945	0.26
754.122	0.3
754.299	0.56
754.476	0.35
754.654	0.3
754.831	0.5
755.008	0.47
755.185	0.3
755.362	0.26
755.539	0.42
755.716	0.3
755.892	0.35
756.069	0.38
756.246	0.46
756.423	0.29
756.6	0.47
756.777	0.2
756.954	0.49
757.131	0.3
757.307	0.27
757.484	0.2
757.661	0.32
757.838	0.56
758.015	0.17
758.191	0.42
758.368	0.38
758.545	0.59
758.721	0.38
758.898	0.14
759.075	0.34
759.251	0.54
759.428	0.4
759.605	0.29
759.781	0.31
759.958	0.49
760.134	0.44
760.311	0.35
760.488	0.55
760.664	0.49
760.841	0.31
761.017	0.18
761.194	0.43
761.37	0.49
761.547	0.33
761.723	0.35
761.899	0.54
762.076	0.24
762.252	0.26
762.429	0.17
762.605	0.47
762.781	0.32
762.958	0.39
763.134	0.22
763.31	0.17
763.486	0.57
763.663	0.09
763.839	0.4
764.015	0.16
764.191	0.31
764.368	0.16
764.544	0.17
764.72	0.35
764.896	0.37
765.072	0.33
765.248	0.24
765.425	0.29
765.601	0.4
765.777	0.34
765.953	0.04
766.129	0.31
766.305	0.33
766.481	0.37
766.657	0.33
766.833	0.55
767.009	0.15
767.185	0.17
767.361	0.39
767.537	0.2
767.713	0.55
767.889	0.34
768.065	0.36
768.24	0.56
768.416	0.52
768.592	0.2
768.768	0.39
768.944	0.41
769.12	0.3
769.295	0.32
769.471	0.25
769.647	0.27
769.823	0.52
769.998	0.23
770.174	0.27
770.35	0.78
770.525	0.77
770.701	0.43
770.877	0.22
771.052	0.11
771.228	0.51
771.403	0.32
771.579	0.38
771.755	0.75
771.93	0.26
772.106	0.21
772.281	-0.11
772.457	0.31
772.632	0.57
772.808	0.16
772.983	0.21
773.159	0.12
773.334	0.68
773.509	0.32
773.685	0.23
773.86	0.8
774.036	0.57
774.211	0.32
774.386	0.26
774.562	0.29
774.737	0.48
774.912	0.21
775.087	0.43
775.263	0.3
775.438	0.39
775.613	0.43
775.788	0.23
775.964	0.56
776.139	1
776.314	0.21
776.489	0.34
776.664	0.28
776.839	0.12
777.014	0.5
777.19	0.52
777.365	0.76
777.54	0.64
777.715	0.39
777.89	0.31
778.065	0.09
778.24	0.43
778.415	0.46
778.59	0.04
778.765	0.27
778.94	0.36
779.115	0.41
779.289	0.37
779.464	0.41
779.639	0.35
779.814	0.2
779.989	0.25
780.164	0.58
780.339	0.45
780.513	0.11
780.688	0.08
780.863	0.24
781.038	0.66
781.212	0.12
781.387	0.36
781.562	0.67
781.737	0.28
781.911	0.64
782.086	0.15
782.261	0.38
782.435	0.73
782.61	0.29
782.784	0.31
782.959	0.64
783.134	0.3
783.308	0.24
783.483	0.3
783.657	1.02
783.832	0.72
784.006	-0
784.181	0.36
784.355	0.41
784.53	0.46
784.704	0.1
784.878	0.7
785.053	0.55
785.227	0.83
785.402	0.88
785.576	0.3
785.75	0.37
785.925	0.39
786.099	0.38
786.273	0.47
786.448	0.54
786.622	0.64
786.796	0.29
786.97	0.28
787.145	1.13
787.319	0.05
787.493	0.16
787.667	0.11
787.841	0.34
788.015	0.8
788.19	0.2
788.364	0.28
788.538	0.8
788.712	0.63
788.886	0.24
789.06	0.82
789.234	0.64
789.408	0.08
789.582	0.22
789.756	0.27
789.93	0.26
790.104	0.45
790.278	0.28
790.452	0.1
790.626	0.61
790.8	0.2
790.973	0.47
791.147	0.69
791.321	0.73
791.495	0.64
791.669	0.36
791.843	0.56
792.016	0.51
792.19	0.87
792.364	0.1
792.538	1.03
792.711	0.57
792.885	0.38
793.059	0.13
793.233	-0.29
793.406	0.76
793.58	0.46
793.754	0.68
793.927	0.34
794.101	0.76
794.274	0.51
794.448	0.79
794.622	0.1
794.795	0.88
794.969	0.37
795.142	0.64
795.316	0.44
795.489	0.09
795.663	0.87
795.836	0.48
796.009	-0.07
796.183	0.86
796.356	0.51
796.53	0.44
796.703	0.25
796.876	1.14
797.05	0.31
797.223	0.4
797.396	0.44
797.57	0.64
797.743	0.99
797.916	0.34
798.09	0.38
798.263	0.67
798.436	0.81
798.609	0.24
798.782	0.33
798.956	0.69
799.129	0.41
799.302	0.34
799.475	0.28
799.648	0.17
799.821	0.35
799.994	0.42
800.167	-0.11
800.34	0.1
800.514	0.4
800.687	-0.03
800.86	0.12
801.033	0.55
801.206	0.47
801.379	0.05
801.551	1.01
801.724	0.57
801.897	0.81
802.07	0.44
802.243	-0.22
802.416	0.56
802.589	0.38
802.762	0.85
802.935	0.45
803.107	0.8
803.28	1
803.453	0.83
803.626	0.33
803.798	0.54
803.971	0.13
804.144	0.6
804.317	0.48
804.489	1.16
804.662	0.53
804.835	0.65
805.007	0.2
805.18	1.12
805.353	0.69
805.525	-0.02
805.698	0.14
805.87	1.17
806.043	0.81
806.215	0.3
806.388	0.07
806.56	0.62
806.733	1.01
806.905	0.78
807.078	0.09
807.25	0.38
807.423	0.68
807.595	0.5
807.768	0.49
807.94	0.72
808.112	0.32
808.285	0.63
808.457	0.22
808.629	0.8
808.802	0.91
808.974	0.71
809.146	0.02
809.318	-0
809.491	0.73
809.663	0.57
809.835	-0
810.007	0.72
810.18	0.68
810.352	-0.13
810.524	0.14
810.696	1.11
810.868	0.86
811.04	0.17
811.212	0.27
811.384	0.81
811.556	0.46
811.728	0.32
811.901	1.58
812.073	0.53
812.245	0.55
812.417	0.5
812.589	-0.23
812.76	0.85
812.932	1.05
813.104	1.13
813.276	0.29
813.448	1.26
813.62	0.74
813.792	0.34
813.964	0.36
814.136	0.93
814.307	0.05
814.479	0.31
814.651	-0.04
814.823	1.7
814.995	0.64
815.166	0.44
815.338	0.48
815.51	0.05
815.681	1.68
815.853	1.04
816.025	0.37
816.196	1.87
816.368	1.01
816.54	0.08
816.711	0.29
816.883	0.52
817.054	2.11
817.226	-0.02
817.398	1.02
817.569	0.13
817.741	0.71
817.912	0.07
818.084	0.47
818.255	1.21
818.426	0.41
818.598	0.29
818.769	0.3
818.941	1.02
819.112	1.5
819.283	0.55
819.455	-0.16
819.626	0.38
819.798	0.67
819.969	0.52
820.14	0.33
820.311	0.49
820.483	0.82
820.654	1.03
820.825	0.45
820.996	0.53
821.168	-0.34
821.339	0.11
821.51	0.03
821.681	0.21
821.852	0.81
822.023	-0.28
822.195	0.09
822.366	1.25
822.537	0.47
822.708	0.3
822.879	0.72
823.05	1.35
823.221	0.45
823.392	0.88
823.563	0.67
823.734	1.12
823.905	0.59
824.076	-0.04
824.247	0.3
824.418	0.84
824.589	1.5
824.759	0.77
824.93	0.35
825.101	-0.2
825.272	1.51
825.443	1.19
825.614	1.3
825.784	0.02
825.955	2.73
826.126	1.68
826.297	0.84
826.467	1.87
826.638	2.28
826.809	0.03
826.98	0.8
827.15	1.42
827.321	1.04
827.492	0.79
827.662	0.49
827.833	2.33
828.003	1.76
828.174	-0.34
828.345	0.24
828.515	2.37
828.686	0.85
828.856	0.37
829.027	0.72
829.197	1.12
829.368	1.42
829.538	0.23
829.709	0.11
829.879	1.19
830.049	1.21
830.22	0.64
830.39	0.9
830.56	2.12
830.731	0.7
830.901	0.13
831.072	0.46
831.242	1.18
831.412	1.23
831.582	0.83
831.753	-0.27
831.923	1.17
832.093	0.84
832.263	-0.12
832.434	0.48
832.604	0.49
832.774	1.24
832.944	0.75
833.114	0.3
833.284	1.36
833.454	0.37
833.624	0.26
833.795	0.27
833.965	2.19
834.135	1.74
834.305	-0.63
834.475	-0.44
834.645	1.53
834.815	0.72
834.985	0.5
835.155	0.12
835.325	1.2
835.494	0.87
835.664	0.08
835.834	0.14
836.004	0.91
836.174	0.75
836.344	0.39
836.514	-0.39
836.684	0.27
836.853	1.66
837.023	1.01
837.193	0.9
837.363	1.51
837.532	1.1
837.702	0.39
837.872	0.58
838.041	1.36
838.211	3
838.381	-0.36
838.55	1.19
838.72	4.07
838.89	2.73
839.059	0.5
839.229	0.03
839.398	2.81
839.568	1.57
839.738	0.51
839.907	2
840.077	0.86
840.246	0.96
840.416	0.28
840.585	0.04
840.755	1.66
840.924	2.64
841.093	0.04
841.263	0.02
841.432	1.16
841.602	0.55
841.771	-0.06
841.94	0.47
842.11	3.46
842.279	2.61
842.448	0.25
842.617	0.22
842.787	2.67
842.956	0.06
843.125	0.77
843.294	1.25
843.464	2.03
843.633	0.9
843.802	0.37
843.971	1.72
844.14	2.18
844.309	1.73
844.479	-0.68
844.648	-0.18
844.817	1.25
844.986	1.02
845.155	0.4
845.324	0.36
845.493	1.03
845.662	0.84
845.831	1.93
846	1.62
846.169	0.88
846.338	1.77
846.507	0.72
846.676	1.2
846.844	0.59
847.013	0.99
847.182	1.01
847.351	0.29
847.52	1.47
847.689	1.99
847.858	0.03
848.026	-0.39
848.195	1.34
848.364	0.91
848.533	0.2
848.701	-0.31
848.87	0.74
849.039	2.28
849.207	0.88
849.376	2.06
849.545	3.04
849.713	-0.18
849.882	0.81
850.051	-0
850.219	2.04
850.388	2.18
850.556	-0.51
850.725	0.23
850.893	1.72
851.062	1.25
851.23	1.91
851.399	0.79
851.567	0.27
851.736	0.21
851.904	-0.39
852.073	1.66
852.241	1.39
852.41	0.99
852.578	1.43
852.746	0.69
852.915	1.25
853.083	1.57
853.251	-0.35
853.42	0.4
853.588	0.53
853.756	2.28
853.924	0.82
854.093	1.18
854.261	1.09
854.429	-0.74
854.597	1.36
854.765	0.68
854.934	2.2
855.102	2.11
855.27	0.45
855.438	2.19
855.606	2.73
855.774	3.02
855.942	0.01
856.11	0.49
856.278	0.44
856.446	2.83
856.614	1.68
856.782	-0.37
856.95	2.6
857.118	2.29
857.286	1.61
857.454	0.08
857.622	2.79
857.79	1.98
857.958	-0.65
858.126	0.25
858.294	-1.42
858.462	0.84
858.629	1.17
858.797	0.18
858.965	1.8
859.133	1.34
859.301	0.92
859.468	1.91
859.636	0.31
859.804	3.53
859.971	1.27
860.139	0.45
860.307	1.88
860.474	2.16
860.642	0.83
860.81	-0.16
860.977	-1.03
861.145	2.94
861.313	1.29
861.48	1.58
861.648	2.58
861.815	2.22
861.983	-0.45
862.15	0.02
862.318	2.05
862.485	3.61
862.653	0.46
862.82	-0.14
862.988	3.77
863.155	-0.23
863.322	-0.65
863.49	0.4
863.657	0.6
863.824	4.27
863.992	1.82
864.159	0.56
864.326	4.16
864.494	1.47
864.661	4.27
864.828	0.79
864.996	3.57
865.163	4.31
865.33	0.12
865.497	-2.03
865.664	1.09
865.832	-0.9
865.999	0.82
866.166	-1.11
866.333	2.1
866.5	0.6
866.667	0.66
866.834	2
867.001	5.16
867.168	-0.99
867.335	0.54
867.502	0.13
867.669	2.28
867.836	5.5
868.003	0.88
868.17	3.16
868.337	4.39
868.504	4.48
868.671	-1.97
868.838	-0.42
869.005	2.56
869.172	3.1
869.339	-0.29
869.505	1.34
869.672	1.8
869.839	4.45
870.006	1.74
870.173	0.41
870.339	2.63
870.506	5.57
870.673	1.7
870.84	3.06
871.006	2.55
871.173	1.54
871.34	2.23
871.506	-0.52
871.673	3.49
871.839	-0.02
872.006	0.47
872.173	1.54
872.339	1.23
872.506	4.55
872.672	0.43
872.839	-1.49
873.005	2.34
873.172	4.71
873.338	2.01
873.505	1.29
873.671	1.78
873.838	2.77
874.004	-2.05
874.171	-1.1
874.337	2.63
874.503	1.35
874.67	0.86
874.836	2.77
875.002	2.76
875.169	4.67
875.335	1.39
875.501	1.07
875.668	2.37
875.834	0.83
876	-0.89
876.166	1.43
876.332	3.91
876.499	5.34
876.665	-0.29
876.831	2.57
876.997	7.13
877.163	3.71
877.329	1.04
877.495	3.12
877.662	4.56
877.828	2.89
877.994	0.66
878.16	-2.98
878.326	1.51
878.492	3.64
878.658	2.5
878.824	2.5
878.99	1.28
879.156	1.36
879.322	3.28
879.487	0.46
879.653	2.67
879.819	0.91
879.985	-1.14
880.151	3.54
880.317	2.91
880.483	2.63
880.648	3.88
880.814	0.78
880.98	2.81
881.146	-2.43
881.312	-1.6
881.477	1.44
881.643	-1
881.809	1.31
881.974	2.18
882.14	0.05
882.306	2.86
882.471	5.97
882.637	-0.08
882.803	1.68
882.968	5.85
883.134	7.44
883.299	1.19
883.465	1.88
883.63	4.88
883.796	3.37
883.961	2.35
884.127	2.82
884.292	-3.01
884.458	0.14
884.623	0.14
