Data from Apollo_Calib_20240827__AbsoluteIrradiance__821__12-50-02-890.txt Node

Date: Wed Aug 28 12:50:02 BST 2024
User: biology
Spectrometer: FLMT08252
Trigger mode: 0
Integration Time (sec): 5.000000E-1
Scans to average: 5
Electric dark correction enabled: true
Nonlinearity correction enabled: false
Boxcar width: 0
XAxis mode: Wavelengths
Number of Pixels in Spectrum: 3648
>>>>>Begin Spectral Data<<<<<
179.588	-0
179.809	-0
180.03	-0
180.251	-0
180.473	-0
180.694	0
180.915	0
181.136	-0
181.357	0
181.578	-0
181.799	0
182.02	-0
182.241	-0
182.462	-0
182.683	0
182.904	-0
183.125	-0
183.346	0
183.567	0
183.788	0
184.009	0
184.23	0
184.451	0
184.672	0
184.892	0
185.113	0
185.334	0
185.555	0
185.776	0
185.996	0
186.217	0
186.438	0
186.659	0
186.879	0
187.1	0
187.321	0
187.541	0
187.762	0
187.983	0
188.203	0
188.424	0
188.644	0
188.865	0
189.086	0
189.306	0
189.527	0
189.747	0
189.968	0
190.188	0
190.409	0
190.629	0
190.849	0
191.07	0
191.29	0
191.511	0
191.731	0
191.951	0
192.172	0
192.392	0
192.612	0
192.833	0
193.053	0
193.273	0
193.493	0
193.714	0
193.934	0
194.154	0
194.374	0
194.594	0
194.815	0
195.035	0
195.255	0
195.475	0
195.695	0
195.915	0
196.135	0
196.355	0
196.575	0
196.795	0
197.015	0
197.235	0
197.455	0
197.675	0
197.895	0
198.115	0
198.335	0
198.555	0
198.775	0
198.995	0
199.214	0
199.434	0
199.654	0
199.874	0
200.094	3.87
200.313	2.51
200.533	1.57
200.753	0.89
200.973	3.69
201.192	3.42
201.412	1.6
201.632	1.77
201.851	3.37
202.071	1.54
202.291	1.85
202.51	1.13
202.73	2.87
202.95	1.83
203.169	1.13
203.389	1.67
203.608	2.46
203.828	1.52
204.047	1.36
204.267	2.38
204.486	2.56
204.706	2.1
204.925	1.8
205.145	1.83
205.364	2.33
205.583	2.54
205.803	1.08
206.022	1.03
206.242	2.07
206.461	1.69
206.68	1.31
206.9	1.78
207.119	2.51
207.338	2.48
207.557	1.25
207.777	1.2
207.996	1.26
208.215	1.98
208.434	1.03
208.654	0.73
208.873	1.61
209.092	2.26
209.311	1.22
209.53	1.06
209.749	1.14
209.968	1.14
210.187	0.79
210.407	0.84
210.626	1.06
210.845	1.61
211.064	1.28
211.283	0.56
211.502	1.69
211.721	1.29
211.94	1.02
212.159	1.22
212.377	1.37
212.596	1.44
212.815	1.17
213.034	1.05
213.253	1.41
213.472	1.3
213.691	1.04
213.91	0.53
214.128	0.82
214.347	1.24
214.566	0.75
214.785	0.74
215.003	1.09
215.222	1.14
215.441	0.98
215.66	0.45
215.878	1.05
216.097	1.09
216.316	0.53
216.534	0.79
216.753	1.24
216.972	0.91
217.19	0.73
217.409	0.75
217.627	0.64
217.846	0.96
218.064	0.92
218.283	0.47
218.501	1.3
218.72	1.11
218.938	0.63
219.157	0.64
219.375	0.96
219.594	0.9
219.812	0.5
220.031	0.46
220.249	1.27
220.467	1.14
220.686	0.54
220.904	0.32
221.122	0.83
221.341	1.17
221.559	0.61
221.777	0.46
221.995	0.76
222.214	0.98
222.432	0.53
222.65	0.81
222.868	0.73
223.086	0.91
223.305	0.93
223.523	0.67
223.741	1.06
223.959	0.66
224.177	0.36
224.395	0.55
224.613	0.83
224.831	1.01
225.049	0.38
225.267	0.56
225.485	0.76
225.703	0.65
225.921	0.56
226.139	0.51
226.357	0.83
226.575	0.65
226.793	0.5
227.011	1.64
227.229	0.77
227.447	1
227.665	0.39
227.883	0.27
228.1	0.6
228.318	0.72
228.536	0.42
228.754	0.45
228.972	0.67
229.189	0.76
229.407	0.38
229.625	0.55
229.843	0.86
230.06	0.85
230.278	0.48
230.496	0.43
230.713	0.6
230.931	0.75
231.149	0.37
231.366	0.16
231.584	0.67
231.801	1.1
232.019	0.5
232.236	0.3
232.454	0.38
232.671	0.64
232.889	0.41
233.106	0.44
233.324	0.62
233.541	0.53
233.759	0.57
233.976	0.35
234.194	0.63
234.411	0.59
234.628	0.27
234.846	0.4
235.063	0.47
235.28	0.54
235.498	0.4
235.715	0.31
235.932	0.8
236.149	0.57
236.367	0.4
236.584	0.55
236.801	0.47
237.018	0.63
237.236	0.6
237.453	0.3
237.67	0.68
237.887	0.62
238.104	0.39
238.321	0.31
238.538	0.34
238.755	0.69
238.973	0.31
239.19	0.48
239.407	0.64
239.624	0.56
239.841	0.24
240.058	0.29
240.275	0.53
240.492	0.55
240.709	0.5
240.925	0.41
241.142	0.54
241.359	0.38
241.576	0.32
241.793	0.31
242.01	0.38
242.227	0.74
242.444	0.5
242.66	0.66
242.877	0.42
243.094	0.35
243.311	0.41
243.527	0.45
243.744	0.49
243.961	0.53
244.178	0.32
244.394	0.31
244.611	0.55
244.828	0.72
245.044	0.26
245.261	0.36
245.477	0.51
245.694	0.53
245.911	0.37
246.127	0.43
246.344	0.6
246.56	0.48
246.777	0.33
246.993	0.41
247.21	0.5
247.426	0.62
247.643	0.29
247.859	0.39
248.076	0.34
248.292	0.61
248.508	0.37
248.725	0.5
248.941	0.36
249.157	0.58
249.374	0.26
249.59	0.31
249.806	0.44
250.023	0.47
250.239	0.38
250.455	0.32
250.671	0.33
250.888	0.49
251.104	0.42
251.32	0.33
251.536	0.36
251.752	0.41
251.969	0.45
252.185	0.43
252.401	0.64
252.617	0.49
252.833	0.34
253.049	0.39
253.265	0.38
253.481	0.4
253.697	0.32
253.913	0.27
254.129	0.43
254.345	0.42
254.561	0.36
254.777	0.33
254.993	0.46
255.209	0.42
255.425	0.34
255.641	0.25
255.857	0.51
256.073	0.38
256.288	0.25
256.504	0.31
256.72	0.48
256.936	0.59
257.152	0.34
257.367	0.26
257.583	0.38
257.799	0.42
258.015	0.25
258.23	0.28
258.446	0.66
258.662	0.36
258.877	0.31
259.093	0.27
259.309	0.39
259.524	0.4
259.74	0.25
259.955	0.19
260.171	0.4
260.387	0.33
260.602	0.4
260.818	0.38
261.033	0.3
261.249	0.43
261.464	0.25
261.68	0.24
261.895	0.38
262.11	0.52
262.326	0.36
262.541	0.19
262.757	0.45
262.972	0.37
263.187	0.42
263.403	0.44
263.618	0.51
263.833	0.41
264.049	0.3
264.264	0.28
264.479	0.35
264.694	0.5
264.91	0.26
265.125	0.34
265.34	0.4
265.555	0.56
265.77	0.33
265.986	0.24
266.201	0.35
266.416	0.48
266.631	0.33
266.846	0.26
267.061	0.43
267.276	0.46
267.491	0.23
267.706	0.43
267.921	0.36
268.136	0.41
268.351	0.25
268.566	0.19
268.781	0.47
268.996	0.43
269.211	0.33
269.426	0.25
269.641	0.31
269.856	0.44
270.071	0.28
270.285	0.26
270.5	0.43
270.715	0.41
270.93	0.29
271.145	0.39
271.359	0.45
271.574	0.31
271.789	0.28
272.004	0.26
272.218	0.29
272.433	0.33
272.648	0.26
272.862	0.37
273.077	0.3
273.292	0.38
273.506	0.23
273.721	0.31
273.936	0.4
274.15	0.44
274.365	0.27
274.579	0.34
274.794	0.38
275.008	0.43
275.223	0.17
275.437	0.32
275.652	0.41
275.866	0.4
276.081	0.35
276.295	0.34
276.509	0.3
276.724	0.39
276.938	0.32
277.153	0.34
277.367	0.42
277.581	0.24
277.796	0.25
278.01	0.2
278.224	0.34
278.438	0.47
278.653	0.26
278.867	0.28
279.081	0.21
279.295	0.26
279.51	0.29
279.724	0.17
279.938	0.35
280.152	0.38
280.366	0.26
280.58	0.27
280.794	0.44
281.008	0.35
281.222	0.34
281.437	0.4
281.651	0.31
281.865	0.42
282.079	0.25
282.293	0.17
282.507	0.27
282.721	0.33
282.935	0.27
283.148	0.18
283.362	0.26
283.576	0.25
283.79	0.28
284.004	0.25
284.218	0.45
284.432	0.29
284.646	0.26
284.859	0.26
285.073	0.28
285.287	0.35
285.501	0.26
285.714	0.25
285.928	0.29
286.142	0.32
286.356	0.21
286.569	0.21
286.783	0.36
286.997	0.34
287.21	0.24
287.424	0.27
287.637	0.32
287.851	0.25
288.065	0.37
288.278	0.22
288.492	0.32
288.705	0.27
288.919	0.39
289.132	0.21
289.346	0.31
289.559	0.21
289.773	0.24
289.986	0.25
290.2	0.29
290.413	0.35
290.626	0.25
290.84	0.22
291.053	0.33
291.267	0.35
291.48	0.29
291.693	0.24
291.906	0.28
292.12	0.3
292.333	0.25
292.546	0.2
292.76	0.3
292.973	0.32
293.186	0.3
293.399	0.22
293.612	0.34
293.826	0.27
294.039	0.28
294.252	0.23
294.465	0.34
294.678	0.32
294.891	0.28
295.104	0.19
295.317	0.27
295.53	0.26
295.743	0.26
295.956	0.21
296.169	0.38
296.382	0.31
296.595	0.2
296.808	0.2
297.021	0.35
297.234	0.28
297.447	0.26
297.66	0.27
297.873	0.31
298.086	0.34
298.299	0.2
298.511	0.17
298.724	0.32
298.937	0.24
299.15	0.21
299.363	0.26
299.575	0.3
299.788	0.29
300.001	0.23
300.213	0.16
300.426	0.25
300.639	0.2
300.852	0.2
301.064	0.29
301.277	0.34
301.489	0.31
301.702	0.26
301.915	0.23
302.127	0.24
302.34	0.28
302.552	0.28
302.765	0.2
302.977	0.32
303.19	0.23
303.402	0.23
303.615	0.22
303.827	0.25
304.04	0.23
304.252	0.31
304.464	0.23
304.677	0.36
304.889	0.27
305.102	0.2
305.314	0.2
305.526	0.27
305.739	0.34
305.951	0.18
306.163	0.23
306.375	0.36
306.588	0.23
306.8	0.24
307.012	0.17
307.224	0.26
307.436	0.3
307.649	0.17
307.861	0.29
308.073	0.28
308.285	0.23
308.497	0.16
308.709	0.26
308.921	0.22
309.133	0.33
309.346	0.26
309.558	0.28
309.77	0.27
309.982	0.37
310.194	0.28
310.406	0.2
310.617	0.35
310.829	0.27
311.041	0.33
311.253	0.18
311.465	0.24
311.677	0.28
311.889	0.18
312.101	0.18
312.313	0.31
312.524	0.35
312.736	0.2
312.948	0.21
313.16	0.37
313.372	0.29
313.583	0.24
313.795	0.22
314.007	0.25
314.218	0.33
314.43	0.25
314.642	0.21
314.853	0.15
315.065	0.28
315.277	0.25
315.488	0.25
315.7	0.32
315.912	0.28
316.123	0.27
316.335	0.23
316.546	0.35
316.758	0.28
316.969	0.26
317.181	0.23
317.392	0.25
317.604	0.31
317.815	0.23
318.026	0.26
318.238	0.29
318.449	0.28
318.661	0.19
318.872	0.16
319.083	0.2
319.295	0.29
319.506	0.25
319.717	0.26
319.929	0.3
320.14	0.3
320.351	0.26
320.562	0.17
320.774	0.25
320.985	0.26
321.196	0.21
321.407	0.18
321.618	0.27
321.829	0.3
322.041	0.25
322.252	0.28
322.463	0.33
322.674	0.3
322.885	0.22
323.096	0.25
323.307	0.21
323.518	0.27
323.729	0.21
323.94	0.18
324.151	0.25
324.362	0.28
324.573	0.28
324.784	0.23
324.995	0.31
325.206	0.28
325.417	0.19
325.628	0.21
325.838	0.26
326.049	0.27
326.26	0.3
326.471	0.24
326.682	0.26
326.892	0.24
327.103	0.16
327.314	0.18
327.525	0.34
327.735	0.25
327.946	0.23
328.157	0.21
328.368	0.31
328.578	0.26
328.789	0.31
328.999	0.26
329.21	0.23
329.421	0.32
329.631	0.21
329.842	0.19
330.052	0.27
330.263	0.3
330.473	0.31
330.684	0.2
330.894	0.24
331.105	0.23
331.315	0.27
331.526	0.13
331.736	0.34
331.947	0.31
332.157	0.31
332.367	0.17
332.578	0.3
332.788	0.37
332.999	0.29
333.209	0.24
333.419	0.21
333.629	0.26
333.84	0.28
334.05	0.23
334.26	0.33
334.47	0.27
334.681	0.25
334.891	0.23
335.101	0.29
335.311	0.34
335.521	0.23
335.732	0.19
335.942	0.34
336.152	0.29
336.362	0.22
336.572	0.25
336.782	0.3
336.992	0.22
337.202	0.18
337.412	0.24
337.622	0.28
337.832	0.3
338.042	0.25
338.252	0.2
338.462	0.26
338.672	0.27
338.882	0.26
339.092	0.24
339.302	0.33
339.511	0.31
339.721	0.25
339.931	0.19
340.141	0.31
340.351	0.31
340.561	0.24
340.77	0.28
340.98	0.25
341.19	0.28
341.4	0.18
341.609	0.19
341.819	0.21
342.029	0.19
342.238	0.24
342.448	0.22
342.658	0.34
342.867	0.24
343.077	0.24
343.286	0.25
343.496	0.28
343.706	0.33
343.915	0.22
344.125	0.28
344.334	0.29
344.544	0.15
344.753	0.24
344.963	0.24
345.172	0.2
345.381	0.2
345.591	0.17
345.8	0.22
346.01	0.32
346.219	0.35
346.428	0.23
346.638	0.25
346.847	0.23
347.056	0.34
347.266	0.23
347.475	0.23
347.684	0.32
347.893	0.26
348.103	0.32
348.312	0.21
348.521	0.22
348.73	0.26
348.94	0.25
349.149	0.18
349.358	0.21
349.567	0.19
349.776	0.14
349.985	0.22
350.194	0.33
350.403	0.29
350.612	0.21
350.821	0.2
351.03	0.24
351.239	0.18
351.448	0.19
351.657	0.22
351.866	0.32
352.075	0.27
352.284	0.23
352.493	0.19
352.702	0.33
352.911	0.24
353.12	0.22
353.329	0.24
353.538	0.26
353.746	0.25
353.955	0.18
354.164	0.24
354.373	0.21
354.582	0.31
354.79	0.25
354.999	0.25
355.208	0.24
355.416	0.32
355.625	0.16
355.834	0.2
356.042	0.25
356.251	0.21
356.46	0.19
356.668	0.26
356.877	0.37
357.085	0.31
357.294	0.12
357.503	0.25
357.711	0.24
357.92	0.42
358.128	0.23
358.337	0.2
358.545	0.24
358.754	0.24
358.962	0.3
359.17	0.23
359.379	0.25
359.587	0.25
359.796	0.21
360.004	0.33
360.212	0.29
360.421	0.3
360.629	0.25
360.837	0.25
361.046	0.26
361.254	0.36
361.462	0.21
361.67	0.19
361.879	0.27
362.087	0.34
362.295	0.21
362.503	0.23
362.711	0.2
362.92	0.24
363.128	0.22
363.336	0.18
363.544	0.18
363.752	0.24
363.96	0.23
364.168	0.26
364.376	0.22
364.584	0.26
364.792	0.33
365	0.3
365.208	0.26
365.416	0.28
365.624	0.31
365.832	0.2
366.04	0.32
366.248	0.27
366.456	0.23
366.664	0.26
366.872	0.26
367.079	0.28
367.287	0.23
367.495	0.25
367.703	0.23
367.911	0.21
368.118	0.21
368.326	0.25
368.534	0.2
368.742	0.3
368.949	0.18
369.157	0.22
369.365	0.25
369.572	0.24
369.78	0.21
369.988	0.25
370.195	0.27
370.403	0.27
370.61	0.22
370.818	0.26
371.026	0.32
371.233	0.22
371.441	0.25
371.648	0.25
371.856	0.28
372.063	0.28
372.271	0.2
372.478	0.2
372.685	0.21
372.893	0.31
373.1	0.24
373.308	0.21
373.515	0.34
373.722	0.3
373.93	0.26
374.137	0.29
374.344	0.35
374.552	0.31
374.759	0.3
374.966	0.22
375.173	0.25
375.381	0.3
375.588	0.24
375.795	0.16
376.002	0.18
376.209	0.23
376.417	0.24
376.624	0.25
376.831	0.31
377.038	0.25
377.245	0.17
377.452	0.23
377.659	0.23
377.866	0.24
378.073	0.24
378.28	0.25
378.487	0.34
378.694	0.3
378.901	0.25
379.108	0.25
379.315	0.3
379.522	0.4
379.729	0.27
379.936	0.26
380.143	0.26
380.35	0.3
380.557	0.25
380.763	0.23
380.97	0.27
381.177	0.3
381.384	0.28
381.591	0.21
381.797	0.3
382.004	0.34
382.211	0.3
382.418	0.22
382.624	0.28
382.831	0.3
383.038	0.23
383.244	0.27
383.451	0.24
383.658	0.28
383.864	0.27
384.071	0.2
384.277	0.32
384.484	0.21
384.69	0.35
384.897	0.21
385.103	0.25
385.31	0.21
385.516	0.27
385.723	0.23
385.929	0.27
386.136	0.24
386.342	0.31
386.549	0.24
386.755	0.36
386.961	0.32
387.168	0.27
387.374	0.29
387.58	0.35
387.787	0.28
387.993	0.31
388.199	0.27
388.406	0.25
388.612	0.25
388.818	0.22
389.024	0.22
389.231	0.29
389.437	0.38
389.643	0.32
389.849	0.27
390.055	0.32
390.261	0.26
390.467	0.34
390.674	0.25
390.88	0.28
391.086	0.34
391.292	0.24
391.498	0.32
391.704	0.34
391.91	0.28
392.116	0.23
392.322	0.18
392.528	0.36
392.734	0.33
392.94	0.27
393.146	0.31
393.352	0.31
393.557	0.27
393.763	0.26
393.969	0.31
394.175	0.27
394.381	0.31
394.587	0.26
394.792	0.27
394.998	0.33
395.204	0.37
395.41	0.29
395.615	0.34
395.821	0.35
396.027	0.32
396.233	0.26
396.438	0.34
396.644	0.34
396.85	0.33
397.055	0.36
397.261	0.37
397.466	0.3
397.672	0.38
397.878	0.36
398.083	0.32
398.289	0.31
398.494	0.41
398.7	0.37
398.905	0.21
399.111	0.43
399.316	0.3
399.522	0.31
399.727	0.35
399.932	0.34
400.138	0.31
400.343	0.35
400.549	0.31
400.754	0.39
400.959	0.37
401.165	0.31
401.37	0.38
401.575	0.48
401.78	0.33
401.986	0.31
402.191	0.36
402.396	0.36
402.601	0.4
402.807	0.41
403.012	0.38
403.217	0.45
403.422	0.4
403.627	0.4
403.832	0.34
404.037	0.44
404.243	0.41
404.448	0.36
404.653	0.44
404.858	0.41
405.063	0.44
405.268	0.41
405.473	0.38
405.678	0.42
405.883	0.66
406.088	0.48
406.293	0.38
406.498	0.45
406.703	0.48
406.907	0.44
407.112	0.43
407.317	0.52
407.522	0.57
407.727	0.43
407.932	0.47
408.136	0.68
408.341	0.53
408.546	0.6
408.751	0.53
408.956	0.53
409.16	0.68
409.365	0.6
409.57	0.59
409.774	0.6
409.979	0.66
410.184	0.65
410.388	0.62
410.593	0.76
410.798	0.74
411.002	0.71
411.207	0.76
411.411	0.75
411.616	0.77
411.82	0.77
412.025	0.83
412.229	0.85
412.434	0.94
412.638	0.87
412.843	0.87
413.047	0.89
413.252	0.83
413.456	0.96
413.66	1.01
413.865	0.91
414.069	1.08
414.273	1.03
414.478	1
414.682	1.09
414.886	1.13
415.091	1.14
415.295	1.12
415.499	1.39
415.703	1.3
415.908	1.33
416.112	1.27
416.316	1.52
416.52	1.5
416.724	1.45
416.929	1.51
417.133	1.76
417.337	1.59
417.541	1.76
417.745	1.76
417.949	1.85
418.153	1.9
418.357	1.87
418.561	2.06
418.765	2.09
418.969	2.19
419.173	2.3
419.377	2.19
419.581	2.53
419.785	2.41
419.989	2.41
420.193	2.63
420.397	2.66
420.601	2.89
420.804	2.91
421.008	2.91
421.212	3.06
421.416	3.04
421.62	3.02
421.823	3.12
422.027	3.32
422.231	3.28
422.435	3.22
422.638	3.32
422.842	3.44
423.046	3.47
423.249	3.64
423.453	3.72
423.657	3.9
423.86	3.91
424.064	3.96
424.268	4.29
424.471	4.2
424.675	4.39
424.878	4.43
425.082	4.6
425.285	4.79
425.489	4.76
425.692	4.92
425.896	4.89
426.099	5.22
426.303	5.24
426.506	5.31
426.71	5.59
426.913	5.79
427.116	5.96
427.32	5.9
427.523	6.11
427.726	6.31
427.93	6.4
428.133	6.73
428.336	6.73
428.54	7.01
428.743	7.17
428.946	7.36
429.149	7.47
429.353	7.42
429.556	7.59
429.759	7.51
429.962	7.8
430.165	7.91
430.368	7.61
430.571	7.68
430.775	7.74
430.978	7.74
431.181	7.79
431.384	7.8
431.587	7.96
431.79	8.27
431.993	8.3
432.196	8.54
432.399	8.84
432.602	9.07
432.805	9.12
433.008	9.59
433.211	9.52
433.414	9.86
433.616	9.92
433.819	9.8
434.022	10.09
434.225	10.19
434.428	10.23
434.631	10.65
434.833	10.48
435.036	10.75
435.239	10.88
435.442	10.9
435.645	11.15
435.847	11.1
436.05	11.55
436.253	11.71
436.455	11.75
436.658	11.62
436.861	11.99
437.063	12.07
437.266	12
437.468	12.44
437.671	12.67
437.874	12.72
438.076	12.44
438.279	12.9
438.481	13.02
438.684	13.67
438.886	13.31
439.089	13.5
439.291	13.7
439.494	14
439.696	14.28
439.899	14.69
440.101	15.1
440.303	15.32
440.506	15.98
440.708	15.79
440.91	15.88
441.113	16.1
441.315	16.45
441.517	16.28
441.72	16.71
441.922	16.26
442.124	16.3
442.326	16.72
442.529	16.93
442.731	16.87
442.933	17.27
443.135	16.93
443.337	16.98
443.539	17.45
443.742	17.08
443.944	17.8
444.146	17.67
444.348	17.43
444.55	17.43
444.752	17.7
444.954	17.64
445.156	17.5
445.358	17.86
445.56	18.28
445.762	18.1
445.964	18.35
446.166	18.18
446.368	18.24
446.57	18.1
446.772	17.75
446.974	17.59
447.175	17.92
447.377	17.67
447.579	18.06
447.781	17.98
447.983	17.66
448.184	17.18
448.386	17.43
448.588	17.12
448.79	17.13
448.991	17.36
449.193	17.51
449.395	16.81
449.597	16.42
449.798	16.35
450	15.85
450.202	15.77
450.403	15.85
450.605	15.79
450.806	15.54
451.008	15.26
451.21	15.2
451.411	14.71
451.613	13.97
451.814	14.35
452.016	14.19
452.217	13.45
452.419	13.45
452.62	13.13
452.821	13.03
453.023	12.98
453.224	12.55
453.426	12.1
453.627	11.36
453.828	11.49
454.03	11.55
454.231	11.62
454.432	11.42
454.634	11.15
454.835	10.79
455.036	10.78
455.238	10.32
455.439	10.16
455.64	9.73
455.841	9.8
456.042	9.79
456.244	9.54
456.445	9.24
456.646	8.83
456.847	8.87
457.048	8.79
457.249	8.77
457.45	8.59
457.651	7.97
457.852	7.95
458.054	7.56
458.255	7.45
458.456	7.57
458.657	7.41
458.858	6.99
459.058	6.87
459.259	6.93
459.46	6.7
459.661	6.53
459.862	6.64
460.063	6.45
460.264	6.47
460.465	6.15
460.666	6.19
460.866	6
461.067	5.73
461.268	5.75
461.469	5.64
461.67	5.49
461.87	5.41
462.071	5.35
462.272	5.22
462.473	5.23
462.673	5.42
462.874	5.27
463.075	5.28
463.275	5.31
463.476	5.35
463.676	5.22
463.877	5.05
464.078	5.12
464.278	5.13
464.479	4.96
464.679	4.95
464.88	4.86
465.08	4.88
465.281	4.6
465.481	4.47
465.682	4.32
465.882	4.32
466.083	4.26
466.283	4.13
466.483	4.04
466.684	3.84
466.884	3.72
467.085	3.78
467.285	3.86
467.485	3.69
467.686	3.69
467.886	3.5
468.086	3.48
468.286	3.44
468.487	3.57
468.687	3.4
468.887	3.3
469.087	3.51
469.287	3.37
469.488	3.18
469.688	3.33
469.888	3.32
470.088	3.23
470.288	3.2
470.488	3.16
470.688	2.98
470.888	2.95
471.088	2.8
471.288	2.9
471.488	2.87
471.688	2.85
471.888	2.74
472.088	2.96
472.288	2.86
472.488	2.66
472.688	2.64
472.888	2.71
473.088	2.75
473.288	2.61
473.488	2.54
473.688	2.7
473.887	2.57
474.087	2.49
474.287	2.54
474.487	2.47
474.687	2.5
474.886	2.45
475.086	2.41
475.286	2.36
475.486	2.38
475.685	2.34
475.885	2.3
476.085	2.32
476.284	2.34
476.484	2.38
476.684	2.3
476.883	2.39
477.083	2.27
477.282	2.17
477.482	2.24
477.681	2.19
477.881	2.14
478.08	2.17
478.28	2.12
478.479	2.18
478.679	2.19
478.878	2.09
479.078	2.07
479.277	2.16
479.477	2.1
479.676	2.08
479.875	2.08
480.075	2.02
480.274	2.09
480.473	2.15
480.673	2.06
480.872	2.13
481.071	2.07
481.271	2.07
481.47	2.04
481.669	2.04
481.868	2.03
482.067	2
482.267	1.95
482.466	2
482.665	2.01
482.864	2.01
483.063	2.01
483.262	2.02
483.461	2.11
483.661	2.1
483.86	2.05
484.059	2.12
484.258	2.07
484.457	2.03
484.656	2.04
484.855	2.15
485.054	1.93
485.253	2.03
485.452	2.01
485.651	2.09
485.849	2.06
486.048	2.06
486.247	2.07
486.446	2.13
486.645	2.08
486.844	2.11
487.043	2.08
487.241	2.12
487.44	2.12
487.639	2.18
487.838	2.15
488.037	2.15
488.235	2.24
488.434	2.16
488.633	2.08
488.831	2.25
489.03	2.25
489.229	2.24
489.427	2.25
489.626	2.32
489.825	2.28
490.023	2.34
490.222	2.3
490.42	2.34
490.619	2.35
490.817	2.35
491.016	2.36
491.214	2.43
491.413	2.46
491.611	2.35
491.81	2.38
492.008	2.47
492.207	2.55
492.405	2.56
492.604	2.44
492.802	2.57
493	2.62
493.199	2.64
493.397	2.67
493.595	2.73
493.794	2.66
493.992	2.79
494.19	2.74
494.388	2.84
494.587	2.72
494.785	2.79
494.983	2.72
495.181	2.87
495.379	2.88
495.578	2.92
495.776	2.94
495.974	2.91
496.172	2.98
496.37	3.07
496.568	3.08
496.766	3.08
496.964	3.17
497.162	3.16
497.36	3.2
497.558	3.26
497.756	3.32
497.954	3.27
498.152	3.3
498.35	3.42
498.548	3.37
498.746	3.39
498.944	3.37
499.142	3.44
499.34	3.49
499.538	3.57
499.736	3.44
499.933	3.62
500.131	3.6
500.329	3.73
500.527	3.77
500.725	3.87
500.922	3.86
501.12	3.83
501.318	3.91
501.516	3.89
501.713	3.97
501.911	3.95
502.109	3.93
502.306	4.1
502.504	3.95
502.701	4.07
502.899	4.12
503.097	4.33
503.294	4.18
503.492	4.31
503.689	4.32
503.887	4.32
504.084	4.41
504.282	4.36
504.479	4.4
504.677	4.52
504.874	4.5
505.072	4.4
505.269	4.63
505.466	4.66
505.664	4.71
505.861	4.6
506.059	4.7
506.256	4.81
506.453	4.81
506.651	4.92
506.848	4.97
507.045	4.91
507.242	4.91
507.44	4.97
507.637	5.05
507.834	5.01
508.031	5.16
508.229	5.09
508.426	5.09
508.623	5.19
508.82	5.26
509.017	5.2
509.214	5.19
509.411	5.34
509.608	5.3
509.805	5.4
510.003	5.43
510.2	5.44
510.397	5.62
510.594	5.48
510.791	5.63
510.988	5.59
511.184	5.58
511.381	5.48
511.578	5.54
511.775	5.76
511.972	5.67
512.169	5.76
512.366	5.74
512.563	5.87
512.76	5.91
512.956	5.95
513.153	5.86
513.35	5.82
513.547	5.87
513.744	6
513.94	6.01
514.137	6.06
514.334	6.05
514.53	6.13
514.727	6.27
514.924	6.19
515.12	6.2
515.317	6.23
515.514	6.13
515.71	6.11
515.907	6.35
516.103	6.37
516.3	6.27
516.497	6.38
516.693	6.39
516.89	6.45
517.086	6.36
517.283	6.51
517.479	6.31
517.676	6.58
517.872	6.65
518.068	6.58
518.265	6.59
518.461	6.48
518.658	6.62
518.854	6.63
519.05	6.69
519.247	6.73
519.443	6.65
519.639	6.8
519.836	6.7
520.032	6.68
520.228	6.82
520.424	6.8
520.621	6.82
520.817	6.93
521.013	6.8
521.209	7
521.405	6.98
521.601	6.98
521.798	6.87
521.994	6.98
522.19	6.87
522.386	6.94
522.582	7.04
522.778	7.18
522.974	7
523.17	7.09
523.366	6.99
523.562	7.08
523.758	7.16
523.954	6.96
524.15	7.18
524.346	7.21
524.542	7.24
524.738	7.14
524.934	7.28
525.129	7.23
525.325	7.19
525.521	7.18
525.717	7.44
525.913	7.26
526.109	7.29
526.304	7.41
526.5	7.34
526.696	7.36
526.892	7.34
527.087	7.51
527.283	7.44
527.479	7.46
527.674	7.29
527.87	7.4
528.066	7.38
528.261	7.46
528.457	7.37
528.653	7.62
528.848	7.51
529.044	7.63
529.239	7.44
529.435	7.5
529.63	7.39
529.826	7.5
530.021	7.51
530.217	7.54
530.412	7.47
530.608	7.57
530.803	7.59
530.999	7.43
531.194	7.57
531.389	7.64
531.585	7.62
531.78	7.73
531.975	7.62
532.171	7.71
532.366	7.65
532.561	7.68
532.757	7.67
532.952	7.87
533.147	7.59
533.342	7.75
533.538	7.61
533.733	7.85
533.928	7.56
534.123	7.73
534.318	7.78
534.513	7.66
534.709	7.88
534.904	7.79
535.099	7.81
535.294	7.86
535.489	7.89
535.684	7.77
535.879	7.81
536.074	7.88
536.269	7.88
536.464	7.87
536.659	7.79
536.854	7.81
537.049	7.92
537.244	7.84
537.439	7.82
537.634	7.88
537.828	7.84
538.023	7.88
538.218	7.85
538.413	7.77
538.608	7.94
538.803	7.91
538.997	7.85
539.192	7.87
539.387	7.83
539.582	7.93
539.776	7.79
539.971	7.96
540.166	7.9
540.36	7.87
540.555	8.01
540.75	7.92
540.944	8.03
541.139	7.93
541.334	7.9
541.528	7.94
541.723	8
541.917	7.96
542.112	7.81
542.306	7.81
542.501	7.83
542.695	7.87
542.89	7.87
543.084	7.92
543.279	7.95
543.473	8.02
543.668	7.98
543.862	7.82
544.056	7.85
544.251	8.03
544.445	8.1
544.64	8.07
544.834	7.82
545.028	7.6
545.222	7.99
545.417	8.18
545.611	8.07
545.805	8.01
546	7.76
546.194	7.95
546.388	8.03
546.582	7.92
546.776	7.96
546.97	8.04
547.165	7.97
547.359	7.96
547.553	7.92
547.747	7.96
547.941	8.17
548.135	8
548.329	8.04
548.523	8.02
548.717	7.97
548.911	8
549.105	7.96
549.299	8.05
549.493	8.09
549.687	7.88
549.881	8.09
550.075	8.08
550.269	7.86
550.463	8.03
550.657	8.09
550.85	8.02
551.044	7.97
551.238	8.04
551.432	8.03
551.626	8.14
551.82	8.12
552.013	7.94
552.207	8.13
552.401	8.11
552.594	8.08
552.788	7.92
552.982	8.03
553.176	7.91
553.369	8.15
553.563	8.08
553.756	8.01
553.95	8.12
554.144	8.12
554.337	8.09
554.531	7.93
554.724	8.15
554.918	8.17
555.111	8.02
555.305	7.99
555.498	8.07
555.692	8.18
555.885	8.08
556.079	7.99
556.272	8.08
556.466	8.09
556.659	8.02
556.852	8.04
557.046	8.03
557.239	7.9
557.432	7.96
557.626	8.11
557.819	8.13
558.012	8.1
558.206	8.14
558.399	8.01
558.592	8.02
558.785	7.96
558.979	8.06
559.172	7.98
559.365	8.08
559.558	7.97
559.751	7.98
559.944	8.17
560.138	8.05
560.331	8
560.524	8.12
560.717	8.04
560.91	8.07
561.103	8.08
561.296	7.88
561.489	8.09
561.682	8.1
561.875	8.02
562.068	8.24
562.261	7.93
562.454	8.14
562.647	8.07
562.84	8.08
563.032	8.11
563.225	8
563.418	8
563.611	8.11
563.804	8.16
563.997	7.93
564.19	7.81
564.382	8.14
564.575	8
564.768	8.05
564.961	8.12
565.153	7.92
565.346	7.96
565.539	8.07
565.731	8.02
565.924	8.06
566.117	8.18
566.309	8.12
566.502	8.03
566.695	7.91
566.887	8.1
567.08	8.01
567.272	8.11
567.465	7.94
567.657	8.11
567.85	7.92
568.042	8.05
568.235	8.09
568.427	7.84
568.62	7.98
568.812	7.97
569.005	8.03
569.197	7.89
569.389	8.03
569.582	8
569.774	8.05
569.966	7.98
570.159	7.85
570.351	7.92
570.543	7.96
570.736	7.97
570.928	7.78
571.12	8.01
571.312	7.89
571.505	7.72
571.697	8.01
571.889	7.99
572.081	7.92
572.273	7.9
572.465	7.94
572.658	7.91
572.85	7.95
573.042	7.95
573.234	7.84
573.426	7.9
573.618	7.85
573.81	7.87
574.002	7.94
574.194	7.95
574.386	7.88
574.578	7.75
574.77	7.79
574.962	7.91
575.154	7.71
575.346	7.73
575.538	7.81
575.729	7.73
575.921	7.86
576.113	7.92
576.305	7.88
576.497	7.92
576.689	7.72
576.88	7.66
577.072	7.87
577.264	7.84
577.456	7.87
577.647	7.77
577.839	7.94
578.031	7.74
578.223	7.7
578.414	7.65
578.606	7.8
578.798	7.78
578.989	7.79
579.181	7.83
579.372	7.75
579.564	7.78
579.755	7.61
579.947	7.62
580.139	7.77
580.33	7.58
580.522	7.74
580.713	7.67
580.905	7.65
581.096	7.76
581.287	7.7
581.479	7.6
581.67	7.72
581.862	7.59
582.053	7.65
582.244	7.54
582.436	7.68
582.627	7.61
582.818	7.55
583.01	7.59
583.201	7.65
583.392	7.54
583.583	7.53
583.775	7.44
583.966	7.51
584.157	7.58
584.348	7.65
584.54	7.49
584.731	7.61
584.922	7.52
585.113	7.39
585.304	7.52
585.495	7.51
585.686	7.56
585.877	7.56
586.068	7.55
586.259	7.46
586.45	7.47
586.641	7.44
586.832	7.54
587.023	7.46
587.214	7.43
587.405	7.46
587.596	7.36
587.787	7.35
587.978	7.41
588.169	7.31
588.36	7.27
588.551	7.37
588.742	7.4
588.932	7.38
589.123	7.16
589.314	7.42
589.505	7.26
589.696	7.29
589.886	7.29
590.077	7.25
590.268	7.21
590.458	7.14
590.649	7.08
590.84	7.23
591.03	7.2
591.221	7.15
591.412	7.08
591.602	7.31
591.793	7.16
591.984	7.16
592.174	7.16
592.365	7.37
592.555	7.06
592.746	7.03
592.936	7.04
593.127	7.1
593.317	7.15
593.508	7.19
593.698	7.04
593.889	7.04
594.079	7.02
594.269	6.96
594.46	6.99
594.65	7.02
594.84	6.97
595.031	6.84
595.221	6.9
595.411	6.94
595.602	7
595.792	6.83
595.982	6.87
596.172	6.9
596.363	6.87
596.553	6.86
596.743	6.84
596.933	6.9
597.123	6.84
597.314	6.69
597.504	6.74
597.694	6.84
597.884	6.77
598.074	6.77
598.264	6.71
598.454	6.77
598.644	6.73
598.834	6.7
599.024	6.6
599.214	6.66
599.404	6.72
599.594	6.65
599.784	6.61
599.974	6.72
600.164	6.65
600.354	6.61
600.544	6.48
600.734	6.66
600.924	6.56
601.114	6.49
601.303	6.5
601.493	6.5
601.683	6.52
601.873	6.5
602.063	6.34
602.252	6.47
602.442	6.36
602.632	6.36
602.821	6.33
603.011	6.37
603.201	6.42
603.39	6.35
603.58	6.15
603.77	6.32
603.959	6.43
604.149	6.31
604.339	6.28
604.528	6.36
604.718	6.32
604.907	6.19
605.097	6.17
605.286	6.25
605.476	6.17
605.665	6.2
605.855	6.16
606.044	6.19
606.234	6.23
606.423	6.08
606.612	6.11
606.802	6.03
606.991	6.14
607.181	6.13
607.37	6.07
607.559	5.86
607.749	6.02
607.938	5.95
608.127	5.9
608.316	6
608.506	6.03
608.695	6.04
608.884	5.9
609.073	5.96
609.263	6.05
609.452	5.99
609.641	5.8
609.83	5.79
610.019	5.92
610.208	5.77
610.397	5.83
610.586	5.8
610.775	5.78
610.965	5.75
611.154	5.62
611.343	5.75
611.532	5.65
611.721	5.77
611.91	5.59
612.099	5.65
612.287	5.54
612.476	5.5
612.665	5.7
612.854	5.57
613.043	5.57
613.232	5.55
613.421	5.52
613.61	5.58
613.798	5.49
613.987	5.59
614.176	5.47
614.365	5.52
614.554	5.48
614.742	5.52
614.931	5.35
615.12	5.44
615.309	5.43
615.497	5.32
615.686	5.22
615.875	5.37
616.063	5.22
616.252	5.29
616.44	5.25
616.629	5.21
616.818	5.27
617.006	5.24
617.195	5.13
617.383	5.19
617.572	5.14
617.76	5.13
617.949	5.11
618.137	5.22
618.326	5.17
618.514	4.94
618.703	4.97
618.891	5.12
619.079	4.99
619.268	5.09
619.456	4.91
619.644	5.15
619.833	5.02
620.021	4.93
620.209	4.86
620.398	4.99
620.586	4.82
620.774	4.92
620.962	4.89
621.151	4.97
621.339	4.86
621.527	4.82
621.715	4.75
621.903	4.77
622.092	4.67
622.28	4.85
622.468	4.63
622.656	4.79
622.844	4.71
623.032	4.72
623.22	4.55
623.408	4.77
623.596	4.71
623.784	4.71
623.972	4.52
624.16	4.6
624.348	4.68
624.536	4.71
624.724	4.5
624.912	4.62
625.1	4.59
625.288	4.56
625.476	4.49
625.664	4.56
625.851	4.42
626.039	4.56
626.227	4.42
626.415	4.49
626.603	4.34
626.79	4.43
626.978	4.38
627.166	4.41
627.354	4.33
627.541	4.33
627.729	4.2
627.917	4.45
628.104	4.37
628.292	4.26
628.48	4.33
628.667	4.18
628.855	4.33
629.042	4.31
629.23	4.26
629.418	4.21
629.605	4.22
629.793	4.08
629.98	4.13
630.168	4.12
630.355	4.19
630.543	4.14
630.73	3.98
630.917	4.07
631.105	4.21
631.292	4.1
631.48	4.05
631.667	4.15
631.854	3.98
632.042	4
632.229	3.89
632.416	4
632.604	3.95
632.791	3.78
632.978	3.94
633.165	3.92
633.353	3.96
633.54	3.93
633.727	3.83
633.914	3.77
634.101	3.76
634.289	3.93
634.476	3.7
634.663	3.73
634.85	3.74
635.037	3.75
635.224	3.66
635.411	3.8
635.598	3.68
635.785	3.65
635.972	3.67
636.159	3.71
636.346	3.62
636.533	3.54
636.72	3.56
636.907	3.59
637.094	3.6
637.281	3.47
637.468	3.59
637.655	3.56
637.842	3.55
638.029	3.52
638.215	3.5
638.402	3.5
638.589	3.45
638.776	3.41
638.963	3.39
639.149	3.54
639.336	3.52
639.523	3.4
639.709	3.39
639.896	3.37
640.083	3.38
640.27	3.45
640.456	3.29
640.643	3.34
640.829	3.22
641.016	3.31
641.203	3.19
641.389	3.28
641.576	3.27
641.762	3.19
641.949	3.17
642.135	3.23
642.322	3.19
642.508	3.07
642.695	3.19
642.881	3.11
643.068	3.09
643.254	3.11
643.441	3.13
643.627	3.12
643.813	2.99
644	3.05
644.186	2.95
644.372	3.1
644.559	3.01
644.745	3.01
644.931	2.96
645.118	2.99
645.304	3
645.49	2.96
645.676	2.91
645.862	2.94
646.049	2.99
646.235	2.92
646.421	2.98
646.607	3.01
646.793	2.92
646.979	2.82
647.165	2.91
647.352	2.9
647.538	2.87
647.724	2.8
647.91	2.81
648.096	2.83
648.282	2.81
648.468	2.76
648.654	2.8
648.84	2.77
649.026	2.74
649.212	2.66
649.397	2.7
649.583	2.65
649.769	2.79
649.955	2.7
650.141	2.71
650.327	2.75
650.513	2.61
650.698	2.63
650.884	2.53
651.07	2.62
651.256	2.62
651.442	2.6
651.627	2.49
651.813	2.64
651.999	2.54
652.184	2.59
652.37	2.53
652.556	2.54
652.741	2.56
652.927	2.38
653.113	2.52
653.298	2.47
653.484	2.46
653.669	2.42
653.855	2.43
654.04	2.46
654.226	2.46
654.412	2.44
654.597	2.32
654.782	2.42
654.968	2.41
655.153	2.39
655.339	2.33
655.524	2.31
655.71	2.34
655.895	2.27
656.08	2.3
656.266	2.39
656.451	2.3
656.636	2.21
656.822	2.29
657.007	2.23
657.192	2.25
657.378	2.18
657.563	2.23
657.748	2.23
657.933	2.27
658.118	2.17
658.304	2.2
658.489	2.25
658.674	2.22
658.859	2.14
659.044	2.16
659.229	2.2
659.414	2.11
659.599	2.13
659.785	2.12
659.97	2.1
660.155	2.15
660.34	2.13
660.525	2.08
660.71	2.02
660.895	2
661.08	2.03
661.264	2
661.449	2.12
661.634	2.02
661.819	2.03
662.004	2.03
662.189	1.94
662.374	2
662.559	1.92
662.743	1.86
662.928	1.95
663.113	1.91
663.298	1.91
663.483	1.93
663.667	1.96
663.852	1.88
664.037	1.96
664.221	1.89
664.406	1.92
664.591	1.9
664.775	1.89
664.96	1.83
665.145	1.84
665.329	1.92
665.514	1.88
665.698	1.82
665.883	1.76
666.068	1.93
666.252	1.85
666.437	1.78
666.621	1.83
666.806	1.85
666.99	1.74
667.174	1.77
667.359	1.87
667.543	1.73
667.728	1.73
667.912	1.67
668.096	1.78
668.281	1.75
668.465	1.76
668.649	1.68
668.834	1.64
669.018	1.7
669.202	1.7
669.387	1.65
669.571	1.81
669.755	1.64
669.939	1.7
670.124	1.65
670.308	1.69
670.492	1.67
670.676	1.68
670.86	1.54
671.044	1.57
671.228	1.68
671.413	1.54
671.597	1.54
671.781	1.57
671.965	1.65
672.149	1.54
672.333	1.53
672.517	1.55
672.701	1.6
672.885	1.58
673.069	1.42
673.253	1.65
673.437	1.57
673.621	1.46
673.804	1.5
673.988	1.53
674.172	1.47
674.356	1.43
674.54	1.46
674.724	1.58
674.908	1.47
675.091	1.54
675.275	1.48
675.459	1.52
675.643	1.55
675.826	1.43
676.01	1.42
676.194	1.41
676.377	1.52
676.561	1.49
676.745	1.46
676.928	1.44
677.112	1.5
677.296	1.39
677.479	1.36
677.663	1.36
677.846	1.4
678.03	1.39
678.213	1.29
678.397	1.43
678.58	1.36
678.764	1.35
678.947	1.26
679.131	1.35
679.314	1.4
679.498	1.36
679.681	1.31
679.865	1.44
680.048	1.25
680.231	1.32
680.415	1.3
680.598	1.31
680.781	1.24
680.965	1.26
681.148	1.32
681.331	1.26
681.514	1.29
681.698	1.3
681.881	1.33
682.064	1.28
682.247	1.29
682.43	1.16
682.614	1.26
682.797	1.26
682.98	1.29
683.163	1.15
683.346	1.24
683.529	1.18
683.712	1.13
683.895	1.23
684.078	1.05
684.261	1.19
684.444	1.23
684.627	1.16
684.81	1.14
684.993	1.13
685.176	1.15
685.359	1.12
685.542	1.15
685.725	1.23
685.908	1.14
686.091	1.08
686.274	1.17
686.457	1.18
686.639	1.12
686.822	1.2
687.005	1.14
687.188	1.13
687.371	1.28
687.553	1.16
687.736	1.15
687.919	1.19
688.102	1.16
688.284	1.1
688.467	1.05
688.65	1.07
688.832	1.01
689.015	1.04
689.197	0.95
689.38	1.17
689.563	1.19
689.745	0.95
689.928	0.98
690.11	1.04
690.293	1.05
690.475	0.93
690.658	1.05
690.84	1.01
691.023	1.03
691.205	1.01
691.388	0.98
691.57	1.05
691.752	1.04
691.935	0.96
692.117	0.95
692.3	0.97
692.482	0.99
692.664	0.9
692.847	0.95
693.029	1.06
693.211	1.02
693.393	0.94
693.576	1
693.758	1.02
693.94	0.96
694.122	0.93
694.304	0.91
694.487	0.92
694.669	1.03
694.851	0.86
695.033	0.88
695.215	0.86
695.397	0.89
695.579	0.88
695.761	0.83
695.943	0.87
696.125	0.98
696.308	0.95
696.49	0.76
696.671	1.06
696.853	0.84
697.035	1.12
697.217	0.85
697.399	0.93
697.581	0.81
697.763	0.93
697.945	0.76
698.127	0.88
698.309	0.97
698.491	0.84
698.672	0.87
698.854	0.91
699.036	0.94
699.218	0.86
699.399	0.89
699.581	0.88
699.763	0.9
699.945	0.72
700.126	0.78
700.308	0.9
700.49	0.79
700.671	0.75
700.853	0.7
701.035	0.82
701.216	0.84
701.398	0.68
701.579	0.73
701.761	0.88
701.943	0.72
702.124	0.72
702.306	0.78
702.487	0.93
702.669	0.77
702.85	0.73
703.031	0.73
703.213	0.88
703.394	0.84
703.576	0.67
703.757	0.86
703.938	0.78
704.12	0.98
704.301	0.74
704.483	0.72
704.664	0.8
704.845	0.88
705.026	0.79
705.208	0.71
705.389	0.73
705.57	0.78
705.751	0.74
705.933	0.72
706.114	0.89
706.295	0.75
706.476	0.67
706.657	0.82
706.838	0.71
707.02	0.81
707.201	0.64
707.382	0.65
707.563	0.74
707.744	0.67
707.925	0.56
708.106	0.64
708.287	0.67
708.468	0.78
708.649	0.73
708.83	0.73
709.011	0.64
709.192	0.75
709.373	0.67
709.554	0.67
709.734	0.83
709.915	0.77
710.096	0.67
710.277	0.53
710.458	0.69
710.639	0.76
710.819	0.59
711	0.67
711.181	0.74
711.362	0.69
711.542	0.66
711.723	0.66
711.904	0.72
712.085	0.7
712.265	0.67
712.446	0.45
712.627	0.56
712.807	0.65
712.988	0.57
713.168	0.55
713.349	0.65
713.53	0.46
713.71	0.5
713.891	0.54
714.071	0.66
714.252	0.55
714.432	0.58
714.613	0.53
714.793	0.71
714.974	0.72
715.154	0.67
715.334	0.64
715.515	0.71
715.695	0.47
715.876	0.62
716.056	0.56
716.236	0.55
716.417	0.58
716.597	0.51
716.777	0.86
716.957	0.64
717.138	0.58
717.318	0.54
717.498	0.47
717.678	0.59
717.859	0.57
718.039	0.45
718.219	0.62
718.399	0.61
718.579	0.5
718.759	0.52
718.939	0.63
719.12	0.62
719.3	0.62
719.48	0.43
719.66	0.49
719.84	0.64
720.02	0.62
720.2	0.55
720.38	0.51
720.56	0.7
720.74	0.48
720.92	0.56
721.1	0.71
721.279	0.74
721.459	0.57
721.639	0.5
721.819	0.54
721.999	0.5
722.179	0.59
722.359	0.42
722.538	0.56
722.718	0.55
722.898	0.5
723.078	0.53
723.257	0.49
723.437	0.58
723.617	0.55
723.797	0.52
723.976	0.55
724.156	0.65
724.336	0.62
724.515	0.74
724.695	0.47
724.874	0.46
725.054	0.59
725.234	0.47
725.413	0.52
725.593	0.56
725.772	0.54
725.952	0.46
726.131	0.5
726.311	0.54
726.49	0.54
726.67	0.42
726.849	0.47
727.028	0.64
727.208	0.45
727.387	0.56
727.567	0.41
727.746	0.46
727.925	0.52
728.105	0.33
728.284	0.42
728.463	0.44
728.643	0.59
728.822	0.38
729.001	0.48
729.18	0.49
729.359	0.63
729.539	0.44
729.718	0.52
729.897	0.58
730.076	0.43
730.255	0.43
730.434	0.45
730.614	0.59
730.793	0.64
730.972	0.49
731.151	0.41
731.33	0.58
731.509	0.47
731.688	0.56
731.867	0.44
732.046	0.29
732.225	0.77
732.404	0.28
732.583	0.31
732.762	0.45
732.941	0.54
733.12	0.46
733.298	0.44
733.477	0.56
733.656	0.5
733.835	0.39
734.014	0.67
734.193	0.48
734.371	0.58
734.55	0.49
734.729	0.33
734.908	0.44
735.086	0.5
735.265	0.53
735.444	0.26
735.623	0.34
735.801	0.45
735.98	0.34
736.159	0.43
736.337	0.57
736.516	0.5
736.694	0.58
736.873	0.46
737.052	0.74
737.23	0.67
737.409	0.41
737.587	0.65
737.766	0.3
737.944	0.48
738.123	0.56
738.301	0.48
738.479	0.36
738.658	0.58
738.836	0.27
739.015	0.52
739.193	0.6
739.371	0.33
739.55	0.45
739.728	0.38
739.906	0.64
740.085	0.78
740.263	0.48
740.441	0.25
740.62	0.79
740.798	0.63
740.976	0.43
741.154	0.36
741.332	0.63
741.511	0.45
741.689	0.54
741.867	0.54
742.045	0.6
742.223	0.35
742.401	0.37
742.579	0.43
742.757	0.47
742.935	0.27
743.114	0.43
743.292	0.26
743.47	0.43
743.648	0.63
743.826	0.34
744.004	0.51
744.181	0.51
744.359	0.41
744.537	0.48
744.715	0.44
744.893	0.48
745.071	0.47
745.249	0.49
745.427	0.35
745.605	0.58
745.782	0.39
745.96	0.51
746.138	0.5
746.316	0.49
746.493	0.4
746.671	0.38
746.849	0.4
747.027	0.62
747.204	0.28
747.382	0.45
747.56	0.3
747.737	0.3
747.915	0.46
748.093	0.53
748.27	0.33
748.448	0.4
748.625	0.29
748.803	0.23
748.98	0.37
749.158	0.53
749.335	0.46
749.513	0.35
749.69	0.41
749.868	0.38
750.045	0.42
750.223	0.33
750.4	0.17
750.578	0.67
750.755	0.43
750.932	0.17
751.11	0.42
751.287	0.31
751.464	0.5
751.642	0.35
751.819	0.45
751.996	0.41
752.173	0.41
752.351	0.24
752.528	0.38
752.705	0.34
752.882	0.32
753.06	0.47
753.237	0.39
753.414	0.65
753.591	0.71
753.768	0.39
753.945	0.26
754.122	0.39
754.299	0.53
754.476	0.23
754.654	0.38
754.831	0.47
755.008	0.35
755.185	0.33
755.362	0.32
755.539	0.43
755.716	0.37
755.892	0.43
756.069	0.37
756.246	0.43
756.423	0.3
756.6	0.52
756.777	0.33
756.954	0.54
757.131	0.36
757.307	0.26
757.484	0.23
757.661	0.33
757.838	0.55
758.015	0.13
758.191	0.48
758.368	0.46
758.545	0.69
758.721	0.44
758.898	0.29
759.075	0.3
759.251	0.47
759.428	0.42
759.605	0.17
759.781	0.35
759.958	0.51
760.134	0.37
760.311	0.19
760.488	0.59
760.664	0.54
760.841	0.3
761.017	0.27
761.194	0.42
761.37	0.58
761.547	0.45
761.723	0.3
761.899	0.55
762.076	0.21
762.252	0.21
762.429	0.35
762.605	0.41
762.781	0.29
762.958	0.31
763.134	0.3
763.31	0.41
763.486	0.59
763.663	0.13
763.839	0.48
764.015	0.14
764.191	0.22
764.368	0.28
764.544	0.23
764.72	0.42
764.896	0.43
765.072	0.4
765.248	0.3
765.425	0.34
765.601	0.5
765.777	0.39
765.953	0.13
766.129	0.22
766.305	0.23
766.481	0.36
766.657	0.33
766.833	0.51
767.009	0.14
767.185	0.27
767.361	0.25
767.537	0.19
767.713	0.55
767.889	0.26
768.065	0.34
768.24	0.48
768.416	0.55
768.592	0.38
768.768	0.38
768.944	0.53
769.12	0.33
769.295	0.37
769.471	0.31
769.647	0.22
769.823	0.41
769.998	0.23
770.174	0.31
770.35	0.73
770.525	0.64
770.701	0.4
770.877	0.36
771.052	0.26
771.228	0.42
771.403	0.63
771.579	0.4
771.755	0.76
771.93	0.26
772.106	0.14
772.281	0.16
772.457	0.27
772.632	0.57
772.808	0.14
772.983	0.26
773.159	0.21
773.334	0.68
773.509	0.41
773.685	0.22
773.86	0.82
774.036	0.57
774.211	0.33
774.386	0.34
774.562	0.37
774.737	0.56
774.912	0.16
775.087	0.33
775.263	0.21
775.438	0.34
775.613	0.05
775.788	0.34
775.964	0.65
776.139	0.84
776.314	0.11
776.489	0.48
776.664	0.33
776.839	0.17
777.014	0.48
777.19	0.44
777.365	0.7
777.54	0.71
777.715	0.32
777.89	0.33
778.065	0.27
778.24	0.52
778.415	0.48
778.59	0.25
778.765	0.35
778.94	0.68
779.115	0.45
779.289	0.25
779.464	0.35
779.639	0.42
779.814	0.21
779.989	0.24
780.164	0.67
780.339	0.44
780.513	0.25
780.688	0.23
780.863	0.4
781.038	0.66
781.212	0.26
781.387	0.35
781.562	0.75
781.737	0.36
781.911	0.56
782.086	0.1
782.261	0.42
782.435	0.6
782.61	0.28
782.784	0.41
782.959	0.41
783.134	0.29
783.308	0.12
783.483	0.29
783.657	0.8
783.832	0.53
784.006	0.04
784.181	0.45
784.355	0.51
784.53	0.17
784.704	0.29
784.878	0.59
785.053	0.52
785.227	0.78
785.402	0.79
785.576	0.32
785.75	0.48
785.925	0.4
786.099	0.4
786.273	0.53
786.448	0.64
786.622	0.48
786.796	0.35
786.97	0.45
787.145	0.96
787.319	0.04
787.493	0.35
787.667	0.03
787.841	0.36
788.015	0.68
788.19	0.2
788.364	0.38
788.538	0.47
788.712	0.65
788.886	0.33
789.06	0.52
789.234	0.67
789.408	0.21
789.582	0.31
789.756	0.32
789.93	0.26
790.104	0.38
790.278	0.34
790.452	0.14
790.626	0.58
790.8	0.32
790.973	0.63
791.147	0.78
791.321	0.89
791.495	0.91
791.669	0.6
791.843	0.38
792.016	0.63
792.19	0.91
792.364	0.17
792.538	1.13
792.711	0.7
792.885	0.2
793.059	0.26
793.233	-0.17
793.406	0.74
793.58	0.48
793.754	0.56
793.927	0.33
794.101	1.01
794.274	0.25
794.448	0.75
794.622	0.19
794.795	0.8
794.969	0.18
795.142	0.82
795.316	0.4
795.489	0.43
795.663	0.65
795.836	0.24
796.009	0.25
796.183	0.92
796.356	0.51
796.53	0.59
796.703	0.5
796.876	1.09
797.05	0.46
797.223	0.4
797.396	0.57
797.57	0.41
797.743	1.01
797.916	0.74
798.09	0.38
798.263	0.77
798.436	0.62
798.609	0.12
798.782	0.49
798.956	0.61
799.129	0.44
799.302	0.39
799.475	0.25
799.648	0.61
799.821	0.27
799.994	0.38
800.167	-0.09
800.34	0.44
800.514	0.29
800.687	0.45
800.86	-0.09
801.033	0.62
801.206	0.72
801.379	-0.06
801.551	0.62
801.724	0.58
801.897	1.13
802.07	0.55
802.243	-0.08
802.416	0.52
802.589	0.26
802.762	0.53
802.935	0.53
803.107	0.42
803.28	1.13
803.453	0.43
803.626	0.34
803.798	0.54
803.971	0.32
804.144	0.33
804.317	0.84
804.489	0.84
804.662	0.63
804.835	0.33
805.007	0.42
805.18	1.1
805.353	0.53
805.525	-0.03
805.698	0.07
805.87	0.99
806.043	0.75
806.215	0.05
806.388	0.09
806.56	0.93
806.733	1.04
806.905	0.85
807.078	0.27
807.25	0.33
807.423	0.61
807.595	0.52
807.768	0.55
807.94	0.67
808.112	0.81
808.285	0.51
808.457	0.39
808.629	0.69
808.802	0.5
808.974	0.42
809.146	0.18
809.318	0.48
809.491	0.94
809.663	0.91
809.835	-0.14
810.007	0.77
810.18	0.51
810.352	-0.12
810.524	0.18
810.696	0.79
810.868	1.11
811.04	0.47
811.212	0.38
811.384	0.92
811.556	1.06
811.728	0.46
811.901	1.58
812.073	0.57
812.245	1.17
812.417	0.56
812.589	-0.25
812.76	0.65
812.932	0.9
813.104	0.81
813.276	0.18
813.448	1.1
813.62	0.69
813.792	0.65
813.964	0.16
814.136	0.99
814.307	0.57
814.479	0.31
814.651	0.33
814.823	1.76
814.995	0.4
815.166	0.52
815.338	0.17
815.51	-0.12
815.681	1.62
815.853	0.57
816.025	0.53
816.196	1.3
816.368	1.18
816.54	0.38
816.711	0.13
816.883	0.81
817.054	1.76
817.226	-0.1
817.398	1.26
817.569	0.13
817.741	0.85
817.912	0.58
818.084	0.38
818.255	1.14
818.426	0.2
818.598	0.52
818.769	-0.13
818.941	0.78
819.112	1.49
819.283	0.77
819.455	0.14
819.626	0.34
819.798	1.19
819.969	0.27
820.14	0.51
820.311	0.96
820.483	1.07
820.654	0.88
820.825	0.77
820.996	0.29
821.168	0.23
821.339	0.51
821.51	-0.43
821.681	0.23
821.852	0.8
822.023	0.61
822.195	0.48
822.366	1
822.537	0.88
822.708	0.48
822.879	0.04
823.05	1.31
823.221	0.42
823.392	0.34
823.563	0.87
823.734	0.73
823.905	0.76
824.076	0.55
824.247	0.15
824.418	0.37
824.589	1.38
824.759	0.52
824.93	0.63
825.101	0.1
825.272	1.36
825.443	1.4
825.614	1.75
825.784	0.1
825.955	2.4
826.126	1.19
826.297	1.35
826.467	1.6
826.638	2.47
826.809	-0.24
826.98	1.02
827.15	0.99
827.321	0.89
827.492	1.38
827.662	0.59
827.833	2.7
828.003	1.95
828.174	-0.05
828.345	-0.07
828.515	1.98
828.686	1.13
828.856	0.56
829.027	0.53
829.197	0.75
829.368	1.35
829.538	0.37
829.709	0.7
829.879	1.02
830.049	0.91
830.22	0.44
830.39	0.71
830.56	1.5
830.731	0.87
830.901	0.33
831.072	0.5
831.242	0.74
831.412	1.38
831.582	0.87
831.753	-0.17
831.923	0.83
832.093	1.08
832.263	0.99
832.434	0.27
832.604	0.32
832.774	2.13
832.944	0.43
833.114	0.23
833.284	1.6
833.454	0.37
833.624	-0.05
833.795	0.96
833.965	1.56
834.135	2.49
834.305	-0.93
834.475	-0.14
834.645	1.39
834.815	0.93
834.985	0.18
835.155	-0.25
835.325	1.28
835.494	1.57
835.664	0.23
835.834	-0.06
836.004	0.9
836.174	1.94
836.344	1.03
836.514	-0.36
836.684	0.63
836.853	1.33
837.023	1.54
837.193	-0.32
837.363	1.39
837.532	2.52
837.702	0.42
837.872	0.58
838.041	1.86
838.211	2.85
838.381	0.28
838.55	1.38
838.72	3.13
838.89	2.09
839.059	0.2
839.229	-0.21
839.398	3.03
839.568	0.97
839.738	0.39
839.907	2.03
840.077	1.3
840.246	0.66
840.416	0.16
840.585	0.22
840.755	2.43
840.924	2.01
841.093	0.62
841.263	0.32
841.432	0.64
841.602	0.27
841.771	0.6
841.94	0.66
842.11	2.53
842.279	2.9
842.448	-0.05
842.617	-0.48
842.787	2.56
842.956	0.48
843.125	0.8
843.294	0.39
843.464	2.25
843.633	1.49
843.802	1.15
843.971	0.38
844.14	2.42
844.309	2.52
844.479	-0.3
844.648	-0.64
844.817	1.12
844.986	1.82
845.155	0.48
845.324	0.56
845.493	0.52
845.662	0.61
845.831	1.8
846	1.08
846.169	0.75
846.338	1.87
846.507	1.03
846.676	0.99
846.844	0.54
847.013	1.44
847.182	1.66
847.351	0.07
847.52	1.31
847.689	1.22
847.858	1.15
848.026	0.78
848.195	0.56
848.364	0.24
848.533	0.38
848.701	0.35
848.87	1.63
849.039	2.3
849.207	1.69
849.376	2.31
849.545	2.44
849.713	1.23
849.882	1.48
850.051	0.04
850.219	2.07
850.388	1.68
850.556	-0.31
850.725	0.36
850.893	0.48
851.062	0.82
851.23	1.92
851.399	-0.49
851.567	1.31
851.736	1.29
851.904	-0.04
852.073	1.21
852.241	1.55
852.41	1.16
852.578	0.8
852.746	0.9
852.915	1.69
853.083	1.57
853.251	-0.24
853.42	0.51
853.588	0.77
853.756	2.76
853.924	0.64
854.093	1.22
854.261	1.53
854.429	0.23
854.597	0.67
854.765	-1.27
854.934	2.19
855.102	1.87
855.27	0.65
855.438	3.32
855.606	2.93
855.774	4.14
855.942	-0.95
856.11	-1.26
856.278	1.55
856.446	3.17
856.614	0.98
856.782	0.51
856.95	2.49
857.118	3.07
857.286	0.62
857.454	0.64
857.622	3.25
857.79	3.62
857.958	0.59
858.126	0.68
858.294	-0.88
858.462	1.1
858.629	0.86
858.797	0.5
858.965	1.79
859.133	1.32
859.301	0.62
859.468	0.75
859.636	1.07
859.804	4.19
859.971	3.07
860.139	-0.34
860.307	2.18
860.474	2.39
860.642	0.32
860.81	-0.37
860.977	1.49
861.145	4.19
861.313	1.7
861.48	1.21
861.648	2.47
861.815	-0.3
861.983	-0.72
862.15	-0.79
862.318	1.59
862.485	4.18
862.653	-0.12
862.82	1.11
862.988	3.89
863.155	0.22
863.322	0.47
863.49	0.9
863.657	1.66
863.824	3.23
863.992	2.43
864.159	2.52
864.326	3.05
864.494	2.13
864.661	3.64
864.828	1.21
864.996	3.21
865.163	3.06
865.33	0.71
865.497	-1.67
865.664	1.27
865.832	-1
865.999	1.29
866.166	0.9
866.333	1.06
866.5	1.23
866.667	1.37
866.834	2.89
867.001	2.82
867.168	-0.46
867.335	1.51
867.502	-0.44
867.669	2.67
867.836	5.34
868.003	-0.66
868.17	2.29
868.337	5.61
868.504	5.46
868.671	-1.13
868.838	0.52
869.005	2.61
869.172	1.65
869.339	1.37
869.505	1.44
869.672	3.05
869.839	4.27
870.006	2.4
870.173	0.54
870.339	1.04
870.506	4.99
870.673	1.63
870.84	2.4
871.006	2.78
871.173	2.89
871.34	1.68
871.506	0.52
871.673	4.05
871.839	-0.65
872.006	0.87
872.173	0.66
872.339	3.78
872.506	5.95
872.672	1.27
872.839	-0.45
873.005	2.22
873.172	6.2
873.338	3.19
873.505	1.11
873.671	1.33
873.838	3.92
874.004	-2.02
874.171	0.58
874.337	3.72
874.503	4.23
874.67	0.78
874.836	-0.48
875.002	4.06
875.169	4.57
875.335	0.7
875.501	2.19
875.668	3.89
875.834	2.4
876	-0.37
876.166	2.79
876.332	3.52
876.499	6.93
876.665	2.11
876.831	0.99
876.997	7.73
877.163	3.25
877.329	1.96
877.495	1.5
877.662	2.73
877.828	4.53
877.994	2.62
878.16	-1.24
878.326	1.02
878.492	3.39
878.658	1.02
878.824	3.2
878.99	2.53
879.156	1.53
879.322	4.15
879.487	1.14
879.653	2.47
879.819	3.97
879.985	-0.39
880.151	4.28
880.317	2.73
880.483	3.29
880.648	1.91
880.814	-1.55
880.98	2.27
881.146	-0.41
881.312	-1.01
881.477	3.2
881.643	0.94
881.809	2.94
881.974	3.09
882.14	0.32
882.306	0.42
882.471	5.75
882.637	1.49
882.803	4.7
882.968	5.43
883.134	5.59
883.299	0.15
883.465	2.75
883.63	3.14
883.796	3.23
883.961	3.22
884.127	2.92
884.292	-0.98
884.458	0.02
884.623	0.02
