Data from Apollo_Calib_20240827__AbsoluteIrradiance__899__14-08-01-115.txt Node

Date: Wed Aug 28 14:08:01 BST 2024
User: biology
Spectrometer: FLMT08252
Trigger mode: 0
Integration Time (sec): 5.000000E-1
Scans to average: 5
Electric dark correction enabled: true
Nonlinearity correction enabled: false
Boxcar width: 0
XAxis mode: Wavelengths
Number of Pixels in Spectrum: 3648
>>>>>Begin Spectral Data<<<<<
179.588	-0
179.809	-0
180.03	-0
180.251	-0
180.473	-0
180.694	0
180.915	0
181.136	-0
181.357	0
181.578	-0
181.799	0
182.02	-0
182.241	-0
182.462	-0
182.683	0
182.904	-0
183.125	-0
183.346	0
183.567	0
183.788	0
184.009	0
184.23	0
184.451	0
184.672	0
184.892	0
185.113	0
185.334	0
185.555	0
185.776	0
185.996	0
186.217	0
186.438	0
186.659	0
186.879	0
187.1	0
187.321	0
187.541	0
187.762	0
187.983	0
188.203	0
188.424	0
188.644	0
188.865	0
189.086	0
189.306	0
189.527	0
189.747	0
189.968	0
190.188	0
190.409	0
190.629	0
190.849	0
191.07	0
191.29	0
191.511	0
191.731	0
191.951	0
192.172	0
192.392	0
192.612	0
192.833	0
193.053	0
193.273	0
193.493	0
193.714	0
193.934	0
194.154	0
194.374	0
194.594	0
194.815	0
195.035	0
195.255	0
195.475	0
195.695	0
195.915	0
196.135	0
196.355	0
196.575	0
196.795	0
197.015	0
197.235	0
197.455	0
197.675	0
197.895	0
198.115	0
198.335	0
198.555	0
198.775	0
198.995	0
199.214	0
199.434	0
199.654	0
199.874	0
200.094	3.81
200.313	1.96
200.533	2.17
200.753	1.35
200.973	4.37
201.192	3.55
201.412	1.11
201.632	1.78
201.851	3.24
202.071	1.94
202.291	1.32
202.51	1.57
202.73	2.39
202.95	1.67
203.169	1.02
203.389	1.74
203.608	1.95
203.828	1.65
204.047	1.37
204.267	2.41
204.486	2.19
204.706	2.38
204.925	1.74
205.145	1.41
205.364	1.96
205.583	2.59
205.803	1.49
206.022	1.21
206.242	1.79
206.461	1.8
206.68	1.18
206.9	1.36
207.119	2.55
207.338	2.11
207.557	1.34
207.777	1.07
207.996	1.38
208.215	2.09
208.434	0.59
208.654	0.89
208.873	1.46
209.092	2.02
209.311	1.09
209.53	0.97
209.749	1.5
209.968	1.12
210.187	1.03
210.407	0.63
210.626	1.06
210.845	1.42
211.064	1.1
211.283	0.88
211.502	1.66
211.721	1.06
211.94	1.05
212.159	1.37
212.377	1.27
212.596	1.61
212.815	1.21
213.034	1.13
213.253	1.37
213.472	1.27
213.691	1.19
213.91	0.59
214.128	0.67
214.347	1.42
214.566	0.25
214.785	0.49
215.003	1.34
215.222	1.24
215.441	0.91
215.66	0.61
215.878	1.08
216.097	1.28
216.316	0.73
216.534	0.76
216.753	1.17
216.972	0.75
217.19	0.83
217.409	0.48
217.627	0.92
217.846	0.75
218.064	0.87
218.283	0.44
218.501	1.45
218.72	1.13
218.938	0.61
219.157	0.48
219.375	1.12
219.594	1.01
219.812	0.56
220.031	0.55
220.249	1.34
220.467	1.05
220.686	0.62
220.904	0.5
221.122	0.78
221.341	0.97
221.559	0.77
221.777	0.58
221.995	0.76
222.214	0.94
222.432	0.57
222.65	0.79
222.868	0.69
223.086	0.87
223.305	0.84
223.523	0.69
223.741	1.35
223.959	0.86
224.177	0.4
224.395	0.6
224.613	0.71
224.831	0.99
225.049	0.27
225.267	0.57
225.485	0.83
225.703	0.51
225.921	0.61
226.139	0.5
226.357	0.85
226.575	0.82
226.793	0.52
227.011	1.65
227.229	0.8
227.447	0.9
227.665	0.5
227.883	0.42
228.1	0.59
228.318	0.73
228.536	0.23
228.754	0.42
228.972	0.79
229.189	0.82
229.407	0.55
229.625	0.54
229.843	0.91
230.06	0.73
230.278	0.49
230.496	0.68
230.713	0.66
230.931	0.82
231.149	0.54
231.366	0.45
231.584	0.65
231.801	1.1
232.019	0.69
232.236	0.31
232.454	0.51
232.671	0.61
232.889	0.49
233.106	0.46
233.324	0.67
233.541	0.51
233.759	0.51
233.976	0.37
234.194	0.48
234.411	0.59
234.628	0.46
234.846	0.47
235.063	0.44
235.28	0.54
235.498	0.49
235.715	0.32
235.932	0.83
236.149	0.54
236.367	0.36
236.584	0.57
236.801	0.49
237.018	0.63
237.236	0.43
237.453	0.24
237.67	0.69
237.887	0.46
238.104	0.45
238.321	0.37
238.538	0.4
238.755	0.7
238.973	0.29
239.19	0.46
239.407	0.55
239.624	0.58
239.841	0.28
240.058	0.23
240.275	0.57
240.492	0.44
240.709	0.42
240.925	0.45
241.142	0.52
241.359	0.37
241.576	0.33
241.793	0.4
242.01	0.44
242.227	0.62
242.444	0.56
242.66	0.57
242.877	0.5
243.094	0.42
243.311	0.29
243.527	0.38
243.744	0.52
243.961	0.56
244.178	0.33
244.394	0.44
244.611	0.79
244.828	0.74
245.044	0.37
245.261	0.31
245.477	0.48
245.694	0.62
245.911	0.32
246.127	0.5
246.344	0.68
246.56	0.53
246.777	0.37
246.993	0.44
247.21	0.52
247.426	0.56
247.643	0.34
247.859	0.32
248.076	0.35
248.292	0.67
248.508	0.38
248.725	0.41
248.941	0.52
249.157	0.65
249.374	0.3
249.59	0.29
249.806	0.43
250.023	0.52
250.239	0.37
250.455	0.3
250.671	0.42
250.888	0.4
251.104	0.49
251.32	0.36
251.536	0.43
251.752	0.39
251.969	0.39
252.185	0.42
252.401	0.66
252.617	0.51
252.833	0.28
253.049	0.45
253.265	0.48
253.481	0.39
253.697	0.31
253.913	0.29
254.129	0.53
254.345	0.47
254.561	0.32
254.777	0.34
254.993	0.47
255.209	0.49
255.425	0.3
255.641	0.31
255.857	0.5
256.073	0.46
256.288	0.31
256.504	0.28
256.72	0.4
256.936	0.63
257.152	0.37
257.367	0.25
257.583	0.43
257.799	0.46
258.015	0.29
258.23	0.38
258.446	0.6
258.662	0.38
258.877	0.3
259.093	0.28
259.309	0.38
259.524	0.42
259.74	0.42
259.955	0.24
260.171	0.38
260.387	0.43
260.602	0.4
260.818	0.42
261.033	0.28
261.249	0.41
261.464	0.25
261.68	0.23
261.895	0.41
262.11	0.44
262.326	0.3
262.541	0.21
262.757	0.51
262.972	0.41
263.187	0.38
263.403	0.47
263.618	0.48
263.833	0.35
264.049	0.3
264.264	0.35
264.479	0.37
264.694	0.5
264.91	0.22
265.125	0.35
265.34	0.44
265.555	0.59
265.77	0.36
265.986	0.27
266.201	0.36
266.416	0.48
266.631	0.28
266.846	0.27
267.061	0.45
267.276	0.44
267.491	0.16
267.706	0.39
267.921	0.41
268.136	0.38
268.351	0.34
268.566	0.21
268.781	0.48
268.996	0.43
269.211	0.27
269.426	0.33
269.641	0.34
269.856	0.43
270.071	0.29
270.285	0.22
270.5	0.41
270.715	0.38
270.93	0.29
271.145	0.35
271.359	0.42
271.574	0.3
271.789	0.34
272.004	0.31
272.218	0.29
272.433	0.46
272.648	0.24
272.862	0.46
273.077	0.36
273.292	0.32
273.506	0.23
273.721	0.31
273.936	0.43
274.15	0.46
274.365	0.3
274.579	0.41
274.794	0.41
275.008	0.49
275.223	0.27
275.437	0.33
275.652	0.45
275.866	0.48
276.081	0.32
276.295	0.4
276.509	0.39
276.724	0.32
276.938	0.3
277.153	0.29
277.367	0.39
277.581	0.3
277.796	0.26
278.01	0.29
278.224	0.36
278.438	0.5
278.653	0.26
278.867	0.2
279.081	0.18
279.295	0.32
279.51	0.32
279.724	0.22
279.938	0.29
280.152	0.37
280.366	0.26
280.58	0.27
280.794	0.39
281.008	0.45
281.222	0.35
281.437	0.5
281.651	0.32
281.865	0.42
282.079	0.33
282.293	0.19
282.507	0.25
282.721	0.28
282.935	0.26
283.148	0.17
283.362	0.29
283.576	0.21
283.79	0.3
284.004	0.22
284.218	0.42
284.432	0.27
284.646	0.26
284.859	0.22
285.073	0.28
285.287	0.35
285.501	0.27
285.714	0.27
285.928	0.32
286.142	0.29
286.356	0.2
286.569	0.25
286.783	0.39
286.997	0.39
287.21	0.22
287.424	0.29
287.637	0.32
287.851	0.24
288.065	0.39
288.278	0.29
288.492	0.35
288.705	0.3
288.919	0.29
289.132	0.16
289.346	0.31
289.559	0.24
289.773	0.24
289.986	0.24
290.2	0.26
290.413	0.39
290.626	0.27
290.84	0.24
291.053	0.32
291.267	0.36
291.48	0.25
291.693	0.28
291.906	0.28
292.12	0.36
292.333	0.25
292.546	0.21
292.76	0.37
292.973	0.31
293.186	0.34
293.399	0.24
293.612	0.37
293.826	0.27
294.039	0.25
294.252	0.25
294.465	0.36
294.678	0.32
294.891	0.28
295.104	0.21
295.317	0.27
295.53	0.31
295.743	0.27
295.956	0.21
296.169	0.39
296.382	0.29
296.595	0.26
296.808	0.25
297.021	0.35
297.234	0.35
297.447	0.25
297.66	0.31
297.873	0.33
298.086	0.36
298.299	0.21
298.511	0.19
298.724	0.25
298.937	0.21
299.15	0.22
299.363	0.27
299.575	0.28
299.788	0.28
300.001	0.24
300.213	0.24
300.426	0.27
300.639	0.22
300.852	0.21
301.064	0.3
301.277	0.32
301.489	0.3
301.702	0.29
301.915	0.28
302.127	0.27
302.34	0.28
302.552	0.27
302.765	0.22
302.977	0.33
303.19	0.18
303.402	0.22
303.615	0.25
303.827	0.26
304.04	0.26
304.252	0.3
304.464	0.22
304.677	0.41
304.889	0.3
305.102	0.19
305.314	0.22
305.526	0.28
305.739	0.28
305.951	0.19
306.163	0.25
306.375	0.32
306.588	0.22
306.8	0.25
307.012	0.14
307.224	0.27
307.436	0.36
307.649	0.23
307.861	0.22
308.073	0.3
308.285	0.23
308.497	0.21
308.709	0.24
308.921	0.27
309.133	0.35
309.346	0.26
309.558	0.3
309.77	0.33
309.982	0.38
310.194	0.26
310.406	0.21
310.617	0.38
310.829	0.31
311.041	0.27
311.253	0.2
311.465	0.24
311.677	0.25
311.889	0.23
312.101	0.2
312.313	0.36
312.524	0.35
312.736	0.18
312.948	0.23
313.16	0.39
313.372	0.31
313.583	0.27
313.795	0.22
314.007	0.21
314.218	0.33
314.43	0.25
314.642	0.21
314.853	0.2
315.065	0.31
315.277	0.21
315.488	0.24
315.7	0.32
315.912	0.3
316.123	0.2
316.335	0.25
316.546	0.38
316.758	0.26
316.969	0.25
317.181	0.26
317.392	0.3
317.604	0.33
317.815	0.21
318.026	0.22
318.238	0.27
318.449	0.29
318.661	0.19
318.872	0.19
319.083	0.2
319.295	0.33
319.506	0.23
319.717	0.26
319.929	0.29
320.14	0.31
320.351	0.27
320.562	0.2
320.774	0.27
320.985	0.23
321.196	0.23
321.407	0.18
321.618	0.32
321.829	0.3
322.041	0.32
322.252	0.28
322.463	0.34
322.674	0.3
322.885	0.22
323.096	0.19
323.307	0.26
323.518	0.29
323.729	0.22
323.94	0.22
324.151	0.27
324.362	0.31
324.573	0.24
324.784	0.29
324.995	0.36
325.206	0.29
325.417	0.25
325.628	0.2
325.838	0.27
326.049	0.3
326.26	0.3
326.471	0.22
326.682	0.26
326.892	0.3
327.103	0.14
327.314	0.26
327.525	0.34
327.735	0.32
327.946	0.26
328.157	0.18
328.368	0.33
328.578	0.26
328.789	0.31
328.999	0.23
329.21	0.23
329.421	0.32
329.631	0.21
329.842	0.19
330.052	0.28
330.263	0.3
330.473	0.27
330.684	0.2
330.894	0.26
331.105	0.31
331.315	0.26
331.526	0.14
331.736	0.37
331.947	0.32
332.157	0.3
332.367	0.15
332.578	0.33
332.788	0.37
332.999	0.3
333.209	0.23
333.419	0.17
333.629	0.28
333.84	0.31
334.05	0.27
334.26	0.36
334.47	0.34
334.681	0.3
334.891	0.22
335.101	0.3
335.311	0.35
335.521	0.27
335.732	0.2
335.942	0.38
336.152	0.27
336.362	0.23
336.572	0.26
336.782	0.31
336.992	0.22
337.202	0.25
337.412	0.24
337.622	0.29
337.832	0.23
338.042	0.25
338.252	0.2
338.462	0.24
338.672	0.26
338.882	0.23
339.092	0.19
339.302	0.34
339.511	0.33
339.721	0.2
339.931	0.21
340.141	0.35
340.351	0.33
340.561	0.26
340.77	0.28
340.98	0.3
341.19	0.27
341.4	0.25
341.609	0.15
341.819	0.27
342.029	0.21
342.238	0.24
342.448	0.23
342.658	0.29
342.867	0.21
343.077	0.31
343.286	0.27
343.496	0.26
343.706	0.34
343.915	0.21
344.125	0.24
344.334	0.31
344.544	0.2
344.753	0.2
344.963	0.23
345.172	0.19
345.381	0.19
345.591	0.21
345.8	0.23
346.01	0.33
346.219	0.31
346.428	0.12
346.638	0.23
346.847	0.26
347.056	0.34
347.266	0.23
347.475	0.21
347.684	0.3
347.893	0.3
348.103	0.29
348.312	0.2
348.521	0.25
348.73	0.27
348.94	0.25
349.149	0.25
349.358	0.27
349.567	0.22
349.776	0.17
349.985	0.22
350.194	0.31
350.403	0.34
350.612	0.18
350.821	0.21
351.03	0.26
351.239	0.2
351.448	0.27
351.657	0.24
351.866	0.31
352.075	0.24
352.284	0.31
352.493	0.19
352.702	0.33
352.911	0.24
353.12	0.21
353.329	0.26
353.538	0.33
353.746	0.26
353.955	0.17
354.164	0.26
354.373	0.2
354.582	0.33
354.79	0.27
354.999	0.28
355.208	0.26
355.416	0.33
355.625	0.15
355.834	0.2
356.042	0.25
356.251	0.23
356.46	0.19
356.668	0.22
356.877	0.34
357.085	0.26
357.294	0.16
357.503	0.27
357.711	0.26
357.92	0.41
358.128	0.22
358.337	0.18
358.545	0.27
358.754	0.22
358.962	0.28
359.17	0.24
359.379	0.27
359.587	0.27
359.796	0.25
360.004	0.3
360.212	0.27
360.421	0.34
360.629	0.24
360.837	0.21
361.046	0.29
361.254	0.4
361.462	0.26
361.67	0.26
361.879	0.3
362.087	0.3
362.295	0.26
362.503	0.21
362.711	0.17
362.92	0.22
363.128	0.23
363.336	0.2
363.544	0.16
363.752	0.2
363.96	0.22
364.168	0.2
364.376	0.23
364.584	0.28
364.792	0.29
365	0.27
365.208	0.25
365.416	0.27
365.624	0.31
365.832	0.21
366.04	0.35
366.248	0.25
366.456	0.31
366.664	0.23
366.872	0.27
367.079	0.27
367.287	0.2
367.495	0.25
367.703	0.21
367.911	0.24
368.118	0.23
368.326	0.25
368.534	0.19
368.742	0.3
368.949	0.2
369.157	0.21
369.365	0.3
369.572	0.26
369.78	0.21
369.988	0.26
370.195	0.29
370.403	0.32
370.61	0.22
370.818	0.24
371.026	0.37
371.233	0.21
371.441	0.3
371.648	0.22
371.856	0.27
372.063	0.27
372.271	0.21
372.478	0.18
372.685	0.21
372.893	0.32
373.1	0.23
373.308	0.21
373.515	0.38
373.722	0.31
373.93	0.22
374.137	0.26
374.344	0.33
374.552	0.34
374.759	0.32
374.966	0.25
375.173	0.26
375.381	0.31
375.588	0.28
375.795	0.19
376.002	0.26
376.209	0.23
376.417	0.22
376.624	0.3
376.831	0.3
377.038	0.25
377.245	0.21
377.452	0.21
377.659	0.28
377.866	0.24
378.073	0.23
378.28	0.24
378.487	0.3
378.694	0.33
378.901	0.24
379.108	0.24
379.315	0.32
379.522	0.37
379.729	0.29
379.936	0.25
380.143	0.3
380.35	0.26
380.557	0.26
380.763	0.22
380.97	0.27
381.177	0.3
381.384	0.27
381.591	0.26
381.797	0.3
382.004	0.38
382.211	0.28
382.418	0.22
382.624	0.35
382.831	0.35
383.038	0.23
383.244	0.27
383.451	0.28
383.658	0.35
383.864	0.27
384.071	0.25
384.277	0.37
384.484	0.27
384.69	0.34
384.897	0.22
385.103	0.24
385.31	0.24
385.516	0.28
385.723	0.2
385.929	0.32
386.136	0.23
386.342	0.3
386.549	0.23
386.755	0.37
386.961	0.33
387.168	0.24
387.374	0.24
387.58	0.33
387.787	0.31
387.993	0.34
388.199	0.27
388.406	0.25
388.612	0.29
388.818	0.25
389.024	0.23
389.231	0.28
389.437	0.39
389.643	0.3
389.849	0.27
390.055	0.33
390.261	0.27
390.467	0.32
390.674	0.25
390.88	0.3
391.086	0.38
391.292	0.25
391.498	0.34
391.704	0.29
391.91	0.3
392.116	0.26
392.322	0.18
392.528	0.35
392.734	0.32
392.94	0.34
393.146	0.31
393.352	0.33
393.557	0.31
393.763	0.31
393.969	0.33
394.175	0.3
394.381	0.37
394.587	0.27
394.792	0.33
394.998	0.37
395.204	0.38
395.41	0.26
395.615	0.36
395.821	0.33
396.027	0.34
396.233	0.3
396.438	0.34
396.644	0.38
396.85	0.36
397.055	0.35
397.261	0.34
397.466	0.37
397.672	0.36
397.878	0.38
398.083	0.31
398.289	0.33
398.494	0.35
398.7	0.35
398.905	0.19
399.111	0.41
399.316	0.34
399.522	0.33
399.727	0.31
399.932	0.36
400.138	0.29
400.343	0.35
400.549	0.34
400.754	0.38
400.959	0.38
401.165	0.35
401.37	0.41
401.575	0.46
401.78	0.38
401.986	0.35
402.191	0.35
402.396	0.35
402.601	0.45
402.807	0.41
403.012	0.35
403.217	0.41
403.422	0.39
403.627	0.41
403.832	0.39
404.037	0.46
404.243	0.47
404.448	0.39
404.653	0.4
404.858	0.41
405.063	0.46
405.268	0.4
405.473	0.39
405.678	0.4
405.883	0.63
406.088	0.51
406.293	0.38
406.498	0.47
406.703	0.59
406.907	0.46
407.112	0.44
407.317	0.51
407.522	0.63
407.727	0.51
407.932	0.54
408.136	0.65
408.341	0.54
408.546	0.55
408.751	0.56
408.956	0.63
409.16	0.68
409.365	0.59
409.57	0.59
409.774	0.64
409.979	0.72
410.184	0.67
410.388	0.61
410.593	0.76
410.798	0.72
411.002	0.75
411.207	0.81
411.411	0.82
411.616	0.77
411.82	0.81
412.025	0.87
412.229	0.87
412.434	1
412.638	0.91
412.843	0.93
413.047	0.98
413.252	0.93
413.456	1.07
413.66	1.08
413.865	1.03
414.069	1.19
414.273	1.07
414.478	1.16
414.682	1.19
414.886	1.26
415.091	1.18
415.295	1.3
415.499	1.48
415.703	1.35
415.908	1.5
416.112	1.37
416.316	1.57
416.52	1.57
416.724	1.59
416.929	1.65
417.133	1.9
417.337	1.73
417.541	1.84
417.745	1.9
417.949	1.97
418.153	2.01
418.357	2.08
418.561	2.25
418.765	2.3
418.969	2.39
419.173	2.44
419.377	2.45
419.581	2.8
419.785	2.66
419.989	2.69
420.193	2.91
420.397	2.94
420.601	3.11
420.804	3.18
421.008	3.16
421.212	3.33
421.416	3.27
421.62	3.31
421.823	3.45
422.027	3.65
422.231	3.55
422.435	3.58
422.638	3.58
422.842	3.79
423.046	3.79
423.249	4.04
423.453	4.06
423.657	4.2
423.86	4.29
424.064	4.39
424.268	4.58
424.471	4.56
424.675	4.88
424.878	4.86
425.082	5
425.285	5.33
425.489	5.27
425.692	5.33
425.896	5.31
426.099	5.6
426.303	5.83
426.506	5.77
426.71	6.09
426.913	6.35
427.116	6.49
427.32	6.4
427.523	6.54
427.726	6.73
427.93	6.95
428.133	7.31
428.336	7.41
428.54	7.46
428.743	7.85
428.946	8.02
429.149	7.97
429.353	7.99
429.556	8.21
429.759	8.17
429.962	8.28
430.165	8.45
430.368	8.18
430.571	8.24
430.775	8.25
430.978	8.13
431.181	8.32
431.384	8.39
431.587	8.42
431.79	8.79
431.993	8.75
432.196	9.02
432.399	9.39
432.602	9.46
432.805	9.68
433.008	10.21
433.211	9.99
433.414	10.39
433.616	10.45
433.819	10.35
434.022	10.51
434.225	10.76
434.428	10.8
434.631	11.21
434.833	10.89
435.036	11.29
435.239	11.4
435.442	11.45
435.645	11.57
435.847	11.61
436.05	11.98
436.253	12.27
436.455	12.19
436.658	12.17
436.861	12.46
437.063	12.64
437.266	12.52
437.468	12.88
437.671	13.28
437.874	13.21
438.076	13.02
438.279	13.52
438.481	13.73
438.684	14.46
438.886	14.09
439.089	14.25
439.291	14.2
439.494	14.68
439.696	14.91
439.899	15.44
440.101	15.87
440.303	15.88
440.506	16.58
440.708	16.48
440.91	16.66
441.113	16.84
441.315	17.2
441.517	16.84
441.72	17.36
441.922	16.95
442.124	17.06
442.326	17.33
442.529	17.58
442.731	17.55
442.933	17.74
443.135	17.44
443.337	17.53
443.539	18.11
443.742	17.8
443.944	18.45
444.146	18.19
444.348	18.11
444.55	17.96
444.752	18.26
444.954	18.22
445.156	18.06
445.358	18.55
445.56	18.85
445.762	18.75
445.964	18.86
446.166	18.6
446.368	18.58
446.57	18.43
446.772	18.11
446.974	17.95
447.175	18.24
447.377	18.01
447.579	18.41
447.781	18.02
447.983	17.84
448.184	17.32
448.386	17.71
448.588	17.16
448.79	17.27
448.991	17.48
449.193	17.48
449.395	16.71
449.597	16.52
449.798	16.31
450	15.85
450.202	15.82
450.403	15.88
450.605	15.83
450.806	15.37
451.008	15.22
451.21	14.9
451.411	14.47
451.613	13.62
451.814	13.96
452.016	13.94
452.217	13.24
452.419	13.19
452.62	12.85
452.821	12.59
453.023	12.5
453.224	12.2
453.426	11.67
453.627	10.95
453.828	11.2
454.03	11.17
454.231	11.2
454.432	11.02
454.634	10.66
454.835	10.35
455.036	10.19
455.238	9.86
455.439	9.78
455.64	9.38
455.841	9.3
456.042	9.42
456.244	9.13
456.445	8.8
456.646	8.5
456.847	8.46
457.048	8.32
457.249	8.35
457.45	8.19
457.651	7.61
457.852	7.54
458.054	7.17
458.255	7.12
458.456	7.16
458.657	7.1
458.858	6.66
459.058	6.57
459.259	6.67
459.46	6.31
459.661	6.33
459.862	6.39
460.063	6.37
460.264	6.17
460.465	5.98
460.666	6.04
460.866	5.72
461.067	5.43
461.268	5.43
461.469	5.41
461.67	5.31
461.87	5.2
462.071	5.19
462.272	5.21
462.473	5.12
462.673	5.29
462.874	5.03
463.075	5.08
463.275	5.05
463.476	5.08
463.676	4.98
463.877	4.82
464.078	4.88
464.278	4.85
464.479	4.81
464.679	4.7
464.88	4.63
465.08	4.65
465.281	4.39
465.481	4.26
465.682	4.03
465.882	4.08
466.083	4.07
466.283	3.96
466.483	3.86
466.684	3.65
466.884	3.57
467.085	3.63
467.285	3.74
467.485	3.57
467.686	3.5
467.886	3.39
468.086	3.37
468.286	3.39
468.487	3.41
468.687	3.2
468.887	3.18
469.087	3.3
469.287	3.26
469.488	3
469.688	3.14
469.888	3.13
470.088	3.08
470.288	3.03
470.488	3.03
470.688	2.84
470.888	2.85
471.088	2.61
471.288	2.81
471.488	2.72
471.688	2.68
471.888	2.69
472.088	2.75
472.288	2.71
472.488	2.53
472.688	2.52
472.888	2.58
473.088	2.67
473.288	2.53
473.488	2.45
473.688	2.67
473.887	2.42
474.087	2.34
474.287	2.41
474.487	2.35
474.687	2.41
474.886	2.31
475.086	2.27
475.286	2.32
475.486	2.32
475.685	2.25
475.885	2.24
476.085	2.24
476.284	2.25
476.484	2.22
476.684	2.19
476.883	2.28
477.083	2.19
477.282	2.11
477.482	2.15
477.681	2.14
477.881	2.01
478.08	2.07
478.28	2
478.479	2.13
478.679	2.15
478.878	2.04
479.078	2.03
479.277	2.08
479.477	2.08
479.676	2.06
479.875	2.03
480.075	1.92
480.274	2.03
480.473	2.04
480.673	1.96
480.872	2.07
481.071	2.06
481.271	2.05
481.47	1.99
481.669	1.96
481.868	1.98
482.067	1.96
482.267	1.89
482.466	1.96
482.665	1.91
482.864	1.99
483.063	1.92
483.262	2.01
483.461	2.06
483.661	2.06
483.86	1.95
484.059	2.06
484.258	2.07
484.457	2.03
484.656	2
484.855	2.11
485.054	1.92
485.253	1.96
485.452	1.94
485.651	2.07
485.849	2.01
486.048	1.94
486.247	2.03
486.446	2.05
486.645	2.06
486.844	2.06
487.043	2.06
487.241	2.07
487.44	2.03
487.639	2.12
487.838	2.12
488.037	2.12
488.235	2.22
488.434	2.12
488.633	2.04
488.831	2.23
489.03	2.22
489.229	2.18
489.427	2.18
489.626	2.25
489.825	2.26
490.023	2.3
490.222	2.28
490.42	2.3
490.619	2.37
490.817	2.35
491.016	2.35
491.214	2.43
491.413	2.42
491.611	2.36
491.81	2.39
492.008	2.46
492.207	2.53
492.405	2.51
492.604	2.45
492.802	2.57
493	2.59
493.199	2.63
493.397	2.64
493.595	2.67
493.794	2.67
493.992	2.78
494.19	2.72
494.388	2.86
494.587	2.78
494.785	2.79
494.983	2.73
495.181	2.84
495.379	2.93
495.578	2.94
495.776	2.97
495.974	2.95
496.172	3
496.37	3.09
496.568	3.06
496.766	3.09
496.964	3.19
497.162	3.18
497.36	3.18
497.558	3.23
497.756	3.29
497.954	3.3
498.152	3.4
498.35	3.45
498.548	3.36
498.746	3.39
498.944	3.41
499.142	3.45
499.34	3.54
499.538	3.64
499.736	3.49
499.933	3.66
500.131	3.68
500.329	3.81
500.527	3.78
500.725	3.9
500.922	3.9
501.12	3.87
501.318	3.96
501.516	3.96
501.713	3.98
501.911	4.03
502.109	3.97
502.306	4.12
502.504	4.04
502.701	4.1
502.899	4.18
503.097	4.36
503.294	4.24
503.492	4.41
503.689	4.38
503.887	4.35
504.084	4.48
504.282	4.42
504.479	4.39
504.677	4.61
504.874	4.57
505.072	4.48
505.269	4.68
505.466	4.66
505.664	4.77
505.861	4.61
506.059	4.76
506.256	4.83
506.453	4.88
506.651	5.01
506.848	5.02
507.045	4.97
507.242	4.98
507.44	5.01
507.637	5.11
507.834	5.09
508.031	5.21
508.229	5.14
508.426	5.1
508.623	5.29
508.82	5.26
509.017	5.26
509.214	5.25
509.411	5.36
509.608	5.35
509.805	5.5
510.003	5.47
510.2	5.51
510.397	5.7
510.594	5.61
510.791	5.64
510.988	5.66
511.184	5.64
511.381	5.53
511.578	5.71
511.775	5.84
511.972	5.72
512.169	5.82
512.366	5.89
512.563	6
512.76	6
512.956	5.98
513.153	5.98
513.35	5.94
513.547	5.96
513.744	6.03
513.94	6.04
514.137	6.15
514.334	6.16
514.53	6.19
514.727	6.41
514.924	6.27
515.12	6.26
515.317	6.32
515.514	6.26
515.71	6.21
515.907	6.42
516.103	6.5
516.3	6.37
516.497	6.5
516.693	6.52
516.89	6.49
517.086	6.58
517.283	6.54
517.479	6.38
517.676	6.63
517.872	6.67
518.068	6.66
518.265	6.66
518.461	6.63
518.658	6.68
518.854	6.75
519.05	6.81
519.247	6.86
519.443	6.82
519.639	6.91
519.836	6.82
520.032	6.74
520.228	6.98
520.424	6.91
520.621	6.93
520.817	6.95
521.013	6.94
521.209	7.15
521.405	7.09
521.601	7.07
521.798	7.02
521.994	7.05
522.19	6.98
522.386	6.99
522.582	7.15
522.778	7.26
522.974	7.16
523.17	7.19
523.366	7.12
523.562	7.22
523.758	7.2
523.954	7.03
524.15	7.25
524.346	7.3
524.542	7.26
524.738	7.24
524.934	7.37
525.129	7.32
525.325	7.24
525.521	7.29
525.717	7.47
525.913	7.37
526.109	7.38
526.304	7.52
526.5	7.45
526.696	7.52
526.892	7.41
527.087	7.56
527.283	7.45
527.479	7.53
527.674	7.34
527.87	7.49
528.066	7.51
528.261	7.54
528.457	7.55
528.653	7.63
528.848	7.62
529.044	7.66
529.239	7.59
529.435	7.55
529.63	7.53
529.826	7.59
530.021	7.59
530.217	7.67
530.412	7.58
530.608	7.62
530.803	7.65
530.999	7.56
531.194	7.66
531.389	7.71
531.585	7.69
531.78	7.77
531.975	7.71
532.171	7.78
532.366	7.74
532.561	7.8
532.757	7.7
532.952	7.92
533.147	7.65
533.342	7.81
533.538	7.69
533.733	8
533.928	7.59
534.123	7.77
534.318	7.81
534.513	7.74
534.709	7.94
534.904	7.83
535.099	7.91
535.294	7.91
535.489	7.92
535.684	7.85
535.879	7.85
536.074	7.97
536.269	7.92
536.464	7.96
536.659	7.91
536.854	7.95
537.049	7.92
537.244	7.9
537.439	7.85
537.634	7.96
537.828	8
538.023	8.02
538.218	7.92
538.413	7.87
538.608	7.88
538.803	7.98
538.997	7.88
539.192	7.93
539.387	7.91
539.582	7.98
539.776	7.86
539.971	8
540.166	8.07
540.36	7.91
540.555	8.14
540.75	8
540.944	8.06
541.139	7.99
541.334	8
541.528	7.98
541.723	8.08
541.917	8.11
542.112	7.97
542.306	7.87
542.501	7.89
542.695	8.05
542.89	7.97
543.084	8.04
543.279	8.03
543.473	8.06
543.668	8.1
543.862	7.94
544.056	8.01
544.251	8.11
544.445	8.12
544.64	8.14
544.834	7.85
545.028	7.7
545.222	8.04
545.417	8.26
545.611	8.1
545.805	8.07
546	7.89
546.194	8.08
546.388	8.13
546.582	7.96
546.776	8.01
546.97	8.09
547.165	8.03
547.359	8.02
547.553	8
547.747	8.12
547.941	8.24
548.135	8.06
548.329	8.15
548.523	8.15
548.717	8.01
548.911	7.99
549.105	8.05
549.299	8.12
549.493	8.1
549.687	7.96
549.881	8.19
550.075	8.12
550.269	7.98
550.463	8.17
550.657	8.11
550.85	8.08
551.044	8.07
551.238	8.11
551.432	8.08
551.626	8.2
551.82	8.18
552.013	8
552.207	8.21
552.401	8.2
552.594	8.07
552.788	8.08
552.982	8.03
553.176	8.06
553.369	8.28
553.563	8.13
553.756	8.08
553.95	8.15
554.144	8.18
554.337	8.17
554.531	7.94
554.724	8.14
554.918	8.21
555.111	8.12
555.305	8.09
555.498	8.07
555.692	8.2
555.885	8.18
556.079	8.11
556.272	8.16
556.466	8.05
556.659	8.1
556.852	8.22
557.046	8.07
557.239	7.95
557.432	8.12
557.626	8.21
557.819	8.24
558.012	8.11
558.206	8.24
558.399	8.12
558.592	8.08
558.785	8.09
558.979	8.06
559.172	8.09
559.365	8.06
559.558	8.08
559.751	8.03
559.944	8.21
560.138	8.14
560.331	8.12
560.524	8.17
560.717	8.06
560.91	8.11
561.103	8.13
561.296	8.02
561.489	8.2
561.682	8.25
561.875	8.13
562.068	8.23
562.261	7.99
562.454	8.3
562.647	8.05
562.84	8.14
563.032	8.16
563.225	8.08
563.418	8.16
563.611	8.21
563.804	8.12
563.997	7.98
564.19	7.92
564.382	8.2
564.575	8.14
564.768	8.04
564.961	8.19
565.153	8.04
565.346	8.06
565.539	8.15
565.731	8.11
565.924	8.2
566.117	8.28
566.309	8.13
566.502	8.12
566.695	8.06
566.887	8.16
567.08	8.05
567.272	8.17
567.465	7.98
567.657	8.22
567.85	7.98
568.042	8.17
568.235	8.17
568.427	7.98
568.62	8.1
568.812	8.05
569.005	8.19
569.197	8.03
569.389	8.12
569.582	8.14
569.774	8.07
569.966	7.96
570.159	7.91
570.351	7.98
570.543	8.02
570.736	7.99
570.928	7.93
571.12	8.1
571.312	7.96
571.505	7.76
571.697	8.08
571.889	8.04
572.081	7.98
572.273	7.98
572.465	8.02
572.658	8
572.85	8.02
573.042	8.05
573.234	7.91
573.426	8
573.618	7.96
573.81	7.98
574.002	7.98
574.194	8.01
574.386	7.94
574.578	7.84
574.77	7.94
574.962	7.9
575.154	7.77
575.346	7.84
575.538	7.88
575.729	7.9
575.921	7.92
576.113	7.96
576.305	7.92
576.497	8.01
576.689	7.77
576.88	7.78
577.072	7.96
577.264	7.93
577.456	7.92
577.647	7.75
577.839	7.96
578.031	7.89
578.223	7.89
578.414	7.64
578.606	7.9
578.798	7.98
578.989	7.8
579.181	7.85
579.372	7.84
579.564	7.86
579.755	7.77
579.947	7.79
580.139	7.84
580.33	7.72
580.522	7.78
580.713	7.74
580.905	7.74
581.096	7.86
581.287	7.78
581.479	7.72
581.67	7.82
581.862	7.73
582.053	7.72
582.244	7.64
582.436	7.81
582.627	7.71
582.818	7.63
583.01	7.71
583.201	7.68
583.392	7.68
583.583	7.64
583.775	7.49
583.966	7.66
584.157	7.67
584.348	7.67
584.54	7.57
584.731	7.63
584.922	7.59
585.113	7.43
585.304	7.6
585.495	7.61
585.686	7.68
585.877	7.66
586.068	7.66
586.259	7.63
586.45	7.57
586.641	7.56
586.832	7.59
587.023	7.52
587.214	7.54
587.405	7.57
587.596	7.38
587.787	7.44
587.978	7.52
588.169	7.42
588.36	7.37
588.551	7.39
588.742	7.44
588.932	7.46
589.123	7.29
589.314	7.52
589.505	7.35
589.696	7.35
589.886	7.38
590.077	7.35
590.268	7.24
590.458	7.19
590.649	7.15
590.84	7.38
591.03	7.35
591.221	7.25
591.412	7.17
591.602	7.41
591.793	7.29
591.984	7.27
592.174	7.25
592.365	7.32
592.555	7.12
592.746	7.13
592.936	7.19
593.127	7.17
593.317	7.22
593.508	7.24
593.698	7.11
593.889	7.1
594.079	7.12
594.269	7.06
594.46	7.02
594.65	7.11
594.84	7.05
595.031	6.98
595.221	6.97
595.411	6.98
595.602	7.07
595.792	6.94
595.982	6.93
596.172	7.08
596.363	6.83
596.553	6.89
596.743	6.95
596.933	6.9
597.123	6.89
597.314	6.75
597.504	6.85
597.694	7
597.884	6.83
598.074	6.85
598.264	6.82
598.454	6.83
598.644	6.8
598.834	6.76
599.024	6.68
599.214	6.71
599.404	6.85
599.594	6.66
599.784	6.65
599.974	6.78
600.164	6.67
600.354	6.62
600.544	6.53
600.734	6.64
600.924	6.61
601.114	6.55
601.303	6.5
601.493	6.56
601.683	6.59
601.873	6.52
602.063	6.45
602.252	6.52
602.442	6.49
602.632	6.42
602.821	6.43
603.011	6.51
603.201	6.49
603.39	6.46
603.58	6.26
603.77	6.42
603.959	6.49
604.149	6.4
604.339	6.37
604.528	6.42
604.718	6.43
604.907	6.3
605.097	6.22
605.286	6.28
605.476	6.28
605.665	6.25
605.855	6.22
606.044	6.31
606.234	6.24
606.423	6.18
606.612	6.25
606.802	6.13
606.991	6.29
607.181	6.27
607.37	6.13
607.559	5.93
607.749	6.1
607.938	5.99
608.127	6.03
608.316	6.03
608.506	6.07
608.695	6.02
608.884	5.97
609.073	6
609.263	6.11
609.452	6.06
609.641	5.9
609.83	5.8
610.019	5.97
610.208	5.84
610.397	5.89
610.586	5.87
610.775	5.87
610.965	5.82
611.154	5.75
611.343	5.77
611.532	5.72
611.721	5.85
611.91	5.71
612.099	5.75
612.287	5.57
612.476	5.55
612.665	5.78
612.854	5.58
613.043	5.65
613.232	5.68
613.421	5.56
613.61	5.57
613.798	5.55
613.987	5.65
614.176	5.55
614.365	5.6
614.554	5.52
614.742	5.54
614.931	5.37
615.12	5.62
615.309	5.5
615.497	5.36
615.686	5.34
615.875	5.39
616.063	5.39
616.252	5.37
616.44	5.33
616.629	5.31
616.818	5.31
617.006	5.28
617.195	5.26
617.383	5.22
617.572	5.19
617.76	5.19
617.949	5.22
618.137	5.26
618.326	5.25
618.514	5.08
618.703	5
618.891	5.18
619.079	5.07
619.268	5.2
619.456	5
619.644	5.13
619.833	5.08
620.021	5.09
620.209	4.93
620.398	5.04
620.586	4.92
620.774	5.01
620.962	4.92
621.151	5.08
621.339	4.97
621.527	4.81
621.715	4.88
621.903	4.84
622.092	4.78
622.28	4.9
622.468	4.69
622.656	4.79
622.844	4.78
623.032	4.8
623.22	4.66
623.408	4.84
623.596	4.69
623.784	4.79
623.972	4.64
624.16	4.69
624.348	4.72
624.536	4.75
624.724	4.62
624.912	4.67
625.1	4.66
625.288	4.64
625.476	4.52
625.664	4.62
625.851	4.53
626.039	4.54
626.227	4.51
626.415	4.55
626.603	4.38
626.79	4.45
626.978	4.48
627.166	4.52
627.354	4.38
627.541	4.37
627.729	4.24
627.917	4.52
628.104	4.46
628.292	4.32
628.48	4.37
628.667	4.3
628.855	4.42
629.042	4.38
629.23	4.26
629.418	4.27
629.605	4.23
629.793	4.15
629.98	4.22
630.168	4.19
630.355	4.2
630.543	4.17
630.73	4.05
630.917	4.09
631.105	4.29
631.292	4.07
631.48	4.06
631.667	4.21
631.854	4.03
632.042	4.07
632.229	4.01
632.416	4.03
632.604	3.97
632.791	3.87
632.978	4.05
633.165	3.94
633.353	3.99
633.54	3.95
633.727	3.81
633.914	3.87
634.101	3.86
634.289	3.99
634.476	3.76
634.663	3.74
634.85	3.81
635.037	3.73
635.224	3.69
635.411	3.79
635.598	3.74
635.785	3.7
635.972	3.71
636.159	3.73
636.346	3.64
636.533	3.65
636.72	3.62
636.907	3.66
637.094	3.68
637.281	3.53
637.468	3.63
637.655	3.65
637.842	3.62
638.029	3.53
638.215	3.57
638.402	3.54
638.589	3.47
638.776	3.46
638.963	3.43
639.149	3.57
639.336	3.55
639.523	3.48
639.709	3.47
639.896	3.41
640.083	3.39
640.27	3.42
640.456	3.33
640.643	3.35
640.829	3.22
641.016	3.28
641.203	3.23
641.389	3.38
641.576	3.32
641.762	3.27
641.949	3.19
642.135	3.26
642.322	3.2
642.508	3.14
642.695	3.22
642.881	3.15
643.068	3.17
643.254	3.14
643.441	3.21
643.627	3.23
643.813	3.06
644	3.12
644.186	3.01
644.372	3.09
644.559	3.1
644.745	3.07
644.931	2.99
645.118	3.06
645.304	3.04
645.49	2.97
645.676	2.94
645.862	2.98
646.049	3.09
646.235	2.96
646.421	3.06
646.607	3.05
646.793	2.9
646.979	2.88
647.165	2.93
647.352	2.9
647.538	2.9
647.724	2.85
647.91	2.79
648.096	2.86
648.282	2.89
648.468	2.78
648.654	2.8
648.84	2.89
649.026	2.83
649.212	2.71
649.397	2.67
649.583	2.71
649.769	2.76
649.955	2.69
650.141	2.71
650.327	2.76
650.513	2.6
650.698	2.68
650.884	2.54
651.07	2.7
651.256	2.64
651.442	2.62
651.627	2.47
651.813	2.63
651.999	2.6
652.184	2.59
652.37	2.53
652.556	2.54
652.741	2.63
652.927	2.41
653.113	2.5
653.298	2.5
653.484	2.51
653.669	2.46
653.855	2.46
654.04	2.51
654.226	2.49
654.412	2.43
654.597	2.36
654.782	2.47
654.968	2.46
655.153	2.44
655.339	2.37
655.524	2.37
655.71	2.43
655.895	2.32
656.08	2.36
656.266	2.43
656.451	2.36
656.636	2.27
656.822	2.29
657.007	2.25
657.192	2.31
657.378	2.26
657.563	2.24
657.748	2.26
657.933	2.24
658.118	2.2
658.304	2.18
658.489	2.32
658.674	2.21
658.859	2.14
659.044	2.14
659.229	2.23
659.414	2.14
659.599	2.15
659.785	2.07
659.97	2.13
660.155	2.14
660.34	2.13
660.525	2.1
660.71	2.04
660.895	2.11
661.08	2.06
661.264	2
661.449	2.12
661.634	2.07
661.819	2.13
662.004	2.04
662.189	1.95
662.374	1.98
662.559	1.95
662.743	1.92
662.928	2.01
663.113	1.96
663.298	1.94
663.483	1.91
663.667	1.94
663.852	1.87
664.037	1.93
664.221	1.9
664.406	1.99
664.591	1.94
664.775	1.92
664.96	1.85
665.145	1.9
665.329	1.96
665.514	1.82
665.698	1.82
665.883	1.74
666.068	1.91
666.252	1.89
666.437	1.76
666.621	1.86
666.806	1.8
666.99	1.83
667.174	1.79
667.359	1.84
667.543	1.78
667.728	1.76
667.912	1.62
668.096	1.78
668.281	1.77
668.465	1.75
668.649	1.7
668.834	1.68
669.018	1.69
669.202	1.75
669.387	1.69
669.571	1.76
669.755	1.67
669.939	1.66
670.124	1.64
670.308	1.7
670.492	1.64
670.676	1.62
670.86	1.58
671.044	1.57
671.228	1.68
671.413	1.52
671.597	1.56
671.781	1.61
671.965	1.64
672.149	1.61
672.333	1.62
672.517	1.53
672.701	1.55
672.885	1.58
673.069	1.48
673.253	1.6
673.437	1.57
673.621	1.47
673.804	1.5
673.988	1.55
674.172	1.48
674.356	1.42
674.54	1.52
674.724	1.61
674.908	1.52
675.091	1.5
675.275	1.46
675.459	1.5
675.643	1.51
675.826	1.47
676.01	1.4
676.194	1.46
676.377	1.53
676.561	1.5
676.745	1.43
676.928	1.46
677.112	1.48
677.296	1.36
677.479	1.39
677.663	1.35
677.846	1.44
678.03	1.41
678.213	1.33
678.397	1.44
678.58	1.32
678.764	1.32
678.947	1.3
679.131	1.32
679.314	1.49
679.498	1.33
679.681	1.34
679.865	1.43
680.048	1.28
680.231	1.3
680.415	1.33
680.598	1.26
680.781	1.32
680.965	1.26
681.148	1.29
681.331	1.23
681.514	1.36
681.698	1.22
681.881	1.27
682.064	1.27
682.247	1.28
682.43	1.19
682.614	1.26
682.797	1.37
682.98	1.27
683.163	1.18
683.346	1.25
683.529	1.22
683.712	1.15
683.895	1.31
684.078	1.13
684.261	1.18
684.444	1.27
684.627	1.26
684.81	1.1
684.993	1.12
685.176	1.22
685.359	1.14
685.542	1.09
685.725	1.27
685.908	1.14
686.091	1.11
686.274	1.21
686.457	1.18
686.639	1.13
686.822	1.2
687.005	1.1
687.188	1.21
687.371	1.25
687.553	1.19
687.736	1.14
687.919	1.24
688.102	1.19
688.284	1.04
688.467	1.08
688.65	1.02
688.832	1
689.015	0.97
689.197	1.02
689.38	1.15
689.563	1.17
689.745	1.02
689.928	1
690.11	1.05
690.293	1.02
690.475	0.89
690.658	1.03
690.84	1.05
691.023	1
691.205	1.03
691.388	1.05
691.57	1.05
691.752	1.05
691.935	0.88
692.117	0.92
692.3	1
692.482	1.02
692.664	0.95
692.847	0.94
693.029	1.07
693.211	1.01
693.393	0.98
693.576	0.9
693.758	0.98
693.94	1
694.122	0.9
694.304	0.94
694.487	0.92
694.669	1.02
694.851	0.85
695.033	0.92
695.215	0.91
695.397	0.86
695.579	0.9
695.761	0.88
695.943	0.82
696.125	1.01
696.308	0.91
696.49	0.76
696.671	1.09
696.853	0.94
697.035	1.17
697.217	0.88
697.399	0.99
697.581	0.81
697.763	0.92
697.945	0.77
698.127	0.88
698.309	0.93
698.491	0.92
698.672	0.89
698.854	0.94
699.036	0.96
699.218	0.81
699.399	0.86
699.581	0.93
699.763	0.82
699.945	0.8
700.126	0.72
700.308	0.85
700.49	0.81
700.671	0.75
700.853	0.72
701.035	0.77
701.216	0.81
701.398	0.72
701.579	0.83
701.761	0.84
701.943	0.75
702.124	0.75
702.306	0.71
702.487	0.99
702.669	0.83
702.85	0.77
703.031	0.66
703.213	0.9
703.394	0.79
703.576	0.74
703.757	0.92
703.938	0.84
704.12	0.96
704.301	0.72
704.483	0.69
704.664	0.83
704.845	0.89
705.026	0.76
705.208	0.76
705.389	0.74
705.57	0.76
705.751	0.73
705.933	0.72
706.114	0.83
706.295	0.81
706.476	0.68
706.657	0.86
706.838	0.77
707.02	0.79
707.201	0.66
707.382	0.74
707.563	0.75
707.744	0.79
707.925	0.68
708.106	0.62
708.287	0.71
708.468	0.85
708.649	0.74
708.83	0.73
709.011	0.7
709.192	0.72
709.373	0.67
709.554	0.69
709.734	0.76
709.915	0.72
710.096	0.7
710.277	0.45
710.458	0.65
710.639	0.75
710.819	0.55
711	0.58
711.181	0.74
711.362	0.81
711.542	0.67
711.723	0.64
711.904	0.81
712.085	0.78
712.265	0.7
712.446	0.54
712.627	0.61
712.807	0.68
712.988	0.57
713.168	0.55
713.349	0.67
713.53	0.43
713.71	0.58
713.891	0.56
714.071	0.66
714.252	0.66
714.432	0.58
714.613	0.53
714.793	0.6
714.974	0.75
715.154	0.68
715.334	0.63
715.515	0.79
715.695	0.46
715.876	0.56
716.056	0.57
716.236	0.54
716.417	0.62
716.597	0.57
716.777	0.78
716.957	0.63
717.138	0.62
717.318	0.59
717.498	0.48
717.678	0.63
717.859	0.62
718.039	0.49
718.219	0.56
718.399	0.6
718.579	0.53
718.759	0.49
718.939	0.62
719.12	0.62
719.3	0.57
719.48	0.45
719.66	0.45
719.84	0.71
720.02	0.61
720.2	0.51
720.38	0.48
720.56	0.73
720.74	0.44
720.92	0.55
721.1	0.76
721.279	0.6
721.459	0.58
721.639	0.46
721.819	0.5
721.999	0.54
722.179	0.65
722.359	0.35
722.538	0.46
722.718	0.6
722.898	0.55
723.078	0.51
723.257	0.51
723.437	0.61
723.617	0.64
723.797	0.52
723.976	0.52
724.156	0.61
724.336	0.68
724.515	0.72
724.695	0.43
724.874	0.48
725.054	0.6
725.234	0.5
725.413	0.5
725.593	0.46
725.772	0.61
725.952	0.49
726.131	0.51
726.311	0.54
726.49	0.53
726.67	0.45
726.849	0.37
727.028	0.57
727.208	0.46
727.387	0.44
727.567	0.42
727.746	0.46
727.925	0.53
728.105	0.42
728.284	0.47
728.463	0.49
728.643	0.63
728.822	0.4
729.001	0.37
729.18	0.52
729.359	0.6
729.539	0.58
729.718	0.35
729.897	0.59
730.076	0.44
730.255	0.42
730.434	0.48
730.614	0.59
730.793	0.63
730.972	0.38
731.151	0.44
731.33	0.59
731.509	0.63
731.688	0.48
731.867	0.51
732.046	0.28
732.225	0.78
732.404	0.41
732.583	0.35
732.762	0.49
732.941	0.59
733.12	0.43
733.298	0.48
733.477	0.65
733.656	0.47
733.835	0.33
734.014	0.55
734.193	0.55
734.371	0.53
734.55	0.57
734.729	0.4
734.908	0.45
735.086	0.53
735.265	0.68
735.444	0.33
735.623	0.31
735.801	0.42
735.98	0.44
736.159	0.45
736.337	0.6
736.516	0.5
736.694	0.59
736.873	0.45
737.052	0.76
737.23	0.65
737.409	0.5
737.587	0.79
737.766	0.38
737.944	0.38
738.123	0.51
738.301	0.59
738.479	0.57
738.658	0.62
738.836	0.34
739.015	0.55
739.193	0.63
739.371	0.34
739.55	0.52
739.728	0.41
739.906	0.54
740.085	0.67
740.263	0.51
740.441	0.29
740.62	0.73
740.798	0.6
740.976	0.36
741.154	0.34
741.332	0.64
741.511	0.37
741.689	0.32
741.867	0.5
742.045	0.65
742.223	0.4
742.401	0.33
742.579	0.32
742.757	0.54
742.935	0.36
743.114	0.42
743.292	0.42
743.47	0.42
743.648	0.51
743.826	0.24
744.004	0.49
744.181	0.7
744.359	0.37
744.537	0.55
744.715	0.4
744.893	0.5
745.071	0.55
745.249	0.49
745.427	0.38
745.605	0.48
745.782	0.45
745.96	0.47
746.138	0.56
746.316	0.6
746.493	0.4
746.671	0.42
746.849	0.26
747.027	0.63
747.204	0.3
747.382	0.47
747.56	0.21
747.737	0.55
747.915	0.3
748.093	0.48
748.27	0.33
748.448	0.43
748.625	0.27
748.803	0.34
748.98	0.3
749.158	0.58
749.335	0.46
749.513	0.37
749.69	0.31
749.868	0.45
750.045	0.54
750.223	0.36
750.4	0.15
750.578	0.69
750.755	0.44
750.932	0.22
751.11	0.48
751.287	0.37
751.464	0.58
751.642	0.38
751.819	0.5
751.996	0.4
752.173	0.35
752.351	0.3
752.528	0.39
752.705	0.47
752.882	0.3
753.06	0.34
753.237	0.42
753.414	0.64
753.591	0.7
753.768	0.47
753.945	0.26
754.122	0.35
754.299	0.52
754.476	0.28
754.654	0.29
754.831	0.4
755.008	0.43
755.185	0.35
755.362	0.28
755.539	0.46
755.716	0.32
755.892	0.39
756.069	0.23
756.246	0.43
756.423	0.39
756.6	0.61
756.777	0.37
756.954	0.61
757.131	0.41
757.307	0.29
757.484	0.2
757.661	0.39
757.838	0.49
758.015	0.21
758.191	0.38
758.368	0.57
758.545	0.58
758.721	0.41
758.898	0.31
759.075	0.37
759.251	0.46
759.428	0.42
759.605	0.19
759.781	0.34
759.958	0.51
760.134	0.36
760.311	0.13
760.488	0.64
760.664	0.61
760.841	0.39
761.017	0.31
761.194	0.44
761.37	0.57
761.547	0.36
761.723	0.2
761.899	0.51
762.076	0.28
762.252	0.24
762.429	0.24
762.605	0.64
762.781	0.33
762.958	0.41
763.134	0.25
763.31	0.21
763.486	0.6
763.663	0.16
763.839	0.42
764.015	0.07
764.191	0.27
764.368	0.29
764.544	0.27
764.72	0.45
764.896	0.41
765.072	0.44
765.248	0.3
765.425	0.37
765.601	0.45
765.777	0.35
765.953	0.05
766.129	0.26
766.305	0.18
766.481	0.46
766.657	0.35
766.833	0.5
767.009	0.11
767.185	0.35
767.361	0.37
767.537	0.24
767.713	0.58
767.889	0.27
768.065	0.31
768.24	0.27
768.416	0.58
768.592	0.38
768.768	0.36
768.944	0.44
769.12	0.26
769.295	0.34
769.471	0.31
769.647	0.29
769.823	0.55
769.998	0.31
770.174	0.19
770.35	0.75
770.525	0.54
770.701	0.3
770.877	0.39
771.052	0.25
771.228	0.66
771.403	0.21
771.579	0.51
771.755	0.78
771.93	0.29
772.106	0.31
772.281	0.02
772.457	0.28
772.632	0.39
772.808	0.14
772.983	0.23
773.159	0.25
773.334	0.68
773.509	0.4
773.685	0.29
773.86	0.95
774.036	0.57
774.211	0.52
774.386	0.33
774.562	0.5
774.737	0.74
774.912	0.32
775.087	0.43
775.263	0.34
775.438	0.26
775.613	0.27
775.788	0.36
775.964	0.59
776.139	0.96
776.314	0.11
776.489	0.43
776.664	0.47
776.839	0.08
777.014	0.49
777.19	0.41
777.365	0.74
777.54	0.83
777.715	0.16
777.89	0.41
778.065	0.17
778.24	0.47
778.415	0.53
778.59	0.01
778.765	0.33
778.94	0.55
779.115	0.33
779.289	0.19
779.464	0.35
779.639	0.29
779.814	0.16
779.989	0.26
780.164	0.69
780.339	0.53
780.513	0.24
780.688	0.07
780.863	0.46
781.038	0.76
781.212	0.13
781.387	0.16
781.562	0.73
781.737	0.29
781.911	0.53
782.086	0.09
782.261	0.38
782.435	0.83
782.61	0.27
782.784	0.38
782.959	0.75
783.134	0.27
783.308	0.27
783.483	0.3
783.657	0.88
783.832	0.76
784.006	0.2
784.181	0.49
784.355	0.63
784.53	0.33
784.704	0.2
784.878	0.58
785.053	0.6
785.227	0.75
785.402	0.75
785.576	0.22
785.75	0.41
785.925	0.42
786.099	0.49
786.273	0.57
786.448	0.77
786.622	0.7
786.796	0.52
786.97	0.48
787.145	1.18
787.319	0.02
787.493	0.32
787.667	0.08
787.841	0.47
788.015	1.06
788.19	0.25
788.364	0.38
788.538	0.74
788.712	0.54
788.886	0.39
789.06	0.5
789.234	0.71
789.408	0.19
789.582	0.37
789.756	0.49
789.93	0.19
790.104	0.5
790.278	0.43
790.452	0.22
790.626	0.65
790.8	0.26
790.973	0.69
791.147	0.56
791.321	0.97
791.495	0.64
791.669	0.29
791.843	0.52
792.016	0.6
792.19	1.08
792.364	0.23
792.538	1.11
792.711	0.92
792.885	0.26
793.059	0.05
793.233	-0.05
793.406	0.63
793.58	0.51
793.754	0.7
793.927	0.38
794.101	0.69
794.274	0.33
794.448	0.85
794.622	0.04
794.795	1.14
794.969	0.29
795.142	0.89
795.316	0.31
795.489	0.18
795.663	0.86
795.836	0.4
796.009	0.17
796.183	0.97
796.356	0.67
796.53	0.52
796.703	0.38
796.876	1.36
797.05	0.35
797.223	0.22
797.396	0.48
797.57	0.53
797.743	0.97
797.916	0.48
798.09	0.36
798.263	0.74
798.436	0.7
798.609	0.54
798.782	0.41
798.956	0.7
799.129	0.73
799.302	0.36
799.475	0.2
799.648	0.53
799.821	0.36
799.994	0.39
800.167	-0.05
800.34	0.32
800.514	0.75
800.687	0.08
800.86	0.31
801.033	0.99
801.206	0.68
801.379	0.29
801.551	0.86
801.724	0.97
801.897	1.19
802.07	0.48
802.243	-0.19
802.416	0.57
802.589	0.49
802.762	0.68
802.935	0.36
803.107	0.81
803.28	1.07
803.453	0.75
803.626	0.28
803.798	0.73
803.971	0.61
804.144	0.69
804.317	0.29
804.489	0.87
804.662	0.66
804.835	0.31
805.007	0.15
805.18	1.03
805.353	0.63
805.525	0.3
805.698	0.47
805.87	0.82
806.043	0.85
806.215	0.15
806.388	0.16
806.56	0.47
806.733	1.23
806.905	0.48
807.078	-0.01
807.25	0.46
807.423	1
807.595	0.9
807.768	0.51
807.94	0.83
808.112	0.64
808.285	0.44
808.457	0.2
808.629	0.71
808.802	0.58
808.974	0.54
809.146	0.56
809.318	0.4
809.491	0.73
809.663	1.05
809.835	0.25
810.007	0.61
810.18	0.72
810.352	0.03
810.524	0
810.696	1.2
810.868	1.42
811.04	0.81
811.212	0.69
811.384	0.67
811.556	0.91
811.728	0.42
811.901	1.65
812.073	0.46
812.245	1.07
812.417	0.67
812.589	-0.04
812.76	0.8
812.932	0.72
813.104	1.39
813.276	0.6
813.448	0.77
813.62	0.58
813.792	0.33
813.964	0.44
814.136	1.23
814.307	0.71
814.479	0.07
814.651	0.33
814.823	1.39
814.995	0.28
815.166	0.42
815.338	0.46
815.51	0.25
815.681	2
815.853	0.32
816.025	0.48
816.196	1.76
816.368	1.08
816.54	-0.07
816.711	0.19
816.883	1.06
817.054	2.26
817.226	-0.07
817.398	0.85
817.569	0.41
817.741	0.75
817.912	0.51
818.084	0.62
818.255	1.59
818.426	0.29
818.598	0.66
818.769	0.05
818.941	1.37
819.112	1.83
819.283	0.89
819.455	0.24
819.626	0.74
819.798	0.87
819.969	0.38
820.14	0.28
820.311	0.78
820.483	1.03
820.654	1.05
820.825	0.5
820.996	0.28
821.168	0.63
821.339	0.55
821.51	-0.26
821.681	0.64
821.852	1.15
822.023	-0.07
822.195	-0.5
822.366	1.27
822.537	1.06
822.708	1.12
822.879	0.31
823.05	1.12
823.221	0.53
823.392	1.02
823.563	1.46
823.734	0.51
823.905	0.97
824.076	0.12
824.247	0.5
824.418	0.89
824.589	1.89
824.759	0.33
824.93	0.29
825.101	-0.03
825.272	1.69
825.443	1.13
825.614	1.4
825.784	-0.06
825.955	1.67
826.126	1.47
826.297	0.45
826.467	1.63
826.638	2.48
826.809	-0.32
826.98	0.3
827.15	1.48
827.321	1.1
827.492	1.61
827.662	0.47
827.833	2.2
828.003	1.64
828.174	0.26
828.345	-0.05
828.515	1.77
828.686	1.48
828.856	0.27
829.027	0.6
829.197	1.76
829.368	0.66
829.538	0.32
829.709	0.6
829.879	1.22
830.049	1.07
830.22	0.65
830.39	0.44
830.56	1.73
830.731	1.25
830.901	0.45
831.072	1.16
831.242	0.98
831.412	1.49
831.582	0.93
831.753	-0.25
831.923	1.93
832.093	1.49
832.263	0.69
832.434	-0.13
832.604	0.14
832.774	1.55
832.944	0.91
833.114	0.78
833.284	1.57
833.454	0.75
833.624	0.35
833.795	0.68
833.965	1.58
834.135	1.88
834.305	-0.97
834.475	-0.15
834.645	0.8
834.815	0.84
834.985	0.17
835.155	0.01
835.325	1.91
835.494	1.73
835.664	0.55
835.834	-0
836.004	1.59
836.174	1.34
836.344	0.83
836.514	0.33
836.684	0.4
836.853	1.35
837.023	1.12
837.193	-0.55
837.363	1.87
837.532	2.27
837.702	0.78
837.872	0.07
838.041	1.88
838.211	2.31
838.381	-0.72
838.55	0.34
838.72	4
838.89	3.06
839.059	0.74
839.229	0.27
839.398	3.87
839.568	1.8
839.738	0.56
839.907	1.86
840.077	1.66
840.246	0.95
840.416	-0.17
840.585	-0.51
840.755	2.69
840.924	2.06
841.093	0.58
841.263	0.34
841.432	1.09
841.602	0.81
841.771	0.14
841.94	0.82
842.11	3.26
842.279	3.24
842.448	0.62
842.617	0.39
842.787	2.11
842.956	-0.11
843.125	0.42
843.294	0.7
843.464	2.53
843.633	1.51
843.802	0.8
843.971	0.7
844.14	2.59
844.309	2.36
844.479	-0.88
844.648	0.25
844.817	1
844.986	1.67
845.155	0.71
845.324	0.55
845.493	0.88
845.662	0.44
845.831	1.37
846	1.49
846.169	0.22
846.338	2.56
846.507	1.15
846.676	1.73
846.844	1.06
847.013	1.05
847.182	0.87
847.351	0.41
847.52	1.34
847.689	1.35
847.858	1.08
848.026	0.71
848.195	0.88
848.364	1.23
848.533	-0.22
848.701	0.05
848.87	2.31
849.039	2.63
849.207	1.54
849.376	2.5
849.545	3.62
849.713	0.81
849.882	1.09
850.051	0.87
850.219	0.86
850.388	2.38
850.556	-0.08
850.725	0.82
850.893	1.9
851.062	0.38
851.23	0.97
851.399	-0.54
851.567	0.9
851.736	1.69
851.904	0.11
852.073	0.38
852.241	2.12
852.41	2.16
852.578	2.19
852.746	0.48
852.915	2.24
853.083	1.34
853.251	0.31
853.42	0.44
853.588	1.45
853.756	2.77
853.924	1.11
854.093	1.83
854.261	1.61
854.429	-0.34
854.597	1.29
854.765	0.2
854.934	2.07
855.102	3.8
855.27	1
855.438	2.1
855.606	3.14
855.774	3.91
855.942	0.5
856.11	-0.27
856.278	2.02
856.446	3.12
856.614	1.99
856.782	0.15
856.95	3.16
857.118	1.74
857.286	2.52
857.454	0.45
857.622	2.46
857.79	2.38
857.958	-0.8
858.126	1.03
858.294	-1.22
858.462	0.45
858.629	-0.64
858.797	-0.12
858.965	2.96
859.133	1.56
859.301	2.27
859.468	2.11
859.636	0.1
859.804	4.47
859.971	1.89
860.139	0.43
860.307	2.5
860.474	2.49
860.642	0.18
860.81	0.9
860.977	0.68
861.145	3.69
861.313	0.79
861.48	1.75
861.648	2.5
861.815	0.33
861.983	-0.11
862.15	0.39
862.318	3.6
862.485	3.93
862.653	0.76
862.82	0.32
862.988	4.29
863.155	3.06
863.322	1.13
863.49	-1.01
863.657	0.84
863.824	4.31
863.992	3.08
864.159	2.9
864.326	3.39
864.494	0.68
864.661	3.93
864.828	-0.48
864.996	4.06
865.163	3.71
865.33	0.94
865.497	-1.38
865.664	0.02
865.832	0.02
865.999	1.44
866.166	0.67
866.333	2.48
866.5	0.99
866.667	1.01
866.834	1.11
867.001	5.05
867.168	-1.45
867.335	0.55
867.502	-0.6
867.669	2.53
867.836	5.43
868.003	1.96
868.17	3.01
868.337	2.17
868.504	6.32
868.671	-0.83
868.838	0.26
869.005	4.38
869.172	2.2
869.339	1.51
869.505	1.97
869.672	4.32
869.839	3.81
870.006	1.44
870.173	-0.12
870.339	2.43
870.506	6.01
870.673	-1.07
870.84	2.33
871.006	1.89
871.173	2.7
871.34	1.51
871.506	0.02
871.673	3.76
871.839	-0.06
872.006	2.02
872.173	-1.57
872.339	2.99
872.506	4.25
872.672	0.85
872.839	-0.93
873.005	4.25
873.172	5.21
873.338	4.08
873.505	1.18
873.671	2.43
873.838	2.67
874.004	-0.64
874.171	0.57
874.337	4.32
874.503	3.63
874.67	2.29
874.836	1.26
875.002	5.69
875.169	4.66
875.335	1.75
875.501	0.53
875.668	1.59
875.834	2.11
876	0.24
876.166	3.14
876.332	3.22
876.499	7.03
876.665	0.57
876.831	0.68
876.997	6.45
877.163	2.93
877.329	0.81
877.495	1.63
877.662	2.79
877.828	1.42
877.994	0.98
878.16	-1.27
878.326	0.97
878.492	4.32
878.658	1.56
878.824	3.92
878.99	4.6
879.156	1.66
879.322	4.15
879.487	2.19
879.653	2.12
879.819	1.48
879.985	1.01
880.151	1.83
880.317	3.15
880.483	3.59
880.648	4.32
880.814	-1.64
880.98	5.12
881.146	-1.66
881.312	1.34
881.477	2.5
881.643	2.86
881.809	4.28
881.974	4.54
882.14	-1.31
882.306	3.86
882.471	7.45
882.637	0.83
882.803	3.81
882.968	4.03
883.134	6.36
883.299	0.04
883.465	1.11
883.63	3.38
883.796	3.31
883.961	2.7
884.127	3.76
884.292	-4.36
884.458	0.71
884.623	0.71
