Data from Apollo_Calib_20240827__AbsoluteIrradiance__897__14-06-02-719.txt Node

Date: Wed Aug 28 14:06:02 BST 2024
User: biology
Spectrometer: FLMT08252
Trigger mode: 0
Integration Time (sec): 5.000000E-1
Scans to average: 5
Electric dark correction enabled: true
Nonlinearity correction enabled: false
Boxcar width: 0
XAxis mode: Wavelengths
Number of Pixels in Spectrum: 3648
>>>>>Begin Spectral Data<<<<<
179.588	-0
179.809	-0
180.03	-0
180.251	-0
180.473	-0
180.694	0
180.915	0
181.136	-0
181.357	0
181.578	-0
181.799	0
182.02	-0
182.241	-0
182.462	-0
182.683	0
182.904	-0
183.125	-0
183.346	0
183.567	0
183.788	0
184.009	0
184.23	0
184.451	0
184.672	0
184.892	0
185.113	0
185.334	0
185.555	0
185.776	0
185.996	0
186.217	0
186.438	0
186.659	0
186.879	0
187.1	0
187.321	0
187.541	0
187.762	0
187.983	0
188.203	0
188.424	0
188.644	0
188.865	0
189.086	0
189.306	0
189.527	0
189.747	0
189.968	0
190.188	0
190.409	0
190.629	0
190.849	0
191.07	0
191.29	0
191.511	0
191.731	0
191.951	0
192.172	0
192.392	0
192.612	0
192.833	0
193.053	0
193.273	0
193.493	0
193.714	0
193.934	0
194.154	0
194.374	0
194.594	0
194.815	0
195.035	0
195.255	0
195.475	0
195.695	0
195.915	0
196.135	0
196.355	0
196.575	0
196.795	0
197.015	0
197.235	0
197.455	0
197.675	0
197.895	0
198.115	0
198.335	0
198.555	0
198.775	0
198.995	0
199.214	0
199.434	0
199.654	0
199.874	0
200.094	4.14
200.313	2.41
200.533	2.17
200.753	1.58
200.973	3.98
201.192	3.4
201.412	1.23
201.632	2.16
201.851	4.08
202.071	1.49
202.291	1.4
202.51	1.75
202.73	3.02
202.95	2.24
203.169	1.52
203.389	2.06
203.608	2.29
203.828	1.91
204.047	1.5
204.267	2.31
204.486	2.24
204.706	2.43
204.925	2.07
205.145	1.15
205.364	2.21
205.583	2.71
205.803	1.19
206.022	1.1
206.242	1.76
206.461	1.66
206.68	1.19
206.9	1.6
207.119	2.69
207.338	2.28
207.557	1.26
207.777	1.45
207.996	1.57
208.215	2.1
208.434	1.04
208.654	0.66
208.873	1.65
209.092	2.37
209.311	0.69
209.53	1.09
209.749	1.09
209.968	1.15
210.187	1.17
210.407	0.68
210.626	1.21
210.845	1.61
211.064	1.2
211.283	0.8
211.502	1.49
211.721	1.31
211.94	0.92
212.159	1.36
212.377	1.75
212.596	1.47
212.815	1.29
213.034	1.22
213.253	1.64
213.472	1.4
213.691	0.79
213.91	0.83
214.128	0.63
214.347	1.56
214.566	0.35
214.785	0.57
215.003	1.37
215.222	1.3
215.441	0.93
215.66	0.51
215.878	1.15
216.097	1.4
216.316	0.84
216.534	0.97
216.753	1.05
216.972	1.04
217.19	0.81
217.409	0.51
217.627	0.66
217.846	0.82
218.064	0.95
218.283	0.75
218.501	1.28
218.72	1.08
218.938	0.65
219.157	0.7
219.375	1.11
219.594	1.03
219.812	0.44
220.031	0.61
220.249	1.27
220.467	1.26
220.686	0.48
220.904	0.37
221.122	0.76
221.341	1.13
221.559	0.84
221.777	0.4
221.995	0.92
222.214	0.92
222.432	0.6
222.65	0.8
222.868	0.63
223.086	0.81
223.305	1
223.523	0.8
223.741	1.09
223.959	0.8
224.177	0.45
224.395	0.61
224.613	0.83
224.831	0.92
225.049	0.36
225.267	0.58
225.485	0.88
225.703	0.6
225.921	0.58
226.139	0.45
226.357	0.8
226.575	0.86
226.793	0.38
227.011	1.56
227.229	0.88
227.447	0.88
227.665	0.63
227.883	0.31
228.1	0.78
228.318	0.76
228.536	0.41
228.754	0.44
228.972	0.82
229.189	0.79
229.407	0.6
229.625	0.45
229.843	0.93
230.06	0.76
230.278	0.48
230.496	0.62
230.713	0.67
230.931	0.79
231.149	0.41
231.366	0.34
231.584	0.6
231.801	1.02
232.019	0.46
232.236	0.4
232.454	0.42
232.671	0.65
232.889	0.41
233.106	0.41
233.324	0.71
233.541	0.45
233.759	0.47
233.976	0.43
234.194	0.54
234.411	0.61
234.628	0.36
234.846	0.55
235.063	0.62
235.28	0.51
235.498	0.48
235.715	0.35
235.932	0.78
236.149	0.58
236.367	0.4
236.584	0.58
236.801	0.46
237.018	0.7
237.236	0.37
237.453	0.32
237.67	0.78
237.887	0.6
238.104	0.39
238.321	0.36
238.538	0.42
238.755	0.73
238.973	0.27
239.19	0.45
239.407	0.67
239.624	0.66
239.841	0.37
240.058	0.39
240.275	0.5
240.492	0.56
240.709	0.48
240.925	0.43
241.142	0.52
241.359	0.39
241.576	0.28
241.793	0.43
242.01	0.4
242.227	0.67
242.444	0.48
242.66	0.56
242.877	0.47
243.094	0.51
243.311	0.45
243.527	0.32
243.744	0.62
243.961	0.51
244.178	0.39
244.394	0.41
244.611	0.65
244.828	0.79
245.044	0.31
245.261	0.38
245.477	0.5
245.694	0.6
245.911	0.26
246.127	0.42
246.344	0.73
246.56	0.55
246.777	0.39
246.993	0.45
247.21	0.49
247.426	0.52
247.643	0.41
247.859	0.36
248.076	0.35
248.292	0.68
248.508	0.3
248.725	0.52
248.941	0.52
249.157	0.56
249.374	0.35
249.59	0.41
249.806	0.47
250.023	0.4
250.239	0.32
250.455	0.3
250.671	0.41
250.888	0.51
251.104	0.44
251.32	0.36
251.536	0.37
251.752	0.46
251.969	0.38
252.185	0.42
252.401	0.7
252.617	0.49
252.833	0.35
253.049	0.48
253.265	0.39
253.481	0.45
253.697	0.28
253.913	0.32
254.129	0.52
254.345	0.38
254.561	0.44
254.777	0.32
254.993	0.53
255.209	0.44
255.425	0.34
255.641	0.3
255.857	0.53
256.073	0.48
256.288	0.28
256.504	0.35
256.72	0.47
256.936	0.64
257.152	0.39
257.367	0.26
257.583	0.46
257.799	0.48
258.015	0.31
258.23	0.37
258.446	0.59
258.662	0.35
258.877	0.27
259.093	0.29
259.309	0.46
259.524	0.41
259.74	0.26
259.955	0.26
260.171	0.42
260.387	0.41
260.602	0.43
260.818	0.4
261.033	0.34
261.249	0.35
261.464	0.29
261.68	0.29
261.895	0.41
262.11	0.51
262.326	0.36
262.541	0.24
262.757	0.49
262.972	0.43
263.187	0.4
263.403	0.36
263.618	0.46
263.833	0.39
264.049	0.3
264.264	0.26
264.479	0.41
264.694	0.53
264.91	0.23
265.125	0.28
265.34	0.45
265.555	0.57
265.77	0.38
265.986	0.24
266.201	0.44
266.416	0.49
266.631	0.3
266.846	0.34
267.061	0.47
267.276	0.5
267.491	0.19
267.706	0.35
267.921	0.39
268.136	0.36
268.351	0.37
268.566	0.22
268.781	0.49
268.996	0.47
269.211	0.37
269.426	0.29
269.641	0.38
269.856	0.49
270.071	0.28
270.285	0.23
270.5	0.43
270.715	0.42
270.93	0.36
271.145	0.35
271.359	0.44
271.574	0.28
271.789	0.35
272.004	0.27
272.218	0.38
272.433	0.43
272.648	0.31
272.862	0.41
273.077	0.36
273.292	0.38
273.506	0.24
273.721	0.38
273.936	0.44
274.15	0.43
274.365	0.29
274.579	0.4
274.794	0.42
275.008	0.37
275.223	0.21
275.437	0.31
275.652	0.4
275.866	0.36
276.081	0.33
276.295	0.31
276.509	0.34
276.724	0.37
276.938	0.32
277.153	0.36
277.367	0.35
277.581	0.27
277.796	0.28
278.01	0.21
278.224	0.37
278.438	0.48
278.653	0.22
278.867	0.23
279.081	0.22
279.295	0.31
279.51	0.27
279.724	0.18
279.938	0.43
280.152	0.36
280.366	0.27
280.58	0.29
280.794	0.46
281.008	0.34
281.222	0.38
281.437	0.49
281.651	0.39
281.865	0.41
282.079	0.25
282.293	0.21
282.507	0.28
282.721	0.27
282.935	0.27
283.148	0.19
283.362	0.27
283.576	0.26
283.79	0.33
284.004	0.19
284.218	0.42
284.432	0.22
284.646	0.31
284.859	0.28
285.073	0.27
285.287	0.37
285.501	0.37
285.714	0.26
285.928	0.37
286.142	0.4
286.356	0.29
286.569	0.22
286.783	0.44
286.997	0.41
287.21	0.3
287.424	0.26
287.637	0.3
287.851	0.2
288.065	0.36
288.278	0.3
288.492	0.36
288.705	0.31
288.919	0.34
289.132	0.18
289.346	0.41
289.559	0.21
289.773	0.26
289.986	0.3
290.2	0.33
290.413	0.42
290.626	0.23
290.84	0.23
291.053	0.3
291.267	0.39
291.48	0.26
291.693	0.26
291.906	0.22
292.12	0.3
292.333	0.25
292.546	0.24
292.76	0.4
292.973	0.31
293.186	0.36
293.399	0.22
293.612	0.34
293.826	0.24
294.039	0.3
294.252	0.28
294.465	0.33
294.678	0.25
294.891	0.27
295.104	0.22
295.317	0.27
295.53	0.31
295.743	0.28
295.956	0.26
296.169	0.39
296.382	0.35
296.595	0.23
296.808	0.23
297.021	0.4
297.234	0.35
297.447	0.25
297.66	0.26
297.873	0.39
298.086	0.35
298.299	0.19
298.511	0.19
298.724	0.29
298.937	0.22
299.15	0.24
299.363	0.24
299.575	0.35
299.788	0.34
300.001	0.22
300.213	0.22
300.426	0.27
300.639	0.22
300.852	0.19
301.064	0.28
301.277	0.37
301.489	0.33
301.702	0.3
301.915	0.22
302.127	0.28
302.34	0.31
302.552	0.28
302.765	0.2
302.977	0.36
303.19	0.22
303.402	0.18
303.615	0.24
303.827	0.24
304.04	0.28
304.252	0.34
304.464	0.28
304.677	0.42
304.889	0.32
305.102	0.25
305.314	0.26
305.526	0.32
305.739	0.36
305.951	0.22
306.163	0.23
306.375	0.32
306.588	0.24
306.8	0.24
307.012	0.21
307.224	0.27
307.436	0.37
307.649	0.15
307.861	0.28
308.073	0.34
308.285	0.22
308.497	0.21
308.709	0.23
308.921	0.26
309.133	0.36
309.346	0.25
309.558	0.27
309.77	0.35
309.982	0.35
310.194	0.32
310.406	0.24
310.617	0.36
310.829	0.3
311.041	0.28
311.253	0.19
311.465	0.26
311.677	0.3
311.889	0.29
312.101	0.19
312.313	0.31
312.524	0.37
312.736	0.19
312.948	0.24
313.16	0.35
313.372	0.35
313.583	0.28
313.795	0.24
314.007	0.23
314.218	0.31
314.43	0.26
314.642	0.19
314.853	0.19
315.065	0.31
315.277	0.24
315.488	0.25
315.7	0.27
315.912	0.29
316.123	0.27
316.335	0.29
316.546	0.44
316.758	0.28
316.969	0.25
317.181	0.24
317.392	0.26
317.604	0.36
317.815	0.16
318.026	0.22
318.238	0.26
318.449	0.3
318.661	0.13
318.872	0.19
319.083	0.17
319.295	0.34
319.506	0.22
319.717	0.32
319.929	0.34
320.14	0.31
320.351	0.27
320.562	0.19
320.774	0.3
320.985	0.23
321.196	0.23
321.407	0.17
321.618	0.34
321.829	0.3
322.041	0.33
322.252	0.29
322.463	0.29
322.674	0.3
322.885	0.24
323.096	0.21
323.307	0.25
323.518	0.31
323.729	0.24
323.94	0.23
324.151	0.23
324.362	0.28
324.573	0.26
324.784	0.26
324.995	0.29
325.206	0.32
325.417	0.26
325.628	0.18
325.838	0.26
326.049	0.3
326.26	0.32
326.471	0.21
326.682	0.32
326.892	0.31
327.103	0.19
327.314	0.23
327.525	0.32
327.735	0.22
327.946	0.22
328.157	0.21
328.368	0.31
328.578	0.29
328.789	0.3
328.999	0.27
329.21	0.26
329.421	0.36
329.631	0.25
329.842	0.24
330.052	0.28
330.263	0.31
330.473	0.34
330.684	0.19
330.894	0.29
331.105	0.29
331.315	0.28
331.526	0.22
331.736	0.38
331.947	0.31
332.157	0.27
332.367	0.17
332.578	0.29
332.788	0.35
332.999	0.27
333.209	0.28
333.419	0.2
333.629	0.27
333.84	0.3
334.05	0.26
334.26	0.37
334.47	0.31
334.681	0.36
334.891	0.2
335.101	0.32
335.311	0.38
335.521	0.25
335.732	0.18
335.942	0.37
336.152	0.3
336.362	0.26
336.572	0.31
336.782	0.34
336.992	0.23
337.202	0.23
337.412	0.21
337.622	0.27
337.832	0.28
338.042	0.27
338.252	0.2
338.462	0.24
338.672	0.26
338.882	0.3
339.092	0.26
339.302	0.36
339.511	0.29
339.721	0.18
339.931	0.25
340.141	0.37
340.351	0.38
340.561	0.27
340.77	0.28
340.98	0.27
341.19	0.29
341.4	0.18
341.609	0.2
341.819	0.27
342.029	0.22
342.238	0.24
342.448	0.22
342.658	0.31
342.867	0.26
343.077	0.24
343.286	0.22
343.496	0.25
343.706	0.34
343.915	0.22
344.125	0.23
344.334	0.29
344.544	0.2
344.753	0.22
344.963	0.2
345.172	0.25
345.381	0.22
345.591	0.2
345.8	0.26
346.01	0.35
346.219	0.36
346.428	0.1
346.638	0.21
346.847	0.27
347.056	0.35
347.266	0.23
347.475	0.2
347.684	0.31
347.893	0.32
348.103	0.26
348.312	0.24
348.521	0.28
348.73	0.28
348.94	0.24
349.149	0.22
349.358	0.27
349.567	0.24
349.776	0.2
349.985	0.26
350.194	0.34
350.403	0.36
350.612	0.2
350.821	0.2
351.03	0.27
351.239	0.23
351.448	0.27
351.657	0.19
351.866	0.35
352.075	0.3
352.284	0.32
352.493	0.21
352.702	0.35
352.911	0.28
353.12	0.28
353.329	0.26
353.538	0.3
353.746	0.27
353.955	0.16
354.164	0.27
354.373	0.19
354.582	0.29
354.79	0.27
354.999	0.29
355.208	0.28
355.416	0.37
355.625	0.19
355.834	0.23
356.042	0.27
356.251	0.23
356.46	0.2
356.668	0.28
356.877	0.36
357.085	0.31
357.294	0.15
357.503	0.26
357.711	0.23
357.92	0.44
358.128	0.27
358.337	0.21
358.545	0.31
358.754	0.25
358.962	0.3
359.17	0.25
359.379	0.27
359.587	0.25
359.796	0.25
360.004	0.32
360.212	0.28
360.421	0.35
360.629	0.24
360.837	0.23
361.046	0.31
361.254	0.43
361.462	0.25
361.67	0.22
361.879	0.31
362.087	0.34
362.295	0.27
362.503	0.25
362.711	0.16
362.92	0.2
363.128	0.24
363.336	0.2
363.544	0.21
363.752	0.24
363.96	0.26
364.168	0.21
364.376	0.3
364.584	0.28
364.792	0.29
365	0.25
365.208	0.28
365.416	0.28
365.624	0.35
365.832	0.26
366.04	0.34
366.248	0.26
366.456	0.24
366.664	0.25
366.872	0.27
367.079	0.18
367.287	0.22
367.495	0.24
367.703	0.26
367.911	0.24
368.118	0.26
368.326	0.24
368.534	0.21
368.742	0.27
368.949	0.21
369.157	0.2
369.365	0.29
369.572	0.23
369.78	0.19
369.988	0.29
370.195	0.29
370.403	0.28
370.61	0.25
370.818	0.25
371.026	0.38
371.233	0.21
371.441	0.36
371.648	0.24
371.856	0.28
372.063	0.3
372.271	0.22
372.478	0.2
372.685	0.26
372.893	0.31
373.1	0.26
373.308	0.24
373.515	0.38
373.722	0.34
373.93	0.24
374.137	0.3
374.344	0.39
374.552	0.32
374.759	0.27
374.966	0.24
375.173	0.24
375.381	0.32
375.588	0.26
375.795	0.18
376.002	0.26
376.209	0.23
376.417	0.24
376.624	0.27
376.831	0.32
377.038	0.24
377.245	0.21
377.452	0.24
377.659	0.25
377.866	0.24
378.073	0.25
378.28	0.25
378.487	0.31
378.694	0.29
378.901	0.25
379.108	0.25
379.315	0.32
379.522	0.4
379.729	0.28
379.936	0.25
380.143	0.28
380.35	0.27
380.557	0.26
380.763	0.3
380.97	0.26
381.177	0.3
381.384	0.26
381.591	0.28
381.797	0.3
382.004	0.33
382.211	0.33
382.418	0.19
382.624	0.31
382.831	0.35
383.038	0.25
383.244	0.3
383.451	0.25
383.658	0.33
383.864	0.28
384.071	0.2
384.277	0.39
384.484	0.27
384.69	0.34
384.897	0.25
385.103	0.29
385.31	0.25
385.516	0.23
385.723	0.24
385.929	0.3
386.136	0.25
386.342	0.35
386.549	0.2
386.755	0.39
386.961	0.32
387.168	0.25
387.374	0.28
387.58	0.37
387.787	0.29
387.993	0.31
388.199	0.25
388.406	0.26
388.612	0.27
388.818	0.28
389.024	0.29
389.231	0.25
389.437	0.38
389.643	0.33
389.849	0.3
390.055	0.32
390.261	0.31
390.467	0.38
390.674	0.27
390.88	0.29
391.086	0.33
391.292	0.24
391.498	0.35
391.704	0.34
391.91	0.27
392.116	0.26
392.322	0.2
392.528	0.37
392.734	0.28
392.94	0.31
393.146	0.31
393.352	0.36
393.557	0.29
393.763	0.3
393.969	0.38
394.175	0.33
394.381	0.34
394.587	0.27
394.792	0.33
394.998	0.44
395.204	0.39
395.41	0.3
395.615	0.35
395.821	0.37
396.027	0.35
396.233	0.31
396.438	0.38
396.644	0.41
396.85	0.32
397.055	0.39
397.261	0.34
397.466	0.33
397.672	0.36
397.878	0.35
398.083	0.36
398.289	0.34
398.494	0.42
398.7	0.38
398.905	0.23
399.111	0.46
399.316	0.27
399.522	0.31
399.727	0.28
399.932	0.32
400.138	0.4
400.343	0.41
400.549	0.33
400.754	0.37
400.959	0.36
401.165	0.34
401.37	0.35
401.575	0.48
401.78	0.42
401.986	0.37
402.191	0.4
402.396	0.35
402.601	0.41
402.807	0.43
403.012	0.41
403.217	0.47
403.422	0.44
403.627	0.43
403.832	0.34
404.037	0.47
404.243	0.44
404.448	0.39
404.653	0.41
404.858	0.46
405.063	0.46
405.268	0.46
405.473	0.39
405.678	0.43
405.883	0.65
406.088	0.55
406.293	0.39
406.498	0.43
406.703	0.57
406.907	0.54
407.112	0.43
407.317	0.51
407.522	0.6
407.727	0.51
407.932	0.55
408.136	0.69
408.341	0.58
408.546	0.6
408.751	0.58
408.956	0.62
409.16	0.71
409.365	0.66
409.57	0.67
409.774	0.7
409.979	0.73
410.184	0.7
410.388	0.57
410.593	0.76
410.798	0.74
411.002	0.77
411.207	0.84
411.411	0.82
411.616	0.72
411.82	0.81
412.025	0.88
412.229	0.83
412.434	0.99
412.638	0.99
412.843	0.98
413.047	0.99
413.252	0.97
413.456	1.06
413.66	1.03
413.865	1.1
414.069	1.2
414.273	1.1
414.478	1.14
414.682	1.19
414.886	1.25
415.091	1.22
415.295	1.25
415.499	1.42
415.703	1.39
415.908	1.5
416.112	1.35
416.316	1.63
416.52	1.64
416.724	1.58
416.929	1.63
417.133	1.9
417.337	1.79
417.541	1.8
417.745	1.9
417.949	1.99
418.153	2.04
418.357	2.05
418.561	2.32
418.765	2.27
418.969	2.43
419.173	2.51
419.377	2.46
419.581	2.69
419.785	2.73
419.989	2.68
420.193	2.81
420.397	2.89
420.601	3.07
420.804	3.13
421.008	3.11
421.212	3.31
421.416	3.27
421.62	3.36
421.823	3.45
422.027	3.57
422.231	3.51
422.435	3.61
422.638	3.6
422.842	3.79
423.046	3.8
423.249	4.02
423.453	4.02
423.657	4.15
423.86	4.26
424.064	4.45
424.268	4.61
424.471	4.6
424.675	4.81
424.878	4.91
425.082	4.94
425.285	5.29
425.489	5.32
425.692	5.3
425.896	5.31
426.099	5.58
426.303	5.75
426.506	5.81
426.71	6.14
426.913	6.34
427.116	6.45
427.32	6.39
427.523	6.59
427.726	6.85
427.93	6.84
428.133	7.19
428.336	7.44
428.54	7.49
428.743	7.73
428.946	8.06
429.149	7.96
429.353	8.1
429.556	8.14
429.759	8.11
429.962	8.22
430.165	8.42
430.368	8.02
430.571	8.13
430.775	8.16
430.978	8.17
431.181	8.23
431.384	8.27
431.587	8.41
431.79	8.79
431.993	8.78
432.196	9.08
432.399	9.45
432.602	9.45
432.805	9.6
433.008	10.23
433.211	9.96
433.414	10.4
433.616	10.42
433.819	10.28
434.022	10.48
434.225	10.77
434.428	10.8
434.631	11.18
434.833	10.94
435.036	11.21
435.239	11.42
435.442	11.4
435.645	11.57
435.847	11.68
436.05	12.03
436.253	12.27
436.455	12.26
436.658	12.13
436.861	12.45
437.063	12.58
437.266	12.52
437.468	12.93
437.671	13.3
437.874	13.24
438.076	13.09
438.279	13.51
438.481	13.57
438.684	14.4
438.886	13.94
439.089	14.23
439.291	14.44
439.494	14.68
439.696	14.81
439.899	15.29
440.101	15.8
440.303	15.85
440.506	16.65
440.708	16.48
440.91	16.63
441.113	16.7
441.315	17.22
441.517	16.85
441.72	17.29
441.922	16.95
442.124	16.94
442.326	17.25
442.529	17.48
442.731	17.57
442.933	17.85
443.135	17.69
443.337	17.56
443.539	18.09
443.742	17.71
443.944	18.44
444.146	18.17
444.348	18.22
444.55	17.84
444.752	18.23
444.954	18.12
445.156	18.12
445.358	18.44
445.56	18.81
445.762	18.6
445.964	18.92
446.166	18.7
446.368	18.71
446.57	18.67
446.772	18.28
446.974	18.01
447.175	18.32
447.377	17.92
447.579	18.33
447.781	18.06
447.983	17.74
448.184	17.37
448.386	17.78
448.588	17.37
448.79	17.18
448.991	17.52
449.193	17.4
449.395	16.93
449.597	16.5
449.798	16.35
450	15.96
450.202	15.78
450.403	15.75
450.605	15.67
450.806	15.29
451.008	15.23
451.21	14.91
451.411	14.61
451.613	13.84
451.814	13.85
452.016	13.88
452.217	13.19
452.419	13.39
452.62	12.97
452.821	12.57
453.023	12.53
453.224	12.15
453.426	11.79
453.627	10.98
453.828	11.08
454.03	11.17
454.231	11.13
454.432	10.93
454.634	10.75
454.835	10.35
455.036	10.35
455.238	9.93
455.439	9.77
455.64	9.49
455.841	9.3
456.042	9.43
456.244	9.04
456.445	8.73
456.646	8.51
456.847	8.45
457.048	8.44
457.249	8.33
457.45	8.24
457.651	7.63
457.852	7.5
458.054	7.24
458.255	7.12
458.456	7.18
458.657	7.05
458.858	6.73
459.058	6.6
459.259	6.67
459.46	6.45
459.661	6.29
459.862	6.42
460.063	6.28
460.264	6.19
460.465	5.92
460.666	6.12
460.866	5.72
461.067	5.46
461.268	5.55
461.469	5.46
461.67	5.37
461.87	5.23
462.071	5.19
462.272	5.09
462.473	5.11
462.673	5.2
462.874	5.12
463.075	5.09
463.275	5.09
463.476	5.14
463.676	5.02
463.877	4.85
464.078	4.88
464.278	4.96
464.479	4.8
464.679	4.69
464.88	4.68
465.08	4.68
465.281	4.5
465.481	4.31
465.682	4.19
465.882	4.14
466.083	3.99
466.283	3.99
466.483	3.86
466.684	3.77
466.884	3.57
467.085	3.69
467.285	3.77
467.485	3.52
467.686	3.56
467.886	3.44
468.086	3.38
468.286	3.32
468.487	3.38
468.687	3.22
468.887	3.23
469.087	3.32
469.287	3.19
469.488	3.01
469.688	3.19
469.888	3.18
470.088	3.12
470.288	3.07
470.488	3.04
470.688	2.77
470.888	2.83
471.088	2.67
471.288	2.78
471.488	2.81
471.688	2.76
471.888	2.68
472.088	2.82
472.288	2.71
472.488	2.58
472.688	2.52
472.888	2.61
473.088	2.61
473.288	2.47
473.488	2.44
473.688	2.64
473.887	2.51
474.087	2.35
474.287	2.38
474.487	2.4
474.687	2.41
474.886	2.29
475.086	2.29
475.286	2.38
475.486	2.28
475.685	2.29
475.885	2.2
476.085	2.32
476.284	2.25
476.484	2.21
476.684	2.21
476.883	2.27
477.083	2.14
477.282	2.13
477.482	2.17
477.681	2.14
477.881	2.07
478.08	2.09
478.28	2
478.479	2.13
478.679	2.17
478.878	2.01
479.078	2.04
479.277	2.11
479.477	2.07
479.676	2.02
479.875	1.98
480.075	1.99
480.274	2.03
480.473	2.04
480.673	2.02
480.872	2.12
481.071	1.99
481.271	2.06
481.47	1.97
481.669	1.97
481.868	1.95
482.067	1.98
482.267	1.91
482.466	1.95
482.665	1.93
482.864	1.9
483.063	1.87
483.262	2.02
483.461	2.05
483.661	2.08
483.86	1.99
484.059	2.07
484.258	2.01
484.457	1.99
484.656	2.03
484.855	2.11
485.054	1.88
485.253	1.94
485.452	1.93
485.651	2.05
485.849	1.99
486.048	1.98
486.247	2.05
486.446	2.15
486.645	2.03
486.844	2.05
487.043	2.03
487.241	2.09
487.44	2.06
487.639	2.13
487.838	2.14
488.037	2.1
488.235	2.21
488.434	2.13
488.633	2.09
488.831	2.25
489.03	2.23
489.229	2.25
489.427	2.2
489.626	2.31
489.825	2.32
490.023	2.31
490.222	2.26
490.42	2.31
490.619	2.36
490.817	2.39
491.016	2.33
491.214	2.42
491.413	2.4
491.611	2.33
491.81	2.42
492.008	2.45
492.207	2.55
492.405	2.52
492.604	2.5
492.802	2.54
493	2.61
493.199	2.62
493.397	2.62
493.595	2.68
493.794	2.65
493.992	2.78
494.19	2.75
494.388	2.86
494.587	2.73
494.785	2.84
494.983	2.74
495.181	2.9
495.379	2.92
495.578	2.95
495.776	2.94
495.974	2.98
496.172	3.01
496.37	3.08
496.568	3.1
496.766	3.07
496.964	3.2
497.162	3.19
497.36	3.19
497.558	3.24
497.756	3.28
497.954	3.27
498.152	3.37
498.35	3.41
498.548	3.39
498.746	3.41
498.944	3.44
499.142	3.45
499.34	3.54
499.538	3.64
499.736	3.52
499.933	3.68
500.131	3.64
500.329	3.81
500.527	3.78
500.725	3.87
500.922	3.88
501.12	3.87
501.318	3.97
501.516	3.93
501.713	4.04
501.911	4
502.109	3.98
502.306	4.14
502.504	4.02
502.701	4.15
502.899	4.17
503.097	4.39
503.294	4.25
503.492	4.36
503.689	4.41
503.887	4.4
504.084	4.47
504.282	4.43
504.479	4.43
504.677	4.61
504.874	4.54
505.072	4.48
505.269	4.7
505.466	4.74
505.664	4.75
505.861	4.63
506.059	4.76
506.256	4.86
506.453	4.85
506.651	4.98
506.848	4.99
507.045	5.03
507.242	4.98
507.44	5.04
507.637	5.08
507.834	5.11
508.031	5.31
508.229	5.14
508.426	5.06
508.623	5.27
508.82	5.35
509.017	5.28
509.214	5.26
509.411	5.31
509.608	5.34
509.805	5.52
510.003	5.47
510.2	5.51
510.397	5.66
510.594	5.59
510.791	5.67
510.988	5.66
511.184	5.62
511.381	5.53
511.578	5.7
511.775	5.83
511.972	5.78
512.169	5.83
512.366	5.88
512.563	5.93
512.76	6
512.956	6.04
513.153	6
513.35	5.92
513.547	5.9
513.744	6.07
513.94	6.07
514.137	6.18
514.334	6.17
514.53	6.2
514.727	6.37
514.924	6.32
515.12	6.26
515.317	6.26
515.514	6.24
515.71	6.24
515.907	6.5
516.103	6.43
516.3	6.39
516.497	6.49
516.693	6.54
516.89	6.51
517.086	6.54
517.283	6.58
517.479	6.44
517.676	6.63
517.872	6.66
518.068	6.7
518.265	6.67
518.461	6.61
518.658	6.73
518.854	6.69
519.05	6.77
519.247	6.87
519.443	6.78
519.639	6.91
519.836	6.83
520.032	6.79
520.228	6.93
520.424	6.93
520.621	6.94
520.817	6.95
521.013	6.88
521.209	7.16
521.405	7.09
521.601	7.03
521.798	7.06
521.994	7.05
522.19	7.02
522.386	7.04
522.582	7.18
522.778	7.29
522.974	7.06
523.17	7.14
523.366	7.1
523.562	7.22
523.758	7.21
523.954	7.08
524.15	7.26
524.346	7.31
524.542	7.31
524.738	7.23
524.934	7.32
525.129	7.37
525.325	7.26
525.521	7.32
525.717	7.49
525.913	7.36
526.109	7.38
526.304	7.49
526.5	7.42
526.696	7.48
526.892	7.43
527.087	7.61
527.283	7.53
527.479	7.51
527.674	7.34
527.87	7.49
528.066	7.58
528.261	7.61
528.457	7.49
528.653	7.61
528.848	7.64
529.044	7.66
529.239	7.5
529.435	7.55
529.63	7.48
529.826	7.59
530.021	7.57
530.217	7.64
530.412	7.54
530.608	7.64
530.803	7.68
530.999	7.56
531.194	7.62
531.389	7.71
531.585	7.73
531.78	7.83
531.975	7.71
532.171	7.79
532.366	7.73
532.561	7.77
532.757	7.74
532.952	7.87
533.147	7.66
533.342	7.78
533.538	7.74
533.733	7.93
533.928	7.66
534.123	7.82
534.318	7.84
534.513	7.78
534.709	7.95
534.904	7.91
535.099	7.9
535.294	7.92
535.489	7.95
535.684	7.9
535.879	7.84
536.074	7.97
536.269	7.94
536.464	8.02
536.659	7.89
536.854	7.87
537.049	7.96
537.244	7.93
537.439	7.9
537.634	7.95
537.828	8.03
538.023	7.95
538.218	8
538.413	7.89
538.608	7.92
538.803	7.96
538.997	7.89
539.192	7.95
539.387	7.9
539.582	7.94
539.776	7.87
539.971	8.07
540.166	8.02
540.36	7.92
540.555	8.12
540.75	7.99
540.944	8.02
541.139	8.03
541.334	8.03
541.528	8.04
541.723	8.14
541.917	8.12
542.112	7.99
542.306	7.92
542.501	7.92
542.695	7.99
542.89	7.97
543.084	8.06
543.279	8.09
543.473	8.07
543.668	8.11
543.862	7.94
544.056	7.94
544.251	8.1
544.445	8.15
544.64	8.14
544.834	7.83
545.028	7.75
545.222	8.03
545.417	8.27
545.611	8.15
545.805	8.06
546	7.92
546.194	8.08
546.388	8.1
546.582	8.02
546.776	8.02
546.97	8.09
547.165	8.03
547.359	8.04
547.553	7.98
547.747	8.05
547.941	8.25
548.135	8.03
548.329	8.11
548.523	8.1
548.717	8.04
548.911	8.03
549.105	8.07
549.299	8.13
549.493	8.07
549.687	7.98
549.881	8.18
550.075	8.18
550.269	8.04
550.463	8.16
550.657	8.14
550.85	8.1
551.044	8.1
551.238	8.15
551.432	8.08
551.626	8.13
551.82	8.16
552.013	7.99
552.207	8.22
552.401	8.2
552.594	8.09
552.788	8.03
552.982	8.01
553.176	8.02
553.369	8.22
553.563	8.19
553.756	8.15
553.95	8.15
554.144	8.22
554.337	8.18
554.531	8
554.724	8.14
554.918	8.18
555.111	8.12
555.305	8.1
555.498	8.12
555.692	8.17
555.885	8.16
556.079	8.09
556.272	8.16
556.466	8.17
556.659	8.12
556.852	8.17
557.046	8.1
557.239	8.04
557.432	8.09
557.626	8.17
557.819	8.18
558.012	8.17
558.206	8.21
558.399	8.1
558.592	8.1
558.785	8.04
558.979	8.12
559.172	8.16
559.365	8.15
559.558	8.08
559.751	8.08
559.944	8.27
560.138	8.13
560.331	8.14
560.524	8.16
560.717	8.1
560.91	8.12
561.103	8.15
561.296	8.03
561.489	8.15
561.682	8.25
561.875	8.14
562.068	8.24
562.261	8.04
562.454	8.31
562.647	8.08
562.84	8.09
563.032	8.17
563.225	8.1
563.418	8.04
563.611	8.2
563.804	8.12
563.997	7.95
564.19	7.9
564.382	8.2
564.575	8.1
564.768	8.05
564.961	8.15
565.153	8.04
565.346	7.95
565.539	8.16
565.731	8.1
565.924	8.16
566.117	8.27
566.309	8.18
566.502	8.15
566.695	8.04
566.887	8.19
567.08	8.12
567.272	8.18
567.465	8.02
567.657	8.15
567.85	8.03
568.042	8.08
568.235	8.21
568.427	7.97
568.62	8.12
568.812	8.08
569.005	8.1
569.197	8.01
569.389	8.1
569.582	8.07
569.774	8.07
569.966	7.95
570.159	7.95
570.351	8
570.543	8.01
570.736	8
570.928	7.86
571.12	8.07
571.312	7.96
571.505	7.83
571.697	8.06
571.889	7.98
572.081	8.06
572.273	7.97
572.465	8.06
572.658	8.03
572.85	8.02
573.042	8.05
573.234	7.91
573.426	7.95
573.618	7.92
573.81	8.02
574.002	7.99
574.194	7.99
574.386	7.96
574.578	7.84
574.77	7.95
574.962	7.95
575.154	7.83
575.346	7.89
575.538	7.83
575.729	7.9
575.921	8.01
576.113	7.92
576.305	8.02
576.497	8.05
576.689	7.77
576.88	7.82
577.072	7.98
577.264	7.87
577.456	7.93
577.647	7.83
577.839	7.97
578.031	7.87
578.223	7.82
578.414	7.75
578.606	7.81
578.798	7.88
578.989	7.85
579.181	7.95
579.372	7.86
579.564	7.84
579.755	7.8
579.947	7.72
580.139	7.85
580.33	7.67
580.522	7.84
580.713	7.69
580.905	7.75
581.096	7.88
581.287	7.73
581.479	7.69
581.67	7.86
581.862	7.69
582.053	7.71
582.244	7.62
582.436	7.8
582.627	7.68
582.818	7.69
583.01	7.64
583.201	7.73
583.392	7.66
583.583	7.66
583.775	7.5
583.966	7.61
584.157	7.63
584.348	7.72
584.54	7.56
584.731	7.65
584.922	7.54
585.113	7.42
585.304	7.59
585.495	7.59
585.686	7.65
585.877	7.64
586.068	7.72
586.259	7.54
586.45	7.53
586.641	7.46
586.832	7.55
587.023	7.52
587.214	7.46
587.405	7.6
587.596	7.43
587.787	7.39
587.978	7.44
588.169	7.42
588.36	7.33
588.551	7.47
588.742	7.47
588.932	7.47
589.123	7.29
589.314	7.45
589.505	7.3
589.696	7.39
589.886	7.38
590.077	7.4
590.268	7.28
590.458	7.22
590.649	7.11
590.84	7.41
591.03	7.33
591.221	7.27
591.412	7.21
591.602	7.39
591.793	7.29
591.984	7.32
592.174	7.19
592.365	7.4
592.555	7.18
592.746	7.11
592.936	7.17
593.127	7.25
593.317	7.23
593.508	7.2
593.698	7.1
593.889	7.1
594.079	7.11
594.269	7.05
594.46	7.04
594.65	7.09
594.84	7.07
595.031	6.97
595.221	7.01
595.411	7.02
595.602	7
595.792	6.96
595.982	6.91
596.172	7.05
596.363	6.92
596.553	6.93
596.743	7
596.933	6.93
597.123	6.96
597.314	6.75
597.504	6.78
597.694	6.97
597.884	6.87
598.074	6.8
598.264	6.76
598.454	6.89
598.644	6.75
598.834	6.78
599.024	6.7
599.214	6.77
599.404	6.75
599.594	6.74
599.784	6.64
599.974	6.78
600.164	6.7
600.354	6.58
600.544	6.58
600.734	6.7
600.924	6.64
601.114	6.59
601.303	6.58
601.493	6.58
601.683	6.61
601.873	6.57
602.063	6.48
602.252	6.59
602.442	6.47
602.632	6.46
602.821	6.4
603.011	6.56
603.201	6.48
603.39	6.38
603.58	6.28
603.77	6.47
603.959	6.53
604.149	6.39
604.339	6.38
604.528	6.47
604.718	6.42
604.907	6.31
605.097	6.27
605.286	6.27
605.476	6.32
605.665	6.27
605.855	6.22
606.044	6.27
606.234	6.23
606.423	6.22
606.612	6.21
606.802	6.16
606.991	6.25
607.181	6.22
607.37	6.11
607.559	6
607.749	6.06
607.938	6.07
608.127	6.03
608.316	6.04
608.506	6.03
608.695	6.15
608.884	5.94
609.073	6.04
609.263	6.12
609.452	5.94
609.641	5.86
609.83	5.85
610.019	5.93
610.208	5.87
610.397	5.9
610.586	5.89
610.775	5.8
610.965	5.79
611.154	5.75
611.343	5.82
611.532	5.71
611.721	5.83
611.91	5.7
612.099	5.74
612.287	5.65
612.476	5.57
612.665	5.8
612.854	5.6
613.043	5.67
613.232	5.67
613.421	5.54
613.61	5.52
613.798	5.57
613.987	5.65
614.176	5.52
614.365	5.55
614.554	5.63
614.742	5.59
614.931	5.44
615.12	5.58
615.309	5.46
615.497	5.42
615.686	5.24
615.875	5.38
616.063	5.35
616.252	5.41
616.44	5.36
616.629	5.29
616.818	5.34
617.006	5.29
617.195	5.23
617.383	5.24
617.572	5.15
617.76	5.21
617.949	5.11
618.137	5.28
618.326	5.25
618.514	5.08
618.703	5.02
618.891	5.14
619.079	5.06
619.268	5.19
619.456	5.01
619.644	5.19
619.833	5.07
620.021	4.97
620.209	4.94
620.398	5.06
620.586	4.94
620.774	5.03
620.962	4.97
621.151	5.07
621.339	4.9
621.527	4.84
621.715	4.77
621.903	4.93
622.092	4.85
622.28	4.89
622.468	4.73
622.656	4.83
622.844	4.79
623.032	4.82
623.22	4.69
623.408	4.84
623.596	4.78
623.784	4.77
623.972	4.66
624.16	4.67
624.348	4.74
624.536	4.72
624.724	4.55
624.912	4.67
625.1	4.65
625.288	4.63
625.476	4.53
625.664	4.63
625.851	4.55
626.039	4.53
626.227	4.52
626.415	4.52
626.603	4.41
626.79	4.48
626.978	4.45
627.166	4.55
627.354	4.39
627.541	4.4
627.729	4.22
627.917	4.53
628.104	4.49
628.292	4.33
628.48	4.4
628.667	4.35
628.855	4.37
629.042	4.37
629.23	4.29
629.418	4.29
629.605	4.3
629.793	4.16
629.98	4.19
630.168	4.21
630.355	4.21
630.543	4.18
630.73	4.07
630.917	4.14
631.105	4.2
631.292	4.08
631.48	4.09
631.667	4.19
631.854	4.05
632.042	4.08
632.229	3.95
632.416	4.06
632.604	4.02
632.791	3.88
632.978	4.03
633.165	3.96
633.353	4.04
633.54	3.99
633.727	3.86
633.914	3.85
634.101	3.87
634.289	3.96
634.476	3.78
634.663	3.74
634.85	3.81
635.037	3.78
635.224	3.64
635.411	3.84
635.598	3.74
635.785	3.75
635.972	3.66
636.159	3.77
636.346	3.67
636.533	3.64
636.72	3.68
636.907	3.65
637.094	3.66
637.281	3.52
637.468	3.61
637.655	3.59
637.842	3.61
638.029	3.5
638.215	3.57
638.402	3.6
638.589	3.47
638.776	3.47
638.963	3.43
639.149	3.54
639.336	3.53
639.523	3.41
639.709	3.42
639.896	3.43
640.083	3.45
640.27	3.43
640.456	3.36
640.643	3.35
640.829	3.26
641.016	3.29
641.203	3.26
641.389	3.3
641.576	3.3
641.762	3.27
641.949	3.2
642.135	3.29
642.322	3.21
642.508	3.19
642.695	3.2
642.881	3.14
643.068	3.14
643.254	3.18
643.441	3.18
643.627	3.18
643.813	3.09
644	3.11
644.186	2.99
644.372	3.09
644.559	3.1
644.745	2.97
644.931	3.04
645.118	3.07
645.304	3.01
645.49	3.05
645.676	2.93
645.862	2.96
646.049	3.02
646.235	2.9
646.421	3.09
646.607	3.05
646.793	2.88
646.979	2.88
647.165	2.9
647.352	2.86
647.538	2.88
647.724	2.88
647.91	2.84
648.096	2.86
648.282	2.9
648.468	2.82
648.654	2.81
648.84	2.87
649.026	2.79
649.212	2.7
649.397	2.73
649.583	2.8
649.769	2.8
649.955	2.69
650.141	2.7
650.327	2.74
650.513	2.67
650.698	2.69
650.884	2.55
651.07	2.69
651.256	2.63
651.442	2.61
651.627	2.57
651.813	2.62
651.999	2.62
652.184	2.59
652.37	2.57
652.556	2.57
652.741	2.62
652.927	2.46
653.113	2.44
653.298	2.57
653.484	2.53
653.669	2.44
653.855	2.46
654.04	2.56
654.226	2.47
654.412	2.42
654.597	2.33
654.782	2.42
654.968	2.46
655.153	2.41
655.339	2.39
655.524	2.38
655.71	2.4
655.895	2.37
656.08	2.38
656.266	2.43
656.451	2.35
656.636	2.3
656.822	2.27
657.007	2.29
657.192	2.29
657.378	2.27
657.563	2.29
657.748	2.27
657.933	2.31
658.118	2.18
658.304	2.19
658.489	2.26
658.674	2.25
658.859	2.09
659.044	2.19
659.229	2.27
659.414	2.15
659.599	2.16
659.785	2.06
659.97	2.12
660.155	2.14
660.34	2.13
660.525	2.1
660.71	2.05
660.895	2.11
661.08	2.07
661.264	2.03
661.449	2.12
661.634	2.11
661.819	2.06
662.004	2.04
662.189	1.96
662.374	2.05
662.559	1.96
662.743	1.92
662.928	2.01
663.113	1.98
663.298	1.9
663.483	1.96
663.667	1.93
663.852	1.9
664.037	1.97
664.221	1.9
664.406	1.98
664.591	1.96
664.775	1.91
664.96	1.84
665.145	1.86
665.329	1.93
665.514	1.83
665.698	1.8
665.883	1.78
666.068	1.9
666.252	1.87
666.437	1.78
666.621	1.85
666.806	1.86
666.99	1.81
667.174	1.75
667.359	1.9
667.543	1.78
667.728	1.77
667.912	1.66
668.096	1.78
668.281	1.7
668.465	1.79
668.649	1.71
668.834	1.67
669.018	1.71
669.202	1.71
669.387	1.68
669.571	1.73
669.755	1.66
669.939	1.67
670.124	1.64
670.308	1.68
670.492	1.69
670.676	1.66
670.86	1.62
671.044	1.59
671.228	1.68
671.413	1.61
671.597	1.58
671.781	1.61
671.965	1.64
672.149	1.64
672.333	1.53
672.517	1.58
672.701	1.61
672.885	1.57
673.069	1.53
673.253	1.66
673.437	1.55
673.621	1.49
673.804	1.53
673.988	1.6
674.172	1.49
674.356	1.4
674.54	1.49
674.724	1.62
674.908	1.51
675.091	1.55
675.275	1.51
675.459	1.59
675.643	1.52
675.826	1.49
676.01	1.41
676.194	1.47
676.377	1.53
676.561	1.5
676.745	1.43
676.928	1.49
677.112	1.51
677.296	1.38
677.479	1.4
677.663	1.4
677.846	1.45
678.03	1.4
678.213	1.36
678.397	1.44
678.58	1.36
678.764	1.38
678.947	1.32
679.131	1.38
679.314	1.37
679.498	1.34
679.681	1.38
679.865	1.46
680.048	1.33
680.231	1.34
680.415	1.26
680.598	1.31
680.781	1.26
680.965	1.26
681.148	1.29
681.331	1.29
681.514	1.32
681.698	1.21
681.881	1.29
682.064	1.31
682.247	1.29
682.43	1.18
682.614	1.29
682.797	1.36
682.98	1.31
683.163	1.15
683.346	1.26
683.529	1.17
683.712	1.18
683.895	1.21
684.078	1.14
684.261	1.2
684.444	1.27
684.627	1.16
684.81	1.14
684.993	1.16
685.176	1.27
685.359	1.14
685.542	1.13
685.725	1.25
685.908	1.17
686.091	1.11
686.274	1.17
686.457	1.25
686.639	1.08
686.822	1.18
687.005	1.13
687.188	1.18
687.371	1.25
687.553	1.2
687.736	1.13
687.919	1.31
688.102	1.14
688.284	1.08
688.467	1.12
688.65	1.05
688.832	1.02
689.015	1.02
689.197	0.96
689.38	1.25
689.563	1.23
689.745	1.02
689.928	1
690.11	1.03
690.293	1.12
690.475	0.99
690.658	1.07
690.84	1.02
691.023	1.05
691.205	0.97
691.388	1.01
691.57	1.06
691.752	1.04
691.935	0.88
692.117	0.96
692.3	1
692.482	1.02
692.664	0.98
692.847	1
693.029	1.17
693.211	1.06
693.393	0.96
693.576	1
693.758	1.02
693.94	0.93
694.122	0.99
694.304	0.93
694.487	0.95
694.669	1.08
694.851	0.89
695.033	0.88
695.215	0.91
695.397	0.9
695.579	0.91
695.761	0.83
695.943	0.88
696.125	1.01
696.308	0.91
696.49	0.81
696.671	1.1
696.853	0.92
697.035	1.16
697.217	0.87
697.399	0.96
697.581	0.86
697.763	0.9
697.945	0.79
698.127	0.9
698.309	0.98
698.491	0.89
698.672	0.93
698.854	0.96
699.036	0.97
699.218	0.85
699.399	0.91
699.581	0.9
699.763	0.89
699.945	0.79
700.126	0.75
700.308	0.83
700.49	0.81
700.671	0.74
700.853	0.73
701.035	0.73
701.216	0.77
701.398	0.71
701.579	0.77
701.761	0.86
701.943	0.76
702.124	0.71
702.306	0.82
702.487	0.92
702.669	0.84
702.85	0.76
703.031	0.69
703.213	0.9
703.394	0.86
703.576	0.73
703.757	0.99
703.938	0.84
704.12	1.02
704.301	0.76
704.483	0.69
704.664	0.8
704.845	0.87
705.026	0.75
705.208	0.75
705.389	0.78
705.57	0.83
705.751	0.73
705.933	0.79
706.114	0.88
706.295	0.78
706.476	0.66
706.657	0.9
706.838	0.86
707.02	0.74
707.201	0.73
707.382	0.75
707.563	0.83
707.744	0.73
707.925	0.61
708.106	0.57
708.287	0.8
708.468	0.88
708.649	0.68
708.83	0.67
709.011	0.65
709.192	0.76
709.373	0.66
709.554	0.68
709.734	0.76
709.915	0.74
710.096	0.65
710.277	0.59
710.458	0.69
710.639	0.8
710.819	0.58
711	0.64
711.181	0.71
711.362	0.8
711.542	0.67
711.723	0.6
711.904	0.77
712.085	0.77
712.265	0.69
712.446	0.56
712.627	0.59
712.807	0.65
712.988	0.64
713.168	0.52
713.349	0.72
713.53	0.46
713.71	0.55
713.891	0.5
714.071	0.62
714.252	0.6
714.432	0.6
714.613	0.46
714.793	0.68
714.974	0.8
715.154	0.62
715.334	0.62
715.515	0.77
715.695	0.54
715.876	0.58
716.056	0.57
716.236	0.56
716.417	0.54
716.597	0.52
716.777	0.85
716.957	0.6
717.138	0.61
717.318	0.57
717.498	0.52
717.678	0.63
717.859	0.56
718.039	0.48
718.219	0.58
718.399	0.59
718.579	0.51
718.759	0.47
718.939	0.62
719.12	0.65
719.3	0.59
719.48	0.41
719.66	0.45
719.84	0.68
720.02	0.6
720.2	0.52
720.38	0.52
720.56	0.69
720.74	0.46
720.92	0.52
721.1	0.69
721.279	0.66
721.459	0.59
721.639	0.45
721.819	0.54
721.999	0.55
722.179	0.62
722.359	0.4
722.538	0.55
722.718	0.6
722.898	0.54
723.078	0.48
723.257	0.44
723.437	0.58
723.617	0.61
723.797	0.52
723.976	0.5
724.156	0.7
724.336	0.68
724.515	0.77
724.695	0.47
724.874	0.56
725.054	0.65
725.234	0.5
725.413	0.55
725.593	0.5
725.772	0.62
725.952	0.54
726.131	0.51
726.311	0.49
726.49	0.48
726.67	0.46
726.849	0.57
727.028	0.62
727.208	0.51
727.387	0.54
727.567	0.36
727.746	0.46
727.925	0.49
728.105	0.4
728.284	0.37
728.463	0.37
728.643	0.54
728.822	0.39
729.001	0.47
729.18	0.42
729.359	0.71
729.539	0.52
729.718	0.46
729.897	0.62
730.076	0.52
730.255	0.45
730.434	0.51
730.614	0.65
730.793	0.66
730.972	0.49
731.151	0.51
731.33	0.69
731.509	0.58
731.688	0.52
731.867	0.48
732.046	0.34
732.225	0.77
732.404	0.45
732.583	0.34
732.762	0.49
732.941	0.52
733.12	0.53
733.298	0.46
733.477	0.67
733.656	0.5
733.835	0.41
734.014	0.6
734.193	0.53
734.371	0.51
734.55	0.57
734.729	0.4
734.908	0.54
735.086	0.63
735.265	0.58
735.444	0.24
735.623	0.38
735.801	0.48
735.98	0.44
736.159	0.44
736.337	0.57
736.516	0.56
736.694	0.55
736.873	0.37
737.052	0.77
737.23	0.74
737.409	0.49
737.587	0.78
737.766	0.31
737.944	0.49
738.123	0.63
738.301	0.5
738.479	0.43
738.658	0.57
738.836	0.33
739.015	0.6
739.193	0.63
739.371	0.31
739.55	0.42
739.728	0.36
739.906	0.63
740.085	0.71
740.263	0.56
740.441	0.26
740.62	0.77
740.798	0.66
740.976	0.37
741.154	0.27
741.332	0.74
741.511	0.62
741.689	0.59
741.867	0.53
742.045	0.57
742.223	0.43
742.401	0.4
742.579	0.42
742.757	0.61
742.935	0.35
743.114	0.37
743.292	0.44
743.47	0.53
743.648	0.5
743.826	0.46
744.004	0.46
744.181	0.6
744.359	0.36
744.537	0.51
744.715	0.44
744.893	0.5
745.071	0.52
745.249	0.49
745.427	0.46
745.605	0.51
745.782	0.54
745.96	0.55
746.138	0.63
746.316	0.6
746.493	0.47
746.671	0.43
746.849	0.36
747.027	0.57
747.204	0.41
747.382	0.46
747.56	0.25
747.737	0.48
747.915	0.39
748.093	0.5
748.27	0.3
748.448	0.46
748.625	0.36
748.803	0.34
748.98	0.31
749.158	0.51
749.335	0.52
749.513	0.48
749.69	0.3
749.868	0.51
750.045	0.53
750.223	0.37
750.4	0.26
750.578	0.64
750.755	0.43
750.932	0.21
751.11	0.53
751.287	0.26
751.464	0.58
751.642	0.27
751.819	0.41
751.996	0.44
752.173	0.43
752.351	0.32
752.528	0.43
752.705	0.45
752.882	0.4
753.06	0.38
753.237	0.43
753.414	0.64
753.591	0.67
753.768	0.45
753.945	0.36
754.122	0.42
754.299	0.54
754.476	0.34
754.654	0.35
754.831	0.52
755.008	0.42
755.185	0.36
755.362	0.36
755.539	0.48
755.716	0.37
755.892	0.41
756.069	0.28
756.246	0.41
756.423	0.33
756.6	0.52
756.777	0.25
756.954	0.5
757.131	0.32
757.307	0.28
757.484	0.24
757.661	0.45
757.838	0.52
758.015	0.19
758.191	0.35
758.368	0.58
758.545	0.64
758.721	0.37
758.898	0.2
759.075	0.45
759.251	0.52
759.428	0.39
759.605	0.11
759.781	0.38
759.958	0.46
760.134	0.3
760.311	0.24
760.488	0.6
760.664	0.64
760.841	0.32
761.017	0.3
761.194	0.43
761.37	0.56
761.547	0.29
761.723	0.33
761.899	0.65
762.076	0.4
762.252	0.29
762.429	0.33
762.605	0.5
762.781	0.38
762.958	0.47
763.134	0.21
763.31	0.3
763.486	0.58
763.663	0.1
763.839	0.43
764.015	0.13
764.191	0.38
764.368	0.36
764.544	0.23
764.72	0.49
764.896	0.44
765.072	0.49
765.248	0.37
765.425	0.31
765.601	0.35
765.777	0.37
765.953	-0.02
766.129	0.27
766.305	0.29
766.481	0.46
766.657	0.44
766.833	0.67
767.009	0.22
767.185	0.24
767.361	0.43
767.537	0.24
767.713	0.67
767.889	0.22
768.065	0.47
768.24	0.41
768.416	0.64
768.592	0.4
768.768	0.46
768.944	0.42
769.12	0.29
769.295	0.37
769.471	0.22
769.647	0.43
769.823	0.59
769.998	0.23
770.174	0.08
770.35	0.81
770.525	0.69
770.701	0.35
770.877	0.3
771.052	0.12
771.228	0.62
771.403	0.46
771.579	0.52
771.755	0.85
771.93	0.37
772.106	0.22
772.281	0.11
772.457	0.43
772.632	0.59
772.808	0.2
772.983	0.37
773.159	0.17
773.334	0.54
773.509	0.43
773.685	0.17
773.86	0.94
774.036	0.67
774.211	0.48
774.386	0.38
774.562	0.35
774.737	0.68
774.912	0.31
775.087	0.53
775.263	0.32
775.438	0.5
775.613	0.17
775.788	0.37
775.964	0.69
776.139	0.98
776.314	0.21
776.489	0.38
776.664	0.49
776.839	0.26
777.014	0.63
777.19	0.51
777.365	0.84
777.54	0.72
777.715	0.42
777.89	0.45
778.065	0.43
778.24	0.42
778.415	0.53
778.59	0.1
778.765	0.43
778.94	0.5
779.115	0.4
779.289	0.16
779.464	0.52
779.639	0.36
779.814	0.32
779.989	0.16
780.164	0.57
780.339	0.6
780.513	0.44
780.688	0.17
780.863	0.29
781.038	0.61
781.212	0.4
781.387	0.38
781.562	0.81
781.737	0.17
781.911	0.72
782.086	0.32
782.261	0.54
782.435	0.95
782.61	0.3
782.784	0.37
782.959	0.73
783.134	0.4
783.308	0.05
783.483	0.23
783.657	1.01
783.832	0.7
784.006	0.04
784.181	0.65
784.355	0.58
784.53	0.24
784.704	0.23
784.878	0.75
785.053	0.69
785.227	0.68
785.402	0.71
785.576	0.21
785.75	0.36
785.925	0.52
786.099	0.53
786.273	0.58
786.448	0.86
786.622	0.67
786.796	0.42
786.97	0.51
787.145	1.29
787.319	0.22
787.493	0.33
787.667	-0
787.841	0.35
788.015	0.72
788.19	0.37
788.364	0.32
788.538	0.64
788.712	0.62
788.886	0.45
789.06	0.64
789.234	0.72
789.408	0.16
789.582	0.34
789.756	0.39
789.93	0.19
790.104	0.24
790.278	0.55
790.452	0.26
790.626	0.64
790.8	0.34
790.973	0.61
791.147	0.9
791.321	0.95
791.495	0.79
791.669	0.48
791.843	0.59
792.016	0.37
792.19	1.23
792.364	0.18
792.538	1.12
792.711	0.81
792.885	0.34
793.059	0.26
793.233	-0.06
793.406	0.75
793.58	0.84
793.754	0.83
793.927	0.43
794.101	0.68
794.274	0.69
794.448	0.65
794.622	0.18
794.795	1.03
794.969	0.52
795.142	0.94
795.316	0.32
795.489	0.46
795.663	1.18
795.836	0.26
796.009	0.15
796.183	1.03
796.356	0.57
796.53	0.61
796.703	0.33
796.876	1.4
797.05	0.41
797.223	0.36
797.396	0.27
797.57	0.62
797.743	1.03
797.916	0.36
798.09	0.64
798.263	1.07
798.436	0.71
798.609	0.32
798.782	0.27
798.956	0.72
799.129	0.66
799.302	0.44
799.475	0.45
799.648	0.49
799.821	0.42
799.994	0.39
800.167	-0.07
800.34	0.39
800.514	0.75
800.687	0.37
800.86	0.24
801.033	0.69
801.206	0.92
801.379	0.13
801.551	0.68
801.724	0.87
801.897	1.26
802.07	0.44
802.243	0.23
802.416	0.59
802.589	0.43
802.762	0.52
802.935	0.39
803.107	0.92
803.28	1.09
803.453	0.79
803.626	0.54
803.798	0.83
803.971	0.69
804.144	0.82
804.317	0.66
804.489	1.09
804.662	0.54
804.835	0.62
805.007	0.29
805.18	1.25
805.353	1.07
805.525	0.32
805.698	0.14
805.87	0.93
806.043	0.9
806.215	-0.13
806.388	0.19
806.56	0.63
806.733	0.9
806.905	0.44
807.078	0.16
807.25	0.47
807.423	1.13
807.595	0.4
807.768	0.59
807.94	0.84
808.112	0.94
808.285	0.89
808.457	0.35
808.629	0.91
808.802	1.05
808.974	0.65
809.146	0.13
809.318	0.47
809.491	0.59
809.663	0.85
809.835	0.35
810.007	0.69
810.18	1.08
810.352	-0.19
810.524	0.52
810.696	1.02
810.868	1.46
811.04	0.7
811.212	0.6
811.384	1
811.556	0.78
811.728	0.58
811.901	2.07
812.073	0.81
812.245	0.92
812.417	0.75
812.589	-0.13
812.76	1.1
812.932	0.91
813.104	0.85
813.276	0.52
813.448	1.08
813.62	0.77
813.792	0.96
813.964	0.3
814.136	0.98
814.307	0.28
814.479	0.61
814.651	-0
814.823	2.05
814.995	0.83
815.166	1.08
815.338	0.44
815.51	0.45
815.681	1.8
815.853	0.9
816.025	0.46
816.196	1.53
816.368	1.01
816.54	0.17
816.711	0.11
816.883	1.01
817.054	1.94
817.226	0.14
817.398	0.93
817.569	0.57
817.741	0.41
817.912	0.48
818.084	0.49
818.255	1.4
818.426	0.35
818.598	0.62
818.769	0.26
818.941	1.05
819.112	1.51
819.283	0.81
819.455	-0.08
819.626	0.75
819.798	1.03
819.969	0.52
820.14	0.41
820.311	0.41
820.483	0.81
820.654	1.05
820.825	0.55
820.996	0.77
821.168	0.16
821.339	0.57
821.51	0.02
821.681	0.77
821.852	0.44
822.023	0.33
822.195	-0.12
822.366	1.35
822.537	0.97
822.708	0.89
822.879	0.27
823.05	1.48
823.221	0.92
823.392	1.18
823.563	0.83
823.734	0.75
823.905	1.09
824.076	0.38
824.247	0.34
824.418	0.69
824.589	1.29
824.759	0.99
824.93	0.65
825.101	0.24
825.272	1.82
825.443	1.1
825.614	1.52
825.784	0.26
825.955	1.89
826.126	1.89
826.297	1.23
826.467	2.04
826.638	2.05
826.809	0.5
826.98	0.96
827.15	1.01
827.321	1.23
827.492	1.71
827.662	1.29
827.833	2.48
828.003	1.64
828.174	0.31
828.345	-0.08
828.515	2.33
828.686	1.13
828.856	0.63
829.027	0.78
829.197	1.21
829.368	1.29
829.538	0.03
829.709	0.93
829.879	1.6
830.049	1.13
830.22	0.68
830.39	0.33
830.56	2.13
830.731	0.66
830.901	0.22
831.072	1.18
831.242	0.94
831.412	1.79
831.582	1.04
831.753	-0.75
831.923	1.52
832.093	2.19
832.263	0.86
832.434	0.14
832.604	0.79
832.774	1.87
832.944	0.96
833.114	0.08
833.284	1.25
833.454	0.84
833.624	0.51
833.795	1.01
833.965	2.03
834.135	2.04
834.305	-0.89
834.475	0.02
834.645	1.24
834.815	1.37
834.985	0.33
835.155	0.62
835.325	1.65
835.494	2.13
835.664	0.24
835.834	-0.69
836.004	1.27
836.174	1.33
836.344	0.72
836.514	-0.17
836.684	1.03
836.853	1.44
837.023	1.71
837.193	0.47
837.363	2.02
837.532	1.58
837.702	0.77
837.872	0.69
838.041	1.35
838.211	2.8
838.381	0.01
838.55	0.97
838.72	4.04
838.89	2.89
839.059	0.12
839.229	0.22
839.398	3.03
839.568	1.63
839.738	0.7
839.907	2.38
840.077	1.01
840.246	0.8
840.416	0.55
840.585	-0.75
840.755	2.45
840.924	2.82
841.093	0.8
841.263	0.82
841.432	0.84
841.602	0.83
841.771	0.59
841.94	1.56
842.11	3.89
842.279	2.77
842.448	-0.27
842.617	0.14
842.787	2.27
842.956	0.26
843.125	0.09
843.294	0.96
843.464	2.97
843.633	1.83
843.802	0.16
843.971	0.88
844.14	1.88
844.309	2.33
844.479	-0.23
844.648	-0.78
844.817	0.64
844.986	1.57
845.155	0.01
845.324	0.05
845.493	0.36
845.662	0.49
845.831	1.55
846	1.7
846.169	0.84
846.338	2.37
846.507	0.89
846.676	1.87
846.844	1.41
847.013	2.31
847.182	0.71
847.351	0.73
847.52	0.76
847.689	1.42
847.858	1.23
848.026	0.8
848.195	0.6
848.364	0.9
848.533	0.02
848.701	0.61
848.87	1.99
849.039	3.24
849.207	0.68
849.376	2.44
849.545	2.67
849.713	0.76
849.882	0.59
850.051	0.46
850.219	1.46
850.388	3.14
850.556	0.26
850.725	1.11
850.893	1.93
851.062	1.25
851.23	1.82
851.399	-0.3
851.567	1.09
851.736	1.1
851.904	1.15
852.073	1.87
852.241	2.22
852.41	1.84
852.578	0.51
852.746	0.59
852.915	2.24
853.083	2.38
853.251	-0.36
853.42	0.99
853.588	1.8
853.756	2.67
853.924	1.62
854.093	1.82
854.261	1.89
854.429	-0.1
854.597	1.16
854.765	0.59
854.934	2.8
855.102	2.95
855.27	0.43
855.438	2.95
855.606	3.56
855.774	3.75
855.942	-0.01
856.11	-0.39
856.278	1.75
856.446	1.27
856.614	2.37
856.782	-0.18
856.95	2.41
857.118	2.96
857.286	1.5
857.454	-0.02
857.622	3.65
857.79	2.46
857.958	0.33
858.126	1.78
858.294	-0.72
858.462	0.68
858.629	1.2
858.797	-0.16
858.965	2.06
859.133	1.66
859.301	2.02
859.468	2.62
859.636	0.78
859.804	4.99
859.971	2.87
860.139	1.3
860.307	3.08
860.474	3.73
860.642	0.87
860.81	0.74
860.977	2.52
861.145	4.06
861.313	0.4
861.48	1.65
861.648	2.57
861.815	1.45
861.983	-0.5
862.15	0.53
862.318	3.84
862.485	3.54
862.653	0.82
862.82	-0.28
862.988	4.55
863.155	2.7
863.322	0.54
863.49	-0.03
863.657	1.81
863.824	4.34
863.992	1.83
864.159	2.36
864.326	4.64
864.494	0.83
864.661	3.59
864.828	-0.75
864.996	4.92
865.163	5.19
865.33	1.22
865.497	-1.9
865.664	-0.16
865.832	0.39
865.999	0.96
866.166	0.97
866.333	2.58
866.5	1.11
866.667	1.38
866.834	1.36
867.001	4.73
867.168	0.25
867.335	1.11
867.502	0.26
867.669	2.33
867.836	4.71
868.003	1.42
868.17	3.4
868.337	2.41
868.504	5.9
868.671	-1.49
868.838	1.37
869.005	2.04
869.172	2.72
869.339	1.49
869.505	2.57
869.672	1.78
869.839	4.48
870.006	1.82
870.173	0.06
870.339	4.03
870.506	6.16
870.673	0.33
870.84	2.29
871.006	2.85
871.173	3.07
871.34	1.18
871.506	-0.21
871.673	3.64
871.839	-1.18
872.006	1.49
872.173	0.16
872.339	2.19
872.506	5.74
872.672	0.33
872.839	0.48
873.005	3.21
873.172	5.75
873.338	4.7
873.505	2.71
873.671	2.98
873.838	3.3
874.004	-1.96
874.171	0.58
874.337	3.99
874.503	4.86
874.67	-0.31
874.836	1.31
875.002	5.61
875.169	5.89
875.335	3.68
875.501	0.98
875.668	4.19
875.834	1.1
876	1.3
876.166	2.97
876.332	3.55
876.499	5.52
876.665	2.43
876.831	0.86
876.997	7.37
877.163	3.91
877.329	2.45
877.495	3.13
877.662	3.68
877.828	3.64
877.994	2.06
878.16	-2.55
878.326	1.47
878.492	3.16
878.658	2.18
878.824	3.73
878.99	4.11
879.156	2.4
879.322	4.46
879.487	1.21
879.653	3.38
879.819	3.13
879.985	1.26
880.151	3.15
880.317	4.71
880.483	4.24
880.648	3.19
880.814	0.58
880.98	3.54
881.146	-2.71
881.312	0.63
881.477	2.49
881.643	2.76
881.809	3.1
881.974	2.95
882.14	-0.4
882.306	4.78
882.471	7.7
882.637	-0.12
882.803	2.41
882.968	5.42
883.134	7.78
883.299	1.49
883.465	2.14
883.63	5.35
883.796	4.62
883.961	2.86
884.127	3.14
884.292	-0.56
884.458	1.57
884.623	1.56
