Data from Apollo_Calib_20240827__AbsoluteIrradiance__892__14-01-01-931.txt Node

Date: Wed Aug 28 14:01:01 BST 2024
User: biology
Spectrometer: FLMT08252
Trigger mode: 0
Integration Time (sec): 5.000000E-1
Scans to average: 5
Electric dark correction enabled: true
Nonlinearity correction enabled: false
Boxcar width: 0
XAxis mode: Wavelengths
Number of Pixels in Spectrum: 3648
>>>>>Begin Spectral Data<<<<<
179.588	-0
179.809	-0
180.03	-0
180.251	-0
180.473	-0
180.694	0
180.915	0
181.136	-0
181.357	0
181.578	-0
181.799	0
182.02	-0
182.241	-0
182.462	-0
182.683	0
182.904	-0
183.125	-0
183.346	0
183.567	0
183.788	0
184.009	0
184.23	0
184.451	0
184.672	0
184.892	0
185.113	0
185.334	0
185.555	0
185.776	0
185.996	0
186.217	0
186.438	0
186.659	0
186.879	0
187.1	0
187.321	0
187.541	0
187.762	0
187.983	0
188.203	0
188.424	0
188.644	0
188.865	0
189.086	0
189.306	0
189.527	0
189.747	0
189.968	0
190.188	0
190.409	0
190.629	0
190.849	0
191.07	0
191.29	0
191.511	0
191.731	0
191.951	0
192.172	0
192.392	0
192.612	0
192.833	0
193.053	0
193.273	0
193.493	0
193.714	0
193.934	0
194.154	0
194.374	0
194.594	0
194.815	0
195.035	0
195.255	0
195.475	0
195.695	0
195.915	0
196.135	0
196.355	0
196.575	0
196.795	0
197.015	0
197.235	0
197.455	0
197.675	0
197.895	0
198.115	0
198.335	0
198.555	0
198.775	0
198.995	0
199.214	0
199.434	0
199.654	0
199.874	0
200.094	3.79
200.313	2.4
200.533	2.15
200.753	1.21
200.973	3.16
201.192	3.33
201.412	1.52
201.632	1.82
201.851	3.65
202.071	1.18
202.291	1.74
202.51	1.17
202.73	2.55
202.95	1.86
203.169	0.79
203.389	1.63
203.608	1.92
203.828	1.33
204.047	1.11
204.267	2.18
204.486	2.1
204.706	2.7
204.925	1.49
205.145	2.23
205.364	2.34
205.583	2.39
205.803	1.29
206.022	1.18
206.242	1.76
206.461	1.6
206.68	1.23
206.9	1.49
207.119	2.34
207.338	1.98
207.557	1.01
207.777	0.96
207.996	1.56
208.215	2.36
208.434	0.95
208.654	0.94
208.873	1.18
209.092	2.41
209.311	0.72
209.53	0.9
209.749	1.26
209.968	1.19
210.187	0.98
210.407	0.74
210.626	1.11
210.845	1.57
211.064	0.91
211.283	0.95
211.502	1.47
211.721	1.01
211.94	0.85
212.159	1.61
212.377	1.35
212.596	1.65
212.815	1.1
213.034	1.19
213.253	1.14
213.472	1.56
213.691	1
213.91	0.64
214.128	0.64
214.347	1.61
214.566	0.46
214.785	0.52
215.003	1.2
215.222	1.08
215.441	0.82
215.66	0.38
215.878	0.97
216.097	1.07
216.316	0.79
216.534	0.62
216.753	1.1
216.972	0.62
217.19	0.74
217.409	0.71
217.627	0.68
217.846	0.54
218.064	0.86
218.283	0.44
218.501	1.44
218.72	1.02
218.938	0.51
219.157	0.67
219.375	0.99
219.594	1.21
219.812	0.35
220.031	0.41
220.249	1.35
220.467	1.41
220.686	0.66
220.904	0.62
221.122	0.71
221.341	1.18
221.559	0.84
221.777	0.44
221.995	0.81
222.214	0.94
222.432	0.61
222.65	0.83
222.868	0.75
223.086	0.89
223.305	0.86
223.523	0.66
223.741	1.07
223.959	0.66
224.177	0.29
224.395	0.49
224.613	0.88
224.831	1.03
225.049	0.49
225.267	0.55
225.485	0.72
225.703	0.75
225.921	0.57
226.139	0.56
226.357	0.81
226.575	0.71
226.793	0.59
227.011	1.63
227.229	0.85
227.447	0.87
227.665	0.56
227.883	0.25
228.1	0.58
228.318	0.88
228.536	0.36
228.754	0.5
228.972	0.67
229.189	0.92
229.407	0.58
229.625	0.63
229.843	0.85
230.06	0.81
230.278	0.43
230.496	0.49
230.713	0.68
230.931	0.91
231.149	0.43
231.366	0.28
231.584	0.53
231.801	1.06
232.019	0.37
232.236	0.36
232.454	0.44
232.671	0.71
232.889	0.45
233.106	0.4
233.324	0.65
233.541	0.56
233.759	0.53
233.976	0.36
234.194	0.53
234.411	0.55
234.628	0.3
234.846	0.45
235.063	0.59
235.28	0.5
235.498	0.46
235.715	0.27
235.932	0.79
236.149	0.55
236.367	0.32
236.584	0.46
236.801	0.49
237.018	0.7
237.236	0.43
237.453	0.21
237.67	0.69
237.887	0.48
238.104	0.41
238.321	0.36
238.538	0.36
238.755	0.74
238.973	0.3
239.19	0.49
239.407	0.62
239.624	0.51
239.841	0.36
240.058	0.35
240.275	0.49
240.492	0.44
240.709	0.37
240.925	0.3
241.142	0.42
241.359	0.27
241.576	0.38
241.793	0.31
242.01	0.53
242.227	0.71
242.444	0.54
242.66	0.59
242.877	0.49
243.094	0.37
243.311	0.44
243.527	0.38
243.744	0.48
243.961	0.56
244.178	0.34
244.394	0.37
244.611	0.51
244.828	0.67
245.044	0.25
245.261	0.4
245.477	0.49
245.694	0.6
245.911	0.27
246.127	0.5
246.344	0.67
246.56	0.52
246.777	0.42
246.993	0.38
247.21	0.44
247.426	0.62
247.643	0.29
247.859	0.29
248.076	0.3
248.292	0.74
248.508	0.27
248.725	0.44
248.941	0.52
249.157	0.58
249.374	0.33
249.59	0.39
249.806	0.43
250.023	0.48
250.239	0.35
250.455	0.24
250.671	0.43
250.888	0.43
251.104	0.52
251.32	0.34
251.536	0.38
251.752	0.43
251.969	0.32
252.185	0.37
252.401	0.63
252.617	0.45
252.833	0.28
253.049	0.46
253.265	0.42
253.481	0.43
253.697	0.34
253.913	0.3
254.129	0.53
254.345	0.42
254.561	0.32
254.777	0.29
254.993	0.49
255.209	0.45
255.425	0.34
255.641	0.34
255.857	0.57
256.073	0.4
256.288	0.21
256.504	0.25
256.72	0.43
256.936	0.56
257.152	0.31
257.367	0.25
257.583	0.39
257.799	0.45
258.015	0.27
258.23	0.3
258.446	0.65
258.662	0.3
258.877	0.29
259.093	0.31
259.309	0.39
259.524	0.41
259.74	0.28
259.955	0.2
260.171	0.38
260.387	0.39
260.602	0.38
260.818	0.4
261.033	0.28
261.249	0.42
261.464	0.28
261.68	0.27
261.895	0.39
262.11	0.5
262.326	0.31
262.541	0.2
262.757	0.52
262.972	0.49
263.187	0.4
263.403	0.36
263.618	0.49
263.833	0.4
264.049	0.31
264.264	0.33
264.479	0.33
264.694	0.52
264.91	0.17
265.125	0.3
265.34	0.42
265.555	0.57
265.77	0.31
265.986	0.28
266.201	0.4
266.416	0.42
266.631	0.25
266.846	0.33
267.061	0.44
267.276	0.41
267.491	0.16
267.706	0.42
267.921	0.42
268.136	0.43
268.351	0.31
268.566	0.28
268.781	0.37
268.996	0.44
269.211	0.36
269.426	0.19
269.641	0.31
269.856	0.49
270.071	0.27
270.285	0.19
270.5	0.48
270.715	0.42
270.93	0.32
271.145	0.36
271.359	0.44
271.574	0.32
271.789	0.3
272.004	0.26
272.218	0.31
272.433	0.35
272.648	0.23
272.862	0.34
273.077	0.32
273.292	0.27
273.506	0.27
273.721	0.31
273.936	0.38
274.15	0.41
274.365	0.24
274.579	0.4
274.794	0.37
275.008	0.42
275.223	0.13
275.437	0.27
275.652	0.44
275.866	0.39
276.081	0.22
276.295	0.41
276.509	0.3
276.724	0.3
276.938	0.3
277.153	0.33
277.367	0.39
277.581	0.26
277.796	0.21
278.01	0.24
278.224	0.33
278.438	0.5
278.653	0.23
278.867	0.24
279.081	0.19
279.295	0.36
279.51	0.3
279.724	0.15
279.938	0.35
280.152	0.34
280.366	0.27
280.58	0.32
280.794	0.41
281.008	0.3
281.222	0.36
281.437	0.5
281.651	0.27
281.865	0.39
282.079	0.31
282.293	0.22
282.507	0.25
282.721	0.29
282.935	0.29
283.148	0.18
283.362	0.2
283.576	0.23
283.79	0.26
284.004	0.27
284.218	0.4
284.432	0.28
284.646	0.27
284.859	0.23
285.073	0.29
285.287	0.33
285.501	0.35
285.714	0.26
285.928	0.35
286.142	0.35
286.356	0.2
286.569	0.25
286.783	0.46
286.997	0.39
287.21	0.3
287.424	0.3
287.637	0.28
287.851	0.27
288.065	0.33
288.278	0.23
288.492	0.29
288.705	0.28
288.919	0.34
289.132	0.21
289.346	0.33
289.559	0.18
289.773	0.23
289.986	0.27
290.2	0.27
290.413	0.38
290.626	0.23
290.84	0.23
291.053	0.22
291.267	0.39
291.48	0.25
291.693	0.29
291.906	0.22
292.12	0.3
292.333	0.21
292.546	0.24
292.76	0.4
292.973	0.32
293.186	0.31
293.399	0.24
293.612	0.33
293.826	0.25
294.039	0.25
294.252	0.23
294.465	0.3
294.678	0.27
294.891	0.27
295.104	0.22
295.317	0.28
295.53	0.28
295.743	0.26
295.956	0.2
296.169	0.37
296.382	0.32
296.595	0.22
296.808	0.2
297.021	0.36
297.234	0.36
297.447	0.25
297.66	0.27
297.873	0.35
298.086	0.37
298.299	0.16
298.511	0.19
298.724	0.22
298.937	0.19
299.15	0.19
299.363	0.24
299.575	0.33
299.788	0.26
300.001	0.22
300.213	0.24
300.426	0.23
300.639	0.22
300.852	0.21
301.064	0.28
301.277	0.35
301.489	0.33
301.702	0.29
301.915	0.23
302.127	0.23
302.34	0.26
302.552	0.27
302.765	0.2
302.977	0.34
303.19	0.22
303.402	0.23
303.615	0.24
303.827	0.24
304.04	0.24
304.252	0.29
304.464	0.28
304.677	0.41
304.889	0.31
305.102	0.22
305.314	0.19
305.526	0.29
305.739	0.31
305.951	0.15
306.163	0.22
306.375	0.34
306.588	0.2
306.8	0.22
307.012	0.22
307.224	0.24
307.436	0.39
307.649	0.12
307.861	0.24
308.073	0.31
308.285	0.21
308.497	0.15
308.709	0.18
308.921	0.28
309.133	0.32
309.346	0.22
309.558	0.26
309.77	0.26
309.982	0.36
310.194	0.27
310.406	0.17
310.617	0.39
310.829	0.29
311.041	0.32
311.253	0.22
311.465	0.22
311.677	0.26
311.889	0.23
312.101	0.2
312.313	0.32
312.524	0.37
312.736	0.22
312.948	0.21
313.16	0.4
313.372	0.31
313.583	0.26
313.795	0.23
314.007	0.24
314.218	0.3
314.43	0.23
314.642	0.22
314.853	0.19
315.065	0.26
315.277	0.25
315.488	0.23
315.7	0.28
315.912	0.28
316.123	0.24
316.335	0.22
316.546	0.36
316.758	0.24
316.969	0.24
317.181	0.23
317.392	0.26
317.604	0.3
317.815	0.21
318.026	0.21
318.238	0.22
318.449	0.33
318.661	0.16
318.872	0.2
319.083	0.21
319.295	0.33
319.506	0.23
319.717	0.24
319.929	0.3
320.14	0.25
320.351	0.25
320.562	0.21
320.774	0.29
320.985	0.28
321.196	0.25
321.407	0.12
321.618	0.32
321.829	0.3
322.041	0.25
322.252	0.22
322.463	0.31
322.674	0.3
322.885	0.18
323.096	0.24
323.307	0.25
323.518	0.29
323.729	0.21
323.94	0.24
324.151	0.24
324.362	0.27
324.573	0.24
324.784	0.23
324.995	0.34
325.206	0.29
325.417	0.23
325.628	0.16
325.838	0.24
326.049	0.3
326.26	0.33
326.471	0.22
326.682	0.27
326.892	0.26
327.103	0.19
327.314	0.19
327.525	0.34
327.735	0.25
327.946	0.23
328.157	0.19
328.368	0.3
328.578	0.21
328.789	0.3
328.999	0.24
329.21	0.23
329.421	0.33
329.631	0.18
329.842	0.2
330.052	0.27
330.263	0.32
330.473	0.29
330.684	0.17
330.894	0.25
331.105	0.26
331.315	0.22
331.526	0.15
331.736	0.38
331.947	0.27
332.157	0.3
332.367	0.15
332.578	0.3
332.788	0.35
332.999	0.32
333.209	0.23
333.419	0.19
333.629	0.3
333.84	0.24
334.05	0.24
334.26	0.36
334.47	0.3
334.681	0.3
334.891	0.22
335.101	0.3
335.311	0.37
335.521	0.27
335.732	0.17
335.942	0.38
336.152	0.28
336.362	0.23
336.572	0.29
336.782	0.3
336.992	0.23
337.202	0.24
337.412	0.21
337.622	0.26
337.832	0.24
338.042	0.22
338.252	0.24
338.462	0.23
338.672	0.32
338.882	0.24
339.092	0.29
339.302	0.29
339.511	0.29
339.721	0.18
339.931	0.19
340.141	0.32
340.351	0.32
340.561	0.25
340.77	0.27
340.98	0.28
341.19	0.27
341.4	0.16
341.609	0.18
341.819	0.22
342.029	0.21
342.238	0.25
342.448	0.23
342.658	0.3
342.867	0.22
343.077	0.22
343.286	0.26
343.496	0.33
343.706	0.32
343.915	0.16
344.125	0.24
344.334	0.24
344.544	0.2
344.753	0.18
344.963	0.2
345.172	0.23
345.381	0.23
345.591	0.2
345.8	0.26
346.01	0.32
346.219	0.32
346.428	0.09
346.638	0.23
346.847	0.24
347.056	0.36
347.266	0.19
347.475	0.25
347.684	0.31
347.893	0.31
348.103	0.32
348.312	0.18
348.521	0.28
348.73	0.28
348.94	0.25
349.149	0.24
349.358	0.31
349.567	0.24
349.776	0.2
349.985	0.21
350.194	0.32
350.403	0.33
350.612	0.17
350.821	0.19
351.03	0.24
351.239	0.22
351.448	0.25
351.657	0.21
351.866	0.33
352.075	0.25
352.284	0.33
352.493	0.18
352.702	0.31
352.911	0.26
353.12	0.24
353.329	0.21
353.538	0.25
353.746	0.25
353.955	0.16
354.164	0.22
354.373	0.24
354.582	0.3
354.79	0.22
354.999	0.29
355.208	0.23
355.416	0.34
355.625	0.18
355.834	0.23
356.042	0.29
356.251	0.23
356.46	0.17
356.668	0.25
356.877	0.36
357.085	0.34
357.294	0.16
357.503	0.24
357.711	0.28
357.92	0.41
358.128	0.26
358.337	0.22
358.545	0.27
358.754	0.22
358.962	0.27
359.17	0.22
359.379	0.26
359.587	0.22
359.796	0.22
360.004	0.29
360.212	0.3
360.421	0.36
360.629	0.21
360.837	0.23
361.046	0.33
361.254	0.41
361.462	0.23
361.67	0.21
361.879	0.25
362.087	0.36
362.295	0.27
362.503	0.2
362.711	0.19
362.92	0.2
363.128	0.22
363.336	0.18
363.544	0.2
363.752	0.21
363.96	0.2
364.168	0.22
364.376	0.25
364.584	0.28
364.792	0.31
365	0.25
365.208	0.24
365.416	0.31
365.624	0.32
365.832	0.23
366.04	0.3
366.248	0.24
366.456	0.27
366.664	0.26
366.872	0.27
367.079	0.24
367.287	0.23
367.495	0.3
367.703	0.25
367.911	0.21
368.118	0.25
368.326	0.23
368.534	0.18
368.742	0.31
368.949	0.15
369.157	0.21
369.365	0.25
369.572	0.22
369.78	0.22
369.988	0.29
370.195	0.26
370.403	0.31
370.61	0.19
370.818	0.26
371.026	0.33
371.233	0.2
371.441	0.24
371.648	0.2
371.856	0.29
372.063	0.29
372.271	0.22
372.478	0.22
372.685	0.2
372.893	0.3
373.1	0.2
373.308	0.24
373.515	0.33
373.722	0.36
373.93	0.24
374.137	0.3
374.344	0.3
374.552	0.3
374.759	0.25
374.966	0.26
375.173	0.28
375.381	0.36
375.588	0.23
375.795	0.16
376.002	0.26
376.209	0.21
376.417	0.25
376.624	0.27
376.831	0.26
377.038	0.23
377.245	0.16
377.452	0.2
377.659	0.28
377.866	0.21
378.073	0.21
378.28	0.24
378.487	0.32
378.694	0.31
378.901	0.26
379.108	0.26
379.315	0.31
379.522	0.41
379.729	0.25
379.936	0.26
380.143	0.28
380.35	0.31
380.557	0.22
380.763	0.27
380.97	0.28
381.177	0.3
381.384	0.29
381.591	0.28
381.797	0.28
382.004	0.34
382.211	0.32
382.418	0.24
382.624	0.31
382.831	0.32
383.038	0.26
383.244	0.29
383.451	0.29
383.658	0.3
383.864	0.21
384.071	0.24
384.277	0.38
384.484	0.25
384.69	0.33
384.897	0.25
385.103	0.25
385.31	0.28
385.516	0.25
385.723	0.2
385.929	0.3
386.136	0.22
386.342	0.31
386.549	0.22
386.755	0.31
386.961	0.29
387.168	0.28
387.374	0.28
387.58	0.33
387.787	0.32
387.993	0.3
388.199	0.24
388.406	0.26
388.612	0.24
388.818	0.19
389.024	0.22
389.231	0.28
389.437	0.36
389.643	0.31
389.849	0.3
390.055	0.28
390.261	0.26
390.467	0.33
390.674	0.21
390.88	0.24
391.086	0.3
391.292	0.21
391.498	0.29
391.704	0.32
391.91	0.28
392.116	0.29
392.322	0.17
392.528	0.34
392.734	0.3
392.94	0.36
393.146	0.31
393.352	0.32
393.557	0.24
393.763	0.28
393.969	0.34
394.175	0.3
394.381	0.34
394.587	0.25
394.792	0.27
394.998	0.36
395.204	0.39
395.41	0.25
395.615	0.31
395.821	0.33
396.027	0.34
396.233	0.31
396.438	0.35
396.644	0.37
396.85	0.36
397.055	0.31
397.261	0.32
397.466	0.29
397.672	0.36
397.878	0.43
398.083	0.36
398.289	0.3
398.494	0.43
398.7	0.36
398.905	0.22
399.111	0.45
399.316	0.28
399.522	0.29
399.727	0.29
399.932	0.35
400.138	0.28
400.343	0.38
400.549	0.34
400.754	0.35
400.959	0.33
401.165	0.36
401.37	0.36
401.575	0.54
401.78	0.39
401.986	0.35
402.191	0.35
402.396	0.36
402.601	0.39
402.807	0.43
403.012	0.39
403.217	0.42
403.422	0.43
403.627	0.41
403.832	0.4
404.037	0.47
404.243	0.43
404.448	0.5
404.653	0.45
404.858	0.47
405.063	0.47
405.268	0.42
405.473	0.38
405.678	0.39
405.883	0.66
406.088	0.52
406.293	0.42
406.498	0.41
406.703	0.52
406.907	0.47
407.112	0.42
407.317	0.49
407.522	0.55
407.727	0.44
407.932	0.51
408.136	0.67
408.341	0.52
408.546	0.59
408.751	0.57
408.956	0.61
409.16	0.62
409.365	0.62
409.57	0.59
409.774	0.63
409.979	0.68
410.184	0.68
410.388	0.6
410.593	0.79
410.798	0.75
411.002	0.78
411.207	0.81
411.411	0.79
411.616	0.75
411.82	0.83
412.025	0.85
412.229	0.83
412.434	0.99
412.638	0.94
412.843	0.96
413.047	1.01
413.252	0.95
413.456	1.05
413.66	1.04
413.865	1.04
414.069	1.14
414.273	1.08
414.478	1.09
414.682	1.22
414.886	1.25
415.091	1.18
415.295	1.22
415.499	1.45
415.703	1.35
415.908	1.47
416.112	1.35
416.316	1.56
416.52	1.6
416.724	1.57
416.929	1.56
417.133	1.89
417.337	1.76
417.541	1.77
417.745	1.84
417.949	1.96
418.153	2.05
418.357	2
418.561	2.23
418.765	2.19
418.969	2.34
419.173	2.39
419.377	2.31
419.581	2.64
419.785	2.65
419.989	2.59
420.193	2.78
420.397	2.88
420.601	3.03
420.804	3.12
421.008	3.07
421.212	3.29
421.416	3.28
421.62	3.25
421.823	3.35
422.027	3.48
422.231	3.54
422.435	3.47
422.638	3.6
422.842	3.67
423.046	3.76
423.249	3.96
423.453	3.91
423.657	4.12
423.86	4.07
424.064	4.29
424.268	4.55
424.471	4.4
424.675	4.68
424.878	4.74
425.082	4.86
425.285	5.23
425.489	5.07
425.692	5.19
425.896	5.26
426.099	5.49
426.303	5.57
426.506	5.64
426.71	5.95
426.913	6.13
427.116	6.37
427.32	6.31
427.523	6.39
427.726	6.7
427.93	6.79
428.133	7.17
428.336	7.28
428.54	7.37
428.743	7.67
428.946	7.84
429.149	7.84
429.353	7.89
429.556	8.01
429.759	8.05
429.962	8.15
430.165	8.35
430.368	8.05
430.571	8.05
430.775	8.11
430.978	8.07
431.181	8.17
431.384	8.28
431.587	8.36
431.79	8.63
431.993	8.65
432.196	8.91
432.399	9.29
432.602	9.51
432.805	9.48
433.008	10
433.211	9.91
433.414	10.29
433.616	10.28
433.819	10.2
434.022	10.31
434.225	10.64
434.428	10.72
434.631	11.03
434.833	10.8
435.036	11.11
435.239	11.24
435.442	11.48
435.645	11.54
435.847	11.63
436.05	11.93
436.253	12.2
436.455	12.14
436.658	12.12
436.861	12.33
437.063	12.38
437.266	12.38
437.468	12.78
437.671	13.12
437.874	13.2
438.076	12.94
438.279	13.4
438.481	13.48
438.684	14.16
438.886	13.87
439.089	14.09
439.291	14.16
439.494	14.59
439.696	14.77
439.899	15.06
440.101	15.57
440.303	15.78
440.506	16.61
440.708	16.21
440.91	16.49
441.113	16.68
441.315	16.93
441.517	16.72
441.72	17.19
441.922	16.82
442.124	16.75
442.326	17.12
442.529	17.35
442.731	17.38
442.933	17.69
443.135	17.36
443.337	17.48
443.539	18.07
443.742	17.58
443.944	18.3
444.146	17.96
444.348	17.98
444.55	18.09
444.752	18.19
444.954	18.12
445.156	18.04
445.358	18.35
445.56	18.66
445.762	18.61
445.964	18.96
446.166	18.51
446.368	18.52
446.57	18.66
446.772	18.18
446.974	17.86
447.175	18.28
447.377	17.98
447.579	18.37
447.781	18.08
447.983	17.92
448.184	17.33
448.386	17.8
448.588	17.13
448.79	17.08
448.991	17.33
449.193	17.41
449.395	16.74
449.597	16.49
449.798	16.3
450	15.96
450.202	15.9
450.403	15.76
450.605	15.72
450.806	15.38
451.008	15.15
451.21	15.12
451.411	14.55
451.613	13.75
451.814	13.96
452.016	14.05
452.217	13.26
452.419	13.44
452.62	12.98
452.821	12.53
453.023	12.67
453.224	12.21
453.426	11.78
453.627	11.18
453.828	11.31
454.03	11.25
454.231	11.25
454.432	11.09
454.634	10.81
454.835	10.54
455.036	10.31
455.238	10.08
455.439	9.83
455.64	9.53
455.841	9.51
456.042	9.56
456.244	9.18
456.445	8.96
456.646	8.66
456.847	8.55
457.048	8.5
457.249	8.56
457.45	8.27
457.651	7.74
457.852	7.6
458.054	7.29
458.255	7.18
458.456	7.33
458.657	7.09
458.858	6.71
459.058	6.72
459.259	6.65
459.46	6.43
459.661	6.46
459.862	6.49
460.063	6.33
460.264	6.31
460.465	6.01
460.666	6.04
460.866	5.75
461.067	5.56
461.268	5.53
461.469	5.47
461.67	5.37
461.87	5.19
462.071	5.29
462.272	5.07
462.473	5.06
462.673	5.34
462.874	5.15
463.075	5.12
463.275	5.12
463.476	5.16
463.676	5.09
463.877	4.9
464.078	4.94
464.278	5.08
464.479	4.86
464.679	4.76
464.88	4.7
465.08	4.66
465.281	4.6
465.481	4.29
465.682	4.15
465.882	4.16
466.083	4.08
466.283	4.1
466.483	3.96
466.684	3.76
466.884	3.67
467.085	3.65
467.285	3.76
467.485	3.58
467.686	3.54
467.886	3.48
468.086	3.31
468.286	3.38
468.487	3.39
468.687	3.23
468.887	3.22
469.087	3.31
469.287	3.25
469.488	3.06
469.688	3.18
469.888	3.21
470.088	3.11
470.288	3.03
470.488	3.11
470.688	2.85
470.888	2.86
471.088	2.75
471.288	2.82
471.488	2.81
471.688	2.69
471.888	2.65
472.088	2.86
472.288	2.75
472.488	2.63
472.688	2.55
472.888	2.58
473.088	2.59
473.288	2.5
473.488	2.45
473.688	2.68
473.887	2.52
474.087	2.39
474.287	2.46
474.487	2.38
474.687	2.43
474.886	2.32
475.086	2.31
475.286	2.33
475.486	2.33
475.685	2.22
475.885	2.21
476.085	2.29
476.284	2.28
476.484	2.21
476.684	2.24
476.883	2.29
477.083	2.19
477.282	2.12
477.482	2.19
477.681	2.14
477.881	2.1
478.08	2.06
478.28	2.01
478.479	2.08
478.679	2.18
478.878	2
479.078	2
479.277	2.11
479.477	2.1
479.676	1.99
479.875	1.99
480.075	1.95
480.274	2.06
480.473	2.06
480.673	2.05
480.872	2.09
481.071	2.05
481.271	2.08
481.47	1.99
481.669	1.99
481.868	1.93
482.067	1.98
482.267	1.91
482.466	1.91
482.665	1.99
482.864	1.96
483.063	1.94
483.262	2.03
483.461	2.06
483.661	2.09
483.86	2
484.059	2.06
484.258	2.02
484.457	2
484.656	2.02
484.855	2.11
485.054	1.91
485.253	1.97
485.452	1.97
485.651	2.08
485.849	2.05
486.048	1.98
486.247	2.03
486.446	2.1
486.645	1.99
486.844	2.08
487.043	2.04
487.241	2.11
487.44	2.08
487.639	2.12
487.838	2.13
488.037	2.13
488.235	2.24
488.434	2.15
488.633	2.04
488.831	2.24
489.03	2.23
489.229	2.23
489.427	2.22
489.626	2.27
489.825	2.27
490.023	2.26
490.222	2.28
490.42	2.31
490.619	2.38
490.817	2.33
491.016	2.37
491.214	2.41
491.413	2.43
491.611	2.36
491.81	2.39
492.008	2.46
492.207	2.57
492.405	2.55
492.604	2.48
492.802	2.58
493	2.63
493.199	2.6
493.397	2.62
493.595	2.7
493.794	2.67
493.992	2.77
494.19	2.72
494.388	2.79
494.587	2.77
494.785	2.8
494.983	2.7
495.181	2.87
495.379	2.88
495.578	2.96
495.776	2.96
495.974	2.94
496.172	2.96
496.37	3.08
496.568	3.11
496.766	3.05
496.964	3.17
497.162	3.19
497.36	3.25
497.558	3.27
497.756	3.29
497.954	3.26
498.152	3.35
498.35	3.43
498.548	3.38
498.746	3.37
498.944	3.41
499.142	3.42
499.34	3.55
499.538	3.61
499.736	3.51
499.933	3.63
500.131	3.69
500.329	3.82
500.527	3.74
500.725	3.84
500.922	3.87
501.12	3.94
501.318	3.97
501.516	3.9
501.713	3.98
501.911	4.02
502.109	3.95
502.306	4.11
502.504	4.05
502.701	4.11
502.899	4.19
503.097	4.39
503.294	4.27
503.492	4.37
503.689	4.37
503.887	4.42
504.084	4.46
504.282	4.46
504.479	4.38
504.677	4.63
504.874	4.56
505.072	4.43
505.269	4.62
505.466	4.72
505.664	4.71
505.861	4.6
506.059	4.77
506.256	4.78
506.453	4.83
506.651	4.95
506.848	5.04
507.045	4.99
507.242	4.93
507.44	5.01
507.637	5.11
507.834	5.09
508.031	5.21
508.229	5.14
508.426	5.15
508.623	5.24
508.82	5.31
509.017	5.25
509.214	5.28
509.411	5.41
509.608	5.35
509.805	5.51
510.003	5.41
510.2	5.51
510.397	5.66
510.594	5.54
510.791	5.66
510.988	5.67
511.184	5.62
511.381	5.55
511.578	5.68
511.775	5.82
511.972	5.7
512.169	5.82
512.366	5.8
512.563	5.96
512.76	5.99
512.956	5.98
513.153	5.91
513.35	5.94
513.547	5.95
513.744	6.06
513.94	5.98
514.137	6.18
514.334	6.14
514.53	6.17
514.727	6.38
514.924	6.26
515.12	6.22
515.317	6.3
515.514	6.2
515.71	6.2
515.907	6.46
516.103	6.41
516.3	6.36
516.497	6.48
516.693	6.45
516.89	6.49
517.086	6.5
517.283	6.54
517.479	6.43
517.676	6.58
517.872	6.68
518.068	6.61
518.265	6.61
518.461	6.58
518.658	6.7
518.854	6.74
519.05	6.8
519.247	6.82
519.443	6.75
519.639	6.93
519.836	6.8
520.032	6.73
520.228	6.88
520.424	6.83
520.621	6.88
520.817	6.96
521.013	6.92
521.209	7.09
521.405	7.07
521.601	7.07
521.798	6.99
521.994	7.06
522.19	6.93
522.386	7.03
522.582	7.13
522.778	7.22
522.974	7.15
523.17	7.15
523.366	7.06
523.562	7.17
523.758	7.18
523.954	7.01
524.15	7.26
524.346	7.3
524.542	7.36
524.738	7.21
524.934	7.42
525.129	7.31
525.325	7.24
525.521	7.28
525.717	7.47
525.913	7.33
526.109	7.37
526.304	7.44
526.5	7.42
526.696	7.49
526.892	7.36
527.087	7.57
527.283	7.47
527.479	7.49
527.674	7.27
527.87	7.57
528.066	7.47
528.261	7.51
528.457	7.48
528.653	7.62
528.848	7.52
529.044	7.67
529.239	7.54
529.435	7.56
529.63	7.51
529.826	7.59
530.021	7.53
530.217	7.64
530.412	7.54
530.608	7.62
530.803	7.57
530.999	7.51
531.194	7.64
531.389	7.72
531.585	7.64
531.78	7.85
531.975	7.69
532.171	7.77
532.366	7.73
532.561	7.79
532.757	7.7
532.952	7.89
533.147	7.64
533.342	7.71
533.538	7.67
533.733	7.95
533.928	7.62
534.123	7.73
534.318	7.81
534.513	7.73
534.709	7.89
534.904	7.81
535.099	7.93
535.294	7.92
535.489	7.92
535.684	7.85
535.879	7.73
536.074	7.94
536.269	7.94
536.464	7.99
536.659	7.85
536.854	7.84
537.049	7.96
537.244	7.88
537.439	7.92
537.634	7.93
537.828	8.02
538.023	7.93
538.218	7.93
538.413	7.87
538.608	7.97
538.803	7.94
538.997	7.89
539.192	7.94
539.387	7.9
539.582	7.94
539.776	7.84
539.971	7.98
540.166	8.01
540.36	7.91
540.555	8.09
540.75	8.01
540.944	8.07
541.139	8.08
541.334	7.98
541.528	8
541.723	8.07
541.917	8.11
542.112	8
542.306	7.96
542.501	7.94
542.695	7.94
542.89	7.91
543.084	8.09
543.279	8.04
543.473	8.09
543.668	8.07
543.862	7.94
544.056	7.92
544.251	8.04
544.445	8.13
544.64	8.13
544.834	7.78
545.028	7.73
545.222	8.08
545.417	8.22
545.611	8.14
545.805	8.03
546	7.92
546.194	8.09
546.388	8.1
546.582	7.95
546.776	8.01
546.97	8.04
547.165	8.04
547.359	8.01
547.553	8
547.747	8.02
547.941	8.26
548.135	8
548.329	8.04
548.523	8.12
548.717	8.05
548.911	7.99
549.105	7.98
549.299	8.11
549.493	8.07
549.687	8.02
549.881	8.15
550.075	8.03
550.269	8.05
550.463	8.14
550.657	8.1
550.85	8.06
551.044	8.05
551.238	8.13
551.432	8.05
551.626	8.12
551.82	8.14
552.013	8.04
552.207	8.18
552.401	8.17
552.594	8.12
552.788	8.04
552.982	8.06
553.176	8.03
553.369	8.24
553.563	8.13
553.756	8.08
553.95	8.18
554.144	8.13
554.337	8.22
554.531	7.96
554.724	8.16
554.918	8.16
555.111	8.09
555.305	8.15
555.498	8.06
555.692	8.25
555.885	8.12
556.079	8.03
556.272	8.07
556.466	8.16
556.659	8.12
556.852	8.15
557.046	8.05
557.239	7.96
557.432	8.07
557.626	8.14
557.819	8.23
558.012	8.17
558.206	8.22
558.399	8.11
558.592	8.09
558.785	8.06
558.979	8.12
559.172	8.06
559.365	8.12
559.558	8.06
559.751	8.05
559.944	8.19
560.138	8.1
560.331	8.09
560.524	8.15
560.717	8.11
560.91	8.11
561.103	8.13
561.296	8
561.489	8.16
561.682	8.18
561.875	8.18
562.068	8.24
562.261	7.96
562.454	8.29
562.647	8.03
562.84	8.11
563.032	8.11
563.225	8.05
563.418	8.06
563.611	8.12
563.804	8.13
563.997	7.97
564.19	7.88
564.382	8.18
564.575	8.15
564.768	8.07
564.961	8.14
565.153	8.09
565.346	8
565.539	8.19
565.731	8.09
565.924	8.16
566.117	8.27
566.309	8.15
566.502	8.07
566.695	7.99
566.887	8.17
567.08	8.04
567.272	8.15
567.465	7.98
567.657	8.16
567.85	7.99
568.042	8.13
568.235	8.15
568.427	7.95
568.62	8.08
568.812	7.95
569.005	8.12
569.197	7.92
569.389	8.12
569.582	8.03
569.774	7.99
569.966	7.96
570.159	7.95
570.351	8
570.543	7.98
570.736	8.01
570.928	7.9
571.12	8
571.312	7.94
571.505	7.78
571.697	8.14
571.889	7.97
572.081	8.02
572.273	7.91
572.465	8.06
572.658	8.02
572.85	7.98
573.042	8.03
573.234	7.98
573.426	7.96
573.618	7.95
573.81	8
574.002	7.91
574.194	8
574.386	7.86
574.578	7.77
574.77	7.9
574.962	7.95
575.154	7.85
575.346	7.87
575.538	7.86
575.729	7.89
575.921	7.96
576.113	7.95
576.305	7.94
576.497	7.97
576.689	7.79
576.88	7.75
577.072	7.93
577.264	7.89
577.456	7.87
577.647	7.78
577.839	8.04
578.031	7.87
578.223	7.84
578.414	7.7
578.606	7.84
578.798	7.94
578.989	7.79
579.181	7.83
579.372	7.83
579.564	7.87
579.755	7.78
579.947	7.72
580.139	7.77
580.33	7.62
580.522	7.82
580.713	7.73
580.905	7.72
581.096	7.82
581.287	7.7
581.479	7.7
581.67	7.8
581.862	7.69
582.053	7.72
582.244	7.58
582.436	7.85
582.627	7.69
582.818	7.58
583.01	7.6
583.201	7.72
583.392	7.64
583.583	7.58
583.775	7.44
583.966	7.56
584.157	7.58
584.348	7.7
584.54	7.51
584.731	7.62
584.922	7.52
585.113	7.44
585.304	7.57
585.495	7.59
585.686	7.65
585.877	7.66
586.068	7.62
586.259	7.55
586.45	7.55
586.641	7.45
586.832	7.58
587.023	7.53
587.214	7.49
587.405	7.45
587.596	7.42
587.787	7.45
587.978	7.51
588.169	7.43
588.36	7.35
588.551	7.42
588.742	7.44
588.932	7.5
589.123	7.25
589.314	7.51
589.505	7.3
589.696	7.38
589.886	7.33
590.077	7.39
590.268	7.3
590.458	7.2
590.649	7.16
590.84	7.33
591.03	7.28
591.221	7.24
591.412	7.1
591.602	7.34
591.793	7.22
591.984	7.25
592.174	7.23
592.365	7.34
592.555	7.11
592.746	7.11
592.936	7.17
593.127	7.22
593.317	7.24
593.508	7.2
593.698	7.12
593.889	7.14
594.079	7.14
594.269	7.07
594.46	7.05
594.65	7.05
594.84	7.04
595.031	6.92
595.221	7.02
595.411	6.98
595.602	7.04
595.792	6.93
595.982	6.85
596.172	7.11
596.363	6.84
596.553	6.96
596.743	6.97
596.933	6.91
597.123	6.96
597.314	6.74
597.504	6.76
597.694	6.91
597.884	6.77
598.074	6.84
598.264	6.81
598.454	6.83
598.644	6.74
598.834	6.83
599.024	6.66
599.214	6.66
599.404	6.77
599.594	6.75
599.784	6.64
599.974	6.76
600.164	6.69
600.354	6.59
600.544	6.59
600.734	6.64
600.924	6.63
601.114	6.51
601.303	6.52
601.493	6.6
601.683	6.57
601.873	6.52
602.063	6.5
602.252	6.51
602.442	6.36
602.632	6.39
602.821	6.36
603.011	6.41
603.201	6.41
603.39	6.36
603.58	6.25
603.77	6.38
603.959	6.48
604.149	6.31
604.339	6.36
604.528	6.41
604.718	6.4
604.907	6.29
605.097	6.23
605.286	6.28
605.476	6.21
605.665	6.25
605.855	6.18
606.044	6.33
606.234	6.27
606.423	6.16
606.612	6.16
606.802	6.19
606.991	6.18
607.181	6.23
607.37	6.17
607.559	5.9
607.749	6.09
607.938	6.07
608.127	6.05
608.316	6.09
608.506	6.01
608.695	6.07
608.884	5.93
609.073	6
609.263	6.05
609.452	6.04
609.641	5.89
609.83	5.84
610.019	5.92
610.208	5.84
610.397	5.86
610.586	5.87
610.775	5.78
610.965	5.85
611.154	5.68
611.343	5.83
611.532	5.76
611.721	5.81
611.91	5.68
612.099	5.71
612.287	5.65
612.476	5.54
612.665	5.7
612.854	5.6
613.043	5.67
613.232	5.58
613.421	5.55
613.61	5.63
613.798	5.56
613.987	5.66
614.176	5.55
614.365	5.54
614.554	5.49
614.742	5.55
614.931	5.35
615.12	5.49
615.309	5.39
615.497	5.35
615.686	5.32
615.875	5.37
616.063	5.35
616.252	5.38
616.44	5.37
616.629	5.3
616.818	5.36
617.006	5.29
617.195	5.22
617.383	5.28
617.572	5.15
617.76	5.25
617.949	5.24
618.137	5.23
618.326	5.21
618.514	5
618.703	5.03
618.891	5.18
619.079	5.04
619.268	5.11
619.456	4.97
619.644	5.14
619.833	4.99
620.021	4.99
620.209	4.91
620.398	5.01
620.586	4.87
620.774	4.92
620.962	4.95
621.151	5.08
621.339	4.9
621.527	4.83
621.715	4.74
621.903	4.86
622.092	4.78
622.28	4.94
622.468	4.64
622.656	4.78
622.844	4.71
623.032	4.79
623.22	4.65
623.408	4.82
623.596	4.71
623.784	4.73
623.972	4.64
624.16	4.63
624.348	4.68
624.536	4.78
624.724	4.55
624.912	4.62
625.1	4.66
625.288	4.63
625.476	4.53
625.664	4.71
625.851	4.45
626.039	4.52
626.227	4.51
626.415	4.5
626.603	4.43
626.79	4.47
626.978	4.42
627.166	4.42
627.354	4.37
627.541	4.41
627.729	4.24
627.917	4.49
628.104	4.44
628.292	4.27
628.48	4.32
628.667	4.24
628.855	4.45
629.042	4.35
629.23	4.3
629.418	4.26
629.605	4.23
629.793	4.07
629.98	4.15
630.168	4.12
630.355	4.2
630.543	4.15
630.73	4.08
630.917	4.13
631.105	4.2
631.292	4.1
631.48	4.06
631.667	4.24
631.854	4.04
632.042	4.04
632.229	3.92
632.416	4.03
632.604	4.05
632.791	3.88
632.978	3.95
633.165	3.92
633.353	4.03
633.54	3.93
633.727	3.86
633.914	3.85
634.101	3.87
634.289	3.97
634.476	3.81
634.663	3.76
634.85	3.86
635.037	3.76
635.224	3.66
635.411	3.86
635.598	3.74
635.785	3.69
635.972	3.65
636.159	3.78
636.346	3.6
636.533	3.6
636.72	3.66
636.907	3.68
637.094	3.63
637.281	3.57
637.468	3.61
637.655	3.56
637.842	3.65
638.029	3.51
638.215	3.56
638.402	3.55
638.589	3.46
638.776	3.48
638.963	3.42
639.149	3.53
639.336	3.56
639.523	3.46
639.709	3.45
639.896	3.38
640.083	3.37
640.27	3.43
640.456	3.32
640.643	3.36
640.829	3.24
641.016	3.31
641.203	3.26
641.389	3.36
641.576	3.32
641.762	3.2
641.949	3.21
642.135	3.21
642.322	3.21
642.508	3.13
642.695	3.19
642.881	3.14
643.068	3.13
643.254	3.12
643.441	3.09
643.627	3.27
643.813	3.04
644	3.11
644.186	3.04
644.372	3.01
644.559	3.11
644.745	3.08
644.931	2.94
645.118	3.03
645.304	3.05
645.49	2.98
645.676	2.94
645.862	2.95
646.049	3.07
646.235	2.96
646.421	3.04
646.607	3.07
646.793	2.91
646.979	2.85
647.165	2.91
647.352	2.9
647.538	2.9
647.724	2.83
647.91	2.81
648.096	2.88
648.282	2.85
648.468	2.77
648.654	2.83
648.84	2.86
649.026	2.82
649.212	2.68
649.397	2.71
649.583	2.7
649.769	2.74
649.955	2.74
650.141	2.77
650.327	2.74
650.513	2.63
650.698	2.67
650.884	2.55
651.07	2.66
651.256	2.63
651.442	2.52
651.627	2.5
651.813	2.65
651.999	2.59
652.184	2.53
652.37	2.58
652.556	2.54
652.741	2.58
652.927	2.36
653.113	2.45
653.298	2.53
653.484	2.47
653.669	2.42
653.855	2.44
654.04	2.51
654.226	2.5
654.412	2.4
654.597	2.37
654.782	2.43
654.968	2.5
655.153	2.38
655.339	2.36
655.524	2.34
655.71	2.4
655.895	2.33
656.08	2.31
656.266	2.38
656.451	2.31
656.636	2.28
656.822	2.27
657.007	2.36
657.192	2.29
657.378	2.23
657.563	2.22
657.748	2.29
657.933	2.24
658.118	2.21
658.304	2.21
658.489	2.27
658.674	2.24
658.859	2.13
659.044	2.13
659.229	2.24
659.414	2.16
659.599	2.14
659.785	2.05
659.97	2.11
660.155	2.15
660.34	2.11
660.525	2.07
660.71	2.07
660.895	2.17
661.08	2.01
661.264	1.98
661.449	2.13
661.634	2.09
661.819	2.08
662.004	2.01
662.189	1.95
662.374	1.92
662.559	1.94
662.743	1.92
662.928	1.98
663.113	1.98
663.298	1.94
663.483	1.94
663.667	1.94
663.852	1.88
664.037	1.94
664.221	1.91
664.406	2.02
664.591	1.96
664.775	1.92
664.96	1.85
665.145	1.85
665.329	1.94
665.514	1.86
665.698	1.79
665.883	1.76
666.068	1.95
666.252	1.88
666.437	1.84
666.621	1.86
666.806	1.91
666.99	1.78
667.174	1.73
667.359	1.85
667.543	1.76
667.728	1.78
667.912	1.64
668.096	1.78
668.281	1.69
668.465	1.78
668.649	1.7
668.834	1.67
669.018	1.72
669.202	1.68
669.387	1.6
669.571	1.77
669.755	1.65
669.939	1.64
670.124	1.67
670.308	1.72
670.492	1.68
670.676	1.62
670.86	1.58
671.044	1.54
671.228	1.69
671.413	1.55
671.597	1.51
671.781	1.58
671.965	1.61
672.149	1.58
672.333	1.58
672.517	1.58
672.701	1.6
672.885	1.61
673.069	1.49
673.253	1.63
673.437	1.5
673.621	1.49
673.804	1.5
673.988	1.54
674.172	1.5
674.356	1.41
674.54	1.53
674.724	1.65
674.908	1.48
675.091	1.51
675.275	1.48
675.459	1.52
675.643	1.47
675.826	1.48
676.01	1.34
676.194	1.47
676.377	1.52
676.561	1.49
676.745	1.43
676.928	1.45
677.112	1.48
677.296	1.39
677.479	1.42
677.663	1.35
677.846	1.48
678.03	1.39
678.213	1.28
678.397	1.44
678.58	1.38
678.764	1.34
678.947	1.31
679.131	1.37
679.314	1.36
679.498	1.26
679.681	1.37
679.865	1.4
680.048	1.33
680.231	1.28
680.415	1.24
680.598	1.25
680.781	1.3
680.965	1.3
681.148	1.28
681.331	1.27
681.514	1.3
681.698	1.18
681.881	1.29
682.064	1.29
682.247	1.28
682.43	1.14
682.614	1.28
682.797	1.3
682.98	1.31
683.163	1.17
683.346	1.25
683.529	1.2
683.712	1.16
683.895	1.21
684.078	1.12
684.261	1.15
684.444	1.28
684.627	1.22
684.81	1.07
684.993	1.12
685.176	1.23
685.359	1.06
685.542	1.14
685.725	1.24
685.908	1.16
686.091	1.13
686.274	1.21
686.457	1.18
686.639	1.19
686.822	1.17
687.005	1.12
687.188	1.18
687.371	1.22
687.553	1.18
687.736	1.08
687.919	1.26
688.102	1.23
688.284	1.09
688.467	1.01
688.65	1.03
688.832	0.98
689.015	1.06
689.197	0.99
689.38	1.16
689.563	1.14
689.745	0.93
689.928	1.01
690.11	0.98
690.293	1.07
690.475	0.94
690.658	1.02
690.84	1.12
691.023	1.03
691.205	0.96
691.388	1.02
691.57	1.06
691.752	1.05
691.935	0.85
692.117	0.91
692.3	1.01
692.482	0.99
692.664	0.89
692.847	0.94
693.029	1.07
693.211	1
693.393	0.95
693.576	0.86
693.758	0.95
693.94	0.94
694.122	0.9
694.304	0.91
694.487	0.91
694.669	0.95
694.851	0.8
695.033	0.89
695.215	0.87
695.397	0.92
695.579	0.92
695.761	0.87
695.943	0.81
696.125	0.99
696.308	0.91
696.49	0.76
696.671	1.14
696.853	0.94
697.035	1.16
697.217	0.83
697.399	1.02
697.581	0.84
697.763	0.88
697.945	0.75
698.127	0.87
698.309	1.02
698.491	0.92
698.672	0.92
698.854	0.92
699.036	0.97
699.218	0.79
699.399	0.88
699.581	0.85
699.763	0.8
699.945	0.76
700.126	0.72
700.308	0.87
700.49	0.88
700.671	0.72
700.853	0.72
701.035	0.73
701.216	0.77
701.398	0.74
701.579	0.75
701.761	0.85
701.943	0.79
702.124	0.71
702.306	0.75
702.487	0.9
702.669	0.79
702.85	0.78
703.031	0.67
703.213	0.9
703.394	0.88
703.576	0.73
703.757	0.91
703.938	0.75
704.12	0.98
704.301	0.73
704.483	0.73
704.664	0.72
704.845	0.86
705.026	0.85
705.208	0.71
705.389	0.8
705.57	0.77
705.751	0.76
705.933	0.77
706.114	0.81
706.295	0.77
706.476	0.68
706.657	0.81
706.838	0.77
707.02	0.79
707.201	0.66
707.382	0.62
707.563	0.75
707.744	0.67
707.925	0.66
708.106	0.69
708.287	0.68
708.468	0.84
708.649	0.68
708.83	0.74
709.011	0.73
709.192	0.79
709.373	0.59
709.554	0.66
709.734	0.83
709.915	0.76
710.096	0.71
710.277	0.52
710.458	0.65
710.639	0.7
710.819	0.55
711	0.58
711.181	0.73
711.362	0.8
711.542	0.64
711.723	0.62
711.904	0.73
712.085	0.74
712.265	0.6
712.446	0.55
712.627	0.55
712.807	0.62
712.988	0.66
713.168	0.51
713.349	0.8
713.53	0.46
713.71	0.54
713.891	0.53
714.071	0.62
714.252	0.56
714.432	0.51
714.613	0.52
714.793	0.59
714.974	0.76
715.154	0.68
715.334	0.67
715.515	0.77
715.695	0.49
715.876	0.66
716.056	0.6
716.236	0.46
716.417	0.52
716.597	0.57
716.777	0.77
716.957	0.57
717.138	0.53
717.318	0.52
717.498	0.49
717.678	0.53
717.859	0.65
718.039	0.4
718.219	0.62
718.399	0.53
718.579	0.52
718.759	0.43
718.939	0.58
719.12	0.6
719.3	0.52
719.48	0.34
719.66	0.41
719.84	0.62
720.02	0.6
720.2	0.44
720.38	0.49
720.56	0.71
720.74	0.46
720.92	0.55
721.1	0.66
721.279	0.69
721.459	0.64
721.639	0.46
721.819	0.53
721.999	0.53
722.179	0.65
722.359	0.36
722.538	0.53
722.718	0.56
722.898	0.58
723.078	0.52
723.257	0.47
723.437	0.59
723.617	0.53
723.797	0.56
723.976	0.55
724.156	0.63
724.336	0.6
724.515	0.76
724.695	0.37
724.874	0.49
725.054	0.62
725.234	0.44
725.413	0.55
725.593	0.49
725.772	0.53
725.952	0.44
726.131	0.53
726.311	0.46
726.49	0.54
726.67	0.36
726.849	0.47
727.028	0.56
727.208	0.45
727.387	0.56
727.567	0.34
727.746	0.4
727.925	0.46
728.105	0.38
728.284	0.35
728.463	0.54
728.643	0.64
728.822	0.43
729.001	0.33
729.18	0.54
729.359	0.59
729.539	0.52
729.718	0.41
729.897	0.57
730.076	0.47
730.255	0.36
730.434	0.48
730.614	0.61
730.793	0.64
730.972	0.45
731.151	0.54
731.33	0.52
731.509	0.56
731.688	0.42
731.867	0.49
732.046	0.32
732.225	0.72
732.404	0.4
732.583	0.28
732.762	0.43
732.941	0.63
733.12	0.46
733.298	0.42
733.477	0.68
733.656	0.44
733.835	0.46
734.014	0.56
734.193	0.51
734.371	0.46
734.55	0.57
734.729	0.42
734.908	0.48
735.086	0.54
735.265	0.61
735.444	0.26
735.623	0.38
735.801	0.42
735.98	0.39
736.159	0.41
736.337	0.55
736.516	0.56
736.694	0.56
736.873	0.38
737.052	0.63
737.23	0.62
737.409	0.45
737.587	0.69
737.766	0.28
737.944	0.5
738.123	0.61
738.301	0.47
738.479	0.52
738.658	0.53
738.836	0.31
739.015	0.51
739.193	0.67
739.371	0.44
739.55	0.42
739.728	0.24
739.906	0.59
740.085	0.72
740.263	0.47
740.441	0.29
740.62	0.72
740.798	0.56
740.976	0.43
741.154	0.37
741.332	0.63
741.511	0.42
741.689	0.45
741.867	0.46
742.045	0.53
742.223	0.49
742.401	0.33
742.579	0.4
742.757	0.66
742.935	0.35
743.114	0.46
743.292	0.38
743.47	0.51
743.648	0.49
743.826	0.31
744.004	0.45
744.181	0.63
744.359	0.39
744.537	0.52
744.715	0.36
744.893	0.44
745.071	0.5
745.249	0.4
745.427	0.37
745.605	0.49
745.782	0.5
745.96	0.5
746.138	0.51
746.316	0.55
746.493	0.29
746.671	0.45
746.849	0.22
747.027	0.74
747.204	0.32
747.382	0.42
747.56	0.32
747.737	0.41
747.915	0.37
748.093	0.46
748.27	0.32
748.448	0.34
748.625	0.18
748.803	0.32
748.98	0.2
749.158	0.57
749.335	0.5
749.513	0.34
749.69	0.43
749.868	0.34
750.045	0.5
750.223	0.22
750.4	0.19
750.578	0.56
750.755	0.44
750.932	0.23
751.11	0.48
751.287	0.26
751.464	0.59
751.642	0.31
751.819	0.43
751.996	0.47
752.173	0.29
752.351	0.27
752.528	0.48
752.705	0.51
752.882	0.34
753.06	0.42
753.237	0.41
753.414	0.66
753.591	0.73
753.768	0.34
753.945	0.29
754.122	0.3
754.299	0.58
754.476	0.3
754.654	0.38
754.831	0.54
755.008	0.42
755.185	0.28
755.362	0.26
755.539	0.47
755.716	0.27
755.892	0.3
756.069	0.32
756.246	0.43
756.423	0.37
756.6	0.51
756.777	0.12
756.954	0.5
757.131	0.31
757.307	0.25
757.484	0.19
757.661	0.41
757.838	0.49
758.015	0.18
758.191	0.43
758.368	0.44
758.545	0.56
758.721	0.44
758.898	0.17
759.075	0.42
759.251	0.47
759.428	0.34
759.605	0.18
759.781	0.35
759.958	0.42
760.134	0.37
760.311	0.29
760.488	0.41
760.664	0.6
760.841	0.27
761.017	0.14
761.194	0.35
761.37	0.52
761.547	0.29
761.723	0.2
761.899	0.44
762.076	0.32
762.252	0.22
762.429	0.2
762.605	0.54
762.781	0.28
762.958	0.44
763.134	0.28
763.31	0.22
763.486	0.57
763.663	0.04
763.839	0.53
764.015	0.19
764.191	0.34
764.368	0.27
764.544	0.29
764.72	0.47
764.896	0.44
765.072	0.31
765.248	0.3
765.425	0.22
765.601	0.37
765.777	0.55
765.953	0.11
766.129	0.22
766.305	0.18
766.481	0.52
766.657	0.35
766.833	0.5
767.009	0.25
767.185	0.25
767.361	0.25
767.537	0.28
767.713	0.46
767.889	0.37
768.065	0.43
768.24	0.22
768.416	0.44
768.592	0.38
768.768	0.3
768.944	0.48
769.12	0.31
769.295	0.37
769.471	0.27
769.647	0.28
769.823	0.44
769.998	0.15
770.174	0.21
770.35	0.97
770.525	0.82
770.701	0.33
770.877	0.38
771.052	0.16
771.228	0.56
771.403	0.33
771.579	0.4
771.755	0.71
771.93	0.26
772.106	0.23
772.281	0.09
772.457	0.37
772.632	0.42
772.808	0.16
772.983	0.27
773.159	0.07
773.334	0.67
773.509	0.55
773.685	0.12
773.86	0.73
774.036	0.61
774.211	0.43
774.386	0.37
774.562	0.32
774.737	0.64
774.912	0.2
775.087	0.47
775.263	0.33
775.438	0.51
775.613	0.35
775.788	0.26
775.964	0.65
776.139	0.97
776.314	0.23
776.489	0.44
776.664	0.45
776.839	0.34
777.014	0.41
777.19	0.46
777.365	0.63
777.54	0.69
777.715	0.19
777.89	0.37
778.065	0.16
778.24	0.47
778.415	0.36
778.59	-0.01
778.765	0.34
778.94	0.59
779.115	0.39
779.289	0.34
779.464	0.26
779.639	0.32
779.814	0.13
779.989	0.26
780.164	0.63
780.339	0.5
780.513	0.22
780.688	0.11
780.863	0.43
781.038	0.57
781.212	0.19
781.387	0.3
781.562	0.78
781.737	0.37
781.911	0.64
782.086	0.18
782.261	0.33
782.435	0.82
782.61	0.34
782.784	0.43
782.959	0.8
783.134	0.35
783.308	0.13
783.483	0.19
783.657	0.95
783.832	0.44
784.006	0.04
784.181	0.36
784.355	0.55
784.53	0.15
784.704	0.13
784.878	0.67
785.053	0.68
785.227	0.65
785.402	0.82
785.576	0.26
785.75	0.37
785.925	0.38
786.099	0.41
786.273	0.5
786.448	0.76
786.622	0.56
786.796	0.44
786.97	0.16
787.145	1.1
787.319	-0.03
787.493	0.26
787.667	0.05
787.841	0.61
788.015	0.79
788.19	0.28
788.364	0.52
788.538	0.81
788.712	0.83
788.886	0.32
789.06	0.62
789.234	0.68
789.408	0.25
789.582	0.26
789.756	0.51
789.93	0.4
790.104	0.34
790.278	0.09
790.452	0.09
790.626	0.4
790.8	0.24
790.973	0.55
791.147	0.85
791.321	0.69
791.495	0.94
791.669	0.49
791.843	0.45
792.016	0.5
792.19	0.93
792.364	0.3
792.538	1.05
792.711	0.64
792.885	0.33
793.059	0.03
793.233	-0.21
793.406	0.72
793.58	0.51
793.754	0.53
793.927	0.22
794.101	0.83
794.274	0.62
794.448	0.77
794.622	0.11
794.795	0.92
794.969	0.34
795.142	0.86
795.316	0.3
795.489	0.44
795.663	0.97
795.836	0.55
796.009	-0
796.183	0.87
796.356	0.71
796.53	0.5
796.703	0.43
796.876	1.04
797.05	0.31
797.223	0.16
797.396	0.56
797.57	0.37
797.743	1.1
797.916	0.04
798.09	0.42
798.263	0.93
798.436	0.65
798.609	0.09
798.782	0.31
798.956	0.7
799.129	0.54
799.302	0.19
799.475	0.16
799.648	0.28
799.821	0.1
799.994	0.61
800.167	0
800.34	0.25
800.514	0.58
800.687	0.21
800.86	0.02
801.033	0.66
801.206	0.83
801.379	0.23
801.551	0.59
801.724	0.5
801.897	1.26
802.07	0.56
802.243	0.11
802.416	0.38
802.589	0.24
802.762	0.56
802.935	0.31
803.107	0.93
803.28	1.06
803.453	0.75
803.626	0.11
803.798	0.61
803.971	0.27
804.144	0.48
804.317	0.7
804.489	0.88
804.662	0.63
804.835	0.53
805.007	0.08
805.18	1.16
805.353	0.5
805.525	0.34
805.698	0.13
805.87	0.91
806.043	0.87
806.215	0.02
806.388	0.18
806.56	0.42
806.733	0.95
806.905	0.66
807.078	0.28
807.25	0.04
807.423	0.98
807.595	0.57
807.768	0.5
807.94	0.61
808.112	1.02
808.285	0.65
808.457	0.58
808.629	0.54
808.802	0.85
808.974	0.34
809.146	0.32
809.318	0.38
809.491	0.81
809.663	0.77
809.835	0.34
810.007	1.13
810.18	0.46
810.352	-0.24
810.524	0.36
810.696	0.89
810.868	1.24
811.04	0.41
811.212	0.48
811.384	0.9
811.556	0.74
811.728	0.67
811.901	1.32
812.073	0.36
812.245	0.8
812.417	0.49
812.589	-0.38
812.76	0.58
812.932	1.02
813.104	0.89
813.276	0.64
813.448	1.14
813.62	0.71
813.792	0.48
813.964	0.7
814.136	0.95
814.307	0.47
814.479	0.29
814.651	0.2
814.823	1.53
814.995	0.42
815.166	0.5
815.338	0.23
815.51	-0.12
815.681	2.05
815.853	0.66
816.025	0.65
816.196	1.89
816.368	0.84
816.54	-0.05
816.711	-0.11
816.883	1.19
817.054	1.92
817.226	0.32
817.398	1.32
817.569	0.29
817.741	0.54
817.912	0.48
818.084	0.72
818.255	1.36
818.426	0.55
818.598	0.44
818.769	0.18
818.941	0.9
819.112	1.61
819.283	0.67
819.455	0.1
819.626	1.07
819.798	1.25
819.969	0.46
820.14	0.55
820.311	0.51
820.483	1.25
820.654	0.94
820.825	0.32
820.996	0.44
821.168	0.03
821.339	0.35
821.51	-0.1
821.681	0.46
821.852	1.11
822.023	-0.31
822.195	-0.3
822.366	1.21
822.537	0.9
822.708	0.68
822.879	0.19
823.05	1.79
823.221	0.44
823.392	1.03
823.563	0.48
823.734	1.25
823.905	0.59
824.076	0.16
824.247	0.39
824.418	0.69
824.589	1.8
824.759	0.39
824.93	0.69
825.101	0.03
825.272	1.7
825.443	1.17
825.614	1.52
825.784	0.02
825.955	1.84
826.126	1.26
826.297	0.38
826.467	1.11
826.638	2.61
826.809	0.49
826.98	0.82
827.15	1.23
827.321	0.72
827.492	1.94
827.662	0.37
827.833	2.07
828.003	1.24
828.174	0.57
828.345	-0.02
828.515	2.02
828.686	0.95
828.856	0.25
829.027	0.79
829.197	1.73
829.368	1.51
829.538	-0.24
829.709	-0.13
829.879	1.04
830.049	0.8
830.22	0.21
830.39	0.64
830.56	1.85
830.731	0.79
830.901	-0.08
831.072	0.83
831.242	1.51
831.412	1.36
831.582	0.52
831.753	-0.16
831.923	0.87
832.093	1
832.263	0.55
832.434	0.24
832.604	0.54
832.774	1.14
832.944	0.32
833.114	0.15
833.284	1.12
833.454	0.27
833.624	0.31
833.795	0.17
833.965	1.13
834.135	2.39
834.305	-0.49
834.475	-0.17
834.645	1.13
834.815	0.77
834.985	0.04
835.155	0.34
835.325	1.6
835.494	0.94
835.664	0.45
835.834	0.1
836.004	1.17
836.174	1.07
836.344	0.63
836.514	0.02
836.684	0.64
836.853	0.58
837.023	1.25
837.193	0.55
837.363	1.5
837.532	2.13
837.702	0.29
837.872	0.43
838.041	1.61
838.211	2.33
838.381	-0.14
838.55	1.13
838.72	3.62
838.89	2.04
839.059	0.7
839.229	-0.33
839.398	3.07
839.568	1.41
839.738	0.19
839.907	1.88
840.077	1.37
840.246	0.03
840.416	0.21
840.585	0.04
840.755	3.42
840.924	2.28
841.093	0.75
841.263	0.51
841.432	1.39
841.602	0.37
841.771	-0.25
841.94	0.66
842.11	2.72
842.279	2.91
842.448	0.35
842.617	-0.16
842.787	2.86
842.956	-0.2
843.125	0.63
843.294	0.77
843.464	2.74
843.633	1.32
843.802	0.61
843.971	1.13
844.14	2.14
844.309	2.59
844.479	-0.53
844.648	-0.65
844.817	0.92
844.986	1.22
845.155	-0.08
845.324	0.78
845.493	0.28
845.662	0.12
845.831	2.11
846	1.42
846.169	1.14
846.338	3.14
846.507	1.35
846.676	0.54
846.844	0.98
847.013	2
847.182	0.58
847.351	0.8
847.52	1.51
847.689	1.33
847.858	0.7
848.026	0.68
848.195	1.51
848.364	0.68
848.533	0.89
848.701	-0.58
848.87	1.02
849.039	1.78
849.207	1.12
849.376	3.33
849.545	2.98
849.713	0.35
849.882	1.53
850.051	0.76
850.219	1.75
850.388	2.06
850.556	0.25
850.725	1.01
850.893	1.21
851.062	0.82
851.23	1.78
851.399	0.38
851.567	1.15
851.736	0.97
851.904	-0.42
852.073	1.54
852.241	2.54
852.41	0.89
852.578	0.62
852.746	0.28
852.915	2.75
853.083	0.44
853.251	-0.33
853.42	0.79
853.588	1.11
853.756	2.53
853.924	1.43
854.093	0.89
854.261	1.06
854.429	-0.05
854.597	1.83
854.765	0.22
854.934	1.9
855.102	3.69
855.27	1.84
855.438	2.05
855.606	4.46
855.774	3.69
855.942	-0.01
856.11	-1.01
856.278	1.75
856.446	3.11
856.614	1.54
856.782	0.53
856.95	3.4
857.118	2
857.286	1.53
857.454	0.52
857.622	3.04
857.79	1.47
857.958	0.01
858.126	0.98
858.294	-1.5
858.462	1.74
858.629	-0.06
858.797	-0.5
858.965	2.73
859.133	1.81
859.301	1.32
859.468	2.25
859.636	2.25
859.804	3.53
859.971	2.32
860.139	-0.43
860.307	3.26
860.474	3.14
860.642	0.8
860.81	0.93
860.977	0.59
861.145	3.85
861.313	0.86
861.48	1.68
861.648	4.01
861.815	1.57
861.983	-0.94
862.15	0.64
862.318	2.31
862.485	4.97
862.653	-0.64
862.82	-0
862.988	3.72
863.155	2.06
863.322	0.85
863.49	1.15
863.657	0.79
863.824	4.34
863.992	2.87
864.159	1.67
864.326	4.08
864.494	1.41
864.661	4.57
864.828	-0.78
864.996	4.67
865.163	3.27
865.33	1.97
865.497	-2.22
865.664	1.55
865.832	-0.34
865.999	1.05
866.166	-0.24
866.333	1.61
866.5	1.84
866.667	0.03
866.834	2.01
867.001	3.07
867.168	-1.64
867.335	2.5
867.502	-0.77
867.669	2.19
867.836	6.07
868.003	0.95
868.17	3.02
868.337	4.2
868.504	6.71
868.671	-2.2
868.838	0.21
869.005	3.4
869.172	1.56
869.339	0.67
869.505	0.27
869.672	2.18
869.839	5.08
870.006	2.58
870.173	0.63
870.339	2.63
870.506	4.91
870.673	1.04
870.84	1.05
871.006	2.28
871.173	1.77
871.34	0.94
871.506	-0.39
871.673	3.16
871.839	-0.13
872.006	2.58
872.173	-0.05
872.339	2.46
872.506	4.73
872.672	1.51
872.839	-0.47
873.005	4.39
873.172	5.47
873.338	3.02
873.505	1.25
873.671	3.13
873.838	3.88
874.004	-0.63
874.171	0.95
874.337	2.93
874.503	4.21
874.67	1.79
874.836	0.89
875.002	5.06
875.169	4.25
875.335	1.83
875.501	0.24
875.668	4.31
875.834	2.6
876	1.06
876.166	2.3
876.332	3.32
876.499	5.59
876.665	0.34
876.831	1.13
876.997	4.72
877.163	2.75
877.329	0.27
877.495	2.03
877.662	2.76
877.828	3.2
877.994	0.46
878.16	-2.72
878.326	1.2
878.492	3.96
878.658	2.13
878.824	2.71
878.99	2.23
879.156	-0.04
879.322	5.36
879.487	1.96
879.653	2.56
879.819	3.33
879.985	-0.62
880.151	2.52
880.317	2.26
880.483	3.88
880.648	2.07
880.814	-1.12
880.98	3.45
881.146	-1.32
881.312	-1.62
881.477	0.09
881.643	1.59
881.809	4.84
881.974	4.23
882.14	-2.93
882.306	4.76
882.471	7.57
882.637	0.28
882.803	2.24
882.968	6.13
883.134	7.07
883.299	1.04
883.465	0.35
883.63	4.6
883.796	5.12
883.961	1.86
884.127	2.9
884.292	-2.92
884.458	0.26
884.623	0.26
