Data from Apollo_Calib_20240827__AbsoluteIrradiance__778__12-07-00-588.txt Node

Date: Wed Aug 28 12:07:00 BST 2024
User: biology
Spectrometer: FLMT08252
Trigger mode: 0
Integration Time (sec): 5.000000E-1
Scans to average: 5
Electric dark correction enabled: true
Nonlinearity correction enabled: false
Boxcar width: 0
XAxis mode: Wavelengths
Number of Pixels in Spectrum: 3648
>>>>>Begin Spectral Data<<<<<
179.588	-0
179.809	-0
180.03	-0
180.251	-0
180.473	-0
180.694	0
180.915	0
181.136	-0
181.357	0
181.578	0
181.799	-0
182.02	-0
182.241	0
182.462	-0
182.683	0
182.904	-0
183.125	-0
183.346	0
183.567	0
183.788	0
184.009	0
184.23	0
184.451	0
184.672	0
184.892	0
185.113	0
185.334	0
185.555	0
185.776	0
185.996	0
186.217	0
186.438	0
186.659	0
186.879	0
187.1	0
187.321	0
187.541	0
187.762	0
187.983	0
188.203	0
188.424	0
188.644	0
188.865	0
189.086	0
189.306	0
189.527	0
189.747	0
189.968	0
190.188	0
190.409	0
190.629	0
190.849	0
191.07	0
191.29	0
191.511	0
191.731	0
191.951	0
192.172	0
192.392	0
192.612	0
192.833	0
193.053	0
193.273	0
193.493	0
193.714	0
193.934	0
194.154	0
194.374	0
194.594	0
194.815	0
195.035	0
195.255	0
195.475	0
195.695	0
195.915	0
196.135	0
196.355	0
196.575	0
196.795	0
197.015	0
197.235	0
197.455	0
197.675	0
197.895	0
198.115	0
198.335	0
198.555	0
198.775	0
198.995	0
199.214	0
199.434	0
199.654	0
199.874	0
200.094	3.89
200.313	2.44
200.533	2.1
200.753	1.63
200.973	4.24
201.192	3.41
201.412	1.09
201.632	1.72
201.851	3.81
202.071	1.69
202.291	1.97
202.51	1.63
202.73	3.14
202.95	1.72
203.169	1.69
203.389	1.64
203.608	2.31
203.828	1.99
204.047	1.33
204.267	2.45
204.486	1.92
204.706	2.34
204.925	2.06
205.145	1.39
205.364	2.24
205.583	2.84
205.803	1.31
206.022	1.09
206.242	1.41
206.461	1.78
206.68	1.22
206.9	1.81
207.119	2.51
207.338	2.26
207.557	1.22
207.777	1.23
207.996	1.73
208.215	1.86
208.434	1.2
208.654	0.95
208.873	1.65
209.092	2.15
209.311	1.08
209.53	1.17
209.749	1.19
209.968	1.17
210.187	1.22
210.407	0.91
210.626	1.26
210.845	1.66
211.064	1.35
211.283	0.83
211.502	1.61
211.721	1.36
211.94	1.15
212.159	1.48
212.377	1.57
212.596	1.56
212.815	1.16
213.034	1.3
213.253	1.59
213.472	1.38
213.691	1.27
213.91	0.98
214.128	0.84
214.347	1.62
214.566	0.71
214.785	0.63
215.003	1.17
215.222	1.2
215.441	0.96
215.66	0.62
215.878	1.2
216.097	1.17
216.316	0.9
216.534	0.96
216.753	1.04
216.972	0.74
217.19	0.89
217.409	0.76
217.627	0.86
217.846	0.78
218.064	0.99
218.283	0.7
218.501	1.58
218.72	1.24
218.938	0.8
219.157	0.6
219.375	1.15
219.594	1.14
219.812	0.52
220.031	0.68
220.249	1.1
220.467	1.19
220.686	0.51
220.904	0.46
221.122	0.83
221.341	1.22
221.559	0.92
221.777	0.57
221.995	0.74
222.214	0.91
222.432	0.71
222.65	0.91
222.868	0.85
223.086	0.89
223.305	1.1
223.523	0.65
223.741	1.14
223.959	0.76
224.177	0.32
224.395	0.61
224.613	0.93
224.831	0.96
225.049	0.51
225.267	0.68
225.485	0.85
225.703	0.6
225.921	0.75
226.139	0.53
226.357	0.89
226.575	0.82
226.793	0.63
227.011	1.62
227.229	0.71
227.447	0.91
227.665	0.62
227.883	0.39
228.1	0.72
228.318	0.84
228.536	0.39
228.754	0.48
228.972	0.75
229.189	0.84
229.407	0.5
229.625	0.65
229.843	0.9
230.06	0.85
230.278	0.6
230.496	0.55
230.713	0.69
230.931	0.81
231.149	0.57
231.366	0.35
231.584	0.48
231.801	0.94
232.019	0.49
232.236	0.47
232.454	0.49
232.671	0.66
232.889	0.49
233.106	0.42
233.324	0.57
233.541	0.52
233.759	0.58
233.976	0.38
234.194	0.6
234.411	0.55
234.628	0.36
234.846	0.56
235.063	0.61
235.28	0.69
235.498	0.55
235.715	0.42
235.932	0.77
236.149	0.52
236.367	0.34
236.584	0.6
236.801	0.49
237.018	0.67
237.236	0.57
237.453	0.38
237.67	0.69
237.887	0.6
238.104	0.5
238.321	0.37
238.538	0.39
238.755	0.73
238.973	0.36
239.19	0.53
239.407	0.61
239.624	0.54
239.841	0.22
240.058	0.4
240.275	0.6
240.492	0.56
240.709	0.48
240.925	0.33
241.142	0.58
241.359	0.41
241.576	0.34
241.793	0.44
242.01	0.5
242.227	0.74
242.444	0.59
242.66	0.6
242.877	0.61
243.094	0.37
243.311	0.53
243.527	0.44
243.744	0.65
243.961	0.62
244.178	0.39
244.394	0.4
244.611	0.64
244.828	0.75
245.044	0.34
245.261	0.43
245.477	0.57
245.694	0.59
245.911	0.34
246.127	0.5
246.344	0.68
246.56	0.66
246.777	0.31
246.993	0.5
247.21	0.54
247.426	0.53
247.643	0.39
247.859	0.29
248.076	0.35
248.292	0.71
248.508	0.34
248.725	0.49
248.941	0.51
249.157	0.63
249.374	0.31
249.59	0.43
249.806	0.37
250.023	0.71
250.239	0.36
250.455	0.35
250.671	0.46
250.888	0.46
251.104	0.57
251.32	0.35
251.536	0.44
251.752	0.47
251.969	0.45
252.185	0.43
252.401	0.71
252.617	0.49
252.833	0.38
253.049	0.5
253.265	0.39
253.481	0.4
253.697	0.38
253.913	0.31
254.129	0.45
254.345	0.46
254.561	0.38
254.777	0.38
254.993	0.55
255.209	0.48
255.425	0.4
255.641	0.33
255.857	0.54
256.073	0.45
256.288	0.27
256.504	0.32
256.72	0.47
256.936	0.58
257.152	0.4
257.367	0.29
257.583	0.44
257.799	0.44
258.015	0.34
258.23	0.31
258.446	0.58
258.662	0.39
258.877	0.37
259.093	0.28
259.309	0.41
259.524	0.44
259.74	0.35
259.955	0.32
260.171	0.38
260.387	0.39
260.602	0.53
260.818	0.5
261.033	0.3
261.249	0.4
261.464	0.34
261.68	0.21
261.895	0.48
262.11	0.49
262.326	0.38
262.541	0.25
262.757	0.51
262.972	0.42
263.187	0.39
263.403	0.43
263.618	0.51
263.833	0.38
264.049	0.37
264.264	0.4
264.479	0.41
264.694	0.53
264.91	0.3
265.125	0.37
265.34	0.47
265.555	0.57
265.77	0.39
265.986	0.27
266.201	0.45
266.416	0.53
266.631	0.36
266.846	0.34
267.061	0.47
267.276	0.48
267.491	0.19
267.706	0.41
267.921	0.43
268.136	0.39
268.351	0.4
268.566	0.34
268.781	0.47
268.996	0.47
269.211	0.35
269.426	0.31
269.641	0.29
269.856	0.44
270.071	0.3
270.285	0.21
270.5	0.45
270.715	0.4
270.93	0.34
271.145	0.38
271.359	0.38
271.574	0.32
271.789	0.33
272.004	0.31
272.218	0.3
272.433	0.43
272.648	0.37
272.862	0.37
273.077	0.37
273.292	0.38
273.506	0.25
273.721	0.29
273.936	0.38
274.15	0.44
274.365	0.3
274.579	0.4
274.794	0.4
275.008	0.45
275.223	0.25
275.437	0.32
275.652	0.43
275.866	0.44
276.081	0.4
276.295	0.41
276.509	0.37
276.724	0.35
276.938	0.31
277.153	0.34
277.367	0.38
277.581	0.3
277.796	0.31
278.01	0.23
278.224	0.4
278.438	0.47
278.653	0.22
278.867	0.28
279.081	0.22
279.295	0.29
279.51	0.37
279.724	0.16
279.938	0.33
280.152	0.35
280.366	0.26
280.58	0.39
280.794	0.48
281.008	0.4
281.222	0.35
281.437	0.48
281.651	0.35
281.865	0.44
282.079	0.27
282.293	0.19
282.507	0.34
282.721	0.28
282.935	0.31
283.148	0.22
283.362	0.25
283.576	0.27
283.79	0.28
284.004	0.22
284.218	0.38
284.432	0.28
284.646	0.3
284.859	0.26
285.073	0.27
285.287	0.36
285.501	0.3
285.714	0.27
285.928	0.35
286.142	0.29
286.356	0.28
286.569	0.27
286.783	0.41
286.997	0.37
287.21	0.28
287.424	0.3
287.637	0.26
287.851	0.26
288.065	0.35
288.278	0.3
288.492	0.34
288.705	0.25
288.919	0.34
289.132	0.22
289.346	0.36
289.559	0.19
289.773	0.25
289.986	0.28
290.2	0.28
290.413	0.34
290.626	0.22
290.84	0.28
291.053	0.34
291.267	0.41
291.48	0.25
291.693	0.24
291.906	0.2
292.12	0.31
292.333	0.23
292.546	0.26
292.76	0.36
292.973	0.3
293.186	0.33
293.399	0.25
293.612	0.36
293.826	0.31
294.039	0.27
294.252	0.3
294.465	0.36
294.678	0.25
294.891	0.32
295.104	0.28
295.317	0.3
295.53	0.29
295.743	0.3
295.956	0.25
296.169	0.4
296.382	0.35
296.595	0.25
296.808	0.2
297.021	0.39
297.234	0.33
297.447	0.28
297.66	0.3
297.873	0.32
298.086	0.33
298.299	0.17
298.511	0.2
298.724	0.28
298.937	0.22
299.15	0.21
299.363	0.26
299.575	0.37
299.788	0.33
300.001	0.27
300.213	0.25
300.426	0.28
300.639	0.29
300.852	0.19
301.064	0.33
301.277	0.35
301.489	0.3
301.702	0.26
301.915	0.27
302.127	0.27
302.34	0.3
302.552	0.29
302.765	0.23
302.977	0.28
303.19	0.22
303.402	0.24
303.615	0.23
303.827	0.26
304.04	0.27
304.252	0.33
304.464	0.28
304.677	0.38
304.889	0.29
305.102	0.2
305.314	0.25
305.526	0.35
305.739	0.3
305.951	0.2
306.163	0.29
306.375	0.35
306.588	0.24
306.8	0.25
307.012	0.2
307.224	0.26
307.436	0.36
307.649	0.22
307.861	0.29
308.073	0.3
308.285	0.25
308.497	0.2
308.709	0.24
308.921	0.27
309.133	0.34
309.346	0.27
309.558	0.25
309.77	0.28
309.982	0.37
310.194	0.3
310.406	0.24
310.617	0.39
310.829	0.31
311.041	0.31
311.253	0.24
311.465	0.29
311.677	0.29
311.889	0.28
312.101	0.21
312.313	0.33
312.524	0.37
312.736	0.21
312.948	0.24
313.16	0.35
313.372	0.34
313.583	0.27
313.795	0.23
314.007	0.26
314.218	0.29
314.43	0.28
314.642	0.23
314.853	0.18
315.065	0.33
315.277	0.28
315.488	0.26
315.7	0.32
315.912	0.31
316.123	0.26
316.335	0.24
316.546	0.37
316.758	0.29
316.969	0.26
317.181	0.27
317.392	0.27
317.604	0.34
317.815	0.21
318.026	0.22
318.238	0.3
318.449	0.27
318.661	0.17
318.872	0.22
319.083	0.22
319.295	0.27
319.506	0.23
319.717	0.27
319.929	0.29
320.14	0.31
320.351	0.26
320.562	0.23
320.774	0.3
320.985	0.24
321.196	0.23
321.407	0.16
321.618	0.29
321.829	0.26
322.041	0.32
322.252	0.23
322.463	0.29
322.674	0.32
322.885	0.2
323.096	0.22
323.307	0.27
323.518	0.28
323.729	0.24
323.94	0.25
324.151	0.24
324.362	0.3
324.573	0.28
324.784	0.25
324.995	0.31
325.206	0.3
325.417	0.24
325.628	0.26
325.838	0.26
326.049	0.33
326.26	0.31
326.471	0.24
326.682	0.26
326.892	0.27
327.103	0.2
327.314	0.2
327.525	0.35
327.735	0.24
327.946	0.22
328.157	0.18
328.368	0.32
328.578	0.29
328.789	0.28
328.999	0.21
329.21	0.22
329.421	0.31
329.631	0.24
329.842	0.14
330.052	0.28
330.263	0.33
330.473	0.29
330.684	0.2
330.894	0.29
331.105	0.31
331.315	0.25
331.526	0.19
331.736	0.36
331.947	0.3
332.157	0.27
332.367	0.19
332.578	0.32
332.788	0.37
332.999	0.27
333.209	0.24
333.419	0.24
333.629	0.3
333.84	0.3
334.05	0.26
334.26	0.31
334.47	0.28
334.681	0.34
334.891	0.26
335.101	0.29
335.311	0.4
335.521	0.26
335.732	0.2
335.942	0.35
336.152	0.31
336.362	0.31
336.572	0.31
336.782	0.3
336.992	0.26
337.202	0.23
337.412	0.2
337.622	0.29
337.832	0.28
338.042	0.28
338.252	0.23
338.462	0.21
338.672	0.31
338.882	0.22
339.092	0.25
339.302	0.34
339.511	0.33
339.721	0.22
339.931	0.18
340.141	0.34
340.351	0.34
340.561	0.26
340.77	0.28
340.98	0.29
341.19	0.3
341.4	0.22
341.609	0.19
341.819	0.28
342.029	0.2
342.238	0.27
342.448	0.18
342.658	0.33
342.867	0.24
343.077	0.24
343.286	0.2
343.496	0.3
343.706	0.35
343.915	0.19
344.125	0.28
344.334	0.32
344.544	0.23
344.753	0.21
344.963	0.23
345.172	0.25
345.381	0.22
345.591	0.2
345.8	0.27
346.01	0.31
346.219	0.35
346.428	0.11
346.638	0.26
346.847	0.25
347.056	0.35
347.266	0.24
347.475	0.28
347.684	0.31
347.893	0.27
348.103	0.29
348.312	0.22
348.521	0.26
348.73	0.26
348.94	0.28
349.149	0.23
349.358	0.27
349.567	0.2
349.776	0.18
349.985	0.23
350.194	0.3
350.403	0.3
350.612	0.15
350.821	0.22
351.03	0.29
351.239	0.21
351.448	0.25
351.657	0.22
351.866	0.37
352.075	0.28
352.284	0.25
352.493	0.24
352.702	0.31
352.911	0.25
353.12	0.29
353.329	0.26
353.538	0.25
353.746	0.26
353.955	0.24
354.164	0.3
354.373	0.22
354.582	0.27
354.79	0.3
354.999	0.3
355.208	0.22
355.416	0.32
355.625	0.23
355.834	0.25
356.042	0.27
356.251	0.21
356.46	0.21
356.668	0.26
356.877	0.36
357.085	0.28
357.294	0.19
357.503	0.25
357.711	0.27
357.92	0.42
358.128	0.28
358.337	0.22
358.545	0.28
358.754	0.22
358.962	0.32
359.17	0.21
359.379	0.28
359.587	0.27
359.796	0.26
360.004	0.32
360.212	0.31
360.421	0.36
360.629	0.23
360.837	0.23
361.046	0.31
361.254	0.43
361.462	0.27
361.67	0.19
361.879	0.25
362.087	0.31
362.295	0.29
362.503	0.26
362.711	0.19
362.92	0.22
363.128	0.22
363.336	0.27
363.544	0.24
363.752	0.25
363.96	0.24
364.168	0.26
364.376	0.27
364.584	0.26
364.792	0.34
365	0.31
365.208	0.27
365.416	0.27
365.624	0.33
365.832	0.23
366.04	0.31
366.248	0.29
366.456	0.29
366.664	0.25
366.872	0.29
367.079	0.27
367.287	0.25
367.495	0.29
367.703	0.25
367.911	0.24
368.118	0.26
368.326	0.25
368.534	0.24
368.742	0.33
368.949	0.2
369.157	0.24
369.365	0.3
369.572	0.21
369.78	0.2
369.988	0.33
370.195	0.3
370.403	0.33
370.61	0.21
370.818	0.25
371.026	0.35
371.233	0.24
371.441	0.27
371.648	0.25
371.856	0.29
372.063	0.31
372.271	0.23
372.478	0.21
372.685	0.26
372.893	0.34
373.1	0.27
373.308	0.24
373.515	0.35
373.722	0.33
373.93	0.27
374.137	0.31
374.344	0.34
374.552	0.32
374.759	0.24
374.966	0.28
375.173	0.25
375.381	0.35
375.588	0.26
375.795	0.24
376.002	0.26
376.209	0.25
376.417	0.22
376.624	0.3
376.831	0.28
377.038	0.22
377.245	0.19
377.452	0.25
377.659	0.32
377.866	0.25
378.073	0.26
378.28	0.21
378.487	0.32
378.694	0.33
378.901	0.27
379.108	0.25
379.315	0.28
379.522	0.41
379.729	0.26
379.936	0.29
380.143	0.33
380.35	0.32
380.557	0.26
380.763	0.27
380.97	0.33
381.177	0.32
381.384	0.29
381.591	0.26
381.797	0.3
382.004	0.34
382.211	0.35
382.418	0.25
382.624	0.33
382.831	0.37
383.038	0.25
383.244	0.3
383.451	0.28
383.658	0.3
383.864	0.25
384.071	0.26
384.277	0.38
384.484	0.24
384.69	0.36
384.897	0.26
385.103	0.29
385.31	0.23
385.516	0.3
385.723	0.26
385.929	0.28
386.136	0.22
386.342	0.31
386.549	0.24
386.755	0.4
386.961	0.36
387.168	0.27
387.374	0.29
387.58	0.32
387.787	0.32
387.993	0.34
388.199	0.27
388.406	0.25
388.612	0.31
388.818	0.26
389.024	0.23
389.231	0.33
389.437	0.36
389.643	0.3
389.849	0.32
390.055	0.3
390.261	0.32
390.467	0.31
390.674	0.28
390.88	0.25
391.086	0.34
391.292	0.25
391.498	0.36
391.704	0.37
391.91	0.29
392.116	0.34
392.322	0.19
392.528	0.37
392.734	0.3
392.94	0.31
393.146	0.33
393.352	0.35
393.557	0.31
393.763	0.3
393.969	0.36
394.175	0.35
394.381	0.32
394.587	0.29
394.792	0.3
394.998	0.36
395.204	0.38
395.41	0.3
395.615	0.35
395.821	0.34
396.027	0.35
396.233	0.27
396.438	0.38
396.644	0.38
396.85	0.4
397.055	0.31
397.261	0.37
397.466	0.47
397.672	0.38
397.878	0.34
398.083	0.36
398.289	0.35
398.494	0.4
398.7	0.38
398.905	0.28
399.111	0.43
399.316	0.33
399.522	0.38
399.727	0.32
399.932	0.33
400.138	0.3
400.343	0.38
400.549	0.39
400.754	0.39
400.959	0.35
401.165	0.36
401.37	0.36
401.575	0.31
401.78	0.43
401.986	0.42
402.191	0.35
402.396	0.4
402.601	0.41
402.807	0.42
403.012	0.37
403.217	0.48
403.422	0.41
403.627	0.43
403.832	0.35
404.037	0.49
404.243	0.47
404.448	0.42
404.653	0.4
404.858	0.47
405.063	0.51
405.268	0.42
405.473	0.41
405.678	0.44
405.883	0.65
406.088	0.5
406.293	0.44
406.498	0.5
406.703	0.54
406.907	0.5
407.112	0.47
407.317	0.54
407.522	0.58
407.727	0.53
407.932	0.56
408.136	0.66
408.341	0.55
408.546	0.61
408.751	0.58
408.956	0.61
409.16	0.65
409.365	0.63
409.57	0.63
409.774	0.67
409.979	0.71
410.184	0.68
410.388	0.61
410.593	0.79
410.798	0.74
411.002	0.76
411.207	0.85
411.411	0.84
411.616	0.78
411.82	0.87
412.025	0.87
412.229	0.85
412.434	1.05
412.638	0.93
412.843	0.9
413.047	0.98
413.252	0.96
413.456	1.03
413.66	1.08
413.865	1.06
414.069	1.21
414.273	1.17
414.478	1.14
414.682	1.22
414.886	1.23
415.091	1.24
415.295	1.23
415.499	1.4
415.703	1.38
415.908	1.45
416.112	1.38
416.316	1.66
416.52	1.61
416.724	1.58
416.929	1.63
417.133	1.84
417.337	1.77
417.541	1.8
417.745	1.94
417.949	2.01
418.153	2
418.357	2.05
418.561	2.3
418.765	2.28
418.969	2.41
419.173	2.48
419.377	2.5
419.581	2.75
419.785	2.66
419.989	2.65
420.193	2.82
420.397	2.9
420.601	3.15
420.804	3.24
421.008	3.19
421.212	3.32
421.416	3.29
421.62	3.4
421.823	3.47
422.027	3.56
422.231	3.59
422.435	3.58
422.638	3.67
422.842	3.8
423.046	3.8
423.249	4.05
423.453	4.02
423.657	4.24
423.86	4.27
424.064	4.4
424.268	4.54
424.471	4.58
424.675	4.82
424.878	4.82
425.082	5.02
425.285	5.32
425.489	5.19
425.692	5.32
425.896	5.37
426.099	5.58
426.303	5.67
426.506	5.83
426.71	6.01
426.913	6.34
427.116	6.51
427.32	6.42
427.523	6.53
427.726	6.84
427.93	6.93
428.133	7.15
428.336	7.38
428.54	7.55
428.743	7.74
428.946	8.03
429.149	7.99
429.353	8.11
429.556	8.12
429.759	8.13
429.962	8.29
430.165	8.44
430.368	8.12
430.571	8.16
430.775	8.2
430.978	8.15
431.181	8.27
431.384	8.32
431.587	8.42
431.79	8.86
431.993	8.77
432.196	9.07
432.399	9.41
432.602	9.57
432.805	9.63
433.008	10.28
433.211	10.05
433.414	10.33
433.616	10.45
433.819	10.39
434.022	10.58
434.225	10.67
434.428	10.72
434.631	11.26
434.833	10.97
435.036	11.2
435.239	11.23
435.442	11.47
435.645	11.48
435.847	11.67
436.05	12.03
436.253	12.19
436.455	12.34
436.658	12.2
436.861	12.52
437.063	12.51
437.266	12.53
437.468	12.89
437.671	13.26
437.874	13.26
438.076	13.02
438.279	13.66
438.481	13.53
438.684	14.33
438.886	14.01
439.089	14.26
439.291	14.27
439.494	14.56
439.696	14.82
439.899	15.43
440.101	15.63
440.303	15.87
440.506	16.72
440.708	16.42
440.91	16.64
441.113	16.89
441.315	17.25
441.517	16.96
441.72	17.41
441.922	17.12
442.124	16.83
442.326	17.17
442.529	17.62
442.731	17.47
442.933	17.87
443.135	17.57
443.337	17.52
443.539	18.15
443.742	17.86
443.944	18.55
444.146	18.19
444.348	18.22
444.55	18.11
444.752	18.17
444.954	18.34
445.156	18.09
445.358	18.5
445.56	18.7
445.762	18.71
445.964	18.95
446.166	18.59
446.368	18.6
446.57	18.66
446.772	18.25
446.974	17.9
447.175	18.39
447.377	18.18
447.579	18.36
447.781	18.01
447.983	17.83
448.184	17.3
448.386	17.73
448.588	17.36
448.79	17.23
448.991	17.53
449.193	17.46
449.395	16.85
449.597	16.34
449.798	16.46
450	15.94
450.202	15.85
450.403	15.74
450.605	15.62
450.806	15.36
451.008	15.21
451.21	14.87
451.411	14.57
451.613	13.76
451.814	14.04
452.016	14.11
452.217	13.18
452.419	13.25
452.62	12.9
452.821	12.65
453.023	12.59
453.224	12.24
453.426	11.75
453.627	11.05
453.828	11.22
454.03	11.28
454.231	11.1
454.432	10.97
454.634	10.8
454.835	10.53
455.036	10.31
455.238	9.98
455.439	9.64
455.64	9.45
455.841	9.25
456.042	9.45
456.244	9.12
456.445	8.86
456.646	8.53
456.847	8.53
457.048	8.42
457.249	8.43
457.45	8.13
457.651	7.66
457.852	7.51
458.054	7.3
458.255	7.19
458.456	7.22
458.657	7.15
458.858	6.73
459.058	6.62
459.259	6.68
459.46	6.41
459.661	6.36
459.862	6.47
460.063	6.29
460.264	6.25
460.465	5.94
460.666	5.97
460.866	5.7
461.067	5.48
461.268	5.49
461.469	5.45
461.67	5.31
461.87	5.19
462.071	5.19
462.272	5.12
462.473	5.07
462.673	5.29
462.874	5.08
463.075	5.08
463.275	5.06
463.476	5.14
463.676	5.1
463.877	4.9
464.078	4.96
464.278	5
464.479	4.76
464.679	4.71
464.88	4.67
465.08	4.71
465.281	4.41
465.481	4.27
465.682	4.17
465.882	4.17
466.083	4.06
466.283	3.98
466.483	3.83
466.684	3.74
466.884	3.56
467.085	3.62
467.285	3.74
467.485	3.6
467.686	3.56
467.886	3.43
468.086	3.35
468.286	3.34
468.487	3.36
468.687	3.22
468.887	3.18
469.087	3.32
469.287	3.2
469.488	3.05
469.688	3.2
469.888	3.18
470.088	3.1
470.288	3.05
470.488	3
470.688	2.86
470.888	2.88
471.088	2.68
471.288	2.83
471.488	2.78
471.688	2.67
471.888	2.61
472.088	2.78
472.288	2.77
472.488	2.58
472.688	2.57
472.888	2.63
473.088	2.6
473.288	2.51
473.488	2.44
473.688	2.54
473.887	2.48
474.087	2.4
474.287	2.44
474.487	2.36
474.687	2.42
474.886	2.35
475.086	2.27
475.286	2.3
475.486	2.26
475.685	2.24
475.885	2.19
476.085	2.28
476.284	2.25
476.484	2.29
476.684	2.19
476.883	2.27
477.083	2.18
477.282	2.11
477.482	2.21
477.681	2.12
477.881	2.06
478.08	2.08
478.28	2.05
478.479	2.1
478.679	2.11
478.878	2.07
479.078	2.06
479.277	2.09
479.477	2.06
479.676	2.05
479.875	2.01
480.075	1.96
480.274	2.06
480.473	2.07
480.673	2.06
480.872	2.11
481.071	2.09
481.271	2.02
481.47	2.01
481.669	2.04
481.868	1.97
482.067	2
482.267	1.93
482.466	1.91
482.665	1.91
482.864	1.93
483.063	1.97
483.262	2.03
483.461	2.06
483.661	2.1
483.86	1.99
484.059	2.01
484.258	2.04
484.457	2.01
484.656	2.01
484.855	2.08
485.054	1.92
485.253	2.02
485.452	1.93
485.651	2.06
485.849	2.02
486.048	2.03
486.247	2.04
486.446	2.04
486.645	2.04
486.844	2.08
487.043	2.04
487.241	2.09
487.44	2.08
487.639	2.14
487.838	2.11
488.037	2.13
488.235	2.22
488.434	2.17
488.633	2.06
488.831	2.23
489.03	2.24
489.229	2.18
489.427	2.2
489.626	2.29
489.825	2.29
490.023	2.31
490.222	2.25
490.42	2.31
490.619	2.34
490.817	2.36
491.016	2.36
491.214	2.46
491.413	2.46
491.611	2.42
491.81	2.41
492.008	2.49
492.207	2.61
492.405	2.54
492.604	2.45
492.802	2.59
493	2.63
493.199	2.61
493.397	2.61
493.595	2.71
493.794	2.66
493.992	2.8
494.19	2.77
494.388	2.81
494.587	2.76
494.785	2.77
494.983	2.73
495.181	2.88
495.379	2.92
495.578	2.96
495.776	2.99
495.974	2.96
496.172	2.88
496.37	3.06
496.568	3.1
496.766	3.12
496.964	3.22
497.162	3.14
497.36	3.21
497.558	3.26
497.756	3.33
497.954	3.29
498.152	3.37
498.35	3.47
498.548	3.36
498.746	3.41
498.944	3.4
499.142	3.48
499.34	3.5
499.538	3.62
499.736	3.47
499.933	3.67
500.131	3.67
500.329	3.81
500.527	3.79
500.725	3.87
500.922	3.89
501.12	3.88
501.318	3.96
501.516	3.92
501.713	4.01
501.911	4.05
502.109	3.95
502.306	4.14
502.504	4.02
502.701	4.11
502.899	4.14
503.097	4.39
503.294	4.23
503.492	4.38
503.689	4.42
503.887	4.39
504.084	4.5
504.282	4.45
504.479	4.43
504.677	4.6
504.874	4.55
505.072	4.44
505.269	4.72
505.466	4.7
505.664	4.76
505.861	4.63
506.059	4.79
506.256	4.84
506.453	4.84
506.651	5.01
506.848	5.03
507.045	4.95
507.242	5.03
507.44	5.06
507.637	5.16
507.834	5.11
508.031	5.17
508.229	5.13
508.426	5.14
508.623	5.29
508.82	5.29
509.017	5.35
509.214	5.3
509.411	5.4
509.608	5.37
509.805	5.57
510.003	5.46
510.2	5.51
510.397	5.67
510.594	5.54
510.791	5.68
510.988	5.67
511.184	5.64
511.381	5.53
511.578	5.72
511.775	5.86
511.972	5.73
512.169	5.83
512.366	5.82
512.563	5.98
512.76	6
512.956	5.98
513.153	5.96
513.35	5.94
513.547	6
513.744	6.08
513.94	6.06
514.137	6.19
514.334	6.15
514.53	6.19
514.727	6.42
514.924	6.29
515.12	6.25
515.317	6.27
515.514	6.25
515.71	6.19
515.907	6.42
516.103	6.46
516.3	6.34
516.497	6.56
516.693	6.47
516.89	6.5
517.086	6.52
517.283	6.56
517.479	6.41
517.676	6.62
517.872	6.61
518.068	6.66
518.265	6.64
518.461	6.57
518.658	6.72
518.854	6.72
519.05	6.82
519.247	6.84
519.443	6.85
519.639	6.92
519.836	6.8
520.032	6.8
520.228	7
520.424	6.93
520.621	6.94
520.817	6.99
521.013	6.97
521.209	7.12
521.405	7.11
521.601	7.08
521.798	7.01
521.994	7.03
522.19	6.97
522.386	7.06
522.582	7.19
522.778	7.26
522.974	7.18
523.17	7.14
523.366	7.17
523.562	7.22
523.758	7.19
523.954	7.01
524.15	7.2
524.346	7.28
524.542	7.29
524.738	7.25
524.934	7.42
525.129	7.32
525.325	7.32
525.521	7.29
525.717	7.44
525.913	7.33
526.109	7.34
526.304	7.41
526.5	7.45
526.696	7.49
526.892	7.41
527.087	7.64
527.283	7.58
527.479	7.54
527.674	7.33
527.87	7.55
528.066	7.53
528.261	7.52
528.457	7.49
528.653	7.65
528.848	7.63
529.044	7.68
529.239	7.54
529.435	7.58
529.63	7.58
529.826	7.58
530.021	7.59
530.217	7.66
530.412	7.66
530.608	7.67
530.803	7.68
530.999	7.54
531.194	7.69
531.389	7.75
531.585	7.7
531.78	7.86
531.975	7.73
532.171	7.84
532.366	7.76
532.561	7.79
532.757	7.71
532.952	7.88
533.147	7.71
533.342	7.83
533.538	7.72
533.733	7.99
533.928	7.62
534.123	7.81
534.318	7.9
534.513	7.75
534.709	8
534.904	7.85
535.099	7.9
535.294	7.92
535.489	7.96
535.684	7.88
535.879	7.87
536.074	7.95
536.269	7.96
536.464	8.01
536.659	7.87
536.854	7.93
537.049	8
537.244	7.91
537.439	7.91
537.634	7.96
537.828	8.01
538.023	7.98
538.218	7.96
538.413	7.91
538.608	7.93
538.803	8.01
538.997	7.91
539.192	7.98
539.387	7.89
539.582	7.91
539.776	7.9
539.971	8
540.166	8.05
540.36	7.9
540.555	8.05
540.75	8.02
540.944	8.04
541.139	8.05
541.334	7.99
541.528	8.11
541.723	8.06
541.917	8.05
542.112	7.98
542.306	7.89
542.501	7.97
542.695	8
542.89	7.96
543.084	8.04
543.279	8
543.473	8.14
543.668	8.08
543.862	7.93
544.056	7.95
544.251	8.11
544.445	8.12
544.64	8.15
544.834	7.86
545.028	7.72
545.222	8.01
545.417	8.23
545.611	8.14
545.805	8.06
546	7.91
546.194	8.12
546.388	8.15
546.582	7.99
546.776	8.04
546.97	8.07
547.165	8.08
547.359	8.08
547.553	8.01
547.747	8.04
547.941	8.27
548.135	8.07
548.329	8.09
548.523	8.12
548.717	8.06
548.911	8.03
549.105	8.03
549.299	8.15
549.493	8.19
549.687	7.99
549.881	8.18
550.075	8.16
550.269	7.98
550.463	8.19
550.657	8.17
550.85	8.09
551.044	8.04
551.238	8.16
551.432	8.1
551.626	8.2
551.82	8.16
552.013	8.04
552.207	8.18
552.401	8.21
552.594	8.12
552.788	8.07
552.982	8.03
553.176	8.04
553.369	8.2
553.563	8.16
553.756	8.12
553.95	8.2
554.144	8.2
554.337	8.16
554.531	7.98
554.724	8.13
554.918	8.23
555.111	8.13
555.305	8.14
555.498	8.06
555.692	8.23
555.885	8.19
556.079	8.05
556.272	8.11
556.466	8.11
556.659	8.14
556.852	8.22
557.046	8.03
557.239	8.06
557.432	8.14
557.626	8.2
557.819	8.25
558.012	8.14
558.206	8.28
558.399	8.15
558.592	8.08
558.785	8.08
558.979	8.11
559.172	8.15
559.365	8.17
559.558	8.03
559.751	8.05
559.944	8.16
560.138	8.07
560.331	8.12
560.524	8.2
560.717	8.11
560.91	8.1
561.103	8.2
561.296	7.99
561.489	8.2
561.682	8.23
561.875	8.18
562.068	8.27
562.261	8.04
562.454	8.31
562.647	8.13
562.84	8.23
563.032	8.13
563.225	8.07
563.418	8.07
563.611	8.18
563.804	8.16
563.997	7.97
564.19	7.82
564.382	8.2
564.575	8.1
564.768	8.1
564.961	8.19
565.153	8.08
565.346	8.05
565.539	8.21
565.731	8.1
565.924	8.19
566.117	8.21
566.309	8.16
566.502	8.05
566.695	8.01
566.887	8.14
567.08	8.09
567.272	8.14
567.465	8.02
567.657	8.19
567.85	8.02
568.042	8.05
568.235	8.15
568.427	7.95
568.62	8.15
568.812	8.03
569.005	8.16
569.197	8.03
569.389	8.14
569.582	8.1
569.774	8.11
569.966	7.96
570.159	7.96
570.351	8
570.543	8.03
570.736	8.04
570.928	7.93
571.12	8.09
571.312	7.98
571.505	7.82
571.697	8.01
571.889	8.07
572.081	8.02
572.273	7.98
572.465	8.01
572.658	8.06
572.85	8.08
573.042	8.05
573.234	7.89
573.426	7.98
573.618	7.93
573.81	8.01
574.002	7.96
574.194	8
574.386	7.91
574.578	7.85
574.77	7.86
574.962	7.99
575.154	7.85
575.346	7.94
575.538	7.85
575.729	7.83
575.921	7.9
576.113	7.98
576.305	7.93
576.497	7.94
576.689	7.79
576.88	7.8
577.072	7.99
577.264	7.96
577.456	7.87
577.647	7.92
577.839	8.05
578.031	7.82
578.223	7.83
578.414	7.75
578.606	7.89
578.798	7.88
578.989	7.81
579.181	7.99
579.372	7.84
579.564	7.89
579.755	7.8
579.947	7.79
580.139	7.87
580.33	7.7
580.522	7.8
580.713	7.72
580.905	7.77
581.096	7.9
581.287	7.76
581.479	7.75
581.67	7.81
581.862	7.75
582.053	7.77
582.244	7.64
582.436	7.86
582.627	7.65
582.818	7.64
583.01	7.67
583.201	7.66
583.392	7.64
583.583	7.63
583.775	7.54
583.966	7.61
584.157	7.63
584.348	7.72
584.54	7.53
584.731	7.63
584.922	7.55
585.113	7.5
585.304	7.59
585.495	7.56
585.686	7.73
585.877	7.69
586.068	7.63
586.259	7.61
586.45	7.52
586.641	7.52
586.832	7.6
587.023	7.55
587.214	7.5
587.405	7.54
587.596	7.45
587.787	7.4
587.978	7.51
588.169	7.42
588.36	7.36
588.551	7.42
588.742	7.47
588.932	7.48
589.123	7.29
589.314	7.52
589.505	7.38
589.696	7.37
589.886	7.35
590.077	7.3
590.268	7.28
590.458	7.22
590.649	7.18
590.84	7.31
591.03	7.24
591.221	7.28
591.412	7.18
591.602	7.36
591.793	7.26
591.984	7.31
592.174	7.25
592.365	7.4
592.555	7.09
592.746	7.15
592.936	7.24
593.127	7.23
593.317	7.23
593.508	7.18
593.698	7.09
593.889	7.18
594.079	7.12
594.269	7.04
594.46	7.01
594.65	7.12
594.84	7.13
595.031	6.99
595.221	7.02
595.411	6.98
595.602	7.08
595.792	6.95
595.982	6.9
596.172	7.08
596.363	6.89
596.553	6.92
596.743	7.01
596.933	6.95
597.123	6.89
597.314	6.84
597.504	6.83
597.694	6.96
597.884	6.88
598.074	6.9
598.264	6.85
598.454	6.81
598.644	6.78
598.834	6.78
599.024	6.64
599.214	6.75
599.404	6.79
599.594	6.74
599.784	6.69
599.974	6.77
600.164	6.68
600.354	6.68
600.544	6.58
600.734	6.66
600.924	6.67
601.114	6.57
601.303	6.65
601.493	6.6
601.683	6.63
601.873	6.49
602.063	6.49
602.252	6.54
602.442	6.48
602.632	6.53
602.821	6.36
603.011	6.51
603.201	6.4
603.39	6.38
603.58	6.31
603.77	6.43
603.959	6.51
604.149	6.4
604.339	6.37
604.528	6.44
604.718	6.42
604.907	6.38
605.097	6.26
605.286	6.31
605.476	6.25
605.665	6.32
605.855	6.18
606.044	6.31
606.234	6.28
606.423	6.22
606.612	6.22
606.802	6.08
606.991	6.2
607.181	6.24
607.37	6.16
607.559	5.88
607.749	6.12
607.938	6.03
608.127	6.08
608.316	6.04
608.506	5.98
608.695	6.12
608.884	6
609.073	6.01
609.263	6.07
609.452	6.02
609.641	5.94
609.83	5.93
610.019	5.96
610.208	5.81
610.397	5.9
610.586	5.87
610.775	5.82
610.965	5.91
611.154	5.73
611.343	5.86
611.532	5.71
611.721	5.82
611.91	5.73
612.099	5.73
612.287	5.67
612.476	5.6
612.665	5.75
612.854	5.56
613.043	5.64
613.232	5.66
613.421	5.55
613.61	5.59
613.798	5.53
613.987	5.64
614.176	5.56
614.365	5.59
614.554	5.49
614.742	5.56
614.931	5.42
615.12	5.58
615.309	5.51
615.497	5.44
615.686	5.29
615.875	5.44
616.063	5.32
616.252	5.37
616.44	5.4
616.629	5.28
616.818	5.32
617.006	5.32
617.195	5.25
617.383	5.32
617.572	5.2
617.76	5.2
617.949	5.2
618.137	5.26
618.326	5.21
618.514	5.05
618.703	5.02
618.891	5.16
619.079	5.04
619.268	5.18
619.456	5.04
619.644	5.17
619.833	5.08
620.021	4.99
620.209	4.92
620.398	5.09
620.586	4.97
620.774	4.93
620.962	4.99
621.151	5.1
621.339	4.85
621.527	4.81
621.715	4.84
621.903	4.85
622.092	4.84
622.28	4.91
622.468	4.66
622.656	4.81
622.844	4.73
623.032	4.79
623.22	4.68
623.408	4.81
623.596	4.75
623.784	4.78
623.972	4.64
624.16	4.68
624.348	4.72
624.536	4.72
624.724	4.6
624.912	4.63
625.1	4.62
625.288	4.65
625.476	4.51
625.664	4.6
625.851	4.54
626.039	4.59
626.227	4.49
626.415	4.5
626.603	4.46
626.79	4.49
626.978	4.48
627.166	4.49
627.354	4.4
627.541	4.43
627.729	4.26
627.917	4.52
628.104	4.41
628.292	4.32
628.48	4.29
628.667	4.29
628.855	4.39
629.042	4.38
629.23	4.24
629.418	4.27
629.605	4.26
629.793	4.19
629.98	4.2
630.168	4.13
630.355	4.23
630.543	4.17
630.73	4.1
630.917	4.12
631.105	4.23
631.292	4.09
631.48	4.1
631.667	4.21
631.854	4.06
632.042	3.99
632.229	4
632.416	4.05
632.604	4.07
632.791	3.86
632.978	4.01
633.165	3.93
633.353	4.01
633.54	4.03
633.727	3.86
633.914	3.87
634.101	3.87
634.289	3.95
634.476	3.83
634.663	3.78
634.85	3.87
635.037	3.74
635.224	3.72
635.411	3.83
635.598	3.79
635.785	3.73
635.972	3.66
636.159	3.75
636.346	3.73
636.533	3.65
636.72	3.64
636.907	3.67
637.094	3.6
637.281	3.47
637.468	3.58
637.655	3.6
637.842	3.61
638.029	3.53
638.215	3.54
638.402	3.53
638.589	3.46
638.776	3.47
638.963	3.42
639.149	3.54
639.336	3.51
639.523	3.44
639.709	3.45
639.896	3.37
640.083	3.44
640.27	3.44
640.456	3.39
640.643	3.36
640.829	3.31
641.016	3.31
641.203	3.22
641.389	3.32
641.576	3.31
641.762	3.31
641.949	3.21
642.135	3.27
642.322	3.26
642.508	3.06
642.695	3.22
642.881	3.19
643.068	3.16
643.254	3.12
643.441	3.18
643.627	3.21
643.813	3.1
644	3.17
644.186	3.02
644.372	3.12
644.559	3.11
644.745	3.08
644.931	2.97
645.118	3.04
645.304	3.01
645.49	3
645.676	2.99
645.862	2.99
646.049	3.05
646.235	2.95
646.421	3.08
646.607	3.09
646.793	2.93
646.979	2.83
647.165	2.86
647.352	2.91
647.538	2.93
647.724	2.85
647.91	2.85
648.096	2.88
648.282	2.92
648.468	2.78
648.654	2.83
648.84	2.87
649.026	2.8
649.212	2.76
649.397	2.73
649.583	2.7
649.769	2.78
649.955	2.68
650.141	2.77
650.327	2.77
650.513	2.66
650.698	2.71
650.884	2.56
651.07	2.69
651.256	2.61
651.442	2.64
651.627	2.54
651.813	2.65
651.999	2.62
652.184	2.6
652.37	2.56
652.556	2.55
652.741	2.59
652.927	2.41
653.113	2.56
653.298	2.52
653.484	2.54
653.669	2.42
653.855	2.47
654.04	2.58
654.226	2.48
654.412	2.46
654.597	2.38
654.782	2.43
654.968	2.45
655.153	2.37
655.339	2.36
655.524	2.33
655.71	2.4
655.895	2.36
656.08	2.35
656.266	2.46
656.451	2.33
656.636	2.27
656.822	2.28
657.007	2.34
657.192	2.3
657.378	2.23
657.563	2.24
657.748	2.28
657.933	2.28
658.118	2.25
658.304	2.22
658.489	2.29
658.674	2.22
658.859	2.14
659.044	2.15
659.229	2.25
659.414	2.13
659.599	2.16
659.785	2.09
659.97	2.12
660.155	2.17
660.34	2.19
660.525	2.12
660.71	2.05
660.895	2.12
661.08	2.02
661.264	2.04
661.449	2.15
661.634	2.05
661.819	2.13
662.004	2.06
662.189	2
662.374	2.02
662.559	1.98
662.743	1.93
662.928	2
663.113	2
663.298	1.89
663.483	1.93
663.667	1.93
663.852	1.91
664.037	1.99
664.221	1.89
664.406	1.95
664.591	1.98
664.775	1.93
664.96	1.87
665.145	1.92
665.329	1.93
665.514	1.87
665.698	1.88
665.883	1.76
666.068	1.95
666.252	1.88
666.437	1.72
666.621	1.86
666.806	1.84
666.99	1.75
667.174	1.78
667.359	1.86
667.543	1.8
667.728	1.73
667.912	1.65
668.096	1.79
668.281	1.72
668.465	1.78
668.649	1.71
668.834	1.68
669.018	1.67
669.202	1.7
669.387	1.72
669.571	1.83
669.755	1.62
669.939	1.69
670.124	1.69
670.308	1.71
670.492	1.69
670.676	1.66
670.86	1.64
671.044	1.54
671.228	1.65
671.413	1.57
671.597	1.54
671.781	1.54
671.965	1.6
672.149	1.58
672.333	1.58
672.517	1.55
672.701	1.63
672.885	1.56
673.069	1.51
673.253	1.62
673.437	1.54
673.621	1.57
673.804	1.53
673.988	1.54
674.172	1.5
674.356	1.44
674.54	1.48
674.724	1.62
674.908	1.48
675.091	1.54
675.275	1.48
675.459	1.56
675.643	1.54
675.826	1.51
676.01	1.45
676.194	1.48
676.377	1.5
676.561	1.49
676.745	1.44
676.928	1.49
677.112	1.49
677.296	1.41
677.479	1.42
677.663	1.36
677.846	1.44
678.03	1.4
678.213	1.3
678.397	1.46
678.58	1.35
678.764	1.36
678.947	1.36
679.131	1.38
679.314	1.37
679.498	1.39
679.681	1.37
679.865	1.41
680.048	1.35
680.231	1.32
680.415	1.25
680.598	1.31
680.781	1.28
680.965	1.31
681.148	1.3
681.331	1.27
681.514	1.32
681.698	1.24
681.881	1.3
682.064	1.23
682.247	1.3
682.43	1.23
682.614	1.28
682.797	1.3
682.98	1.28
683.163	1.22
683.346	1.28
683.529	1.19
683.712	1.17
683.895	1.22
684.078	1.15
684.261	1.18
684.444	1.22
684.627	1.27
684.81	1.14
684.993	1.18
685.176	1.24
685.359	1.11
685.542	1.15
685.725	1.22
685.908	1.15
686.091	1.1
686.274	1.19
686.457	1.21
686.639	1.12
686.822	1.19
687.005	1.07
687.188	1.21
687.371	1.25
687.553	1.19
687.736	1.15
687.919	1.21
688.102	1.2
688.284	1.1
688.467	1.07
688.65	1.09
688.832	1.06
689.015	1
689.197	1.03
689.38	1.17
689.563	1.15
689.745	1.06
689.928	1.02
690.11	1.06
690.293	1.07
690.475	0.97
690.658	1.07
690.84	1.05
691.023	1.05
691.205	1.03
691.388	1.07
691.57	1.11
691.752	1.1
691.935	0.86
692.117	0.91
692.3	1.08
692.482	0.95
692.664	0.93
692.847	0.97
693.029	1.07
693.211	0.98
693.393	0.93
693.576	0.9
693.758	0.93
693.94	0.97
694.122	0.98
694.304	0.9
694.487	0.86
694.669	1.02
694.851	0.87
695.033	0.88
695.215	0.92
695.397	0.89
695.579	0.96
695.761	0.89
695.943	0.88
696.125	1.06
696.308	1
696.49	0.83
696.671	1.01
696.853	0.94
697.035	1.17
697.217	0.86
697.399	1.01
697.581	0.82
697.763	0.94
697.945	0.88
698.127	0.95
698.309	0.93
698.491	0.88
698.672	0.92
698.854	0.91
699.036	0.97
699.218	0.89
699.399	0.94
699.581	0.91
699.763	0.86
699.945	0.83
700.126	0.8
700.308	0.85
700.49	0.85
700.671	0.75
700.853	0.74
701.035	0.76
701.216	0.83
701.398	0.76
701.579	0.82
701.761	0.83
701.943	0.8
702.124	0.75
702.306	0.77
702.487	0.92
702.669	0.83
702.85	0.74
703.031	0.7
703.213	0.93
703.394	0.88
703.576	0.8
703.757	0.9
703.938	0.86
704.12	1.03
704.301	0.8
704.483	0.69
704.664	0.78
704.845	0.88
705.026	0.81
705.208	0.73
705.389	0.82
705.57	0.84
705.751	0.76
705.933	0.76
706.114	0.86
706.295	0.71
706.476	0.67
706.657	0.84
706.838	0.77
707.02	0.84
707.201	0.69
707.382	0.78
707.563	0.71
707.744	0.69
707.925	0.64
708.106	0.7
708.287	0.8
708.468	0.83
708.649	0.75
708.83	0.75
709.011	0.73
709.192	0.84
709.373	0.6
709.554	0.7
709.734	0.76
709.915	0.78
710.096	0.67
710.277	0.58
710.458	0.74
710.639	0.76
710.819	0.57
711	0.62
711.181	0.77
711.362	0.73
711.542	0.65
711.723	0.71
711.904	0.71
712.085	0.68
712.265	0.64
712.446	0.54
712.627	0.65
712.807	0.64
712.988	0.67
713.168	0.49
713.349	0.77
713.53	0.55
713.71	0.56
713.891	0.57
714.071	0.69
714.252	0.63
714.432	0.67
714.613	0.57
714.793	0.64
714.974	0.76
715.154	0.69
715.334	0.7
715.515	0.72
715.695	0.54
715.876	0.6
716.056	0.6
716.236	0.59
716.417	0.62
716.597	0.6
716.777	0.84
716.957	0.57
717.138	0.64
717.318	0.55
717.498	0.44
717.678	0.6
717.859	0.63
718.039	0.53
718.219	0.67
718.399	0.63
718.579	0.56
718.759	0.45
718.939	0.71
719.12	0.67
719.3	0.66
719.48	0.47
719.66	0.39
719.84	0.8
720.02	0.58
720.2	0.55
720.38	0.53
720.56	0.69
720.74	0.43
720.92	0.57
721.1	0.68
721.279	0.68
721.459	0.58
721.639	0.46
721.819	0.61
721.999	0.57
722.179	0.61
722.359	0.45
722.538	0.6
722.718	0.63
722.898	0.52
723.078	0.53
723.257	0.52
723.437	0.64
723.617	0.58
723.797	0.59
723.976	0.59
724.156	0.64
724.336	0.75
724.515	0.76
724.695	0.38
724.874	0.6
725.054	0.64
725.234	0.47
725.413	0.49
725.593	0.61
725.772	0.58
725.952	0.48
726.131	0.44
726.311	0.55
726.49	0.58
726.67	0.42
726.849	0.45
727.028	0.54
727.208	0.53
727.387	0.6
727.567	0.42
727.746	0.51
727.925	0.53
728.105	0.43
728.284	0.59
728.463	0.46
728.643	0.63
728.822	0.48
729.001	0.5
729.18	0.56
729.359	0.63
729.539	0.5
729.718	0.5
729.897	0.59
730.076	0.46
730.255	0.4
730.434	0.52
730.614	0.65
730.793	0.68
730.972	0.42
731.151	0.43
731.33	0.56
731.509	0.53
731.688	0.47
731.867	0.49
732.046	0.35
732.225	0.79
732.404	0.44
732.583	0.41
732.762	0.55
732.941	0.56
733.12	0.55
733.298	0.52
733.477	0.69
733.656	0.5
733.835	0.37
734.014	0.61
734.193	0.53
734.371	0.53
734.55	0.63
734.729	0.28
734.908	0.57
735.086	0.56
735.265	0.6
735.444	0.24
735.623	0.48
735.801	0.44
735.98	0.57
736.159	0.45
736.337	0.46
736.516	0.54
736.694	0.55
736.873	0.39
737.052	0.83
737.23	0.68
737.409	0.42
737.587	0.76
737.766	0.4
737.944	0.4
738.123	0.59
738.301	0.61
738.479	0.5
738.658	0.58
738.836	0.34
739.015	0.53
739.193	0.59
739.371	0.29
739.55	0.47
739.728	0.35
739.906	0.75
740.085	0.69
740.263	0.64
740.441	0.3
740.62	0.75
740.798	0.6
740.976	0.41
741.154	0.46
741.332	0.67
741.511	0.54
741.689	0.54
741.867	0.56
742.045	0.65
742.223	0.43
742.401	0.37
742.579	0.43
742.757	0.54
742.935	0.45
743.114	0.36
743.292	0.39
743.47	0.5
743.648	0.58
743.826	0.49
744.004	0.42
744.181	0.64
744.359	0.41
744.537	0.54
744.715	0.55
744.893	0.5
745.071	0.6
745.249	0.44
745.427	0.41
745.605	0.57
745.782	0.47
745.96	0.54
746.138	0.55
746.316	0.59
746.493	0.46
746.671	0.53
746.849	0.43
747.027	0.59
747.204	0.43
747.382	0.45
747.56	0.33
747.737	0.43
747.915	0.31
748.093	0.5
748.27	0.37
748.448	0.42
748.625	0.36
748.803	0.22
748.98	0.34
749.158	0.45
749.335	0.45
749.513	0.46
749.69	0.37
749.868	0.43
750.045	0.55
750.223	0.44
750.4	0.22
750.578	0.67
750.755	0.47
750.932	0.28
751.11	0.45
751.287	0.34
751.464	0.6
751.642	0.37
751.819	0.44
751.996	0.45
752.173	0.34
752.351	0.27
752.528	0.47
752.705	0.37
752.882	0.35
753.06	0.56
753.237	0.46
753.414	0.63
753.591	0.77
753.768	0.39
753.945	0.35
754.122	0.39
754.299	0.49
754.476	0.28
754.654	0.45
754.831	0.61
755.008	0.47
755.185	0.31
755.362	0.24
755.539	0.48
755.716	0.34
755.892	0.37
756.069	0.51
756.246	0.61
756.423	0.37
756.6	0.55
756.777	0.28
756.954	0.62
757.131	0.47
757.307	0.23
757.484	0.31
757.661	0.47
757.838	0.48
758.015	0.31
758.191	0.43
758.368	0.4
758.545	0.53
758.721	0.45
758.898	0.39
759.075	0.45
759.251	0.52
759.428	0.47
759.605	0.28
759.781	0.4
759.958	0.37
760.134	0.41
760.311	0.24
760.488	0.57
760.664	0.56
760.841	0.34
761.017	0.29
761.194	0.38
761.37	0.52
761.547	0.26
761.723	0.37
761.899	0.56
762.076	0.42
762.252	0.27
762.429	0.46
762.605	0.58
762.781	0.36
762.958	0.49
763.134	0.26
763.31	0.28
763.486	0.69
763.663	0.21
763.839	0.51
764.015	0.31
764.191	0.24
764.368	0.45
764.544	0.31
764.72	0.44
764.896	0.51
765.072	0.45
765.248	0.31
765.425	0.45
765.601	0.5
765.777	0.42
765.953	0.13
766.129	0.32
766.305	0.25
766.481	0.4
766.657	0.47
766.833	0.55
767.009	0.25
767.185	0.32
767.361	0.37
767.537	0.31
767.713	0.63
767.889	0.31
768.065	0.47
768.24	0.54
768.416	0.38
768.592	0.43
768.768	0.32
768.944	0.52
769.12	0.27
769.295	0.3
769.471	0.4
769.647	0.27
769.823	0.53
769.998	0.18
770.174	0.39
770.35	0.9
770.525	0.64
770.701	0.39
770.877	0.23
771.052	0.28
771.228	0.48
771.403	0.49
771.579	0.39
771.755	0.62
771.93	0.41
772.106	0.36
772.281	0.19
772.457	0.44
772.632	0.41
772.808	0.28
772.983	0.22
773.159	0.23
773.334	0.68
773.509	0.38
773.685	0.29
773.86	0.88
774.036	0.74
774.211	0.44
774.386	0.42
774.562	0.45
774.737	0.5
774.912	0.3
775.087	0.52
775.263	0.35
775.438	0.27
775.613	0.34
775.788	0.32
775.964	0.51
776.139	0.9
776.314	0.24
776.489	0.52
776.664	0.54
776.839	0.13
777.014	0.52
777.19	0.63
777.365	0.81
777.54	0.71
777.715	0.36
777.89	0.37
778.065	0.33
778.24	0.21
778.415	0.5
778.59	0.27
778.765	0.53
778.94	0.44
779.115	0.28
779.289	0.24
779.464	0.4
779.639	0.37
779.814	0.21
779.989	0.19
780.164	0.63
780.339	0.55
780.513	0.29
780.688	0.1
780.863	0.42
781.038	0.61
781.212	0.42
781.387	0.37
781.562	0.66
781.737	0.26
781.911	0.63
782.086	0.21
782.261	0.48
782.435	0.84
782.61	0.34
782.784	0.5
782.959	0.63
783.134	0.36
783.308	0.22
783.483	0.23
783.657	1.02
783.832	0.74
784.006	0.07
784.181	0.49
784.355	0.7
784.53	0.42
784.704	0.3
784.878	0.65
785.053	0.5
785.227	0.85
785.402	0.73
785.576	0.45
785.75	0.42
785.925	0.54
786.099	0.38
786.273	0.51
786.448	0.62
786.622	0.73
786.796	0.41
786.97	0.43
787.145	0.95
787.319	0.23
787.493	0.44
787.667	0.33
787.841	0.53
788.015	0.67
788.19	0.23
788.364	0.43
788.538	0.77
788.712	0.68
788.886	0.6
789.06	0.59
789.234	0.72
789.408	0.29
789.582	0.29
789.756	0.51
789.93	0.4
790.104	0.47
790.278	0.33
790.452	0.29
790.626	0.59
790.8	0.36
790.973	0.54
791.147	0.94
791.321	0.83
791.495	0.71
791.669	0.71
791.843	0.51
792.016	0.55
792.19	0.93
792.364	0.23
792.538	0.97
792.711	0.77
792.885	0.27
793.059	0.04
793.233	-0.1
793.406	0.65
793.58	0.74
793.754	0.83
793.927	0.32
794.101	0.67
794.274	0.59
794.448	0.72
794.622	0.32
794.795	1.05
794.969	0.38
795.142	0.88
795.316	0.52
795.489	0.42
795.663	0.92
795.836	0.45
796.009	0.27
796.183	0.98
796.356	0.66
796.53	0.56
796.703	0.47
796.876	1.22
797.05	0.41
797.223	0.37
797.396	0.6
797.57	0.54
797.743	0.88
797.916	0.48
798.09	0.53
798.263	1.02
798.436	0.8
798.609	0.54
798.782	0.52
798.956	0.72
799.129	0.48
799.302	0.37
799.475	0.65
799.648	0.45
799.821	0.35
799.994	0.64
800.167	-0.03
800.34	0.61
800.514	0.53
800.687	0.55
800.86	0.2
801.033	0.67
801.206	0.7
801.379	0.34
801.551	0.81
801.724	0.99
801.897	1.21
802.07	0.35
802.243	0.16
802.416	0.23
802.589	0.69
802.762	0.7
802.935	0.51
803.107	0.81
803.28	1.15
803.453	0.72
803.626	0.33
803.798	0.5
803.971	0.33
804.144	0.73
804.317	0.91
804.489	0.63
804.662	0.66
804.835	0.82
805.007	0.32
805.18	1.16
805.353	0.58
805.525	0.45
805.698	0.67
805.87	1.14
806.043	1.28
806.215	0.2
806.388	-0.01
806.56	0.76
806.733	1.15
806.905	0.55
807.078	0.63
807.25	0.41
807.423	0.87
807.595	0.77
807.768	0.64
807.94	1.03
808.112	0.71
808.285	0.81
808.457	0.36
808.629	0.81
808.802	1.08
808.974	0.83
809.146	0.35
809.318	0.4
809.491	1.03
809.663	0.97
809.835	0.43
810.007	0.64
810.18	0.58
810.352	0.33
810.524	0.36
810.696	1.36
810.868	0.9
811.04	0.6
811.212	0.52
811.384	1.09
811.556	0.72
811.728	0.49
811.901	1.77
812.073	0.79
812.245	1.02
812.417	0.58
812.589	0.01
812.76	0.77
812.932	1.3
813.104	1.05
813.276	0.57
813.448	1.06
813.62	0.81
813.792	0.66
813.964	0.5
814.136	1.12
814.307	0.88
814.479	0.42
814.651	0.74
814.823	1.66
814.995	0.37
815.166	0.98
815.338	0.1
815.51	0.54
815.681	1.97
815.853	1.01
816.025	0.59
816.196	1.46
816.368	1.64
816.54	0.68
816.711	0.58
816.883	1.37
817.054	2.25
817.226	0.02
817.398	0.81
817.569	0.71
817.741	0.8
817.912	0.84
818.084	0.73
818.255	1.38
818.426	0.06
818.598	0.55
818.769	0.18
818.941	1.2
819.112	1.42
819.283	1.15
819.455	0.27
819.626	0.92
819.798	1.1
819.969	0.72
820.14	0.9
820.311	0.78
820.483	0.98
820.654	0.78
820.825	0.49
820.996	0.67
821.168	0.23
821.339	0.9
821.51	0.06
821.681	0.49
821.852	1.4
822.023	0.14
822.195	0.3
822.366	1.71
822.537	1.12
822.708	0.52
822.879	0.45
823.05	1.33
823.221	1.01
823.392	1.1
823.563	0.78
823.734	0.59
823.905	0.93
824.076	0.48
824.247	0.5
824.418	0.1
824.589	1.64
824.759	0.58
824.93	0.64
825.101	0.88
825.272	1.34
825.443	2.06
825.614	1.41
825.784	-0.22
825.955	2.31
826.126	1.57
826.297	1
826.467	1.47
826.638	2.02
826.809	-0.07
826.98	1.31
827.15	1.22
827.321	2.07
827.492	1.71
827.662	0.27
827.833	2.33
828.003	1.79
828.174	0.25
828.345	0.29
828.515	1.49
828.686	1.13
828.856	0.57
829.027	1.16
829.197	1.54
829.368	1.76
829.538	0.55
829.709	0.55
829.879	1.11
830.049	0.36
830.22	1.13
830.39	1.03
830.56	2.02
830.731	0.94
830.901	0.57
831.072	1.05
831.242	0.83
831.412	1.42
831.582	0.47
831.753	0.41
831.923	1.98
832.093	1.4
832.263	0.84
832.434	0.72
832.604	1.09
832.774	2.04
832.944	0.65
833.114	0.66
833.284	0.9
833.454	0.36
833.624	0.55
833.795	0.49
833.965	1.97
834.135	2.47
834.305	-0.3
834.475	0.36
834.645	0.8
834.815	0.71
834.985	0.31
835.155	0.14
835.325	1.41
835.494	1.65
835.664	0.43
835.834	0.37
836.004	1.36
836.174	1.62
836.344	1.13
836.514	-0.28
836.684	0.87
836.853	0.43
837.023	1.42
837.193	0.36
837.363	2.03
837.532	2.37
837.702	1.13
837.872	0.43
838.041	1.26
838.211	3.03
838.381	0.34
838.55	1.16
838.72	4.06
838.89	3.26
839.059	0.47
839.229	0.95
839.398	2.95
839.568	1.22
839.738	0.83
839.907	1.75
840.077	1.3
840.246	0.1
840.416	1
840.585	0.38
840.755	2.26
840.924	2.93
841.093	0.39
841.263	1.25
841.432	1.44
841.602	1.08
841.771	0.97
841.94	1.08
842.11	3.71
842.279	3.38
842.448	0.54
842.617	0.18
842.787	2.23
842.956	0.76
843.125	1.43
843.294	1.15
843.464	2.32
843.633	1.15
843.802	0.23
843.971	0.54
844.14	1.3
844.309	2.88
844.479	-0.38
844.648	0.06
844.817	1.25
844.986	2.13
845.155	0.53
845.324	1.73
845.493	0.8
845.662	0.68
845.831	1.56
846	1.15
846.169	1.2
846.338	3.13
846.507	1.62
846.676	1.66
846.844	1.34
847.013	1.23
847.182	1.76
847.351	1.16
847.52	1.15
847.689	2.08
847.858	0.9
848.026	1.05
848.195	1.41
848.364	0.57
848.533	0.2
848.701	1.18
848.87	1.74
849.039	2.75
849.207	2.09
849.376	3.06
849.545	2.34
849.713	0.67
849.882	0.93
850.051	1.1
850.219	1.44
850.388	2.05
850.556	0.82
850.725	1.06
850.893	1.43
851.062	0.87
851.23	2.68
851.399	-0.41
851.567	1.4
851.736	1.31
851.904	0.43
852.073	1.61
852.241	1.98
852.41	2.67
852.578	1.65
852.746	0.73
852.915	2.61
853.083	1.88
853.251	0.21
853.42	1.07
853.588	2.58
853.756	1.21
853.924	1.14
854.093	0.64
854.261	1.47
854.429	0.07
854.597	3.03
854.765	0.74
854.934	3.29
855.102	3.52
855.27	1.52
855.438	2.92
855.606	3.16
855.774	2.81
855.942	-0.93
856.11	-0.65
856.278	0.79
856.446	2.83
856.614	1.92
856.782	0.62
856.95	3.07
857.118	1.86
857.286	1.9
857.454	1.49
857.622	2.5
857.79	3.46
857.958	0.58
858.126	0.97
858.294	-0.86
858.462	1.56
858.629	0.73
858.797	0.6
858.965	2.22
859.133	2.21
859.301	1.07
859.468	2.52
859.636	2.45
859.804	3.77
859.971	3.12
860.139	1.02
860.307	2.11
860.474	2.2
860.642	-0.06
860.81	1.68
860.977	0.94
861.145	3.39
861.313	0.94
861.48	0.64
861.648	3.67
861.815	2.51
861.983	0.06
862.15	1.77
862.318	1.21
862.485	3.78
862.653	0.18
862.82	0.65
862.988	4.18
863.155	3.4
863.322	0.57
863.49	1.64
863.657	1.17
863.824	5.44
863.992	1.75
864.159	2.7
864.326	4.27
864.494	2.14
864.661	4.46
864.828	0.03
864.996	3.67
865.163	3.82
865.33	0.26
865.497	-0.67
865.664	0.75
865.832	-0.9
865.999	0.57
866.166	0.12
866.333	2.07
866.5	3.07
866.667	1.59
866.834	2.04
867.001	4.58
867.168	0.48
867.335	1.13
867.502	0.24
867.669	3.68
867.836	5.23
868.003	1.88
868.17	3.27
868.337	4.43
868.504	6.57
868.671	0.71
868.838	1.01
869.005	2.07
869.172	3.47
869.339	2.74
869.505	2.02
869.672	1.68
869.839	5.22
870.006	2.35
870.173	1.26
870.339	5.24
870.506	6.52
870.673	1.26
870.84	2.59
871.006	2.06
871.173	1.74
871.34	0.73
871.506	0.63
871.673	2.52
871.839	-0.59
872.006	3.13
872.173	0.26
872.339	3.84
872.506	3.94
872.672	2.54
872.839	-0.27
873.005	3.61
873.172	5.57
873.338	4.72
873.505	2.97
873.671	5.13
873.838	4.54
874.004	0.07
874.171	0.58
874.337	2.26
874.503	3.75
874.67	0.33
874.836	0.47
875.002	3.7
875.169	4.71
875.335	1.47
875.501	1.93
875.668	6.23
875.834	2.43
876	1.72
876.166	4.52
876.332	3.93
876.499	7.02
876.665	1.83
876.831	4.07
876.997	6.46
877.163	4.04
877.329	0.09
877.495	3.2
877.662	5
877.828	3.35
877.994	2.32
878.16	0
878.326	2.86
878.492	2.83
878.658	1.04
878.824	1.82
878.99	4.37
879.156	4.84
879.322	4.8
879.487	2.07
879.653	3.46
879.819	2.63
879.985	1.41
880.151	3.51
880.317	4.67
880.483	2.99
880.648	5.6
880.814	0.73
880.98	3.07
881.146	-0.9
881.312	0.09
881.477	1.88
881.643	3.55
881.809	4.69
881.974	3.87
882.14	0.36
882.306	3.46
882.471	5.52
882.637	2.29
882.803	1.65
882.968	6.26
883.134	5.95
883.299	1.37
883.465	4.67
883.63	5.02
883.796	4.23
883.961	4.12
884.127	4.09
884.292	-1.93
884.458	-0.17
884.623	-0.17
