Data from Apollo_Calib_20240827__AbsoluteIrradiance__840__13-09-02-049.txt Node

Date: Wed Aug 28 13:09:02 BST 2024
User: biology
Spectrometer: FLMT08252
Trigger mode: 0
Integration Time (sec): 5.000000E-1
Scans to average: 5
Electric dark correction enabled: true
Nonlinearity correction enabled: false
Boxcar width: 0
XAxis mode: Wavelengths
Number of Pixels in Spectrum: 3648
>>>>>Begin Spectral Data<<<<<
179.588	-0
179.809	-0
180.03	-0
180.251	-0
180.473	-0
180.694	0
180.915	0
181.136	-0
181.357	0
181.578	-0
181.799	0
182.02	-0
182.241	-0
182.462	-0
182.683	0
182.904	0
183.125	-0
183.346	0
183.567	0
183.788	0
184.009	0
184.23	0
184.451	0
184.672	0
184.892	0
185.113	0
185.334	0
185.555	0
185.776	0
185.996	0
186.217	0
186.438	0
186.659	0
186.879	0
187.1	0
187.321	0
187.541	0
187.762	0
187.983	0
188.203	0
188.424	0
188.644	0
188.865	0
189.086	0
189.306	0
189.527	0
189.747	0
189.968	0
190.188	0
190.409	0
190.629	0
190.849	0
191.07	0
191.29	0
191.511	0
191.731	0
191.951	0
192.172	0
192.392	0
192.612	0
192.833	0
193.053	0
193.273	0
193.493	0
193.714	0
193.934	0
194.154	0
194.374	0
194.594	0
194.815	0
195.035	0
195.255	0
195.475	0
195.695	0
195.915	0
196.135	0
196.355	0
196.575	0
196.795	0
197.015	0
197.235	0
197.455	0
197.675	0
197.895	0
198.115	0
198.335	0
198.555	0
198.775	0
198.995	0
199.214	0
199.434	0
199.654	0
199.874	0
200.094	3.73
200.313	2.65
200.533	2.47
200.753	1.86
200.973	3.78
201.192	3.41
201.412	1.55
201.632	1.78
201.851	3
202.071	2.02
202.291	1.76
202.51	1.45
202.73	2.93
202.95	1.78
203.169	1.26
203.389	1.73
203.608	2.21
203.828	1.83
204.047	1.35
204.267	2.46
204.486	2.44
204.706	2.23
204.925	1.82
205.145	1.28
205.364	2.45
205.583	2.42
205.803	1.54
206.022	1.02
206.242	1.83
206.461	2.02
206.68	1.34
206.9	1.36
207.119	2.63
207.338	2.24
207.557	1.06
207.777	1.18
207.996	1.05
208.215	2.48
208.434	0.97
208.654	0.98
208.873	1.31
209.092	1.99
209.311	1.52
209.53	1.17
209.749	1.27
209.968	0.89
210.187	1.11
210.407	0.5
210.626	0.88
210.845	1.83
211.064	1.27
211.283	1.05
211.502	1.66
211.721	1.21
211.94	1.09
212.159	1.23
212.377	1.51
212.596	1.59
212.815	1.04
213.034	1.06
213.253	1.35
213.472	1.38
213.691	0.94
213.91	0.72
214.128	0.87
214.347	1.49
214.566	0.62
214.785	0.44
215.003	1.19
215.222	1.07
215.441	0.96
215.66	0.71
215.878	0.92
216.097	1.38
216.316	0.66
216.534	0.98
216.753	1.13
216.972	0.8
217.19	0.8
217.409	0.71
217.627	0.84
217.846	0.93
218.064	0.91
218.283	0.46
218.501	1.41
218.72	1.06
218.938	0.53
219.157	0.69
219.375	1.18
219.594	1
219.812	0.46
220.031	0.48
220.249	1.07
220.467	1.4
220.686	0.63
220.904	0.59
221.122	0.62
221.341	1.26
221.559	0.76
221.777	0.41
221.995	0.8
222.214	1.15
222.432	0.58
222.65	0.98
222.868	0.77
223.086	0.89
223.305	0.74
223.523	0.66
223.741	1.03
223.959	0.8
224.177	0.32
224.395	0.57
224.613	0.88
224.831	0.93
225.049	0.38
225.267	0.58
225.485	0.84
225.703	0.66
225.921	0.64
226.139	0.5
226.357	0.83
226.575	0.81
226.793	0.48
227.011	1.66
227.229	0.7
227.447	0.92
227.665	0.58
227.883	0.46
228.1	0.59
228.318	0.81
228.536	0.36
228.754	0.46
228.972	0.78
229.189	0.72
229.407	0.57
229.625	0.6
229.843	0.87
230.06	0.78
230.278	0.44
230.496	0.54
230.713	0.7
230.931	0.85
231.149	0.45
231.366	0.25
231.584	0.5
231.801	0.89
232.019	0.46
232.236	0.4
232.454	0.45
232.671	0.65
232.889	0.49
233.106	0.4
233.324	0.53
233.541	0.55
233.759	0.53
233.976	0.39
234.194	0.72
234.411	0.63
234.628	0.37
234.846	0.38
235.063	0.52
235.28	0.56
235.498	0.48
235.715	0.29
235.932	0.7
236.149	0.43
236.367	0.39
236.584	0.5
236.801	0.46
237.018	0.74
237.236	0.53
237.453	0.32
237.67	0.71
237.887	0.44
238.104	0.35
238.321	0.34
238.538	0.37
238.755	0.7
238.973	0.28
239.19	0.57
239.407	0.57
239.624	0.5
239.841	0.35
240.058	0.37
240.275	0.54
240.492	0.57
240.709	0.47
240.925	0.38
241.142	0.46
241.359	0.41
241.576	0.43
241.793	0.34
242.01	0.44
242.227	0.6
242.444	0.51
242.66	0.66
242.877	0.55
243.094	0.38
243.311	0.45
243.527	0.39
243.744	0.57
243.961	0.48
244.178	0.38
244.394	0.43
244.611	0.64
244.828	0.8
245.044	0.36
245.261	0.41
245.477	0.57
245.694	0.54
245.911	0.38
246.127	0.48
246.344	0.62
246.56	0.56
246.777	0.36
246.993	0.44
247.21	0.53
247.426	0.56
247.643	0.36
247.859	0.37
248.076	0.38
248.292	0.64
248.508	0.33
248.725	0.5
248.941	0.5
249.157	0.58
249.374	0.27
249.59	0.37
249.806	0.43
250.023	0.49
250.239	0.33
250.455	0.32
250.671	0.46
250.888	0.53
251.104	0.52
251.32	0.33
251.536	0.4
251.752	0.39
251.969	0.32
252.185	0.44
252.401	0.63
252.617	0.52
252.833	0.37
253.049	0.42
253.265	0.41
253.481	0.47
253.697	0.33
253.913	0.34
254.129	0.48
254.345	0.48
254.561	0.36
254.777	0.28
254.993	0.5
255.209	0.38
255.425	0.37
255.641	0.35
255.857	0.51
256.073	0.48
256.288	0.26
256.504	0.33
256.72	0.46
256.936	0.57
257.152	0.41
257.367	0.27
257.583	0.39
257.799	0.48
258.015	0.33
258.23	0.32
258.446	0.54
258.662	0.41
258.877	0.25
259.093	0.34
259.309	0.43
259.524	0.45
259.74	0.29
259.955	0.27
260.171	0.38
260.387	0.37
260.602	0.43
260.818	0.42
261.033	0.25
261.249	0.46
261.464	0.35
261.68	0.26
261.895	0.46
262.11	0.47
262.326	0.35
262.541	0.24
262.757	0.45
262.972	0.42
263.187	0.4
263.403	0.38
263.618	0.38
263.833	0.39
264.049	0.25
264.264	0.31
264.479	0.4
264.694	0.49
264.91	0.17
265.125	0.26
265.34	0.48
265.555	0.6
265.77	0.35
265.986	0.32
266.201	0.43
266.416	0.48
266.631	0.38
266.846	0.27
267.061	0.42
267.276	0.41
267.491	0.17
267.706	0.27
267.921	0.37
268.136	0.34
268.351	0.3
268.566	0.25
268.781	0.5
268.996	0.46
269.211	0.26
269.426	0.26
269.641	0.36
269.856	0.4
270.071	0.28
270.285	0.22
270.5	0.42
270.715	0.35
270.93	0.33
271.145	0.37
271.359	0.45
271.574	0.3
271.789	0.32
272.004	0.32
272.218	0.27
272.433	0.45
272.648	0.3
272.862	0.41
273.077	0.3
273.292	0.42
273.506	0.29
273.721	0.29
273.936	0.42
274.15	0.43
274.365	0.28
274.579	0.37
274.794	0.41
275.008	0.4
275.223	0.15
275.437	0.31
275.652	0.43
275.866	0.34
276.081	0.3
276.295	0.38
276.509	0.31
276.724	0.35
276.938	0.38
277.153	0.35
277.367	0.37
277.581	0.31
277.796	0.28
278.01	0.18
278.224	0.34
278.438	0.45
278.653	0.25
278.867	0.26
279.081	0.43
279.295	0.32
279.51	0.31
279.724	0.19
279.938	0.39
280.152	0.34
280.366	0.3
280.58	0.29
280.794	0.42
281.008	0.41
281.222	0.36
281.437	0.43
281.651	0.32
281.865	0.41
282.079	0.24
282.293	0.23
282.507	0.2
282.721	0.28
282.935	0.34
283.148	0.18
283.362	0.31
283.576	0.26
283.79	0.29
284.004	0.24
284.218	0.42
284.432	0.24
284.646	0.28
284.859	0.25
285.073	0.26
285.287	0.35
285.501	0.35
285.714	0.29
285.928	0.35
286.142	0.37
286.356	0.25
286.569	0.25
286.783	0.41
286.997	0.4
287.21	0.3
287.424	0.25
287.637	0.31
287.851	0.28
288.065	0.37
288.278	0.25
288.492	0.32
288.705	0.26
288.919	0.33
289.132	0.18
289.346	0.34
289.559	0.21
289.773	0.19
289.986	0.25
290.2	0.24
290.413	0.31
290.626	0.21
290.84	0.25
291.053	0.27
291.267	0.36
291.48	0.25
291.693	0.34
291.906	0.23
292.12	0.3
292.333	0.24
292.546	0.27
292.76	0.4
292.973	0.28
293.186	0.28
293.399	0.25
293.612	0.38
293.826	0.24
294.039	0.26
294.252	0.23
294.465	0.36
294.678	0.26
294.891	0.3
295.104	0.26
295.317	0.28
295.53	0.27
295.743	0.27
295.956	0.26
296.169	0.41
296.382	0.29
296.595	0.23
296.808	0.22
297.021	0.36
297.234	0.34
297.447	0.23
297.66	0.27
297.873	0.31
298.086	0.31
298.299	0.19
298.511	0.18
298.724	0.27
298.937	0.2
299.15	0.19
299.363	0.24
299.575	0.33
299.788	0.32
300.001	0.21
300.213	0.23
300.426	0.23
300.639	0.23
300.852	0.22
301.064	0.28
301.277	0.35
301.489	0.28
301.702	0.31
301.915	0.24
302.127	0.25
302.34	0.28
302.552	0.28
302.765	0.27
302.977	0.36
303.19	0.18
303.402	0.21
303.615	0.22
303.827	0.27
304.04	0.27
304.252	0.35
304.464	0.24
304.677	0.42
304.889	0.3
305.102	0.23
305.314	0.23
305.526	0.33
305.739	0.33
305.951	0.22
306.163	0.23
306.375	0.35
306.588	0.25
306.8	0.25
307.012	0.23
307.224	0.29
307.436	0.36
307.649	0.17
307.861	0.26
308.073	0.35
308.285	0.24
308.497	0.22
308.709	0.26
308.921	0.28
309.133	0.33
309.346	0.22
309.558	0.19
309.77	0.32
309.982	0.35
310.194	0.27
310.406	0.23
310.617	0.37
310.829	0.3
311.041	0.31
311.253	0.2
311.465	0.27
311.677	0.28
311.889	0.24
312.101	0.21
312.313	0.32
312.524	0.38
312.736	0.17
312.948	0.24
313.16	0.38
313.372	0.31
313.583	0.29
313.795	0.25
314.007	0.22
314.218	0.33
314.43	0.28
314.642	0.21
314.853	0.2
315.065	0.32
315.277	0.25
315.488	0.26
315.7	0.31
315.912	0.27
316.123	0.29
316.335	0.23
316.546	0.4
316.758	0.31
316.969	0.23
317.181	0.3
317.392	0.3
317.604	0.35
317.815	0.18
318.026	0.24
318.238	0.25
318.449	0.31
318.661	0.17
318.872	0.21
319.083	0.14
319.295	0.29
319.506	0.24
319.717	0.28
319.929	0.29
320.14	0.24
320.351	0.26
320.562	0.24
320.774	0.29
320.985	0.26
321.196	0.22
321.407	0.2
321.618	0.28
321.829	0.28
322.041	0.29
322.252	0.27
322.463	0.31
322.674	0.31
322.885	0.18
323.096	0.23
323.307	0.23
323.518	0.25
323.729	0.24
323.94	0.21
324.151	0.23
324.362	0.28
324.573	0.27
324.784	0.2
324.995	0.32
325.206	0.28
325.417	0.23
325.628	0.21
325.838	0.24
326.049	0.27
326.26	0.27
326.471	0.22
326.682	0.28
326.892	0.24
327.103	0.19
327.314	0.21
327.525	0.36
327.735	0.24
327.946	0.2
328.157	0.17
328.368	0.34
328.578	0.25
328.789	0.31
328.999	0.22
329.21	0.27
329.421	0.27
329.631	0.2
329.842	0.19
330.052	0.28
330.263	0.29
330.473	0.31
330.684	0.2
330.894	0.29
331.105	0.28
331.315	0.29
331.526	0.15
331.736	0.35
331.947	0.32
332.157	0.29
332.367	0.2
332.578	0.33
332.788	0.33
332.999	0.27
333.209	0.27
333.419	0.21
333.629	0.25
333.84	0.27
334.05	0.27
334.26	0.35
334.47	0.24
334.681	0.3
334.891	0.22
335.101	0.31
335.311	0.39
335.521	0.26
335.732	0.19
335.942	0.35
336.152	0.29
336.362	0.25
336.572	0.29
336.782	0.33
336.992	0.22
337.202	0.23
337.412	0.25
337.622	0.28
337.832	0.26
338.042	0.29
338.252	0.2
338.462	0.25
338.672	0.29
338.882	0.21
339.092	0.22
339.302	0.37
339.511	0.3
339.721	0.24
339.931	0.2
340.141	0.35
340.351	0.39
340.561	0.24
340.77	0.29
340.98	0.29
341.19	0.27
341.4	0.2
341.609	0.22
341.819	0.25
342.029	0.19
342.238	0.31
342.448	0.2
342.658	0.31
342.867	0.28
343.077	0.26
343.286	0.25
343.496	0.25
343.706	0.32
343.915	0.21
344.125	0.26
344.334	0.29
344.544	0.18
344.753	0.24
344.963	0.22
345.172	0.21
345.381	0.25
345.591	0.15
345.8	0.23
346.01	0.32
346.219	0.3
346.428	0.12
346.638	0.21
346.847	0.25
347.056	0.35
347.266	0.2
347.475	0.2
347.684	0.29
347.893	0.23
348.103	0.25
348.312	0.23
348.521	0.26
348.73	0.25
348.94	0.23
349.149	0.23
349.358	0.27
349.567	0.23
349.776	0.17
349.985	0.2
350.194	0.29
350.403	0.36
350.612	0.17
350.821	0.19
351.03	0.28
351.239	0.21
351.448	0.28
351.657	0.24
351.866	0.37
352.075	0.26
352.284	0.28
352.493	0.18
352.702	0.29
352.911	0.31
353.12	0.24
353.329	0.23
353.538	0.27
353.746	0.25
353.955	0.2
354.164	0.23
354.373	0.25
354.582	0.34
354.79	0.26
354.999	0.27
355.208	0.25
355.416	0.33
355.625	0.19
355.834	0.23
356.042	0.29
356.251	0.22
356.46	0.2
356.668	0.23
356.877	0.34
357.085	0.29
357.294	0.21
357.503	0.24
357.711	0.25
357.92	0.42
358.128	0.27
358.337	0.2
358.545	0.28
358.754	0.16
358.962	0.31
359.17	0.2
359.379	0.31
359.587	0.29
359.796	0.26
360.004	0.3
360.212	0.29
360.421	0.35
360.629	0.22
360.837	0.22
361.046	0.34
361.254	0.36
361.462	0.21
361.67	0.2
361.879	0.3
362.087	0.35
362.295	0.21
362.503	0.25
362.711	0.19
362.92	0.22
363.128	0.21
363.336	0.18
363.544	0.17
363.752	0.24
363.96	0.23
364.168	0.25
364.376	0.22
364.584	0.29
364.792	0.35
365	0.29
365.208	0.29
365.416	0.27
365.624	0.31
365.832	0.24
366.04	0.33
366.248	0.28
366.456	0.29
366.664	0.21
366.872	0.24
367.079	0.22
367.287	0.28
367.495	0.27
367.703	0.26
367.911	0.25
368.118	0.24
368.326	0.26
368.534	0.2
368.742	0.29
368.949	0.17
369.157	0.19
369.365	0.31
369.572	0.25
369.78	0.18
369.988	0.28
370.195	0.25
370.403	0.29
370.61	0.2
370.818	0.24
371.026	0.36
371.233	0.23
371.441	0.24
371.648	0.25
371.856	0.3
372.063	0.27
372.271	0.21
372.478	0.22
372.685	0.24
372.893	0.36
373.1	0.27
373.308	0.23
373.515	0.36
373.722	0.29
373.93	0.25
374.137	0.25
374.344	0.33
374.552	0.3
374.759	0.3
374.966	0.24
375.173	0.24
375.381	0.31
375.588	0.22
375.795	0.21
376.002	0.24
376.209	0.23
376.417	0.22
376.624	0.24
376.831	0.27
377.038	0.28
377.245	0.17
377.452	0.24
377.659	0.29
377.866	0.2
378.073	0.26
378.28	0.27
378.487	0.34
378.694	0.35
378.901	0.27
379.108	0.24
379.315	0.35
379.522	0.32
379.729	0.25
379.936	0.19
380.143	0.31
380.35	0.28
380.557	0.25
380.763	0.26
380.97	0.3
381.177	0.27
381.384	0.27
381.591	0.22
381.797	0.28
382.004	0.35
382.211	0.28
382.418	0.2
382.624	0.3
382.831	0.26
383.038	0.23
383.244	0.33
383.451	0.29
383.658	0.29
383.864	0.25
384.071	0.2
384.277	0.4
384.484	0.3
384.69	0.29
384.897	0.22
385.103	0.26
385.31	0.29
385.516	0.22
385.723	0.24
385.929	0.29
386.136	0.24
386.342	0.33
386.549	0.24
386.755	0.35
386.961	0.35
387.168	0.26
387.374	0.28
387.58	0.36
387.787	0.31
387.993	0.31
388.199	0.22
388.406	0.24
388.612	0.27
388.818	0.25
389.024	0.24
389.231	0.28
389.437	0.37
389.643	0.32
389.849	0.28
390.055	0.32
390.261	0.3
390.467	0.34
390.674	0.29
390.88	0.32
391.086	0.36
391.292	0.22
391.498	0.33
391.704	0.36
391.91	0.29
392.116	0.24
392.322	0.23
392.528	0.36
392.734	0.33
392.94	0.32
393.146	0.35
393.352	0.34
393.557	0.28
393.763	0.29
393.969	0.31
394.175	0.29
394.381	0.28
394.587	0.23
394.792	0.31
394.998	0.42
395.204	0.38
395.41	0.26
395.615	0.38
395.821	0.37
396.027	0.33
396.233	0.33
396.438	0.36
396.644	0.35
396.85	0.33
397.055	0.33
397.261	0.35
397.466	0.44
397.672	0.35
397.878	0.37
398.083	0.41
398.289	0.33
398.494	0.43
398.7	0.37
398.905	0.2
399.111	0.42
399.316	0.27
399.522	0.37
399.727	0.34
399.932	0.3
400.138	0.31
400.343	0.38
400.549	0.35
400.754	0.44
400.959	0.41
401.165	0.34
401.37	0.37
401.575	0.47
401.78	0.37
401.986	0.36
402.191	0.36
402.396	0.39
402.601	0.44
402.807	0.39
403.012	0.36
403.217	0.44
403.422	0.41
403.627	0.43
403.832	0.4
404.037	0.43
404.243	0.44
404.448	0.39
404.653	0.37
404.858	0.43
405.063	0.48
405.268	0.45
405.473	0.38
405.678	0.4
405.883	0.67
406.088	0.53
406.293	0.42
406.498	0.5
406.703	0.59
406.907	0.49
407.112	0.46
407.317	0.51
407.522	0.59
407.727	0.5
407.932	0.54
408.136	0.71
408.341	0.62
408.546	0.55
408.751	0.55
408.956	0.57
409.16	0.65
409.365	0.6
409.57	0.62
409.774	0.66
409.979	0.73
410.184	0.66
410.388	0.64
410.593	0.82
410.798	0.75
411.002	0.73
411.207	0.85
411.411	0.84
411.616	0.72
411.82	0.85
412.025	0.88
412.229	0.88
412.434	1
412.638	0.95
412.843	0.89
413.047	0.98
413.252	1
413.456	0.99
413.66	1.09
413.865	1.12
414.069	1.18
414.273	1.13
414.478	1.15
414.682	1.28
414.886	1.25
415.091	1.22
415.295	1.26
415.499	1.48
415.703	1.39
415.908	1.57
416.112	1.37
416.316	1.59
416.52	1.59
416.724	1.6
416.929	1.62
417.133	1.93
417.337	1.75
417.541	1.83
417.745	1.92
417.949	1.98
418.153	2.07
418.357	2.09
418.561	2.3
418.765	2.24
418.969	2.44
419.173	2.51
419.377	2.43
419.581	2.75
419.785	2.69
419.989	2.72
420.193	2.85
420.397	2.92
420.601	3.08
420.804	3.22
421.008	3.18
421.212	3.34
421.416	3.44
421.62	3.37
421.823	3.47
422.027	3.64
422.231	3.58
422.435	3.54
422.638	3.59
422.842	3.77
423.046	3.78
423.249	4.06
423.453	4.03
423.657	4.28
423.86	4.29
424.064	4.33
424.268	4.59
424.471	4.53
424.675	4.83
424.878	4.95
425.082	4.91
425.285	5.22
425.489	5.15
425.692	5.3
425.896	5.34
426.099	5.59
426.303	5.72
426.506	5.81
426.71	6.08
426.913	6.21
427.116	6.44
427.32	6.38
427.523	6.54
427.726	6.84
427.93	6.95
428.133	7.26
428.336	7.32
428.54	7.53
428.743	7.79
428.946	8.06
429.149	8.01
429.353	8.09
429.556	8.13
429.759	8.19
429.962	8.23
430.165	8.55
430.368	8.01
430.571	8.23
430.775	8.17
430.978	8.21
431.181	8.29
431.384	8.37
431.587	8.57
431.79	8.81
431.993	8.77
432.196	9.05
432.399	9.4
432.602	9.52
432.805	9.64
433.008	10.24
433.211	10
433.414	10.49
433.616	10.56
433.819	10.43
434.022	10.52
434.225	10.79
434.428	10.69
434.631	11.24
434.833	10.94
435.036	11.2
435.239	11.36
435.442	11.42
435.645	11.68
435.847	11.77
436.05	12.06
436.253	12.2
436.455	12.36
436.658	12.17
436.861	12.42
437.063	12.61
437.266	12.53
437.468	12.95
437.671	13.27
437.874	13.29
438.076	13.19
438.279	13.63
438.481	13.64
438.684	14.48
438.886	14.04
439.089	14.17
439.291	14.28
439.494	14.74
439.696	14.78
439.899	15.31
440.101	15.79
440.303	15.95
440.506	16.66
440.708	16.35
440.91	16.67
441.113	16.99
441.315	17.09
441.517	16.83
441.72	17.35
441.922	17.07
442.124	16.77
442.326	17.35
442.529	17.57
442.731	17.4
442.933	17.97
443.135	17.63
443.337	17.59
443.539	18.23
443.742	17.8
443.944	18.46
444.146	18.22
444.348	18.22
444.55	18.07
444.752	18.31
444.954	18.21
445.156	18.09
445.358	18.52
445.56	18.69
445.762	18.59
445.964	19.09
446.166	18.7
446.368	18.63
446.57	18.62
446.772	18.18
446.974	18.12
447.175	18.24
447.377	17.99
447.579	18.41
447.781	18.08
447.983	17.81
448.184	17.39
448.386	17.81
448.588	17.26
448.79	17.2
448.991	17.45
449.193	17.51
449.395	16.71
449.597	16.42
449.798	16.36
450	15.84
450.202	15.64
450.403	15.76
450.605	15.71
450.806	15.35
451.008	15.02
451.21	14.99
451.411	14.37
451.613	13.67
451.814	14.02
452.016	13.94
452.217	13.23
452.419	13.32
452.62	12.88
452.821	12.51
453.023	12.57
453.224	12.11
453.426	11.67
453.627	11.06
453.828	11.13
454.03	11.22
454.231	11.19
454.432	10.92
454.634	10.69
454.835	10.45
455.036	10.36
455.238	9.92
455.439	9.77
455.64	9.32
455.841	9.23
456.042	9.37
456.244	9.03
456.445	8.73
456.646	8.49
456.847	8.52
457.048	8.37
457.249	8.42
457.45	8.14
457.651	7.62
457.852	7.56
458.054	7.14
458.255	7.11
458.456	7.25
458.657	7.05
458.858	6.69
459.058	6.57
459.259	6.65
459.46	6.39
459.661	6.3
459.862	6.39
460.063	6.3
460.264	6.14
460.465	5.95
460.666	6
460.866	5.69
461.067	5.45
461.268	5.46
461.469	5.43
461.67	5.35
461.87	5.1
462.071	5.27
462.272	5.08
462.473	5.01
462.673	5.28
462.874	5.11
463.075	5.05
463.275	4.99
463.476	5.12
463.676	5.12
463.877	4.91
464.078	4.87
464.278	4.9
464.479	4.82
464.679	4.61
464.88	4.67
465.08	4.66
465.281	4.44
465.481	4.3
465.682	4.08
465.882	4.11
466.083	4.06
466.283	3.94
466.483	3.86
466.684	3.71
466.884	3.58
467.085	3.63
467.285	3.67
467.485	3.55
467.686	3.48
467.886	3.35
468.086	3.32
468.286	3.39
468.487	3.37
468.687	3.18
468.887	3.2
469.087	3.37
469.287	3.22
469.488	3.05
469.688	3.23
469.888	3.14
470.088	3.05
470.288	3.03
470.488	3
470.688	2.88
470.888	2.87
471.088	2.63
471.288	2.73
471.488	2.75
471.688	2.71
471.888	2.63
472.088	2.78
472.288	2.73
472.488	2.61
472.688	2.55
472.888	2.62
473.088	2.59
473.288	2.45
473.488	2.43
473.688	2.62
473.887	2.44
474.087	2.37
474.287	2.43
474.487	2.37
474.687	2.42
474.886	2.38
475.086	2.28
475.286	2.34
475.486	2.23
475.685	2.23
475.885	2.19
476.085	2.26
476.284	2.25
476.484	2.26
476.684	2.18
476.883	2.24
477.083	2.14
477.282	2.06
477.482	2.16
477.681	2.14
477.881	2.03
478.08	2.04
478.28	2.04
478.479	2.05
478.679	2.19
478.878	2.07
479.078	2.07
479.277	2.03
479.477	2.05
479.676	1.99
479.875	1.99
480.075	1.91
480.274	1.98
480.473	2.08
480.673	1.97
480.872	2.1
481.071	2.04
481.271	2.07
481.47	1.97
481.669	1.98
481.868	1.97
482.067	2.03
482.267	1.88
482.466	1.95
482.665	1.9
482.864	1.94
483.063	1.94
483.262	1.99
483.461	2.06
483.661	2.04
483.86	2.02
484.059	2.04
484.258	2.05
484.457	2.01
484.656	2
484.855	2.08
485.054	1.91
485.253	1.98
485.452	1.97
485.651	2.07
485.849	2
486.048	1.96
486.247	2
486.446	2.08
486.645	2.01
486.844	2.08
487.043	2.04
487.241	2.08
487.44	2.07
487.639	2.13
487.838	2.11
488.037	2.09
488.235	2.23
488.434	2.12
488.633	2.05
488.831	2.2
489.03	2.18
489.229	2.19
489.427	2.16
489.626	2.26
489.825	2.26
490.023	2.26
490.222	2.25
490.42	2.35
490.619	2.37
490.817	2.35
491.016	2.37
491.214	2.4
491.413	2.43
491.611	2.37
491.81	2.39
492.008	2.45
492.207	2.54
492.405	2.52
492.604	2.47
492.802	2.6
493	2.63
493.199	2.61
493.397	2.62
493.595	2.69
493.794	2.68
493.992	2.78
494.19	2.73
494.388	2.83
494.587	2.76
494.785	2.78
494.983	2.71
495.181	2.85
495.379	2.91
495.578	2.97
495.776	2.95
495.974	2.94
496.172	3
496.37	3.09
496.568	3.1
496.766	3.07
496.964	3.15
497.162	3.17
497.36	3.22
497.558	3.24
497.756	3.29
497.954	3.29
498.152	3.34
498.35	3.46
498.548	3.37
498.746	3.39
498.944	3.41
499.142	3.45
499.34	3.54
499.538	3.65
499.736	3.53
499.933	3.65
500.131	3.68
500.329	3.78
500.527	3.73
500.725	3.88
500.922	3.87
501.12	3.9
501.318	3.9
501.516	3.93
501.713	4.03
501.911	4
502.109	3.95
502.306	4.11
502.504	4.05
502.701	4.09
502.899	4.23
503.097	4.37
503.294	4.21
503.492	4.38
503.689	4.36
503.887	4.36
504.084	4.52
504.282	4.48
504.479	4.39
504.677	4.61
504.874	4.57
505.072	4.46
505.269	4.68
505.466	4.71
505.664	4.77
505.861	4.65
506.059	4.78
506.256	4.8
506.453	4.87
506.651	4.99
506.848	4.98
507.045	4.98
507.242	4.97
507.44	5.02
507.637	5.11
507.834	5.04
508.031	5.22
508.229	5.21
508.426	5.16
508.623	5.23
508.82	5.26
509.017	5.31
509.214	5.3
509.411	5.43
509.608	5.38
509.805	5.52
510.003	5.46
510.2	5.55
510.397	5.71
510.594	5.56
510.791	5.64
510.988	5.64
511.184	5.68
511.381	5.54
511.578	5.67
511.775	5.87
511.972	5.76
512.169	5.82
512.366	5.83
512.563	5.98
512.76	5.98
512.956	6.01
513.153	5.96
513.35	5.93
513.547	5.96
513.744	6.05
513.94	6.05
514.137	6.16
514.334	6.17
514.53	6.23
514.727	6.36
514.924	6.3
515.12	6.26
515.317	6.31
515.514	6.28
515.71	6.22
515.907	6.48
516.103	6.46
516.3	6.34
516.497	6.49
516.693	6.51
516.89	6.54
517.086	6.55
517.283	6.54
517.479	6.45
517.676	6.64
517.872	6.66
518.068	6.65
518.265	6.62
518.461	6.58
518.658	6.71
518.854	6.75
519.05	6.85
519.247	6.81
519.443	6.8
519.639	6.94
519.836	6.78
520.032	6.78
520.228	6.93
520.424	6.89
520.621	6.96
520.817	7.01
521.013	6.94
521.209	7.07
521.405	7.16
521.601	7.05
521.798	6.98
521.994	7.1
522.19	6.93
522.386	7.02
522.582	7.15
522.778	7.24
522.974	7.16
523.17	7.16
523.366	7.12
523.562	7.16
523.758	7.25
523.954	7.07
524.15	7.27
524.346	7.28
524.542	7.32
524.738	7.29
524.934	7.42
525.129	7.31
525.325	7.28
525.521	7.33
525.717	7.49
525.913	7.38
526.109	7.43
526.304	7.47
526.5	7.47
526.696	7.51
526.892	7.43
527.087	7.62
527.283	7.5
527.479	7.55
527.674	7.34
527.87	7.49
528.066	7.51
528.261	7.56
528.457	7.51
528.653	7.6
528.848	7.7
529.044	7.66
529.239	7.55
529.435	7.53
529.63	7.49
529.826	7.6
530.021	7.56
530.217	7.67
530.412	7.58
530.608	7.61
530.803	7.65
530.999	7.54
531.194	7.66
531.389	7.72
531.585	7.65
531.78	7.86
531.975	7.75
532.171	7.8
532.366	7.8
532.561	7.77
532.757	7.73
532.952	7.93
533.147	7.69
533.342	7.8
533.538	7.69
533.733	7.86
533.928	7.65
534.123	7.79
534.318	7.83
534.513	7.76
534.709	7.96
534.904	7.84
535.099	7.99
535.294	7.96
535.489	7.97
535.684	7.86
535.879	7.87
536.074	7.95
536.269	7.86
536.464	7.94
536.659	7.85
536.854	7.9
537.049	7.97
537.244	7.92
537.439	7.94
537.634	7.95
537.828	8.02
538.023	8.01
538.218	7.95
538.413	7.87
538.608	8
538.803	7.96
538.997	7.96
539.192	8.01
539.387	7.97
539.582	7.96
539.776	7.88
539.971	7.99
540.166	8.04
540.36	7.97
540.555	8.09
540.75	8.03
540.944	8.04
541.139	8.04
541.334	8.01
541.528	8.1
541.723	8.18
541.917	8.05
542.112	7.97
542.306	7.91
542.501	7.94
542.695	8.02
542.89	7.95
543.084	8.04
543.279	8.01
543.473	8.12
543.668	8.1
543.862	7.92
544.056	7.94
544.251	8.11
544.445	8.15
544.64	8.12
544.834	7.82
545.028	7.73
545.222	8.06
545.417	8.25
545.611	8.1
545.805	8.07
546	7.88
546.194	8.14
546.388	8.12
546.582	8
546.776	7.97
546.97	8.08
547.165	8.04
547.359	8.06
547.553	7.98
547.747	8.03
547.941	8.24
548.135	8.07
548.329	8.12
548.523	8.17
548.717	8.01
548.911	8.07
549.105	8.07
549.299	8.11
549.493	8.1
549.687	8
549.881	8.13
550.075	8.11
550.269	8.01
550.463	8.16
550.657	8.1
550.85	8.12
551.044	8.01
551.238	8.16
551.432	8.05
551.626	8.21
551.82	8.1
552.013	8
552.207	8.19
552.401	8.2
552.594	8.09
552.788	8.05
552.982	8.03
553.176	7.96
553.369	8.25
553.563	8.18
553.756	8.1
553.95	8.16
554.144	8.17
554.337	8.21
554.531	7.95
554.724	8.21
554.918	8.22
555.111	8.07
555.305	8.15
555.498	8.09
555.692	8.26
555.885	8.18
556.079	8.05
556.272	8.17
556.466	8.15
556.659	8.02
556.852	8.19
557.046	8.04
557.239	7.97
557.432	8.06
557.626	8.15
557.819	8.19
558.012	8.16
558.206	8.16
558.399	8.15
558.592	8.08
558.785	8.1
558.979	8.16
559.172	8.09
559.365	8.17
559.558	8.1
559.751	8.06
559.944	8.24
560.138	8.07
560.331	8.16
560.524	8.2
560.717	8.11
560.91	8.18
561.103	8.14
561.296	8
561.489	8.21
561.682	8.2
561.875	8.15
562.068	8.26
562.261	8.04
562.454	8.3
562.647	8.11
562.84	8.25
563.032	8.16
563.225	8.11
563.418	8.13
563.611	8.17
563.804	8.12
563.997	8.04
564.19	7.91
564.382	8.16
564.575	8.12
564.768	8.03
564.961	8.21
565.153	8.03
565.346	7.97
565.539	8.18
565.731	8.09
565.924	8.26
566.117	8.2
566.309	8.24
566.502	8.06
566.695	8.02
566.887	8.2
567.08	8.1
567.272	8.22
567.465	7.99
567.657	8.1
567.85	7.97
568.042	8.1
568.235	8.12
568.427	8.01
568.62	8.07
568.812	8.09
569.005	8.17
569.197	7.95
569.389	8.04
569.582	8.07
569.774	8.08
569.966	7.99
570.159	7.97
570.351	7.98
570.543	8.11
570.736	8.06
570.928	7.85
571.12	8.07
571.312	7.96
571.505	7.81
571.697	8.1
571.889	8.05
572.081	8.04
572.273	7.95
572.465	8.03
572.658	7.99
572.85	8.04
573.042	8.06
573.234	7.95
573.426	7.95
573.618	7.97
573.81	8.05
574.002	7.98
574.194	7.99
574.386	7.97
574.578	7.82
574.77	7.88
574.962	7.98
575.154	7.84
575.346	7.88
575.538	7.87
575.729	7.86
575.921	7.95
576.113	7.94
576.305	7.94
576.497	7.99
576.689	7.73
576.88	7.75
577.072	7.99
577.264	7.91
577.456	7.9
577.647	7.89
577.839	7.97
578.031	7.87
578.223	7.81
578.414	7.76
578.606	7.89
578.798	7.91
578.989	7.9
579.181	7.92
579.372	7.83
579.564	7.88
579.755	7.86
579.947	7.72
580.139	7.85
580.33	7.69
580.522	7.86
580.713	7.76
580.905	7.71
581.096	7.84
581.287	7.7
581.479	7.68
581.67	7.8
581.862	7.71
582.053	7.74
582.244	7.64
582.436	7.8
582.627	7.68
582.818	7.66
583.01	7.67
583.201	7.73
583.392	7.68
583.583	7.69
583.775	7.53
583.966	7.61
584.157	7.71
584.348	7.82
584.54	7.59
584.731	7.68
584.922	7.53
585.113	7.45
585.304	7.57
585.495	7.65
585.686	7.62
585.877	7.58
586.068	7.71
586.259	7.62
586.45	7.54
586.641	7.52
586.832	7.56
587.023	7.5
587.214	7.47
587.405	7.57
587.596	7.44
587.787	7.4
587.978	7.52
588.169	7.37
588.36	7.34
588.551	7.45
588.742	7.46
588.932	7.46
589.123	7.3
589.314	7.51
589.505	7.32
589.696	7.38
589.886	7.37
590.077	7.43
590.268	7.28
590.458	7.22
590.649	7.12
590.84	7.3
591.03	7.37
591.221	7.31
591.412	7.15
591.602	7.35
591.793	7.23
591.984	7.25
592.174	7.28
592.365	7.42
592.555	7.15
592.746	7.19
592.936	7.2
593.127	7.22
593.317	7.22
593.508	7.2
593.698	7.1
593.889	7.13
594.079	7.16
594.269	7.08
594.46	7.09
594.65	7.19
594.84	7.05
595.031	7.03
595.221	7.09
595.411	7
595.602	7.03
595.792	6.93
595.982	6.86
596.172	7.15
596.363	6.96
596.553	6.9
596.743	6.96
596.933	6.92
597.123	6.9
597.314	6.78
597.504	6.8
597.694	7
597.884	6.82
598.074	6.93
598.264	6.77
598.454	6.86
598.644	6.82
598.834	6.78
599.024	6.69
599.214	6.7
599.404	6.77
599.594	6.75
599.784	6.65
599.974	6.82
600.164	6.74
600.354	6.59
600.544	6.57
600.734	6.68
600.924	6.63
601.114	6.5
601.303	6.5
601.493	6.57
601.683	6.63
601.873	6.55
602.063	6.49
602.252	6.56
602.442	6.42
602.632	6.51
602.821	6.44
603.011	6.46
603.201	6.42
603.39	6.43
603.58	6.26
603.77	6.39
603.959	6.53
604.149	6.35
604.339	6.33
604.528	6.49
604.718	6.41
604.907	6.3
605.097	6.28
605.286	6.31
605.476	6.27
605.665	6.35
605.855	6.22
606.044	6.27
606.234	6.26
606.423	6.18
606.612	6.18
606.802	6.07
606.991	6.19
607.181	6.17
607.37	6.17
607.559	5.92
607.749	6.11
607.938	6.03
608.127	6.04
608.316	6.05
608.506	6.03
608.695	6.1
608.884	5.96
609.073	6.02
609.263	6.06
609.452	6.05
609.641	5.86
609.83	5.85
610.019	6
610.208	5.89
610.397	5.86
610.586	5.86
610.775	5.77
610.965	5.81
611.154	5.71
611.343	5.77
611.532	5.74
611.721	5.88
611.91	5.73
612.099	5.76
612.287	5.65
612.476	5.62
612.665	5.77
612.854	5.59
613.043	5.61
613.232	5.62
613.421	5.56
613.61	5.62
613.798	5.54
613.987	5.6
614.176	5.54
614.365	5.59
614.554	5.55
614.742	5.5
614.931	5.43
615.12	5.54
615.309	5.48
615.497	5.43
615.686	5.31
615.875	5.4
616.063	5.37
616.252	5.35
616.44	5.35
616.629	5.28
616.818	5.34
617.006	5.34
617.195	5.19
617.383	5.27
617.572	5.22
617.76	5.22
617.949	5.13
618.137	5.31
618.326	5.33
618.514	5.06
618.703	4.99
618.891	5.2
619.079	5.1
619.268	5.15
619.456	5.03
619.644	5.15
619.833	5.13
620.021	4.99
620.209	4.87
620.398	4.98
620.586	4.95
620.774	4.98
620.962	4.91
621.151	5.04
621.339	4.92
621.527	4.91
621.715	4.85
621.903	4.85
622.092	4.76
622.28	4.93
622.468	4.72
622.656	4.87
622.844	4.75
623.032	4.8
623.22	4.66
623.408	4.87
623.596	4.74
623.784	4.77
623.972	4.58
624.16	4.65
624.348	4.75
624.536	4.74
624.724	4.6
624.912	4.65
625.1	4.58
625.288	4.58
625.476	4.52
625.664	4.65
625.851	4.51
626.039	4.56
626.227	4.49
626.415	4.48
626.603	4.36
626.79	4.51
626.978	4.45
627.166	4.46
627.354	4.38
627.541	4.34
627.729	4.24
627.917	4.52
628.104	4.41
628.292	4.31
628.48	4.29
628.667	4.34
628.855	4.39
629.042	4.33
629.23	4.28
629.418	4.29
629.605	4.23
629.793	4.18
629.98	4.23
630.168	4.14
630.355	4.21
630.543	4.13
630.73	4.1
630.917	4.07
631.105	4.21
631.292	4.11
631.48	4.11
631.667	4.22
631.854	4.03
632.042	4.05
632.229	3.92
632.416	4.06
632.604	3.98
632.791	3.89
632.978	4.07
633.165	3.96
633.353	4.05
633.54	4
633.727	3.85
633.914	3.79
634.101	3.83
634.289	3.98
634.476	3.76
634.663	3.74
634.85	3.81
635.037	3.74
635.224	3.7
635.411	3.85
635.598	3.72
635.785	3.71
635.972	3.72
636.159	3.78
636.346	3.69
636.533	3.63
636.72	3.64
636.907	3.6
637.094	3.62
637.281	3.52
637.468	3.61
637.655	3.54
637.842	3.63
638.029	3.59
638.215	3.56
638.402	3.56
638.589	3.46
638.776	3.45
638.963	3.39
639.149	3.52
639.336	3.52
639.523	3.45
639.709	3.41
639.896	3.44
640.083	3.41
640.27	3.39
640.456	3.33
640.643	3.37
640.829	3.29
641.016	3.31
641.203	3.22
641.389	3.35
641.576	3.31
641.762	3.19
641.949	3.25
642.135	3.27
642.322	3.22
642.508	3.1
642.695	3.25
642.881	3.17
643.068	3.17
643.254	3.2
643.441	3.21
643.627	3.2
643.813	3.05
644	3.11
644.186	3.04
644.372	3.06
644.559	3.13
644.745	3.05
644.931	2.97
645.118	3.04
645.304	3
645.49	2.99
645.676	2.99
645.862	2.97
646.049	3.03
646.235	2.93
646.421	3.05
646.607	3.03
646.793	2.89
646.979	2.83
647.165	2.92
647.352	2.93
647.538	2.89
647.724	2.89
647.91	2.79
648.096	2.85
648.282	2.82
648.468	2.84
648.654	2.87
648.84	2.85
649.026	2.8
649.212	2.76
649.397	2.72
649.583	2.72
649.769	2.82
649.955	2.68
650.141	2.72
650.327	2.71
650.513	2.68
650.698	2.66
650.884	2.56
651.07	2.71
651.256	2.62
651.442	2.59
651.627	2.57
651.813	2.62
651.999	2.55
652.184	2.56
652.37	2.56
652.556	2.54
652.741	2.59
652.927	2.42
653.113	2.49
653.298	2.53
653.484	2.49
653.669	2.44
653.855	2.46
654.04	2.54
654.226	2.46
654.412	2.43
654.597	2.31
654.782	2.44
654.968	2.45
655.153	2.41
655.339	2.38
655.524	2.3
655.71	2.45
655.895	2.33
656.08	2.34
656.266	2.41
656.451	2.32
656.636	2.27
656.822	2.31
657.007	2.29
657.192	2.31
657.378	2.25
657.563	2.22
657.748	2.28
657.933	2.23
658.118	2.2
658.304	2.21
658.489	2.25
658.674	2.28
658.859	2.12
659.044	2.15
659.229	2.24
659.414	2.12
659.599	2.19
659.785	2.12
659.97	2.15
660.155	2.11
660.34	2.13
660.525	2.14
660.71	2.06
660.895	2.13
661.08	2.07
661.264	2.01
661.449	2.13
661.634	2.07
661.819	2.04
662.004	2.07
662.189	1.94
662.374	2
662.559	1.96
662.743	1.88
662.928	1.99
663.113	1.96
663.298	1.95
663.483	1.92
663.667	1.98
663.852	1.9
664.037	1.95
664.221	1.88
664.406	1.96
664.591	1.97
664.775	1.98
664.96	1.89
665.145	1.9
665.329	1.94
665.514	1.83
665.698	1.82
665.883	1.75
666.068	1.89
666.252	1.88
666.437	1.79
666.621	1.86
666.806	1.84
666.99	1.85
667.174	1.78
667.359	1.85
667.543	1.76
667.728	1.74
667.912	1.68
668.096	1.85
668.281	1.71
668.465	1.75
668.649	1.73
668.834	1.67
669.018	1.71
669.202	1.71
669.387	1.67
669.571	1.73
669.755	1.68
669.939	1.67
670.124	1.63
670.308	1.71
670.492	1.71
670.676	1.62
670.86	1.64
671.044	1.58
671.228	1.68
671.413	1.58
671.597	1.59
671.781	1.58
671.965	1.63
672.149	1.57
672.333	1.56
672.517	1.58
672.701	1.59
672.885	1.58
673.069	1.43
673.253	1.67
673.437	1.55
673.621	1.49
673.804	1.52
673.988	1.58
674.172	1.5
674.356	1.43
674.54	1.54
674.724	1.58
674.908	1.52
675.091	1.54
675.275	1.48
675.459	1.59
675.643	1.42
675.826	1.54
676.01	1.46
676.194	1.47
676.377	1.49
676.561	1.49
676.745	1.39
676.928	1.42
677.112	1.49
677.296	1.43
677.479	1.39
677.663	1.4
677.846	1.34
678.03	1.44
678.213	1.31
678.397	1.41
678.58	1.37
678.764	1.33
678.947	1.31
679.131	1.37
679.314	1.35
679.498	1.29
679.681	1.33
679.865	1.42
680.048	1.3
680.231	1.28
680.415	1.24
680.598	1.26
680.781	1.3
680.965	1.31
681.148	1.27
681.331	1.28
681.514	1.31
681.698	1.21
681.881	1.28
682.064	1.39
682.247	1.31
682.43	1.18
682.614	1.24
682.797	1.3
682.98	1.29
683.163	1.21
683.346	1.28
683.529	1.17
683.712	1.15
683.895	1.24
684.078	1.12
684.261	1.18
684.444	1.22
684.627	1.22
684.81	1.13
684.993	1.14
685.176	1.2
685.359	1.15
685.542	1.07
685.725	1.25
685.908	1.15
686.091	1.13
686.274	1.16
686.457	1.21
686.639	1.18
686.822	1.16
687.005	1.1
687.188	1.17
687.371	1.26
687.553	1.22
687.736	1.11
687.919	1.25
688.102	1.14
688.284	1.07
688.467	1.07
688.65	1.07
688.832	0.97
689.015	1.05
689.197	0.95
689.38	1.23
689.563	1.15
689.745	1.04
689.928	0.97
690.11	1.02
690.293	1.09
690.475	0.91
690.658	1.03
690.84	1.08
691.023	1.02
691.205	0.99
691.388	1.06
691.57	1.09
691.752	1.02
691.935	0.97
692.117	0.95
692.3	0.95
692.482	0.95
692.664	0.91
692.847	0.94
693.029	1.04
693.211	1.04
693.393	0.95
693.576	0.9
693.758	0.98
693.94	0.99
694.122	0.95
694.304	0.97
694.487	0.87
694.669	1.02
694.851	0.84
695.033	0.91
695.215	0.96
695.397	0.96
695.579	0.89
695.761	0.86
695.943	0.87
696.125	0.97
696.308	0.93
696.49	0.77
696.671	1.05
696.853	0.88
697.035	1.14
697.217	0.81
697.399	0.99
697.581	0.82
697.763	0.79
697.945	0.77
698.127	0.89
698.309	0.96
698.491	0.93
698.672	0.91
698.854	0.94
699.036	0.99
699.218	0.87
699.399	0.88
699.581	0.87
699.763	0.86
699.945	0.78
700.126	0.77
700.308	0.83
700.49	0.82
700.671	0.67
700.853	0.74
701.035	0.76
701.216	0.78
701.398	0.72
701.579	0.83
701.761	0.81
701.943	0.8
702.124	0.74
702.306	0.72
702.487	0.95
702.669	0.75
702.85	0.76
703.031	0.73
703.213	0.92
703.394	0.86
703.576	0.77
703.757	0.94
703.938	0.84
704.12	1
704.301	0.8
704.483	0.71
704.664	0.8
704.845	0.88
705.026	0.75
705.208	0.72
705.389	0.85
705.57	0.79
705.751	0.7
705.933	0.78
706.114	0.82
706.295	0.74
706.476	0.61
706.657	0.8
706.838	0.79
707.02	0.82
707.201	0.65
707.382	0.69
707.563	0.78
707.744	0.68
707.925	0.64
708.106	0.65
708.287	0.76
708.468	0.91
708.649	0.7
708.83	0.7
709.011	0.68
709.192	0.73
709.373	0.53
709.554	0.67
709.734	0.78
709.915	0.73
710.096	0.75
710.277	0.55
710.458	0.7
710.639	0.75
710.819	0.56
711	0.6
711.181	0.75
711.362	0.76
711.542	0.69
711.723	0.66
711.904	0.74
712.085	0.7
712.265	0.72
712.446	0.56
712.627	0.63
712.807	0.62
712.988	0.64
713.168	0.53
713.349	0.77
713.53	0.4
713.71	0.56
713.891	0.55
714.071	0.62
714.252	0.58
714.432	0.57
714.613	0.41
714.793	0.61
714.974	0.7
715.154	0.69
715.334	0.68
715.515	0.66
715.695	0.52
715.876	0.55
716.056	0.54
716.236	0.47
716.417	0.56
716.597	0.51
716.777	0.85
716.957	0.52
717.138	0.64
717.318	0.55
717.498	0.48
717.678	0.64
717.859	0.65
718.039	0.5
718.219	0.63
718.399	0.66
718.579	0.52
718.759	0.45
718.939	0.63
719.12	0.61
719.3	0.56
719.48	0.46
719.66	0.42
719.84	0.73
720.02	0.48
720.2	0.47
720.38	0.58
720.56	0.83
720.74	0.41
720.92	0.56
721.1	0.73
721.279	0.68
721.459	0.55
721.639	0.49
721.819	0.54
721.999	0.54
722.179	0.61
722.359	0.43
722.538	0.55
722.718	0.52
722.898	0.52
723.078	0.45
723.257	0.56
723.437	0.61
723.617	0.54
723.797	0.54
723.976	0.54
724.156	0.54
724.336	0.62
724.515	0.76
724.695	0.4
724.874	0.6
725.054	0.6
725.234	0.47
725.413	0.51
725.593	0.49
725.772	0.6
725.952	0.51
726.131	0.5
726.311	0.55
726.49	0.5
726.67	0.39
726.849	0.45
727.028	0.58
727.208	0.46
727.387	0.55
727.567	0.46
727.746	0.33
727.925	0.56
728.105	0.4
728.284	0.4
728.463	0.51
728.643	0.58
728.822	0.38
729.001	0.54
729.18	0.5
729.359	0.61
729.539	0.41
729.718	0.46
729.897	0.52
730.076	0.51
730.255	0.42
730.434	0.45
730.614	0.58
730.793	0.68
730.972	0.42
731.151	0.54
731.33	0.66
731.509	0.53
731.688	0.43
731.867	0.48
732.046	0.34
732.225	0.74
732.404	0.43
732.583	0.39
732.762	0.57
732.941	0.58
733.12	0.46
733.298	0.45
733.477	0.63
733.656	0.42
733.835	0.45
734.014	0.51
734.193	0.52
734.371	0.5
734.55	0.54
734.729	0.47
734.908	0.42
735.086	0.57
735.265	0.65
735.444	0.27
735.623	0.38
735.801	0.36
735.98	0.43
736.159	0.51
736.337	0.54
736.516	0.58
736.694	0.54
736.873	0.4
737.052	0.79
737.23	0.64
737.409	0.46
737.587	0.7
737.766	0.35
737.944	0.53
738.123	0.52
738.301	0.54
738.479	0.46
738.658	0.5
738.836	0.3
739.015	0.5
739.193	0.71
739.371	0.3
739.55	0.4
739.728	0.35
739.906	0.73
740.085	0.75
740.263	0.61
740.441	0.19
740.62	0.88
740.798	0.58
740.976	0.33
741.154	0.34
741.332	0.78
741.511	0.53
741.689	0.44
741.867	0.56
742.045	0.58
742.223	0.47
742.401	0.32
742.579	0.36
742.757	0.55
742.935	0.36
743.114	0.45
743.292	0.44
743.47	0.38
743.648	0.58
743.826	0.31
744.004	0.44
744.181	0.58
744.359	0.45
744.537	0.45
744.715	0.53
744.893	0.36
745.071	0.55
745.249	0.45
745.427	0.39
745.605	0.53
745.782	0.45
745.96	0.53
746.138	0.46
746.316	0.56
746.493	0.37
746.671	0.42
746.849	0.36
747.027	0.59
747.204	0.4
747.382	0.49
747.56	0.23
747.737	0.52
747.915	0.44
748.093	0.44
748.27	0.39
748.448	0.33
748.625	0.28
748.803	0.32
748.98	0.36
749.158	0.39
749.335	0.41
749.513	0.39
749.69	0.31
749.868	0.45
750.045	0.38
750.223	0.36
750.4	0.2
750.578	0.66
750.755	0.42
750.932	0.28
751.11	0.55
751.287	0.33
751.464	0.54
751.642	0.28
751.819	0.41
751.996	0.4
752.173	0.37
752.351	0.37
752.528	0.38
752.705	0.4
752.882	0.4
753.06	0.45
753.237	0.45
753.414	0.6
753.591	0.51
753.768	0.33
753.945	0.35
754.122	0.43
754.299	0.43
754.476	0.22
754.654	0.39
754.831	0.45
755.008	0.51
755.185	0.28
755.362	0.24
755.539	0.56
755.716	0.46
755.892	0.3
756.069	0.35
756.246	0.33
756.423	0.46
756.6	0.47
756.777	0.29
756.954	0.46
757.131	0.48
757.307	0.23
757.484	0.21
757.661	0.43
757.838	0.49
758.015	0.26
758.191	0.38
758.368	0.32
758.545	0.59
758.721	0.42
758.898	0.18
759.075	0.46
759.251	0.5
759.428	0.4
759.605	0.17
759.781	0.41
759.958	0.43
760.134	0.43
760.311	0.31
760.488	0.52
760.664	0.7
760.841	0.33
761.017	0.3
761.194	0.47
761.37	0.59
761.547	0.33
761.723	0.37
761.899	0.49
762.076	0.26
762.252	0.26
762.429	0.36
762.605	0.52
762.781	0.32
762.958	0.47
763.134	0.27
763.31	0.22
763.486	0.45
763.663	0.19
763.839	0.39
764.015	0.17
764.191	0.38
764.368	0.37
764.544	0.36
764.72	0.43
764.896	0.49
765.072	0.46
765.248	0.21
765.425	0.34
765.601	0.45
765.777	0.36
765.953	0.06
766.129	0.32
766.305	0.3
766.481	0.52
766.657	0.44
766.833	0.65
767.009	0.23
767.185	0.29
767.361	0.37
767.537	0.22
767.713	0.61
767.889	0.16
768.065	0.34
768.24	0.45
768.416	0.48
768.592	0.3
768.768	0.26
768.944	0.41
769.12	0.3
769.295	0.18
769.471	0.35
769.647	0.36
769.823	0.49
769.998	0.18
770.174	0.23
770.35	0.88
770.525	0.76
770.701	0.43
770.877	0.27
771.052	0.37
771.228	0.56
771.403	0.45
771.579	0.39
771.755	0.83
771.93	0.31
772.106	0.34
772.281	0.09
772.457	0.42
772.632	0.4
772.808	0.2
772.983	0.33
773.159	0.16
773.334	0.65
773.509	0.4
773.685	0.33
773.86	0.89
774.036	0.66
774.211	0.49
774.386	0.19
774.562	0.42
774.737	0.47
774.912	0.23
775.087	0.45
775.263	0.43
775.438	0.28
775.613	0.17
775.788	0.22
775.964	0.59
776.139	0.89
776.314	0.22
776.489	0.62
776.664	0.5
776.839	0.14
777.014	0.7
777.19	0.52
777.365	0.74
777.54	0.93
777.715	0.16
777.89	0.36
778.065	0.24
778.24	0.51
778.415	0.51
778.59	0.04
778.765	0.3
778.94	0.57
779.115	0.41
779.289	0.33
779.464	0.45
779.639	0.27
779.814	0.27
779.989	0.11
780.164	0.55
780.339	0.44
780.513	0.31
780.688	0.3
780.863	0.56
781.038	0.63
781.212	0.09
781.387	0.21
781.562	0.63
781.737	0.3
781.911	0.64
782.086	0.11
782.261	0.17
782.435	0.68
782.61	0.14
782.784	0.44
782.959	0.68
783.134	0.29
783.308	0.21
783.483	0.4
783.657	0.86
783.832	0.69
784.006	0.14
784.181	0.38
784.355	0.62
784.53	0.25
784.704	0.27
784.878	0.69
785.053	0.63
785.227	0.65
785.402	0.84
785.576	0.33
785.75	0.46
785.925	0.42
786.099	0.39
786.273	0.57
786.448	0.55
786.622	0.64
786.796	0.37
786.97	0.39
787.145	0.98
787.319	0.19
787.493	0.38
787.667	0.01
787.841	0.61
788.015	0.75
788.19	0.15
788.364	0.27
788.538	0.62
788.712	0.53
788.886	0.32
789.06	0.55
789.234	0.84
789.408	0.26
789.582	0.55
789.756	0.33
789.93	0.26
790.104	0.55
790.278	0.51
790.452	0.15
790.626	0.51
790.8	0.44
790.973	0.44
791.147	0.88
791.321	0.81
791.495	0.71
791.669	0.57
791.843	0.5
792.016	0.55
792.19	0.93
792.364	0.28
792.538	1.17
792.711	0.66
792.885	0.36
793.059	0.2
793.233	-0.09
793.406	0.6
793.58	0.54
793.754	0.62
793.927	0.5
794.101	0.81
794.274	0.54
794.448	0.65
794.622	0.12
794.795	1.14
794.969	0.5
795.142	0.81
795.316	0.45
795.489	0.2
795.663	0.78
795.836	0.27
796.009	0.06
796.183	0.95
796.356	0.77
796.53	0.39
796.703	0.45
796.876	1.41
797.05	0.47
797.223	0.53
797.396	0.38
797.57	0.42
797.743	0.92
797.916	0.29
798.09	0.32
798.263	0.67
798.436	0.64
798.609	0.37
798.782	0.33
798.956	0.59
799.129	0.36
799.302	0.22
799.475	0.53
799.648	0.39
799.821	0.24
799.994	0.38
800.167	0.06
800.34	0.46
800.514	0.51
800.687	0.19
800.86	0.35
801.033	0.52
801.206	0.88
801.379	0.05
801.551	0.6
801.724	0.66
801.897	0.98
802.07	0.09
802.243	0.12
802.416	0.65
802.589	0.14
802.762	0.57
802.935	0.47
803.107	0.97
803.28	1.07
803.453	1.02
803.626	0.43
803.798	0.85
803.971	0.22
804.144	0.52
804.317	0.69
804.489	1.03
804.662	0.4
804.835	0.65
805.007	0.33
805.18	1.26
805.353	0.52
805.525	0.57
805.698	0.14
805.87	1.1
806.043	0.91
806.215	0.19
806.388	0.25
806.56	0.76
806.733	1.04
806.905	0.47
807.078	0.33
807.25	0.59
807.423	0.83
807.595	0.52
807.768	0.39
807.94	0.73
808.112	1.04
808.285	0.63
808.457	0.45
808.629	0.78
808.802	0.87
808.974	0.31
809.146	0.37
809.318	0.18
809.491	0.75
809.663	1.25
809.835	0.43
810.007	0.85
810.18	0.67
810.352	0.23
810.524	0.18
810.696	1.17
810.868	1.25
811.04	0.63
811.212	0.42
811.384	1.02
811.556	1.09
811.728	0.47
811.901	1.66
812.073	0.49
812.245	0.83
812.417	0.54
812.589	-0.18
812.76	1.18
812.932	1.21
813.104	0.85
813.276	0.47
813.448	0.82
813.62	0.68
813.792	0.75
813.964	0.5
814.136	1.06
814.307	0.23
814.479	0.51
814.651	0.31
814.823	1.67
814.995	0.94
815.166	0.55
815.338	0.26
815.51	-0.44
815.681	1.7
815.853	0.94
816.025	0.34
816.196	1.49
816.368	1.17
816.54	0.04
816.711	0.3
816.883	1.17
817.054	2.05
817.226	0.09
817.398	0.86
817.569	0.2
817.741	0.68
817.912	0.57
818.084	0.66
818.255	1.09
818.426	0.11
818.598	0.52
818.769	0.21
818.941	0.86
819.112	1.19
819.283	1.08
819.455	0.18
819.626	0.13
819.798	1.18
819.969	0.33
820.14	0.31
820.311	1
820.483	0.83
820.654	0.69
820.825	0.65
820.996	0.78
821.168	0.38
821.339	0.5
821.51	-0.23
821.681	0.54
821.852	0.82
822.023	-0.18
822.195	0.25
822.366	1.4
822.537	0.75
822.708	0.87
822.879	0.49
823.05	1.32
823.221	0.84
823.392	0.98
823.563	0.79
823.734	1.08
823.905	1.22
824.076	0.47
824.247	0.35
824.418	0.5
824.589	1.7
824.759	0.52
824.93	0.6
825.101	0.03
825.272	1.58
825.443	0.77
825.614	1.62
825.784	-0.26
825.955	2.17
826.126	1.13
826.297	1.19
826.467	2.21
826.638	2.33
826.809	0.47
826.98	1.06
827.15	1.21
827.321	1.21
827.492	1.6
827.662	0.27
827.833	2.11
828.003	1.61
828.174	-0.21
828.345	-0.02
828.515	1.73
828.686	0.84
828.856	0.43
829.027	1.12
829.197	1.18
829.368	1.43
829.538	0.41
829.709	0.57
829.879	1.3
830.049	0.08
830.22	0.58
830.39	0.6
830.56	2.15
830.731	1.23
830.901	0.28
831.072	0.65
831.242	1.6
831.412	0.86
831.582	0.93
831.753	0.22
831.923	0.99
832.093	1.61
832.263	0.83
832.434	0.11
832.604	0.66
832.774	1.19
832.944	0.35
833.114	0.4
833.284	1.24
833.454	0.67
833.624	0.56
833.795	0.53
833.965	1.37
834.135	1.28
834.305	-0.36
834.475	0.62
834.645	0.85
834.815	1.06
834.985	0.26
835.155	0.6
835.325	2.15
835.494	1.4
835.664	0.19
835.834	-0.01
836.004	1.69
836.174	1.71
836.344	0.78
836.514	-0.27
836.684	0.63
836.853	0.78
837.023	1.28
837.193	0.56
837.363	2.48
837.532	1.72
837.702	0.62
837.872	1.16
838.041	1.48
838.211	3.08
838.381	-0.22
838.55	0.53
838.72	3.86
838.89	2.51
839.059	0.04
839.229	0.32
839.398	2.98
839.568	1.57
839.738	0.79
839.907	2.15
840.077	1.03
840.246	0.76
840.416	-0.45
840.585	-0.17
840.755	2.84
840.924	2.8
841.093	-0
841.263	0.15
841.432	1.19
841.602	0.61
841.771	0.37
841.94	0.85
842.11	3.47
842.279	2.64
842.448	-0.05
842.617	0.67
842.787	2.72
842.956	0.48
843.125	0.81
843.294	0.63
843.464	2.46
843.633	1.44
843.802	0.63
843.971	0.87
844.14	1.28
844.309	2.06
844.479	-0.83
844.648	0.33
844.817	0.81
844.986	0.66
845.155	0.57
845.324	0.81
845.493	0.4
845.662	0.85
845.831	1.54
846	0.81
846.169	1.29
846.338	3.12
846.507	1.55
846.676	1.58
846.844	1.49
847.013	2.18
847.182	0.97
847.351	0.72
847.52	1.45
847.689	2.34
847.858	0.74
848.026	0.64
848.195	1.58
848.364	1.13
848.533	0.39
848.701	0.58
848.87	1.28
849.039	3.49
849.207	1.59
849.376	1.49
849.545	3.35
849.713	0.62
849.882	0.97
850.051	0.64
850.219	1.71
850.388	2.06
850.556	0.82
850.725	0.73
850.893	2.31
851.062	2.1
851.23	1.95
851.399	0.32
851.567	1.69
851.736	0.95
851.904	-0.31
852.073	1.55
852.241	1.15
852.41	2.16
852.578	1.46
852.746	0.85
852.915	1.78
853.083	1.29
853.251	0.48
853.42	0.78
853.588	1.23
853.756	2.47
853.924	0.77
854.093	1.37
854.261	0.58
854.429	0.41
854.597	2.17
854.765	-0.4
854.934	3.02
855.102	2.5
855.27	0.68
855.438	1.44
855.606	3.21
855.774	3.86
855.942	-0.21
856.11	0.24
856.278	1.1
856.446	2.38
856.614	1.23
856.782	0.32
856.95	2.34
857.118	2.43
857.286	2.41
857.454	0.25
857.622	3.09
857.79	2
857.958	0.18
858.126	0.24
858.294	-1.22
858.462	0.96
858.629	0.85
858.797	-0.21
858.965	2.62
859.133	2.29
859.301	2.03
859.468	1.89
859.636	1.65
859.804	3.37
859.971	2.43
860.139	1.17
860.307	2.22
860.474	1.32
860.642	0.87
860.81	0.39
860.977	1.31
861.145	4.09
861.313	0.58
861.48	0.85
861.648	2.88
861.815	-0.52
861.983	-1.14
862.15	0.13
862.318	2.96
862.485	4.37
862.653	-0.03
862.82	0.2
862.988	3.53
863.155	3.38
863.322	1.6
863.49	0.15
863.657	1.39
863.824	4.34
863.992	3.13
864.159	2.89
864.326	3.83
864.494	1.32
864.661	4.45
864.828	-0.53
864.996	3.9
865.163	5.47
865.33	1.18
865.497	-0
865.664	0.28
865.832	-0.52
865.999	2.02
866.166	-0.19
866.333	1.22
866.5	-0.12
866.667	0.79
866.834	1.99
867.001	5.34
867.168	-1.24
867.335	0.19
867.502	-0.82
867.669	2.78
867.836	5.56
868.003	1.08
868.17	4.15
868.337	5.84
868.504	6.39
868.671	-0.35
868.838	0.43
869.005	2.79
869.172	2.19
869.339	1.44
869.505	-0.05
869.672	2.31
869.839	5.58
870.006	3.59
870.173	0.03
870.339	2.87
870.506	5.03
870.673	0.41
870.84	3.41
871.006	2.5
871.173	3.01
871.34	2.5
871.506	-0.71
871.673	2.99
871.839	-0.08
872.006	1.86
872.173	2.1
872.339	2.93
872.506	4.82
872.672	1.99
872.839	-0.6
873.005	2
873.172	4.66
873.338	4.18
873.505	1.66
873.671	5.03
873.838	4.37
874.004	-0.94
874.171	-0.57
874.337	3.52
874.503	5.05
874.67	0.6
874.836	-0.99
875.002	6.1
875.169	4.44
875.335	3.08
875.501	2.38
875.668	4.47
875.834	0.78
876	2.43
876.166	3.13
876.332	5.49
876.499	5.34
876.665	0.52
876.831	2.19
876.997	8.07
877.163	3.76
877.329	1.55
877.495	1.7
877.662	2.52
877.828	2.52
877.994	1.65
878.16	-0.06
878.326	-0.15
878.492	1.2
878.658	2.9
878.824	1.95
878.99	3.94
879.156	0.61
879.322	4.52
879.487	0.43
879.653	3.6
879.819	1.36
879.985	0.44
880.151	2.29
880.317	1.64
880.483	4.74
880.648	2.82
880.814	-1.46
880.98	2.57
881.146	-1.99
881.312	0.2
881.477	-0.89
881.643	2.27
881.809	5.48
881.974	2.18
882.14	-0.85
882.306	0.94
882.471	6.68
882.637	0.28
882.803	1.01
882.968	5.96
883.134	6.64
883.299	1.64
883.465	2.03
883.63	5.35
883.796	4.66
883.961	2.84
884.127	1.15
884.292	-3.31
884.458	0.22
884.623	0.22
