Data from Apollo_Calib_20240827__AbsoluteIrradiance__843__13-12-01-240.txt Node

Date: Wed Aug 28 13:12:01 BST 2024
User: biology
Spectrometer: FLMT08252
Trigger mode: 0
Integration Time (sec): 5.000000E-1
Scans to average: 5
Electric dark correction enabled: true
Nonlinearity correction enabled: false
Boxcar width: 0
XAxis mode: Wavelengths
Number of Pixels in Spectrum: 3648
>>>>>Begin Spectral Data<<<<<
179.588	-0
179.809	-0
180.03	-0
180.251	-0
180.473	-0
180.694	0
180.915	0
181.136	-0
181.357	0
181.578	-0
181.799	0
182.02	-0
182.241	-0
182.462	-0
182.683	0
182.904	-0
183.125	-0
183.346	0
183.567	0
183.788	0
184.009	0
184.23	0
184.451	0
184.672	0
184.892	0
185.113	0
185.334	0
185.555	0
185.776	0
185.996	0
186.217	0
186.438	0
186.659	0
186.879	0
187.1	0
187.321	0
187.541	0
187.762	0
187.983	0
188.203	0
188.424	0
188.644	0
188.865	0
189.086	0
189.306	0
189.527	0
189.747	0
189.968	0
190.188	0
190.409	0
190.629	0
190.849	0
191.07	0
191.29	0
191.511	0
191.731	0
191.951	0
192.172	0
192.392	0
192.612	0
192.833	0
193.053	0
193.273	0
193.493	0
193.714	0
193.934	0
194.154	0
194.374	0
194.594	0
194.815	0
195.035	0
195.255	0
195.475	0
195.695	0
195.915	0
196.135	0
196.355	0
196.575	0
196.795	0
197.015	0
197.235	0
197.455	0
197.675	0
197.895	0
198.115	0
198.335	0
198.555	0
198.775	0
198.995	0
199.214	0
199.434	0
199.654	0
199.874	0
200.094	4.12
200.313	2.32
200.533	1.74
200.753	1.21
200.973	3.5
201.192	3.09
201.412	0.71
201.632	1.53
201.851	3.69
202.071	2.04
202.291	1.75
202.51	1.56
202.73	2.62
202.95	1.27
203.169	0.75
203.389	1.36
203.608	2.09
203.828	1.5
204.047	1.13
204.267	2.07
204.486	1.8
204.706	2.21
204.925	1.73
205.145	1.68
205.364	2.52
205.583	2.61
205.803	1.26
206.022	0.89
206.242	1.58
206.461	1.78
206.68	1.19
206.9	1.47
207.119	2.7
207.338	2.33
207.557	0.89
207.777	1.07
207.996	1.25
208.215	2.12
208.434	0.89
208.654	0.88
208.873	1.71
209.092	2.05
209.311	1.15
209.53	1.19
209.749	1.26
209.968	1.03
210.187	0.76
210.407	0.86
210.626	1.29
210.845	1.46
211.064	1.01
211.283	0.75
211.502	1.4
211.721	1.02
211.94	0.91
212.159	1.15
212.377	1.4
212.596	1.51
212.815	1.06
213.034	1.16
213.253	1.15
213.472	1.18
213.691	0.82
213.91	0.52
214.128	0.52
214.347	1.43
214.566	0.41
214.785	0.49
215.003	1.34
215.222	1.19
215.441	0.74
215.66	0.39
215.878	1.05
216.097	1.21
216.316	0.44
216.534	0.63
216.753	1.09
216.972	0.67
217.19	0.76
217.409	0.6
217.627	0.87
217.846	0.88
218.064	0.73
218.283	0.56
218.501	1.54
218.72	1.28
218.938	0.55
219.157	0.61
219.375	1
219.594	1.12
219.812	0.6
220.031	0.34
220.249	1.15
220.467	1.11
220.686	0.54
220.904	0.66
221.122	0.71
221.341	1.23
221.559	0.63
221.777	0.51
221.995	0.77
222.214	0.93
222.432	0.51
222.65	0.65
222.868	0.79
223.086	0.89
223.305	0.86
223.523	0.56
223.741	1.14
223.959	0.58
224.177	0.37
224.395	0.61
224.613	0.73
224.831	0.97
225.049	0.54
225.267	0.52
225.485	0.85
225.703	0.55
225.921	0.54
226.139	0.46
226.357	0.72
226.575	0.74
226.793	0.48
227.011	1.6
227.229	0.71
227.447	0.82
227.665	0.53
227.883	0.33
228.1	0.66
228.318	0.64
228.536	0.19
228.754	0.37
228.972	0.67
229.189	0.86
229.407	0.4
229.625	0.62
229.843	0.76
230.06	0.82
230.278	0.46
230.496	0.61
230.713	0.64
230.931	0.72
231.149	0.38
231.366	0.27
231.584	0.45
231.801	0.86
232.019	0.48
232.236	0.37
232.454	0.4
232.671	0.65
232.889	0.45
233.106	0.33
233.324	0.45
233.541	0.54
233.759	0.52
233.976	0.31
234.194	0.56
234.411	0.47
234.628	0.44
234.846	0.38
235.063	0.51
235.28	0.48
235.498	0.53
235.715	0.26
235.932	0.69
236.149	0.45
236.367	0.37
236.584	0.48
236.801	0.44
237.018	0.73
237.236	0.51
237.453	0.25
237.67	0.76
237.887	0.52
238.104	0.37
238.321	0.28
238.538	0.5
238.755	0.67
238.973	0.23
239.19	0.46
239.407	0.64
239.624	0.62
239.841	0.26
240.058	0.34
240.275	0.58
240.492	0.49
240.709	0.5
240.925	0.28
241.142	0.49
241.359	0.33
241.576	0.35
241.793	0.37
242.01	0.49
242.227	0.56
242.444	0.52
242.66	0.65
242.877	0.46
243.094	0.35
243.311	0.35
243.527	0.41
243.744	0.45
243.961	0.55
244.178	0.33
244.394	0.32
244.611	0.54
244.828	0.7
245.044	0.27
245.261	0.33
245.477	0.43
245.694	0.5
245.911	0.34
246.127	0.42
246.344	0.62
246.56	0.56
246.777	0.36
246.993	0.34
247.21	0.52
247.426	0.51
247.643	0.31
247.859	0.4
248.076	0.42
248.292	0.64
248.508	0.26
248.725	0.48
248.941	0.45
249.157	0.61
249.374	0.37
249.59	0.33
249.806	0.37
250.023	0.42
250.239	0.32
250.455	0.24
250.671	0.41
250.888	0.49
251.104	0.46
251.32	0.3
251.536	0.4
251.752	0.4
251.969	0.34
252.185	0.36
252.401	0.69
252.617	0.44
252.833	0.27
253.049	0.35
253.265	0.36
253.481	0.48
253.697	0.24
253.913	0.35
254.129	0.5
254.345	0.44
254.561	0.31
254.777	0.31
254.993	0.5
255.209	0.39
255.425	0.37
255.641	0.26
255.857	0.44
256.073	0.41
256.288	0.26
256.504	0.31
256.72	0.35
256.936	0.55
257.152	0.33
257.367	0.24
257.583	0.44
257.799	0.39
258.015	0.34
258.23	0.29
258.446	0.59
258.662	0.33
258.877	0.26
259.093	0.22
259.309	0.38
259.524	0.4
259.74	0.3
259.955	0.25
260.171	0.41
260.387	0.32
260.602	0.43
260.818	0.44
261.033	0.29
261.249	0.42
261.464	0.29
261.68	0.27
261.895	0.41
262.11	0.47
262.326	0.27
262.541	0.2
262.757	0.4
262.972	0.44
263.187	0.31
263.403	0.34
263.618	0.52
263.833	0.39
264.049	0.28
264.264	0.35
264.479	0.35
264.694	0.52
264.91	0.26
265.125	0.32
265.34	0.45
265.555	0.46
265.77	0.36
265.986	0.26
266.201	0.41
266.416	0.44
266.631	0.26
266.846	0.26
267.061	0.44
267.276	0.44
267.491	0.24
267.706	0.37
267.921	0.32
268.136	0.4
268.351	0.34
268.566	0.18
268.781	0.43
268.996	0.4
269.211	0.25
269.426	0.3
269.641	0.32
269.856	0.4
270.071	0.27
270.285	0.24
270.5	0.43
270.715	0.45
270.93	0.3
271.145	0.32
271.359	0.43
271.574	0.31
271.789	0.26
272.004	0.25
272.218	0.37
272.433	0.42
272.648	0.26
272.862	0.38
273.077	0.3
273.292	0.33
273.506	0.24
273.721	0.29
273.936	0.35
274.15	0.41
274.365	0.24
274.579	0.37
274.794	0.42
275.008	0.42
275.223	0.2
275.437	0.3
275.652	0.45
275.866	0.41
276.081	0.29
276.295	0.33
276.509	0.32
276.724	0.31
276.938	0.31
277.153	0.33
277.367	0.36
277.581	0.29
277.796	0.23
278.01	0.2
278.224	0.37
278.438	0.47
278.653	0.22
278.867	0.24
279.081	0.42
279.295	0.27
279.51	0.28
279.724	0.18
279.938	0.34
280.152	0.3
280.366	0.25
280.58	0.31
280.794	0.43
281.008	0.33
281.222	0.29
281.437	0.48
281.651	0.31
281.865	0.45
282.079	0.26
282.293	0.18
282.507	0.3
282.721	0.26
282.935	0.28
283.148	0.13
283.362	0.28
283.576	0.19
283.79	0.28
284.004	0.19
284.218	0.38
284.432	0.24
284.646	0.27
284.859	0.25
285.073	0.3
285.287	0.34
285.501	0.28
285.714	0.26
285.928	0.32
286.142	0.34
286.356	0.24
286.569	0.26
286.783	0.37
286.997	0.37
287.21	0.29
287.424	0.32
287.637	0.24
287.851	0.25
288.065	0.33
288.278	0.27
288.492	0.32
288.705	0.24
288.919	0.36
289.132	0.16
289.346	0.36
289.559	0.17
289.773	0.2
289.986	0.22
290.2	0.29
290.413	0.37
290.626	0.24
290.84	0.27
291.053	0.25
291.267	0.39
291.48	0.25
291.693	0.3
291.906	0.18
292.12	0.26
292.333	0.2
292.546	0.27
292.76	0.34
292.973	0.34
293.186	0.32
293.399	0.21
293.612	0.33
293.826	0.27
294.039	0.28
294.252	0.25
294.465	0.35
294.678	0.29
294.891	0.24
295.104	0.18
295.317	0.2
295.53	0.24
295.743	0.25
295.956	0.22
296.169	0.34
296.382	0.3
296.595	0.23
296.808	0.22
297.021	0.38
297.234	0.34
297.447	0.25
297.66	0.26
297.873	0.34
298.086	0.32
298.299	0.22
298.511	0.16
298.724	0.24
298.937	0.23
299.15	0.19
299.363	0.26
299.575	0.34
299.788	0.22
300.001	0.21
300.213	0.22
300.426	0.23
300.639	0.25
300.852	0.2
301.064	0.28
301.277	0.36
301.489	0.31
301.702	0.31
301.915	0.22
302.127	0.25
302.34	0.25
302.552	0.25
302.765	0.2
302.977	0.34
303.19	0.2
303.402	0.24
303.615	0.24
303.827	0.21
304.04	0.23
304.252	0.3
304.464	0.22
304.677	0.4
304.889	0.29
305.102	0.2
305.314	0.21
305.526	0.26
305.739	0.29
305.951	0.19
306.163	0.24
306.375	0.34
306.588	0.21
306.8	0.23
307.012	0.15
307.224	0.27
307.436	0.34
307.649	0.14
307.861	0.23
308.073	0.27
308.285	0.17
308.497	0.18
308.709	0.17
308.921	0.25
309.133	0.34
309.346	0.26
309.558	0.23
309.77	0.34
309.982	0.36
310.194	0.3
310.406	0.17
310.617	0.38
310.829	0.25
311.041	0.26
311.253	0.22
311.465	0.27
311.677	0.28
311.889	0.21
312.101	0.18
312.313	0.35
312.524	0.32
312.736	0.17
312.948	0.29
313.16	0.37
313.372	0.27
313.583	0.28
313.795	0.19
314.007	0.2
314.218	0.33
314.43	0.19
314.642	0.21
314.853	0.19
315.065	0.34
315.277	0.23
315.488	0.28
315.7	0.29
315.912	0.32
316.123	0.25
316.335	0.25
316.546	0.41
316.758	0.25
316.969	0.2
317.181	0.23
317.392	0.25
317.604	0.38
317.815	0.21
318.026	0.22
318.238	0.21
318.449	0.31
318.661	0.14
318.872	0.16
319.083	0.2
319.295	0.32
319.506	0.27
319.717	0.24
319.929	0.28
320.14	0.26
320.351	0.26
320.562	0.2
320.774	0.25
320.985	0.22
321.196	0.21
321.407	0.15
321.618	0.33
321.829	0.26
322.041	0.26
322.252	0.24
322.463	0.3
322.674	0.32
322.885	0.16
323.096	0.16
323.307	0.26
323.518	0.26
323.729	0.22
323.94	0.21
324.151	0.22
324.362	0.25
324.573	0.25
324.784	0.22
324.995	0.32
325.206	0.31
325.417	0.25
325.628	0.17
325.838	0.26
326.049	0.3
326.26	0.28
326.471	0.21
326.682	0.27
326.892	0.26
327.103	0.17
327.314	0.19
327.525	0.33
327.735	0.26
327.946	0.21
328.157	0.22
328.368	0.35
328.578	0.21
328.789	0.3
328.999	0.21
329.21	0.26
329.421	0.33
329.631	0.22
329.842	0.16
330.052	0.29
330.263	0.29
330.473	0.28
330.684	0.18
330.894	0.28
331.105	0.27
331.315	0.24
331.526	0.16
331.736	0.33
331.947	0.3
332.157	0.26
332.367	0.2
332.578	0.3
332.788	0.31
332.999	0.27
333.209	0.22
333.419	0.16
333.629	0.29
333.84	0.28
334.05	0.24
334.26	0.34
334.47	0.23
334.681	0.3
334.891	0.21
335.101	0.29
335.311	0.32
335.521	0.26
335.732	0.23
335.942	0.29
336.152	0.3
336.362	0.25
336.572	0.28
336.782	0.3
336.992	0.23
337.202	0.21
337.412	0.22
337.622	0.31
337.832	0.24
338.042	0.25
338.252	0.18
338.462	0.22
338.672	0.23
338.882	0.19
339.092	0.23
339.302	0.31
339.511	0.29
339.721	0.23
339.931	0.14
340.141	0.33
340.351	0.29
340.561	0.25
340.77	0.27
340.98	0.28
341.19	0.26
341.4	0.22
341.609	0.19
341.819	0.23
342.029	0.16
342.238	0.28
342.448	0.21
342.658	0.26
342.867	0.26
343.077	0.22
343.286	0.25
343.496	0.26
343.706	0.34
343.915	0.2
344.125	0.23
344.334	0.28
344.544	0.19
344.753	0.21
344.963	0.19
345.172	0.21
345.381	0.26
345.591	0.2
345.8	0.24
346.01	0.3
346.219	0.32
346.428	0.09
346.638	0.18
346.847	0.24
347.056	0.34
347.266	0.19
347.475	0.16
347.684	0.26
347.893	0.3
348.103	0.21
348.312	0.24
348.521	0.28
348.73	0.26
348.94	0.2
349.149	0.21
349.358	0.21
349.567	0.24
349.776	0.17
349.985	0.21
350.194	0.27
350.403	0.33
350.612	0.16
350.821	0.2
351.03	0.24
351.239	0.22
351.448	0.25
351.657	0.21
351.866	0.35
352.075	0.25
352.284	0.32
352.493	0.19
352.702	0.32
352.911	0.26
353.12	0.26
353.329	0.21
353.538	0.21
353.746	0.28
353.955	0.2
354.164	0.27
354.373	0.21
354.582	0.33
354.79	0.22
354.999	0.25
355.208	0.22
355.416	0.35
355.625	0.2
355.834	0.22
356.042	0.3
356.251	0.22
356.46	0.19
356.668	0.24
356.877	0.34
357.085	0.28
357.294	0.13
357.503	0.22
357.711	0.24
357.92	0.38
358.128	0.24
358.337	0.19
358.545	0.25
358.754	0.21
358.962	0.27
359.17	0.22
359.379	0.28
359.587	0.29
359.796	0.24
360.004	0.32
360.212	0.28
360.421	0.3
360.629	0.22
360.837	0.18
361.046	0.29
361.254	0.38
361.462	0.2
361.67	0.18
361.879	0.26
362.087	0.29
362.295	0.24
362.503	0.23
362.711	0.14
362.92	0.19
363.128	0.15
363.336	0.18
363.544	0.19
363.752	0.23
363.96	0.18
364.168	0.21
364.376	0.23
364.584	0.25
364.792	0.3
365	0.24
365.208	0.25
365.416	0.27
365.624	0.32
365.832	0.18
366.04	0.33
366.248	0.21
366.456	0.26
366.664	0.23
366.872	0.22
367.079	0.21
367.287	0.27
367.495	0.22
367.703	0.23
367.911	0.22
368.118	0.23
368.326	0.24
368.534	0.23
368.742	0.29
368.949	0.18
369.157	0.2
369.365	0.24
369.572	0.25
369.78	0.2
369.988	0.26
370.195	0.25
370.403	0.29
370.61	0.21
370.818	0.23
371.026	0.29
371.233	0.22
371.441	0.22
371.648	0.23
371.856	0.27
372.063	0.28
372.271	0.24
372.478	0.18
372.685	0.22
372.893	0.3
373.1	0.21
373.308	0.17
373.515	0.34
373.722	0.29
373.93	0.27
374.137	0.23
374.344	0.36
374.552	0.37
374.759	0.29
374.966	0.28
375.173	0.25
375.381	0.3
375.588	0.25
375.795	0.18
376.002	0.21
376.209	0.23
376.417	0.28
376.624	0.27
376.831	0.34
377.038	0.24
377.245	0.15
377.452	0.23
377.659	0.24
377.866	0.21
378.073	0.24
378.28	0.24
378.487	0.3
378.694	0.32
378.901	0.21
379.108	0.22
379.315	0.31
379.522	0.37
379.729	0.26
379.936	0.25
380.143	0.28
380.35	0.27
380.557	0.26
380.763	0.25
380.97	0.24
381.177	0.31
381.384	0.33
381.591	0.22
381.797	0.28
382.004	0.33
382.211	0.3
382.418	0.16
382.624	0.3
382.831	0.27
383.038	0.24
383.244	0.26
383.451	0.23
383.658	0.28
383.864	0.19
384.071	0.2
384.277	0.34
384.484	0.25
384.69	0.35
384.897	0.2
385.103	0.26
385.31	0.24
385.516	0.25
385.723	0.2
385.929	0.28
386.136	0.27
386.342	0.31
386.549	0.23
386.755	0.32
386.961	0.31
387.168	0.22
387.374	0.28
387.58	0.32
387.787	0.29
387.993	0.26
388.199	0.24
388.406	0.24
388.612	0.27
388.818	0.25
389.024	0.22
389.231	0.3
389.437	0.4
389.643	0.32
389.849	0.27
390.055	0.25
390.261	0.25
390.467	0.35
390.674	0.25
390.88	0.26
391.086	0.39
391.292	0.26
391.498	0.29
391.704	0.34
391.91	0.28
392.116	0.29
392.322	0.19
392.528	0.36
392.734	0.25
392.94	0.3
393.146	0.26
393.352	0.31
393.557	0.29
393.763	0.26
393.969	0.33
394.175	0.3
394.381	0.3
394.587	0.29
394.792	0.33
394.998	0.36
395.204	0.37
395.41	0.23
395.615	0.31
395.821	0.33
396.027	0.33
396.233	0.25
396.438	0.33
396.644	0.38
396.85	0.32
397.055	0.33
397.261	0.31
397.466	0.32
397.672	0.32
397.878	0.37
398.083	0.35
398.289	0.28
398.494	0.38
398.7	0.39
398.905	0.22
399.111	0.4
399.316	0.25
399.522	0.34
399.727	0.32
399.932	0.38
400.138	0.28
400.343	0.34
400.549	0.31
400.754	0.36
400.959	0.39
401.165	0.34
401.37	0.39
401.575	0.51
401.78	0.38
401.986	0.35
402.191	0.3
402.396	0.36
402.601	0.4
402.807	0.38
403.012	0.36
403.217	0.45
403.422	0.39
403.627	0.43
403.832	0.36
404.037	0.42
404.243	0.49
404.448	0.36
404.653	0.41
404.858	0.47
405.063	0.44
405.268	0.37
405.473	0.35
405.678	0.4
405.883	0.7
406.088	0.52
406.293	0.41
406.498	0.41
406.703	0.49
406.907	0.46
407.112	0.4
407.317	0.55
407.522	0.55
407.727	0.45
407.932	0.51
408.136	0.68
408.341	0.57
408.546	0.59
408.751	0.54
408.956	0.6
409.16	0.62
409.365	0.56
409.57	0.59
409.774	0.62
409.979	0.67
410.184	0.7
410.388	0.64
410.593	0.76
410.798	0.76
411.002	0.74
411.207	0.84
411.411	0.78
411.616	0.77
411.82	0.81
412.025	0.85
412.229	0.81
412.434	1.01
412.638	0.9
412.843	0.91
413.047	0.94
413.252	0.95
413.456	1.05
413.66	1.08
413.865	1.01
414.069	1.15
414.273	1.13
414.478	1.11
414.682	1.17
414.886	1.23
415.091	1.2
415.295	1.24
415.499	1.42
415.703	1.39
415.908	1.53
416.112	1.41
416.316	1.61
416.52	1.55
416.724	1.52
416.929	1.66
417.133	1.86
417.337	1.79
417.541	1.82
417.745	1.85
417.949	2.01
418.153	2.09
418.357	2.04
418.561	2.24
418.765	2.23
418.969	2.46
419.173	2.37
419.377	2.47
419.581	2.67
419.785	2.63
419.989	2.64
420.193	2.83
420.397	2.9
420.601	3.11
420.804	3.15
421.008	3.13
421.212	3.32
421.416	3.35
421.62	3.3
421.823	3.41
422.027	3.58
422.231	3.55
422.435	3.54
422.638	3.6
422.842	3.81
423.046	3.79
423.249	3.99
423.453	3.97
423.657	4.18
423.86	4.3
424.064	4.39
424.268	4.55
424.471	4.55
424.675	4.74
424.878	4.85
425.082	4.95
425.285	5.28
425.489	5.16
425.692	5.34
425.896	5.37
426.099	5.48
426.303	5.63
426.506	5.75
426.71	6.03
426.913	6.26
427.116	6.35
427.32	6.36
427.523	6.44
427.726	6.81
427.93	6.95
428.133	7.18
428.336	7.32
428.54	7.49
428.743	7.8
428.946	7.99
429.149	8.01
429.353	7.94
429.556	8.08
429.759	8.22
429.962	8.22
430.165	8.4
430.368	8.06
430.571	8.09
430.775	8.16
430.978	8.14
431.181	8.24
431.384	8.3
431.587	8.4
431.79	8.75
431.993	8.66
432.196	8.99
432.399	9.34
432.602	9.53
432.805	9.56
433.008	10.15
433.211	9.97
433.414	10.41
433.616	10.38
433.819	10.3
434.022	10.44
434.225	10.79
434.428	10.7
434.631	11.15
434.833	10.88
435.036	11.23
435.239	11.48
435.442	11.39
435.645	11.64
435.847	11.62
436.05	12.01
436.253	12.11
436.455	12.26
436.658	12.21
436.861	12.41
437.063	12.6
437.266	12.42
437.468	12.78
437.671	13.2
437.874	13.26
438.076	13.03
438.279	13.5
438.481	13.62
438.684	14.17
438.886	13.97
439.089	14.14
439.291	14.22
439.494	14.62
439.696	14.84
439.899	15.28
440.101	15.79
440.303	15.91
440.506	16.49
440.708	16.38
440.91	16.68
441.113	16.78
441.315	17
441.517	16.82
441.72	17.29
441.922	16.93
442.124	16.99
442.326	17.31
442.529	17.49
442.731	17.53
442.933	17.73
443.135	17.63
443.337	17.59
443.539	18.18
443.742	17.73
443.944	18.43
444.146	18.15
444.348	18.29
444.55	18.01
444.752	18.05
444.954	18.11
445.156	18.17
445.358	18.38
445.56	18.76
445.762	18.52
445.964	18.88
446.166	18.61
446.368	18.65
446.57	18.61
446.772	18.13
446.974	17.9
447.175	18.37
447.377	17.94
447.579	18.28
447.781	18
447.983	17.71
448.184	17.33
448.386	17.56
448.588	17.18
448.79	17.12
448.991	17.38
449.193	17.5
449.395	16.65
449.597	16.34
449.798	16.28
450	15.79
450.202	15.81
450.403	15.78
450.605	15.54
450.806	15.15
451.008	15.08
451.21	14.82
451.411	14.45
451.613	13.69
451.814	13.85
452.016	13.79
452.217	13.1
452.419	13.2
452.62	12.87
452.821	12.57
453.023	12.47
453.224	12.11
453.426	11.7
453.627	10.88
453.828	11.06
454.03	11.07
454.231	11.01
454.432	10.99
454.634	10.65
454.835	10.35
455.036	10.18
455.238	9.8
455.439	9.68
455.64	9.39
455.841	9.25
456.042	9.47
456.244	9.07
456.445	8.82
456.646	8.54
456.847	8.44
457.048	8.35
457.249	8.31
457.45	8.23
457.651	7.61
457.852	7.56
458.054	7.17
458.255	7.12
458.456	7.19
458.657	7.06
458.858	6.61
459.058	6.53
459.259	6.65
459.46	6.31
459.661	6.3
459.862	6.34
460.063	6.22
460.264	6.18
460.465	5.9
460.666	5.99
460.866	5.68
461.067	5.42
461.268	5.51
461.469	5.37
461.67	5.3
461.87	5.19
462.071	5.2
462.272	5.08
462.473	5.03
462.673	5.16
462.874	5.05
463.075	5.16
463.275	5.02
463.476	5.09
463.676	5.04
463.877	4.8
464.078	4.89
464.278	4.89
464.479	4.8
464.679	4.71
464.88	4.66
465.08	4.67
465.281	4.47
465.481	4.23
465.682	4.08
465.882	4.11
466.083	4.02
466.283	3.98
466.483	3.79
466.684	3.68
466.884	3.57
467.085	3.6
467.285	3.69
467.485	3.54
467.686	3.46
467.886	3.35
468.086	3.31
468.286	3.33
468.487	3.32
468.687	3.18
468.887	3.16
469.087	3.28
469.287	3.23
469.488	3.03
469.688	3.16
469.888	3.16
470.088	3.11
470.288	3.02
470.488	3.02
470.688	2.81
470.888	2.8
471.088	2.59
471.288	2.75
471.488	2.74
471.688	2.63
471.888	2.61
472.088	2.78
472.288	2.66
472.488	2.53
472.688	2.54
472.888	2.54
473.088	2.56
473.288	2.42
473.488	2.44
473.688	2.58
473.887	2.47
474.087	2.36
474.287	2.39
474.487	2.32
474.687	2.4
474.886	2.31
475.086	2.24
475.286	2.27
475.486	2.25
475.685	2.22
475.885	2.15
476.085	2.24
476.284	2.19
476.484	2.21
476.684	2.17
476.883	2.25
477.083	2.15
477.282	2.11
477.482	2.15
477.681	2.1
477.881	2.05
478.08	2.09
478.28	2
478.479	2.1
478.679	2.15
478.878	1.99
479.078	2
479.277	2.06
479.477	2.07
479.676	1.99
479.875	1.97
480.075	1.96
480.274	2
480.473	2.06
480.673	1.96
480.872	2.08
481.071	2
481.271	1.99
481.47	1.95
481.669	1.97
481.868	1.93
482.067	1.99
482.267	1.87
482.466	1.87
482.665	1.92
482.864	1.92
483.063	1.89
483.262	1.97
483.461	1.99
483.661	2.05
483.86	1.99
484.059	2
484.258	2.01
484.457	1.99
484.656	1.98
484.855	2.04
485.054	1.91
485.253	1.93
485.452	1.97
485.651	2.03
485.849	2.02
486.048	1.97
486.247	1.97
486.446	2.06
486.645	1.98
486.844	2.04
487.043	2.02
487.241	2.08
487.44	2.02
487.639	2.12
487.838	2.08
488.037	2.08
488.235	2.18
488.434	2.14
488.633	2.03
488.831	2.23
489.03	2.19
489.229	2.19
489.427	2.21
489.626	2.28
489.825	2.28
490.023	2.25
490.222	2.25
490.42	2.27
490.619	2.35
490.817	2.34
491.016	2.33
491.214	2.38
491.413	2.39
491.611	2.34
491.81	2.43
492.008	2.43
492.207	2.55
492.405	2.52
492.604	2.42
492.802	2.56
493	2.58
493.199	2.56
493.397	2.6
493.595	2.69
493.794	2.64
493.992	2.77
494.19	2.7
494.388	2.79
494.587	2.74
494.785	2.76
494.983	2.72
495.181	2.86
495.379	2.89
495.578	2.93
495.776	2.93
495.974	2.93
496.172	2.95
496.37	3.12
496.568	3.09
496.766	3.07
496.964	3.21
497.162	3.18
497.36	3.18
497.558	3.26
497.756	3.28
497.954	3.28
498.152	3.33
498.35	3.45
498.548	3.37
498.746	3.39
498.944	3.39
499.142	3.45
499.34	3.52
499.538	3.61
499.736	3.47
499.933	3.63
500.131	3.62
500.329	3.79
500.527	3.74
500.725	3.85
500.922	3.9
501.12	3.87
501.318	3.93
501.516	3.93
501.713	3.99
501.911	3.99
502.109	3.92
502.306	4.06
502.504	4
502.701	4.1
502.899	4.16
503.097	4.33
503.294	4.18
503.492	4.3
503.689	4.35
503.887	4.42
504.084	4.46
504.282	4.41
504.479	4.39
504.677	4.55
504.874	4.51
505.072	4.43
505.269	4.69
505.466	4.7
505.664	4.72
505.861	4.66
506.059	4.73
506.256	4.79
506.453	4.82
506.651	4.97
506.848	5.05
507.045	4.96
507.242	4.94
507.44	5.01
507.637	5.09
507.834	5.04
508.031	5.24
508.229	5.17
508.426	5.11
508.623	5.27
508.82	5.29
509.017	5.22
509.214	5.29
509.411	5.39
509.608	5.39
509.805	5.54
510.003	5.45
510.2	5.46
510.397	5.65
510.594	5.5
510.791	5.69
510.988	5.61
511.184	5.63
511.381	5.52
511.578	5.67
511.775	5.84
511.972	5.75
512.169	5.78
512.366	5.8
512.563	5.96
512.76	6.03
512.956	5.98
513.153	5.92
513.35	5.92
513.547	5.94
513.744	6.03
513.94	6.03
514.137	6.19
514.334	6.13
514.53	6.2
514.727	6.41
514.924	6.31
515.12	6.22
515.317	6.26
515.514	6.21
515.71	6.18
515.907	6.43
516.103	6.41
516.3	6.32
516.497	6.49
516.693	6.47
516.89	6.52
517.086	6.49
517.283	6.56
517.479	6.4
517.676	6.61
517.872	6.66
518.068	6.66
518.265	6.63
518.461	6.56
518.658	6.65
518.854	6.65
519.05	6.77
519.247	6.83
519.443	6.74
519.639	6.94
519.836	6.76
520.032	6.79
520.228	6.93
520.424	6.88
520.621	6.96
520.817	6.98
521.013	6.87
521.209	7.14
521.405	7.06
521.601	7.03
521.798	6.98
521.994	7.03
522.19	6.98
522.386	6.97
522.582	7.11
522.778	7.25
522.974	7.08
523.17	7.14
523.366	7.08
523.562	7.16
523.758	7.2
523.954	6.97
524.15	7.22
524.346	7.24
524.542	7.27
524.738	7.2
524.934	7.38
525.129	7.28
525.325	7.23
525.521	7.23
525.717	7.46
525.913	7.33
526.109	7.37
526.304	7.48
526.5	7.36
526.696	7.47
526.892	7.41
527.087	7.63
527.283	7.48
527.479	7.49
527.674	7.28
527.87	7.45
528.066	7.47
528.261	7.54
528.457	7.46
528.653	7.64
528.848	7.63
529.044	7.61
529.239	7.54
529.435	7.56
529.63	7.51
529.826	7.52
530.021	7.6
530.217	7.67
530.412	7.63
530.608	7.63
530.803	7.65
530.999	7.5
531.194	7.6
531.389	7.74
531.585	7.66
531.78	7.76
531.975	7.66
532.171	7.71
532.366	7.73
532.561	7.76
532.757	7.67
532.952	7.86
533.147	7.65
533.342	7.81
533.538	7.64
533.733	7.92
533.928	7.61
534.123	7.76
534.318	7.87
534.513	7.73
534.709	7.86
534.904	7.83
535.099	7.93
535.294	7.87
535.489	7.92
535.684	7.79
535.879	7.82
536.074	7.89
536.269	7.93
536.464	7.96
536.659	7.9
536.854	7.83
537.049	7.98
537.244	7.92
537.439	7.9
537.634	7.89
537.828	8.01
538.023	7.94
538.218	7.98
538.413	7.84
538.608	7.95
538.803	7.87
538.997	7.86
539.192	7.99
539.387	7.93
539.582	7.89
539.776	7.82
539.971	8
540.166	8
540.36	7.87
540.555	8.12
540.75	7.97
540.944	7.95
541.139	8.02
541.334	7.96
541.528	7.95
541.723	8.08
541.917	8.11
542.112	7.92
542.306	7.89
542.501	7.9
542.695	7.94
542.89	7.92
543.084	8.03
543.279	8.02
543.473	8.04
543.668	8.08
543.862	7.88
544.056	7.96
544.251	8.09
544.445	8.07
544.64	8.09
544.834	7.84
545.028	7.75
545.222	8.01
545.417	8.27
545.611	8.11
545.805	8.07
546	7.89
546.194	8.09
546.388	8.08
546.582	7.98
546.776	8.05
546.97	8.14
547.165	8.03
547.359	8.02
547.553	7.97
547.747	8.11
547.941	8.29
548.135	8.04
548.329	8.05
548.523	8.08
548.717	8.01
548.911	7.97
549.105	8.03
549.299	8.13
549.493	8.11
549.687	8.02
549.881	8.17
550.075	8.06
550.269	8.02
550.463	8.09
550.657	8.13
550.85	8.08
551.044	7.96
551.238	8.09
551.432	8.04
551.626	8.1
551.82	8.15
552.013	7.97
552.207	8.16
552.401	8.13
552.594	8.08
552.788	7.98
552.982	8.06
553.176	7.98
553.369	8.19
553.563	8.12
553.756	8.05
553.95	8.07
554.144	8.17
554.337	8.12
554.531	7.9
554.724	8.21
554.918	8.21
555.111	8.05
555.305	8.1
555.498	8.01
555.692	8.18
555.885	8.13
556.079	8.03
556.272	8.13
556.466	8.11
556.659	8.1
556.852	8.13
557.046	8.01
557.239	7.93
557.432	8.03
557.626	8.1
557.819	8.17
558.012	8.13
558.206	8.22
558.399	8.08
558.592	8.03
558.785	7.99
558.979	8.11
559.172	8.16
559.365	8.12
559.558	8.05
559.751	8.01
559.944	8.15
560.138	8.1
560.331	8.11
560.524	8.09
560.717	8.08
560.91	8.01
561.103	8.16
561.296	7.94
561.489	8.1
561.682	8.19
561.875	8.09
562.068	8.2
562.261	7.92
562.454	8.23
562.647	8.08
562.84	8.09
563.032	8.16
563.225	8.03
563.418	8.07
563.611	8.13
563.804	8.04
563.997	7.96
564.19	7.84
564.382	8.17
564.575	8.15
564.768	8.09
564.961	8.11
565.153	8.05
565.346	7.93
565.539	8.2
565.731	8.13
565.924	8.15
566.117	8.24
566.309	8.15
566.502	8.05
566.695	8.02
566.887	8.08
567.08	8.05
567.272	8.16
567.465	8.01
567.657	8.14
567.85	8.01
568.042	8.11
568.235	8.09
568.427	7.9
568.62	8.04
568.812	7.96
569.005	8.14
569.197	7.97
569.389	8.01
569.582	8.07
569.774	8.08
569.966	7.97
570.159	7.93
570.351	7.94
570.543	7.98
570.736	8.05
570.928	7.87
571.12	8.06
571.312	7.93
571.505	7.77
571.697	8.06
571.889	8.03
572.081	7.95
572.273	7.92
572.465	8.02
572.658	7.99
572.85	7.96
573.042	8.02
573.234	7.93
573.426	7.97
573.618	7.89
573.81	7.94
574.002	7.9
574.194	8.04
574.386	7.89
574.578	7.8
574.77	7.88
574.962	7.88
575.154	7.77
575.346	7.85
575.538	7.8
575.729	7.84
575.921	7.95
576.113	7.9
576.305	7.95
576.497	8.02
576.689	7.81
576.88	7.8
577.072	7.88
577.264	7.81
577.456	7.92
577.647	7.82
577.839	7.94
578.031	7.84
578.223	7.8
578.414	7.71
578.606	7.81
578.798	7.91
578.989	7.82
579.181	7.9
579.372	7.83
579.564	7.85
579.755	7.73
579.947	7.67
580.139	7.82
580.33	7.61
580.522	7.84
580.713	7.68
580.905	7.77
581.096	7.88
581.287	7.72
581.479	7.69
581.67	7.85
581.862	7.71
582.053	7.74
582.244	7.61
582.436	7.8
582.627	7.69
582.818	7.65
583.01	7.67
583.201	7.71
583.392	7.68
583.583	7.64
583.775	7.43
583.966	7.6
584.157	7.66
584.348	7.7
584.54	7.51
584.731	7.58
584.922	7.55
585.113	7.47
585.304	7.59
585.495	7.53
585.686	7.64
585.877	7.62
586.068	7.67
586.259	7.64
586.45	7.51
586.641	7.55
586.832	7.59
587.023	7.51
587.214	7.44
587.405	7.56
587.596	7.38
587.787	7.34
587.978	7.43
588.169	7.34
588.36	7.37
588.551	7.46
588.742	7.45
588.932	7.44
589.123	7.23
589.314	7.5
589.505	7.31
589.696	7.47
589.886	7.35
590.077	7.35
590.268	7.29
590.458	7.31
590.649	7.12
590.84	7.32
591.03	7.21
591.221	7.24
591.412	7.11
591.602	7.32
591.793	7.27
591.984	7.25
592.174	7.27
592.365	7.44
592.555	7.07
592.746	7.17
592.936	7.18
593.127	7.18
593.317	7.21
593.508	7.14
593.698	7.09
593.889	7.15
594.079	7.07
594.269	7
594.46	6.99
594.65	7.07
594.84	7.05
595.031	6.9
595.221	6.99
595.411	7.05
595.602	7.01
595.792	6.97
595.982	6.9
596.172	7.04
596.363	6.9
596.553	6.86
596.743	6.97
596.933	6.92
597.123	6.87
597.314	6.79
597.504	6.78
597.694	6.95
597.884	6.84
598.074	6.88
598.264	6.83
598.454	6.83
598.644	6.81
598.834	6.8
599.024	6.64
599.214	6.67
599.404	6.83
599.594	6.75
599.784	6.7
599.974	6.7
600.164	6.74
600.354	6.6
600.544	6.53
600.734	6.67
600.924	6.63
601.114	6.53
601.303	6.58
601.493	6.53
601.683	6.63
601.873	6.51
602.063	6.49
602.252	6.48
602.442	6.39
602.632	6.44
602.821	6.39
603.011	6.52
603.201	6.41
603.39	6.36
603.58	6.23
603.77	6.43
603.959	6.46
604.149	6.38
604.339	6.36
604.528	6.47
604.718	6.32
604.907	6.28
605.097	6.25
605.286	6.28
605.476	6.27
605.665	6.28
605.855	6.18
606.044	6.28
606.234	6.23
606.423	6.18
606.612	6.13
606.802	6.09
606.991	6.17
607.181	6.2
607.37	6.17
607.559	5.98
607.749	6.14
607.938	5.95
608.127	6.03
608.316	6.05
608.506	6.03
608.695	6.06
608.884	5.98
609.073	5.97
609.263	6.01
609.452	5.98
609.641	5.81
609.83	5.82
610.019	5.95
610.208	5.83
610.397	5.84
610.586	5.81
610.775	5.78
610.965	5.86
611.154	5.72
611.343	5.83
611.532	5.72
611.721	5.82
611.91	5.7
612.099	5.71
612.287	5.63
612.476	5.56
612.665	5.7
612.854	5.54
613.043	5.66
613.232	5.59
613.421	5.51
613.61	5.55
613.798	5.62
613.987	5.58
614.176	5.53
614.365	5.52
614.554	5.52
614.742	5.54
614.931	5.36
615.12	5.56
615.309	5.46
615.497	5.37
615.686	5.25
615.875	5.41
616.063	5.37
616.252	5.31
616.44	5.39
616.629	5.26
616.818	5.33
617.006	5.28
617.195	5.16
617.383	5.25
617.572	5.2
617.76	5.11
617.949	5.2
618.137	5.24
618.326	5.27
618.514	4.94
618.703	4.99
618.891	5.18
619.079	5.03
619.268	5.09
619.456	4.98
619.644	5.12
619.833	5.02
620.021	5.05
620.209	4.89
620.398	5.03
620.586	4.94
620.774	5
620.962	4.93
621.151	5.03
621.339	4.85
621.527	4.77
621.715	4.86
621.903	4.9
622.092	4.75
622.28	4.92
622.468	4.67
622.656	4.77
622.844	4.75
623.032	4.83
623.22	4.62
623.408	4.77
623.596	4.66
623.784	4.75
623.972	4.62
624.16	4.6
624.348	4.76
624.536	4.72
624.724	4.52
624.912	4.67
625.1	4.64
625.288	4.58
625.476	4.58
625.664	4.62
625.851	4.45
626.039	4.5
626.227	4.52
626.415	4.52
626.603	4.38
626.79	4.45
626.978	4.46
627.166	4.44
627.354	4.34
627.541	4.34
627.729	4.25
627.917	4.48
628.104	4.43
628.292	4.28
628.48	4.33
628.667	4.25
628.855	4.36
629.042	4.29
629.23	4.22
629.418	4.26
629.605	4.25
629.793	4.14
629.98	4.24
630.168	4.12
630.355	4.19
630.543	4.13
630.73	4.01
630.917	4.06
631.105	4.24
631.292	4.11
631.48	4.05
631.667	4.22
631.854	4.01
632.042	4.05
632.229	3.95
632.416	4.05
632.604	3.99
632.791	3.85
632.978	4.01
633.165	3.94
633.353	4
633.54	3.92
633.727	3.77
633.914	3.82
634.101	3.82
634.289	3.93
634.476	3.76
634.663	3.8
634.85	3.81
635.037	3.73
635.224	3.64
635.411	3.82
635.598	3.73
635.785	3.71
635.972	3.7
636.159	3.76
636.346	3.63
636.533	3.61
636.72	3.66
636.907	3.58
637.094	3.66
637.281	3.49
637.468	3.59
637.655	3.52
637.842	3.57
638.029	3.53
638.215	3.51
638.402	3.55
638.589	3.41
638.776	3.45
638.963	3.46
639.149	3.51
639.336	3.51
639.523	3.43
639.709	3.4
639.896	3.36
640.083	3.41
640.27	3.42
640.456	3.36
640.643	3.33
640.829	3.28
641.016	3.31
641.203	3.24
641.389	3.35
641.576	3.25
641.762	3.25
641.949	3.2
642.135	3.26
642.322	3.22
642.508	3.14
642.695	3.18
642.881	3.14
643.068	3.11
643.254	3.13
643.441	3.17
643.627	3.19
643.813	3.03
644	3.16
644.186	2.96
644.372	3.05
644.559	3.04
644.745	3.07
644.931	2.95
645.118	3.07
645.304	2.97
645.49	2.92
645.676	2.93
645.862	2.97
646.049	3.04
646.235	2.91
646.421	3.03
646.607	3
646.793	2.94
646.979	2.87
647.165	2.93
647.352	2.86
647.538	2.91
647.724	2.79
647.91	2.76
648.096	2.87
648.282	2.85
648.468	2.8
648.654	2.82
648.84	2.83
649.026	2.78
649.212	2.73
649.397	2.67
649.583	2.73
649.769	2.71
649.955	2.7
650.141	2.67
650.327	2.75
650.513	2.6
650.698	2.66
650.884	2.53
651.07	2.62
651.256	2.63
651.442	2.59
651.627	2.6
651.813	2.59
651.999	2.55
652.184	2.55
652.37	2.55
652.556	2.54
652.741	2.54
652.927	2.41
653.113	2.47
653.298	2.5
653.484	2.47
653.669	2.4
653.855	2.44
654.04	2.49
654.226	2.46
654.412	2.33
654.597	2.34
654.782	2.48
654.968	2.46
655.153	2.39
655.339	2.41
655.524	2.31
655.71	2.41
655.895	2.38
656.08	2.34
656.266	2.35
656.451	2.34
656.636	2.24
656.822	2.29
657.007	2.28
657.192	2.33
657.378	2.25
657.563	2.23
657.748	2.27
657.933	2.2
658.118	2.17
658.304	2.19
658.489	2.27
658.674	2.22
658.859	2.11
659.044	2.17
659.229	2.21
659.414	2.18
659.599	2.16
659.785	2.03
659.97	2.13
660.155	2.17
660.34	2.17
660.525	2.02
660.71	2.06
660.895	2.13
661.08	2.05
661.264	2.03
661.449	2.18
661.634	2.09
661.819	2.09
662.004	2.01
662.189	1.94
662.374	1.99
662.559	1.97
662.743	1.9
662.928	2
663.113	1.95
663.298	1.88
663.483	1.91
663.667	1.96
663.852	1.85
664.037	1.96
664.221	1.88
664.406	1.97
664.591	1.91
664.775	1.92
664.96	1.87
665.145	1.85
665.329	1.9
665.514	1.83
665.698	1.77
665.883	1.78
666.068	1.88
666.252	1.81
666.437	1.75
666.621	1.81
666.806	1.9
666.99	1.79
667.174	1.72
667.359	1.86
667.543	1.76
667.728	1.8
667.912	1.66
668.096	1.74
668.281	1.71
668.465	1.78
668.649	1.71
668.834	1.67
669.018	1.7
669.202	1.67
669.387	1.65
669.571	1.75
669.755	1.62
669.939	1.69
670.124	1.64
670.308	1.71
670.492	1.68
670.676	1.67
670.86	1.59
671.044	1.56
671.228	1.72
671.413	1.55
671.597	1.61
671.781	1.58
671.965	1.68
672.149	1.56
672.333	1.61
672.517	1.49
672.701	1.55
672.885	1.57
673.069	1.47
673.253	1.6
673.437	1.48
673.621	1.48
673.804	1.58
673.988	1.5
674.172	1.52
674.356	1.44
674.54	1.48
674.724	1.58
674.908	1.47
675.091	1.49
675.275	1.49
675.459	1.51
675.643	1.55
675.826	1.45
676.01	1.41
676.194	1.43
676.377	1.53
676.561	1.5
676.745	1.4
676.928	1.43
677.112	1.46
677.296	1.36
677.479	1.32
677.663	1.34
677.846	1.45
678.03	1.37
678.213	1.28
678.397	1.4
678.58	1.39
678.764	1.37
678.947	1.28
679.131	1.33
679.314	1.38
679.498	1.3
679.681	1.37
679.865	1.41
680.048	1.28
680.231	1.27
680.415	1.25
680.598	1.29
680.781	1.26
680.965	1.31
681.148	1.28
681.331	1.21
681.514	1.3
681.698	1.21
681.881	1.27
682.064	1.28
682.247	1.23
682.43	1.16
682.614	1.29
682.797	1.29
682.98	1.29
683.163	1.1
683.346	1.19
683.529	1.21
683.712	1.13
683.895	1.22
684.078	1.11
684.261	1.19
684.444	1.25
684.627	1.22
684.81	1.12
684.993	1.15
685.176	1.27
685.359	1.1
685.542	1.06
685.725	1.23
685.908	1.19
686.091	1.12
686.274	1.11
686.457	1.17
686.639	1.09
686.822	1.12
687.005	1.06
687.188	1.15
687.371	1.25
687.553	1.18
687.736	1.22
687.919	1.23
688.102	1.14
688.284	1.07
688.467	1.07
688.65	1.02
688.832	1.01
689.015	1.13
689.197	0.92
689.38	1.14
689.563	1.14
689.745	0.95
689.928	0.96
690.11	1.02
690.293	1.06
690.475	0.92
690.658	1.02
690.84	1.01
691.023	1.02
691.205	0.94
691.388	0.95
691.57	1.04
691.752	1.04
691.935	0.88
692.117	0.95
692.3	1.01
692.482	1.03
692.664	0.95
692.847	0.97
693.029	1.08
693.211	0.99
693.393	0.88
693.576	0.89
693.758	0.96
693.94	0.94
694.122	0.96
694.304	0.91
694.487	0.88
694.669	1
694.851	0.85
695.033	0.89
695.215	0.87
695.397	0.87
695.579	0.93
695.761	0.79
695.943	0.78
696.125	1
696.308	0.91
696.49	0.75
696.671	1.01
696.853	0.89
697.035	1.19
697.217	0.87
697.399	1.03
697.581	0.83
697.763	0.83
697.945	0.85
698.127	0.87
698.309	0.96
698.491	0.86
698.672	0.89
698.854	0.86
699.036	0.97
699.218	0.8
699.399	0.83
699.581	0.93
699.763	0.79
699.945	0.77
700.126	0.75
700.308	0.77
700.49	0.81
700.671	0.67
700.853	0.74
701.035	0.8
701.216	0.83
701.398	0.73
701.579	0.73
701.761	0.85
701.943	0.79
702.124	0.7
702.306	0.73
702.487	0.99
702.669	0.81
702.85	0.71
703.031	0.68
703.213	0.86
703.394	0.93
703.576	0.75
703.757	0.93
703.938	0.87
704.12	0.96
704.301	0.74
704.483	0.75
704.664	0.81
704.845	0.83
705.026	0.75
705.208	0.69
705.389	0.79
705.57	0.83
705.751	0.67
705.933	0.74
706.114	0.8
706.295	0.74
706.476	0.64
706.657	0.84
706.838	0.68
707.02	0.79
707.201	0.71
707.382	0.64
707.563	0.76
707.744	0.67
707.925	0.63
708.106	0.64
708.287	0.68
708.468	0.8
708.649	0.7
708.83	0.68
709.011	0.62
709.192	0.75
709.373	0.65
709.554	0.65
709.734	0.76
709.915	0.72
710.096	0.71
710.277	0.53
710.458	0.68
710.639	0.72
710.819	0.5
711	0.59
711.181	0.72
711.362	0.79
711.542	0.58
711.723	0.65
711.904	0.76
712.085	0.66
712.265	0.64
712.446	0.56
712.627	0.6
712.807	0.55
712.988	0.59
713.168	0.51
713.349	0.74
713.53	0.45
713.71	0.54
713.891	0.59
714.071	0.58
714.252	0.54
714.432	0.57
714.613	0.5
714.793	0.57
714.974	0.7
715.154	0.66
715.334	0.7
715.515	0.72
715.695	0.53
715.876	0.68
716.056	0.61
716.236	0.53
716.417	0.57
716.597	0.53
716.777	0.73
716.957	0.59
717.138	0.6
717.318	0.51
717.498	0.44
717.678	0.59
717.859	0.58
718.039	0.49
718.219	0.57
718.399	0.56
718.579	0.45
718.759	0.42
718.939	0.56
719.12	0.58
719.3	0.52
719.48	0.34
719.66	0.38
719.84	0.69
720.02	0.53
720.2	0.52
720.38	0.5
720.56	0.71
720.74	0.42
720.92	0.53
721.1	0.71
721.279	0.64
721.459	0.54
721.639	0.4
721.819	0.52
721.999	0.5
722.179	0.62
722.359	0.36
722.538	0.53
722.718	0.5
722.898	0.54
723.078	0.52
723.257	0.47
723.437	0.6
723.617	0.6
723.797	0.53
723.976	0.5
724.156	0.61
724.336	0.66
724.515	0.75
724.695	0.42
724.874	0.52
725.054	0.53
725.234	0.55
725.413	0.57
725.593	0.4
725.772	0.53
725.952	0.5
726.131	0.46
726.311	0.59
726.49	0.44
726.67	0.33
726.849	0.48
727.028	0.62
727.208	0.46
727.387	0.57
727.567	0.35
727.746	0.47
727.925	0.4
728.105	0.35
728.284	0.47
728.463	0.45
728.643	0.46
728.822	0.44
729.001	0.51
729.18	0.49
729.359	0.59
729.539	0.45
729.718	0.5
729.897	0.58
730.076	0.44
730.255	0.33
730.434	0.46
730.614	0.49
730.793	0.55
730.972	0.35
731.151	0.43
731.33	0.68
731.509	0.54
731.688	0.47
731.867	0.53
732.046	0.26
732.225	0.65
732.404	0.31
732.583	0.31
732.762	0.43
732.941	0.56
733.12	0.41
733.298	0.4
733.477	0.65
733.656	0.52
733.835	0.32
734.014	0.52
734.193	0.51
734.371	0.58
734.55	0.58
734.729	0.34
734.908	0.52
735.086	0.55
735.265	0.6
735.444	0.33
735.623	0.46
735.801	0.33
735.98	0.39
736.159	0.45
736.337	0.58
736.516	0.48
736.694	0.52
736.873	0.37
737.052	0.7
737.23	0.7
737.409	0.47
737.587	0.75
737.766	0.32
737.944	0.57
738.123	0.52
738.301	0.56
738.479	0.56
738.658	0.52
738.836	0.2
739.015	0.41
739.193	0.57
739.371	0.26
739.55	0.37
739.728	0.31
739.906	0.56
740.085	0.64
740.263	0.55
740.441	0.19
740.62	0.66
740.798	0.64
740.976	0.32
741.154	0.29
741.332	0.6
741.511	0.41
741.689	0.39
741.867	0.49
742.045	0.58
742.223	0.45
742.401	0.33
742.579	0.33
742.757	0.58
742.935	0.29
743.114	0.36
743.292	0.35
743.47	0.45
743.648	0.55
743.826	0.45
744.004	0.54
744.181	0.54
744.359	0.38
744.537	0.53
744.715	0.37
744.893	0.37
745.071	0.38
745.249	0.46
745.427	0.33
745.605	0.48
745.782	0.37
745.96	0.48
746.138	0.51
746.316	0.6
746.493	0.41
746.671	0.38
746.849	0.34
747.027	0.61
747.204	0.16
747.382	0.41
747.56	0.28
747.737	0.29
747.915	0.3
748.093	0.43
748.27	0.25
748.448	0.41
748.625	0.3
748.803	0.3
748.98	0.34
749.158	0.49
749.335	0.61
749.513	0.41
749.69	0.38
749.868	0.36
750.045	0.48
750.223	0.3
750.4	0.14
750.578	0.64
750.755	0.38
750.932	0.15
751.11	0.41
751.287	0.36
751.464	0.49
751.642	0.2
751.819	0.41
751.996	0.42
752.173	0.32
752.351	0.23
752.528	0.45
752.705	0.37
752.882	0.22
753.06	0.35
753.237	0.39
753.414	0.58
753.591	0.55
753.768	0.44
753.945	0.38
754.122	0.36
754.299	0.54
754.476	0.25
754.654	0.27
754.831	0.42
755.008	0.47
755.185	0.39
755.362	0.19
755.539	0.44
755.716	0.31
755.892	0.22
756.069	0.37
756.246	0.44
756.423	0.43
756.6	0.56
756.777	0.28
756.954	0.53
757.131	0.38
757.307	0.24
757.484	0.18
757.661	0.41
757.838	0.37
758.015	0.16
758.191	0.38
758.368	0.36
758.545	0.59
758.721	0.38
758.898	0.33
759.075	0.36
759.251	0.46
759.428	0.36
759.605	0.16
759.781	0.3
759.958	0.42
760.134	0.29
760.311	0.33
760.488	0.51
760.664	0.65
760.841	0.29
761.017	0.25
761.194	0.48
761.37	0.65
761.547	0.27
761.723	0.24
761.899	0.55
762.076	0.28
762.252	0.21
762.429	0.32
762.605	0.53
762.781	0.25
762.958	0.43
763.134	0.24
763.31	0.34
763.486	0.55
763.663	0.12
763.839	0.36
764.015	0.13
764.191	0.16
764.368	0.31
764.544	0.26
764.72	0.42
764.896	0.42
765.072	0.4
765.248	0.3
765.425	0.27
765.601	0.33
765.777	0.41
765.953	0.06
766.129	0.35
766.305	0.19
766.481	0.51
766.657	0.25
766.833	0.58
767.009	0.29
767.185	0.24
767.361	0.33
767.537	0.09
767.713	0.62
767.889	0.38
768.065	0.36
768.24	0.2
768.416	0.41
768.592	0.2
768.768	0.37
768.944	0.48
769.12	0.3
769.295	0.11
769.471	0.3
769.647	0.3
769.823	0.54
769.998	0.24
770.174	0.24
770.35	0.78
770.525	0.68
770.701	0.35
770.877	0.27
771.052	0.25
771.228	0.45
771.403	0.47
771.579	0.35
771.755	0.71
771.93	0.24
772.106	0.12
772.281	0.06
772.457	0.49
772.632	0.44
772.808	0.11
772.983	0.37
773.159	0.16
773.334	0.59
773.509	0.38
773.685	0.13
773.86	0.85
774.036	0.63
774.211	0.49
774.386	0.29
774.562	0.42
774.737	0.47
774.912	0.18
775.087	0.47
775.263	0.38
775.438	0.38
775.613	0.14
775.788	0.23
775.964	0.59
776.139	0.86
776.314	0.08
776.489	0.38
776.664	0.37
776.839	0.25
777.014	0.56
777.19	0.37
777.365	0.71
777.54	0.6
777.715	0.34
777.89	0.33
778.065	0.31
778.24	0.28
778.415	0.57
778.59	0.13
778.765	0.35
778.94	0.48
779.115	0.33
779.289	0.41
779.464	0.37
779.639	0.22
779.814	0.07
779.989	0.08
780.164	0.53
780.339	0.5
780.513	0.21
780.688	0.12
780.863	0.5
781.038	0.54
781.212	0.14
781.387	0.27
781.562	0.84
781.737	0.3
781.911	0.6
782.086	0.11
782.261	0.48
782.435	0.71
782.61	0.25
782.784	0.38
782.959	0.45
783.134	0.29
783.308	-0.02
783.483	0.24
783.657	0.89
783.832	0.37
784.006	0.12
784.181	0.33
784.355	0.28
784.53	0.15
784.704	0.05
784.878	0.48
785.053	0.5
785.227	0.81
785.402	0.72
785.576	0.39
785.75	0.29
785.925	0.31
786.099	0.39
786.273	0.49
786.448	0.64
786.622	0.67
786.796	0.24
786.97	0.25
787.145	1.17
787.319	0.14
787.493	0.3
787.667	-0.03
787.841	0.45
788.015	0.68
788.19	0.25
788.364	0.34
788.538	0.63
788.712	0.6
788.886	0.34
789.06	0.54
789.234	0.54
789.408	0.21
789.582	0.4
789.756	0.23
789.93	0.31
790.104	0.29
790.278	0.34
790.452	0.1
790.626	0.35
790.8	0.36
790.973	0.47
791.147	0.75
791.321	0.99
791.495	0.65
791.669	0.61
791.843	0.7
792.016	0.52
792.19	0.93
792.364	0.1
792.538	1.24
792.711	0.63
792.885	0.32
793.059	0.29
793.233	-0.09
793.406	0.68
793.58	0.54
793.754	0.65
793.927	0.35
794.101	0.83
794.274	0.33
794.448	0.93
794.622	0.04
794.795	1.06
794.969	0.34
795.142	0.85
795.316	0.28
795.489	0.18
795.663	0.82
795.836	0.38
796.009	0.33
796.183	0.87
796.356	0.25
796.53	0.43
796.703	0.45
796.876	1.17
797.05	0.29
797.223	0.41
797.396	0.34
797.57	0.52
797.743	0.67
797.916	0.49
798.09	0.23
798.263	1
798.436	0.55
798.609	0.21
798.782	0.34
798.956	0.72
799.129	0.14
799.302	0.24
799.475	0.21
799.648	0.19
799.821	0.59
799.994	0.37
800.167	-0.03
800.34	0.33
800.514	0.69
800.687	0.41
800.86	0.38
801.033	0.73
801.206	0.79
801.379	0.2
801.551	0.78
801.724	0.47
801.897	1.3
802.07	0.49
802.243	-0.05
802.416	0.34
802.589	0.47
802.762	0.58
802.935	0.4
803.107	0.75
803.28	0.98
803.453	0.57
803.626	0.32
803.798	0.47
803.971	0.24
804.144	0.36
804.317	0.41
804.489	0.72
804.662	0.43
804.835	0.34
805.007	0.27
805.18	1.16
805.353	0.28
805.525	-0.11
805.698	0.27
805.87	0.68
806.043	0.7
806.215	0.09
806.388	0.3
806.56	0.63
806.733	1.01
806.905	0.51
807.078	0.29
807.25	0.22
807.423	0.74
807.595	0.33
807.768	0.38
807.94	0.52
808.112	0.76
808.285	0.28
808.457	0.16
808.629	0.78
808.802	0.88
808.974	0.53
809.146	0.1
809.318	0.79
809.491	0.47
809.663	0.96
809.835	0.15
810.007	1.22
810.18	0.65
810.352	0.15
810.524	-0.01
810.696	0.74
810.868	1.09
811.04	0.26
811.212	0.39
811.384	0.76
811.556	0.56
811.728	0.25
811.901	1.29
812.073	0.28
812.245	0.8
812.417	0.6
812.589	-0.08
812.76	0.59
812.932	0.82
813.104	0.95
813.276	0.24
813.448	1.08
813.62	0.87
813.792	0.22
813.964	0.66
814.136	0.8
814.307	0.05
814.479	0.01
814.651	-0.02
814.823	1.42
814.995	0.74
815.166	0.62
815.338	-0.27
815.51	-0.13
815.681	1.62
815.853	0.56
816.025	0.49
816.196	1.42
816.368	1.15
816.54	-0.09
816.711	0.25
816.883	0.77
817.054	2.12
817.226	-0.63
817.398	0.76
817.569	0.5
817.741	0.73
817.912	0.26
818.084	0.5
818.255	1.51
818.426	0.16
818.598	0.74
818.769	0.19
818.941	0.88
819.112	1.28
819.283	0.72
819.455	-0.04
819.626	0.46
819.798	1.07
819.969	0.88
820.14	0.1
820.311	0.79
820.483	0.75
820.654	1.04
820.825	0.65
820.996	0.32
821.168	0
821.339	0.65
821.51	-0.31
821.681	0.86
821.852	0.63
822.023	0.22
822.195	0.3
822.366	1.2
822.537	0.62
822.708	0.64
822.879	-0.14
823.05	0.96
823.221	0.57
823.392	0.93
823.563	0.05
823.734	1.12
823.905	0.55
824.076	-0.07
824.247	0.49
824.418	0.74
824.589	1.49
824.759	0.37
824.93	0.48
825.101	-0.03
825.272	1.53
825.443	1.51
825.614	1.17
825.784	-0.21
825.955	1.76
826.126	0.86
826.297	0.5
826.467	1.47
826.638	1.79
826.809	0.05
826.98	0.19
827.15	0.97
827.321	0.89
827.492	1.52
827.662	0.12
827.833	1.66
828.003	1.83
828.174	0.51
828.345	0.36
828.515	1.81
828.686	0.64
828.856	0.34
829.027	0.49
829.197	0.89
829.368	0.78
829.538	0.28
829.709	0.51
829.879	0.9
830.049	0.8
830.22	0.51
830.39	0.6
830.56	0.96
830.731	0.13
830.901	0.27
831.072	0.55
831.242	0.66
831.412	0.93
831.582	0.67
831.753	-0.41
831.923	1.69
832.093	1.39
832.263	0.56
832.434	-0.27
832.604	0.06
832.774	1.08
832.944	0.55
833.114	0.05
833.284	0.55
833.454	0.38
833.624	0.7
833.795	0.08
833.965	1.52
834.135	1.7
834.305	-0.19
834.475	0.3
834.645	0.69
834.815	0.8
834.985	-0.44
835.155	0.24
835.325	0.98
835.494	1.88
835.664	0.34
835.834	-0.6
836.004	1.47
836.174	1.38
836.344	0.81
836.514	-0.3
836.684	0.54
836.853	0.98
837.023	0.64
837.193	0.9
837.363	1.35
837.532	1.43
837.702	0.5
837.872	-0.29
838.041	1.42
838.211	2.87
838.381	-0.35
838.55	0.95
838.72	3.42
838.89	2.51
839.059	0.07
839.229	-0.05
839.398	3.6
839.568	1.49
839.738	-0.19
839.907	2.08
840.077	1.04
840.246	0.2
840.416	0.29
840.585	-0.4
840.755	2.98
840.924	1.88
841.093	0.16
841.263	0.11
841.432	0.76
841.602	1.02
841.771	0.16
841.94	0.82
842.11	3.04
842.279	2.91
842.448	0.22
842.617	-0.18
842.787	2.12
842.956	-0.25
843.125	0.4
843.294	0.46
843.464	2.48
843.633	1.01
843.802	0.18
843.971	0.49
844.14	1.3
844.309	1.92
844.479	-0.67
844.648	0.21
844.817	0.73
844.986	1.37
845.155	1.02
845.324	-0.03
845.493	1.69
845.662	0.77
845.831	1.59
846	0.66
846.169	0.72
846.338	3.41
846.507	1.41
846.676	1.1
846.844	0.12
847.013	1.33
847.182	0.44
847.351	0.51
847.52	1.35
847.689	1.21
847.858	1.35
848.026	0.71
848.195	1.05
848.364	1.21
848.533	-0.72
848.701	0.69
848.87	1.65
849.039	2.46
849.207	0.6
849.376	2.32
849.545	3.5
849.713	0.34
849.882	0.84
850.051	0.52
850.219	0.78
850.388	1.25
850.556	-0.38
850.725	-0.47
850.893	1.73
851.062	0.02
851.23	1.41
851.399	0.12
851.567	2.68
851.736	1.01
851.904	-0.5
852.073	0.72
852.241	2.28
852.41	0.97
852.578	0.77
852.746	-0.23
852.915	2.16
853.083	-0.07
853.251	0.04
853.42	0.42
853.588	0.25
853.756	2.55
853.924	0.76
854.093	0.93
854.261	0.79
854.429	0.36
854.597	1.74
854.765	0.4
854.934	2.41
855.102	2.48
855.27	1.94
855.438	2.36
855.606	3.35
855.774	3.16
855.942	-0.8
856.11	-0.86
856.278	1.23
856.446	1.33
856.614	1.17
856.782	-1.32
856.95	1.83
857.118	1.67
857.286	1.81
857.454	0.03
857.622	3.47
857.79	2.43
857.958	0.25
858.126	0.31
858.294	-0.85
858.462	0.87
858.629	0.16
858.797	-0.44
858.965	2.42
859.133	1.25
859.301	-0.07
859.468	2.1
859.636	0.91
859.804	4.64
859.971	1.6
860.139	0.01
860.307	3.18
860.474	1.63
860.642	0.66
860.81	-0.63
860.977	0.45
861.145	2.59
861.313	1.21
861.48	0.15
861.648	2.79
861.815	0.72
861.983	-0.28
862.15	-0.1
862.318	3.02
862.485	2.69
862.653	0.17
862.82	-0.66
862.988	3.19
863.155	3.39
863.322	0.62
863.49	0.89
863.657	0
863.824	3.56
863.992	0.58
864.159	0.84
864.326	4.16
864.494	-0.32
864.661	3.91
864.828	-0.69
864.996	2.55
865.163	3.72
865.33	0.61
865.497	-1.89
865.664	-0.8
865.832	0.1
865.999	0.85
866.166	0.05
866.333	1.21
866.5	1.75
866.667	0.68
866.834	1.23
867.001	3.46
867.168	-1.61
867.335	0.37
867.502	-0.16
867.669	0.56
867.836	5.38
868.003	0.09
868.17	3.05
868.337	0.63
868.504	5.49
868.671	-0.04
868.838	-0.08
869.005	4.25
869.172	2.99
869.339	1.88
869.505	1.32
869.672	2.37
869.839	5.11
870.006	1.86
870.173	0.21
870.339	3.22
870.506	6.36
870.673	-0.49
870.84	1.72
871.006	1.98
871.173	1.83
871.34	1.6
871.506	-0.61
871.673	2.65
871.839	0.02
872.006	1.59
872.173	0.12
872.339	0.86
872.506	2.04
872.672	0.8
872.839	-1.71
873.005	2.08
873.172	7.45
873.338	2.27
873.505	2.6
873.671	2.86
873.838	3.03
874.004	-0.63
874.171	0.09
874.337	3.32
874.503	4.18
874.67	1.34
874.836	0.97
875.002	5.38
875.169	3.77
875.335	1.26
875.501	0.23
875.668	4.6
875.834	1.53
876	0.23
876.166	2.83
876.332	1.56
876.499	4.03
876.665	0.18
876.831	2.21
876.997	5.99
877.163	4.34
877.329	0.79
877.495	2.65
877.662	2.02
877.828	3.43
877.994	0.24
878.16	-0.66
878.326	2.16
878.492	3.63
878.658	-0.11
878.824	2.69
878.99	4.02
879.156	1.12
879.322	5.49
879.487	0.23
879.653	2.02
879.819	2.41
879.985	0.88
880.151	3.06
880.317	2.77
880.483	1.35
880.648	2.32
880.814	-0.22
880.98	3.56
881.146	-3
881.312	0.68
881.477	1.69
881.643	3.5
881.809	2.68
881.974	4.29
882.14	-0.13
882.306	0.15
882.471	5.88
882.637	1.77
882.803	2.32
882.968	4.77
883.134	6.1
883.299	1.27
883.465	3.34
883.63	3.12
883.796	1.53
883.961	1.87
884.127	3.11
884.292	-3.19
884.458	-0.81
884.623	-0.81
