Data from Apollo_Calib_20240827__AbsoluteIrradiance__835__13-04-01-258.txt Node

Date: Wed Aug 28 13:04:01 BST 2024
User: biology
Spectrometer: FLMT08252
Trigger mode: 0
Integration Time (sec): 5.000000E-1
Scans to average: 5
Electric dark correction enabled: true
Nonlinearity correction enabled: false
Boxcar width: 0
XAxis mode: Wavelengths
Number of Pixels in Spectrum: 3648
>>>>>Begin Spectral Data<<<<<
179.588	-0
179.809	-0
180.03	-0
180.251	-0
180.473	-0
180.694	0
180.915	0
181.136	-0
181.357	-0
181.578	-0
181.799	-0
182.02	-0
182.241	-0
182.462	0
182.683	0
182.904	-0
183.125	-0
183.346	0
183.567	0
183.788	0
184.009	0
184.23	0
184.451	0
184.672	0
184.892	0
185.113	0
185.334	0
185.555	0
185.776	0
185.996	0
186.217	0
186.438	0
186.659	0
186.879	0
187.1	0
187.321	0
187.541	0
187.762	0
187.983	0
188.203	0
188.424	0
188.644	0
188.865	0
189.086	0
189.306	0
189.527	0
189.747	0
189.968	0
190.188	0
190.409	0
190.629	0
190.849	0
191.07	0
191.29	0
191.511	0
191.731	0
191.951	0
192.172	0
192.392	0
192.612	0
192.833	0
193.053	0
193.273	0
193.493	0
193.714	0
193.934	0
194.154	0
194.374	0
194.594	0
194.815	0
195.035	0
195.255	0
195.475	0
195.695	0
195.915	0
196.135	0
196.355	0
196.575	0
196.795	0
197.015	0
197.235	0
197.455	0
197.675	0
197.895	0
198.115	0
198.335	0
198.555	0
198.775	0
198.995	0
199.214	0
199.434	0
199.654	0
199.874	0
200.094	3.82
200.313	2.2
200.533	1.7
200.753	1.58
200.973	4.19
201.192	3.27
201.412	1.3
201.632	1.93
201.851	3.28
202.071	1.47
202.291	1.88
202.51	0.78
202.73	2.86
202.95	1.73
203.169	1.29
203.389	2.04
203.608	1.91
203.828	1.56
204.047	1.61
204.267	2.32
204.486	2.37
204.706	2.47
204.925	1.3
205.145	1.38
205.364	2.15
205.583	2.52
205.803	1.2
206.022	1.14
206.242	1.68
206.461	1.85
206.68	1.71
206.9	1.57
207.119	2.21
207.338	2.28
207.557	1.24
207.777	1.1
207.996	1.41
208.215	2.02
208.434	1.01
208.654	0.9
208.873	1.45
209.092	2.2
209.311	1.05
209.53	0.97
209.749	1.23
209.968	0.88
210.187	0.95
210.407	0.68
210.626	1.26
210.845	1.4
211.064	1.15
211.283	0.88
211.502	1.66
211.721	1.28
211.94	1.07
212.159	1.21
212.377	1.47
212.596	1.75
212.815	1.08
213.034	1.06
213.253	1.47
213.472	1.27
213.691	0.8
213.91	0.66
214.128	0.77
214.347	1.56
214.566	0.52
214.785	0.59
215.003	1.35
215.222	1.26
215.441	0.71
215.66	0.38
215.878	0.96
216.097	1.23
216.316	0.57
216.534	0.74
216.753	1.02
216.972	1.07
217.19	0.65
217.409	0.75
217.627	0.82
217.846	0.74
218.064	0.94
218.283	0.61
218.501	1.35
218.72	1.13
218.938	0.47
219.157	0.74
219.375	1.15
219.594	1.05
219.812	0.47
220.031	0.48
220.249	1.08
220.467	1.05
220.686	0.59
220.904	0.55
221.122	0.7
221.341	0.99
221.559	0.82
221.777	0.5
221.995	0.78
222.214	0.94
222.432	0.57
222.65	0.98
222.868	0.88
223.086	0.78
223.305	0.7
223.523	0.63
223.741	1.14
223.959	0.74
224.177	0.31
224.395	0.47
224.613	0.71
224.831	1.02
225.049	0.46
225.267	0.51
225.485	0.83
225.703	0.55
225.921	0.43
226.139	0.54
226.357	0.78
226.575	0.86
226.793	0.49
227.011	1.59
227.229	0.66
227.447	0.69
227.665	0.49
227.883	0.32
228.1	0.76
228.318	0.76
228.536	0.32
228.754	0.43
228.972	0.88
229.189	0.78
229.407	0.57
229.625	0.55
229.843	0.88
230.06	0.83
230.278	0.45
230.496	0.61
230.713	0.67
230.931	0.87
231.149	0.43
231.366	0.24
231.584	0.57
231.801	0.99
232.019	0.45
232.236	0.4
232.454	0.5
232.671	0.74
232.889	0.5
233.106	0.41
233.324	0.62
233.541	0.55
233.759	0.52
233.976	0.39
234.194	0.52
234.411	0.6
234.628	0.38
234.846	0.44
235.063	0.56
235.28	0.54
235.498	0.45
235.715	0.38
235.932	0.79
236.149	0.52
236.367	0.4
236.584	0.54
236.801	0.44
237.018	0.65
237.236	0.53
237.453	0.33
237.67	0.68
237.887	0.52
238.104	0.47
238.321	0.42
238.538	0.39
238.755	0.71
238.973	0.22
239.19	0.43
239.407	0.61
239.624	0.5
239.841	0.39
240.058	0.37
240.275	0.48
240.492	0.48
240.709	0.4
240.925	0.4
241.142	0.4
241.359	0.37
241.576	0.3
241.793	0.4
242.01	0.39
242.227	0.68
242.444	0.5
242.66	0.61
242.877	0.48
243.094	0.45
243.311	0.44
243.527	0.38
243.744	0.48
243.961	0.61
244.178	0.38
244.394	0.44
244.611	0.64
244.828	0.67
245.044	0.37
245.261	0.3
245.477	0.54
245.694	0.56
245.911	0.39
246.127	0.51
246.344	0.66
246.56	0.55
246.777	0.39
246.993	0.31
247.21	0.42
247.426	0.59
247.643	0.33
247.859	0.29
248.076	0.34
248.292	0.81
248.508	0.44
248.725	0.44
248.941	0.54
249.157	0.67
249.374	0.31
249.59	0.42
249.806	0.37
250.023	0.54
250.239	0.33
250.455	0.29
250.671	0.39
250.888	0.48
251.104	0.52
251.32	0.4
251.536	0.39
251.752	0.41
251.969	0.37
252.185	0.4
252.401	0.62
252.617	0.54
252.833	0.34
253.049	0.37
253.265	0.35
253.481	0.39
253.697	0.36
253.913	0.29
254.129	0.51
254.345	0.47
254.561	0.34
254.777	0.36
254.993	0.51
255.209	0.41
255.425	0.27
255.641	0.32
255.857	0.46
256.073	0.45
256.288	0.21
256.504	0.34
256.72	0.4
256.936	0.51
257.152	0.32
257.367	0.27
257.583	0.44
257.799	0.53
258.015	0.26
258.23	0.31
258.446	0.57
258.662	0.38
258.877	0.25
259.093	0.28
259.309	0.46
259.524	0.45
259.74	0.34
259.955	0.24
260.171	0.42
260.387	0.47
260.602	0.42
260.818	0.41
261.033	0.22
261.249	0.35
261.464	0.33
261.68	0.34
261.895	0.43
262.11	0.47
262.326	0.26
262.541	0.3
262.757	0.44
262.972	0.51
263.187	0.32
263.403	0.32
263.618	0.45
263.833	0.44
264.049	0.28
264.264	0.31
264.479	0.35
264.694	0.52
264.91	0.23
265.125	0.3
265.34	0.48
265.555	0.55
265.77	0.34
265.986	0.34
266.201	0.42
266.416	0.43
266.631	0.35
266.846	0.28
267.061	0.39
267.276	0.41
267.491	0.18
267.706	0.36
267.921	0.41
268.136	0.38
268.351	0.37
268.566	0.21
268.781	0.44
268.996	0.5
269.211	0.38
269.426	0.25
269.641	0.34
269.856	0.39
270.071	0.22
270.285	0.22
270.5	0.49
270.715	0.34
270.93	0.31
271.145	0.37
271.359	0.4
271.574	0.33
271.789	0.33
272.004	0.25
272.218	0.36
272.433	0.42
272.648	0.18
272.862	0.42
273.077	0.41
273.292	0.27
273.506	0.25
273.721	0.34
273.936	0.39
274.15	0.41
274.365	0.23
274.579	0.37
274.794	0.37
275.008	0.41
275.223	0.23
275.437	0.32
275.652	0.43
275.866	0.41
276.081	0.31
276.295	0.38
276.509	0.38
276.724	0.31
276.938	0.3
277.153	0.34
277.367	0.39
277.581	0.33
277.796	0.33
278.01	0.22
278.224	0.37
278.438	0.44
278.653	0.23
278.867	0.24
279.081	0.16
279.295	0.29
279.51	0.31
279.724	0.23
279.938	0.35
280.152	0.37
280.366	0.22
280.58	0.3
280.794	0.49
281.008	0.36
281.222	0.32
281.437	0.45
281.651	0.34
281.865	0.43
282.079	0.25
282.293	0.14
282.507	0.26
282.721	0.33
282.935	0.26
283.148	0.19
283.362	0.26
283.576	0.2
283.79	0.28
284.004	0.23
284.218	0.39
284.432	0.3
284.646	0.31
284.859	0.27
285.073	0.28
285.287	0.28
285.501	0.31
285.714	0.21
285.928	0.3
286.142	0.4
286.356	0.26
286.569	0.21
286.783	0.4
286.997	0.34
287.21	0.27
287.424	0.31
287.637	0.28
287.851	0.25
288.065	0.3
288.278	0.24
288.492	0.31
288.705	0.22
288.919	0.32
289.132	0.19
289.346	0.37
289.559	0.18
289.773	0.21
289.986	0.3
290.2	0.24
290.413	0.38
290.626	0.26
290.84	0.29
291.053	0.25
291.267	0.36
291.48	0.21
291.693	0.26
291.906	0.28
292.12	0.37
292.333	0.24
292.546	0.21
292.76	0.38
292.973	0.3
293.186	0.32
293.399	0.23
293.612	0.26
293.826	0.24
294.039	0.24
294.252	0.24
294.465	0.37
294.678	0.26
294.891	0.28
295.104	0.23
295.317	0.22
295.53	0.29
295.743	0.27
295.956	0.24
296.169	0.4
296.382	0.35
296.595	0.25
296.808	0.16
297.021	0.33
297.234	0.34
297.447	0.2
297.66	0.26
297.873	0.32
298.086	0.32
298.299	0.19
298.511	0.13
298.724	0.28
298.937	0.23
299.15	0.19
299.363	0.26
299.575	0.32
299.788	0.29
300.001	0.26
300.213	0.21
300.426	0.26
300.639	0.23
300.852	0.24
301.064	0.28
301.277	0.33
301.489	0.29
301.702	0.27
301.915	0.23
302.127	0.27
302.34	0.3
302.552	0.27
302.765	0.22
302.977	0.32
303.19	0.22
303.402	0.27
303.615	0.24
303.827	0.23
304.04	0.3
304.252	0.3
304.464	0.22
304.677	0.4
304.889	0.31
305.102	0.25
305.314	0.19
305.526	0.28
305.739	0.29
305.951	0.15
306.163	0.24
306.375	0.29
306.588	0.24
306.8	0.21
307.012	0.18
307.224	0.27
307.436	0.34
307.649	0.15
307.861	0.23
308.073	0.32
308.285	0.25
308.497	0.23
308.709	0.22
308.921	0.26
309.133	0.33
309.346	0.22
309.558	0.21
309.77	0.28
309.982	0.36
310.194	0.28
310.406	0.21
310.617	0.35
310.829	0.28
311.041	0.27
311.253	0.21
311.465	0.24
311.677	0.27
311.889	0.25
312.101	0.22
312.313	0.32
312.524	0.33
312.736	0.16
312.948	0.22
313.16	0.36
313.372	0.28
313.583	0.25
313.795	0.23
314.007	0.2
314.218	0.31
314.43	0.25
314.642	0.24
314.853	0.16
315.065	0.29
315.277	0.24
315.488	0.26
315.7	0.28
315.912	0.34
316.123	0.27
316.335	0.18
316.546	0.36
316.758	0.25
316.969	0.22
317.181	0.26
317.392	0.31
317.604	0.33
317.815	0.22
318.026	0.22
318.238	0.25
318.449	0.3
318.661	0.16
318.872	0.18
319.083	0.21
319.295	0.32
319.506	0.23
319.717	0.25
319.929	0.27
320.14	0.25
320.351	0.26
320.562	0.19
320.774	0.31
320.985	0.3
321.196	0.25
321.407	0.17
321.618	0.31
321.829	0.27
322.041	0.29
322.252	0.27
322.463	0.27
322.674	0.31
322.885	0.18
323.096	0.24
323.307	0.28
323.518	0.26
323.729	0.22
323.94	0.21
324.151	0.26
324.362	0.24
324.573	0.25
324.784	0.25
324.995	0.3
325.206	0.27
325.417	0.24
325.628	0.18
325.838	0.24
326.049	0.27
326.26	0.24
326.471	0.18
326.682	0.3
326.892	0.22
327.103	0.15
327.314	0.23
327.525	0.27
327.735	0.3
327.946	0.23
328.157	0.16
328.368	0.26
328.578	0.27
328.789	0.31
328.999	0.23
329.21	0.26
329.421	0.28
329.631	0.22
329.842	0.19
330.052	0.28
330.263	0.28
330.473	0.28
330.684	0.21
330.894	0.27
331.105	0.32
331.315	0.29
331.526	0.18
331.736	0.35
331.947	0.3
332.157	0.27
332.367	0.19
332.578	0.31
332.788	0.33
332.999	0.26
333.209	0.26
333.419	0.17
333.629	0.35
333.84	0.26
334.05	0.26
334.26	0.29
334.47	0.28
334.681	0.32
334.891	0.25
335.101	0.3
335.311	0.37
335.521	0.25
335.732	0.22
335.942	0.31
336.152	0.26
336.362	0.25
336.572	0.24
336.782	0.26
336.992	0.22
337.202	0.26
337.412	0.23
337.622	0.27
337.832	0.23
338.042	0.26
338.252	0.21
338.462	0.2
338.672	0.27
338.882	0.23
339.092	0.26
339.302	0.36
339.511	0.32
339.721	0.18
339.931	0.2
340.141	0.29
340.351	0.36
340.561	0.25
340.77	0.26
340.98	0.29
341.19	0.27
341.4	0.22
341.609	0.21
341.819	0.26
342.029	0.18
342.238	0.24
342.448	0.24
342.658	0.27
342.867	0.24
343.077	0.25
343.286	0.25
343.496	0.26
343.706	0.34
343.915	0.17
344.125	0.23
344.334	0.25
344.544	0.22
344.753	0.22
344.963	0.23
345.172	0.19
345.381	0.22
345.591	0.17
345.8	0.27
346.01	0.31
346.219	0.31
346.428	0.1
346.638	0.23
346.847	0.25
347.056	0.37
347.266	0.2
347.475	0.22
347.684	0.29
347.893	0.29
348.103	0.25
348.312	0.22
348.521	0.28
348.73	0.27
348.94	0.24
349.149	0.23
349.358	0.21
349.567	0.2
349.776	0.21
349.985	0.19
350.194	0.31
350.403	0.27
350.612	0.18
350.821	0.2
351.03	0.28
351.239	0.19
351.448	0.26
351.657	0.23
351.866	0.35
352.075	0.27
352.284	0.29
352.493	0.22
352.702	0.31
352.911	0.24
353.12	0.25
353.329	0.26
353.538	0.25
353.746	0.24
353.955	0.16
354.164	0.24
354.373	0.24
354.582	0.29
354.79	0.2
354.999	0.27
355.208	0.26
355.416	0.3
355.625	0.2
355.834	0.23
356.042	0.26
356.251	0.25
356.46	0.2
356.668	0.25
356.877	0.34
357.085	0.33
357.294	0.15
357.503	0.25
357.711	0.24
357.92	0.43
358.128	0.25
358.337	0.2
358.545	0.33
358.754	0.18
358.962	0.31
359.17	0.23
359.379	0.21
359.587	0.23
359.796	0.23
360.004	0.27
360.212	0.31
360.421	0.33
360.629	0.24
360.837	0.24
361.046	0.35
361.254	0.41
361.462	0.22
361.67	0.24
361.879	0.28
362.087	0.31
362.295	0.27
362.503	0.24
362.711	0.19
362.92	0.25
363.128	0.19
363.336	0.24
363.544	0.21
363.752	0.23
363.96	0.2
364.168	0.21
364.376	0.27
364.584	0.24
364.792	0.29
365	0.22
365.208	0.29
365.416	0.25
365.624	0.3
365.832	0.19
366.04	0.34
366.248	0.29
366.456	0.21
366.664	0.25
366.872	0.26
367.079	0.24
367.287	0.23
367.495	0.23
367.703	0.21
367.911	0.23
368.118	0.22
368.326	0.26
368.534	0.22
368.742	0.3
368.949	0.2
369.157	0.25
369.365	0.26
369.572	0.19
369.78	0.23
369.988	0.26
370.195	0.26
370.403	0.28
370.61	0.22
370.818	0.25
371.026	0.39
371.233	0.25
371.441	0.3
371.648	0.26
371.856	0.3
372.063	0.3
372.271	0.25
372.478	0.21
372.685	0.23
372.893	0.28
373.1	0.21
373.308	0.22
373.515	0.35
373.722	0.35
373.93	0.23
374.137	0.28
374.344	0.36
374.552	0.31
374.759	0.28
374.966	0.28
375.173	0.26
375.381	0.31
375.588	0.22
375.795	0.17
376.002	0.23
376.209	0.19
376.417	0.27
376.624	0.29
376.831	0.3
377.038	0.26
377.245	0.15
377.452	0.2
377.659	0.27
377.866	0.24
378.073	0.25
378.28	0.24
378.487	0.34
378.694	0.31
378.901	0.24
379.108	0.21
379.315	0.31
379.522	0.4
379.729	0.26
379.936	0.2
380.143	0.25
380.35	0.35
380.557	0.25
380.763	0.25
380.97	0.27
381.177	0.26
381.384	0.32
381.591	0.21
381.797	0.31
382.004	0.33
382.211	0.28
382.418	0.25
382.624	0.34
382.831	0.36
383.038	0.27
383.244	0.31
383.451	0.27
383.658	0.35
383.864	0.24
384.071	0.21
384.277	0.39
384.484	0.27
384.69	0.32
384.897	0.25
385.103	0.24
385.31	0.25
385.516	0.25
385.723	0.2
385.929	0.29
386.136	0.27
386.342	0.34
386.549	0.19
386.755	0.32
386.961	0.34
387.168	0.26
387.374	0.29
387.58	0.33
387.787	0.27
387.993	0.24
388.199	0.31
388.406	0.24
388.612	0.27
388.818	0.2
389.024	0.19
389.231	0.29
389.437	0.41
389.643	0.27
389.849	0.28
390.055	0.28
390.261	0.28
390.467	0.35
390.674	0.26
390.88	0.29
391.086	0.35
391.292	0.21
391.498	0.31
391.704	0.3
391.91	0.29
392.116	0.3
392.322	0.19
392.528	0.41
392.734	0.31
392.94	0.33
393.146	0.27
393.352	0.35
393.557	0.31
393.763	0.28
393.969	0.36
394.175	0.33
394.381	0.32
394.587	0.27
394.792	0.34
394.998	0.39
395.204	0.37
395.41	0.32
395.615	0.3
395.821	0.32
396.027	0.35
396.233	0.29
396.438	0.32
396.644	0.37
396.85	0.33
397.055	0.33
397.261	0.35
397.466	0.38
397.672	0.32
397.878	0.34
398.083	0.36
398.289	0.31
398.494	0.43
398.7	0.37
398.905	0.25
399.111	0.46
399.316	0.26
399.522	0.31
399.727	0.35
399.932	0.35
400.138	0.33
400.343	0.42
400.549	0.31
400.754	0.39
400.959	0.36
401.165	0.37
401.37	0.37
401.575	0.47
401.78	0.38
401.986	0.37
402.191	0.36
402.396	0.35
402.601	0.42
402.807	0.41
403.012	0.42
403.217	0.42
403.422	0.4
403.627	0.41
403.832	0.36
404.037	0.48
404.243	0.43
404.448	0.4
404.653	0.41
404.858	0.44
405.063	0.49
405.268	0.43
405.473	0.39
405.678	0.45
405.883	0.65
406.088	0.55
406.293	0.4
406.498	0.44
406.703	0.53
406.907	0.46
407.112	0.45
407.317	0.56
407.522	0.61
407.727	0.44
407.932	0.55
408.136	0.68
408.341	0.53
408.546	0.57
408.751	0.56
408.956	0.6
409.16	0.68
409.365	0.6
409.57	0.55
409.774	0.66
409.979	0.69
410.184	0.72
410.388	0.58
410.593	0.78
410.798	0.75
411.002	0.74
411.207	0.85
411.411	0.8
411.616	0.74
411.82	0.81
412.025	0.83
412.229	0.83
412.434	0.99
412.638	0.94
412.843	0.89
413.047	0.92
413.252	0.99
413.456	1.06
413.66	1.04
413.865	1.05
414.069	1.17
414.273	1.14
414.478	1.12
414.682	1.19
414.886	1.22
415.091	1.18
415.295	1.27
415.499	1.47
415.703	1.34
415.908	1.48
416.112	1.39
416.316	1.62
416.52	1.62
416.724	1.59
416.929	1.64
417.133	1.88
417.337	1.75
417.541	1.84
417.745	1.94
417.949	2.02
418.153	2.05
418.357	2.03
418.561	2.27
418.765	2.29
418.969	2.31
419.173	2.51
419.377	2.45
419.581	2.7
419.785	2.68
419.989	2.62
420.193	2.82
420.397	2.89
420.601	3.07
420.804	3.15
421.008	3.17
421.212	3.3
421.416	3.3
421.62	3.27
421.823	3.38
422.027	3.56
422.231	3.53
422.435	3.53
422.638	3.62
422.842	3.72
423.046	3.78
423.249	4.06
423.453	4.01
423.657	4.21
423.86	4.18
424.064	4.4
424.268	4.58
424.471	4.5
424.675	4.76
424.878	4.82
425.082	5.05
425.285	5.25
425.489	5.17
425.692	5.26
425.896	5.38
426.099	5.58
426.303	5.64
426.506	5.73
426.71	6.05
426.913	6.32
427.116	6.35
427.32	6.39
427.523	6.45
427.726	6.81
427.93	6.89
428.133	7.19
428.336	7.32
428.54	7.4
428.743	7.75
428.946	7.92
429.149	7.98
429.353	7.97
429.556	8.16
429.759	8.21
429.962	8.24
430.165	8.44
430.368	8.13
430.571	8.05
430.775	8.22
430.978	8.07
431.181	8.2
431.384	8.26
431.587	8.4
431.79	8.79
431.993	8.76
432.196	8.91
432.399	9.31
432.602	9.55
432.805	9.64
433.008	10.1
433.211	9.87
433.414	10.3
433.616	10.4
433.819	10.36
434.022	10.49
434.225	10.71
434.428	10.77
434.631	11.23
434.833	10.95
435.036	11.15
435.239	11.34
435.442	11.36
435.645	11.69
435.847	11.68
436.05	11.99
436.253	12.29
436.455	12.16
436.658	12.04
436.861	12.49
437.063	12.53
437.266	12.55
437.468	12.89
437.671	13.18
437.874	13.15
438.076	12.99
438.279	13.5
438.481	13.59
438.684	14.33
438.886	13.95
439.089	14.16
439.291	14.24
439.494	14.5
439.696	14.75
439.899	15.14
440.101	15.83
440.303	15.91
440.506	16.69
440.708	16.49
440.91	16.63
441.113	16.74
441.315	17.01
441.517	16.88
441.72	17.26
441.922	17.03
442.124	16.91
442.326	17.27
442.529	17.52
442.731	17.38
442.933	17.82
443.135	17.5
443.337	17.64
443.539	18.18
443.742	17.64
443.944	18.37
444.146	18.19
444.348	18.11
444.55	18.02
444.752	18.28
444.954	18.21
445.156	18.23
445.358	18.44
445.56	18.76
445.762	18.55
445.964	18.99
446.166	18.69
446.368	18.6
446.57	18.68
446.772	18.31
446.974	17.9
447.175	18.24
447.377	17.9
447.579	18.36
447.781	18.01
447.983	18
448.184	17.28
448.386	17.78
448.588	17.28
448.79	17.18
448.991	17.53
449.193	17.5
449.395	16.7
449.597	16.43
449.798	16.39
450	15.87
450.202	15.91
450.403	15.89
450.605	15.72
450.806	15.29
451.008	15.27
451.21	14.91
451.411	14.46
451.613	13.75
451.814	13.96
452.016	14.03
452.217	13.13
452.419	13.24
452.62	12.89
452.821	12.7
453.023	12.55
453.224	12.1
453.426	11.67
453.627	10.91
453.828	11.12
454.03	11.16
454.231	11.23
454.432	11.03
454.634	10.74
454.835	10.42
455.036	10.41
455.238	9.96
455.439	9.78
455.64	9.39
455.841	9.35
456.042	9.46
456.244	9.14
456.445	8.77
456.646	8.58
456.847	8.51
457.048	8.39
457.249	8.35
457.45	8.25
457.651	7.72
457.852	7.53
458.054	7.26
458.255	7.03
458.456	7.23
458.657	7.08
458.858	6.62
459.058	6.62
459.259	6.67
459.46	6.33
459.661	6.36
459.862	6.43
460.063	6.3
460.264	6.23
460.465	5.88
460.666	6.04
460.866	5.72
461.067	5.44
461.268	5.53
461.469	5.35
461.67	5.36
461.87	5.24
462.071	5.16
462.272	5.09
462.473	5.05
462.673	5.25
462.874	5.09
463.075	5.13
463.275	5.11
463.476	5.12
463.676	5
463.877	4.92
464.078	4.91
464.278	4.93
464.479	4.89
464.679	4.69
464.88	4.64
465.08	4.6
465.281	4.41
465.481	4.24
465.682	4.07
465.882	4.11
466.083	4.01
466.283	3.96
466.483	3.88
466.684	3.72
466.884	3.55
467.085	3.65
467.285	3.7
467.485	3.54
467.686	3.56
467.886	3.42
468.086	3.34
468.286	3.42
468.487	3.34
468.687	3.23
468.887	3.21
469.087	3.31
469.287	3.22
469.488	3
469.688	3.19
469.888	3.24
470.088	3.09
470.288	3.06
470.488	3.07
470.688	2.87
470.888	2.81
471.088	2.64
471.288	2.83
471.488	2.78
471.688	2.72
471.888	2.64
472.088	2.76
472.288	2.72
472.488	2.53
472.688	2.5
472.888	2.58
473.088	2.58
473.288	2.5
473.488	2.44
473.688	2.62
473.887	2.46
474.087	2.44
474.287	2.45
474.487	2.39
474.687	2.41
474.886	2.38
475.086	2.29
475.286	2.27
475.486	2.24
475.685	2.16
475.885	2.2
476.085	2.24
476.284	2.25
476.484	2.22
476.684	2.21
476.883	2.35
477.083	2.16
477.282	2.09
477.482	2.16
477.681	2.11
477.881	2.09
478.08	2.09
478.28	2.06
478.479	2.06
478.679	2.14
478.878	2.04
479.078	2.05
479.277	2.08
479.477	2.02
479.676	2.04
479.875	2.03
480.075	1.89
480.274	2.02
480.473	2.03
480.673	1.94
480.872	2.14
481.071	2.03
481.271	2.05
481.47	2
481.669	1.96
481.868	1.94
482.067	1.95
482.267	1.88
482.466	1.93
482.665	1.94
482.864	1.96
483.063	1.92
483.262	2.05
483.461	2.06
483.661	2.1
483.86	1.99
484.059	2.07
484.258	2.06
484.457	2
484.656	1.99
484.855	2.09
485.054	1.9
485.253	1.96
485.452	1.95
485.651	2.01
485.849	1.99
486.048	2.02
486.247	2.01
486.446	2.07
486.645	2
486.844	2.05
487.043	2.04
487.241	2.13
487.44	2.13
487.639	2.07
487.838	2.11
488.037	2.08
488.235	2.23
488.434	2.15
488.633	2.02
488.831	2.2
489.03	2.24
489.229	2.18
489.427	2.18
489.626	2.3
489.825	2.32
490.023	2.31
490.222	2.27
490.42	2.33
490.619	2.29
490.817	2.34
491.016	2.34
491.214	2.41
491.413	2.43
491.611	2.37
491.81	2.41
492.008	2.46
492.207	2.57
492.405	2.47
492.604	2.46
492.802	2.56
493	2.61
493.199	2.61
493.397	2.6
493.595	2.73
493.794	2.63
493.992	2.8
494.19	2.77
494.388	2.81
494.587	2.76
494.785	2.78
494.983	2.72
495.181	2.88
495.379	2.89
495.578	2.95
495.776	2.96
495.974	2.95
496.172	2.99
496.37	3.07
496.568	3.09
496.766	3.08
496.964	3.19
497.162	3.22
497.36	3.19
497.558	3.26
497.756	3.29
497.954	3.28
498.152	3.34
498.35	3.46
498.548	3.37
498.746	3.4
498.944	3.44
499.142	3.49
499.34	3.51
499.538	3.65
499.736	3.53
499.933	3.65
500.131	3.65
500.329	3.8
500.527	3.75
500.725	3.84
500.922	3.86
501.12	3.88
501.318	3.96
501.516	3.94
501.713	4.02
501.911	4
502.109	3.94
502.306	4.07
502.504	4
502.701	4.05
502.899	4.18
503.097	4.35
503.294	4.25
503.492	4.34
503.689	4.39
503.887	4.33
504.084	4.44
504.282	4.46
504.479	4.47
504.677	4.57
504.874	4.53
505.072	4.44
505.269	4.65
505.466	4.64
505.664	4.75
505.861	4.67
506.059	4.75
506.256	4.79
506.453	4.83
506.651	4.96
506.848	5
507.045	4.96
507.242	4.95
507.44	5.02
507.637	5.13
507.834	5.07
508.031	5.22
508.229	5.15
508.426	5.12
508.623	5.28
508.82	5.33
509.017	5.23
509.214	5.27
509.411	5.35
509.608	5.31
509.805	5.49
510.003	5.46
510.2	5.51
510.397	5.65
510.594	5.56
510.791	5.67
510.988	5.65
511.184	5.64
511.381	5.52
511.578	5.67
511.775	5.84
511.972	5.74
512.169	5.83
512.366	5.82
512.563	5.97
512.76	6.02
512.956	6.02
513.153	5.97
513.35	5.9
513.547	5.94
513.744	6.08
513.94	6.01
514.137	6.18
514.334	6.14
514.53	6.17
514.727	6.37
514.924	6.32
515.12	6.23
515.317	6.31
515.514	6.26
515.71	6.19
515.907	6.47
516.103	6.42
516.3	6.31
516.497	6.46
516.693	6.53
516.89	6.48
517.086	6.48
517.283	6.53
517.479	6.46
517.676	6.64
517.872	6.68
518.068	6.6
518.265	6.67
518.461	6.59
518.658	6.73
518.854	6.72
519.05	6.8
519.247	6.81
519.443	6.82
519.639	6.92
519.836	6.79
520.032	6.74
520.228	6.93
520.424	6.86
520.621	6.94
520.817	7.02
521.013	6.92
521.209	7.13
521.405	7.12
521.601	7.03
521.798	7.05
521.994	7.11
522.19	7.03
522.386	7.05
522.582	7.11
522.778	7.28
522.974	7.14
523.17	7.12
523.366	7.12
523.562	7.18
523.758	7.18
523.954	7.1
524.15	7.24
524.346	7.27
524.542	7.29
524.738	7.21
524.934	7.35
525.129	7.24
525.325	7.32
525.521	7.26
525.717	7.55
525.913	7.35
526.109	7.31
526.304	7.46
526.5	7.45
526.696	7.52
526.892	7.39
527.087	7.64
527.283	7.51
527.479	7.51
527.674	7.32
527.87	7.53
528.066	7.49
528.261	7.57
528.457	7.46
528.653	7.66
528.848	7.59
529.044	7.69
529.239	7.54
529.435	7.52
529.63	7.48
529.826	7.53
530.021	7.6
530.217	7.62
530.412	7.58
530.608	7.64
530.803	7.64
530.999	7.54
531.194	7.68
531.389	7.72
531.585	7.69
531.78	7.81
531.975	7.7
532.171	7.75
532.366	7.76
532.561	7.8
532.757	7.7
532.952	7.9
533.147	7.68
533.342	7.79
533.538	7.71
533.733	7.93
533.928	7.6
534.123	7.79
534.318	7.88
534.513	7.72
534.709	7.89
534.904	7.84
535.099	7.94
535.294	7.92
535.489	7.91
535.684	7.83
535.879	7.87
536.074	7.93
536.269	7.96
536.464	8
536.659	7.9
536.854	7.91
537.049	7.97
537.244	7.97
537.439	7.91
537.634	7.95
537.828	8.02
538.023	7.93
538.218	7.92
538.413	7.83
538.608	7.98
538.803	7.97
538.997	7.92
539.192	7.93
539.387	7.95
539.582	7.86
539.776	7.85
539.971	8.02
540.166	8
540.36	7.88
540.555	8.09
540.75	7.98
540.944	8.04
541.139	8.03
541.334	7.98
541.528	8.11
541.723	8.11
541.917	8.13
542.112	7.95
542.306	7.87
542.501	7.9
542.695	7.98
542.89	7.9
543.084	7.98
543.279	8.04
543.473	8.08
543.668	8.1
543.862	7.9
544.056	7.94
544.251	8.17
544.445	8.17
544.64	8.13
544.834	7.79
545.028	7.66
545.222	8.07
545.417	8.25
545.611	8.15
545.805	8.13
546	7.9
546.194	8.1
546.388	8.12
546.582	8
546.776	7.96
546.97	8.04
547.165	8.08
547.359	8.01
547.553	8.06
547.747	8.04
547.941	8.16
548.135	8.03
548.329	8.14
548.523	8.06
548.717	8.03
548.911	8.04
549.105	7.97
549.299	8.21
549.493	8.16
549.687	7.98
549.881	8.21
550.075	8.12
550.269	8.01
550.463	8.1
550.657	8.09
550.85	8.06
551.044	8.05
551.238	8.16
551.432	8.1
551.626	8.11
551.82	8.19
552.013	7.97
552.207	8.22
552.401	8.21
552.594	8.08
552.788	8
552.982	7.99
553.176	8.04
553.369	8.24
553.563	8.15
553.756	8.09
553.95	8.18
554.144	8.19
554.337	8.15
554.531	7.93
554.724	8.11
554.918	8.14
555.111	8.11
555.305	8.14
555.498	8.09
555.692	8.25
555.885	8.2
556.079	8.05
556.272	8.1
556.466	8.01
556.659	8.06
556.852	8.17
557.046	8.08
557.239	8
557.432	8.06
557.626	8.19
557.819	8.18
558.012	8.16
558.206	8.2
558.399	8.15
558.592	8.11
558.785	8.01
558.979	8.07
559.172	8.14
559.365	8.15
559.558	8.07
559.751	8.03
559.944	8.24
560.138	8.05
560.331	8.16
560.524	8.14
560.717	8.13
560.91	8.09
561.103	8.13
561.296	7.98
561.489	8.2
561.682	8.18
561.875	8.12
562.068	8.21
562.261	8.02
562.454	8.27
562.647	8.08
562.84	8.14
563.032	8.18
563.225	8.07
563.418	8.1
563.611	8.15
563.804	8.18
563.997	7.96
564.19	7.86
564.382	8.18
564.575	8.15
564.768	8
564.961	8.19
565.153	8.08
565.346	8.08
565.539	8.18
565.731	8.11
565.924	8.13
566.117	8.23
566.309	8.13
566.502	8.11
566.695	8.01
566.887	8.21
567.08	8.03
567.272	8.15
567.465	8.01
567.657	8.17
567.85	8
568.042	8.17
568.235	8.14
568.427	8
568.62	8.07
568.812	8.06
569.005	8.15
569.197	7.96
569.389	8.08
569.582	8.13
569.774	8.06
569.966	8.06
570.159	8.03
570.351	7.95
570.543	7.98
570.736	8
570.928	7.87
571.12	8.14
571.312	7.96
571.505	7.8
571.697	8.09
571.889	8.03
572.081	8.05
572.273	7.91
572.465	8.07
572.658	8
572.85	8.01
573.042	8.03
573.234	7.89
573.426	7.99
573.618	7.89
573.81	8.03
574.002	8.01
574.194	8.03
574.386	7.9
574.578	7.83
574.77	7.98
574.962	8.02
575.154	7.83
575.346	7.86
575.538	7.83
575.729	7.78
575.921	8.02
576.113	7.95
576.305	7.91
576.497	7.97
576.689	7.75
576.88	7.79
577.072	7.96
577.264	7.92
577.456	7.92
577.647	7.82
577.839	7.99
578.031	7.9
578.223	7.81
578.414	7.71
578.606	7.77
578.798	7.91
578.989	7.8
579.181	7.94
579.372	7.92
579.564	7.82
579.755	7.79
579.947	7.72
580.139	7.85
580.33	7.62
580.522	7.82
580.713	7.7
580.905	7.78
581.096	7.79
581.287	7.77
581.479	7.72
581.67	7.84
581.862	7.7
582.053	7.75
582.244	7.54
582.436	7.83
582.627	7.64
582.818	7.64
583.01	7.69
583.201	7.73
583.392	7.64
583.583	7.61
583.775	7.45
583.966	7.6
584.157	7.63
584.348	7.74
584.54	7.57
584.731	7.66
584.922	7.51
585.113	7.47
585.304	7.64
585.495	7.58
585.686	7.65
585.877	7.62
586.068	7.67
586.259	7.55
586.45	7.6
586.641	7.52
586.832	7.64
587.023	7.54
587.214	7.52
587.405	7.54
587.596	7.37
587.787	7.47
587.978	7.49
588.169	7.39
588.36	7.39
588.551	7.44
588.742	7.47
588.932	7.53
589.123	7.24
589.314	7.51
589.505	7.32
589.696	7.38
589.886	7.36
590.077	7.33
590.268	7.19
590.458	7.26
590.649	7.09
590.84	7.31
591.03	7.31
591.221	7.2
591.412	7.12
591.602	7.37
591.793	7.27
591.984	7.3
592.174	7.27
592.365	7.46
592.555	7.12
592.746	7.18
592.936	7.19
593.127	7.2
593.317	7.18
593.508	7.18
593.698	7.09
593.889	7.07
594.079	7.11
594.269	7.08
594.46	7.01
594.65	7.06
594.84	7.07
595.031	6.94
595.221	7.01
595.411	6.99
595.602	6.99
595.792	6.92
595.982	6.9
596.172	7.05
596.363	6.95
596.553	6.85
596.743	6.98
596.933	6.88
597.123	6.88
597.314	6.79
597.504	6.78
597.694	6.91
597.884	6.85
598.074	6.82
598.264	6.83
598.454	6.86
598.644	6.76
598.834	6.81
599.024	6.67
599.214	6.71
599.404	6.78
599.594	6.65
599.784	6.68
599.974	6.79
600.164	6.69
600.354	6.65
600.544	6.55
600.734	6.7
600.924	6.67
601.114	6.56
601.303	6.52
601.493	6.55
601.683	6.6
601.873	6.56
602.063	6.48
602.252	6.56
602.442	6.42
602.632	6.41
602.821	6.37
603.011	6.45
603.201	6.45
603.39	6.34
603.58	6.29
603.77	6.42
603.959	6.44
604.149	6.39
604.339	6.4
604.528	6.47
604.718	6.42
604.907	6.34
605.097	6.29
605.286	6.25
605.476	6.25
605.665	6.27
605.855	6.18
606.044	6.27
606.234	6.3
606.423	6.17
606.612	6.15
606.802	6.08
606.991	6.2
607.181	6.2
607.37	6.19
607.559	5.92
607.749	6.12
607.938	6.02
608.127	6.04
608.316	6.09
608.506	6.01
608.695	6.11
608.884	5.98
609.073	6.04
609.263	6.1
609.452	6.03
609.641	5.87
609.83	5.83
610.019	5.98
610.208	5.87
610.397	5.86
610.586	5.87
610.775	5.81
610.965	5.83
611.154	5.65
611.343	5.81
611.532	5.69
611.721	5.81
611.91	5.7
612.099	5.7
612.287	5.66
612.476	5.62
612.665	5.74
612.854	5.62
613.043	5.69
613.232	5.65
613.421	5.59
613.61	5.6
613.798	5.54
613.987	5.63
614.176	5.53
614.365	5.53
614.554	5.53
614.742	5.59
614.931	5.37
615.12	5.58
615.309	5.51
615.497	5.36
615.686	5.35
615.875	5.42
616.063	5.33
616.252	5.38
616.44	5.39
616.629	5.32
616.818	5.32
617.006	5.32
617.195	5.24
617.383	5.31
617.572	5.2
617.76	5.15
617.949	5.18
618.137	5.3
618.326	5.22
618.514	5.04
618.703	4.95
618.891	5.14
619.079	5.04
619.268	5.17
619.456	5.02
619.644	5.17
619.833	5.03
620.021	4.99
620.209	4.91
620.398	4.99
620.586	4.92
620.774	4.99
620.962	4.91
621.151	5.02
621.339	4.93
621.527	4.82
621.715	4.86
621.903	4.85
622.092	4.75
622.28	4.86
622.468	4.69
622.656	4.81
622.844	4.77
623.032	4.82
623.22	4.68
623.408	4.83
623.596	4.78
623.784	4.77
623.972	4.61
624.16	4.63
624.348	4.69
624.536	4.68
624.724	4.54
624.912	4.66
625.1	4.68
625.288	4.56
625.476	4.51
625.664	4.67
625.851	4.54
626.039	4.54
626.227	4.49
626.415	4.51
626.603	4.39
626.79	4.53
626.978	4.47
627.166	4.48
627.354	4.37
627.541	4.41
627.729	4.25
627.917	4.5
628.104	4.44
628.292	4.28
628.48	4.33
628.667	4.33
628.855	4.39
629.042	4.35
629.23	4.27
629.418	4.26
629.605	4.2
629.793	4.23
629.98	4.19
630.168	4.16
630.355	4.23
630.543	4.16
630.73	4.09
630.917	4.12
631.105	4.23
631.292	4.16
631.48	4.1
631.667	4.21
631.854	4.1
632.042	4.01
632.229	3.96
632.416	4.02
632.604	3.98
632.791	3.91
632.978	3.98
633.165	4
633.353	4.01
633.54	3.99
633.727	3.82
633.914	3.82
634.101	3.82
634.289	3.94
634.476	3.79
634.663	3.78
634.85	3.79
635.037	3.77
635.224	3.68
635.411	3.8
635.598	3.78
635.785	3.72
635.972	3.69
636.159	3.69
636.346	3.67
636.533	3.64
636.72	3.66
636.907	3.62
637.094	3.66
637.281	3.51
637.468	3.56
637.655	3.58
637.842	3.58
638.029	3.53
638.215	3.53
638.402	3.56
638.589	3.45
638.776	3.46
638.963	3.46
639.149	3.56
639.336	3.52
639.523	3.45
639.709	3.39
639.896	3.35
640.083	3.45
640.27	3.49
640.456	3.36
640.643	3.35
640.829	3.26
641.016	3.35
641.203	3.19
641.389	3.33
641.576	3.33
641.762	3.22
641.949	3.25
642.135	3.28
642.322	3.21
642.508	3.11
642.695	3.25
642.881	3.13
643.068	3.14
643.254	3.21
643.441	3.17
643.627	3.15
643.813	3.08
644	3.16
644.186	3.04
644.372	3.06
644.559	3.11
644.745	3.02
644.931	2.99
645.118	3.05
645.304	2.99
645.49	2.93
645.676	2.95
645.862	3.04
646.049	3.04
646.235	2.98
646.421	3.07
646.607	3.04
646.793	2.9
646.979	2.87
647.165	2.91
647.352	2.91
647.538	2.88
647.724	2.86
647.91	2.77
648.096	2.87
648.282	2.88
648.468	2.8
648.654	2.82
648.84	2.78
649.026	2.77
649.212	2.72
649.397	2.7
649.583	2.7
649.769	2.77
649.955	2.7
650.141	2.73
650.327	2.77
650.513	2.61
650.698	2.68
650.884	2.55
651.07	2.68
651.256	2.66
651.442	2.58
651.627	2.5
651.813	2.63
651.999	2.56
652.184	2.55
652.37	2.54
652.556	2.58
652.741	2.62
652.927	2.38
653.113	2.52
653.298	2.54
653.484	2.43
653.669	2.42
653.855	2.47
654.04	2.49
654.226	2.43
654.412	2.4
654.597	2.35
654.782	2.42
654.968	2.4
655.153	2.35
655.339	2.41
655.524	2.35
655.71	2.38
655.895	2.34
656.08	2.38
656.266	2.4
656.451	2.33
656.636	2.29
656.822	2.32
657.007	2.28
657.192	2.29
657.378	2.22
657.563	2.25
657.748	2.33
657.933	2.2
658.118	2.21
658.304	2.17
658.489	2.27
658.674	2.24
658.859	2.16
659.044	2.19
659.229	2.24
659.414	2.12
659.599	2.17
659.785	2.1
659.97	2.12
660.155	2.09
660.34	2.11
660.525	2.06
660.71	2.08
660.895	2.1
661.08	2.06
661.264	2.05
661.449	2.12
661.634	2.1
661.819	2.1
662.004	2.04
662.189	2
662.374	1.96
662.559	1.93
662.743	1.95
662.928	2.01
663.113	1.92
663.298	1.93
663.483	1.93
663.667	1.94
663.852	1.89
664.037	1.95
664.221	1.88
664.406	1.97
664.591	1.93
664.775	1.95
664.96	1.81
665.145	1.9
665.329	1.94
665.514	1.86
665.698	1.8
665.883	1.74
666.068	1.9
666.252	1.83
666.437	1.78
666.621	1.82
666.806	1.84
666.99	1.81
667.174	1.75
667.359	1.83
667.543	1.75
667.728	1.82
667.912	1.68
668.096	1.76
668.281	1.73
668.465	1.76
668.649	1.71
668.834	1.65
669.018	1.71
669.202	1.67
669.387	1.63
669.571	1.77
669.755	1.66
669.939	1.7
670.124	1.64
670.308	1.75
670.492	1.67
670.676	1.63
670.86	1.63
671.044	1.54
671.228	1.73
671.413	1.58
671.597	1.59
671.781	1.59
671.965	1.61
672.149	1.56
672.333	1.56
672.517	1.56
672.701	1.61
672.885	1.54
673.069	1.47
673.253	1.63
673.437	1.51
673.621	1.49
673.804	1.52
673.988	1.54
674.172	1.51
674.356	1.42
674.54	1.49
674.724	1.64
674.908	1.49
675.091	1.49
675.275	1.53
675.459	1.57
675.643	1.53
675.826	1.46
676.01	1.45
676.194	1.48
676.377	1.52
676.561	1.44
676.745	1.44
676.928	1.42
677.112	1.43
677.296	1.4
677.479	1.4
677.663	1.37
677.846	1.4
678.03	1.41
678.213	1.32
678.397	1.41
678.58	1.37
678.764	1.4
678.947	1.27
679.131	1.34
679.314	1.4
679.498	1.35
679.681	1.4
679.865	1.45
680.048	1.31
680.231	1.29
680.415	1.27
680.598	1.34
680.781	1.24
680.965	1.31
681.148	1.3
681.331	1.23
681.514	1.35
681.698	1.26
681.881	1.27
682.064	1.31
682.247	1.28
682.43	1.17
682.614	1.23
682.797	1.29
682.98	1.29
683.163	1.15
683.346	1.18
683.529	1.17
683.712	1.12
683.895	1.2
684.078	1.11
684.261	1.17
684.444	1.25
684.627	1.23
684.81	1.1
684.993	1.11
685.176	1.24
685.359	1.06
685.542	1.1
685.725	1.22
685.908	1.16
686.091	1.21
686.274	1.14
686.457	1.21
686.639	1.12
686.822	1.14
687.005	1.12
687.188	1.16
687.371	1.24
687.553	1.19
687.736	1.12
687.919	1.25
688.102	1.19
688.284	1.06
688.467	1.06
688.65	1.1
688.832	1.05
689.015	0.99
689.197	0.97
689.38	1.18
689.563	1.16
689.745	0.99
689.928	0.98
690.11	1.02
690.293	1.05
690.475	0.92
690.658	1.02
690.84	1.07
691.023	0.97
691.205	0.94
691.388	1
691.57	1.05
691.752	1.03
691.935	0.98
692.117	0.95
692.3	1.05
692.482	0.93
692.664	0.95
692.847	0.9
693.029	1.11
693.211	1.01
693.393	0.87
693.576	0.94
693.758	0.96
693.94	0.96
694.122	0.93
694.304	0.89
694.487	0.92
694.669	1.01
694.851	0.82
695.033	0.87
695.215	0.89
695.397	0.9
695.579	0.89
695.761	0.87
695.943	0.83
696.125	1
696.308	1.01
696.49	0.69
696.671	1.05
696.853	0.87
697.035	1.07
697.217	0.82
697.399	0.96
697.581	0.88
697.763	0.88
697.945	0.82
698.127	0.84
698.309	0.96
698.491	0.9
698.672	0.83
698.854	0.95
699.036	0.94
699.218	0.87
699.399	0.96
699.581	0.92
699.763	0.82
699.945	0.76
700.126	0.72
700.308	0.83
700.49	0.81
700.671	0.69
700.853	0.7
701.035	0.74
701.216	0.81
701.398	0.77
701.579	0.78
701.761	0.81
701.943	0.82
702.124	0.71
702.306	0.81
702.487	0.94
702.669	0.8
702.85	0.73
703.031	0.63
703.213	0.88
703.394	0.84
703.576	0.73
703.757	0.83
703.938	0.87
704.12	0.95
704.301	0.74
704.483	0.69
704.664	0.72
704.845	0.94
705.026	0.84
705.208	0.73
705.389	0.78
705.57	0.81
705.751	0.7
705.933	0.81
706.114	0.82
706.295	0.76
706.476	0.68
706.657	0.87
706.838	0.79
707.02	0.79
707.201	0.67
707.382	0.67
707.563	0.76
707.744	0.68
707.925	0.58
708.106	0.62
708.287	0.74
708.468	0.84
708.649	0.75
708.83	0.79
709.011	0.6
709.192	0.85
709.373	0.65
709.554	0.62
709.734	0.8
709.915	0.72
710.096	0.63
710.277	0.54
710.458	0.65
710.639	0.77
710.819	0.57
711	0.64
711.181	0.71
711.362	0.76
711.542	0.74
711.723	0.63
711.904	0.74
712.085	0.67
712.265	0.66
712.446	0.57
712.627	0.64
712.807	0.6
712.988	0.64
713.168	0.52
713.349	0.69
713.53	0.51
713.71	0.6
713.891	0.48
714.071	0.64
714.252	0.72
714.432	0.57
714.613	0.48
714.793	0.58
714.974	0.73
715.154	0.68
715.334	0.61
715.515	0.73
715.695	0.52
715.876	0.65
716.056	0.61
716.236	0.54
716.417	0.52
716.597	0.55
716.777	0.78
716.957	0.58
717.138	0.6
717.318	0.56
717.498	0.52
717.678	0.55
717.859	0.65
718.039	0.5
718.219	0.6
718.399	0.58
718.579	0.53
718.759	0.44
718.939	0.6
719.12	0.6
719.3	0.59
719.48	0.41
719.66	0.45
719.84	0.67
720.02	0.53
720.2	0.52
720.38	0.57
720.56	0.74
720.74	0.46
720.92	0.56
721.1	0.78
721.279	0.65
721.459	0.57
721.639	0.43
721.819	0.56
721.999	0.55
722.179	0.62
722.359	0.41
722.538	0.49
722.718	0.51
722.898	0.53
723.078	0.55
723.257	0.5
723.437	0.61
723.617	0.61
723.797	0.49
723.976	0.53
724.156	0.62
724.336	0.64
724.515	0.71
724.695	0.36
724.874	0.52
725.054	0.62
725.234	0.45
725.413	0.49
725.593	0.52
725.772	0.54
725.952	0.49
726.131	0.39
726.311	0.45
726.49	0.62
726.67	0.42
726.849	0.39
727.028	0.53
727.208	0.42
727.387	0.6
727.567	0.4
727.746	0.43
727.925	0.45
728.105	0.46
728.284	0.37
728.463	0.39
728.643	0.56
728.822	0.31
729.001	0.45
729.18	0.5
729.359	0.53
729.539	0.49
729.718	0.49
729.897	0.53
730.076	0.42
730.255	0.45
730.434	0.58
730.614	0.6
730.793	0.6
730.972	0.43
731.151	0.4
731.33	0.49
731.509	0.56
731.688	0.47
731.867	0.56
732.046	0.25
732.225	0.68
732.404	0.48
732.583	0.3
732.762	0.43
732.941	0.57
733.12	0.54
733.298	0.41
733.477	0.62
733.656	0.52
733.835	0.39
734.014	0.52
734.193	0.44
734.371	0.58
734.55	0.57
734.729	0.32
734.908	0.56
735.086	0.51
735.265	0.64
735.444	0.26
735.623	0.35
735.801	0.39
735.98	0.46
736.159	0.41
736.337	0.45
736.516	0.54
736.694	0.51
736.873	0.42
737.052	0.64
737.23	0.79
737.409	0.44
737.587	0.75
737.766	0.4
737.944	0.46
738.123	0.52
738.301	0.6
738.479	0.54
738.658	0.6
738.836	0.39
739.015	0.5
739.193	0.58
739.371	0.27
739.55	0.43
739.728	0.41
739.906	0.76
740.085	0.7
740.263	0.53
740.441	0.2
740.62	0.81
740.798	0.59
740.976	0.37
741.154	0.41
741.332	0.61
741.511	0.43
741.689	0.49
741.867	0.51
742.045	0.57
742.223	0.37
742.401	0.32
742.579	0.39
742.757	0.58
742.935	0.35
743.114	0.46
743.292	0.41
743.47	0.51
743.648	0.5
743.826	0.5
744.004	0.52
744.181	0.6
744.359	0.41
744.537	0.48
744.715	0.34
744.893	0.42
745.071	0.52
745.249	0.46
745.427	0.31
745.605	0.44
745.782	0.45
745.96	0.47
746.138	0.62
746.316	0.55
746.493	0.45
746.671	0.46
746.849	0.41
747.027	0.55
747.204	0.25
747.382	0.44
747.56	0.25
747.737	0.5
747.915	0.33
748.093	0.47
748.27	0.3
748.448	0.4
748.625	0.25
748.803	0.36
748.98	0.31
749.158	0.45
749.335	0.51
749.513	0.27
749.69	0.4
749.868	0.4
750.045	0.49
750.223	0.37
750.4	0.09
750.578	0.64
750.755	0.46
750.932	0.17
751.11	0.44
751.287	0.35
751.464	0.6
751.642	0.37
751.819	0.45
751.996	0.55
752.173	0.43
752.351	0.21
752.528	0.36
752.705	0.36
752.882	0.3
753.06	0.41
753.237	0.44
753.414	0.62
753.591	0.66
753.768	0.38
753.945	0.26
754.122	0.33
754.299	0.57
754.476	0.28
754.654	0.41
754.831	0.56
755.008	0.43
755.185	0.34
755.362	0.22
755.539	0.44
755.716	0.46
755.892	0.28
756.069	0.28
756.246	0.41
756.423	0.3
756.6	0.66
756.777	0.17
756.954	0.6
757.131	0.26
757.307	0.2
757.484	0.21
757.661	0.35
757.838	0.42
758.015	0.2
758.191	0.4
758.368	0.41
758.545	0.7
758.721	0.44
758.898	0.23
759.075	0.35
759.251	0.5
759.428	0.34
759.605	0.21
759.781	0.37
759.958	0.43
760.134	0.38
760.311	0.29
760.488	0.53
760.664	0.55
760.841	0.3
761.017	0.24
761.194	0.35
761.37	0.66
761.547	0.37
761.723	0.28
761.899	0.63
762.076	0.34
762.252	0.24
762.429	0.27
762.605	0.56
762.781	0.43
762.958	0.37
763.134	0.37
763.31	0.18
763.486	0.58
763.663	0.23
763.839	0.34
764.015	0.07
764.191	0.27
764.368	0.34
764.544	0.17
764.72	0.38
764.896	0.38
765.072	0.42
765.248	0.34
765.425	0.28
765.601	0.47
765.777	0.36
765.953	0.1
766.129	0.29
766.305	0.22
766.481	0.4
766.657	0.3
766.833	0.55
767.009	0.22
767.185	0.26
767.361	0.26
767.537	0.24
767.713	0.62
767.889	0.23
768.065	0.38
768.24	0.15
768.416	0.46
768.592	0.28
768.768	0.4
768.944	0.57
769.12	0.3
769.295	0.21
769.471	0.22
769.647	0.34
769.823	0.45
769.998	0.25
770.174	0.32
770.35	0.76
770.525	0.72
770.701	0.43
770.877	0.41
771.052	0.35
771.228	0.45
771.403	0.36
771.579	0.41
771.755	0.77
771.93	0.34
772.106	0.26
772.281	0.08
772.457	0.44
772.632	0.5
772.808	0.18
772.983	0.38
773.159	0.11
773.334	0.62
773.509	0.39
773.685	0.11
773.86	0.83
774.036	0.55
774.211	0.37
774.386	0.24
774.562	0.48
774.737	0.62
774.912	0.18
775.087	0.44
775.263	0.39
775.438	0.37
775.613	0.22
775.788	0.21
775.964	0.69
776.139	1.04
776.314	0.04
776.489	0.49
776.664	0.5
776.839	0.14
777.014	0.44
777.19	0.47
777.365	0.7
777.54	0.74
777.715	0.36
777.89	0.45
778.065	0.31
778.24	0.32
778.415	0.39
778.59	0.27
778.765	0.15
778.94	0.44
779.115	0.21
779.289	0.31
779.464	0.34
779.639	0.29
779.814	0.13
779.989	0.27
780.164	0.68
780.339	0.53
780.513	0.25
780.688	0.24
780.863	0.34
781.038	0.63
781.212	0.23
781.387	0.34
781.562	0.82
781.737	0.06
781.911	0.68
782.086	0.22
782.261	0.29
782.435	0.67
782.61	0.18
782.784	0.33
782.959	0.66
783.134	0.41
783.308	0.31
783.483	0.26
783.657	0.9
783.832	0.76
784.006	0.16
784.181	0.53
784.355	0.63
784.53	0.35
784.704	0.3
784.878	0.62
785.053	0.55
785.227	0.71
785.402	0.68
785.576	0.24
785.75	0.51
785.925	0.39
786.099	0.49
786.273	0.27
786.448	0.65
786.622	0.88
786.796	0.4
786.97	0.29
787.145	1.18
787.319	-0.13
787.493	0.35
787.667	0.01
787.841	0.55
788.015	0.83
788.19	0.34
788.364	0.19
788.538	0.72
788.712	0.51
788.886	0.45
789.06	0.56
789.234	0.54
789.408	0.18
789.582	0.42
789.756	0.17
789.93	0.17
790.104	0.55
790.278	0.29
790.452	0.17
790.626	0.63
790.8	0.32
790.973	0.6
791.147	0.78
791.321	0.92
791.495	0.58
791.669	0.57
791.843	0.49
792.016	0.66
792.19	0.77
792.364	0.26
792.538	1.03
792.711	0.57
792.885	0.23
793.059	0.12
793.233	0.03
793.406	0.69
793.58	0.41
793.754	0.68
793.927	0.34
794.101	0.82
794.274	0.39
794.448	0.67
794.622	0.08
794.795	0.88
794.969	0.4
795.142	0.71
795.316	0.24
795.489	0.32
795.663	0.9
795.836	0.32
796.009	0.18
796.183	0.99
796.356	0.56
796.53	0.56
796.703	0.63
796.876	1.17
797.05	0.4
797.223	0.56
797.396	0.51
797.57	0.52
797.743	0.95
797.916	0.4
798.09	0.31
798.263	0.73
798.436	0.74
798.609	0.23
798.782	0.16
798.956	0.84
799.129	0.59
799.302	0.18
799.475	0.26
799.648	0.49
799.821	0.2
799.994	0.36
800.167	-0.25
800.34	0.52
800.514	0.52
800.687	0.13
800.86	0.06
801.033	0.5
801.206	0.73
801.379	0.02
801.551	0.74
801.724	0.79
801.897	1.12
802.07	0.34
802.243	-0.27
802.416	0.56
802.589	0.62
802.762	0.39
802.935	0.21
803.107	0.78
803.28	0.74
803.453	0.39
803.626	0.37
803.798	0.45
803.971	0.23
804.144	0.38
804.317	0.6
804.489	1.17
804.662	0.62
804.835	0.36
805.007	0.35
805.18	0.88
805.353	0.68
805.525	0.17
805.698	0.37
805.87	0.89
806.043	0.77
806.215	0.19
806.388	0.31
806.56	0.67
806.733	0.79
806.905	0.38
807.078	0.1
807.25	0.1
807.423	0.64
807.595	0.38
807.768	0.5
807.94	0.51
808.112	0.49
808.285	0.46
808.457	0.24
808.629	0.56
808.802	0.96
808.974	0.65
809.146	0.44
809.318	0.34
809.491	1.01
809.663	0.85
809.835	0.22
810.007	0.7
810.18	0.64
810.352	-0.37
810.524	0.24
810.696	0.63
810.868	1.06
811.04	0.44
811.212	0.33
811.384	1.07
811.556	0.52
811.728	0.25
811.901	1.22
812.073	0.39
812.245	0.93
812.417	0.42
812.589	-0.29
812.76	0.42
812.932	0.77
813.104	0.83
813.276	0.44
813.448	1.01
813.62	0.75
813.792	1.04
813.964	0.18
814.136	1.06
814.307	0.16
814.479	0.31
814.651	0.51
814.823	1.43
814.995	0.86
815.166	0.54
815.338	0.41
815.51	-0
815.681	1.68
815.853	0.78
816.025	0.7
816.196	1.54
816.368	1.15
816.54	-0.05
816.711	0.1
816.883	1.18
817.054	2.11
817.226	-0.16
817.398	1
817.569	0.37
817.741	0.7
817.912	0.11
818.084	0.43
818.255	1.07
818.426	0.22
818.598	0.31
818.769	-0.22
818.941	1.23
819.112	1.61
819.283	0.76
819.455	0.29
819.626	0.59
819.798	1.02
819.969	0.83
820.14	-0.12
820.311	0.38
820.483	0.85
820.654	0.81
820.825	0.4
820.996	1
821.168	0.2
821.339	0.51
821.51	0.08
821.681	-0.23
821.852	0.58
822.023	0.49
822.195	0.08
822.366	1.09
822.537	0.88
822.708	0.67
822.879	0.05
823.05	1.5
823.221	0.3
823.392	0.98
823.563	0.09
823.734	0.43
823.905	0.84
824.076	0.35
824.247	0.06
824.418	0.55
824.589	1.88
824.759	0.86
824.93	0.5
825.101	0.02
825.272	1.93
825.443	1.22
825.614	1.53
825.784	0.28
825.955	2.57
826.126	1.16
826.297	1.04
826.467	1.75
826.638	1.74
826.809	0.47
826.98	0.65
827.15	1.58
827.321	1.09
827.492	1.68
827.662	0.24
827.833	2.21
828.003	1.29
828.174	0.41
828.345	-0.32
828.515	1.43
828.686	1.06
828.856	0.79
829.027	0.64
829.197	1.22
829.368	0.86
829.538	-0.03
829.709	0.41
829.879	0.74
830.049	0.81
830.22	0.5
830.39	0.99
830.56	1.61
830.731	0.29
830.901	0.31
831.072	0.42
831.242	0.84
831.412	0.99
831.582	1
831.753	-0.66
831.923	1.81
832.093	1.52
832.263	0.46
832.434	0.43
832.604	0.29
832.774	1.48
832.944	0.84
833.114	-0.05
833.284	0.88
833.454	0.25
833.624	0.9
833.795	0.88
833.965	1.54
834.135	1.94
834.305	-0.63
834.475	-0.11
834.645	1.04
834.815	0.91
834.985	0.27
835.155	0.17
835.325	1.41
835.494	1.21
835.664	0.89
835.834	-0.31
836.004	0.89
836.174	1.01
836.344	0.25
836.514	-0.09
836.684	0.28
836.853	0.62
837.023	1.18
837.193	0.05
837.363	1.79
837.532	1.99
837.702	0.72
837.872	0.39
838.041	1.13
838.211	1.8
838.381	-0.18
838.55	0.98
838.72	4.09
838.89	2.22
839.059	0.66
839.229	-0.06
839.398	3.29
839.568	1.44
839.738	0.82
839.907	1.81
840.077	1.43
840.246	0.49
840.416	0.12
840.585	-0.29
840.755	2.71
840.924	1.73
841.093	0.21
841.263	0.01
841.432	0.73
841.602	0.85
841.771	0.01
841.94	0.39
842.11	3.56
842.279	2.44
842.448	-0.31
842.617	-0.85
842.787	2.74
842.956	0.09
843.125	0.77
843.294	0.65
843.464	2.33
843.633	1.45
843.802	0.17
843.971	0.95
844.14	1.06
844.309	1.9
844.479	-0.46
844.648	-0.61
844.817	1.49
844.986	0.96
845.155	0.98
845.324	0.66
845.493	1.3
845.662	0.16
845.831	1.81
846	1.66
846.169	0.58
846.338	2.96
846.507	1.16
846.676	1.16
846.844	0.86
847.013	0.7
847.182	0.89
847.351	0.96
847.52	0.08
847.689	2.17
847.858	0.95
848.026	0.31
848.195	1.68
848.364	1.31
848.533	-0.01
848.701	0.56
848.87	1.39
849.039	2.76
849.207	1.51
849.376	2.14
849.545	3.31
849.713	0.36
849.882	-0.08
850.051	0.22
850.219	0.83
850.388	1.93
850.556	-0.15
850.725	1.72
850.893	0.8
851.062	0.76
851.23	1.22
851.399	-0.7
851.567	1.28
851.736	0.8
851.904	0.58
852.073	0.77
852.241	2.35
852.41	1.83
852.578	1.02
852.746	0.54
852.915	2.3
853.083	0.7
853.251	0.15
853.42	0.38
853.588	1.5
853.756	3.5
853.924	0.37
854.093	0.58
854.261	0.61
854.429	0.38
854.597	1.64
854.765	-0.09
854.934	2.66
855.102	2.35
855.27	0.57
855.438	2.02
855.606	3.1
855.774	3.74
855.942	-0.18
856.11	-0.33
856.278	0.45
856.446	4.03
856.614	0.55
856.782	0.65
856.95	2.85
857.118	2.43
857.286	1.69
857.454	1.26
857.622	2.56
857.79	2.71
857.958	0.85
858.126	0.79
858.294	-1.63
858.462	0.87
858.629	0.1
858.797	0.82
858.965	3.12
859.133	1.23
859.301	0.94
859.468	2.44
859.636	0.57
859.804	4.92
859.971	1.84
860.139	0.1
860.307	2.32
860.474	2.94
860.642	1
860.81	1.01
860.977	0.55
861.145	4.25
861.313	2.01
861.48	1.16
861.648	2.44
861.815	1.85
861.983	-1.33
862.15	0.34
862.318	2.71
862.485	3.87
862.653	0.59
862.82	-0.24
862.988	3.36
863.155	2.09
863.322	0.82
863.49	0.09
863.657	1.29
863.824	4.12
863.992	2.05
864.159	1.02
864.326	3.98
864.494	0.27
864.661	3.47
864.828	0.64
864.996	2.88
865.163	4.99
865.33	-0.07
865.497	-1.02
865.664	0.57
865.832	-0.35
865.999	1.08
866.166	-0.22
866.333	1.79
866.5	0.52
866.667	0.52
866.834	1.93
867.001	3.98
867.168	0.83
867.335	1.55
867.502	0.16
867.669	0.5
867.836	5.05
868.003	1.24
868.17	3.11
868.337	4.86
868.504	5.9
868.671	-0.55
868.838	-0.29
869.005	2.11
869.172	3.07
869.339	1.66
869.505	0.99
869.672	3.14
869.839	3.57
870.006	2.74
870.173	0.14
870.339	3.09
870.506	5.82
870.673	0.95
870.84	2.32
871.006	1.9
871.173	1.11
871.34	0.57
871.506	-0.26
871.673	3.62
871.839	-1.36
872.006	4.84
872.173	-0.79
872.339	2.72
872.506	2.85
872.672	1.78
872.839	0.81
873.005	3.11
873.172	6.5
873.338	3.13
873.505	2.53
873.671	1.56
873.838	2.37
874.004	-2.47
874.171	0.87
874.337	3.99
874.503	4.76
874.67	1.77
874.836	-0
875.002	3.54
875.169	2.92
875.335	1.58
875.501	0.65
875.668	4.89
875.834	0.12
876	1.28
876.166	2.11
876.332	0.59
876.499	6.35
876.665	0.41
876.831	0.49
876.997	7.37
877.163	1.69
877.329	0.31
877.495	1.97
877.662	4.06
877.828	3.95
877.994	-0.54
878.16	-1.52
878.326	0.55
878.492	1.94
878.658	2
878.824	2.06
878.99	4.07
879.156	1.71
879.322	3.77
879.487	-0.04
879.653	2.11
879.819	2.42
879.985	-0.75
880.151	0.93
880.317	2.89
880.483	1.79
880.648	2.89
880.814	0.61
880.98	3.26
881.146	-1.75
881.312	-1.32
881.477	0.84
881.643	0.47
881.809	4.44
881.974	3.57
882.14	-0
882.306	2.07
882.471	5.86
882.637	0.86
882.803	2.39
882.968	4.8
883.134	4.84
883.299	2.37
883.465	0.41
883.63	5.33
883.796	3.41
883.961	2.09
884.127	3.31
884.292	-2.03
884.458	0.29
884.623	0.29
