Data from Apollo_Calib_20240827__AbsoluteIrradiance__810__12-39-00-515.txt Node

Date: Wed Aug 28 12:39:00 BST 2024
User: biology
Spectrometer: FLMT08252
Trigger mode: 0
Integration Time (sec): 5.000000E-1
Scans to average: 5
Electric dark correction enabled: true
Nonlinearity correction enabled: false
Boxcar width: 0
XAxis mode: Wavelengths
Number of Pixels in Spectrum: 3648
>>>>>Begin Spectral Data<<<<<
179.588	-0
179.809	-0
180.03	-0
180.251	-0
180.473	-0
180.694	0
180.915	0
181.136	-0
181.357	0
181.578	-0
181.799	0
182.02	-0
182.241	-0
182.462	-0
182.683	0
182.904	-0
183.125	-0
183.346	0
183.567	0
183.788	0
184.009	0
184.23	0
184.451	0
184.672	0
184.892	0
185.113	0
185.334	0
185.555	0
185.776	0
185.996	0
186.217	0
186.438	0
186.659	0
186.879	0
187.1	0
187.321	0
187.541	0
187.762	0
187.983	0
188.203	0
188.424	0
188.644	0
188.865	0
189.086	0
189.306	0
189.527	0
189.747	0
189.968	0
190.188	0
190.409	0
190.629	0
190.849	0
191.07	0
191.29	0
191.511	0
191.731	0
191.951	0
192.172	0
192.392	0
192.612	0
192.833	0
193.053	0
193.273	0
193.493	0
193.714	0
193.934	0
194.154	0
194.374	0
194.594	0
194.815	0
195.035	0
195.255	0
195.475	0
195.695	0
195.915	0
196.135	0
196.355	0
196.575	0
196.795	0
197.015	0
197.235	0
197.455	0
197.675	0
197.895	0
198.115	0
198.335	0
198.555	0
198.775	0
198.995	0
199.214	0
199.434	0
199.654	0
199.874	0
200.094	4.61
200.313	2.58
200.533	1.79
200.753	1.04
200.973	3.87
201.192	3.26
201.412	1.81
201.632	1.93
201.851	2.66
202.071	1.64
202.291	1.41
202.51	1.25
202.73	2.47
202.95	1.63
203.169	1.18
203.389	2.14
203.608	1.89
203.828	1.81
204.047	1.28
204.267	1.99
204.486	2.37
204.706	2.07
204.925	1.56
205.145	1.73
205.364	2.34
205.583	2.64
205.803	1.16
206.022	1.03
206.242	1.79
206.461	1.71
206.68	1.12
206.9	1.5
207.119	2.84
207.338	2.08
207.557	1.19
207.777	1.17
207.996	1.35
208.215	2.11
208.434	0.95
208.654	0.87
208.873	1.75
209.092	2.21
209.311	0.94
209.53	1.34
209.749	1.17
209.968	0.93
210.187	0.73
210.407	0.64
210.626	1.16
210.845	1.5
211.064	1.22
211.283	0.88
211.502	1.87
211.721	1.31
211.94	0.88
212.159	1.53
212.377	1.41
212.596	1.33
212.815	1.37
213.034	1.17
213.253	1.47
213.472	1.4
213.691	0.71
213.91	0.81
214.128	0.85
214.347	1.73
214.566	0.5
214.785	0.7
215.003	1.23
215.222	1.12
215.441	0.87
215.66	0.5
215.878	0.92
216.097	1.3
216.316	0.68
216.534	0.86
216.753	1.07
216.972	0.99
217.19	1
217.409	0.52
217.627	0.87
217.846	0.88
218.064	0.91
218.283	0.72
218.501	1.42
218.72	1.05
218.938	0.67
219.157	0.79
219.375	1.19
219.594	1.15
219.812	0.39
220.031	0.43
220.249	1.23
220.467	1.13
220.686	0.7
220.904	0.54
221.122	0.68
221.341	1.27
221.559	0.93
221.777	0.5
221.995	0.9
222.214	0.99
222.432	0.4
222.65	0.87
222.868	0.72
223.086	0.7
223.305	1.05
223.523	0.59
223.741	1.17
223.959	0.72
224.177	0.33
224.395	0.45
224.613	0.95
224.831	0.94
225.049	0.44
225.267	0.61
225.485	0.81
225.703	0.51
225.921	0.59
226.139	0.52
226.357	0.77
226.575	0.84
226.793	0.47
227.011	1.52
227.229	0.76
227.447	0.94
227.665	0.5
227.883	0.33
228.1	0.66
228.318	0.96
228.536	0.22
228.754	0.33
228.972	0.84
229.189	0.69
229.407	0.45
229.625	0.57
229.843	0.78
230.06	0.8
230.278	0.55
230.496	0.52
230.713	0.77
230.931	0.84
231.149	0.48
231.366	0.33
231.584	0.55
231.801	0.99
232.019	0.55
232.236	0.5
232.454	0.47
232.671	0.73
232.889	0.47
233.106	0.43
233.324	0.65
233.541	0.59
233.759	0.57
233.976	0.48
234.194	0.46
234.411	0.63
234.628	0.36
234.846	0.47
235.063	0.54
235.28	0.61
235.498	0.53
235.715	0.41
235.932	0.74
236.149	0.41
236.367	0.4
236.584	0.55
236.801	0.53
237.018	0.62
237.236	0.48
237.453	0.31
237.67	0.69
237.887	0.49
238.104	0.48
238.321	0.43
238.538	0.38
238.755	0.72
238.973	0.3
239.19	0.46
239.407	0.67
239.624	0.59
239.841	0.34
240.058	0.27
240.275	0.52
240.492	0.45
240.709	0.41
240.925	0.41
241.142	0.49
241.359	0.34
241.576	0.37
241.793	0.38
242.01	0.43
242.227	0.62
242.444	0.56
242.66	0.65
242.877	0.61
243.094	0.4
243.311	0.45
243.527	0.5
243.744	0.46
243.961	0.56
244.178	0.35
244.394	0.43
244.611	0.55
244.828	0.62
245.044	0.27
245.261	0.43
245.477	0.47
245.694	0.65
245.911	0.28
246.127	0.4
246.344	0.69
246.56	0.56
246.777	0.36
246.993	0.39
247.21	0.5
247.426	0.45
247.643	0.37
247.859	0.34
248.076	0.35
248.292	0.69
248.508	0.37
248.725	0.54
248.941	0.53
249.157	0.6
249.374	0.4
249.59	0.42
249.806	0.41
250.023	0.48
250.239	0.39
250.455	0.28
250.671	0.5
250.888	0.52
251.104	0.46
251.32	0.33
251.536	0.44
251.752	0.37
251.969	0.39
252.185	0.38
252.401	0.62
252.617	0.5
252.833	0.31
253.049	0.38
253.265	0.4
253.481	0.4
253.697	0.45
253.913	0.34
254.129	0.43
254.345	0.42
254.561	0.37
254.777	0.29
254.993	0.42
255.209	0.47
255.425	0.27
255.641	0.31
255.857	0.58
256.073	0.45
256.288	0.24
256.504	0.36
256.72	0.48
256.936	0.55
257.152	0.42
257.367	0.31
257.583	0.44
257.799	0.5
258.015	0.33
258.23	0.32
258.446	0.59
258.662	0.43
258.877	0.28
259.093	0.31
259.309	0.39
259.524	0.48
259.74	0.31
259.955	0.23
260.171	0.38
260.387	0.34
260.602	0.41
260.818	0.45
261.033	0.25
261.249	0.41
261.464	0.33
261.68	0.3
261.895	0.43
262.11	0.46
262.326	0.31
262.541	0.26
262.757	0.47
262.972	0.43
263.187	0.33
263.403	0.4
263.618	0.48
263.833	0.41
264.049	0.3
264.264	0.3
264.479	0.39
264.694	0.58
264.91	0.26
265.125	0.33
265.34	0.49
265.555	0.62
265.77	0.4
265.986	0.29
266.201	0.47
266.416	0.51
266.631	0.26
266.846	0.28
267.061	0.44
267.276	0.47
267.491	0.15
267.706	0.48
267.921	0.41
268.136	0.43
268.351	0.31
268.566	0.29
268.781	0.51
268.996	0.41
269.211	0.36
269.426	0.31
269.641	0.3
269.856	0.45
270.071	0.29
270.285	0.29
270.5	0.43
270.715	0.41
270.93	0.31
271.145	0.39
271.359	0.44
271.574	0.28
271.789	0.3
272.004	0.31
272.218	0.34
272.433	0.47
272.648	0.31
272.862	0.4
273.077	0.42
273.292	0.31
273.506	0.21
273.721	0.35
273.936	0.38
274.15	0.4
274.365	0.23
274.579	0.37
274.794	0.38
275.008	0.44
275.223	0.23
275.437	0.31
275.652	0.44
275.866	0.4
276.081	0.3
276.295	0.38
276.509	0.34
276.724	0.35
276.938	0.31
277.153	0.39
277.367	0.41
277.581	0.24
277.796	0.32
278.01	0.23
278.224	0.37
278.438	0.47
278.653	0.26
278.867	0.25
279.081	0.39
279.295	0.31
279.51	0.32
279.724	0.2
279.938	0.35
280.152	0.37
280.366	0.3
280.58	0.33
280.794	0.49
281.008	0.4
281.222	0.4
281.437	0.5
281.651	0.38
281.865	0.4
282.079	0.28
282.293	0.18
282.507	0.25
282.721	0.35
282.935	0.32
283.148	0.15
283.362	0.29
283.576	0.23
283.79	0.33
284.004	0.3
284.218	0.41
284.432	0.23
284.646	0.31
284.859	0.26
285.073	0.24
285.287	0.36
285.501	0.28
285.714	0.26
285.928	0.29
286.142	0.32
286.356	0.28
286.569	0.26
286.783	0.41
286.997	0.44
287.21	0.31
287.424	0.22
287.637	0.28
287.851	0.25
288.065	0.34
288.278	0.28
288.492	0.29
288.705	0.24
288.919	0.32
289.132	0.2
289.346	0.34
289.559	0.23
289.773	0.24
289.986	0.28
290.2	0.26
290.413	0.3
290.626	0.25
290.84	0.25
291.053	0.29
291.267	0.4
291.48	0.32
291.693	0.26
291.906	0.23
292.12	0.31
292.333	0.21
292.546	0.25
292.76	0.42
292.973	0.34
293.186	0.31
293.399	0.25
293.612	0.34
293.826	0.29
294.039	0.23
294.252	0.24
294.465	0.34
294.678	0.31
294.891	0.26
295.104	0.25
295.317	0.23
295.53	0.36
295.743	0.28
295.956	0.23
296.169	0.4
296.382	0.34
296.595	0.26
296.808	0.24
297.021	0.35
297.234	0.33
297.447	0.26
297.66	0.26
297.873	0.37
298.086	0.32
298.299	0.18
298.511	0.19
298.724	0.27
298.937	0.23
299.15	0.21
299.363	0.21
299.575	0.31
299.788	0.27
300.001	0.23
300.213	0.17
300.426	0.25
300.639	0.21
300.852	0.18
301.064	0.3
301.277	0.35
301.489	0.34
301.702	0.32
301.915	0.23
302.127	0.26
302.34	0.31
302.552	0.28
302.765	0.21
302.977	0.33
303.19	0.26
303.402	0.26
303.615	0.2
303.827	0.27
304.04	0.26
304.252	0.28
304.464	0.2
304.677	0.41
304.889	0.33
305.102	0.3
305.314	0.25
305.526	0.27
305.739	0.29
305.951	0.19
306.163	0.18
306.375	0.34
306.588	0.22
306.8	0.2
307.012	0.24
307.224	0.3
307.436	0.34
307.649	0.14
307.861	0.26
308.073	0.3
308.285	0.22
308.497	0.2
308.709	0.23
308.921	0.3
309.133	0.32
309.346	0.23
309.558	0.23
309.77	0.29
309.982	0.36
310.194	0.26
310.406	0.21
310.617	0.32
310.829	0.27
311.041	0.33
311.253	0.22
311.465	0.27
311.677	0.26
311.889	0.26
312.101	0.24
312.313	0.31
312.524	0.37
312.736	0.17
312.948	0.21
313.16	0.37
313.372	0.29
313.583	0.3
313.795	0.25
314.007	0.28
314.218	0.31
314.43	0.26
314.642	0.21
314.853	0.21
315.065	0.31
315.277	0.25
315.488	0.24
315.7	0.3
315.912	0.36
316.123	0.22
316.335	0.23
316.546	0.39
316.758	0.23
316.969	0.26
317.181	0.28
317.392	0.29
317.604	0.36
317.815	0.2
318.026	0.27
318.238	0.24
318.449	0.3
318.661	0.18
318.872	0.2
319.083	0.19
319.295	0.31
319.506	0.23
319.717	0.28
319.929	0.27
320.14	0.25
320.351	0.27
320.562	0.22
320.774	0.27
320.985	0.31
321.196	0.23
321.407	0.15
321.618	0.36
321.829	0.29
322.041	0.33
322.252	0.28
322.463	0.3
322.674	0.29
322.885	0.23
323.096	0.24
323.307	0.32
323.518	0.28
323.729	0.21
323.94	0.22
324.151	0.21
324.362	0.27
324.573	0.28
324.784	0.23
324.995	0.31
325.206	0.25
325.417	0.21
325.628	0.24
325.838	0.28
326.049	0.28
326.26	0.25
326.471	0.24
326.682	0.27
326.892	0.27
327.103	0.2
327.314	0.23
327.525	0.34
327.735	0.33
327.946	0.27
328.157	0.24
328.368	0.31
328.578	0.24
328.789	0.25
328.999	0.27
329.21	0.27
329.421	0.31
329.631	0.18
329.842	0.2
330.052	0.25
330.263	0.29
330.473	0.32
330.684	0.22
330.894	0.24
331.105	0.26
331.315	0.24
331.526	0.19
331.736	0.32
331.947	0.28
332.157	0.29
332.367	0.19
332.578	0.34
332.788	0.32
332.999	0.31
333.209	0.23
333.419	0.21
333.629	0.31
333.84	0.3
334.05	0.25
334.26	0.35
334.47	0.29
334.681	0.3
334.891	0.2
335.101	0.29
335.311	0.37
335.521	0.25
335.732	0.25
335.942	0.34
336.152	0.27
336.362	0.27
336.572	0.27
336.782	0.32
336.992	0.25
337.202	0.25
337.412	0.25
337.622	0.28
337.832	0.28
338.042	0.28
338.252	0.22
338.462	0.25
338.672	0.27
338.882	0.25
339.092	0.25
339.302	0.3
339.511	0.31
339.721	0.23
339.931	0.2
340.141	0.31
340.351	0.35
340.561	0.29
340.77	0.26
340.98	0.27
341.19	0.28
341.4	0.25
341.609	0.2
341.819	0.25
342.029	0.19
342.238	0.3
342.448	0.23
342.658	0.27
342.867	0.29
343.077	0.26
343.286	0.28
343.496	0.3
343.706	0.36
343.915	0.18
344.125	0.26
344.334	0.25
344.544	0.2
344.753	0.24
344.963	0.22
345.172	0.24
345.381	0.17
345.591	0.19
345.8	0.23
346.01	0.3
346.219	0.3
346.428	0.12
346.638	0.24
346.847	0.27
347.056	0.32
347.266	0.24
347.475	0.22
347.684	0.29
347.893	0.33
348.103	0.25
348.312	0.22
348.521	0.26
348.73	0.27
348.94	0.25
349.149	0.24
349.358	0.23
349.567	0.21
349.776	0.19
349.985	0.21
350.194	0.31
350.403	0.31
350.612	0.17
350.821	0.21
351.03	0.3
351.239	0.17
351.448	0.24
351.657	0.19
351.866	0.32
352.075	0.27
352.284	0.32
352.493	0.18
352.702	0.31
352.911	0.26
353.12	0.27
353.329	0.24
353.538	0.31
353.746	0.24
353.955	0.18
354.164	0.29
354.373	0.25
354.582	0.31
354.79	0.25
354.999	0.26
355.208	0.24
355.416	0.37
355.625	0.19
355.834	0.2
356.042	0.28
356.251	0.23
356.46	0.21
356.668	0.32
356.877	0.36
357.085	0.26
357.294	0.19
357.503	0.27
357.711	0.26
357.92	0.44
358.128	0.22
358.337	0.25
358.545	0.28
358.754	0.22
358.962	0.28
359.17	0.22
359.379	0.29
359.587	0.23
359.796	0.25
360.004	0.34
360.212	0.25
360.421	0.27
360.629	0.2
360.837	0.22
361.046	0.32
361.254	0.4
361.462	0.23
361.67	0.25
361.879	0.28
362.087	0.32
362.295	0.25
362.503	0.2
362.711	0.2
362.92	0.21
363.128	0.23
363.336	0.18
363.544	0.18
363.752	0.23
363.96	0.22
364.168	0.2
364.376	0.24
364.584	0.3
364.792	0.35
365	0.26
365.208	0.29
365.416	0.3
365.624	0.32
365.832	0.24
366.04	0.34
366.248	0.3
366.456	0.26
366.664	0.21
366.872	0.25
367.079	0.25
367.287	0.26
367.495	0.22
367.703	0.24
367.911	0.24
368.118	0.26
368.326	0.24
368.534	0.2
368.742	0.35
368.949	0.2
369.157	0.2
369.365	0.33
369.572	0.23
369.78	0.26
369.988	0.3
370.195	0.3
370.403	0.32
370.61	0.25
370.818	0.26
371.026	0.38
371.233	0.2
371.441	0.26
371.648	0.21
371.856	0.29
372.063	0.29
372.271	0.24
372.478	0.21
372.685	0.26
372.893	0.37
373.1	0.28
373.308	0.25
373.515	0.35
373.722	0.29
373.93	0.23
374.137	0.31
374.344	0.37
374.552	0.3
374.759	0.32
374.966	0.23
375.173	0.23
375.381	0.34
375.588	0.24
375.795	0.18
376.002	0.24
376.209	0.22
376.417	0.23
376.624	0.3
376.831	0.31
377.038	0.27
377.245	0.19
377.452	0.23
377.659	0.29
377.866	0.23
378.073	0.25
378.28	0.24
378.487	0.32
378.694	0.35
378.901	0.3
379.108	0.25
379.315	0.31
379.522	0.39
379.729	0.3
379.936	0.27
380.143	0.28
380.35	0.25
380.557	0.25
380.763	0.25
380.97	0.27
381.177	0.27
381.384	0.27
381.591	0.2
381.797	0.29
382.004	0.32
382.211	0.28
382.418	0.24
382.624	0.33
382.831	0.32
383.038	0.26
383.244	0.3
383.451	0.29
383.658	0.28
383.864	0.25
384.071	0.21
384.277	0.38
384.484	0.29
384.69	0.35
384.897	0.21
385.103	0.24
385.31	0.26
385.516	0.28
385.723	0.22
385.929	0.3
386.136	0.26
386.342	0.3
386.549	0.22
386.755	0.34
386.961	0.37
387.168	0.25
387.374	0.26
387.58	0.35
387.787	0.28
387.993	0.26
388.199	0.29
388.406	0.23
388.612	0.26
388.818	0.25
389.024	0.23
389.231	0.25
389.437	0.41
389.643	0.3
389.849	0.26
390.055	0.3
390.261	0.3
390.467	0.32
390.674	0.29
390.88	0.32
391.086	0.3
391.292	0.26
391.498	0.32
391.704	0.36
391.91	0.27
392.116	0.27
392.322	0.2
392.528	0.31
392.734	0.32
392.94	0.3
393.146	0.27
393.352	0.34
393.557	0.28
393.763	0.3
393.969	0.35
394.175	0.32
394.381	0.29
394.587	0.24
394.792	0.29
394.998	0.35
395.204	0.34
395.41	0.29
395.615	0.32
395.821	0.4
396.027	0.4
396.233	0.31
396.438	0.36
396.644	0.36
396.85	0.35
397.055	0.32
397.261	0.38
397.466	0.45
397.672	0.37
397.878	0.34
398.083	0.36
398.289	0.28
398.494	0.41
398.7	0.39
398.905	0.24
399.111	0.45
399.316	0.3
399.522	0.37
399.727	0.31
399.932	0.35
400.138	0.31
400.343	0.41
400.549	0.33
400.754	0.43
400.959	0.37
401.165	0.34
401.37	0.35
401.575	0.44
401.78	0.38
401.986	0.38
402.191	0.36
402.396	0.39
402.601	0.41
402.807	0.4
403.012	0.36
403.217	0.51
403.422	0.36
403.627	0.41
403.832	0.33
404.037	0.49
404.243	0.47
404.448	0.4
404.653	0.43
404.858	0.49
405.063	0.46
405.268	0.39
405.473	0.35
405.678	0.43
405.883	0.7
406.088	0.53
406.293	0.43
406.498	0.43
406.703	0.53
406.907	0.51
407.112	0.41
407.317	0.51
407.522	0.59
407.727	0.49
407.932	0.52
408.136	0.69
408.341	0.5
408.546	0.6
408.751	0.63
408.956	0.59
409.16	0.64
409.365	0.66
409.57	0.58
409.774	0.63
409.979	0.68
410.184	0.73
410.388	0.64
410.593	0.8
410.798	0.7
411.002	0.73
411.207	0.8
411.411	0.82
411.616	0.77
411.82	0.85
412.025	0.86
412.229	0.86
412.434	1
412.638	0.9
412.843	0.89
413.047	0.98
413.252	0.93
413.456	1.03
413.66	1.1
413.865	1.07
414.069	1.18
414.273	1.11
414.478	1.18
414.682	1.21
414.886	1.21
415.091	1.22
415.295	1.24
415.499	1.39
415.703	1.39
415.908	1.48
416.112	1.37
416.316	1.7
416.52	1.64
416.724	1.61
416.929	1.64
417.133	1.87
417.337	1.79
417.541	1.92
417.745	1.88
417.949	1.97
418.153	2.07
418.357	2.1
418.561	2.34
418.765	2.26
418.969	2.41
419.173	2.41
419.377	2.47
419.581	2.75
419.785	2.73
419.989	2.66
420.193	2.86
420.397	2.91
420.601	3.18
420.804	3.19
421.008	3.21
421.212	3.32
421.416	3.33
421.62	3.33
421.823	3.43
422.027	3.64
422.231	3.6
422.435	3.58
422.638	3.67
422.842	3.86
423.046	3.87
423.249	3.98
423.453	4.02
423.657	4.2
423.86	4.27
424.064	4.44
424.268	4.62
424.471	4.59
424.675	4.88
424.878	4.91
425.082	4.91
425.285	5.3
425.489	5.14
425.692	5.31
425.896	5.41
426.099	5.59
426.303	5.78
426.506	5.86
426.71	6.14
426.913	6.4
427.116	6.43
427.32	6.43
427.523	6.54
427.726	6.82
427.93	6.94
428.133	7.24
428.336	7.47
428.54	7.51
428.743	7.74
428.946	8.08
429.149	8.07
429.353	8.09
429.556	8.13
429.759	8.16
429.962	8.34
430.165	8.46
430.368	8.14
430.571	8.14
430.775	8.22
430.978	8.16
431.181	8.22
431.384	8.4
431.587	8.45
431.79	8.85
431.993	8.77
432.196	9.14
432.399	9.35
432.602	9.48
432.805	9.61
433.008	10.1
433.211	10.14
433.414	10.56
433.616	10.43
433.819	10.4
434.022	10.51
434.225	10.64
434.428	10.65
434.631	11.15
434.833	11.02
435.036	11.21
435.239	11.39
435.442	11.48
435.645	11.58
435.847	11.7
436.05	12.12
436.253	12.23
436.455	12.28
436.658	12.02
436.861	12.49
437.063	12.57
437.266	12.56
437.468	12.9
437.671	13.23
437.874	13.27
438.076	13.11
438.279	13.58
438.481	13.59
438.684	14.31
438.886	13.95
439.089	14.27
439.291	14.27
439.494	14.57
439.696	14.78
439.899	15.43
440.101	15.88
440.303	15.88
440.506	16.67
440.708	16.54
440.91	16.66
441.113	16.77
441.315	17.22
441.517	16.86
441.72	17.33
441.922	17.05
442.124	16.95
442.326	17.28
442.529	17.54
442.731	17.49
442.933	17.88
443.135	17.59
443.337	17.57
443.539	18.11
443.742	17.9
443.944	18.52
444.146	18.27
444.348	18.26
444.55	18.01
444.752	18.3
444.954	18.21
445.156	18.08
445.358	18.57
445.56	18.84
445.762	18.55
445.964	18.85
446.166	18.51
446.368	18.6
446.57	18.64
446.772	18.22
446.974	18.06
447.175	18.34
447.377	17.92
447.579	18.47
447.781	18.01
447.983	17.88
448.184	17.35
448.386	17.87
448.588	17.21
448.79	17.22
448.991	17.44
449.193	17.54
449.395	16.88
449.597	16.53
449.798	16.43
450	15.85
450.202	15.8
450.403	15.88
450.605	15.67
450.806	15.23
451.008	15.13
451.21	14.91
451.411	14.46
451.613	13.69
451.814	13.97
452.016	14.03
452.217	13.22
452.419	13.14
452.62	12.93
452.821	12.72
453.023	12.48
453.224	12.11
453.426	11.77
453.627	10.93
453.828	11.08
454.03	11.27
454.231	11.16
454.432	10.91
454.634	10.67
454.835	10.41
455.036	10.23
455.238	9.95
455.439	9.86
455.64	9.43
455.841	9.19
456.042	9.31
456.244	9.1
456.445	8.79
456.646	8.52
456.847	8.5
457.048	8.41
457.249	8.41
457.45	8.18
457.651	7.56
457.852	7.48
458.054	7.26
458.255	7.18
458.456	7.31
458.657	7.16
458.858	6.65
459.058	6.6
459.259	6.66
459.46	6.29
459.661	6.33
459.862	6.47
460.063	6.28
460.264	6.19
460.465	5.93
460.666	6.04
460.866	5.72
461.067	5.43
461.268	5.46
461.469	5.44
461.67	5.41
461.87	5.18
462.071	5.19
462.272	5.1
462.473	4.97
462.673	5.27
462.874	5.05
463.075	5.12
463.275	5.1
463.476	5.08
463.676	5.06
463.877	4.85
464.078	4.96
464.278	4.97
464.479	4.81
464.679	4.64
464.88	4.61
465.08	4.66
465.281	4.48
465.481	4.27
465.682	4.07
465.882	4.09
466.083	4.03
466.283	4
466.483	3.85
466.684	3.73
466.884	3.59
467.085	3.61
467.285	3.75
467.485	3.58
467.686	3.49
467.886	3.36
468.086	3.37
468.286	3.32
468.487	3.39
468.687	3.25
468.887	3.17
469.087	3.35
469.287	3.19
469.488	3.02
469.688	3.15
469.888	3.18
470.088	3.06
470.288	3.02
470.488	3.03
470.688	2.8
470.888	2.83
471.088	2.62
471.288	2.79
471.488	2.74
471.688	2.72
471.888	2.67
472.088	2.82
472.288	2.75
472.488	2.61
472.688	2.59
472.888	2.59
473.088	2.61
473.288	2.44
473.488	2.4
473.688	2.59
473.887	2.4
474.087	2.34
474.287	2.42
474.487	2.35
474.687	2.39
474.886	2.27
475.086	2.3
475.286	2.26
475.486	2.26
475.685	2.22
475.885	2.18
476.085	2.24
476.284	2.3
476.484	2.25
476.684	2.15
476.883	2.21
477.083	2.19
477.282	2.13
477.482	2.18
477.681	2.12
477.881	2.06
478.08	2.11
478.28	2.03
478.479	2.08
478.679	2.18
478.878	2.09
479.078	2.02
479.277	2.08
479.477	2.03
479.676	2.02
479.875	1.95
480.075	1.93
480.274	2.01
480.473	2.02
480.673	1.96
480.872	2.05
481.071	2.07
481.271	2.03
481.47	1.97
481.669	1.96
481.868	1.97
482.067	1.97
482.267	1.91
482.466	1.89
482.665	1.91
482.864	1.95
483.063	1.91
483.262	1.99
483.461	2.04
483.661	2.03
483.86	2.02
484.059	2.07
484.258	2.05
484.457	1.99
484.656	2.02
484.855	2.03
485.054	1.92
485.253	2.02
485.452	1.99
485.651	2.08
485.849	2
486.048	1.99
486.247	2.02
486.446	2.06
486.645	2.04
486.844	2.06
487.043	2.01
487.241	2.06
487.44	2.08
487.639	2.14
487.838	2.14
488.037	2.09
488.235	2.18
488.434	2.17
488.633	2.06
488.831	2.21
489.03	2.23
489.229	2.2
489.427	2.18
489.626	2.27
489.825	2.29
490.023	2.28
490.222	2.26
490.42	2.32
490.619	2.32
490.817	2.36
491.016	2.37
491.214	2.4
491.413	2.38
491.611	2.36
491.81	2.42
492.008	2.49
492.207	2.57
492.405	2.54
492.604	2.44
492.802	2.54
493	2.6
493.199	2.64
493.397	2.64
493.595	2.72
493.794	2.7
493.992	2.76
494.19	2.72
494.388	2.84
494.587	2.73
494.785	2.77
494.983	2.71
495.181	2.88
495.379	2.92
495.578	2.97
495.776	2.98
495.974	2.93
496.172	2.94
496.37	3.07
496.568	3.1
496.766	3.07
496.964	3.17
497.162	3.25
497.36	3.2
497.558	3.21
497.756	3.28
497.954	3.26
498.152	3.38
498.35	3.45
498.548	3.33
498.746	3.4
498.944	3.42
499.142	3.45
499.34	3.57
499.538	3.62
499.736	3.49
499.933	3.64
500.131	3.61
500.329	3.78
500.527	3.78
500.725	3.9
500.922	3.92
501.12	3.87
501.318	3.98
501.516	3.96
501.713	3.99
501.911	4.01
502.109	3.96
502.306	4.08
502.504	4.01
502.701	4.12
502.899	4.14
503.097	4.32
503.294	4.2
503.492	4.34
503.689	4.42
503.887	4.37
504.084	4.5
504.282	4.44
504.479	4.38
504.677	4.63
504.874	4.57
505.072	4.49
505.269	4.7
505.466	4.67
505.664	4.73
505.861	4.61
506.059	4.77
506.256	4.83
506.453	4.86
506.651	5
506.848	5
507.045	4.99
507.242	4.93
507.44	5
507.637	5.16
507.834	5.06
508.031	5.2
508.229	5.15
508.426	5.11
508.623	5.27
508.82	5.3
509.017	5.3
509.214	5.29
509.411	5.45
509.608	5.37
509.805	5.5
510.003	5.49
510.2	5.48
510.397	5.67
510.594	5.53
510.791	5.62
510.988	5.68
511.184	5.67
511.381	5.5
511.578	5.7
511.775	5.84
511.972	5.77
512.169	5.83
512.366	5.82
512.563	5.98
512.76	5.98
512.956	6.03
513.153	6.02
513.35	5.92
513.547	5.93
513.744	6.06
513.94	6.04
514.137	6.18
514.334	6.19
514.53	6.2
514.727	6.42
514.924	6.33
515.12	6.28
515.317	6.28
515.514	6.26
515.71	6.21
515.907	6.46
516.103	6.51
516.3	6.35
516.497	6.54
516.693	6.5
516.89	6.5
517.086	6.54
517.283	6.54
517.479	6.44
517.676	6.63
517.872	6.68
518.068	6.69
518.265	6.64
518.461	6.52
518.658	6.73
518.854	6.74
519.05	6.81
519.247	6.85
519.443	6.82
519.639	6.94
519.836	6.8
520.032	6.77
520.228	6.91
520.424	6.96
520.621	6.93
520.817	7.01
521.013	6.92
521.209	7.13
521.405	7.07
521.601	7.1
521.798	6.98
521.994	7.06
522.19	7.03
522.386	7.03
522.582	7.16
522.778	7.27
522.974	7.08
523.17	7.17
523.366	7.11
523.562	7.26
523.758	7.23
523.954	7.14
524.15	7.24
524.346	7.31
524.542	7.33
524.738	7.21
524.934	7.4
525.129	7.28
525.325	7.29
525.521	7.29
525.717	7.47
525.913	7.35
526.109	7.36
526.304	7.44
526.5	7.48
526.696	7.46
526.892	7.4
527.087	7.65
527.283	7.54
527.479	7.53
527.674	7.4
527.87	7.58
528.066	7.5
528.261	7.61
528.457	7.46
528.653	7.6
528.848	7.63
529.044	7.7
529.239	7.54
529.435	7.54
529.63	7.56
529.826	7.6
530.021	7.62
530.217	7.66
530.412	7.6
530.608	7.66
530.803	7.62
530.999	7.62
531.194	7.7
531.389	7.69
531.585	7.72
531.78	7.84
531.975	7.72
532.171	7.83
532.366	7.81
532.561	7.76
532.757	7.71
532.952	7.88
533.147	7.74
533.342	7.77
533.538	7.71
533.733	7.95
533.928	7.61
534.123	7.81
534.318	7.86
534.513	7.78
534.709	7.9
534.904	7.85
535.099	7.93
535.294	7.9
535.489	7.96
535.684	7.88
535.879	7.92
536.074	7.98
536.269	7.92
536.464	7.97
536.659	7.94
536.854	7.91
537.049	8
537.244	7.92
537.439	7.92
537.634	7.95
537.828	8.01
538.023	8.01
538.218	7.99
538.413	7.87
538.608	7.98
538.803	7.97
538.997	7.88
539.192	7.99
539.387	7.91
539.582	7.88
539.776	7.88
539.971	8
540.166	8.08
540.36	7.97
540.555	8.09
540.75	8.02
540.944	8.01
541.139	8.04
541.334	8.03
541.528	7.98
541.723	8.12
541.917	8.12
542.112	7.94
542.306	7.88
542.501	7.97
542.695	7.98
542.89	7.96
543.084	8.04
543.279	8.06
543.473	8.11
543.668	8.12
543.862	7.94
544.056	7.99
544.251	8.05
544.445	8.12
544.64	8.16
544.834	7.82
545.028	7.77
545.222	8.09
545.417	8.2
545.611	8.16
545.805	8.06
546	7.84
546.194	8.09
546.388	8.17
546.582	8.04
546.776	8.08
546.97	8.11
547.165	8.11
547.359	8.05
547.553	7.99
547.747	8.06
547.941	8.29
548.135	8.05
548.329	8.11
548.523	8.14
548.717	8.08
548.911	8.04
549.105	8.01
549.299	8.08
549.493	8.18
549.687	7.97
549.881	8.18
550.075	8.11
550.269	7.99
550.463	8.13
550.657	8.15
550.85	8.06
551.044	8.07
551.238	8.16
551.432	8.13
551.626	8.18
551.82	8.17
552.013	8.03
552.207	8.19
552.401	8.16
552.594	8.1
552.788	8
552.982	8.02
553.176	8.09
553.369	8.27
553.563	8.23
553.756	8.09
553.95	8.14
554.144	8.21
554.337	8.2
554.531	7.96
554.724	8.15
554.918	8.2
555.111	8.04
555.305	8.18
555.498	8.06
555.692	8.21
555.885	8.17
556.079	8.07
556.272	8.13
556.466	8.14
556.659	8.07
556.852	8.19
557.046	8.09
557.239	7.94
557.432	8.1
557.626	8.21
557.819	8.2
558.012	8.19
558.206	8.26
558.399	8.17
558.592	8.1
558.785	8.08
558.979	8.15
559.172	8.18
559.365	8.13
559.558	8.03
559.751	8.03
559.944	8.19
560.138	8.09
560.331	8.1
560.524	8.18
560.717	8.12
560.91	8.14
561.103	8.2
561.296	8
561.489	8.21
561.682	8.22
561.875	8.18
562.068	8.29
562.261	8.03
562.454	8.27
562.647	8.08
562.84	8.14
563.032	8.1
563.225	8.02
563.418	8.09
563.611	8.19
563.804	8.19
563.997	7.94
564.19	7.93
564.382	8.2
564.575	8.13
564.768	8.04
564.961	8.18
565.153	8.07
565.346	8.02
565.539	8.19
565.731	8.04
565.924	8.21
566.117	8.28
566.309	8.17
566.502	8.11
566.695	8.06
566.887	8.14
567.08	8.1
567.272	8.19
567.465	8.01
567.657	8.15
567.85	8.01
568.042	8.14
568.235	8.13
568.427	7.98
568.62	8.09
568.812	8.11
569.005	8.11
569.197	8.04
569.389	8.1
569.582	8.04
569.774	8.09
569.966	7.99
570.159	8.01
570.351	7.99
570.543	8.01
570.736	8.05
570.928	7.9
571.12	8.04
571.312	7.94
571.505	7.85
571.697	8.05
571.889	8.01
572.081	8.01
572.273	7.99
572.465	8.06
572.658	8.03
572.85	8.09
573.042	8.04
573.234	7.93
573.426	7.94
573.618	7.96
573.81	8.04
574.002	7.99
574.194	8.05
574.386	7.94
574.578	7.83
574.77	7.98
574.962	7.92
575.154	7.82
575.346	7.84
575.538	7.83
575.729	7.82
575.921	8.01
576.113	7.97
576.305	7.96
576.497	7.98
576.689	7.76
576.88	7.79
577.072	8
577.264	7.95
577.456	7.91
577.647	7.83
577.839	8
578.031	7.88
578.223	7.8
578.414	7.71
578.606	7.83
578.798	7.94
578.989	7.83
579.181	7.91
579.372	7.85
579.564	7.88
579.755	7.85
579.947	7.78
580.139	7.87
580.33	7.68
580.522	7.82
580.713	7.73
580.905	7.77
581.096	7.83
581.287	7.75
581.479	7.74
581.67	7.79
581.862	7.76
582.053	7.7
582.244	7.63
582.436	7.8
582.627	7.67
582.818	7.64
583.01	7.63
583.201	7.8
583.392	7.69
583.583	7.61
583.775	7.47
583.966	7.55
584.157	7.66
584.348	7.68
584.54	7.53
584.731	7.67
584.922	7.59
585.113	7.45
585.304	7.57
585.495	7.68
585.686	7.69
585.877	7.66
586.068	7.72
586.259	7.58
586.45	7.54
586.641	7.54
586.832	7.59
587.023	7.48
587.214	7.51
587.405	7.64
587.596	7.46
587.787	7.41
587.978	7.55
588.169	7.41
588.36	7.38
588.551	7.46
588.742	7.46
588.932	7.46
589.123	7.31
589.314	7.47
589.505	7.41
589.696	7.43
589.886	7.37
590.077	7.41
590.268	7.32
590.458	7.24
590.649	7.15
590.84	7.35
591.03	7.32
591.221	7.28
591.412	7.15
591.602	7.39
591.793	7.27
591.984	7.34
592.174	7.26
592.365	7.45
592.555	7.09
592.746	7.17
592.936	7.16
593.127	7.22
593.317	7.19
593.508	7.22
593.698	7.09
593.889	7.1
594.079	7.14
594.269	7.01
594.46	7.05
594.65	7.11
594.84	7.12
595.031	6.99
595.221	7
595.411	7.05
595.602	7.06
595.792	6.96
595.982	6.92
596.172	7.1
596.363	6.99
596.553	6.97
596.743	6.98
596.933	6.97
597.123	6.89
597.314	6.68
597.504	6.77
597.694	6.97
597.884	6.81
598.074	6.89
598.264	6.82
598.454	6.85
598.644	6.79
598.834	6.8
599.024	6.65
599.214	6.73
599.404	6.77
599.594	6.8
599.784	6.67
599.974	6.74
600.164	6.7
600.354	6.66
600.544	6.56
600.734	6.69
600.924	6.63
601.114	6.5
601.303	6.52
601.493	6.6
601.683	6.63
601.873	6.55
602.063	6.46
602.252	6.53
602.442	6.4
602.632	6.51
602.821	6.36
603.011	6.56
603.201	6.47
603.39	6.42
603.58	6.29
603.77	6.4
603.959	6.49
604.149	6.32
604.339	6.41
604.528	6.47
604.718	6.41
604.907	6.28
605.097	6.28
605.286	6.28
605.476	6.25
605.665	6.28
605.855	6.2
606.044	6.32
606.234	6.24
606.423	6.18
606.612	6.18
606.802	6.14
606.991	6.16
607.181	6.17
607.37	6.13
607.559	5.95
607.749	6.17
607.938	6.06
608.127	6.08
608.316	6.04
608.506	6.05
608.695	6.08
608.884	5.99
609.073	6.06
609.263	6.05
609.452	5.99
609.641	5.88
609.83	5.84
610.019	5.97
610.208	5.86
610.397	5.84
610.586	5.87
610.775	5.8
610.965	5.79
611.154	5.73
611.343	5.87
611.532	5.7
611.721	5.85
611.91	5.7
612.099	5.72
612.287	5.66
612.476	5.64
612.665	5.74
612.854	5.64
613.043	5.69
613.232	5.58
613.421	5.58
613.61	5.57
613.798	5.56
613.987	5.6
614.176	5.56
614.365	5.61
614.554	5.59
614.742	5.54
614.931	5.39
615.12	5.54
615.309	5.48
615.497	5.36
615.686	5.33
615.875	5.39
616.063	5.38
616.252	5.36
616.44	5.35
616.629	5.34
616.818	5.34
617.006	5.34
617.195	5.24
617.383	5.2
617.572	5.2
617.76	5.16
617.949	5.19
618.137	5.32
618.326	5.29
618.514	4.98
618.703	4.97
618.891	5.2
619.079	5.05
619.268	5.14
619.456	5.03
619.644	5.13
619.833	5.02
620.021	4.98
620.209	4.86
620.398	5.02
620.586	4.89
620.774	5.03
620.962	4.93
621.151	5.07
621.339	4.92
621.527	4.91
621.715	4.88
621.903	4.9
622.092	4.82
622.28	4.93
622.468	4.67
622.656	4.86
622.844	4.76
623.032	4.8
623.22	4.65
623.408	4.84
623.596	4.8
623.784	4.78
623.972	4.64
624.16	4.7
624.348	4.78
624.536	4.73
624.724	4.52
624.912	4.65
625.1	4.69
625.288	4.6
625.476	4.53
625.664	4.68
625.851	4.53
626.039	4.59
626.227	4.48
626.415	4.54
626.603	4.44
626.79	4.47
626.978	4.4
627.166	4.5
627.354	4.35
627.541	4.34
627.729	4.26
627.917	4.48
628.104	4.46
628.292	4.32
628.48	4.31
628.667	4.28
628.855	4.35
629.042	4.37
629.23	4.21
629.418	4.28
629.605	4.3
629.793	4.18
629.98	4.18
630.168	4.19
630.355	4.23
630.543	4.11
630.73	4.03
630.917	4.14
631.105	4.25
631.292	4.12
631.48	4.07
631.667	4.26
631.854	4.07
632.042	4.1
632.229	3.97
632.416	4.02
632.604	4
632.791	3.84
632.978	4
633.165	3.97
633.353	4.03
633.54	3.97
633.727	3.85
633.914	3.84
634.101	3.8
634.289	3.94
634.476	3.86
634.663	3.8
634.85	3.81
635.037	3.79
635.224	3.67
635.411	3.82
635.598	3.75
635.785	3.71
635.972	3.75
636.159	3.73
636.346	3.67
636.533	3.66
636.72	3.65
636.907	3.67
637.094	3.65
637.281	3.52
637.468	3.6
637.655	3.62
637.842	3.58
638.029	3.51
638.215	3.6
638.402	3.52
638.589	3.44
638.776	3.44
638.963	3.39
639.149	3.51
639.336	3.61
639.523	3.44
639.709	3.4
639.896	3.44
640.083	3.39
640.27	3.39
640.456	3.31
640.643	3.39
640.829	3.24
641.016	3.33
641.203	3.24
641.389	3.31
641.576	3.33
641.762	3.28
641.949	3.21
642.135	3.3
642.322	3.2
642.508	3.15
642.695	3.24
642.881	3.16
643.068	3.13
643.254	3.15
643.441	3.13
643.627	3.21
643.813	3.06
644	3.14
644.186	3.09
644.372	3.13
644.559	3.06
644.745	3.02
644.931	2.97
645.118	3.08
645.304	3.02
645.49	3.01
645.676	3.01
645.862	2.98
646.049	3.01
646.235	2.96
646.421	3.12
646.607	3.05
646.793	2.95
646.979	2.89
647.165	2.91
647.352	2.93
647.538	2.9
647.724	2.88
647.91	2.81
648.096	2.84
648.282	2.87
648.468	2.8
648.654	2.81
648.84	2.88
649.026	2.82
649.212	2.74
649.397	2.75
649.583	2.71
649.769	2.78
649.955	2.74
650.141	2.73
650.327	2.74
650.513	2.64
650.698	2.67
650.884	2.55
651.07	2.72
651.256	2.62
651.442	2.65
651.627	2.51
651.813	2.63
651.999	2.57
652.184	2.58
652.37	2.53
652.556	2.53
652.741	2.58
652.927	2.43
653.113	2.51
653.298	2.51
653.484	2.47
653.669	2.46
653.855	2.44
654.04	2.45
654.226	2.52
654.412	2.41
654.597	2.31
654.782	2.43
654.968	2.52
655.153	2.44
655.339	2.39
655.524	2.34
655.71	2.44
655.895	2.36
656.08	2.35
656.266	2.41
656.451	2.4
656.636	2.29
656.822	2.32
657.007	2.35
657.192	2.33
657.378	2.22
657.563	2.25
657.748	2.29
657.933	2.29
658.118	2.22
658.304	2.17
658.489	2.24
658.674	2.24
658.859	2.16
659.044	2.22
659.229	2.25
659.414	2.17
659.599	2.18
659.785	2.06
659.97	2.15
660.155	2.14
660.34	2.16
660.525	2.12
660.71	2.04
660.895	2.13
661.08	2.04
661.264	2.03
661.449	2.15
661.634	2.1
661.819	2.09
662.004	2.06
662.189	1.94
662.374	2
662.559	1.93
662.743	1.89
662.928	2.03
663.113	1.96
663.298	1.93
663.483	1.95
663.667	1.97
663.852	1.89
664.037	1.94
664.221	1.88
664.406	1.93
664.591	1.96
664.775	1.95
664.96	1.93
665.145	1.85
665.329	1.97
665.514	1.89
665.698	1.85
665.883	1.77
666.068	1.94
666.252	1.81
666.437	1.79
666.621	1.84
666.806	1.79
666.99	1.82
667.174	1.73
667.359	1.89
667.543	1.74
667.728	1.74
667.912	1.66
668.096	1.77
668.281	1.75
668.465	1.74
668.649	1.75
668.834	1.69
669.018	1.73
669.202	1.72
669.387	1.69
669.571	1.73
669.755	1.69
669.939	1.67
670.124	1.65
670.308	1.71
670.492	1.72
670.676	1.67
670.86	1.59
671.044	1.57
671.228	1.68
671.413	1.56
671.597	1.56
671.781	1.56
671.965	1.64
672.149	1.55
672.333	1.56
672.517	1.54
672.701	1.64
672.885	1.51
673.069	1.45
673.253	1.65
673.437	1.57
673.621	1.49
673.804	1.51
673.988	1.53
674.172	1.49
674.356	1.39
674.54	1.51
674.724	1.59
674.908	1.47
675.091	1.54
675.275	1.52
675.459	1.55
675.643	1.55
675.826	1.47
676.01	1.4
676.194	1.44
676.377	1.45
676.561	1.52
676.745	1.49
676.928	1.48
677.112	1.53
677.296	1.45
677.479	1.4
677.663	1.37
677.846	1.42
678.03	1.37
678.213	1.31
678.397	1.42
678.58	1.37
678.764	1.38
678.947	1.31
679.131	1.37
679.314	1.44
679.498	1.33
679.681	1.42
679.865	1.41
680.048	1.32
680.231	1.33
680.415	1.26
680.598	1.28
680.781	1.27
680.965	1.32
681.148	1.28
681.331	1.22
681.514	1.31
681.698	1.23
681.881	1.21
682.064	1.3
682.247	1.28
682.43	1.17
682.614	1.26
682.797	1.32
682.98	1.28
683.163	1.17
683.346	1.27
683.529	1.18
683.712	1.16
683.895	1.2
684.078	1.14
684.261	1.19
684.444	1.23
684.627	1.21
684.81	1.1
684.993	1.16
685.176	1.25
685.359	1.11
685.542	1.1
685.725	1.26
685.908	1.18
686.091	1.14
686.274	1.19
686.457	1.18
686.639	1.16
686.822	1.19
687.005	1.14
687.188	1.18
687.371	1.24
687.553	1.16
687.736	1.13
687.919	1.3
688.102	1.17
688.284	1.06
688.467	1.12
688.65	1.1
688.832	1.04
689.015	1.05
689.197	0.92
689.38	1.14
689.563	1.21
689.745	0.99
689.928	1.02
690.11	1.09
690.293	1.12
690.475	0.97
690.658	1.04
690.84	1.08
691.023	1
691.205	0.99
691.388	1.01
691.57	1.13
691.752	1.05
691.935	0.88
692.117	0.96
692.3	1.05
692.482	0.95
692.664	0.97
692.847	0.96
693.029	1.05
693.211	1.04
693.393	0.95
693.576	0.94
693.758	1.01
693.94	0.92
694.122	0.93
694.304	0.93
694.487	0.89
694.669	1.03
694.851	0.84
695.033	0.92
695.215	0.9
695.397	0.88
695.579	0.92
695.761	0.9
695.943	0.8
696.125	1
696.308	0.93
696.49	0.7
696.671	1.08
696.853	0.95
697.035	1.2
697.217	0.88
697.399	0.95
697.581	0.85
697.763	0.88
697.945	0.79
698.127	0.93
698.309	0.99
698.491	0.86
698.672	0.87
698.854	0.91
699.036	0.96
699.218	0.95
699.399	0.89
699.581	0.94
699.763	0.86
699.945	0.75
700.126	0.69
700.308	0.81
700.49	0.88
700.671	0.76
700.853	0.78
701.035	0.79
701.216	0.87
701.398	0.76
701.579	0.77
701.761	0.9
701.943	0.78
702.124	0.75
702.306	0.79
702.487	1
702.669	0.72
702.85	0.71
703.031	0.71
703.213	0.92
703.394	0.87
703.576	0.77
703.757	0.96
703.938	0.88
704.12	0.94
704.301	0.76
704.483	0.73
704.664	0.78
704.845	0.88
705.026	0.81
705.208	0.69
705.389	0.8
705.57	0.76
705.751	0.7
705.933	0.75
706.114	0.87
706.295	0.75
706.476	0.61
706.657	0.79
706.838	0.81
707.02	0.84
707.201	0.69
707.382	0.67
707.563	0.77
707.744	0.68
707.925	0.61
708.106	0.67
708.287	0.69
708.468	0.86
708.649	0.75
708.83	0.72
709.011	0.66
709.192	0.8
709.373	0.63
709.554	0.73
709.734	0.73
709.915	0.81
710.096	0.75
710.277	0.52
710.458	0.69
710.639	0.72
710.819	0.57
711	0.67
711.181	0.77
711.362	0.75
711.542	0.64
711.723	0.68
711.904	0.75
712.085	0.74
712.265	0.66
712.446	0.52
712.627	0.66
712.807	0.65
712.988	0.65
713.168	0.51
713.349	0.72
713.53	0.55
713.71	0.57
713.891	0.52
714.071	0.63
714.252	0.52
714.432	0.61
714.613	0.5
714.793	0.61
714.974	0.73
715.154	0.7
715.334	0.69
715.515	0.75
715.695	0.52
715.876	0.66
716.056	0.64
716.236	0.6
716.417	0.57
716.597	0.51
716.777	0.82
716.957	0.61
717.138	0.6
717.318	0.59
717.498	0.45
717.678	0.63
717.859	0.66
718.039	0.48
718.219	0.63
718.399	0.59
718.579	0.54
718.759	0.47
718.939	0.63
719.12	0.59
719.3	0.58
719.48	0.46
719.66	0.47
719.84	0.64
720.02	0.57
720.2	0.52
720.38	0.52
720.56	0.74
720.74	0.46
720.92	0.53
721.1	0.68
721.279	0.62
721.459	0.53
721.639	0.34
721.819	0.54
721.999	0.54
722.179	0.61
722.359	0.46
722.538	0.49
722.718	0.57
722.898	0.42
723.078	0.56
723.257	0.44
723.437	0.57
723.617	0.57
723.797	0.51
723.976	0.56
724.156	0.63
724.336	0.66
724.515	0.75
724.695	0.41
724.874	0.57
725.054	0.64
725.234	0.5
725.413	0.5
725.593	0.51
725.772	0.53
725.952	0.45
726.131	0.48
726.311	0.48
726.49	0.5
726.67	0.46
726.849	0.37
727.028	0.54
727.208	0.44
727.387	0.55
727.567	0.33
727.746	0.58
727.925	0.49
728.105	0.49
728.284	0.45
728.463	0.52
728.643	0.53
728.822	0.44
729.001	0.43
729.18	0.52
729.359	0.59
729.539	0.44
729.718	0.45
729.897	0.56
730.076	0.42
730.255	0.32
730.434	0.42
730.614	0.66
730.793	0.6
730.972	0.46
731.151	0.53
731.33	0.62
731.509	0.59
731.688	0.56
731.867	0.52
732.046	0.35
732.225	0.72
732.404	0.39
732.583	0.38
732.762	0.47
732.941	0.48
733.12	0.48
733.298	0.47
733.477	0.74
733.656	0.46
733.835	0.36
734.014	0.69
734.193	0.45
734.371	0.52
734.55	0.5
734.729	0.26
734.908	0.54
735.086	0.46
735.265	0.56
735.444	0.28
735.623	0.37
735.801	0.48
735.98	0.37
736.159	0.44
736.337	0.61
736.516	0.55
736.694	0.42
736.873	0.39
737.052	0.67
737.23	0.66
737.409	0.48
737.587	0.78
737.766	0.28
737.944	0.5
738.123	0.5
738.301	0.53
738.479	0.53
738.658	0.57
738.836	0.29
739.015	0.49
739.193	0.77
739.371	0.3
739.55	0.42
739.728	0.42
739.906	0.61
740.085	0.6
740.263	0.41
740.441	0.32
740.62	0.74
740.798	0.61
740.976	0.39
741.154	0.31
741.332	0.63
741.511	0.35
741.689	0.44
741.867	0.61
742.045	0.5
742.223	0.41
742.401	0.4
742.579	0.41
742.757	0.5
742.935	0.34
743.114	0.49
743.292	0.48
743.47	0.48
743.648	0.52
743.826	0.53
744.004	0.64
744.181	0.57
744.359	0.44
744.537	0.51
744.715	0.4
744.893	0.49
745.071	0.51
745.249	0.44
745.427	0.47
745.605	0.47
745.782	0.53
745.96	0.5
746.138	0.59
746.316	0.61
746.493	0.36
746.671	0.44
746.849	0.39
747.027	0.63
747.204	0.31
747.382	0.5
747.56	0.28
747.737	0.46
747.915	0.39
748.093	0.44
748.27	0.32
748.448	0.52
748.625	0.25
748.803	0.48
748.98	0.39
749.158	0.44
749.335	0.57
749.513	0.43
749.69	0.26
749.868	0.34
750.045	0.39
750.223	0.33
750.4	0.32
750.578	0.59
750.755	0.47
750.932	0.23
751.11	0.6
751.287	0.35
751.464	0.58
751.642	0.28
751.819	0.48
751.996	0.48
752.173	0.35
752.351	0.37
752.528	0.49
752.705	0.42
752.882	0.33
753.06	0.41
753.237	0.52
753.414	0.64
753.591	0.71
753.768	0.43
753.945	0.4
754.122	0.32
754.299	0.56
754.476	0.29
754.654	0.45
754.831	0.54
755.008	0.59
755.185	0.32
755.362	0.32
755.539	0.45
755.716	0.47
755.892	0.3
756.069	0.32
756.246	0.45
756.423	0.41
756.6	0.55
756.777	0.28
756.954	0.57
757.131	0.36
757.307	0.35
757.484	0.31
757.661	0.37
757.838	0.43
758.015	0.22
758.191	0.43
758.368	0.43
758.545	0.64
758.721	0.43
758.898	0.19
759.075	0.47
759.251	0.53
759.428	0.44
759.605	0.27
759.781	0.3
759.958	0.39
760.134	0.39
760.311	0.34
760.488	0.61
760.664	0.65
760.841	0.43
761.017	0.28
761.194	0.4
761.37	0.51
761.547	0.44
761.723	0.38
761.899	0.53
762.076	0.29
762.252	0.2
762.429	0.28
762.605	0.58
762.781	0.37
762.958	0.4
763.134	0.27
763.31	0.28
763.486	0.61
763.663	0.08
763.839	0.35
764.015	0.14
764.191	0.28
764.368	0.26
764.544	0.23
764.72	0.41
764.896	0.39
765.072	0.47
765.248	0.34
765.425	0.35
765.601	0.53
765.777	0.34
765.953	0.11
766.129	0.34
766.305	0.28
766.481	0.5
766.657	0.4
766.833	0.57
767.009	0.13
767.185	0.26
767.361	0.41
767.537	0.32
767.713	0.63
767.889	0.27
768.065	0.29
768.24	0.24
768.416	0.43
768.592	0.29
768.768	0.38
768.944	0.5
769.12	0.24
769.295	0.43
769.471	0.3
769.647	0.34
769.823	0.66
769.998	0.28
770.174	0.22
770.35	0.75
770.525	0.84
770.701	0.37
770.877	0.49
771.052	0.17
771.228	0.65
771.403	0.36
771.579	0.46
771.755	0.71
771.93	0.35
772.106	0.27
772.281	-0.03
772.457	0.41
772.632	0.5
772.808	0.17
772.983	0.25
773.159	0.15
773.334	0.6
773.509	0.36
773.685	0.26
773.86	0.79
774.036	0.68
774.211	0.48
774.386	0.39
774.562	0.42
774.737	0.77
774.912	0.28
775.087	0.45
775.263	0.38
775.438	0.41
775.613	0.3
775.788	0.43
775.964	0.68
776.139	0.79
776.314	0.21
776.489	0.5
776.664	0.44
776.839	0.32
777.014	0.49
777.19	0.5
777.365	0.67
777.54	0.74
777.715	0.2
777.89	0.47
778.065	0.1
778.24	0.46
778.415	0.55
778.59	0.21
778.765	0.32
778.94	0.41
779.115	0.26
779.289	0.4
779.464	0.3
779.639	0.31
779.814	0.19
779.989	0.24
780.164	0.52
780.339	0.37
780.513	0.16
780.688	0.22
780.863	0.45
781.038	0.61
781.212	0.25
781.387	0.47
781.562	0.64
781.737	0.33
781.911	0.52
782.086	0.27
782.261	0.33
782.435	0.69
782.61	0.32
782.784	0.38
782.959	0.71
783.134	0.43
783.308	0.18
783.483	0.34
783.657	0.94
783.832	0.74
784.006	0.22
784.181	0.54
784.355	0.58
784.53	0.34
784.704	0.17
784.878	0.74
785.053	0.81
785.227	0.75
785.402	0.98
785.576	0.4
785.75	0.42
785.925	0.36
786.099	0.46
786.273	0.42
786.448	0.83
786.622	0.7
786.796	0.44
786.97	0.48
787.145	1.07
787.319	-0.1
787.493	0.34
787.667	0.01
787.841	0.35
788.015	0.81
788.19	0.42
788.364	0.46
788.538	0.64
788.712	0.43
788.886	0.41
789.06	0.7
789.234	0.74
789.408	0.19
789.582	0.36
789.756	0.31
789.93	0.2
790.104	0.31
790.278	0.27
790.452	0.49
790.626	0.38
790.8	0.28
790.973	0.49
791.147	0.88
791.321	1.01
791.495	0.88
791.669	0.42
791.843	0.59
792.016	0.74
792.19	0.97
792.364	0.3
792.538	1.1
792.711	0.73
792.885	0.37
793.059	0.25
793.233	-0.25
793.406	0.59
793.58	0.53
793.754	0.56
793.927	0.73
794.101	0.97
794.274	0.59
794.448	0.77
794.622	0.31
794.795	0.9
794.969	0.32
795.142	0.75
795.316	0.57
795.489	0.27
795.663	0.92
795.836	0.52
796.009	0.36
796.183	0.97
796.356	0.63
796.53	0.51
796.703	0.48
796.876	1.19
797.05	0.55
797.223	0.45
797.396	0.62
797.57	0.59
797.743	0.94
797.916	0.52
798.09	0.5
798.263	0.85
798.436	0.5
798.609	0.27
798.782	0.53
798.956	0.58
799.129	0.65
799.302	0.53
799.475	0.25
799.648	0.28
799.821	0.22
799.994	0.71
800.167	0.08
800.34	0.35
800.514	0.56
800.687	0.44
800.86	0.55
801.033	0.68
801.206	1.26
801.379	0.11
801.551	0.9
801.724	0.84
801.897	1.11
802.07	0.41
802.243	-0.31
802.416	0.46
802.589	0.61
802.762	0.84
802.935	0.61
803.107	1.09
803.28	0.94
803.453	0.81
803.626	0.25
803.798	0.67
803.971	0.2
804.144	0.65
804.317	0.33
804.489	0.99
804.662	0.56
804.835	0.63
805.007	0.33
805.18	1.01
805.353	0.53
805.525	0.14
805.698	0.43
805.87	0.79
806.043	0.89
806.215	0.36
806.388	0.51
806.56	0.65
806.733	1.15
806.905	0.34
807.078	0.38
807.25	0.63
807.423	0.57
807.595	0.45
807.768	0.46
807.94	0.75
808.112	0.58
808.285	0.8
808.457	0.32
808.629	0.95
808.802	1.02
808.974	0.67
809.146	0.04
809.318	0.21
809.491	0.62
809.663	0.73
809.835	0.12
810.007	0.67
810.18	0.68
810.352	0.15
810.524	0.32
810.696	0.96
810.868	0.99
811.04	0.64
811.212	0.56
811.384	1.13
811.556	0.7
811.728	0.6
811.901	1.67
812.073	0.38
812.245	1.4
812.417	0.44
812.589	0.14
812.76	1.1
812.932	0.79
813.104	0.68
813.276	0.59
813.448	1.2
813.62	0.93
813.792	0.79
813.964	0.79
814.136	1.06
814.307	0.73
814.479	0.54
814.651	0.48
814.823	1.42
814.995	0.56
815.166	0.73
815.338	0.08
815.51	0.08
815.681	1.6
815.853	1.1
816.025	0.56
816.196	1.45
816.368	1.4
816.54	-0.06
816.711	-0.05
816.883	1.21
817.054	1.83
817.226	-0.05
817.398	0.85
817.569	0.36
817.741	0.89
817.912	0.54
818.084	0.15
818.255	1.53
818.426	0.29
818.598	0.36
818.769	0.11
818.941	0.91
819.112	1.76
819.283	1
819.455	0.1
819.626	1.18
819.798	0.95
819.969	0.97
820.14	0.25
820.311	0.9
820.483	1.14
820.654	1.05
820.825	0.85
820.996	0.77
821.168	0.16
821.339	0.65
821.51	0.08
821.681	0.33
821.852	0.92
822.023	0.53
822.195	0.39
822.366	1.33
822.537	0.69
822.708	0.91
822.879	0.55
823.05	1.86
823.221	0.42
823.392	1.17
823.563	0.9
823.734	0.49
823.905	0.86
824.076	0.27
824.247	0.1
824.418	0.92
824.589	1.88
824.759	1.19
824.93	0.72
825.101	-0.22
825.272	1.63
825.443	1.31
825.614	1.19
825.784	-0.18
825.955	1.81
826.126	1.1
826.297	1.33
826.467	1.59
826.638	2.24
826.809	-0.1
826.98	0.76
827.15	1.13
827.321	0.21
827.492	1.59
827.662	0.73
827.833	2.24
828.003	1.4
828.174	0.5
828.345	0.15
828.515	1.79
828.686	1.25
828.856	0.45
829.027	0.71
829.197	1.53
829.368	0.67
829.538	0.74
829.709	0.43
829.879	1.06
830.049	0.92
830.22	0.75
830.39	0.28
830.56	2.16
830.731	0.93
830.901	0.28
831.072	0.87
831.242	1.1
831.412	1.4
831.582	0.34
831.753	-0.07
831.923	1.82
832.093	0.94
832.263	1.2
832.434	0.62
832.604	0.84
832.774	1.66
832.944	0.41
833.114	0.74
833.284	1.2
833.454	0.91
833.624	0.45
833.795	0.29
833.965	2.37
834.135	1.65
834.305	-0.4
834.475	0.06
834.645	1.32
834.815	0.34
834.985	-0.07
835.155	0.38
835.325	1.12
835.494	1.73
835.664	0.58
835.834	0.5
836.004	0.93
836.174	1.59
836.344	1.03
836.514	-0.07
836.684	1
836.853	1.09
837.023	0.67
837.193	0.21
837.363	2.07
837.532	1.36
837.702	1.33
837.872	0.24
838.041	1.01
838.211	2.43
838.381	0.27
838.55	0.91
838.72	4.18
838.89	2.64
839.059	1.47
839.229	0.78
839.398	3.16
839.568	1.15
839.738	1.18
839.907	1.91
840.077	1.2
840.246	0.26
840.416	0.92
840.585	0.15
840.755	3.15
840.924	2.1
841.093	0.9
841.263	0.83
841.432	1.39
841.602	0.59
841.771	0.26
841.94	0.81
842.11	3.26
842.279	2.61
842.448	0.03
842.617	0.03
842.787	2.6
842.956	-0.35
843.125	0.39
843.294	0.88
843.464	1.79
843.633	2.03
843.802	0.3
843.971	0.55
844.14	1.7
844.309	3.06
844.479	-0.32
844.648	1.08
844.817	1.26
844.986	1.65
845.155	0.89
845.324	1.19
845.493	1.77
845.662	0.71
845.831	1.68
846	1.4
846.169	1.23
846.338	2.78
846.507	0.96
846.676	1.52
846.844	0.37
847.013	2.32
847.182	1.32
847.351	0.92
847.52	0.71
847.689	1.41
847.858	1.47
848.026	0.81
848.195	1.79
848.364	1.28
848.533	-0.04
848.701	0.07
848.87	1.47
849.039	3.02
849.207	1.03
849.376	2.4
849.545	3.71
849.713	1.14
849.882	0.26
850.051	1.01
850.219	1.23
850.388	2.87
850.556	0.23
850.725	0.01
850.893	1.3
851.062	1.07
851.23	2.39
851.399	-1.11
851.567	2.31
851.736	1.13
851.904	0.44
852.073	2.32
852.241	1.98
852.41	2.55
852.578	1.01
852.746	-1.06
852.915	2.22
853.083	1.65
853.251	-0.87
853.42	0.92
853.588	2.1
853.756	2.56
853.924	1.3
854.093	1.55
854.261	1.55
854.429	-0.71
854.597	1.16
854.765	0.27
854.934	2.73
855.102	2.83
855.27	0.85
855.438	2.41
855.606	2.63
855.774	3.7
855.942	-0.2
856.11	-0.32
856.278	2.11
856.446	2.06
856.614	1.6
856.782	1.4
856.95	2.41
857.118	1.7
857.286	0.85
857.454	0.6
857.622	2.75
857.79	3.22
857.958	1.35
858.126	0.93
858.294	-1.04
858.462	0.05
858.629	0.39
858.797	0.43
858.965	3.36
859.133	1.99
859.301	0.86
859.468	1.17
859.636	0.96
859.804	5.01
859.971	1.89
860.139	0.12
860.307	3.25
860.474	1.62
860.642	0.85
860.81	1.62
860.977	1.29
861.145	2.88
861.313	1.4
861.48	0.21
861.648	3.16
861.815	2.45
861.983	-0.48
862.15	1.08
862.318	3.62
862.485	3.64
862.653	-0.48
862.82	0.78
862.988	4.25
863.155	2.42
863.322	0.42
863.49	0.93
863.657	2.78
863.824	5.72
863.992	2.24
864.159	2.68
864.326	3.33
864.494	0.51
864.661	4.06
864.828	0.99
864.996	3.95
865.163	3.6
865.33	0.51
865.497	-0.87
865.664	0.68
865.832	-0.56
865.999	2.63
866.166	-1.18
866.333	1.04
866.5	0.88
866.667	1.14
866.834	1.98
867.001	4.38
867.168	-1.06
867.335	0.19
867.502	0.04
867.669	2.92
867.836	5.25
868.003	0.76
868.17	3.56
868.337	5.23
868.504	6.62
868.671	-0.05
868.838	-1.24
869.005	4.12
869.172	2.82
869.339	1.57
869.505	1.62
869.672	1.34
869.839	5.81
870.006	1.21
870.173	-0.8
870.339	3.37
870.506	5.49
870.673	1.15
870.84	3.9
871.006	3.38
871.173	3.55
871.34	2.71
871.506	0.37
871.673	1.82
871.839	-1.34
872.006	2.91
872.173	0.84
872.339	1.58
872.506	4.79
872.672	0.71
872.839	-0.97
873.005	2.65
873.172	4.9
873.338	3.87
873.505	2.5
873.671	1.35
873.838	2.88
874.004	-0.39
874.171	1.45
874.337	2.6
874.503	4.24
874.67	0.81
874.836	1.31
875.002	4.82
875.169	5.77
875.335	2.53
875.501	1.51
875.668	2.76
875.834	2
876	2.1
876.166	3.49
876.332	3.41
876.499	6.06
876.665	1.6
876.831	2.9
876.997	8.2
877.163	3.12
877.329	1.94
877.495	3.22
877.662	3.81
877.828	2.22
877.994	1.58
878.16	-0.3
878.326	1.33
878.492	2.7
878.658	0.22
878.824	1.84
878.99	4.82
879.156	1.88
879.322	3.45
879.487	1.94
879.653	2.95
879.819	3.84
879.985	1.17
880.151	3.58
880.317	3.5
880.483	4.17
880.648	3.55
880.814	-0.34
880.98	3.21
881.146	-2.25
881.312	0.3
881.477	0.39
881.643	1.28
881.809	3.95
881.974	4.68
882.14	-1.62
882.306	2.6
882.471	4.2
882.637	0.62
882.803	2.68
882.968	5.68
883.134	6.04
883.299	1.74
883.465	2.41
883.63	5.32
883.796	2.76
883.961	4.2
884.127	3.2
884.292	-2.86
884.458	-0.94
884.623	-0.94
