Data from Apollo_Calib_20240827__AbsoluteIrradiance__898__14-07-00-317.txt Node

Date: Wed Aug 28 14:07:00 BST 2024
User: biology
Spectrometer: FLMT08252
Trigger mode: 0
Integration Time (sec): 5.000000E-1
Scans to average: 5
Electric dark correction enabled: true
Nonlinearity correction enabled: false
Boxcar width: 0
XAxis mode: Wavelengths
Number of Pixels in Spectrum: 3648
>>>>>Begin Spectral Data<<<<<
179.588	-0
179.809	-0
180.03	-0
180.251	-0
180.473	-0
180.694	0
180.915	0
181.136	-0
181.357	0
181.578	-0
181.799	-0
182.02	-0
182.241	-0
182.462	-0
182.683	0
182.904	-0
183.125	-0
183.346	0
183.567	0
183.788	0
184.009	0
184.23	0
184.451	0
184.672	0
184.892	0
185.113	0
185.334	0
185.555	0
185.776	0
185.996	0
186.217	0
186.438	0
186.659	0
186.879	0
187.1	0
187.321	0
187.541	0
187.762	0
187.983	0
188.203	0
188.424	0
188.644	0
188.865	0
189.086	0
189.306	0
189.527	0
189.747	0
189.968	0
190.188	0
190.409	0
190.629	0
190.849	0
191.07	0
191.29	0
191.511	0
191.731	0
191.951	0
192.172	0
192.392	0
192.612	0
192.833	0
193.053	0
193.273	0
193.493	0
193.714	0
193.934	0
194.154	0
194.374	0
194.594	0
194.815	0
195.035	0
195.255	0
195.475	0
195.695	0
195.915	0
196.135	0
196.355	0
196.575	0
196.795	0
197.015	0
197.235	0
197.455	0
197.675	0
197.895	0
198.115	0
198.335	0
198.555	0
198.775	0
198.995	0
199.214	0
199.434	0
199.654	0
199.874	0
200.094	4.18
200.313	3
200.533	2.15
200.753	1.42
200.973	3.87
201.192	3.2
201.412	1.5
201.632	1.64
201.851	3.19
202.071	1.32
202.291	1.8
202.51	1.13
202.73	2.65
202.95	2.08
203.169	1.2
203.389	1.79
203.608	2.46
203.828	2.05
204.047	1.22
204.267	2.38
204.486	2.24
204.706	2.25
204.925	1.48
205.145	1.2
205.364	2.48
205.583	2.68
205.803	1.24
206.022	1.15
206.242	1.83
206.461	1.23
206.68	1.47
206.9	1.61
207.119	2.31
207.338	2.31
207.557	1.04
207.777	1.17
207.996	1.36
208.215	2.33
208.434	1.08
208.654	0.87
208.873	1.79
209.092	2.09
209.311	1.14
209.53	0.96
209.749	1.41
209.968	1.14
210.187	0.95
210.407	0.68
210.626	1.2
210.845	1.71
211.064	0.9
211.283	0.6
211.502	1.58
211.721	1.45
211.94	1.01
212.159	1.77
212.377	1.4
212.596	1.64
212.815	1.03
213.034	1.17
213.253	1.41
213.472	1.38
213.691	0.95
213.91	0.6
214.128	0.96
214.347	1.65
214.566	0.55
214.785	0.54
215.003	1.43
215.222	0.98
215.441	0.98
215.66	0.59
215.878	1.11
216.097	1.39
216.316	0.71
216.534	0.72
216.753	1.13
216.972	0.63
217.19	0.97
217.409	0.73
217.627	0.75
217.846	0.83
218.064	1.02
218.283	0.57
218.501	1.28
218.72	1.14
218.938	0.61
219.157	0.72
219.375	1.12
219.594	1.01
219.812	0.41
220.031	0.62
220.249	1.25
220.467	1.31
220.686	0.68
220.904	0.35
221.122	0.69
221.341	1.09
221.559	0.94
221.777	0.58
221.995	0.64
222.214	0.82
222.432	0.55
222.65	0.8
222.868	0.93
223.086	0.76
223.305	0.92
223.523	0.62
223.741	1.2
223.959	0.75
224.177	0.36
224.395	0.54
224.613	0.9
224.831	1.06
225.049	0.49
225.267	0.56
225.485	0.74
225.703	0.51
225.921	0.59
226.139	0.48
226.357	0.79
226.575	0.8
226.793	0.48
227.011	1.7
227.229	0.82
227.447	0.93
227.665	0.49
227.883	0.32
228.1	0.82
228.318	0.85
228.536	0.29
228.754	0.35
228.972	0.79
229.189	0.86
229.407	0.42
229.625	0.55
229.843	0.82
230.06	0.8
230.278	0.51
230.496	0.56
230.713	0.75
230.931	0.82
231.149	0.44
231.366	0.24
231.584	0.65
231.801	1.03
232.019	0.41
232.236	0.38
232.454	0.38
232.671	0.76
232.889	0.46
233.106	0.35
233.324	0.68
233.541	0.63
233.759	0.52
233.976	0.22
234.194	0.59
234.411	0.53
234.628	0.44
234.846	0.37
235.063	0.56
235.28	0.64
235.498	0.43
235.715	0.4
235.932	0.91
236.149	0.45
236.367	0.37
236.584	0.64
236.801	0.55
237.018	0.69
237.236	0.56
237.453	0.27
237.67	0.67
237.887	0.55
238.104	0.58
238.321	0.38
238.538	0.41
238.755	0.78
238.973	0.21
239.19	0.52
239.407	0.57
239.624	0.54
239.841	0.38
240.058	0.39
240.275	0.61
240.492	0.48
240.709	0.44
240.925	0.4
241.142	0.54
241.359	0.36
241.576	0.3
241.793	0.35
242.01	0.36
242.227	0.65
242.444	0.51
242.66	0.58
242.877	0.49
243.094	0.47
243.311	0.44
243.527	0.47
243.744	0.53
243.961	0.56
244.178	0.44
244.394	0.48
244.611	0.6
244.828	0.7
245.044	0.36
245.261	0.47
245.477	0.54
245.694	0.63
245.911	0.31
246.127	0.59
246.344	0.67
246.56	0.53
246.777	0.3
246.993	0.39
247.21	0.51
247.426	0.54
247.643	0.29
247.859	0.36
248.076	0.31
248.292	0.79
248.508	0.27
248.725	0.45
248.941	0.55
249.157	0.53
249.374	0.37
249.59	0.38
249.806	0.47
250.023	0.49
250.239	0.29
250.455	0.35
250.671	0.41
250.888	0.46
251.104	0.49
251.32	0.28
251.536	0.38
251.752	0.47
251.969	0.39
252.185	0.34
252.401	0.63
252.617	0.41
252.833	0.32
253.049	0.39
253.265	0.38
253.481	0.49
253.697	0.34
253.913	0.32
254.129	0.46
254.345	0.46
254.561	0.35
254.777	0.33
254.993	0.47
255.209	0.47
255.425	0.28
255.641	0.31
255.857	0.53
256.073	0.43
256.288	0.25
256.504	0.33
256.72	0.44
256.936	0.63
257.152	0.32
257.367	0.23
257.583	0.39
257.799	0.54
258.015	0.3
258.23	0.33
258.446	0.56
258.662	0.39
258.877	0.27
259.093	0.27
259.309	0.42
259.524	0.5
259.74	0.27
259.955	0.26
260.171	0.34
260.387	0.45
260.602	0.44
260.818	0.41
261.033	0.31
261.249	0.34
261.464	0.37
261.68	0.24
261.895	0.42
262.11	0.37
262.326	0.33
262.541	0.23
262.757	0.46
262.972	0.45
263.187	0.37
263.403	0.33
263.618	0.5
263.833	0.4
264.049	0.29
264.264	0.31
264.479	0.47
264.694	0.53
264.91	0.27
265.125	0.33
265.34	0.41
265.555	0.6
265.77	0.41
265.986	0.29
266.201	0.48
266.416	0.47
266.631	0.31
266.846	0.29
267.061	0.42
267.276	0.45
267.491	0.19
267.706	0.41
267.921	0.38
268.136	0.45
268.351	0.36
268.566	0.26
268.781	0.49
268.996	0.4
269.211	0.23
269.426	0.24
269.641	0.31
269.856	0.5
270.071	0.32
270.285	0.18
270.5	0.43
270.715	0.52
270.93	0.35
271.145	0.37
271.359	0.47
271.574	0.31
271.789	0.28
272.004	0.31
272.218	0.31
272.433	0.36
272.648	0.29
272.862	0.38
273.077	0.28
273.292	0.28
273.506	0.22
273.721	0.28
273.936	0.47
274.15	0.46
274.365	0.29
274.579	0.36
274.794	0.39
275.008	0.41
275.223	0.19
275.437	0.26
275.652	0.41
275.866	0.45
276.081	0.29
276.295	0.35
276.509	0.33
276.724	0.29
276.938	0.34
277.153	0.34
277.367	0.27
277.581	0.3
277.796	0.27
278.01	0.25
278.224	0.37
278.438	0.45
278.653	0.23
278.867	0.23
279.081	0.24
279.295	0.32
279.51	0.29
279.724	0.2
279.938	0.41
280.152	0.38
280.366	0.26
280.58	0.34
280.794	0.45
281.008	0.36
281.222	0.38
281.437	0.48
281.651	0.33
281.865	0.39
282.079	0.24
282.293	0.17
282.507	0.2
282.721	0.3
282.935	0.27
283.148	0.2
283.362	0.27
283.576	0.22
283.79	0.27
284.004	0.22
284.218	0.39
284.432	0.29
284.646	0.32
284.859	0.25
285.073	0.28
285.287	0.33
285.501	0.25
285.714	0.22
285.928	0.36
286.142	0.28
286.356	0.25
286.569	0.25
286.783	0.41
286.997	0.36
287.21	0.29
287.424	0.29
287.637	0.25
287.851	0.24
288.065	0.36
288.278	0.28
288.492	0.32
288.705	0.29
288.919	0.34
289.132	0.15
289.346	0.33
289.559	0.24
289.773	0.24
289.986	0.32
290.2	0.33
290.413	0.37
290.626	0.23
290.84	0.29
291.053	0.25
291.267	0.37
291.48	0.24
291.693	0.31
291.906	0.23
292.12	0.28
292.333	0.22
292.546	0.22
292.76	0.39
292.973	0.36
293.186	0.35
293.399	0.27
293.612	0.34
293.826	0.31
294.039	0.27
294.252	0.28
294.465	0.33
294.678	0.32
294.891	0.25
295.104	0.23
295.317	0.26
295.53	0.27
295.743	0.28
295.956	0.25
296.169	0.38
296.382	0.36
296.595	0.24
296.808	0.21
297.021	0.33
297.234	0.33
297.447	0.27
297.66	0.26
297.873	0.34
298.086	0.38
298.299	0.21
298.511	0.16
298.724	0.25
298.937	0.22
299.15	0.22
299.363	0.26
299.575	0.34
299.788	0.26
300.001	0.21
300.213	0.25
300.426	0.24
300.639	0.23
300.852	0.25
301.064	0.3
301.277	0.37
301.489	0.33
301.702	0.31
301.915	0.27
302.127	0.24
302.34	0.27
302.552	0.27
302.765	0.23
302.977	0.35
303.19	0.22
303.402	0.2
303.615	0.25
303.827	0.26
304.04	0.24
304.252	0.32
304.464	0.21
304.677	0.42
304.889	0.36
305.102	0.26
305.314	0.24
305.526	0.26
305.739	0.31
305.951	0.18
306.163	0.22
306.375	0.39
306.588	0.27
306.8	0.22
307.012	0.22
307.224	0.31
307.436	0.33
307.649	0.18
307.861	0.28
308.073	0.29
308.285	0.23
308.497	0.21
308.709	0.21
308.921	0.31
309.133	0.32
309.346	0.21
309.558	0.25
309.77	0.32
309.982	0.37
310.194	0.26
310.406	0.21
310.617	0.38
310.829	0.27
311.041	0.27
311.253	0.21
311.465	0.24
311.677	0.26
311.889	0.26
312.101	0.23
312.313	0.34
312.524	0.39
312.736	0.17
312.948	0.21
313.16	0.39
313.372	0.32
313.583	0.29
313.795	0.21
314.007	0.21
314.218	0.35
314.43	0.26
314.642	0.23
314.853	0.19
315.065	0.3
315.277	0.25
315.488	0.3
315.7	0.35
315.912	0.33
316.123	0.26
316.335	0.23
316.546	0.46
316.758	0.25
316.969	0.23
317.181	0.28
317.392	0.31
317.604	0.34
317.815	0.18
318.026	0.24
318.238	0.27
318.449	0.29
318.661	0.2
318.872	0.17
319.083	0.22
319.295	0.33
319.506	0.21
319.717	0.28
319.929	0.31
320.14	0.25
320.351	0.29
320.562	0.24
320.774	0.27
320.985	0.26
321.196	0.25
321.407	0.21
321.618	0.36
321.829	0.28
322.041	0.31
322.252	0.24
322.463	0.31
322.674	0.31
322.885	0.17
323.096	0.22
323.307	0.29
323.518	0.28
323.729	0.25
323.94	0.24
324.151	0.18
324.362	0.3
324.573	0.28
324.784	0.23
324.995	0.3
325.206	0.31
325.417	0.22
325.628	0.21
325.838	0.25
326.049	0.25
326.26	0.3
326.471	0.24
326.682	0.29
326.892	0.22
327.103	0.2
327.314	0.23
327.525	0.33
327.735	0.31
327.946	0.26
328.157	0.19
328.368	0.33
328.578	0.26
328.789	0.32
328.999	0.28
329.21	0.24
329.421	0.29
329.631	0.22
329.842	0.18
330.052	0.29
330.263	0.33
330.473	0.27
330.684	0.22
330.894	0.26
331.105	0.32
331.315	0.29
331.526	0.19
331.736	0.35
331.947	0.32
332.157	0.26
332.367	0.17
332.578	0.32
332.788	0.33
332.999	0.33
333.209	0.29
333.419	0.15
333.629	0.33
333.84	0.28
334.05	0.29
334.26	0.36
334.47	0.32
334.681	0.32
334.891	0.17
335.101	0.34
335.311	0.38
335.521	0.25
335.732	0.22
335.942	0.33
336.152	0.28
336.362	0.3
336.572	0.29
336.782	0.31
336.992	0.22
337.202	0.25
337.412	0.19
337.622	0.31
337.832	0.26
338.042	0.21
338.252	0.18
338.462	0.22
338.672	0.27
338.882	0.24
339.092	0.28
339.302	0.3
339.511	0.3
339.721	0.25
339.931	0.14
340.141	0.33
340.351	0.35
340.561	0.27
340.77	0.26
340.98	0.31
341.19	0.28
341.4	0.22
341.609	0.21
341.819	0.26
342.029	0.16
342.238	0.29
342.448	0.2
342.658	0.32
342.867	0.25
343.077	0.26
343.286	0.23
343.496	0.29
343.706	0.31
343.915	0.22
344.125	0.25
344.334	0.3
344.544	0.22
344.753	0.26
344.963	0.17
345.172	0.18
345.381	0.25
345.591	0.18
345.8	0.23
346.01	0.32
346.219	0.32
346.428	0.15
346.638	0.27
346.847	0.25
347.056	0.33
347.266	0.24
347.475	0.27
347.684	0.28
347.893	0.3
348.103	0.26
348.312	0.22
348.521	0.26
348.73	0.28
348.94	0.25
349.149	0.21
349.358	0.26
349.567	0.22
349.776	0.2
349.985	0.21
350.194	0.33
350.403	0.31
350.612	0.16
350.821	0.22
351.03	0.23
351.239	0.22
351.448	0.22
351.657	0.19
351.866	0.3
352.075	0.27
352.284	0.3
352.493	0.24
352.702	0.38
352.911	0.28
353.12	0.26
353.329	0.26
353.538	0.27
353.746	0.27
353.955	0.23
354.164	0.28
354.373	0.21
354.582	0.33
354.79	0.22
354.999	0.25
355.208	0.24
355.416	0.32
355.625	0.19
355.834	0.2
356.042	0.28
356.251	0.22
356.46	0.18
356.668	0.25
356.877	0.38
357.085	0.31
357.294	0.18
357.503	0.25
357.711	0.25
357.92	0.47
358.128	0.28
358.337	0.26
358.545	0.27
358.754	0.24
358.962	0.31
359.17	0.24
359.379	0.25
359.587	0.26
359.796	0.24
360.004	0.34
360.212	0.31
360.421	0.3
360.629	0.22
360.837	0.22
361.046	0.32
361.254	0.36
361.462	0.21
361.67	0.23
361.879	0.26
362.087	0.33
362.295	0.29
362.503	0.23
362.711	0.23
362.92	0.22
363.128	0.21
363.336	0.2
363.544	0.15
363.752	0.28
363.96	0.2
364.168	0.2
364.376	0.27
364.584	0.26
364.792	0.35
365	0.26
365.208	0.24
365.416	0.29
365.624	0.29
365.832	0.21
366.04	0.3
366.248	0.27
366.456	0.27
366.664	0.26
366.872	0.26
367.079	0.19
367.287	0.21
367.495	0.23
367.703	0.24
367.911	0.22
368.118	0.24
368.326	0.25
368.534	0.22
368.742	0.31
368.949	0.2
369.157	0.16
369.365	0.28
369.572	0.22
369.78	0.24
369.988	0.28
370.195	0.26
370.403	0.32
370.61	0.22
370.818	0.23
371.026	0.35
371.233	0.21
371.441	0.28
371.648	0.23
371.856	0.27
372.063	0.28
372.271	0.23
372.478	0.2
372.685	0.27
372.893	0.34
373.1	0.26
373.308	0.21
373.515	0.37
373.722	0.33
373.93	0.25
374.137	0.32
374.344	0.38
374.552	0.34
374.759	0.29
374.966	0.26
375.173	0.25
375.381	0.39
375.588	0.29
375.795	0.18
376.002	0.26
376.209	0.23
376.417	0.27
376.624	0.24
376.831	0.35
377.038	0.26
377.245	0.13
377.452	0.24
377.659	0.28
377.866	0.26
378.073	0.25
378.28	0.26
378.487	0.34
378.694	0.31
378.901	0.3
379.108	0.28
379.315	0.33
379.522	0.38
379.729	0.27
379.936	0.21
380.143	0.28
380.35	0.29
380.557	0.26
380.763	0.22
380.97	0.32
381.177	0.33
381.384	0.29
381.591	0.26
381.797	0.3
382.004	0.3
382.211	0.32
382.418	0.22
382.624	0.29
382.831	0.34
383.038	0.24
383.244	0.29
383.451	0.27
383.658	0.33
383.864	0.25
384.071	0.21
384.277	0.38
384.484	0.27
384.69	0.35
384.897	0.23
385.103	0.28
385.31	0.24
385.516	0.29
385.723	0.21
385.929	0.28
386.136	0.31
386.342	0.32
386.549	0.28
386.755	0.34
386.961	0.37
387.168	0.29
387.374	0.27
387.58	0.35
387.787	0.28
387.993	0.3
388.199	0.28
388.406	0.26
388.612	0.29
388.818	0.25
389.024	0.29
389.231	0.31
389.437	0.41
389.643	0.3
389.849	0.29
390.055	0.32
390.261	0.27
390.467	0.39
390.674	0.28
390.88	0.3
391.086	0.34
391.292	0.24
391.498	0.31
391.704	0.33
391.91	0.31
392.116	0.28
392.322	0.21
392.528	0.34
392.734	0.22
392.94	0.34
393.146	0.29
393.352	0.33
393.557	0.25
393.763	0.28
393.969	0.34
394.175	0.3
394.381	0.36
394.587	0.26
394.792	0.31
394.998	0.37
395.204	0.42
395.41	0.23
395.615	0.33
395.821	0.31
396.027	0.33
396.233	0.25
396.438	0.37
396.644	0.42
396.85	0.34
397.055	0.32
397.261	0.39
397.466	0.37
397.672	0.36
397.878	0.42
398.083	0.36
398.289	0.31
398.494	0.45
398.7	0.39
398.905	0.26
399.111	0.44
399.316	0.27
399.522	0.35
399.727	0.35
399.932	0.34
400.138	0.33
400.343	0.4
400.549	0.3
400.754	0.38
400.959	0.39
401.165	0.36
401.37	0.37
401.575	0.48
401.78	0.41
401.986	0.33
402.191	0.35
402.396	0.37
402.601	0.44
402.807	0.41
403.012	0.39
403.217	0.44
403.422	0.36
403.627	0.46
403.832	0.4
404.037	0.48
404.243	0.47
404.448	0.4
404.653	0.44
404.858	0.46
405.063	0.46
405.268	0.42
405.473	0.4
405.678	0.46
405.883	0.68
406.088	0.54
406.293	0.45
406.498	0.46
406.703	0.52
406.907	0.48
407.112	0.48
407.317	0.59
407.522	0.59
407.727	0.5
407.932	0.52
408.136	0.68
408.341	0.61
408.546	0.62
408.751	0.6
408.956	0.62
409.16	0.7
409.365	0.59
409.57	0.6
409.774	0.64
409.979	0.69
410.184	0.71
410.388	0.67
410.593	0.78
410.798	0.77
411.002	0.74
411.207	0.81
411.411	0.81
411.616	0.74
411.82	0.82
412.025	0.87
412.229	0.83
412.434	1
412.638	0.91
412.843	0.9
413.047	1.02
413.252	0.97
413.456	1.06
413.66	1.06
413.865	1.05
414.069	1.19
414.273	1.13
414.478	1.13
414.682	1.18
414.886	1.24
415.091	1.18
415.295	1.25
415.499	1.44
415.703	1.33
415.908	1.49
416.112	1.42
416.316	1.64
416.52	1.57
416.724	1.59
416.929	1.64
417.133	1.88
417.337	1.74
417.541	1.76
417.745	1.87
417.949	2.02
418.153	2.06
418.357	2.11
418.561	2.28
418.765	2.21
418.969	2.43
419.173	2.45
419.377	2.44
419.581	2.73
419.785	2.66
419.989	2.69
420.193	2.8
420.397	2.95
420.601	3.12
420.804	3.15
421.008	3.16
421.212	3.35
421.416	3.31
421.62	3.33
421.823	3.4
422.027	3.62
422.231	3.58
422.435	3.62
422.638	3.6
422.842	3.76
423.046	3.8
423.249	4.01
423.453	4.02
423.657	4.22
423.86	4.25
424.064	4.41
424.268	4.55
424.471	4.6
424.675	4.81
424.878	4.89
425.082	5
425.285	5.35
425.489	5.23
425.692	5.31
425.896	5.41
426.099	5.57
426.303	5.79
426.506	5.77
426.71	6.08
426.913	6.34
427.116	6.43
427.32	6.39
427.523	6.42
427.726	6.85
427.93	6.92
428.133	7.21
428.336	7.37
428.54	7.48
428.743	7.82
428.946	8.04
429.149	8.08
429.353	8.05
429.556	8.13
429.759	8.2
429.962	8.31
430.165	8.52
430.368	8.1
430.571	8.24
430.775	8.2
430.978	8.05
431.181	8.28
431.384	8.34
431.587	8.38
431.79	8.81
431.993	8.62
432.196	9.05
432.399	9.38
432.602	9.57
432.805	9.68
433.008	10.15
433.211	9.99
433.414	10.43
433.616	10.3
433.819	10.41
434.022	10.57
434.225	10.72
434.428	10.86
434.631	11.24
434.833	11.04
435.036	11.22
435.239	11.41
435.442	11.45
435.645	11.54
435.847	11.66
436.05	12.06
436.253	12.24
436.455	12.32
436.658	12.13
436.861	12.53
437.063	12.65
437.266	12.51
437.468	12.86
437.671	13.17
437.874	13.39
438.076	12.97
438.279	13.58
438.481	13.52
438.684	14.42
438.886	14
439.089	14.25
439.291	14.35
439.494	14.6
439.696	14.82
439.899	15.33
440.101	15.86
440.303	15.93
440.506	16.69
440.708	16.52
440.91	16.66
441.113	16.86
441.315	16.97
441.517	16.99
441.72	17.33
441.922	16.98
442.124	16.99
442.326	17.3
442.529	17.52
442.731	17.44
442.933	17.81
443.135	17.52
443.337	17.62
443.539	18.14
443.742	17.8
443.944	18.46
444.146	18.09
444.348	18.2
444.55	17.92
444.752	18.14
444.954	18.21
445.156	17.99
445.358	18.51
445.56	18.86
445.762	18.69
445.964	18.9
446.166	18.57
446.368	18.63
446.57	18.6
446.772	18.24
446.974	17.97
447.175	18.34
447.377	17.99
447.579	18.28
447.781	17.96
447.983	17.87
448.184	17.49
448.386	17.77
448.588	17.29
448.79	17.2
448.991	17.48
449.193	17.52
449.395	16.83
449.597	16.47
449.798	16.29
450	15.81
450.202	15.84
450.403	15.81
450.605	15.7
450.806	15.22
451.008	15.09
451.21	14.89
451.411	14.4
451.613	13.62
451.814	13.9
452.016	13.86
452.217	13.12
452.419	13.26
452.62	12.97
452.821	12.65
453.023	12.54
453.224	12.19
453.426	11.75
453.627	11
453.828	11.14
454.03	11.1
454.231	11.14
454.432	11
454.634	10.71
454.835	10.41
455.036	10.39
455.238	9.85
455.439	9.8
455.64	9.47
455.841	9.26
456.042	9.38
456.244	9.17
456.445	8.85
456.646	8.48
456.847	8.4
457.048	8.47
457.249	8.33
457.45	8.21
457.651	7.68
457.852	7.43
458.054	7.29
458.255	7.1
458.456	7.16
458.657	7.12
458.858	6.65
459.058	6.6
459.259	6.64
459.46	6.34
459.661	6.35
459.862	6.36
460.063	6.3
460.264	6.26
460.465	5.86
460.666	6.04
460.866	5.78
461.067	5.54
461.268	5.53
461.469	5.45
461.67	5.36
461.87	5.14
462.071	5.28
462.272	5.09
462.473	5.11
462.673	5.18
462.874	5.18
463.075	5.05
463.275	5.05
463.476	5.14
463.676	5.03
463.877	4.88
464.078	4.93
464.278	4.85
464.479	4.81
464.679	4.77
464.88	4.71
465.08	4.67
465.281	4.5
465.481	4.24
465.682	4.12
465.882	4.17
466.083	4
466.283	4.04
466.483	3.88
466.684	3.72
466.884	3.55
467.085	3.61
467.285	3.69
467.485	3.56
467.686	3.56
467.886	3.4
468.086	3.36
468.286	3.33
468.487	3.39
468.687	3.22
468.887	3.21
469.087	3.32
469.287	3.27
469.488	3.02
469.688	3.18
469.888	3.14
470.088	3.11
470.288	2.97
470.488	3.02
470.688	2.87
470.888	2.78
471.088	2.62
471.288	2.81
471.488	2.8
471.688	2.71
471.888	2.58
472.088	2.8
472.288	2.74
472.488	2.58
472.688	2.54
472.888	2.67
473.088	2.57
473.288	2.52
473.488	2.42
473.688	2.62
473.887	2.45
474.087	2.42
474.287	2.38
474.487	2.4
474.687	2.41
474.886	2.3
475.086	2.31
475.286	2.32
475.486	2.21
475.685	2.24
475.885	2.2
476.085	2.33
476.284	2.23
476.484	2.21
476.684	2.21
476.883	2.3
477.083	2.2
477.282	2.1
477.482	2.19
477.681	2.13
477.881	2.05
478.08	2.12
478.28	2.03
478.479	2.09
478.679	2.13
478.878	2
479.078	1.99
479.277	2.14
479.477	2.1
479.676	2.02
479.875	2.02
480.075	1.94
480.274	2.01
480.473	2.05
480.673	1.98
480.872	2.07
481.071	2.05
481.271	2.02
481.47	1.98
481.669	2.01
481.868	2
482.067	2
482.267	1.92
482.466	1.93
482.665	1.96
482.864	1.94
483.063	1.94
483.262	2.04
483.461	2.07
483.661	2.06
483.86	2.06
484.059	2.05
484.258	2.01
484.457	2.03
484.656	1.98
484.855	2.09
485.054	1.92
485.253	1.96
485.452	1.96
485.651	2.08
485.849	1.99
486.048	1.99
486.247	2.04
486.446	2.09
486.645	2.02
486.844	2.03
487.043	2.09
487.241	2.08
487.44	2.08
487.639	2.19
487.838	2.1
488.037	2.1
488.235	2.23
488.434	2.17
488.633	2.03
488.831	2.23
489.03	2.22
489.229	2.22
489.427	2.19
489.626	2.26
489.825	2.28
490.023	2.34
490.222	2.26
490.42	2.33
490.619	2.39
490.817	2.35
491.016	2.35
491.214	2.44
491.413	2.44
491.611	2.36
491.81	2.39
492.008	2.46
492.207	2.56
492.405	2.52
492.604	2.43
492.802	2.56
493	2.62
493.199	2.63
493.397	2.59
493.595	2.69
493.794	2.62
493.992	2.75
494.19	2.75
494.388	2.83
494.587	2.75
494.785	2.83
494.983	2.73
495.181	2.85
495.379	2.94
495.578	2.97
495.776	2.96
495.974	2.94
496.172	2.97
496.37	3.08
496.568	3.14
496.766	3.11
496.964	3.22
497.162	3.15
497.36	3.22
497.558	3.22
497.756	3.3
497.954	3.29
498.152	3.34
498.35	3.4
498.548	3.34
498.746	3.4
498.944	3.39
499.142	3.48
499.34	3.52
499.538	3.67
499.736	3.5
499.933	3.67
500.131	3.64
500.329	3.81
500.527	3.78
500.725	3.88
500.922	3.93
501.12	3.86
501.318	3.96
501.516	3.92
501.713	4.02
501.911	4
502.109	3.94
502.306	4.07
502.504	4.02
502.701	4.11
502.899	4.17
503.097	4.39
503.294	4.2
503.492	4.32
503.689	4.34
503.887	4.4
504.084	4.48
504.282	4.48
504.479	4.39
504.677	4.6
504.874	4.59
505.072	4.4
505.269	4.7
505.466	4.71
505.664	4.75
505.861	4.68
506.059	4.78
506.256	4.8
506.453	4.91
506.651	5
506.848	5.02
507.045	5.02
507.242	5
507.44	5.02
507.637	5.15
507.834	5.08
508.031	5.26
508.229	5.13
508.426	5.09
508.623	5.29
508.82	5.28
509.017	5.31
509.214	5.25
509.411	5.36
509.608	5.35
509.805	5.47
510.003	5.45
510.2	5.51
510.397	5.68
510.594	5.57
510.791	5.64
510.988	5.67
511.184	5.66
511.381	5.56
511.578	5.7
511.775	5.86
511.972	5.71
512.169	5.83
512.366	5.8
512.563	5.94
512.76	5.99
512.956	6.06
513.153	5.96
513.35	5.91
513.547	5.98
513.744	6.04
513.94	6.03
514.137	6.2
514.334	6.18
514.53	6.19
514.727	6.4
514.924	6.26
515.12	6.27
515.317	6.27
515.514	6.27
515.71	6.26
515.907	6.44
516.103	6.45
516.3	6.36
516.497	6.51
516.693	6.57
516.89	6.54
517.086	6.54
517.283	6.56
517.479	6.42
517.676	6.67
517.872	6.65
518.068	6.63
518.265	6.69
518.461	6.56
518.658	6.72
518.854	6.73
519.05	6.82
519.247	6.76
519.443	6.78
519.639	6.94
519.836	6.78
520.032	6.76
520.228	6.9
520.424	6.91
520.621	6.96
520.817	6.97
521.013	6.91
521.209	7.08
521.405	7.1
521.601	7.1
521.798	7.05
521.994	7.06
522.19	6.98
522.386	7.03
522.582	7.11
522.778	7.26
522.974	7.17
523.17	7.2
523.366	7.1
523.562	7.19
523.758	7.24
523.954	7.05
524.15	7.27
524.346	7.26
524.542	7.27
524.738	7.27
524.934	7.41
525.129	7.35
525.325	7.26
525.521	7.28
525.717	7.52
525.913	7.42
526.109	7.41
526.304	7.49
526.5	7.4
526.696	7.5
526.892	7.41
527.087	7.62
527.283	7.55
527.479	7.54
527.674	7.4
527.87	7.58
528.066	7.52
528.261	7.54
528.457	7.48
528.653	7.57
528.848	7.62
529.044	7.67
529.239	7.54
529.435	7.54
529.63	7.56
529.826	7.58
530.021	7.59
530.217	7.62
530.412	7.54
530.608	7.69
530.803	7.6
530.999	7.56
531.194	7.61
531.389	7.74
531.585	7.69
531.78	7.85
531.975	7.77
532.171	7.79
532.366	7.69
532.561	7.78
532.757	7.8
532.952	7.94
533.147	7.72
533.342	7.77
533.538	7.7
533.733	7.92
533.928	7.63
534.123	7.77
534.318	7.91
534.513	7.78
534.709	7.99
534.904	7.91
535.099	7.93
535.294	7.95
535.489	7.93
535.684	7.84
535.879	7.87
536.074	7.9
536.269	7.94
536.464	7.92
536.659	7.89
536.854	7.92
537.049	7.95
537.244	7.89
537.439	7.95
537.634	7.98
537.828	8.05
538.023	7.96
538.218	7.92
538.413	7.91
538.608	7.9
538.803	7.99
538.997	7.94
539.192	8.06
539.387	7.87
539.582	7.93
539.776	7.88
539.971	7.99
540.166	8.1
540.36	7.94
540.555	8.03
540.75	8.02
540.944	8.07
541.139	8.05
541.334	7.95
541.528	8.01
541.723	8.04
541.917	8.11
542.112	7.99
542.306	7.94
542.501	7.94
542.695	7.98
542.89	7.96
543.084	8
543.279	8.07
543.473	8.1
543.668	8.14
543.862	7.87
544.056	7.91
544.251	8.09
544.445	8.15
544.64	8.19
544.834	7.78
545.028	7.72
545.222	8.08
545.417	8.25
545.611	8.19
545.805	8.07
546	7.89
546.194	8.12
546.388	8.11
546.582	8.06
546.776	8.07
546.97	8.1
547.165	8.09
547.359	8.05
547.553	8.01
547.747	8.04
547.941	8.26
548.135	8
548.329	8.06
548.523	8.15
548.717	7.97
548.911	8.02
549.105	8.03
549.299	8.18
549.493	8.17
549.687	7.98
549.881	8.19
550.075	8.09
550.269	8
550.463	8.14
550.657	8.12
550.85	8.08
551.044	8.04
551.238	8.13
551.432	8.08
551.626	8.16
551.82	8.12
552.013	8
552.207	8.25
552.401	8.18
552.594	8.11
552.788	8.1
552.982	8.04
553.176	8.02
553.369	8.21
553.563	8.18
553.756	8.02
553.95	8.17
554.144	8.15
554.337	8.12
554.531	7.97
554.724	8.1
554.918	8.22
555.111	8.08
555.305	8.1
555.498	8.07
555.692	8.25
555.885	8.19
556.079	8.07
556.272	8.09
556.466	8.14
556.659	8.1
556.852	8.13
557.046	8.09
557.239	7.98
557.432	8.03
557.626	8.11
557.819	8.21
558.012	8.15
558.206	8.21
558.399	8.18
558.592	8.09
558.785	8.05
558.979	8.13
559.172	8.1
559.365	8.11
559.558	8.07
559.751	8.06
559.944	8.18
560.138	8.12
560.331	8.16
560.524	8.15
560.717	8.07
560.91	8.1
561.103	8.17
561.296	8.02
561.489	8.13
561.682	8.15
561.875	8.21
562.068	8.29
562.261	7.96
562.454	8.27
562.647	8.1
562.84	8.21
563.032	8.15
563.225	8.07
563.418	8.11
563.611	8.23
563.804	8.15
563.997	7.97
564.19	7.84
564.382	8.16
564.575	8.13
564.768	8.09
564.961	8.14
565.153	8.09
565.346	8.01
565.539	8.22
565.731	8.14
565.924	8.23
566.117	8.23
566.309	8.15
566.502	8.06
566.695	7.99
566.887	8.19
567.08	8.11
567.272	8.16
567.465	8.03
567.657	8.2
567.85	8
568.042	8.16
568.235	8.14
568.427	7.93
568.62	8.11
568.812	8.01
569.005	8.14
569.197	7.98
569.389	8.11
569.582	8.03
569.774	8.06
569.966	7.88
570.159	7.96
570.351	7.95
570.543	8.1
570.736	8.03
570.928	7.92
571.12	8.06
571.312	7.95
571.505	7.78
571.697	8.05
571.889	8.03
572.081	8.04
572.273	7.9
572.465	8.04
572.658	8.02
572.85	8.02
573.042	8.07
573.234	7.9
573.426	7.98
573.618	7.99
573.81	8.01
574.002	8.01
574.194	8.06
574.386	7.92
574.578	7.81
574.77	7.86
574.962	7.97
575.154	7.79
575.346	7.86
575.538	7.81
575.729	7.85
575.921	7.98
576.113	8
576.305	7.88
576.497	8.04
576.689	7.85
576.88	7.76
577.072	7.93
577.264	7.96
577.456	7.89
577.647	7.91
577.839	8.03
578.031	7.83
578.223	7.81
578.414	7.78
578.606	7.83
578.798	7.99
578.989	7.86
579.181	7.86
579.372	7.84
579.564	7.81
579.755	7.82
579.947	7.71
580.139	7.9
580.33	7.63
580.522	7.82
580.713	7.75
580.905	7.77
581.096	7.84
581.287	7.75
581.479	7.73
581.67	7.89
581.862	7.69
582.053	7.71
582.244	7.6
582.436	7.8
582.627	7.69
582.818	7.67
583.01	7.6
583.201	7.72
583.392	7.69
583.583	7.65
583.775	7.52
583.966	7.63
584.157	7.62
584.348	7.72
584.54	7.57
584.731	7.65
584.922	7.56
585.113	7.52
585.304	7.59
585.495	7.6
585.686	7.67
585.877	7.59
586.068	7.69
586.259	7.64
586.45	7.56
586.641	7.48
586.832	7.54
587.023	7.53
587.214	7.56
587.405	7.58
587.596	7.37
587.787	7.39
587.978	7.5
588.169	7.41
588.36	7.39
588.551	7.44
588.742	7.45
588.932	7.54
589.123	7.25
589.314	7.62
589.505	7.31
589.696	7.41
589.886	7.34
590.077	7.35
590.268	7.27
590.458	7.17
590.649	7.16
590.84	7.36
591.03	7.28
591.221	7.25
591.412	7.17
591.602	7.33
591.793	7.26
591.984	7.26
592.174	7.26
592.365	7.4
592.555	7.18
592.746	7.13
592.936	7.17
593.127	7.26
593.317	7.23
593.508	7.17
593.698	7.08
593.889	7.14
594.079	7.12
594.269	7.1
594.46	7.08
594.65	7.13
594.84	7.09
595.031	7.01
595.221	7.03
595.411	7.03
595.602	7.02
595.792	6.9
595.982	6.89
596.172	7.1
596.363	7.03
596.553	6.93
596.743	6.97
596.933	6.94
597.123	6.86
597.314	6.81
597.504	6.76
597.694	6.93
597.884	6.82
598.074	6.88
598.264	6.83
598.454	6.82
598.644	6.79
598.834	6.81
599.024	6.76
599.214	6.72
599.404	6.79
599.594	6.73
599.784	6.68
599.974	6.79
600.164	6.7
600.354	6.61
600.544	6.55
600.734	6.69
600.924	6.66
601.114	6.52
601.303	6.58
601.493	6.6
601.683	6.63
601.873	6.6
602.063	6.47
602.252	6.56
602.442	6.4
602.632	6.38
602.821	6.34
603.011	6.57
603.201	6.49
603.39	6.43
603.58	6.32
603.77	6.44
603.959	6.48
604.149	6.44
604.339	6.33
604.528	6.51
604.718	6.44
604.907	6.3
605.097	6.19
605.286	6.18
605.476	6.35
605.665	6.34
605.855	6.26
606.044	6.27
606.234	6.24
606.423	6.16
606.612	6.14
606.802	6.13
606.991	6.22
607.181	6.23
607.37	6.13
607.559	5.95
607.749	6.11
607.938	6
608.127	6.06
608.316	6.05
608.506	6.05
608.695	6.1
608.884	5.95
609.073	6.05
609.263	6.09
609.452	6.04
609.641	5.87
609.83	5.86
610.019	5.98
610.208	5.83
610.397	5.89
610.586	5.9
610.775	5.82
610.965	5.88
611.154	5.67
611.343	5.88
611.532	5.67
611.721	5.8
611.91	5.76
612.099	5.75
612.287	5.62
612.476	5.61
612.665	5.77
612.854	5.65
613.043	5.67
613.232	5.65
613.421	5.51
613.61	5.55
613.798	5.59
613.987	5.6
614.176	5.49
614.365	5.49
614.554	5.51
614.742	5.57
614.931	5.44
615.12	5.55
615.309	5.51
615.497	5.43
615.686	5.34
615.875	5.4
616.063	5.35
616.252	5.3
616.44	5.41
616.629	5.34
616.818	5.28
617.006	5.34
617.195	5.28
617.383	5.31
617.572	5.23
617.76	5.19
617.949	5.22
618.137	5.23
618.326	5.27
618.514	5
618.703	5.07
618.891	5.13
619.079	5.05
619.268	5.2
619.456	5.01
619.644	5.17
619.833	5.1
620.021	5.03
620.209	4.85
620.398	5.06
620.586	4.91
620.774	4.99
620.962	4.89
621.151	5.07
621.339	4.88
621.527	4.87
621.715	4.81
621.903	4.93
622.092	4.81
622.28	4.99
622.468	4.71
622.656	4.78
622.844	4.81
623.032	4.84
623.22	4.7
623.408	4.83
623.596	4.78
623.784	4.83
623.972	4.64
624.16	4.71
624.348	4.76
624.536	4.74
624.724	4.54
624.912	4.65
625.1	4.65
625.288	4.6
625.476	4.48
625.664	4.62
625.851	4.49
626.039	4.59
626.227	4.49
626.415	4.5
626.603	4.43
626.79	4.52
626.978	4.49
627.166	4.49
627.354	4.39
627.541	4.45
627.729	4.24
627.917	4.46
628.104	4.43
628.292	4.32
628.48	4.33
628.667	4.32
628.855	4.41
629.042	4.37
629.23	4.23
629.418	4.29
629.605	4.32
629.793	4.12
629.98	4.21
630.168	4.12
630.355	4.18
630.543	4.2
630.73	4.07
630.917	4.14
631.105	4.23
631.292	4.11
631.48	4.08
631.667	4.27
631.854	4.03
632.042	4.02
632.229	3.95
632.416	4.04
632.604	4.07
632.791	3.94
632.978	4.01
633.165	3.95
633.353	4.05
633.54	3.94
633.727	3.83
633.914	3.81
634.101	3.83
634.289	3.95
634.476	3.83
634.663	3.78
634.85	3.82
635.037	3.71
635.224	3.7
635.411	3.88
635.598	3.74
635.785	3.71
635.972	3.7
636.159	3.73
636.346	3.7
636.533	3.63
636.72	3.67
636.907	3.64
637.094	3.61
637.281	3.54
637.468	3.59
637.655	3.56
637.842	3.61
638.029	3.55
638.215	3.57
638.402	3.58
638.589	3.44
638.776	3.44
638.963	3.41
639.149	3.52
639.336	3.62
639.523	3.48
639.709	3.47
639.896	3.4
640.083	3.47
640.27	3.47
640.456	3.32
640.643	3.36
640.829	3.26
641.016	3.31
641.203	3.21
641.389	3.33
641.576	3.3
641.762	3.28
641.949	3.22
642.135	3.27
642.322	3.21
642.508	3.13
642.695	3.22
642.881	3.19
643.068	3.16
643.254	3.19
643.441	3.21
643.627	3.21
643.813	3.06
644	3.15
644.186	3.01
644.372	3.1
644.559	3.1
644.745	3.03
644.931	2.93
645.118	3.06
645.304	3.03
645.49	2.99
645.676	3
645.862	2.98
646.049	3.04
646.235	2.97
646.421	3.1
646.607	3.08
646.793	2.9
646.979	2.9
647.165	2.91
647.352	2.89
647.538	2.92
647.724	2.82
647.91	2.79
648.096	2.83
648.282	2.89
648.468	2.81
648.654	2.83
648.84	2.84
649.026	2.76
649.212	2.69
649.397	2.7
649.583	2.72
649.769	2.78
649.955	2.69
650.141	2.69
650.327	2.72
650.513	2.67
650.698	2.7
650.884	2.57
651.07	2.69
651.256	2.67
651.442	2.59
651.627	2.58
651.813	2.61
651.999	2.58
652.184	2.6
652.37	2.52
652.556	2.54
652.741	2.57
652.927	2.42
653.113	2.51
653.298	2.47
653.484	2.49
653.669	2.45
653.855	2.46
654.04	2.57
654.226	2.42
654.412	2.41
654.597	2.34
654.782	2.43
654.968	2.47
655.153	2.37
655.339	2.34
655.524	2.35
655.71	2.44
655.895	2.34
656.08	2.31
656.266	2.46
656.451	2.35
656.636	2.28
656.822	2.31
657.007	2.33
657.192	2.29
657.378	2.24
657.563	2.27
657.748	2.27
657.933	2.23
658.118	2.19
658.304	2.19
658.489	2.24
658.674	2.23
658.859	2.16
659.044	2.16
659.229	2.23
659.414	2.15
659.599	2.13
659.785	2.07
659.97	2.15
660.155	2.16
660.34	2.15
660.525	2.1
660.71	2.09
660.895	2.12
661.08	2.05
661.264	2.01
661.449	2.17
661.634	2.06
661.819	2.1
662.004	2.03
662.189	1.98
662.374	2.01
662.559	1.9
662.743	1.93
662.928	1.96
663.113	1.93
663.298	1.9
663.483	1.94
663.667	1.91
663.852	1.93
664.037	1.96
664.221	1.92
664.406	1.98
664.591	1.95
664.775	1.94
664.96	1.87
665.145	1.87
665.329	1.95
665.514	1.85
665.698	1.84
665.883	1.77
666.068	1.91
666.252	1.86
666.437	1.77
666.621	1.85
666.806	1.84
666.99	1.78
667.174	1.75
667.359	1.86
667.543	1.82
667.728	1.79
667.912	1.66
668.096	1.74
668.281	1.73
668.465	1.81
668.649	1.76
668.834	1.7
669.018	1.75
669.202	1.68
669.387	1.66
669.571	1.79
669.755	1.64
669.939	1.67
670.124	1.67
670.308	1.74
670.492	1.71
670.676	1.65
670.86	1.62
671.044	1.57
671.228	1.66
671.413	1.56
671.597	1.55
671.781	1.55
671.965	1.64
672.149	1.59
672.333	1.6
672.517	1.55
672.701	1.61
672.885	1.59
673.069	1.44
673.253	1.65
673.437	1.55
673.621	1.54
673.804	1.53
673.988	1.58
674.172	1.48
674.356	1.38
674.54	1.5
674.724	1.59
674.908	1.49
675.091	1.53
675.275	1.48
675.459	1.53
675.643	1.57
675.826	1.48
676.01	1.41
676.194	1.45
676.377	1.5
676.561	1.49
676.745	1.44
676.928	1.44
677.112	1.52
677.296	1.41
677.479	1.4
677.663	1.39
677.846	1.45
678.03	1.37
678.213	1.31
678.397	1.42
678.58	1.38
678.764	1.33
678.947	1.3
679.131	1.37
679.314	1.45
679.498	1.32
679.681	1.38
679.865	1.36
680.048	1.31
680.231	1.3
680.415	1.3
680.598	1.26
680.781	1.24
680.965	1.3
681.148	1.29
681.331	1.31
681.514	1.31
681.698	1.3
681.881	1.24
682.064	1.34
682.247	1.31
682.43	1.16
682.614	1.24
682.797	1.34
682.98	1.23
683.163	1.14
683.346	1.23
683.529	1.2
683.712	1.21
683.895	1.22
684.078	1.07
684.261	1.18
684.444	1.22
684.627	1.24
684.81	1.09
684.993	1.18
685.176	1.22
685.359	1.1
685.542	1.13
685.725	1.25
685.908	1.11
686.091	1.11
686.274	1.17
686.457	1.19
686.639	1.17
686.822	1.18
687.005	1.12
687.188	1.17
687.371	1.22
687.553	1.16
687.736	1.13
687.919	1.24
688.102	1.19
688.284	1.08
688.467	1.09
688.65	1.08
688.832	1.04
689.015	1.09
689.197	0.96
689.38	1.17
689.563	1.17
689.745	0.98
689.928	1.01
690.11	1.06
690.293	1.11
690.475	0.96
690.658	1.07
690.84	1.06
691.023	1.04
691.205	0.98
691.388	1.04
691.57	1.08
691.752	1.08
691.935	0.95
692.117	0.97
692.3	1.04
692.482	0.97
692.664	0.93
692.847	0.99
693.029	1.04
693.211	1
693.393	0.96
693.576	0.91
693.758	0.97
693.94	1
694.122	0.94
694.304	0.89
694.487	0.89
694.669	1.01
694.851	0.87
695.033	0.92
695.215	0.91
695.397	0.9
695.579	0.9
695.761	0.86
695.943	0.81
696.125	1.04
696.308	0.89
696.49	0.75
696.671	1.06
696.853	0.94
697.035	1.17
697.217	0.87
697.399	0.99
697.581	0.81
697.763	0.88
697.945	0.79
698.127	0.93
698.309	0.92
698.491	0.87
698.672	0.93
698.854	0.9
699.036	0.93
699.218	0.86
699.399	0.84
699.581	0.94
699.763	0.91
699.945	0.76
700.126	0.76
700.308	0.82
700.49	0.81
700.671	0.68
700.853	0.75
701.035	0.79
701.216	0.86
701.398	0.71
701.579	0.76
701.761	0.86
701.943	0.68
702.124	0.81
702.306	0.79
702.487	0.93
702.669	0.85
702.85	0.73
703.031	0.72
703.213	0.96
703.394	0.88
703.576	0.76
703.757	0.94
703.938	0.9
704.12	1.04
704.301	0.8
704.483	0.69
704.664	0.77
704.845	0.93
705.026	0.81
705.208	0.8
705.389	0.75
705.57	0.77
705.751	0.77
705.933	0.82
706.114	0.84
706.295	0.75
706.476	0.62
706.657	0.93
706.838	0.83
707.02	0.81
707.201	0.74
707.382	0.72
707.563	0.71
707.744	0.7
707.925	0.63
708.106	0.7
708.287	0.72
708.468	0.84
708.649	0.71
708.83	0.71
709.011	0.69
709.192	0.88
709.373	0.61
709.554	0.67
709.734	0.85
709.915	0.8
710.096	0.64
710.277	0.48
710.458	0.65
710.639	0.74
710.819	0.57
711	0.65
711.181	0.74
711.362	0.75
711.542	0.68
711.723	0.63
711.904	0.76
712.085	0.75
712.265	0.65
712.446	0.57
712.627	0.63
712.807	0.62
712.988	0.66
713.168	0.51
713.349	0.73
713.53	0.45
713.71	0.51
713.891	0.54
714.071	0.64
714.252	0.66
714.432	0.58
714.613	0.52
714.793	0.62
714.974	0.74
715.154	0.69
715.334	0.72
715.515	0.69
715.695	0.6
715.876	0.6
716.056	0.57
716.236	0.55
716.417	0.58
716.597	0.52
716.777	0.8
716.957	0.66
717.138	0.61
717.318	0.61
717.498	0.44
717.678	0.63
717.859	0.58
718.039	0.55
718.219	0.53
718.399	0.64
718.579	0.48
718.759	0.47
718.939	0.48
719.12	0.63
719.3	0.51
719.48	0.41
719.66	0.45
719.84	0.76
720.02	0.59
720.2	0.44
720.38	0.57
720.56	0.74
720.74	0.45
720.92	0.53
721.1	0.75
721.279	0.65
721.459	0.55
721.639	0.43
721.819	0.54
721.999	0.5
722.179	0.6
722.359	0.46
722.538	0.51
722.718	0.57
722.898	0.48
723.078	0.55
723.257	0.49
723.437	0.57
723.617	0.52
723.797	0.51
723.976	0.53
724.156	0.6
724.336	0.63
724.515	0.74
724.695	0.42
724.874	0.48
725.054	0.61
725.234	0.44
725.413	0.51
725.593	0.55
725.772	0.55
725.952	0.53
726.131	0.42
726.311	0.57
726.49	0.53
726.67	0.38
726.849	0.45
727.028	0.59
727.208	0.47
727.387	0.56
727.567	0.43
727.746	0.4
727.925	0.53
728.105	0.37
728.284	0.41
728.463	0.45
728.643	0.61
728.822	0.38
729.001	0.42
729.18	0.51
729.359	0.64
729.539	0.5
729.718	0.52
729.897	0.54
730.076	0.47
730.255	0.35
730.434	0.59
730.614	0.76
730.793	0.68
730.972	0.38
731.151	0.5
731.33	0.63
731.509	0.53
731.688	0.55
731.867	0.41
732.046	0.32
732.225	0.77
732.404	0.41
732.583	0.38
732.762	0.51
732.941	0.59
733.12	0.49
733.298	0.42
733.477	0.65
733.656	0.43
733.835	0.3
734.014	0.56
734.193	0.52
734.371	0.6
734.55	0.65
734.729	0.34
734.908	0.45
735.086	0.46
735.265	0.6
735.444	0.28
735.623	0.45
735.801	0.42
735.98	0.53
736.159	0.45
736.337	0.62
736.516	0.66
736.694	0.48
736.873	0.55
737.052	0.7
737.23	0.75
737.409	0.46
737.587	0.63
737.766	0.44
737.944	0.46
738.123	0.6
738.301	0.62
738.479	0.45
738.658	0.36
738.836	0.31
739.015	0.56
739.193	0.54
739.371	0.37
739.55	0.54
739.728	0.3
739.906	0.71
740.085	0.7
740.263	0.51
740.441	0.28
740.62	0.69
740.798	0.58
740.976	0.48
741.154	0.46
741.332	0.65
741.511	0.36
741.689	0.51
741.867	0.47
742.045	0.6
742.223	0.43
742.401	0.39
742.579	0.38
742.757	0.62
742.935	0.37
743.114	0.39
743.292	0.44
743.47	0.54
743.648	0.47
743.826	0.55
744.004	0.58
744.181	0.59
744.359	0.46
744.537	0.45
744.715	0.43
744.893	0.46
745.071	0.56
745.249	0.38
745.427	0.39
745.605	0.5
745.782	0.52
745.96	0.43
746.138	0.46
746.316	0.51
746.493	0.38
746.671	0.39
746.849	0.39
747.027	0.71
747.204	0.27
747.382	0.46
747.56	0.39
747.737	0.34
747.915	0.46
748.093	0.49
748.27	0.3
748.448	0.51
748.625	0.33
748.803	0.3
748.98	0.36
749.158	0.47
749.335	0.56
749.513	0.52
749.69	0.32
749.868	0.31
750.045	0.43
750.223	0.28
750.4	0.22
750.578	0.64
750.755	0.46
750.932	0.23
751.11	0.53
751.287	0.31
751.464	0.58
751.642	0.34
751.819	0.46
751.996	0.49
752.173	0.33
752.351	0.42
752.528	0.34
752.705	0.31
752.882	0.4
753.06	0.39
753.237	0.5
753.414	0.75
753.591	0.71
753.768	0.47
753.945	0.3
754.122	0.38
754.299	0.44
754.476	0.39
754.654	0.3
754.831	0.51
755.008	0.48
755.185	0.28
755.362	0.28
755.539	0.55
755.716	0.4
755.892	0.4
756.069	0.34
756.246	0.4
756.423	0.35
756.6	0.48
756.777	0.38
756.954	0.59
757.131	0.39
757.307	0.16
757.484	0.23
757.661	0.4
757.838	0.53
758.015	0.22
758.191	0.33
758.368	0.56
758.545	0.64
758.721	0.33
758.898	0.24
759.075	0.53
759.251	0.43
759.428	0.43
759.605	0.17
759.781	0.37
759.958	0.44
760.134	0.29
760.311	0.31
760.488	0.62
760.664	0.7
760.841	0.37
761.017	0.28
761.194	0.44
761.37	0.6
761.547	0.57
761.723	0.27
761.899	0.52
762.076	0.17
762.252	0.22
762.429	0.36
762.605	0.55
762.781	0.42
762.958	0.39
763.134	0.29
763.31	0.28
763.486	0.6
763.663	0.15
763.839	0.48
764.015	0.21
764.191	0.32
764.368	0.41
764.544	0.3
764.72	0.43
764.896	0.49
765.072	0.36
765.248	0.42
765.425	0.4
765.601	0.34
765.777	0.34
765.953	0.17
766.129	0.29
766.305	0.29
766.481	0.51
766.657	0.38
766.833	0.65
767.009	0.21
767.185	0.25
767.361	0.37
767.537	0.35
767.713	0.6
767.889	0.33
768.065	0.31
768.24	0.34
768.416	0.59
768.592	0.29
768.768	0.39
768.944	0.48
769.12	0.28
769.295	0.35
769.471	0.34
769.647	0.41
769.823	0.63
769.998	0.21
770.174	0.23
770.35	0.75
770.525	0.78
770.701	0.36
770.877	0.33
771.052	0.31
771.228	0.61
771.403	0.49
771.579	0.43
771.755	0.83
771.93	0.45
772.106	0.24
772.281	0.11
772.457	0.4
772.632	0.49
772.808	0.15
772.983	0.45
773.159	0.28
773.334	0.65
773.509	0.42
773.685	0.23
773.86	0.82
774.036	0.73
774.211	0.52
774.386	0.37
774.562	0.39
774.737	0.62
774.912	0.21
775.087	0.55
775.263	0.32
775.438	0.35
775.613	0.32
775.788	0.36
775.964	0.45
776.139	0.95
776.314	0.21
776.489	0.57
776.664	0.5
776.839	0.19
777.014	0.46
777.19	0.48
777.365	0.75
777.54	0.73
777.715	0.28
777.89	0.33
778.065	0.37
778.24	0.46
778.415	0.5
778.59	0.13
778.765	0.34
778.94	0.57
779.115	0.33
779.289	0.14
779.464	0.33
779.639	0.18
779.814	0.06
779.989	0.16
780.164	0.46
780.339	0.53
780.513	0.31
780.688	0.09
780.863	0.41
781.038	0.62
781.212	0.07
781.387	0.46
781.562	0.74
781.737	0.37
781.911	0.62
782.086	0.24
782.261	0.43
782.435	0.85
782.61	0.31
782.784	0.4
782.959	0.67
783.134	0.3
783.308	0.17
783.483	0.38
783.657	0.97
783.832	0.64
784.006	-0.11
784.181	0.34
784.355	0.47
784.53	0.24
784.704	0.2
784.878	0.82
785.053	0.64
785.227	0.98
785.402	0.69
785.576	0.08
785.75	0.56
785.925	0.52
786.099	0.5
786.273	0.5
786.448	0.7
786.622	0.56
786.796	0.36
786.97	0.46
787.145	1.07
787.319	0.03
787.493	0.23
787.667	-0.09
787.841	0.38
788.015	0.95
788.19	0.09
788.364	0.47
788.538	0.58
788.712	0.6
788.886	0.32
789.06	0.42
789.234	0.74
789.408	0.37
789.582	0.42
789.756	0.5
789.93	0.46
790.104	0.69
790.278	0.39
790.452	0.37
790.626	0.58
790.8	0.18
790.973	0.66
791.147	0.97
791.321	0.89
791.495	0.69
791.669	0.61
791.843	0.52
792.016	0.7
792.19	0.94
792.364	0.1
792.538	1.26
792.711	0.75
792.885	0.23
793.059	0.33
793.233	0.04
793.406	0.65
793.58	0.34
793.754	0.63
793.927	0.34
794.101	0.98
794.274	0.79
794.448	0.78
794.622	0.14
794.795	1.06
794.969	0.3
795.142	0.9
795.316	0.47
795.489	0.09
795.663	1.05
795.836	0.37
796.009	0.12
796.183	1
796.356	0.46
796.53	0.52
796.703	0.27
796.876	1.35
797.05	0.31
797.223	0.4
797.396	0.46
797.57	0.38
797.743	1.3
797.916	0.56
798.09	0.36
798.263	0.96
798.436	0.72
798.609	0.51
798.782	0.37
798.956	0.76
799.129	0.32
799.302	0.51
799.475	0.2
799.648	0.35
799.821	0.09
799.994	0.79
800.167	0.07
800.34	0.48
800.514	0.61
800.687	0.37
800.86	0.27
801.033	0.43
801.206	0.94
801.379	0.41
801.551	0.71
801.724	0.78
801.897	1.13
802.07	0.07
802.243	0.32
802.416	0.57
802.589	0.43
802.762	0.84
802.935	0.55
803.107	1.08
803.28	1.1
803.453	0.78
803.626	0.23
803.798	0.63
803.971	0.29
804.144	0.84
804.317	0.45
804.489	1.1
804.662	0.44
804.835	0.74
805.007	0.33
805.18	0.96
805.353	0.48
805.525	0.24
805.698	0.35
805.87	0.91
806.043	0.7
806.215	0.25
806.388	0.22
806.56	1.02
806.733	0.91
806.905	0.72
807.078	0.18
807.25	0.49
807.423	0.92
807.595	0.38
807.768	0.46
807.94	0.99
808.112	0.88
808.285	0.65
808.457	0.5
808.629	0.71
808.802	0.94
808.974	0.49
809.146	0.35
809.318	0.27
809.491	0.83
809.663	0.73
809.835	0.37
810.007	0.76
810.18	0.61
810.352	0.3
810.524	0.41
810.696	0.95
810.868	1.28
811.04	0.37
811.212	0.17
811.384	0.9
811.556	0.81
811.728	0.42
811.901	1.67
812.073	0.84
812.245	1.05
812.417	0.82
812.589	-0.32
812.76	1.03
812.932	0.99
813.104	1
813.276	0.33
813.448	0.84
813.62	1.24
813.792	0.68
813.964	0.42
814.136	0.93
814.307	0.42
814.479	-0.01
814.651	0.5
814.823	1.87
814.995	0.72
815.166	0.69
815.338	0.47
815.51	0.17
815.681	1.79
815.853	0.55
816.025	0.41
816.196	1.48
816.368	1.65
816.54	-0.15
816.711	0.21
816.883	1.07
817.054	2.1
817.226	0.09
817.398	0.81
817.569	0.62
817.741	0.7
817.912	0.45
818.084	0.67
818.255	1.62
818.426	0.41
818.598	0.62
818.769	0.07
818.941	1.36
819.112	1.76
819.283	0.74
819.455	-0.2
819.626	0.75
819.798	1.55
819.969	0.6
820.14	0.46
820.311	0.67
820.483	0.97
820.654	1.23
820.825	0.6
820.996	0.83
821.168	-0.05
821.339	0.45
821.51	-0.04
821.681	0.31
821.852	1.04
822.023	0.23
822.195	-0.18
822.366	1.53
822.537	1.26
822.708	0.54
822.879	0.19
823.05	1.28
823.221	0.87
823.392	1
823.563	0.74
823.734	0.96
823.905	0.81
824.076	0.41
824.247	0.26
824.418	0.34
824.589	1.75
824.759	1.33
824.93	0.9
825.101	-0.23
825.272	2.13
825.443	1.09
825.614	1.93
825.784	0.35
825.955	1.86
826.126	1.64
826.297	1.16
826.467	1.54
826.638	1.84
826.809	-0.08
826.98	0.63
827.15	1.12
827.321	1.58
827.492	1.93
827.662	0.71
827.833	2.47
828.003	1.55
828.174	0.12
828.345	0.11
828.515	1.7
828.686	1.11
828.856	0.52
829.027	0.71
829.197	1.8
829.368	0.81
829.538	0.34
829.709	0.6
829.879	1.07
830.049	0.9
830.22	0.57
830.39	1.05
830.56	1.68
830.731	0.76
830.901	0.28
831.072	0.95
831.242	1.41
831.412	1.62
831.582	1.25
831.753	-0.06
831.923	1.76
832.093	1.96
832.263	0.89
832.434	-0
832.604	0.54
832.774	1.41
832.944	0.52
833.114	0.24
833.284	1.35
833.454	0.36
833.624	0.11
833.795	0.68
833.965	1.81
834.135	2.81
834.305	-0.21
834.475	0.32
834.645	0.89
834.815	0.91
834.985	0.51
835.155	0.43
835.325	1.39
835.494	1.19
835.664	0.63
835.834	-0.64
836.004	1.16
836.174	1.35
836.344	0.91
836.514	-0.13
836.684	0.26
836.853	0.89
837.023	1
837.193	0.61
837.363	1.95
837.532	1.67
837.702	0.84
837.872	0.44
838.041	1.51
838.211	2.41
838.381	-0.38
838.55	0.85
838.72	3.91
838.89	2.76
839.059	1.09
839.229	-0.36
839.398	3.7
839.568	1.59
839.738	1.19
839.907	2.5
840.077	1.93
840.246	0.92
840.416	0.75
840.585	-0.13
840.755	2.88
840.924	2.64
841.093	0.41
841.263	0.67
841.432	1.32
841.602	0.35
841.771	0.62
841.94	0.87
842.11	3.78
842.279	2.9
842.448	0.38
842.617	-0.05
842.787	2.16
842.956	-0.27
843.125	0.33
843.294	0.98
843.464	2.69
843.633	1.97
843.802	0.49
843.971	0.39
844.14	2.39
844.309	2.27
844.479	-0.93
844.648	-0.46
844.817	1.72
844.986	1.23
845.155	0.45
845.324	1.24
845.493	1.39
845.662	1.6
845.831	1.63
846	1.74
846.169	0.56
846.338	2.19
846.507	0.71
846.676	1.21
846.844	1.66
847.013	2.23
847.182	1.51
847.351	0.71
847.52	0.75
847.689	0.89
847.858	1.58
848.026	0.68
848.195	0.98
848.364	1.06
848.533	0.46
848.701	0.56
848.87	1.61
849.039	3.42
849.207	1.96
849.376	2.39
849.545	4.08
849.713	0.6
849.882	1.02
850.051	0.59
850.219	0.87
850.388	2.17
850.556	0.53
850.725	0.42
850.893	1.4
851.062	1.23
851.23	1.86
851.399	0.09
851.567	1.57
851.736	1.37
851.904	-0.16
852.073	1.47
852.241	2.01
852.41	0.81
852.578	1.35
852.746	0.77
852.915	3.16
853.083	1.52
853.251	-0.25
853.42	1.75
853.588	1.24
853.756	3.14
853.924	1.1
854.093	0.84
854.261	0.62
854.429	0.18
854.597	3.05
854.765	0.75
854.934	2.22
855.102	2.23
855.27	1.24
855.438	2.16
855.606	3.69
855.774	3.72
855.942	-1.16
856.11	0.58
856.278	1.22
856.446	3.33
856.614	1.46
856.782	-0.28
856.95	2.72
857.118	2.73
857.286	2.63
857.454	0
857.622	4.3
857.79	2.09
857.958	-0.07
858.126	0.71
858.294	-1.74
858.462	1.44
858.629	-0.25
858.797	0.42
858.965	1.72
859.133	1.4
859.301	1.14
859.468	1.93
859.636	0.35
859.804	4.84
859.971	2.23
860.139	0.55
860.307	3.53
860.474	3.79
860.642	-0.11
860.81	0.78
860.977	2.45
861.145	2.7
861.313	0.64
861.48	1.7
861.648	3.47
861.815	1.14
861.983	0.29
862.15	0.62
862.318	3.87
862.485	3.72
862.653	0.8
862.82	1.19
862.988	5.09
863.155	3.54
863.322	1.52
863.49	-0.39
863.657	1.33
863.824	5.41
863.992	3.04
864.159	2.69
864.326	3.36
864.494	0.4
864.661	3.98
864.828	0.13
864.996	4.41
865.163	3.6
865.33	1.27
865.497	-1.83
865.664	0.06
865.832	0.24
865.999	0.62
866.166	0.62
866.333	1.05
866.5	0.72
866.667	2.08
866.834	1.83
867.001	4.09
867.168	-0.55
867.335	1.25
867.502	-1.23
867.669	2.38
867.836	6.17
868.003	1.62
868.17	3.28
868.337	1.16
868.504	6.46
868.671	-1.98
868.838	0.19
869.005	3.73
869.172	2.68
869.339	1.38
869.505	1.49
869.672	1.54
869.839	5.62
870.006	-0.01
870.173	1.63
870.339	2.57
870.506	5.64
870.673	2.39
870.84	3.29
871.006	2.49
871.173	2.23
871.34	1.92
871.506	0.76
871.673	1.25
871.839	1.03
872.006	3.02
872.173	-0.08
872.339	2.15
872.506	5.37
872.672	0.32
872.839	-1.79
873.005	3.38
873.172	6.71
873.338	2.77
873.505	2.25
873.671	2.9
873.838	4.12
874.004	-1.58
874.171	0.36
874.337	3.86
874.503	3.13
874.67	2.05
874.836	1
875.002	4.62
875.169	4.09
875.335	1.02
875.501	2.04
875.668	2.75
875.834	1.94
876	-0.99
876.166	3.42
876.332	3.36
876.499	6.45
876.665	1.46
876.831	1.06
876.997	7.64
877.163	3.86
877.329	-0.12
877.495	2.38
877.662	5.46
877.828	2.64
877.994	2.67
878.16	-2.03
878.326	1.13
878.492	2.93
878.658	0.71
878.824	1.69
878.99	3.33
879.156	2.35
879.322	5.98
879.487	-0.71
879.653	2.27
879.819	3.17
879.985	0.77
880.151	2.84
880.317	3.22
880.483	1.16
880.648	3.53
880.814	-0.16
880.98	4.24
881.146	-2.59
881.312	-1.18
881.477	2.07
881.643	1.25
881.809	3.41
881.974	4.67
882.14	-1.39
882.306	3.64
882.471	6.05
882.637	-0.63
882.803	3.54
882.968	7.97
883.134	8.53
883.299	1.76
883.465	1.89
883.63	4.37
883.796	3.47
883.961	3.11
884.127	3.17
884.292	-2.78
884.458	1.41
884.623	1.41
