Data from Apollo_Calib_20240827__AbsoluteIrradiance__791__12-20-01-358.txt Node

Date: Wed Aug 28 12:20:01 BST 2024
User: biology
Spectrometer: FLMT08252
Trigger mode: 0
Integration Time (sec): 5.000000E-1
Scans to average: 5
Electric dark correction enabled: true
Nonlinearity correction enabled: false
Boxcar width: 0
XAxis mode: Wavelengths
Number of Pixels in Spectrum: 3648
>>>>>Begin Spectral Data<<<<<
179.588	-0
179.809	-0
180.03	-0
180.251	-0
180.473	-0
180.694	0
180.915	0
181.136	-0
181.357	0
181.578	0
181.799	0
182.02	-0
182.241	-0
182.462	-0
182.683	0
182.904	-0
183.125	-0
183.346	0
183.567	0
183.788	0
184.009	0
184.23	0
184.451	0
184.672	0
184.892	0
185.113	0
185.334	0
185.555	0
185.776	0
185.996	0
186.217	0
186.438	0
186.659	0
186.879	0
187.1	0
187.321	0
187.541	0
187.762	0
187.983	0
188.203	0
188.424	0
188.644	0
188.865	0
189.086	0
189.306	0
189.527	0
189.747	0
189.968	0
190.188	0
190.409	0
190.629	0
190.849	0
191.07	0
191.29	0
191.511	0
191.731	0
191.951	0
192.172	0
192.392	0
192.612	0
192.833	0
193.053	0
193.273	0
193.493	0
193.714	0
193.934	0
194.154	0
194.374	0
194.594	0
194.815	0
195.035	0
195.255	0
195.475	0
195.695	0
195.915	0
196.135	0
196.355	0
196.575	0
196.795	0
197.015	0
197.235	0
197.455	0
197.675	0
197.895	0
198.115	0
198.335	0
198.555	0
198.775	0
198.995	0
199.214	0
199.434	0
199.654	0
199.874	0
200.094	4.03
200.313	2.37
200.533	2.53
200.753	1.37
200.973	3.69
201.192	3.54
201.412	1.39
201.632	1.44
201.851	3.84
202.071	1.84
202.291	2
202.51	1.45
202.73	2.86
202.95	1.58
203.169	1.63
203.389	1.68
203.608	2.17
203.828	1.8
204.047	1.6
204.267	2.31
204.486	2.08
204.706	2.93
204.925	1.99
205.145	1.66
205.364	2.39
205.583	3.16
205.803	1.26
206.022	1.24
206.242	2
206.461	1.74
206.68	1.34
206.9	1.38
207.119	2.29
207.338	2.41
207.557	1.26
207.777	1.17
207.996	1.47
208.215	2.39
208.434	1.22
208.654	1.1
208.873	1.68
209.092	2.2
209.311	1.24
209.53	1.29
209.749	1.41
209.968	1.29
210.187	0.96
210.407	0.91
210.626	1.14
210.845	1.51
211.064	1.11
211.283	0.79
211.502	1.53
211.721	1.36
211.94	1.1
212.159	1.13
212.377	1.22
212.596	1.65
212.815	0.97
213.034	1.17
213.253	1.44
213.472	1.39
213.691	0.96
213.91	0.77
214.128	0.77
214.347	1.73
214.566	0.57
214.785	0.55
215.003	1.26
215.222	1.25
215.441	0.92
215.66	0.77
215.878	1.02
216.097	1.05
216.316	0.72
216.534	0.86
216.753	1.21
216.972	0.9
217.19	0.9
217.409	0.58
217.627	0.79
217.846	0.93
218.064	1.01
218.283	0.74
218.501	1.53
218.72	1.06
218.938	0.67
219.157	0.72
219.375	1.29
219.594	0.98
219.812	0.69
220.031	0.62
220.249	1.35
220.467	1.14
220.686	0.6
220.904	0.47
221.122	0.71
221.341	1.24
221.559	0.9
221.777	0.68
221.995	0.89
222.214	0.83
222.432	0.63
222.65	1.02
222.868	0.71
223.086	0.9
223.305	0.78
223.523	0.73
223.741	1.02
223.959	0.73
224.177	0.5
224.395	0.49
224.613	0.82
224.831	0.91
225.049	0.49
225.267	0.6
225.485	0.76
225.703	0.7
225.921	0.58
226.139	0.54
226.357	0.85
226.575	0.74
226.793	0.53
227.011	1.66
227.229	0.79
227.447	0.89
227.665	0.75
227.883	0.36
228.1	0.82
228.318	0.76
228.536	0.32
228.754	0.48
228.972	0.64
229.189	0.71
229.407	0.52
229.625	0.61
229.843	0.96
230.06	0.79
230.278	0.66
230.496	0.57
230.713	0.73
230.931	0.89
231.149	0.54
231.366	0.34
231.584	0.62
231.801	0.92
232.019	0.42
232.236	0.39
232.454	0.47
232.671	0.69
232.889	0.55
233.106	0.46
233.324	0.59
233.541	0.52
233.759	0.49
233.976	0.44
234.194	0.59
234.411	0.58
234.628	0.45
234.846	0.58
235.063	0.5
235.28	0.61
235.498	0.49
235.715	0.43
235.932	0.77
236.149	0.55
236.367	0.37
236.584	0.49
236.801	0.47
237.018	0.62
237.236	0.53
237.453	0.38
237.67	0.75
237.887	0.52
238.104	0.48
238.321	0.37
238.538	0.45
238.755	0.79
238.973	0.24
239.19	0.47
239.407	0.51
239.624	0.62
239.841	0.4
240.058	0.37
240.275	0.52
240.492	0.47
240.709	0.51
240.925	0.45
241.142	0.59
241.359	0.41
241.576	0.36
241.793	0.31
242.01	0.43
242.227	0.75
242.444	0.61
242.66	0.63
242.877	0.46
243.094	0.56
243.311	0.57
243.527	0.47
243.744	0.59
243.961	0.56
244.178	0.44
244.394	0.44
244.611	0.7
244.828	0.72
245.044	0.36
245.261	0.43
245.477	0.48
245.694	0.56
245.911	0.4
246.127	0.39
246.344	0.7
246.56	0.57
246.777	0.41
246.993	0.39
247.21	0.43
247.426	0.65
247.643	0.36
247.859	0.27
248.076	0.38
248.292	0.72
248.508	0.43
248.725	0.54
248.941	0.5
249.157	0.55
249.374	0.34
249.59	0.42
249.806	0.43
250.023	0.58
250.239	0.26
250.455	0.29
250.671	0.45
250.888	0.52
251.104	0.51
251.32	0.41
251.536	0.47
251.752	0.43
251.969	0.39
252.185	0.42
252.401	0.58
252.617	0.55
252.833	0.38
253.049	0.39
253.265	0.49
253.481	0.4
253.697	0.39
253.913	0.28
254.129	0.51
254.345	0.44
254.561	0.4
254.777	0.33
254.993	0.49
255.209	0.41
255.425	0.32
255.641	0.42
255.857	0.61
256.073	0.45
256.288	0.27
256.504	0.35
256.72	0.54
256.936	0.64
257.152	0.34
257.367	0.32
257.583	0.42
257.799	0.53
258.015	0.35
258.23	0.39
258.446	0.59
258.662	0.4
258.877	0.31
259.093	0.27
259.309	0.44
259.524	0.49
259.74	0.31
259.955	0.25
260.171	0.4
260.387	0.36
260.602	0.45
260.818	0.41
261.033	0.3
261.249	0.42
261.464	0.33
261.68	0.26
261.895	0.46
262.11	0.46
262.326	0.35
262.541	0.26
262.757	0.49
262.972	0.46
263.187	0.38
263.403	0.31
263.618	0.5
263.833	0.44
264.049	0.29
264.264	0.35
264.479	0.41
264.694	0.49
264.91	0.29
265.125	0.28
265.34	0.39
265.555	0.64
265.77	0.32
265.986	0.3
266.201	0.4
266.416	0.56
266.631	0.35
266.846	0.27
267.061	0.53
267.276	0.45
267.491	0.18
267.706	0.46
267.921	0.44
268.136	0.37
268.351	0.37
268.566	0.3
268.781	0.44
268.996	0.44
269.211	0.28
269.426	0.26
269.641	0.34
269.856	0.42
270.071	0.31
270.285	0.28
270.5	0.44
270.715	0.43
270.93	0.34
271.145	0.38
271.359	0.49
271.574	0.35
271.789	0.3
272.004	0.35
272.218	0.32
272.433	0.39
272.648	0.31
272.862	0.46
273.077	0.42
273.292	0.33
273.506	0.24
273.721	0.34
273.936	0.4
274.15	0.48
274.365	0.35
274.579	0.34
274.794	0.43
275.008	0.45
275.223	0.24
275.437	0.31
275.652	0.42
275.866	0.33
276.081	0.31
276.295	0.38
276.509	0.38
276.724	0.36
276.938	0.32
277.153	0.4
277.367	0.38
277.581	0.28
277.796	0.29
278.01	0.28
278.224	0.39
278.438	0.48
278.653	0.26
278.867	0.26
279.081	0.22
279.295	0.27
279.51	0.35
279.724	0.22
279.938	0.41
280.152	0.36
280.366	0.32
280.58	0.32
280.794	0.44
281.008	0.41
281.222	0.37
281.437	0.5
281.651	0.33
281.865	0.46
282.079	0.29
282.293	0.2
282.507	0.23
282.721	0.34
282.935	0.31
283.148	0.19
283.362	0.25
283.576	0.27
283.79	0.29
284.004	0.26
284.218	0.39
284.432	0.27
284.646	0.32
284.859	0.25
285.073	0.27
285.287	0.35
285.501	0.34
285.714	0.23
285.928	0.31
286.142	0.34
286.356	0.2
286.569	0.28
286.783	0.43
286.997	0.39
287.21	0.32
287.424	0.3
287.637	0.31
287.851	0.29
288.065	0.39
288.278	0.27
288.492	0.32
288.705	0.3
288.919	0.33
289.132	0.19
289.346	0.43
289.559	0.2
289.773	0.23
289.986	0.26
290.2	0.28
290.413	0.39
290.626	0.27
290.84	0.27
291.053	0.29
291.267	0.37
291.48	0.27
291.693	0.27
291.906	0.28
292.12	0.34
292.333	0.3
292.546	0.25
292.76	0.43
292.973	0.32
293.186	0.36
293.399	0.24
293.612	0.37
293.826	0.31
294.039	0.29
294.252	0.24
294.465	0.34
294.678	0.3
294.891	0.25
295.104	0.23
295.317	0.27
295.53	0.33
295.743	0.27
295.956	0.2
296.169	0.37
296.382	0.35
296.595	0.28
296.808	0.23
297.021	0.33
297.234	0.34
297.447	0.29
297.66	0.32
297.873	0.33
298.086	0.35
298.299	0.25
298.511	0.19
298.724	0.24
298.937	0.21
299.15	0.19
299.363	0.25
299.575	0.32
299.788	0.28
300.001	0.24
300.213	0.22
300.426	0.26
300.639	0.22
300.852	0.22
301.064	0.33
301.277	0.36
301.489	0.33
301.702	0.3
301.915	0.25
302.127	0.27
302.34	0.3
302.552	0.37
302.765	0.22
302.977	0.31
303.19	0.22
303.402	0.25
303.615	0.21
303.827	0.25
304.04	0.34
304.252	0.3
304.464	0.25
304.677	0.39
304.889	0.3
305.102	0.17
305.314	0.18
305.526	0.29
305.739	0.31
305.951	0.19
306.163	0.25
306.375	0.36
306.588	0.24
306.8	0.28
307.012	0.22
307.224	0.25
307.436	0.38
307.649	0.13
307.861	0.27
308.073	0.34
308.285	0.22
308.497	0.16
308.709	0.25
308.921	0.29
309.133	0.34
309.346	0.25
309.558	0.23
309.77	0.31
309.982	0.37
310.194	0.28
310.406	0.25
310.617	0.44
310.829	0.24
311.041	0.3
311.253	0.22
311.465	0.26
311.677	0.25
311.889	0.27
312.101	0.2
312.313	0.35
312.524	0.35
312.736	0.19
312.948	0.24
313.16	0.34
313.372	0.34
313.583	0.27
313.795	0.21
314.007	0.23
314.218	0.32
314.43	0.23
314.642	0.23
314.853	0.2
315.065	0.34
315.277	0.25
315.488	0.28
315.7	0.3
315.912	0.36
316.123	0.29
316.335	0.23
316.546	0.37
316.758	0.28
316.969	0.21
317.181	0.25
317.392	0.33
317.604	0.34
317.815	0.22
318.026	0.24
318.238	0.32
318.449	0.3
318.661	0.19
318.872	0.19
319.083	0.21
319.295	0.32
319.506	0.23
319.717	0.31
319.929	0.33
320.14	0.31
320.351	0.26
320.562	0.22
320.774	0.32
320.985	0.26
321.196	0.23
321.407	0.2
321.618	0.3
321.829	0.29
322.041	0.3
322.252	0.26
322.463	0.3
322.674	0.31
322.885	0.21
323.096	0.29
323.307	0.27
323.518	0.3
323.729	0.24
323.94	0.26
324.151	0.25
324.362	0.28
324.573	0.26
324.784	0.23
324.995	0.29
325.206	0.3
325.417	0.25
325.628	0.21
325.838	0.27
326.049	0.27
326.26	0.31
326.471	0.25
326.682	0.28
326.892	0.26
327.103	0.18
327.314	0.21
327.525	0.36
327.735	0.29
327.946	0.21
328.157	0.22
328.368	0.31
328.578	0.28
328.789	0.32
328.999	0.29
329.21	0.28
329.421	0.35
329.631	0.21
329.842	0.17
330.052	0.27
330.263	0.33
330.473	0.31
330.684	0.21
330.894	0.29
331.105	0.26
331.315	0.27
331.526	0.19
331.736	0.4
331.947	0.31
332.157	0.28
332.367	0.21
332.578	0.32
332.788	0.32
332.999	0.32
333.209	0.25
333.419	0.21
333.629	0.29
333.84	0.3
334.05	0.24
334.26	0.36
334.47	0.28
334.681	0.33
334.891	0.24
335.101	0.3
335.311	0.37
335.521	0.26
335.732	0.2
335.942	0.33
336.152	0.28
336.362	0.28
336.572	0.27
336.782	0.32
336.992	0.26
337.202	0.25
337.412	0.24
337.622	0.27
337.832	0.22
338.042	0.25
338.252	0.21
338.462	0.25
338.672	0.28
338.882	0.2
339.092	0.28
339.302	0.33
339.511	0.34
339.721	0.26
339.931	0.19
340.141	0.33
340.351	0.29
340.561	0.25
340.77	0.25
340.98	0.28
341.19	0.29
341.4	0.27
341.609	0.16
341.819	0.26
342.029	0.25
342.238	0.32
342.448	0.24
342.658	0.31
342.867	0.24
343.077	0.24
343.286	0.27
343.496	0.28
343.706	0.33
343.915	0.2
344.125	0.25
344.334	0.31
344.544	0.19
344.753	0.22
344.963	0.25
345.172	0.24
345.381	0.23
345.591	0.21
345.8	0.26
346.01	0.37
346.219	0.31
346.428	0.15
346.638	0.26
346.847	0.3
347.056	0.35
347.266	0.2
347.475	0.22
347.684	0.32
347.893	0.33
348.103	0.26
348.312	0.24
348.521	0.25
348.73	0.26
348.94	0.25
349.149	0.23
349.358	0.26
349.567	0.28
349.776	0.2
349.985	0.22
350.194	0.34
350.403	0.33
350.612	0.2
350.821	0.22
351.03	0.28
351.239	0.24
351.448	0.28
351.657	0.22
351.866	0.37
352.075	0.25
352.284	0.23
352.493	0.23
352.702	0.32
352.911	0.26
353.12	0.26
353.329	0.23
353.538	0.31
353.746	0.27
353.955	0.24
354.164	0.27
354.373	0.23
354.582	0.32
354.79	0.25
354.999	0.28
355.208	0.22
355.416	0.35
355.625	0.19
355.834	0.24
356.042	0.26
356.251	0.2
356.46	0.19
356.668	0.24
356.877	0.38
357.085	0.3
357.294	0.12
357.503	0.27
357.711	0.25
357.92	0.43
358.128	0.3
358.337	0.21
358.545	0.28
358.754	0.22
358.962	0.29
359.17	0.24
359.379	0.32
359.587	0.29
359.796	0.28
360.004	0.32
360.212	0.3
360.421	0.32
360.629	0.22
360.837	0.25
361.046	0.32
361.254	0.41
361.462	0.27
361.67	0.24
361.879	0.3
362.087	0.38
362.295	0.23
362.503	0.25
362.711	0.24
362.92	0.22
363.128	0.2
363.336	0.21
363.544	0.18
363.752	0.3
363.96	0.23
364.168	0.24
364.376	0.26
364.584	0.27
364.792	0.33
365	0.32
365.208	0.22
365.416	0.28
365.624	0.3
365.832	0.24
366.04	0.33
366.248	0.29
366.456	0.28
366.664	0.25
366.872	0.27
367.079	0.22
367.287	0.26
367.495	0.25
367.703	0.24
367.911	0.23
368.118	0.26
368.326	0.29
368.534	0.24
368.742	0.31
368.949	0.22
369.157	0.2
369.365	0.28
369.572	0.24
369.78	0.22
369.988	0.27
370.195	0.25
370.403	0.32
370.61	0.25
370.818	0.26
371.026	0.37
371.233	0.25
371.441	0.3
371.648	0.23
371.856	0.31
372.063	0.31
372.271	0.22
372.478	0.22
372.685	0.24
372.893	0.29
373.1	0.25
373.308	0.24
373.515	0.4
373.722	0.35
373.93	0.27
374.137	0.3
374.344	0.37
374.552	0.32
374.759	0.27
374.966	0.28
375.173	0.22
375.381	0.28
375.588	0.26
375.795	0.2
376.002	0.23
376.209	0.27
376.417	0.27
376.624	0.35
376.831	0.31
377.038	0.3
377.245	0.21
377.452	0.19
377.659	0.31
377.866	0.21
378.073	0.28
378.28	0.28
378.487	0.34
378.694	0.31
378.901	0.27
379.108	0.26
379.315	0.34
379.522	0.38
379.729	0.26
379.936	0.24
380.143	0.28
380.35	0.31
380.557	0.29
380.763	0.33
380.97	0.3
381.177	0.31
381.384	0.28
381.591	0.22
381.797	0.3
382.004	0.37
382.211	0.27
382.418	0.28
382.624	0.3
382.831	0.32
383.038	0.25
383.244	0.27
383.451	0.27
383.658	0.33
383.864	0.29
384.071	0.24
384.277	0.37
384.484	0.29
384.69	0.34
384.897	0.27
385.103	0.28
385.31	0.28
385.516	0.28
385.723	0.26
385.929	0.27
386.136	0.27
386.342	0.32
386.549	0.26
386.755	0.36
386.961	0.37
387.168	0.28
387.374	0.3
387.58	0.34
387.787	0.29
387.993	0.35
388.199	0.26
388.406	0.29
388.612	0.27
388.818	0.28
389.024	0.24
389.231	0.31
389.437	0.4
389.643	0.32
389.849	0.3
390.055	0.32
390.261	0.29
390.467	0.33
390.674	0.25
390.88	0.32
391.086	0.36
391.292	0.28
391.498	0.29
391.704	0.37
391.91	0.3
392.116	0.29
392.322	0.2
392.528	0.38
392.734	0.31
392.94	0.34
393.146	0.3
393.352	0.37
393.557	0.3
393.763	0.32
393.969	0.33
394.175	0.31
394.381	0.33
394.587	0.27
394.792	0.36
394.998	0.37
395.204	0.37
395.41	0.28
395.615	0.33
395.821	0.38
396.027	0.35
396.233	0.26
396.438	0.35
396.644	0.35
396.85	0.34
397.055	0.29
397.261	0.34
397.466	0.5
397.672	0.35
397.878	0.38
398.083	0.43
398.289	0.33
398.494	0.42
398.7	0.35
398.905	0.21
399.111	0.43
399.316	0.27
399.522	0.36
399.727	0.32
399.932	0.32
400.138	0.32
400.343	0.35
400.549	0.34
400.754	0.34
400.959	0.35
401.165	0.34
401.37	0.38
401.575	0.34
401.78	0.34
401.986	0.37
402.191	0.34
402.396	0.41
402.601	0.4
402.807	0.38
403.012	0.38
403.217	0.44
403.422	0.42
403.627	0.42
403.832	0.38
404.037	0.43
404.243	0.41
404.448	0.37
404.653	0.4
404.858	0.46
405.063	0.48
405.268	0.42
405.473	0.38
405.678	0.43
405.883	0.62
406.088	0.48
406.293	0.41
406.498	0.47
406.703	0.51
406.907	0.48
407.112	0.46
407.317	0.53
407.522	0.6
407.727	0.45
407.932	0.51
408.136	0.64
408.341	0.54
408.546	0.62
408.751	0.51
408.956	0.63
409.16	0.65
409.365	0.6
409.57	0.63
409.774	0.61
409.979	0.69
410.184	0.69
410.388	0.59
410.593	0.77
410.798	0.73
411.002	0.66
411.207	0.8
411.411	0.81
411.616	0.69
411.82	0.79
412.025	0.87
412.229	0.86
412.434	0.94
412.638	0.89
412.843	0.9
413.047	0.93
413.252	0.93
413.456	0.94
413.66	1.06
413.865	1.01
414.069	1.12
414.273	1.02
414.478	1.06
414.682	1.11
414.886	1.17
415.091	1.14
415.295	1.18
415.499	1.35
415.703	1.31
415.908	1.43
416.112	1.27
416.316	1.5
416.52	1.55
416.724	1.45
416.929	1.51
417.133	1.73
417.337	1.63
417.541	1.67
417.745	1.77
417.949	1.91
418.153	1.92
418.357	1.9
418.561	2.17
418.765	2.03
418.969	2.29
419.173	2.32
419.377	2.29
419.581	2.51
419.785	2.48
419.989	2.46
420.193	2.67
420.397	2.69
420.601	2.87
420.804	2.94
421.008	2.9
421.212	3.11
421.416	3.06
421.62	3.09
421.823	3.11
422.027	3.37
422.231	3.26
422.435	3.32
422.638	3.3
422.842	3.43
423.046	3.55
423.249	3.72
423.453	3.73
423.657	3.86
423.86	3.9
424.064	4.06
424.268	4.26
424.471	4.25
424.675	4.4
424.878	4.54
425.082	4.62
425.285	4.87
425.489	4.76
425.692	4.9
425.896	4.94
426.099	5.16
426.303	5.23
426.506	5.46
426.71	5.57
426.913	5.82
427.116	5.96
427.32	5.97
427.523	6
427.726	6.37
427.93	6.38
428.133	6.77
428.336	6.86
428.54	7.1
428.743	7.29
428.946	7.53
429.149	7.44
429.353	7.56
429.556	7.65
429.759	7.64
429.962	7.78
430.165	7.95
430.368	7.62
430.571	7.7
430.775	7.73
430.978	7.73
431.181	7.79
431.384	7.83
431.587	7.98
431.79	8.41
431.993	8.37
432.196	8.65
432.399	9.03
432.602	9.12
432.805	9.11
433.008	9.73
433.211	9.51
433.414	9.99
433.616	10.01
433.819	9.96
434.022	10.12
434.225	10.17
434.428	10.24
434.631	10.83
434.833	10.52
435.036	10.78
435.239	11.01
435.442	11.01
435.645	11.16
435.847	11.26
436.05	11.5
436.253	11.73
436.455	11.63
436.658	11.7
436.861	11.99
437.063	12.14
437.266	12.09
437.468	12.41
437.671	12.65
437.874	12.81
438.076	12.61
438.279	12.95
438.481	13.05
438.684	13.82
438.886	13.5
439.089	13.67
439.291	13.84
439.494	14.08
439.696	14.39
439.899	14.8
440.101	15.09
440.303	15.36
440.506	15.93
440.708	15.72
440.91	16.05
441.113	16.23
441.315	16.51
441.517	16.37
441.72	16.81
441.922	16.38
442.124	16.28
442.326	16.65
442.529	17.01
442.731	16.94
442.933	17.05
443.135	16.98
443.337	16.99
443.539	17.55
443.742	17.32
443.944	17.92
444.146	17.69
444.348	17.6
444.55	17.58
444.752	17.7
444.954	17.76
445.156	17.64
445.358	18.06
445.56	18.39
445.762	18.19
445.964	18.32
446.166	18.13
446.368	18.33
446.57	18.29
446.772	17.84
446.974	17.74
447.175	17.93
447.377	17.7
447.579	18.18
447.781	17.78
447.983	17.59
448.184	17.15
448.386	17.63
448.588	17.13
448.79	17.05
448.991	17.52
449.193	17.41
449.395	16.71
449.597	16.42
449.798	16.28
450	15.79
450.202	15.98
450.403	15.86
450.605	15.92
450.806	15.29
451.008	15.21
451.21	15.05
451.411	14.75
451.613	14.02
451.814	14.35
452.016	14.21
452.217	13.46
452.419	13.59
452.62	13.17
452.821	12.99
453.023	12.86
453.224	12.53
453.426	12.15
453.627	11.43
453.828	11.48
454.03	11.51
454.231	11.52
454.432	11.27
454.634	11.11
454.835	10.88
455.036	10.62
455.238	10.23
455.439	10.18
455.64	9.74
455.841	9.71
456.042	9.79
456.244	9.5
456.445	9.21
456.646	8.9
456.847	8.77
457.048	8.79
457.249	8.8
457.45	8.52
457.651	7.91
457.852	7.86
458.054	7.51
458.255	7.41
458.456	7.49
458.657	7.45
458.858	7.06
459.058	6.92
459.259	6.9
459.46	6.67
459.661	6.66
459.862	6.67
460.063	6.54
460.264	6.43
460.465	6.2
460.666	6.24
460.866	5.94
461.067	5.66
461.268	5.7
461.469	5.63
461.67	5.58
461.87	5.34
462.071	5.42
462.272	5.27
462.473	5.26
462.673	5.4
462.874	5.34
463.075	5.27
463.275	5.22
463.476	5.37
463.676	5.25
463.877	5.1
464.078	5.11
464.278	5.12
464.479	5.03
464.679	4.86
464.88	4.92
465.08	4.83
465.281	4.62
465.481	4.45
465.682	4.22
465.882	4.34
466.083	4.23
466.283	4.24
466.483	4.01
466.684	3.89
466.884	3.77
467.085	3.81
467.285	3.87
467.485	3.75
467.686	3.66
467.886	3.46
468.086	3.49
468.286	3.55
468.487	3.57
468.687	3.38
468.887	3.31
469.087	3.47
469.287	3.4
469.488	3.2
469.688	3.38
469.888	3.31
470.088	3.27
470.288	3.18
470.488	3.12
470.688	3.04
470.888	2.97
471.088	2.78
471.288	2.91
471.488	2.86
471.688	2.85
471.888	2.76
472.088	2.96
472.288	2.85
472.488	2.67
472.688	2.65
472.888	2.72
473.088	2.72
473.288	2.59
473.488	2.58
473.688	2.71
473.887	2.56
474.087	2.53
474.287	2.58
474.487	2.49
474.687	2.53
474.886	2.42
475.086	2.4
475.286	2.4
475.486	2.36
475.685	2.34
475.885	2.35
476.085	2.29
476.284	2.35
476.484	2.34
476.684	2.3
476.883	2.4
477.083	2.26
477.282	2.2
477.482	2.29
477.681	2.18
477.881	2.1
478.08	2.18
478.28	2.12
478.479	2.19
478.679	2.17
478.878	2.11
479.078	2.08
479.277	2.14
479.477	2.07
479.676	2.09
479.875	2.08
480.075	2.01
480.274	2.09
480.473	2.11
480.673	2.05
480.872	2.14
481.071	2.12
481.271	2.11
481.47	2.01
481.669	2.06
481.868	2.05
482.067	2.05
482.267	2
482.466	2.02
482.665	1.99
482.864	2.01
483.063	2
483.262	2.04
483.461	2.08
483.661	2.08
483.86	2.09
484.059	2.09
484.258	2.04
484.457	2.05
484.656	2.08
484.855	2.15
485.054	2.01
485.253	2.03
485.452	2
485.651	2.11
485.849	2.06
486.048	2.04
486.247	2.1
486.446	2.15
486.645	2.06
486.844	2.11
487.043	2.09
487.241	2.17
487.44	2.09
487.639	2.18
487.838	2.17
488.037	2.19
488.235	2.25
488.434	2.19
488.633	2.07
488.831	2.27
489.03	2.25
489.229	2.24
489.427	2.27
489.626	2.3
489.825	2.34
490.023	2.34
490.222	2.29
490.42	2.37
490.619	2.39
490.817	2.4
491.016	2.39
491.214	2.45
491.413	2.45
491.611	2.43
491.81	2.42
492.008	2.43
492.207	2.53
492.405	2.53
492.604	2.48
492.802	2.57
493	2.59
493.199	2.6
493.397	2.68
493.595	2.73
493.794	2.71
493.992	2.79
494.19	2.72
494.388	2.81
494.587	2.77
494.785	2.79
494.983	2.75
495.181	2.86
495.379	2.89
495.578	2.95
495.776	2.96
495.974	2.91
496.172	2.94
496.37	3.05
496.568	3.1
496.766	3.07
496.964	3.19
497.162	3.17
497.36	3.23
497.558	3.24
497.756	3.32
497.954	3.27
498.152	3.32
498.35	3.41
498.548	3.34
498.746	3.39
498.944	3.4
499.142	3.44
499.34	3.5
499.538	3.62
499.736	3.53
499.933	3.64
500.131	3.62
500.329	3.78
500.527	3.73
500.725	3.86
500.922	3.85
501.12	3.86
501.318	3.92
501.516	3.91
501.713	4.01
501.911	3.93
502.109	3.92
502.306	4.09
502.504	3.97
502.701	4.09
502.899	4.15
503.097	4.31
503.294	4.13
503.492	4.3
503.689	4.31
503.887	4.37
504.084	4.46
504.282	4.41
504.479	4.34
504.677	4.52
504.874	4.57
505.072	4.41
505.269	4.67
505.466	4.68
505.664	4.73
505.861	4.65
506.059	4.68
506.256	4.78
506.453	4.86
506.651	4.93
506.848	4.97
507.045	4.93
507.242	4.98
507.44	4.97
507.637	5.01
507.834	5
508.031	5.19
508.229	5.07
508.426	5.06
508.623	5.24
508.82	5.24
509.017	5.24
509.214	5.19
509.411	5.38
509.608	5.35
509.805	5.4
510.003	5.38
510.2	5.48
510.397	5.66
510.594	5.49
510.791	5.62
510.988	5.6
511.184	5.59
511.381	5.48
511.578	5.58
511.775	5.77
511.972	5.67
512.169	5.76
512.366	5.77
512.563	5.88
512.76	5.98
512.956	5.91
513.153	5.83
513.35	5.9
513.547	5.87
513.744	5.99
513.94	5.94
514.137	6.06
514.334	6.09
514.53	6.1
514.727	6.36
514.924	6.21
515.12	6.17
515.317	6.24
515.514	6.12
515.71	6.15
515.907	6.36
516.103	6.37
516.3	6.24
516.497	6.47
516.693	6.39
516.89	6.42
517.086	6.44
517.283	6.51
517.479	6.37
517.676	6.57
517.872	6.59
518.068	6.57
518.265	6.62
518.461	6.5
518.658	6.61
518.854	6.65
519.05	6.7
519.247	6.76
519.443	6.74
519.639	6.83
519.836	6.67
520.032	6.69
520.228	6.86
520.424	6.83
520.621	6.87
520.817	6.9
521.013	6.85
521.209	7.06
521.405	7.01
521.601	7.01
521.798	6.92
521.994	6.98
522.19	6.92
522.386	7
522.582	7.11
522.778	7.21
522.974	7.08
523.17	7.07
523.366	7.05
523.562	7.19
523.758	7.12
523.954	6.94
524.15	7.14
524.346	7.2
524.542	7.21
524.738	7.12
524.934	7.29
525.129	7.27
525.325	7.13
525.521	7.24
525.717	7.38
525.913	7.25
526.109	7.27
526.304	7.42
526.5	7.35
526.696	7.42
526.892	7.32
527.087	7.51
527.283	7.46
527.479	7.46
527.674	7.21
527.87	7.49
528.066	7.4
528.261	7.45
528.457	7.38
528.653	7.57
528.848	7.55
529.044	7.62
529.239	7.49
529.435	7.49
529.63	7.4
529.826	7.51
530.021	7.48
530.217	7.57
530.412	7.58
530.608	7.52
530.803	7.54
530.999	7.48
531.194	7.62
531.389	7.68
531.585	7.65
531.78	7.75
531.975	7.64
532.171	7.76
532.366	7.69
532.561	7.68
532.757	7.63
532.952	7.86
533.147	7.66
533.342	7.69
533.538	7.67
533.733	7.83
533.928	7.56
534.123	7.7
534.318	7.78
534.513	7.68
534.709	7.85
534.904	7.76
535.099	7.88
535.294	7.86
535.489	7.92
535.684	7.7
535.879	7.8
536.074	7.86
536.269	7.87
536.464	7.87
536.659	7.8
536.854	7.85
537.049	7.89
537.244	7.85
537.439	7.79
537.634	7.87
537.828	7.98
538.023	7.92
538.218	7.85
538.413	7.78
538.608	7.85
538.803	7.86
538.997	7.86
539.192	7.88
539.387	7.86
539.582	7.87
539.776	7.75
539.971	7.98
540.166	8
540.36	7.86
540.555	8.04
540.75	7.98
540.944	7.92
541.139	7.99
541.334	7.92
541.528	7.96
541.723	8.01
541.917	8.02
542.112	7.88
542.306	7.86
542.501	7.91
542.695	7.96
542.89	7.92
543.084	7.9
543.279	8.01
543.473	8.07
543.668	8.02
543.862	7.87
544.056	7.84
544.251	8.04
544.445	8.08
544.64	8.12
544.834	7.78
545.028	7.65
545.222	7.96
545.417	8.19
545.611	8.02
545.805	8.03
546	7.87
546.194	8.01
546.388	8.11
546.582	7.91
546.776	7.97
546.97	8.02
547.165	7.98
547.359	8.03
547.553	7.91
547.747	8.01
547.941	8.16
548.135	7.94
548.329	8.04
548.523	8.08
548.717	7.95
548.911	8
549.105	7.93
549.299	8.1
549.493	8.05
549.687	7.95
549.881	8.15
550.075	8.04
550.269	7.96
550.463	8.09
550.657	8.04
550.85	8.08
551.044	7.99
551.238	8.08
551.432	8.06
551.626	8.05
551.82	8.07
552.013	7.97
552.207	8.1
552.401	8.15
552.594	7.99
552.788	7.94
552.982	7.98
553.176	7.92
553.369	8.25
553.563	8.11
553.756	8
553.95	8.09
554.144	8.12
554.337	8.11
554.531	7.9
554.724	8.09
554.918	8.16
555.111	7.99
555.305	8.01
555.498	8.02
555.692	8.21
555.885	8.13
556.079	8.08
556.272	8.05
556.466	8.08
556.659	7.99
556.852	8.12
557.046	8
557.239	7.93
557.432	8.04
557.626	8.1
557.819	8.15
558.012	8.08
558.206	8.17
558.399	8.08
558.592	8.05
558.785	7.98
558.979	8.09
559.172	8.05
559.365	8.04
559.558	8.01
559.751	8.01
559.944	8.14
560.138	8.01
560.331	8.09
560.524	8.09
560.717	8.07
560.91	8.07
561.103	8.09
561.296	7.98
561.489	8.05
561.682	8.1
561.875	8.1
562.068	8.2
562.261	7.99
562.454	8.2
562.647	8.01
562.84	8.04
563.032	8.07
563.225	7.96
563.418	8.05
563.611	8.15
563.804	8.16
563.997	7.95
564.19	7.81
564.382	8.12
564.575	8.05
564.768	7.94
564.961	8.1
565.153	7.96
565.346	8.05
565.539	8.11
565.731	8.03
565.924	8.07
566.117	8.19
566.309	8.08
566.502	8
566.695	8
566.887	8.03
567.08	8.03
567.272	8.1
567.465	7.89
567.657	8.09
567.85	7.93
568.042	8.07
568.235	8.11
568.427	7.84
568.62	8.04
568.812	8.01
569.005	8.06
569.197	7.89
569.389	8.06
569.582	8.02
569.774	8.05
569.966	7.93
570.159	7.9
570.351	7.89
570.543	7.97
570.736	7.99
570.928	7.8
571.12	8.02
571.312	7.91
571.505	7.72
571.697	7.99
571.889	7.93
572.081	7.89
572.273	7.89
572.465	8.01
572.658	7.93
572.85	7.96
573.042	7.97
573.234	7.87
573.426	7.92
573.618	7.85
573.81	7.89
574.002	7.92
574.194	7.92
574.386	7.83
574.578	7.77
574.77	7.88
574.962	7.95
575.154	7.8
575.346	7.76
575.538	7.85
575.729	7.77
575.921	7.86
576.113	7.9
576.305	7.87
576.497	7.94
576.689	7.75
576.88	7.71
577.072	7.92
577.264	7.8
577.456	7.81
577.647	7.76
577.839	7.93
578.031	7.83
578.223	7.74
578.414	7.69
578.606	7.75
578.798	7.85
578.989	7.77
579.181	7.85
579.372	7.77
579.564	7.77
579.755	7.71
579.947	7.64
580.139	7.79
580.33	7.62
580.522	7.75
580.713	7.7
580.905	7.62
581.096	7.8
581.287	7.66
581.479	7.65
581.67	7.72
581.862	7.65
582.053	7.64
582.244	7.5
582.436	7.81
582.627	7.56
582.818	7.53
583.01	7.53
583.201	7.67
583.392	7.58
583.583	7.61
583.775	7.42
583.966	7.49
584.157	7.61
584.348	7.61
584.54	7.54
584.731	7.58
584.922	7.5
585.113	7.4
585.304	7.52
585.495	7.53
585.686	7.54
585.877	7.52
586.068	7.6
586.259	7.55
586.45	7.51
586.641	7.46
586.832	7.53
587.023	7.43
587.214	7.41
587.405	7.5
587.596	7.38
587.787	7.31
587.978	7.4
588.169	7.38
588.36	7.37
588.551	7.36
588.742	7.38
588.932	7.44
589.123	7.18
589.314	7.42
589.505	7.27
589.696	7.3
589.886	7.29
590.077	7.25
590.268	7.19
590.458	7.21
590.649	7.06
590.84	7.18
591.03	7.2
591.221	7.2
591.412	7.07
591.602	7.35
591.793	7.23
591.984	7.19
592.174	7.16
592.365	7.25
592.555	7.08
592.746	7.06
592.936	7.07
593.127	7.1
593.317	7.1
593.508	7.11
593.698	6.96
593.889	7.04
594.079	7.07
594.269	6.96
594.46	7.02
594.65	7.1
594.84	6.95
595.031	6.92
595.221	6.9
595.411	6.96
595.602	6.92
595.792	6.87
595.982	6.82
596.172	7.03
596.363	6.84
596.553	6.88
596.743	6.84
596.933	6.86
597.123	6.86
597.314	6.7
597.504	6.68
597.694	6.87
597.884	6.72
598.074	6.78
598.264	6.74
598.454	6.81
598.644	6.68
598.834	6.73
599.024	6.64
599.214	6.62
599.404	6.69
599.594	6.65
599.784	6.66
599.974	6.68
600.164	6.58
600.354	6.55
600.544	6.56
600.734	6.61
600.924	6.54
601.114	6.48
601.303	6.48
601.493	6.53
601.683	6.53
601.873	6.46
602.063	6.41
602.252	6.51
602.442	6.39
602.632	6.41
602.821	6.3
603.011	6.44
603.201	6.36
603.39	6.31
603.58	6.28
603.77	6.37
603.959	6.35
604.149	6.3
604.339	6.26
604.528	6.4
604.718	6.3
604.907	6.23
605.097	6.15
605.286	6.18
605.476	6.26
605.665	6.21
605.855	6.16
606.044	6.23
606.234	6.18
606.423	6.08
606.612	6.13
606.802	6.09
606.991	6.13
607.181	6.19
607.37	6.08
607.559	5.87
607.749	6.09
607.938	5.93
608.127	5.98
608.316	6
608.506	5.97
608.695	6
608.884	5.91
609.073	5.97
609.263	6.01
609.452	5.93
609.641	5.8
609.83	5.81
610.019	5.9
610.208	5.79
610.397	5.81
610.586	5.87
610.775	5.7
610.965	5.72
611.154	5.63
611.343	5.79
611.532	5.7
611.721	5.75
611.91	5.62
612.099	5.67
612.287	5.56
612.476	5.51
612.665	5.72
612.854	5.57
613.043	5.57
613.232	5.63
613.421	5.48
613.61	5.52
613.798	5.51
613.987	5.57
614.176	5.49
614.365	5.45
614.554	5.44
614.742	5.55
614.931	5.32
615.12	5.49
615.309	5.4
615.497	5.37
615.686	5.27
615.875	5.35
616.063	5.37
616.252	5.27
616.44	5.3
616.629	5.32
616.818	5.32
617.006	5.23
617.195	5.14
617.383	5.22
617.572	5.15
617.76	5.14
617.949	5.14
618.137	5.23
618.326	5.26
618.514	4.99
618.703	4.99
618.891	5.16
619.079	5.07
619.268	5.07
619.456	4.96
619.644	5.13
619.833	4.98
620.021	4.93
620.209	4.87
620.398	4.98
620.586	4.87
620.774	4.95
620.962	4.88
621.151	5.01
621.339	4.91
621.527	4.8
621.715	4.79
621.903	4.87
622.092	4.71
622.28	4.88
622.468	4.68
622.656	4.77
622.844	4.75
623.032	4.78
623.22	4.64
623.408	4.8
623.596	4.7
623.784	4.72
623.972	4.58
624.16	4.63
624.348	4.71
624.536	4.66
624.724	4.48
624.912	4.6
625.1	4.59
625.288	4.56
625.476	4.46
625.664	4.57
625.851	4.5
626.039	4.48
626.227	4.46
626.415	4.45
626.603	4.36
626.79	4.4
626.978	4.47
627.166	4.4
627.354	4.33
627.541	4.3
627.729	4.33
627.917	4.4
628.104	4.32
628.292	4.29
628.48	4.32
628.667	4.31
628.855	4.33
629.042	4.28
629.23	4.25
629.418	4.22
629.605	4.2
629.793	4.09
629.98	4.17
630.168	4.12
630.355	4.11
630.543	4.13
630.73	4.05
630.917	4.14
631.105	4.2
631.292	4.05
631.48	4.1
631.667	4.22
631.854	3.98
632.042	4.04
632.229	3.93
632.416	4
632.604	4
632.791	3.8
632.978	4.04
633.165	3.9
633.353	4
633.54	3.92
633.727	3.77
633.914	3.81
634.101	3.78
634.289	3.92
634.476	3.8
634.663	3.74
634.85	3.79
635.037	3.68
635.224	3.64
635.411	3.81
635.598	3.7
635.785	3.7
635.972	3.67
636.159	3.72
636.346	3.63
636.533	3.59
636.72	3.64
636.907	3.61
637.094	3.6
637.281	3.52
637.468	3.52
637.655	3.54
637.842	3.58
638.029	3.51
638.215	3.53
638.402	3.51
638.589	3.41
638.776	3.44
638.963	3.43
639.149	3.51
639.336	3.5
639.523	3.43
639.709	3.45
639.896	3.36
640.083	3.43
640.27	3.42
640.456	3.33
640.643	3.37
640.829	3.2
641.016	3.28
641.203	3.17
641.389	3.23
641.576	3.26
641.762	3.26
641.949	3.21
642.135	3.25
642.322	3.18
642.508	3.1
642.695	3.21
642.881	3.09
643.068	3.14
643.254	3.2
643.441	3.17
643.627	3.17
643.813	2.96
644	3.13
644.186	3.02
644.372	3.12
644.559	3.03
644.745	3.02
644.931	2.97
645.118	3
645.304	3.03
645.49	2.97
645.676	2.95
645.862	2.95
646.049	3.03
646.235	2.93
646.421	3.09
646.607	3.03
646.793	2.91
646.979	2.84
647.165	2.89
647.352	2.84
647.538	2.9
647.724	2.82
647.91	2.79
648.096	2.83
648.282	2.83
648.468	2.78
648.654	2.8
648.84	2.79
649.026	2.77
649.212	2.72
649.397	2.69
649.583	2.71
649.769	2.76
649.955	2.69
650.141	2.74
650.327	2.71
650.513	2.64
650.698	2.72
650.884	2.55
651.07	2.68
651.256	2.61
651.442	2.6
651.627	2.49
651.813	2.57
651.999	2.53
652.184	2.58
652.37	2.5
652.556	2.52
652.741	2.57
652.927	2.38
653.113	2.47
653.298	2.52
653.484	2.51
653.669	2.46
653.855	2.46
654.04	2.47
654.226	2.48
654.412	2.39
654.597	2.34
654.782	2.44
654.968	2.47
655.153	2.39
655.339	2.36
655.524	2.33
655.71	2.41
655.895	2.35
656.08	2.31
656.266	2.39
656.451	2.3
656.636	2.27
656.822	2.27
657.007	2.28
657.192	2.31
657.378	2.25
657.563	2.19
657.748	2.28
657.933	2.23
658.118	2.14
658.304	2.22
658.489	2.31
658.674	2.2
658.859	2.11
659.044	2.16
659.229	2.21
659.414	2.15
659.599	2.13
659.785	2.07
659.97	2.13
660.155	2.13
660.34	2.15
660.525	2.04
660.71	2.01
660.895	2.09
661.08	2.02
661.264	1.98
661.449	2.14
661.634	2.06
661.819	2.05
662.004	2.02
662.189	1.94
662.374	2.02
662.559	1.97
662.743	1.91
662.928	1.99
663.113	1.94
663.298	1.9
663.483	1.91
663.667	1.97
663.852	1.91
664.037	1.98
664.221	1.9
664.406	1.95
664.591	1.99
664.775	1.98
664.96	1.83
665.145	1.89
665.329	1.89
665.514	1.87
665.698	1.83
665.883	1.75
666.068	1.9
666.252	1.82
666.437	1.8
666.621	1.79
666.806	1.84
666.99	1.87
667.174	1.78
667.359	1.88
667.543	1.75
667.728	1.68
667.912	1.66
668.096	1.78
668.281	1.72
668.465	1.74
668.649	1.74
668.834	1.66
669.018	1.68
669.202	1.71
669.387	1.68
669.571	1.75
669.755	1.64
669.939	1.64
670.124	1.66
670.308	1.74
670.492	1.7
670.676	1.69
670.86	1.64
671.044	1.57
671.228	1.66
671.413	1.63
671.597	1.57
671.781	1.61
671.965	1.62
672.149	1.6
672.333	1.55
672.517	1.56
672.701	1.62
672.885	1.55
673.069	1.45
673.253	1.66
673.437	1.52
673.621	1.48
673.804	1.57
673.988	1.53
674.172	1.51
674.356	1.44
674.54	1.49
674.724	1.6
674.908	1.48
675.091	1.54
675.275	1.47
675.459	1.58
675.643	1.54
675.826	1.47
676.01	1.45
676.194	1.5
676.377	1.45
676.561	1.5
676.745	1.44
676.928	1.43
677.112	1.48
677.296	1.41
677.479	1.39
677.663	1.36
677.846	1.4
678.03	1.32
678.213	1.34
678.397	1.42
678.58	1.39
678.764	1.36
678.947	1.33
679.131	1.37
679.314	1.39
679.498	1.31
679.681	1.34
679.865	1.39
680.048	1.28
680.231	1.29
680.415	1.23
680.598	1.27
680.781	1.29
680.965	1.27
681.148	1.32
681.331	1.26
681.514	1.27
681.698	1.2
681.881	1.28
682.064	1.32
682.247	1.24
682.43	1.16
682.614	1.24
682.797	1.32
682.98	1.32
683.163	1.14
683.346	1.22
683.529	1.18
683.712	1.21
683.895	1.26
684.078	1.14
684.261	1.19
684.444	1.25
684.627	1.25
684.81	1.1
684.993	1.13
685.176	1.22
685.359	1.11
685.542	1.13
685.725	1.29
685.908	1.15
686.091	1.18
686.274	1.19
686.457	1.2
686.639	1.15
686.822	1.15
687.005	1.15
687.188	1.19
687.371	1.25
687.553	1.17
687.736	1.16
687.919	1.24
688.102	1.17
688.284	1.07
688.467	1.05
688.65	1.09
688.832	1.03
689.015	1.04
689.197	0.99
689.38	1.21
689.563	1.15
689.745	0.99
689.928	1.04
690.11	1.07
690.293	1.07
690.475	0.92
690.658	1.09
690.84	1.05
691.023	1.02
691.205	1.02
691.388	1
691.57	1.07
691.752	1.03
691.935	0.92
692.117	0.93
692.3	1.04
692.482	0.96
692.664	0.95
692.847	1.01
693.029	1.06
693.211	1.02
693.393	0.97
693.576	0.91
693.758	0.94
693.94	0.92
694.122	0.93
694.304	0.94
694.487	0.95
694.669	1.01
694.851	0.86
695.033	0.93
695.215	0.88
695.397	0.93
695.579	0.92
695.761	0.82
695.943	0.88
696.125	0.99
696.308	0.96
696.49	0.8
696.671	1.06
696.853	0.89
697.035	1.11
697.217	0.9
697.399	1.04
697.581	0.85
697.763	0.92
697.945	0.76
698.127	0.94
698.309	0.94
698.491	0.92
698.672	0.84
698.854	0.92
699.036	0.93
699.218	0.84
699.399	0.95
699.581	0.88
699.763	0.82
699.945	0.78
700.126	0.77
700.308	0.87
700.49	0.88
700.671	0.77
700.853	0.76
701.035	0.76
701.216	0.86
701.398	0.75
701.579	0.8
701.761	0.92
701.943	0.73
702.124	0.75
702.306	0.75
702.487	0.96
702.669	0.78
702.85	0.76
703.031	0.74
703.213	0.89
703.394	0.9
703.576	0.76
703.757	0.91
703.938	0.73
704.12	0.94
704.301	0.76
704.483	0.77
704.664	0.76
704.845	0.91
705.026	0.9
705.208	0.71
705.389	0.87
705.57	0.78
705.751	0.77
705.933	0.76
706.114	0.85
706.295	0.75
706.476	0.64
706.657	0.86
706.838	0.73
707.02	0.87
707.201	0.67
707.382	0.7
707.563	0.82
707.744	0.71
707.925	0.61
708.106	0.62
708.287	0.73
708.468	0.83
708.649	0.72
708.83	0.77
709.011	0.71
709.192	0.82
709.373	0.63
709.554	0.7
709.734	0.82
709.915	0.8
710.096	0.74
710.277	0.51
710.458	0.71
710.639	0.75
710.819	0.58
711	0.66
711.181	0.77
711.362	0.73
711.542	0.72
711.723	0.62
711.904	0.77
712.085	0.75
712.265	0.7
712.446	0.67
712.627	0.64
712.807	0.63
712.988	0.73
713.168	0.53
713.349	0.74
713.53	0.51
713.71	0.64
713.891	0.54
714.071	0.65
714.252	0.64
714.432	0.59
714.613	0.5
714.793	0.62
714.974	0.77
715.154	0.69
715.334	0.65
715.515	0.74
715.695	0.53
715.876	0.63
716.056	0.64
716.236	0.58
716.417	0.63
716.597	0.55
716.777	0.83
716.957	0.65
717.138	0.63
717.318	0.56
717.498	0.5
717.678	0.6
717.859	0.61
718.039	0.51
718.219	0.62
718.399	0.67
718.579	0.54
718.759	0.51
718.939	0.63
719.12	0.62
719.3	0.6
719.48	0.37
719.66	0.46
719.84	0.73
720.02	0.6
720.2	0.5
720.38	0.54
720.56	0.72
720.74	0.48
720.92	0.61
721.1	0.73
721.279	0.59
721.459	0.61
721.639	0.52
721.819	0.58
721.999	0.62
722.179	0.68
722.359	0.47
722.538	0.46
722.718	0.63
722.898	0.54
723.078	0.58
723.257	0.49
723.437	0.63
723.617	0.67
723.797	0.53
723.976	0.5
724.156	0.66
724.336	0.67
724.515	0.74
724.695	0.43
724.874	0.48
725.054	0.6
725.234	0.51
725.413	0.52
725.593	0.54
725.772	0.48
725.952	0.54
726.131	0.56
726.311	0.61
726.49	0.5
726.67	0.48
726.849	0.46
727.028	0.6
727.208	0.47
727.387	0.63
727.567	0.4
727.746	0.5
727.925	0.46
728.105	0.39
728.284	0.49
728.463	0.47
728.643	0.6
728.822	0.4
729.001	0.47
729.18	0.5
729.359	0.58
729.539	0.53
729.718	0.57
729.897	0.57
730.076	0.49
730.255	0.42
730.434	0.57
730.614	0.57
730.793	0.66
730.972	0.51
731.151	0.49
731.33	0.61
731.509	0.67
731.688	0.51
731.867	0.47
732.046	0.37
732.225	0.73
732.404	0.49
732.583	0.33
732.762	0.52
732.941	0.71
733.12	0.54
733.298	0.48
733.477	0.68
733.656	0.43
733.835	0.44
734.014	0.59
734.193	0.46
734.371	0.58
734.55	0.61
734.729	0.43
734.908	0.6
735.086	0.51
735.265	0.61
735.444	0.31
735.623	0.37
735.801	0.44
735.98	0.43
736.159	0.43
736.337	0.62
736.516	0.67
736.694	0.46
736.873	0.5
737.052	0.76
737.23	0.78
737.409	0.48
737.587	0.8
737.766	0.36
737.944	0.35
738.123	0.62
738.301	0.61
738.479	0.55
738.658	0.59
738.836	0.38
739.015	0.51
739.193	0.61
739.371	0.3
739.55	0.56
739.728	0.49
739.906	0.77
740.085	0.64
740.263	0.58
740.441	0.29
740.62	0.81
740.798	0.57
740.976	0.3
741.154	0.36
741.332	0.68
741.511	0.41
741.689	0.52
741.867	0.59
742.045	0.51
742.223	0.5
742.401	0.51
742.579	0.47
742.757	0.62
742.935	0.38
743.114	0.39
743.292	0.48
743.47	0.42
743.648	0.59
743.826	0.58
744.004	0.61
744.181	0.56
744.359	0.35
744.537	0.52
744.715	0.43
744.893	0.45
745.071	0.5
745.249	0.49
745.427	0.55
745.605	0.6
745.782	0.44
745.96	0.54
746.138	0.58
746.316	0.52
746.493	0.43
746.671	0.35
746.849	0.42
747.027	0.64
747.204	0.37
747.382	0.44
747.56	0.3
747.737	0.34
747.915	0.45
748.093	0.49
748.27	0.41
748.448	0.45
748.625	0.28
748.803	0.38
748.98	0.31
749.158	0.6
749.335	0.56
749.513	0.37
749.69	0.46
749.868	0.37
750.045	0.47
750.223	0.32
750.4	0.2
750.578	0.62
750.755	0.47
750.932	0.27
751.11	0.52
751.287	0.26
751.464	0.6
751.642	0.42
751.819	0.44
751.996	0.43
752.173	0.33
752.351	0.43
752.528	0.43
752.705	0.3
752.882	0.3
753.06	0.51
753.237	0.47
753.414	0.76
753.591	0.59
753.768	0.33
753.945	0.4
754.122	0.41
754.299	0.48
754.476	0.28
754.654	0.4
754.831	0.38
755.008	0.44
755.185	0.22
755.362	0.32
755.539	0.54
755.716	0.36
755.892	0.32
756.069	0.48
756.246	0.41
756.423	0.53
756.6	0.62
756.777	0.37
756.954	0.55
757.131	0.39
757.307	0.37
757.484	0.25
757.661	0.42
757.838	0.47
758.015	0.24
758.191	0.39
758.368	0.51
758.545	0.62
758.721	0.39
758.898	0.24
759.075	0.48
759.251	0.49
759.428	0.48
759.605	0.26
759.781	0.37
759.958	0.54
760.134	0.45
760.311	0.3
760.488	0.61
760.664	0.52
760.841	0.43
761.017	0.32
761.194	0.49
761.37	0.52
761.547	0.35
761.723	0.41
761.899	0.55
762.076	0.28
762.252	0.36
762.429	0.29
762.605	0.52
762.781	0.35
762.958	0.53
763.134	0.38
763.31	0.33
763.486	0.49
763.663	0.24
763.839	0.5
764.015	0.2
764.191	0.29
764.368	0.31
764.544	0.16
764.72	0.43
764.896	0.37
765.072	0.41
765.248	0.29
765.425	0.31
765.601	0.51
765.777	0.42
765.953	0.15
766.129	0.33
766.305	0.17
766.481	0.41
766.657	0.37
766.833	0.49
767.009	0.28
767.185	0.29
767.361	0.41
767.537	0.24
767.713	0.65
767.889	0.5
768.065	0.4
768.24	0.5
768.416	0.68
768.592	0.32
768.768	0.38
768.944	0.43
769.12	0.31
769.295	0.33
769.471	0.33
769.647	0.32
769.823	0.74
769.998	0.23
770.174	0.29
770.35	0.97
770.525	0.69
770.701	0.46
770.877	0.34
771.052	0.37
771.228	0.54
771.403	0.42
771.579	0.49
771.755	0.75
771.93	0.29
772.106	0.28
772.281	0.08
772.457	0.41
772.632	0.51
772.808	0.25
772.983	0.25
773.159	0.13
773.334	0.66
773.509	0.43
773.685	0.17
773.86	0.8
774.036	0.65
774.211	0.43
774.386	0.27
774.562	0.42
774.737	0.72
774.912	0.27
775.087	0.45
775.263	0.4
775.438	0.29
775.613	0.32
775.788	0.23
775.964	0.57
776.139	0.91
776.314	0.26
776.489	0.49
776.664	0.52
776.839	0.32
777.014	0.52
777.19	0.55
777.365	0.83
777.54	0.59
777.715	0.25
777.89	0.41
778.065	0.34
778.24	0.24
778.415	0.53
778.59	0.23
778.765	0.43
778.94	0.53
779.115	0.34
779.289	0.41
779.464	0.39
779.639	0.39
779.814	0.14
779.989	0.26
780.164	0.65
780.339	0.56
780.513	0.3
780.688	0.07
780.863	0.44
781.038	0.7
781.212	0.1
781.387	0.45
781.562	0.76
781.737	0.45
781.911	0.54
782.086	0.27
782.261	0.24
782.435	0.8
782.61	0.18
782.784	0.38
782.959	0.72
783.134	0.38
783.308	0.27
783.483	0.26
783.657	0.87
783.832	0.81
784.006	0.08
784.181	0.48
784.355	0.54
784.53	0.39
784.704	0.29
784.878	0.65
785.053	0.7
785.227	0.8
785.402	0.81
785.576	0.52
785.75	0.4
785.925	0.4
786.099	0.65
786.273	0.37
786.448	0.8
786.622	0.77
786.796	0.32
786.97	0.43
787.145	1.17
787.319	0.07
787.493	0.48
787.667	-0.02
787.841	0.42
788.015	1
788.19	0.23
788.364	0.68
788.538	0.71
788.712	0.6
788.886	0.3
789.06	0.76
789.234	0.69
789.408	0.06
789.582	0.45
789.756	0.33
789.93	0.5
790.104	0.38
790.278	0.56
790.452	0.31
790.626	0.55
790.8	0.37
790.973	0.62
791.147	0.68
791.321	0.87
791.495	1.03
791.669	0.52
791.843	0.55
792.016	0.7
792.19	0.9
792.364	0.02
792.538	1.23
792.711	0.86
792.885	0.55
793.059	0.25
793.233	-0.28
793.406	0.84
793.58	0.65
793.754	0.84
793.927	0.39
794.101	0.82
794.274	0.59
794.448	0.88
794.622	0.25
794.795	1.16
794.969	0.36
795.142	0.95
795.316	0.28
795.489	0.38
795.663	0.84
795.836	0.7
796.009	0.27
796.183	1.03
796.356	0.71
796.53	0.55
796.703	0.72
796.876	1.33
797.05	0.68
797.223	0.31
797.396	0.78
797.57	0.42
797.743	1.07
797.916	0.58
798.09	0.6
798.263	0.86
798.436	0.54
798.609	0.36
798.782	0.48
798.956	0.68
799.129	0.69
799.302	0.3
799.475	0.21
799.648	0.41
799.821	0.48
799.994	0.59
800.167	-0.03
800.34	0.54
800.514	0.52
800.687	0.52
800.86	0.12
801.033	0.66
801.206	0.83
801.379	0.29
801.551	0.81
801.724	0.87
801.897	1.34
802.07	0.19
802.243	0.25
802.416	0.56
802.589	0.75
802.762	0.8
802.935	0.74
803.107	0.84
803.28	1.2
803.453	0.95
803.626	0.57
803.798	0.81
803.971	0.33
804.144	0.93
804.317	0.71
804.489	1.04
804.662	0.75
804.835	0.43
805.007	0.15
805.18	1.01
805.353	0.63
805.525	0.28
805.698	0.41
805.87	1.15
806.043	0.76
806.215	0.11
806.388	0.38
806.56	0.83
806.733	1.09
806.905	0.66
807.078	0.22
807.25	0.47
807.423	1.19
807.595	0.46
807.768	0.55
807.94	0.87
808.112	1.16
808.285	0.57
808.457	0.18
808.629	0.74
808.802	1.09
808.974	0.8
809.146	0.59
809.318	0.37
809.491	0.94
809.663	0.65
809.835	0.43
810.007	0.95
810.18	0.9
810.352	0.09
810.524	0.4
810.696	1.09
810.868	1.38
811.04	0.83
811.212	0.71
811.384	1.33
811.556	1.38
811.728	0.38
811.901	1.65
812.073	0.68
812.245	1.12
812.417	0.52
812.589	-0.02
812.76	0.86
812.932	1.18
813.104	1.08
813.276	0.41
813.448	1.29
813.62	0.93
813.792	0.44
813.964	0.48
814.136	0.98
814.307	1.01
814.479	-0.06
814.651	0.63
814.823	1.45
814.995	0.57
815.166	0.86
815.338	0.23
815.51	0.09
815.681	1.57
815.853	0.83
816.025	0.56
816.196	2.11
816.368	1.59
816.54	0.12
816.711	0.38
816.883	0.79
817.054	1.93
817.226	0.08
817.398	1.02
817.569	0.41
817.741	1.16
817.912	0.38
818.084	0.65
818.255	1.24
818.426	0.68
818.598	0.7
818.769	0.5
818.941	1.45
819.112	1.71
819.283	0.72
819.455	0.34
819.626	0.67
819.798	1.19
819.969	1.08
820.14	0.31
820.311	0.74
820.483	0.83
820.654	0.78
820.825	0.71
820.996	0.99
821.168	0.6
821.339	0.72
821.51	0.45
821.681	0.27
821.852	1.09
822.023	0.17
822.195	0.38
822.366	1.18
822.537	1.25
822.708	0.61
822.879	0.51
823.05	1.53
823.221	0.67
823.392	0.58
823.563	0.74
823.734	1.11
823.905	0.79
824.076	0.69
824.247	1
824.418	0.26
824.589	1.68
824.759	1.29
824.93	1.14
825.101	0.04
825.272	2.08
825.443	1.33
825.614	1.38
825.784	0.27
825.955	1.97
826.126	1.72
826.297	1.32
826.467	2.12
826.638	2.42
826.809	0.71
826.98	1.28
827.15	1.53
827.321	1.33
827.492	2.02
827.662	1.5
827.833	2.12
828.003	1.86
828.174	0.26
828.345	0.31
828.515	2.27
828.686	0.65
828.856	0.16
829.027	0.97
829.197	1.73
829.368	1.44
829.538	0.76
829.709	0.37
829.879	1.21
830.049	0.72
830.22	0.52
830.39	0.62
830.56	1.83
830.731	1.17
830.901	0.43
831.072	0.61
831.242	1.53
831.412	1.5
831.582	1.02
831.753	-0.53
831.923	1.5
832.093	1
832.263	0.1
832.434	0.1
832.604	0.42
832.774	1.31
832.944	1.22
833.114	0.5
833.284	1.6
833.454	1.13
833.624	0.49
833.795	0.5
833.965	2.33
834.135	2.37
834.305	-0.36
834.475	0.33
834.645	1.21
834.815	0.43
834.985	1.03
835.155	-0.28
835.325	1.17
835.494	2.11
835.664	1.14
835.834	0.36
836.004	0.87
836.174	1.39
836.344	0.59
836.514	0.03
836.684	0.04
836.853	0.65
837.023	0.59
837.193	0.27
837.363	2.36
837.532	2.23
837.702	0.85
837.872	0.48
838.041	1.6
838.211	2.55
838.381	0.65
838.55	1
838.72	3.94
838.89	2.8
839.059	1.05
839.229	-0.13
839.398	3.23
839.568	1.93
839.738	1.01
839.907	2.3
840.077	1.71
840.246	0.55
840.416	0.89
840.585	-0.1
840.755	2.84
840.924	2.35
841.093	1.29
841.263	0.6
841.432	1.22
841.602	1.04
841.771	0.82
841.94	1.44
842.11	3.25
842.279	2.65
842.448	1.41
842.617	0.45
842.787	2.36
842.956	0.47
843.125	1.82
843.294	0.93
843.464	2.81
843.633	1.69
843.802	0.07
843.971	0.68
844.14	1.95
844.309	2.96
844.479	-0.22
844.648	-0.05
844.817	0.42
844.986	1.43
845.155	0.48
845.324	0.97
845.493	0.75
845.662	0.73
845.831	1.59
846	1.63
846.169	1.32
846.338	2.87
846.507	1.31
846.676	1.32
846.844	0.97
847.013	3.19
847.182	1.24
847.351	1.25
847.52	1.54
847.689	2.18
847.858	1.75
848.026	0.05
848.195	1.34
848.364	0.99
848.533	0.39
848.701	0.46
848.87	2.03
849.039	2.54
849.207	2.5
849.376	2.67
849.545	3.2
849.713	1.16
849.882	0.8
850.051	0.27
850.219	0.8
850.388	2.33
850.556	0.71
850.725	0.7
850.893	2.14
851.062	1.37
851.23	2.25
851.399	-0.01
851.567	0.43
851.736	1.03
851.904	-0.27
852.073	1.3
852.241	2.97
852.41	1.72
852.578	1.62
852.746	0.87
852.915	2.82
853.083	0.88
853.251	0.55
853.42	1.23
853.588	2.03
853.756	3.06
853.924	1.06
854.093	0.73
854.261	1.93
854.429	0.44
854.597	1.95
854.765	-0.24
854.934	2.11
855.102	2.46
855.27	1.42
855.438	2.26
855.606	3.23
855.774	4.77
855.942	-1.05
856.11	0.49
856.278	2.12
856.446	2.77
856.614	0.85
856.782	0.39
856.95	3.47
857.118	3.06
857.286	2.84
857.454	0.48
857.622	3.45
857.79	2.57
857.958	1.61
858.126	1.79
858.294	-1.17
858.462	2.84
858.629	1
858.797	-0.83
858.965	1.16
859.133	3.05
859.301	1.8
859.468	1.46
859.636	1.35
859.804	4.9
859.971	3.02
860.139	1.25
860.307	2.95
860.474	2.4
860.642	0.89
860.81	2.3
860.977	2.35
861.145	3.83
861.313	0.35
861.48	1.48
861.648	3
861.815	0.93
861.983	-1.22
862.15	1.95
862.318	2.57
862.485	4.76
862.653	1.56
862.82	-0.36
862.988	3.84
863.155	0.84
863.322	0.36
863.49	0.58
863.657	2.38
863.824	3.68
863.992	2.89
864.159	2.4
864.326	3.87
864.494	1.33
864.661	3.95
864.828	0.16
864.996	4.25
865.163	4.52
865.33	0.72
865.497	-0.14
865.664	0.75
865.832	0.24
865.999	1.03
866.166	0.81
866.333	2.24
866.5	0.8
866.667	2.14
866.834	1.81
867.001	4.8
867.168	0.04
867.335	2.31
867.502	-1.21
867.669	3
867.836	5.11
868.003	1.74
868.17	2.51
868.337	0.83
868.504	5.44
868.671	-0.33
868.838	1.38
869.005	5.91
869.172	3.06
869.339	1.84
869.505	1.16
869.672	1.61
869.839	4.77
870.006	2.01
870.173	0.13
870.339	4.03
870.506	5.2
870.673	-0.2
870.84	3.53
871.006	3.56
871.173	2.81
871.34	1.62
871.506	-0.22
871.673	3.16
871.839	1.72
872.006	3.22
872.173	0.58
872.339	1.97
872.506	5.04
872.672	3.87
872.839	0.72
873.005	3.77
873.172	6.11
873.338	4.55
873.505	2
873.671	3.66
873.838	4.01
874.004	0.37
874.171	1.39
874.337	4.22
874.503	5.04
874.67	1.35
874.836	3.35
875.002	4.76
875.169	3.57
875.335	0.86
875.501	3.01
875.668	3.06
875.834	2.84
876	2.73
876.166	2.89
876.332	4.39
876.499	6.99
876.665	2.28
876.831	2.33
876.997	7.59
877.163	3.68
877.329	1.18
877.495	2.74
877.662	3.47
877.828	2.44
877.994	3.49
878.16	-1.71
878.326	0.6
878.492	4.36
878.658	2.69
878.824	2.01
878.99	5.07
879.156	2
879.322	4.51
879.487	0.76
879.653	2.35
879.819	3.72
879.985	0.77
880.151	2.57
880.317	2.87
880.483	4.49
880.648	5.13
880.814	-0.25
880.98	3.46
881.146	-0.89
881.312	1.06
881.477	2.53
881.643	2.13
881.809	3.46
881.974	4.07
882.14	-1.02
882.306	2.96
882.471	5.87
882.637	0.99
882.803	3.25
882.968	6.55
883.134	6.5
883.299	1.26
883.465	2.19
883.63	5.87
883.796	4.32
883.961	3
884.127	3.58
884.292	-2.63
884.458	0.49
884.623	0.49
