Data from Apollo_Calib_20240827__AbsoluteIrradiance__757__11-46-03-037.txt Node

Date: Wed Aug 28 11:46:03 BST 2024
User: biology
Spectrometer: FLMT08252
Trigger mode: 0
Integration Time (sec): 5.000000E-1
Scans to average: 5
Electric dark correction enabled: true
Nonlinearity correction enabled: false
Boxcar width: 0
XAxis mode: Wavelengths
Number of Pixels in Spectrum: 3648
>>>>>Begin Spectral Data<<<<<
179.588	-0
179.809	-0
180.03	-0
180.251	-0
180.473	-0
180.694	0
180.915	0
181.136	-0
181.357	0
181.578	-0
181.799	-0
182.02	-0
182.241	-0
182.462	-0
182.683	0
182.904	-0
183.125	-0
183.346	0
183.567	0
183.788	0
184.009	0
184.23	0
184.451	0
184.672	0
184.892	0
185.113	0
185.334	0
185.555	0
185.776	0
185.996	0
186.217	0
186.438	0
186.659	0
186.879	0
187.1	0
187.321	0
187.541	0
187.762	0
187.983	0
188.203	0
188.424	0
188.644	0
188.865	0
189.086	0
189.306	0
189.527	0
189.747	0
189.968	0
190.188	0
190.409	0
190.629	0
190.849	0
191.07	0
191.29	0
191.511	0
191.731	0
191.951	0
192.172	0
192.392	0
192.612	0
192.833	0
193.053	0
193.273	0
193.493	0
193.714	0
193.934	0
194.154	0
194.374	0
194.594	0
194.815	0
195.035	0
195.255	0
195.475	0
195.695	0
195.915	0
196.135	0
196.355	0
196.575	0
196.795	0
197.015	0
197.235	0
197.455	0
197.675	0
197.895	0
198.115	0
198.335	0
198.555	0
198.775	0
198.995	0
199.214	0
199.434	0
199.654	0
199.874	0
200.094	3.18
200.313	2.15
200.533	2.09
200.753	1.51
200.973	3.24
201.192	2.26
201.412	1.02
201.632	1.68
201.851	2.43
202.071	1.44
202.291	1.4
202.51	0.65
202.73	1.96
202.95	1.21
203.169	1.26
203.389	1.54
203.608	2.1
203.828	1.21
204.047	1.32
204.267	1.94
204.486	1.56
204.706	1.62
204.925	1.24
205.145	1.36
205.364	1.79
205.583	2.31
205.803	0.88
206.022	0.71
206.242	1.57
206.461	1.76
206.68	0.8
206.9	1.5
207.119	1.86
207.338	1.87
207.557	0.96
207.777	1.05
207.996	1.1
208.215	1.86
208.434	0.96
208.654	0.79
208.873	1.26
209.092	1.45
209.311	0.65
209.53	1.17
209.749	1.03
209.968	1.17
210.187	0.79
210.407	0.69
210.626	0.87
210.845	1.18
211.064	0.97
211.283	0.65
211.502	1.48
211.721	0.95
211.94	0.61
212.159	1.01
212.377	1.38
212.596	1.22
212.815	0.79
213.034	0.9
213.253	0.97
213.472	0.98
213.691	0.68
213.91	0.39
214.128	0.75
214.347	1.3
214.566	0.33
214.785	0.38
215.003	1.1
215.222	0.65
215.441	0.9
215.66	0.36
215.878	0.88
216.097	0.86
216.316	0.43
216.534	0.82
216.753	0.93
216.972	0.57
217.19	0.64
217.409	0.53
217.627	0.62
217.846	0.45
218.064	0.59
218.283	0.55
218.501	1.13
218.72	0.94
218.938	0.46
219.157	0.45
219.375	1.02
219.594	0.92
219.812	0.41
220.031	0.62
220.249	0.93
220.467	0.98
220.686	0.49
220.904	0.5
221.122	0.51
221.341	0.95
221.559	0.69
221.777	0.33
221.995	0.62
222.214	0.72
222.432	0.51
222.65	0.68
222.868	0.75
223.086	0.71
223.305	0.77
223.523	0.59
223.741	0.98
223.959	0.71
224.177	0.29
224.395	0.3
224.613	0.64
224.831	0.87
225.049	0.46
225.267	0.45
225.485	0.66
225.703	0.38
225.921	0.49
226.139	0.49
226.357	0.66
226.575	0.53
226.793	0.43
227.011	1.23
227.229	0.61
227.447	0.72
227.665	0.48
227.883	0.27
228.1	0.42
228.318	0.52
228.536	0.25
228.754	0.3
228.972	0.56
229.189	0.66
229.407	0.32
229.625	0.53
229.843	0.67
230.06	0.77
230.278	0.38
230.496	0.52
230.713	0.5
230.931	0.67
231.149	0.4
231.366	0.21
231.584	0.37
231.801	0.89
232.019	0.44
232.236	0.24
232.454	0.28
232.671	0.46
232.889	0.42
233.106	0.19
233.324	0.55
233.541	0.3
233.759	0.42
233.976	0.28
234.194	0.57
234.411	0.39
234.628	0.38
234.846	0.36
235.063	0.38
235.28	0.5
235.498	0.37
235.715	0.27
235.932	0.58
236.149	0.37
236.367	0.32
236.584	0.44
236.801	0.52
237.018	0.55
237.236	0.46
237.453	0.25
237.67	0.6
237.887	0.52
238.104	0.37
238.321	0.29
238.538	0.3
238.755	0.58
238.973	0.19
239.19	0.36
239.407	0.58
239.624	0.47
239.841	0.24
240.058	0.29
240.275	0.44
240.492	0.41
240.709	0.49
240.925	0.33
241.142	0.34
241.359	0.2
241.576	0.17
241.793	0.29
242.01	0.42
242.227	0.58
242.444	0.44
242.66	0.55
242.877	0.42
243.094	0.3
243.311	0.35
243.527	0.37
243.744	0.29
243.961	0.49
244.178	0.28
244.394	0.29
244.611	0.59
244.828	0.62
245.044	0.22
245.261	0.33
245.477	0.39
245.694	0.56
245.911	0.34
246.127	0.38
246.344	0.48
246.56	0.49
246.777	0.36
246.993	0.28
247.21	0.43
247.426	0.4
247.643	0.25
247.859	0.28
248.076	0.2
248.292	0.62
248.508	0.22
248.725	0.4
248.941	0.38
249.157	0.52
249.374	0.29
249.59	0.28
249.806	0.3
250.023	0.53
250.239	0.26
250.455	0.23
250.671	0.38
250.888	0.44
251.104	0.36
251.32	0.26
251.536	0.39
251.752	0.37
251.969	0.32
252.185	0.29
252.401	0.54
252.617	0.35
252.833	0.26
253.049	0.33
253.265	0.33
253.481	0.31
253.697	0.26
253.913	0.23
254.129	0.31
254.345	0.36
254.561	0.26
254.777	0.27
254.993	0.42
255.209	0.36
255.425	0.31
255.641	0.32
255.857	0.48
256.073	0.37
256.288	0.24
256.504	0.27
256.72	0.38
256.936	0.42
257.152	0.28
257.367	0.24
257.583	0.33
257.799	0.37
258.015	0.27
258.23	0.3
258.446	0.45
258.662	0.29
258.877	0.22
259.093	0.22
259.309	0.29
259.524	0.37
259.74	0.25
259.955	0.2
260.171	0.32
260.387	0.31
260.602	0.37
260.818	0.29
261.033	0.25
261.249	0.29
261.464	0.25
261.68	0.23
261.895	0.37
262.11	0.39
262.326	0.23
262.541	0.18
262.757	0.35
262.972	0.37
263.187	0.27
263.403	0.32
263.618	0.38
263.833	0.33
264.049	0.25
264.264	0.32
264.479	0.3
264.694	0.42
264.91	0.21
265.125	0.28
265.34	0.36
265.555	0.48
265.77	0.32
265.986	0.22
266.201	0.33
266.416	0.37
266.631	0.25
266.846	0.25
267.061	0.37
267.276	0.37
267.491	0.14
267.706	0.29
267.921	0.24
268.136	0.3
268.351	0.3
268.566	0.18
268.781	0.41
268.996	0.3
269.211	0.28
269.426	0.23
269.641	0.3
269.856	0.3
270.071	0.19
270.285	0.21
270.5	0.35
270.715	0.31
270.93	0.26
271.145	0.29
271.359	0.38
271.574	0.23
271.789	0.3
272.004	0.21
272.218	0.24
272.433	0.31
272.648	0.2
272.862	0.38
273.077	0.26
273.292	0.32
273.506	0.21
273.721	0.24
273.936	0.26
274.15	0.31
274.365	0.28
274.579	0.3
274.794	0.28
275.008	0.36
275.223	0.15
275.437	0.22
275.652	0.37
275.866	0.24
276.081	0.25
276.295	0.37
276.509	0.3
276.724	0.24
276.938	0.25
277.153	0.25
277.367	0.27
277.581	0.22
277.796	0.25
278.01	0.18
278.224	0.34
278.438	0.4
278.653	0.25
278.867	0.18
279.081	0.1
279.295	0.19
279.51	0.25
279.724	0.12
279.938	0.29
280.152	0.28
280.366	0.24
280.58	0.31
280.794	0.34
281.008	0.29
281.222	0.29
281.437	0.38
281.651	0.28
281.865	0.34
282.079	0.22
282.293	0.16
282.507	0.21
282.721	0.22
282.935	0.24
283.148	0.17
283.362	0.21
283.576	0.18
283.79	0.27
284.004	0.2
284.218	0.3
284.432	0.16
284.646	0.25
284.859	0.24
285.073	0.28
285.287	0.28
285.501	0.23
285.714	0.21
285.928	0.26
286.142	0.27
286.356	0.14
286.569	0.19
286.783	0.36
286.997	0.29
287.21	0.3
287.424	0.22
287.637	0.16
287.851	0.2
288.065	0.25
288.278	0.19
288.492	0.27
288.705	0.19
288.919	0.26
289.132	0.12
289.346	0.29
289.559	0.19
289.773	0.14
289.986	0.22
290.2	0.21
290.413	0.3
290.626	0.19
290.84	0.16
291.053	0.24
291.267	0.29
291.48	0.19
291.693	0.21
291.906	0.17
292.12	0.2
292.333	0.17
292.546	0.17
292.76	0.28
292.973	0.22
293.186	0.27
293.399	0.17
293.612	0.26
293.826	0.19
294.039	0.25
294.252	0.21
294.465	0.22
294.678	0.26
294.891	0.25
295.104	0.15
295.317	0.21
295.53	0.22
295.743	0.25
295.956	0.23
296.169	0.31
296.382	0.26
296.595	0.23
296.808	0.15
297.021	0.33
297.234	0.31
297.447	0.24
297.66	0.21
297.873	0.28
298.086	0.23
298.299	0.16
298.511	0.14
298.724	0.21
298.937	0.16
299.15	0.15
299.363	0.21
299.575	0.26
299.788	0.24
300.001	0.19
300.213	0.18
300.426	0.19
300.639	0.17
300.852	0.17
301.064	0.26
301.277	0.3
301.489	0.26
301.702	0.28
301.915	0.23
302.127	0.22
302.34	0.23
302.552	0.23
302.765	0.2
302.977	0.25
303.19	0.21
303.402	0.19
303.615	0.21
303.827	0.2
304.04	0.21
304.252	0.24
304.464	0.21
304.677	0.35
304.889	0.3
305.102	0.11
305.314	0.14
305.526	0.21
305.739	0.24
305.951	0.19
306.163	0.19
306.375	0.28
306.588	0.18
306.8	0.13
307.012	0.15
307.224	0.23
307.436	0.27
307.649	0.12
307.861	0.2
308.073	0.22
308.285	0.18
308.497	0.16
308.709	0.16
308.921	0.24
309.133	0.29
309.346	0.18
309.558	0.18
309.77	0.26
309.982	0.27
310.194	0.2
310.406	0.18
310.617	0.27
310.829	0.25
311.041	0.26
311.253	0.2
311.465	0.19
311.677	0.2
311.889	0.17
312.101	0.15
312.313	0.25
312.524	0.27
312.736	0.19
312.948	0.18
313.16	0.31
313.372	0.22
313.583	0.25
313.795	0.19
314.007	0.16
314.218	0.27
314.43	0.2
314.642	0.15
314.853	0.17
315.065	0.23
315.277	0.17
315.488	0.23
315.7	0.25
315.912	0.24
316.123	0.17
316.335	0.2
316.546	0.36
316.758	0.17
316.969	0.21
317.181	0.22
317.392	0.2
317.604	0.29
317.815	0.19
318.026	0.18
318.238	0.18
318.449	0.22
318.661	0.14
318.872	0.15
319.083	0.14
319.295	0.24
319.506	0.2
319.717	0.25
319.929	0.24
320.14	0.21
320.351	0.18
320.562	0.16
320.774	0.27
320.985	0.26
321.196	0.13
321.407	0.12
321.618	0.25
321.829	0.21
322.041	0.25
322.252	0.22
322.463	0.25
322.674	0.23
322.885	0.17
323.096	0.15
323.307	0.21
323.518	0.23
323.729	0.14
323.94	0.19
324.151	0.19
324.362	0.22
324.573	0.21
324.784	0.22
324.995	0.29
325.206	0.23
325.417	0.2
325.628	0.18
325.838	0.2
326.049	0.21
326.26	0.25
326.471	0.18
326.682	0.25
326.892	0.23
327.103	0.14
327.314	0.17
327.525	0.31
327.735	0.27
327.946	0.22
328.157	0.21
328.368	0.26
328.578	0.2
328.789	0.29
328.999	0.19
329.21	0.18
329.421	0.27
329.631	0.15
329.842	0.21
330.052	0.21
330.263	0.23
330.473	0.24
330.684	0.21
330.894	0.25
331.105	0.25
331.315	0.2
331.526	0.14
331.736	0.3
331.947	0.24
332.157	0.22
332.367	0.14
332.578	0.23
332.788	0.28
332.999	0.21
333.209	0.18
333.419	0.16
333.629	0.23
333.84	0.24
334.05	0.19
334.26	0.31
334.47	0.19
334.681	0.24
334.891	0.15
335.101	0.25
335.311	0.31
335.521	0.19
335.732	0.16
335.942	0.28
336.152	0.26
336.362	0.18
336.572	0.23
336.782	0.27
336.992	0.21
337.202	0.18
337.412	0.22
337.622	0.23
337.832	0.22
338.042	0.22
338.252	0.18
338.462	0.17
338.672	0.24
338.882	0.18
339.092	0.23
339.302	0.27
339.511	0.26
339.721	0.17
339.931	0.16
340.141	0.3
340.351	0.28
340.561	0.23
340.77	0.22
340.98	0.21
341.19	0.21
341.4	0.21
341.609	0.16
341.819	0.2
342.029	0.16
342.238	0.18
342.448	0.16
342.658	0.24
342.867	0.21
343.077	0.17
343.286	0.21
343.496	0.2
343.706	0.23
343.915	0.2
344.125	0.24
344.334	0.2
344.544	0.15
344.753	0.16
344.963	0.15
345.172	0.19
345.381	0.2
345.591	0.15
345.8	0.16
346.01	0.26
346.219	0.26
346.428	0.09
346.638	0.18
346.847	0.21
347.056	0.29
347.266	0.23
347.475	0.19
347.684	0.22
347.893	0.2
348.103	0.21
348.312	0.2
348.521	0.21
348.73	0.2
348.94	0.19
349.149	0.2
349.358	0.14
349.567	0.17
349.776	0.13
349.985	0.17
350.194	0.26
350.403	0.26
350.612	0.15
350.821	0.2
351.03	0.23
351.239	0.14
351.448	0.18
351.657	0.17
351.866	0.34
352.075	0.22
352.284	0.17
352.493	0.12
352.702	0.26
352.911	0.18
353.12	0.23
353.329	0.17
353.538	0.22
353.746	0.22
353.955	0.16
354.164	0.22
354.373	0.18
354.582	0.25
354.79	0.18
354.999	0.21
355.208	0.21
355.416	0.25
355.625	0.15
355.834	0.23
356.042	0.22
356.251	0.2
356.46	0.14
356.668	0.18
356.877	0.31
357.085	0.28
357.294	0.1
357.503	0.21
357.711	0.18
357.92	0.35
358.128	0.22
358.337	0.17
358.545	0.27
358.754	0.15
358.962	0.21
359.17	0.21
359.379	0.22
359.587	0.21
359.796	0.21
360.004	0.28
360.212	0.29
360.421	0.24
360.629	0.16
360.837	0.18
361.046	0.25
361.254	0.32
361.462	0.22
361.67	0.18
361.879	0.21
362.087	0.27
362.295	0.2
362.503	0.16
362.711	0.15
362.92	0.17
363.128	0.16
363.336	0.16
363.544	0.11
363.752	0.19
363.96	0.17
364.168	0.16
364.376	0.2
364.584	0.23
364.792	0.26
365	0.24
365.208	0.24
365.416	0.2
365.624	0.27
365.832	0.15
366.04	0.28
366.248	0.22
366.456	0.19
366.664	0.21
366.872	0.21
367.079	0.22
367.287	0.2
367.495	0.22
367.703	0.21
367.911	0.2
368.118	0.21
368.326	0.2
368.534	0.18
368.742	0.25
368.949	0.18
369.157	0.15
369.365	0.23
369.572	0.18
369.78	0.14
369.988	0.23
370.195	0.22
370.403	0.21
370.61	0.18
370.818	0.24
371.026	0.3
371.233	0.18
371.441	0.2
371.648	0.14
371.856	0.24
372.063	0.17
372.271	0.18
372.478	0.17
372.685	0.18
372.893	0.29
373.1	0.17
373.308	0.19
373.515	0.27
373.722	0.25
373.93	0.15
374.137	0.21
374.344	0.28
374.552	0.27
374.759	0.25
374.966	0.19
375.173	0.18
375.381	0.26
375.588	0.2
375.795	0.11
376.002	0.18
376.209	0.17
376.417	0.2
376.624	0.23
376.831	0.24
377.038	0.2
377.245	0.14
377.452	0.19
377.659	0.21
377.866	0.22
378.073	0.19
378.28	0.22
378.487	0.25
378.694	0.21
378.901	0.22
379.108	0.19
379.315	0.25
379.522	0.31
379.729	0.2
379.936	0.21
380.143	0.21
380.35	0.22
380.557	0.22
380.763	0.18
380.97	0.21
381.177	0.27
381.384	0.25
381.591	0.17
381.797	0.24
382.004	0.26
382.211	0.25
382.418	0.2
382.624	0.25
382.831	0.27
383.038	0.22
383.244	0.24
383.451	0.26
383.658	0.28
383.864	0.23
384.071	0.19
384.277	0.29
384.484	0.2
384.69	0.28
384.897	0.18
385.103	0.21
385.31	0.19
385.516	0.2
385.723	0.19
385.929	0.24
386.136	0.23
386.342	0.24
386.549	0.21
386.755	0.3
386.961	0.28
387.168	0.24
387.374	0.22
387.58	0.25
387.787	0.23
387.993	0.27
388.199	0.21
388.406	0.2
388.612	0.2
388.818	0.2
389.024	0.18
389.231	0.2
389.437	0.31
389.643	0.26
389.849	0.2
390.055	0.25
390.261	0.23
390.467	0.28
390.674	0.21
390.88	0.21
391.086	0.26
391.292	0.17
391.498	0.24
391.704	0.23
391.91	0.26
392.116	0.17
392.322	0.1
392.528	0.28
392.734	0.23
392.94	0.27
393.146	0.2
393.352	0.22
393.557	0.21
393.763	0.21
393.969	0.27
394.175	0.28
394.381	0.28
394.587	0.18
394.792	0.23
394.998	0.34
395.204	0.33
395.41	0.21
395.615	0.27
395.821	0.28
396.027	0.3
396.233	0.17
396.438	0.3
396.644	0.34
396.85	0.26
397.055	0.27
397.261	0.25
397.466	0.27
397.672	0.27
397.878	0.33
398.083	0.31
398.289	0.24
398.494	0.34
398.7	0.31
398.905	0.23
399.111	0.35
399.316	0.25
399.522	0.32
399.727	0.29
399.932	0.26
400.138	0.24
400.343	0.3
400.549	0.29
400.754	0.3
400.959	0.31
401.165	0.28
401.37	0.31
401.575	0.27
401.78	0.31
401.986	0.26
402.191	0.25
402.396	0.29
402.601	0.28
402.807	0.36
403.012	0.33
403.217	0.36
403.422	0.36
403.627	0.36
403.832	0.35
404.037	0.38
404.243	0.35
404.448	0.37
404.653	0.33
404.858	0.37
405.063	0.4
405.268	0.3
405.473	0.29
405.678	0.34
405.883	0.5
406.088	0.39
406.293	0.35
406.498	0.31
406.703	0.43
406.907	0.37
407.112	0.37
407.317	0.46
407.522	0.46
407.727	0.38
407.932	0.42
408.136	0.53
408.341	0.45
408.546	0.47
408.751	0.45
408.956	0.5
409.16	0.54
409.365	0.49
409.57	0.48
409.774	0.56
409.979	0.57
410.184	0.55
410.388	0.51
410.593	0.63
410.798	0.59
411.002	0.57
411.207	0.63
411.411	0.67
411.616	0.6
411.82	0.68
412.025	0.75
412.229	0.69
412.434	0.86
412.638	0.77
412.843	0.77
413.047	0.81
413.252	0.75
413.456	0.84
413.66	0.87
413.865	0.84
414.069	0.96
414.273	0.88
414.478	0.88
414.682	0.94
414.886	0.97
415.091	0.98
415.295	0.93
415.499	1.15
415.703	1.09
415.908	1.24
416.112	1.14
416.316	1.34
416.52	1.3
416.724	1.3
416.929	1.36
417.133	1.55
417.337	1.47
417.541	1.48
417.745	1.56
417.949	1.61
418.153	1.69
418.357	1.71
418.561	1.84
418.765	1.8
418.969	1.95
419.173	2.01
419.377	2.03
419.581	2.21
419.785	2.21
419.989	2.18
420.193	2.31
420.397	2.39
420.601	2.56
420.804	2.6
421.008	2.62
421.212	2.67
421.416	2.77
421.62	2.74
421.823	2.83
422.027	3.02
422.231	2.91
422.435	2.93
422.638	2.98
422.842	3.09
423.046	3.12
423.249	3.32
423.453	3.32
423.657	3.53
423.86	3.54
424.064	3.65
424.268	3.83
424.471	3.76
424.675	4
424.878	4.05
425.082	4.14
425.285	4.35
425.489	4.28
425.692	4.4
425.896	4.38
426.099	4.6
426.303	4.76
426.506	4.79
426.71	5.04
426.913	5.27
427.116	5.32
427.32	5.26
427.523	5.38
427.726	5.74
427.93	5.77
428.133	5.96
428.336	6.09
428.54	6.26
428.743	6.44
428.946	6.64
429.149	6.57
429.353	6.69
429.556	6.67
429.759	6.7
429.962	6.78
430.165	6.93
430.368	6.72
430.571	6.73
430.775	6.78
430.978	6.83
431.181	6.78
431.384	6.96
431.587	7.03
431.79	7.31
431.993	7.26
432.196	7.48
432.399	7.79
432.602	7.94
432.805	8.02
433.008	8.53
433.211	8.33
433.414	8.7
433.616	8.65
433.819	8.62
434.022	8.72
434.225	8.87
434.428	8.97
434.631	9.31
434.833	9.12
435.036	9.34
435.239	9.47
435.442	9.42
435.645	9.66
435.847	9.72
436.05	9.97
436.253	10.23
436.455	10.2
436.658	10.08
436.861	10.39
437.063	10.44
437.266	10.41
437.468	10.77
437.671	11.1
437.874	11.02
438.076	10.87
438.279	11.38
438.481	11.38
438.684	12.1
438.886	11.6
439.089	11.91
439.291	11.96
439.494	12.3
439.696	12.37
439.899	12.82
440.101	13.27
440.303	13.31
440.506	13.99
440.708	13.81
440.91	14.03
441.113	14.17
441.315	14.52
441.517	14.22
441.72	14.72
441.922	14.33
442.124	14.24
442.326	14.73
442.529	14.88
442.731	14.85
442.933	15.09
443.135	14.93
443.337	14.95
443.539	15.39
443.742	15.17
443.944	15.55
444.146	15.42
444.348	15.58
444.55	15.41
444.752	15.43
444.954	15.49
445.156	15.4
445.358	15.7
445.56	16.02
445.762	15.94
445.964	16.02
446.166	15.86
446.368	15.84
446.57	15.98
446.772	15.73
446.974	15.38
447.175	15.68
447.377	15.41
447.579	15.71
447.781	15.48
447.983	15.3
448.184	14.88
448.386	15.34
448.588	14.9
448.79	14.79
448.991	14.96
449.193	15.04
449.395	14.48
449.597	14.07
449.798	14.09
450	13.67
450.202	13.58
450.403	13.51
450.605	13.44
450.806	13.24
451.008	13.02
451.21	12.76
451.411	12.4
451.613	11.72
451.814	12.05
452.016	12.06
452.217	11.26
452.419	11.38
452.62	11.15
452.821	10.88
453.023	10.77
453.224	10.38
453.426	10
453.627	9.38
453.828	9.48
454.03	9.53
454.231	9.54
454.432	9.41
454.634	9.16
454.835	8.88
455.036	8.76
455.238	8.46
455.439	8.32
455.64	8.16
455.841	8
456.042	8.06
456.244	7.83
456.445	7.45
456.646	7.3
456.847	7.18
457.048	7.22
457.249	7.21
457.45	7.09
457.651	6.57
457.852	6.36
458.054	6.14
458.255	6.08
458.456	6.17
458.657	6.11
458.858	5.64
459.058	5.59
459.259	5.65
459.46	5.46
459.661	5.36
459.862	5.48
460.063	5.37
460.264	5.26
460.465	5.12
460.666	5.16
460.866	4.83
461.067	4.6
461.268	4.64
461.469	4.65
461.67	4.54
461.87	4.37
462.071	4.39
462.272	4.24
462.473	4.23
462.673	4.48
462.874	4.32
463.075	4.32
463.275	4.31
463.476	4.27
463.676	4.3
463.877	4.23
464.078	4.15
464.278	4.2
464.479	4.14
464.679	4.05
464.88	3.89
465.08	3.95
465.281	3.73
465.481	3.6
465.682	3.45
465.882	3.53
466.083	3.44
466.283	3.41
466.483	3.26
466.684	3.17
466.884	3.02
467.085	3.05
467.285	3.16
467.485	3.03
467.686	2.99
467.886	2.87
468.086	2.87
468.286	2.82
468.487	2.82
468.687	2.72
468.887	2.67
469.087	2.81
469.287	2.73
469.488	2.48
469.688	2.72
469.888	2.68
470.088	2.65
470.288	2.55
470.488	2.56
470.688	2.37
470.888	2.41
471.088	2.19
471.288	2.39
471.488	2.34
471.688	2.28
471.888	2.21
472.088	2.39
472.288	2.2
472.488	2.15
472.688	2.11
472.888	2.15
473.088	2.18
473.288	2.12
473.488	2.05
473.688	2.19
473.887	2.1
474.087	2.01
474.287	2.03
474.487	1.98
474.687	2
474.886	1.96
475.086	1.98
475.286	1.94
475.486	1.88
475.685	1.88
475.885	1.83
476.085	1.92
476.284	1.93
476.484	1.86
476.684	1.85
476.883	1.94
477.083	1.79
477.282	1.78
477.482	1.84
477.681	1.75
477.881	1.73
478.08	1.73
478.28	1.71
478.479	1.74
478.679	1.78
478.878	1.71
479.078	1.75
479.277	1.75
479.477	1.71
479.676	1.71
479.875	1.68
480.075	1.61
480.274	1.64
480.473	1.73
480.673	1.68
480.872	1.76
481.071	1.71
481.271	1.71
481.47	1.7
481.669	1.65
481.868	1.63
482.067	1.66
482.267	1.59
482.466	1.61
482.665	1.63
482.864	1.65
483.063	1.59
483.262	1.67
483.461	1.74
483.661	1.74
483.86	1.64
484.059	1.72
484.258	1.67
484.457	1.69
484.656	1.68
484.855	1.77
485.054	1.6
485.253	1.67
485.452	1.64
485.651	1.72
485.849	1.71
486.048	1.65
486.247	1.69
486.446	1.73
486.645	1.72
486.844	1.7
487.043	1.72
487.241	1.77
487.44	1.72
487.639	1.78
487.838	1.77
488.037	1.79
488.235	1.85
488.434	1.82
488.633	1.67
488.831	1.87
489.03	1.84
489.229	1.87
489.427	1.85
489.626	1.93
489.825	1.96
490.023	1.93
490.222	1.91
490.42	1.94
490.619	1.99
490.817	2.05
491.016	1.98
491.214	2.04
491.413	2.05
491.611	2.02
491.81	2.02
492.008	2.09
492.207	2.12
492.405	2.15
492.604	2.08
492.802	2.2
493	2.22
493.199	2.28
493.397	2.23
493.595	2.25
493.794	2.24
493.992	2.39
494.19	2.34
494.388	2.42
494.587	2.31
494.785	2.34
494.983	2.33
495.181	2.46
495.379	2.44
495.578	2.5
495.776	2.53
495.974	2.5
496.172	2.52
496.37	2.63
496.568	2.67
496.766	2.61
496.964	2.73
497.162	2.68
497.36	2.75
497.558	2.76
497.756	2.81
497.954	2.82
498.152	2.84
498.35	2.95
498.548	2.82
498.746	2.9
498.944	2.89
499.142	2.98
499.34	2.98
499.538	3.09
499.736	3.01
499.933	3.11
500.131	3.06
500.329	3.22
500.527	3.17
500.725	3.29
500.922	3.31
501.12	3.34
501.318	3.36
501.516	3.35
501.713	3.44
501.911	3.42
502.109	3.41
502.306	3.48
502.504	3.41
502.701	3.51
502.899	3.56
503.097	3.71
503.294	3.55
503.492	3.74
503.689	3.76
503.887	3.71
504.084	3.82
504.282	3.82
504.479	3.73
504.677	3.92
504.874	3.88
505.072	3.8
505.269	3.98
505.466	4.03
505.664	4.07
505.861	3.97
506.059	4.08
506.256	4.12
506.453	4.16
506.651	4.23
506.848	4.3
507.045	4.24
507.242	4.24
507.44	4.3
507.637	4.41
507.834	4.35
508.031	4.45
508.229	4.36
508.426	4.37
508.623	4.52
508.82	4.53
509.017	4.52
509.214	4.52
509.411	4.64
509.608	4.55
509.805	4.7
510.003	4.65
510.2	4.69
510.397	4.82
510.594	4.74
510.791	4.83
510.988	4.82
511.184	4.86
511.381	4.74
511.578	4.94
511.775	5.03
511.972	4.9
512.169	5.02
512.366	4.94
512.563	5.1
512.76	5.16
512.956	5.19
513.153	5.09
513.35	5.09
513.547	5.08
513.744	5.15
513.94	5.21
514.137	5.3
514.334	5.23
514.53	5.3
514.727	5.49
514.924	5.4
515.12	5.35
515.317	5.41
515.514	5.37
515.71	5.3
515.907	5.51
516.103	5.51
516.3	5.43
516.497	5.53
516.693	5.59
516.89	5.57
517.086	5.58
517.283	5.63
517.479	5.47
517.676	5.67
517.872	5.7
518.068	5.65
518.265	5.72
518.461	5.6
518.658	5.7
518.854	5.81
519.05	5.85
519.247	5.85
519.443	5.81
519.639	5.9
519.836	5.85
520.032	5.77
520.228	5.95
520.424	5.92
520.621	5.95
520.817	6
521.013	5.94
521.209	6.13
521.405	6.07
521.601	6.09
521.798	6.02
521.994	6.05
522.19	5.99
522.386	6.04
522.582	6.14
522.778	6.17
522.974	6.16
523.17	6.12
523.366	6.1
523.562	6.18
523.758	6.13
523.954	6.07
524.15	6.21
524.346	6.21
524.542	6.22
524.738	6.19
524.934	6.27
525.129	6.29
525.325	6.23
525.521	6.23
525.717	6.46
525.913	6.26
526.109	6.33
526.304	6.38
526.5	6.35
526.696	6.42
526.892	6.31
527.087	6.54
527.283	6.42
527.479	6.43
527.674	6.25
527.87	6.52
528.066	6.41
528.261	6.46
528.457	6.36
528.653	6.52
528.848	6.51
529.044	6.62
529.239	6.46
529.435	6.5
529.63	6.43
529.826	6.47
530.021	6.5
530.217	6.53
530.412	6.48
530.608	6.54
530.803	6.59
530.999	6.49
531.194	6.54
531.389	6.56
531.585	6.55
531.78	6.74
531.975	6.63
532.171	6.67
532.366	6.63
532.561	6.65
532.757	6.62
532.952	6.8
533.147	6.54
533.342	6.72
533.538	6.58
533.733	6.76
533.928	6.51
534.123	6.68
534.318	6.73
534.513	6.66
534.709	6.8
534.904	6.72
535.099	6.76
535.294	6.73
535.489	6.79
535.684	6.71
535.879	6.7
536.074	6.8
536.269	6.81
536.464	6.85
536.659	6.72
536.854	6.78
537.049	6.79
537.244	6.76
537.439	6.77
537.634	6.8
537.828	6.84
538.023	6.83
538.218	6.81
538.413	6.73
538.608	6.81
538.803	6.79
538.997	6.76
539.192	6.79
539.387	6.82
539.582	6.77
539.776	6.72
539.971	6.88
540.166	6.91
540.36	6.82
540.555	6.93
540.75	6.89
540.944	6.83
541.139	6.87
541.334	6.85
541.528	6.87
541.723	6.89
541.917	6.93
542.112	6.81
542.306	6.74
542.501	6.78
542.695	6.88
542.89	6.82
543.084	6.89
543.279	6.9
543.473	6.91
543.668	6.95
543.862	6.75
544.056	6.78
544.251	6.92
544.445	6.95
544.64	7
544.834	6.76
545.028	6.63
545.222	6.85
545.417	7.04
545.611	6.98
545.805	6.94
546	6.78
546.194	6.91
546.388	6.99
546.582	6.83
546.776	6.87
546.97	6.93
547.165	6.88
547.359	6.9
547.553	6.86
547.747	6.89
547.941	7.04
548.135	6.92
548.329	6.94
548.523	6.96
548.717	6.84
548.911	6.89
549.105	6.85
549.299	6.96
549.493	6.91
549.687	6.86
549.881	6.96
550.075	6.91
550.269	6.81
550.463	6.97
550.657	6.96
550.85	6.87
551.044	6.92
551.238	7
551.432	6.89
551.626	6.96
551.82	6.98
552.013	6.87
552.207	7.02
552.401	6.95
552.594	6.9
552.788	6.88
552.982	6.89
553.176	6.93
553.369	7.08
553.563	6.99
553.756	6.89
553.95	6.96
554.144	6.98
554.337	7
554.531	6.8
554.724	6.99
554.918	6.98
555.111	6.94
555.305	6.93
555.498	6.92
555.692	7.01
555.885	7
556.079	6.89
556.272	6.96
556.466	6.93
556.659	6.93
556.852	7.02
557.046	6.97
557.239	6.83
557.432	6.84
557.626	7
557.819	7.05
558.012	6.94
558.206	7.06
558.399	7
558.592	6.86
558.785	6.86
558.979	6.94
559.172	6.97
559.365	6.94
559.558	6.87
559.751	6.83
559.944	7.06
560.138	6.88
560.331	6.99
560.524	7.03
560.717	6.94
560.91	6.94
561.103	6.99
561.296	6.85
561.489	7.02
561.682	7.03
561.875	6.98
562.068	7.11
562.261	6.91
562.454	7.06
562.647	6.88
562.84	6.95
563.032	6.96
563.225	6.88
563.418	6.94
563.611	6.98
563.804	7.01
563.997	6.83
564.19	6.75
564.382	7.05
564.575	6.95
564.768	6.86
564.961	7
565.153	6.92
565.346	6.85
565.539	7.04
565.731	6.91
565.924	7.03
566.117	7.07
566.309	7.01
566.502	6.87
566.695	6.94
566.887	7.01
567.08	6.9
567.272	6.91
567.465	6.84
567.657	7.01
567.85	6.85
568.042	6.92
568.235	6.98
568.427	6.76
568.62	6.84
568.812	6.91
569.005	7.01
569.197	6.83
569.389	6.98
569.582	6.94
569.774	6.95
569.966	6.85
570.159	6.81
570.351	6.84
570.543	6.87
570.736	6.9
570.928	6.77
571.12	6.93
571.312	6.8
571.505	6.66
571.697	6.95
571.889	6.89
572.081	6.9
572.273	6.81
572.465	6.89
572.658	6.82
572.85	6.91
573.042	6.84
573.234	6.82
573.426	6.83
573.618	6.78
573.81	6.83
574.002	6.84
574.194	6.86
574.386	6.76
574.578	6.72
574.77	6.82
574.962	6.81
575.154	6.65
575.346	6.73
575.538	6.73
575.729	6.73
575.921	6.85
576.113	6.88
576.305	6.75
576.497	6.86
576.689	6.74
576.88	6.72
577.072	6.84
577.264	6.78
577.456	6.76
577.647	6.67
577.839	6.87
578.031	6.72
578.223	6.77
578.414	6.6
578.606	6.75
578.798	6.74
578.989	6.69
579.181	6.76
579.372	6.76
579.564	6.73
579.755	6.67
579.947	6.59
580.139	6.73
580.33	6.58
580.522	6.66
580.713	6.63
580.905	6.66
581.096	6.71
581.287	6.67
581.479	6.64
581.67	6.72
581.862	6.53
582.053	6.65
582.244	6.51
582.436	6.7
582.627	6.54
582.818	6.58
583.01	6.53
583.201	6.6
583.392	6.59
583.583	6.48
583.775	6.4
583.966	6.5
584.157	6.51
584.348	6.65
584.54	6.43
584.731	6.53
584.922	6.45
585.113	6.38
585.304	6.51
585.495	6.48
585.686	6.52
585.877	6.54
586.068	6.58
586.259	6.54
586.45	6.48
586.641	6.46
586.832	6.51
587.023	6.4
587.214	6.35
587.405	6.48
587.596	6.38
587.787	6.29
587.978	6.44
588.169	6.33
588.36	6.34
588.551	6.36
588.742	6.37
588.932	6.42
589.123	6.26
589.314	6.45
589.505	6.27
589.696	6.35
589.886	6.26
590.077	6.3
590.268	6.27
590.458	6.18
590.649	6.11
590.84	6.25
591.03	6.26
591.221	6.26
591.412	6.14
591.602	6.37
591.793	6.19
591.984	6.27
592.174	6.17
592.365	6.36
592.555	6.11
592.746	6.17
592.936	6.14
593.127	6.21
593.317	6.19
593.508	6.17
593.698	6.13
593.889	6.11
594.079	6.09
594.269	6.02
594.46	6.09
594.65	6.13
594.84	6.12
595.031	5.95
595.221	5.96
595.411	5.97
595.602	5.99
595.792	5.94
595.982	5.86
596.172	6.1
596.363	5.9
596.553	5.94
596.743	5.98
596.933	5.88
597.123	5.88
597.314	5.71
597.504	5.78
597.694	5.97
597.884	5.83
598.074	5.91
598.264	5.86
598.454	5.85
598.644	5.78
598.834	5.81
599.024	5.69
599.214	5.78
599.404	5.83
599.594	5.81
599.784	5.68
599.974	5.79
600.164	5.73
600.354	5.66
600.544	5.63
600.734	5.72
600.924	5.68
601.114	5.63
601.303	5.63
601.493	5.61
601.683	5.59
601.873	5.61
602.063	5.52
602.252	5.59
602.442	5.49
602.632	5.59
602.821	5.47
603.011	5.54
603.201	5.54
603.39	5.51
603.58	5.41
603.77	5.53
603.959	5.55
604.149	5.41
604.339	5.51
604.528	5.49
604.718	5.45
604.907	5.39
605.097	5.36
605.286	5.39
605.476	5.39
605.665	5.39
605.855	5.33
606.044	5.4
606.234	5.32
606.423	5.29
606.612	5.3
606.802	5.25
606.991	5.28
607.181	5.27
607.37	5.27
607.559	5.11
607.749	5.22
607.938	5.2
608.127	5.2
608.316	5.18
608.506	5.17
608.695	5.18
608.884	5.15
609.073	5.09
609.263	5.23
609.452	5.14
609.641	5.03
609.83	4.99
610.019	5.11
610.208	5
610.397	5.01
610.586	5.04
610.775	5.01
610.965	5.01
611.154	4.92
611.343	4.98
611.532	4.92
611.721	4.99
611.91	4.86
612.099	4.86
612.287	4.85
612.476	4.78
612.665	4.93
612.854	4.76
613.043	4.85
613.232	4.81
613.421	4.75
613.61	4.79
613.798	4.79
613.987	4.79
614.176	4.7
614.365	4.79
614.554	4.78
614.742	4.78
614.931	4.61
615.12	4.77
615.309	4.67
615.497	4.65
615.686	4.55
615.875	4.62
616.063	4.6
616.252	4.59
616.44	4.57
616.629	4.54
616.818	4.52
617.006	4.55
617.195	4.55
617.383	4.52
617.572	4.46
617.76	4.43
617.949	4.47
618.137	4.52
618.326	4.44
618.514	4.34
618.703	4.28
618.891	4.44
619.079	4.28
619.268	4.42
619.456	4.35
619.644	4.38
619.833	4.29
620.021	4.27
620.209	4.24
620.398	4.3
620.586	4.21
620.774	4.3
620.962	4.21
621.151	4.3
621.339	4.19
621.527	4.15
621.715	4.11
621.903	4.16
622.092	4.09
622.28	4.23
622.468	3.97
622.656	4.07
622.844	4.09
623.032	4.13
623.22	4.02
623.408	4.09
623.596	4.07
623.784	4.07
623.972	3.93
624.16	4.02
624.348	4.06
624.536	4.01
624.724	3.9
624.912	3.99
625.1	3.98
625.288	3.96
625.476	3.92
625.664	4.01
625.851	3.85
626.039	3.89
626.227	3.81
626.415	3.87
626.603	3.77
626.79	3.83
626.978	3.86
627.166	3.84
627.354	3.7
627.541	3.74
627.729	3.65
627.917	3.84
628.104	3.79
628.292	3.67
628.48	3.68
628.667	3.65
628.855	3.72
629.042	3.75
629.23	3.67
629.418	3.64
629.605	3.64
629.793	3.57
629.98	3.62
630.168	3.58
630.355	3.59
630.543	3.53
630.73	3.47
630.917	3.56
631.105	3.63
631.292	3.52
631.48	3.51
631.667	3.55
631.854	3.48
632.042	3.44
632.229	3.38
632.416	3.45
632.604	3.39
632.791	3.29
632.978	3.44
633.165	3.34
633.353	3.45
633.54	3.45
633.727	3.28
633.914	3.32
634.101	3.18
634.289	3.32
634.476	3.28
634.663	3.23
634.85	3.22
635.037	3.21
635.224	3.18
635.411	3.3
635.598	3.2
635.785	3.19
635.972	3.17
636.159	3.2
636.346	3.12
636.533	3.07
636.72	3.12
636.907	3.12
637.094	3.09
637.281	2.97
637.468	3.11
637.655	3.06
637.842	3.07
638.029	3.05
638.215	3.03
638.402	2.99
638.589	2.98
638.776	2.93
638.963	2.95
639.149	3.03
639.336	2.97
639.523	2.92
639.709	2.94
639.896	2.91
640.083	2.91
640.27	2.95
640.456	2.85
640.643	2.84
640.829	2.8
641.016	2.83
641.203	2.82
641.389	2.84
641.576	2.78
641.762	2.78
641.949	2.79
642.135	2.79
642.322	2.77
642.508	2.67
642.695	2.78
642.881	2.7
643.068	2.63
643.254	2.66
643.441	2.74
643.627	2.69
643.813	2.61
644	2.72
644.186	2.52
644.372	2.64
644.559	2.62
644.745	2.62
644.931	2.56
645.118	2.6
645.304	2.56
645.49	2.57
645.676	2.52
645.862	2.56
646.049	2.59
646.235	2.51
646.421	2.64
646.607	2.58
646.793	2.46
646.979	2.41
647.165	2.47
647.352	2.5
647.538	2.49
647.724	2.46
647.91	2.34
648.096	2.42
648.282	2.44
648.468	2.35
648.654	2.41
648.84	2.42
649.026	2.44
649.212	2.35
649.397	2.27
649.583	2.32
649.769	2.36
649.955	2.28
650.141	2.32
650.327	2.36
650.513	2.25
650.698	2.27
650.884	2.16
651.07	2.26
651.256	2.23
651.442	2.19
651.627	2.12
651.813	2.26
651.999	2.21
652.184	2.19
652.37	2.21
652.556	2.17
652.741	2.2
652.927	2.1
653.113	2.14
653.298	2.19
653.484	2.1
653.669	2.09
653.855	2.08
654.04	2.18
654.226	2.07
654.412	2.03
654.597	2.02
654.782	2.05
654.968	2.07
655.153	2.05
655.339	2
655.524	1.94
655.71	2.05
655.895	1.97
656.08	1.97
656.266	2.06
656.451	1.97
656.636	1.89
656.822	1.98
657.007	1.92
657.192	1.95
657.378	1.84
657.563	1.91
657.748	1.94
657.933	1.94
658.118	1.84
658.304	1.8
658.489	1.91
658.674	1.88
658.859	1.87
659.044	1.86
659.229	1.87
659.414	1.86
659.599	1.82
659.785	1.73
659.97	1.84
660.155	1.82
660.34	1.79
660.525	1.78
660.71	1.78
660.895	1.78
661.08	1.74
661.264	1.7
661.449	1.84
661.634	1.73
661.819	1.72
662.004	1.67
662.189	1.66
662.374	1.68
662.559	1.65
662.743	1.67
662.928	1.68
663.113	1.66
663.298	1.59
663.483	1.64
663.667	1.65
663.852	1.59
664.037	1.67
664.221	1.58
664.406	1.71
664.591	1.63
664.775	1.65
664.96	1.57
665.145	1.6
665.329	1.61
665.514	1.54
665.698	1.53
665.883	1.49
666.068	1.61
666.252	1.53
666.437	1.54
666.621	1.55
666.806	1.58
666.99	1.52
667.174	1.5
667.359	1.55
667.543	1.48
667.728	1.5
667.912	1.41
668.096	1.46
668.281	1.48
668.465	1.48
668.649	1.5
668.834	1.41
669.018	1.45
669.202	1.43
669.387	1.45
669.571	1.48
669.755	1.38
669.939	1.43
670.124	1.4
670.308	1.38
670.492	1.4
670.676	1.36
670.86	1.39
671.044	1.32
671.228	1.41
671.413	1.34
671.597	1.3
671.781	1.31
671.965	1.38
672.149	1.37
672.333	1.34
672.517	1.3
672.701	1.35
672.885	1.28
673.069	1.21
673.253	1.4
673.437	1.3
673.621	1.26
673.804	1.24
673.988	1.34
674.172	1.25
674.356	1.19
674.54	1.26
674.724	1.4
674.908	1.21
675.091	1.25
675.275	1.25
675.459	1.34
675.643	1.2
675.826	1.2
676.01	1.22
676.194	1.2
676.377	1.25
676.561	1.27
676.745	1.19
676.928	1.22
677.112	1.25
677.296	1.15
677.479	1.17
677.663	1.15
677.846	1.21
678.03	1.16
678.213	1.11
678.397	1.18
678.58	1.14
678.764	1.12
678.947	1.07
679.131	1.14
679.314	1.19
679.498	1.14
679.681	1.14
679.865	1.2
680.048	1.1
680.231	1.1
680.415	1.04
680.598	1.06
680.781	1.08
680.965	1.05
681.148	1.09
681.331	1.03
681.514	1.14
681.698	1.03
681.881	1.1
682.064	1.11
682.247	1.06
682.43	0.97
682.614	1.09
682.797	1.08
682.98	1.06
683.163	1.01
683.346	1
683.529	0.99
683.712	0.96
683.895	1.03
684.078	0.91
684.261	0.97
684.444	1.07
684.627	1.01
684.81	0.95
684.993	0.97
685.176	1.04
685.359	0.96
685.542	0.92
685.725	1.04
685.908	0.97
686.091	0.93
686.274	0.95
686.457	1.01
686.639	0.95
686.822	1.02
687.005	0.96
687.188	0.94
687.371	1.04
687.553	1
687.736	0.93
687.919	1.05
688.102	0.95
688.284	0.9
688.467	0.92
688.65	0.88
688.832	0.89
689.015	0.89
689.197	0.85
689.38	0.99
689.563	1.02
689.745	0.83
689.928	0.82
690.11	0.86
690.293	0.9
690.475	0.8
690.658	0.88
690.84	0.83
691.023	0.83
691.205	0.84
691.388	0.85
691.57	0.94
691.752	0.83
691.935	0.74
692.117	0.73
692.3	0.82
692.482	0.83
692.664	0.77
692.847	0.82
693.029	0.87
693.211	0.86
693.393	0.78
693.576	0.72
693.758	0.8
693.94	0.77
694.122	0.78
694.304	0.76
694.487	0.74
694.669	0.8
694.851	0.74
695.033	0.81
695.215	0.75
695.397	0.71
695.579	0.82
695.761	0.78
695.943	0.7
696.125	0.85
696.308	0.8
696.49	0.62
696.671	0.87
696.853	0.73
697.035	0.96
697.217	0.72
697.399	0.74
697.581	0.64
697.763	0.74
697.945	0.66
698.127	0.75
698.309	0.77
698.491	0.73
698.672	0.78
698.854	0.79
699.036	0.81
699.218	0.74
699.399	0.76
699.581	0.74
699.763	0.66
699.945	0.61
700.126	0.61
700.308	0.73
700.49	0.63
700.671	0.53
700.853	0.66
701.035	0.64
701.216	0.66
701.398	0.62
701.579	0.68
701.761	0.77
701.943	0.64
702.124	0.66
702.306	0.63
702.487	0.78
702.669	0.64
702.85	0.56
703.031	0.52
703.213	0.79
703.394	0.68
703.576	0.63
703.757	0.75
703.938	0.71
704.12	0.82
704.301	0.66
704.483	0.58
704.664	0.65
704.845	0.67
705.026	0.61
705.208	0.61
705.389	0.61
705.57	0.62
705.751	0.63
705.933	0.59
706.114	0.69
706.295	0.57
706.476	0.53
706.657	0.73
706.838	0.61
707.02	0.65
707.201	0.62
707.382	0.5
707.563	0.66
707.744	0.52
707.925	0.5
708.106	0.56
708.287	0.61
708.468	0.66
708.649	0.61
708.83	0.63
709.011	0.57
709.192	0.62
709.373	0.45
709.554	0.52
709.734	0.68
709.915	0.59
710.096	0.62
710.277	0.37
710.458	0.58
710.639	0.58
710.819	0.37
711	0.55
711.181	0.57
711.362	0.6
711.542	0.59
711.723	0.51
711.904	0.61
712.085	0.55
712.265	0.55
712.446	0.48
712.627	0.53
712.807	0.57
712.988	0.57
713.168	0.42
713.349	0.58
713.53	0.39
713.71	0.45
713.891	0.47
714.071	0.47
714.252	0.52
714.432	0.5
714.613	0.45
714.793	0.52
714.974	0.54
715.154	0.62
715.334	0.52
715.515	0.65
715.695	0.42
715.876	0.49
716.056	0.5
716.236	0.47
716.417	0.49
716.597	0.49
716.777	0.68
716.957	0.51
717.138	0.51
717.318	0.46
717.498	0.4
717.678	0.53
717.859	0.47
718.039	0.38
718.219	0.48
718.399	0.52
718.579	0.46
718.759	0.34
718.939	0.54
719.12	0.53
719.3	0.52
719.48	0.39
719.66	0.36
719.84	0.61
720.02	0.45
720.2	0.34
720.38	0.39
720.56	0.6
720.74	0.34
720.92	0.49
721.1	0.63
721.279	0.54
721.459	0.41
721.639	0.36
721.819	0.48
721.999	0.42
722.179	0.48
722.359	0.33
722.538	0.45
722.718	0.45
722.898	0.42
723.078	0.46
723.257	0.46
723.437	0.52
723.617	0.53
723.797	0.38
723.976	0.38
724.156	0.46
724.336	0.61
724.515	0.57
724.695	0.28
724.874	0.43
725.054	0.4
725.234	0.3
725.413	0.43
725.593	0.45
725.772	0.38
725.952	0.43
726.131	0.42
726.311	0.41
726.49	0.42
726.67	0.39
726.849	0.39
727.028	0.5
727.208	0.38
727.387	0.47
727.567	0.31
727.746	0.41
727.925	0.44
728.105	0.25
728.284	0.33
728.463	0.35
728.643	0.49
728.822	0.3
729.001	0.3
729.18	0.43
729.359	0.38
729.539	0.37
729.718	0.42
729.897	0.45
730.076	0.38
730.255	0.38
730.434	0.4
730.614	0.43
730.793	0.44
730.972	0.37
731.151	0.38
731.33	0.48
731.509	0.48
731.688	0.34
731.867	0.42
732.046	0.24
732.225	0.53
732.404	0.33
732.583	0.25
732.762	0.34
732.941	0.42
733.12	0.42
733.298	0.36
733.477	0.52
733.656	0.32
733.835	0.22
734.014	0.51
734.193	0.36
734.371	0.36
734.55	0.47
734.729	0.3
734.908	0.52
735.086	0.46
735.265	0.54
735.444	0.2
735.623	0.3
735.801	0.4
735.98	0.43
736.159	0.46
736.337	0.51
736.516	0.47
736.694	0.41
736.873	0.25
737.052	0.65
737.23	0.58
737.409	0.4
737.587	0.6
737.766	0.25
737.944	0.34
738.123	0.49
738.301	0.55
738.479	0.36
738.658	0.37
738.836	0.16
739.015	0.38
739.193	0.54
739.371	0.29
739.55	0.26
739.728	0.27
739.906	0.46
740.085	0.5
740.263	0.33
740.441	0.2
740.62	0.52
740.798	0.53
740.976	0.37
741.154	0.25
741.332	0.54
741.511	0.33
741.689	0.31
741.867	0.49
742.045	0.34
742.223	0.36
742.401	0.33
742.579	0.29
742.757	0.4
742.935	0.15
743.114	0.23
743.292	0.31
743.47	0.31
743.648	0.49
743.826	0.23
744.004	0.43
744.181	0.52
744.359	0.31
744.537	0.3
744.715	0.27
744.893	0.35
745.071	0.53
745.249	0.34
745.427	0.32
745.605	0.39
745.782	0.37
745.96	0.42
746.138	0.43
746.316	0.39
746.493	0.34
746.671	0.39
746.849	0.35
747.027	0.54
747.204	0.24
747.382	0.45
747.56	0.3
747.737	0.42
747.915	0.27
748.093	0.35
748.27	0.16
748.448	0.37
748.625	0.18
748.803	0.3
748.98	0.25
749.158	0.45
749.335	0.35
749.513	0.29
749.69	0.34
749.868	0.38
750.045	0.33
750.223	0.23
750.4	0.11
750.578	0.43
750.755	0.4
750.932	0.19
751.11	0.41
751.287	0.22
751.464	0.43
751.642	0.16
751.819	0.25
751.996	0.42
752.173	0.28
752.351	0.18
752.528	0.43
752.705	0.26
752.882	0.26
753.06	0.3
753.237	0.36
753.414	0.47
753.591	0.52
753.768	0.31
753.945	0.33
754.122	0.22
754.299	0.38
754.476	0.24
754.654	0.35
754.831	0.36
755.008	0.25
755.185	0.31
755.362	0.29
755.539	0.35
755.716	0.09
755.892	0.33
756.069	0.25
756.246	0.24
756.423	0.32
756.6	0.45
756.777	0.31
756.954	0.35
757.131	0.25
757.307	0.24
757.484	0.23
757.661	0.36
757.838	0.33
758.015	0.14
758.191	0.29
758.368	0.32
758.545	0.35
758.721	0.44
758.898	0.14
759.075	0.47
759.251	0.5
759.428	0.4
759.605	0.14
759.781	0.23
759.958	0.38
760.134	0.25
760.311	0.25
760.488	0.41
760.664	0.43
760.841	0.31
761.017	0.24
761.194	0.32
761.37	0.4
761.547	0.31
761.723	0.27
761.899	0.45
762.076	0.17
762.252	0.25
762.429	0.34
762.605	0.43
762.781	0.18
762.958	0.51
763.134	0.28
763.31	0.29
763.486	0.42
763.663	0.24
763.839	0.42
764.015	0.09
764.191	0.29
764.368	0.26
764.544	0.22
764.72	0.35
764.896	0.27
765.072	0.3
765.248	0.33
765.425	0.15
765.601	0.27
765.777	0.35
765.953	0
766.129	0.19
766.305	0.12
766.481	0.35
766.657	0.33
766.833	0.5
767.009	0.19
767.185	0.22
767.361	0.35
767.537	0.16
767.713	0.53
767.889	0.21
768.065	0.26
768.24	0.4
768.416	0.39
768.592	0.25
768.768	0.24
768.944	0.36
769.12	0.2
769.295	0.21
769.471	0.29
769.647	0.29
769.823	0.44
769.998	0.24
770.174	0.23
770.35	0.58
770.525	0.59
770.701	0.23
770.877	0.29
771.052	0.12
771.228	0.49
771.403	0.33
771.579	0.33
771.755	0.54
771.93	0.26
772.106	0.26
772.281	0.01
772.457	0.28
772.632	0.29
772.808	0.11
772.983	0.19
773.159	0.11
773.334	0.61
773.509	0.12
773.685	0.08
773.86	0.57
774.036	0.56
774.211	0.34
774.386	0.23
774.562	0.27
774.737	0.52
774.912	0.19
775.087	0.33
775.263	0.23
775.438	0.24
775.613	0.04
775.788	0.26
775.964	0.41
776.139	0.86
776.314	0.15
776.489	0.42
776.664	0.3
776.839	0.03
777.014	0.31
777.19	0.48
777.365	0.46
777.54	0.55
777.715	0.24
777.89	0.27
778.065	0.25
778.24	0.34
778.415	0.52
778.59	0.1
778.765	0.24
778.94	0.43
779.115	0.17
779.289	0.26
779.464	0.23
779.639	0.19
779.814	-0.04
779.989	0.07
780.164	0.48
780.339	0.27
780.513	0.15
780.688	0.23
780.863	0.29
781.038	0.56
781.212	0.22
781.387	0.24
781.562	0.55
781.737	0.09
781.911	0.52
782.086	0.23
782.261	0.4
782.435	0.58
782.61	0.27
782.784	0.22
782.959	0.56
783.134	0.24
783.308	0.16
783.483	0.33
783.657	0.74
783.832	0.69
784.006	0.05
784.181	0.31
784.355	0.27
784.53	0.06
784.704	0.17
784.878	0.57
785.053	0.3
785.227	0.64
785.402	0.69
785.576	0.04
785.75	0.37
785.925	0.39
786.099	0.23
786.273	0.34
786.448	0.57
786.622	0.58
786.796	0.24
786.97	0.23
787.145	0.95
787.319	-0.14
787.493	0.32
787.667	0.03
787.841	0.33
788.015	0.68
788.19	0.12
788.364	0.38
788.538	0.47
788.712	0.35
788.886	0.36
789.06	0.69
789.234	0.69
789.408	0.05
789.582	0.25
789.756	0.37
789.93	0.31
790.104	0.28
790.278	0.38
790.452	0.19
790.626	0.43
790.8	0.11
790.973	0.33
791.147	0.81
791.321	0.57
791.495	0.5
791.669	0.33
791.843	0.19
792.016	0.55
792.19	0.95
792.364	-0.02
792.538	1.08
792.711	0.65
792.885	0.14
793.059	0.24
793.233	-0.12
793.406	0.57
793.58	0.45
793.754	0.29
793.927	0.15
794.101	0.62
794.274	0.4
794.448	0.56
794.622	0.05
794.795	1.08
794.969	0.08
795.142	0.67
795.316	0.31
795.489	0.12
795.663	0.58
795.836	0.22
796.009	0.36
796.183	0.6
796.356	0.45
796.53	0.53
796.703	0.24
796.876	0.92
797.05	0.44
797.223	0.16
797.396	0.45
797.57	0.12
797.743	0.41
797.916	0.34
798.09	0.05
798.263	0.76
798.436	0.7
798.609	0.3
798.782	0.2
798.956	0.43
799.129	0.43
799.302	0.22
799.475	0.25
799.648	0.23
799.821	0.32
799.994	0.04
800.167	-0.24
800.34	0.26
800.514	0.22
800.687	0.24
800.86	0.36
801.033	0.58
801.206	0.46
801.379	-0.05
801.551	0.33
801.724	0.75
801.897	1.1
802.07	0.41
802.243	-0.26
802.416	0.29
802.589	0.13
802.762	0.19
802.935	0.5
803.107	0.87
803.28	0.92
803.453	0.9
803.626	0.26
803.798	0.68
803.971	0.39
804.144	0.73
804.317	0.49
804.489	0.74
804.662	0.57
804.835	0.49
805.007	-0.01
805.18	0.79
805.353	0.54
805.525	0.47
805.698	0.18
805.87	0.62
806.043	0.47
806.215	-0.09
806.388	-0.05
806.56	0.36
806.733	0.78
806.905	0.84
807.078	0.27
807.25	0.37
807.423	0.83
807.595	0.53
807.768	0.22
807.94	0.59
808.112	0.89
808.285	0.51
808.457	0.19
808.629	0.85
808.802	0.79
808.974	0.79
809.146	0.14
809.318	0.02
809.491	0.49
809.663	0.75
809.835	0.17
810.007	0.55
810.18	0.2
810.352	-0.06
810.524	0.34
810.696	0.63
810.868	0.81
811.04	0.42
811.212	0.52
811.384	0.71
811.556	0.69
811.728	0.26
811.901	0.95
812.073	0.75
812.245	0.96
812.417	0.3
812.589	-0.38
812.76	0.79
812.932	0.66
813.104	0.97
813.276	0.29
813.448	0.71
813.62	0.63
813.792	0.52
813.964	0.34
814.136	0.71
814.307	0.39
814.479	0.33
814.651	0.5
814.823	1.24
814.995	0.38
815.166	0.84
815.338	0.04
815.51	0.16
815.681	1.38
815.853	0.6
816.025	0.35
816.196	1.13
816.368	1.19
816.54	0.34
816.711	0.4
816.883	1.11
817.054	1.65
817.226	0.15
817.398	0.54
817.569	0.47
817.741	0.77
817.912	0.31
818.084	0.56
818.255	1
818.426	-0.22
818.598	-0.03
818.769	0.06
818.941	0.94
819.112	1.29
819.283	0.64
819.455	0.18
819.626	0.83
819.798	0.58
819.969	0.64
820.14	0.65
820.311	0.12
820.483	0.66
820.654	0.86
820.825	0.52
820.996	0.35
821.168	0.25
821.339	0.5
821.51	-0.07
821.681	0.33
821.852	0.65
822.023	-0.03
822.195	0.13
822.366	0.7
822.537	0.52
822.708	0.51
822.879	0.35
823.05	1.38
823.221	0.01
823.392	0.75
823.563	0.5
823.734	0.7
823.905	0.2
824.076	0.3
824.247	0.42
824.418	0.43
824.589	1.01
824.759	0.08
824.93	0.36
825.101	-0.04
825.272	0.71
825.443	1.39
825.614	1.1
825.784	-0.2
825.955	1.53
826.126	1.07
826.297	0.99
826.467	1.73
826.638	1.77
826.809	-0.08
826.98	0.87
827.15	0.9
827.321	0.59
827.492	1.48
827.662	1.1
827.833	1.27
828.003	1.08
828.174	0.04
828.345	-0.1
828.515	1.42
828.686	0.87
828.856	0.71
829.027	0.44
829.197	1.04
829.368	1.05
829.538	0.02
829.709	1.08
829.879	0.36
830.049	0.41
830.22	-0.05
830.39	1.17
830.56	1.3
830.731	0.57
830.901	0.55
831.072	1.02
831.242	0.77
831.412	1.12
831.582	0.49
831.753	-0.23
831.923	1
832.093	1.09
832.263	0.44
832.434	-0.1
832.604	0.44
832.774	1.55
832.944	0.3
833.114	0.14
833.284	1.21
833.454	0.01
833.624	0.08
833.795	0.18
833.965	1.1
834.135	1.43
834.305	-0.28
834.475	-0.42
834.645	0.72
834.815	0.37
834.985	0.52
835.155	0.22
835.325	1.27
835.494	1.29
835.664	0.35
835.834	0.02
836.004	0.72
836.174	0.84
836.344	0.62
836.514	0.09
836.684	0.44
836.853	0.58
837.023	1.03
837.193	-0.32
837.363	1.51
837.532	1.32
837.702	0.37
837.872	0.08
838.041	1.52
838.211	2.22
838.381	-0.19
838.55	0.28
838.72	3.11
838.89	2.07
839.059	0.83
839.229	0.27
839.398	2.64
839.568	1.32
839.738	0.65
839.907	1.91
840.077	0.91
840.246	0.72
840.416	0.05
840.585	-0.24
840.755	2
840.924	1.57
841.093	-0.51
841.263	0.26
841.432	0.98
841.602	-0.2
841.771	0.54
841.94	1.16
842.11	2.62
842.279	2.19
842.448	-0.19
842.617	0.12
842.787	2.55
842.956	0.21
843.125	0.88
843.294	1
843.464	1.3
843.633	1.16
843.802	-0.23
843.971	0.6
844.14	1.64
844.309	1.86
844.479	-0.88
844.648	-0.51
844.817	0.37
844.986	0.71
845.155	0.04
845.324	0.96
845.493	0.78
845.662	0.81
845.831	1.68
846	1.28
846.169	0.44
846.338	1.99
846.507	0.88
846.676	1.1
846.844	0.72
847.013	2.43
847.182	0.55
847.351	0.34
847.52	0.77
847.689	1.2
847.858	0.67
848.026	-0.18
848.195	1.08
848.364	-0.37
848.533	0.49
848.701	0.68
848.87	0.89
849.039	1.32
849.207	2.84
849.376	1.63
849.545	1.88
849.713	0.7
849.882	0.1
850.051	0.96
850.219	0.5
850.388	1.67
850.556	0.03
850.725	0.21
850.893	1.15
851.062	0.67
851.23	1.45
851.399	-0.35
851.567	0.73
851.736	0.33
851.904	0.04
852.073	0.77
852.241	1.77
852.41	1.74
852.578	0.44
852.746	0.34
852.915	1.85
853.083	0.71
853.251	-0.35
853.42	0.5
853.588	1.15
853.756	2.27
853.924	0.36
854.093	0.54
854.261	1.59
854.429	-0.85
854.597	1.42
854.765	0.7
854.934	2.76
855.102	1.56
855.27	1.1
855.438	2.58
855.606	2.26
855.774	3.61
855.942	-0.65
856.11	-1.07
856.278	1.25
856.446	2.35
856.614	0.71
856.782	-0.33
856.95	3.11
857.118	1.15
857.286	0.9
857.454	-0.56
857.622	2.86
857.79	2.15
857.958	0.67
858.126	1.42
858.294	-0.96
858.462	-0.02
858.629	-0.09
858.797	-0.06
858.965	1.57
859.133	1.12
859.301	1.59
859.468	2.2
859.636	-0.34
859.804	4.28
859.971	2.32
860.139	-0.49
860.307	1.92
860.474	1.73
860.642	-0.15
860.81	-0.8
860.977	0.14
861.145	3.02
861.313	-0.2
861.48	-0.42
861.648	2.59
861.815	0.11
861.983	-0.76
862.15	0.06
862.318	2.04
862.485	1.91
862.653	0.79
862.82	-0.17
862.988	3.16
863.155	1.83
863.322	-0.04
863.49	-1.04
863.657	0.1
863.824	3.88
863.992	0.81
864.159	2.23
864.326	3.04
864.494	0.58
864.661	2.68
864.828	-1.07
864.996	3.09
865.163	3.62
865.33	-0.4
865.497	-2.04
865.664	0.89
865.832	-1.39
865.999	0.67
866.166	0.61
866.333	1.71
866.5	0.96
866.667	1.46
866.834	1.27
867.001	2.68
867.168	-0.91
867.335	1.87
867.502	-1.2
867.669	1.19
867.836	4.71
868.003	1.57
868.17	3.08
868.337	-0.16
868.504	4.23
868.671	-1.05
868.838	-0.66
869.005	4.12
869.172	2.68
869.339	0.58
869.505	1.36
869.672	3.05
869.839	3.73
870.006	1.15
870.173	-0.6
870.339	1.73
870.506	5.56
870.673	0.44
870.84	2.62
871.006	1.54
871.173	1.7
871.34	1.13
871.506	-0.48
871.673	1.22
871.839	0.44
872.006	1.82
872.173	1.3
872.339	1.85
872.506	4.41
872.672	1.46
872.839	-1.55
873.005	1.83
873.172	3.55
873.338	3.15
873.505	2.88
873.671	1.97
873.838	2.35
874.004	-1.79
874.171	-0.15
874.337	1.85
874.503	2.72
874.67	-0.12
874.836	1.74
875.002	3.82
875.169	2.55
875.335	0.87
875.501	1.23
875.668	3.33
875.834	0.96
876	1.87
876.166	1.91
876.332	3.5
876.499	5.47
876.665	1.05
876.831	1.37
876.997	5.05
877.163	2.53
877.329	0.59
877.495	1.35
877.662	3.35
877.828	1.39
877.994	1.75
878.16	-2.27
878.326	-0.96
878.492	2.24
878.658	0.46
878.824	2.67
878.99	1.8
879.156	1.21
879.322	5.49
879.487	0.37
879.653	3.01
879.819	2.05
879.985	-0.06
880.151	2.2
880.317	2.3
880.483	3.14
880.648	1.25
880.814	-1.34
880.98	1.59
881.146	-1.2
881.312	0.47
881.477	1.69
881.643	1.56
881.809	3.31
881.974	2.56
882.14	-1.58
882.306	2.37
882.471	3.65
882.637	0.9
882.803	2.96
882.968	4.11
883.134	5.18
883.299	0.15
883.465	1.83
883.63	3.56
883.796	3.41
883.961	3.33
884.127	1.88
884.292	-3.03
884.458	0.24
884.623	0.24
