Data from Apollo_Calib_20240827__AbsoluteIrradiance__888__13-57-01-939.txt Node

Date: Wed Aug 28 13:57:01 BST 2024
User: biology
Spectrometer: FLMT08252
Trigger mode: 0
Integration Time (sec): 5.000000E-1
Scans to average: 5
Electric dark correction enabled: true
Nonlinearity correction enabled: false
Boxcar width: 0
XAxis mode: Wavelengths
Number of Pixels in Spectrum: 3648
>>>>>Begin Spectral Data<<<<<
179.588	-0
179.809	-0
180.03	-0
180.251	-0
180.473	-0
180.694	0
180.915	0
181.136	-0
181.357	0
181.578	-0
181.799	0
182.02	-0
182.241	-0
182.462	-0
182.683	0
182.904	-0
183.125	-0
183.346	0
183.567	0
183.788	0
184.009	0
184.23	0
184.451	0
184.672	0
184.892	0
185.113	0
185.334	0
185.555	0
185.776	0
185.996	0
186.217	0
186.438	0
186.659	0
186.879	0
187.1	0
187.321	0
187.541	0
187.762	0
187.983	0
188.203	0
188.424	0
188.644	0
188.865	0
189.086	0
189.306	0
189.527	0
189.747	0
189.968	0
190.188	0
190.409	0
190.629	0
190.849	0
191.07	0
191.29	0
191.511	0
191.731	0
191.951	0
192.172	0
192.392	0
192.612	0
192.833	0
193.053	0
193.273	0
193.493	0
193.714	0
193.934	0
194.154	0
194.374	0
194.594	0
194.815	0
195.035	0
195.255	0
195.475	0
195.695	0
195.915	0
196.135	0
196.355	0
196.575	0
196.795	0
197.015	0
197.235	0
197.455	0
197.675	0
197.895	0
198.115	0
198.335	0
198.555	0
198.775	0
198.995	0
199.214	0
199.434	0
199.654	0
199.874	0
200.094	4
200.313	2.13
200.533	2.04
200.753	1.15
200.973	3.29
201.192	3.2
201.412	1.71
201.632	2.08
201.851	3.64
202.071	1.96
202.291	1.77
202.51	0.72
202.73	3.06
202.95	2.05
203.169	1.18
203.389	1.59
203.608	2.23
203.828	1.69
204.047	1.27
204.267	2.35
204.486	1.99
204.706	2.83
204.925	2.02
205.145	1.24
205.364	2.57
205.583	3.37
205.803	1.38
206.022	1.04
206.242	1.77
206.461	2.03
206.68	1.06
206.9	1.33
207.119	2.64
207.338	2.42
207.557	1.12
207.777	1.44
207.996	1.51
208.215	2.17
208.434	1.39
208.654	0.92
208.873	1.71
209.092	2.28
209.311	1.19
209.53	1.18
209.749	1.22
209.968	1.2
210.187	1
210.407	0.59
210.626	1.12
210.845	1.67
211.064	1.11
211.283	0.62
211.502	1.71
211.721	0.88
211.94	0.9
212.159	1.5
212.377	1.52
212.596	1.52
212.815	1.05
213.034	1.24
213.253	1.48
213.472	1.41
213.691	1.02
213.91	0.8
214.128	0.76
214.347	1.49
214.566	0.62
214.785	0.72
215.003	1.36
215.222	1.2
215.441	1.1
215.66	0.69
215.878	1.17
216.097	1.4
216.316	0.51
216.534	0.83
216.753	1.03
216.972	0.91
217.19	0.72
217.409	0.91
217.627	0.72
217.846	0.73
218.064	0.9
218.283	0.64
218.501	1.45
218.72	1.15
218.938	0.56
219.157	0.71
219.375	1.25
219.594	0.91
219.812	0.49
220.031	0.56
220.249	1.37
220.467	1.1
220.686	0.57
220.904	0.56
221.122	0.7
221.341	1.09
221.559	0.9
221.777	0.51
221.995	0.86
222.214	0.83
222.432	0.73
222.65	0.85
222.868	0.61
223.086	0.93
223.305	0.89
223.523	0.76
223.741	1.15
223.959	0.81
224.177	0.23
224.395	0.52
224.613	0.81
224.831	0.91
225.049	0.55
225.267	0.55
225.485	0.79
225.703	0.67
225.921	0.51
226.139	0.57
226.357	0.86
226.575	0.8
226.793	0.46
227.011	1.63
227.229	0.96
227.447	0.85
227.665	0.43
227.883	0.38
228.1	0.62
228.318	0.77
228.536	0.3
228.754	0.58
228.972	0.74
229.189	0.86
229.407	0.57
229.625	0.5
229.843	0.93
230.06	0.79
230.278	0.38
230.496	0.58
230.713	0.77
230.931	0.8
231.149	0.52
231.366	0.3
231.584	0.6
231.801	1.01
232.019	0.46
232.236	0.37
232.454	0.29
232.671	0.69
232.889	0.49
233.106	0.4
233.324	0.66
233.541	0.61
233.759	0.48
233.976	0.39
234.194	0.53
234.411	0.62
234.628	0.36
234.846	0.43
235.063	0.58
235.28	0.67
235.498	0.46
235.715	0.34
235.932	0.71
236.149	0.5
236.367	0.3
236.584	0.6
236.801	0.49
237.018	0.6
237.236	0.45
237.453	0.27
237.67	0.69
237.887	0.6
238.104	0.43
238.321	0.43
238.538	0.46
238.755	0.65
238.973	0.34
239.19	0.46
239.407	0.58
239.624	0.6
239.841	0.43
240.058	0.31
240.275	0.59
240.492	0.35
240.709	0.47
240.925	0.39
241.142	0.52
241.359	0.38
241.576	0.25
241.793	0.28
242.01	0.48
242.227	0.75
242.444	0.53
242.66	0.72
242.877	0.45
243.094	0.42
243.311	0.45
243.527	0.4
243.744	0.61
243.961	0.62
244.178	0.36
244.394	0.39
244.611	0.61
244.828	0.7
245.044	0.41
245.261	0.37
245.477	0.57
245.694	0.52
245.911	0.34
246.127	0.48
246.344	0.64
246.56	0.58
246.777	0.4
246.993	0.53
247.21	0.5
247.426	0.61
247.643	0.33
247.859	0.39
248.076	0.37
248.292	0.73
248.508	0.35
248.725	0.52
248.941	0.54
249.157	0.59
249.374	0.35
249.59	0.43
249.806	0.47
250.023	0.54
250.239	0.31
250.455	0.29
250.671	0.43
250.888	0.49
251.104	0.54
251.32	0.42
251.536	0.37
251.752	0.33
251.969	0.39
252.185	0.42
252.401	0.69
252.617	0.47
252.833	0.29
253.049	0.37
253.265	0.43
253.481	0.47
253.697	0.33
253.913	0.28
254.129	0.45
254.345	0.39
254.561	0.29
254.777	0.32
254.993	0.55
255.209	0.42
255.425	0.41
255.641	0.31
255.857	0.5
256.073	0.39
256.288	0.22
256.504	0.3
256.72	0.45
256.936	0.65
257.152	0.36
257.367	0.28
257.583	0.42
257.799	0.56
258.015	0.24
258.23	0.36
258.446	0.66
258.662	0.39
258.877	0.32
259.093	0.27
259.309	0.36
259.524	0.4
259.74	0.36
259.955	0.23
260.171	0.38
260.387	0.37
260.602	0.43
260.818	0.46
261.033	0.32
261.249	0.45
261.464	0.26
261.68	0.28
261.895	0.51
262.11	0.47
262.326	0.4
262.541	0.24
262.757	0.51
262.972	0.49
263.187	0.4
263.403	0.36
263.618	0.53
263.833	0.38
264.049	0.25
264.264	0.3
264.479	0.39
264.694	0.55
264.91	0.22
265.125	0.34
265.34	0.45
265.555	0.6
265.77	0.36
265.986	0.27
266.201	0.4
266.416	0.54
266.631	0.3
266.846	0.31
267.061	0.48
267.276	0.38
267.491	0.18
267.706	0.45
267.921	0.4
268.136	0.35
268.351	0.36
268.566	0.22
268.781	0.45
268.996	0.5
269.211	0.33
269.426	0.3
269.641	0.37
269.856	0.47
270.071	0.25
270.285	0.24
270.5	0.44
270.715	0.42
270.93	0.32
271.145	0.37
271.359	0.43
271.574	0.34
271.789	0.36
272.004	0.27
272.218	0.35
272.433	0.42
272.648	0.24
272.862	0.4
273.077	0.37
273.292	0.34
273.506	0.26
273.721	0.34
273.936	0.45
274.15	0.44
274.365	0.29
274.579	0.38
274.794	0.36
275.008	0.45
275.223	0.22
275.437	0.33
275.652	0.45
275.866	0.4
276.081	0.33
276.295	0.4
276.509	0.36
276.724	0.34
276.938	0.3
277.153	0.33
277.367	0.42
277.581	0.26
277.796	0.32
278.01	0.2
278.224	0.4
278.438	0.45
278.653	0.23
278.867	0.22
279.081	0.15
279.295	0.33
279.51	0.28
279.724	0.2
279.938	0.39
280.152	0.32
280.366	0.28
280.58	0.35
280.794	0.43
281.008	0.46
281.222	0.39
281.437	0.48
281.651	0.32
281.865	0.4
282.079	0.29
282.293	0.18
282.507	0.28
282.721	0.32
282.935	0.33
283.148	0.22
283.362	0.29
283.576	0.27
283.79	0.28
284.004	0.21
284.218	0.38
284.432	0.23
284.646	0.24
284.859	0.27
285.073	0.28
285.287	0.34
285.501	0.28
285.714	0.25
285.928	0.33
286.142	0.33
286.356	0.26
286.569	0.3
286.783	0.38
286.997	0.41
287.21	0.32
287.424	0.27
287.637	0.27
287.851	0.28
288.065	0.37
288.278	0.33
288.492	0.33
288.705	0.28
288.919	0.32
289.132	0.2
289.346	0.32
289.559	0.23
289.773	0.24
289.986	0.27
290.2	0.29
290.413	0.35
290.626	0.25
290.84	0.28
291.053	0.32
291.267	0.37
291.48	0.25
291.693	0.29
291.906	0.25
292.12	0.26
292.333	0.24
292.546	0.26
292.76	0.41
292.973	0.33
293.186	0.37
293.399	0.24
293.612	0.33
293.826	0.32
294.039	0.28
294.252	0.24
294.465	0.36
294.678	0.28
294.891	0.27
295.104	0.24
295.317	0.3
295.53	0.31
295.743	0.28
295.956	0.24
296.169	0.43
296.382	0.29
296.595	0.28
296.808	0.21
297.021	0.36
297.234	0.36
297.447	0.23
297.66	0.26
297.873	0.39
298.086	0.35
298.299	0.23
298.511	0.14
298.724	0.27
298.937	0.24
299.15	0.24
299.363	0.25
299.575	0.29
299.788	0.28
300.001	0.22
300.213	0.27
300.426	0.24
300.639	0.23
300.852	0.21
301.064	0.26
301.277	0.33
301.489	0.32
301.702	0.29
301.915	0.23
302.127	0.27
302.34	0.29
302.552	0.28
302.765	0.19
302.977	0.37
303.19	0.26
303.402	0.24
303.615	0.21
303.827	0.27
304.04	0.27
304.252	0.33
304.464	0.28
304.677	0.4
304.889	0.37
305.102	0.22
305.314	0.22
305.526	0.3
305.739	0.32
305.951	0.21
306.163	0.21
306.375	0.38
306.588	0.26
306.8	0.21
307.012	0.22
307.224	0.29
307.436	0.33
307.649	0.14
307.861	0.25
308.073	0.33
308.285	0.2
308.497	0.2
308.709	0.22
308.921	0.28
309.133	0.33
309.346	0.26
309.558	0.23
309.77	0.3
309.982	0.35
310.194	0.27
310.406	0.23
310.617	0.33
310.829	0.27
311.041	0.3
311.253	0.19
311.465	0.29
311.677	0.29
311.889	0.2
312.101	0.22
312.313	0.31
312.524	0.39
312.736	0.19
312.948	0.26
313.16	0.38
313.372	0.29
313.583	0.3
313.795	0.26
314.007	0.23
314.218	0.33
314.43	0.26
314.642	0.21
314.853	0.19
315.065	0.31
315.277	0.23
315.488	0.26
315.7	0.33
315.912	0.33
316.123	0.24
316.335	0.23
316.546	0.4
316.758	0.28
316.969	0.19
317.181	0.25
317.392	0.27
317.604	0.36
317.815	0.19
318.026	0.27
318.238	0.23
318.449	0.29
318.661	0.17
318.872	0.21
319.083	0.21
319.295	0.28
319.506	0.25
319.717	0.27
319.929	0.3
320.14	0.25
320.351	0.24
320.562	0.21
320.774	0.26
320.985	0.3
321.196	0.21
321.407	0.19
321.618	0.33
321.829	0.29
322.041	0.27
322.252	0.29
322.463	0.39
322.674	0.32
322.885	0.19
323.096	0.27
323.307	0.3
323.518	0.31
323.729	0.25
323.94	0.22
324.151	0.27
324.362	0.3
324.573	0.27
324.784	0.24
324.995	0.32
325.206	0.31
325.417	0.25
325.628	0.24
325.838	0.27
326.049	0.26
326.26	0.3
326.471	0.21
326.682	0.33
326.892	0.28
327.103	0.18
327.314	0.23
327.525	0.32
327.735	0.32
327.946	0.25
328.157	0.18
328.368	0.4
328.578	0.25
328.789	0.35
328.999	0.23
329.21	0.25
329.421	0.31
329.631	0.23
329.842	0.19
330.052	0.28
330.263	0.32
330.473	0.28
330.684	0.2
330.894	0.27
331.105	0.27
331.315	0.29
331.526	0.13
331.736	0.39
331.947	0.28
332.157	0.34
332.367	0.15
332.578	0.31
332.788	0.39
332.999	0.26
333.209	0.25
333.419	0.18
333.629	0.28
333.84	0.28
334.05	0.27
334.26	0.35
334.47	0.29
334.681	0.29
334.891	0.24
335.101	0.34
335.311	0.38
335.521	0.25
335.732	0.23
335.942	0.33
336.152	0.29
336.362	0.3
336.572	0.24
336.782	0.31
336.992	0.22
337.202	0.27
337.412	0.25
337.622	0.28
337.832	0.28
338.042	0.27
338.252	0.22
338.462	0.25
338.672	0.26
338.882	0.29
339.092	0.27
339.302	0.37
339.511	0.34
339.721	0.18
339.931	0.2
340.141	0.35
340.351	0.29
340.561	0.27
340.77	0.3
340.98	0.29
341.19	0.29
341.4	0.24
341.609	0.22
341.819	0.24
342.029	0.23
342.238	0.27
342.448	0.24
342.658	0.25
342.867	0.23
343.077	0.27
343.286	0.23
343.496	0.32
343.706	0.32
343.915	0.16
344.125	0.24
344.334	0.28
344.544	0.18
344.753	0.21
344.963	0.22
345.172	0.22
345.381	0.21
345.591	0.18
345.8	0.25
346.01	0.31
346.219	0.29
346.428	0.12
346.638	0.26
346.847	0.25
347.056	0.33
347.266	0.22
347.475	0.24
347.684	0.28
347.893	0.26
348.103	0.26
348.312	0.28
348.521	0.25
348.73	0.26
348.94	0.26
349.149	0.21
349.358	0.25
349.567	0.18
349.776	0.16
349.985	0.25
350.194	0.31
350.403	0.31
350.612	0.17
350.821	0.17
351.03	0.28
351.239	0.19
351.448	0.25
351.657	0.25
351.866	0.36
352.075	0.25
352.284	0.33
352.493	0.22
352.702	0.34
352.911	0.26
353.12	0.24
353.329	0.24
353.538	0.29
353.746	0.26
353.955	0.19
354.164	0.25
354.373	0.21
354.582	0.29
354.79	0.24
354.999	0.26
355.208	0.24
355.416	0.34
355.625	0.24
355.834	0.24
356.042	0.29
356.251	0.21
356.46	0.21
356.668	0.27
356.877	0.35
357.085	0.35
357.294	0.17
357.503	0.27
357.711	0.28
357.92	0.41
358.128	0.26
358.337	0.21
358.545	0.26
358.754	0.21
358.962	0.31
359.17	0.23
359.379	0.26
359.587	0.27
359.796	0.23
360.004	0.32
360.212	0.29
360.421	0.32
360.629	0.25
360.837	0.22
361.046	0.32
361.254	0.41
361.462	0.24
361.67	0.22
361.879	0.33
362.087	0.32
362.295	0.22
362.503	0.23
362.711	0.16
362.92	0.21
363.128	0.21
363.336	0.21
363.544	0.21
363.752	0.25
363.96	0.23
364.168	0.23
364.376	0.27
364.584	0.23
364.792	0.31
365	0.29
365.208	0.28
365.416	0.31
365.624	0.27
365.832	0.19
366.04	0.33
366.248	0.24
366.456	0.29
366.664	0.28
366.872	0.25
367.079	0.24
367.287	0.26
367.495	0.26
367.703	0.23
367.911	0.22
368.118	0.23
368.326	0.24
368.534	0.23
368.742	0.31
368.949	0.22
369.157	0.24
369.365	0.29
369.572	0.21
369.78	0.19
369.988	0.28
370.195	0.26
370.403	0.28
370.61	0.2
370.818	0.27
371.026	0.33
371.233	0.25
371.441	0.29
371.648	0.23
371.856	0.28
372.063	0.28
372.271	0.26
372.478	0.25
372.685	0.24
372.893	0.33
373.1	0.26
373.308	0.21
373.515	0.38
373.722	0.35
373.93	0.27
374.137	0.3
374.344	0.38
374.552	0.3
374.759	0.32
374.966	0.25
375.173	0.26
375.381	0.37
375.588	0.24
375.795	0.2
376.002	0.28
376.209	0.26
376.417	0.25
376.624	0.3
376.831	0.33
377.038	0.3
377.245	0.14
377.452	0.23
377.659	0.26
377.866	0.21
378.073	0.24
378.28	0.23
378.487	0.34
378.694	0.34
378.901	0.25
379.108	0.24
379.315	0.33
379.522	0.4
379.729	0.24
379.936	0.23
380.143	0.26
380.35	0.27
380.557	0.29
380.763	0.3
380.97	0.28
381.177	0.3
381.384	0.29
381.591	0.29
381.797	0.27
382.004	0.34
382.211	0.3
382.418	0.23
382.624	0.33
382.831	0.31
383.038	0.24
383.244	0.29
383.451	0.29
383.658	0.32
383.864	0.25
384.071	0.23
384.277	0.37
384.484	0.26
384.69	0.36
384.897	0.21
385.103	0.25
385.31	0.27
385.516	0.31
385.723	0.21
385.929	0.29
386.136	0.21
386.342	0.35
386.549	0.26
386.755	0.32
386.961	0.32
387.168	0.25
387.374	0.28
387.58	0.35
387.787	0.3
387.993	0.28
388.199	0.32
388.406	0.23
388.612	0.27
388.818	0.23
389.024	0.27
389.231	0.3
389.437	0.38
389.643	0.33
389.849	0.25
390.055	0.28
390.261	0.33
390.467	0.33
390.674	0.27
390.88	0.31
391.086	0.34
391.292	0.26
391.498	0.3
391.704	0.32
391.91	0.3
392.116	0.29
392.322	0.18
392.528	0.36
392.734	0.3
392.94	0.28
393.146	0.29
393.352	0.31
393.557	0.3
393.763	0.31
393.969	0.32
394.175	0.34
394.381	0.34
394.587	0.27
394.792	0.3
394.998	0.4
395.204	0.37
395.41	0.29
395.615	0.31
395.821	0.33
396.027	0.37
396.233	0.31
396.438	0.37
396.644	0.44
396.85	0.33
397.055	0.32
397.261	0.34
397.466	0.33
397.672	0.37
397.878	0.4
398.083	0.42
398.289	0.31
398.494	0.43
398.7	0.4
398.905	0.27
399.111	0.43
399.316	0.26
399.522	0.36
399.727	0.35
399.932	0.32
400.138	0.35
400.343	0.39
400.549	0.32
400.754	0.36
400.959	0.38
401.165	0.33
401.37	0.38
401.575	0.31
401.78	0.38
401.986	0.36
402.191	0.37
402.396	0.36
402.601	0.44
402.807	0.47
403.012	0.37
403.217	0.44
403.422	0.45
403.627	0.48
403.832	0.39
404.037	0.44
404.243	0.42
404.448	0.43
404.653	0.41
404.858	0.47
405.063	0.49
405.268	0.4
405.473	0.37
405.678	0.4
405.883	0.67
406.088	0.53
406.293	0.43
406.498	0.5
406.703	0.49
406.907	0.52
407.112	0.38
407.317	0.57
407.522	0.53
407.727	0.5
407.932	0.56
408.136	0.67
408.341	0.53
408.546	0.58
408.751	0.56
408.956	0.6
409.16	0.67
409.365	0.65
409.57	0.62
409.774	0.63
409.979	0.72
410.184	0.66
410.388	0.6
410.593	0.74
410.798	0.78
411.002	0.71
411.207	0.75
411.411	0.83
411.616	0.72
411.82	0.8
412.025	0.8
412.229	0.83
412.434	0.99
412.638	0.92
412.843	0.88
413.047	0.96
413.252	0.97
413.456	1.03
413.66	1.1
413.865	1.02
414.069	1.15
414.273	1.08
414.478	1.04
414.682	1.15
414.886	1.17
415.091	1.14
415.295	1.2
415.499	1.4
415.703	1.31
415.908	1.44
416.112	1.3
416.316	1.54
416.52	1.49
416.724	1.5
416.929	1.53
417.133	1.82
417.337	1.67
417.541	1.75
417.745	1.79
417.949	1.94
418.153	1.91
418.357	1.98
418.561	2.15
418.765	2.15
418.969	2.31
419.173	2.36
419.377	2.29
419.581	2.62
419.785	2.59
419.989	2.59
420.193	2.72
420.397	2.73
420.601	2.95
420.804	3
421.008	3.02
421.212	3.1
421.416	3.09
421.62	3.19
421.823	3.31
422.027	3.46
422.231	3.4
422.435	3.3
422.638	3.49
422.842	3.52
423.046	3.63
423.249	3.76
423.453	3.85
423.657	4.02
423.86	4.08
424.064	4.17
424.268	4.4
424.471	4.32
424.675	4.54
424.878	4.7
425.082	4.68
425.285	4.99
425.489	4.94
425.692	5.06
425.896	5.11
426.099	5.27
426.303	5.45
426.506	5.5
426.71	5.76
426.913	6
427.116	6.15
427.32	6.18
427.523	6.28
427.726	6.55
427.93	6.66
428.133	7.02
428.336	6.99
428.54	7.18
428.743	7.46
428.946	7.59
429.149	7.71
429.353	7.61
429.556	7.72
429.759	7.84
429.962	7.97
430.165	8.06
430.368	7.74
430.571	7.82
430.775	7.9
430.978	7.88
431.181	7.97
431.384	8.06
431.587	8.17
431.79	8.51
431.993	8.44
432.196	8.71
432.399	9.06
432.602	9.32
432.805	9.36
433.008	9.9
433.211	9.73
433.414	10.08
433.616	10.1
433.819	9.95
434.022	10.22
434.225	10.38
434.428	10.59
434.631	10.98
434.833	10.65
435.036	10.89
435.239	11.15
435.442	11.06
435.645	11.32
435.847	11.39
436.05	11.61
436.253	11.9
436.455	11.84
436.658	11.83
436.861	12.18
437.063	12.23
437.266	12.14
437.468	12.63
437.671	12.87
437.874	12.93
438.076	12.75
438.279	13.31
438.481	13.38
438.684	14.06
438.886	13.57
439.089	13.96
439.291	13.93
439.494	14.3
439.696	14.51
439.899	14.88
440.101	15.43
440.303	15.56
440.506	16.19
440.708	15.95
440.91	16.28
441.113	16.5
441.315	16.63
441.517	16.5
441.72	17.07
441.922	16.53
442.124	16.49
442.326	16.91
442.529	17.15
442.731	17.18
442.933	17.42
443.135	17.09
443.337	17.13
443.539	17.73
443.742	17.29
443.944	18.02
444.146	17.73
444.348	17.83
444.55	17.64
444.752	17.94
444.954	17.9
445.156	17.71
445.358	18.13
445.56	18.51
445.762	18.23
445.964	18.52
446.166	18.36
446.368	18.44
446.57	18.27
446.772	17.93
446.974	17.78
447.175	18.07
447.377	17.91
447.579	18.15
447.781	17.91
447.983	17.67
448.184	17.4
448.386	17.64
448.588	17.11
448.79	17.17
448.991	17.5
449.193	17.51
449.395	16.88
449.597	16.42
449.798	16.4
450	16.06
450.202	15.83
450.403	15.92
450.605	15.9
450.806	15.35
451.008	15.39
451.21	15.14
451.411	14.66
451.613	13.96
451.814	14.29
452.016	14.14
452.217	13.54
452.419	13.46
452.62	13.18
452.821	12.8
453.023	12.71
453.224	12.38
453.426	12
453.627	11.31
453.828	11.4
454.03	11.56
454.231	11.48
454.432	11.34
454.634	10.98
454.835	10.78
455.036	10.6
455.238	10.3
455.439	10.04
455.64	9.75
455.841	9.6
456.042	9.73
456.244	9.29
456.445	9.04
456.646	8.74
456.847	8.78
457.048	8.65
457.249	8.68
457.45	8.55
457.651	7.89
457.852	7.75
458.054	7.5
458.255	7.37
458.456	7.44
458.657	7.34
458.858	6.81
459.058	6.76
459.259	6.85
459.46	6.52
459.661	6.54
459.862	6.56
460.063	6.49
460.264	6.41
460.465	6.17
460.666	6.31
460.866	5.87
461.067	5.64
461.268	5.73
461.469	5.55
461.67	5.56
461.87	5.41
462.071	5.4
462.272	5.35
462.473	5.2
462.673	5.46
462.874	5.23
463.075	5.2
463.275	5.19
463.476	5.28
463.676	5.22
463.877	5.04
464.078	5.01
464.278	5.08
464.479	4.98
464.679	4.91
464.88	4.73
465.08	4.77
465.281	4.62
465.481	4.44
465.682	4.19
465.882	4.24
466.083	4.19
466.283	4.1
466.483	4
466.684	3.85
466.884	3.7
467.085	3.78
467.285	3.82
467.485	3.76
467.686	3.59
467.886	3.5
468.086	3.4
468.286	3.46
468.487	3.51
468.687	3.4
468.887	3.3
469.087	3.44
469.287	3.4
469.488	3.15
469.688	3.32
469.888	3.29
470.088	3.24
470.288	3.14
470.488	3.22
470.688	2.95
470.888	2.94
471.088	2.72
471.288	2.9
471.488	2.84
471.688	2.85
471.888	2.72
472.088	2.97
472.288	2.81
472.488	2.7
472.688	2.64
472.888	2.69
473.088	2.67
473.288	2.54
473.488	2.5
473.688	2.72
473.887	2.55
474.087	2.51
474.287	2.49
474.487	2.46
474.687	2.5
474.886	2.42
475.086	2.34
475.286	2.4
475.486	2.33
475.685	2.28
475.885	2.25
476.085	2.34
476.284	2.33
476.484	2.28
476.684	2.29
476.883	2.37
477.083	2.22
477.282	2.17
477.482	2.26
477.681	2.22
477.881	2.12
478.08	2.14
478.28	2.07
478.479	2.1
478.679	2.19
478.878	2.07
479.078	2.08
479.277	2.12
479.477	2.09
479.676	2.08
479.875	2.04
480.075	1.95
480.274	2.06
480.473	2.12
480.673	2.08
480.872	2.12
481.071	2.06
481.271	2.12
481.47	2.01
481.669	2.03
481.868	2.01
482.067	2.06
482.267	1.91
482.466	1.97
482.665	1.95
482.864	2.01
483.063	1.94
483.262	2.1
483.461	2.13
483.661	2.11
483.86	2.01
484.059	2.08
484.258	2.07
484.457	2.07
484.656	2.07
484.855	2.13
485.054	1.94
485.253	2.01
485.452	1.98
485.651	2.09
485.849	2.04
486.048	2.03
486.247	2.05
486.446	2.14
486.645	2.05
486.844	2.09
487.043	2.08
487.241	2.13
487.44	2.12
487.639	2.21
487.838	2.1
488.037	2.12
488.235	2.25
488.434	2.18
488.633	2.05
488.831	2.26
489.03	2.3
489.229	2.23
489.427	2.21
489.626	2.31
489.825	2.33
490.023	2.33
490.222	2.26
490.42	2.33
490.619	2.42
490.817	2.36
491.016	2.37
491.214	2.43
491.413	2.43
491.611	2.36
491.81	2.44
492.008	2.46
492.207	2.56
492.405	2.54
492.604	2.5
492.802	2.59
493	2.61
493.199	2.65
493.397	2.66
493.595	2.75
493.794	2.65
493.992	2.79
494.19	2.72
494.388	2.82
494.587	2.77
494.785	2.81
494.983	2.76
495.181	2.87
495.379	2.94
495.578	3
495.776	2.98
495.974	2.99
496.172	3
496.37	3.09
496.568	3.13
496.766	3.09
496.964	3.23
497.162	3.15
497.36	3.2
497.558	3.24
497.756	3.3
497.954	3.28
498.152	3.36
498.35	3.43
498.548	3.37
498.746	3.42
498.944	3.4
499.142	3.44
499.34	3.55
499.538	3.61
499.736	3.54
499.933	3.63
500.131	3.68
500.329	3.79
500.527	3.8
500.725	3.85
500.922	3.83
501.12	3.86
501.318	3.93
501.516	3.94
501.713	3.99
501.911	3.95
502.109	3.97
502.306	4.08
502.504	4.04
502.701	4.08
502.899	4.18
503.097	4.33
503.294	4.22
503.492	4.31
503.689	4.41
503.887	4.39
504.084	4.47
504.282	4.41
504.479	4.42
504.677	4.55
504.874	4.56
505.072	4.43
505.269	4.66
505.466	4.75
505.664	4.76
505.861	4.61
506.059	4.73
506.256	4.77
506.453	4.9
506.651	4.95
506.848	5.03
507.045	4.96
507.242	5
507.44	4.98
507.637	5.07
507.834	5.1
508.031	5.24
508.229	5.14
508.426	5.07
508.623	5.22
508.82	5.3
509.017	5.25
509.214	5.25
509.411	5.39
509.608	5.33
509.805	5.5
510.003	5.46
510.2	5.5
510.397	5.66
510.594	5.54
510.791	5.64
510.988	5.6
511.184	5.61
511.381	5.47
511.578	5.67
511.775	5.83
511.972	5.72
512.169	5.79
512.366	5.75
512.563	5.94
512.76	5.93
512.956	6
513.153	5.92
513.35	5.86
513.547	5.89
513.744	6.06
513.94	6.02
514.137	6.15
514.334	6.05
514.53	6.18
514.727	6.31
514.924	6.23
515.12	6.24
515.317	6.25
515.514	6.23
515.71	6.18
515.907	6.43
516.103	6.39
516.3	6.32
516.497	6.44
516.693	6.47
516.89	6.49
517.086	6.47
517.283	6.56
517.479	6.42
517.676	6.64
517.872	6.66
518.068	6.59
518.265	6.57
518.461	6.56
518.658	6.68
518.854	6.72
519.05	6.8
519.247	6.83
519.443	6.76
519.639	6.84
519.836	6.76
520.032	6.71
520.228	6.89
520.424	6.85
520.621	6.91
520.817	6.9
521.013	6.89
521.209	7.09
521.405	7.09
521.601	6.99
521.798	6.98
521.994	7.05
522.19	6.95
522.386	6.95
522.582	7.1
522.778	7.23
522.974	7.14
523.17	7.15
523.366	7.03
523.562	7.18
523.758	7.21
523.954	7.05
524.15	7.19
524.346	7.27
524.542	7.28
524.738	7.17
524.934	7.34
525.129	7.3
525.325	7.23
525.521	7.21
525.717	7.4
525.913	7.34
526.109	7.32
526.304	7.47
526.5	7.47
526.696	7.48
526.892	7.32
527.087	7.59
527.283	7.47
527.479	7.5
527.674	7.3
527.87	7.56
528.066	7.54
528.261	7.52
528.457	7.47
528.653	7.57
528.848	7.55
529.044	7.62
529.239	7.49
529.435	7.55
529.63	7.48
529.826	7.56
530.021	7.6
530.217	7.59
530.412	7.56
530.608	7.66
530.803	7.59
530.999	7.48
531.194	7.63
531.389	7.75
531.585	7.64
531.78	7.74
531.975	7.71
532.171	7.8
532.366	7.73
532.561	7.73
532.757	7.72
532.952	7.86
533.147	7.63
533.342	7.77
533.538	7.66
533.733	7.85
533.928	7.57
534.123	7.74
534.318	7.82
534.513	7.75
534.709	7.91
534.904	7.84
535.099	7.88
535.294	7.87
535.489	7.88
535.684	7.76
535.879	7.85
536.074	7.88
536.269	7.93
536.464	7.93
536.659	7.82
536.854	7.84
537.049	7.94
537.244	7.89
537.439	7.87
537.634	7.9
537.828	7.96
538.023	7.89
538.218	7.86
538.413	7.79
538.608	7.92
538.803	7.9
538.997	7.81
539.192	7.96
539.387	7.87
539.582	7.88
539.776	7.79
539.971	8
540.166	8.01
540.36	7.9
540.555	8.05
540.75	7.96
540.944	8.03
541.139	8.02
541.334	7.95
541.528	8
541.723	8.09
541.917	8.05
542.112	7.97
542.306	7.88
542.501	7.9
542.695	7.96
542.89	7.9
543.084	7.96
543.279	8.06
543.473	8.02
543.668	8.06
543.862	7.93
544.056	7.91
544.251	8.03
544.445	8.11
544.64	8.14
544.834	7.84
545.028	7.67
545.222	8.04
545.417	8.23
545.611	8.11
545.805	8.05
546	7.83
546.194	8.11
546.388	8.11
546.582	7.93
546.776	8
546.97	8.09
547.165	8.03
547.359	8.07
547.553	8
547.747	7.98
547.941	8.24
548.135	8.02
548.329	8.1
548.523	8.14
548.717	8.01
548.911	7.97
549.105	7.97
549.299	8.16
549.493	8.03
549.687	7.99
549.881	8.16
550.075	8.07
550.269	7.97
550.463	8.09
550.657	8.06
550.85	8.07
551.044	8.08
551.238	8.1
551.432	8.06
551.626	8.1
551.82	8.04
552.013	8.05
552.207	8.15
552.401	8.11
552.594	8.04
552.788	8.03
552.982	8.02
553.176	8.01
553.369	8.21
553.563	8.1
553.756	8.02
553.95	8.14
554.144	8.12
554.337	8.08
554.531	7.94
554.724	8.13
554.918	8.15
555.111	8.06
555.305	8.12
555.498	8.11
555.692	8.24
555.885	8.12
556.079	8.05
556.272	8.08
556.466	8.15
556.659	8.12
556.852	8.12
557.046	7.98
557.239	7.94
557.432	8.04
557.626	8.14
557.819	8.15
558.012	8.18
558.206	8.21
558.399	8.14
558.592	8.06
558.785	8.02
558.979	8.11
559.172	8.13
559.365	8.11
559.558	8.07
559.751	8.12
559.944	8.15
560.138	8.06
560.331	8.08
560.524	8.14
560.717	8.07
560.91	8.02
561.103	8.15
561.296	7.95
561.489	8.18
561.682	8.17
561.875	8.19
562.068	8.19
562.261	8.01
562.454	8.25
562.647	8.09
562.84	8.09
563.032	8.14
563.225	8.02
563.418	8.07
563.611	8.14
563.804	8.18
563.997	7.96
564.19	7.82
564.382	8.19
564.575	8.1
564.768	8.08
564.961	8.12
565.153	8.03
565.346	8.01
565.539	8.23
565.731	8.07
565.924	8.14
566.117	8.16
566.309	8.17
566.502	8.03
566.695	8.01
566.887	8.13
567.08	8.12
567.272	8.12
567.465	7.92
567.657	8.14
567.85	7.98
568.042	8.13
568.235	8.14
568.427	7.97
568.62	8.01
568.812	8.02
569.005	8.11
569.197	7.94
569.389	8.07
569.582	8.09
569.774	8.03
569.966	7.97
570.159	8.02
570.351	7.96
570.543	8.03
570.736	8.08
570.928	7.87
571.12	8.06
571.312	7.93
571.505	7.76
571.697	8
571.889	8.02
572.081	7.99
572.273	7.96
572.465	8.05
572.658	8.01
572.85	8.03
573.042	7.98
573.234	7.89
573.426	7.91
573.618	7.84
573.81	8.01
574.002	7.93
574.194	8
574.386	7.87
574.578	7.78
574.77	7.87
574.962	7.97
575.154	7.81
575.346	7.78
575.538	7.82
575.729	7.82
575.921	7.93
576.113	7.96
576.305	7.84
576.497	8.02
576.689	7.74
576.88	7.75
577.072	7.92
577.264	7.89
577.456	7.89
577.647	7.74
577.839	7.92
578.031	7.82
578.223	7.8
578.414	7.76
578.606	7.85
578.798	7.89
578.989	7.84
579.181	7.93
579.372	7.77
579.564	7.8
579.755	7.74
579.947	7.7
580.139	7.78
580.33	7.65
580.522	7.72
580.713	7.69
580.905	7.7
581.096	7.84
581.287	7.76
581.479	7.71
581.67	7.81
581.862	7.69
582.053	7.72
582.244	7.53
582.436	7.79
582.627	7.68
582.818	7.61
583.01	7.6
583.201	7.65
583.392	7.57
583.583	7.57
583.775	7.46
583.966	7.5
584.157	7.62
584.348	7.76
584.54	7.54
584.731	7.63
584.922	7.55
585.113	7.42
585.304	7.55
585.495	7.55
585.686	7.59
585.877	7.55
586.068	7.7
586.259	7.62
586.45	7.57
586.641	7.51
586.832	7.54
587.023	7.47
587.214	7.37
587.405	7.53
587.596	7.37
587.787	7.34
587.978	7.48
588.169	7.39
588.36	7.3
588.551	7.39
588.742	7.35
588.932	7.39
589.123	7.19
589.314	7.55
589.505	7.29
589.696	7.34
589.886	7.33
590.077	7.3
590.268	7.25
590.458	7.25
590.649	7.12
590.84	7.3
591.03	7.27
591.221	7.21
591.412	7.16
591.602	7.4
591.793	7.22
591.984	7.26
592.174	7.19
592.365	7.33
592.555	7.07
592.746	7.09
592.936	7.13
593.127	7.16
593.317	7.19
593.508	7.21
593.698	7.03
593.889	7.07
594.079	7.09
594.269	7.05
594.46	7.03
594.65	7.08
594.84	7.03
595.031	6.93
595.221	6.97
595.411	6.99
595.602	7.03
595.792	6.93
595.982	6.91
596.172	7.04
596.363	6.93
596.553	6.87
596.743	6.93
596.933	6.9
597.123	6.84
597.314	6.7
597.504	6.68
597.694	6.9
597.884	6.81
598.074	6.85
598.264	6.76
598.454	6.77
598.644	6.76
598.834	6.72
599.024	6.65
599.214	6.65
599.404	6.8
599.594	6.71
599.784	6.61
599.974	6.73
600.164	6.72
600.354	6.58
600.544	6.49
600.734	6.66
600.924	6.67
601.114	6.49
601.303	6.54
601.493	6.59
601.683	6.53
601.873	6.56
602.063	6.46
602.252	6.51
602.442	6.38
602.632	6.43
602.821	6.4
603.011	6.53
603.201	6.42
603.39	6.34
603.58	6.31
603.77	6.4
603.959	6.42
604.149	6.36
604.339	6.3
604.528	6.42
604.718	6.37
604.907	6.25
605.097	6.23
605.286	6.23
605.476	6.27
605.665	6.3
605.855	6.16
606.044	6.24
606.234	6.31
606.423	6.16
606.612	6.1
606.802	6.13
606.991	6.19
607.181	6.12
607.37	6.11
607.559	5.9
607.749	6.07
607.938	5.99
608.127	6.04
608.316	6.03
608.506	5.98
608.695	6.04
608.884	5.91
609.073	5.99
609.263	6.06
609.452	6.02
609.641	5.85
609.83	5.79
610.019	5.95
610.208	5.86
610.397	5.83
610.586	5.91
610.775	5.77
610.965	5.85
611.154	5.62
611.343	5.76
611.532	5.68
611.721	5.78
611.91	5.68
612.099	5.71
612.287	5.64
612.476	5.62
612.665	5.73
612.854	5.63
613.043	5.65
613.232	5.61
613.421	5.48
613.61	5.55
613.798	5.56
613.987	5.61
614.176	5.54
614.365	5.51
614.554	5.59
614.742	5.54
614.931	5.34
615.12	5.61
615.309	5.44
615.497	5.36
615.686	5.34
615.875	5.34
616.063	5.41
616.252	5.29
616.44	5.36
616.629	5.3
616.818	5.29
617.006	5.25
617.195	5.22
617.383	5.25
617.572	5.2
617.76	5.18
617.949	5.19
618.137	5.21
618.326	5.2
618.514	4.98
618.703	5
618.891	5.18
619.079	5.02
619.268	5.1
619.456	4.97
619.644	5.13
619.833	5.07
620.021	4.98
620.209	4.88
620.398	4.98
620.586	4.94
620.774	4.96
620.962	4.95
621.151	5.01
621.339	4.83
621.527	4.82
621.715	4.76
621.903	4.85
622.092	4.71
622.28	4.86
622.468	4.71
622.656	4.79
622.844	4.73
623.032	4.75
623.22	4.67
623.408	4.8
623.596	4.74
623.784	4.77
623.972	4.63
624.16	4.62
624.348	4.71
624.536	4.69
624.724	4.54
624.912	4.6
625.1	4.61
625.288	4.59
625.476	4.45
625.664	4.65
625.851	4.51
626.039	4.55
626.227	4.43
626.415	4.47
626.603	4.39
626.79	4.42
626.978	4.42
627.166	4.45
627.354	4.33
627.541	4.39
627.729	4.25
627.917	4.49
628.104	4.42
628.292	4.32
628.48	4.32
628.667	4.3
628.855	4.41
629.042	4.29
629.23	4.23
629.418	4.24
629.605	4.22
629.793	4.14
629.98	4.22
630.168	4.14
630.355	4.19
630.543	4.14
630.73	4.03
630.917	4.12
631.105	4.18
631.292	4.09
631.48	4.07
631.667	4.15
631.854	4.03
632.042	4.03
632.229	3.97
632.416	3.99
632.604	4.01
632.791	3.9
632.978	3.99
633.165	3.94
633.353	3.99
633.54	3.97
633.727	3.79
633.914	3.88
634.101	3.9
634.289	3.9
634.476	3.78
634.663	3.76
634.85	3.78
635.037	3.78
635.224	3.7
635.411	3.81
635.598	3.76
635.785	3.7
635.972	3.63
636.159	3.73
636.346	3.67
636.533	3.59
636.72	3.61
636.907	3.61
637.094	3.62
637.281	3.48
637.468	3.62
637.655	3.57
637.842	3.57
638.029	3.52
638.215	3.55
638.402	3.54
638.589	3.4
638.776	3.45
638.963	3.41
639.149	3.49
639.336	3.57
639.523	3.35
639.709	3.44
639.896	3.41
640.083	3.42
640.27	3.42
640.456	3.34
640.643	3.35
640.829	3.26
641.016	3.27
641.203	3.19
641.389	3.32
641.576	3.34
641.762	3.24
641.949	3.18
642.135	3.26
642.322	3.21
642.508	3.1
642.695	3.18
642.881	3.16
643.068	3.14
643.254	3.16
643.441	3.16
643.627	3.25
643.813	3.11
644	3.12
644.186	3
644.372	3.11
644.559	3.12
644.745	2.98
644.931	2.97
645.118	2.98
645.304	3.04
645.49	2.97
645.676	2.97
645.862	3.01
646.049	3.04
646.235	2.94
646.421	3.06
646.607	3.02
646.793	2.86
646.979	2.85
647.165	2.9
647.352	2.95
647.538	2.91
647.724	2.82
647.91	2.83
648.096	2.86
648.282	2.85
648.468	2.81
648.654	2.78
648.84	2.87
649.026	2.82
649.212	2.7
649.397	2.74
649.583	2.68
649.769	2.76
649.955	2.7
650.141	2.78
650.327	2.76
650.513	2.64
650.698	2.72
650.884	2.55
651.07	2.72
651.256	2.65
651.442	2.63
651.627	2.51
651.813	2.65
651.999	2.64
652.184	2.58
652.37	2.55
652.556	2.52
652.741	2.63
652.927	2.43
653.113	2.51
653.298	2.5
653.484	2.47
653.669	2.39
653.855	2.45
654.04	2.55
654.226	2.49
654.412	2.42
654.597	2.3
654.782	2.45
654.968	2.44
655.153	2.38
655.339	2.32
655.524	2.31
655.71	2.37
655.895	2.33
656.08	2.29
656.266	2.4
656.451	2.33
656.636	2.2
656.822	2.29
657.007	2.3
657.192	2.32
657.378	2.18
657.563	2.24
657.748	2.27
657.933	2.21
658.118	2.23
658.304	2.19
658.489	2.24
658.674	2.22
658.859	2.13
659.044	2.2
659.229	2.22
659.414	2.15
659.599	2.19
659.785	2.05
659.97	2.1
660.155	2.16
660.34	2.14
660.525	2.15
660.71	2.07
660.895	2.16
661.08	2.04
661.264	2.03
661.449	2.16
661.634	2.06
661.819	2.06
662.004	2.03
662.189	1.96
662.374	1.99
662.559	1.93
662.743	1.89
662.928	1.98
663.113	1.95
663.298	1.88
663.483	1.96
663.667	1.99
663.852	1.91
664.037	1.97
664.221	1.86
664.406	2.01
664.591	1.97
664.775	1.92
664.96	1.88
665.145	1.85
665.329	1.91
665.514	1.86
665.698	1.83
665.883	1.73
666.068	1.88
666.252	1.88
666.437	1.81
666.621	1.84
666.806	1.84
666.99	1.78
667.174	1.79
667.359	1.94
667.543	1.75
667.728	1.76
667.912	1.66
668.096	1.76
668.281	1.68
668.465	1.75
668.649	1.73
668.834	1.66
669.018	1.75
669.202	1.75
669.387	1.73
669.571	1.81
669.755	1.63
669.939	1.67
670.124	1.68
670.308	1.72
670.492	1.67
670.676	1.67
670.86	1.64
671.044	1.6
671.228	1.66
671.413	1.58
671.597	1.56
671.781	1.61
671.965	1.63
672.149	1.63
672.333	1.52
672.517	1.56
672.701	1.56
672.885	1.61
673.069	1.43
673.253	1.64
673.437	1.57
673.621	1.55
673.804	1.55
673.988	1.47
674.172	1.47
674.356	1.4
674.54	1.51
674.724	1.66
674.908	1.51
675.091	1.51
675.275	1.5
675.459	1.48
675.643	1.42
675.826	1.45
676.01	1.42
676.194	1.48
676.377	1.56
676.561	1.45
676.745	1.46
676.928	1.43
677.112	1.48
677.296	1.43
677.479	1.38
677.663	1.36
677.846	1.44
678.03	1.4
678.213	1.34
678.397	1.39
678.58	1.34
678.764	1.41
678.947	1.27
679.131	1.33
679.314	1.39
679.498	1.31
679.681	1.39
679.865	1.39
680.048	1.29
680.231	1.35
680.415	1.32
680.598	1.27
680.781	1.27
680.965	1.26
681.148	1.31
681.331	1.21
681.514	1.33
681.698	1.23
681.881	1.29
682.064	1.31
682.247	1.3
682.43	1.17
682.614	1.2
682.797	1.3
682.98	1.29
683.163	1.21
683.346	1.18
683.529	1.17
683.712	1.15
683.895	1.26
684.078	1.12
684.261	1.17
684.444	1.29
684.627	1.22
684.81	1.15
684.993	1.18
685.176	1.26
685.359	1.08
685.542	1.11
685.725	1.26
685.908	1.12
686.091	1.11
686.274	1.2
686.457	1.19
686.639	1.18
686.822	1.17
687.005	1.13
687.188	1.19
687.371	1.25
687.553	1.17
687.736	1.2
687.919	1.26
688.102	1.25
688.284	1.01
688.467	1.06
688.65	1.19
688.832	1.08
689.015	1.05
689.197	0.95
689.38	1.17
689.563	1.26
689.745	1.01
689.928	0.98
690.11	0.99
690.293	1.12
690.475	0.95
690.658	1.05
690.84	1.08
691.023	1
691.205	0.98
691.388	0.99
691.57	1.09
691.752	1.05
691.935	0.86
692.117	0.92
692.3	1
692.482	1.02
692.664	0.95
692.847	1
693.029	1.1
693.211	1.03
693.393	0.92
693.576	0.9
693.758	0.96
693.94	1.01
694.122	0.89
694.304	0.94
694.487	0.94
694.669	1.03
694.851	0.83
695.033	0.92
695.215	0.89
695.397	0.86
695.579	0.89
695.761	0.86
695.943	0.85
696.125	0.98
696.308	0.96
696.49	0.79
696.671	1.07
696.853	0.89
697.035	1.12
697.217	0.89
697.399	0.94
697.581	0.82
697.763	0.86
697.945	0.79
698.127	0.96
698.309	1
698.491	0.89
698.672	0.93
698.854	0.92
699.036	0.96
699.218	0.86
699.399	0.9
699.581	0.96
699.763	0.82
699.945	0.79
700.126	0.8
700.308	0.87
700.49	0.84
700.671	0.71
700.853	0.75
701.035	0.79
701.216	0.82
701.398	0.77
701.579	0.8
701.761	0.87
701.943	0.82
702.124	0.69
702.306	0.79
702.487	0.97
702.669	0.77
702.85	0.79
703.031	0.67
703.213	0.97
703.394	0.9
703.576	0.75
703.757	0.9
703.938	0.81
704.12	0.98
704.301	0.77
704.483	0.74
704.664	0.74
704.845	0.85
705.026	0.87
705.208	0.76
705.389	0.79
705.57	0.77
705.751	0.77
705.933	0.69
706.114	0.74
706.295	0.73
706.476	0.59
706.657	0.81
706.838	0.79
707.02	0.84
707.201	0.69
707.382	0.7
707.563	0.73
707.744	0.68
707.925	0.64
708.106	0.66
708.287	0.77
708.468	0.84
708.649	0.72
708.83	0.76
709.011	0.66
709.192	0.8
709.373	0.64
709.554	0.68
709.734	0.72
709.915	0.76
710.096	0.65
710.277	0.57
710.458	0.66
710.639	0.76
710.819	0.6
711	0.67
711.181	0.79
711.362	0.78
711.542	0.7
711.723	0.65
711.904	0.83
712.085	0.68
712.265	0.65
712.446	0.56
712.627	0.61
712.807	0.68
712.988	0.68
713.168	0.51
713.349	0.68
713.53	0.48
713.71	0.53
713.891	0.54
714.071	0.6
714.252	0.59
714.432	0.62
714.613	0.5
714.793	0.6
714.974	0.76
715.154	0.69
715.334	0.7
715.515	0.8
715.695	0.52
715.876	0.64
716.056	0.56
716.236	0.58
716.417	0.56
716.597	0.57
716.777	0.8
716.957	0.6
717.138	0.66
717.318	0.62
717.498	0.47
717.678	0.68
717.859	0.64
718.039	0.44
718.219	0.61
718.399	0.6
718.579	0.58
718.759	0.47
718.939	0.54
719.12	0.59
719.3	0.58
719.48	0.47
719.66	0.44
719.84	0.72
720.02	0.5
720.2	0.47
720.38	0.66
720.56	0.74
720.74	0.4
720.92	0.57
721.1	0.73
721.279	0.76
721.459	0.56
721.639	0.46
721.819	0.57
721.999	0.48
722.179	0.59
722.359	0.48
722.538	0.47
722.718	0.52
722.898	0.52
723.078	0.55
723.257	0.5
723.437	0.59
723.617	0.54
723.797	0.49
723.976	0.43
724.156	0.64
724.336	0.76
724.515	0.8
724.695	0.39
724.874	0.59
725.054	0.71
725.234	0.47
725.413	0.52
725.593	0.57
725.772	0.52
725.952	0.46
726.131	0.41
726.311	0.52
726.49	0.58
726.67	0.43
726.849	0.44
727.028	0.56
727.208	0.58
727.387	0.55
727.567	0.35
727.746	0.4
727.925	0.51
728.105	0.49
728.284	0.37
728.463	0.41
728.643	0.57
728.822	0.42
729.001	0.38
729.18	0.55
729.359	0.66
729.539	0.55
729.718	0.55
729.897	0.63
730.076	0.42
730.255	0.4
730.434	0.48
730.614	0.6
730.793	0.65
730.972	0.43
731.151	0.43
731.33	0.62
731.509	0.56
731.688	0.48
731.867	0.45
732.046	0.31
732.225	0.74
732.404	0.44
732.583	0.33
732.762	0.52
732.941	0.64
733.12	0.48
733.298	0.43
733.477	0.6
733.656	0.52
733.835	0.45
734.014	0.61
734.193	0.61
734.371	0.57
734.55	0.6
734.729	0.38
734.908	0.43
735.086	0.58
735.265	0.59
735.444	0.21
735.623	0.45
735.801	0.42
735.98	0.46
736.159	0.52
736.337	0.5
736.516	0.5
736.694	0.49
736.873	0.43
737.052	0.73
737.23	0.73
737.409	0.51
737.587	0.81
737.766	0.38
737.944	0.5
738.123	0.54
738.301	0.6
738.479	0.41
738.658	0.61
738.836	0.31
739.015	0.43
739.193	0.67
739.371	0.3
739.55	0.47
739.728	0.34
739.906	0.61
740.085	0.79
740.263	0.52
740.441	0.3
740.62	0.77
740.798	0.52
740.976	0.4
741.154	0.43
741.332	0.69
741.511	0.51
741.689	0.59
741.867	0.59
742.045	0.57
742.223	0.55
742.401	0.42
742.579	0.37
742.757	0.59
742.935	0.39
743.114	0.47
743.292	0.45
743.47	0.49
743.648	0.49
743.826	0.34
744.004	0.54
744.181	0.6
744.359	0.37
744.537	0.47
744.715	0.39
744.893	0.42
745.071	0.47
745.249	0.42
745.427	0.39
745.605	0.48
745.782	0.51
745.96	0.48
746.138	0.6
746.316	0.63
746.493	0.5
746.671	0.53
746.849	0.4
747.027	0.69
747.204	0.46
747.382	0.54
747.56	0.35
747.737	0.4
747.915	0.48
748.093	0.53
748.27	0.27
748.448	0.45
748.625	0.33
748.803	0.37
748.98	0.35
749.158	0.64
749.335	0.57
749.513	0.3
749.69	0.26
749.868	0.47
750.045	0.48
750.223	0.3
750.4	0.12
750.578	0.68
750.755	0.42
750.932	0.25
751.11	0.55
751.287	0.44
751.464	0.61
751.642	0.35
751.819	0.49
751.996	0.4
752.173	0.33
752.351	0.35
752.528	0.4
752.705	0.44
752.882	0.35
753.06	0.44
753.237	0.43
753.414	0.63
753.591	0.67
753.768	0.37
753.945	0.37
754.122	0.38
754.299	0.46
754.476	0.44
754.654	0.42
754.831	0.51
755.008	0.58
755.185	0.33
755.362	0.46
755.539	0.53
755.716	0.46
755.892	0.37
756.069	0.39
756.246	0.48
756.423	0.4
756.6	0.59
756.777	0.32
756.954	0.58
757.131	0.42
757.307	0.33
757.484	0.16
757.661	0.51
757.838	0.47
758.015	0.22
758.191	0.49
758.368	0.53
758.545	0.59
758.721	0.48
758.898	0.18
759.075	0.41
759.251	0.47
759.428	0.4
759.605	0.11
759.781	0.36
759.958	0.44
760.134	0.47
760.311	0.23
760.488	0.65
760.664	0.66
760.841	0.42
761.017	0.25
761.194	0.47
761.37	0.59
761.547	0.35
761.723	0.3
761.899	0.61
762.076	0.3
762.252	0.22
762.429	0.26
762.605	0.53
762.781	0.42
762.958	0.31
763.134	0.3
763.31	0.27
763.486	0.45
763.663	0.08
763.839	0.45
764.015	0.18
764.191	0.41
764.368	0.4
764.544	0.26
764.72	0.47
764.896	0.44
765.072	0.41
765.248	0.47
765.425	0.27
765.601	0.42
765.777	0.42
765.953	0.04
766.129	0.33
766.305	0.21
766.481	0.52
766.657	0.34
766.833	0.62
767.009	0.17
767.185	0.44
767.361	0.24
767.537	0.3
767.713	0.67
767.889	0.31
768.065	0.32
768.24	0.45
768.416	0.55
768.592	0.31
768.768	0.37
768.944	0.55
769.12	0.36
769.295	0.33
769.471	0.36
769.647	0.41
769.823	0.58
769.998	0.18
770.174	0.24
770.35	0.75
770.525	0.84
770.701	0.45
770.877	0.32
771.052	0.27
771.228	0.56
771.403	0.49
771.579	0.42
771.755	0.84
771.93	0.41
772.106	0.21
772.281	0.04
772.457	0.31
772.632	0.49
772.808	0.18
772.983	0.26
773.159	0.14
773.334	0.6
773.509	0.48
773.685	0.17
773.86	0.88
774.036	0.67
774.211	0.45
774.386	0.37
774.562	0.39
774.737	0.69
774.912	0.32
775.087	0.44
775.263	0.38
775.438	0.36
775.613	0.2
775.788	0.24
775.964	0.65
776.139	1.04
776.314	0.17
776.489	0.4
776.664	0.38
776.839	0.27
777.014	0.53
777.19	0.57
777.365	0.75
777.54	0.69
777.715	0.3
777.89	0.54
778.065	0.31
778.24	0.4
778.415	0.56
778.59	0.05
778.765	0.46
778.94	0.43
779.115	0.34
779.289	0.28
779.464	0.44
779.639	0.45
779.814	0.2
779.989	0.28
780.164	0.62
780.339	0.51
780.513	0.25
780.688	0.07
780.863	0.6
781.038	0.68
781.212	0.28
781.387	0.43
781.562	0.78
781.737	0.26
781.911	0.72
782.086	0.23
782.261	0.33
782.435	0.76
782.61	0.17
782.784	0.58
782.959	0.75
783.134	0.39
783.308	0.12
783.483	0.25
783.657	1.22
783.832	0.77
784.006	0.17
784.181	0.46
784.355	0.56
784.53	0.31
784.704	0.23
784.878	0.76
785.053	0.54
785.227	1.01
785.402	0.67
785.576	0.43
785.75	0.5
785.925	0.48
786.099	0.47
786.273	0.51
786.448	0.63
786.622	0.69
786.796	0.52
786.97	0.41
787.145	1.01
787.319	-0
787.493	0.39
787.667	0.04
787.841	0.47
788.015	0.84
788.19	0.46
788.364	0.4
788.538	0.71
788.712	0.67
788.886	0.54
789.06	0.69
789.234	0.83
789.408	0.43
789.582	0.6
789.756	0.45
789.93	0.4
790.104	0.54
790.278	0.49
790.452	0.31
790.626	0.45
790.8	0.47
790.973	0.66
791.147	0.83
791.321	1.11
791.495	0.78
791.669	0.56
791.843	0.61
792.016	0.47
792.19	1.07
792.364	0.21
792.538	1.22
792.711	0.77
792.885	0.27
793.059	0.26
793.233	-0.1
793.406	0.67
793.58	0.46
793.754	0.55
793.927	0.42
794.101	0.81
794.274	0.63
794.448	0.54
794.622	0.08
794.795	1.16
794.969	0.43
795.142	0.71
795.316	0.35
795.489	0.5
795.663	0.8
795.836	0.53
796.009	0.43
796.183	0.96
796.356	0.89
796.53	0.5
796.703	0.72
796.876	1.3
797.05	0.69
797.223	0.37
797.396	0.42
797.57	0.69
797.743	0.92
797.916	0.5
798.09	0.36
798.263	0.86
798.436	0.65
798.609	0.31
798.782	0.31
798.956	0.62
799.129	0.47
799.302	0.47
799.475	0.42
799.648	0.55
799.821	0.32
799.994	0.63
800.167	-0.01
800.34	0.53
800.514	0.81
800.687	0.32
800.86	0.1
801.033	0.62
801.206	0.71
801.379	0.01
801.551	1.02
801.724	1.09
801.897	1.2
802.07	0.52
802.243	0.07
802.416	0.85
802.589	0.4
802.762	0.55
802.935	0.46
803.107	1.02
803.28	1.01
803.453	0.89
803.626	0.3
803.798	0.98
803.971	0.72
804.144	0.63
804.317	0.74
804.489	1.1
804.662	0.69
804.835	0.46
805.007	0.11
805.18	1.27
805.353	0.71
805.525	0.32
805.698	0.44
805.87	0.92
806.043	1.47
806.215	-0.1
806.388	0.56
806.56	0.63
806.733	1.21
806.905	0.7
807.078	0.46
807.25	0.42
807.423	1.05
807.595	0.26
807.768	0.52
807.94	0.91
808.112	0.69
808.285	0.69
808.457	0.56
808.629	0.64
808.802	0.91
808.974	0.59
809.146	0.31
809.318	0.43
809.491	1.02
809.663	0.7
809.835	0.52
810.007	0.89
810.18	0.5
810.352	0.16
810.524	0.66
810.696	1.26
810.868	1.37
811.04	0.28
811.212	0.6
811.384	1.38
811.556	0.8
811.728	0.68
811.901	1.1
812.073	0.84
812.245	1.34
812.417	0.72
812.589	0.18
812.76	0.97
812.932	0.89
813.104	1.01
813.276	0.41
813.448	0.92
813.62	1
813.792	0.58
813.964	0.83
814.136	0.88
814.307	0.65
814.479	0.43
814.651	0.17
814.823	1.87
814.995	0.48
815.166	0.77
815.338	0.59
815.51	-0.12
815.681	1.92
815.853	1.02
816.025	0.64
816.196	1.75
816.368	1.54
816.54	0.12
816.711	0.29
816.883	0.94
817.054	2.36
817.226	0.12
817.398	0.98
817.569	0.71
817.741	0.5
817.912	1.06
818.084	0.33
818.255	0.95
818.426	0.51
818.598	0.46
818.769	0.5
818.941	1.41
819.112	1.03
819.283	1.01
819.455	0.43
819.626	0.67
819.798	1.4
819.969	0.74
820.14	0.46
820.311	0.94
820.483	1.19
820.654	1.39
820.825	0.66
820.996	0.65
821.168	0.36
821.339	0.71
821.51	0.28
821.681	0.87
821.852	1.18
822.023	0.11
822.195	-0.14
822.366	1.35
822.537	1.23
822.708	0.82
822.879	0.31
823.05	1.58
823.221	0.59
823.392	1.03
823.563	0.77
823.734	0.56
823.905	0.71
824.076	-0.04
824.247	0.43
824.418	0.66
824.589	1.88
824.759	0.64
824.93	0.74
825.101	0.04
825.272	2.22
825.443	0.49
825.614	1.31
825.784	-0.11
825.955	2.68
826.126	1.38
826.297	0.95
826.467	1.47
826.638	2.05
826.809	0.55
826.98	1.04
827.15	1.48
827.321	1.56
827.492	1.59
827.662	0.68
827.833	2.36
828.003	1.72
828.174	0.08
828.345	-0.25
828.515	1.5
828.686	1.24
828.856	0.87
829.027	0.55
829.197	1.43
829.368	1.17
829.538	0.28
829.709	0.48
829.879	1.1
830.049	0.82
830.22	0.73
830.39	0.94
830.56	1.37
830.731	1.2
830.901	-0.04
831.072	0.94
831.242	1.53
831.412	1
831.582	1.08
831.753	-0.07
831.923	2
832.093	2.51
832.263	1.24
832.434	-0.09
832.604	0.5
832.774	1.42
832.944	1.06
833.114	0.48
833.284	1.05
833.454	0.85
833.624	0.41
833.795	0.78
833.965	2.19
834.135	2.63
834.305	-0.26
834.475	0.44
834.645	1.04
834.815	1.19
834.985	-0.15
835.155	0.05
835.325	2.09
835.494	1.56
835.664	0.3
835.834	0.55
836.004	1.09
836.174	1.79
836.344	0.06
836.514	-0.34
836.684	0.89
836.853	1.26
837.023	2.26
837.193	0.29
837.363	1.4
837.532	1.8
837.702	1.23
837.872	0.75
838.041	1.93
838.211	2.72
838.381	0.1
838.55	0.32
838.72	3.92
838.89	2.93
839.059	0.57
839.229	-0.08
839.398	3.46
839.568	1.77
839.738	0.82
839.907	1.75
840.077	1.22
840.246	0.85
840.416	0.1
840.585	0.25
840.755	3.24
840.924	2.49
841.093	-0.43
841.263	1.07
841.432	1.56
841.602	0.6
841.771	0.07
841.94	0.78
842.11	3.4
842.279	2.5
842.448	0.19
842.617	0.76
842.787	2.74
842.956	0.71
843.125	0.65
843.294	0.86
843.464	3.34
843.633	2.16
843.802	0.29
843.971	1.21
844.14	1.99
844.309	2.07
844.479	-1.17
844.648	-0.31
844.817	1.17
844.986	1.88
845.155	0.69
845.324	0.61
845.493	1.12
845.662	0.71
845.831	1.54
846	0.91
846.169	1.01
846.338	2.57
846.507	1.27
846.676	1.53
846.844	0.18
847.013	2.54
847.182	1.67
847.351	0.73
847.52	0.63
847.689	1.85
847.858	0.76
848.026	0.73
848.195	1.64
848.364	0.77
848.533	0.37
848.701	1.02
848.87	1.49
849.039	2.15
849.207	1.67
849.376	2.82
849.545	4.13
849.713	0.09
849.882	0.86
850.051	1.43
850.219	1.68
850.388	2.51
850.556	0.05
850.725	0.12
850.893	1.72
851.062	1.23
851.23	2.63
851.399	0.07
851.567	1.59
851.736	1.08
851.904	0.36
852.073	0.49
852.241	2.36
852.41	2.41
852.578	0.57
852.746	0.66
852.915	1.52
853.083	1.93
853.251	0.01
853.42	0.26
853.588	0.62
853.756	2.21
853.924	1.13
854.093	1.41
854.261	1.85
854.429	-0.42
854.597	1.65
854.765	0.52
854.934	3.2
855.102	2.61
855.27	1.06
855.438	2.66
855.606	4.51
855.774	4.16
855.942	-0.16
856.11	-1.08
856.278	2.43
856.446	3.02
856.614	-0.09
856.782	0.21
856.95	3.23
857.118	2.51
857.286	2.09
857.454	1.38
857.622	3.03
857.79	2.51
857.958	0.41
858.126	1.02
858.294	-0.94
858.462	2.07
858.629	1.2
858.797	-0.08
858.965	1.88
859.133	1.86
859.301	0.52
859.468	1.98
859.636	0.47
859.804	3.7
859.971	2.83
860.139	-0.57
860.307	2.23
860.474	2.25
860.642	0.45
860.81	-0.12
860.977	2.1
861.145	3.53
861.313	1.07
861.48	0.62
861.648	2.82
861.815	1.84
861.983	-0.2
862.15	0.6
862.318	4.09
862.485	3.96
862.653	0.88
862.82	-0.3
862.988	4.41
863.155	4.33
863.322	0.11
863.49	-0.14
863.657	0.55
863.824	4.28
863.992	3.14
864.159	1.87
864.326	4.43
864.494	1.87
864.661	4.69
864.828	-0.04
864.996	2.96
865.163	4.33
865.33	0.86
865.497	-2.47
865.664	2.68
865.832	-0.1
865.999	1.36
866.166	-0.65
866.333	1.27
866.5	1.68
866.667	0.61
866.834	0.68
867.001	5.34
867.168	0.81
867.335	0.24
867.502	0.06
867.669	3.49
867.836	7.59
868.003	1.52
868.17	1.66
868.337	4.66
868.504	6.14
868.671	-0.83
868.838	-0.16
869.005	4.08
869.172	4.04
869.339	1.85
869.505	0.82
869.672	4.01
869.839	5.56
870.006	3.33
870.173	0.23
870.339	4.09
870.506	5.33
870.673	-0.07
870.84	1.44
871.006	2.61
871.173	1.36
871.34	1.92
871.506	0.34
871.673	2.69
871.839	1.49
872.006	1.38
872.173	0.91
872.339	2.66
872.506	3.93
872.672	1.95
872.839	-0.84
873.005	3.57
873.172	5.49
873.338	4.13
873.505	1.68
873.671	3.1
873.838	3.87
874.004	-1.47
874.171	-0.76
874.337	2.85
874.503	3.05
874.67	0.59
874.836	1.82
875.002	4.05
875.169	3.58
875.335	1.73
875.501	1.72
875.668	4.73
875.834	2.47
876	1.2
876.166	2.04
876.332	4.3
876.499	7.24
876.665	2.4
876.831	0.97
876.997	6.65
877.163	3.22
877.329	0.34
877.495	2.79
877.662	3.6
877.828	4.66
877.994	0.43
878.16	-1.23
878.326	1.19
878.492	4.23
878.658	1.67
878.824	1.99
878.99	4.9
879.156	4.12
879.322	5.81
879.487	2.79
879.653	1.99
879.819	3.86
879.985	0.62
880.151	2.82
880.317	2.6
880.483	3.69
880.648	4.13
880.814	0.3
880.98	2.41
881.146	0.49
881.312	1.32
881.477	0.59
881.643	2.37
881.809	5.66
881.974	4.95
882.14	-1.05
882.306	2.64
882.471	7.09
882.637	2.67
882.803	2.59
882.968	5.41
883.134	5.9
883.299	-0.18
883.465	2.19
883.63	4.09
883.796	3.73
883.961	3
884.127	4.19
884.292	-1.94
884.458	-0.07
884.623	-0.07
