Data from Apollo_Calib_20240827__AbsoluteIrradiance__838__13-07-00-451.txt Node

Date: Wed Aug 28 13:07:00 BST 2024
User: biology
Spectrometer: FLMT08252
Trigger mode: 0
Integration Time (sec): 5.000000E-1
Scans to average: 5
Electric dark correction enabled: true
Nonlinearity correction enabled: false
Boxcar width: 0
XAxis mode: Wavelengths
Number of Pixels in Spectrum: 3648
>>>>>Begin Spectral Data<<<<<
179.588	-0
179.809	-0
180.03	-0
180.251	-0
180.473	-0
180.694	0
180.915	0
181.136	-0
181.357	0
181.578	-0
181.799	-0
182.02	-0
182.241	-0
182.462	-0
182.683	0
182.904	-0
183.125	0
183.346	0
183.567	0
183.788	0
184.009	0
184.23	0
184.451	0
184.672	0
184.892	0
185.113	0
185.334	0
185.555	0
185.776	0
185.996	0
186.217	0
186.438	0
186.659	0
186.879	0
187.1	0
187.321	0
187.541	0
187.762	0
187.983	0
188.203	0
188.424	0
188.644	0
188.865	0
189.086	0
189.306	0
189.527	0
189.747	0
189.968	0
190.188	0
190.409	0
190.629	0
190.849	0
191.07	0
191.29	0
191.511	0
191.731	0
191.951	0
192.172	0
192.392	0
192.612	0
192.833	0
193.053	0
193.273	0
193.493	0
193.714	0
193.934	0
194.154	0
194.374	0
194.594	0
194.815	0
195.035	0
195.255	0
195.475	0
195.695	0
195.915	0
196.135	0
196.355	0
196.575	0
196.795	0
197.015	0
197.235	0
197.455	0
197.675	0
197.895	0
198.115	0
198.335	0
198.555	0
198.775	0
198.995	0
199.214	0
199.434	0
199.654	0
199.874	0
200.094	3.88
200.313	3.15
200.533	2.29
200.753	1.74
200.973	4.01
201.192	3.3
201.412	1.42
201.632	2.38
201.851	3.22
202.071	2.13
202.291	1.74
202.51	1.24
202.73	2.67
202.95	2.13
203.169	1.42
203.389	2.09
203.608	2.36
203.828	1.46
204.047	1.86
204.267	2.39
204.486	2.18
204.706	2.39
204.925	1.76
205.145	1.54
205.364	2.52
205.583	2.43
205.803	1.39
206.022	1.31
206.242	1.69
206.461	1.98
206.68	1.39
206.9	1.67
207.119	2.6
207.338	2.09
207.557	1.08
207.777	1.15
207.996	1.7
208.215	2.24
208.434	1.02
208.654	0.92
208.873	1.79
209.092	2.33
209.311	1
209.53	1
209.749	1.65
209.968	0.97
210.187	1.11
210.407	0.53
210.626	1.26
210.845	1.69
211.064	1.38
211.283	0.92
211.502	1.47
211.721	1.24
211.94	1.14
212.159	1.4
212.377	1.49
212.596	1.8
212.815	1.25
213.034	1
213.253	1.28
213.472	1.52
213.691	0.86
213.91	0.83
214.128	0.67
214.347	1.55
214.566	0.52
214.785	0.62
215.003	1.32
215.222	1.23
215.441	0.99
215.66	0.78
215.878	1.07
216.097	1.4
216.316	0.62
216.534	0.77
216.753	1.31
216.972	0.98
217.19	0.99
217.409	0.64
217.627	0.71
217.846	0.82
218.064	1.02
218.283	0.7
218.501	1.48
218.72	1.21
218.938	0.53
219.157	0.71
219.375	1.16
219.594	0.99
219.812	0.49
220.031	0.69
220.249	1.21
220.467	1.1
220.686	0.62
220.904	0.4
221.122	0.89
221.341	1.09
221.559	0.92
221.777	0.53
221.995	0.72
222.214	0.99
222.432	0.5
222.65	0.9
222.868	0.85
223.086	0.9
223.305	0.92
223.523	0.69
223.741	1.11
223.959	0.72
224.177	0.44
224.395	0.52
224.613	0.88
224.831	0.99
225.049	0.5
225.267	0.48
225.485	0.74
225.703	0.67
225.921	0.66
226.139	0.53
226.357	0.89
226.575	0.84
226.793	0.57
227.011	1.54
227.229	0.88
227.447	0.8
227.665	0.63
227.883	0.46
228.1	0.6
228.318	0.89
228.536	0.28
228.754	0.54
228.972	0.85
229.189	0.86
229.407	0.48
229.625	0.56
229.843	0.76
230.06	0.9
230.278	0.42
230.496	0.71
230.713	0.69
230.931	0.87
231.149	0.45
231.366	0.29
231.584	0.72
231.801	1.05
232.019	0.48
232.236	0.38
232.454	0.44
232.671	0.68
232.889	0.47
233.106	0.41
233.324	0.57
233.541	0.54
233.759	0.46
233.976	0.49
234.194	0.63
234.411	0.54
234.628	0.43
234.846	0.44
235.063	0.6
235.28	0.53
235.498	0.57
235.715	0.35
235.932	0.71
236.149	0.62
236.367	0.34
236.584	0.59
236.801	0.54
237.018	0.68
237.236	0.48
237.453	0.29
237.67	0.69
237.887	0.51
238.104	0.51
238.321	0.35
238.538	0.37
238.755	0.69
238.973	0.32
239.19	0.51
239.407	0.63
239.624	0.56
239.841	0.35
240.058	0.35
240.275	0.58
240.492	0.44
240.709	0.47
240.925	0.41
241.142	0.51
241.359	0.45
241.576	0.33
241.793	0.39
242.01	0.57
242.227	0.68
242.444	0.52
242.66	0.61
242.877	0.56
243.094	0.4
243.311	0.47
243.527	0.39
243.744	0.55
243.961	0.59
244.178	0.4
244.394	0.44
244.611	0.53
244.828	0.72
245.044	0.39
245.261	0.4
245.477	0.55
245.694	0.52
245.911	0.32
246.127	0.51
246.344	0.68
246.56	0.54
246.777	0.39
246.993	0.49
247.21	0.55
247.426	0.56
247.643	0.34
247.859	0.42
248.076	0.29
248.292	0.74
248.508	0.35
248.725	0.45
248.941	0.44
249.157	0.55
249.374	0.32
249.59	0.37
249.806	0.42
250.023	0.51
250.239	0.34
250.455	0.32
250.671	0.45
250.888	0.48
251.104	0.5
251.32	0.36
251.536	0.38
251.752	0.37
251.969	0.41
252.185	0.4
252.401	0.69
252.617	0.49
252.833	0.41
253.049	0.41
253.265	0.48
253.481	0.5
253.697	0.37
253.913	0.33
254.129	0.45
254.345	0.4
254.561	0.36
254.777	0.39
254.993	0.54
255.209	0.44
255.425	0.38
255.641	0.32
255.857	0.47
256.073	0.41
256.288	0.27
256.504	0.3
256.72	0.41
256.936	0.51
257.152	0.33
257.367	0.3
257.583	0.44
257.799	0.55
258.015	0.33
258.23	0.4
258.446	0.61
258.662	0.41
258.877	0.32
259.093	0.33
259.309	0.42
259.524	0.49
259.74	0.39
259.955	0.3
260.171	0.4
260.387	0.42
260.602	0.49
260.818	0.46
261.033	0.38
261.249	0.46
261.464	0.36
261.68	0.23
261.895	0.47
262.11	0.48
262.326	0.37
262.541	0.27
262.757	0.54
262.972	0.49
263.187	0.42
263.403	0.38
263.618	0.53
263.833	0.4
264.049	0.25
264.264	0.38
264.479	0.4
264.694	0.54
264.91	0.24
265.125	0.37
265.34	0.52
265.555	0.6
265.77	0.43
265.986	0.37
266.201	0.44
266.416	0.5
266.631	0.36
266.846	0.32
267.061	0.42
267.276	0.49
267.491	0.19
267.706	0.43
267.921	0.45
268.136	0.39
268.351	0.38
268.566	0.28
268.781	0.49
268.996	0.47
269.211	0.32
269.426	0.29
269.641	0.41
269.856	0.45
270.071	0.28
270.285	0.26
270.5	0.44
270.715	0.43
270.93	0.33
271.145	0.4
271.359	0.46
271.574	0.31
271.789	0.32
272.004	0.27
272.218	0.32
272.433	0.45
272.648	0.31
272.862	0.45
273.077	0.4
273.292	0.32
273.506	0.32
273.721	0.32
273.936	0.37
274.15	0.45
274.365	0.31
274.579	0.36
274.794	0.42
275.008	0.41
275.223	0.26
275.437	0.36
275.652	0.47
275.866	0.37
276.081	0.29
276.295	0.44
276.509	0.36
276.724	0.39
276.938	0.3
277.153	0.36
277.367	0.39
277.581	0.3
277.796	0.24
278.01	0.24
278.224	0.42
278.438	0.48
278.653	0.24
278.867	0.21
279.081	0.22
279.295	0.36
279.51	0.4
279.724	0.18
279.938	0.39
280.152	0.42
280.366	0.28
280.58	0.38
280.794	0.44
281.008	0.37
281.222	0.36
281.437	0.52
281.651	0.36
281.865	0.37
282.079	0.27
282.293	0.16
282.507	0.25
282.721	0.28
282.935	0.29
283.148	0.21
283.362	0.32
283.576	0.28
283.79	0.29
284.004	0.25
284.218	0.44
284.432	0.28
284.646	0.32
284.859	0.27
285.073	0.3
285.287	0.37
285.501	0.31
285.714	0.28
285.928	0.31
286.142	0.34
286.356	0.22
286.569	0.23
286.783	0.38
286.997	0.4
287.21	0.28
287.424	0.3
287.637	0.24
287.851	0.32
288.065	0.38
288.278	0.27
288.492	0.29
288.705	0.28
288.919	0.3
289.132	0.12
289.346	0.35
289.559	0.15
289.773	0.22
289.986	0.26
290.2	0.28
290.413	0.37
290.626	0.23
290.84	0.29
291.053	0.33
291.267	0.41
291.48	0.23
291.693	0.24
291.906	0.29
292.12	0.24
292.333	0.26
292.546	0.29
292.76	0.45
292.973	0.34
293.186	0.33
293.399	0.24
293.612	0.34
293.826	0.3
294.039	0.31
294.252	0.26
294.465	0.37
294.678	0.32
294.891	0.29
295.104	0.19
295.317	0.28
295.53	0.28
295.743	0.24
295.956	0.26
296.169	0.34
296.382	0.38
296.595	0.24
296.808	0.22
297.021	0.37
297.234	0.36
297.447	0.26
297.66	0.3
297.873	0.39
298.086	0.37
298.299	0.25
298.511	0.18
298.724	0.29
298.937	0.28
299.15	0.23
299.363	0.26
299.575	0.34
299.788	0.33
300.001	0.28
300.213	0.25
300.426	0.31
300.639	0.25
300.852	0.22
301.064	0.24
301.277	0.36
301.489	0.34
301.702	0.29
301.915	0.24
302.127	0.29
302.34	0.32
302.552	0.29
302.765	0.22
302.977	0.33
303.19	0.25
303.402	0.27
303.615	0.23
303.827	0.25
304.04	0.29
304.252	0.29
304.464	0.26
304.677	0.38
304.889	0.3
305.102	0.25
305.314	0.2
305.526	0.33
305.739	0.31
305.951	0.25
306.163	0.26
306.375	0.36
306.588	0.24
306.8	0.27
307.012	0.22
307.224	0.29
307.436	0.33
307.649	0.18
307.861	0.28
308.073	0.34
308.285	0.25
308.497	0.19
308.709	0.23
308.921	0.28
309.133	0.3
309.346	0.27
309.558	0.24
309.77	0.31
309.982	0.36
310.194	0.28
310.406	0.24
310.617	0.4
310.829	0.29
311.041	0.31
311.253	0.21
311.465	0.26
311.677	0.27
311.889	0.29
312.101	0.21
312.313	0.35
312.524	0.32
312.736	0.18
312.948	0.24
313.16	0.37
313.372	0.32
313.583	0.3
313.795	0.27
314.007	0.26
314.218	0.3
314.43	0.24
314.642	0.24
314.853	0.17
315.065	0.32
315.277	0.22
315.488	0.28
315.7	0.36
315.912	0.26
316.123	0.24
316.335	0.24
316.546	0.39
316.758	0.26
316.969	0.22
317.181	0.25
317.392	0.27
317.604	0.35
317.815	0.25
318.026	0.2
318.238	0.25
318.449	0.33
318.661	0.18
318.872	0.17
319.083	0.23
319.295	0.32
319.506	0.21
319.717	0.26
319.929	0.3
320.14	0.28
320.351	0.25
320.562	0.24
320.774	0.27
320.985	0.26
321.196	0.23
321.407	0.19
321.618	0.37
321.829	0.3
322.041	0.29
322.252	0.25
322.463	0.31
322.674	0.29
322.885	0.18
323.096	0.25
323.307	0.3
323.518	0.29
323.729	0.25
323.94	0.18
324.151	0.23
324.362	0.3
324.573	0.27
324.784	0.23
324.995	0.36
325.206	0.32
325.417	0.27
325.628	0.22
325.838	0.26
326.049	0.29
326.26	0.36
326.471	0.23
326.682	0.24
326.892	0.27
327.103	0.17
327.314	0.22
327.525	0.37
327.735	0.32
327.946	0.23
328.157	0.19
328.368	0.33
328.578	0.27
328.789	0.29
328.999	0.26
329.21	0.23
329.421	0.32
329.631	0.25
329.842	0.18
330.052	0.29
330.263	0.31
330.473	0.31
330.684	0.24
330.894	0.29
331.105	0.28
331.315	0.29
331.526	0.2
331.736	0.41
331.947	0.31
332.157	0.31
332.367	0.2
332.578	0.31
332.788	0.36
332.999	0.28
333.209	0.26
333.419	0.24
333.629	0.29
333.84	0.28
334.05	0.25
334.26	0.37
334.47	0.28
334.681	0.29
334.891	0.25
335.101	0.26
335.311	0.43
335.521	0.27
335.732	0.22
335.942	0.33
336.152	0.27
336.362	0.29
336.572	0.26
336.782	0.31
336.992	0.24
337.202	0.26
337.412	0.24
337.622	0.26
337.832	0.24
338.042	0.25
338.252	0.17
338.462	0.23
338.672	0.28
338.882	0.28
339.092	0.23
339.302	0.4
339.511	0.28
339.721	0.26
339.931	0.2
340.141	0.34
340.351	0.32
340.561	0.27
340.77	0.29
340.98	0.28
341.19	0.29
341.4	0.27
341.609	0.24
341.819	0.29
342.029	0.23
342.238	0.25
342.448	0.23
342.658	0.32
342.867	0.27
343.077	0.3
343.286	0.22
343.496	0.28
343.706	0.32
343.915	0.19
344.125	0.27
344.334	0.3
344.544	0.19
344.753	0.2
344.963	0.21
345.172	0.22
345.381	0.26
345.591	0.19
345.8	0.26
346.01	0.32
346.219	0.3
346.428	0.1
346.638	0.2
346.847	0.28
347.056	0.36
347.266	0.22
347.475	0.24
347.684	0.29
347.893	0.31
348.103	0.27
348.312	0.26
348.521	0.27
348.73	0.31
348.94	0.3
349.149	0.21
349.358	0.24
349.567	0.24
349.776	0.19
349.985	0.25
350.194	0.33
350.403	0.34
350.612	0.17
350.821	0.2
351.03	0.29
351.239	0.18
351.448	0.22
351.657	0.21
351.866	0.32
352.075	0.3
352.284	0.25
352.493	0.19
352.702	0.37
352.911	0.28
353.12	0.25
353.329	0.25
353.538	0.29
353.746	0.25
353.955	0.21
354.164	0.3
354.373	0.2
354.582	0.32
354.79	0.26
354.999	0.27
355.208	0.27
355.416	0.37
355.625	0.19
355.834	0.25
356.042	0.3
356.251	0.23
356.46	0.17
356.668	0.24
356.877	0.37
357.085	0.3
357.294	0.17
357.503	0.26
357.711	0.25
357.92	0.41
358.128	0.24
358.337	0.23
358.545	0.32
358.754	0.27
358.962	0.32
359.17	0.21
359.379	0.26
359.587	0.22
359.796	0.25
360.004	0.29
360.212	0.34
360.421	0.36
360.629	0.23
360.837	0.24
361.046	0.3
361.254	0.39
361.462	0.25
361.67	0.22
361.879	0.29
362.087	0.37
362.295	0.25
362.503	0.22
362.711	0.23
362.92	0.21
363.128	0.2
363.336	0.23
363.544	0.22
363.752	0.2
363.96	0.23
364.168	0.2
364.376	0.25
364.584	0.24
364.792	0.29
365	0.3
365.208	0.28
365.416	0.33
365.624	0.3
365.832	0.23
366.04	0.3
366.248	0.3
366.456	0.25
366.664	0.23
366.872	0.27
367.079	0.27
367.287	0.22
367.495	0.27
367.703	0.26
367.911	0.25
368.118	0.23
368.326	0.26
368.534	0.2
368.742	0.34
368.949	0.2
369.157	0.24
369.365	0.31
369.572	0.22
369.78	0.23
369.988	0.3
370.195	0.26
370.403	0.3
370.61	0.21
370.818	0.25
371.026	0.34
371.233	0.23
371.441	0.26
371.648	0.24
371.856	0.3
372.063	0.29
372.271	0.22
372.478	0.19
372.685	0.24
372.893	0.33
373.1	0.22
373.308	0.23
373.515	0.32
373.722	0.32
373.93	0.26
374.137	0.29
374.344	0.35
374.552	0.33
374.759	0.31
374.966	0.23
375.173	0.23
375.381	0.35
375.588	0.22
375.795	0.19
376.002	0.26
376.209	0.22
376.417	0.23
376.624	0.3
376.831	0.3
377.038	0.25
377.245	0.21
377.452	0.25
377.659	0.28
377.866	0.24
378.073	0.23
378.28	0.26
378.487	0.3
378.694	0.34
378.901	0.23
379.108	0.25
379.315	0.29
379.522	0.4
379.729	0.26
379.936	0.27
380.143	0.28
380.35	0.27
380.557	0.26
380.763	0.25
380.97	0.29
381.177	0.26
381.384	0.31
381.591	0.21
381.797	0.3
382.004	0.33
382.211	0.31
382.418	0.26
382.624	0.3
382.831	0.36
383.038	0.25
383.244	0.31
383.451	0.29
383.658	0.32
383.864	0.2
384.071	0.25
384.277	0.38
384.484	0.26
384.69	0.33
384.897	0.33
385.103	0.28
385.31	0.29
385.516	0.29
385.723	0.25
385.929	0.26
386.136	0.24
386.342	0.26
386.549	0.26
386.755	0.41
386.961	0.34
387.168	0.32
387.374	0.29
387.58	0.36
387.787	0.29
387.993	0.3
388.199	0.3
388.406	0.29
388.612	0.31
388.818	0.23
389.024	0.26
389.231	0.25
389.437	0.38
389.643	0.35
389.849	0.32
390.055	0.29
390.261	0.31
390.467	0.33
390.674	0.27
390.88	0.29
391.086	0.34
391.292	0.25
391.498	0.32
391.704	0.34
391.91	0.27
392.116	0.28
392.322	0.19
392.528	0.35
392.734	0.28
392.94	0.3
393.146	0.3
393.352	0.35
393.557	0.31
393.763	0.29
393.969	0.32
394.175	0.3
394.381	0.31
394.587	0.3
394.792	0.32
394.998	0.38
395.204	0.36
395.41	0.3
395.615	0.33
395.821	0.35
396.027	0.37
396.233	0.31
396.438	0.4
396.644	0.39
396.85	0.4
397.055	0.3
397.261	0.38
397.466	0.33
397.672	0.34
397.878	0.39
398.083	0.37
398.289	0.3
398.494	0.41
398.7	0.39
398.905	0.22
399.111	0.47
399.316	0.3
399.522	0.36
399.727	0.35
399.932	0.38
400.138	0.34
400.343	0.38
400.549	0.34
400.754	0.37
400.959	0.4
401.165	0.34
401.37	0.35
401.575	0.32
401.78	0.4
401.986	0.35
402.191	0.34
402.396	0.39
402.601	0.41
402.807	0.36
403.012	0.38
403.217	0.49
403.422	0.44
403.627	0.43
403.832	0.38
404.037	0.46
404.243	0.46
404.448	0.38
404.653	0.37
404.858	0.45
405.063	0.53
405.268	0.4
405.473	0.42
405.678	0.48
405.883	0.66
406.088	0.51
406.293	0.42
406.498	0.42
406.703	0.56
406.907	0.43
407.112	0.42
407.317	0.55
407.522	0.57
407.727	0.48
407.932	0.54
408.136	0.63
408.341	0.52
408.546	0.6
408.751	0.62
408.956	0.59
409.16	0.66
409.365	0.61
409.57	0.63
409.774	0.67
409.979	0.71
410.184	0.71
410.388	0.64
410.593	0.77
410.798	0.79
411.002	0.72
411.207	0.84
411.411	0.78
411.616	0.76
411.82	0.88
412.025	0.89
412.229	0.86
412.434	1
412.638	0.93
412.843	0.91
413.047	0.99
413.252	0.96
413.456	1.06
413.66	1.09
413.865	1.02
414.069	1.21
414.273	1.07
414.478	1.18
414.682	1.19
414.886	1.27
415.091	1.24
415.295	1.26
415.499	1.41
415.703	1.39
415.908	1.53
416.112	1.4
416.316	1.64
416.52	1.59
416.724	1.58
416.929	1.6
417.133	1.96
417.337	1.74
417.541	1.83
417.745	1.86
417.949	2
418.153	2.05
418.357	2.08
418.561	2.38
418.765	2.29
418.969	2.47
419.173	2.49
419.377	2.45
419.581	2.77
419.785	2.7
419.989	2.7
420.193	2.85
420.397	2.97
420.601	3.11
420.804	3.23
421.008	3.16
421.212	3.34
421.416	3.32
421.62	3.34
421.823	3.44
422.027	3.65
422.231	3.58
422.435	3.61
422.638	3.6
422.842	3.69
423.046	3.82
423.249	4.07
423.453	4.01
423.657	4.17
423.86	4.29
424.064	4.46
424.268	4.56
424.471	4.6
424.675	4.85
424.878	4.95
425.082	5
425.285	5.28
425.489	5.25
425.692	5.25
425.896	5.38
426.099	5.67
426.303	5.77
426.506	5.82
426.71	6.15
426.913	6.3
427.116	6.46
427.32	6.37
427.523	6.53
427.726	6.8
427.93	6.94
428.133	7.26
428.336	7.45
428.54	7.6
428.743	7.75
428.946	7.99
429.149	8.1
429.353	7.98
429.556	8.14
429.759	8.23
429.962	8.33
430.165	8.45
430.368	8.1
430.571	8.22
430.775	8.28
430.978	8.29
431.181	8.3
431.384	8.37
431.587	8.47
431.79	8.8
431.993	8.8
432.196	9.03
432.399	9.45
432.602	9.56
432.805	9.67
433.008	10.17
433.211	10
433.414	10.46
433.616	10.44
433.819	10.44
434.022	10.54
434.225	10.82
434.428	10.73
434.631	11.17
434.833	10.96
435.036	11.18
435.239	11.42
435.442	11.63
435.645	11.66
435.847	11.7
436.05	12.09
436.253	12.28
436.455	12.26
436.658	12.09
436.861	12.54
437.063	12.56
437.266	12.5
437.468	13.02
437.671	13.16
437.874	13.26
438.076	13.14
438.279	13.56
438.481	13.67
438.684	14.31
438.886	13.88
439.089	14.28
439.291	14.27
439.494	14.63
439.696	14.76
439.899	15.41
440.101	15.83
440.303	16.07
440.506	16.73
440.708	16.53
440.91	16.7
441.113	16.95
441.315	17.07
441.517	16.74
441.72	17.44
441.922	17.08
442.124	16.99
442.326	17.4
442.529	17.5
442.731	17.54
442.933	17.97
443.135	17.58
443.337	17.5
443.539	18.07
443.742	17.8
443.944	18.42
444.146	18.18
444.348	18.29
444.55	18.21
444.752	18.17
444.954	18.22
445.156	18.09
445.358	18.49
445.56	18.78
445.762	18.58
445.964	18.86
446.166	18.66
446.368	18.74
446.57	18.71
446.772	18.33
446.974	17.99
447.175	18.3
447.377	17.98
447.579	18.43
447.781	18.05
447.983	17.84
448.184	17.33
448.386	17.68
448.588	17.27
448.79	17.22
448.991	17.54
449.193	17.54
449.395	16.86
449.597	16.44
449.798	16.36
450	15.78
450.202	15.92
450.403	15.92
450.605	15.73
450.806	15.4
451.008	15.13
451.21	15
451.411	14.61
451.613	13.76
451.814	14.19
452.016	13.92
452.217	13.28
452.419	13.23
452.62	12.88
452.821	12.68
453.023	12.54
453.224	12.32
453.426	11.75
453.627	11
453.828	11.09
454.03	11.17
454.231	11.21
454.432	11
454.634	10.73
454.835	10.36
455.036	10.28
455.238	10.03
455.439	9.88
455.64	9.36
455.841	9.38
456.042	9.39
456.244	9.02
456.445	8.78
456.646	8.52
456.847	8.4
457.048	8.3
457.249	8.4
457.45	8.19
457.651	7.58
457.852	7.56
458.054	7.28
458.255	7.15
458.456	7.17
458.657	7.1
458.858	6.61
459.058	6.65
459.259	6.74
459.46	6.41
459.661	6.35
459.862	6.35
460.063	6.28
460.264	6.25
460.465	5.96
460.666	6.08
460.866	5.61
461.067	5.49
461.268	5.58
461.469	5.43
461.67	5.37
461.87	5.26
462.071	5.18
462.272	5.11
462.473	5.06
462.673	5.14
462.874	5.14
463.075	5.06
463.275	5.01
463.476	5.13
463.676	5.04
463.877	4.89
464.078	4.88
464.278	4.89
464.479	4.82
464.679	4.66
464.88	4.68
465.08	4.62
465.281	4.38
465.481	4.22
465.682	4.06
465.882	4.16
466.083	4.1
466.283	4
466.483	3.83
466.684	3.77
466.884	3.6
467.085	3.71
467.285	3.75
467.485	3.59
467.686	3.55
467.886	3.38
468.086	3.37
468.286	3.3
468.487	3.42
468.687	3.22
468.887	3.18
469.087	3.29
469.287	3.2
469.488	3.05
469.688	3.23
469.888	3.16
470.088	3.16
470.288	3.02
470.488	3.05
470.688	2.89
470.888	2.83
471.088	2.68
471.288	2.81
471.488	2.78
471.688	2.71
471.888	2.63
472.088	2.82
472.288	2.69
472.488	2.62
472.688	2.56
472.888	2.64
473.088	2.63
473.288	2.49
473.488	2.47
473.688	2.61
473.887	2.4
474.087	2.42
474.287	2.38
474.487	2.35
474.687	2.39
474.886	2.33
475.086	2.31
475.286	2.33
475.486	2.27
475.685	2.26
475.885	2.26
476.085	2.27
476.284	2.21
476.484	2.27
476.684	2.22
476.883	2.27
477.083	2.17
477.282	2.1
477.482	2.23
477.681	2.13
477.881	2.02
478.08	2.11
478.28	2.05
478.479	2.13
478.679	2.15
478.878	2.04
479.078	2.03
479.277	2.03
479.477	2.03
479.676	2.04
479.875	2.02
480.075	1.96
480.274	2.05
480.473	2.07
480.673	1.99
480.872	2.06
481.071	2.07
481.271	2.03
481.47	1.96
481.669	2
481.868	1.94
482.067	1.95
482.267	1.92
482.466	1.93
482.665	1.9
482.864	1.99
483.063	1.95
483.262	2.02
483.461	2.06
483.661	2.08
483.86	1.99
484.059	2.06
484.258	2.06
484.457	1.99
484.656	2.06
484.855	2.09
485.054	1.91
485.253	1.97
485.452	1.96
485.651	2.08
485.849	2.03
486.048	2.01
486.247	2
486.446	2.09
486.645	1.99
486.844	2.04
487.043	2.03
487.241	2.09
487.44	2.07
487.639	2.1
487.838	2.14
488.037	2.16
488.235	2.2
488.434	2.12
488.633	2.07
488.831	2.19
489.03	2.24
489.229	2.18
489.427	2.21
489.626	2.3
489.825	2.28
490.023	2.29
490.222	2.28
490.42	2.31
490.619	2.38
490.817	2.4
491.016	2.37
491.214	2.42
491.413	2.41
491.611	2.39
491.81	2.39
492.008	2.43
492.207	2.53
492.405	2.54
492.604	2.47
492.802	2.52
493	2.61
493.199	2.6
493.397	2.64
493.595	2.68
493.794	2.69
493.992	2.76
494.19	2.75
494.388	2.82
494.587	2.77
494.785	2.75
494.983	2.72
495.181	2.89
495.379	2.91
495.578	2.98
495.776	2.97
495.974	2.94
496.172	2.97
496.37	3.08
496.568	3.13
496.766	3.09
496.964	3.17
497.162	3.24
497.36	3.24
497.558	3.3
497.756	3.3
497.954	3.33
498.152	3.35
498.35	3.46
498.548	3.34
498.746	3.39
498.944	3.35
499.142	3.46
499.34	3.52
499.538	3.63
499.736	3.51
499.933	3.65
500.131	3.64
500.329	3.78
500.527	3.78
500.725	3.86
500.922	3.92
501.12	3.89
501.318	3.95
501.516	3.99
501.713	4.03
501.911	4.02
502.109	3.98
502.306	4.09
502.504	4.01
502.701	4.14
502.899	4.19
503.097	4.38
503.294	4.22
503.492	4.37
503.689	4.39
503.887	4.35
504.084	4.5
504.282	4.43
504.479	4.43
504.677	4.57
504.874	4.55
505.072	4.49
505.269	4.69
505.466	4.68
505.664	4.72
505.861	4.66
506.059	4.79
506.256	4.8
506.453	4.87
506.651	4.98
506.848	5.02
507.045	4.99
507.242	4.99
507.44	4.98
507.637	5.11
507.834	5.13
508.031	5.24
508.229	5.15
508.426	5.06
508.623	5.33
508.82	5.32
509.017	5.24
509.214	5.3
509.411	5.44
509.608	5.37
509.805	5.52
510.003	5.47
510.2	5.55
510.397	5.72
510.594	5.55
510.791	5.64
510.988	5.67
511.184	5.67
511.381	5.52
511.578	5.68
511.775	5.86
511.972	5.79
512.169	5.84
512.366	5.82
512.563	5.99
512.76	6
512.956	6.02
513.153	5.97
513.35	5.95
513.547	5.92
513.744	6.04
513.94	6.05
514.137	6.17
514.334	6.12
514.53	6.2
514.727	6.38
514.924	6.27
515.12	6.25
515.317	6.27
515.514	6.26
515.71	6.21
515.907	6.45
516.103	6.44
516.3	6.35
516.497	6.49
516.693	6.53
516.89	6.53
517.086	6.53
517.283	6.59
517.479	6.43
517.676	6.67
517.872	6.71
518.068	6.71
518.265	6.67
518.461	6.61
518.658	6.71
518.854	6.75
519.05	6.82
519.247	6.86
519.443	6.75
519.639	6.9
519.836	6.83
520.032	6.78
520.228	6.92
520.424	6.86
520.621	6.97
520.817	6.94
521.013	6.99
521.209	7.16
521.405	7.08
521.601	7.01
521.798	7
521.994	7.06
522.19	7.03
522.386	7.02
522.582	7.15
522.778	7.34
522.974	7.12
523.17	7.17
523.366	7.06
523.562	7.23
523.758	7.19
523.954	7.07
524.15	7.29
524.346	7.32
524.542	7.32
524.738	7.26
524.934	7.41
525.129	7.23
525.325	7.23
525.521	7.27
525.717	7.53
525.913	7.35
526.109	7.32
526.304	7.51
526.5	7.45
526.696	7.49
526.892	7.35
527.087	7.65
527.283	7.54
527.479	7.51
527.674	7.34
527.87	7.52
528.066	7.53
528.261	7.55
528.457	7.47
528.653	7.63
528.848	7.59
529.044	7.73
529.239	7.54
529.435	7.61
529.63	7.55
529.826	7.63
530.021	7.59
530.217	7.66
530.412	7.56
530.608	7.68
530.803	7.69
530.999	7.61
531.194	7.65
531.389	7.73
531.585	7.73
531.78	7.84
531.975	7.7
532.171	7.83
532.366	7.76
532.561	7.75
532.757	7.72
532.952	7.85
533.147	7.72
533.342	7.77
533.538	7.76
533.733	7.96
533.928	7.56
534.123	7.8
534.318	7.89
534.513	7.71
534.709	7.95
534.904	7.91
535.099	7.9
535.294	7.89
535.489	8.01
535.684	7.87
535.879	7.81
536.074	7.99
536.269	7.95
536.464	7.91
536.659	7.86
536.854	7.91
537.049	7.97
537.244	7.98
537.439	7.9
537.634	7.95
537.828	7.96
538.023	7.97
538.218	7.95
538.413	7.84
538.608	7.96
538.803	7.98
538.997	7.95
539.192	7.97
539.387	7.94
539.582	7.9
539.776	7.87
539.971	8
540.166	8.1
540.36	7.99
540.555	8.09
540.75	8
540.944	8.06
541.139	8.07
541.334	7.98
541.528	8.01
541.723	8.15
541.917	8.09
542.112	8.03
542.306	7.87
542.501	7.98
542.695	8.03
542.89	7.99
543.084	8
543.279	8.06
543.473	8.07
543.668	8.15
543.862	7.92
544.056	7.94
544.251	8.12
544.445	8.11
544.64	8.21
544.834	7.87
545.028	7.69
545.222	8.03
545.417	8.25
545.611	8.09
545.805	8.07
546	7.89
546.194	8.07
546.388	8.16
546.582	8
546.776	8.09
546.97	8.16
547.165	8.14
547.359	8.03
547.553	8.01
547.747	8.13
547.941	8.29
548.135	8.06
548.329	8.11
548.523	8.11
548.717	8.01
548.911	8.07
549.105	8.02
549.299	8.17
549.493	8.08
549.687	8.03
549.881	8.17
550.075	8.13
550.269	8.01
550.463	8.14
550.657	8.13
550.85	8.12
551.044	8.13
551.238	8.15
551.432	8.17
551.626	8.2
551.82	8.23
552.013	8.04
552.207	8.23
552.401	8.18
552.594	8.01
552.788	8.09
552.982	8.12
553.176	8.02
553.369	8.27
553.563	8.2
553.756	8.1
553.95	8.17
554.144	8.15
554.337	8.18
554.531	8.03
554.724	8.14
554.918	8.23
555.111	8.05
555.305	8.18
555.498	8.07
555.692	8.26
555.885	8.24
556.079	8.1
556.272	8.13
556.466	8.13
556.659	8.11
556.852	8.15
557.046	8.06
557.239	8.01
557.432	8.1
557.626	8.09
557.819	8.26
558.012	8.14
558.206	8.19
558.399	8.18
558.592	8.1
558.785	8.02
558.979	8.11
559.172	8.18
559.365	8.15
559.558	8.07
559.751	8.06
559.944	8.24
560.138	8.03
560.331	8.1
560.524	8.16
560.717	8.08
560.91	8.17
561.103	8.14
561.296	7.99
561.489	8.24
561.682	8.23
561.875	8.15
562.068	8.22
562.261	7.99
562.454	8.31
562.647	8.08
562.84	8.16
563.032	8.23
563.225	8.07
563.418	8.08
563.611	8.18
563.804	8.14
563.997	7.97
564.19	7.89
564.382	8.18
564.575	8.13
564.768	8.07
564.961	8.21
565.153	8.07
565.346	8.02
565.539	8.22
565.731	8.14
565.924	8.16
566.117	8.25
566.309	8.17
566.502	8.07
566.695	8.06
566.887	8.18
567.08	8.08
567.272	8.11
567.465	8.01
567.657	8.13
567.85	8.01
568.042	8.16
568.235	8.17
568.427	7.97
568.62	8.07
568.812	8
569.005	8.12
569.197	8
569.389	8.04
569.582	8.15
569.774	8.14
569.966	8.02
570.159	7.96
570.351	7.98
570.543	8.06
570.736	8.04
570.928	7.93
571.12	8.11
571.312	8.03
571.505	7.82
571.697	8.11
571.889	8.09
572.081	8.06
572.273	7.93
572.465	8.04
572.658	8.09
572.85	8.07
573.042	8.03
573.234	7.94
573.426	7.95
573.618	7.93
573.81	8.01
574.002	7.97
574.194	8.05
574.386	7.92
574.578	7.83
574.77	7.92
574.962	7.97
575.154	7.82
575.346	7.91
575.538	7.87
575.729	7.8
575.921	7.93
576.113	7.99
576.305	7.92
576.497	7.99
576.689	7.82
576.88	7.83
577.072	7.95
577.264	7.85
577.456	7.88
577.647	7.83
577.839	8.05
578.031	7.92
578.223	7.84
578.414	7.75
578.606	7.87
578.798	7.95
578.989	7.86
579.181	7.92
579.372	7.84
579.564	7.9
579.755	7.83
579.947	7.8
580.139	7.82
580.33	7.71
580.522	7.82
580.713	7.78
580.905	7.81
581.096	7.87
581.287	7.74
581.479	7.76
581.67	7.84
581.862	7.75
582.053	7.8
582.244	7.66
582.436	7.86
582.627	7.73
582.818	7.66
583.01	7.6
583.201	7.73
583.392	7.68
583.583	7.65
583.775	7.48
583.966	7.66
584.157	7.68
584.348	7.71
584.54	7.59
584.731	7.67
584.922	7.54
585.113	7.47
585.304	7.6
585.495	7.59
585.686	7.69
585.877	7.6
586.068	7.7
586.259	7.59
586.45	7.6
586.641	7.56
586.832	7.57
587.023	7.52
587.214	7.47
587.405	7.54
587.596	7.43
587.787	7.48
587.978	7.46
588.169	7.45
588.36	7.42
588.551	7.44
588.742	7.41
588.932	7.48
589.123	7.28
589.314	7.52
589.505	7.4
589.696	7.36
589.886	7.31
590.077	7.35
590.268	7.29
590.458	7.22
590.649	7.18
590.84	7.33
591.03	7.32
591.221	7.29
591.412	7.09
591.602	7.37
591.793	7.29
591.984	7.26
592.174	7.22
592.365	7.42
592.555	7.16
592.746	7.09
592.936	7.18
593.127	7.23
593.317	7.24
593.508	7.22
593.698	7.07
593.889	7.14
594.079	7.14
594.269	7.05
594.46	7.05
594.65	7.13
594.84	7.11
595.031	6.97
595.221	7.02
595.411	7.05
595.602	7.04
595.792	6.97
595.982	6.94
596.172	7.12
596.363	6.95
596.553	7.03
596.743	6.9
596.933	6.97
597.123	6.92
597.314	6.77
597.504	6.79
597.694	7
597.884	6.81
598.074	6.87
598.264	6.81
598.454	6.85
598.644	6.79
598.834	6.82
599.024	6.63
599.214	6.78
599.404	6.81
599.594	6.73
599.784	6.65
599.974	6.79
600.164	6.75
600.354	6.63
600.544	6.56
600.734	6.68
600.924	6.63
601.114	6.55
601.303	6.53
601.493	6.62
601.683	6.6
601.873	6.57
602.063	6.4
602.252	6.62
602.442	6.48
602.632	6.46
602.821	6.4
603.011	6.5
603.201	6.49
603.39	6.42
603.58	6.29
603.77	6.43
603.959	6.47
604.149	6.33
604.339	6.38
604.528	6.47
604.718	6.38
604.907	6.29
605.097	6.3
605.286	6.27
605.476	6.29
605.665	6.28
605.855	6.21
606.044	6.31
606.234	6.3
606.423	6.18
606.612	6.16
606.802	6.19
606.991	6.19
607.181	6.12
607.37	6.21
607.559	5.96
607.749	6.13
607.938	6.06
608.127	6.11
608.316	6.02
608.506	6.05
608.695	6.03
608.884	6.01
609.073	6.03
609.263	6.09
609.452	5.99
609.641	5.89
609.83	5.86
610.019	6
610.208	5.85
610.397	5.86
610.586	5.87
610.775	5.79
610.965	5.87
611.154	5.71
611.343	5.89
611.532	5.69
611.721	5.83
611.91	5.69
612.099	5.72
612.287	5.64
612.476	5.63
612.665	5.73
612.854	5.6
613.043	5.72
613.232	5.63
613.421	5.52
613.61	5.61
613.798	5.49
613.987	5.65
614.176	5.55
614.365	5.6
614.554	5.62
614.742	5.62
614.931	5.42
615.12	5.53
615.309	5.49
615.497	5.4
615.686	5.32
615.875	5.42
616.063	5.31
616.252	5.32
616.44	5.36
616.629	5.31
616.818	5.36
617.006	5.28
617.195	5.23
617.383	5.29
617.572	5.18
617.76	5.13
617.949	5.17
618.137	5.3
618.326	5.26
618.514	5.06
618.703	5.09
618.891	5.23
619.079	5.03
619.268	5.17
619.456	5.03
619.644	5.18
619.833	4.99
620.021	5.05
620.209	4.95
620.398	5.05
620.586	4.92
620.774	5
620.962	5
621.151	5.07
621.339	4.97
621.527	4.82
621.715	4.84
621.903	4.89
622.092	4.76
622.28	4.9
622.468	4.67
622.656	4.87
622.844	4.77
623.032	4.82
623.22	4.67
623.408	4.85
623.596	4.77
623.784	4.8
623.972	4.61
624.16	4.72
624.348	4.74
624.536	4.73
624.724	4.53
624.912	4.67
625.1	4.67
625.288	4.58
625.476	4.51
625.664	4.69
625.851	4.57
626.039	4.59
626.227	4.52
626.415	4.52
626.603	4.45
626.79	4.53
626.978	4.47
627.166	4.47
627.354	4.36
627.541	4.34
627.729	4.28
627.917	4.49
628.104	4.47
628.292	4.35
628.48	4.35
628.667	4.26
628.855	4.41
629.042	4.39
629.23	4.29
629.418	4.25
629.605	4.28
629.793	4.18
629.98	4.15
630.168	4.13
630.355	4.26
630.543	4.16
630.73	4.09
630.917	4.1
631.105	4.28
631.292	4.13
631.48	4.1
631.667	4.23
631.854	4.07
632.042	4.06
632.229	3.97
632.416	4.06
632.604	4.02
632.791	3.87
632.978	4.01
633.165	3.98
633.353	3.98
633.54	3.99
633.727	3.88
633.914	3.86
634.101	3.84
634.289	3.97
634.476	3.84
634.663	3.75
634.85	3.82
635.037	3.81
635.224	3.7
635.411	3.9
635.598	3.8
635.785	3.69
635.972	3.73
636.159	3.75
636.346	3.7
636.533	3.68
636.72	3.69
636.907	3.64
637.094	3.58
637.281	3.52
637.468	3.57
637.655	3.61
637.842	3.61
638.029	3.53
638.215	3.5
638.402	3.6
638.589	3.49
638.776	3.49
638.963	3.39
639.149	3.49
639.336	3.58
639.523	3.4
639.709	3.46
639.896	3.37
640.083	3.44
640.27	3.48
640.456	3.35
640.643	3.37
640.829	3.23
641.016	3.29
641.203	3.22
641.389	3.36
641.576	3.3
641.762	3.28
641.949	3.16
642.135	3.3
642.322	3.27
642.508	3.13
642.695	3.27
642.881	3.16
643.068	3.09
643.254	3.17
643.441	3.16
643.627	3.2
643.813	3.06
644	3.14
644.186	3.04
644.372	3.07
644.559	3.09
644.745	3.04
644.931	2.99
645.118	3.05
645.304	3.06
645.49	2.98
645.676	2.97
645.862	3
646.049	3.02
646.235	2.95
646.421	3.11
646.607	3.05
646.793	2.93
646.979	2.86
647.165	2.86
647.352	2.88
647.538	2.9
647.724	2.87
647.91	2.78
648.096	2.9
648.282	2.95
648.468	2.81
648.654	2.85
648.84	2.85
649.026	2.81
649.212	2.7
649.397	2.68
649.583	2.76
649.769	2.79
649.955	2.72
650.141	2.74
650.327	2.72
650.513	2.62
650.698	2.7
650.884	2.59
651.07	2.71
651.256	2.66
651.442	2.63
651.627	2.52
651.813	2.65
651.999	2.58
652.184	2.56
652.37	2.57
652.556	2.49
652.741	2.61
652.927	2.4
653.113	2.52
653.298	2.5
653.484	2.55
653.669	2.46
653.855	2.47
654.04	2.5
654.226	2.47
654.412	2.45
654.597	2.34
654.782	2.43
654.968	2.44
655.153	2.36
655.339	2.37
655.524	2.37
655.71	2.44
655.895	2.31
656.08	2.35
656.266	2.43
656.451	2.34
656.636	2.28
656.822	2.31
657.007	2.3
657.192	2.34
657.378	2.25
657.563	2.24
657.748	2.28
657.933	2.28
658.118	2.22
658.304	2.21
658.489	2.31
658.674	2.3
658.859	2.12
659.044	2.17
659.229	2.23
659.414	2.2
659.599	2.15
659.785	2.07
659.97	2.18
660.155	2.23
660.34	2.16
660.525	2.07
660.71	2.07
660.895	2.13
661.08	2.06
661.264	1.98
661.449	2.16
661.634	2.08
661.819	2.07
662.004	2.02
662.189	1.95
662.374	2.03
662.559	1.94
662.743	2
662.928	2.02
663.113	1.92
663.298	1.91
663.483	1.94
663.667	1.99
663.852	1.91
664.037	1.97
664.221	1.92
664.406	1.95
664.591	1.96
664.775	1.95
664.96	1.83
665.145	1.9
665.329	1.95
665.514	1.88
665.698	1.81
665.883	1.77
666.068	1.9
666.252	1.83
666.437	1.75
666.621	1.9
666.806	1.84
666.99	1.8
667.174	1.79
667.359	1.91
667.543	1.78
667.728	1.8
667.912	1.65
668.096	1.79
668.281	1.74
668.465	1.8
668.649	1.76
668.834	1.69
669.018	1.7
669.202	1.72
669.387	1.66
669.571	1.78
669.755	1.65
669.939	1.66
670.124	1.7
670.308	1.72
670.492	1.7
670.676	1.68
670.86	1.63
671.044	1.56
671.228	1.71
671.413	1.54
671.597	1.55
671.781	1.55
671.965	1.64
672.149	1.56
672.333	1.58
672.517	1.59
672.701	1.6
672.885	1.58
673.069	1.44
673.253	1.61
673.437	1.54
673.621	1.5
673.804	1.58
673.988	1.56
674.172	1.48
674.356	1.36
674.54	1.5
674.724	1.63
674.908	1.51
675.091	1.49
675.275	1.46
675.459	1.54
675.643	1.4
675.826	1.48
676.01	1.43
676.194	1.5
676.377	1.53
676.561	1.51
676.745	1.46
676.928	1.43
677.112	1.47
677.296	1.38
677.479	1.36
677.663	1.37
677.846	1.42
678.03	1.38
678.213	1.34
678.397	1.42
678.58	1.42
678.764	1.4
678.947	1.32
679.131	1.37
679.314	1.42
679.498	1.3
679.681	1.39
679.865	1.45
680.048	1.31
680.231	1.31
680.415	1.29
680.598	1.32
680.781	1.28
680.965	1.3
681.148	1.29
681.331	1.23
681.514	1.3
681.698	1.22
681.881	1.3
682.064	1.31
682.247	1.3
682.43	1.15
682.614	1.22
682.797	1.3
682.98	1.26
683.163	1.23
683.346	1.17
683.529	1.18
683.712	1.18
683.895	1.24
684.078	1.16
684.261	1.14
684.444	1.24
684.627	1.28
684.81	1.15
684.993	1.16
685.176	1.19
685.359	1.12
685.542	1.11
685.725	1.28
685.908	1.22
686.091	1.15
686.274	1.24
686.457	1.23
686.639	1.1
686.822	1.19
687.005	1.17
687.188	1.17
687.371	1.34
687.553	1.18
687.736	1.16
687.919	1.25
688.102	1.21
688.284	1.1
688.467	1.06
688.65	1.06
688.832	1.04
689.015	1.07
689.197	0.96
689.38	1.17
689.563	1.19
689.745	0.93
689.928	0.97
690.11	1.03
690.293	1.08
690.475	0.97
690.658	1.05
690.84	1.06
691.023	0.97
691.205	0.94
691.388	1
691.57	1.05
691.752	1.06
691.935	0.92
692.117	0.94
692.3	1.04
692.482	0.95
692.664	0.97
692.847	0.99
693.029	1.12
693.211	1.07
693.393	0.93
693.576	0.93
693.758	1.05
693.94	0.94
694.122	0.92
694.304	0.9
694.487	0.9
694.669	1.04
694.851	0.91
695.033	0.92
695.215	0.94
695.397	0.94
695.579	0.92
695.761	0.84
695.943	0.84
696.125	1.02
696.308	0.92
696.49	0.85
696.671	1.05
696.853	0.9
697.035	1.14
697.217	0.87
697.399	0.98
697.581	0.86
697.763	0.88
697.945	0.87
698.127	0.92
698.309	1.01
698.491	0.92
698.672	0.89
698.854	0.87
699.036	0.97
699.218	0.85
699.399	0.94
699.581	0.95
699.763	0.88
699.945	0.79
700.126	0.78
700.308	0.9
700.49	0.84
700.671	0.69
700.853	0.76
701.035	0.86
701.216	0.83
701.398	0.77
701.579	0.82
701.761	0.9
701.943	0.79
702.124	0.75
702.306	0.78
702.487	0.93
702.669	0.77
702.85	0.76
703.031	0.77
703.213	0.94
703.394	0.85
703.576	0.75
703.757	0.97
703.938	0.85
704.12	1.02
704.301	0.78
704.483	0.66
704.664	0.8
704.845	0.89
705.026	0.76
705.208	0.71
705.389	0.78
705.57	0.84
705.751	0.81
705.933	0.74
706.114	0.86
706.295	0.82
706.476	0.63
706.657	0.83
706.838	0.81
707.02	0.85
707.201	0.66
707.382	0.74
707.563	0.76
707.744	0.69
707.925	0.64
708.106	0.7
708.287	0.77
708.468	0.85
708.649	0.69
708.83	0.73
709.011	0.68
709.192	0.77
709.373	0.62
709.554	0.62
709.734	0.79
709.915	0.78
710.096	0.66
710.277	0.53
710.458	0.73
710.639	0.73
710.819	0.57
711	0.69
711.181	0.67
711.362	0.77
711.542	0.7
711.723	0.65
711.904	0.8
712.085	0.71
712.265	0.66
712.446	0.56
712.627	0.61
712.807	0.65
712.988	0.61
713.168	0.52
713.349	0.65
713.53	0.52
713.71	0.57
713.891	0.52
714.071	0.61
714.252	0.56
714.432	0.63
714.613	0.49
714.793	0.59
714.974	0.76
715.154	0.71
715.334	0.62
715.515	0.7
715.695	0.56
715.876	0.57
716.056	0.58
716.236	0.55
716.417	0.58
716.597	0.54
716.777	0.84
716.957	0.6
717.138	0.63
717.318	0.62
717.498	0.52
717.678	0.64
717.859	0.66
718.039	0.51
718.219	0.52
718.399	0.61
718.579	0.54
718.759	0.44
718.939	0.59
719.12	0.61
719.3	0.54
719.48	0.48
719.66	0.45
719.84	0.7
720.02	0.53
720.2	0.53
720.38	0.5
720.56	0.72
720.74	0.48
720.92	0.6
721.1	0.74
721.279	0.65
721.459	0.57
721.639	0.45
721.819	0.59
721.999	0.6
722.179	0.66
722.359	0.46
722.538	0.52
722.718	0.52
722.898	0.61
723.078	0.53
723.257	0.42
723.437	0.65
723.617	0.58
723.797	0.55
723.976	0.59
724.156	0.67
724.336	0.68
724.515	0.73
724.695	0.36
724.874	0.57
725.054	0.66
725.234	0.5
725.413	0.62
725.593	0.5
725.772	0.53
725.952	0.55
726.131	0.41
726.311	0.53
726.49	0.61
726.67	0.38
726.849	0.46
727.028	0.63
727.208	0.53
727.387	0.53
727.567	0.45
727.746	0.48
727.925	0.49
728.105	0.41
728.284	0.49
728.463	0.46
728.643	0.62
728.822	0.45
729.001	0.48
729.18	0.48
729.359	0.62
729.539	0.55
729.718	0.56
729.897	0.59
730.076	0.48
730.255	0.45
730.434	0.47
730.614	0.62
730.793	0.56
730.972	0.48
731.151	0.53
731.33	0.57
731.509	0.48
731.688	0.44
731.867	0.49
732.046	0.34
732.225	0.75
732.404	0.43
732.583	0.38
732.762	0.43
732.941	0.61
733.12	0.54
733.298	0.44
733.477	0.58
733.656	0.48
733.835	0.44
734.014	0.56
734.193	0.53
734.371	0.54
734.55	0.45
734.729	0.38
734.908	0.58
735.086	0.58
735.265	0.62
735.444	0.3
735.623	0.42
735.801	0.39
735.98	0.47
736.159	0.45
736.337	0.68
736.516	0.65
736.694	0.53
736.873	0.3
737.052	0.77
737.23	0.78
737.409	0.44
737.587	0.64
737.766	0.38
737.944	0.54
738.123	0.59
738.301	0.56
738.479	0.57
738.658	0.65
738.836	0.28
739.015	0.54
739.193	0.59
739.371	0.33
739.55	0.4
739.728	0.33
739.906	0.81
740.085	0.73
740.263	0.67
740.441	0.25
740.62	0.73
740.798	0.53
740.976	0.46
741.154	0.35
741.332	0.68
741.511	0.41
741.689	0.47
741.867	0.42
742.045	0.6
742.223	0.45
742.401	0.39
742.579	0.43
742.757	0.45
742.935	0.33
743.114	0.26
743.292	0.34
743.47	0.51
743.648	0.58
743.826	0.47
744.004	0.55
744.181	0.63
744.359	0.54
744.537	0.48
744.715	0.4
744.893	0.44
745.071	0.52
745.249	0.42
745.427	0.36
745.605	0.52
745.782	0.42
745.96	0.48
746.138	0.62
746.316	0.58
746.493	0.41
746.671	0.41
746.849	0.38
747.027	0.58
747.204	0.46
747.382	0.47
747.56	0.25
747.737	0.36
747.915	0.45
748.093	0.49
748.27	0.36
748.448	0.4
748.625	0.31
748.803	0.3
748.98	0.34
749.158	0.53
749.335	0.6
749.513	0.35
749.69	0.38
749.868	0.36
750.045	0.43
750.223	0.39
750.4	0.17
750.578	0.74
750.755	0.44
750.932	0.21
751.11	0.47
751.287	0.36
751.464	0.65
751.642	0.26
751.819	0.45
751.996	0.46
752.173	0.39
752.351	0.33
752.528	0.44
752.705	0.45
752.882	0.36
753.06	0.42
753.237	0.48
753.414	0.65
753.591	0.69
753.768	0.44
753.945	0.3
754.122	0.38
754.299	0.65
754.476	0.35
754.654	0.5
754.831	0.5
755.008	0.42
755.185	0.39
755.362	0.22
755.539	0.51
755.716	0.3
755.892	0.42
756.069	0.24
756.246	0.36
756.423	0.47
756.6	0.59
756.777	0.26
756.954	0.61
757.131	0.4
757.307	0.34
757.484	0.3
757.661	0.47
757.838	0.52
758.015	0.28
758.191	0.43
758.368	0.4
758.545	0.64
758.721	0.46
758.898	0.26
759.075	0.49
759.251	0.48
759.428	0.41
759.605	0.37
759.781	0.3
759.958	0.47
760.134	0.41
760.311	0.27
760.488	0.51
760.664	0.55
760.841	0.3
761.017	0.2
761.194	0.4
761.37	0.62
761.547	0.32
761.723	0.35
761.899	0.55
762.076	0.45
762.252	0.27
762.429	0.3
762.605	0.47
762.781	0.4
762.958	0.41
763.134	0.21
763.31	0.29
763.486	0.56
763.663	0.18
763.839	0.43
764.015	0.19
764.191	0.35
764.368	0.35
764.544	0.31
764.72	0.39
764.896	0.51
765.072	0.45
765.248	0.43
765.425	0.34
765.601	0.44
765.777	0.34
765.953	0.03
766.129	0.35
766.305	0.27
766.481	0.48
766.657	0.4
766.833	0.43
767.009	0.29
767.185	0.31
767.361	0.24
767.537	0.29
767.713	0.6
767.889	0.29
768.065	0.3
768.24	0.52
768.416	0.42
768.592	0.39
768.768	0.42
768.944	0.41
769.12	0.24
769.295	0.33
769.471	0.38
769.647	0.43
769.823	0.62
769.998	0.38
770.174	0.2
770.35	0.85
770.525	0.81
770.701	0.46
770.877	0.31
771.052	0.33
771.228	0.44
771.403	0.41
771.579	0.45
771.755	0.77
771.93	0.32
772.106	0.27
772.281	0.04
772.457	0.39
772.632	0.51
772.808	0.13
772.983	0.31
773.159	0.26
773.334	0.63
773.509	0.37
773.685	0.23
773.86	0.8
774.036	0.53
774.211	0.54
774.386	0.28
774.562	0.44
774.737	0.47
774.912	0.24
775.087	0.52
775.263	0.33
775.438	0.5
775.613	0.25
775.788	0.3
775.964	0.57
776.139	1.19
776.314	0.23
776.489	0.52
776.664	0.39
776.839	0.24
777.014	0.64
777.19	0.52
777.365	0.7
777.54	0.76
777.715	0.34
777.89	0.44
778.065	0.35
778.24	0.39
778.415	0.48
778.59	0.28
778.765	0.45
778.94	0.66
779.115	0.33
779.289	0.28
779.464	0.46
779.639	0.21
779.814	0.17
779.989	0.19
780.164	0.74
780.339	0.54
780.513	0.27
780.688	0.18
780.863	0.35
781.038	0.6
781.212	0.17
781.387	0.4
781.562	0.8
781.737	0.17
781.911	0.69
782.086	0.27
782.261	0.47
782.435	0.81
782.61	0.28
782.784	0.3
782.959	0.69
783.134	0.41
783.308	0.07
783.483	0.34
783.657	1.18
783.832	0.66
784.006	0.16
784.181	0.58
784.355	0.72
784.53	0.11
784.704	0.29
784.878	0.72
785.053	0.76
785.227	0.84
785.402	0.69
785.576	0.53
785.75	0.44
785.925	0.51
786.099	0.56
786.273	0.54
786.448	0.85
786.622	0.66
786.796	0.33
786.97	0.69
787.145	1.14
787.319	0.14
787.493	0.4
787.667	0.11
787.841	0.54
788.015	0.58
788.19	0.27
788.364	0.34
788.538	0.83
788.712	0.76
788.886	0.65
789.06	0.44
789.234	0.65
789.408	0.14
789.582	0.43
789.756	0.3
789.93	0.4
790.104	0.4
790.278	0.28
790.452	0.36
790.626	0.37
790.8	0.21
790.973	0.83
791.147	0.83
791.321	1.04
791.495	0.65
791.669	0.43
791.843	0.76
792.016	0.76
792.19	1.03
792.364	0.37
792.538	1.35
792.711	0.88
792.885	0.25
793.059	0.22
793.233	-0.1
793.406	0.8
793.58	0.51
793.754	0.64
793.927	0.64
794.101	0.83
794.274	0.44
794.448	0.91
794.622	0.25
794.795	0.85
794.969	0.36
795.142	0.8
795.316	0.38
795.489	0.2
795.663	1.15
795.836	0.53
796.009	0.39
796.183	1.02
796.356	0.68
796.53	0.37
796.703	0.44
796.876	1.13
797.05	0.27
797.223	0.32
797.396	0.48
797.57	0.75
797.743	1.11
797.916	0.45
798.09	0.46
798.263	0.9
798.436	0.44
798.609	0.21
798.782	0.42
798.956	0.68
799.129	0.47
799.302	0.41
799.475	0.18
799.648	0.49
799.821	0.34
799.994	0.4
800.167	0.2
800.34	0.51
800.514	0.64
800.687	0.31
800.86	0.35
801.033	0.61
801.206	1.09
801.379	0.03
801.551	0.91
801.724	0.68
801.897	1.13
802.07	0.58
802.243	0.18
802.416	0.53
802.589	0.58
802.762	0.72
802.935	0.56
803.107	0.86
803.28	1.18
803.453	0.8
803.626	0.52
803.798	0.7
803.971	0.44
804.144	0.9
804.317	0.88
804.489	1.14
804.662	0.83
804.835	0.54
805.007	0.17
805.18	1.02
805.353	0.59
805.525	0.29
805.698	0.56
805.87	0.93
806.043	0.76
806.215	-0.12
806.388	0.42
806.56	1.09
806.733	0.97
806.905	0.32
807.078	0.59
807.25	0.73
807.423	0.98
807.595	0.59
807.768	0.7
807.94	1.05
808.112	0.88
808.285	0.64
808.457	0.44
808.629	0.66
808.802	1.06
808.974	0.68
809.146	0.5
809.318	0.61
809.491	0.69
809.663	0.8
809.835	0.37
810.007	1.02
810.18	0.79
810.352	0.19
810.524	0.38
810.696	0.84
810.868	1.37
811.04	0.46
811.212	0.69
811.384	0.93
811.556	0.81
811.728	0.23
811.901	1.69
812.073	0.67
812.245	0.7
812.417	0.48
812.589	-0.08
812.76	1
812.932	1.11
813.104	1.07
813.276	0.65
813.448	1.17
813.62	0.69
813.792	0.64
813.964	0.67
814.136	1.2
814.307	0.37
814.479	0.57
814.651	0.66
814.823	2.08
814.995	0.37
815.166	0.68
815.338	0.43
815.51	0.17
815.681	1.91
815.853	0.59
816.025	0.55
816.196	1.66
816.368	1.63
816.54	0.05
816.711	0.12
816.883	1.26
817.054	2.21
817.226	0.13
817.398	0.99
817.569	0.55
817.741	1.03
817.912	0.7
818.084	0.69
818.255	1.19
818.426	0.41
818.598	0.7
818.769	0.27
818.941	1.38
819.112	1.43
819.283	1.32
819.455	0.47
819.626	0.78
819.798	1.35
819.969	0.7
820.14	0.49
820.311	1.19
820.483	0.57
820.654	0.82
820.825	0.84
820.996	0.79
821.168	0.27
821.339	0.87
821.51	0.18
821.681	0.54
821.852	0.87
822.023	0.46
822.195	-0.18
822.366	1.21
822.537	0.39
822.708	0.69
822.879	0.07
823.05	1.46
823.221	0.86
823.392	0.78
823.563	1
823.734	0.81
823.905	0.88
824.076	0.61
824.247	0.54
824.418	0.96
824.589	1.54
824.759	0.62
824.93	0.76
825.101	0.52
825.272	1.84
825.443	1.33
825.614	1.51
825.784	-0.31
825.955	2.79
826.126	1.8
826.297	0.68
826.467	2.2
826.638	2.4
826.809	0.23
826.98	0.74
827.15	1.62
827.321	1.32
827.492	1.78
827.662	0.55
827.833	1.95
828.003	1.67
828.174	-0.05
828.345	-0.02
828.515	2.12
828.686	0.92
828.856	0.52
829.027	0.8
829.197	1.21
829.368	1.74
829.538	-0.27
829.709	0.58
829.879	1.07
830.049	0.81
830.22	1.25
830.39	0.7
830.56	1.99
830.731	0.94
830.901	0.83
831.072	0.95
831.242	1.22
831.412	1.12
831.582	0.98
831.753	-0.15
831.923	1.79
832.093	1.71
832.263	1.02
832.434	0.19
832.604	0.43
832.774	2.3
832.944	0.67
833.114	0.65
833.284	1.51
833.454	0.59
833.624	0.76
833.795	0.22
833.965	2.37
834.135	2.23
834.305	-0.41
834.475	0.18
834.645	1.45
834.815	1.03
834.985	0.1
835.155	0.21
835.325	2.04
835.494	1.6
835.664	0.53
835.834	0.16
836.004	0.88
836.174	0.74
836.344	0.87
836.514	0.23
836.684	0.46
836.853	0.85
837.023	1.31
837.193	0.85
837.363	1.49
837.532	1.77
837.702	0.67
837.872	0.84
838.041	1.74
838.211	3.15
838.381	0.1
838.55	1.1
838.72	3.27
838.89	3.43
839.059	0.47
839.229	0.41
839.398	3.76
839.568	1.93
839.738	0.32
839.907	1.78
840.077	1.46
840.246	0.16
840.416	0.23
840.585	0.17
840.755	3.07
840.924	1.97
841.093	0.45
841.263	0.31
841.432	1.66
841.602	0.9
841.771	0.08
841.94	1.03
842.11	3.65
842.279	3.44
842.448	0.39
842.617	0.09
842.787	2.96
842.956	0.6
843.125	1.21
843.294	0.45
843.464	2.56
843.633	1.96
843.802	-0.11
843.971	1.13
844.14	1.97
844.309	2.7
844.479	-0.82
844.648	0.56
844.817	1.16
844.986	1.86
845.155	0.3
845.324	0.33
845.493	1.62
845.662	0.28
845.831	1.55
846	1.51
846.169	0.77
846.338	2.57
846.507	1.81
846.676	1.75
846.844	0.91
847.013	2.84
847.182	0.96
847.351	0.18
847.52	1.04
847.689	1.96
847.858	1.04
848.026	-0.29
848.195	2.67
848.364	1.03
848.533	1.23
848.701	1.01
848.87	1.22
849.039	3.27
849.207	2.46
849.376	2.62
849.545	3.09
849.713	0.01
849.882	0.64
850.051	1.37
850.219	1.6
850.388	2.48
850.556	-0.22
850.725	0.85
850.893	1.01
851.062	1.46
851.23	1.33
851.399	-0.71
851.567	1.85
851.736	1.41
851.904	-0.28
852.073	1.67
852.241	2.59
852.41	1.6
852.578	1.23
852.746	0.19
852.915	2.29
853.083	0.7
853.251	0.16
853.42	1.2
853.588	1.31
853.756	2.9
853.924	1.32
854.093	1.13
854.261	0.62
854.429	0.26
854.597	1.39
854.765	0.33
854.934	2.83
855.102	2.54
855.27	1.58
855.438	2.01
855.606	3.82
855.774	3.27
855.942	-0.08
856.11	0.41
856.278	1.77
856.446	3.8
856.614	1.13
856.782	0.53
856.95	2.57
857.118	1.8
857.286	2.4
857.454	0.48
857.622	3.08
857.79	2.23
857.958	0.41
858.126	1.22
858.294	-1.52
858.462	1.85
858.629	0.63
858.797	1.21
858.965	2.19
859.133	2.02
859.301	0.9
859.468	2.23
859.636	1.48
859.804	4.44
859.971	2.16
860.139	0.61
860.307	2.98
860.474	2.89
860.642	0.79
860.81	-0.69
860.977	2.38
861.145	3.17
861.313	1.86
861.48	1.3
861.648	2.58
861.815	1.01
861.983	-1.01
862.15	1.01
862.318	1.89
862.485	3.16
862.653	0.89
862.82	0.61
862.988	5.05
863.155	2.49
863.322	0.21
863.49	1.02
863.657	0.89
863.824	3.56
863.992	3.14
864.159	1.87
864.326	3.02
864.494	1.44
864.661	3.67
864.828	-0.54
864.996	3.82
865.163	4.01
865.33	0.67
865.497	-0.81
865.664	1.44
865.832	0.97
865.999	1.89
866.166	0.2
866.333	1.51
866.5	1.55
866.667	0.59
866.834	2.7
867.001	4.79
867.168	0.46
867.335	1.03
867.502	-0.77
867.669	1.9
867.836	6.08
868.003	0.88
868.17	2.67
868.337	1.23
868.504	5.62
868.671	1.59
868.838	1.52
869.005	1.95
869.172	3.87
869.339	1.82
869.505	1.2
869.672	3.58
869.839	5.84
870.006	1.89
870.173	0.51
870.339	2.68
870.506	5.2
870.673	1.62
870.84	3.1
871.006	2.11
871.173	3.52
871.34	2.86
871.506	-0.81
871.673	2.16
871.839	1.03
872.006	2.23
872.173	-0.36
872.339	3.63
872.506	3.93
872.672	1.62
872.839	-0.11
873.005	3.55
873.172	7.04
873.338	3.31
873.505	2.4
873.671	1.82
873.838	2.65
874.004	0.5
874.171	1.35
874.337	3.67
874.503	4.06
874.67	1.14
874.836	0.44
875.002	5.03
875.169	3.72
875.335	1.43
875.501	2.7
875.668	0.09
875.834	1.72
876	3.26
876.166	3.53
876.332	3.79
876.499	6.09
876.665	1.49
876.831	1.3
876.997	6.43
877.163	4.23
877.329	1.21
877.495	2.31
877.662	3.56
877.828	3.17
877.994	0.48
878.16	-1.6
878.326	2.46
878.492	5.13
878.658	3.43
878.824	4.16
878.99	3.44
879.156	5.16
879.322	5.36
879.487	1.03
879.653	3.31
879.819	2.95
879.985	1.01
880.151	1.65
880.317	3.8
880.483	1.87
880.648	4.67
880.814	0.68
880.98	4.34
881.146	-1.93
881.312	-0.67
881.477	2.88
881.643	2.11
881.809	5.52
881.974	4.33
882.14	-0.31
882.306	4.33
882.471	6.96
882.637	0.53
882.803	3.34
882.968	5.26
883.134	6.29
883.299	2.88
883.465	2.6
883.63	6.03
883.796	2.48
883.961	4.43
884.127	4.84
884.292	-1.78
884.458	0.36
884.623	0.35
