Data from Apollo_Calib_20240827__AbsoluteIrradiance__37__23-46-00-988.txt Node

Date: Tue Aug 27 23:46:00 BST 2024
User: biology
Spectrometer: FLMT08252
Trigger mode: 0
Integration Time (sec): 5.000000E-1
Scans to average: 5
Electric dark correction enabled: true
Nonlinearity correction enabled: false
Boxcar width: 0
XAxis mode: Wavelengths
Number of Pixels in Spectrum: 3648
>>>>>Begin Spectral Data<<<<<
179.588	-0
179.809	-0
180.03	-0
180.251	-0
180.473	-0
180.694	0
180.915	0
181.136	-0
181.357	0
181.578	-0
181.799	-0
182.02	-0
182.241	0
182.462	0
182.683	0
182.904	-0
183.125	-0
183.346	0
183.567	0
183.788	0
184.009	0
184.23	0
184.451	0
184.672	0
184.892	0
185.113	0
185.334	0
185.555	0
185.776	0
185.996	0
186.217	0
186.438	0
186.659	0
186.879	0
187.1	0
187.321	0
187.541	0
187.762	0
187.983	0
188.203	0
188.424	0
188.644	0
188.865	0
189.086	0
189.306	0
189.527	0
189.747	0
189.968	0
190.188	0
190.409	0
190.629	0
190.849	0
191.07	0
191.29	0
191.511	0
191.731	0
191.951	0
192.172	0
192.392	0
192.612	0
192.833	0
193.053	0
193.273	0
193.493	0
193.714	0
193.934	0
194.154	0
194.374	0
194.594	0
194.815	0
195.035	0
195.255	0
195.475	0
195.695	0
195.915	0
196.135	0
196.355	0
196.575	0
196.795	0
197.015	0
197.235	0
197.455	0
197.675	0
197.895	0
198.115	0
198.335	0
198.555	0
198.775	0
198.995	0
199.214	0
199.434	0
199.654	0
199.874	0
200.094	4.17
200.313	2.48
200.533	1.95
200.753	1.81
200.973	3.91
201.192	3.58
201.412	1.3
201.632	2.17
201.851	3.44
202.071	2.27
202.291	2.47
202.51	1.69
202.73	2.84
202.95	1.54
203.169	1.56
203.389	1.97
203.608	1.97
203.828	1.86
204.047	1.87
204.267	2.21
204.486	2.25
204.706	2.18
204.925	1.75
205.145	1.51
205.364	2.73
205.583	3.07
205.803	1.59
206.022	1.42
206.242	1.85
206.461	2.01
206.68	1.43
206.9	1.58
207.119	2.06
207.338	2.32
207.557	1.28
207.777	1.49
207.996	1.27
208.215	2.17
208.434	1.43
208.654	0.99
208.873	1.53
209.092	2.24
209.311	1.27
209.53	1.19
209.749	1.2
209.968	1.29
210.187	1.44
210.407	0.94
210.626	1.26
210.845	1.39
211.064	1.13
211.283	0.86
211.502	1.56
211.721	1.26
211.94	1.1
212.159	1.39
212.377	1.48
212.596	1.7
212.815	1.22
213.034	1.27
213.253	1.38
213.472	1.51
213.691	1.09
213.91	0.92
214.128	1.15
214.347	1.55
214.566	0.59
214.785	0.92
215.003	1.22
215.222	1.05
215.441	1.06
215.66	0.63
215.878	1.06
216.097	1.15
216.316	0.73
216.534	0.93
216.753	1.14
216.972	1.1
217.19	0.92
217.409	0.79
217.627	0.86
217.846	0.82
218.064	0.89
218.283	0.75
218.501	1.47
218.72	1.14
218.938	0.78
219.157	0.82
219.375	1.24
219.594	0.97
219.812	0.6
220.031	0.64
220.249	1.2
220.467	1.27
220.686	0.82
220.904	0.68
221.122	0.74
221.341	1.06
221.559	0.73
221.777	0.62
221.995	0.62
222.214	0.81
222.432	0.68
222.65	0.78
222.868	0.98
223.086	0.92
223.305	0.92
223.523	0.76
223.741	0.91
223.959	0.45
224.177	0.37
224.395	0.62
224.613	0.81
224.831	0.98
225.049	0.61
225.267	0.62
225.485	0.83
225.703	0.71
225.921	0.62
226.139	0.61
226.357	0.89
226.575	0.77
226.793	0.61
227.011	1.33
227.229	0.67
227.447	0.86
227.665	0.51
227.883	0.43
228.1	0.76
228.318	0.73
228.536	0.4
228.754	0.47
228.972	0.66
229.189	0.72
229.407	0.53
229.625	0.58
229.843	0.85
230.06	0.78
230.278	0.55
230.496	0.61
230.713	0.7
230.931	0.7
231.149	0.6
231.366	0.41
231.584	0.55
231.801	0.98
232.019	0.59
232.236	0.45
232.454	0.49
232.671	0.66
232.889	0.53
233.106	0.43
233.324	0.62
233.541	0.58
233.759	0.53
233.976	0.42
234.194	0.62
234.411	0.59
234.628	0.45
234.846	0.58
235.063	0.6
235.28	0.58
235.498	0.55
235.715	0.44
235.932	0.77
236.149	0.61
236.367	0.51
236.584	0.55
236.801	0.5
237.018	0.74
237.236	0.56
237.453	0.42
237.67	0.73
237.887	0.55
238.104	0.43
238.321	0.42
238.538	0.46
238.755	0.64
238.973	0.32
239.19	0.57
239.407	0.57
239.624	0.51
239.841	0.39
240.058	0.44
240.275	0.61
240.492	0.55
240.709	0.48
240.925	0.57
241.142	0.54
241.359	0.31
241.576	0.4
241.793	0.44
242.01	0.5
242.227	0.56
242.444	0.59
242.66	0.68
242.877	0.48
243.094	0.46
243.311	0.48
243.527	0.5
243.744	0.47
243.961	0.58
244.178	0.47
244.394	0.56
244.611	0.65
244.828	0.68
245.044	0.33
245.261	0.47
245.477	0.48
245.694	0.6
245.911	0.42
246.127	0.5
246.344	0.58
246.56	0.61
246.777	0.42
246.993	0.57
247.21	0.45
247.426	0.4
247.643	0.4
247.859	0.38
248.076	0.36
248.292	0.68
248.508	0.39
248.725	0.47
248.941	0.45
249.157	0.61
249.374	0.34
249.59	0.43
249.806	0.49
250.023	0.48
250.239	0.36
250.455	0.38
250.671	0.49
250.888	0.51
251.104	0.46
251.32	0.35
251.536	0.44
251.752	0.46
251.969	0.49
252.185	0.48
252.401	0.6
252.617	0.47
252.833	0.33
253.049	0.47
253.265	0.36
253.481	0.39
253.697	0.4
253.913	0.3
254.129	0.54
254.345	0.41
254.561	0.37
254.777	0.42
254.993	0.45
255.209	0.44
255.425	0.35
255.641	0.34
255.857	0.46
256.073	0.5
256.288	0.29
256.504	0.41
256.72	0.42
256.936	0.57
257.152	0.4
257.367	0.33
257.583	0.43
257.799	0.42
258.015	0.38
258.23	0.32
258.446	0.56
258.662	0.32
258.877	0.3
259.093	0.27
259.309	0.39
259.524	0.39
259.74	0.38
259.955	0.28
260.171	0.42
260.387	0.42
260.602	0.45
260.818	0.41
261.033	0.31
261.249	0.27
261.464	0.38
261.68	0.19
261.895	0.39
262.11	0.5
262.326	0.39
262.541	0.23
262.757	0.44
262.972	0.49
263.187	0.43
263.403	0.45
263.618	0.43
263.833	0.35
264.049	0.35
264.264	0.33
264.479	0.51
264.694	0.49
264.91	0.31
265.125	0.34
265.34	0.48
265.555	0.63
265.77	0.39
265.986	0.34
266.201	0.39
266.416	0.52
266.631	0.31
266.846	0.36
267.061	0.52
267.276	0.45
267.491	0.21
267.706	0.4
267.921	0.41
268.136	0.41
268.351	0.41
268.566	0.29
268.781	0.46
268.996	0.41
269.211	0.41
269.426	0.28
269.641	0.29
269.856	0.44
270.071	0.29
270.285	0.26
270.5	0.45
270.715	0.45
270.93	0.35
271.145	0.37
271.359	0.43
271.574	0.36
271.789	0.32
272.004	0.37
272.218	0.3
272.433	0.37
272.648	0.3
272.862	0.38
273.077	0.32
273.292	0.35
273.506	0.31
273.721	0.38
273.936	0.45
274.15	0.44
274.365	0.3
274.579	0.37
274.794	0.44
275.008	0.41
275.223	0.26
275.437	0.29
275.652	0.5
275.866	0.36
276.081	0.27
276.295	0.4
276.509	0.34
276.724	0.35
276.938	0.35
277.153	0.33
277.367	0.41
277.581	0.27
277.796	0.31
278.01	0.24
278.224	0.32
278.438	0.49
278.653	0.25
278.867	0.31
279.081	0.14
279.295	0.29
279.51	0.38
279.724	0.21
279.938	0.41
280.152	0.38
280.366	0.3
280.58	0.33
280.794	0.41
281.008	0.32
281.222	0.33
281.437	0.48
281.651	0.34
281.865	0.39
282.079	0.23
282.293	0.19
282.507	0.27
282.721	0.33
282.935	0.36
283.148	0.24
283.362	0.25
283.576	0.3
283.79	0.25
284.004	0.26
284.218	0.42
284.432	0.25
284.646	0.32
284.859	0.27
285.073	0.28
285.287	0.4
285.501	0.3
285.714	0.28
285.928	0.31
286.142	0.29
286.356	0.32
286.569	0.3
286.783	0.38
286.997	0.34
287.21	0.34
287.424	0.28
287.637	0.25
287.851	0.23
288.065	0.37
288.278	0.29
288.492	0.33
288.705	0.28
288.919	0.39
289.132	0.21
289.346	0.36
289.559	0.24
289.773	0.25
289.986	0.32
290.2	0.27
290.413	0.37
290.626	0.27
290.84	0.3
291.053	0.34
291.267	0.38
291.48	0.3
291.693	0.28
291.906	0.26
292.12	0.27
292.333	0.26
292.546	0.29
292.76	0.38
292.973	0.27
293.186	0.34
293.399	0.26
293.612	0.33
293.826	0.25
294.039	0.25
294.252	0.24
294.465	0.36
294.678	0.3
294.891	0.29
295.104	0.21
295.317	0.28
295.53	0.29
295.743	0.22
295.956	0.25
296.169	0.36
296.382	0.3
296.595	0.35
296.808	0.26
297.021	0.36
297.234	0.35
297.447	0.29
297.66	0.28
297.873	0.28
298.086	0.34
298.299	0.24
298.511	0.23
298.724	0.26
298.937	0.22
299.15	0.22
299.363	0.25
299.575	0.31
299.788	0.3
300.001	0.27
300.213	0.27
300.426	0.26
300.639	0.25
300.852	0.21
301.064	0.29
301.277	0.35
301.489	0.34
301.702	0.3
301.915	0.3
302.127	0.29
302.34	0.28
302.552	0.32
302.765	0.21
302.977	0.33
303.19	0.26
303.402	0.28
303.615	0.24
303.827	0.26
304.04	0.24
304.252	0.35
304.464	0.28
304.677	0.34
304.889	0.32
305.102	0.23
305.314	0.26
305.526	0.31
305.739	0.33
305.951	0.22
306.163	0.23
306.375	0.34
306.588	0.24
306.8	0.24
307.012	0.19
307.224	0.33
307.436	0.32
307.649	0.17
307.861	0.27
308.073	0.32
308.285	0.24
308.497	0.25
308.709	0.3
308.921	0.31
309.133	0.35
309.346	0.26
309.558	0.25
309.77	0.33
309.982	0.37
310.194	0.33
310.406	0.21
310.617	0.36
310.829	0.26
311.041	0.25
311.253	0.25
311.465	0.25
311.677	0.25
311.889	0.31
312.101	0.21
312.313	0.31
312.524	0.34
312.736	0.21
312.948	0.23
313.16	0.33
313.372	0.25
313.583	0.28
313.795	0.24
314.007	0.21
314.218	0.29
314.43	0.2
314.642	0.24
314.853	0.22
315.065	0.31
315.277	0.25
315.488	0.28
315.7	0.32
315.912	0.3
316.123	0.26
316.335	0.29
316.546	0.39
316.758	0.23
316.969	0.21
317.181	0.26
317.392	0.24
317.604	0.31
317.815	0.23
318.026	0.21
318.238	0.21
318.449	0.29
318.661	0.17
318.872	0.23
319.083	0.2
319.295	0.33
319.506	0.25
319.717	0.29
319.929	0.32
320.14	0.21
320.351	0.29
320.562	0.21
320.774	0.28
320.985	0.24
321.196	0.24
321.407	0.19
321.618	0.3
321.829	0.28
322.041	0.31
322.252	0.27
322.463	0.32
322.674	0.27
322.885	0.24
323.096	0.23
323.307	0.25
323.518	0.26
323.729	0.25
323.94	0.28
324.151	0.27
324.362	0.24
324.573	0.26
324.784	0.22
324.995	0.3
325.206	0.29
325.417	0.25
325.628	0.28
325.838	0.24
326.049	0.29
326.26	0.3
326.471	0.2
326.682	0.27
326.892	0.3
327.103	0.22
327.314	0.25
327.525	0.33
327.735	0.27
327.946	0.24
328.157	0.22
328.368	0.33
328.578	0.26
328.789	0.32
328.999	0.28
329.21	0.25
329.421	0.24
329.631	0.22
329.842	0.23
330.052	0.28
330.263	0.29
330.473	0.31
330.684	0.26
330.894	0.27
331.105	0.29
331.315	0.26
331.526	0.19
331.736	0.33
331.947	0.3
332.157	0.3
332.367	0.2
332.578	0.3
332.788	0.32
332.999	0.27
333.209	0.27
333.419	0.24
333.629	0.25
333.84	0.27
334.05	0.26
334.26	0.32
334.47	0.3
334.681	0.26
334.891	0.22
335.101	0.31
335.311	0.38
335.521	0.27
335.732	0.19
335.942	0.35
336.152	0.31
336.362	0.27
336.572	0.27
336.782	0.3
336.992	0.22
337.202	0.25
337.412	0.22
337.622	0.27
337.832	0.26
338.042	0.27
338.252	0.23
338.462	0.22
338.672	0.24
338.882	0.29
339.092	0.22
339.302	0.34
339.511	0.3
339.721	0.2
339.931	0.21
340.141	0.34
340.351	0.32
340.561	0.3
340.77	0.3
340.98	0.32
341.19	0.26
341.4	0.27
341.609	0.2
341.819	0.23
342.029	0.25
342.238	0.24
342.448	0.26
342.658	0.31
342.867	0.27
343.077	0.28
343.286	0.28
343.496	0.24
343.706	0.33
343.915	0.26
344.125	0.25
344.334	0.32
344.544	0.2
344.753	0.24
344.963	0.22
345.172	0.25
345.381	0.26
345.591	0.19
345.8	0.23
346.01	0.3
346.219	0.3
346.428	0.15
346.638	0.25
346.847	0.28
347.056	0.34
347.266	0.24
347.475	0.3
347.684	0.31
347.893	0.3
348.103	0.28
348.312	0.26
348.521	0.23
348.73	0.29
348.94	0.3
349.149	0.26
349.358	0.26
349.567	0.23
349.776	0.22
349.985	0.25
350.194	0.26
350.403	0.32
350.612	0.22
350.821	0.25
351.03	0.27
351.239	0.25
351.448	0.27
351.657	0.22
351.866	0.3
352.075	0.29
352.284	0.32
352.493	0.21
352.702	0.33
352.911	0.34
353.12	0.28
353.329	0.26
353.538	0.33
353.746	0.24
353.955	0.21
354.164	0.31
354.373	0.25
354.582	0.31
354.79	0.21
354.999	0.28
355.208	0.29
355.416	0.32
355.625	0.22
355.834	0.23
356.042	0.26
356.251	0.25
356.46	0.23
356.668	0.25
356.877	0.34
357.085	0.31
357.294	0.16
357.503	0.26
357.711	0.26
357.92	0.36
358.128	0.23
358.337	0.25
358.545	0.32
358.754	0.26
358.962	0.29
359.17	0.23
359.379	0.28
359.587	0.23
359.796	0.26
360.004	0.29
360.212	0.28
360.421	0.29
360.629	0.25
360.837	0.24
361.046	0.29
361.254	0.36
361.462	0.22
361.67	0.22
361.879	0.29
362.087	0.3
362.295	0.24
362.503	0.23
362.711	0.22
362.92	0.26
363.128	0.2
363.336	0.21
363.544	0.21
363.752	0.26
363.96	0.23
364.168	0.22
364.376	0.23
364.584	0.26
364.792	0.33
365	0.3
365.208	0.25
365.416	0.27
365.624	0.3
365.832	0.21
366.04	0.35
366.248	0.24
366.456	0.26
366.664	0.29
366.872	0.22
367.079	0.22
367.287	0.26
367.495	0.28
367.703	0.26
367.911	0.25
368.118	0.22
368.326	0.23
368.534	0.17
368.742	0.31
368.949	0.22
369.157	0.23
369.365	0.3
369.572	0.23
369.78	0.26
369.988	0.27
370.195	0.26
370.403	0.29
370.61	0.25
370.818	0.24
371.026	0.33
371.233	0.25
371.441	0.26
371.648	0.26
371.856	0.28
372.063	0.3
372.271	0.21
372.478	0.24
372.685	0.24
372.893	0.31
373.1	0.24
373.308	0.24
373.515	0.31
373.722	0.31
373.93	0.27
374.137	0.28
374.344	0.33
374.552	0.27
374.759	0.33
374.966	0.25
375.173	0.26
375.381	0.33
375.588	0.27
375.795	0.2
376.002	0.26
376.209	0.25
376.417	0.29
376.624	0.28
376.831	0.32
377.038	0.27
377.245	0.17
377.452	0.26
377.659	0.26
377.866	0.24
378.073	0.25
378.28	0.29
378.487	0.29
378.694	0.27
378.901	0.31
379.108	0.25
379.315	0.28
379.522	0.32
379.729	0.27
379.936	0.28
380.143	0.31
380.35	0.24
380.557	0.27
380.763	0.27
380.97	0.26
381.177	0.31
381.384	0.27
381.591	0.25
381.797	0.27
382.004	0.3
382.211	0.32
382.418	0.31
382.624	0.31
382.831	0.3
383.038	0.26
383.244	0.28
383.451	0.25
383.658	0.3
383.864	0.28
384.071	0.29
384.277	0.37
384.484	0.24
384.69	0.36
384.897	0.28
385.103	0.29
385.31	0.28
385.516	0.29
385.723	0.23
385.929	0.3
386.136	0.29
386.342	0.28
386.549	0.27
386.755	0.34
386.961	0.34
387.168	0.28
387.374	0.27
387.58	0.31
387.787	0.31
387.993	0.3
388.199	0.26
388.406	0.23
388.612	0.27
388.818	0.24
389.024	0.25
389.231	0.33
389.437	0.39
389.643	0.33
389.849	0.3
390.055	0.3
390.261	0.33
390.467	0.33
390.674	0.3
390.88	0.3
391.086	0.31
391.292	0.23
391.498	0.37
391.704	0.38
391.91	0.31
392.116	0.32
392.322	0.25
392.528	0.33
392.734	0.33
392.94	0.33
393.146	0.28
393.352	0.3
393.557	0.28
393.763	0.28
393.969	0.34
394.175	0.31
394.381	0.32
394.587	0.26
394.792	0.3
394.998	0.39
395.204	0.38
395.41	0.28
395.615	0.33
395.821	0.33
396.027	0.36
396.233	0.31
396.438	0.31
396.644	0.39
396.85	0.35
397.055	0.36
397.261	0.33
397.466	0.46
397.672	0.35
397.878	0.42
398.083	0.38
398.289	0.33
398.494	0.39
398.7	0.39
398.905	0.27
399.111	0.45
399.316	0.31
399.522	0.37
399.727	0.3
399.932	0.32
400.138	0.32
400.343	0.39
400.549	0.34
400.754	0.41
400.959	0.33
401.165	0.35
401.37	0.35
401.575	0.55
401.78	0.41
401.986	0.37
402.191	0.41
402.396	0.36
402.601	0.42
402.807	0.4
403.012	0.42
403.217	0.44
403.422	0.39
403.627	0.4
403.832	0.43
404.037	0.47
404.243	0.41
404.448	0.42
404.653	0.42
404.858	0.45
405.063	0.45
405.268	0.45
405.473	0.43
405.678	0.41
405.883	0.61
406.088	0.52
406.293	0.42
406.498	0.46
406.703	0.56
406.907	0.47
407.112	0.45
407.317	0.48
407.522	0.51
407.727	0.5
407.932	0.53
408.136	0.63
408.341	0.55
408.546	0.58
408.751	0.55
408.956	0.56
409.16	0.68
409.365	0.61
409.57	0.66
409.774	0.61
409.979	0.69
410.184	0.71
410.388	0.7
410.593	0.75
410.798	0.75
411.002	0.74
411.207	0.82
411.411	0.85
411.616	0.79
411.82	0.83
412.025	0.85
412.229	0.85
412.434	0.9
412.638	0.92
412.843	0.92
413.047	0.95
413.252	0.96
413.456	1.05
413.66	1.04
413.865	1.03
414.069	1.18
414.273	1.15
414.478	1.18
414.682	1.16
414.886	1.21
415.091	1.2
415.295	1.25
415.499	1.42
415.703	1.33
415.908	1.48
416.112	1.42
416.316	1.62
416.52	1.6
416.724	1.58
416.929	1.59
417.133	1.88
417.337	1.73
417.541	1.81
417.745	1.85
417.949	1.99
418.153	2.04
418.357	1.99
418.561	2.28
418.765	2.21
418.969	2.4
419.173	2.48
419.377	2.47
419.581	2.55
419.785	2.64
419.989	2.68
420.193	2.75
420.397	2.95
420.601	3.08
420.804	3.14
421.008	3.09
421.212	3.24
421.416	3.31
421.62	3.32
421.823	3.35
422.027	3.55
422.231	3.5
422.435	3.56
422.638	3.61
422.842	3.63
423.046	3.81
423.249	3.96
423.453	4
423.657	4.14
423.86	4.21
424.064	4.4
424.268	4.5
424.471	4.51
424.675	4.72
424.878	4.83
425.082	4.94
425.285	5.21
425.489	5.19
425.692	5.3
425.896	5.34
426.099	5.41
426.303	5.61
426.506	5.83
426.71	6
426.913	6.2
427.116	6.41
427.32	6.32
427.523	6.57
427.726	6.89
427.93	6.87
428.133	7.12
428.336	7.34
428.54	7.44
428.743	7.67
428.946	7.99
429.149	7.95
429.353	7.94
429.556	8.01
429.759	8.16
429.962	8.24
430.165	8.37
430.368	7.99
430.571	8.1
430.775	8.12
430.978	8.08
431.181	8.17
431.384	8.26
431.587	8.39
431.79	8.73
431.993	8.65
432.196	9
432.399	9.35
432.602	9.48
432.805	9.59
433.008	10.12
433.211	9.87
433.414	10.36
433.616	10.42
433.819	10.33
434.022	10.53
434.225	10.66
434.428	10.7
434.631	11.13
434.833	10.82
435.036	11.12
435.239	11.27
435.442	11.43
435.645	11.54
435.847	11.62
436.05	11.95
436.253	12.15
436.455	12.32
436.658	12.07
436.861	12.31
437.063	12.43
437.266	12.54
437.468	12.78
437.671	13.01
437.874	13.2
438.076	13.13
438.279	13.45
438.481	13.46
438.684	14.44
438.886	13.93
439.089	14.19
439.291	14.17
439.494	14.66
439.696	14.68
439.899	15.23
440.101	15.74
440.303	15.89
440.506	16.6
440.708	16.26
440.91	16.62
441.113	16.82
441.315	17.09
441.517	16.82
441.72	17.37
441.922	17.03
442.124	16.71
442.326	17.28
442.529	17.46
442.731	17.43
442.933	17.77
443.135	17.62
443.337	17.54
443.539	18.11
443.742	17.73
443.944	18.38
444.146	18.14
444.348	18.11
444.55	18.1
444.752	18.08
444.954	18.2
445.156	18.05
445.358	18.65
445.56	18.7
445.762	18.52
445.964	18.88
446.166	18.67
446.368	18.71
446.57	18.65
446.772	18.31
446.974	18.04
447.175	18.38
447.377	18.01
447.579	18.49
447.781	18.06
447.983	17.91
448.184	17.47
448.386	17.85
448.588	17.33
448.79	17.33
448.991	17.63
449.193	17.49
449.395	16.81
449.597	16.67
449.798	16.32
450	16.06
450.202	15.89
450.403	15.88
450.605	15.9
450.806	15.39
451.008	15.35
451.21	15.05
451.411	14.67
451.613	13.77
451.814	14.16
452.016	14.06
452.217	13.37
452.419	13.3
452.62	12.97
452.821	12.83
453.023	12.63
453.224	12.39
453.426	11.9
453.627	11.14
453.828	11.31
454.03	11.39
454.231	11.48
454.432	11.04
454.634	10.82
454.835	10.51
455.036	10.38
455.238	10.12
455.439	9.77
455.64	9.57
455.841	9.37
456.042	9.53
456.244	9.26
456.445	8.94
456.646	8.66
456.847	8.66
457.048	8.44
457.249	8.53
457.45	8.23
457.651	7.76
457.852	7.62
458.054	7.27
458.255	7.24
458.456	7.28
458.657	7.18
458.858	6.77
459.058	6.67
459.259	6.66
459.46	6.4
459.661	6.43
459.862	6.5
460.063	6.41
460.264	6.21
460.465	6.02
460.666	6.06
460.866	5.78
461.067	5.46
461.268	5.55
461.469	5.52
461.67	5.42
461.87	5.21
462.071	5.33
462.272	5.24
462.473	5.09
462.673	5.33
462.874	5.17
463.075	5.08
463.275	5.08
463.476	5.19
463.676	5.09
463.877	5.02
464.078	4.96
464.278	4.98
464.479	4.89
464.679	4.77
464.88	4.73
465.08	4.66
465.281	4.49
465.481	4.26
465.682	4.14
465.882	4.2
466.083	4.12
466.283	3.98
466.483	3.91
466.684	3.78
466.884	3.63
467.085	3.69
467.285	3.75
467.485	3.61
467.686	3.45
467.886	3.47
468.086	3.38
468.286	3.35
468.487	3.44
468.687	3.25
468.887	3.21
469.087	3.37
469.287	3.27
469.488	3.07
469.688	3.24
469.888	3.18
470.088	3.13
470.288	3.03
470.488	2.96
470.688	2.86
470.888	2.85
471.088	2.67
471.288	2.77
471.488	2.79
471.688	2.78
471.888	2.73
472.088	2.81
472.288	2.68
472.488	2.59
472.688	2.61
472.888	2.67
473.088	2.6
473.288	2.52
473.488	2.47
473.688	2.6
473.887	2.44
474.087	2.42
474.287	2.49
474.487	2.43
474.687	2.42
474.886	2.33
475.086	2.25
475.286	2.35
475.486	2.26
475.685	2.22
475.885	2.22
476.085	2.29
476.284	2.27
476.484	2.26
476.684	2.23
476.883	2.32
477.083	2.17
477.282	2.14
477.482	2.16
477.681	2.23
477.881	2.05
478.08	2.07
478.28	2.04
478.479	2.07
478.679	2.1
478.878	2.08
479.078	2.06
479.277	2.11
479.477	2.07
479.676	2.07
479.875	2.03
480.075	1.95
480.274	2
480.473	2.06
480.673	2.03
480.872	2.09
481.071	2.06
481.271	2.06
481.47	1.96
481.669	2.04
481.868	1.95
482.067	1.99
482.267	1.95
482.466	1.93
482.665	1.91
482.864	1.96
483.063	1.93
483.262	1.97
483.461	2.04
483.661	2.08
483.86	2.02
484.059	2.06
484.258	2.02
484.457	2.02
484.656	2.06
484.855	2.04
485.054	1.95
485.253	1.99
485.452	1.97
485.651	2.04
485.849	2
486.048	2
486.247	2.03
486.446	2.05
486.645	1.99
486.844	2.05
487.043	2.04
487.241	2.06
487.44	2.11
487.639	2.12
487.838	2.12
488.037	2.15
488.235	2.2
488.434	2.15
488.633	2.06
488.831	2.23
489.03	2.21
489.229	2.21
489.427	2.21
489.626	2.27
489.825	2.26
490.023	2.34
490.222	2.25
490.42	2.33
490.619	2.39
490.817	2.36
491.016	2.35
491.214	2.39
491.413	2.46
491.611	2.4
491.81	2.39
492.008	2.46
492.207	2.59
492.405	2.51
492.604	2.47
492.802	2.54
493	2.6
493.199	2.6
493.397	2.62
493.595	2.71
493.794	2.69
493.992	2.78
494.19	2.77
494.388	2.83
494.587	2.73
494.785	2.77
494.983	2.71
495.181	2.9
495.379	2.92
495.578	2.94
495.776	2.99
495.974	2.89
496.172	2.94
496.37	3.1
496.568	3.1
496.766	3.1
496.964	3.18
497.162	3.15
497.36	3.21
497.558	3.24
497.756	3.29
497.954	3.3
498.152	3.32
498.35	3.43
498.548	3.35
498.746	3.36
498.944	3.39
499.142	3.45
499.34	3.53
499.538	3.62
499.736	3.5
499.933	3.6
500.131	3.61
500.329	3.78
500.527	3.73
500.725	3.83
500.922	3.86
501.12	3.85
501.318	3.97
501.516	3.9
501.713	4
501.911	4
502.109	3.96
502.306	4.07
502.504	3.98
502.701	4.09
502.899	4.16
503.097	4.35
503.294	4.2
503.492	4.33
503.689	4.33
503.887	4.34
504.084	4.47
504.282	4.41
504.479	4.4
504.677	4.55
504.874	4.57
505.072	4.43
505.269	4.67
505.466	4.73
505.664	4.73
505.861	4.63
506.059	4.77
506.256	4.76
506.453	4.84
506.651	4.96
506.848	4.99
507.045	4.95
507.242	4.97
507.44	4.99
507.637	5.05
507.834	5.07
508.031	5.19
508.229	5.11
508.426	5.09
508.623	5.29
508.82	5.27
509.017	5.25
509.214	5.27
509.411	5.43
509.608	5.34
509.805	5.47
510.003	5.41
510.2	5.52
510.397	5.66
510.594	5.55
510.791	5.61
510.988	5.69
511.184	5.62
511.381	5.57
511.578	5.68
511.775	5.8
511.972	5.72
512.169	5.8
512.366	5.84
512.563	5.95
512.76	5.94
512.956	6
513.153	6.01
513.35	5.91
513.547	5.92
513.744	6.03
513.94	6.05
514.137	6.16
514.334	6.15
514.53	6.16
514.727	6.35
514.924	6.24
515.12	6.26
515.317	6.26
515.514	6.23
515.71	6.18
515.907	6.43
516.103	6.38
516.3	6.34
516.497	6.47
516.693	6.5
516.89	6.48
517.086	6.52
517.283	6.5
517.479	6.4
517.676	6.64
517.872	6.64
518.068	6.65
518.265	6.6
518.461	6.58
518.658	6.69
518.854	6.72
519.05	6.79
519.247	6.79
519.443	6.77
519.639	6.91
519.836	6.8
520.032	6.75
520.228	6.89
520.424	6.84
520.621	6.93
520.817	6.99
521.013	6.94
521.209	7.13
521.405	7.08
521.601	7.03
521.798	6.97
521.994	7.04
522.19	6.97
522.386	7.02
522.582	7.12
522.778	7.25
522.974	7.11
523.17	7.11
523.366	7.13
523.562	7.21
523.758	7.23
523.954	7.05
524.15	7.19
524.346	7.23
524.542	7.24
524.738	7.23
524.934	7.42
525.129	7.31
525.325	7.21
525.521	7.25
525.717	7.49
525.913	7.33
526.109	7.38
526.304	7.44
526.5	7.39
526.696	7.41
526.892	7.32
527.087	7.56
527.283	7.5
527.479	7.49
527.674	7.28
527.87	7.54
528.066	7.56
528.261	7.5
528.457	7.48
528.653	7.66
528.848	7.56
529.044	7.65
529.239	7.53
529.435	7.53
529.63	7.45
529.826	7.56
530.021	7.57
530.217	7.64
530.412	7.6
530.608	7.64
530.803	7.64
530.999	7.51
531.194	7.63
531.389	7.72
531.585	7.69
531.78	7.81
531.975	7.69
532.171	7.71
532.366	7.73
532.561	7.72
532.757	7.73
532.952	7.87
533.147	7.65
533.342	7.78
533.538	7.63
533.733	7.9
533.928	7.59
534.123	7.8
534.318	7.86
534.513	7.71
534.709	7.9
534.904	7.78
535.099	7.92
535.294	7.89
535.489	7.94
535.684	7.88
535.879	7.81
536.074	7.9
536.269	7.91
536.464	7.91
536.659	7.92
536.854	7.88
537.049	7.94
537.244	7.87
537.439	7.93
537.634	7.9
537.828	7.94
538.023	7.93
538.218	7.95
538.413	7.85
538.608	7.98
538.803	7.9
538.997	7.91
539.192	7.91
539.387	7.92
539.582	7.93
539.776	7.83
539.971	8
540.166	8.02
540.36	7.95
540.555	8.06
540.75	7.99
540.944	7.98
541.139	7.94
541.334	7.97
541.528	8.05
541.723	8.08
541.917	8.1
542.112	7.97
542.306	7.86
542.501	7.91
542.695	7.98
542.89	7.95
543.084	7.99
543.279	8.05
543.473	8.1
543.668	8.11
543.862	7.93
544.056	7.88
544.251	8.05
544.445	8.13
544.64	8.13
544.834	7.82
545.028	7.64
545.222	8.07
545.417	8.22
545.611	8.09
545.805	8.13
546	7.86
546.194	8.09
546.388	8.05
546.582	7.99
546.776	7.99
546.97	8.05
547.165	8.03
547.359	8.03
547.553	7.99
547.747	8.03
547.941	8.25
548.135	8.02
548.329	8.11
548.523	8.11
548.717	7.98
548.911	7.96
549.105	7.98
549.299	8.11
549.493	8.11
549.687	8.03
549.881	8.18
550.075	8.11
550.269	7.95
550.463	8.1
550.657	8.09
550.85	8.05
551.044	8.07
551.238	8.13
551.432	8.07
551.626	8.16
551.82	8.15
552.013	7.98
552.207	8.15
552.401	8.15
552.594	8.06
552.788	8.01
552.982	8.03
553.176	8.01
553.369	8.23
553.563	8.14
553.756	8.01
553.95	8.08
554.144	8.16
554.337	8.16
554.531	7.88
554.724	8.11
554.918	8.14
555.111	8.12
555.305	8.13
555.498	8.04
555.692	8.18
555.885	8.14
556.079	8.07
556.272	8.12
556.466	8.09
556.659	8.03
556.852	8.19
557.046	8.03
557.239	8
557.432	8.08
557.626	8.15
557.819	8.21
558.012	8.11
558.206	8.2
558.399	8.14
558.592	8.01
558.785	8.06
558.979	8.09
559.172	8.12
559.365	8.13
559.558	8.05
559.751	8.02
559.944	8.22
560.138	8.01
560.331	8.07
560.524	8.14
560.717	8.1
560.91	8.07
561.103	8.05
561.296	7.94
561.489	8.13
561.682	8.2
561.875	8.13
562.068	8.18
562.261	7.99
562.454	8.28
562.647	8.07
562.84	8.13
563.032	8.12
563.225	8
563.418	8.06
563.611	8.13
563.804	8.13
563.997	7.94
564.19	7.89
564.382	8.21
564.575	8.06
564.768	8.08
564.961	8.1
565.153	7.97
565.346	8.01
565.539	8.15
565.731	8.13
565.924	8.19
566.117	8.21
566.309	8.1
566.502	7.97
566.695	8
566.887	8.13
567.08	8.01
567.272	8.09
567.465	7.99
567.657	8.12
567.85	8
568.042	8.09
568.235	8.12
568.427	7.91
568.62	8.06
568.812	8.01
569.005	8.12
569.197	7.93
569.389	8.08
569.582	8.03
569.774	8.07
569.966	7.95
570.159	7.94
570.351	8.01
570.543	7.95
570.736	8.08
570.928	7.95
571.12	7.98
571.312	7.95
571.505	7.76
571.697	8.07
571.889	8.04
572.081	8.03
572.273	7.94
572.465	7.96
572.658	7.98
572.85	7.97
573.042	8.05
573.234	7.93
573.426	7.99
573.618	7.89
573.81	8.01
574.002	7.93
574.194	7.97
574.386	7.95
574.578	7.84
574.77	7.9
574.962	7.96
575.154	7.87
575.346	7.83
575.538	7.83
575.729	7.87
575.921	7.94
576.113	7.97
576.305	7.92
576.497	7.95
576.689	7.82
576.88	7.73
577.072	7.97
577.264	7.86
577.456	7.94
577.647	7.8
577.839	7.93
578.031	7.86
578.223	7.82
578.414	7.78
578.606	7.8
578.798	7.88
578.989	7.82
579.181	7.94
579.372	7.84
579.564	7.84
579.755	7.77
579.947	7.75
580.139	7.78
580.33	7.67
580.522	7.79
580.713	7.71
580.905	7.75
581.096	7.83
581.287	7.75
581.479	7.76
581.67	7.74
581.862	7.67
582.053	7.66
582.244	7.62
582.436	7.79
582.627	7.67
582.818	7.58
583.01	7.65
583.201	7.67
583.392	7.68
583.583	7.63
583.775	7.48
583.966	7.54
584.157	7.64
584.348	7.67
584.54	7.54
584.731	7.61
584.922	7.54
585.113	7.44
585.304	7.63
585.495	7.59
585.686	7.6
585.877	7.62
586.068	7.64
586.259	7.6
586.45	7.52
586.641	7.47
586.832	7.56
587.023	7.47
587.214	7.44
587.405	7.53
587.596	7.41
587.787	7.32
587.978	7.51
588.169	7.4
588.36	7.36
588.551	7.42
588.742	7.44
588.932	7.46
589.123	7.26
589.314	7.47
589.505	7.31
589.696	7.38
589.886	7.29
590.077	7.35
590.268	7.26
590.458	7.28
590.649	7.17
590.84	7.22
591.03	7.31
591.221	7.26
591.412	7.18
591.602	7.34
591.793	7.28
591.984	7.26
592.174	7.24
592.365	7.31
592.555	7.09
592.746	7.07
592.936	7.15
593.127	7.17
593.317	7.16
593.508	7.12
593.698	7.05
593.889	7.12
594.079	7.09
594.269	7.02
594.46	7.08
594.65	7.08
594.84	7.03
595.031	6.97
595.221	7
595.411	6.96
595.602	7.01
595.792	6.93
595.982	6.87
596.172	7.07
596.363	6.87
596.553	6.91
596.743	6.96
596.933	6.95
597.123	6.87
597.314	6.71
597.504	6.76
597.694	6.86
597.884	6.8
598.074	6.83
598.264	6.82
598.454	6.76
598.644	6.81
598.834	6.76
599.024	6.69
599.214	6.63
599.404	6.76
599.594	6.79
599.784	6.61
599.974	6.81
600.164	6.77
600.354	6.61
600.544	6.64
600.734	6.68
600.924	6.57
601.114	6.58
601.303	6.63
601.493	6.53
601.683	6.57
601.873	6.53
602.063	6.49
602.252	6.54
602.442	6.4
602.632	6.4
602.821	6.37
603.011	6.47
603.201	6.46
603.39	6.43
603.58	6.29
603.77	6.43
603.959	6.44
604.149	6.36
604.339	6.36
604.528	6.39
604.718	6.38
604.907	6.38
605.097	6.25
605.286	6.29
605.476	6.22
605.665	6.25
605.855	6.21
606.044	6.26
606.234	6.21
606.423	6.18
606.612	6.17
606.802	6.16
606.991	6.19
607.181	6.14
607.37	6.15
607.559	5.95
607.749	6.1
607.938	5.98
608.127	6.04
608.316	6.04
608.506	6
608.695	6.08
608.884	6.02
609.073	5.95
609.263	6.03
609.452	6.05
609.641	5.89
609.83	5.85
610.019	5.92
610.208	5.85
610.397	5.89
610.586	5.82
610.775	5.83
610.965	5.8
611.154	5.71
611.343	5.84
611.532	5.72
611.721	5.8
611.91	5.7
612.099	5.68
612.287	5.59
612.476	5.61
612.665	5.76
612.854	5.61
613.043	5.6
613.232	5.63
613.421	5.51
613.61	5.62
613.798	5.57
613.987	5.6
614.176	5.54
614.365	5.49
614.554	5.57
614.742	5.57
614.931	5.38
615.12	5.52
615.309	5.48
615.497	5.37
615.686	5.28
615.875	5.41
616.063	5.44
616.252	5.32
616.44	5.36
616.629	5.29
616.818	5.32
617.006	5.22
617.195	5.22
617.383	5.26
617.572	5.21
617.76	5.22
617.949	5.19
618.137	5.28
618.326	5.23
618.514	5.04
618.703	5.03
618.891	5.17
619.079	5.09
619.268	5.18
619.456	5.03
619.644	5.15
619.833	5.04
620.021	5
620.209	4.94
620.398	5.03
620.586	4.89
620.774	5.02
620.962	4.98
621.151	5.01
621.339	4.87
621.527	4.89
621.715	4.86
621.903	4.83
622.092	4.77
622.28	4.9
622.468	4.68
622.656	4.87
622.844	4.78
623.032	4.88
623.22	4.66
623.408	4.8
623.596	4.75
623.784	4.72
623.972	4.71
624.16	4.66
624.348	4.72
624.536	4.73
624.724	4.59
624.912	4.66
625.1	4.62
625.288	4.61
625.476	4.52
625.664	4.61
625.851	4.45
626.039	4.57
626.227	4.55
626.415	4.48
626.603	4.41
626.79	4.46
626.978	4.41
627.166	4.44
627.354	4.37
627.541	4.37
627.729	4.28
627.917	4.51
628.104	4.4
628.292	4.3
628.48	4.31
628.667	4.29
628.855	4.34
629.042	4.39
629.23	4.31
629.418	4.25
629.605	4.3
629.793	4.1
629.98	4.19
630.168	4.2
630.355	4.2
630.543	4.11
630.73	4.09
630.917	4.18
631.105	4.2
631.292	4.11
631.48	4.09
631.667	4.23
631.854	4
632.042	4.06
632.229	4.02
632.416	4.13
632.604	3.96
632.791	3.88
632.978	3.98
633.165	3.99
633.353	3.98
633.54	4.03
633.727	3.85
633.914	3.85
634.101	3.86
634.289	3.97
634.476	3.85
634.663	3.82
634.85	3.84
635.037	3.76
635.224	3.74
635.411	3.8
635.598	3.73
635.785	3.78
635.972	3.73
636.159	3.77
636.346	3.68
636.533	3.65
636.72	3.68
636.907	3.67
637.094	3.6
637.281	3.53
637.468	3.61
637.655	3.68
637.842	3.6
638.029	3.6
638.215	3.59
638.402	3.58
638.589	3.49
638.776	3.45
638.963	3.47
639.149	3.58
639.336	3.56
639.523	3.45
639.709	3.47
639.896	3.43
640.083	3.45
640.27	3.51
640.456	3.38
640.643	3.36
640.829	3.27
641.016	3.33
641.203	3.28
641.389	3.32
641.576	3.31
641.762	3.27
641.949	3.23
642.135	3.32
642.322	3.26
642.508	3.15
642.695	3.29
642.881	3.22
643.068	3.14
643.254	3.27
643.441	3.21
643.627	3.23
643.813	3.07
644	3.17
644.186	3.03
644.372	3.15
644.559	3.14
644.745	3.14
644.931	3.06
645.118	3.13
645.304	3.07
645.49	3.05
645.676	2.98
645.862	3.02
646.049	3.08
646.235	2.99
646.421	3.1
646.607	3.04
646.793	2.96
646.979	2.94
647.165	2.96
647.352	2.96
647.538	2.95
647.724	2.91
647.91	2.87
648.096	2.9
648.282	2.92
648.468	2.88
648.654	2.89
648.84	2.86
649.026	2.84
649.212	2.8
649.397	2.77
649.583	2.79
649.769	2.86
649.955	2.75
650.141	2.79
650.327	2.83
650.513	2.75
650.698	2.78
650.884	2.62
651.07	2.78
651.256	2.7
651.442	2.76
651.627	2.68
651.813	2.72
651.999	2.64
652.184	2.65
652.37	2.64
652.556	2.64
652.741	2.67
652.927	2.47
653.113	2.63
653.298	2.58
653.484	2.57
653.669	2.61
653.855	2.56
654.04	2.65
654.226	2.61
654.412	2.52
654.597	2.49
654.782	2.52
654.968	2.53
655.153	2.52
655.339	2.52
655.524	2.47
655.71	2.55
655.895	2.52
656.08	2.47
656.266	2.53
656.451	2.43
656.636	2.46
656.822	2.39
657.007	2.39
657.192	2.41
657.378	2.4
657.563	2.42
657.748	2.42
657.933	2.39
658.118	2.33
658.304	2.37
658.489	2.38
658.674	2.33
658.859	2.29
659.044	2.34
659.229	2.32
659.414	2.32
659.599	2.29
659.785	2.26
659.97	2.28
660.155	2.35
660.34	2.29
660.525	2.25
660.71	2.25
660.895	2.27
661.08	2.21
661.264	2.16
661.449	2.26
661.634	2.17
661.819	2.21
662.004	2.14
662.189	2.1
662.374	2.09
662.559	2.08
662.743	2.02
662.928	2.09
663.113	2.06
663.298	2.02
663.483	2.08
663.667	2.01
663.852	1.99
664.037	2.1
664.221	2
664.406	2.06
664.591	2.01
664.775	1.96
664.96	1.96
665.145	1.95
665.329	2.02
665.514	1.94
665.698	1.93
665.883	1.88
666.068	1.93
666.252	1.88
666.437	1.85
666.621	1.91
666.806	1.84
666.99	1.83
667.174	1.79
667.359	1.87
667.543	1.82
667.728	1.77
667.912	1.71
668.096	1.84
668.281	1.74
668.465	1.79
668.649	1.78
668.834	1.7
669.018	1.73
669.202	1.71
669.387	1.67
669.571	1.79
669.755	1.66
669.939	1.69
670.124	1.69
670.308	1.72
670.492	1.71
670.676	1.66
670.86	1.69
671.044	1.64
671.228	1.71
671.413	1.6
671.597	1.65
671.781	1.63
671.965	1.62
672.149	1.56
672.333	1.6
672.517	1.57
672.701	1.62
672.885	1.58
673.069	1.56
673.253	1.66
673.437	1.52
673.621	1.53
673.804	1.57
673.988	1.59
674.172	1.56
674.356	1.45
674.54	1.53
674.724	1.54
674.908	1.51
675.091	1.54
675.275	1.52
675.459	1.56
675.643	1.53
675.826	1.47
676.01	1.46
676.194	1.49
676.377	1.52
676.561	1.48
676.745	1.45
676.928	1.45
677.112	1.53
677.296	1.41
677.479	1.38
677.663	1.39
677.846	1.47
678.03	1.4
678.213	1.31
678.397	1.43
678.58	1.36
678.764	1.4
678.947	1.31
679.131	1.33
679.314	1.35
679.498	1.37
679.681	1.4
679.865	1.4
680.048	1.36
680.231	1.29
680.415	1.27
680.598	1.32
680.781	1.29
680.965	1.34
681.148	1.34
681.331	1.25
681.514	1.29
681.698	1.26
681.881	1.28
682.064	1.24
682.247	1.24
682.43	1.19
682.614	1.27
682.797	1.29
682.98	1.26
683.163	1.18
683.346	1.25
683.529	1.23
683.712	1.15
683.895	1.24
684.078	1.14
684.261	1.16
684.444	1.24
684.627	1.21
684.81	1.14
684.993	1.2
685.176	1.22
685.359	1.17
685.542	1.13
685.725	1.26
685.908	1.12
686.091	1.12
686.274	1.22
686.457	1.17
686.639	1.16
686.822	1.2
687.005	1.1
687.188	1.14
687.371	1.23
687.553	1.23
687.736	1.17
687.919	1.2
688.102	1.25
688.284	1.09
688.467	1.07
688.65	1.1
688.832	1.03
689.015	1.03
689.197	0.93
689.38	1.19
689.563	1.15
689.745	0.99
689.928	1.04
690.11	1
690.293	1.04
690.475	0.98
690.658	1.04
690.84	1.04
691.023	1.06
691.205	0.98
691.388	1
691.57	1.07
691.752	1.01
691.935	0.96
692.117	0.96
692.3	1.01
692.482	1
692.664	0.94
692.847	1.01
693.029	1.03
693.211	1.02
693.393	0.96
693.576	0.94
693.758	1.02
693.94	1.02
694.122	0.92
694.304	0.96
694.487	0.93
694.669	0.97
694.851	0.87
695.033	0.96
695.215	0.93
695.397	0.85
695.579	0.97
695.761	0.88
695.943	0.9
696.125	0.95
696.308	0.9
696.49	0.81
696.671	1.04
696.853	0.91
697.035	1.12
697.217	0.85
697.399	0.96
697.581	0.83
697.763	0.93
697.945	0.86
698.127	0.85
698.309	0.98
698.491	0.89
698.672	0.93
698.854	0.94
699.036	0.89
699.218	0.84
699.399	0.94
699.581	0.89
699.763	0.85
699.945	0.82
700.126	0.8
700.308	0.86
700.49	0.81
700.671	0.77
700.853	0.82
701.035	0.79
701.216	0.85
701.398	0.76
701.579	0.76
701.761	0.9
701.943	0.82
702.124	0.8
702.306	0.77
702.487	0.99
702.669	0.79
702.85	0.76
703.031	0.71
703.213	0.9
703.394	0.9
703.576	0.74
703.757	0.93
703.938	0.83
704.12	0.95
704.301	0.82
704.483	0.74
704.664	0.79
704.845	0.89
705.026	0.82
705.208	0.72
705.389	0.81
705.57	0.81
705.751	0.75
705.933	0.86
706.114	0.86
706.295	0.77
706.476	0.69
706.657	0.87
706.838	0.75
707.02	0.86
707.201	0.76
707.382	0.75
707.563	0.78
707.744	0.7
707.925	0.64
708.106	0.7
708.287	0.79
708.468	0.81
708.649	0.69
708.83	0.75
709.011	0.67
709.192	0.81
709.373	0.65
709.554	0.73
709.734	0.8
709.915	0.69
710.096	0.69
710.277	0.6
710.458	0.72
710.639	0.73
710.819	0.56
711	0.68
711.181	0.72
711.362	0.74
711.542	0.61
711.723	0.67
711.904	0.78
712.085	0.68
712.265	0.77
712.446	0.58
712.627	0.68
712.807	0.68
712.988	0.67
713.168	0.56
713.349	0.7
713.53	0.54
713.71	0.65
713.891	0.57
714.071	0.67
714.252	0.64
714.432	0.63
714.613	0.63
714.793	0.67
714.974	0.74
715.154	0.73
715.334	0.78
715.515	0.74
715.695	0.52
715.876	0.66
716.056	0.63
716.236	0.57
716.417	0.69
716.597	0.6
716.777	0.75
716.957	0.62
717.138	0.67
717.318	0.63
717.498	0.59
717.678	0.63
717.859	0.62
718.039	0.63
718.219	0.64
718.399	0.73
718.579	0.62
718.759	0.57
718.939	0.59
719.12	0.65
719.3	0.67
719.48	0.51
719.66	0.55
719.84	0.74
720.02	0.61
720.2	0.56
720.38	0.63
720.56	0.75
720.74	0.63
720.92	0.62
721.1	0.76
721.279	0.69
721.459	0.61
721.639	0.58
721.819	0.62
721.999	0.55
722.179	0.65
722.359	0.53
722.538	0.66
722.718	0.57
722.898	0.64
723.078	0.58
723.257	0.54
723.437	0.64
723.617	0.67
723.797	0.59
723.976	0.58
724.156	0.66
724.336	0.74
724.515	0.79
724.695	0.49
724.874	0.65
725.054	0.72
725.234	0.54
725.413	0.63
725.593	0.58
725.772	0.59
725.952	0.6
726.131	0.63
726.311	0.55
726.49	0.6
726.67	0.54
726.849	0.59
727.028	0.68
727.208	0.58
727.387	0.67
727.567	0.46
727.746	0.54
727.925	0.58
728.105	0.5
728.284	0.54
728.463	0.55
728.643	0.63
728.822	0.48
729.001	0.61
729.18	0.49
729.359	0.64
729.539	0.56
729.718	0.65
729.897	0.63
730.076	0.62
730.255	0.49
730.434	0.62
730.614	0.63
730.793	0.65
730.972	0.61
731.151	0.6
731.33	0.68
731.509	0.65
731.688	0.54
731.867	0.63
732.046	0.41
732.225	0.81
732.404	0.5
732.583	0.58
732.762	0.62
732.941	0.63
733.12	0.69
733.298	0.53
733.477	0.74
733.656	0.5
733.835	0.52
734.014	0.67
734.193	0.57
734.371	0.74
734.55	0.74
734.729	0.53
734.908	0.65
735.086	0.65
735.265	0.7
735.444	0.54
735.623	0.52
735.801	0.56
735.98	0.59
736.159	0.58
736.337	0.81
736.516	0.73
736.694	0.69
736.873	0.55
737.052	0.85
737.23	0.68
737.409	0.57
737.587	0.79
737.766	0.48
737.944	0.54
738.123	0.76
738.301	0.65
738.479	0.59
738.658	0.63
738.836	0.36
739.015	0.64
739.193	0.7
739.371	0.6
739.55	0.55
739.728	0.52
739.906	0.92
740.085	0.8
740.263	0.61
740.441	0.41
740.62	0.89
740.798	0.68
740.976	0.48
741.154	0.43
741.332	0.77
741.511	0.63
741.689	0.68
741.867	0.63
742.045	0.58
742.223	0.48
742.401	0.48
742.579	0.47
742.757	0.58
742.935	0.51
743.114	0.56
743.292	0.56
743.47	0.56
743.648	0.53
743.826	0.48
744.004	0.63
744.181	0.63
744.359	0.57
744.537	0.56
744.715	0.49
744.893	0.51
745.071	0.49
745.249	0.44
745.427	0.54
745.605	0.57
745.782	0.5
745.96	0.53
746.138	0.65
746.316	0.53
746.493	0.49
746.671	0.55
746.849	0.49
747.027	0.67
747.204	0.38
747.382	0.51
747.56	0.34
747.737	0.45
747.915	0.41
748.093	0.52
748.27	0.36
748.448	0.44
748.625	0.23
748.803	0.34
748.98	0.46
749.158	0.53
749.335	0.49
749.513	0.37
749.69	0.4
749.868	0.41
750.045	0.49
750.223	0.32
750.4	0.26
750.578	0.6
750.755	0.39
750.932	0.22
751.11	0.55
751.287	0.35
751.464	0.65
751.642	0.25
751.819	0.51
751.996	0.48
752.173	0.34
752.351	0.3
752.528	0.56
752.705	0.48
752.882	0.42
753.06	0.63
753.237	0.48
753.414	0.64
753.591	0.63
753.768	0.45
753.945	0.35
754.122	0.44
754.299	0.46
754.476	0.4
754.654	0.5
754.831	0.53
755.008	0.5
755.185	0.37
755.362	0.35
755.539	0.41
755.716	0.57
755.892	0.39
756.069	0.43
756.246	0.48
756.423	0.35
756.6	0.5
756.777	0.45
756.954	0.55
757.131	0.45
757.307	0.34
757.484	0.23
757.661	0.39
757.838	0.61
758.015	0.31
758.191	0.55
758.368	0.41
758.545	0.64
758.721	0.47
758.898	0.25
759.075	0.49
759.251	0.55
759.428	0.59
759.605	0.27
759.781	0.38
759.958	0.36
760.134	0.52
760.311	0.37
760.488	0.57
760.664	0.51
760.841	0.47
761.017	0.3
761.194	0.38
761.37	0.52
761.547	0.4
761.723	0.38
761.899	0.5
762.076	0.26
762.252	0.27
762.429	0.43
762.605	0.61
762.781	0.32
762.958	0.43
763.134	0.35
763.31	0.32
763.486	0.62
763.663	0.2
763.839	0.39
764.015	0.16
764.191	0.26
764.368	0.33
764.544	0.37
764.72	0.44
764.896	0.42
765.072	0.38
765.248	0.36
765.425	0.36
765.601	0.28
765.777	0.5
765.953	0.1
766.129	0.4
766.305	0.28
766.481	0.38
766.657	0.47
766.833	0.57
767.009	0.24
767.185	0.36
767.361	0.37
767.537	0.2
767.713	0.5
767.889	0.42
768.065	0.32
768.24	0.48
768.416	0.5
768.592	0.31
768.768	0.33
768.944	0.56
769.12	0.24
769.295	0.44
769.471	0.27
769.647	0.36
769.823	0.57
769.998	0.41
770.174	0.29
770.35	0.69
770.525	0.68
770.701	0.45
770.877	0.4
771.052	0.34
771.228	0.47
771.403	0.4
771.579	0.34
771.755	0.67
771.93	0.39
772.106	0.37
772.281	0.24
772.457	0.53
772.632	0.33
772.808	0.17
772.983	0.17
773.159	0.21
773.334	0.61
773.509	0.43
773.685	0.15
773.86	0.72
774.036	0.66
774.211	0.49
774.386	0.56
774.562	0.46
774.737	0.49
774.912	0.21
775.087	0.48
775.263	0.33
775.438	0.44
775.613	0.29
775.788	0.46
775.964	0.73
776.139	0.85
776.314	0.36
776.489	0.39
776.664	0.47
776.839	0.4
777.014	0.53
777.19	0.65
777.365	0.81
777.54	0.68
777.715	0.08
777.89	0.48
778.065	0.3
778.24	0.44
778.415	0.55
778.59	0.33
778.765	0.34
778.94	0.44
779.115	0.48
779.289	0.27
779.464	0.5
779.639	0.55
779.814	0.26
779.989	0.31
780.164	0.68
780.339	0.49
780.513	0.39
780.688	0.19
780.863	0.4
781.038	0.54
781.212	0.4
781.387	0.46
781.562	0.73
781.737	0.51
781.911	0.59
782.086	0.37
782.261	0.46
782.435	0.75
782.61	0.44
782.784	0.44
782.959	0.54
783.134	0.25
783.308	0.41
783.483	0.37
783.657	0.75
783.832	0.63
784.006	0.16
784.181	0.63
784.355	0.63
784.53	0.6
784.704	0.18
784.878	0.65
785.053	0.61
785.227	0.54
785.402	0.83
785.576	0.2
785.75	0.29
785.925	0.39
786.099	0.66
786.273	0.7
786.448	0.7
786.622	0.66
786.796	0.31
786.97	0.39
787.145	1.02
787.319	0.28
787.493	0.32
787.667	0.33
787.841	0.31
788.015	0.67
788.19	0.31
788.364	0.52
788.538	0.55
788.712	0.73
788.886	0.64
789.06	0.8
789.234	0.69
789.408	0.23
789.582	0.18
789.756	0.36
789.93	0.22
790.104	0.43
790.278	0.42
790.452	0.2
790.626	0.64
790.8	0.37
790.973	0.75
791.147	0.68
791.321	0.64
791.495	0.57
791.669	0.4
791.843	0.63
792.016	0.63
792.19	0.71
792.364	0.24
792.538	1.23
792.711	0.8
792.885	0.4
793.059	0.3
793.233	0.06
793.406	0.78
793.58	0.58
793.754	0.44
793.927	0.57
794.101	0.71
794.274	0.68
794.448	0.56
794.622	0.18
794.795	0.82
794.969	0.26
795.142	0.94
795.316	0.35
795.489	0.59
795.663	0.77
795.836	0.6
796.009	0.44
796.183	0.68
796.356	0.67
796.53	0.94
796.703	0.4
796.876	1.2
797.05	0.56
797.223	0.51
797.396	0.74
797.57	0.59
797.743	0.83
797.916	0.67
798.09	0.46
798.263	0.82
798.436	0.51
798.609	0.32
798.782	0.46
798.956	0.48
799.129	0.62
799.302	0.46
799.475	0.36
799.648	0.51
799.821	0.52
799.994	0.48
800.167	0.27
800.34	0.61
800.514	0.44
800.687	0.33
800.86	0.62
801.033	0.58
801.206	0.43
801.379	0.36
801.551	0.7
801.724	1.16
801.897	0.9
802.07	0.63
802.243	0.22
802.416	0.63
802.589	0.54
802.762	0.57
802.935	0.54
803.107	0.96
803.28	1.21
803.453	0.86
803.626	0.51
803.798	0.65
803.971	0.44
804.144	0.83
804.317	0.87
804.489	0.75
804.662	0.44
804.835	0.61
805.007	0.36
805.18	0.94
805.353	0.7
805.525	0.3
805.698	0.23
805.87	0.96
806.043	0.89
806.215	0.19
806.388	0.52
806.56	0.65
806.733	0.87
806.905	0.63
807.078	0.63
807.25	0.57
807.423	0.75
807.595	0.55
807.768	0.69
807.94	1.15
808.112	0.71
808.285	0.52
808.457	0.52
808.629	0.61
808.802	0.71
808.974	0.68
809.146	0.6
809.318	0.33
809.491	1.01
809.663	0.84
809.835	0.56
810.007	0.89
810.18	0.52
810.352	0.65
810.524	0.34
810.696	0.82
810.868	1.21
811.04	0.69
811.212	0.09
811.384	0.58
811.556	0.65
811.728	0.52
811.901	1.55
812.073	0.65
812.245	0.75
812.417	0.65
812.589	0.28
812.76	1.16
812.932	1.03
813.104	1.08
813.276	0.26
813.448	1.2
813.62	0.55
813.792	0.74
813.964	0.86
814.136	0.93
814.307	0.37
814.479	0.43
814.651	0.86
814.823	1.52
814.995	0.75
815.166	1
815.338	0.27
815.51	0.1
815.681	1.8
815.853	0.95
816.025	0.47
816.196	1.44
816.368	0.58
816.54	0.44
816.711	0.9
816.883	1.02
817.054	1.66
817.226	0.29
817.398	0.85
817.569	0.17
817.741	0.74
817.912	0.62
818.084	0.88
818.255	1.24
818.426	0.51
818.598	0.73
818.769	0.58
818.941	0.81
819.112	1.64
819.283	0.92
819.455	0.26
819.626	0.65
819.798	1.08
819.969	1.34
820.14	0.84
820.311	0.52
820.483	0.77
820.654	0.95
820.825	0.67
820.996	0.65
821.168	0.24
821.339	0.8
821.51	0.23
821.681	0.62
821.852	0.6
822.023	0.51
822.195	0.39
822.366	1.59
822.537	0.73
822.708	1.41
822.879	0.34
823.05	1.27
823.221	0.91
823.392	1.35
823.563	0.99
823.734	0.94
823.905	0.7
824.076	0.83
824.247	-0.07
824.418	0.34
824.589	1.89
824.759	1.14
824.93	1.19
825.101	0.22
825.272	1.45
825.443	1.55
825.614	1.14
825.784	0.27
825.955	1.91
826.126	1.44
826.297	0.88
826.467	1.54
826.638	1.58
826.809	0.86
826.98	1.26
827.15	0.89
827.321	0.92
827.492	1.72
827.662	1.13
827.833	1.66
828.003	1.23
828.174	0.52
828.345	-0.01
828.515	1.49
828.686	1.12
828.856	0.72
829.027	0.76
829.197	1.35
829.368	1.16
829.538	0.38
829.709	0.05
829.879	1.08
830.049	1.1
830.22	0.52
830.39	0.92
830.56	1.23
830.731	0.31
830.901	0.77
831.072	1.01
831.242	1.23
831.412	1.47
831.582	1.46
831.753	0.25
831.923	1.44
832.093	0.95
832.263	1.04
832.434	0.55
832.604	0.57
832.774	1.16
832.944	0.83
833.114	0.86
833.284	1.76
833.454	0.07
833.624	0.03
833.795	0.58
833.965	1.5
834.135	1.72
834.305	0.31
834.475	0.74
834.645	1.06
834.815	1.41
834.985	0.25
835.155	0.71
835.325	1.77
835.494	1.92
835.664	0.41
835.834	0.63
836.004	1.28
836.174	0.53
836.344	1.12
836.514	0.26
836.684	1.09
836.853	0.95
837.023	1.31
837.193	0.4
837.363	2.11
837.532	1.76
837.702	0.84
837.872	0.72
838.041	1.79
838.211	2.41
838.381	0.36
838.55	1.21
838.72	3.12
838.89	2.61
839.059	0.72
839.229	0.24
839.398	1.97
839.568	1.49
839.738	0.88
839.907	2.29
840.077	1.44
840.246	0.29
840.416	0.27
840.585	-0.26
840.755	2.21
840.924	2.06
841.093	0.65
841.263	0.98
841.432	1.27
841.602	0.18
841.771	0.84
841.94	1.25
842.11	2.29
842.279	2.92
842.448	0.64
842.617	1.12
842.787	2.25
842.956	0.35
843.125	1.88
843.294	1.39
843.464	2.44
843.633	2.15
843.802	0.98
843.971	1.13
844.14	2.34
844.309	1.96
844.479	0.91
844.648	0.77
844.817	0.6
844.986	1.1
845.155	1.35
845.324	1.17
845.493	1.31
845.662	2.08
845.831	1.34
846	1.71
846.169	1.25
846.338	2.55
846.507	2.03
846.676	1.69
846.844	1.26
847.013	2.09
847.182	1.69
847.351	1.14
847.52	1.07
847.689	1.91
847.858	2.47
848.026	1.59
848.195	1.14
848.364	0.2
848.533	1.03
848.701	0.87
848.87	1.3
849.039	2.66
849.207	1.99
849.376	2.46
849.545	2.42
849.713	1.48
849.882	1.49
850.051	0.44
850.219	1.71
850.388	2.21
850.556	1.71
850.725	1.24
850.893	2.53
851.062	1.35
851.23	1.83
851.399	0.2
851.567	0.56
851.736	1.6
851.904	0.1
852.073	1.7
852.241	2.4
852.41	2.57
852.578	1.54
852.746	0.17
852.915	1.91
853.083	1.41
853.251	0.34
853.42	1.21
853.588	0.74
853.756	2.9
853.924	1.09
854.093	1.96
854.261	2.25
854.429	0.14
854.597	1.9
854.765	0.85
854.934	2.72
855.102	2.45
855.27	1.71
855.438	2.13
855.606	2.97
855.774	3.75
855.942	0.45
856.11	1.25
856.278	1.59
856.446	2.57
856.614	1.08
856.782	1.48
856.95	3.16
857.118	1.97
857.286	1.93
857.454	0.52
857.622	3.64
857.79	2.33
857.958	1.39
858.126	0.79
858.294	1.13
858.462	1.5
858.629	1.58
858.797	0.11
858.965	2.39
859.133	2.56
859.301	1.13
859.468	2.94
859.636	2.06
859.804	3.13
859.971	1.9
860.139	1.81
860.307	2.39
860.474	2.38
860.642	0.28
860.81	1.87
860.977	1.11
861.145	3.08
861.313	0.13
861.48	1.79
861.648	3.62
861.815	2.1
861.983	0.39
862.15	2.32
862.318	1.73
862.485	4.16
862.653	1.15
862.82	0.8
862.988	3.77
863.155	2.81
863.322	0.53
863.49	0.36
863.657	0.3
863.824	4.13
863.992	2.14
864.159	2.69
864.326	2.98
864.494	1.1
864.661	4.5
864.828	0.51
864.996	3.34
865.163	2.34
865.33	0.86
865.497	0.11
865.664	0.67
865.832	-0.25
865.999	1.28
866.166	1.53
866.333	2.23
866.5	0.36
866.667	2.47
866.834	1.61
867.001	4.58
867.168	0.04
867.335	1.36
867.502	0.13
867.669	3.82
867.836	4.72
868.003	2.53
868.17	3.64
868.337	1.78
868.504	5.76
868.671	0.83
868.838	1.4
869.005	2.68
869.172	4.4
869.339	3.05
869.505	2.83
869.672	0.82
869.839	2.88
870.006	2.22
870.173	1.45
870.339	2.79
870.506	4.83
870.673	-0.27
870.84	3.66
871.006	1.07
871.173	2.99
871.34	2.57
871.506	-0.24
871.673	2.37
871.839	0.27
872.006	1.8
872.173	1.48
872.339	2.67
872.506	4.02
872.672	1.48
872.839	0.03
873.005	2.58
873.172	5.66
873.338	2.85
873.505	3.72
873.671	2.91
873.838	3.93
874.004	-0.89
874.171	0.97
874.337	2.03
874.503	3.31
874.67	1.72
874.836	1.7
875.002	5.58
875.169	3.77
875.335	2.54
875.501	2.42
875.668	5.44
875.834	1.87
876	1.54
876.166	2.98
876.332	3.5
876.499	4.51
876.665	2.24
876.831	3.34
876.997	4.22
877.163	4.31
877.329	0.82
877.495	3.42
877.662	2.63
877.828	2.16
877.994	2.59
878.16	-0.61
878.326	1.68
878.492	3.22
878.658	2.59
878.824	3.02
878.99	4.74
879.156	0.76
879.322	3.21
879.487	2.84
879.653	3.38
879.819	2.27
879.985	2.1
880.151	1.95
880.317	3.68
880.483	3.84
880.648	4.79
880.814	-1.26
880.98	4.57
881.146	1.16
881.312	1.14
881.477	1.4
881.643	2.51
881.809	4.01
881.974	3.47
882.14	-2.01
882.306	1.78
882.471	6.44
882.637	1.71
882.803	1.66
882.968	4.5
883.134	6.04
883.299	1.64
883.465	1.68
883.63	3.07
883.796	3.2
883.961	2.01
884.127	3.7
884.292	-0.04
884.458	0.14
884.623	0.14
