Data from Apollo_Calib_20240827__AbsoluteIrradiance__784__12-13-02-173.txt Node

Date: Wed Aug 28 12:13:02 BST 2024
User: biology
Spectrometer: FLMT08252
Trigger mode: 0
Integration Time (sec): 5.000000E-1
Scans to average: 5
Electric dark correction enabled: true
Nonlinearity correction enabled: false
Boxcar width: 0
XAxis mode: Wavelengths
Number of Pixels in Spectrum: 3648
>>>>>Begin Spectral Data<<<<<
179.588	-0
179.809	-0
180.03	-0
180.251	-0
180.473	-0
180.694	0
180.915	0
181.136	-0
181.357	0
181.578	-0
181.799	-0
182.02	-0
182.241	-0
182.462	-0
182.683	0
182.904	-0
183.125	-0
183.346	0
183.567	0
183.788	0
184.009	0
184.23	0
184.451	0
184.672	0
184.892	0
185.113	0
185.334	0
185.555	0
185.776	0
185.996	0
186.217	0
186.438	0
186.659	0
186.879	0
187.1	0
187.321	0
187.541	0
187.762	0
187.983	0
188.203	0
188.424	0
188.644	0
188.865	0
189.086	0
189.306	0
189.527	0
189.747	0
189.968	0
190.188	0
190.409	0
190.629	0
190.849	0
191.07	0
191.29	0
191.511	0
191.731	0
191.951	0
192.172	0
192.392	0
192.612	0
192.833	0
193.053	0
193.273	0
193.493	0
193.714	0
193.934	0
194.154	0
194.374	0
194.594	0
194.815	0
195.035	0
195.255	0
195.475	0
195.695	0
195.915	0
196.135	0
196.355	0
196.575	0
196.795	0
197.015	0
197.235	0
197.455	0
197.675	0
197.895	0
198.115	0
198.335	0
198.555	0
198.775	0
198.995	0
199.214	0
199.434	0
199.654	0
199.874	0
200.094	3.48
200.313	2.24
200.533	2.55
200.753	1.71
200.973	3.8
201.192	3.7
201.412	1.4
201.632	1.84
201.851	3.4
202.071	2.01
202.291	1.82
202.51	1.37
202.73	2.88
202.95	1.75
203.169	1.95
203.389	1.89
203.608	1.99
203.828	1.33
204.047	1.58
204.267	2.45
204.486	2.15
204.706	2.19
204.925	2.02
205.145	1.56
205.364	2.38
205.583	2.61
205.803	1.35
206.022	1.16
206.242	2.15
206.461	1.53
206.68	1.6
206.9	1.53
207.119	2.48
207.338	2.07
207.557	1.15
207.777	1.24
207.996	1.63
208.215	2.04
208.434	0.93
208.654	0.84
208.873	1.72
209.092	2.19
209.311	1.27
209.53	1.34
209.749	0.85
209.968	1.02
210.187	1.06
210.407	0.8
210.626	1.19
210.845	1.49
211.064	1.23
211.283	1.12
211.502	1.71
211.721	1.17
211.94	1.1
212.159	1.46
212.377	1.26
212.596	1.64
212.815	1.23
213.034	1.38
213.253	1.51
213.472	1.45
213.691	0.92
213.91	0.75
214.128	0.84
214.347	1.5
214.566	0.57
214.785	0.82
215.003	1.36
215.222	0.95
215.441	0.94
215.66	0.64
215.878	1.03
216.097	1.34
216.316	0.69
216.534	0.83
216.753	1.02
216.972	0.93
217.19	0.95
217.409	0.65
217.627	0.8
217.846	0.79
218.064	1.04
218.283	0.57
218.501	1.45
218.72	1.17
218.938	0.65
219.157	0.69
219.375	1.04
219.594	0.92
219.812	0.56
220.031	0.47
220.249	1.39
220.467	1.17
220.686	0.44
220.904	0.61
221.122	0.82
221.341	1.17
221.559	0.93
221.777	0.43
221.995	0.78
222.214	0.89
222.432	0.6
222.65	1.01
222.868	0.81
223.086	0.69
223.305	1.02
223.523	0.81
223.741	1.21
223.959	0.67
224.177	0.41
224.395	0.42
224.613	0.79
224.831	1.07
225.049	0.39
225.267	0.5
225.485	0.8
225.703	0.83
225.921	0.6
226.139	0.45
226.357	0.79
226.575	0.85
226.793	0.53
227.011	1.51
227.229	0.76
227.447	0.95
227.665	0.51
227.883	0.34
228.1	0.67
228.318	0.73
228.536	0.29
228.754	0.44
228.972	0.72
229.189	0.89
229.407	0.61
229.625	0.67
229.843	0.86
230.06	0.73
230.278	0.58
230.496	0.47
230.713	0.68
230.931	0.83
231.149	0.48
231.366	0.23
231.584	0.72
231.801	1.08
232.019	0.53
232.236	0.45
232.454	0.52
232.671	0.75
232.889	0.49
233.106	0.49
233.324	0.57
233.541	0.54
233.759	0.64
233.976	0.46
234.194	0.59
234.411	0.58
234.628	0.49
234.846	0.55
235.063	0.61
235.28	0.54
235.498	0.54
235.715	0.39
235.932	0.77
236.149	0.61
236.367	0.52
236.584	0.58
236.801	0.48
237.018	0.8
237.236	0.57
237.453	0.25
237.67	0.69
237.887	0.49
238.104	0.5
238.321	0.34
238.538	0.43
238.755	0.69
238.973	0.34
239.19	0.39
239.407	0.55
239.624	0.6
239.841	0.42
240.058	0.32
240.275	0.47
240.492	0.49
240.709	0.45
240.925	0.39
241.142	0.61
241.359	0.28
241.576	0.37
241.793	0.38
242.01	0.52
242.227	0.67
242.444	0.58
242.66	0.68
242.877	0.44
243.094	0.38
243.311	0.45
243.527	0.43
243.744	0.46
243.961	0.55
244.178	0.3
244.394	0.35
244.611	0.63
244.828	0.68
245.044	0.38
245.261	0.34
245.477	0.46
245.694	0.59
245.911	0.33
246.127	0.46
246.344	0.65
246.56	0.58
246.777	0.4
246.993	0.38
247.21	0.5
247.426	0.53
247.643	0.33
247.859	0.3
248.076	0.36
248.292	0.74
248.508	0.37
248.725	0.46
248.941	0.55
249.157	0.61
249.374	0.38
249.59	0.45
249.806	0.43
250.023	0.5
250.239	0.31
250.455	0.34
250.671	0.46
250.888	0.46
251.104	0.48
251.32	0.39
251.536	0.4
251.752	0.35
251.969	0.36
252.185	0.45
252.401	0.62
252.617	0.42
252.833	0.4
253.049	0.43
253.265	0.39
253.481	0.41
253.697	0.27
253.913	0.31
254.129	0.47
254.345	0.42
254.561	0.39
254.777	0.37
254.993	0.54
255.209	0.44
255.425	0.39
255.641	0.21
255.857	0.51
256.073	0.43
256.288	0.29
256.504	0.31
256.72	0.42
256.936	0.56
257.152	0.38
257.367	0.32
257.583	0.45
257.799	0.5
258.015	0.34
258.23	0.32
258.446	0.57
258.662	0.48
258.877	0.29
259.093	0.25
259.309	0.48
259.524	0.47
259.74	0.43
259.955	0.26
260.171	0.42
260.387	0.37
260.602	0.43
260.818	0.4
261.033	0.33
261.249	0.34
261.464	0.33
261.68	0.26
261.895	0.41
262.11	0.47
262.326	0.34
262.541	0.29
262.757	0.45
262.972	0.45
263.187	0.41
263.403	0.36
263.618	0.43
263.833	0.46
264.049	0.36
264.264	0.28
264.479	0.38
264.694	0.51
264.91	0.24
265.125	0.37
265.34	0.43
265.555	0.56
265.77	0.39
265.986	0.35
266.201	0.42
266.416	0.47
266.631	0.32
266.846	0.24
267.061	0.48
267.276	0.5
267.491	0.24
267.706	0.45
267.921	0.45
268.136	0.39
268.351	0.35
268.566	0.27
268.781	0.41
268.996	0.53
269.211	0.38
269.426	0.25
269.641	0.31
269.856	0.42
270.071	0.21
270.285	0.23
270.5	0.47
270.715	0.45
270.93	0.31
271.145	0.37
271.359	0.45
271.574	0.33
271.789	0.26
272.004	0.25
272.218	0.28
272.433	0.43
272.648	0.27
272.862	0.37
273.077	0.4
273.292	0.41
273.506	0.23
273.721	0.32
273.936	0.33
274.15	0.49
274.365	0.38
274.579	0.42
274.794	0.46
275.008	0.39
275.223	0.23
275.437	0.34
275.652	0.46
275.866	0.39
276.081	0.35
276.295	0.39
276.509	0.34
276.724	0.36
276.938	0.3
277.153	0.3
277.367	0.42
277.581	0.32
277.796	0.34
278.01	0.24
278.224	0.41
278.438	0.51
278.653	0.24
278.867	0.25
279.081	0.16
279.295	0.35
279.51	0.26
279.724	0.21
279.938	0.39
280.152	0.32
280.366	0.25
280.58	0.34
280.794	0.43
281.008	0.33
281.222	0.39
281.437	0.46
281.651	0.37
281.865	0.38
282.079	0.23
282.293	0.2
282.507	0.27
282.721	0.28
282.935	0.37
283.148	0.18
283.362	0.25
283.576	0.24
283.79	0.25
284.004	0.29
284.218	0.4
284.432	0.27
284.646	0.31
284.859	0.29
285.073	0.27
285.287	0.37
285.501	0.28
285.714	0.27
285.928	0.32
286.142	0.28
286.356	0.28
286.569	0.29
286.783	0.41
286.997	0.4
287.21	0.25
287.424	0.26
287.637	0.35
287.851	0.3
288.065	0.34
288.278	0.28
288.492	0.31
288.705	0.34
288.919	0.32
289.132	0.23
289.346	0.36
289.559	0.21
289.773	0.22
289.986	0.3
290.2	0.26
290.413	0.34
290.626	0.23
290.84	0.25
291.053	0.29
291.267	0.36
291.48	0.31
291.693	0.28
291.906	0.28
292.12	0.31
292.333	0.26
292.546	0.29
292.76	0.43
292.973	0.33
293.186	0.32
293.399	0.25
293.612	0.31
293.826	0.29
294.039	0.27
294.252	0.28
294.465	0.37
294.678	0.28
294.891	0.3
295.104	0.2
295.317	0.3
295.53	0.26
295.743	0.23
295.956	0.28
296.169	0.34
296.382	0.35
296.595	0.23
296.808	0.25
297.021	0.39
297.234	0.36
297.447	0.27
297.66	0.29
297.873	0.37
298.086	0.32
298.299	0.23
298.511	0.19
298.724	0.24
298.937	0.22
299.15	0.22
299.363	0.25
299.575	0.34
299.788	0.29
300.001	0.22
300.213	0.22
300.426	0.23
300.639	0.28
300.852	0.21
301.064	0.3
301.277	0.43
301.489	0.33
301.702	0.32
301.915	0.26
302.127	0.24
302.34	0.31
302.552	0.27
302.765	0.22
302.977	0.33
303.19	0.25
303.402	0.25
303.615	0.22
303.827	0.23
304.04	0.28
304.252	0.26
304.464	0.24
304.677	0.41
304.889	0.3
305.102	0.23
305.314	0.17
305.526	0.28
305.739	0.28
305.951	0.23
306.163	0.21
306.375	0.37
306.588	0.23
306.8	0.25
307.012	0.2
307.224	0.29
307.436	0.35
307.649	0.21
307.861	0.28
308.073	0.32
308.285	0.25
308.497	0.2
308.709	0.25
308.921	0.31
309.133	0.31
309.346	0.23
309.558	0.23
309.77	0.33
309.982	0.34
310.194	0.29
310.406	0.2
310.617	0.35
310.829	0.23
311.041	0.28
311.253	0.21
311.465	0.24
311.677	0.27
311.889	0.23
312.101	0.25
312.313	0.3
312.524	0.38
312.736	0.21
312.948	0.28
313.16	0.35
313.372	0.32
313.583	0.3
313.795	0.24
314.007	0.21
314.218	0.29
314.43	0.29
314.642	0.22
314.853	0.18
315.065	0.33
315.277	0.24
315.488	0.29
315.7	0.31
315.912	0.29
316.123	0.26
316.335	0.24
316.546	0.37
316.758	0.24
316.969	0.24
317.181	0.25
317.392	0.31
317.604	0.29
317.815	0.25
318.026	0.29
318.238	0.25
318.449	0.26
318.661	0.2
318.872	0.2
319.083	0.23
319.295	0.28
319.506	0.24
319.717	0.27
319.929	0.35
320.14	0.29
320.351	0.28
320.562	0.22
320.774	0.27
320.985	0.31
321.196	0.2
321.407	0.16
321.618	0.36
321.829	0.27
322.041	0.31
322.252	0.26
322.463	0.3
322.674	0.28
322.885	0.2
323.096	0.24
323.307	0.26
323.518	0.26
323.729	0.23
323.94	0.24
324.151	0.28
324.362	0.27
324.573	0.26
324.784	0.26
324.995	0.35
325.206	0.3
325.417	0.27
325.628	0.21
325.838	0.25
326.049	0.3
326.26	0.33
326.471	0.24
326.682	0.3
326.892	0.28
327.103	0.15
327.314	0.24
327.525	0.35
327.735	0.28
327.946	0.25
328.157	0.2
328.368	0.35
328.578	0.25
328.789	0.31
328.999	0.24
329.21	0.27
329.421	0.34
329.631	0.23
329.842	0.21
330.052	0.29
330.263	0.33
330.473	0.3
330.684	0.2
330.894	0.25
331.105	0.27
331.315	0.29
331.526	0.22
331.736	0.36
331.947	0.27
332.157	0.3
332.367	0.18
332.578	0.3
332.788	0.34
332.999	0.31
333.209	0.24
333.419	0.23
333.629	0.31
333.84	0.3
334.05	0.27
334.26	0.33
334.47	0.27
334.681	0.33
334.891	0.21
335.101	0.3
335.311	0.35
335.521	0.22
335.732	0.17
335.942	0.38
336.152	0.29
336.362	0.29
336.572	0.21
336.782	0.31
336.992	0.21
337.202	0.2
337.412	0.21
337.622	0.3
337.832	0.25
338.042	0.26
338.252	0.21
338.462	0.24
338.672	0.24
338.882	0.19
339.092	0.21
339.302	0.34
339.511	0.31
339.721	0.24
339.931	0.19
340.141	0.34
340.351	0.3
340.561	0.31
340.77	0.27
340.98	0.31
341.19	0.24
341.4	0.23
341.609	0.23
341.819	0.26
342.029	0.24
342.238	0.27
342.448	0.21
342.658	0.3
342.867	0.25
343.077	0.25
343.286	0.27
343.496	0.28
343.706	0.3
343.915	0.21
344.125	0.24
344.334	0.32
344.544	0.22
344.753	0.2
344.963	0.25
345.172	0.21
345.381	0.24
345.591	0.16
345.8	0.27
346.01	0.36
346.219	0.32
346.428	0.14
346.638	0.22
346.847	0.29
347.056	0.33
347.266	0.24
347.475	0.28
347.684	0.33
347.893	0.3
348.103	0.28
348.312	0.2
348.521	0.26
348.73	0.26
348.94	0.25
349.149	0.21
349.358	0.22
349.567	0.23
349.776	0.18
349.985	0.24
350.194	0.29
350.403	0.32
350.612	0.14
350.821	0.26
351.03	0.27
351.239	0.22
351.448	0.27
351.657	0.24
351.866	0.37
352.075	0.3
352.284	0.26
352.493	0.2
352.702	0.33
352.911	0.27
353.12	0.27
353.329	0.25
353.538	0.26
353.746	0.31
353.955	0.21
354.164	0.23
354.373	0.23
354.582	0.27
354.79	0.23
354.999	0.29
355.208	0.19
355.416	0.33
355.625	0.23
355.834	0.23
356.042	0.28
356.251	0.26
356.46	0.2
356.668	0.27
356.877	0.36
357.085	0.3
357.294	0.15
357.503	0.25
357.711	0.27
357.92	0.46
358.128	0.21
358.337	0.24
358.545	0.3
358.754	0.22
358.962	0.28
359.17	0.26
359.379	0.23
359.587	0.3
359.796	0.25
360.004	0.31
360.212	0.28
360.421	0.33
360.629	0.25
360.837	0.21
361.046	0.27
361.254	0.42
361.462	0.24
361.67	0.22
361.879	0.31
362.087	0.33
362.295	0.24
362.503	0.29
362.711	0.18
362.92	0.23
363.128	0.21
363.336	0.2
363.544	0.22
363.752	0.26
363.96	0.2
364.168	0.18
364.376	0.24
364.584	0.3
364.792	0.31
365	0.26
365.208	0.27
365.416	0.32
365.624	0.3
365.832	0.25
366.04	0.34
366.248	0.24
366.456	0.27
366.664	0.26
366.872	0.24
367.079	0.27
367.287	0.26
367.495	0.28
367.703	0.24
367.911	0.25
368.118	0.25
368.326	0.22
368.534	0.23
368.742	0.32
368.949	0.22
369.157	0.23
369.365	0.27
369.572	0.28
369.78	0.21
369.988	0.26
370.195	0.3
370.403	0.32
370.61	0.26
370.818	0.2
371.026	0.36
371.233	0.21
371.441	0.3
371.648	0.25
371.856	0.31
372.063	0.29
372.271	0.21
372.478	0.17
372.685	0.22
372.893	0.31
373.1	0.25
373.308	0.2
373.515	0.38
373.722	0.33
373.93	0.28
374.137	0.28
374.344	0.37
374.552	0.31
374.759	0.29
374.966	0.24
375.173	0.23
375.381	0.35
375.588	0.26
375.795	0.2
376.002	0.25
376.209	0.24
376.417	0.25
376.624	0.27
376.831	0.3
377.038	0.31
377.245	0.17
377.452	0.27
377.659	0.26
377.866	0.26
378.073	0.21
378.28	0.28
378.487	0.36
378.694	0.31
378.901	0.27
379.108	0.26
379.315	0.37
379.522	0.37
379.729	0.31
379.936	0.23
380.143	0.25
380.35	0.3
380.557	0.26
380.763	0.26
380.97	0.3
381.177	0.32
381.384	0.28
381.591	0.24
381.797	0.3
382.004	0.31
382.211	0.32
382.418	0.23
382.624	0.32
382.831	0.3
383.038	0.29
383.244	0.28
383.451	0.26
383.658	0.3
383.864	0.24
384.071	0.21
384.277	0.39
384.484	0.24
384.69	0.32
384.897	0.25
385.103	0.27
385.31	0.26
385.516	0.24
385.723	0.22
385.929	0.3
386.136	0.29
386.342	0.32
386.549	0.28
386.755	0.33
386.961	0.33
387.168	0.25
387.374	0.24
387.58	0.31
387.787	0.32
387.993	0.32
388.199	0.29
388.406	0.23
388.612	0.31
388.818	0.2
389.024	0.29
389.231	0.32
389.437	0.39
389.643	0.32
389.849	0.28
390.055	0.32
390.261	0.3
390.467	0.33
390.674	0.25
390.88	0.26
391.086	0.28
391.292	0.28
391.498	0.32
391.704	0.34
391.91	0.26
392.116	0.33
392.322	0.18
392.528	0.38
392.734	0.27
392.94	0.33
393.146	0.31
393.352	0.35
393.557	0.27
393.763	0.28
393.969	0.32
394.175	0.3
394.381	0.32
394.587	0.29
394.792	0.28
394.998	0.41
395.204	0.38
395.41	0.3
395.615	0.3
395.821	0.37
396.027	0.36
396.233	0.27
396.438	0.35
396.644	0.42
396.85	0.33
397.055	0.31
397.261	0.34
397.466	0.32
397.672	0.4
397.878	0.36
398.083	0.35
398.289	0.29
398.494	0.39
398.7	0.36
398.905	0.22
399.111	0.47
399.316	0.3
399.522	0.33
399.727	0.33
399.932	0.3
400.138	0.34
400.343	0.4
400.549	0.36
400.754	0.33
400.959	0.42
401.165	0.37
401.37	0.42
401.575	0.49
401.78	0.39
401.986	0.38
402.191	0.34
402.396	0.4
402.601	0.42
402.807	0.4
403.012	0.38
403.217	0.47
403.422	0.4
403.627	0.46
403.832	0.38
404.037	0.48
404.243	0.45
404.448	0.41
404.653	0.44
404.858	0.43
405.063	0.45
405.268	0.36
405.473	0.38
405.678	0.46
405.883	0.66
406.088	0.51
406.293	0.43
406.498	0.47
406.703	0.55
406.907	0.52
407.112	0.41
407.317	0.56
407.522	0.59
407.727	0.48
407.932	0.53
408.136	0.66
408.341	0.58
408.546	0.62
408.751	0.6
408.956	0.55
409.16	0.67
409.365	0.58
409.57	0.6
409.774	0.63
409.979	0.71
410.184	0.69
410.388	0.63
410.593	0.8
410.798	0.81
411.002	0.7
411.207	0.77
411.411	0.81
411.616	0.75
411.82	0.83
412.025	0.87
412.229	0.82
412.434	1.03
412.638	0.91
412.843	0.91
413.047	0.98
413.252	0.97
413.456	1.07
413.66	1.06
413.865	1.05
414.069	1.18
414.273	1.1
414.478	1.13
414.682	1.2
414.886	1.22
415.091	1.18
415.295	1.24
415.499	1.44
415.703	1.32
415.908	1.5
416.112	1.4
416.316	1.66
416.52	1.62
416.724	1.53
416.929	1.61
417.133	1.91
417.337	1.73
417.541	1.77
417.745	1.81
417.949	2.04
418.153	2.12
418.357	2.04
418.561	2.24
418.765	2.24
418.969	2.41
419.173	2.42
419.377	2.38
419.581	2.61
419.785	2.64
419.989	2.65
420.193	2.87
420.397	2.93
420.601	3.05
420.804	3.19
421.008	3.11
421.212	3.31
421.416	3.25
421.62	3.31
421.823	3.38
422.027	3.57
422.231	3.56
422.435	3.5
422.638	3.6
422.842	3.78
423.046	3.85
423.249	3.99
423.453	3.95
423.657	4.21
423.86	4.22
424.064	4.34
424.268	4.49
424.471	4.55
424.675	4.76
424.878	4.84
425.082	4.95
425.285	5.27
425.489	5.17
425.692	5.29
425.896	5.28
426.099	5.49
426.303	5.69
426.506	5.78
426.71	5.98
426.913	6.18
427.116	6.4
427.32	6.34
427.523	6.53
427.726	6.82
427.93	6.77
428.133	7.22
428.336	7.22
428.54	7.46
428.743	7.75
428.946	8.01
429.149	8.01
429.353	7.92
429.556	8.05
429.759	8.05
429.962	8.18
430.165	8.45
430.368	8.06
430.571	8.08
430.775	8.14
430.978	8.09
431.181	8.15
431.384	8.18
431.587	8.36
431.79	8.77
431.993	8.71
432.196	9.06
432.399	9.35
432.602	9.54
432.805	9.54
433.008	10.07
433.211	10.02
433.414	10.35
433.616	10.37
433.819	10.33
434.022	10.47
434.225	10.65
434.428	10.67
434.631	11.15
434.833	10.77
435.036	11.2
435.239	11.34
435.442	11.53
435.645	11.55
435.847	11.63
436.05	12
436.253	12.23
436.455	12.17
436.658	12.1
436.861	12.31
437.063	12.51
437.266	12.39
437.468	12.69
437.671	13.19
437.874	13.16
438.076	12.99
438.279	13.49
438.481	13.51
438.684	14.22
438.886	13.81
439.089	14.07
439.291	14.24
439.494	14.44
439.696	14.75
439.899	15.29
440.101	15.57
440.303	15.8
440.506	16.5
440.708	16.33
440.91	16.46
441.113	16.66
441.315	16.91
441.517	16.8
441.72	17.14
441.922	17.01
442.124	16.73
442.326	17.2
442.529	17.51
442.731	17.43
442.933	17.69
443.135	17.48
443.337	17.53
443.539	18.12
443.742	17.75
443.944	18.4
444.146	18.02
444.348	18.03
444.55	17.9
444.752	18.04
444.954	18.05
445.156	18
445.358	18.51
445.56	18.76
445.762	18.48
445.964	18.83
446.166	18.6
446.368	18.6
446.57	18.56
446.772	18.19
446.974	18.02
447.175	18.29
447.377	17.75
447.579	18.29
447.781	18
447.983	17.73
448.184	17.38
448.386	17.67
448.588	17.18
448.79	17.25
448.991	17.22
449.193	17.42
449.395	16.73
449.597	16.43
449.798	16.31
450	15.87
450.202	15.84
450.403	15.84
450.605	15.71
450.806	15.34
451.008	15.14
451.21	14.91
451.411	14.43
451.613	13.78
451.814	14.11
452.016	13.93
452.217	13.19
452.419	13.19
452.62	12.86
452.821	12.74
453.023	12.5
453.224	12.22
453.426	11.79
453.627	11.02
453.828	11.07
454.03	11.18
454.231	11.13
454.432	11
454.634	10.76
454.835	10.36
455.036	10.33
455.238	9.99
455.439	9.74
455.64	9.45
455.841	9.29
456.042	9.43
456.244	9.05
456.445	8.93
456.646	8.58
456.847	8.49
457.048	8.36
457.249	8.46
457.45	8.1
457.651	7.63
457.852	7.5
458.054	7.16
458.255	7.11
458.456	7.18
458.657	7.06
458.858	6.7
459.058	6.68
459.259	6.64
459.46	6.35
459.661	6.38
459.862	6.41
460.063	6.33
460.264	6.23
460.465	5.99
460.666	6.04
460.866	5.73
461.067	5.48
461.268	5.57
461.469	5.45
461.67	5.35
461.87	5.15
462.071	5.22
462.272	5.1
462.473	4.99
462.673	5.23
462.874	5.11
463.075	5.01
463.275	5.04
463.476	5.12
463.676	5.05
463.877	4.89
464.078	4.86
464.278	4.97
464.479	4.88
464.679	4.62
464.88	4.65
465.08	4.67
465.281	4.47
465.481	4.24
465.682	4.08
465.882	4.18
466.083	4.01
466.283	4.04
466.483	3.84
466.684	3.78
466.884	3.55
467.085	3.69
467.285	3.69
467.485	3.65
467.686	3.57
467.886	3.35
468.086	3.47
468.286	3.34
468.487	3.38
468.687	3.19
468.887	3.2
469.087	3.33
469.287	3.18
469.488	3.06
469.688	3.17
469.888	3.12
470.088	3.11
470.288	3.04
470.488	3.04
470.688	2.89
470.888	2.81
471.088	2.7
471.288	2.81
471.488	2.7
471.688	2.73
471.888	2.66
472.088	2.83
472.288	2.71
472.488	2.56
472.688	2.5
472.888	2.55
473.088	2.59
473.288	2.53
473.488	2.43
473.688	2.58
473.887	2.47
474.087	2.35
474.287	2.46
474.487	2.41
474.687	2.42
474.886	2.34
475.086	2.28
475.286	2.35
475.486	2.29
475.685	2.23
475.885	2.21
476.085	2.26
476.284	2.27
476.484	2.23
476.684	2.22
476.883	2.25
477.083	2.12
477.282	2.16
477.482	2.19
477.681	2.17
477.881	2.04
478.08	2.17
478.28	2.05
478.479	2.13
478.679	2.14
478.878	2.05
479.078	1.98
479.277	2.05
479.477	2.04
479.676	2.03
479.875	2.02
480.075	1.98
480.274	2
480.473	2.04
480.673	1.99
480.872	2.05
481.071	2
481.271	2.02
481.47	1.98
481.669	1.97
481.868	1.96
482.067	1.98
482.267	1.87
482.466	1.91
482.665	1.93
482.864	1.95
483.063	1.94
483.262	2.04
483.461	2.05
483.661	2.09
483.86	1.97
484.059	2.06
484.258	2.03
484.457	2.03
484.656	1.95
484.855	2.1
485.054	1.89
485.253	1.98
485.452	1.95
485.651	2.02
485.849	2.03
486.048	1.97
486.247	2
486.446	2.11
486.645	1.96
486.844	2.05
487.043	2.06
487.241	2.05
487.44	2.06
487.639	2.14
487.838	2.1
488.037	2.14
488.235	2.24
488.434	2.14
488.633	2.04
488.831	2.21
489.03	2.25
489.229	2.2
489.427	2.21
489.626	2.29
489.825	2.28
490.023	2.28
490.222	2.28
490.42	2.33
490.619	2.35
490.817	2.35
491.016	2.35
491.214	2.43
491.413	2.43
491.611	2.34
491.81	2.4
492.008	2.47
492.207	2.55
492.405	2.49
492.604	2.45
492.802	2.57
493	2.6
493.199	2.63
493.397	2.62
493.595	2.71
493.794	2.63
493.992	2.76
494.19	2.77
494.388	2.82
494.587	2.74
494.785	2.79
494.983	2.75
495.181	2.87
495.379	2.9
495.578	2.95
495.776	2.95
495.974	2.92
496.172	2.99
496.37	3.06
496.568	3.1
496.766	3.08
496.964	3.2
497.162	3.18
497.36	3.16
497.558	3.27
497.756	3.31
497.954	3.28
498.152	3.35
498.35	3.43
498.548	3.32
498.746	3.38
498.944	3.38
499.142	3.42
499.34	3.54
499.538	3.63
499.736	3.5
499.933	3.66
500.131	3.61
500.329	3.78
500.527	3.73
500.725	3.85
500.922	3.87
501.12	3.86
501.318	3.94
501.516	3.93
501.713	4.02
501.911	3.98
502.109	3.92
502.306	4.07
502.504	3.97
502.701	4.13
502.899	4.1
503.097	4.34
503.294	4.19
503.492	4.34
503.689	4.38
503.887	4.35
504.084	4.46
504.282	4.44
504.479	4.36
504.677	4.57
504.874	4.5
505.072	4.45
505.269	4.63
505.466	4.65
505.664	4.68
505.861	4.67
506.059	4.79
506.256	4.78
506.453	4.83
506.651	4.96
506.848	4.97
507.045	4.97
507.242	4.94
507.44	5.05
507.637	5.08
507.834	5.09
508.031	5.24
508.229	5.13
508.426	5.06
508.623	5.26
508.82	5.32
509.017	5.28
509.214	5.26
509.411	5.4
509.608	5.36
509.805	5.57
510.003	5.48
510.2	5.5
510.397	5.63
510.594	5.53
510.791	5.61
510.988	5.64
511.184	5.62
511.381	5.53
511.578	5.71
511.775	5.81
511.972	5.71
512.169	5.78
512.366	5.77
512.563	5.97
512.76	6
512.956	6.03
513.153	5.96
513.35	5.91
513.547	5.87
513.744	5.99
513.94	6.04
514.137	6.16
514.334	6.08
514.53	6.17
514.727	6.35
514.924	6.18
515.12	6.22
515.317	6.24
515.514	6.22
515.71	6.19
515.907	6.42
516.103	6.44
516.3	6.31
516.497	6.47
516.693	6.48
516.89	6.51
517.086	6.48
517.283	6.55
517.479	6.42
517.676	6.67
517.872	6.73
518.068	6.6
518.265	6.63
518.461	6.57
518.658	6.67
518.854	6.66
519.05	6.79
519.247	6.86
519.443	6.78
519.639	6.89
519.836	6.81
520.032	6.74
520.228	6.98
520.424	6.86
520.621	6.94
520.817	6.92
521.013	6.85
521.209	7.07
521.405	7.06
521.601	7.01
521.798	7
521.994	7
522.19	6.97
522.386	6.99
522.582	7.11
522.778	7.23
522.974	7.09
523.17	7.15
523.366	7.14
523.562	7.17
523.758	7.18
523.954	7.03
524.15	7.24
524.346	7.28
524.542	7.28
524.738	7.23
524.934	7.42
525.129	7.24
525.325	7.26
525.521	7.24
525.717	7.44
525.913	7.3
526.109	7.38
526.304	7.43
526.5	7.43
526.696	7.51
526.892	7.39
527.087	7.62
527.283	7.55
527.479	7.5
527.674	7.24
527.87	7.5
528.066	7.54
528.261	7.58
528.457	7.44
528.653	7.6
528.848	7.52
529.044	7.67
529.239	7.49
529.435	7.6
529.63	7.44
529.826	7.57
530.021	7.57
530.217	7.65
530.412	7.59
530.608	7.63
530.803	7.64
530.999	7.42
531.194	7.6
531.389	7.68
531.585	7.71
531.78	7.79
531.975	7.67
532.171	7.72
532.366	7.72
532.561	7.8
532.757	7.78
532.952	7.89
533.147	7.66
533.342	7.78
533.538	7.68
533.733	7.94
533.928	7.6
534.123	7.76
534.318	7.81
534.513	7.68
534.709	7.89
534.904	7.81
535.099	7.86
535.294	7.9
535.489	7.92
535.684	7.8
535.879	7.83
536.074	7.86
536.269	7.9
536.464	7.92
536.659	7.88
536.854	7.84
537.049	8.04
537.244	7.94
537.439	7.92
537.634	7.93
537.828	7.96
538.023	7.95
538.218	7.91
538.413	7.86
538.608	7.92
538.803	7.96
538.997	7.93
539.192	7.96
539.387	7.92
539.582	7.91
539.776	7.85
539.971	7.95
540.166	8.02
540.36	7.92
540.555	8.11
540.75	8.03
540.944	8
541.139	8
541.334	7.94
541.528	8.05
541.723	8.04
541.917	8.08
542.112	7.95
542.306	7.88
542.501	7.94
542.695	7.94
542.89	7.92
543.084	8.01
543.279	8.05
543.473	8.05
543.668	8.06
543.862	7.92
544.056	7.92
544.251	8.03
544.445	8.1
544.64	8.16
544.834	7.82
545.028	7.75
545.222	8.03
545.417	8.24
545.611	8.11
545.805	8.03
546	7.85
546.194	8.01
546.388	8.07
546.582	7.96
546.776	7.98
546.97	8.11
547.165	7.97
547.359	8.07
547.553	8
547.747	8.06
547.941	8.19
548.135	8.03
548.329	8.1
548.523	8.12
548.717	7.98
548.911	7.97
549.105	7.96
549.299	8.12
549.493	8.05
549.687	7.99
549.881	8.15
550.075	8.09
550.269	7.96
550.463	8.17
550.657	8.09
550.85	8.09
551.044	8.07
551.238	8.14
551.432	8.05
551.626	8.13
551.82	8.17
552.013	7.99
552.207	8.19
552.401	8.2
552.594	8.04
552.788	8.04
552.982	8.03
553.176	7.96
553.369	8.17
553.563	8.13
553.756	8.06
553.95	8.11
554.144	8.15
554.337	8.14
554.531	7.99
554.724	8.05
554.918	8.19
555.111	8.05
555.305	8.06
555.498	8.01
555.692	8.18
555.885	8.18
556.079	8.02
556.272	8.12
556.466	8.1
556.659	8.07
556.852	8.18
557.046	8.02
557.239	7.96
557.432	8.05
557.626	8.16
557.819	8.14
558.012	8.15
558.206	8.21
558.399	8.08
558.592	8.03
558.785	7.99
558.979	8.11
559.172	8.11
559.365	8.13
559.558	8.06
559.751	8.1
559.944	8.21
560.138	8.02
560.331	8.16
560.524	8.15
560.717	8.1
560.91	8.1
561.103	8.14
561.296	8
561.489	8.1
561.682	8.25
561.875	8.12
562.068	8.21
562.261	8.03
562.454	8.22
562.647	8
562.84	8.13
563.032	8.11
563.225	8.01
563.418	8.06
563.611	8.18
563.804	8.1
563.997	8.02
564.19	7.88
564.382	8.15
564.575	8.08
564.768	8.02
564.961	8.13
565.153	8.06
565.346	8.02
565.539	8.18
565.731	8.08
565.924	8.17
566.117	8.18
566.309	8.13
566.502	8.03
566.695	7.99
566.887	8.18
567.08	8.11
567.272	8.12
567.465	8.03
567.657	8.14
567.85	8.02
568.042	8.11
568.235	8.11
568.427	7.93
568.62	8.1
568.812	8.02
569.005	8.17
569.197	7.95
569.389	8.06
569.582	8.13
569.774	8.09
569.966	7.99
570.159	8
570.351	7.93
570.543	8
570.736	8.05
570.928	7.91
571.12	8.05
571.312	7.97
571.505	7.78
571.697	8.03
571.889	8
572.081	7.94
572.273	7.89
572.465	7.96
572.658	8.02
572.85	8.02
573.042	8
573.234	7.9
573.426	7.89
573.618	7.9
573.81	7.94
574.002	7.96
574.194	7.99
574.386	7.88
574.578	7.78
574.77	7.89
574.962	7.92
575.154	7.83
575.346	7.85
575.538	7.83
575.729	7.84
575.921	7.89
576.113	7.93
576.305	7.93
576.497	8.01
576.689	7.73
576.88	7.78
577.072	7.95
577.264	7.93
577.456	7.93
577.647	7.86
577.839	7.94
578.031	7.76
578.223	7.84
578.414	7.73
578.606	7.79
578.798	7.87
578.989	7.79
579.181	7.92
579.372	7.84
579.564	7.87
579.755	7.81
579.947	7.69
580.139	7.87
580.33	7.71
580.522	7.82
580.713	7.72
580.905	7.69
581.096	7.85
581.287	7.71
581.479	7.7
581.67	7.77
581.862	7.64
582.053	7.72
582.244	7.56
582.436	7.76
582.627	7.59
582.818	7.57
583.01	7.59
583.201	7.73
583.392	7.66
583.583	7.61
583.775	7.46
583.966	7.62
584.157	7.63
584.348	7.73
584.54	7.54
584.731	7.62
584.922	7.5
585.113	7.44
585.304	7.58
585.495	7.61
585.686	7.63
585.877	7.53
586.068	7.69
586.259	7.61
586.45	7.51
586.641	7.53
586.832	7.59
587.023	7.46
587.214	7.49
587.405	7.51
587.596	7.39
587.787	7.44
587.978	7.47
588.169	7.36
588.36	7.29
588.551	7.43
588.742	7.42
588.932	7.43
589.123	7.19
589.314	7.46
589.505	7.33
589.696	7.4
589.886	7.29
590.077	7.36
590.268	7.3
590.458	7.22
590.649	7.13
590.84	7.29
591.03	7.32
591.221	7.3
591.412	7.09
591.602	7.37
591.793	7.27
591.984	7.28
592.174	7.25
592.365	7.38
592.555	7.05
592.746	7.12
592.936	7.16
593.127	7.2
593.317	7.21
593.508	7.16
593.698	7.07
593.889	7.11
594.079	7.12
594.269	7
594.46	7.04
594.65	7.09
594.84	7.05
595.031	6.98
595.221	7
595.411	7.05
595.602	7.02
595.792	6.94
595.982	6.83
596.172	7.03
596.363	6.87
596.553	6.91
596.743	6.94
596.933	6.93
597.123	6.79
597.314	6.75
597.504	6.83
597.694	6.9
597.884	6.82
598.074	6.84
598.264	6.78
598.454	6.82
598.644	6.77
598.834	6.73
599.024	6.64
599.214	6.71
599.404	6.8
599.594	6.7
599.784	6.67
599.974	6.76
600.164	6.7
600.354	6.71
600.544	6.54
600.734	6.67
600.924	6.61
601.114	6.57
601.303	6.47
601.493	6.51
601.683	6.52
601.873	6.57
602.063	6.48
602.252	6.56
602.442	6.4
602.632	6.51
602.821	6.38
603.011	6.5
603.201	6.48
603.39	6.36
603.58	6.25
603.77	6.37
603.959	6.55
604.149	6.35
604.339	6.31
604.528	6.44
604.718	6.39
604.907	6.25
605.097	6.26
605.286	6.25
605.476	6.25
605.665	6.29
605.855	6.24
606.044	6.31
606.234	6.3
606.423	6.2
606.612	6.18
606.802	6.16
606.991	6.19
607.181	6.17
607.37	6.11
607.559	5.9
607.749	6.12
607.938	5.96
608.127	6.08
608.316	6.06
608.506	5.97
608.695	6.07
608.884	6.02
609.073	6.02
609.263	6.09
609.452	6
609.641	5.87
609.83	5.79
610.019	5.97
610.208	5.83
610.397	5.85
610.586	5.89
610.775	5.81
610.965	5.82
611.154	5.69
611.343	5.79
611.532	5.68
611.721	5.81
611.91	5.64
612.099	5.73
612.287	5.59
612.476	5.58
612.665	5.77
612.854	5.61
613.043	5.6
613.232	5.62
613.421	5.54
613.61	5.6
613.798	5.57
613.987	5.53
614.176	5.51
614.365	5.5
614.554	5.5
614.742	5.54
614.931	5.43
615.12	5.53
615.309	5.49
615.497	5.42
615.686	5.24
615.875	5.42
616.063	5.36
616.252	5.37
616.44	5.35
616.629	5.26
616.818	5.31
617.006	5.3
617.195	5.23
617.383	5.24
617.572	5.15
617.76	5.16
617.949	5.15
618.137	5.25
618.326	5.26
618.514	5.03
618.703	5.02
618.891	5.14
619.079	5.07
619.268	5.16
619.456	5.05
619.644	5.15
619.833	5.02
620.021	5.03
620.209	4.94
620.398	4.98
620.586	4.88
620.774	4.99
620.962	4.94
621.151	5.08
621.339	4.87
621.527	4.82
621.715	4.82
621.903	4.91
622.092	4.79
622.28	4.89
622.468	4.72
622.656	4.77
622.844	4.77
623.032	4.82
623.22	4.64
623.408	4.8
623.596	4.7
623.784	4.8
623.972	4.63
624.16	4.64
624.348	4.67
624.536	4.73
624.724	4.57
624.912	4.62
625.1	4.69
625.288	4.64
625.476	4.41
625.664	4.59
625.851	4.52
626.039	4.54
626.227	4.46
626.415	4.47
626.603	4.41
626.79	4.46
626.978	4.46
627.166	4.45
627.354	4.35
627.541	4.36
627.729	4.21
627.917	4.48
628.104	4.42
628.292	4.31
628.48	4.32
628.667	4.33
628.855	4.37
629.042	4.39
629.23	4.17
629.418	4.22
629.605	4.26
629.793	4.13
629.98	4.21
630.168	4.14
630.355	4.24
630.543	4.15
630.73	4.09
630.917	4.06
631.105	4.26
631.292	4.08
631.48	4.05
631.667	4.19
631.854	4.07
632.042	4.05
632.229	3.95
632.416	4.06
632.604	4
632.791	3.83
632.978	4.03
633.165	3.94
633.353	4.01
633.54	3.99
633.727	3.81
633.914	3.82
634.101	3.82
634.289	3.95
634.476	3.77
634.663	3.83
634.85	3.78
635.037	3.73
635.224	3.67
635.411	3.79
635.598	3.72
635.785	3.72
635.972	3.67
636.159	3.74
636.346	3.65
636.533	3.63
636.72	3.63
636.907	3.62
637.094	3.64
637.281	3.56
637.468	3.62
637.655	3.58
637.842	3.57
638.029	3.53
638.215	3.56
638.402	3.55
638.589	3.44
638.776	3.49
638.963	3.46
639.149	3.54
639.336	3.55
639.523	3.42
639.709	3.44
639.896	3.4
640.083	3.39
640.27	3.41
640.456	3.32
640.643	3.34
640.829	3.26
641.016	3.32
641.203	3.23
641.389	3.28
641.576	3.3
641.762	3.27
641.949	3.24
642.135	3.28
642.322	3.24
642.508	3.12
642.695	3.2
642.881	3.13
643.068	3.13
643.254	3.19
643.441	3.22
643.627	3.2
643.813	3.06
644	3.14
644.186	3.04
644.372	3.11
644.559	3.1
644.745	3.05
644.931	2.97
645.118	2.98
645.304	3.02
645.49	2.95
645.676	2.94
645.862	3.01
646.049	3.04
646.235	2.92
646.421	3.07
646.607	3.06
646.793	2.9
646.979	2.79
647.165	2.93
647.352	2.91
647.538	2.92
647.724	2.84
647.91	2.85
648.096	2.86
648.282	2.91
648.468	2.8
648.654	2.86
648.84	2.78
649.026	2.82
649.212	2.69
649.397	2.7
649.583	2.73
649.769	2.75
649.955	2.7
650.141	2.71
650.327	2.74
650.513	2.66
650.698	2.65
650.884	2.57
651.07	2.68
651.256	2.58
651.442	2.65
651.627	2.5
651.813	2.61
651.999	2.58
652.184	2.54
652.37	2.57
652.556	2.53
652.741	2.59
652.927	2.39
653.113	2.51
653.298	2.5
653.484	2.48
653.669	2.42
653.855	2.45
654.04	2.53
654.226	2.48
654.412	2.41
654.597	2.34
654.782	2.42
654.968	2.42
655.153	2.34
655.339	2.35
655.524	2.34
655.71	2.34
655.895	2.34
656.08	2.4
656.266	2.42
656.451	2.33
656.636	2.24
656.822	2.29
657.007	2.25
657.192	2.28
657.378	2.22
657.563	2.23
657.748	2.27
657.933	2.28
658.118	2.17
658.304	2.18
658.489	2.21
658.674	2.21
658.859	2.11
659.044	2.21
659.229	2.21
659.414	2.14
659.599	2.21
659.785	2.11
659.97	2.15
660.155	2.16
660.34	2.12
660.525	2.07
660.71	2.04
660.895	2.15
661.08	2.05
661.264	2.04
661.449	2.15
661.634	2.04
661.819	2.08
662.004	2.01
662.189	1.97
662.374	2.01
662.559	2.01
662.743	1.92
662.928	1.98
663.113	1.95
663.298	1.91
663.483	1.89
663.667	2
663.852	1.88
664.037	1.99
664.221	1.89
664.406	1.95
664.591	1.92
664.775	1.92
664.96	1.84
665.145	1.88
665.329	1.85
665.514	1.86
665.698	1.79
665.883	1.76
666.068	1.9
666.252	1.82
666.437	1.75
666.621	1.82
666.806	1.85
666.99	1.84
667.174	1.74
667.359	1.89
667.543	1.78
667.728	1.78
667.912	1.63
668.096	1.71
668.281	1.69
668.465	1.75
668.649	1.7
668.834	1.72
669.018	1.74
669.202	1.67
669.387	1.69
669.571	1.73
669.755	1.67
669.939	1.64
670.124	1.7
670.308	1.73
670.492	1.69
670.676	1.62
670.86	1.65
671.044	1.57
671.228	1.66
671.413	1.58
671.597	1.61
671.781	1.6
671.965	1.67
672.149	1.59
672.333	1.58
672.517	1.53
672.701	1.52
672.885	1.53
673.069	1.5
673.253	1.61
673.437	1.53
673.621	1.5
673.804	1.48
673.988	1.55
674.172	1.54
674.356	1.46
674.54	1.52
674.724	1.62
674.908	1.5
675.091	1.5
675.275	1.45
675.459	1.49
675.643	1.48
675.826	1.48
676.01	1.41
676.194	1.43
676.377	1.44
676.561	1.49
676.745	1.44
676.928	1.45
677.112	1.51
677.296	1.38
677.479	1.38
677.663	1.39
677.846	1.45
678.03	1.35
678.213	1.35
678.397	1.43
678.58	1.32
678.764	1.35
678.947	1.33
679.131	1.36
679.314	1.42
679.498	1.39
679.681	1.35
679.865	1.42
680.048	1.34
680.231	1.29
680.415	1.3
680.598	1.27
680.781	1.32
680.965	1.24
681.148	1.3
681.331	1.23
681.514	1.35
681.698	1.22
681.881	1.26
682.064	1.26
682.247	1.23
682.43	1.16
682.614	1.24
682.797	1.32
682.98	1.33
683.163	1.17
683.346	1.22
683.529	1.18
683.712	1.18
683.895	1.21
684.078	1.07
684.261	1.15
684.444	1.22
684.627	1.22
684.81	1.07
684.993	1.15
685.176	1.2
685.359	1.11
685.542	1.13
685.725	1.32
685.908	1.16
686.091	1.13
686.274	1.2
686.457	1.22
686.639	1.08
686.822	1.21
687.005	1.08
687.188	1.19
687.371	1.25
687.553	1.13
687.736	1.15
687.919	1.18
688.102	1.18
688.284	1.1
688.467	1.1
688.65	1.14
688.832	1.05
689.015	1.1
689.197	0.99
689.38	1.16
689.563	1.19
689.745	0.96
689.928	0.99
690.11	1.01
690.293	1.06
690.475	0.96
690.658	1.06
690.84	1.01
691.023	1.05
691.205	0.93
691.388	0.98
691.57	1.09
691.752	1.04
691.935	0.93
692.117	0.91
692.3	1.01
692.482	1
692.664	0.9
692.847	0.99
693.029	1.07
693.211	1.04
693.393	0.96
693.576	0.89
693.758	0.97
693.94	0.96
694.122	0.94
694.304	0.91
694.487	0.9
694.669	1.04
694.851	0.8
695.033	0.96
695.215	0.97
695.397	0.88
695.579	0.92
695.761	0.79
695.943	0.9
696.125	1.01
696.308	0.86
696.49	0.79
696.671	1.04
696.853	0.91
697.035	1.1
697.217	0.85
697.399	0.96
697.581	0.86
697.763	0.9
697.945	0.79
698.127	0.91
698.309	0.91
698.491	0.91
698.672	0.92
698.854	0.94
699.036	0.93
699.218	0.82
699.399	0.9
699.581	0.96
699.763	0.85
699.945	0.79
700.126	0.77
700.308	0.78
700.49	0.85
700.671	0.71
700.853	0.76
701.035	0.85
701.216	0.8
701.398	0.74
701.579	0.77
701.761	0.88
701.943	0.78
702.124	0.75
702.306	0.78
702.487	0.91
702.669	0.73
702.85	0.74
703.031	0.74
703.213	0.93
703.394	0.78
703.576	0.72
703.757	0.95
703.938	0.87
704.12	0.96
704.301	0.83
704.483	0.74
704.664	0.76
704.845	0.91
705.026	0.78
705.208	0.77
705.389	0.83
705.57	0.74
705.751	0.77
705.933	0.73
706.114	0.85
706.295	0.82
706.476	0.69
706.657	0.82
706.838	0.86
707.02	0.76
707.201	0.7
707.382	0.72
707.563	0.8
707.744	0.73
707.925	0.67
708.106	0.67
708.287	0.68
708.468	0.84
708.649	0.69
708.83	0.8
709.011	0.66
709.192	0.8
709.373	0.61
709.554	0.63
709.734	0.8
709.915	0.75
710.096	0.65
710.277	0.56
710.458	0.7
710.639	0.73
710.819	0.57
711	0.59
711.181	0.75
711.362	0.81
711.542	0.69
711.723	0.72
711.904	0.66
712.085	0.76
712.265	0.69
712.446	0.58
712.627	0.63
712.807	0.61
712.988	0.64
713.168	0.52
713.349	0.73
713.53	0.49
713.71	0.52
713.891	0.57
714.071	0.66
714.252	0.59
714.432	0.63
714.613	0.52
714.793	0.65
714.974	0.69
715.154	0.72
715.334	0.7
715.515	0.78
715.695	0.51
715.876	0.61
716.056	0.6
716.236	0.56
716.417	0.58
716.597	0.54
716.777	0.76
716.957	0.59
717.138	0.7
717.318	0.56
717.498	0.53
717.678	0.6
717.859	0.65
718.039	0.45
718.219	0.55
718.399	0.62
718.579	0.54
718.759	0.48
718.939	0.61
719.12	0.56
719.3	0.56
719.48	0.44
719.66	0.37
719.84	0.64
720.02	0.6
720.2	0.45
720.38	0.53
720.56	0.75
720.74	0.46
720.92	0.56
721.1	0.68
721.279	0.71
721.459	0.51
721.639	0.4
721.819	0.51
721.999	0.54
722.179	0.69
722.359	0.49
722.538	0.59
722.718	0.63
722.898	0.54
723.078	0.51
723.257	0.49
723.437	0.6
723.617	0.53
723.797	0.46
723.976	0.48
724.156	0.63
724.336	0.66
724.515	0.74
724.695	0.4
724.874	0.53
725.054	0.59
725.234	0.48
725.413	0.52
725.593	0.53
725.772	0.48
725.952	0.49
726.131	0.43
726.311	0.42
726.49	0.54
726.67	0.52
726.849	0.44
727.028	0.58
727.208	0.45
727.387	0.47
727.567	0.38
727.746	0.48
727.925	0.47
728.105	0.42
728.284	0.45
728.463	0.46
728.643	0.59
728.822	0.42
729.001	0.41
729.18	0.43
729.359	0.61
729.539	0.51
729.718	0.56
729.897	0.53
730.076	0.46
730.255	0.41
730.434	0.52
730.614	0.66
730.793	0.67
730.972	0.45
731.151	0.53
731.33	0.55
731.509	0.6
731.688	0.46
731.867	0.48
732.046	0.37
732.225	0.76
732.404	0.44
732.583	0.37
732.762	0.46
732.941	0.53
733.12	0.49
733.298	0.5
733.477	0.62
733.656	0.45
733.835	0.47
734.014	0.63
734.193	0.54
734.371	0.58
734.55	0.59
734.729	0.38
734.908	0.47
735.086	0.56
735.265	0.52
735.444	0.25
735.623	0.32
735.801	0.49
735.98	0.5
736.159	0.45
736.337	0.58
736.516	0.56
736.694	0.51
736.873	0.47
737.052	0.77
737.23	0.62
737.409	0.5
737.587	0.76
737.766	0.41
737.944	0.55
738.123	0.47
738.301	0.51
738.479	0.38
738.658	0.38
738.836	0.3
739.015	0.52
739.193	0.66
739.371	0.3
739.55	0.41
739.728	0.39
739.906	0.56
740.085	0.57
740.263	0.41
740.441	0.28
740.62	0.77
740.798	0.57
740.976	0.39
741.154	0.29
741.332	0.66
741.511	0.48
741.689	0.56
741.867	0.66
742.045	0.5
742.223	0.46
742.401	0.42
742.579	0.42
742.757	0.62
742.935	0.32
743.114	0.32
743.292	0.39
743.47	0.51
743.648	0.41
743.826	0.47
744.004	0.58
744.181	0.58
744.359	0.36
744.537	0.49
744.715	0.47
744.893	0.46
745.071	0.47
745.249	0.45
745.427	0.47
745.605	0.51
745.782	0.45
745.96	0.64
746.138	0.5
746.316	0.62
746.493	0.51
746.671	0.39
746.849	0.43
747.027	0.54
747.204	0.34
747.382	0.47
747.56	0.2
747.737	0.49
747.915	0.42
748.093	0.55
748.27	0.36
748.448	0.42
748.625	0.35
748.803	0.34
748.98	0.41
749.158	0.49
749.335	0.5
749.513	0.45
749.69	0.31
749.868	0.51
750.045	0.39
750.223	0.35
750.4	0.16
750.578	0.68
750.755	0.42
750.932	0.25
751.11	0.49
751.287	0.29
751.464	0.53
751.642	0.3
751.819	0.39
751.996	0.43
752.173	0.32
752.351	0.29
752.528	0.38
752.705	0.4
752.882	0.29
753.06	0.35
753.237	0.38
753.414	0.62
753.591	0.66
753.768	0.34
753.945	0.41
754.122	0.37
754.299	0.52
754.476	0.34
754.654	0.37
754.831	0.57
755.008	0.48
755.185	0.34
755.362	0.23
755.539	0.37
755.716	0.42
755.892	0.24
756.069	0.33
756.246	0.46
756.423	0.44
756.6	0.54
756.777	0.26
756.954	0.52
757.131	0.43
757.307	0.28
757.484	0.32
757.661	0.49
757.838	0.5
758.015	0.29
758.191	0.43
758.368	0.45
758.545	0.54
758.721	0.49
758.898	0.18
759.075	0.35
759.251	0.51
759.428	0.45
759.605	0.22
759.781	0.31
759.958	0.49
760.134	0.28
760.311	0.31
760.488	0.51
760.664	0.58
760.841	0.38
761.017	0.19
761.194	0.47
761.37	0.58
761.547	0.33
761.723	0.34
761.899	0.55
762.076	0.32
762.252	0.25
762.429	0.24
762.605	0.49
762.781	0.36
762.958	0.48
763.134	0.22
763.31	0.36
763.486	0.52
763.663	0.17
763.839	0.52
764.015	0.17
764.191	0.29
764.368	0.32
764.544	0.25
764.72	0.37
764.896	0.53
765.072	0.41
765.248	0.3
765.425	0.36
765.601	0.4
765.777	0.36
765.953	0.15
766.129	0.38
766.305	0.14
766.481	0.48
766.657	0.37
766.833	0.55
767.009	0.14
767.185	0.34
767.361	0.27
767.537	0.15
767.713	0.61
767.889	0.33
768.065	0.39
768.24	0.55
768.416	0.42
768.592	0.31
768.768	0.33
768.944	0.4
769.12	0.31
769.295	0.33
769.471	0.34
769.647	0.41
769.823	0.57
769.998	0.27
770.174	0.21
770.35	0.75
770.525	0.75
770.701	0.45
770.877	0.27
771.052	0.26
771.228	0.58
771.403	0.48
771.579	0.39
771.755	0.75
771.93	0.39
772.106	0.34
772.281	0.06
772.457	0.41
772.632	0.49
772.808	0.24
772.983	0.14
773.159	0.19
773.334	0.65
773.509	0.41
773.685	0.31
773.86	0.87
774.036	0.61
774.211	0.38
774.386	0.38
774.562	0.45
774.737	0.72
774.912	0.24
775.087	0.39
775.263	0.38
775.438	0.45
775.613	0.44
775.788	0.36
775.964	0.66
776.139	0.93
776.314	0.15
776.489	0.37
776.664	0.41
776.839	0.26
777.014	0.64
777.19	0.64
777.365	0.85
777.54	0.7
777.715	0.33
777.89	0.37
778.065	0.46
778.24	0.49
778.415	0.62
778.59	0.24
778.765	0.47
778.94	0.62
779.115	0.42
779.289	0.33
779.464	0.37
779.639	0.37
779.814	0.12
779.989	0.25
780.164	0.56
780.339	0.45
780.513	0.29
780.688	0.1
780.863	0.47
781.038	0.57
781.212	0.1
781.387	0.5
781.562	0.7
781.737	0.3
781.911	0.59
782.086	0.17
782.261	0.25
782.435	0.71
782.61	0.4
782.784	0.4
782.959	0.6
783.134	0.51
783.308	0.19
783.483	0.23
783.657	0.83
783.832	0.82
784.006	-0
784.181	0.27
784.355	0.74
784.53	0.33
784.704	0.08
784.878	0.81
785.053	0.53
785.227	0.74
785.402	0.88
785.576	0.35
785.75	0.47
785.925	0.37
786.099	0.46
786.273	0.44
786.448	0.72
786.622	0.5
786.796	0.41
786.97	0.48
787.145	1.18
787.319	0.02
787.493	0.42
787.667	0.09
787.841	0.64
788.015	0.88
788.19	0.37
788.364	0.45
788.538	0.79
788.712	0.57
788.886	0.26
789.06	0.65
789.234	0.88
789.408	0.25
789.582	0.29
789.756	0.3
789.93	0.23
790.104	0.52
790.278	0.38
790.452	0.23
790.626	0.55
790.8	0.42
790.973	0.64
791.147	0.9
791.321	0.92
791.495	0.7
791.669	0.55
791.843	0.36
792.016	0.49
792.19	0.95
792.364	0.26
792.538	1.06
792.711	0.65
792.885	0.25
793.059	0.45
793.233	-0.28
793.406	0.71
793.58	0.4
793.754	0.63
793.927	0.44
794.101	0.93
794.274	0.33
794.448	0.7
794.622	0.23
794.795	0.94
794.969	0.45
795.142	0.75
795.316	0.21
795.489	0.25
795.663	0.71
795.836	0.47
796.009	-0.03
796.183	0.99
796.356	0.81
796.53	0.63
796.703	0.56
796.876	1.1
797.05	0.41
797.223	0.37
797.396	0.54
797.57	0.63
797.743	0.97
797.916	0.6
798.09	0.42
798.263	0.74
798.436	0.47
798.609	0.3
798.782	0.28
798.956	0.75
799.129	0.5
799.302	0.46
799.475	0.29
799.648	0.38
799.821	0.32
799.994	0.5
800.167	0.03
800.34	0.63
800.514	0.55
800.687	0.42
800.86	0.06
801.033	0.72
801.206	0.89
801.379	0.42
801.551	1.09
801.724	0.57
801.897	1.16
802.07	0.46
802.243	0.11
802.416	0.67
802.589	0.42
802.762	0.93
802.935	0.59
803.107	1.01
803.28	0.79
803.453	0.84
803.626	0.5
803.798	0.73
803.971	0.46
804.144	0.61
804.317	0.6
804.489	0.86
804.662	0.67
804.835	0.57
805.007	0.22
805.18	1.28
805.353	0.63
805.525	0.16
805.698	0.57
805.87	1.06
806.043	1.36
806.215	0.16
806.388	0.51
806.56	0.99
806.733	1.04
806.905	0.74
807.078	0.32
807.25	0.47
807.423	1.06
807.595	0.54
807.768	0.55
807.94	0.94
808.112	0.72
808.285	0.86
808.457	0.41
808.629	0.67
808.802	1
808.974	0.81
809.146	0.27
809.318	0.38
809.491	0.6
809.663	0.86
809.835	0.16
810.007	1.09
810.18	0.66
810.352	0.17
810.524	0.41
810.696	0.87
810.868	1.13
811.04	0.58
811.212	0.54
811.384	0.96
811.556	0.93
811.728	0.75
811.901	1.91
812.073	0.64
812.245	0.74
812.417	0.6
812.589	-0.1
812.76	0.72
812.932	1.07
813.104	0.85
813.276	0.42
813.448	0.83
813.62	0.83
813.792	1.03
813.964	0.59
814.136	1.09
814.307	0.58
814.479	0.26
814.651	0.39
814.823	1.79
814.995	0.47
815.166	0.67
815.338	0.46
815.51	0.17
815.681	1.41
815.853	0.74
816.025	0.54
816.196	1.41
816.368	1.27
816.54	-0.12
816.711	0.25
816.883	1.33
817.054	1.67
817.226	0.23
817.398	0.84
817.569	0.44
817.741	0.77
817.912	0.38
818.084	0.66
818.255	1.22
818.426	0.62
818.598	0.41
818.769	0.38
818.941	1.16
819.112	1.69
819.283	0.92
819.455	0.2
819.626	0.69
819.798	0.91
819.969	0.65
820.14	0.6
820.311	0.55
820.483	1.3
820.654	0.93
820.825	0.64
820.996	0.32
821.168	0.31
821.339	0.51
821.51	0.25
821.681	0.43
821.852	1.08
822.023	0.37
822.195	0.29
822.366	1.24
822.537	0.77
822.708	0.33
822.879	0.6
823.05	1.6
823.221	0.48
823.392	0.9
823.563	1.14
823.734	1.26
823.905	1.11
824.076	0.37
824.247	-0.13
824.418	0.94
824.589	1.43
824.759	0.88
824.93	0.3
825.101	0.16
825.272	2.14
825.443	1.31
825.614	1.09
825.784	-0.04
825.955	1.85
826.126	1.38
826.297	0.58
826.467	1.67
826.638	1.93
826.809	-0.25
826.98	0.26
827.15	1.36
827.321	0.88
827.492	2.05
827.662	0.78
827.833	2.21
828.003	1.98
828.174	0.14
828.345	0.13
828.515	1.52
828.686	0.89
828.856	0.87
829.027	0.84
829.197	1.25
829.368	1.58
829.538	0.37
829.709	0.05
829.879	0.94
830.049	0.54
830.22	0.71
830.39	0.47
830.56	1.77
830.731	0.74
830.901	0.2
831.072	1.02
831.242	1.78
831.412	1.25
831.582	1.1
831.753	-0.5
831.923	1.83
832.093	1.21
832.263	0.94
832.434	-0.04
832.604	0.71
832.774	1.4
832.944	1.01
833.114	0.33
833.284	0.89
833.454	0.6
833.624	0.94
833.795	0.74
833.965	1.56
834.135	2.21
834.305	-0.7
834.475	-0.11
834.645	1.27
834.815	0.46
834.985	0.18
835.155	0.35
835.325	1.75
835.494	1.39
835.664	0.74
835.834	0.58
836.004	1.43
836.174	1.57
836.344	1.19
836.514	0.03
836.684	0.82
836.853	1.45
837.023	1.2
837.193	0.93
837.363	1.77
837.532	1.46
837.702	0.57
837.872	0.06
838.041	1.86
838.211	2.66
838.381	0.23
838.55	1.38
838.72	3.78
838.89	2.18
839.059	0.76
839.229	0.5
839.398	3.7
839.568	1.29
839.738	0.9
839.907	2.48
840.077	1.48
840.246	0.55
840.416	0.35
840.585	0.11
840.755	2.32
840.924	2.71
841.093	0.86
841.263	0.25
841.432	1.54
841.602	1.04
841.771	-0.22
841.94	1.11
842.11	3.27
842.279	3.09
842.448	0.74
842.617	0.61
842.787	2.83
842.956	0.64
843.125	1.28
843.294	0.75
843.464	2.47
843.633	1.77
843.802	-0.18
843.971	1.58
844.14	1.93
844.309	3.06
844.479	-0.64
844.648	0.78
844.817	1.24
844.986	1.19
845.155	0.75
845.324	0.76
845.493	1.9
845.662	0.89
845.831	2.07
846	1.02
846.169	0.5
846.338	2.88
846.507	1.08
846.676	1.69
846.844	0.99
847.013	2.1
847.182	2.1
847.351	-0.04
847.52	1.04
847.689	1.68
847.858	0.69
848.026	0.53
848.195	1.58
848.364	0.71
848.533	1.09
848.701	0.08
848.87	1.9
849.039	2.48
849.207	2.15
849.376	2.56
849.545	4.04
849.713	0.21
849.882	0.16
850.051	0.82
850.219	1.91
850.388	1.77
850.556	0.94
850.725	0.3
850.893	1.16
851.062	1.6
851.23	2.49
851.399	0.52
851.567	1.08
851.736	1.16
851.904	0.7
852.073	1.41
852.241	1.97
852.41	0.67
852.578	1.3
852.746	1.49
852.915	2.29
853.083	0.97
853.251	-0.59
853.42	1.88
853.588	0.97
853.756	3.32
853.924	2.03
854.093	0.52
854.261	1.06
854.429	-0.3
854.597	1.33
854.765	0.38
854.934	2.24
855.102	3.85
855.27	1.48
855.438	2.46
855.606	3.76
855.774	2.94
855.942	-0.2
856.11	-0.84
856.278	1.53
856.446	2.32
856.614	1.54
856.782	0.59
856.95	3.21
857.118	1.57
857.286	1.72
857.454	0.91
857.622	3.7
857.79	3.68
857.958	0.62
858.126	1.19
858.294	-0.6
858.462	0.94
858.629	0.39
858.797	0.44
858.965	2.29
859.133	1.75
859.301	1.3
859.468	1.47
859.636	1.34
859.804	4.74
859.971	1.33
860.139	0.75
860.307	2.82
860.474	1.81
860.642	1.14
860.81	0.9
860.977	1.61
861.145	2.79
861.313	1.34
861.48	1.71
861.648	3.36
861.815	1.45
861.983	0.45
862.15	-0.04
862.318	1.58
862.485	4
862.653	1.39
862.82	0.22
862.988	3.96
863.155	3
863.322	1.89
863.49	0.21
863.657	0.6
863.824	4.26
863.992	2.88
864.159	1.6
864.326	3.75
864.494	1.38
864.661	4.75
864.828	0.69
864.996	2.39
865.163	3.17
865.33	1.4
865.497	-1.3
865.664	1.1
865.832	-0.62
865.999	0.14
866.166	1.86
866.333	1.09
866.5	0.78
866.667	1.59
866.834	2.57
867.001	5.13
867.168	0.35
867.335	2.07
867.502	0.1
867.669	1.14
867.836	5.72
868.003	0.63
868.17	4.47
868.337	-0.03
868.504	5.37
868.671	-1.59
868.838	0.01
869.005	3.32
869.172	2.27
869.339	1.97
869.505	0.75
869.672	3.27
869.839	5.36
870.006	2.01
870.173	1.32
870.339	2.27
870.506	5.22
870.673	-0.16
870.84	2.62
871.006	2
871.173	1.99
871.34	2.47
871.506	0.25
871.673	2.69
871.839	1.21
872.006	1.77
872.173	0.98
872.339	1.71
872.506	2.99
872.672	1.19
872.839	1.31
873.005	3.21
873.172	6.35
873.338	3.18
873.505	2.29
873.671	2.82
873.838	2.79
874.004	-0.73
874.171	-0.57
874.337	3.05
874.503	4.84
874.67	0.39
874.836	1.98
875.002	4.47
875.169	3.4
875.335	1.86
875.501	0.3
875.668	2.78
875.834	1.02
876	1.35
876.166	3.02
876.332	4.45
876.499	6.29
876.665	1.7
876.831	3.89
876.997	7.68
877.163	3.27
877.329	2.14
877.495	0.88
877.662	4.76
877.828	0.75
877.994	2.92
878.16	-1.32
878.326	0.81
878.492	4.72
878.658	1.27
878.824	2.5
878.99	3.53
879.156	2.72
879.322	4.29
879.487	1.96
879.653	2.3
879.819	1.99
879.985	-0.52
880.151	1.62
880.317	3.75
880.483	3.08
880.648	2.41
880.814	0.41
880.98	2.43
881.146	-0.49
881.312	-0.3
881.477	1.54
881.643	1.78
881.809	4.61
881.974	4.42
882.14	-0.08
882.306	3.84
882.471	6.5
882.637	2.42
882.803	4.29
882.968	5.89
883.134	6.93
883.299	1.89
883.465	2.29
883.63	4.19
883.796	3.58
883.961	4.63
884.127	2.73
884.292	-2.04
884.458	0.61
884.623	0.61
