Data from Apollo_Calib_20240827__AbsoluteIrradiance__871__13-40-01-177.txt Node

Date: Wed Aug 28 13:40:01 BST 2024
User: biology
Spectrometer: FLMT08252
Trigger mode: 0
Integration Time (sec): 5.000000E-1
Scans to average: 5
Electric dark correction enabled: true
Nonlinearity correction enabled: false
Boxcar width: 0
XAxis mode: Wavelengths
Number of Pixels in Spectrum: 3648
>>>>>Begin Spectral Data<<<<<
179.588	-0
179.809	-0
180.03	-0
180.251	-0
180.473	-0
180.694	0
180.915	0
181.136	-0
181.357	0
181.578	-0
181.799	-0
182.02	-0
182.241	-0
182.462	-0
182.683	0
182.904	-0
183.125	-0
183.346	0
183.567	0
183.788	0
184.009	0
184.23	0
184.451	0
184.672	0
184.892	0
185.113	0
185.334	0
185.555	0
185.776	0
185.996	0
186.217	0
186.438	0
186.659	0
186.879	0
187.1	0
187.321	0
187.541	0
187.762	0
187.983	0
188.203	0
188.424	0
188.644	0
188.865	0
189.086	0
189.306	0
189.527	0
189.747	0
189.968	0
190.188	0
190.409	0
190.629	0
190.849	0
191.07	0
191.29	0
191.511	0
191.731	0
191.951	0
192.172	0
192.392	0
192.612	0
192.833	0
193.053	0
193.273	0
193.493	0
193.714	0
193.934	0
194.154	0
194.374	0
194.594	0
194.815	0
195.035	0
195.255	0
195.475	0
195.695	0
195.915	0
196.135	0
196.355	0
196.575	0
196.795	0
197.015	0
197.235	0
197.455	0
197.675	0
197.895	0
198.115	0
198.335	0
198.555	0
198.775	0
198.995	0
199.214	0
199.434	0
199.654	0
199.874	0
200.094	3.72
200.313	2.9
200.533	1.64
200.753	1.6
200.973	3.47
201.192	3.54
201.412	1.38
201.632	1.89
201.851	3.57
202.071	2.02
202.291	2.05
202.51	1.76
202.73	2.56
202.95	1.98
203.169	1.43
203.389	1.81
203.608	2.73
203.828	1.83
204.047	1.29
204.267	2.39
204.486	2.39
204.706	2.37
204.925	1.87
205.145	1.58
205.364	2.22
205.583	3.02
205.803	1.3
206.022	1.14
206.242	1.89
206.461	1.77
206.68	1.15
206.9	1.39
207.119	2.57
207.338	2.2
207.557	1.07
207.777	0.92
207.996	1.57
208.215	2.06
208.434	1.33
208.654	0.88
208.873	1.59
209.092	2.2
209.311	1.13
209.53	1.05
209.749	1.05
209.968	0.92
210.187	0.92
210.407	0.69
210.626	1.23
210.845	1.64
211.064	1.24
211.283	0.96
211.502	1.51
211.721	1.21
211.94	0.86
212.159	1.39
212.377	1.57
212.596	1.72
212.815	1.25
213.034	1.05
213.253	1.25
213.472	1.24
213.691	0.92
213.91	0.56
214.128	0.49
214.347	1.49
214.566	0.56
214.785	0.66
215.003	1.34
215.222	1.14
215.441	0.79
215.66	0.6
215.878	0.94
216.097	1.31
216.316	0.69
216.534	0.81
216.753	0.93
216.972	0.9
217.19	0.82
217.409	0.75
217.627	0.69
217.846	0.87
218.064	0.95
218.283	0.81
218.501	1.6
218.72	1.18
218.938	0.59
219.157	0.75
219.375	1.15
219.594	1.2
219.812	0.5
220.031	0.51
220.249	1.22
220.467	1.23
220.686	0.63
220.904	0.43
221.122	0.66
221.341	1.3
221.559	0.7
221.777	0.39
221.995	0.92
222.214	0.96
222.432	0.57
222.65	0.83
222.868	0.87
223.086	0.89
223.305	0.87
223.523	0.59
223.741	1.16
223.959	0.68
224.177	0.34
224.395	0.61
224.613	0.72
224.831	0.95
225.049	0.52
225.267	0.64
225.485	0.76
225.703	0.54
225.921	0.45
226.139	0.53
226.357	0.92
226.575	0.82
226.793	0.56
227.011	1.5
227.229	0.74
227.447	0.89
227.665	0.5
227.883	0.29
228.1	0.6
228.318	0.8
228.536	0.25
228.754	0.45
228.972	0.72
229.189	0.78
229.407	0.58
229.625	0.56
229.843	0.87
230.06	0.88
230.278	0.51
230.496	0.61
230.713	0.59
230.931	0.81
231.149	0.52
231.366	0.31
231.584	0.53
231.801	1.09
232.019	0.48
232.236	0.34
232.454	0.43
232.671	0.64
232.889	0.49
233.106	0.31
233.324	0.51
233.541	0.52
233.759	0.53
233.976	0.31
234.194	0.48
234.411	0.69
234.628	0.4
234.846	0.43
235.063	0.6
235.28	0.59
235.498	0.58
235.715	0.42
235.932	0.71
236.149	0.45
236.367	0.45
236.584	0.59
236.801	0.49
237.018	0.6
237.236	0.39
237.453	0.29
237.67	0.65
237.887	0.54
238.104	0.43
238.321	0.37
238.538	0.45
238.755	0.72
238.973	0.27
239.19	0.43
239.407	0.67
239.624	0.57
239.841	0.36
240.058	0.42
240.275	0.51
240.492	0.52
240.709	0.43
240.925	0.5
241.142	0.43
241.359	0.37
241.576	0.41
241.793	0.32
242.01	0.49
242.227	0.72
242.444	0.54
242.66	0.62
242.877	0.49
243.094	0.42
243.311	0.36
243.527	0.38
243.744	0.65
243.961	0.54
244.178	0.42
244.394	0.36
244.611	0.59
244.828	0.73
245.044	0.38
245.261	0.39
245.477	0.5
245.694	0.51
245.911	0.32
246.127	0.58
246.344	0.7
246.56	0.65
246.777	0.34
246.993	0.43
247.21	0.46
247.426	0.57
247.643	0.28
247.859	0.37
248.076	0.36
248.292	0.74
248.508	0.38
248.725	0.47
248.941	0.52
249.157	0.63
249.374	0.35
249.59	0.45
249.806	0.4
250.023	0.47
250.239	0.29
250.455	0.32
250.671	0.47
250.888	0.47
251.104	0.53
251.32	0.37
251.536	0.43
251.752	0.48
251.969	0.36
252.185	0.31
252.401	0.62
252.617	0.48
252.833	0.33
253.049	0.44
253.265	0.45
253.481	0.48
253.697	0.35
253.913	0.33
254.129	0.52
254.345	0.4
254.561	0.31
254.777	0.4
254.993	0.5
255.209	0.38
255.425	0.35
255.641	0.25
255.857	0.5
256.073	0.4
256.288	0.32
256.504	0.36
256.72	0.48
256.936	0.64
257.152	0.32
257.367	0.32
257.583	0.43
257.799	0.47
258.015	0.27
258.23	0.27
258.446	0.68
258.662	0.43
258.877	0.32
259.093	0.32
259.309	0.41
259.524	0.42
259.74	0.33
259.955	0.24
260.171	0.4
260.387	0.41
260.602	0.46
260.818	0.44
261.033	0.3
261.249	0.44
261.464	0.33
261.68	0.24
261.895	0.39
262.11	0.43
262.326	0.33
262.541	0.22
262.757	0.47
262.972	0.39
263.187	0.44
263.403	0.43
263.618	0.53
263.833	0.41
264.049	0.33
264.264	0.36
264.479	0.36
264.694	0.5
264.91	0.25
265.125	0.34
265.34	0.41
265.555	0.56
265.77	0.43
265.986	0.32
266.201	0.4
266.416	0.42
266.631	0.39
266.846	0.3
267.061	0.56
267.276	0.49
267.491	0.19
267.706	0.43
267.921	0.46
268.136	0.4
268.351	0.32
268.566	0.23
268.781	0.49
268.996	0.46
269.211	0.32
269.426	0.26
269.641	0.39
269.856	0.43
270.071	0.23
270.285	0.23
270.5	0.41
270.715	0.41
270.93	0.3
271.145	0.33
271.359	0.45
271.574	0.32
271.789	0.34
272.004	0.26
272.218	0.3
272.433	0.45
272.648	0.33
272.862	0.42
273.077	0.41
273.292	0.34
273.506	0.26
273.721	0.34
273.936	0.44
274.15	0.42
274.365	0.21
274.579	0.39
274.794	0.43
275.008	0.46
275.223	0.19
275.437	0.37
275.652	0.44
275.866	0.38
276.081	0.31
276.295	0.38
276.509	0.32
276.724	0.32
276.938	0.29
277.153	0.3
277.367	0.3
277.581	0.29
277.796	0.29
278.01	0.25
278.224	0.36
278.438	0.51
278.653	0.23
278.867	0.26
279.081	0.39
279.295	0.36
279.51	0.36
279.724	0.15
279.938	0.34
280.152	0.41
280.366	0.3
280.58	0.32
280.794	0.44
281.008	0.41
281.222	0.38
281.437	0.52
281.651	0.32
281.865	0.43
282.079	0.29
282.293	0.17
282.507	0.29
282.721	0.3
282.935	0.32
283.148	0.17
283.362	0.29
283.576	0.21
283.79	0.28
284.004	0.23
284.218	0.4
284.432	0.25
284.646	0.33
284.859	0.27
285.073	0.25
285.287	0.32
285.501	0.33
285.714	0.28
285.928	0.3
286.142	0.36
286.356	0.29
286.569	0.27
286.783	0.41
286.997	0.41
287.21	0.31
287.424	0.34
287.637	0.26
287.851	0.28
288.065	0.35
288.278	0.22
288.492	0.32
288.705	0.26
288.919	0.3
289.132	0.25
289.346	0.35
289.559	0.21
289.773	0.23
289.986	0.26
290.2	0.27
290.413	0.39
290.626	0.23
290.84	0.21
291.053	0.29
291.267	0.4
291.48	0.27
291.693	0.28
291.906	0.25
292.12	0.31
292.333	0.24
292.546	0.24
292.76	0.4
292.973	0.35
293.186	0.32
293.399	0.27
293.612	0.35
293.826	0.24
294.039	0.23
294.252	0.24
294.465	0.34
294.678	0.31
294.891	0.26
295.104	0.28
295.317	0.27
295.53	0.33
295.743	0.26
295.956	0.25
296.169	0.37
296.382	0.31
296.595	0.24
296.808	0.2
297.021	0.33
297.234	0.32
297.447	0.25
297.66	0.26
297.873	0.32
298.086	0.35
298.299	0.22
298.511	0.15
298.724	0.24
298.937	0.19
299.15	0.26
299.363	0.27
299.575	0.34
299.788	0.3
300.001	0.22
300.213	0.21
300.426	0.24
300.639	0.24
300.852	0.19
301.064	0.28
301.277	0.32
301.489	0.29
301.702	0.28
301.915	0.29
302.127	0.25
302.34	0.26
302.552	0.31
302.765	0.19
302.977	0.38
303.19	0.2
303.402	0.24
303.615	0.25
303.827	0.26
304.04	0.27
304.252	0.29
304.464	0.22
304.677	0.4
304.889	0.32
305.102	0.24
305.314	0.21
305.526	0.3
305.739	0.28
305.951	0.19
306.163	0.24
306.375	0.35
306.588	0.23
306.8	0.22
307.012	0.19
307.224	0.27
307.436	0.39
307.649	0.2
307.861	0.29
308.073	0.29
308.285	0.28
308.497	0.2
308.709	0.2
308.921	0.28
309.133	0.33
309.346	0.22
309.558	0.26
309.77	0.31
309.982	0.35
310.194	0.3
310.406	0.22
310.617	0.35
310.829	0.3
311.041	0.3
311.253	0.23
311.465	0.27
311.677	0.28
311.889	0.23
312.101	0.22
312.313	0.31
312.524	0.36
312.736	0.18
312.948	0.2
313.16	0.39
313.372	0.31
313.583	0.26
313.795	0.24
314.007	0.23
314.218	0.36
314.43	0.23
314.642	0.23
314.853	0.15
315.065	0.3
315.277	0.24
315.488	0.26
315.7	0.33
315.912	0.29
316.123	0.26
316.335	0.21
316.546	0.4
316.758	0.29
316.969	0.22
317.181	0.22
317.392	0.25
317.604	0.39
317.815	0.21
318.026	0.24
318.238	0.25
318.449	0.3
318.661	0.18
318.872	0.21
319.083	0.2
319.295	0.33
319.506	0.2
319.717	0.24
319.929	0.27
320.14	0.25
320.351	0.32
320.562	0.22
320.774	0.29
320.985	0.26
321.196	0.24
321.407	0.14
321.618	0.34
321.829	0.26
322.041	0.29
322.252	0.31
322.463	0.3
322.674	0.33
322.885	0.2
323.096	0.31
323.307	0.25
323.518	0.22
323.729	0.23
323.94	0.2
324.151	0.24
324.362	0.29
324.573	0.27
324.784	0.24
324.995	0.33
325.206	0.26
325.417	0.21
325.628	0.2
325.838	0.32
326.049	0.31
326.26	0.29
326.471	0.19
326.682	0.31
326.892	0.25
327.103	0.17
327.314	0.25
327.525	0.34
327.735	0.27
327.946	0.26
328.157	0.21
328.368	0.34
328.578	0.22
328.789	0.32
328.999	0.27
329.21	0.19
329.421	0.34
329.631	0.18
329.842	0.21
330.052	0.32
330.263	0.33
330.473	0.28
330.684	0.24
330.894	0.3
331.105	0.26
331.315	0.28
331.526	0.18
331.736	0.37
331.947	0.3
332.157	0.32
332.367	0.19
332.578	0.29
332.788	0.33
332.999	0.3
333.209	0.26
333.419	0.18
333.629	0.29
333.84	0.26
334.05	0.28
334.26	0.39
334.47	0.28
334.681	0.3
334.891	0.24
335.101	0.27
335.311	0.35
335.521	0.24
335.732	0.18
335.942	0.28
336.152	0.31
336.362	0.27
336.572	0.27
336.782	0.31
336.992	0.21
337.202	0.25
337.412	0.21
337.622	0.32
337.832	0.26
338.042	0.22
338.252	0.21
338.462	0.26
338.672	0.29
338.882	0.24
339.092	0.27
339.302	0.36
339.511	0.3
339.721	0.27
339.931	0.17
340.141	0.3
340.351	0.31
340.561	0.26
340.77	0.26
340.98	0.3
341.19	0.25
341.4	0.25
341.609	0.2
341.819	0.25
342.029	0.18
342.238	0.26
342.448	0.2
342.658	0.29
342.867	0.28
343.077	0.24
343.286	0.3
343.496	0.25
343.706	0.34
343.915	0.17
344.125	0.23
344.334	0.27
344.544	0.23
344.753	0.2
344.963	0.19
345.172	0.22
345.381	0.23
345.591	0.22
345.8	0.25
346.01	0.31
346.219	0.34
346.428	0.14
346.638	0.27
346.847	0.24
347.056	0.35
347.266	0.25
347.475	0.23
347.684	0.32
347.893	0.31
348.103	0.31
348.312	0.27
348.521	0.27
348.73	0.27
348.94	0.27
349.149	0.22
349.358	0.25
349.567	0.23
349.776	0.22
349.985	0.22
350.194	0.33
350.403	0.3
350.612	0.16
350.821	0.18
351.03	0.24
351.239	0.21
351.448	0.26
351.657	0.2
351.866	0.38
352.075	0.25
352.284	0.33
352.493	0.17
352.702	0.32
352.911	0.28
353.12	0.28
353.329	0.26
353.538	0.3
353.746	0.23
353.955	0.19
354.164	0.26
354.373	0.24
354.582	0.29
354.79	0.27
354.999	0.31
355.208	0.26
355.416	0.34
355.625	0.19
355.834	0.23
356.042	0.31
356.251	0.24
356.46	0.18
356.668	0.29
356.877	0.36
357.085	0.33
357.294	0.17
357.503	0.23
357.711	0.25
357.92	0.43
358.128	0.24
358.337	0.23
358.545	0.25
358.754	0.23
358.962	0.27
359.17	0.23
359.379	0.29
359.587	0.27
359.796	0.26
360.004	0.32
360.212	0.25
360.421	0.3
360.629	0.21
360.837	0.22
361.046	0.32
361.254	0.38
361.462	0.23
361.67	0.2
361.879	0.27
362.087	0.35
362.295	0.24
362.503	0.23
362.711	0.2
362.92	0.2
363.128	0.21
363.336	0.19
363.544	0.18
363.752	0.23
363.96	0.24
364.168	0.21
364.376	0.29
364.584	0.28
364.792	0.31
365	0.27
365.208	0.26
365.416	0.25
365.624	0.29
365.832	0.22
366.04	0.34
366.248	0.26
366.456	0.27
366.664	0.27
366.872	0.21
367.079	0.25
367.287	0.24
367.495	0.26
367.703	0.26
367.911	0.21
368.118	0.26
368.326	0.27
368.534	0.2
368.742	0.38
368.949	0.18
369.157	0.26
369.365	0.29
369.572	0.21
369.78	0.21
369.988	0.29
370.195	0.25
370.403	0.32
370.61	0.23
370.818	0.23
371.026	0.34
371.233	0.2
371.441	0.26
371.648	0.23
371.856	0.29
372.063	0.28
372.271	0.25
372.478	0.19
372.685	0.23
372.893	0.3
373.1	0.23
373.308	0.23
373.515	0.41
373.722	0.33
373.93	0.21
374.137	0.32
374.344	0.34
374.552	0.29
374.759	0.3
374.966	0.31
375.173	0.3
375.381	0.35
375.588	0.24
375.795	0.19
376.002	0.28
376.209	0.23
376.417	0.27
376.624	0.26
376.831	0.33
377.038	0.3
377.245	0.21
377.452	0.21
377.659	0.29
377.866	0.21
378.073	0.25
378.28	0.28
378.487	0.35
378.694	0.35
378.901	0.25
379.108	0.29
379.315	0.36
379.522	0.34
379.729	0.26
379.936	0.26
380.143	0.28
380.35	0.29
380.557	0.25
380.763	0.24
380.97	0.34
381.177	0.31
381.384	0.28
381.591	0.19
381.797	0.28
382.004	0.37
382.211	0.29
382.418	0.23
382.624	0.3
382.831	0.34
383.038	0.23
383.244	0.27
383.451	0.27
383.658	0.31
383.864	0.3
384.071	0.19
384.277	0.37
384.484	0.26
384.69	0.36
384.897	0.27
385.103	0.26
385.31	0.27
385.516	0.26
385.723	0.24
385.929	0.3
386.136	0.26
386.342	0.33
386.549	0.28
386.755	0.36
386.961	0.33
387.168	0.24
387.374	0.29
387.58	0.34
387.787	0.28
387.993	0.3
388.199	0.3
388.406	0.28
388.612	0.27
388.818	0.24
389.024	0.23
389.231	0.33
389.437	0.39
389.643	0.34
389.849	0.29
390.055	0.27
390.261	0.28
390.467	0.35
390.674	0.27
390.88	0.31
391.086	0.38
391.292	0.22
391.498	0.35
391.704	0.37
391.91	0.29
392.116	0.27
392.322	0.22
392.528	0.33
392.734	0.3
392.94	0.34
393.146	0.26
393.352	0.31
393.557	0.3
393.763	0.29
393.969	0.39
394.175	0.32
394.381	0.34
394.587	0.27
394.792	0.28
394.998	0.39
395.204	0.33
395.41	0.24
395.615	0.33
395.821	0.37
396.027	0.32
396.233	0.28
396.438	0.37
396.644	0.38
396.85	0.36
397.055	0.26
397.261	0.35
397.466	0.4
397.672	0.36
397.878	0.36
398.083	0.39
398.289	0.33
398.494	0.39
398.7	0.4
398.905	0.31
399.111	0.47
399.316	0.29
399.522	0.31
399.727	0.31
399.932	0.31
400.138	0.31
400.343	0.38
400.549	0.3
400.754	0.32
400.959	0.41
401.165	0.38
401.37	0.34
401.575	0.33
401.78	0.38
401.986	0.31
402.191	0.36
402.396	0.39
402.601	0.43
402.807	0.41
403.012	0.39
403.217	0.47
403.422	0.39
403.627	0.42
403.832	0.35
404.037	0.48
404.243	0.41
404.448	0.39
404.653	0.42
404.858	0.47
405.063	0.47
405.268	0.38
405.473	0.37
405.678	0.41
405.883	0.67
406.088	0.55
406.293	0.42
406.498	0.49
406.703	0.54
406.907	0.46
407.112	0.48
407.317	0.54
407.522	0.6
407.727	0.5
407.932	0.55
408.136	0.65
408.341	0.55
408.546	0.57
408.751	0.54
408.956	0.57
409.16	0.71
409.365	0.58
409.57	0.64
409.774	0.62
409.979	0.72
410.184	0.71
410.388	0.61
410.593	0.79
410.798	0.74
411.002	0.74
411.207	0.83
411.411	0.74
411.616	0.78
411.82	0.83
412.025	0.87
412.229	0.83
412.434	1.01
412.638	0.96
412.843	0.89
413.047	1.04
413.252	0.98
413.456	1.04
413.66	1.05
413.865	1.08
414.069	1.18
414.273	1.13
414.478	1.18
414.682	1.22
414.886	1.21
415.091	1.19
415.295	1.3
415.499	1.47
415.703	1.41
415.908	1.47
416.112	1.35
416.316	1.59
416.52	1.63
416.724	1.59
416.929	1.66
417.133	1.94
417.337	1.8
417.541	1.88
417.745	1.89
417.949	2.01
418.153	2.07
418.357	2.05
418.561	2.36
418.765	2.26
418.969	2.47
419.173	2.51
419.377	2.47
419.581	2.78
419.785	2.68
419.989	2.68
420.193	2.86
420.397	2.91
420.601	3.07
420.804	3.18
421.008	3.2
421.212	3.34
421.416	3.35
421.62	3.32
421.823	3.4
422.027	3.55
422.231	3.63
422.435	3.56
422.638	3.63
422.842	3.82
423.046	3.88
423.249	4.09
423.453	4.06
423.657	4.22
423.86	4.37
424.064	4.42
424.268	4.62
424.471	4.54
424.675	4.89
424.878	4.92
425.082	4.92
425.285	5.29
425.489	5.17
425.692	5.4
425.896	5.34
426.099	5.64
426.303	5.7
426.506	5.85
426.71	6.1
426.913	6.32
427.116	6.47
427.32	6.5
427.523	6.54
427.726	6.89
427.93	6.95
428.133	7.33
428.336	7.24
428.54	7.47
428.743	7.88
428.946	8.04
429.149	8.05
429.353	8.05
429.556	8.13
429.759	8.25
429.962	8.37
430.165	8.43
430.368	8.13
430.571	8.15
430.775	8.24
430.978	8.2
431.181	8.27
431.384	8.33
431.587	8.46
431.79	8.86
431.993	8.71
432.196	9.03
432.399	9.43
432.602	9.56
432.805	9.61
433.008	10.15
433.211	10.07
433.414	10.48
433.616	10.49
433.819	10.47
434.022	10.65
434.225	10.76
434.428	10.69
434.631	11.21
434.833	10.98
435.036	11.3
435.239	11.49
435.442	11.51
435.645	11.64
435.847	11.71
436.05	12.11
436.253	12.3
436.455	12.33
436.658	12.11
436.861	12.65
437.063	12.64
437.266	12.58
437.468	12.96
437.671	13.33
437.874	13.29
438.076	13.05
438.279	13.64
438.481	13.63
438.684	14.46
438.886	14.11
439.089	14.32
439.291	14.29
439.494	14.63
439.696	14.84
439.899	15.37
440.101	15.73
440.303	16.07
440.506	16.74
440.708	16.39
440.91	16.76
441.113	16.95
441.315	17.09
441.517	16.84
441.72	17.34
441.922	17.02
442.124	16.83
442.326	17.37
442.529	17.53
442.731	17.61
442.933	17.93
443.135	17.7
443.337	17.77
443.539	18.2
443.742	17.74
443.944	18.46
444.146	18.16
444.348	18.3
444.55	17.98
444.752	18.25
444.954	18.19
445.156	18.17
445.358	18.49
445.56	18.78
445.762	18.64
445.964	18.84
446.166	18.71
446.368	18.63
446.57	18.68
446.772	18.22
446.974	17.97
447.175	18.34
447.377	17.93
447.579	18.48
447.781	18.11
447.983	17.81
448.184	17.37
448.386	17.75
448.588	17.19
448.79	17.1
448.991	17.69
449.193	17.52
449.395	16.88
449.597	16.52
449.798	16.33
450	15.79
450.202	15.84
450.403	15.8
450.605	15.66
450.806	15.36
451.008	15.27
451.21	14.97
451.411	14.4
451.613	13.68
451.814	13.92
452.016	13.95
452.217	13.11
452.419	13.23
452.62	12.92
452.821	12.51
453.023	12.42
453.224	12.11
453.426	11.65
453.627	10.92
453.828	11.18
454.03	11.12
454.231	11.14
454.432	10.91
454.634	10.71
454.835	10.38
455.036	10.3
455.238	9.83
455.439	9.75
455.64	9.36
455.841	9.23
456.042	9.46
456.244	9
456.445	8.69
456.646	8.47
456.847	8.48
457.048	8.31
457.249	8.34
457.45	8.23
457.651	7.58
457.852	7.53
458.054	7.17
458.255	7.08
458.456	7.22
458.657	7.05
458.858	6.56
459.058	6.63
459.259	6.6
459.46	6.35
459.661	6.34
459.862	6.4
460.063	6.21
460.264	6.3
460.465	5.89
460.666	6.01
460.866	5.79
461.067	5.41
461.268	5.54
461.469	5.49
461.67	5.28
461.87	5.18
462.071	5.14
462.272	5.03
462.473	5.05
462.673	5.18
462.874	5.1
463.075	5.09
463.275	4.99
463.476	5.03
463.676	5.04
463.877	4.91
464.078	4.96
464.278	4.87
464.479	4.73
464.679	4.71
464.88	4.68
465.08	4.66
465.281	4.49
465.481	4.23
465.682	4.11
465.882	4.12
466.083	4.08
466.283	3.97
466.483	3.94
466.684	3.66
466.884	3.62
467.085	3.63
467.285	3.71
467.485	3.6
467.686	3.53
467.886	3.35
468.086	3.31
468.286	3.32
468.487	3.44
468.687	3.19
468.887	3.17
469.087	3.33
469.287	3.26
469.488	3.03
469.688	3.18
469.888	3.14
470.088	3.07
470.288	3.02
470.488	3.08
470.688	2.82
470.888	2.85
471.088	2.7
471.288	2.76
471.488	2.73
471.688	2.74
471.888	2.64
472.088	2.85
472.288	2.73
472.488	2.61
472.688	2.54
472.888	2.58
473.088	2.59
473.288	2.47
473.488	2.44
473.688	2.61
473.887	2.46
474.087	2.39
474.287	2.39
474.487	2.32
474.687	2.38
474.886	2.33
475.086	2.28
475.286	2.35
475.486	2.27
475.685	2.2
475.885	2.16
476.085	2.3
476.284	2.26
476.484	2.26
476.684	2.24
476.883	2.26
477.083	2.18
477.282	2.1
477.482	2.11
477.681	2.19
477.881	2.06
478.08	2.06
478.28	2.03
478.479	2.09
478.679	2.18
478.878	2.06
479.078	2.01
479.277	2.06
479.477	2.03
479.676	1.98
479.875	1.97
480.075	1.94
480.274	2.02
480.473	2.02
480.673	2.02
480.872	2.09
481.071	2.07
481.271	2.03
481.47	1.98
481.669	2.07
481.868	1.99
482.067	1.95
482.267	1.93
482.466	1.93
482.665	1.93
482.864	1.9
483.063	1.9
483.262	2.03
483.461	2.04
483.661	2.06
483.86	1.95
484.059	2.04
484.258	2.03
484.457	2
484.656	2.01
484.855	2.07
485.054	1.9
485.253	1.95
485.452	1.95
485.651	2.05
485.849	2.02
486.048	1.99
486.247	1.97
486.446	2.12
486.645	2.06
486.844	2.09
487.043	2.04
487.241	2.09
487.44	2.06
487.639	2.14
487.838	2.13
488.037	2.13
488.235	2.21
488.434	2.17
488.633	2.06
488.831	2.22
489.03	2.21
489.229	2.21
489.427	2.22
489.626	2.3
489.825	2.28
490.023	2.31
490.222	2.25
490.42	2.28
490.619	2.4
490.817	2.36
491.016	2.35
491.214	2.43
491.413	2.43
491.611	2.39
491.81	2.42
492.008	2.47
492.207	2.56
492.405	2.5
492.604	2.46
492.802	2.51
493	2.59
493.199	2.61
493.397	2.67
493.595	2.69
493.794	2.67
493.992	2.75
494.19	2.72
494.388	2.82
494.587	2.75
494.785	2.8
494.983	2.7
495.181	2.85
495.379	2.86
495.578	2.94
495.776	2.95
495.974	2.94
496.172	2.96
496.37	3.08
496.568	3.13
496.766	3.09
496.964	3.15
497.162	3.21
497.36	3.2
497.558	3.24
497.756	3.28
497.954	3.28
498.152	3.38
498.35	3.44
498.548	3.36
498.746	3.37
498.944	3.42
499.142	3.44
499.34	3.5
499.538	3.65
499.736	3.55
499.933	3.64
500.131	3.63
500.329	3.8
500.527	3.76
500.725	3.91
500.922	3.89
501.12	3.88
501.318	3.91
501.516	3.94
501.713	4.01
501.911	4
502.109	3.96
502.306	4.1
502.504	4.02
502.701	4.14
502.899	4.18
503.097	4.4
503.294	4.23
503.492	4.35
503.689	4.4
503.887	4.39
504.084	4.5
504.282	4.46
504.479	4.43
504.677	4.59
504.874	4.56
505.072	4.49
505.269	4.71
505.466	4.67
505.664	4.78
505.861	4.65
506.059	4.76
506.256	4.8
506.453	4.86
506.651	5.02
506.848	5.01
507.045	4.94
507.242	4.99
507.44	5.04
507.637	5.09
507.834	5.1
508.031	5.19
508.229	5.15
508.426	5.13
508.623	5.33
508.82	5.3
509.017	5.27
509.214	5.31
509.411	5.42
509.608	5.41
509.805	5.51
510.003	5.44
510.2	5.54
510.397	5.63
510.594	5.54
510.791	5.63
510.988	5.69
511.184	5.65
511.381	5.52
511.578	5.67
511.775	5.86
511.972	5.72
512.169	5.82
512.366	5.85
512.563	5.96
512.76	6
512.956	6.07
513.153	6.01
513.35	5.91
513.547	5.95
513.744	6.11
513.94	6
514.137	6.15
514.334	6.19
514.53	6.2
514.727	6.45
514.924	6.28
515.12	6.3
515.317	6.29
515.514	6.23
515.71	6.26
515.907	6.39
516.103	6.45
516.3	6.39
516.497	6.52
516.693	6.54
516.89	6.53
517.086	6.55
517.283	6.53
517.479	6.44
517.676	6.63
517.872	6.68
518.068	6.68
518.265	6.63
518.461	6.64
518.658	6.66
518.854	6.69
519.05	6.82
519.247	6.83
519.443	6.81
519.639	6.91
519.836	6.81
520.032	6.75
520.228	6.93
520.424	6.92
520.621	6.98
520.817	7.02
521.013	6.95
521.209	7.11
521.405	7.1
521.601	7.08
521.798	7.02
521.994	7.08
522.19	7
522.386	7.06
522.582	7.18
522.778	7.24
522.974	7.16
523.17	7.15
523.366	7.11
523.562	7.21
523.758	7.22
523.954	7.09
524.15	7.26
524.346	7.23
524.542	7.3
524.738	7.29
524.934	7.42
525.129	7.4
525.325	7.26
525.521	7.27
525.717	7.53
525.913	7.34
526.109	7.39
526.304	7.5
526.5	7.47
526.696	7.52
526.892	7.4
527.087	7.65
527.283	7.56
527.479	7.55
527.674	7.42
527.87	7.49
528.066	7.56
528.261	7.58
528.457	7.52
528.653	7.63
528.848	7.62
529.044	7.67
529.239	7.58
529.435	7.57
529.63	7.55
529.826	7.59
530.021	7.64
530.217	7.64
530.412	7.64
530.608	7.67
530.803	7.7
530.999	7.53
531.194	7.66
531.389	7.72
531.585	7.73
531.78	7.82
531.975	7.75
532.171	7.76
532.366	7.75
532.561	7.78
532.757	7.75
532.952	7.92
533.147	7.69
533.342	7.8
533.538	7.76
533.733	7.97
533.928	7.6
534.123	7.79
534.318	7.89
534.513	7.78
534.709	7.98
534.904	7.88
535.099	7.91
535.294	7.88
535.489	7.91
535.684	7.87
535.879	7.9
536.074	7.93
536.269	7.97
536.464	7.91
536.659	7.88
536.854	7.93
537.049	7.99
537.244	7.9
537.439	7.86
537.634	7.91
537.828	8
538.023	8.01
538.218	7.91
538.413	7.82
538.608	7.93
538.803	7.99
538.997	7.89
539.192	7.93
539.387	7.94
539.582	7.87
539.776	7.85
539.971	8.04
540.166	8.03
540.36	8
540.555	8.05
540.75	8.04
540.944	8.04
541.139	8
541.334	7.97
541.528	8.09
541.723	8.13
541.917	8.06
542.112	7.93
542.306	7.85
542.501	7.91
542.695	8.02
542.89	7.96
543.084	7.98
543.279	8.06
543.473	8.1
543.668	8.07
543.862	7.95
544.056	8
544.251	8.13
544.445	8.13
544.64	8.1
544.834	7.84
545.028	7.71
545.222	8.03
545.417	8.23
545.611	8.17
545.805	8
546	7.83
546.194	8.1
546.388	8.16
546.582	8.01
546.776	8.08
546.97	8.07
547.165	8.1
547.359	8.03
547.553	7.98
547.747	8.02
547.941	8.26
548.135	8.02
548.329	8.09
548.523	8.16
548.717	8.01
548.911	8.04
549.105	8.06
549.299	8.17
549.493	8.11
549.687	7.97
549.881	8.16
550.075	8.14
550.269	7.98
550.463	8.15
550.657	8.09
550.85	8.11
551.044	8.04
551.238	8.13
551.432	8.07
551.626	8.13
551.82	8.21
552.013	8.02
552.207	8.2
552.401	8.24
552.594	8.1
552.788	8.03
552.982	8.07
553.176	8.02
553.369	8.27
553.563	8.16
553.756	8.06
553.95	8.14
554.144	8.18
554.337	8.15
554.531	7.99
554.724	8.16
554.918	8.2
555.111	8.06
555.305	8.17
555.498	8.07
555.692	8.24
555.885	8.2
556.079	8.08
556.272	8.15
556.466	8.13
556.659	8.15
556.852	8.18
557.046	8.01
557.239	7.95
557.432	8.09
557.626	8.17
557.819	8.21
558.012	8.22
558.206	8.2
558.399	8.13
558.592	8.03
558.785	8.06
558.979	8.09
559.172	8.12
559.365	8.15
559.558	8.12
559.751	8.07
559.944	8.22
560.138	8.1
560.331	8.18
560.524	8.18
560.717	8.12
560.91	8.12
561.103	8.22
561.296	8.06
561.489	8.16
561.682	8.27
561.875	8.17
562.068	8.25
562.261	8.07
562.454	8.27
562.647	8.06
562.84	8.11
563.032	8.21
563.225	8.06
563.418	8.11
563.611	8.18
563.804	8.17
563.997	8.01
564.19	7.88
564.382	8.2
564.575	8.07
564.768	8.08
564.961	8.23
565.153	8.09
565.346	7.98
565.539	8.15
565.731	8.13
565.924	8.17
566.117	8.22
566.309	8.12
566.502	8.11
566.695	8.03
566.887	8.11
567.08	8.11
567.272	8.18
567.465	8.05
567.657	8.22
567.85	8.01
568.042	8.19
568.235	8.19
568.427	7.95
568.62	8.1
568.812	8.07
569.005	8.15
569.197	8
569.389	8.1
569.582	8.07
569.774	8.13
569.966	8.03
570.159	7.98
570.351	8
570.543	8.06
570.736	8.09
570.928	7.97
571.12	8.04
571.312	7.97
571.505	7.77
571.697	8.06
571.889	8.07
572.081	8.06
572.273	7.97
572.465	8.04
572.658	7.95
572.85	8.05
573.042	8.06
573.234	7.94
573.426	8.03
573.618	7.97
573.81	8
574.002	7.99
574.194	8.06
574.386	7.98
574.578	7.86
574.77	7.94
574.962	7.99
575.154	7.87
575.346	7.87
575.538	7.91
575.729	7.87
575.921	7.98
576.113	8.05
576.305	7.95
576.497	8.04
576.689	7.78
576.88	7.77
577.072	7.97
577.264	7.85
577.456	7.94
577.647	7.79
577.839	8.05
578.031	7.89
578.223	7.8
578.414	7.72
578.606	7.86
578.798	7.89
578.989	7.89
579.181	7.95
579.372	7.85
579.564	7.85
579.755	7.79
579.947	7.76
580.139	7.88
580.33	7.67
580.522	7.79
580.713	7.73
580.905	7.76
581.096	7.86
581.287	7.76
581.479	7.77
581.67	7.87
581.862	7.71
582.053	7.71
582.244	7.6
582.436	7.9
582.627	7.69
582.818	7.68
583.01	7.64
583.201	7.71
583.392	7.65
583.583	7.63
583.775	7.52
583.966	7.57
584.157	7.64
584.348	7.68
584.54	7.56
584.731	7.64
584.922	7.56
585.113	7.48
585.304	7.62
585.495	7.58
585.686	7.66
585.877	7.62
586.068	7.71
586.259	7.61
586.45	7.59
586.641	7.53
586.832	7.6
587.023	7.55
587.214	7.47
587.405	7.53
587.596	7.46
587.787	7.38
587.978	7.53
588.169	7.39
588.36	7.41
588.551	7.45
588.742	7.47
588.932	7.5
589.123	7.25
589.314	7.54
589.505	7.34
589.696	7.4
589.886	7.35
590.077	7.37
590.268	7.29
590.458	7.27
590.649	7.16
590.84	7.36
591.03	7.31
591.221	7.28
591.412	7.21
591.602	7.38
591.793	7.22
591.984	7.3
592.174	7.27
592.365	7.43
592.555	7.14
592.746	7.11
592.936	7.16
593.127	7.22
593.317	7.26
593.508	7.16
593.698	7.08
593.889	7.16
594.079	7.1
594.269	7.05
594.46	7.07
594.65	7.14
594.84	7.07
595.031	6.94
595.221	6.99
595.411	7.02
595.602	7.04
595.792	7
595.982	6.92
596.172	7.07
596.363	6.94
596.553	6.93
596.743	6.95
596.933	6.85
597.123	6.92
597.314	6.83
597.504	6.82
597.694	7.01
597.884	6.84
598.074	6.82
598.264	6.79
598.454	6.77
598.644	6.85
598.834	6.77
599.024	6.75
599.214	6.73
599.404	6.79
599.594	6.8
599.784	6.68
599.974	6.83
600.164	6.74
600.354	6.69
600.544	6.54
600.734	6.75
600.924	6.63
601.114	6.52
601.303	6.53
601.493	6.59
601.683	6.58
601.873	6.64
602.063	6.48
602.252	6.57
602.442	6.46
602.632	6.43
602.821	6.45
603.011	6.53
603.201	6.43
603.39	6.42
603.58	6.28
603.77	6.41
603.959	6.51
604.149	6.36
604.339	6.39
604.528	6.44
604.718	6.42
604.907	6.24
605.097	6.29
605.286	6.24
605.476	6.28
605.665	6.28
605.855	6.22
606.044	6.36
606.234	6.32
606.423	6.19
606.612	6.13
606.802	6.13
606.991	6.22
607.181	6.17
607.37	6.24
607.559	5.93
607.749	6.09
607.938	6.05
608.127	6.03
608.316	6.07
608.506	6.05
608.695	6.11
608.884	6.05
609.073	5.97
609.263	6.07
609.452	6
609.641	5.89
609.83	5.85
610.019	5.97
610.208	5.88
610.397	5.87
610.586	5.89
610.775	5.81
610.965	5.85
611.154	5.76
611.343	5.86
611.532	5.74
611.721	5.86
611.91	5.68
612.099	5.72
612.287	5.6
612.476	5.59
612.665	5.74
612.854	5.59
613.043	5.64
613.232	5.58
613.421	5.51
613.61	5.55
613.798	5.65
613.987	5.61
614.176	5.57
614.365	5.55
614.554	5.53
614.742	5.56
614.931	5.35
615.12	5.55
615.309	5.49
615.497	5.45
615.686	5.29
615.875	5.41
616.063	5.43
616.252	5.33
616.44	5.35
616.629	5.35
616.818	5.39
617.006	5.29
617.195	5.25
617.383	5.31
617.572	5.17
617.76	5.22
617.949	5.17
618.137	5.34
618.326	5.26
618.514	5.01
618.703	4.99
618.891	5.18
619.079	5.06
619.268	5.16
619.456	5.06
619.644	5.17
619.833	5.08
620.021	5
620.209	4.84
620.398	5.06
620.586	4.93
620.774	5.02
620.962	4.99
621.151	5.06
621.339	4.94
621.527	4.85
621.715	4.83
621.903	4.85
622.092	4.74
622.28	4.89
622.468	4.65
622.656	4.83
622.844	4.85
623.032	4.85
623.22	4.61
623.408	4.83
623.596	4.8
623.784	4.82
623.972	4.67
624.16	4.66
624.348	4.73
624.536	4.78
624.724	4.59
624.912	4.67
625.1	4.65
625.288	4.63
625.476	4.54
625.664	4.6
625.851	4.54
626.039	4.6
626.227	4.53
626.415	4.55
626.603	4.39
626.79	4.48
626.978	4.48
627.166	4.52
627.354	4.38
627.541	4.37
627.729	4.28
627.917	4.49
628.104	4.4
628.292	4.31
628.48	4.36
628.667	4.25
628.855	4.4
629.042	4.41
629.23	4.26
629.418	4.3
629.605	4.25
629.793	4.18
629.98	4.2
630.168	4.2
630.355	4.23
630.543	4.2
630.73	4.08
630.917	4.16
631.105	4.23
631.292	4.14
631.48	4.11
631.667	4.21
631.854	4.08
632.042	4.01
632.229	3.97
632.416	4.08
632.604	4.01
632.791	3.86
632.978	3.98
633.165	3.94
633.353	4.03
633.54	4
633.727	3.85
633.914	3.86
634.101	3.79
634.289	3.96
634.476	3.81
634.663	3.81
634.85	3.82
635.037	3.76
635.224	3.71
635.411	3.85
635.598	3.74
635.785	3.7
635.972	3.72
636.159	3.76
636.346	3.68
636.533	3.64
636.72	3.66
636.907	3.65
637.094	3.67
637.281	3.47
637.468	3.63
637.655	3.59
637.842	3.6
638.029	3.49
638.215	3.58
638.402	3.54
638.589	3.46
638.776	3.49
638.963	3.48
639.149	3.53
639.336	3.56
639.523	3.46
639.709	3.41
639.896	3.42
640.083	3.42
640.27	3.42
640.456	3.4
640.643	3.4
640.829	3.32
641.016	3.28
641.203	3.24
641.389	3.31
641.576	3.35
641.762	3.25
641.949	3.15
642.135	3.33
642.322	3.25
642.508	3.12
642.695	3.2
642.881	3.16
643.068	3.16
643.254	3.2
643.441	3.13
643.627	3.16
643.813	3.04
644	3.14
644.186	3.05
644.372	3.05
644.559	3.03
644.745	3.01
644.931	2.96
645.118	3.01
645.304	3.08
645.49	2.98
645.676	3
645.862	3.01
646.049	3.03
646.235	3.04
646.421	3.07
646.607	3.05
646.793	2.92
646.979	2.87
647.165	2.91
647.352	2.97
647.538	2.9
647.724	2.89
647.91	2.85
648.096	2.85
648.282	2.84
648.468	2.83
648.654	2.81
648.84	2.82
649.026	2.85
649.212	2.7
649.397	2.73
649.583	2.73
649.769	2.75
649.955	2.7
650.141	2.71
650.327	2.75
650.513	2.64
650.698	2.71
650.884	2.53
651.07	2.68
651.256	2.64
651.442	2.59
651.627	2.54
651.813	2.66
651.999	2.65
652.184	2.6
652.37	2.57
652.556	2.51
652.741	2.62
652.927	2.44
653.113	2.49
653.298	2.53
653.484	2.49
653.669	2.41
653.855	2.51
654.04	2.51
654.226	2.5
654.412	2.45
654.597	2.33
654.782	2.45
654.968	2.47
655.153	2.42
655.339	2.37
655.524	2.38
655.71	2.42
655.895	2.39
656.08	2.36
656.266	2.42
656.451	2.35
656.636	2.27
656.822	2.31
657.007	2.31
657.192	2.29
657.378	2.28
657.563	2.2
657.748	2.29
657.933	2.24
658.118	2.17
658.304	2.21
658.489	2.29
658.674	2.26
658.859	2.14
659.044	2.22
659.229	2.22
659.414	2.18
659.599	2.18
659.785	2.09
659.97	2.18
660.155	2.17
660.34	2.19
660.525	2.11
660.71	2.05
660.895	2.14
661.08	2.06
661.264	2.03
661.449	2.12
661.634	2.08
661.819	2.08
662.004	2
662.189	1.91
662.374	2.04
662.559	1.95
662.743	1.96
662.928	2.04
663.113	1.96
663.298	1.95
663.483	1.94
663.667	1.98
663.852	1.89
664.037	1.95
664.221	1.83
664.406	1.97
664.591	1.98
664.775	1.94
664.96	1.84
665.145	1.89
665.329	1.98
665.514	1.86
665.698	1.77
665.883	1.75
666.068	1.94
666.252	1.87
666.437	1.83
666.621	1.82
666.806	1.82
666.99	1.83
667.174	1.76
667.359	1.85
667.543	1.74
667.728	1.76
667.912	1.64
668.096	1.78
668.281	1.72
668.465	1.77
668.649	1.72
668.834	1.71
669.018	1.69
669.202	1.72
669.387	1.7
669.571	1.75
669.755	1.65
669.939	1.72
670.124	1.68
670.308	1.72
670.492	1.7
670.676	1.65
670.86	1.61
671.044	1.55
671.228	1.73
671.413	1.54
671.597	1.51
671.781	1.56
671.965	1.67
672.149	1.58
672.333	1.56
672.517	1.54
672.701	1.58
672.885	1.55
673.069	1.48
673.253	1.65
673.437	1.54
673.621	1.49
673.804	1.59
673.988	1.56
674.172	1.51
674.356	1.42
674.54	1.5
674.724	1.63
674.908	1.48
675.091	1.52
675.275	1.52
675.459	1.52
675.643	1.51
675.826	1.47
676.01	1.42
676.194	1.44
676.377	1.48
676.561	1.49
676.745	1.43
676.928	1.46
677.112	1.5
677.296	1.31
677.479	1.36
677.663	1.35
677.846	1.45
678.03	1.37
678.213	1.33
678.397	1.42
678.58	1.38
678.764	1.31
678.947	1.34
679.131	1.37
679.314	1.41
679.498	1.35
679.681	1.36
679.865	1.45
680.048	1.27
680.231	1.28
680.415	1.34
680.598	1.33
680.781	1.24
680.965	1.31
681.148	1.32
681.331	1.27
681.514	1.3
681.698	1.25
681.881	1.3
682.064	1.25
682.247	1.34
682.43	1.14
682.614	1.23
682.797	1.35
682.98	1.3
683.163	1.11
683.346	1.2
683.529	1.23
683.712	1.21
683.895	1.24
684.078	1.11
684.261	1.17
684.444	1.24
684.627	1.19
684.81	1.16
684.993	1.13
685.176	1.26
685.359	1.12
685.542	1.1
685.725	1.28
685.908	1.16
686.091	1.14
686.274	1.14
686.457	1.2
686.639	1.19
686.822	1.17
687.005	1.13
687.188	1.23
687.371	1.3
687.553	1.15
687.736	1.14
687.919	1.2
688.102	1.23
688.284	1.01
688.467	1.09
688.65	1.08
688.832	1.05
689.015	1.06
689.197	1.01
689.38	1.18
689.563	1.18
689.745	0.93
689.928	1
690.11	1.02
690.293	1.09
690.475	0.94
690.658	1.07
690.84	1.03
691.023	1.02
691.205	0.98
691.388	1.01
691.57	1.08
691.752	1.09
691.935	0.9
692.117	1.01
692.3	1.01
692.482	0.99
692.664	0.94
692.847	0.95
693.029	1.11
693.211	1
693.393	0.95
693.576	0.94
693.758	0.95
693.94	1.03
694.122	0.9
694.304	0.92
694.487	0.94
694.669	1.02
694.851	0.84
695.033	0.87
695.215	0.99
695.397	0.88
695.579	0.92
695.761	0.85
695.943	0.81
696.125	0.97
696.308	0.9
696.49	0.8
696.671	1.02
696.853	0.92
697.035	1.16
697.217	0.88
697.399	1.04
697.581	0.85
697.763	0.83
697.945	0.84
698.127	0.9
698.309	0.91
698.491	0.84
698.672	0.88
698.854	0.96
699.036	0.96
699.218	0.83
699.399	0.91
699.581	0.89
699.763	0.81
699.945	0.83
700.126	0.73
700.308	0.85
700.49	0.8
700.671	0.74
700.853	0.76
701.035	0.78
701.216	0.9
701.398	0.8
701.579	0.77
701.761	0.9
701.943	0.77
702.124	0.73
702.306	0.81
702.487	0.97
702.669	0.82
702.85	0.74
703.031	0.69
703.213	0.89
703.394	0.83
703.576	0.77
703.757	0.89
703.938	0.88
704.12	0.95
704.301	0.81
704.483	0.66
704.664	0.75
704.845	0.88
705.026	0.86
705.208	0.69
705.389	0.84
705.57	0.77
705.751	0.75
705.933	0.68
706.114	0.77
706.295	0.72
706.476	0.63
706.657	0.82
706.838	0.77
707.02	0.84
707.201	0.65
707.382	0.65
707.563	0.84
707.744	0.74
707.925	0.66
708.106	0.66
708.287	0.77
708.468	0.82
708.649	0.75
708.83	0.77
709.011	0.68
709.192	0.72
709.373	0.63
709.554	0.65
709.734	0.8
709.915	0.82
710.096	0.76
710.277	0.55
710.458	0.68
710.639	0.74
710.819	0.54
711	0.67
711.181	0.73
711.362	0.8
711.542	0.63
711.723	0.63
711.904	0.74
712.085	0.73
712.265	0.7
712.446	0.59
712.627	0.57
712.807	0.64
712.988	0.68
713.168	0.57
713.349	0.75
713.53	0.55
713.71	0.61
713.891	0.5
714.071	0.64
714.252	0.62
714.432	0.64
714.613	0.52
714.793	0.66
714.974	0.79
715.154	0.68
715.334	0.68
715.515	0.82
715.695	0.51
715.876	0.54
716.056	0.63
716.236	0.57
716.417	0.57
716.597	0.57
716.777	0.84
716.957	0.6
717.138	0.61
717.318	0.57
717.498	0.47
717.678	0.62
717.859	0.61
718.039	0.5
718.219	0.6
718.399	0.6
718.579	0.57
718.759	0.43
718.939	0.52
719.12	0.61
719.3	0.57
719.48	0.43
719.66	0.45
719.84	0.74
720.02	0.57
720.2	0.59
720.38	0.5
720.56	0.77
720.74	0.5
720.92	0.55
721.1	0.8
721.279	0.68
721.459	0.63
721.639	0.48
721.819	0.49
721.999	0.53
722.179	0.64
722.359	0.42
722.538	0.57
722.718	0.58
722.898	0.46
723.078	0.52
723.257	0.44
723.437	0.5
723.617	0.55
723.797	0.45
723.976	0.51
724.156	0.66
724.336	0.66
724.515	0.75
724.695	0.38
724.874	0.58
725.054	0.59
725.234	0.49
725.413	0.56
725.593	0.5
725.772	0.51
725.952	0.44
726.131	0.44
726.311	0.5
726.49	0.5
726.67	0.46
726.849	0.4
727.028	0.51
727.208	0.55
727.387	0.56
727.567	0.44
727.746	0.52
727.925	0.49
728.105	0.31
728.284	0.47
728.463	0.47
728.643	0.62
728.822	0.43
729.001	0.55
729.18	0.45
729.359	0.6
729.539	0.48
729.718	0.48
729.897	0.58
730.076	0.53
730.255	0.36
730.434	0.46
730.614	0.55
730.793	0.67
730.972	0.46
731.151	0.44
731.33	0.56
731.509	0.56
731.688	0.52
731.867	0.49
732.046	0.36
732.225	0.69
732.404	0.46
732.583	0.34
732.762	0.57
732.941	0.59
733.12	0.55
733.298	0.42
733.477	0.68
733.656	0.41
733.835	0.48
734.014	0.63
734.193	0.37
734.371	0.56
734.55	0.72
734.729	0.31
734.908	0.44
735.086	0.64
735.265	0.66
735.444	0.37
735.623	0.4
735.801	0.44
735.98	0.5
736.159	0.35
736.337	0.6
736.516	0.57
736.694	0.53
736.873	0.5
737.052	0.69
737.23	0.65
737.409	0.48
737.587	0.75
737.766	0.42
737.944	0.5
738.123	0.61
738.301	0.6
738.479	0.45
738.658	0.54
738.836	0.3
739.015	0.38
739.193	0.63
739.371	0.37
739.55	0.57
739.728	0.4
739.906	0.71
740.085	0.7
740.263	0.59
740.441	0.29
740.62	0.69
740.798	0.58
740.976	0.37
741.154	0.4
741.332	0.63
741.511	0.4
741.689	0.52
741.867	0.47
742.045	0.58
742.223	0.41
742.401	0.31
742.579	0.4
742.757	0.61
742.935	0.32
743.114	0.33
743.292	0.44
743.47	0.54
743.648	0.49
743.826	0.31
744.004	0.48
744.181	0.67
744.359	0.39
744.537	0.48
744.715	0.38
744.893	0.54
745.071	0.55
745.249	0.37
745.427	0.36
745.605	0.51
745.782	0.39
745.96	0.6
746.138	0.61
746.316	0.56
746.493	0.39
746.671	0.44
746.849	0.29
747.027	0.63
747.204	0.31
747.382	0.46
747.56	0.37
747.737	0.55
747.915	0.44
748.093	0.57
748.27	0.29
748.448	0.44
748.625	0.28
748.803	0.34
748.98	0.43
749.158	0.44
749.335	0.51
749.513	0.36
749.69	0.42
749.868	0.47
750.045	0.43
750.223	0.3
750.4	0.16
750.578	0.68
750.755	0.48
750.932	0.24
751.11	0.48
751.287	0.45
751.464	0.72
751.642	0.39
751.819	0.39
751.996	0.37
752.173	0.39
752.351	0.39
752.528	0.44
752.705	0.34
752.882	0.33
753.06	0.45
753.237	0.49
753.414	0.68
753.591	0.68
753.768	0.44
753.945	0.37
754.122	0.44
754.299	0.59
754.476	0.3
754.654	0.34
754.831	0.49
755.008	0.54
755.185	0.27
755.362	0.36
755.539	0.32
755.716	0.36
755.892	0.4
756.069	0.48
756.246	0.46
756.423	0.43
756.6	0.44
756.777	0.25
756.954	0.51
757.131	0.37
757.307	0.29
757.484	0.24
757.661	0.44
757.838	0.49
758.015	0.22
758.191	0.45
758.368	0.48
758.545	0.61
758.721	0.41
758.898	0.15
759.075	0.42
759.251	0.47
759.428	0.55
759.605	0.2
759.781	0.27
759.958	0.5
760.134	0.44
760.311	0.38
760.488	0.64
760.664	0.56
760.841	0.43
761.017	0.31
761.194	0.48
761.37	0.43
761.547	0.41
761.723	0.38
761.899	0.53
762.076	0.35
762.252	0.26
762.429	0.37
762.605	0.47
762.781	0.32
762.958	0.36
763.134	0.39
763.31	0.38
763.486	0.56
763.663	0.11
763.839	0.41
764.015	0.19
764.191	0.26
764.368	0.29
764.544	0.35
764.72	0.31
764.896	0.44
765.072	0.49
765.248	0.33
765.425	0.33
765.601	0.44
765.777	0.29
765.953	0.07
766.129	0.3
766.305	0.28
766.481	0.48
766.657	0.31
766.833	0.5
767.009	0.28
767.185	0.38
767.361	0.34
767.537	0.33
767.713	0.62
767.889	0.28
768.065	0.45
768.24	0.36
768.416	0.53
768.592	0.34
768.768	0.38
768.944	0.42
769.12	0.21
769.295	0.45
769.471	0.36
769.647	0.45
769.823	0.65
769.998	0.25
770.174	0.23
770.35	0.75
770.525	0.69
770.701	0.51
770.877	0.37
771.052	0.29
771.228	0.42
771.403	0.46
771.579	0.43
771.755	0.86
771.93	0.33
772.106	0.33
772.281	0.03
772.457	0.49
772.632	0.42
772.808	0.2
772.983	0.19
773.159	0.26
773.334	0.54
773.509	0.47
773.685	0.28
773.86	0.75
774.036	0.58
774.211	0.4
774.386	0.32
774.562	0.48
774.737	0.67
774.912	0.28
775.087	0.38
775.263	0.38
775.438	0.47
775.613	0.21
775.788	0.31
775.964	0.51
776.139	0.86
776.314	0.23
776.489	0.45
776.664	0.49
776.839	0.21
777.014	0.56
777.19	0.48
777.365	0.65
777.54	0.68
777.715	0.18
777.89	0.29
778.065	0.29
778.24	0.36
778.415	0.38
778.59	0.13
778.765	0.29
778.94	0.62
779.115	0.29
779.289	0.36
779.464	0.49
779.639	0.34
779.814	0.08
779.989	0.17
780.164	0.6
780.339	0.61
780.513	0.4
780.688	0.21
780.863	0.29
781.038	0.69
781.212	0.15
781.387	0.24
781.562	0.94
781.737	0.49
781.911	0.6
782.086	0.12
782.261	0.39
782.435	1.09
782.61	0.34
782.784	0.49
782.959	0.81
783.134	0.14
783.308	0.2
783.483	0.33
783.657	1.03
783.832	0.79
784.006	-0.07
784.181	0.41
784.355	0.67
784.53	0.27
784.704	0.2
784.878	0.76
785.053	0.73
785.227	0.75
785.402	1
785.576	0.22
785.75	0.48
785.925	0.37
786.099	0.6
786.273	0.33
786.448	0.63
786.622	0.8
786.796	0.43
786.97	0.35
787.145	1.07
787.319	0.32
787.493	0.28
787.667	0.09
787.841	0.43
788.015	1.13
788.19	0.39
788.364	0.42
788.538	0.82
788.712	0.64
788.886	0.72
789.06	0.63
789.234	0.73
789.408	0.21
789.582	0.64
789.756	0.26
789.93	0.37
790.104	0.54
790.278	0.38
790.452	0.3
790.626	0.52
790.8	0.18
790.973	0.68
791.147	0.9
791.321	0.92
791.495	0.73
791.669	0.59
791.843	0.77
792.016	0.67
792.19	1.02
792.364	0.13
792.538	1.11
792.711	0.77
792.885	0.37
793.059	0.26
793.233	-0.15
793.406	0.69
793.58	0.39
793.754	0.69
793.927	0.6
794.101	0.88
794.274	0.53
794.448	0.8
794.622	0.23
794.795	0.98
794.969	0.26
795.142	0.95
795.316	0.24
795.489	0.54
795.663	1.03
795.836	0.27
796.009	0.23
796.183	0.91
796.356	0.79
796.53	0.3
796.703	0.51
796.876	1.03
797.05	0.51
797.223	0.45
797.396	0.52
797.57	0.5
797.743	0.88
797.916	0.26
798.09	0.34
798.263	0.88
798.436	0.84
798.609	0.27
798.782	0.45
798.956	0.73
799.129	0.53
799.302	0.49
799.475	0.18
799.648	0.37
799.821	0.42
799.994	0.66
800.167	0.06
800.34	0.39
800.514	0.46
800.687	0.3
800.86	0.37
801.033	0.8
801.206	0.66
801.379	0.27
801.551	0.62
801.724	0.81
801.897	1.26
802.07	0.24
802.243	-0.25
802.416	0.71
802.589	0.51
802.762	0.68
802.935	0.43
803.107	1.02
803.28	1.06
803.453	0.54
803.626	0.3
803.798	0.69
803.971	0.15
804.144	0.47
804.317	0.75
804.489	0.85
804.662	0.56
804.835	0.48
805.007	0.09
805.18	1.19
805.353	0.79
805.525	0.07
805.698	0.44
805.87	0.7
806.043	0.82
806.215	0.05
806.388	0.08
806.56	0.71
806.733	1.35
806.905	0.66
807.078	0.57
807.25	0.22
807.423	0.85
807.595	0.45
807.768	0.43
807.94	0.82
808.112	0.77
808.285	0.34
808.457	0.5
808.629	0.57
808.802	0.74
808.974	0.88
809.146	0.08
809.318	0.26
809.491	1.03
809.663	0.79
809.835	0.15
810.007	0.96
810.18	0.84
810.352	0.08
810.524	0.54
810.696	0.91
810.868	1.29
811.04	0.33
811.212	0.37
811.384	1.31
811.556	0.87
811.728	0.29
811.901	1.58
812.073	0.75
812.245	1.14
812.417	0.15
812.589	0.19
812.76	1.02
812.932	0.99
813.104	0.6
813.276	0.29
813.448	1.23
813.62	0.95
813.792	0.79
813.964	0.47
814.136	0.95
814.307	0.36
814.479	0.11
814.651	0.19
814.823	1.37
814.995	0.55
815.166	0.82
815.338	0.49
815.51	0.45
815.681	1.87
815.853	1.22
816.025	0.47
816.196	1.65
816.368	1.34
816.54	0.35
816.711	0.64
816.883	1.14
817.054	1.88
817.226	0.04
817.398	1.1
817.569	0.57
817.741	1
817.912	0.59
818.084	0.29
818.255	1.43
818.426	0.05
818.598	0.14
818.769	0.32
818.941	1.02
819.112	1.96
819.283	0.78
819.455	0.42
819.626	0.63
819.798	1.35
819.969	0.53
820.14	0.52
820.311	0.52
820.483	0.81
820.654	0.83
820.825	0.14
820.996	0.54
821.168	0.11
821.339	0.72
821.51	0.25
821.681	0.44
821.852	0.78
822.023	0.34
822.195	-0.27
822.366	1.65
822.537	0.7
822.708	0.55
822.879	0.38
823.05	1.43
823.221	0.72
823.392	1
823.563	1.12
823.734	1.06
823.905	0.61
824.076	0.69
824.247	0.4
824.418	0.75
824.589	1.4
824.759	0.64
824.93	0.68
825.101	0.08
825.272	1.7
825.443	1.35
825.614	1.66
825.784	-0.13
825.955	2.52
826.126	1.68
826.297	0.24
826.467	1.6
826.638	2.12
826.809	0.2
826.98	0.85
827.15	1.36
827.321	1.28
827.492	1.04
827.662	1.05
827.833	2.1
828.003	1.75
828.174	0.49
828.345	-0.19
828.515	1.81
828.686	1.28
828.856	0.8
829.027	0.9
829.197	1.18
829.368	1.85
829.538	0.27
829.709	0.44
829.879	1.64
830.049	0.72
830.22	0.97
830.39	0.47
830.56	1.38
830.731	0.63
830.901	0.53
831.072	1.08
831.242	0.94
831.412	1.58
831.582	0.77
831.753	0.18
831.923	1.28
832.093	1.57
832.263	0.48
832.434	0.35
832.604	0.27
832.774	1.5
832.944	1.22
833.114	0.24
833.284	1.25
833.454	0.83
833.624	0.76
833.795	0.2
833.965	1.65
834.135	1.69
834.305	-0.19
834.475	-0.23
834.645	1.41
834.815	1.04
834.985	-0.02
835.155	0.62
835.325	1.45
835.494	1.89
835.664	1.02
835.834	-0.52
836.004	1.8
836.174	0.94
836.344	0.02
836.514	-0.19
836.684	0.5
836.853	1.58
837.023	1.61
837.193	1.02
837.363	1.88
837.532	1.97
837.702	0.46
837.872	-0.26
838.041	1.81
838.211	2.99
838.381	-0.37
838.55	0.91
838.72	3.98
838.89	2.23
839.059	0.64
839.229	0.11
839.398	3
839.568	1.6
839.738	0.09
839.907	2.19
840.077	1.56
840.246	0.52
840.416	0.01
840.585	-0.16
840.755	3.53
840.924	2.86
841.093	-0.2
841.263	0.37
841.432	1.45
841.602	0.57
841.771	0.47
841.94	0.98
842.11	4.34
842.279	2.92
842.448	0.88
842.617	0.19
842.787	2.79
842.956	-0.36
843.125	0.89
843.294	0.45
843.464	3.17
843.633	2.01
843.802	-0.23
843.971	0.99
844.14	0.84
844.309	1.9
844.479	-1.11
844.648	0.1
844.817	0.37
844.986	1.97
845.155	0.01
845.324	0.74
845.493	1.35
845.662	-0.21
845.831	1.21
846	2.59
846.169	1.17
846.338	3.15
846.507	1.77
846.676	1.13
846.844	1.19
847.013	1.97
847.182	1.16
847.351	0.37
847.52	0.75
847.689	2.13
847.858	0.81
848.026	0.23
848.195	1.2
848.364	1.01
848.533	0.6
848.701	0.09
848.87	1.11
849.039	2.38
849.207	2.46
849.376	2.09
849.545	2.7
849.713	0.78
849.882	-0.25
850.051	0.9
850.219	1.32
850.388	2.37
850.556	0.15
850.725	0.37
850.893	1.76
851.062	0.9
851.23	2.16
851.399	-0.09
851.567	1.32
851.736	0.79
851.904	0.24
852.073	1.18
852.241	1.99
852.41	2.53
852.578	-0.08
852.746	-0.23
852.915	2.95
853.083	2.09
853.251	-0.15
853.42	1.3
853.588	1.33
853.756	2.61
853.924	1.39
854.093	1.31
854.261	1.42
854.429	-0.09
854.597	2.34
854.765	0.68
854.934	2.11
855.102	3.38
855.27	1.56
855.438	2.75
855.606	4.64
855.774	3.36
855.942	-0.47
856.11	-0.16
856.278	2.48
856.446	2.82
856.614	2.82
856.782	0.42
856.95	2.19
857.118	2.33
857.286	1.77
857.454	0.4
857.622	3.52
857.79	2.61
857.958	0.39
858.126	-1.24
858.294	-0.38
858.462	1.32
858.629	0.73
858.797	-0.59
858.965	3.04
859.133	1.77
859.301	0.89
859.468	2.41
859.636	0.22
859.804	3.54
859.971	1.88
860.139	0.67
860.307	3.5
860.474	1.2
860.642	1.16
860.81	0.5
860.977	2.43
861.145	2.36
861.313	0.51
861.48	1.44
861.648	3.65
861.815	1.48
861.983	-0.02
862.15	0.75
862.318	3.77
862.485	3.89
862.653	-0.24
862.82	-0.03
862.988	4.05
863.155	0.08
863.322	-0.21
863.49	-0.63
863.657	1.98
863.824	3.97
863.992	1.53
864.159	2.75
864.326	4.6
864.494	1.33
864.661	3.95
864.828	-0.95
864.996	3.37
865.163	3.32
865.33	-0.02
865.497	-2.26
865.664	1.4
865.832	-1.13
865.999	1
866.166	-0.63
866.333	0.56
866.5	2.02
866.667	1.38
866.834	1.33
867.001	4.56
867.168	-0.42
867.335	2
867.502	-0.82
867.669	1.45
867.836	4.89
868.003	2.02
868.17	1.94
868.337	1.34
868.504	5.59
868.671	-0.63
868.838	1.45
869.005	2.4
869.172	4.48
869.339	1.7
869.505	0.78
869.672	2.49
869.839	4.23
870.006	2.88
870.173	-1.38
870.339	2.38
870.506	5.93
870.673	0.09
870.84	2.41
871.006	3.5
871.173	2.48
871.34	2.6
871.506	-0.36
871.673	2.93
871.839	0.39
872.006	1.58
872.173	-0.43
872.339	3.64
872.506	4.13
872.672	2.04
872.839	0.43
873.005	4.24
873.172	5.08
873.338	3.81
873.505	1.32
873.671	3.33
873.838	3.92
874.004	-1.38
874.171	0.44
874.337	3.97
874.503	3.41
874.67	1.44
874.836	2.32
875.002	5.44
875.169	3.75
875.335	3.45
875.501	1.68
875.668	4.57
875.834	1.87
876	0.42
876.166	2.07
876.332	3.3
876.499	5.95
876.665	1.52
876.831	2.5
876.997	7.75
877.163	3.13
877.329	1.82
877.495	1.75
877.662	4.63
877.828	1.92
877.994	1.74
878.16	-1.43
878.326	0.9
878.492	4.22
878.658	0.2
878.824	2.17
878.99	2.37
879.156	6.51
879.322	6.4
879.487	2.96
879.653	2.03
879.819	3.29
879.985	2.06
880.151	2.4
880.317	3.86
880.483	3.54
880.648	5.17
880.814	-0.53
880.98	2.02
881.146	-0.06
881.312	-1.23
881.477	0.48
881.643	1.42
881.809	3.93
881.974	3.7
882.14	-1.55
882.306	3.74
882.471	6.61
882.637	-0.29
882.803	3.55
882.968	4.8
883.134	7.25
883.299	2.09
883.465	0.68
883.63	4.86
883.796	2.96
883.961	3.06
884.127	2.9
884.292	-2.51
884.458	-0.93
884.623	-0.93
