Data from Apollo_Calib_20240827__AbsoluteIrradiance__21__23-30-01-026.txt Node

Date: Tue Aug 27 23:30:01 BST 2024
User: biology
Spectrometer: FLMT08252
Trigger mode: 0
Integration Time (sec): 5.000000E-1
Scans to average: 5
Electric dark correction enabled: true
Nonlinearity correction enabled: false
Boxcar width: 0
XAxis mode: Wavelengths
Number of Pixels in Spectrum: 3648
>>>>>Begin Spectral Data<<<<<
179.588	-0
179.809	-0
180.03	-0
180.251	-0
180.473	-0
180.694	0
180.915	0
181.136	-0
181.357	0
181.578	-0
181.799	-0
182.02	-0
182.241	-0
182.462	-0
182.683	0
182.904	-0
183.125	-0
183.346	0
183.567	0
183.788	0
184.009	0
184.23	0
184.451	0
184.672	0
184.892	0
185.113	0
185.334	0
185.555	0
185.776	0
185.996	0
186.217	0
186.438	0
186.659	0
186.879	0
187.1	0
187.321	0
187.541	0
187.762	0
187.983	0
188.203	0
188.424	0
188.644	0
188.865	0
189.086	0
189.306	0
189.527	0
189.747	0
189.968	0
190.188	0
190.409	0
190.629	0
190.849	0
191.07	0
191.29	0
191.511	0
191.731	0
191.951	0
192.172	0
192.392	0
192.612	0
192.833	0
193.053	0
193.273	0
193.493	0
193.714	0
193.934	0
194.154	0
194.374	0
194.594	0
194.815	0
195.035	0
195.255	0
195.475	0
195.695	0
195.915	0
196.135	0
196.355	0
196.575	0
196.795	0
197.015	0
197.235	0
197.455	0
197.675	0
197.895	0
198.115	0
198.335	0
198.555	0
198.775	0
198.995	0
199.214	0
199.434	0
199.654	0
199.874	0
200.094	3.84
200.313	2.65
200.533	2.25
200.753	1.57
200.973	2.95
201.192	2.84
201.412	2.04
201.632	1.69
201.851	3.16
202.071	1.26
202.291	2.22
202.51	1.83
202.73	2.5
202.95	1.44
203.169	1.63
203.389	1.79
203.608	2.04
203.828	1.72
204.047	1.79
204.267	2.29
204.486	2.21
204.706	2.12
204.925	2
205.145	1.43
205.364	1.76
205.583	2.33
205.803	1.24
206.022	1.45
206.242	1.82
206.461	1.97
206.68	1.45
206.9	1.84
207.119	2.22
207.338	2.02
207.557	1.51
207.777	1.39
207.996	1.36
208.215	1.9
208.434	0.94
208.654	1
208.873	1.26
209.092	1.97
209.311	1.37
209.53	1.26
209.749	1.09
209.968	1.12
210.187	1.14
210.407	0.9
210.626	1.16
210.845	1.63
211.064	1.39
211.283	1.12
211.502	1.49
211.721	1.09
211.94	1.23
212.159	1.31
212.377	1.1
212.596	1.39
212.815	1.3
213.034	1.04
213.253	1.37
213.472	1.38
213.691	1.02
213.91	0.53
214.128	0.97
214.347	1.52
214.566	0.74
214.785	0.46
215.003	1.22
215.222	0.96
215.441	1.15
215.66	0.75
215.878	1.08
216.097	1.06
216.316	0.66
216.534	0.87
216.753	1.06
216.972	1.04
217.19	1
217.409	0.67
217.627	0.76
217.846	0.85
218.064	0.88
218.283	0.71
218.501	1.42
218.72	1.13
218.938	0.64
219.157	0.76
219.375	1.06
219.594	0.97
219.812	0.58
220.031	0.65
220.249	0.93
220.467	0.95
220.686	0.72
220.904	0.43
221.122	0.67
221.341	1.1
221.559	0.9
221.777	0.7
221.995	0.86
222.214	0.85
222.432	0.65
222.65	0.88
222.868	0.71
223.086	0.83
223.305	0.81
223.523	0.6
223.741	1.09
223.959	0.74
224.177	0.54
224.395	0.62
224.613	0.83
224.831	0.75
225.049	0.55
225.267	0.63
225.485	0.73
225.703	0.57
225.921	0.68
226.139	0.65
226.357	0.9
226.575	0.64
226.793	0.57
227.011	1.28
227.229	0.65
227.447	0.75
227.665	0.62
227.883	0.36
228.1	0.6
228.318	0.57
228.536	0.33
228.754	0.47
228.972	0.74
229.189	0.8
229.407	0.5
229.625	0.54
229.843	0.71
230.06	0.71
230.278	0.53
230.496	0.65
230.713	0.66
230.931	0.77
231.149	0.51
231.366	0.31
231.584	0.66
231.801	0.84
232.019	0.57
232.236	0.49
232.454	0.57
232.671	0.69
232.889	0.62
233.106	0.42
233.324	0.62
233.541	0.62
233.759	0.56
233.976	0.52
234.194	0.5
234.411	0.51
234.628	0.45
234.846	0.54
235.063	0.47
235.28	0.54
235.498	0.55
235.715	0.49
235.932	0.75
236.149	0.46
236.367	0.4
236.584	0.66
236.801	0.54
237.018	0.48
237.236	0.42
237.453	0.39
237.67	0.62
237.887	0.42
238.104	0.49
238.321	0.23
238.538	0.48
238.755	0.6
238.973	0.35
239.19	0.56
239.407	0.57
239.624	0.53
239.841	0.31
240.058	0.38
240.275	0.55
240.492	0.49
240.709	0.51
240.925	0.55
241.142	0.42
241.359	0.4
241.576	0.4
241.793	0.34
242.01	0.38
242.227	0.52
242.444	0.46
242.66	0.62
242.877	0.55
243.094	0.37
243.311	0.48
243.527	0.47
243.744	0.48
243.961	0.5
244.178	0.41
244.394	0.36
244.611	0.57
244.828	0.57
245.044	0.34
245.261	0.34
245.477	0.46
245.694	0.59
245.911	0.41
246.127	0.42
246.344	0.57
246.56	0.52
246.777	0.41
246.993	0.43
247.21	0.47
247.426	0.42
247.643	0.37
247.859	0.28
248.076	0.3
248.292	0.49
248.508	0.44
248.725	0.43
248.941	0.42
249.157	0.5
249.374	0.32
249.59	0.4
249.806	0.45
250.023	0.47
250.239	0.34
250.455	0.37
250.671	0.48
250.888	0.42
251.104	0.47
251.32	0.33
251.536	0.46
251.752	0.46
251.969	0.46
252.185	0.37
252.401	0.58
252.617	0.38
252.833	0.41
253.049	0.45
253.265	0.39
253.481	0.43
253.697	0.43
253.913	0.34
254.129	0.49
254.345	0.38
254.561	0.41
254.777	0.38
254.993	0.51
255.209	0.41
255.425	0.28
255.641	0.33
255.857	0.5
256.073	0.34
256.288	0.29
256.504	0.37
256.72	0.45
256.936	0.4
257.152	0.44
257.367	0.33
257.583	0.42
257.799	0.4
258.015	0.34
258.23	0.35
258.446	0.49
258.662	0.37
258.877	0.34
259.093	0.28
259.309	0.36
259.524	0.47
259.74	0.26
259.955	0.26
260.171	0.39
260.387	0.31
260.602	0.48
260.818	0.48
261.033	0.3
261.249	0.36
261.464	0.32
261.68	0.25
261.895	0.41
262.11	0.44
262.326	0.32
262.541	0.29
262.757	0.39
262.972	0.37
263.187	0.38
263.403	0.37
263.618	0.46
263.833	0.33
264.049	0.31
264.264	0.37
264.479	0.46
264.694	0.42
264.91	0.29
265.125	0.37
265.34	0.35
265.555	0.52
265.77	0.36
265.986	0.39
266.201	0.4
266.416	0.43
266.631	0.32
266.846	0.3
267.061	0.44
267.276	0.39
267.491	0.17
267.706	0.34
267.921	0.42
268.136	0.34
268.351	0.35
268.566	0.29
268.781	0.51
268.996	0.41
269.211	0.38
269.426	0.34
269.641	0.29
269.856	0.4
270.071	0.32
270.285	0.28
270.5	0.4
270.715	0.41
270.93	0.3
271.145	0.32
271.359	0.43
271.574	0.29
271.789	0.39
272.004	0.36
272.218	0.3
272.433	0.37
272.648	0.3
272.862	0.41
273.077	0.34
273.292	0.38
273.506	0.24
273.721	0.34
273.936	0.37
274.15	0.45
274.365	0.32
274.579	0.42
274.794	0.4
275.008	0.42
275.223	0.3
275.437	0.32
275.652	0.44
275.866	0.39
276.081	0.29
276.295	0.33
276.509	0.42
276.724	0.32
276.938	0.38
277.153	0.32
277.367	0.41
277.581	0.27
277.796	0.32
278.01	0.29
278.224	0.39
278.438	0.47
278.653	0.28
278.867	0.28
279.081	0.18
279.295	0.31
279.51	0.32
279.724	0.19
279.938	0.38
280.152	0.34
280.366	0.25
280.58	0.34
280.794	0.4
281.008	0.35
281.222	0.34
281.437	0.47
281.651	0.33
281.865	0.39
282.079	0.28
282.293	0.2
282.507	0.26
282.721	0.31
282.935	0.27
283.148	0.17
283.362	0.29
283.576	0.3
283.79	0.29
284.004	0.26
284.218	0.32
284.432	0.25
284.646	0.27
284.859	0.3
285.073	0.28
285.287	0.3
285.501	0.29
285.714	0.26
285.928	0.26
286.142	0.29
286.356	0.27
286.569	0.26
286.783	0.31
286.997	0.34
287.21	0.26
287.424	0.28
287.637	0.26
287.851	0.2
288.065	0.33
288.278	0.29
288.492	0.34
288.705	0.29
288.919	0.3
289.132	0.28
289.346	0.36
289.559	0.21
289.773	0.23
289.986	0.25
290.2	0.32
290.413	0.33
290.626	0.19
290.84	0.27
291.053	0.26
291.267	0.37
291.48	0.29
291.693	0.29
291.906	0.26
292.12	0.25
292.333	0.25
292.546	0.27
292.76	0.35
292.973	0.3
293.186	0.32
293.399	0.28
293.612	0.32
293.826	0.32
294.039	0.24
294.252	0.25
294.465	0.37
294.678	0.31
294.891	0.29
295.104	0.22
295.317	0.24
295.53	0.27
295.743	0.26
295.956	0.3
296.169	0.34
296.382	0.32
296.595	0.27
296.808	0.22
297.021	0.3
297.234	0.29
297.447	0.29
297.66	0.26
297.873	0.27
298.086	0.28
298.299	0.23
298.511	0.18
298.724	0.29
298.937	0.24
299.15	0.24
299.363	0.29
299.575	0.31
299.788	0.32
300.001	0.24
300.213	0.24
300.426	0.28
300.639	0.26
300.852	0.25
301.064	0.31
301.277	0.31
301.489	0.29
301.702	0.3
301.915	0.27
302.127	0.27
302.34	0.26
302.552	0.28
302.765	0.22
302.977	0.33
303.19	0.25
303.402	0.24
303.615	0.2
303.827	0.26
304.04	0.25
304.252	0.32
304.464	0.25
304.677	0.35
304.889	0.25
305.102	0.21
305.314	0.25
305.526	0.31
305.739	0.28
305.951	0.2
306.163	0.23
306.375	0.31
306.588	0.21
306.8	0.2
307.012	0.21
307.224	0.28
307.436	0.25
307.649	0.19
307.861	0.27
308.073	0.26
308.285	0.25
308.497	0.27
308.709	0.26
308.921	0.32
309.133	0.3
309.346	0.28
309.558	0.25
309.77	0.29
309.982	0.3
310.194	0.26
310.406	0.24
310.617	0.33
310.829	0.28
311.041	0.31
311.253	0.23
311.465	0.2
311.677	0.26
311.889	0.29
312.101	0.26
312.313	0.29
312.524	0.27
312.736	0.19
312.948	0.27
313.16	0.34
313.372	0.28
313.583	0.32
313.795	0.27
314.007	0.22
314.218	0.31
314.43	0.24
314.642	0.27
314.853	0.24
315.065	0.32
315.277	0.25
315.488	0.26
315.7	0.31
315.912	0.27
316.123	0.26
316.335	0.28
316.546	0.36
316.758	0.25
316.969	0.24
317.181	0.28
317.392	0.23
317.604	0.34
317.815	0.24
318.026	0.2
318.238	0.26
318.449	0.27
318.661	0.2
318.872	0.23
319.083	0.19
319.295	0.3
319.506	0.24
319.717	0.26
319.929	0.33
320.14	0.3
320.351	0.26
320.562	0.25
320.774	0.21
320.985	0.23
321.196	0.19
321.407	0.2
321.618	0.3
321.829	0.27
322.041	0.28
322.252	0.27
322.463	0.24
322.674	0.25
322.885	0.19
323.096	0.21
323.307	0.26
323.518	0.23
323.729	0.25
323.94	0.26
324.151	0.26
324.362	0.28
324.573	0.28
324.784	0.25
324.995	0.28
325.206	0.28
325.417	0.23
325.628	0.25
325.838	0.24
326.049	0.23
326.26	0.3
326.471	0.22
326.682	0.28
326.892	0.27
327.103	0.18
327.314	0.22
327.525	0.34
327.735	0.24
327.946	0.3
328.157	0.22
328.368	0.27
328.578	0.24
328.789	0.3
328.999	0.28
329.21	0.23
329.421	0.26
329.631	0.21
329.842	0.21
330.052	0.26
330.263	0.27
330.473	0.31
330.684	0.25
330.894	0.25
331.105	0.3
331.315	0.25
331.526	0.18
331.736	0.35
331.947	0.26
332.157	0.28
332.367	0.19
332.578	0.29
332.788	0.29
332.999	0.29
333.209	0.25
333.419	0.21
333.629	0.28
333.84	0.26
334.05	0.26
334.26	0.36
334.47	0.29
334.681	0.24
334.891	0.24
335.101	0.25
335.311	0.31
335.521	0.27
335.732	0.24
335.942	0.34
336.152	0.27
336.362	0.29
336.572	0.27
336.782	0.26
336.992	0.26
337.202	0.24
337.412	0.26
337.622	0.28
337.832	0.28
338.042	0.26
338.252	0.21
338.462	0.27
338.672	0.27
338.882	0.23
339.092	0.19
339.302	0.33
339.511	0.3
339.721	0.21
339.931	0.21
340.141	0.26
340.351	0.33
340.561	0.28
340.77	0.25
340.98	0.26
341.19	0.26
341.4	0.2
341.609	0.24
341.819	0.27
342.029	0.25
342.238	0.24
342.448	0.21
342.658	0.28
342.867	0.3
343.077	0.18
343.286	0.25
343.496	0.3
343.706	0.27
343.915	0.2
344.125	0.24
344.334	0.26
344.544	0.17
344.753	0.19
344.963	0.25
345.172	0.21
345.381	0.24
345.591	0.2
345.8	0.25
346.01	0.31
346.219	0.28
346.428	0.09
346.638	0.25
346.847	0.25
347.056	0.34
347.266	0.23
347.475	0.29
347.684	0.25
347.893	0.22
348.103	0.3
348.312	0.25
348.521	0.23
348.73	0.24
348.94	0.24
349.149	0.23
349.358	0.23
349.567	0.18
349.776	0.19
349.985	0.22
350.194	0.28
350.403	0.31
350.612	0.23
350.821	0.26
351.03	0.19
351.239	0.24
351.448	0.23
351.657	0.24
351.866	0.34
352.075	0.24
352.284	0.31
352.493	0.2
352.702	0.32
352.911	0.22
353.12	0.29
353.329	0.22
353.538	0.29
353.746	0.2
353.955	0.22
354.164	0.26
354.373	0.23
354.582	0.27
354.79	0.24
354.999	0.25
355.208	0.24
355.416	0.31
355.625	0.2
355.834	0.25
356.042	0.29
356.251	0.25
356.46	0.22
356.668	0.25
356.877	0.31
357.085	0.3
357.294	0.2
357.503	0.25
357.711	0.23
357.92	0.4
358.128	0.23
358.337	0.25
358.545	0.3
358.754	0.23
358.962	0.27
359.17	0.26
359.379	0.25
359.587	0.23
359.796	0.24
360.004	0.32
360.212	0.27
360.421	0.26
360.629	0.24
360.837	0.28
361.046	0.28
361.254	0.34
361.462	0.25
361.67	0.23
361.879	0.26
362.087	0.29
362.295	0.25
362.503	0.22
362.711	0.16
362.92	0.27
363.128	0.23
363.336	0.2
363.544	0.22
363.752	0.23
363.96	0.2
364.168	0.25
364.376	0.27
364.584	0.24
364.792	0.26
365	0.26
365.208	0.25
365.416	0.27
365.624	0.25
365.832	0.23
366.04	0.31
366.248	0.25
366.456	0.23
366.664	0.21
366.872	0.22
367.079	0.23
367.287	0.28
367.495	0.27
367.703	0.23
367.911	0.23
368.118	0.22
368.326	0.24
368.534	0.26
368.742	0.28
368.949	0.23
369.157	0.24
369.365	0.28
369.572	0.23
369.78	0.21
369.988	0.3
370.195	0.27
370.403	0.29
370.61	0.22
370.818	0.26
371.026	0.38
371.233	0.21
371.441	0.27
371.648	0.24
371.856	0.27
372.063	0.25
372.271	0.25
372.478	0.22
372.685	0.22
372.893	0.26
373.1	0.28
373.308	0.22
373.515	0.36
373.722	0.29
373.93	0.23
374.137	0.29
374.344	0.32
374.552	0.27
374.759	0.27
374.966	0.29
375.173	0.26
375.381	0.28
375.588	0.28
375.795	0.18
376.002	0.23
376.209	0.24
376.417	0.26
376.624	0.32
376.831	0.29
377.038	0.25
377.245	0.23
377.452	0.26
377.659	0.27
377.866	0.21
378.073	0.3
378.28	0.23
378.487	0.31
378.694	0.3
378.901	0.21
379.108	0.25
379.315	0.28
379.522	0.36
379.729	0.25
379.936	0.25
380.143	0.28
380.35	0.28
380.557	0.26
380.763	0.29
380.97	0.28
381.177	0.27
381.384	0.24
381.591	0.28
381.797	0.27
382.004	0.34
382.211	0.3
382.418	0.28
382.624	0.33
382.831	0.3
383.038	0.26
383.244	0.28
383.451	0.23
383.658	0.31
383.864	0.28
384.071	0.22
384.277	0.34
384.484	0.24
384.69	0.3
384.897	0.26
385.103	0.25
385.31	0.24
385.516	0.23
385.723	0.22
385.929	0.27
386.136	0.24
386.342	0.34
386.549	0.22
386.755	0.34
386.961	0.27
387.168	0.26
387.374	0.3
387.58	0.32
387.787	0.28
387.993	0.32
388.199	0.26
388.406	0.24
388.612	0.28
388.818	0.26
389.024	0.28
389.231	0.3
389.437	0.36
389.643	0.29
389.849	0.27
390.055	0.32
390.261	0.27
390.467	0.33
390.674	0.27
390.88	0.27
391.086	0.31
391.292	0.26
391.498	0.31
391.704	0.28
391.91	0.24
392.116	0.3
392.322	0.2
392.528	0.35
392.734	0.31
392.94	0.29
393.146	0.3
393.352	0.28
393.557	0.28
393.763	0.27
393.969	0.29
394.175	0.3
394.381	0.3
394.587	0.31
394.792	0.28
394.998	0.35
395.204	0.36
395.41	0.3
395.615	0.33
395.821	0.37
396.027	0.32
396.233	0.31
396.438	0.33
396.644	0.38
396.85	0.33
397.055	0.31
397.261	0.4
397.466	0.33
397.672	0.32
397.878	0.35
398.083	0.32
398.289	0.29
398.494	0.39
398.7	0.31
398.905	0.25
399.111	0.39
399.316	0.31
399.522	0.33
399.727	0.33
399.932	0.31
400.138	0.33
400.343	0.4
400.549	0.33
400.754	0.31
400.959	0.35
401.165	0.36
401.37	0.42
401.575	0.45
401.78	0.32
401.986	0.34
402.191	0.36
402.396	0.4
402.601	0.4
402.807	0.38
403.012	0.41
403.217	0.43
403.422	0.41
403.627	0.43
403.832	0.41
404.037	0.45
404.243	0.47
404.448	0.34
404.653	0.43
404.858	0.43
405.063	0.42
405.268	0.37
405.473	0.36
405.678	0.41
405.883	0.57
406.088	0.48
406.293	0.39
406.498	0.42
406.703	0.52
406.907	0.49
407.112	0.44
407.317	0.49
407.522	0.59
407.727	0.44
407.932	0.53
408.136	0.63
408.341	0.53
408.546	0.56
408.751	0.53
408.956	0.51
409.16	0.56
409.365	0.65
409.57	0.62
409.774	0.61
409.979	0.62
410.184	0.66
410.388	0.65
410.593	0.71
410.798	0.68
411.002	0.74
411.207	0.79
411.411	0.79
411.616	0.8
411.82	0.78
412.025	0.88
412.229	0.82
412.434	0.92
412.638	0.91
412.843	0.85
413.047	0.94
413.252	0.91
413.456	1
413.66	1.04
413.865	1
414.069	1.12
414.273	1.11
414.478	1.18
414.682	1.13
414.886	1.18
415.091	1.22
415.295	1.26
415.499	1.39
415.703	1.33
415.908	1.43
416.112	1.33
416.316	1.55
416.52	1.55
416.724	1.57
416.929	1.58
417.133	1.83
417.337	1.78
417.541	1.74
417.745	1.78
417.949	1.9
418.153	1.96
418.357	1.97
418.561	2.21
418.765	2.13
418.969	2.32
419.173	2.41
419.377	2.4
419.581	2.59
419.785	2.52
419.989	2.54
420.193	2.79
420.397	2.84
420.601	2.9
420.804	2.98
421.008	3.06
421.212	3.19
421.416	3.2
421.62	3.27
421.823	3.33
422.027	3.41
422.231	3.37
422.435	3.51
422.638	3.49
422.842	3.63
423.046	3.73
423.249	3.91
423.453	3.9
423.657	4.03
423.86	4.06
424.064	4.23
424.268	4.39
424.471	4.41
424.675	4.61
424.878	4.7
425.082	4.81
425.285	5.09
425.489	5.01
425.692	5.21
425.896	5.18
426.099	5.37
426.303	5.53
426.506	5.66
426.71	5.9
426.913	5.98
427.116	6.18
427.32	6.24
427.523	6.26
427.726	6.65
427.93	6.69
428.133	7.06
428.336	7.16
428.54	7.25
428.743	7.59
428.946	7.79
429.149	7.76
429.353	7.83
429.556	7.95
429.759	7.96
429.962	8.18
430.165	8.29
430.368	7.98
430.571	7.97
430.775	8.13
430.978	7.93
431.181	7.96
431.384	8.17
431.587	8.31
431.79	8.57
431.993	8.53
432.196	8.82
432.399	9.3
432.602	9.36
432.805	9.36
433.008	10.03
433.211	9.88
433.414	10.21
433.616	10.21
433.819	10.21
434.022	10.39
434.225	10.57
434.428	10.54
434.631	11.02
434.833	10.71
435.036	10.93
435.239	11.18
435.442	11.26
435.645	11.43
435.847	11.55
436.05	11.76
436.253	12.08
436.455	12.05
436.658	11.88
436.861	12.26
437.063	12.42
437.266	12.32
437.468	12.7
437.671	13.03
437.874	13.01
438.076	12.89
438.279	13.41
438.481	13.36
438.684	14.09
438.886	13.65
439.089	14.12
439.291	13.97
439.494	14.36
439.696	14.53
439.899	15.16
440.101	15.53
440.303	15.72
440.506	16.46
440.708	16.23
440.91	16.36
441.113	16.61
441.315	16.91
441.517	16.65
441.72	17.09
441.922	16.81
442.124	16.72
442.326	17.06
442.529	17.33
442.731	17.32
442.933	17.76
443.135	17.34
443.337	17.33
443.539	17.86
443.742	17.69
443.944	18.29
444.146	17.99
444.348	18.07
444.55	17.97
444.752	17.97
444.954	18.19
445.156	18.04
445.358	18.44
445.56	18.71
445.762	18.52
445.964	18.81
446.166	18.48
446.368	18.55
446.57	18.63
446.772	18.28
446.974	17.86
447.175	18.21
447.377	17.69
447.579	18.44
447.781	18.05
447.983	17.9
448.184	17.38
448.386	17.8
448.588	17.34
448.79	17.26
448.991	17.56
449.193	17.71
449.395	16.99
449.597	16.58
449.798	16.42
450	16.08
450.202	15.96
450.403	15.99
450.605	15.86
450.806	15.4
451.008	15.31
451.21	15.06
451.411	14.65
451.613	13.99
451.814	14.22
452.016	14.09
452.217	13.34
452.419	13.47
452.62	13.16
452.821	12.8
453.023	12.6
453.224	12.47
453.426	12.01
453.627	11.25
453.828	11.33
454.03	11.39
454.231	11.35
454.432	11.21
454.634	10.97
454.835	10.71
455.036	10.57
455.238	10.25
455.439	9.91
455.64	9.63
455.841	9.53
456.042	9.65
456.244	9.32
456.445	9.06
456.646	8.7
456.847	8.69
457.048	8.53
457.249	8.51
457.45	8.28
457.651	7.7
457.852	7.67
458.054	7.41
458.255	7.27
458.456	7.38
458.657	7.3
458.858	6.74
459.058	6.71
459.259	6.84
459.46	6.5
459.661	6.46
459.862	6.46
460.063	6.44
460.264	6.28
460.465	6.07
460.666	6.13
460.866	5.78
461.067	5.54
461.268	5.63
461.469	5.52
461.67	5.48
461.87	5.26
462.071	5.26
462.272	5.18
462.473	5.22
462.673	5.3
462.874	5.17
463.075	5.24
463.275	5.26
463.476	5.16
463.676	5.13
463.877	4.99
464.078	4.93
464.278	5.01
464.479	4.93
464.679	4.78
464.88	4.74
465.08	4.66
465.281	4.58
465.481	4.28
465.682	4.23
465.882	4.24
466.083	4.17
466.283	4
466.483	3.96
466.684	3.82
466.884	3.69
467.085	3.7
467.285	3.74
467.485	3.64
467.686	3.61
467.886	3.43
468.086	3.43
468.286	3.38
468.487	3.49
468.687	3.28
468.887	3.27
469.087	3.4
469.287	3.25
469.488	3.12
469.688	3.2
469.888	3.24
470.088	3.2
470.288	3.18
470.488	3.02
470.688	2.86
470.888	2.91
471.088	2.74
471.288	2.83
471.488	2.77
471.688	2.76
471.888	2.72
472.088	2.79
472.288	2.79
472.488	2.58
472.688	2.61
472.888	2.61
473.088	2.58
473.288	2.5
473.488	2.47
473.688	2.58
473.887	2.48
474.087	2.43
474.287	2.48
474.487	2.42
474.687	2.43
474.886	2.35
475.086	2.33
475.286	2.33
475.486	2.23
475.685	2.24
475.885	2.24
476.085	2.3
476.284	2.28
476.484	2.27
476.684	2.24
476.883	2.31
477.083	2.15
477.282	2.14
477.482	2.17
477.681	2.14
477.881	2.09
478.08	2.07
478.28	2.05
478.479	2.07
478.679	2.12
478.878	2.09
479.078	2.07
479.277	2.12
479.477	2.06
479.676	2.04
479.875	2.03
480.075	1.98
480.274	2.01
480.473	2.07
480.673	2
480.872	2.11
481.071	2.02
481.271	2.05
481.47	2.03
481.669	1.98
481.868	1.99
482.067	2
482.267	1.94
482.466	1.98
482.665	1.97
482.864	1.98
483.063	1.96
483.262	2
483.461	2.05
483.661	2.08
483.86	1.97
484.059	2.1
484.258	2.01
484.457	2.01
484.656	2.03
484.855	2.06
485.054	1.93
485.253	1.94
485.452	1.99
485.651	2.08
485.849	2.05
486.048	2.08
486.247	2.06
486.446	2.05
486.645	2.04
486.844	2.08
487.043	2.07
487.241	2.07
487.44	2.08
487.639	2.13
487.838	2.14
488.037	2.11
488.235	2.18
488.434	2.18
488.633	2.08
488.831	2.23
489.03	2.24
489.229	2.23
489.427	2.22
489.626	2.25
489.825	2.27
490.023	2.3
490.222	2.27
490.42	2.31
490.619	2.37
490.817	2.35
491.016	2.35
491.214	2.38
491.413	2.45
491.611	2.37
491.81	2.44
492.008	2.4
492.207	2.54
492.405	2.52
492.604	2.45
492.802	2.53
493	2.6
493.199	2.62
493.397	2.62
493.595	2.69
493.794	2.64
493.992	2.77
494.19	2.74
494.388	2.82
494.587	2.72
494.785	2.76
494.983	2.76
495.181	2.81
495.379	2.91
495.578	2.92
495.776	2.94
495.974	2.9
496.172	3
496.37	3.07
496.568	3.09
496.766	3.04
496.964	3.15
497.162	3.14
497.36	3.17
497.558	3.2
497.756	3.26
497.954	3.26
498.152	3.36
498.35	3.42
498.548	3.32
498.746	3.4
498.944	3.38
499.142	3.43
499.34	3.5
499.538	3.6
499.736	3.54
499.933	3.65
500.131	3.6
500.329	3.76
500.527	3.73
500.725	3.87
500.922	3.88
501.12	3.86
501.318	3.94
501.516	3.94
501.713	4
501.911	3.99
502.109	3.93
502.306	4.12
502.504	4
502.701	4.08
502.899	4.16
503.097	4.29
503.294	4.19
503.492	4.34
503.689	4.38
503.887	4.36
504.084	4.43
504.282	4.4
504.479	4.38
504.677	4.55
504.874	4.49
505.072	4.47
505.269	4.63
505.466	4.65
505.664	4.75
505.861	4.63
506.059	4.8
506.256	4.74
506.453	4.84
506.651	4.94
506.848	4.96
507.045	4.99
507.242	4.99
507.44	5.02
507.637	5.05
507.834	5.07
508.031	5.17
508.229	5.13
508.426	5.09
508.623	5.21
508.82	5.27
509.017	5.21
509.214	5.22
509.411	5.41
509.608	5.31
509.805	5.46
510.003	5.44
510.2	5.53
510.397	5.63
510.594	5.54
510.791	5.57
510.988	5.56
511.184	5.64
511.381	5.5
511.578	5.67
511.775	5.82
511.972	5.7
512.169	5.74
512.366	5.82
512.563	5.9
512.76	5.94
512.956	5.98
513.153	5.95
513.35	5.88
513.547	5.87
513.744	6.03
513.94	6.03
514.137	6.13
514.334	6.09
514.53	6.15
514.727	6.33
514.924	6.21
515.12	6.25
515.317	6.24
515.514	6.2
515.71	6.19
515.907	6.42
516.103	6.46
516.3	6.32
516.497	6.47
516.693	6.44
516.89	6.47
517.086	6.54
517.283	6.52
517.479	6.4
517.676	6.6
517.872	6.65
518.068	6.57
518.265	6.64
518.461	6.59
518.658	6.74
518.854	6.71
519.05	6.75
519.247	6.8
519.443	6.76
519.639	6.88
519.836	6.69
520.032	6.77
520.228	6.9
520.424	6.83
520.621	6.86
520.817	7.02
521.013	6.82
521.209	7.08
521.405	6.99
521.601	6.96
521.798	6.97
521.994	6.96
522.19	6.94
522.386	7.02
522.582	7.09
522.778	7.24
522.974	7.04
523.17	7.08
523.366	7.06
523.562	7.12
523.758	7.13
523.954	7.01
524.15	7.2
524.346	7.22
524.542	7.19
524.738	7.18
524.934	7.29
525.129	7.31
525.325	7.24
525.521	7.24
525.717	7.47
525.913	7.29
526.109	7.36
526.304	7.36
526.5	7.43
526.696	7.45
526.892	7.4
527.087	7.6
527.283	7.52
527.479	7.46
527.674	7.32
527.87	7.53
528.066	7.41
528.261	7.52
528.457	7.4
528.653	7.6
528.848	7.57
529.044	7.65
529.239	7.44
529.435	7.57
529.63	7.44
529.826	7.51
530.021	7.54
530.217	7.55
530.412	7.56
530.608	7.59
530.803	7.6
530.999	7.44
531.194	7.57
531.389	7.69
531.585	7.74
531.78	7.79
531.975	7.69
532.171	7.72
532.366	7.74
532.561	7.74
532.757	7.7
532.952	7.88
533.147	7.56
533.342	7.76
533.538	7.6
533.733	7.87
533.928	7.58
534.123	7.81
534.318	7.77
534.513	7.71
534.709	7.85
534.904	7.84
535.099	7.86
535.294	7.91
535.489	7.91
535.684	7.77
535.879	7.83
536.074	7.88
536.269	7.96
536.464	7.9
536.659	7.86
536.854	7.88
537.049	7.92
537.244	7.85
537.439	7.89
537.634	7.85
537.828	7.96
538.023	7.88
538.218	7.88
538.413	7.8
538.608	7.87
538.803	7.88
538.997	7.92
539.192	7.93
539.387	7.9
539.582	7.91
539.776	7.87
539.971	7.99
540.166	8
540.36	7.92
540.555	8.04
540.75	7.96
540.944	7.97
541.139	8.01
541.334	7.99
541.528	8.01
541.723	8.06
541.917	7.98
542.112	7.9
542.306	7.82
542.501	7.84
542.695	7.95
542.89	7.94
543.084	7.99
543.279	8.01
543.473	8.01
543.668	8.08
543.862	7.88
544.056	7.94
544.251	8.04
544.445	8.06
544.64	8.14
544.834	7.73
545.028	7.66
545.222	7.98
545.417	8.24
545.611	8.08
545.805	8.06
546	7.87
546.194	8.13
546.388	8.06
546.582	7.92
546.776	7.99
546.97	8.04
547.165	7.95
547.359	7.98
547.553	7.96
547.747	7.99
547.941	8.18
548.135	8.04
548.329	8.07
548.523	8.02
548.717	7.98
548.911	7.96
549.105	8.05
549.299	8.02
549.493	8.11
549.687	8.01
549.881	8.1
550.075	8.07
550.269	7.96
550.463	8.07
550.657	8.1
550.85	8.08
551.044	8.08
551.238	8.05
551.432	8.07
551.626	8.14
551.82	8.18
552.013	8.02
552.207	8.18
552.401	8.16
552.594	8.06
552.788	8.05
552.982	8.04
553.176	7.92
553.369	8.15
553.563	8.05
553.756	8.05
553.95	8.09
554.144	8.13
554.337	8.14
554.531	7.94
554.724	8.12
554.918	8.15
555.111	8.08
555.305	8.08
555.498	8.09
555.692	8.17
555.885	8.13
556.079	8.04
556.272	8.08
556.466	8.04
556.659	8.05
556.852	8.14
557.046	8
557.239	7.93
557.432	8.01
557.626	8.19
557.819	8.2
558.012	8.12
558.206	8.19
558.399	8.07
558.592	8.08
558.785	8.06
558.979	8.07
559.172	8.14
559.365	8.08
559.558	8.02
559.751	8.02
559.944	8.11
560.138	8.05
560.331	8.06
560.524	8.17
560.717	8.06
560.91	8.08
561.103	8.04
561.296	8
561.489	8.1
561.682	8.23
561.875	8.11
562.068	8.25
562.261	7.96
562.454	8.32
562.647	8.07
562.84	8.13
563.032	8.16
563.225	8.01
563.418	8.05
563.611	8.13
563.804	8.19
563.997	7.94
564.19	7.87
564.382	8.22
564.575	8.05
564.768	8.01
564.961	8.11
565.153	8.02
565.346	8.01
565.539	8.2
565.731	7.99
565.924	8.13
566.117	8.22
566.309	8.06
566.502	8.03
566.695	7.97
566.887	8.11
567.08	8.05
567.272	8.12
567.465	7.97
567.657	8.08
567.85	7.91
568.042	8.07
568.235	8.1
568.427	7.9
568.62	8.03
568.812	8.02
569.005	8.08
569.197	7.94
569.389	8.02
569.582	8
569.774	7.95
569.966	7.96
570.159	7.92
570.351	8.01
570.543	8.06
570.736	8.06
570.928	7.86
571.12	8.02
571.312	7.93
571.505	7.75
571.697	8.03
571.889	8
572.081	7.94
572.273	7.92
572.465	7.92
572.658	7.97
572.85	7.96
573.042	8.06
573.234	7.9
573.426	7.88
573.618	7.88
573.81	7.95
574.002	7.89
574.194	7.94
574.386	7.88
574.578	7.79
574.77	7.91
574.962	7.88
575.154	7.8
575.346	7.74
575.538	7.82
575.729	7.86
575.921	7.92
576.113	7.98
576.305	7.87
576.497	7.98
576.689	7.73
576.88	7.79
577.072	7.86
577.264	7.84
577.456	7.88
577.647	7.79
577.839	7.95
578.031	7.81
578.223	7.73
578.414	7.68
578.606	7.8
578.798	7.85
578.989	7.86
579.181	7.85
579.372	7.83
579.564	7.84
579.755	7.75
579.947	7.72
580.139	7.79
580.33	7.6
580.522	7.76
580.713	7.68
580.905	7.71
581.096	7.82
581.287	7.71
581.479	7.71
581.67	7.76
581.862	7.66
582.053	7.71
582.244	7.61
582.436	7.77
582.627	7.59
582.818	7.65
583.01	7.7
583.201	7.7
583.392	7.57
583.583	7.58
583.775	7.39
583.966	7.61
584.157	7.56
584.348	7.69
584.54	7.54
584.731	7.55
584.922	7.53
585.113	7.41
585.304	7.55
585.495	7.51
585.686	7.63
585.877	7.55
586.068	7.67
586.259	7.51
586.45	7.47
586.641	7.49
586.832	7.62
587.023	7.52
587.214	7.41
587.405	7.53
587.596	7.39
587.787	7.32
587.978	7.44
588.169	7.38
588.36	7.33
588.551	7.42
588.742	7.33
588.932	7.49
589.123	7.23
589.314	7.49
589.505	7.27
589.696	7.36
589.886	7.26
590.077	7.33
590.268	7.23
590.458	7.18
590.649	7.11
590.84	7.27
591.03	7.17
591.221	7.23
591.412	7.08
591.602	7.35
591.793	7.24
591.984	7.24
592.174	7.19
592.365	7.31
592.555	7.06
592.746	7.07
592.936	7.2
593.127	7.2
593.317	7.21
593.508	7.11
593.698	7.02
593.889	7.07
594.079	6.99
594.269	7.01
594.46	6.97
594.65	7.01
594.84	7.04
595.031	6.97
595.221	6.98
595.411	7
595.602	7.02
595.792	6.95
595.982	6.89
596.172	6.94
596.363	6.87
596.553	6.9
596.743	6.96
596.933	6.88
597.123	6.91
597.314	6.77
597.504	6.76
597.694	6.84
597.884	6.85
598.074	6.87
598.264	6.85
598.454	6.78
598.644	6.73
598.834	6.79
599.024	6.69
599.214	6.65
599.404	6.77
599.594	6.75
599.784	6.63
599.974	6.69
600.164	6.66
600.354	6.6
600.544	6.52
600.734	6.65
600.924	6.6
601.114	6.53
601.303	6.54
601.493	6.57
601.683	6.53
601.873	6.5
602.063	6.49
602.252	6.5
602.442	6.41
602.632	6.5
602.821	6.35
603.011	6.46
603.201	6.45
603.39	6.37
603.58	6.29
603.77	6.37
603.959	6.48
604.149	6.3
604.339	6.33
604.528	6.37
604.718	6.39
604.907	6.31
605.097	6.26
605.286	6.22
605.476	6.18
605.665	6.28
605.855	6.23
606.044	6.24
606.234	6.21
606.423	6.17
606.612	6.18
606.802	6.07
606.991	6.19
607.181	6.14
607.37	6.22
607.559	5.84
607.749	6.06
607.938	5.97
608.127	6.05
608.316	6.06
608.506	5.99
608.695	6.1
608.884	5.96
609.073	6.02
609.263	6.08
609.452	5.98
609.641	5.88
609.83	5.78
610.019	5.95
610.208	5.82
610.397	5.8
610.586	5.84
610.775	5.77
610.965	5.79
611.154	5.71
611.343	5.78
611.532	5.68
611.721	5.82
611.91	5.7
612.099	5.7
612.287	5.6
612.476	5.58
612.665	5.73
612.854	5.62
613.043	5.62
613.232	5.68
613.421	5.54
613.61	5.52
613.798	5.55
613.987	5.61
614.176	5.52
614.365	5.48
614.554	5.42
614.742	5.5
614.931	5.41
615.12	5.44
615.309	5.45
615.497	5.36
615.686	5.31
615.875	5.39
616.063	5.3
616.252	5.36
616.44	5.39
616.629	5.3
616.818	5.25
617.006	5.28
617.195	5.17
617.383	5.23
617.572	5.14
617.76	5.21
617.949	5.2
618.137	5.25
618.326	5.18
618.514	5
618.703	4.99
618.891	5.17
619.079	5.09
619.268	5.15
619.456	4.99
619.644	5.13
619.833	5.03
620.021	4.97
620.209	4.87
620.398	5.02
620.586	4.97
620.774	5.03
620.962	5
621.151	5.04
621.339	4.97
621.527	4.84
621.715	4.82
621.903	4.87
622.092	4.79
622.28	4.92
622.468	4.68
622.656	4.76
622.844	4.73
623.032	4.82
623.22	4.64
623.408	4.81
623.596	4.69
623.784	4.74
623.972	4.6
624.16	4.65
624.348	4.71
624.536	4.66
624.724	4.57
624.912	4.58
625.1	4.56
625.288	4.6
625.476	4.5
625.664	4.57
625.851	4.53
626.039	4.63
626.227	4.43
626.415	4.52
626.603	4.4
626.79	4.48
626.978	4.45
627.166	4.45
627.354	4.31
627.541	4.41
627.729	4.3
627.917	4.5
628.104	4.42
628.292	4.3
628.48	4.31
628.667	4.29
628.855	4.35
629.042	4.31
629.23	4.24
629.418	4.26
629.605	4.26
629.793	4.18
629.98	4.2
630.168	4.12
630.355	4.22
630.543	4.15
630.73	4.11
630.917	4.1
631.105	4.19
631.292	4.09
631.48	4.05
631.667	4.16
631.854	4.1
632.042	4.04
632.229	4
632.416	4.04
632.604	4
632.791	3.86
632.978	4.02
633.165	3.94
633.353	3.96
633.54	4.06
633.727	3.83
633.914	3.82
634.101	3.78
634.289	3.96
634.476	3.8
634.663	3.75
634.85	3.8
635.037	3.84
635.224	3.71
635.411	3.81
635.598	3.72
635.785	3.71
635.972	3.74
636.159	3.69
636.346	3.67
636.533	3.66
636.72	3.61
636.907	3.65
637.094	3.59
637.281	3.51
637.468	3.68
637.655	3.62
637.842	3.62
638.029	3.55
638.215	3.55
638.402	3.57
638.589	3.44
638.776	3.5
638.963	3.49
639.149	3.55
639.336	3.49
639.523	3.48
639.709	3.43
639.896	3.36
640.083	3.41
640.27	3.45
640.456	3.43
640.643	3.36
640.829	3.25
641.016	3.37
641.203	3.27
641.389	3.31
641.576	3.3
641.762	3.26
641.949	3.27
642.135	3.31
642.322	3.27
642.508	3.2
642.695	3.26
642.881	3.2
643.068	3.22
643.254	3.2
643.441	3.24
643.627	3.18
643.813	3.04
644	3.2
644.186	3.08
644.372	3.16
644.559	3.16
644.745	3.05
644.931	3.05
645.118	3.08
645.304	3.04
645.49	3.03
645.676	3.01
645.862	2.99
646.049	3.14
646.235	3.01
646.421	3.09
646.607	3.05
646.793	2.88
646.979	2.92
647.165	2.95
647.352	2.95
647.538	2.96
647.724	2.86
647.91	2.92
648.096	2.89
648.282	2.9
648.468	2.87
648.654	2.92
648.84	2.85
649.026	2.86
649.212	2.83
649.397	2.77
649.583	2.81
649.769	2.83
649.955	2.8
650.141	2.79
650.327	2.78
650.513	2.76
650.698	2.82
650.884	2.64
651.07	2.76
651.256	2.73
651.442	2.69
651.627	2.6
651.813	2.72
651.999	2.64
652.184	2.7
652.37	2.68
652.556	2.63
652.741	2.64
652.927	2.53
653.113	2.59
653.298	2.62
653.484	2.6
653.669	2.55
653.855	2.54
654.04	2.57
654.226	2.58
654.412	2.49
654.597	2.46
654.782	2.54
654.968	2.52
655.153	2.49
655.339	2.5
655.524	2.4
655.71	2.49
655.895	2.42
656.08	2.47
656.266	2.52
656.451	2.44
656.636	2.41
656.822	2.45
657.007	2.43
657.192	2.37
657.378	2.32
657.563	2.4
657.748	2.41
657.933	2.39
658.118	2.29
658.304	2.31
658.489	2.34
658.674	2.32
658.859	2.28
659.044	2.27
659.229	2.34
659.414	2.23
659.599	2.29
659.785	2.23
659.97	2.28
660.155	2.27
660.34	2.29
660.525	2.23
660.71	2.24
660.895	2.26
661.08	2.18
661.264	2.18
661.449	2.2
661.634	2.16
661.819	2.22
662.004	2.15
662.189	2.08
662.374	2.06
662.559	2.1
662.743	2.07
662.928	2.04
663.113	2.08
663.298	2.02
663.483	1.98
663.667	2.02
663.852	1.97
664.037	2.02
664.221	2.03
664.406	2.01
664.591	2
664.775	2
664.96	1.99
665.145	1.94
665.329	1.99
665.514	1.93
665.698	1.85
665.883	1.8
666.068	1.91
666.252	1.9
666.437	1.79
666.621	1.88
666.806	1.85
666.99	1.82
667.174	1.81
667.359	1.84
667.543	1.8
667.728	1.78
667.912	1.67
668.096	1.82
668.281	1.73
668.465	1.76
668.649	1.78
668.834	1.7
669.018	1.75
669.202	1.73
669.387	1.72
669.571	1.78
669.755	1.73
669.939	1.69
670.124	1.66
670.308	1.72
670.492	1.66
670.676	1.68
670.86	1.62
671.044	1.6
671.228	1.68
671.413	1.6
671.597	1.58
671.781	1.6
671.965	1.66
672.149	1.62
672.333	1.58
672.517	1.55
672.701	1.55
672.885	1.55
673.069	1.51
673.253	1.63
673.437	1.58
673.621	1.47
673.804	1.53
673.988	1.56
674.172	1.48
674.356	1.46
674.54	1.49
674.724	1.55
674.908	1.51
675.091	1.51
675.275	1.46
675.459	1.57
675.643	1.48
675.826	1.49
676.01	1.47
676.194	1.42
676.377	1.46
676.561	1.43
676.745	1.44
676.928	1.45
677.112	1.47
677.296	1.38
677.479	1.37
677.663	1.36
677.846	1.37
678.03	1.38
678.213	1.34
678.397	1.43
678.58	1.3
678.764	1.39
678.947	1.39
679.131	1.38
679.314	1.37
679.498	1.32
679.681	1.35
679.865	1.44
680.048	1.33
680.231	1.3
680.415	1.29
680.598	1.31
680.781	1.31
680.965	1.27
681.148	1.28
681.331	1.24
681.514	1.27
681.698	1.25
681.881	1.27
682.064	1.25
682.247	1.27
682.43	1.16
682.614	1.27
682.797	1.3
682.98	1.24
683.163	1.16
683.346	1.22
683.529	1.17
683.712	1.14
683.895	1.21
684.078	1.15
684.261	1.15
684.444	1.21
684.627	1.22
684.81	1.19
684.993	1.22
685.176	1.21
685.359	1.21
685.542	1.14
685.725	1.19
685.908	1.15
686.091	1.1
686.274	1.17
686.457	1.19
686.639	1.1
686.822	1.15
687.005	1.15
687.188	1.1
687.371	1.16
687.553	1.1
687.736	1.18
687.919	1.18
688.102	1.18
688.284	1.13
688.467	1.05
688.65	1.04
688.832	1.03
689.015	1.07
689.197	0.95
689.38	1.12
689.563	1.14
689.745	1.02
689.928	1.04
690.11	0.96
690.293	1.08
690.475	0.95
690.658	1.02
690.84	1.02
691.023	1
691.205	0.98
691.388	1.05
691.57	0.96
691.752	1
691.935	0.89
692.117	0.95
692.3	1.01
692.482	0.89
692.664	0.92
692.847	0.94
693.029	0.97
693.211	0.97
693.393	0.95
693.576	0.92
693.758	0.9
693.94	1
694.122	0.93
694.304	0.93
694.487	0.88
694.669	0.99
694.851	0.87
695.033	0.89
695.215	0.93
695.397	0.88
695.579	0.96
695.761	0.88
695.943	0.78
696.125	0.95
696.308	0.92
696.49	0.75
696.671	1
696.853	0.8
697.035	1.12
697.217	0.88
697.399	0.85
697.581	0.79
697.763	0.92
697.945	0.83
698.127	0.85
698.309	0.98
698.491	0.87
698.672	0.88
698.854	0.83
699.036	0.89
699.218	0.83
699.399	0.96
699.581	0.92
699.763	0.95
699.945	0.75
700.126	0.73
700.308	0.76
700.49	0.78
700.671	0.68
700.853	0.79
701.035	0.82
701.216	0.8
701.398	0.75
701.579	0.86
701.761	0.88
701.943	0.8
702.124	0.72
702.306	0.84
702.487	0.95
702.669	0.76
702.85	0.84
703.031	0.76
703.213	0.84
703.394	0.77
703.576	0.75
703.757	0.87
703.938	0.83
704.12	0.92
704.301	0.79
704.483	0.71
704.664	0.76
704.845	0.88
705.026	0.85
705.208	0.74
705.389	0.74
705.57	0.71
705.751	0.78
705.933	0.78
706.114	0.85
706.295	0.72
706.476	0.72
706.657	0.92
706.838	0.8
707.02	0.82
707.201	0.66
707.382	0.71
707.563	0.76
707.744	0.65
707.925	0.71
708.106	0.66
708.287	0.76
708.468	0.81
708.649	0.66
708.83	0.7
709.011	0.63
709.192	0.71
709.373	0.63
709.554	0.69
709.734	0.78
709.915	0.71
710.096	0.63
710.277	0.61
710.458	0.64
710.639	0.73
710.819	0.63
711	0.66
711.181	0.73
711.362	0.71
711.542	0.58
711.723	0.71
711.904	0.8
712.085	0.69
712.265	0.62
712.446	0.52
712.627	0.65
712.807	0.64
712.988	0.71
713.168	0.55
713.349	0.72
713.53	0.57
713.71	0.62
713.891	0.54
714.071	0.69
714.252	0.63
714.432	0.62
714.613	0.55
714.793	0.65
714.974	0.75
715.154	0.76
715.334	0.7
715.515	0.73
715.695	0.53
715.876	0.61
716.056	0.63
716.236	0.63
716.417	0.61
716.597	0.62
716.777	0.7
716.957	0.59
717.138	0.66
717.318	0.61
717.498	0.45
717.678	0.63
717.859	0.63
718.039	0.52
718.219	0.68
718.399	0.69
718.579	0.54
718.759	0.55
718.939	0.68
719.12	0.67
719.3	0.63
719.48	0.49
719.66	0.46
719.84	0.74
720.02	0.6
720.2	0.56
720.38	0.56
720.56	0.72
720.74	0.55
720.92	0.63
721.1	0.74
721.279	0.66
721.459	0.58
721.639	0.49
721.819	0.61
721.999	0.59
722.179	0.62
722.359	0.46
722.538	0.64
722.718	0.56
722.898	0.6
723.078	0.6
723.257	0.61
723.437	0.62
723.617	0.6
723.797	0.54
723.976	0.6
724.156	0.66
724.336	0.68
724.515	0.76
724.695	0.43
724.874	0.62
725.054	0.65
725.234	0.5
725.413	0.61
725.593	0.61
725.772	0.6
725.952	0.57
726.131	0.65
726.311	0.47
726.49	0.61
726.67	0.51
726.849	0.58
727.028	0.64
727.208	0.57
727.387	0.58
727.567	0.51
727.746	0.6
727.925	0.48
728.105	0.55
728.284	0.51
728.463	0.55
728.643	0.6
728.822	0.42
729.001	0.59
729.18	0.55
729.359	0.62
729.539	0.56
729.718	0.59
729.897	0.62
730.076	0.41
730.255	0.49
730.434	0.59
730.614	0.72
730.793	0.64
730.972	0.54
731.151	0.57
731.33	0.68
731.509	0.63
731.688	0.69
731.867	0.6
732.046	0.44
732.225	0.81
732.404	0.48
732.583	0.45
732.762	0.66
732.941	0.61
733.12	0.67
733.298	0.58
733.477	0.65
733.656	0.64
733.835	0.46
734.014	0.64
734.193	0.59
734.371	0.64
734.55	0.62
734.729	0.47
734.908	0.65
735.086	0.56
735.265	0.68
735.444	0.51
735.623	0.47
735.801	0.58
735.98	0.61
736.159	0.61
736.337	0.73
736.516	0.61
736.694	0.65
736.873	0.56
737.052	0.76
737.23	0.67
737.409	0.52
737.587	0.88
737.766	0.43
737.944	0.55
738.123	0.66
738.301	0.66
738.479	0.54
738.658	0.61
738.836	0.39
739.015	0.69
739.193	0.75
739.371	0.43
739.55	0.5
739.728	0.52
739.906	0.69
740.085	0.72
740.263	0.53
740.441	0.37
740.62	0.78
740.798	0.58
740.976	0.5
741.154	0.35
741.332	0.72
741.511	0.45
741.689	0.58
741.867	0.61
742.045	0.47
742.223	0.57
742.401	0.55
742.579	0.49
742.757	0.61
742.935	0.41
743.114	0.45
743.292	0.42
743.47	0.42
743.648	0.5
743.826	0.44
744.004	0.54
744.181	0.61
744.359	0.5
744.537	0.59
744.715	0.44
744.893	0.55
745.071	0.53
745.249	0.43
745.427	0.45
745.605	0.58
745.782	0.42
745.96	0.52
746.138	0.62
746.316	0.5
746.493	0.29
746.671	0.47
746.849	0.38
747.027	0.54
747.204	0.28
747.382	0.54
747.56	0.27
747.737	0.33
747.915	0.29
748.093	0.5
748.27	0.32
748.448	0.42
748.625	0.29
748.803	0.4
748.98	0.33
749.158	0.37
749.335	0.52
749.513	0.45
749.69	0.37
749.868	0.4
750.045	0.51
750.223	0.43
750.4	0.21
750.578	0.49
750.755	0.39
750.932	0.22
751.11	0.5
751.287	0.33
751.464	0.47
751.642	0.33
751.819	0.32
751.996	0.42
752.173	0.36
752.351	0.25
752.528	0.44
752.705	0.42
752.882	0.38
753.06	0.46
753.237	0.45
753.414	0.66
753.591	0.52
753.768	0.35
753.945	0.38
754.122	0.33
754.299	0.52
754.476	0.27
754.654	0.28
754.831	0.5
755.008	0.44
755.185	0.3
755.362	0.3
755.539	0.36
755.716	0.42
755.892	0.34
756.069	0.38
756.246	0.41
756.423	0.44
756.6	0.52
756.777	0.43
756.954	0.48
757.131	0.47
757.307	0.36
757.484	0.32
757.661	0.38
757.838	0.63
758.015	0.21
758.191	0.49
758.368	0.47
758.545	0.48
758.721	0.53
758.898	0.19
759.075	0.44
759.251	0.44
759.428	0.4
759.605	0.24
759.781	0.34
759.958	0.44
760.134	0.37
760.311	0.42
760.488	0.53
760.664	0.58
760.841	0.3
761.017	0.32
761.194	0.43
761.37	0.45
761.547	0.39
761.723	0.29
761.899	0.61
762.076	0.42
762.252	0.25
762.429	0.29
762.605	0.45
762.781	0.35
762.958	0.41
763.134	0.35
763.31	0.32
763.486	0.51
763.663	0.22
763.839	0.37
764.015	0.2
764.191	0.28
764.368	0.32
764.544	0.32
764.72	0.38
764.896	0.52
765.072	0.29
765.248	0.31
765.425	0.37
765.601	0.35
765.777	0.34
765.953	0.1
766.129	0.27
766.305	0.37
766.481	0.45
766.657	0.32
766.833	0.45
767.009	0.3
767.185	0.35
767.361	0.3
767.537	0.29
767.713	0.47
767.889	0.3
768.065	0.3
768.24	0.41
768.416	0.5
768.592	0.35
768.768	0.26
768.944	0.39
769.12	0.24
769.295	0.28
769.471	0.44
769.647	0.38
769.823	0.43
769.998	0.24
770.174	0.36
770.35	0.72
770.525	0.74
770.701	0.47
770.877	0.38
771.052	0.19
771.228	0.45
771.403	0.46
771.579	0.41
771.755	0.59
771.93	0.42
772.106	0.26
772.281	0.19
772.457	0.31
772.632	0.51
772.808	0.23
772.983	0.21
773.159	0.27
773.334	0.47
773.509	0.33
773.685	0.44
773.86	0.71
774.036	0.59
774.211	0.38
774.386	0.26
774.562	0.4
774.737	0.38
774.912	0.27
775.087	0.55
775.263	0.37
775.438	0.53
775.613	0.32
775.788	0.36
775.964	0.47
776.139	0.62
776.314	0.17
776.489	0.37
776.664	0.49
776.839	0.23
777.014	0.55
777.19	0.52
777.365	0.48
777.54	0.63
777.715	0.29
777.89	0.28
778.065	0.35
778.24	0.38
778.415	0.52
778.59	0.12
778.765	0.34
778.94	0.41
779.115	0.48
779.289	0.43
779.464	0.33
779.639	0.38
779.814	0.15
779.989	0.14
780.164	0.5
780.339	0.35
780.513	0.28
780.688	0.17
780.863	0.38
781.038	0.54
781.212	0.12
781.387	0.36
781.562	0.66
781.737	0.63
781.911	0.55
782.086	0.27
782.261	0.44
782.435	0.55
782.61	0.33
782.784	0.46
782.959	0.48
783.134	0.28
783.308	0.25
783.483	0.37
783.657	1
783.832	0.58
784.006	0.07
784.181	0.45
784.355	0.64
784.53	0.57
784.704	0.4
784.878	0.72
785.053	0.53
785.227	0.47
785.402	0.76
785.576	0.1
785.75	0.59
785.925	0.26
786.099	0.43
786.273	0.59
786.448	0.36
786.622	0.62
786.796	0.43
786.97	0.49
787.145	0.99
787.319	0.24
787.493	0.27
787.667	0.3
787.841	0.47
788.015	0.62
788.19	0.35
788.364	0.36
788.538	0.53
788.712	0.71
788.886	0.4
789.06	0.66
789.234	0.61
789.408	0.37
789.582	0.42
789.756	0.48
789.93	0.25
790.104	0.31
790.278	0.29
790.452	0.3
790.626	0.61
790.8	0.35
790.973	0.37
791.147	0.67
791.321	0.74
791.495	0.63
791.669	0.47
791.843	0.67
792.016	0.42
792.19	0.98
792.364	0.2
792.538	1
792.711	0.79
792.885	0.43
793.059	0.18
793.233	-0.24
793.406	0.67
793.58	0.39
793.754	0.52
793.927	0.32
794.101	0.78
794.274	0.72
794.448	0.67
794.622	0.08
794.795	0.64
794.969	0.35
795.142	0.84
795.316	0.44
795.489	0.5
795.663	0.88
795.836	0.41
796.009	0.24
796.183	0.58
796.356	0.61
796.53	0.82
796.703	0.2
796.876	1.03
797.05	0.49
797.223	0.49
797.396	0.55
797.57	0.66
797.743	0.75
797.916	0.55
798.09	0.25
798.263	0.52
798.436	0.67
798.609	0.41
798.782	0.19
798.956	0.4
799.129	0.39
799.302	0.63
799.475	0.24
799.648	0.36
799.821	0.28
799.994	0.71
800.167	0.26
800.34	0.52
800.514	0.63
800.687	0.74
800.86	0.33
801.033	0.45
801.206	0.56
801.379	0.22
801.551	0.78
801.724	0.98
801.897	0.88
802.07	0.61
802.243	0.27
802.416	0.37
802.589	0.21
802.762	0.41
802.935	0.48
803.107	0.55
803.28	0.7
803.453	0.52
803.626	0.18
803.798	0.72
803.971	0.15
804.144	0.77
804.317	0.5
804.489	0.72
804.662	0.33
804.835	0.57
805.007	0.34
805.18	0.78
805.353	1.08
805.525	0.42
805.698	0.57
805.87	0.68
806.043	0.73
806.215	0.26
806.388	0.36
806.56	0.54
806.733	0.72
806.905	0.95
807.078	0.34
807.25	0.3
807.423	0.74
807.595	0.41
807.768	0.56
807.94	0.78
808.112	0.87
808.285	0.47
808.457	0.46
808.629	0.44
808.802	0.83
808.974	0.68
809.146	0.62
809.318	0.11
809.491	0.54
809.663	0.83
809.835	0.24
810.007	0.7
810.18	0.52
810.352	0.31
810.524	0.47
810.696	0.68
810.868	0.99
811.04	0.48
811.212	0.45
811.384	0.96
811.556	0.68
811.728	0.38
811.901	1.41
812.073	0.43
812.245	0.94
812.417	0.34
812.589	0.19
812.76	0.83
812.932	0.92
813.104	0.79
813.276	0.51
813.448	0.8
813.62	0.52
813.792	0.74
813.964	0.8
814.136	0.84
814.307	0.29
814.479	0.22
814.651	0.51
814.823	1.17
814.995	0.69
815.166	0.94
815.338	0.66
815.51	0.1
815.681	1.34
815.853	1.02
816.025	0.43
816.196	0.85
816.368	0.38
816.54	0.38
816.711	0.39
816.883	1.07
817.054	1.21
817.226	0.18
817.398	0.81
817.569	0.55
817.741	0.49
817.912	1.11
818.084	0.79
818.255	1.04
818.426	0.38
818.598	0.57
818.769	0.26
818.941	0.96
819.112	1.11
819.283	1
819.455	0.41
819.626	0.88
819.798	1.15
819.969	0.66
820.14	0.35
820.311	0.83
820.483	0.52
820.654	0.51
820.825	0.47
820.996	0.37
821.168	-0.01
821.339	0.6
821.51	0.1
821.681	0.38
821.852	0.88
822.023	0.35
822.195	-0.12
822.366	0.95
822.537	0.64
822.708	0.87
822.879	1.18
823.05	1.52
823.221	0.71
823.392	0.98
823.563	0.89
823.734	0.7
823.905	0.38
824.076	0.67
824.247	0.89
824.418	0.73
824.589	1.19
824.759	0.81
824.93	0.81
825.101	0.15
825.272	1.3
825.443	1.19
825.614	1.1
825.784	0.22
825.955	1.67
826.126	1.63
826.297	0.66
826.467	1.13
826.638	0.98
826.809	0.45
826.98	0.59
827.15	0.82
827.321	0.99
827.492	1.61
827.662	0.64
827.833	1.42
828.003	1.19
828.174	0.06
828.345	-0.24
828.515	1.25
828.686	0.99
828.856	0.58
829.027	0.28
829.197	0.5
829.368	0.77
829.538	0.3
829.709	0.54
829.879	1.12
830.049	1.12
830.22	0.6
830.39	0.86
830.56	1.34
830.731	0.71
830.901	0.51
831.072	0.71
831.242	1.03
831.412	0.8
831.582	1.9
831.753	0.18
831.923	1.27
832.093	0.82
832.263	0.61
832.434	0.15
832.604	0.64
832.774	1.27
832.944	0.74
833.114	0.42
833.284	0.8
833.454	0.16
833.624	0.43
833.795	0.49
833.965	1.39
834.135	1.45
834.305	-0.24
834.475	0.36
834.645	0.91
834.815	0.84
834.985	0.53
835.155	0.88
835.325	1.31
835.494	1.4
835.664	0.23
835.834	0.22
836.004	1.38
836.174	1.28
836.344	0.76
836.514	0.06
836.684	0.09
836.853	1.14
837.023	0.64
837.193	0.3
837.363	1.52
837.532	1.5
837.702	1.32
837.872	0.07
838.041	1.34
838.211	1.71
838.381	0.27
838.55	0.96
838.72	2.36
838.89	2.22
839.059	0.57
839.229	-0.1
839.398	2.52
839.568	1.87
839.738	0.87
839.907	1.48
840.077	1.43
840.246	0.67
840.416	0.18
840.585	0.49
840.755	1.45
840.924	1.98
841.093	0.32
841.263	1.11
841.432	1.38
841.602	0.14
841.771	0.44
841.94	1.07
842.11	3.28
842.279	2.26
842.448	0.22
842.617	0.34
842.787	2.36
842.956	0.29
843.125	1.3
843.294	1.34
843.464	1.99
843.633	0.66
843.802	0.08
843.971	0.46
844.14	1.23
844.309	1.76
844.479	0.41
844.648	0.74
844.817	0.73
844.986	0.8
845.155	1.21
845.324	0.59
845.493	1.73
845.662	1.84
845.831	0.67
846	1.8
846.169	1.2
846.338	2.25
846.507	1.65
846.676	0.85
846.844	0.7
847.013	0.81
847.182	0.54
847.351	0.78
847.52	1.22
847.689	1.61
847.858	1.5
848.026	0.93
848.195	0.57
848.364	0.78
848.533	-0.05
848.701	0.45
848.87	1.58
849.039	1.88
849.207	2.4
849.376	2.58
849.545	3.41
849.713	0.38
849.882	1.13
850.051	1.26
850.219	1.03
850.388	1.76
850.556	0.78
850.725	0.59
850.893	1.65
851.062	1.72
851.23	2.08
851.399	-0.39
851.567	-0.28
851.736	1.14
851.904	0.35
852.073	0.95
852.241	1.89
852.41	1.31
852.578	0.93
852.746	-0.17
852.915	1.46
853.083	1.56
853.251	0.31
853.42	0.95
853.588	1.62
853.756	2.38
853.924	1.34
854.093	0.95
854.261	0.8
854.429	0.25
854.597	1.85
854.765	0.7
854.934	2.79
855.102	2.21
855.27	1.96
855.438	1.12
855.606	1.74
855.774	2.8
855.942	-0.12
856.11	1
856.278	1.23
856.446	1.6
856.614	1.26
856.782	1.04
856.95	2.52
857.118	1.94
857.286	1.47
857.454	0.13
857.622	2.66
857.79	1.77
857.958	0.32
858.126	0.8
858.294	1.82
858.462	1.48
858.629	0.54
858.797	0.49
858.965	2.58
859.133	0.9
859.301	1.03
859.468	1.84
859.636	0.57
859.804	2.99
859.971	2.39
860.139	1.04
860.307	1.12
860.474	1.49
860.642	0.5
860.81	1.24
860.977	0.61
861.145	2.94
861.313	1.4
861.48	2.12
861.648	2.04
861.815	1.22
861.983	0.31
862.15	1.09
862.318	2.31
862.485	2.32
862.653	1.41
862.82	-0.77
862.988	3.27
863.155	3.61
863.322	1.62
863.49	0.16
863.657	0.04
863.824	3.6
863.992	3.36
864.159	1.9
864.326	4.82
864.494	0.2
864.661	4.03
864.828	-0.62
864.996	2.09
865.163	4.28
865.33	0.9
865.497	-0.69
865.664	1.47
865.832	-0.8
865.999	2.47
866.166	1.29
866.333	1.93
866.5	1.4
866.667	2.58
866.834	1.79
867.001	2.78
867.168	-1
867.335	1.94
867.502	-0.58
867.669	1.6
867.836	3.24
868.003	2.05
868.17	2.92
868.337	3.52
868.504	3.98
868.671	0.19
868.838	1.4
869.005	1.63
869.172	2.52
869.339	1.11
869.505	2.18
869.672	1.65
869.839	3.94
870.006	3.28
870.173	-0.34
870.339	0.44
870.506	4.26
870.673	-0.4
870.84	1.37
871.006	1.94
871.173	2.48
871.34	2.69
871.506	0.73
871.673	2.4
871.839	0.3
872.006	2.43
872.173	1.37
872.339	0.92
872.506	4.43
872.672	1.77
872.839	0.74
873.005	2.57
873.172	5.38
873.338	2.11
873.505	2.31
873.671	2.35
873.838	1.04
874.004	0.25
874.171	-0.47
874.337	2.39
874.503	1.69
874.67	1.25
874.836	2.7
875.002	4.97
875.169	2.06
875.335	1.81
875.501	1.92
875.668	3.25
875.834	2.3
876	0.08
876.166	3.44
876.332	2.42
876.499	5.6
876.665	1.39
876.831	2.8
876.997	4.24
877.163	3.87
877.329	2.17
877.495	3.71
877.662	3.53
877.828	1.84
877.994	0.66
878.16	0.4
878.326	1.21
878.492	0.75
878.658	1.31
878.824	2.18
878.99	4.14
879.156	0.85
879.322	5
879.487	1.23
879.653	3.82
879.819	1.82
879.985	1.53
880.151	0.51
880.317	2.53
880.483	1.95
880.648	3.52
880.814	-1.61
880.98	2.49
881.146	0.39
881.312	0.29
881.477	-0.53
881.643	3.24
881.809	4.27
881.974	2.27
882.14	0.12
882.306	2.01
882.471	4.7
882.637	2.55
882.803	2.93
882.968	3.36
883.134	7.49
883.299	1.43
883.465	2.76
883.63	2.85
883.796	3.93
883.961	3.79
884.127	1.07
884.292	-1.21
884.458	-0.01
884.623	-0.01
