Data from Apollo_Calib_20240827__AbsoluteIrradiance__35__23-44-02-593.txt Node

Date: Tue Aug 27 23:44:02 BST 2024
User: biology
Spectrometer: FLMT08252
Trigger mode: 0
Integration Time (sec): 5.000000E-1
Scans to average: 5
Electric dark correction enabled: true
Nonlinearity correction enabled: false
Boxcar width: 0
XAxis mode: Wavelengths
Number of Pixels in Spectrum: 3648
>>>>>Begin Spectral Data<<<<<
179.588	-0
179.809	-0
180.03	-0
180.251	-0
180.473	-0
180.694	0
180.915	0
181.136	-0
181.357	0
181.578	0
181.799	-0
182.02	-0
182.241	0
182.462	-0
182.683	0
182.904	-0
183.125	-0
183.346	0
183.567	0
183.788	0
184.009	0
184.23	0
184.451	0
184.672	0
184.892	0
185.113	0
185.334	0
185.555	0
185.776	0
185.996	0
186.217	0
186.438	0
186.659	0
186.879	0
187.1	0
187.321	0
187.541	0
187.762	0
187.983	0
188.203	0
188.424	0
188.644	0
188.865	0
189.086	0
189.306	0
189.527	0
189.747	0
189.968	0
190.188	0
190.409	0
190.629	0
190.849	0
191.07	0
191.29	0
191.511	0
191.731	0
191.951	0
192.172	0
192.392	0
192.612	0
192.833	0
193.053	0
193.273	0
193.493	0
193.714	0
193.934	0
194.154	0
194.374	0
194.594	0
194.815	0
195.035	0
195.255	0
195.475	0
195.695	0
195.915	0
196.135	0
196.355	0
196.575	0
196.795	0
197.015	0
197.235	0
197.455	0
197.675	0
197.895	0
198.115	0
198.335	0
198.555	0
198.775	0
198.995	0
199.214	0
199.434	0
199.654	0
199.874	0
200.094	3.26
200.313	3.03
200.533	2.53
200.753	1.87
200.973	3.19
201.192	2.98
201.412	1.5
201.632	1.86
201.851	3.52
202.071	1.86
202.291	1.95
202.51	1.75
202.73	2.94
202.95	1.69
203.169	1.5
203.389	2.13
203.608	2.17
203.828	1.6
204.047	2.29
204.267	2.39
204.486	1.74
204.706	1.91
204.925	1.88
205.145	1.23
205.364	2.13
205.583	2.77
205.803	1.61
206.022	1.26
206.242	1.47
206.461	1.77
206.68	1.06
206.9	1.92
207.119	2.49
207.338	2.11
207.557	1.26
207.777	1.3
207.996	1.3
208.215	2.17
208.434	1.06
208.654	0.57
208.873	1.18
209.092	2.05
209.311	1.23
209.53	1.24
209.749	1.18
209.968	1.27
210.187	1.22
210.407	0.9
210.626	1.19
210.845	1.34
211.064	1.08
211.283	0.75
211.502	1.43
211.721	1.23
211.94	0.96
212.159	1.68
212.377	1.33
212.596	1.6
212.815	1.18
213.034	1.16
213.253	1.32
213.472	1.23
213.691	0.84
213.91	0.75
214.128	0.9
214.347	1.36
214.566	0.77
214.785	0.61
215.003	1.32
215.222	1.27
215.441	1.08
215.66	0.62
215.878	0.78
216.097	1.13
216.316	0.7
216.534	1
216.753	1.2
216.972	0.88
217.19	0.97
217.409	0.86
217.627	0.92
217.846	0.98
218.064	0.93
218.283	0.66
218.501	1.39
218.72	1.24
218.938	0.61
219.157	0.82
219.375	0.88
219.594	0.96
219.812	0.68
220.031	0.8
220.249	1.15
220.467	1.15
220.686	0.91
220.904	0.43
221.122	0.72
221.341	1.12
221.559	0.78
221.777	0.68
221.995	0.86
222.214	0.76
222.432	0.54
222.65	0.79
222.868	0.76
223.086	0.91
223.305	0.9
223.523	0.69
223.741	1
223.959	0.56
224.177	0.52
224.395	0.58
224.613	0.78
224.831	0.89
225.049	0.55
225.267	0.64
225.485	0.67
225.703	0.71
225.921	0.67
226.139	0.62
226.357	0.81
226.575	0.73
226.793	0.56
227.011	1.41
227.229	0.75
227.447	0.79
227.665	0.51
227.883	0.51
228.1	0.66
228.318	0.64
228.536	0.32
228.754	0.35
228.972	0.63
229.189	0.82
229.407	0.57
229.625	0.59
229.843	0.79
230.06	0.75
230.278	0.48
230.496	0.52
230.713	0.51
230.931	0.61
231.149	0.56
231.366	0.38
231.584	0.58
231.801	0.86
232.019	0.51
232.236	0.49
232.454	0.53
232.671	0.56
232.889	0.52
233.106	0.45
233.324	0.64
233.541	0.54
233.759	0.5
233.976	0.45
234.194	0.57
234.411	0.6
234.628	0.43
234.846	0.48
235.063	0.57
235.28	0.47
235.498	0.54
235.715	0.41
235.932	0.73
236.149	0.53
236.367	0.48
236.584	0.55
236.801	0.47
237.018	0.63
237.236	0.52
237.453	0.32
237.67	0.72
237.887	0.5
238.104	0.53
238.321	0.39
238.538	0.49
238.755	0.66
238.973	0.41
239.19	0.55
239.407	0.59
239.624	0.53
239.841	0.44
240.058	0.4
240.275	0.48
240.492	0.57
240.709	0.51
240.925	0.36
241.142	0.55
241.359	0.34
241.576	0.42
241.793	0.43
242.01	0.51
242.227	0.58
242.444	0.68
242.66	0.61
242.877	0.48
243.094	0.45
243.311	0.49
243.527	0.4
243.744	0.53
243.961	0.57
244.178	0.39
244.394	0.44
244.611	0.56
244.828	0.57
245.044	0.39
245.261	0.39
245.477	0.52
245.694	0.61
245.911	0.42
246.127	0.45
246.344	0.66
246.56	0.52
246.777	0.43
246.993	0.48
247.21	0.53
247.426	0.5
247.643	0.39
247.859	0.35
248.076	0.43
248.292	0.67
248.508	0.39
248.725	0.47
248.941	0.5
249.157	0.62
249.374	0.39
249.59	0.4
249.806	0.43
250.023	0.42
250.239	0.37
250.455	0.37
250.671	0.52
250.888	0.51
251.104	0.55
251.32	0.45
251.536	0.4
251.752	0.44
251.969	0.45
252.185	0.46
252.401	0.61
252.617	0.5
252.833	0.34
253.049	0.39
253.265	0.4
253.481	0.49
253.697	0.34
253.913	0.37
254.129	0.42
254.345	0.37
254.561	0.35
254.777	0.38
254.993	0.52
255.209	0.48
255.425	0.38
255.641	0.35
255.857	0.47
256.073	0.4
256.288	0.28
256.504	0.37
256.72	0.32
256.936	0.59
257.152	0.4
257.367	0.38
257.583	0.35
257.799	0.48
258.015	0.26
258.23	0.35
258.446	0.54
258.662	0.38
258.877	0.34
259.093	0.36
259.309	0.44
259.524	0.45
259.74	0.32
259.955	0.26
260.171	0.41
260.387	0.39
260.602	0.41
260.818	0.49
261.033	0.37
261.249	0.31
261.464	0.41
261.68	0.27
261.895	0.38
262.11	0.44
262.326	0.41
262.541	0.22
262.757	0.39
262.972	0.39
263.187	0.37
263.403	0.39
263.618	0.5
263.833	0.35
264.049	0.35
264.264	0.35
264.479	0.39
264.694	0.43
264.91	0.29
265.125	0.34
265.34	0.41
265.555	0.55
265.77	0.39
265.986	0.35
266.201	0.38
266.416	0.43
266.631	0.3
266.846	0.33
267.061	0.42
267.276	0.47
267.491	0.23
267.706	0.41
267.921	0.39
268.136	0.3
268.351	0.36
268.566	0.23
268.781	0.42
268.996	0.47
269.211	0.32
269.426	0.26
269.641	0.35
269.856	0.38
270.071	0.28
270.285	0.24
270.5	0.43
270.715	0.39
270.93	0.41
271.145	0.38
271.359	0.43
271.574	0.29
271.789	0.35
272.004	0.37
272.218	0.3
272.433	0.38
272.648	0.31
272.862	0.4
273.077	0.38
273.292	0.34
273.506	0.27
273.721	0.3
273.936	0.35
274.15	0.36
274.365	0.21
274.579	0.39
274.794	0.33
275.008	0.42
275.223	0.23
275.437	0.31
275.652	0.48
275.866	0.38
276.081	0.29
276.295	0.39
276.509	0.35
276.724	0.29
276.938	0.34
277.153	0.39
277.367	0.35
277.581	0.28
277.796	0.27
278.01	0.25
278.224	0.37
278.438	0.47
278.653	0.27
278.867	0.26
279.081	0.19
279.295	0.28
279.51	0.3
279.724	0.21
279.938	0.33
280.152	0.33
280.366	0.22
280.58	0.34
280.794	0.4
281.008	0.29
281.222	0.38
281.437	0.42
281.651	0.35
281.865	0.39
282.079	0.29
282.293	0.2
282.507	0.24
282.721	0.33
282.935	0.26
283.148	0.26
283.362	0.3
283.576	0.21
283.79	0.3
284.004	0.27
284.218	0.36
284.432	0.29
284.646	0.32
284.859	0.31
285.073	0.26
285.287	0.29
285.501	0.26
285.714	0.28
285.928	0.29
286.142	0.29
286.356	0.28
286.569	0.25
286.783	0.41
286.997	0.39
287.21	0.24
287.424	0.32
287.637	0.24
287.851	0.25
288.065	0.34
288.278	0.27
288.492	0.28
288.705	0.27
288.919	0.33
289.132	0.25
289.346	0.33
289.559	0.18
289.773	0.29
289.986	0.3
290.2	0.3
290.413	0.36
290.626	0.25
290.84	0.26
291.053	0.29
291.267	0.37
291.48	0.32
291.693	0.25
291.906	0.25
292.12	0.25
292.333	0.23
292.546	0.23
292.76	0.36
292.973	0.32
293.186	0.31
293.399	0.19
293.612	0.32
293.826	0.29
294.039	0.3
294.252	0.29
294.465	0.3
294.678	0.31
294.891	0.31
295.104	0.23
295.317	0.28
295.53	0.33
295.743	0.31
295.956	0.27
296.169	0.29
296.382	0.32
296.595	0.29
296.808	0.25
297.021	0.32
297.234	0.33
297.447	0.31
297.66	0.24
297.873	0.33
298.086	0.3
298.299	0.24
298.511	0.2
298.724	0.33
298.937	0.2
299.15	0.23
299.363	0.27
299.575	0.3
299.788	0.27
300.001	0.23
300.213	0.27
300.426	0.23
300.639	0.24
300.852	0.22
301.064	0.3
301.277	0.33
301.489	0.3
301.702	0.3
301.915	0.25
302.127	0.27
302.34	0.27
302.552	0.28
302.765	0.21
302.977	0.31
303.19	0.2
303.402	0.25
303.615	0.24
303.827	0.25
304.04	0.25
304.252	0.27
304.464	0.26
304.677	0.35
304.889	0.3
305.102	0.24
305.314	0.21
305.526	0.29
305.739	0.32
305.951	0.23
306.163	0.24
306.375	0.34
306.588	0.25
306.8	0.26
307.012	0.19
307.224	0.29
307.436	0.38
307.649	0.19
307.861	0.27
308.073	0.27
308.285	0.25
308.497	0.22
308.709	0.23
308.921	0.28
309.133	0.28
309.346	0.27
309.558	0.24
309.77	0.35
309.982	0.23
310.194	0.31
310.406	0.27
310.617	0.34
310.829	0.27
311.041	0.29
311.253	0.23
311.465	0.25
311.677	0.26
311.889	0.23
312.101	0.18
312.313	0.34
312.524	0.32
312.736	0.19
312.948	0.28
313.16	0.33
313.372	0.3
313.583	0.29
313.795	0.26
314.007	0.22
314.218	0.27
314.43	0.27
314.642	0.23
314.853	0.2
315.065	0.29
315.277	0.27
315.488	0.25
315.7	0.32
315.912	0.26
316.123	0.23
316.335	0.23
316.546	0.37
316.758	0.22
316.969	0.21
317.181	0.28
317.392	0.25
317.604	0.32
317.815	0.21
318.026	0.25
318.238	0.24
318.449	0.27
318.661	0.22
318.872	0.16
319.083	0.22
319.295	0.27
319.506	0.2
319.717	0.25
319.929	0.28
320.14	0.26
320.351	0.3
320.562	0.22
320.774	0.3
320.985	0.25
321.196	0.21
321.407	0.2
321.618	0.32
321.829	0.27
322.041	0.27
322.252	0.29
322.463	0.3
322.674	0.3
322.885	0.22
323.096	0.26
323.307	0.26
323.518	0.29
323.729	0.23
323.94	0.23
324.151	0.17
324.362	0.23
324.573	0.23
324.784	0.23
324.995	0.31
325.206	0.3
325.417	0.24
325.628	0.23
325.838	0.27
326.049	0.3
326.26	0.3
326.471	0.22
326.682	0.31
326.892	0.24
327.103	0.22
327.314	0.16
327.525	0.31
327.735	0.25
327.946	0.29
328.157	0.24
328.368	0.26
328.578	0.24
328.789	0.32
328.999	0.25
329.21	0.29
329.421	0.31
329.631	0.23
329.842	0.24
330.052	0.3
330.263	0.29
330.473	0.29
330.684	0.27
330.894	0.25
331.105	0.3
331.315	0.29
331.526	0.18
331.736	0.34
331.947	0.29
332.157	0.28
332.367	0.23
332.578	0.29
332.788	0.32
332.999	0.28
333.209	0.27
333.419	0.16
333.629	0.27
333.84	0.29
334.05	0.26
334.26	0.35
334.47	0.33
334.681	0.27
334.891	0.23
335.101	0.25
335.311	0.32
335.521	0.25
335.732	0.23
335.942	0.29
336.152	0.28
336.362	0.26
336.572	0.28
336.782	0.3
336.992	0.19
337.202	0.26
337.412	0.24
337.622	0.25
337.832	0.24
338.042	0.31
338.252	0.21
338.462	0.27
338.672	0.27
338.882	0.27
339.092	0.23
339.302	0.32
339.511	0.28
339.721	0.24
339.931	0.2
340.141	0.32
340.351	0.33
340.561	0.31
340.77	0.27
340.98	0.28
341.19	0.27
341.4	0.25
341.609	0.21
341.819	0.21
342.029	0.24
342.238	0.3
342.448	0.21
342.658	0.3
342.867	0.28
343.077	0.25
343.286	0.26
343.496	0.27
343.706	0.29
343.915	0.22
344.125	0.26
344.334	0.26
344.544	0.23
344.753	0.26
344.963	0.25
345.172	0.23
345.381	0.23
345.591	0.18
345.8	0.22
346.01	0.3
346.219	0.29
346.428	0.1
346.638	0.26
346.847	0.25
347.056	0.31
347.266	0.21
347.475	0.28
347.684	0.31
347.893	0.27
348.103	0.27
348.312	0.22
348.521	0.25
348.73	0.23
348.94	0.28
349.149	0.24
349.358	0.21
349.567	0.23
349.776	0.22
349.985	0.17
350.194	0.29
350.403	0.23
350.612	0.21
350.821	0.26
351.03	0.22
351.239	0.17
351.448	0.25
351.657	0.24
351.866	0.28
352.075	0.23
352.284	0.29
352.493	0.21
352.702	0.32
352.911	0.32
353.12	0.27
353.329	0.26
353.538	0.26
353.746	0.27
353.955	0.23
354.164	0.27
354.373	0.26
354.582	0.29
354.79	0.24
354.999	0.26
355.208	0.24
355.416	0.33
355.625	0.17
355.834	0.26
356.042	0.26
356.251	0.23
356.46	0.22
356.668	0.22
356.877	0.4
357.085	0.31
357.294	0.18
357.503	0.25
357.711	0.3
357.92	0.4
358.128	0.24
358.337	0.25
358.545	0.3
358.754	0.22
358.962	0.26
359.17	0.26
359.379	0.28
359.587	0.25
359.796	0.26
360.004	0.26
360.212	0.31
360.421	0.32
360.629	0.22
360.837	0.22
361.046	0.3
361.254	0.36
361.462	0.25
361.67	0.21
361.879	0.22
362.087	0.3
362.295	0.24
362.503	0.23
362.711	0.24
362.92	0.26
363.128	0.19
363.336	0.2
363.544	0.19
363.752	0.23
363.96	0.22
364.168	0.22
364.376	0.24
364.584	0.24
364.792	0.33
365	0.28
365.208	0.26
365.416	0.28
365.624	0.28
365.832	0.21
366.04	0.32
366.248	0.24
366.456	0.3
366.664	0.27
366.872	0.29
367.079	0.22
367.287	0.25
367.495	0.25
367.703	0.26
367.911	0.23
368.118	0.23
368.326	0.23
368.534	0.2
368.742	0.31
368.949	0.2
369.157	0.21
369.365	0.31
369.572	0.24
369.78	0.22
369.988	0.25
370.195	0.27
370.403	0.31
370.61	0.25
370.818	0.25
371.026	0.33
371.233	0.24
371.441	0.31
371.648	0.25
371.856	0.25
372.063	0.3
372.271	0.26
372.478	0.25
372.685	0.21
372.893	0.31
373.1	0.26
373.308	0.25
373.515	0.36
373.722	0.3
373.93	0.22
374.137	0.27
374.344	0.31
374.552	0.27
374.759	0.32
374.966	0.29
375.173	0.23
375.381	0.31
375.588	0.22
375.795	0.16
376.002	0.27
376.209	0.23
376.417	0.28
376.624	0.28
376.831	0.29
377.038	0.27
377.245	0.18
377.452	0.24
377.659	0.27
377.866	0.23
378.073	0.22
378.28	0.26
378.487	0.28
378.694	0.3
378.901	0.23
379.108	0.23
379.315	0.29
379.522	0.35
379.729	0.25
379.936	0.26
380.143	0.28
380.35	0.28
380.557	0.26
380.763	0.26
380.97	0.33
381.177	0.29
381.384	0.28
381.591	0.23
381.797	0.31
382.004	0.26
382.211	0.33
382.418	0.27
382.624	0.31
382.831	0.36
383.038	0.25
383.244	0.3
383.451	0.26
383.658	0.3
383.864	0.26
384.071	0.22
384.277	0.39
384.484	0.25
384.69	0.28
384.897	0.28
385.103	0.3
385.31	0.25
385.516	0.25
385.723	0.23
385.929	0.27
386.136	0.25
386.342	0.32
386.549	0.26
386.755	0.35
386.961	0.33
387.168	0.26
387.374	0.26
387.58	0.38
387.787	0.27
387.993	0.31
388.199	0.3
388.406	0.29
388.612	0.29
388.818	0.27
389.024	0.25
389.231	0.28
389.437	0.4
389.643	0.33
389.849	0.3
390.055	0.29
390.261	0.32
390.467	0.38
390.674	0.26
390.88	0.29
391.086	0.32
391.292	0.26
391.498	0.36
391.704	0.31
391.91	0.28
392.116	0.3
392.322	0.2
392.528	0.34
392.734	0.28
392.94	0.3
393.146	0.31
393.352	0.25
393.557	0.27
393.763	0.28
393.969	0.35
394.175	0.3
394.381	0.3
394.587	0.27
394.792	0.29
394.998	0.34
395.204	0.37
395.41	0.31
395.615	0.37
395.821	0.37
396.027	0.33
396.233	0.29
396.438	0.35
396.644	0.37
396.85	0.41
397.055	0.31
397.261	0.34
397.466	0.46
397.672	0.33
397.878	0.38
398.083	0.35
398.289	0.31
398.494	0.39
398.7	0.36
398.905	0.24
399.111	0.49
399.316	0.29
399.522	0.37
399.727	0.34
399.932	0.34
400.138	0.31
400.343	0.36
400.549	0.36
400.754	0.34
400.959	0.39
401.165	0.36
401.37	0.35
401.575	0.31
401.78	0.39
401.986	0.36
402.191	0.35
402.396	0.37
402.601	0.42
402.807	0.36
403.012	0.38
403.217	0.46
403.422	0.39
403.627	0.4
403.832	0.44
404.037	0.48
404.243	0.46
404.448	0.42
404.653	0.43
404.858	0.45
405.063	0.47
405.268	0.44
405.473	0.42
405.678	0.38
405.883	0.58
406.088	0.5
406.293	0.43
406.498	0.48
406.703	0.48
406.907	0.49
407.112	0.43
407.317	0.52
407.522	0.53
407.727	0.49
407.932	0.55
408.136	0.61
408.341	0.52
408.546	0.65
408.751	0.57
408.956	0.6
409.16	0.65
409.365	0.63
409.57	0.64
409.774	0.64
409.979	0.7
410.184	0.67
410.388	0.64
410.593	0.79
410.798	0.72
411.002	0.71
411.207	0.8
411.411	0.79
411.616	0.73
411.82	0.8
412.025	0.81
412.229	0.84
412.434	0.94
412.638	0.89
412.843	0.91
413.047	0.99
413.252	0.94
413.456	1.01
413.66	1.06
413.865	1.06
414.069	1.15
414.273	1.12
414.478	1.14
414.682	1.18
414.886	1.17
415.091	1.22
415.295	1.28
415.499	1.47
415.703	1.37
415.908	1.4
416.112	1.39
416.316	1.54
416.52	1.54
416.724	1.59
416.929	1.62
417.133	1.9
417.337	1.79
417.541	1.78
417.745	1.86
417.949	1.96
418.153	1.97
418.357	2.07
418.561	2.27
418.765	2.21
418.969	2.31
419.173	2.44
419.377	2.38
419.581	2.57
419.785	2.64
419.989	2.67
420.193	2.82
420.397	2.88
420.601	2.97
420.804	3.1
421.008	3.13
421.212	3.27
421.416	3.26
421.62	3.28
421.823	3.42
422.027	3.48
422.231	3.47
422.435	3.51
422.638	3.57
422.842	3.69
423.046	3.83
423.249	3.91
423.453	4
423.657	4.06
423.86	4.18
424.064	4.28
424.268	4.42
424.471	4.47
424.675	4.79
424.878	4.8
425.082	4.91
425.285	5.12
425.489	5.1
425.692	5.2
425.896	5.2
426.099	5.51
426.303	5.64
426.506	5.68
426.71	6.03
426.913	6.17
427.116	6.28
427.32	6.35
427.523	6.43
427.726	6.73
427.93	6.82
428.133	7.1
428.336	7.3
428.54	7.36
428.743	7.72
428.946	7.85
429.149	7.97
429.353	8
429.556	7.99
429.759	8.09
429.962	8.29
430.165	8.38
430.368	8.02
430.571	8.11
430.775	8.15
430.978	8.07
431.181	8.18
431.384	8.22
431.587	8.39
431.79	8.75
431.993	8.72
432.196	8.97
432.399	9.3
432.602	9.44
432.805	9.54
433.008	10.2
433.211	9.98
433.414	10.37
433.616	10.32
433.819	10.25
434.022	10.53
434.225	10.68
434.428	10.67
434.631	10.96
434.833	10.83
435.036	10.95
435.239	11.36
435.442	11.4
435.645	11.52
435.847	11.61
436.05	11.95
436.253	12.16
436.455	12.12
436.658	12.02
436.861	12.26
437.063	12.52
437.266	12.51
437.468	12.64
437.671	13.05
437.874	13.3
438.076	13.05
438.279	13.41
438.481	13.51
438.684	14.27
438.886	13.87
439.089	14.23
439.291	14.1
439.494	14.5
439.696	14.73
439.899	15.4
440.101	15.74
440.303	15.91
440.506	16.58
440.708	16.4
440.91	16.6
441.113	16.78
441.315	17.05
441.517	16.7
441.72	17.28
441.922	16.91
442.124	16.78
442.326	17.26
442.529	17.43
442.731	17.42
442.933	17.59
443.135	17.4
443.337	17.57
443.539	18.07
443.742	17.75
443.944	18.38
444.146	18.08
444.348	18.17
444.55	18.06
444.752	18.08
444.954	18.25
445.156	18.1
445.358	18.55
445.56	18.88
445.762	18.52
445.964	18.93
446.166	18.81
446.368	18.57
446.57	18.59
446.772	18.18
446.974	17.97
447.175	18.37
447.377	18.02
447.579	18.6
447.781	17.9
447.983	17.95
448.184	17.5
448.386	17.67
448.588	17.26
448.79	17.17
448.991	17.46
449.193	17.69
449.395	16.69
449.597	16.55
449.798	16.4
450	16.08
450.202	15.86
450.403	15.91
450.605	15.85
450.806	15.42
451.008	15.3
451.21	15.1
451.411	14.56
451.613	13.95
451.814	14.13
452.016	13.99
452.217	13.33
452.419	13.38
452.62	13.06
452.821	12.71
453.023	12.63
453.224	12.38
453.426	11.96
453.627	11.14
453.828	11.33
454.03	11.38
454.231	11.36
454.432	11.13
454.634	10.91
454.835	10.55
455.036	10.51
455.238	10.04
455.439	9.79
455.64	9.5
455.841	9.46
456.042	9.53
456.244	9.21
456.445	8.86
456.646	8.73
456.847	8.64
457.048	8.6
457.249	8.52
457.45	8.18
457.651	7.79
457.852	7.55
458.054	7.32
458.255	7.24
458.456	7.21
458.657	7.18
458.858	6.79
459.058	6.66
459.259	6.71
459.46	6.48
459.661	6.41
459.862	6.52
460.063	6.4
460.264	6.28
460.465	5.94
460.666	6.1
460.866	5.76
461.067	5.46
461.268	5.58
461.469	5.49
461.67	5.36
461.87	5.2
462.071	5.22
462.272	5.09
462.473	5.13
462.673	5.26
462.874	5.16
463.075	5.2
463.275	5.17
463.476	5.17
463.676	5.1
463.877	4.91
464.078	4.95
464.278	5.03
464.479	4.95
464.679	4.76
464.88	4.7
465.08	4.72
465.281	4.53
465.481	4.33
465.682	4.06
465.882	4.11
466.083	4.08
466.283	4.01
466.483	3.95
466.684	3.73
466.884	3.67
467.085	3.71
467.285	3.78
467.485	3.7
467.686	3.51
467.886	3.41
468.086	3.33
468.286	3.38
468.487	3.42
468.687	3.29
468.887	3.17
469.087	3.31
469.287	3.29
469.488	3.11
469.688	3.25
469.888	3.18
470.088	3.14
470.288	3.1
470.488	3.05
470.688	2.83
470.888	2.87
471.088	2.74
471.288	2.84
471.488	2.73
471.688	2.74
471.888	2.69
472.088	2.81
472.288	2.75
472.488	2.55
472.688	2.54
472.888	2.61
473.088	2.63
473.288	2.44
473.488	2.48
473.688	2.62
473.887	2.53
474.087	2.4
474.287	2.5
474.487	2.37
474.687	2.48
474.886	2.35
475.086	2.31
475.286	2.38
475.486	2.26
475.685	2.25
475.885	2.21
476.085	2.24
476.284	2.3
476.484	2.26
476.684	2.23
476.883	2.29
477.083	2.19
477.282	2.13
477.482	2.14
477.681	2.16
477.881	2.09
478.08	2.03
478.28	2.05
478.479	2.15
478.679	2.12
478.878	1.98
479.078	2.07
479.277	2.09
479.477	2.08
479.676	2.01
479.875	2.05
480.075	1.99
480.274	2.03
480.473	2.05
480.673	2.05
480.872	2.1
481.071	2.03
481.271	2.06
481.47	1.97
481.669	1.99
481.868	1.98
482.067	2
482.267	1.94
482.466	1.98
482.665	1.97
482.864	1.95
483.063	1.93
483.262	2.03
483.461	1.97
483.661	2.08
483.86	1.98
484.059	2.03
484.258	2.08
484.457	1.97
484.656	2.03
484.855	2.07
485.054	1.92
485.253	1.96
485.452	1.98
485.651	2.03
485.849	2.02
486.048	1.99
486.247	2.01
486.446	2.05
486.645	2.06
486.844	2.07
487.043	2.07
487.241	2.07
487.44	2.05
487.639	2.13
487.838	2.1
488.037	2.1
488.235	2.2
488.434	2.17
488.633	2.07
488.831	2.22
489.03	2.26
489.229	2.17
489.427	2.22
489.626	2.22
489.825	2.28
490.023	2.29
490.222	2.25
490.42	2.31
490.619	2.33
490.817	2.37
491.016	2.35
491.214	2.4
491.413	2.4
491.611	2.35
491.81	2.41
492.008	2.45
492.207	2.53
492.405	2.53
492.604	2.49
492.802	2.56
493	2.57
493.199	2.58
493.397	2.63
493.595	2.71
493.794	2.65
493.992	2.77
494.19	2.76
494.388	2.8
494.587	2.74
494.785	2.75
494.983	2.7
495.181	2.85
495.379	2.92
495.578	2.96
495.776	2.92
495.974	2.92
496.172	2.97
496.37	3.09
496.568	3.1
496.766	3.06
496.964	3.15
497.162	3.13
497.36	3.18
497.558	3.23
497.756	3.3
497.954	3.28
498.152	3.37
498.35	3.42
498.548	3.37
498.746	3.39
498.944	3.41
499.142	3.43
499.34	3.5
499.538	3.64
499.736	3.51
499.933	3.64
500.131	3.63
500.329	3.79
500.527	3.75
500.725	3.82
500.922	3.88
501.12	3.87
501.318	3.91
501.516	3.9
501.713	4.03
501.911	3.99
502.109	3.93
502.306	4.08
502.504	3.98
502.701	4.08
502.899	4.17
503.097	4.34
503.294	4.21
503.492	4.34
503.689	4.34
503.887	4.34
504.084	4.46
504.282	4.41
504.479	4.4
504.677	4.58
504.874	4.49
505.072	4.43
505.269	4.67
505.466	4.7
505.664	4.72
505.861	4.61
506.059	4.8
506.256	4.74
506.453	4.81
506.651	4.93
506.848	5.01
507.045	4.98
507.242	4.93
507.44	4.98
507.637	5.08
507.834	5.06
508.031	5.17
508.229	5.09
508.426	5.09
508.623	5.26
508.82	5.31
509.017	5.26
509.214	5.21
509.411	5.39
509.608	5.34
509.805	5.5
510.003	5.53
510.2	5.5
510.397	5.65
510.594	5.54
510.791	5.68
510.988	5.65
511.184	5.63
511.381	5.51
511.578	5.63
511.775	5.8
511.972	5.77
512.169	5.83
512.366	5.77
512.563	5.9
512.76	5.96
512.956	6.05
513.153	5.95
513.35	5.88
513.547	5.89
513.744	5.98
513.94	6
514.137	6.18
514.334	6.06
514.53	6.17
514.727	6.37
514.924	6.23
515.12	6.22
515.317	6.32
515.514	6.19
515.71	6.16
515.907	6.41
516.103	6.37
516.3	6.34
516.497	6.47
516.693	6.52
516.89	6.48
517.086	6.5
517.283	6.58
517.479	6.38
517.676	6.65
517.872	6.62
518.068	6.57
518.265	6.59
518.461	6.59
518.658	6.71
518.854	6.68
519.05	6.8
519.247	6.85
519.443	6.79
519.639	6.94
519.836	6.72
520.032	6.8
520.228	6.92
520.424	6.85
520.621	6.94
520.817	6.97
521.013	6.88
521.209	7.1
521.405	7.08
521.601	7.05
521.798	7.01
521.994	7.05
522.19	6.96
522.386	7.04
522.582	7.09
522.778	7.24
522.974	7.07
523.17	7.1
523.366	7.09
523.562	7.21
523.758	7.14
523.954	7.03
524.15	7.2
524.346	7.25
524.542	7.29
524.738	7.2
524.934	7.34
525.129	7.28
525.325	7.24
525.521	7.21
525.717	7.48
525.913	7.27
526.109	7.37
526.304	7.49
526.5	7.46
526.696	7.46
526.892	7.38
527.087	7.54
527.283	7.49
527.479	7.45
527.674	7.28
527.87	7.51
528.066	7.47
528.261	7.52
528.457	7.42
528.653	7.61
528.848	7.62
529.044	7.68
529.239	7.48
529.435	7.55
529.63	7.5
529.826	7.56
530.021	7.55
530.217	7.62
530.412	7.6
530.608	7.64
530.803	7.61
530.999	7.49
531.194	7.61
531.389	7.66
531.585	7.62
531.78	7.82
531.975	7.69
532.171	7.74
532.366	7.71
532.561	7.76
532.757	7.67
532.952	7.89
533.147	7.65
533.342	7.79
533.538	7.72
533.733	7.91
533.928	7.63
534.123	7.8
534.318	7.78
534.513	7.71
534.709	7.88
534.904	7.82
535.099	7.91
535.294	7.9
535.489	7.9
535.684	7.82
535.879	7.85
536.074	7.93
536.269	7.9
536.464	7.87
536.659	7.86
536.854	7.85
537.049	7.96
537.244	7.92
537.439	7.96
537.634	7.87
537.828	7.96
538.023	7.95
538.218	7.87
538.413	7.8
538.608	7.9
538.803	7.88
538.997	7.87
539.192	7.95
539.387	7.88
539.582	7.95
539.776	7.83
539.971	8.04
540.166	8.03
540.36	7.9
540.555	8.03
540.75	8
540.944	8
541.139	8.07
541.334	7.95
541.528	7.96
541.723	8.07
541.917	8.1
542.112	7.96
542.306	7.88
542.501	7.95
542.695	7.97
542.89	7.94
543.084	7.98
543.279	8.04
543.473	8.06
543.668	8.07
543.862	7.89
544.056	7.93
544.251	8.05
544.445	8.09
544.64	8.12
544.834	7.81
545.028	7.68
545.222	8.07
545.417	8.26
545.611	8.13
545.805	8.1
546	7.91
546.194	8.07
546.388	8.1
546.582	7.93
546.776	7.98
546.97	8.08
547.165	8
547.359	8.01
547.553	7.97
547.747	8.09
547.941	8.23
548.135	8
548.329	8.08
548.523	8.08
548.717	8.05
548.911	8.03
549.105	7.95
549.299	8.11
549.493	8.13
549.687	8
549.881	8.14
550.075	8.08
550.269	7.98
550.463	8.11
550.657	8.12
550.85	8.05
551.044	8.08
551.238	8.08
551.432	8.07
551.626	8.13
551.82	8.18
552.013	7.97
552.207	8.11
552.401	8.15
552.594	8.07
552.788	8.08
552.982	8.09
553.176	8
553.369	8.25
553.563	8.16
553.756	8.08
553.95	8.15
554.144	8.18
554.337	8.11
554.531	7.98
554.724	8.15
554.918	8.19
555.111	8.1
555.305	8.15
555.498	8.08
555.692	8.2
555.885	8.12
556.079	8.11
556.272	8.1
556.466	8.04
556.659	8.05
556.852	8.2
557.046	8.05
557.239	7.98
557.432	8
557.626	8.2
557.819	8.15
558.012	8.1
558.206	8.18
558.399	8.12
558.592	8.01
558.785	8.05
558.979	8.07
559.172	8.09
559.365	8.1
559.558	8.08
559.751	8.02
559.944	8.19
560.138	8.07
560.331	8.15
560.524	8.15
560.717	8.11
560.91	8.06
561.103	8.14
561.296	7.97
561.489	8.15
561.682	8.22
561.875	8.13
562.068	8.13
562.261	8.05
562.454	8.26
562.647	8.09
562.84	8.11
563.032	8.13
563.225	8.01
563.418	7.97
563.611	8.13
563.804	8.21
563.997	8.01
564.19	7.88
564.382	8.22
564.575	8.15
564.768	8.1
564.961	8.12
565.153	8.08
565.346	8.01
565.539	8.21
565.731	8.1
565.924	8.15
566.117	8.21
566.309	8.1
566.502	8.09
566.695	8
566.887	8.14
567.08	8.08
567.272	8.11
567.465	7.95
567.657	8.2
567.85	7.92
568.042	8.1
568.235	8.11
568.427	7.97
568.62	8.07
568.812	7.97
569.005	8.12
569.197	7.99
569.389	8.03
569.582	8.01
569.774	7.99
569.966	7.93
570.159	7.9
570.351	7.94
570.543	8.03
570.736	8.04
570.928	7.85
571.12	8.04
571.312	7.93
571.505	7.77
571.697	8.06
571.889	8
572.081	8.01
572.273	7.95
572.465	8.01
572.658	7.98
572.85	7.99
573.042	8.03
573.234	7.88
573.426	7.93
573.618	7.93
573.81	8.01
574.002	7.9
574.194	7.95
574.386	7.9
574.578	7.84
574.77	7.95
574.962	7.94
575.154	7.79
575.346	7.83
575.538	7.78
575.729	7.79
575.921	7.89
576.113	8.05
576.305	7.83
576.497	7.99
576.689	7.78
576.88	7.73
577.072	7.93
577.264	7.89
577.456	7.91
577.647	7.8
577.839	7.98
578.031	7.79
578.223	7.75
578.414	7.69
578.606	7.87
578.798	7.86
578.989	7.82
579.181	7.86
579.372	7.79
579.564	7.87
579.755	7.75
579.947	7.69
580.139	7.83
580.33	7.67
580.522	7.79
580.713	7.72
580.905	7.74
581.096	7.78
581.287	7.68
581.479	7.72
581.67	7.77
581.862	7.65
582.053	7.74
582.244	7.57
582.436	7.81
582.627	7.66
582.818	7.66
583.01	7.6
583.201	7.66
583.392	7.61
583.583	7.56
583.775	7.43
583.966	7.56
584.157	7.61
584.348	7.68
584.54	7.57
584.731	7.58
584.922	7.51
585.113	7.46
585.304	7.6
585.495	7.44
585.686	7.67
585.877	7.63
586.068	7.66
586.259	7.54
586.45	7.5
586.641	7.46
586.832	7.56
587.023	7.49
587.214	7.43
587.405	7.54
587.596	7.41
587.787	7.33
587.978	7.47
588.169	7.42
588.36	7.36
588.551	7.43
588.742	7.39
588.932	7.51
589.123	7.29
589.314	7.47
589.505	7.34
589.696	7.33
589.886	7.36
590.077	7.4
590.268	7.28
590.458	7.21
590.649	7.15
590.84	7.35
591.03	7.3
591.221	7.27
591.412	7.16
591.602	7.29
591.793	7.25
591.984	7.23
592.174	7.16
592.365	7.33
592.555	7.17
592.746	7.14
592.936	7.16
593.127	7.15
593.317	7.26
593.508	7.18
593.698	7.11
593.889	7.11
594.079	7.05
594.269	6.98
594.46	7.05
594.65	7.07
594.84	7.01
595.031	6.91
595.221	6.97
595.411	7.02
595.602	7.04
595.792	6.95
595.982	6.81
596.172	7.07
596.363	6.89
596.553	6.89
596.743	6.92
596.933	6.91
597.123	6.8
597.314	6.74
597.504	6.82
597.694	6.89
597.884	6.8
598.074	6.86
598.264	6.87
598.454	6.82
598.644	6.72
598.834	6.78
599.024	6.69
599.214	6.65
599.404	6.79
599.594	6.72
599.784	6.63
599.974	6.74
600.164	6.71
600.354	6.61
600.544	6.56
600.734	6.66
600.924	6.53
601.114	6.53
601.303	6.55
601.493	6.54
601.683	6.62
601.873	6.51
602.063	6.51
602.252	6.54
602.442	6.4
602.632	6.44
602.821	6.41
603.011	6.41
603.201	6.43
603.39	6.4
603.58	6.31
603.77	6.34
603.959	6.46
604.149	6.33
604.339	6.39
604.528	6.43
604.718	6.34
604.907	6.27
605.097	6.21
605.286	6.21
605.476	6.24
605.665	6.23
605.855	6.19
606.044	6.21
606.234	6.19
606.423	6.13
606.612	6.18
606.802	6.1
606.991	6.19
607.181	6.23
607.37	6.15
607.559	5.91
607.749	6.1
607.938	5.97
608.127	6.05
608.316	6.07
608.506	6.02
608.695	6.11
608.884	6.03
609.073	5.95
609.263	6.05
609.452	6.04
609.641	5.81
609.83	5.84
610.019	5.92
610.208	5.93
610.397	5.86
610.586	5.82
610.775	5.79
610.965	5.83
611.154	5.69
611.343	5.83
611.532	5.68
611.721	5.79
611.91	5.65
612.099	5.74
612.287	5.64
612.476	5.56
612.665	5.75
612.854	5.59
613.043	5.6
613.232	5.63
613.421	5.56
613.61	5.55
613.798	5.58
613.987	5.58
614.176	5.46
614.365	5.56
614.554	5.49
614.742	5.56
614.931	5.38
615.12	5.46
615.309	5.45
615.497	5.4
615.686	5.32
615.875	5.42
616.063	5.37
616.252	5.35
616.44	5.37
616.629	5.3
616.818	5.31
617.006	5.28
617.195	5.24
617.383	5.26
617.572	5.12
617.76	5.22
617.949	5.25
618.137	5.24
618.326	5.25
618.514	5.04
618.703	5.06
618.891	5.14
619.079	5.07
619.268	5.18
619.456	5.02
619.644	5.15
619.833	4.99
620.021	5
620.209	4.88
620.398	5
620.586	4.89
620.774	4.97
620.962	4.97
621.151	5.01
621.339	4.88
621.527	4.85
621.715	4.83
621.903	4.89
622.092	4.77
622.28	4.91
622.468	4.73
622.656	4.8
622.844	4.74
623.032	4.78
623.22	4.64
623.408	4.87
623.596	4.74
623.784	4.74
623.972	4.57
624.16	4.68
624.348	4.77
624.536	4.76
624.724	4.55
624.912	4.67
625.1	4.6
625.288	4.61
625.476	4.48
625.664	4.61
625.851	4.53
626.039	4.55
626.227	4.47
626.415	4.52
626.603	4.4
626.79	4.4
626.978	4.41
627.166	4.49
627.354	4.34
627.541	4.34
627.729	4.29
627.917	4.44
628.104	4.44
628.292	4.28
628.48	4.4
628.667	4.25
628.855	4.38
629.042	4.33
629.23	4.25
629.418	4.31
629.605	4.26
629.793	4.17
629.98	4.19
630.168	4.19
630.355	4.21
630.543	4.12
630.73	4.11
630.917	4.1
631.105	4.21
631.292	4.17
631.48	4.1
631.667	4.16
631.854	4.03
632.042	4.01
632.229	4.01
632.416	4.05
632.604	4
632.791	3.88
632.978	4
633.165	4.02
633.353	4
633.54	3.98
633.727	3.8
633.914	3.89
634.101	3.8
634.289	3.93
634.476	3.78
634.663	3.81
634.85	3.78
635.037	3.8
635.224	3.74
635.411	3.82
635.598	3.72
635.785	3.75
635.972	3.71
636.159	3.72
636.346	3.72
636.533	3.67
636.72	3.69
636.907	3.65
637.094	3.6
637.281	3.51
637.468	3.64
637.655	3.69
637.842	3.61
638.029	3.5
638.215	3.48
638.402	3.6
638.589	3.47
638.776	3.51
638.963	3.49
639.149	3.5
639.336	3.53
639.523	3.49
639.709	3.41
639.896	3.4
640.083	3.41
640.27	3.44
640.456	3.42
640.643	3.38
640.829	3.25
641.016	3.32
641.203	3.32
641.389	3.29
641.576	3.33
641.762	3.3
641.949	3.26
642.135	3.28
642.322	3.3
642.508	3.17
642.695	3.27
642.881	3.19
643.068	3.17
643.254	3.22
643.441	3.17
643.627	3.24
643.813	3.07
644	3.18
644.186	3.08
644.372	3.14
644.559	3.14
644.745	3.09
644.931	3.06
645.118	3.08
645.304	3.01
645.49	3.12
645.676	2.98
645.862	3.03
646.049	3.08
646.235	3.04
646.421	3.13
646.607	3.08
646.793	2.97
646.979	2.9
647.165	2.97
647.352	2.95
647.538	2.9
647.724	2.91
647.91	2.83
648.096	2.93
648.282	2.91
648.468	2.83
648.654	2.9
648.84	2.83
649.026	2.86
649.212	2.79
649.397	2.71
649.583	2.82
649.769	2.78
649.955	2.82
650.141	2.77
650.327	2.74
650.513	2.75
650.698	2.76
650.884	2.62
651.07	2.74
651.256	2.71
651.442	2.75
651.627	2.62
651.813	2.68
651.999	2.65
652.184	2.63
652.37	2.61
652.556	2.62
652.741	2.68
652.927	2.46
653.113	2.57
653.298	2.61
653.484	2.56
653.669	2.58
653.855	2.56
654.04	2.61
654.226	2.55
654.412	2.55
654.597	2.47
654.782	2.52
654.968	2.49
655.153	2.56
655.339	2.46
655.524	2.47
655.71	2.51
655.895	2.46
656.08	2.47
656.266	2.55
656.451	2.44
656.636	2.45
656.822	2.47
657.007	2.37
657.192	2.41
657.378	2.33
657.563	2.35
657.748	2.38
657.933	2.4
658.118	2.35
658.304	2.36
658.489	2.37
658.674	2.38
658.859	2.31
659.044	2.32
659.229	2.29
659.414	2.33
659.599	2.32
659.785	2.26
659.97	2.23
660.155	2.26
660.34	2.27
660.525	2.22
660.71	2.28
660.895	2.28
661.08	2.17
661.264	2.17
661.449	2.25
661.634	2.16
661.819	2.2
662.004	2.19
662.189	2.09
662.374	2.13
662.559	2.09
662.743	2.06
662.928	2.08
663.113	2.05
663.298	2.04
663.483	2.09
663.667	2.06
663.852	2
664.037	2.06
664.221	2.01
664.406	2.07
664.591	1.97
664.775	2.02
664.96	1.95
665.145	1.91
665.329	1.95
665.514	1.95
665.698	1.91
665.883	1.84
666.068	1.93
666.252	1.88
666.437	1.83
666.621	1.89
666.806	1.88
666.99	1.82
667.174	1.81
667.359	1.88
667.543	1.8
667.728	1.84
667.912	1.73
668.096	1.79
668.281	1.73
668.465	1.79
668.649	1.75
668.834	1.68
669.018	1.73
669.202	1.76
669.387	1.69
669.571	1.75
669.755	1.62
669.939	1.69
670.124	1.72
670.308	1.69
670.492	1.73
670.676	1.65
670.86	1.67
671.044	1.6
671.228	1.66
671.413	1.58
671.597	1.59
671.781	1.61
671.965	1.64
672.149	1.6
672.333	1.59
672.517	1.54
672.701	1.62
672.885	1.54
673.069	1.53
673.253	1.62
673.437	1.58
673.621	1.55
673.804	1.56
673.988	1.53
674.172	1.51
674.356	1.42
674.54	1.52
674.724	1.56
674.908	1.52
675.091	1.54
675.275	1.5
675.459	1.55
675.643	1.44
675.826	1.52
676.01	1.45
676.194	1.45
676.377	1.43
676.561	1.48
676.745	1.4
676.928	1.48
677.112	1.51
677.296	1.42
677.479	1.4
677.663	1.36
677.846	1.47
678.03	1.37
678.213	1.33
678.397	1.41
678.58	1.3
678.764	1.37
678.947	1.3
679.131	1.41
679.314	1.35
679.498	1.33
679.681	1.39
679.865	1.37
680.048	1.27
680.231	1.25
680.415	1.28
680.598	1.3
680.781	1.36
680.965	1.34
681.148	1.25
681.331	1.28
681.514	1.31
681.698	1.28
681.881	1.29
682.064	1.29
682.247	1.26
682.43	1.17
682.614	1.26
682.797	1.28
682.98	1.26
683.163	1.22
683.346	1.21
683.529	1.16
683.712	1.16
683.895	1.23
684.078	1.15
684.261	1.15
684.444	1.2
684.627	1.19
684.81	1.12
684.993	1.17
685.176	1.21
685.359	1.13
685.542	1.13
685.725	1.27
685.908	1.21
686.091	1.09
686.274	1.19
686.457	1.17
686.639	1.12
686.822	1.15
687.005	1.07
687.188	1.13
687.371	1.2
687.553	1.19
687.736	1.11
687.919	1.23
688.102	1.18
688.284	1.09
688.467	1.08
688.65	1.04
688.832	1.04
689.015	1.06
689.197	0.98
689.38	1.24
689.563	1.21
689.745	0.99
689.928	1.02
690.11	1.04
690.293	1.04
690.475	0.98
690.658	1
690.84	1
691.023	0.99
691.205	0.99
691.388	1.02
691.57	1.06
691.752	1.07
691.935	0.9
692.117	0.94
692.3	0.96
692.482	0.97
692.664	0.95
692.847	0.98
693.029	1.09
693.211	1.03
693.393	0.96
693.576	0.97
693.758	0.95
693.94	0.99
694.122	0.97
694.304	0.93
694.487	0.89
694.669	1.02
694.851	0.87
695.033	0.94
695.215	0.9
695.397	0.89
695.579	0.95
695.761	0.8
695.943	0.91
696.125	1.01
696.308	0.91
696.49	0.81
696.671	1.04
696.853	0.91
697.035	1.03
697.217	0.82
697.399	0.96
697.581	0.83
697.763	0.85
697.945	0.83
698.127	0.9
698.309	0.91
698.491	0.89
698.672	0.95
698.854	0.92
699.036	0.88
699.218	0.85
699.399	0.93
699.581	0.88
699.763	0.83
699.945	0.77
700.126	0.76
700.308	0.83
700.49	0.82
700.671	0.78
700.853	0.79
701.035	0.79
701.216	0.82
701.398	0.73
701.579	0.79
701.761	0.84
701.943	0.79
702.124	0.82
702.306	0.81
702.487	0.97
702.669	0.78
702.85	0.71
703.031	0.75
703.213	0.91
703.394	0.85
703.576	0.73
703.757	0.87
703.938	0.8
704.12	0.95
704.301	0.77
704.483	0.73
704.664	0.76
704.845	0.91
705.026	0.92
705.208	0.76
705.389	0.79
705.57	0.76
705.751	0.75
705.933	0.79
706.114	0.85
706.295	0.75
706.476	0.67
706.657	0.85
706.838	0.76
707.02	0.74
707.201	0.69
707.382	0.67
707.563	0.76
707.744	0.67
707.925	0.66
708.106	0.72
708.287	0.77
708.468	0.8
708.649	0.78
708.83	0.76
709.011	0.71
709.192	0.78
709.373	0.64
709.554	0.64
709.734	0.77
709.915	0.75
710.096	0.71
710.277	0.61
710.458	0.72
710.639	0.73
710.819	0.57
711	0.65
711.181	0.74
711.362	0.73
711.542	0.71
711.723	0.66
711.904	0.74
712.085	0.72
712.265	0.72
712.446	0.57
712.627	0.66
712.807	0.71
712.988	0.7
713.168	0.59
713.349	0.7
713.53	0.44
713.71	0.53
713.891	0.62
714.071	0.7
714.252	0.64
714.432	0.6
714.613	0.52
714.793	0.63
714.974	0.78
715.154	0.73
715.334	0.69
715.515	0.75
715.695	0.55
715.876	0.63
716.056	0.65
716.236	0.55
716.417	0.57
716.597	0.56
716.777	0.75
716.957	0.67
717.138	0.72
717.318	0.61
717.498	0.52
717.678	0.63
717.859	0.66
718.039	0.61
718.219	0.65
718.399	0.66
718.579	0.54
718.759	0.54
718.939	0.68
719.12	0.66
719.3	0.7
719.48	0.44
719.66	0.45
719.84	0.69
720.02	0.65
720.2	0.57
720.38	0.63
720.56	0.71
720.74	0.54
720.92	0.6
721.1	0.72
721.279	0.67
721.459	0.59
721.639	0.56
721.819	0.6
721.999	0.51
722.179	0.55
722.359	0.54
722.538	0.63
722.718	0.57
722.898	0.54
723.078	0.59
723.257	0.47
723.437	0.67
723.617	0.57
723.797	0.57
723.976	0.49
724.156	0.72
724.336	0.69
724.515	0.76
724.695	0.5
724.874	0.61
725.054	0.64
725.234	0.46
725.413	0.63
725.593	0.57
725.772	0.59
725.952	0.55
726.131	0.55
726.311	0.59
726.49	0.64
726.67	0.52
726.849	0.56
727.028	0.61
727.208	0.51
727.387	0.63
727.567	0.4
727.746	0.56
727.925	0.46
728.105	0.5
728.284	0.6
728.463	0.59
728.643	0.62
728.822	0.57
729.001	0.64
729.18	0.58
729.359	0.65
729.539	0.64
729.718	0.55
729.897	0.65
730.076	0.52
730.255	0.43
730.434	0.61
730.614	0.66
730.793	0.68
730.972	0.57
731.151	0.64
731.33	0.71
731.509	0.57
731.688	0.57
731.867	0.61
732.046	0.46
732.225	0.77
732.404	0.45
732.583	0.43
732.762	0.54
732.941	0.69
733.12	0.57
733.298	0.61
733.477	0.77
733.656	0.59
733.835	0.42
734.014	0.75
734.193	0.6
734.371	0.67
734.55	0.68
734.729	0.43
734.908	0.68
735.086	0.59
735.265	0.62
735.444	0.5
735.623	0.51
735.801	0.47
735.98	0.66
736.159	0.57
736.337	0.67
736.516	0.72
736.694	0.59
736.873	0.53
737.052	0.81
737.23	0.73
737.409	0.48
737.587	0.82
737.766	0.47
737.944	0.52
738.123	0.68
738.301	0.68
738.479	0.61
738.658	0.6
738.836	0.38
739.015	0.61
739.193	0.67
739.371	0.52
739.55	0.51
739.728	0.43
739.906	0.69
740.085	0.74
740.263	0.71
740.441	0.38
740.62	0.81
740.798	0.68
740.976	0.59
741.154	0.52
741.332	0.76
741.511	0.52
741.689	0.61
741.867	0.7
742.045	0.48
742.223	0.55
742.401	0.52
742.579	0.57
742.757	0.53
742.935	0.43
743.114	0.54
743.292	0.49
743.47	0.54
743.648	0.54
743.826	0.55
744.004	0.53
744.181	0.6
744.359	0.5
744.537	0.56
744.715	0.34
744.893	0.55
745.071	0.61
745.249	0.49
745.427	0.52
745.605	0.56
745.782	0.47
745.96	0.63
746.138	0.57
746.316	0.61
746.493	0.48
746.671	0.42
746.849	0.48
747.027	0.57
747.204	0.37
747.382	0.51
747.56	0.33
747.737	0.41
747.915	0.31
748.093	0.56
748.27	0.31
748.448	0.42
748.625	0.3
748.803	0.42
748.98	0.44
749.158	0.48
749.335	0.44
749.513	0.43
749.69	0.41
749.868	0.42
750.045	0.5
750.223	0.4
750.4	0.26
750.578	0.62
750.755	0.49
750.932	0.33
751.11	0.52
751.287	0.24
751.464	0.52
751.642	0.29
751.819	0.38
751.996	0.39
752.173	0.39
752.351	0.22
752.528	0.47
752.705	0.28
752.882	0.31
753.06	0.43
753.237	0.51
753.414	0.6
753.591	0.53
753.768	0.52
753.945	0.45
754.122	0.38
754.299	0.5
754.476	0.3
754.654	0.37
754.831	0.51
755.008	0.5
755.185	0.31
755.362	0.22
755.539	0.41
755.716	0.52
755.892	0.26
756.069	0.43
756.246	0.42
756.423	0.52
756.6	0.5
756.777	0.34
756.954	0.66
757.131	0.35
757.307	0.22
757.484	0.3
757.661	0.48
757.838	0.42
758.015	0.34
758.191	0.48
758.368	0.35
758.545	0.44
758.721	0.42
758.898	0.36
759.075	0.44
759.251	0.44
759.428	0.41
759.605	0.31
759.781	0.32
759.958	0.37
760.134	0.54
760.311	0.23
760.488	0.48
760.664	0.52
760.841	0.38
761.017	0.36
761.194	0.46
761.37	0.52
761.547	0.37
761.723	0.29
761.899	0.49
762.076	0.29
762.252	0.36
762.429	0.34
762.605	0.55
762.781	0.39
762.958	0.5
763.134	0.29
763.31	0.36
763.486	0.56
763.663	0.23
763.839	0.37
764.015	0.06
764.191	0.3
764.368	0.23
764.544	0.4
764.72	0.39
764.896	0.51
765.072	0.36
765.248	0.47
765.425	0.24
765.601	0.45
765.777	0.42
765.953	0.2
766.129	0.28
766.305	0.24
766.481	0.48
766.657	0.37
766.833	0.51
767.009	0.17
767.185	0.32
767.361	0.33
767.537	0.14
767.713	0.59
767.889	0.38
768.065	0.33
768.24	0.42
768.416	0.43
768.592	0.28
768.768	0.39
768.944	0.37
769.12	0.3
769.295	0.29
769.471	0.38
769.647	0.37
769.823	0.52
769.998	0.2
770.174	0.36
770.35	0.73
770.525	0.74
770.701	0.39
770.877	0.36
771.052	0.31
771.228	0.5
771.403	0.48
771.579	0.39
771.755	0.6
771.93	0.42
772.106	0.25
772.281	0.23
772.457	0.47
772.632	0.39
772.808	0.12
772.983	0.43
773.159	0.19
773.334	0.59
773.509	0.36
773.685	0.3
773.86	0.8
774.036	0.61
774.211	0.41
774.386	0.28
774.562	0.52
774.737	0.35
774.912	0.27
775.087	0.33
775.263	0.25
775.438	0.46
775.613	0.16
775.788	0.31
775.964	0.55
776.139	0.83
776.314	0.26
776.489	0.52
776.664	0.37
776.839	0.32
777.014	0.54
777.19	0.47
777.365	0.6
777.54	0.64
777.715	0.21
777.89	0.38
778.065	0.4
778.24	0.31
778.415	0.58
778.59	0.08
778.765	0.42
778.94	0.38
779.115	0.31
779.289	0.4
779.464	0.33
779.639	0.32
779.814	0.14
779.989	0.15
780.164	0.6
780.339	0.47
780.513	0.25
780.688	0.32
780.863	0.35
781.038	0.51
781.212	0.26
781.387	0.39
781.562	0.68
781.737	0.65
781.911	0.59
782.086	0.17
782.261	0.19
782.435	0.69
782.61	0.36
782.784	0.41
782.959	0.75
783.134	0.36
783.308	0.28
783.483	0.37
783.657	0.94
783.832	0.64
784.006	0.28
784.181	0.5
784.355	0.66
784.53	0.61
784.704	0.36
784.878	0.62
785.053	0.61
785.227	0.52
785.402	0.86
785.576	0.06
785.75	0.39
785.925	0.3
786.099	0.58
786.273	0.38
786.448	0.62
786.622	0.69
786.796	0.57
786.97	0.28
787.145	0.85
787.319	0.3
787.493	0.38
787.667	0.47
787.841	0.42
788.015	0.59
788.19	0.23
788.364	0.38
788.538	0.47
788.712	0.6
788.886	0.33
789.06	0.73
789.234	0.58
789.408	0.12
789.582	0.32
789.756	0.41
789.93	0.32
790.104	0.45
790.278	0.25
790.452	0.15
790.626	0.36
790.8	0.27
790.973	0.62
791.147	0.63
791.321	0.75
791.495	0.84
791.669	0.57
791.843	0.72
792.016	0.65
792.19	0.81
792.364	0.46
792.538	0.89
792.711	0.71
792.885	0.33
793.059	0.25
793.233	-0.02
793.406	0.6
793.58	0.57
793.754	0.35
793.927	0.55
794.101	0.66
794.274	0.71
794.448	0.63
794.622	0.24
794.795	0.81
794.969	0.16
795.142	0.91
795.316	0.46
795.489	0.3
795.663	0.83
795.836	0.69
796.009	0.35
796.183	0.91
796.356	0.67
796.53	0.8
796.703	0.33
796.876	1.12
797.05	0.34
797.223	0.55
797.396	0.6
797.57	0.63
797.743	0.88
797.916	0.34
798.09	0.58
798.263	0.71
798.436	0.39
798.609	0.48
798.782	0.26
798.956	0.84
799.129	0.45
799.302	0.38
799.475	0.22
799.648	0.25
799.821	0.45
799.994	0.44
800.167	0.05
800.34	0.63
800.514	0.58
800.687	0.35
800.86	0.22
801.033	0.62
801.206	0.53
801.379	0.11
801.551	0.75
801.724	0.77
801.897	1
802.07	0.23
802.243	0.02
802.416	0.63
802.589	0.35
802.762	0.76
802.935	0.67
803.107	0.88
803.28	0.76
803.453	0.82
803.626	0.41
803.798	0.82
803.971	0.52
804.144	0.82
804.317	0.82
804.489	0.57
804.662	0.61
804.835	0.6
805.007	0.37
805.18	1
805.353	0.46
805.525	0.33
805.698	0.51
805.87	0.81
806.043	0.89
806.215	0.1
806.388	0.51
806.56	0.93
806.733	0.82
806.905	0.83
807.078	0.33
807.25	0.34
807.423	0.45
807.595	0.65
807.768	0.4
807.94	0.7
808.112	1.27
808.285	0.69
808.457	0.57
808.629	0.54
808.802	0.82
808.974	0.6
809.146	0.6
809.318	0.4
809.491	0.77
809.663	0.73
809.835	0.46
810.007	0.96
810.18	0.54
810.352	0.2
810.524	0.6
810.696	0.49
810.868	0.76
811.04	0.88
811.212	0.18
811.384	0.78
811.556	0.72
811.728	0.48
811.901	1.35
812.073	0.6
812.245	0.79
812.417	0.39
812.589	0.27
812.76	0.92
812.932	0.53
813.104	1.02
813.276	0.43
813.448	1.06
813.62	0.69
813.792	0.6
813.964	0.6
814.136	0.59
814.307	0.74
814.479	0.12
814.651	0.59
814.823	1.49
814.995	0.55
815.166	0.52
815.338	0.51
815.51	0.28
815.681	1.72
815.853	0.66
816.025	0.79
816.196	1.48
816.368	0.91
816.54	-0.02
816.711	0.49
816.883	1.37
817.054	1.76
817.226	0.01
817.398	0.81
817.569	0.37
817.741	1.02
817.912	0.69
818.084	0.56
818.255	0.93
818.426	0.71
818.598	0.68
818.769	0.4
818.941	1.22
819.112	1.23
819.283	0.94
819.455	0.47
819.626	0.51
819.798	0.82
819.969	0.82
820.14	0.62
820.311	0.53
820.483	0.71
820.654	0.8
820.825	0.44
820.996	0.59
821.168	0.3
821.339	0.93
821.51	0.06
821.681	0.89
821.852	0.42
822.023	0.19
822.195	0.57
822.366	1.13
822.537	1.12
822.708	0.93
822.879	0.49
823.05	1.02
823.221	0.47
823.392	1.13
823.563	0.99
823.734	0.24
823.905	0.83
824.076	0.66
824.247	0.21
824.418	0.49
824.589	1.28
824.759	1.14
824.93	1.24
825.101	1.09
825.272	1.72
825.443	1.32
825.614	1.2
825.784	-0.26
825.955	1.57
826.126	1.31
826.297	0.87
826.467	2.31
826.638	1.51
826.809	0.47
826.98	0.63
827.15	1.39
827.321	1.21
827.492	1.58
827.662	0.29
827.833	1.84
828.003	1.47
828.174	0.76
828.345	0.01
828.515	1.67
828.686	1.03
828.856	0.96
829.027	0.83
829.197	1.18
829.368	0.87
829.538	0.45
829.709	0.52
829.879	0.93
830.049	1.12
830.22	0.76
830.39	0.79
830.56	1.89
830.731	0.2
830.901	0.12
831.072	1
831.242	1.15
831.412	1.4
831.582	0.83
831.753	0.48
831.923	1.22
832.093	1.03
832.263	0.36
832.434	0.77
832.604	0.33
832.774	1.04
832.944	0.49
833.114	0.36
833.284	0.69
833.454	0.86
833.624	0.41
833.795	0.71
833.965	1.43
834.135	1.09
834.305	-0.1
834.475	0.18
834.645	0.73
834.815	0.72
834.985	0.17
835.155	0.71
835.325	0.83
835.494	1.52
835.664	0.81
835.834	0.33
836.004	0.96
836.174	1.08
836.344	1.55
836.514	0.32
836.684	1.12
836.853	0.98
837.023	0.81
837.193	0.87
837.363	1.6
837.532	1.44
837.702	0.82
837.872	0.4
838.041	1.71
838.211	1.72
838.381	-0.18
838.55	1.08
838.72	3.23
838.89	2.34
839.059	1.15
839.229	-0.04
839.398	1.94
839.568	1.36
839.738	0.88
839.907	1.8
840.077	0.95
840.246	0.62
840.416	0.1
840.585	0.34
840.755	2.07
840.924	2.08
841.093	1.45
841.263	0.57
841.432	0.95
841.602	0.16
841.771	0.42
841.94	0.91
842.11	3
842.279	2.02
842.448	0.03
842.617	0.34
842.787	2.1
842.956	1.05
843.125	1.45
843.294	0.88
843.464	2.01
843.633	1.23
843.802	-0.11
843.971	0.65
844.14	1.86
844.309	2.38
844.479	0.22
844.648	0.7
844.817	1.03
844.986	1.47
845.155	0.37
845.324	1.77
845.493	0.74
845.662	-0.49
845.831	1.65
846	0.91
846.169	1.35
846.338	2.09
846.507	1.51
846.676	0.99
846.844	0.83
847.013	2.04
847.182	0.97
847.351	1.01
847.52	1.73
847.689	2
847.858	1.34
848.026	0.53
848.195	2.09
848.364	1.17
848.533	1.21
848.701	1.17
848.87	0.82
849.039	2.21
849.207	1.65
849.376	3.24
849.545	2.07
849.713	0.68
849.882	0.57
850.051	1.57
850.219	1.69
850.388	2.36
850.556	-0.15
850.725	0.48
850.893	1.49
851.062	1.61
851.23	1.9
851.399	-0.1
851.567	0.23
851.736	0.43
851.904	1.01
852.073	0.33
852.241	1.77
852.41	1.85
852.578	0.75
852.746	0.98
852.915	2.43
853.083	2.19
853.251	0.46
853.42	0.94
853.588	1.22
853.756	2.25
853.924	0.42
854.093	1.84
854.261	2.68
854.429	0.79
854.597	0.9
854.765	1.29
854.934	1.88
855.102	2.82
855.27	0.76
855.438	2.73
855.606	2.24
855.774	2.96
855.942	0.38
856.11	-0.31
856.278	2.23
856.446	2.63
856.614	1.49
856.782	1.34
856.95	3.43
857.118	2.14
857.286	1.46
857.454	0.32
857.622	2.74
857.79	2.1
857.958	0.35
858.126	1.38
858.294	1.15
858.462	1.58
858.629	1.16
858.797	0.77
858.965	1.7
859.133	2.52
859.301	1.61
859.468	2.09
859.636	0.05
859.804	3.49
859.971	2.13
860.139	1
860.307	3.16
860.474	1.42
860.642	1.38
860.81	-0.24
860.977	0.92
861.145	2.09
861.313	-0.18
861.48	0.42
861.648	1.57
861.815	1.77
861.983	0.51
862.15	1.28
862.318	0.96
862.485	1.63
862.653	1.46
862.82	0.63
862.988	2.17
863.155	3.13
863.322	2.74
863.49	0.4
863.657	0.19
863.824	4.97
863.992	1.51
864.159	3.48
864.326	3.65
864.494	0.93
864.661	4.29
864.828	0.33
864.996	2.44
865.163	3.51
865.33	0.89
865.497	-0.54
865.664	0.9
865.832	-1.67
865.999	2.22
866.166	-0.14
866.333	1.92
866.5	1.66
866.667	1.04
866.834	0.83
867.001	3.04
867.168	0.11
867.335	1.86
867.502	-1.01
867.669	1.86
867.836	3.34
868.003	1.56
868.17	2.28
868.337	1
868.504	3.06
868.671	0.86
868.838	1.92
869.005	2.76
869.172	2.74
869.339	1.37
869.505	2.45
869.672	1.88
869.839	4.49
870.006	2.64
870.173	0.14
870.339	2.03
870.506	4.97
870.673	0.39
870.84	2.33
871.006	2.21
871.173	3.12
871.34	1.97
871.506	-0.01
871.673	1.29
871.839	0.78
872.006	3.28
872.173	1.21
872.339	2.35
872.506	2.86
872.672	0.61
872.839	0.48
873.005	2.26
873.172	4.01
873.338	2.98
873.505	1.94
873.671	4.5
873.838	3.01
874.004	1.95
874.171	0.35
874.337	1.09
874.503	4.55
874.67	2.42
874.836	2.18
875.002	5.45
875.169	5.07
875.335	1.6
875.501	0.59
875.668	3.32
875.834	2.08
876	2.71
876.166	3.43
876.332	1.81
876.499	5.55
876.665	1.46
876.831	3.21
876.997	5.3
877.163	2.42
877.329	1.51
877.495	2.35
877.662	3.97
877.828	2.76
877.994	1.98
878.16	-1.23
878.326	0.77
878.492	3.01
878.658	-0.47
878.824	3.76
878.99	4.47
879.156	0.66
879.322	5.28
879.487	1.26
879.653	2.29
879.819	3.18
879.985	1.94
880.151	1.99
880.317	2.55
880.483	2.92
880.648	3.69
880.814	-1.37
880.98	3.39
881.146	-2.13
881.312	3.12
881.477	2.4
881.643	2.79
881.809	2.8
881.974	4.34
882.14	-0.74
882.306	1.74
882.471	4.12
882.637	1.61
882.803	1.62
882.968	4.48
883.134	4.91
883.299	0.5
883.465	1.41
883.63	4.15
883.796	3.83
883.961	3
884.127	3.04
884.292	-1.33
884.458	1.03
884.623	1.02
