Data from Apollo_Calib_20240827__AbsoluteIrradiance__6__23-15-01-861.txt Node

Date: Tue Aug 27 23:15:01 BST 2024
User: biology
Spectrometer: FLMT08252
Trigger mode: 0
Integration Time (sec): 5.000000E-1
Scans to average: 5
Electric dark correction enabled: true
Nonlinearity correction enabled: false
Boxcar width: 0
XAxis mode: Wavelengths
Number of Pixels in Spectrum: 3648
>>>>>Begin Spectral Data<<<<<
179.588	-0
179.809	-0
180.03	-0
180.251	-0
180.473	-0
180.694	0
180.915	0
181.136	-0
181.357	-0
181.578	-0
181.799	-0
182.02	-0
182.241	0
182.462	0
182.683	0
182.904	-0
183.125	0
183.346	0
183.567	0
183.788	0
184.009	0
184.23	0
184.451	0
184.672	0
184.892	0
185.113	0
185.334	0
185.555	0
185.776	0
185.996	0
186.217	0
186.438	0
186.659	0
186.879	0
187.1	0
187.321	0
187.541	0
187.762	0
187.983	0
188.203	0
188.424	0
188.644	0
188.865	0
189.086	0
189.306	0
189.527	0
189.747	0
189.968	0
190.188	0
190.409	0
190.629	0
190.849	0
191.07	0
191.29	0
191.511	0
191.731	0
191.951	0
192.172	0
192.392	0
192.612	0
192.833	0
193.053	0
193.273	0
193.493	0
193.714	0
193.934	0
194.154	0
194.374	0
194.594	0
194.815	0
195.035	0
195.255	0
195.475	0
195.695	0
195.915	0
196.135	0
196.355	0
196.575	0
196.795	0
197.015	0
197.235	0
197.455	0
197.675	0
197.895	0
198.115	0
198.335	0
198.555	0
198.775	0
198.995	0
199.214	0
199.434	0
199.654	0
199.874	0
200.094	3.64
200.313	2.33
200.533	2.49
200.753	2.27
200.973	3.7
201.192	2.8
201.412	1.52
201.632	2.24
201.851	2.81
202.071	1.93
202.291	1.93
202.51	1.78
202.73	2.57
202.95	1.5
203.169	1.84
203.389	2.13
203.608	2.26
203.828	1.56
204.047	2.21
204.267	2.27
204.486	1.76
204.706	2.11
204.925	1.79
205.145	1.6
205.364	2.26
205.583	2.26
205.803	1.71
206.022	1.47
206.242	1.64
206.461	2
206.68	1.46
206.9	1.51
207.119	2.06
207.338	2.08
207.557	1.63
207.777	1.44
207.996	1.5
208.215	1.81
208.434	1.38
208.654	1.29
208.873	1.72
209.092	1.71
209.311	1.45
209.53	1.31
209.749	1.3
209.968	1.09
210.187	1.2
210.407	0.84
210.626	1.18
210.845	1.43
211.064	1.09
211.283	1.16
211.502	1.49
211.721	1.27
211.94	0.94
212.159	1.26
212.377	1.16
212.596	1.45
212.815	1.18
213.034	1.22
213.253	1.17
213.472	1.28
213.691	1.21
213.91	0.97
214.128	1.02
214.347	1.17
214.566	0.78
214.785	0.93
215.003	1.1
215.222	1
215.441	1.14
215.66	0.69
215.878	0.87
216.097	1.16
216.316	0.73
216.534	1.02
216.753	0.94
216.972	0.93
217.19	0.84
217.409	0.67
217.627	0.85
217.846	0.83
218.064	0.88
218.283	0.82
218.501	1.15
218.72	1.14
218.938	0.77
219.157	0.87
219.375	1.09
219.594	0.91
219.812	0.59
220.031	0.69
220.249	1.01
220.467	1.03
220.686	0.98
220.904	0.66
221.122	0.68
221.341	1
221.559	0.73
221.777	0.66
221.995	0.84
222.214	0.77
222.432	0.82
222.65	0.9
222.868	0.92
223.086	0.89
223.305	0.99
223.523	0.82
223.741	0.99
223.959	0.57
224.177	0.59
224.395	0.67
224.613	0.74
224.831	0.84
225.049	0.59
225.267	0.58
225.485	0.64
225.703	0.79
225.921	0.71
226.139	0.62
226.357	0.7
226.575	0.73
226.793	0.58
227.011	1.02
227.229	0.57
227.447	0.72
227.665	0.48
227.883	0.45
228.1	0.76
228.318	0.62
228.536	0.34
228.754	0.67
228.972	0.63
229.189	0.83
229.407	0.57
229.625	0.59
229.843	0.67
230.06	0.66
230.278	0.49
230.496	0.76
230.713	0.73
230.931	0.62
231.149	0.66
231.366	0.49
231.584	0.6
231.801	0.91
232.019	0.61
232.236	0.46
232.454	0.55
232.671	0.59
232.889	0.66
233.106	0.52
233.324	0.49
233.541	0.52
233.759	0.62
233.976	0.53
234.194	0.49
234.411	0.47
234.628	0.43
234.846	0.5
235.063	0.61
235.28	0.44
235.498	0.59
235.715	0.35
235.932	0.57
236.149	0.43
236.367	0.47
236.584	0.53
236.801	0.58
237.018	0.56
237.236	0.47
237.453	0.42
237.67	0.53
237.887	0.44
238.104	0.5
238.321	0.45
238.538	0.53
238.755	0.57
238.973	0.29
239.19	0.6
239.407	0.5
239.624	0.51
239.841	0.31
240.058	0.51
240.275	0.61
240.492	0.57
240.709	0.52
240.925	0.55
241.142	0.46
241.359	0.36
241.576	0.42
241.793	0.47
242.01	0.49
242.227	0.46
242.444	0.55
242.66	0.53
242.877	0.46
243.094	0.4
243.311	0.43
243.527	0.49
243.744	0.57
243.961	0.53
244.178	0.32
244.394	0.44
244.611	0.57
244.828	0.64
245.044	0.46
245.261	0.47
245.477	0.48
245.694	0.51
245.911	0.4
246.127	0.48
246.344	0.47
246.56	0.51
246.777	0.39
246.993	0.51
247.21	0.52
247.426	0.51
247.643	0.44
247.859	0.42
248.076	0.42
248.292	0.55
248.508	0.43
248.725	0.43
248.941	0.42
249.157	0.55
249.374	0.46
249.59	0.46
249.806	0.4
250.023	0.53
250.239	0.48
250.455	0.48
250.671	0.47
250.888	0.54
251.104	0.5
251.32	0.42
251.536	0.38
251.752	0.44
251.969	0.39
252.185	0.47
252.401	0.56
252.617	0.38
252.833	0.4
253.049	0.45
253.265	0.42
253.481	0.47
253.697	0.47
253.913	0.34
254.129	0.38
254.345	0.42
254.561	0.34
254.777	0.43
254.993	0.49
255.209	0.36
255.425	0.38
255.641	0.45
255.857	0.47
256.073	0.41
256.288	0.37
256.504	0.35
256.72	0.38
256.936	0.47
257.152	0.41
257.367	0.35
257.583	0.44
257.799	0.41
258.015	0.33
258.23	0.33
258.446	0.49
258.662	0.41
258.877	0.4
259.093	0.32
259.309	0.38
259.524	0.41
259.74	0.39
259.955	0.17
260.171	0.38
260.387	0.36
260.602	0.42
260.818	0.48
261.033	0.29
261.249	0.35
261.464	0.36
261.68	0.27
261.895	0.39
262.11	0.43
262.326	0.35
262.541	0.35
262.757	0.42
262.972	0.4
263.187	0.43
263.403	0.37
263.618	0.43
263.833	0.37
264.049	0.3
264.264	0.42
264.479	0.35
264.694	0.48
264.91	0.39
265.125	0.36
265.34	0.39
265.555	0.51
265.77	0.41
265.986	0.37
266.201	0.46
266.416	0.42
266.631	0.37
266.846	0.37
267.061	0.36
267.276	0.34
267.491	0.25
267.706	0.36
267.921	0.31
268.136	0.28
268.351	0.43
268.566	0.31
268.781	0.45
268.996	0.47
269.211	0.37
269.426	0.27
269.641	0.29
269.856	0.37
270.071	0.27
270.285	0.27
270.5	0.36
270.715	0.38
270.93	0.33
271.145	0.42
271.359	0.39
271.574	0.24
271.789	0.33
272.004	0.34
272.218	0.35
272.433	0.39
272.648	0.25
272.862	0.4
273.077	0.31
273.292	0.34
273.506	0.27
273.721	0.33
273.936	0.29
274.15	0.41
274.365	0.36
274.579	0.45
274.794	0.35
275.008	0.4
275.223	0.25
275.437	0.36
275.652	0.41
275.866	0.35
276.081	0.34
276.295	0.36
276.509	0.34
276.724	0.31
276.938	0.33
277.153	0.37
277.367	0.39
277.581	0.29
277.796	0.28
278.01	0.34
278.224	0.35
278.438	0.38
278.653	0.3
278.867	0.29
279.081	0.1
279.295	0.29
279.51	0.32
279.724	0.25
279.938	0.31
280.152	0.34
280.366	0.27
280.58	0.35
280.794	0.36
281.008	0.32
281.222	0.35
281.437	0.39
281.651	0.37
281.865	0.36
282.079	0.28
282.293	0.22
282.507	0.25
282.721	0.27
282.935	0.24
283.148	0.21
283.362	0.28
283.576	0.24
283.79	0.27
284.004	0.25
284.218	0.34
284.432	0.26
284.646	0.34
284.859	0.34
285.073	0.29
285.287	0.31
285.501	0.28
285.714	0.24
285.928	0.32
286.142	0.3
286.356	0.24
286.569	0.29
286.783	0.33
286.997	0.34
287.21	0.32
287.424	0.32
287.637	0.23
287.851	0.27
288.065	0.31
288.278	0.3
288.492	0.35
288.705	0.32
288.919	0.35
289.132	0.26
289.346	0.33
289.559	0.17
289.773	0.26
289.986	0.33
290.2	0.32
290.413	0.28
290.626	0.29
290.84	0.27
291.053	0.27
291.267	0.36
291.48	0.23
291.693	0.3
291.906	0.24
292.12	0.27
292.333	0.21
292.546	0.26
292.76	0.38
292.973	0.28
293.186	0.28
293.399	0.29
293.612	0.31
293.826	0.26
294.039	0.25
294.252	0.31
294.465	0.31
294.678	0.33
294.891	0.27
295.104	0.25
295.317	0.25
295.53	0.28
295.743	0.3
295.956	0.29
296.169	0.32
296.382	0.33
296.595	0.28
296.808	0.27
297.021	0.32
297.234	0.3
297.447	0.29
297.66	0.27
297.873	0.33
298.086	0.28
298.299	0.27
298.511	0.22
298.724	0.25
298.937	0.23
299.15	0.21
299.363	0.26
299.575	0.33
299.788	0.2
300.001	0.27
300.213	0.25
300.426	0.26
300.639	0.15
300.852	0.23
301.064	0.3
301.277	0.27
301.489	0.3
301.702	0.27
301.915	0.26
302.127	0.26
302.34	0.3
302.552	0.26
302.765	0.3
302.977	0.31
303.19	0.26
303.402	0.26
303.615	0.26
303.827	0.21
304.04	0.27
304.252	0.28
304.464	0.26
304.677	0.32
304.889	0.3
305.102	0.23
305.314	0.24
305.526	0.29
305.739	0.26
305.951	0.25
306.163	0.24
306.375	0.33
306.588	0.22
306.8	0.3
307.012	0.19
307.224	0.29
307.436	0.33
307.649	0.17
307.861	0.26
308.073	0.29
308.285	0.23
308.497	0.2
308.709	0.26
308.921	0.26
309.133	0.27
309.346	0.24
309.558	0.24
309.77	0.27
309.982	0.29
310.194	0.33
310.406	0.25
310.617	0.34
310.829	0.25
311.041	0.29
311.253	0.24
311.465	0.26
311.677	0.23
311.889	0.27
312.101	0.23
312.313	0.32
312.524	0.29
312.736	0.2
312.948	0.26
313.16	0.3
313.372	0.33
313.583	0.29
313.795	0.28
314.007	0.22
314.218	0.2
314.43	0.28
314.642	0.24
314.853	0.28
315.065	0.31
315.277	0.26
315.488	0.26
315.7	0.24
315.912	0.27
316.123	0.25
316.335	0.27
316.546	0.31
316.758	0.25
316.969	0.27
317.181	0.25
317.392	0.25
317.604	0.29
317.815	0.24
318.026	0.25
318.238	0.25
318.449	0.28
318.661	0.18
318.872	0.22
319.083	0.25
319.295	0.27
319.506	0.19
319.717	0.28
319.929	0.27
320.14	0.27
320.351	0.28
320.562	0.23
320.774	0.27
320.985	0.25
321.196	0.24
321.407	0.21
321.618	0.25
321.829	0.25
322.041	0.3
322.252	0.24
322.463	0.27
322.674	0.26
322.885	0.22
323.096	0.25
323.307	0.24
323.518	0.24
323.729	0.27
323.94	0.26
324.151	0.23
324.362	0.26
324.573	0.3
324.784	0.26
324.995	0.27
325.206	0.27
325.417	0.25
325.628	0.25
325.838	0.28
326.049	0.25
326.26	0.3
326.471	0.22
326.682	0.24
326.892	0.23
327.103	0.23
327.314	0.18
327.525	0.29
327.735	0.26
327.946	0.32
328.157	0.2
328.368	0.27
328.578	0.23
328.789	0.23
328.999	0.26
329.21	0.27
329.421	0.29
329.631	0.21
329.842	0.19
330.052	0.25
330.263	0.29
330.473	0.31
330.684	0.25
330.894	0.21
331.105	0.26
331.315	0.28
331.526	0.21
331.736	0.34
331.947	0.29
332.157	0.3
332.367	0.21
332.578	0.3
332.788	0.29
332.999	0.3
333.209	0.24
333.419	0.24
333.629	0.25
333.84	0.29
334.05	0.28
334.26	0.3
334.47	0.29
334.681	0.27
334.891	0.23
335.101	0.28
335.311	0.34
335.521	0.24
335.732	0.22
335.942	0.29
336.152	0.29
336.362	0.29
336.572	0.21
336.782	0.25
336.992	0.23
337.202	0.27
337.412	0.2
337.622	0.26
337.832	0.25
338.042	0.25
338.252	0.23
338.462	0.21
338.672	0.29
338.882	0.26
339.092	0.22
339.302	0.31
339.511	0.26
339.721	0.2
339.931	0.27
340.141	0.27
340.351	0.31
340.561	0.26
340.77	0.28
340.98	0.23
341.19	0.23
341.4	0.22
341.609	0.22
341.819	0.24
342.029	0.23
342.238	0.31
342.448	0.23
342.658	0.28
342.867	0.3
343.077	0.26
343.286	0.29
343.496	0.26
343.706	0.31
343.915	0.25
344.125	0.29
344.334	0.28
344.544	0.15
344.753	0.26
344.963	0.24
345.172	0.24
345.381	0.24
345.591	0.24
345.8	0.28
346.01	0.28
346.219	0.28
346.428	0.12
346.638	0.23
346.847	0.28
347.056	0.32
347.266	0.21
347.475	0.28
347.684	0.28
347.893	0.22
348.103	0.27
348.312	0.28
348.521	0.24
348.73	0.25
348.94	0.28
349.149	0.28
349.358	0.23
349.567	0.21
349.776	0.18
349.985	0.26
350.194	0.28
350.403	0.26
350.612	0.21
350.821	0.27
351.03	0.2
351.239	0.22
351.448	0.25
351.657	0.23
351.866	0.27
352.075	0.2
352.284	0.29
352.493	0.22
352.702	0.31
352.911	0.25
353.12	0.25
353.329	0.22
353.538	0.23
353.746	0.25
353.955	0.23
354.164	0.26
354.373	0.26
354.582	0.27
354.79	0.26
354.999	0.27
355.208	0.24
355.416	0.28
355.625	0.2
355.834	0.26
356.042	0.22
356.251	0.23
356.46	0.2
356.668	0.28
356.877	0.29
357.085	0.28
357.294	0.23
357.503	0.25
357.711	0.22
357.92	0.4
358.128	0.26
358.337	0.25
358.545	0.32
358.754	0.2
358.962	0.27
359.17	0.22
359.379	0.27
359.587	0.25
359.796	0.28
360.004	0.29
360.212	0.27
360.421	0.25
360.629	0.23
360.837	0.22
361.046	0.26
361.254	0.33
361.462	0.27
361.67	0.23
361.879	0.27
362.087	0.29
362.295	0.28
362.503	0.22
362.711	0.19
362.92	0.24
363.128	0.19
363.336	0.21
363.544	0.21
363.752	0.24
363.96	0.24
364.168	0.24
364.376	0.24
364.584	0.26
364.792	0.26
365	0.24
365.208	0.28
365.416	0.26
365.624	0.28
365.832	0.21
366.04	0.26
366.248	0.25
366.456	0.26
366.664	0.22
366.872	0.25
367.079	0.27
367.287	0.22
367.495	0.27
367.703	0.24
367.911	0.22
368.118	0.23
368.326	0.2
368.534	0.24
368.742	0.3
368.949	0.17
369.157	0.23
369.365	0.24
369.572	0.2
369.78	0.23
369.988	0.28
370.195	0.26
370.403	0.23
370.61	0.23
370.818	0.26
371.026	0.25
371.233	0.21
371.441	0.28
371.648	0.25
371.856	0.24
372.063	0.26
372.271	0.21
372.478	0.23
372.685	0.23
372.893	0.3
373.1	0.27
373.308	0.32
373.515	0.31
373.722	0.27
373.93	0.25
374.137	0.32
374.344	0.35
374.552	0.29
374.759	0.33
374.966	0.3
375.173	0.27
375.381	0.31
375.588	0.25
375.795	0.19
376.002	0.24
376.209	0.25
376.417	0.29
376.624	0.3
376.831	0.28
377.038	0.28
377.245	0.21
377.452	0.28
377.659	0.31
377.866	0.21
378.073	0.31
378.28	0.28
378.487	0.25
378.694	0.31
378.901	0.26
379.108	0.25
379.315	0.26
379.522	0.33
379.729	0.26
379.936	0.24
380.143	0.29
380.35	0.24
380.557	0.26
380.763	0.25
380.97	0.29
381.177	0.23
381.384	0.28
381.591	0.33
381.797	0.26
382.004	0.3
382.211	0.3
382.418	0.32
382.624	0.3
382.831	0.33
383.038	0.24
383.244	0.26
383.451	0.22
383.658	0.28
383.864	0.24
384.071	0.24
384.277	0.29
384.484	0.25
384.69	0.3
384.897	0.25
385.103	0.27
385.31	0.27
385.516	0.25
385.723	0.25
385.929	0.24
386.136	0.23
386.342	0.32
386.549	0.26
386.755	0.3
386.961	0.3
387.168	0.28
387.374	0.3
387.58	0.28
387.787	0.27
387.993	0.3
388.199	0.24
388.406	0.26
388.612	0.28
388.818	0.19
389.024	0.29
389.231	0.32
389.437	0.36
389.643	0.32
389.849	0.3
390.055	0.28
390.261	0.3
390.467	0.29
390.674	0.26
390.88	0.28
391.086	0.32
391.292	0.26
391.498	0.34
391.704	0.33
391.91	0.29
392.116	0.28
392.322	0.29
392.528	0.33
392.734	0.28
392.94	0.32
393.146	0.32
393.352	0.3
393.557	0.3
393.763	0.27
393.969	0.34
394.175	0.28
394.381	0.31
394.587	0.27
394.792	0.25
394.998	0.36
395.204	0.34
395.41	0.31
395.615	0.33
395.821	0.37
396.027	0.35
396.233	0.31
396.438	0.29
396.644	0.35
396.85	0.36
397.055	0.34
397.261	0.35
397.466	0.44
397.672	0.34
397.878	0.39
398.083	0.31
398.289	0.3
398.494	0.34
398.7	0.4
398.905	0.26
399.111	0.38
399.316	0.33
399.522	0.37
399.727	0.37
399.932	0.31
400.138	0.32
400.343	0.39
400.549	0.35
400.754	0.33
400.959	0.33
401.165	0.37
401.37	0.41
401.575	0.46
401.78	0.36
401.986	0.35
402.191	0.37
402.396	0.35
402.601	0.43
402.807	0.4
403.012	0.4
403.217	0.45
403.422	0.33
403.627	0.41
403.832	0.39
404.037	0.41
404.243	0.41
404.448	0.39
404.653	0.37
404.858	0.44
405.063	0.43
405.268	0.41
405.473	0.41
405.678	0.44
405.883	0.51
406.088	0.45
406.293	0.43
406.498	0.46
406.703	0.51
406.907	0.47
407.112	0.45
407.317	0.5
407.522	0.61
407.727	0.47
407.932	0.52
408.136	0.64
408.341	0.57
408.546	0.58
408.751	0.57
408.956	0.6
409.16	0.66
409.365	0.68
409.57	0.57
409.774	0.61
409.979	0.63
410.184	0.69
410.388	0.65
410.593	0.73
410.798	0.67
411.002	0.72
411.207	0.77
411.411	0.81
411.616	0.74
411.82	0.85
412.025	0.83
412.229	0.8
412.434	0.87
412.638	0.85
412.843	0.89
413.047	0.93
413.252	0.87
413.456	0.97
413.66	1.07
413.865	1.03
414.069	1.09
414.273	1.12
414.478	1.11
414.682	1.12
414.886	1.14
415.091	1.2
415.295	1.28
415.499	1.34
415.703	1.31
415.908	1.4
416.112	1.38
416.316	1.57
416.52	1.48
416.724	1.53
416.929	1.59
417.133	1.76
417.337	1.7
417.541	1.8
417.745	1.8
417.949	1.94
418.153	1.9
418.357	1.98
418.561	2.19
418.765	2.13
418.969	2.28
419.173	2.32
419.377	2.28
419.581	2.49
419.785	2.56
419.989	2.57
420.193	2.71
420.397	2.8
420.601	2.89
420.804	3
421.008	2.98
421.212	3.17
421.416	3.15
421.62	3.22
421.823	3.29
422.027	3.34
422.231	3.42
422.435	3.43
422.638	3.46
422.842	3.5
423.046	3.59
423.249	3.86
423.453	3.79
423.657	3.96
423.86	4.09
424.064	4.24
424.268	4.37
424.471	4.36
424.675	4.59
424.878	4.59
425.082	4.84
425.285	5.05
425.489	4.89
425.692	5.16
425.896	5.05
426.099	5.22
426.303	5.44
426.506	5.66
426.71	5.86
426.913	6.03
427.116	6.1
427.32	6.19
427.523	6.28
427.726	6.55
427.93	6.63
428.133	7.02
428.336	7.14
428.54	7.17
428.743	7.45
428.946	7.75
429.149	7.8
429.353	7.74
429.556	7.9
429.759	7.84
429.962	7.99
430.165	8.27
430.368	7.88
430.571	7.88
430.775	7.99
430.978	8.03
431.181	8.07
431.384	8.15
431.587	8.24
431.79	8.58
431.993	8.43
432.196	8.76
432.399	9.16
432.602	9.36
432.805	9.34
433.008	9.93
433.211	9.75
433.414	10.18
433.616	10.23
433.819	10.08
434.022	10.41
434.225	10.37
434.428	10.41
434.631	10.94
434.833	10.73
435.036	10.93
435.239	11.09
435.442	11.22
435.645	11.35
435.847	11.56
436.05	11.71
436.253	12.1
436.455	11.99
436.658	11.78
436.861	12.12
437.063	12.25
437.266	12.4
437.468	12.49
437.671	12.79
437.874	12.94
438.076	12.89
438.279	13.24
438.481	13.28
438.684	14.09
438.886	13.61
439.089	13.97
439.291	13.99
439.494	14.44
439.696	14.52
439.899	15.19
440.101	15.47
440.303	15.72
440.506	16.36
440.708	16.07
440.91	16.43
441.113	16.37
441.315	16.73
441.517	16.6
441.72	17.06
441.922	16.76
442.124	16.59
442.326	17.15
442.529	17.26
442.731	17.2
442.933	17.73
443.135	17.32
443.337	17.33
443.539	17.85
443.742	17.63
443.944	18.09
444.146	17.84
444.348	17.91
444.55	17.81
444.752	18.12
444.954	18.15
445.156	17.89
445.358	18.37
445.56	18.69
445.762	18.37
445.964	18.68
446.166	18.57
446.368	18.63
446.57	18.52
446.772	18.23
446.974	18.02
447.175	18.47
447.377	17.97
447.579	18.45
447.781	18.06
447.983	17.91
448.184	17.47
448.386	17.86
448.588	17.27
448.79	17.25
448.991	17.62
449.193	17.66
449.395	16.95
449.597	16.54
449.798	16.52
450	16.13
450.202	15.99
450.403	16.04
450.605	15.89
450.806	15.61
451.008	15.42
451.21	15.25
451.411	14.71
451.613	14.07
451.814	14.32
452.016	14.26
452.217	13.46
452.419	13.46
452.62	13.15
452.821	12.98
453.023	12.85
453.224	12.53
453.426	12.04
453.627	11.32
453.828	11.42
454.03	11.58
454.231	11.41
454.432	11.39
454.634	10.92
454.835	10.78
455.036	10.65
455.238	10.3
455.439	9.93
455.64	9.8
455.841	9.68
456.042	9.6
456.244	9.4
456.445	9.09
456.646	8.83
456.847	8.76
457.048	8.6
457.249	8.64
457.45	8.27
457.651	7.91
457.852	7.61
458.054	7.35
458.255	7.45
458.456	7.34
458.657	7.34
458.858	6.84
459.058	6.77
459.259	6.79
459.46	6.59
459.661	6.49
459.862	6.48
460.063	6.52
460.264	6.39
460.465	6.11
460.666	6.27
460.866	5.82
461.067	5.68
461.268	5.56
461.469	5.67
461.67	5.42
461.87	5.36
462.071	5.29
462.272	5.28
462.473	5.2
462.673	5.37
462.874	5.23
463.075	5.19
463.275	5.18
463.476	5.25
463.676	5.19
463.877	5
464.078	4.99
464.278	4.9
464.479	4.96
464.679	4.84
464.88	4.8
465.08	4.71
465.281	4.55
465.481	4.43
465.682	4.1
465.882	4.21
466.083	4.17
466.283	4.1
466.483	3.96
466.684	3.83
466.884	3.67
467.085	3.78
467.285	3.73
467.485	3.68
467.686	3.59
467.886	3.54
468.086	3.45
468.286	3.45
468.487	3.48
468.687	3.3
468.887	3.26
469.087	3.47
469.287	3.32
469.488	3.12
469.688	3.28
469.888	3.22
470.088	3.15
470.288	3.12
470.488	3.04
470.688	2.88
470.888	2.93
471.088	2.73
471.288	2.82
471.488	2.87
471.688	2.76
471.888	2.74
472.088	2.83
472.288	2.74
472.488	2.64
472.688	2.55
472.888	2.61
473.088	2.63
473.288	2.51
473.488	2.53
473.688	2.57
473.887	2.51
474.087	2.51
474.287	2.47
474.487	2.42
474.687	2.47
474.886	2.36
475.086	2.32
475.286	2.4
475.486	2.28
475.685	2.27
475.885	2.24
476.085	2.23
476.284	2.27
476.484	2.24
476.684	2.28
476.883	2.32
477.083	2.18
477.282	2.14
477.482	2.16
477.681	2.15
477.881	2.09
478.08	2.13
478.28	2.06
478.479	2.15
478.679	2.12
478.878	2.06
479.078	2.05
479.277	2.15
479.477	2.07
479.676	2.04
479.875	2.08
480.075	2.01
480.274	2.03
480.473	2.12
480.673	2.05
480.872	2.07
481.071	2.03
481.271	2
481.47	2.03
481.669	2.02
481.868	1.97
482.067	1.99
482.267	1.93
482.466	1.95
482.665	1.97
482.864	1.98
483.063	1.99
483.262	2.06
483.461	2.03
483.661	2.08
483.86	2.04
484.059	2.08
484.258	2.02
484.457	2
484.656	2.05
484.855	2.12
485.054	1.92
485.253	1.98
485.452	1.96
485.651	2.06
485.849	2.01
486.048	2
486.247	2.05
486.446	2.06
486.645	2.07
486.844	2.1
487.043	2.06
487.241	2.11
487.44	2.09
487.639	2.15
487.838	2.14
488.037	2.11
488.235	2.18
488.434	2.22
488.633	2.05
488.831	2.27
489.03	2.26
489.229	2.2
489.427	2.2
489.626	2.25
489.825	2.28
490.023	2.3
490.222	2.28
490.42	2.29
490.619	2.34
490.817	2.36
491.016	2.37
491.214	2.45
491.413	2.4
491.611	2.36
491.81	2.43
492.008	2.44
492.207	2.54
492.405	2.52
492.604	2.48
492.802	2.54
493	2.59
493.199	2.63
493.397	2.67
493.595	2.68
493.794	2.63
493.992	2.79
494.19	2.75
494.388	2.76
494.587	2.72
494.785	2.72
494.983	2.68
495.181	2.81
495.379	2.92
495.578	2.97
495.776	2.89
495.974	2.91
496.172	2.93
496.37	3.07
496.568	3.09
496.766	3.05
496.964	3.22
497.162	3.19
497.36	3.2
497.558	3.19
497.756	3.27
497.954	3.29
498.152	3.38
498.35	3.43
498.548	3.32
498.746	3.37
498.944	3.41
499.142	3.48
499.34	3.49
499.538	3.62
499.736	3.52
499.933	3.58
500.131	3.64
500.329	3.75
500.527	3.76
500.725	3.84
500.922	3.83
501.12	3.87
501.318	3.9
501.516	3.89
501.713	3.97
501.911	4.01
502.109	3.96
502.306	4.05
502.504	4.01
502.701	4.11
502.899	4.16
503.097	4.29
503.294	4.14
503.492	4.32
503.689	4.34
503.887	4.37
504.084	4.38
504.282	4.41
504.479	4.4
504.677	4.59
504.874	4.52
505.072	4.45
505.269	4.65
505.466	4.67
505.664	4.69
505.861	4.64
506.059	4.77
506.256	4.74
506.453	4.8
506.651	4.88
506.848	4.98
507.045	4.95
507.242	4.94
507.44	4.99
507.637	5.08
507.834	5.01
508.031	5.2
508.229	5.11
508.426	5.1
508.623	5.21
508.82	5.28
509.017	5.24
509.214	5.24
509.411	5.34
509.608	5.32
509.805	5.43
510.003	5.44
510.2	5.47
510.397	5.59
510.594	5.54
510.791	5.66
510.988	5.6
511.184	5.58
511.381	5.51
511.578	5.66
511.775	5.81
511.972	5.72
512.169	5.78
512.366	5.77
512.563	5.92
512.76	5.97
512.956	6.03
513.153	5.92
513.35	5.91
513.547	5.91
513.744	5.96
513.94	6.01
514.137	6.1
514.334	6.05
514.53	6.13
514.727	6.37
514.924	6.19
515.12	6.22
515.317	6.27
515.514	6.12
515.71	6.13
515.907	6.44
516.103	6.34
516.3	6.27
516.497	6.44
516.693	6.4
516.89	6.41
517.086	6.48
517.283	6.61
517.479	6.39
517.676	6.55
517.872	6.65
518.068	6.62
518.265	6.59
518.461	6.51
518.658	6.7
518.854	6.71
519.05	6.76
519.247	6.81
519.443	6.73
519.639	6.87
519.836	6.79
520.032	6.75
520.228	6.91
520.424	6.82
520.621	6.93
520.817	6.95
521.013	6.85
521.209	7.02
521.405	7.08
521.601	6.95
521.798	6.96
521.994	6.98
522.19	6.95
522.386	6.99
522.582	7.12
522.778	7.18
522.974	7.05
523.17	7.02
523.366	7.07
523.562	7.1
523.758	7.16
523.954	7.02
524.15	7.2
524.346	7.25
524.542	7.25
524.738	7.21
524.934	7.4
525.129	7.24
525.325	7.17
525.521	7.2
525.717	7.42
525.913	7.28
526.109	7.28
526.304	7.38
526.5	7.35
526.696	7.43
526.892	7.37
527.087	7.54
527.283	7.39
527.479	7.4
527.674	7.29
527.87	7.47
528.066	7.5
528.261	7.53
528.457	7.35
528.653	7.53
528.848	7.49
529.044	7.65
529.239	7.5
529.435	7.46
529.63	7.5
529.826	7.54
530.021	7.53
530.217	7.58
530.412	7.53
530.608	7.63
530.803	7.57
530.999	7.54
531.194	7.59
531.389	7.66
531.585	7.67
531.78	7.79
531.975	7.65
532.171	7.72
532.366	7.66
532.561	7.77
532.757	7.65
532.952	7.86
533.147	7.63
533.342	7.78
533.538	7.71
533.733	7.83
533.928	7.56
534.123	7.77
534.318	7.8
534.513	7.69
534.709	7.89
534.904	7.87
535.099	7.88
535.294	7.88
535.489	7.85
535.684	7.8
535.879	7.79
536.074	7.89
536.269	7.89
536.464	7.93
536.659	7.87
536.854	7.82
537.049	7.9
537.244	7.9
537.439	7.89
537.634	7.8
537.828	7.99
538.023	7.95
538.218	7.89
538.413	7.84
538.608	7.92
538.803	7.93
538.997	7.93
539.192	7.88
539.387	7.87
539.582	7.9
539.776	7.81
539.971	8.05
540.166	7.99
540.36	7.9
540.555	8.01
540.75	8.06
540.944	7.95
541.139	7.98
541.334	7.97
541.528	8
541.723	8.05
541.917	8.03
542.112	7.97
542.306	7.8
542.501	7.88
542.695	7.95
542.89	7.93
543.084	7.94
543.279	8.01
543.473	8.04
543.668	8.07
543.862	7.9
544.056	7.91
544.251	8.04
544.445	8.1
544.64	8.08
544.834	7.76
545.028	7.7
545.222	7.99
545.417	8.18
545.611	8.08
545.805	8.02
546	7.84
546.194	8.04
546.388	8.07
546.582	7.97
546.776	7.96
546.97	8
547.165	8.05
547.359	7.99
547.553	7.95
547.747	8.04
547.941	8.13
548.135	8.01
548.329	7.99
548.523	8.11
548.717	7.97
548.911	7.92
549.105	7.99
549.299	8.11
549.493	8.06
549.687	8
549.881	8.16
550.075	8
550.269	7.95
550.463	8.06
550.657	8.02
550.85	8.01
551.044	8.09
551.238	8.09
551.432	8.06
551.626	8.18
551.82	8.05
552.013	8.01
552.207	8.12
552.401	8.12
552.594	8.03
552.788	7.97
552.982	8.07
553.176	7.97
553.369	8.23
553.563	8.1
553.756	8.07
553.95	8.11
554.144	8.09
554.337	8.15
554.531	7.89
554.724	8.11
554.918	8.11
555.111	8.07
555.305	8.09
555.498	8.06
555.692	8.13
555.885	8.14
556.079	8.04
556.272	8.05
556.466	8.09
556.659	8.01
556.852	8.24
557.046	8.04
557.239	7.93
557.432	8.08
557.626	8.14
557.819	8.2
558.012	8.09
558.206	8.16
558.399	8.03
558.592	7.99
558.785	8.02
558.979	8.07
559.172	8.03
559.365	8.05
559.558	8.01
559.751	8.01
559.944	8.23
560.138	8
560.331	8.08
560.524	8.15
560.717	8.05
560.91	8.09
561.103	8.1
561.296	7.9
561.489	8.1
561.682	8.14
561.875	8.17
562.068	8.17
562.261	8
562.454	8.2
562.647	8.01
562.84	8.16
563.032	8.13
563.225	7.98
563.418	8.06
563.611	8.17
563.804	8.14
563.997	7.96
564.19	7.88
564.382	8.28
564.575	8.11
564.768	7.96
564.961	8.15
565.153	7.98
565.346	7.96
565.539	8.15
565.731	8.01
565.924	8.16
566.117	8.18
566.309	8.11
566.502	8.05
566.695	7.95
566.887	8.09
567.08	8.11
567.272	8.1
567.465	7.99
567.657	8.11
567.85	7.9
568.042	8.06
568.235	8.12
568.427	7.94
568.62	7.98
568.812	8.01
569.005	8.1
569.197	7.97
569.389	8.01
569.582	8.05
569.774	8.04
569.966	8.02
570.159	7.92
570.351	7.9
570.543	8.03
570.736	8.02
570.928	7.83
571.12	8.03
571.312	7.92
571.505	7.78
571.697	7.97
571.889	7.98
572.081	8
572.273	7.88
572.465	8.06
572.658	8.01
572.85	8.02
573.042	7.99
573.234	7.86
573.426	7.89
573.618	7.98
573.81	7.99
574.002	7.93
574.194	7.93
574.386	7.92
574.578	7.83
574.77	7.89
574.962	7.89
575.154	7.82
575.346	7.83
575.538	7.75
575.729	7.8
575.921	7.88
576.113	8.02
576.305	7.88
576.497	7.9
576.689	7.76
576.88	7.81
577.072	7.92
577.264	7.77
577.456	7.85
577.647	7.82
577.839	7.93
578.031	7.84
578.223	7.83
578.414	7.66
578.606	7.8
578.798	7.87
578.989	7.82
579.181	7.89
579.372	7.8
579.564	7.84
579.755	7.73
579.947	7.74
580.139	7.77
580.33	7.65
580.522	7.74
580.713	7.75
580.905	7.7
581.096	7.75
581.287	7.69
581.479	7.67
581.67	7.75
581.862	7.65
582.053	7.75
582.244	7.56
582.436	7.79
582.627	7.61
582.818	7.6
583.01	7.6
583.201	7.63
583.392	7.58
583.583	7.6
583.775	7.52
583.966	7.55
584.157	7.65
584.348	7.71
584.54	7.59
584.731	7.62
584.922	7.55
585.113	7.43
585.304	7.57
585.495	7.45
585.686	7.64
585.877	7.62
586.068	7.67
586.259	7.51
586.45	7.44
586.641	7.5
586.832	7.57
587.023	7.43
587.214	7.42
587.405	7.54
587.596	7.39
587.787	7.36
587.978	7.42
588.169	7.34
588.36	7.4
588.551	7.36
588.742	7.42
588.932	7.4
589.123	7.24
589.314	7.49
589.505	7.29
589.696	7.41
589.886	7.33
590.077	7.29
590.268	7.2
590.458	7.2
590.649	7.13
590.84	7.24
591.03	7.25
591.221	7.2
591.412	7.1
591.602	7.28
591.793	7.18
591.984	7.25
592.174	7.21
592.365	7.29
592.555	7.03
592.746	7.1
592.936	7.14
593.127	7.19
593.317	7.19
593.508	7.1
593.698	7.03
593.889	7.06
594.079	7
594.269	6.98
594.46	6.99
594.65	7.1
594.84	7
595.031	6.89
595.221	6.98
595.411	7
595.602	6.96
595.792	6.95
595.982	6.85
596.172	7.07
596.363	6.91
596.553	6.85
596.743	6.9
596.933	6.89
597.123	6.83
597.314	6.74
597.504	6.73
597.694	6.93
597.884	6.77
598.074	6.88
598.264	6.74
598.454	6.78
598.644	6.7
598.834	6.73
599.024	6.72
599.214	6.63
599.404	6.78
599.594	6.7
599.784	6.62
599.974	6.67
600.164	6.68
600.354	6.66
600.544	6.58
600.734	6.65
600.924	6.49
601.114	6.48
601.303	6.52
601.493	6.51
601.683	6.55
601.873	6.53
602.063	6.49
602.252	6.54
602.442	6.38
602.632	6.43
602.821	6.36
603.011	6.45
603.201	6.43
603.39	6.37
603.58	6.27
603.77	6.33
603.959	6.44
604.149	6.29
604.339	6.38
604.528	6.44
604.718	6.37
604.907	6.29
605.097	6.24
605.286	6.25
605.476	6.18
605.665	6.23
605.855	6.15
606.044	6.21
606.234	6.21
606.423	6.2
606.612	6.13
606.802	6.08
606.991	6.14
607.181	6.2
607.37	6.13
607.559	5.88
607.749	6.07
607.938	6.03
608.127	5.98
608.316	6.01
608.506	5.96
608.695	6.1
608.884	5.97
609.073	5.92
609.263	6.01
609.452	5.96
609.641	5.82
609.83	5.75
610.019	5.91
610.208	5.82
610.397	5.88
610.586	5.85
610.775	5.8
610.965	5.8
611.154	5.77
611.343	5.75
611.532	5.64
611.721	5.79
611.91	5.7
612.099	5.7
612.287	5.59
612.476	5.54
612.665	5.73
612.854	5.55
613.043	5.55
613.232	5.51
613.421	5.55
613.61	5.56
613.798	5.5
613.987	5.59
614.176	5.51
614.365	5.58
614.554	5.46
614.742	5.54
614.931	5.32
615.12	5.49
615.309	5.44
615.497	5.31
615.686	5.27
615.875	5.4
616.063	5.31
616.252	5.31
616.44	5.36
616.629	5.27
616.818	5.23
617.006	5.24
617.195	5.2
617.383	5.14
617.572	5.14
617.76	5.17
617.949	5.21
618.137	5.22
618.326	5.19
618.514	4.97
618.703	5.01
618.891	5.09
619.079	5.06
619.268	5.14
619.456	4.99
619.644	5.04
619.833	4.98
620.021	5
620.209	4.94
620.398	4.98
620.586	4.91
620.774	4.97
620.962	4.98
621.151	4.97
621.339	4.9
621.527	4.74
621.715	4.85
621.903	4.88
622.092	4.8
622.28	4.93
622.468	4.69
622.656	4.8
622.844	4.7
623.032	4.79
623.22	4.68
623.408	4.8
623.596	4.69
623.784	4.77
623.972	4.57
624.16	4.59
624.348	4.67
624.536	4.7
624.724	4.5
624.912	4.65
625.1	4.62
625.288	4.61
625.476	4.53
625.664	4.68
625.851	4.51
626.039	4.57
626.227	4.49
626.415	4.47
626.603	4.47
626.79	4.49
626.978	4.41
627.166	4.43
627.354	4.35
627.541	4.36
627.729	4.25
627.917	4.5
628.104	4.37
628.292	4.32
628.48	4.35
628.667	4.27
628.855	4.31
629.042	4.32
629.23	4.28
629.418	4.25
629.605	4.26
629.793	4.18
629.98	4.23
630.168	4.13
630.355	4.2
630.543	4.11
630.73	4.12
630.917	4.04
631.105	4.19
631.292	4.07
631.48	4.13
631.667	4.15
631.854	4.08
632.042	4.01
632.229	3.99
632.416	4.05
632.604	4.03
632.791	3.9
632.978	4.01
633.165	3.95
633.353	3.95
633.54	3.93
633.727	3.84
633.914	3.9
634.101	3.78
634.289	3.9
634.476	3.81
634.663	3.82
634.85	3.76
635.037	3.74
635.224	3.74
635.411	3.83
635.598	3.65
635.785	3.76
635.972	3.69
636.159	3.69
636.346	3.69
636.533	3.6
636.72	3.65
636.907	3.67
637.094	3.63
637.281	3.55
637.468	3.6
637.655	3.62
637.842	3.6
638.029	3.52
638.215	3.51
638.402	3.6
638.589	3.48
638.776	3.43
638.963	3.44
639.149	3.52
639.336	3.52
639.523	3.49
639.709	3.42
639.896	3.42
640.083	3.39
640.27	3.42
640.456	3.37
640.643	3.35
640.829	3.27
641.016	3.33
641.203	3.27
641.389	3.3
641.576	3.33
641.762	3.3
641.949	3.22
642.135	3.28
642.322	3.26
642.508	3.18
642.695	3.27
642.881	3.16
643.068	3.18
643.254	3.19
643.441	3.21
643.627	3.21
643.813	3.07
644	3.18
644.186	3.07
644.372	3.09
644.559	3.11
644.745	3.14
644.931	3
645.118	3.09
645.304	3.05
645.49	3
645.676	2.95
645.862	3.02
646.049	3.07
646.235	3.02
646.421	3.13
646.607	3
646.793	2.92
646.979	2.88
647.165	2.96
647.352	2.95
647.538	2.9
647.724	2.9
647.91	2.84
648.096	2.93
648.282	2.88
648.468	2.83
648.654	2.88
648.84	2.83
649.026	2.78
649.212	2.82
649.397	2.77
649.583	2.82
649.769	2.79
649.955	2.74
650.141	2.8
650.327	2.75
650.513	2.68
650.698	2.78
650.884	2.66
651.07	2.76
651.256	2.64
651.442	2.68
651.627	2.61
651.813	2.63
651.999	2.6
652.184	2.65
652.37	2.64
652.556	2.6
652.741	2.64
652.927	2.49
653.113	2.59
653.298	2.57
653.484	2.51
653.669	2.55
653.855	2.57
654.04	2.59
654.226	2.55
654.412	2.52
654.597	2.45
654.782	2.48
654.968	2.54
655.153	2.53
655.339	2.5
655.524	2.44
655.71	2.43
655.895	2.46
656.08	2.44
656.266	2.44
656.451	2.44
656.636	2.4
656.822	2.4
657.007	2.44
657.192	2.4
657.378	2.32
657.563	2.33
657.748	2.39
657.933	2.37
658.118	2.31
658.304	2.37
658.489	2.36
658.674	2.37
658.859	2.28
659.044	2.35
659.229	2.33
659.414	2.25
659.599	2.26
659.785	2.21
659.97	2.3
660.155	2.24
660.34	2.28
660.525	2.24
660.71	2.21
660.895	2.21
661.08	2.24
661.264	2.17
661.449	2.21
661.634	2.11
661.819	2.19
662.004	2.12
662.189	2.1
662.374	2.15
662.559	2.03
662.743	2.01
662.928	2.07
663.113	2.03
663.298	1.97
663.483	2.03
663.667	2.04
663.852	1.99
664.037	2.06
664.221	1.99
664.406	2.03
664.591	2.01
664.775	1.92
664.96	1.9
665.145	1.98
665.329	1.94
665.514	1.95
665.698	1.92
665.883	1.87
666.068	1.91
666.252	1.92
666.437	1.82
666.621	1.85
666.806	1.86
666.99	1.87
667.174	1.78
667.359	1.86
667.543	1.81
667.728	1.81
667.912	1.75
668.096	1.83
668.281	1.69
668.465	1.76
668.649	1.77
668.834	1.69
669.018	1.74
669.202	1.77
669.387	1.69
669.571	1.7
669.755	1.63
669.939	1.7
670.124	1.65
670.308	1.7
670.492	1.64
670.676	1.66
670.86	1.7
671.044	1.59
671.228	1.71
671.413	1.65
671.597	1.6
671.781	1.61
671.965	1.63
672.149	1.58
672.333	1.58
672.517	1.57
672.701	1.59
672.885	1.58
673.069	1.51
673.253	1.61
673.437	1.57
673.621	1.55
673.804	1.57
673.988	1.56
674.172	1.51
674.356	1.5
674.54	1.52
674.724	1.62
674.908	1.48
675.091	1.5
675.275	1.45
675.459	1.57
675.643	1.51
675.826	1.46
676.01	1.46
676.194	1.44
676.377	1.48
676.561	1.49
676.745	1.45
676.928	1.47
677.112	1.48
677.296	1.4
677.479	1.4
677.663	1.34
677.846	1.42
678.03	1.41
678.213	1.36
678.397	1.42
678.58	1.32
678.764	1.37
678.947	1.32
679.131	1.36
679.314	1.37
679.498	1.35
679.681	1.38
679.865	1.39
680.048	1.33
680.231	1.35
680.415	1.24
680.598	1.29
680.781	1.33
680.965	1.33
681.148	1.35
681.331	1.26
681.514	1.24
681.698	1.23
681.881	1.3
682.064	1.27
682.247	1.21
682.43	1.23
682.614	1.31
682.797	1.27
682.98	1.23
683.163	1.23
683.346	1.25
683.529	1.23
683.712	1.19
683.895	1.26
684.078	1.16
684.261	1.26
684.444	1.23
684.627	1.18
684.81	1.17
684.993	1.14
685.176	1.16
685.359	1.15
685.542	1.16
685.725	1.21
685.908	1.18
686.091	1.12
686.274	1.22
686.457	1.18
686.639	1.11
686.822	1.17
687.005	1.15
687.188	1.13
687.371	1.18
687.553	1.13
687.736	1.15
687.919	1.18
688.102	1.13
688.284	1.1
688.467	1.04
688.65	1.01
688.832	1.03
689.015	1.07
689.197	1.03
689.38	1.15
689.563	1.07
689.745	1.03
689.928	1.01
690.11	1.05
690.293	1.01
690.475	1.01
690.658	1.08
690.84	1.06
691.023	0.99
691.205	1.03
691.388	1.07
691.57	1.03
691.752	0.97
691.935	0.91
692.117	0.99
692.3	0.97
692.482	0.96
692.664	0.92
692.847	0.93
693.029	1
693.211	1.01
693.393	0.96
693.576	0.87
693.758	0.93
693.94	0.99
694.122	0.9
694.304	0.9
694.487	0.9
694.669	0.98
694.851	0.88
695.033	0.97
695.215	0.9
695.397	0.86
695.579	0.95
695.761	0.84
695.943	0.86
696.125	0.89
696.308	1.01
696.49	0.81
696.671	0.92
696.853	0.87
697.035	1.04
697.217	0.84
697.399	0.88
697.581	0.81
697.763	0.88
697.945	0.88
698.127	0.92
698.309	0.89
698.491	0.83
698.672	0.95
698.854	0.88
699.036	0.87
699.218	0.84
699.399	0.91
699.581	0.88
699.763	0.84
699.945	0.75
700.126	0.79
700.308	0.88
700.49	0.78
700.671	0.72
700.853	0.81
701.035	0.85
701.216	0.87
701.398	0.78
701.579	0.78
701.761	0.88
701.943	0.72
702.124	0.79
702.306	0.79
702.487	0.9
702.669	0.81
702.85	0.73
703.031	0.7
703.213	0.85
703.394	0.76
703.576	0.79
703.757	0.9
703.938	0.77
704.12	0.88
704.301	0.83
704.483	0.74
704.664	0.78
704.845	0.81
705.026	0.82
705.208	0.79
705.389	0.77
705.57	0.77
705.751	0.75
705.933	0.76
706.114	0.81
706.295	0.74
706.476	0.66
706.657	0.79
706.838	0.82
707.02	0.77
707.201	0.74
707.382	0.74
707.563	0.69
707.744	0.71
707.925	0.66
708.106	0.71
708.287	0.7
708.468	0.8
708.649	0.69
708.83	0.72
709.011	0.69
709.192	0.72
709.373	0.67
709.554	0.68
709.734	0.77
709.915	0.76
710.096	0.72
710.277	0.58
710.458	0.72
710.639	0.68
710.819	0.61
711	0.65
711.181	0.73
711.362	0.69
711.542	0.67
711.723	0.78
711.904	0.71
712.085	0.68
712.265	0.66
712.446	0.66
712.627	0.62
712.807	0.66
712.988	0.71
713.168	0.61
713.349	0.68
713.53	0.53
713.71	0.65
713.891	0.54
714.071	0.6
714.252	0.57
714.432	0.54
714.613	0.54
714.793	0.59
714.974	0.72
715.154	0.64
715.334	0.64
715.515	0.63
715.695	0.5
715.876	0.62
716.056	0.63
716.236	0.62
716.417	0.61
716.597	0.55
716.777	0.8
716.957	0.59
717.138	0.6
717.318	0.67
717.498	0.57
717.678	0.56
717.859	0.59
718.039	0.58
718.219	0.64
718.399	0.57
718.579	0.57
718.759	0.6
718.939	0.69
719.12	0.55
719.3	0.56
719.48	0.49
719.66	0.54
719.84	0.64
720.02	0.63
720.2	0.56
720.38	0.52
720.56	0.66
720.74	0.62
720.92	0.63
721.1	0.7
721.279	0.62
721.459	0.55
721.639	0.51
721.819	0.65
721.999	0.64
722.179	0.62
722.359	0.5
722.538	0.59
722.718	0.48
722.898	0.52
723.078	0.55
723.257	0.57
723.437	0.6
723.617	0.59
723.797	0.55
723.976	0.62
724.156	0.65
724.336	0.61
724.515	0.77
724.695	0.43
724.874	0.62
725.054	0.62
725.234	0.51
725.413	0.54
725.593	0.54
725.772	0.61
725.952	0.6
726.131	0.57
726.311	0.63
726.49	0.53
726.67	0.49
726.849	0.5
727.028	0.55
727.208	0.6
727.387	0.66
727.567	0.52
727.746	0.58
727.925	0.42
728.105	0.48
728.284	0.62
728.463	0.49
728.643	0.63
728.822	0.58
729.001	0.59
729.18	0.54
729.359	0.6
729.539	0.64
729.718	0.56
729.897	0.68
730.076	0.57
730.255	0.48
730.434	0.57
730.614	0.6
730.793	0.68
730.972	0.55
731.151	0.55
731.33	0.68
731.509	0.66
731.688	0.51
731.867	0.54
732.046	0.5
732.225	0.62
732.404	0.5
732.583	0.36
732.762	0.55
732.941	0.68
733.12	0.66
733.298	0.66
733.477	0.62
733.656	0.54
733.835	0.49
734.014	0.65
734.193	0.62
734.371	0.55
734.55	0.57
734.729	0.45
734.908	0.56
735.086	0.61
735.265	0.57
735.444	0.37
735.623	0.59
735.801	0.47
735.98	0.58
736.159	0.58
736.337	0.7
736.516	0.51
736.694	0.59
736.873	0.53
737.052	0.72
737.23	0.64
737.409	0.51
737.587	0.67
737.766	0.39
737.944	0.6
738.123	0.61
738.301	0.6
738.479	0.55
738.658	0.58
738.836	0.44
739.015	0.66
739.193	0.6
739.371	0.46
739.55	0.54
739.728	0.4
739.906	0.59
740.085	0.74
740.263	0.62
740.441	0.32
740.62	0.81
740.798	0.56
740.976	0.5
741.154	0.5
741.332	0.69
741.511	0.5
741.689	0.64
741.867	0.67
742.045	0.38
742.223	0.47
742.401	0.51
742.579	0.49
742.757	0.5
742.935	0.47
743.114	0.56
743.292	0.52
743.47	0.5
743.648	0.54
743.826	0.55
744.004	0.58
744.181	0.65
744.359	0.43
744.537	0.53
744.715	0.42
744.893	0.41
745.071	0.46
745.249	0.4
745.427	0.52
745.605	0.4
745.782	0.47
745.96	0.57
746.138	0.5
746.316	0.5
746.493	0.4
746.671	0.52
746.849	0.45
747.027	0.56
747.204	0.35
747.382	0.52
747.56	0.3
747.737	0.44
747.915	0.28
748.093	0.48
748.27	0.47
748.448	0.49
748.625	0.34
748.803	0.36
748.98	0.42
749.158	0.41
749.335	0.56
749.513	0.41
749.69	0.52
749.868	0.42
750.045	0.47
750.223	0.32
750.4	0.31
750.578	0.51
750.755	0.45
750.932	0.37
751.11	0.46
751.287	0.26
751.464	0.54
751.642	0.29
751.819	0.38
751.996	0.39
752.173	0.36
752.351	0.32
752.528	0.44
752.705	0.38
752.882	0.29
753.06	0.54
753.237	0.49
753.414	0.49
753.591	0.44
753.768	0.45
753.945	0.35
754.122	0.44
754.299	0.45
754.476	0.31
754.654	0.31
754.831	0.44
755.008	0.38
755.185	0.35
755.362	0.21
755.539	0.43
755.716	0.5
755.892	0.36
756.069	0.42
756.246	0.32
756.423	0.32
756.6	0.47
756.777	0.39
756.954	0.34
757.131	0.36
757.307	0.24
757.484	0.34
757.661	0.34
757.838	0.48
758.015	0.16
758.191	0.47
758.368	0.37
758.545	0.42
758.721	0.53
758.898	0.36
759.075	0.4
759.251	0.58
759.428	0.43
759.605	0.32
759.781	0.45
759.958	0.33
760.134	0.44
760.311	0.33
760.488	0.53
760.664	0.4
760.841	0.48
761.017	0.4
761.194	0.41
761.37	0.43
761.547	0.32
761.723	0.36
761.899	0.55
762.076	0.34
762.252	0.27
762.429	0.42
762.605	0.49
762.781	0.4
762.958	0.5
763.134	0.47
763.31	0.32
763.486	0.42
763.663	0.26
763.839	0.42
764.015	0.2
764.191	0.22
764.368	0.31
764.544	0.31
764.72	0.37
764.896	0.46
765.072	0.33
765.248	0.37
765.425	0.37
765.601	0.35
765.777	0.38
765.953	0.24
766.129	0.4
766.305	0.27
766.481	0.44
766.657	0.45
766.833	0.53
767.009	0.33
767.185	0.39
767.361	0.29
767.537	0.27
767.713	0.48
767.889	0.29
768.065	0.4
768.24	0.32
768.416	0.41
768.592	0.27
768.768	0.33
768.944	0.49
769.12	0.32
769.295	0.39
769.471	0.45
769.647	0.34
769.823	0.48
769.998	0.34
770.174	0.32
770.35	0.74
770.525	0.57
770.701	0.5
770.877	0.38
771.052	0.25
771.228	0.34
771.403	0.36
771.579	0.48
771.755	0.62
771.93	0.35
772.106	0.18
772.281	0.25
772.457	0.36
772.632	0.47
772.808	0.3
772.983	0.35
773.159	0.25
773.334	0.62
773.509	0.22
773.685	0.28
773.86	0.65
774.036	0.46
774.211	0.35
774.386	0.3
774.562	0.44
774.737	0.48
774.912	0.4
775.087	0.54
775.263	0.45
775.438	0.45
775.613	0.18
775.788	0.39
775.964	0.46
776.139	0.6
776.314	0.36
776.489	0.38
776.664	0.4
776.839	0.27
777.014	0.5
777.19	0.43
777.365	0.59
777.54	0.52
777.715	0.21
777.89	0.56
778.065	0.34
778.24	0.34
778.415	0.54
778.59	0.23
778.765	0.32
778.94	0.43
779.115	0.36
779.289	0.36
779.464	0.52
779.639	0.42
779.814	0.22
779.989	0.27
780.164	0.43
780.339	0.48
780.513	0.31
780.688	0.31
780.863	0.3
781.038	0.34
781.212	0.2
781.387	0.58
781.562	0.56
781.737	0.47
781.911	0.4
782.086	0.35
782.261	0.35
782.435	0.64
782.61	0.16
782.784	0.41
782.959	0.61
783.134	0.25
783.308	0.21
783.483	0.39
783.657	0.68
783.832	0.52
784.006	0.27
784.181	0.62
784.355	0.63
784.53	0.47
784.704	0.38
784.878	0.71
785.053	0.6
785.227	0.47
785.402	0.88
785.576	0.13
785.75	0.46
785.925	0.4
786.099	0.35
786.273	0.59
786.448	0.5
786.622	0.73
786.796	0.46
786.97	0.31
787.145	0.99
787.319	0.26
787.493	0.3
787.667	0.36
787.841	0.46
788.015	0.45
788.19	0.34
788.364	0.67
788.538	0.42
788.712	0.65
788.886	0.42
789.06	0.57
789.234	0.4
789.408	0.1
789.582	0.49
789.756	0.44
789.93	0.55
790.104	0.36
790.278	0.41
790.452	0.35
790.626	0.77
790.8	0.59
790.973	0.75
791.147	0.61
791.321	0.37
791.495	0.71
791.669	0.4
791.843	0.58
792.016	0.53
792.19	0.68
792.364	0.29
792.538	0.66
792.711	0.56
792.885	0.43
793.059	0.26
793.233	-0.08
793.406	0.46
793.58	0.22
793.754	0.42
793.927	0.41
794.101	0.64
794.274	0.47
794.448	0.63
794.622	0.29
794.795	0.59
794.969	0.19
795.142	0.89
795.316	0.52
795.489	0.27
795.663	0.6
795.836	0.46
796.009	0.3
796.183	0.77
796.356	0.64
796.53	0.53
796.703	0.46
796.876	0.91
797.05	0.52
797.223	0.56
797.396	0.63
797.57	0.43
797.743	0.75
797.916	0.8
798.09	0.43
798.263	0.82
798.436	0.75
798.609	0.51
798.782	0.31
798.956	0.52
799.129	0.3
799.302	0.68
799.475	0.47
799.648	0.25
799.821	0.26
799.994	0.54
800.167	0.33
800.34	0.44
800.514	0.55
800.687	0.39
800.86	0.37
801.033	0.47
801.206	0.3
801.379	0.48
801.551	0.78
801.724	0.59
801.897	0.66
802.07	0.48
802.243	0.05
802.416	0.55
802.589	0.63
802.762	0.63
802.935	0.38
803.107	0.66
803.28	0.89
803.453	1.16
803.626	-0.07
803.798	0.5
803.971	0.22
804.144	0.6
804.317	0.51
804.489	0.69
804.662	0.54
804.835	0.7
805.007	0.35
805.18	0.92
805.353	0.71
805.525	0.16
805.698	0.28
805.87	0.6
806.043	0.89
806.215	0.22
806.388	0.23
806.56	0.53
806.733	0.7
806.905	0.82
807.078	0.54
807.25	0.23
807.423	0.39
807.595	0.53
807.768	0.72
807.94	0.76
808.112	0.66
808.285	0.28
808.457	0.96
808.629	0.64
808.802	0.57
808.974	0.39
809.146	0.98
809.318	0.19
809.491	0.39
809.663	0.76
809.835	0.11
810.007	1.02
810.18	0.69
810.352	0.46
810.524	0.6
810.696	0.75
810.868	0.74
811.04	0.5
811.212	0.41
811.384	0.65
811.556	0.76
811.728	0.27
811.901	1.03
812.073	0.28
812.245	1.01
812.417	0.58
812.589	0.32
812.76	0.49
812.932	0.65
813.104	0.89
813.276	0.04
813.448	0.79
813.62	0.61
813.792	0.79
813.964	0.74
814.136	0.42
814.307	0.77
814.479	0.32
814.651	0.36
814.823	1.16
814.995	0.95
815.166	0.69
815.338	0.41
815.51	0.16
815.681	1.08
815.853	0.69
816.025	0.46
816.196	1.03
816.368	0.79
816.54	0.13
816.711	0.51
816.883	0.63
817.054	1.44
817.226	0.26
817.398	0.53
817.569	0.5
817.741	0.44
817.912	1.07
818.084	0.63
818.255	0.81
818.426	0.91
818.598	0.44
818.769	0.58
818.941	0.54
819.112	1.35
819.283	0.99
819.455	0.63
819.626	0.71
819.798	0.74
819.969	0.61
820.14	0.66
820.311	0.28
820.483	0.77
820.654	1.31
820.825	0.35
820.996	1.09
821.168	0.2
821.339	0.58
821.51	0.53
821.681	0.76
821.852	0.54
822.023	0.54
822.195	0.5
822.366	0.87
822.537	0.69
822.708	0.52
822.879	0.55
823.05	1.13
823.221	0.61
823.392	0.87
823.563	0.84
823.734	0.86
823.905	0.82
824.076	0.61
824.247	0.6
824.418	0.25
824.589	1.4
824.759	1.07
824.93	0.43
825.101	0.11
825.272	1.61
825.443	1.27
825.614	1.71
825.784	0.03
825.955	1.9
826.126	1.77
826.297	0.72
826.467	1.54
826.638	0.89
826.809	-0.07
826.98	0.93
827.15	1.37
827.321	0.59
827.492	1.6
827.662	0.97
827.833	0.87
828.003	0.89
828.174	0.03
828.345	0.5
828.515	1.33
828.686	0.71
828.856	0.49
829.027	0.84
829.197	0.24
829.368	1.41
829.538	0.86
829.709	0.92
829.879	0.7
830.049	0.64
830.22	0.65
830.39	1.4
830.56	1.22
830.731	-0.05
830.901	-0
831.072	1.28
831.242	0.88
831.412	0.89
831.582	0.98
831.753	0.35
831.923	1.08
832.093	0.51
832.263	0.54
832.434	0.65
832.604	0.7
832.774	1.49
832.944	0.72
833.114	0.41
833.284	1.01
833.454	0.49
833.624	0.19
833.795	1.05
833.965	1.15
834.135	1.08
834.305	0.02
834.475	0.19
834.645	0.21
834.815	0.34
834.985	0.47
835.155	0.84
835.325	0.71
835.494	0.82
835.664	0.88
835.834	-0.01
836.004	1.07
836.174	0.72
836.344	1.16
836.514	0.32
836.684	1.02
836.853	0.97
837.023	0.99
837.193	1.37
837.363	1.19
837.532	1.6
837.702	1.13
837.872	0.16
838.041	1.23
838.211	1.97
838.381	0.35
838.55	1.28
838.72	2.08
838.89	1.57
839.059	1.17
839.229	-0.16
839.398	1.52
839.568	0.49
839.738	1.04
839.907	2.09
840.077	1.72
840.246	1.13
840.416	0.37
840.585	0.16
840.755	1.37
840.924	0.98
841.093	0.32
841.263	0.99
841.432	1.61
841.602	1.05
841.771	0.78
841.94	1.44
842.11	1.51
842.279	2.3
842.448	0.94
842.617	0.84
842.787	1.42
842.956	0.08
843.125	1.34
843.294	0.39
843.464	1.45
843.633	1
843.802	0.51
843.971	1.15
844.14	1.73
844.309	1.66
844.479	0.5
844.648	1.13
844.817	1.34
844.986	1.73
845.155	1.46
845.324	1.55
845.493	0.98
845.662	1.77
845.831	0.86
846	1.5
846.169	1.07
846.338	2.15
846.507	1.07
846.676	1.25
846.844	1.41
847.013	1.35
847.182	1.58
847.351	0.47
847.52	0.76
847.689	1.65
847.858	0.65
848.026	0.9
848.195	0.93
848.364	1.48
848.533	1.18
848.701	0.28
848.87	1.17
849.039	2.39
849.207	2.38
849.376	2.41
849.545	2.05
849.713	0.9
849.882	1.02
850.051	1.08
850.219	1.49
850.388	1.34
850.556	1.36
850.725	0.95
850.893	1.68
851.062	1.77
851.23	2.32
851.399	-0.78
851.567	0.26
851.736	1.62
851.904	0.27
852.073	1.74
852.241	1.46
852.41	1.95
852.578	0.46
852.746	0.66
852.915	2.26
853.083	1.44
853.251	0.35
853.42	1.16
853.588	2.75
853.756	2.94
853.924	1.32
854.093	1
854.261	1.73
854.429	-0.33
854.597	1.46
854.765	-0.36
854.934	0.93
855.102	1.97
855.27	2.06
855.438	0.92
855.606	2.4
855.774	2.49
855.942	0.25
856.11	0.85
856.278	1.67
856.446	0.89
856.614	0.88
856.782	1.64
856.95	2.27
857.118	2.22
857.286	1.31
857.454	1.28
857.622	1.75
857.79	0.7
857.958	-0.15
858.126	0.76
858.294	0.72
858.462	1.02
858.629	1.05
858.797	1.06
858.965	1.86
859.133	1.43
859.301	1.43
859.468	2.45
859.636	1.38
859.804	1.98
859.971	2.44
860.139	0.7
860.307	2.71
860.474	1.42
860.642	1.18
860.81	0.55
860.977	1.93
861.145	0.95
861.313	1.17
861.48	1.32
861.648	1.58
861.815	1.32
861.983	0.89
862.15	2.23
862.318	1.96
862.485	1.78
862.653	2.58
862.82	1.32
862.988	3.23
863.155	2.11
863.322	-0.11
863.49	0.4
863.657	0.67
863.824	2.66
863.992	3.63
864.159	2.53
864.326	2.34
864.494	0.85
864.661	3.58
864.828	0.25
864.996	1.71
865.163	4.02
865.33	1.87
865.497	-0.72
865.664	2.02
865.832	0.72
865.999	1.39
866.166	2.01
866.333	0.61
866.5	0.96
866.667	3.49
866.834	1.26
867.001	3.32
867.168	0.32
867.335	2.55
867.502	0.19
867.669	2.1
867.836	4.43
868.003	1.74
868.17	1.96
868.337	4.62
868.504	3.04
868.671	-0.11
868.838	0.44
869.005	0.6
869.172	1.23
869.339	2.11
869.505	2.53
869.672	0.88
869.839	3.55
870.006	1.82
870.173	-1.55
870.339	1.23
870.506	4.13
870.673	0.19
870.84	2.71
871.006	2.45
871.173	1.54
871.34	2.7
871.506	1.02
871.673	3.18
871.839	0.83
872.006	2.73
872.173	2.15
872.339	2.24
872.506	4.19
872.672	1.16
872.839	-0.45
873.005	0.68
873.172	4.48
873.338	4.2
873.505	1.84
873.671	-0.04
873.838	2.76
874.004	0.52
874.171	0.32
874.337	1.56
874.503	2.11
874.67	1.03
874.836	2.79
875.002	3.66
875.169	3.3
875.335	1.67
875.501	1.42
875.668	3.8
875.834	1.31
876	1.06
876.166	2.77
876.332	1.29
876.499	3.75
876.665	0.38
876.831	1.82
876.997	3.33
877.163	2.68
877.329	1.72
877.495	2.52
877.662	2.34
877.828	3.22
877.994	1.53
878.16	-0.8
878.326	1.77
878.492	2.03
878.658	0.4
878.824	1.8
878.99	2.69
879.156	0.89
879.322	3.67
879.487	0.35
879.653	2.09
879.819	1.38
879.985	1.54
880.151	2.44
880.317	2.18
880.483	2.89
880.648	2.56
880.814	-0.6
880.98	2.68
881.146	1.37
881.312	1.89
881.477	1.03
881.643	3.57
881.809	3.57
881.974	4
882.14	1.76
882.306	2.52
882.471	4.56
882.637	0.15
882.803	4.06
882.968	3.68
883.134	5.03
883.299	0.65
883.465	1.38
883.63	3.49
883.796	3.05
883.961	1.84
884.127	2.73
884.292	-2.06
884.458	-0.52
884.623	-0.52
