Data from Apollo_Calib_20240827__AbsoluteIrradiance__774__12-03-00-598.txt Node

Date: Wed Aug 28 12:03:00 BST 2024
User: biology
Spectrometer: FLMT08252
Trigger mode: 0
Integration Time (sec): 5.000000E-1
Scans to average: 5
Electric dark correction enabled: true
Nonlinearity correction enabled: false
Boxcar width: 0
XAxis mode: Wavelengths
Number of Pixels in Spectrum: 3648
>>>>>Begin Spectral Data<<<<<
179.588	-0
179.809	-0
180.03	-0
180.251	-0
180.473	-0
180.694	0
180.915	0
181.136	-0
181.357	0
181.578	-0
181.799	-0
182.02	-0
182.241	0
182.462	0
182.683	0
182.904	-0
183.125	-0
183.346	0
183.567	0
183.788	0
184.009	0
184.23	0
184.451	0
184.672	0
184.892	0
185.113	0
185.334	0
185.555	0
185.776	0
185.996	0
186.217	0
186.438	0
186.659	0
186.879	0
187.1	0
187.321	0
187.541	0
187.762	0
187.983	0
188.203	0
188.424	0
188.644	0
188.865	0
189.086	0
189.306	0
189.527	0
189.747	0
189.968	0
190.188	0
190.409	0
190.629	0
190.849	0
191.07	0
191.29	0
191.511	0
191.731	0
191.951	0
192.172	0
192.392	0
192.612	0
192.833	0
193.053	0
193.273	0
193.493	0
193.714	0
193.934	0
194.154	0
194.374	0
194.594	0
194.815	0
195.035	0
195.255	0
195.475	0
195.695	0
195.915	0
196.135	0
196.355	0
196.575	0
196.795	0
197.015	0
197.235	0
197.455	0
197.675	0
197.895	0
198.115	0
198.335	0
198.555	0
198.775	0
198.995	0
199.214	0
199.434	0
199.654	0
199.874	0
200.094	4.29
200.313	2.76
200.533	2.33
200.753	2.15
200.973	3.61
201.192	3.4
201.412	1.87
201.632	1.69
201.851	3.41
202.071	2.34
202.291	2.05
202.51	2.26
202.73	2.87
202.95	1.96
203.169	1.54
203.389	1.78
203.608	2.12
203.828	1.49
204.047	1.83
204.267	2.06
204.486	2.35
204.706	2.47
204.925	1.41
205.145	1.63
205.364	2.36
205.583	2.57
205.803	1.64
206.022	1.26
206.242	1.56
206.461	1.63
206.68	1.02
206.9	1.79
207.119	2.64
207.338	2.39
207.557	1.3
207.777	1.35
207.996	1.42
208.215	2.38
208.434	1.26
208.654	1.16
208.873	1.54
209.092	2.09
209.311	1.12
209.53	1.28
209.749	1.54
209.968	1.38
210.187	1.13
210.407	0.96
210.626	1.32
210.845	1.65
211.064	1.25
211.283	0.77
211.502	1.61
211.721	1.38
211.94	1.26
212.159	1.48
212.377	1.33
212.596	1.62
212.815	1.3
213.034	1.29
213.253	1.56
213.472	1.39
213.691	0.95
213.91	0.69
214.128	0.79
214.347	1.53
214.566	0.75
214.785	0.53
215.003	1.35
215.222	1.33
215.441	0.89
215.66	0.64
215.878	1.05
216.097	1.4
216.316	0.87
216.534	0.95
216.753	1.05
216.972	0.9
217.19	0.98
217.409	0.7
217.627	0.74
217.846	0.98
218.064	0.88
218.283	0.51
218.501	1.43
218.72	1.33
218.938	0.68
219.157	0.83
219.375	1.21
219.594	1.23
219.812	0.55
220.031	0.59
220.249	1.26
220.467	1.22
220.686	0.72
220.904	0.51
221.122	0.67
221.341	1.29
221.559	0.9
221.777	0.71
221.995	1.06
222.214	1.02
222.432	0.74
222.65	0.88
222.868	0.74
223.086	0.95
223.305	0.84
223.523	0.65
223.741	1.16
223.959	0.74
224.177	0.52
224.395	0.69
224.613	0.83
224.831	1.03
225.049	0.51
225.267	0.66
225.485	0.85
225.703	0.73
225.921	0.62
226.139	0.65
226.357	0.8
226.575	0.85
226.793	0.72
227.011	1.58
227.229	0.82
227.447	0.94
227.665	0.64
227.883	0.52
228.1	0.75
228.318	0.84
228.536	0.35
228.754	0.6
228.972	0.89
229.189	0.88
229.407	0.58
229.625	0.67
229.843	0.85
230.06	0.99
230.278	0.68
230.496	0.59
230.713	0.75
230.931	0.9
231.149	0.5
231.366	0.35
231.584	0.6
231.801	1.04
232.019	0.55
232.236	0.41
232.454	0.61
232.671	0.72
232.889	0.5
233.106	0.41
233.324	0.71
233.541	0.67
233.759	0.45
233.976	0.45
234.194	0.78
234.411	0.47
234.628	0.39
234.846	0.5
235.063	0.63
235.28	0.46
235.498	0.47
235.715	0.42
235.932	0.79
236.149	0.55
236.367	0.5
236.584	0.59
236.801	0.54
237.018	0.84
237.236	0.51
237.453	0.31
237.67	0.74
237.887	0.55
238.104	0.55
238.321	0.47
238.538	0.45
238.755	0.67
238.973	0.31
239.19	0.59
239.407	0.6
239.624	0.53
239.841	0.37
240.058	0.46
240.275	0.54
240.492	0.5
240.709	0.38
240.925	0.47
241.142	0.5
241.359	0.45
241.576	0.37
241.793	0.41
242.01	0.55
242.227	0.65
242.444	0.56
242.66	0.63
242.877	0.57
243.094	0.46
243.311	0.49
243.527	0.53
243.744	0.61
243.961	0.58
244.178	0.47
244.394	0.48
244.611	0.64
244.828	0.76
245.044	0.37
245.261	0.47
245.477	0.57
245.694	0.74
245.911	0.47
246.127	0.41
246.344	0.6
246.56	0.55
246.777	0.45
246.993	0.41
247.21	0.48
247.426	0.62
247.643	0.38
247.859	0.42
248.076	0.4
248.292	0.75
248.508	0.39
248.725	0.47
248.941	0.61
249.157	0.62
249.374	0.36
249.59	0.39
249.806	0.48
250.023	0.66
250.239	0.42
250.455	0.38
250.671	0.47
250.888	0.59
251.104	0.46
251.32	0.35
251.536	0.46
251.752	0.37
251.969	0.43
252.185	0.44
252.401	0.65
252.617	0.34
252.833	0.37
253.049	0.47
253.265	0.46
253.481	0.42
253.697	0.36
253.913	0.4
254.129	0.51
254.345	0.51
254.561	0.43
254.777	0.36
254.993	0.51
255.209	0.49
255.425	0.38
255.641	0.4
255.857	0.49
256.073	0.42
256.288	0.24
256.504	0.35
256.72	0.48
256.936	0.62
257.152	0.44
257.367	0.32
257.583	0.42
257.799	0.45
258.015	0.37
258.23	0.32
258.446	0.62
258.662	0.36
258.877	0.32
259.093	0.29
259.309	0.37
259.524	0.52
259.74	0.34
259.955	0.25
260.171	0.41
260.387	0.37
260.602	0.46
260.818	0.49
261.033	0.31
261.249	0.36
261.464	0.35
261.68	0.36
261.895	0.46
262.11	0.46
262.326	0.39
262.541	0.28
262.757	0.47
262.972	0.44
263.187	0.37
263.403	0.39
263.618	0.46
263.833	0.42
264.049	0.35
264.264	0.39
264.479	0.4
264.694	0.53
264.91	0.26
265.125	0.31
265.34	0.45
265.555	0.53
265.77	0.45
265.986	0.31
266.201	0.42
266.416	0.5
266.631	0.39
266.846	0.32
267.061	0.41
267.276	0.44
267.491	0.26
267.706	0.41
267.921	0.4
268.136	0.45
268.351	0.41
268.566	0.27
268.781	0.55
268.996	0.49
269.211	0.4
269.426	0.31
269.641	0.36
269.856	0.46
270.071	0.34
270.285	0.26
270.5	0.46
270.715	0.48
270.93	0.39
271.145	0.41
271.359	0.46
271.574	0.32
271.789	0.35
272.004	0.33
272.218	0.31
272.433	0.46
272.648	0.26
272.862	0.47
273.077	0.39
273.292	0.31
273.506	0.27
273.721	0.32
273.936	0.32
274.15	0.46
274.365	0.32
274.579	0.49
274.794	0.43
275.008	0.42
275.223	0.24
275.437	0.31
275.652	0.44
275.866	0.45
276.081	0.3
276.295	0.38
276.509	0.41
276.724	0.42
276.938	0.34
277.153	0.35
277.367	0.46
277.581	0.31
277.796	0.28
278.01	0.23
278.224	0.37
278.438	0.49
278.653	0.29
278.867	0.27
279.081	0.19
279.295	0.38
279.51	0.31
279.724	0.21
279.938	0.35
280.152	0.43
280.366	0.33
280.58	0.37
280.794	0.4
281.008	0.43
281.222	0.36
281.437	0.47
281.651	0.39
281.865	0.47
282.079	0.34
282.293	0.22
282.507	0.35
282.721	0.34
282.935	0.37
283.148	0.27
283.362	0.29
283.576	0.24
283.79	0.3
284.004	0.31
284.218	0.43
284.432	0.27
284.646	0.3
284.859	0.26
285.073	0.35
285.287	0.32
285.501	0.31
285.714	0.32
285.928	0.35
286.142	0.41
286.356	0.31
286.569	0.26
286.783	0.41
286.997	0.41
287.21	0.35
287.424	0.31
287.637	0.31
287.851	0.25
288.065	0.37
288.278	0.31
288.492	0.33
288.705	0.3
288.919	0.35
289.132	0.21
289.346	0.38
289.559	0.21
289.773	0.22
289.986	0.31
290.2	0.33
290.413	0.39
290.626	0.25
290.84	0.31
291.053	0.31
291.267	0.4
291.48	0.35
291.693	0.28
291.906	0.26
292.12	0.31
292.333	0.28
292.546	0.24
292.76	0.41
292.973	0.32
293.186	0.36
293.399	0.21
293.612	0.35
293.826	0.3
294.039	0.35
294.252	0.27
294.465	0.34
294.678	0.31
294.891	0.3
295.104	0.21
295.317	0.28
295.53	0.29
295.743	0.29
295.956	0.27
296.169	0.41
296.382	0.34
296.595	0.27
296.808	0.29
297.021	0.37
297.234	0.33
297.447	0.28
297.66	0.34
297.873	0.36
298.086	0.38
298.299	0.24
298.511	0.23
298.724	0.26
298.937	0.22
299.15	0.3
299.363	0.26
299.575	0.37
299.788	0.34
300.001	0.3
300.213	0.25
300.426	0.29
300.639	0.25
300.852	0.22
301.064	0.34
301.277	0.35
301.489	0.29
301.702	0.36
301.915	0.29
302.127	0.3
302.34	0.29
302.552	0.27
302.765	0.19
302.977	0.34
303.19	0.24
303.402	0.24
303.615	0.24
303.827	0.23
304.04	0.26
304.252	0.3
304.464	0.31
304.677	0.4
304.889	0.31
305.102	0.26
305.314	0.22
305.526	0.26
305.739	0.3
305.951	0.25
306.163	0.28
306.375	0.34
306.588	0.24
306.8	0.3
307.012	0.23
307.224	0.25
307.436	0.39
307.649	0.17
307.861	0.23
308.073	0.29
308.285	0.23
308.497	0.25
308.709	0.25
308.921	0.31
309.133	0.35
309.346	0.25
309.558	0.23
309.77	0.36
309.982	0.39
310.194	0.3
310.406	0.24
310.617	0.38
310.829	0.31
311.041	0.3
311.253	0.2
311.465	0.24
311.677	0.28
311.889	0.27
312.101	0.24
312.313	0.29
312.524	0.35
312.736	0.18
312.948	0.24
313.16	0.38
313.372	0.33
313.583	0.29
313.795	0.24
314.007	0.24
314.218	0.31
314.43	0.25
314.642	0.26
314.853	0.23
315.065	0.29
315.277	0.28
315.488	0.28
315.7	0.3
315.912	0.34
316.123	0.27
316.335	0.23
316.546	0.37
316.758	0.29
316.969	0.2
317.181	0.28
317.392	0.28
317.604	0.37
317.815	0.2
318.026	0.26
318.238	0.21
318.449	0.32
318.661	0.21
318.872	0.23
319.083	0.28
319.295	0.3
319.506	0.24
319.717	0.28
319.929	0.36
320.14	0.28
320.351	0.29
320.562	0.25
320.774	0.29
320.985	0.29
321.196	0.24
321.407	0.19
321.618	0.33
321.829	0.33
322.041	0.24
322.252	0.24
322.463	0.31
322.674	0.33
322.885	0.19
323.096	0.28
323.307	0.29
323.518	0.3
323.729	0.25
323.94	0.24
324.151	0.3
324.362	0.29
324.573	0.28
324.784	0.21
324.995	0.32
325.206	0.34
325.417	0.24
325.628	0.24
325.838	0.25
326.049	0.3
326.26	0.34
326.471	0.22
326.682	0.32
326.892	0.29
327.103	0.19
327.314	0.28
327.525	0.35
327.735	0.34
327.946	0.25
328.157	0.26
328.368	0.33
328.578	0.29
328.789	0.32
328.999	0.27
329.21	0.26
329.421	0.31
329.631	0.24
329.842	0.19
330.052	0.3
330.263	0.31
330.473	0.3
330.684	0.25
330.894	0.31
331.105	0.33
331.315	0.26
331.526	0.22
331.736	0.4
331.947	0.31
332.157	0.29
332.367	0.21
332.578	0.36
332.788	0.36
332.999	0.31
333.209	0.29
333.419	0.24
333.629	0.27
333.84	0.28
334.05	0.27
334.26	0.35
334.47	0.28
334.681	0.35
334.891	0.22
335.101	0.32
335.311	0.36
335.521	0.27
335.732	0.27
335.942	0.39
336.152	0.31
336.362	0.3
336.572	0.26
336.782	0.3
336.992	0.26
337.202	0.3
337.412	0.27
337.622	0.28
337.832	0.27
338.042	0.3
338.252	0.19
338.462	0.27
338.672	0.29
338.882	0.22
339.092	0.26
339.302	0.38
339.511	0.3
339.721	0.29
339.931	0.21
340.141	0.32
340.351	0.38
340.561	0.34
340.77	0.28
340.98	0.28
341.19	0.32
341.4	0.28
341.609	0.19
341.819	0.27
342.029	0.25
342.238	0.27
342.448	0.19
342.658	0.35
342.867	0.24
343.077	0.25
343.286	0.26
343.496	0.27
343.706	0.29
343.915	0.24
344.125	0.29
344.334	0.31
344.544	0.2
344.753	0.28
344.963	0.21
345.172	0.22
345.381	0.27
345.591	0.22
345.8	0.31
346.01	0.33
346.219	0.37
346.428	0.11
346.638	0.25
346.847	0.26
347.056	0.32
347.266	0.28
347.475	0.25
347.684	0.34
347.893	0.31
348.103	0.29
348.312	0.21
348.521	0.31
348.73	0.27
348.94	0.29
349.149	0.24
349.358	0.28
349.567	0.27
349.776	0.21
349.985	0.19
350.194	0.34
350.403	0.37
350.612	0.21
350.821	0.26
351.03	0.28
351.239	0.22
351.448	0.26
351.657	0.25
351.866	0.4
352.075	0.27
352.284	0.24
352.493	0.2
352.702	0.36
352.911	0.32
353.12	0.25
353.329	0.27
353.538	0.35
353.746	0.27
353.955	0.23
354.164	0.28
354.373	0.28
354.582	0.3
354.79	0.29
354.999	0.28
355.208	0.28
355.416	0.37
355.625	0.25
355.834	0.23
356.042	0.3
356.251	0.28
356.46	0.21
356.668	0.25
356.877	0.36
357.085	0.31
357.294	0.18
357.503	0.28
357.711	0.29
357.92	0.42
358.128	0.31
358.337	0.27
358.545	0.31
358.754	0.21
358.962	0.27
359.17	0.23
359.379	0.32
359.587	0.3
359.796	0.29
360.004	0.34
360.212	0.29
360.421	0.34
360.629	0.25
360.837	0.21
361.046	0.34
361.254	0.38
361.462	0.27
361.67	0.23
361.879	0.3
362.087	0.34
362.295	0.24
362.503	0.25
362.711	0.23
362.92	0.26
363.128	0.24
363.336	0.22
363.544	0.19
363.752	0.23
363.96	0.24
364.168	0.22
364.376	0.3
364.584	0.27
364.792	0.34
365	0.3
365.208	0.25
365.416	0.31
365.624	0.3
365.832	0.22
366.04	0.36
366.248	0.28
366.456	0.31
366.664	0.26
366.872	0.28
367.079	0.27
367.287	0.27
367.495	0.28
367.703	0.24
367.911	0.24
368.118	0.25
368.326	0.31
368.534	0.25
368.742	0.33
368.949	0.23
369.157	0.24
369.365	0.32
369.572	0.25
369.78	0.24
369.988	0.31
370.195	0.27
370.403	0.31
370.61	0.24
370.818	0.29
371.026	0.39
371.233	0.25
371.441	0.29
371.648	0.24
371.856	0.3
372.063	0.29
372.271	0.27
372.478	0.23
372.685	0.25
372.893	0.36
373.1	0.33
373.308	0.26
373.515	0.36
373.722	0.32
373.93	0.3
374.137	0.34
374.344	0.36
374.552	0.29
374.759	0.3
374.966	0.25
375.173	0.28
375.381	0.32
375.588	0.25
375.795	0.22
376.002	0.25
376.209	0.27
376.417	0.29
376.624	0.31
376.831	0.3
377.038	0.29
377.245	0.17
377.452	0.26
377.659	0.28
377.866	0.25
378.073	0.31
378.28	0.26
378.487	0.34
378.694	0.35
378.901	0.25
379.108	0.26
379.315	0.4
379.522	0.39
379.729	0.28
379.936	0.27
380.143	0.29
380.35	0.34
380.557	0.31
380.763	0.29
380.97	0.3
381.177	0.31
381.384	0.32
381.591	0.21
381.797	0.3
382.004	0.32
382.211	0.32
382.418	0.24
382.624	0.34
382.831	0.36
383.038	0.3
383.244	0.28
383.451	0.28
383.658	0.33
383.864	0.29
384.071	0.27
384.277	0.33
384.484	0.28
384.69	0.39
384.897	0.28
385.103	0.31
385.31	0.28
385.516	0.26
385.723	0.22
385.929	0.28
386.136	0.28
386.342	0.33
386.549	0.24
386.755	0.34
386.961	0.32
387.168	0.29
387.374	0.31
387.58	0.38
387.787	0.3
387.993	0.32
388.199	0.27
388.406	0.33
388.612	0.34
388.818	0.26
389.024	0.25
389.231	0.35
389.437	0.41
389.643	0.33
389.849	0.29
390.055	0.29
390.261	0.37
390.467	0.34
390.674	0.29
390.88	0.33
391.086	0.36
391.292	0.28
391.498	0.33
391.704	0.36
391.91	0.31
392.116	0.28
392.322	0.2
392.528	0.33
392.734	0.33
392.94	0.34
393.146	0.3
393.352	0.36
393.557	0.34
393.763	0.31
393.969	0.36
394.175	0.34
394.381	0.32
394.587	0.3
394.792	0.38
394.998	0.36
395.204	0.4
395.41	0.29
395.615	0.32
395.821	0.36
396.027	0.37
396.233	0.3
396.438	0.34
396.644	0.44
396.85	0.41
397.055	0.35
397.261	0.35
397.466	0.43
397.672	0.36
397.878	0.36
398.083	0.44
398.289	0.4
398.494	0.46
398.7	0.39
398.905	0.28
399.111	0.47
399.316	0.31
399.522	0.4
399.727	0.27
399.932	0.32
400.138	0.27
400.343	0.41
400.549	0.38
400.754	0.38
400.959	0.39
401.165	0.38
401.37	0.4
401.575	0.53
401.78	0.44
401.986	0.34
402.191	0.39
402.396	0.41
402.601	0.43
402.807	0.41
403.012	0.38
403.217	0.48
403.422	0.43
403.627	0.43
403.832	0.34
404.037	0.47
404.243	0.5
404.448	0.46
404.653	0.4
404.858	0.49
405.063	0.48
405.268	0.46
405.473	0.38
405.678	0.41
405.883	0.64
406.088	0.54
406.293	0.45
406.498	0.45
406.703	0.56
406.907	0.52
407.112	0.47
407.317	0.55
407.522	0.57
407.727	0.49
407.932	0.55
408.136	0.71
408.341	0.58
408.546	0.61
408.751	0.59
408.956	0.6
409.16	0.69
409.365	0.59
409.57	0.66
409.774	0.69
409.979	0.71
410.184	0.68
410.388	0.62
410.593	0.75
410.798	0.73
411.002	0.7
411.207	0.8
411.411	0.8
411.616	0.79
411.82	0.85
412.025	0.89
412.229	0.87
412.434	0.98
412.638	0.9
412.843	0.94
413.047	0.96
413.252	0.97
413.456	1.04
413.66	1.13
413.865	1.07
414.069	1.16
414.273	1.1
414.478	1.13
414.682	1.19
414.886	1.24
415.091	1.14
415.295	1.21
415.499	1.47
415.703	1.4
415.908	1.46
416.112	1.36
416.316	1.6
416.52	1.57
416.724	1.61
416.929	1.61
417.133	1.86
417.337	1.77
417.541	1.8
417.745	1.92
417.949	2
418.153	2.07
418.357	2.06
418.561	2.3
418.765	2.24
418.969	2.36
419.173	2.41
419.377	2.4
419.581	2.68
419.785	2.64
419.989	2.72
420.193	2.87
420.397	2.88
420.601	3.03
420.804	3.11
421.008	3.09
421.212	3.24
421.416	3.35
421.62	3.26
421.823	3.35
422.027	3.54
422.231	3.47
422.435	3.54
422.638	3.54
422.842	3.74
423.046	3.79
423.249	4.06
423.453	4
423.657	4.1
423.86	4.18
424.064	4.41
424.268	4.52
424.471	4.58
424.675	4.77
424.878	4.82
425.082	4.87
425.285	5.29
425.489	5.09
425.692	5.28
425.896	5.25
426.099	5.51
426.303	5.64
426.506	5.74
426.71	5.97
426.913	6.22
427.116	6.34
427.32	6.33
427.523	6.48
427.726	6.7
427.93	6.88
428.133	7.15
428.336	7.23
428.54	7.36
428.743	7.68
428.946	7.92
429.149	7.94
429.353	7.93
429.556	8.09
429.759	8.07
429.962	8.21
430.165	8.41
430.368	8.06
430.571	8.17
430.775	8.09
430.978	8.12
431.181	8.08
431.384	8.29
431.587	8.33
431.79	8.75
431.993	8.72
432.196	8.95
432.399	9.24
432.602	9.46
432.805	9.58
433.008	10.09
433.211	9.9
433.414	10.22
433.616	10.36
433.819	10.19
434.022	10.49
434.225	10.65
434.428	10.67
434.631	11.1
434.833	10.75
435.036	11.19
435.239	11.33
435.442	11.42
435.645	11.51
435.847	11.65
436.05	12.03
436.253	12.15
436.455	12.16
436.658	12.06
436.861	12.31
437.063	12.38
437.266	12.39
437.468	12.83
437.671	13.1
437.874	13.19
438.076	13.03
438.279	13.43
438.481	13.44
438.684	14.32
438.886	13.87
439.089	14.21
439.291	14.19
439.494	14.53
439.696	14.75
439.899	15.32
440.101	15.67
440.303	15.95
440.506	16.55
440.708	16.34
440.91	16.44
441.113	16.67
441.315	16.99
441.517	16.84
441.72	17.34
441.922	16.94
442.124	16.77
442.326	17.2
442.529	17.41
442.731	17.46
442.933	17.64
443.135	17.41
443.337	17.51
443.539	18.03
443.742	17.68
443.944	18.39
444.146	18.16
444.348	17.88
444.55	17.96
444.752	18.17
444.954	18.12
445.156	18.1
445.358	18.41
445.56	18.58
445.762	18.5
445.964	18.9
446.166	18.61
446.368	18.61
446.57	18.55
446.772	18.24
446.974	17.96
447.175	18.19
447.377	17.94
447.579	18.3
447.781	18.05
447.983	17.92
448.184	17.36
448.386	17.85
448.588	17.31
448.79	17.17
448.991	17.49
449.193	17.58
449.395	16.76
449.597	16.51
449.798	16.37
450	15.93
450.202	15.84
450.403	15.95
450.605	15.87
450.806	15.42
451.008	15.23
451.21	15.09
451.411	14.7
451.613	13.73
451.814	14.11
452.016	14.13
452.217	13.23
452.419	13.29
452.62	13.04
452.821	12.79
453.023	12.58
453.224	12.28
453.426	11.84
453.627	11.12
453.828	11.25
454.03	11.28
454.231	11.31
454.432	11.06
454.634	10.81
454.835	10.5
455.036	10.31
455.238	10.1
455.439	9.77
455.64	9.51
455.841	9.45
456.042	9.5
456.244	9.19
456.445	8.98
456.646	8.77
456.847	8.49
457.048	8.48
457.249	8.4
457.45	8.32
457.651	7.76
457.852	7.67
458.054	7.22
458.255	7.13
458.456	7.42
458.657	7.13
458.858	6.75
459.058	6.7
459.259	6.78
459.46	6.44
459.661	6.42
459.862	6.42
460.063	6.35
460.264	6.33
460.465	6.04
460.666	6.1
460.866	5.81
461.067	5.57
461.268	5.6
461.469	5.53
461.67	5.4
461.87	5.28
462.071	5.28
462.272	5.16
462.473	5.1
462.673	5.25
462.874	5.15
463.075	5.17
463.275	5.14
463.476	5.19
463.676	5.1
463.877	4.96
464.078	4.94
464.278	4.98
464.479	4.84
464.679	4.8
464.88	4.7
465.08	4.7
465.281	4.51
465.481	4.31
465.682	4.17
465.882	4.19
466.083	4.14
466.283	4.07
466.483	3.87
466.684	3.78
466.884	3.66
467.085	3.66
467.285	3.77
467.485	3.63
467.686	3.59
467.886	3.46
468.086	3.41
468.286	3.38
468.487	3.49
468.687	3.28
468.887	3.23
469.087	3.4
469.287	3.29
469.488	3.14
469.688	3.24
469.888	3.18
470.088	3.19
470.288	3.1
470.488	3.03
470.688	2.88
470.888	2.78
471.088	2.75
471.288	2.85
471.488	2.78
471.688	2.76
471.888	2.73
472.088	2.84
472.288	2.73
472.488	2.66
472.688	2.58
472.888	2.59
473.088	2.58
473.288	2.51
473.488	2.49
473.688	2.62
473.887	2.54
474.087	2.46
474.287	2.49
474.487	2.42
474.687	2.49
474.886	2.36
475.086	2.35
475.286	2.34
475.486	2.33
475.685	2.28
475.885	2.19
476.085	2.31
476.284	2.3
476.484	2.31
476.684	2.26
476.883	2.3
477.083	2.22
477.282	2.11
477.482	2.22
477.681	2.13
477.881	2.1
478.08	2.09
478.28	2.02
478.479	2.1
478.679	2.17
478.878	2.06
479.078	2.08
479.277	2.1
479.477	2.03
479.676	2.05
479.875	2.04
480.075	1.96
480.274	2.05
480.473	2.07
480.673	2.01
480.872	2.11
481.071	2.05
481.271	2.05
481.47	1.96
481.669	1.98
481.868	2
482.067	2.06
482.267	1.97
482.466	1.97
482.665	1.95
482.864	2
483.063	1.95
483.262	2.05
483.461	2.08
483.661	2.07
483.86	2.04
484.059	2.05
484.258	2.03
484.457	2.04
484.656	2.02
484.855	2.11
485.054	1.96
485.253	2.03
485.452	1.99
485.651	2.09
485.849	2.03
486.048	1.99
486.247	2.05
486.446	2.09
486.645	2.06
486.844	2.06
487.043	2.04
487.241	2.06
487.44	2.06
487.639	2.15
487.838	2.11
488.037	2.12
488.235	2.2
488.434	2.19
488.633	2.04
488.831	2.28
489.03	2.29
489.229	2.25
489.427	2.23
489.626	2.26
489.825	2.28
490.023	2.32
490.222	2.29
490.42	2.32
490.619	2.39
490.817	2.36
491.016	2.34
491.214	2.39
491.413	2.43
491.611	2.36
491.81	2.42
492.008	2.5
492.207	2.59
492.405	2.56
492.604	2.47
492.802	2.55
493	2.62
493.199	2.64
493.397	2.61
493.595	2.72
493.794	2.68
493.992	2.81
494.19	2.77
494.388	2.84
494.587	2.74
494.785	2.83
494.983	2.75
495.181	2.85
495.379	2.88
495.578	2.96
495.776	2.98
495.974	2.93
496.172	2.99
496.37	3.11
496.568	3.13
496.766	3.09
496.964	3.22
497.162	3.19
497.36	3.2
497.558	3.25
497.756	3.3
497.954	3.31
498.152	3.35
498.35	3.45
498.548	3.35
498.746	3.42
498.944	3.42
499.142	3.49
499.34	3.57
499.538	3.68
499.736	3.55
499.933	3.65
500.131	3.63
500.329	3.8
500.527	3.8
500.725	3.87
500.922	3.88
501.12	3.91
501.318	3.96
501.516	3.92
501.713	4.05
501.911	4.02
502.109	3.95
502.306	4.12
502.504	4.04
502.701	4.12
502.899	4.14
503.097	4.36
503.294	4.21
503.492	4.35
503.689	4.41
503.887	4.4
504.084	4.43
504.282	4.43
504.479	4.44
504.677	4.59
504.874	4.61
505.072	4.47
505.269	4.67
505.466	4.71
505.664	4.79
505.861	4.69
506.059	4.76
506.256	4.8
506.453	4.86
506.651	4.97
506.848	4.98
507.045	4.99
507.242	5.01
507.44	5.03
507.637	5.13
507.834	5.07
508.031	5.21
508.229	5.18
508.426	5.11
508.623	5.3
508.82	5.3
509.017	5.23
509.214	5.31
509.411	5.46
509.608	5.37
509.805	5.52
510.003	5.46
510.2	5.56
510.397	5.65
510.594	5.56
510.791	5.68
510.988	5.61
511.184	5.66
511.381	5.53
511.578	5.65
511.775	5.85
511.972	5.76
512.169	5.87
512.366	5.83
512.563	5.96
512.76	5.98
512.956	6.04
513.153	5.98
513.35	5.99
513.547	5.91
513.744	6.06
513.94	6.06
514.137	6.16
514.334	6.16
514.53	6.18
514.727	6.37
514.924	6.28
515.12	6.28
515.317	6.28
515.514	6.23
515.71	6.19
515.907	6.46
516.103	6.53
516.3	6.34
516.497	6.52
516.693	6.45
516.89	6.49
517.086	6.54
517.283	6.57
517.479	6.43
517.676	6.61
517.872	6.69
518.068	6.69
518.265	6.68
518.461	6.62
518.658	6.78
518.854	6.73
519.05	6.82
519.247	6.85
519.443	6.81
519.639	6.93
519.836	6.82
520.032	6.77
520.228	6.9
520.424	6.92
520.621	6.97
520.817	7
521.013	6.92
521.209	7.09
521.405	7.1
521.601	7.01
521.798	7.03
521.994	7.09
522.19	7.01
522.386	7.06
522.582	7.19
522.778	7.26
522.974	7.1
523.17	7.15
523.366	7.12
523.562	7.22
523.758	7.23
523.954	6.97
524.15	7.26
524.346	7.3
524.542	7.31
524.738	7.25
524.934	7.4
525.129	7.33
525.325	7.22
525.521	7.29
525.717	7.5
525.913	7.27
526.109	7.34
526.304	7.44
526.5	7.42
526.696	7.47
526.892	7.39
527.087	7.62
527.283	7.59
527.479	7.52
527.674	7.31
527.87	7.53
528.066	7.47
528.261	7.54
528.457	7.43
528.653	7.62
528.848	7.58
529.044	7.63
529.239	7.57
529.435	7.54
529.63	7.54
529.826	7.6
530.021	7.59
530.217	7.67
530.412	7.58
530.608	7.66
530.803	7.63
530.999	7.52
531.194	7.7
531.389	7.68
531.585	7.68
531.78	7.83
531.975	7.76
532.171	7.75
532.366	7.74
532.561	7.76
532.757	7.78
532.952	7.93
533.147	7.69
533.342	7.81
533.538	7.67
533.733	7.91
533.928	7.62
534.123	7.72
534.318	7.85
534.513	7.78
534.709	7.92
534.904	7.84
535.099	7.93
535.294	7.93
535.489	7.92
535.684	7.84
535.879	7.84
536.074	7.94
536.269	7.92
536.464	7.99
536.659	7.89
536.854	7.86
537.049	7.99
537.244	7.91
537.439	7.94
537.634	7.94
537.828	8.02
538.023	7.93
538.218	7.98
538.413	7.88
538.608	8
538.803	7.93
538.997	7.91
539.192	7.95
539.387	7.91
539.582	7.96
539.776	7.86
539.971	7.98
540.166	8.09
540.36	7.99
540.555	8.07
540.75	7.97
540.944	8.07
541.139	8.03
541.334	8.06
541.528	8.03
541.723	8.11
541.917	8.11
542.112	7.96
542.306	7.82
542.501	7.95
542.695	8.04
542.89	7.93
543.084	7.99
543.279	8.1
543.473	8.09
543.668	8.09
543.862	7.94
544.056	7.89
544.251	8.15
544.445	8.1
544.64	8.18
544.834	7.81
545.028	7.76
545.222	8.07
545.417	8.22
545.611	8.12
545.805	8.06
546	7.92
546.194	8.11
546.388	8.1
546.582	8
546.776	8
546.97	8.09
547.165	8.1
547.359	8.02
547.553	7.99
547.747	8.11
547.941	8.27
548.135	8.05
548.329	8.16
548.523	8.13
548.717	8.05
548.911	8.02
549.105	8.01
549.299	8.16
549.493	8.19
549.687	8
549.881	8.11
550.075	8.07
550.269	7.9
550.463	8.1
550.657	8.17
550.85	8.08
551.044	8.06
551.238	8.15
551.432	8.12
551.626	8.09
551.82	8.16
552.013	7.99
552.207	8.18
552.401	8.2
552.594	8.09
552.788	8.05
552.982	8.12
553.176	8.03
553.369	8.27
553.563	8.16
553.756	8.09
553.95	8.14
554.144	8.17
554.337	8.19
554.531	7.96
554.724	8.13
554.918	8.24
555.111	8.15
555.305	8.13
555.498	8.1
555.692	8.25
555.885	8.18
556.079	8.11
556.272	8.16
556.466	8.09
556.659	8.11
556.852	8.17
557.046	8.04
557.239	7.99
557.432	8.05
557.626	8.17
557.819	8.21
558.012	8.12
558.206	8.23
558.399	8.18
558.592	8.09
558.785	8.1
558.979	8.16
559.172	8.12
559.365	8.14
559.558	8.09
559.751	8.07
559.944	8.26
560.138	8.06
560.331	8.13
560.524	8.19
560.717	8.13
560.91	8.14
561.103	8.12
561.296	8.01
561.489	8.15
561.682	8.21
561.875	8.2
562.068	8.22
562.261	8
562.454	8.29
562.647	8.14
562.84	8.17
563.032	8.22
563.225	8.04
563.418	8.07
563.611	8.16
563.804	8.17
563.997	8
564.19	7.89
564.382	8.24
564.575	8.14
564.768	8.04
564.961	8.17
565.153	8.03
565.346	8
565.539	8.21
565.731	8.13
565.924	8.19
566.117	8.29
566.309	8.12
566.502	8.09
566.695	8.04
566.887	8.14
567.08	8.06
567.272	8.07
567.465	8
567.657	8.12
567.85	7.95
568.042	8.18
568.235	8.19
568.427	8.03
568.62	8.09
568.812	8.08
569.005	8.1
569.197	7.96
569.389	8.06
569.582	8.04
569.774	8.07
569.966	7.98
570.159	7.99
570.351	7.95
570.543	8.02
570.736	8
570.928	7.87
571.12	8.03
571.312	8
571.505	7.81
571.697	8.03
571.889	8.05
572.081	8.09
572.273	7.97
572.465	8.01
572.658	8.03
572.85	8.02
573.042	7.96
573.234	7.93
573.426	7.96
573.618	7.94
573.81	8.04
574.002	8
574.194	8.07
574.386	7.88
574.578	7.78
574.77	7.88
574.962	7.98
575.154	7.8
575.346	7.88
575.538	7.9
575.729	7.83
575.921	7.9
576.113	7.96
576.305	7.91
576.497	7.99
576.689	7.88
576.88	7.77
577.072	7.91
577.264	7.91
577.456	7.9
577.647	7.79
577.839	7.97
578.031	7.89
578.223	7.85
578.414	7.81
578.606	7.88
578.798	7.92
578.989	7.87
579.181	7.91
579.372	7.87
579.564	7.94
579.755	7.81
579.947	7.72
580.139	7.85
580.33	7.77
580.522	7.87
580.713	7.79
580.905	7.8
581.096	7.9
581.287	7.73
581.479	7.74
581.67	7.8
581.862	7.66
582.053	7.74
582.244	7.61
582.436	7.89
582.627	7.67
582.818	7.59
583.01	7.61
583.201	7.71
583.392	7.69
583.583	7.61
583.775	7.54
583.966	7.57
584.157	7.61
584.348	7.73
584.54	7.63
584.731	7.64
584.922	7.54
585.113	7.48
585.304	7.57
585.495	7.64
585.686	7.67
585.877	7.57
586.068	7.74
586.259	7.59
586.45	7.57
586.641	7.53
586.832	7.6
587.023	7.54
587.214	7.54
587.405	7.53
587.596	7.45
587.787	7.37
587.978	7.53
588.169	7.4
588.36	7.4
588.551	7.44
588.742	7.48
588.932	7.51
589.123	7.26
589.314	7.52
589.505	7.37
589.696	7.47
589.886	7.42
590.077	7.33
590.268	7.3
590.458	7.27
590.649	7.21
590.84	7.28
591.03	7.33
591.221	7.27
591.412	7.16
591.602	7.37
591.793	7.24
591.984	7.32
592.174	7.21
592.365	7.39
592.555	7.14
592.746	7.19
592.936	7.18
593.127	7.21
593.317	7.27
593.508	7.19
593.698	7.1
593.889	7.09
594.079	7.09
594.269	7.02
594.46	7.07
594.65	7.09
594.84	7.14
595.031	6.99
595.221	7.04
595.411	7.02
595.602	6.98
595.792	6.97
595.982	6.88
596.172	7.06
596.363	6.93
596.553	6.95
596.743	6.96
596.933	6.93
597.123	6.94
597.314	6.83
597.504	6.74
597.694	6.93
597.884	6.86
598.074	6.87
598.264	6.8
598.454	6.89
598.644	6.78
598.834	6.78
599.024	6.68
599.214	6.78
599.404	6.8
599.594	6.7
599.784	6.7
599.974	6.77
600.164	6.72
600.354	6.65
600.544	6.58
600.734	6.71
600.924	6.57
601.114	6.57
601.303	6.58
601.493	6.55
601.683	6.59
601.873	6.59
602.063	6.54
602.252	6.6
602.442	6.41
602.632	6.44
602.821	6.41
603.011	6.47
603.201	6.44
603.39	6.42
603.58	6.36
603.77	6.48
603.959	6.49
604.149	6.4
604.339	6.36
604.528	6.47
604.718	6.33
604.907	6.31
605.097	6.32
605.286	6.28
605.476	6.3
605.665	6.31
605.855	6.23
606.044	6.36
606.234	6.27
606.423	6.24
606.612	6.24
606.802	6.14
606.991	6.13
607.181	6.25
607.37	6.15
607.559	5.94
607.749	6.06
607.938	6.02
608.127	6.09
608.316	6.1
608.506	6.03
608.695	6.18
608.884	6.03
609.073	6.04
609.263	6.07
609.452	6.03
609.641	5.85
609.83	5.83
610.019	5.96
610.208	5.87
610.397	5.87
610.586	5.9
610.775	5.82
610.965	5.88
611.154	5.78
611.343	5.81
611.532	5.78
611.721	5.79
611.91	5.76
612.099	5.74
612.287	5.59
612.476	5.55
612.665	5.8
612.854	5.64
613.043	5.63
613.232	5.65
613.421	5.55
613.61	5.62
613.798	5.54
613.987	5.57
614.176	5.55
614.365	5.55
614.554	5.53
614.742	5.54
614.931	5.36
615.12	5.54
615.309	5.48
615.497	5.36
615.686	5.38
615.875	5.46
616.063	5.36
616.252	5.36
616.44	5.31
616.629	5.3
616.818	5.36
617.006	5.28
617.195	5.29
617.383	5.26
617.572	5.18
617.76	5.23
617.949	5.13
618.137	5.26
618.326	5.28
618.514	5.07
618.703	5.02
618.891	5.22
619.079	5.07
619.268	5.15
619.456	5.01
619.644	5.14
619.833	5.04
620.021	5.02
620.209	4.87
620.398	5.04
620.586	4.97
620.774	4.98
620.962	4.96
621.151	5.05
621.339	4.93
621.527	4.84
621.715	4.86
621.903	4.9
622.092	4.85
622.28	4.94
622.468	4.71
622.656	4.76
622.844	4.76
623.032	4.87
623.22	4.69
623.408	4.75
623.596	4.73
623.784	4.75
623.972	4.65
624.16	4.68
624.348	4.74
624.536	4.76
624.724	4.58
624.912	4.63
625.1	4.66
625.288	4.61
625.476	4.54
625.664	4.62
625.851	4.55
626.039	4.56
626.227	4.44
626.415	4.53
626.603	4.4
626.79	4.47
626.978	4.5
627.166	4.43
627.354	4.38
627.541	4.37
627.729	4.21
627.917	4.52
628.104	4.42
628.292	4.35
628.48	4.35
628.667	4.34
628.855	4.43
629.042	4.41
629.23	4.28
629.418	4.28
629.605	4.24
629.793	4.21
629.98	4.21
630.168	4.17
630.355	4.24
630.543	4.16
630.73	4.14
630.917	4.13
631.105	4.21
631.292	4.17
631.48	4.11
631.667	4.22
631.854	4.02
632.042	4.01
632.229	3.99
632.416	4.1
632.604	3.99
632.791	3.89
632.978	4
633.165	3.97
633.353	3.99
633.54	3.94
633.727	3.86
633.914	3.89
634.101	3.8
634.289	3.95
634.476	3.84
634.663	3.85
634.85	3.8
635.037	3.81
635.224	3.72
635.411	3.84
635.598	3.76
635.785	3.77
635.972	3.69
636.159	3.74
636.346	3.67
636.533	3.61
636.72	3.71
636.907	3.67
637.094	3.67
637.281	3.52
637.468	3.66
637.655	3.6
637.842	3.55
638.029	3.56
638.215	3.56
638.402	3.56
638.589	3.46
638.776	3.47
638.963	3.43
639.149	3.61
639.336	3.57
639.523	3.42
639.709	3.45
639.896	3.42
640.083	3.41
640.27	3.44
640.456	3.35
640.643	3.39
640.829	3.31
641.016	3.3
641.203	3.27
641.389	3.35
641.576	3.31
641.762	3.29
641.949	3.23
642.135	3.29
642.322	3.23
642.508	3.14
642.695	3.25
642.881	3.18
643.068	3.16
643.254	3.18
643.441	3.18
643.627	3.23
643.813	3.05
644	3.18
644.186	3.02
644.372	3.1
644.559	3.1
644.745	3.1
644.931	2.99
645.118	3.03
645.304	3.05
645.49	2.95
645.676	3
645.862	2.99
646.049	3.04
646.235	2.99
646.421	3.09
646.607	3.04
646.793	2.97
646.979	2.85
647.165	2.87
647.352	2.91
647.538	2.92
647.724	2.85
647.91	2.81
648.096	2.86
648.282	2.84
648.468	2.83
648.654	2.82
648.84	2.83
649.026	2.84
649.212	2.74
649.397	2.7
649.583	2.72
649.769	2.75
649.955	2.76
650.141	2.74
650.327	2.74
650.513	2.68
650.698	2.73
650.884	2.58
651.07	2.71
651.256	2.67
651.442	2.66
651.627	2.56
651.813	2.62
651.999	2.59
652.184	2.6
652.37	2.58
652.556	2.54
652.741	2.59
652.927	2.42
653.113	2.5
653.298	2.53
653.484	2.51
653.669	2.47
653.855	2.45
654.04	2.52
654.226	2.49
654.412	2.41
654.597	2.37
654.782	2.48
654.968	2.49
655.153	2.34
655.339	2.38
655.524	2.39
655.71	2.4
655.895	2.35
656.08	2.31
656.266	2.42
656.451	2.34
656.636	2.27
656.822	2.3
657.007	2.28
657.192	2.28
657.378	2.27
657.563	2.26
657.748	2.33
657.933	2.26
658.118	2.15
658.304	2.26
658.489	2.31
658.674	2.21
658.859	2.15
659.044	2.21
659.229	2.26
659.414	2.14
659.599	2.17
659.785	2.09
659.97	2.17
660.155	2.18
660.34	2.18
660.525	2.1
660.71	2.09
660.895	2.16
661.08	2.09
661.264	2.05
661.449	2.17
661.634	2.07
661.819	2.13
662.004	2.04
662.189	1.94
662.374	1.98
662.559	2.02
662.743	1.94
662.928	2.01
663.113	1.94
663.298	1.92
663.483	1.97
663.667	1.98
663.852	1.92
664.037	2.03
664.221	1.95
664.406	1.95
664.591	1.94
664.775	1.99
664.96	1.9
665.145	1.94
665.329	1.96
665.514	1.88
665.698	1.88
665.883	1.76
666.068	1.91
666.252	1.88
666.437	1.78
666.621	1.8
666.806	1.88
666.99	1.81
667.174	1.75
667.359	1.85
667.543	1.74
667.728	1.8
667.912	1.72
668.096	1.77
668.281	1.7
668.465	1.75
668.649	1.77
668.834	1.68
669.018	1.71
669.202	1.75
669.387	1.72
669.571	1.77
669.755	1.62
669.939	1.71
670.124	1.66
670.308	1.72
670.492	1.72
670.676	1.66
670.86	1.62
671.044	1.61
671.228	1.68
671.413	1.58
671.597	1.57
671.781	1.6
671.965	1.62
672.149	1.6
672.333	1.57
672.517	1.53
672.701	1.64
672.885	1.59
673.069	1.48
673.253	1.59
673.437	1.57
673.621	1.55
673.804	1.52
673.988	1.57
674.172	1.52
674.356	1.48
674.54	1.55
674.724	1.59
674.908	1.45
675.091	1.55
675.275	1.53
675.459	1.55
675.643	1.56
675.826	1.47
676.01	1.43
676.194	1.48
676.377	1.52
676.561	1.48
676.745	1.48
676.928	1.53
677.112	1.5
677.296	1.46
677.479	1.43
677.663	1.41
677.846	1.45
678.03	1.4
678.213	1.37
678.397	1.43
678.58	1.39
678.764	1.38
678.947	1.32
679.131	1.33
679.314	1.43
679.498	1.39
679.681	1.39
679.865	1.45
680.048	1.33
680.231	1.29
680.415	1.31
680.598	1.32
680.781	1.28
680.965	1.31
681.148	1.36
681.331	1.31
681.514	1.34
681.698	1.27
681.881	1.31
682.064	1.27
682.247	1.35
682.43	1.15
682.614	1.28
682.797	1.32
682.98	1.31
683.163	1.13
683.346	1.25
683.529	1.25
683.712	1.27
683.895	1.3
684.078	1.23
684.261	1.19
684.444	1.28
684.627	1.27
684.81	1.17
684.993	1.18
685.176	1.21
685.359	1.07
685.542	1.12
685.725	1.27
685.908	1.17
686.091	1.15
686.274	1.18
686.457	1.21
686.639	1.17
686.822	1.23
687.005	1.21
687.188	1.2
687.371	1.29
687.553	1.19
687.736	1.13
687.919	1.25
688.102	1.21
688.284	1.11
688.467	1.07
688.65	1.15
688.832	0.97
689.015	1.08
689.197	1.01
689.38	1.22
689.563	1.14
689.745	1.01
689.928	1.04
690.11	0.97
690.293	1.1
690.475	0.95
690.658	1.14
690.84	1.1
691.023	1.01
691.205	1
691.388	1.05
691.57	1.12
691.752	1.06
691.935	0.92
692.117	0.98
692.3	1.05
692.482	0.99
692.664	0.96
692.847	1.07
693.029	1.08
693.211	1.08
693.393	0.99
693.576	0.91
693.758	0.98
693.94	0.96
694.122	0.94
694.304	0.97
694.487	0.93
694.669	1
694.851	0.9
695.033	0.92
695.215	0.9
695.397	0.93
695.579	0.93
695.761	0.88
695.943	0.89
696.125	1.04
696.308	0.96
696.49	0.83
696.671	1.09
696.853	0.87
697.035	1.12
697.217	0.89
697.399	0.96
697.581	0.89
697.763	0.96
697.945	0.8
698.127	0.89
698.309	0.79
698.491	0.84
698.672	0.91
698.854	0.95
699.036	0.98
699.218	0.86
699.399	0.94
699.581	0.99
699.763	0.93
699.945	0.83
700.126	0.75
700.308	0.83
700.49	0.83
700.671	0.75
700.853	0.78
701.035	0.82
701.216	0.79
701.398	0.74
701.579	0.84
701.761	0.9
701.943	0.8
702.124	0.78
702.306	0.8
702.487	0.94
702.669	0.86
702.85	0.76
703.031	0.71
703.213	0.9
703.394	0.89
703.576	0.76
703.757	0.96
703.938	0.86
704.12	0.95
704.301	0.8
704.483	0.75
704.664	0.81
704.845	0.9
705.026	0.86
705.208	0.79
705.389	0.78
705.57	0.8
705.751	0.76
705.933	0.74
706.114	0.85
706.295	0.82
706.476	0.71
706.657	0.88
706.838	0.8
707.02	0.85
707.201	0.72
707.382	0.75
707.563	0.74
707.744	0.71
707.925	0.66
708.106	0.7
708.287	0.73
708.468	0.84
708.649	0.7
708.83	0.76
709.011	0.69
709.192	0.8
709.373	0.63
709.554	0.76
709.734	0.85
709.915	0.84
710.096	0.71
710.277	0.58
710.458	0.76
710.639	0.77
710.819	0.6
711	0.64
711.181	0.77
711.362	0.79
711.542	0.68
711.723	0.71
711.904	0.77
712.085	0.73
712.265	0.68
712.446	0.63
712.627	0.66
712.807	0.66
712.988	0.72
713.168	0.54
713.349	0.77
713.53	0.52
713.71	0.58
713.891	0.59
714.071	0.68
714.252	0.66
714.432	0.58
714.613	0.54
714.793	0.68
714.974	0.73
715.154	0.74
715.334	0.76
715.515	0.72
715.695	0.54
715.876	0.61
716.056	0.53
716.236	0.61
716.417	0.63
716.597	0.62
716.777	0.88
716.957	0.6
717.138	0.69
717.318	0.55
717.498	0.49
717.678	0.73
717.859	0.6
718.039	0.52
718.219	0.65
718.399	0.59
718.579	0.56
718.759	0.52
718.939	0.68
719.12	0.73
719.3	0.61
719.48	0.43
719.66	0.51
719.84	0.73
720.02	0.59
720.2	0.37
720.38	0.64
720.56	0.75
720.74	0.43
720.92	0.57
721.1	0.68
721.279	0.74
721.459	0.56
721.639	0.52
721.819	0.59
721.999	0.59
722.179	0.64
722.359	0.4
722.538	0.49
722.718	0.65
722.898	0.59
723.078	0.65
723.257	0.52
723.437	0.57
723.617	0.58
723.797	0.56
723.976	0.57
724.156	0.59
724.336	0.68
724.515	0.74
724.695	0.45
724.874	0.56
725.054	0.63
725.234	0.5
725.413	0.55
725.593	0.53
725.772	0.58
725.952	0.56
726.131	0.56
726.311	0.53
726.49	0.6
726.67	0.46
726.849	0.51
727.028	0.66
727.208	0.57
727.387	0.57
727.567	0.4
727.746	0.46
727.925	0.48
728.105	0.42
728.284	0.53
728.463	0.45
728.643	0.7
728.822	0.48
729.001	0.51
729.18	0.55
729.359	0.74
729.539	0.46
729.718	0.53
729.897	0.58
730.076	0.5
730.255	0.35
730.434	0.44
730.614	0.61
730.793	0.63
730.972	0.44
731.151	0.58
731.33	0.64
731.509	0.51
731.688	0.56
731.867	0.49
732.046	0.36
732.225	0.74
732.404	0.48
732.583	0.44
732.762	0.51
732.941	0.69
733.12	0.54
733.298	0.46
733.477	0.69
733.656	0.46
733.835	0.4
734.014	0.55
734.193	0.58
734.371	0.63
734.55	0.57
734.729	0.41
734.908	0.57
735.086	0.53
735.265	0.7
735.444	0.3
735.623	0.53
735.801	0.54
735.98	0.5
736.159	0.48
736.337	0.51
736.516	0.6
736.694	0.58
736.873	0.62
737.052	0.76
737.23	0.78
737.409	0.3
737.587	0.78
737.766	0.35
737.944	0.55
738.123	0.61
738.301	0.55
738.479	0.51
738.658	0.61
738.836	0.42
739.015	0.58
739.193	0.69
739.371	0.32
739.55	0.6
739.728	0.44
739.906	0.59
740.085	0.57
740.263	0.58
740.441	0.36
740.62	0.75
740.798	0.61
740.976	0.37
741.154	0.45
741.332	0.67
741.511	0.46
741.689	0.57
741.867	0.58
742.045	0.57
742.223	0.48
742.401	0.36
742.579	0.42
742.757	0.58
742.935	0.27
743.114	0.49
743.292	0.47
743.47	0.54
743.648	0.5
743.826	0.38
744.004	0.51
744.181	0.59
744.359	0.47
744.537	0.52
744.715	0.52
744.893	0.47
745.071	0.44
745.249	0.54
745.427	0.54
745.605	0.55
745.782	0.6
745.96	0.49
746.138	0.53
746.316	0.69
746.493	0.42
746.671	0.46
746.849	0.39
747.027	0.65
747.204	0.41
747.382	0.56
747.56	0.29
747.737	0.48
747.915	0.35
748.093	0.54
748.27	0.38
748.448	0.46
748.625	0.4
748.803	0.38
748.98	0.28
749.158	0.61
749.335	0.63
749.513	0.47
749.69	0.24
749.868	0.42
750.045	0.51
750.223	0.39
750.4	0.29
750.578	0.67
750.755	0.42
750.932	0.27
751.11	0.55
751.287	0.37
751.464	0.65
751.642	0.38
751.819	0.53
751.996	0.57
752.173	0.41
752.351	0.29
752.528	0.43
752.705	0.46
752.882	0.42
753.06	0.4
753.237	0.56
753.414	0.72
753.591	0.8
753.768	0.46
753.945	0.43
754.122	0.41
754.299	0.51
754.476	0.34
754.654	0.3
754.831	0.67
755.008	0.56
755.185	0.42
755.362	0.33
755.539	0.57
755.716	0.4
755.892	0.45
756.069	0.35
756.246	0.55
756.423	0.32
756.6	0.58
756.777	0.33
756.954	0.5
757.131	0.4
757.307	0.38
757.484	0.33
757.661	0.38
757.838	0.45
758.015	0.29
758.191	0.45
758.368	0.45
758.545	0.63
758.721	0.44
758.898	0.4
759.075	0.57
759.251	0.49
759.428	0.47
759.605	0.32
759.781	0.45
759.958	0.45
760.134	0.58
760.311	0.4
760.488	0.59
760.664	0.61
760.841	0.42
761.017	0.41
761.194	0.56
761.37	0.62
761.547	0.48
761.723	0.41
761.899	0.52
762.076	0.34
762.252	0.35
762.429	0.44
762.605	0.51
762.781	0.33
762.958	0.5
763.134	0.32
763.31	0.33
763.486	0.61
763.663	0.24
763.839	0.39
764.015	0.12
764.191	0.37
764.368	0.4
764.544	0.27
764.72	0.53
764.896	0.47
765.072	0.43
765.248	0.41
765.425	0.49
765.601	0.47
765.777	0.42
765.953	0.2
766.129	0.32
766.305	0.29
766.481	0.58
766.657	0.44
766.833	0.57
767.009	0.3
767.185	0.34
767.361	0.43
767.537	0.31
767.713	0.73
767.889	0.43
768.065	0.43
768.24	0.19
768.416	0.62
768.592	0.37
768.768	0.4
768.944	0.44
769.12	0.34
769.295	0.55
769.471	0.44
769.647	0.53
769.823	0.79
769.998	0.44
770.174	0.27
770.35	0.9
770.525	0.79
770.701	0.55
770.877	0.52
771.052	0.46
771.228	0.48
771.403	0.65
771.579	0.44
771.755	0.74
771.93	0.5
772.106	0.35
772.281	0.32
772.457	0.41
772.632	0.6
772.808	0.26
772.983	0.39
773.159	0.31
773.334	0.63
773.509	0.45
773.685	0.26
773.86	0.9
774.036	0.73
774.211	0.48
774.386	0.45
774.562	0.52
774.737	0.53
774.912	0.33
775.087	0.59
775.263	0.43
775.438	0.51
775.613	0.36
775.788	0.45
775.964	0.58
776.139	0.98
776.314	0.25
776.489	0.56
776.664	0.51
776.839	0.38
777.014	0.6
777.19	0.62
777.365	0.82
777.54	0.55
777.715	0.26
777.89	0.41
778.065	0.28
778.24	0.47
778.415	0.66
778.59	0.3
778.765	0.41
778.94	0.56
779.115	0.28
779.289	0.34
779.464	0.36
779.639	0.51
779.814	0.3
779.989	0.32
780.164	0.64
780.339	0.49
780.513	0.43
780.688	0.13
780.863	0.62
781.038	0.7
781.212	0.27
781.387	0.45
781.562	0.96
781.737	0.45
781.911	0.59
782.086	0.43
782.261	0.56
782.435	0.82
782.61	0.55
782.784	0.24
782.959	0.75
783.134	0.31
783.308	0.39
783.483	0.5
783.657	1.03
783.832	0.8
784.006	0.35
784.181	0.5
784.355	0.72
784.53	0.29
784.704	0.43
784.878	0.93
785.053	0.67
785.227	0.91
785.402	1.03
785.576	0.27
785.75	0.59
785.925	0.57
786.099	0.39
786.273	0.68
786.448	0.91
786.622	0.62
786.796	0.23
786.97	0.41
787.145	1.23
787.319	0.17
787.493	0.64
787.667	0.21
787.841	0.63
788.015	0.81
788.19	0.35
788.364	0.41
788.538	0.68
788.712	0.81
788.886	0.38
789.06	0.69
789.234	0.68
789.408	0.27
789.582	0.41
789.756	0.55
789.93	0.52
790.104	0.3
790.278	0.47
790.452	0.19
790.626	0.67
790.8	0.39
790.973	0.94
791.147	0.7
791.321	1.14
791.495	0.74
791.669	0.51
791.843	0.62
792.016	0.65
792.19	1.19
792.364	0.32
792.538	1.16
792.711	0.97
792.885	0.45
793.059	0.33
793.233	-0.2
793.406	0.76
793.58	0.6
793.754	0.71
793.927	0.47
794.101	1.04
794.274	0.53
794.448	0.62
794.622	0.41
794.795	1.1
794.969	0.48
795.142	0.97
795.316	0.7
795.489	0.37
795.663	0.89
795.836	0.52
796.009	0.49
796.183	1.02
796.356	0.7
796.53	0.6
796.703	0.54
796.876	1.08
797.05	0.7
797.223	0.56
797.396	0.62
797.57	0.74
797.743	1.23
797.916	0.45
798.09	0.62
798.263	0.92
798.436	0.86
798.609	0.48
798.782	0.61
798.956	0.67
799.129	0.64
799.302	0.45
799.475	0.4
799.648	0.51
799.821	0.6
799.994	0.68
800.167	0
800.34	0.57
800.514	0.76
800.687	0.5
800.86	0.6
801.033	0.87
801.206	0.97
801.379	0.55
801.551	0.79
801.724	0.73
801.897	1.48
802.07	0.62
802.243	-0.04
802.416	0.88
802.589	0.82
802.762	0.72
802.935	0.29
803.107	0.86
803.28	1.19
803.453	0.76
803.626	0.61
803.798	0.72
803.971	0.48
804.144	0.82
804.317	0.5
804.489	0.87
804.662	0.99
804.835	0.74
805.007	0.48
805.18	1.28
805.353	0.73
805.525	0.42
805.698	0.33
805.87	1.01
806.043	1.03
806.215	0.46
806.388	0.49
806.56	0.88
806.733	1.14
806.905	0.78
807.078	0.58
807.25	0.21
807.423	1.22
807.595	0.83
807.768	0.47
807.94	1.12
808.112	1.05
808.285	0.72
808.457	0.34
808.629	0.52
808.802	1.16
808.974	0.86
809.146	0.56
809.318	0.44
809.491	1.01
809.663	1.23
809.835	0.53
810.007	1.1
810.18	0.67
810.352	0.35
810.524	0.62
810.696	1.15
810.868	1.32
811.04	0.59
811.212	0.67
811.384	1.08
811.556	0.89
811.728	0.65
811.901	1.55
812.073	0.89
812.245	1.42
812.417	0.61
812.589	0.18
812.76	0.73
812.932	0.87
813.104	1.46
813.276	0.85
813.448	1.35
813.62	0.86
813.792	0.81
813.964	0.66
814.136	1.12
814.307	0.84
814.479	0.31
814.651	0.71
814.823	2.01
814.995	0.66
815.166	0.99
815.338	0.59
815.51	0.54
815.681	1.97
815.853	1.02
816.025	0.72
816.196	1.52
816.368	1.44
816.54	0.48
816.711	0.84
816.883	1.16
817.054	2.2
817.226	0.12
817.398	1.18
817.569	0.68
817.741	0.78
817.912	0.67
818.084	0.47
818.255	1.72
818.426	0.65
818.598	0.54
818.769	0.64
818.941	1.23
819.112	1.59
819.283	1.1
819.455	0.68
819.626	0.97
819.798	0.94
819.969	1.25
820.14	0.3
820.311	0.48
820.483	1.05
820.654	0.93
820.825	1.26
820.996	1.05
821.168	0.98
821.339	0.78
821.51	0.21
821.681	0.9
821.852	0.98
822.023	0.2
822.195	0.26
822.366	1.65
822.537	0.87
822.708	1.11
822.879	0.8
823.05	1.54
823.221	0.89
823.392	0.86
823.563	1.14
823.734	1.61
823.905	1.39
824.076	0.9
824.247	0.46
824.418	0.61
824.589	2.09
824.759	0.79
824.93	0.97
825.101	0.56
825.272	1.69
825.443	1.59
825.614	1.87
825.784	0.47
825.955	2.35
826.126	1.47
826.297	0.63
826.467	1.72
826.638	2.75
826.809	0.57
826.98	1.15
827.15	1.76
827.321	1.47
827.492	1.79
827.662	0.94
827.833	2.43
828.003	1.46
828.174	0.54
828.345	0.15
828.515	2.11
828.686	1.77
828.856	1.08
829.027	1.31
829.197	1.68
829.368	1.63
829.538	0.9
829.709	0.35
829.879	1.24
830.049	1.27
830.22	0.76
830.39	0.71
830.56	1.52
830.731	1.12
830.901	0.61
831.072	1.39
831.242	1.37
831.412	1.84
831.582	0.84
831.753	-0.15
831.923	1.83
832.093	1.79
832.263	1.09
832.434	0.73
832.604	0.91
832.774	1.73
832.944	1.04
833.114	0.9
833.284	1.22
833.454	0.73
833.624	0.49
833.795	0.8
833.965	1.74
834.135	2.43
834.305	0.05
834.475	0.31
834.645	1.79
834.815	0.63
834.985	0.68
835.155	0.5
835.325	2.26
835.494	1.85
835.664	0.51
835.834	0.38
836.004	0.98
836.174	2.22
836.344	0.93
836.514	0.63
836.684	1.13
836.853	1.81
837.023	1.6
837.193	1.23
837.363	2.09
837.532	2.4
837.702	0.85
837.872	0.83
838.041	1.61
838.211	2.39
838.381	0.5
838.55	1.34
838.72	4.04
838.89	2.37
839.059	1.4
839.229	0.55
839.398	3.74
839.568	1.42
839.738	0.95
839.907	2.25
840.077	1.77
840.246	1.25
840.416	0.65
840.585	-0.08
840.755	2.28
840.924	2.45
841.093	0.43
841.263	0.98
841.432	1.21
841.602	1.22
841.771	0.96
841.94	1.31
842.11	3.49
842.279	3.7
842.448	0.73
842.617	0.8
842.787	2.19
842.956	0.48
843.125	1.87
843.294	1.55
843.464	3.19
843.633	1.79
843.802	0.17
843.971	0.9
844.14	1.9
844.309	2.2
844.479	-0.13
844.648	0.85
844.817	1.57
844.986	2.44
845.155	1.46
845.324	1.11
845.493	0.75
845.662	0.62
845.831	1.85
846	1.82
846.169	1.38
846.338	3.79
846.507	1.79
846.676	2.02
846.844	1.5
847.013	2.42
847.182	1.99
847.351	0.88
847.52	0.88
847.689	1.56
847.858	1.22
848.026	1.67
848.195	1.8
848.364	1.61
848.533	0.63
848.701	1.02
848.87	2.31
849.039	3.46
849.207	2.08
849.376	2.46
849.545	3.34
849.713	1.22
849.882	1.79
850.051	1.28
850.219	1.78
850.388	2.38
850.556	0.1
850.725	1.48
850.893	1.85
851.062	1.87
851.23	1.81
851.399	0.09
851.567	1.59
851.736	1.16
851.904	0.92
852.073	2.98
852.241	3.3
852.41	3.19
852.578	1.63
852.746	0.4
852.915	2.01
853.083	2.3
853.251	0.37
853.42	0.75
853.588	2.51
853.756	3.23
853.924	2.13
854.093	1.02
854.261	1.98
854.429	-0.01
854.597	2.88
854.765	1.14
854.934	2.89
855.102	2.61
855.27	1.94
855.438	2.94
855.606	4.06
855.774	3.11
855.942	-0.14
856.11	-0.02
856.278	2.74
856.446	2.92
856.614	2.49
856.782	0.88
856.95	3.51
857.118	2.22
857.286	3.18
857.454	1.25
857.622	3.23
857.79	4.05
857.958	0.06
858.126	1.55
858.294	0.46
858.462	2.01
858.629	0.44
858.797	0.28
858.965	2.49
859.133	2.07
859.301	1.36
859.468	2.24
859.636	0.61
859.804	4
859.971	2.53
860.139	0.1
860.307	3.46
860.474	2.98
860.642	1.14
860.81	0.23
860.977	1.52
861.145	3.93
861.313	2.01
861.48	1.79
861.648	3.98
861.815	2.34
861.983	1.62
862.15	0.74
862.318	4.01
862.485	3.4
862.653	1.2
862.82	1.11
862.988	3.89
863.155	3.31
863.322	1.2
863.49	2.46
863.657	1.62
863.824	4.14
863.992	1.93
864.159	2.49
864.326	4.19
864.494	2.24
864.661	6.11
864.828	1.13
864.996	5.42
865.163	4.57
865.33	1.19
865.497	-0.63
865.664	1.88
865.832	0.75
865.999	3.33
866.166	2.07
866.333	2.45
866.5	1.35
866.667	1.22
866.834	2.26
867.001	5.26
867.168	0.94
867.335	2.31
867.502	0.56
867.669	2.88
867.836	5.88
868.003	1.66
868.17	3.78
868.337	5.65
868.504	8.31
868.671	-0.14
868.838	1.89
869.005	4.34
869.172	3.22
869.339	2.9
869.505	3.43
869.672	2.72
869.839	5.62
870.006	3.31
870.173	1.2
870.339	2.29
870.506	6.05
870.673	0.08
870.84	2.78
871.006	2.05
871.173	3.81
871.34	3.4
871.506	1.78
871.673	3.64
871.839	1.08
872.006	2.11
872.173	1.51
872.339	5.1
872.506	5.2
872.672	1.78
872.839	-0.3
873.005	3.21
873.172	6.98
873.338	4.69
873.505	4.36
873.671	3.23
873.838	3.69
874.004	1.22
874.171	2.07
874.337	4.71
874.503	4.14
874.67	2.89
874.836	2.21
875.002	5.72
875.169	3.79
875.335	2.95
875.501	3.38
875.668	3.49
875.834	1.91
876	1.08
876.166	2.66
876.332	4
876.499	6.15
876.665	2.23
876.831	-0
876.997	6.68
877.163	4.94
877.329	0.97
877.495	3.82
877.662	4.47
877.828	3.57
877.994	2.93
878.16	-1.72
878.326	1.16
878.492	3.39
878.658	3.07
878.824	4.05
878.99	5.34
879.156	1.75
879.322	5.86
879.487	1.4
879.653	3.96
879.819	3.11
879.985	2.4
880.151	4.14
880.317	3.63
880.483	5.02
880.648	1.79
880.814	2.28
880.98	3.36
881.146	0.23
881.312	0.24
881.477	1.99
881.643	2.59
881.809	4.95
881.974	4.1
882.14	2.78
882.306	4.16
882.471	6.39
882.637	2.71
882.803	3
882.968	5.54
883.134	8.38
883.299	3.18
883.465	2.26
883.63	6.01
883.796	4.77
883.961	4.54
884.127	1.86
884.292	-2.12
884.458	-1.03
884.623	-1.03
