Data from Apollo_Calib_20240827__AbsoluteIrradiance__803__12-32-01-333.txt Node

Date: Wed Aug 28 12:32:01 BST 2024
User: biology
Spectrometer: FLMT08252
Trigger mode: 0
Integration Time (sec): 5.000000E-1
Scans to average: 5
Electric dark correction enabled: true
Nonlinearity correction enabled: false
Boxcar width: 0
XAxis mode: Wavelengths
Number of Pixels in Spectrum: 3648
>>>>>Begin Spectral Data<<<<<
179.588	-0
179.809	-0
180.03	-0
180.251	-0
180.473	-0
180.694	0
180.915	0
181.136	-0
181.357	0
181.578	0
181.799	-0
182.02	-0
182.241	-0
182.462	-0
182.683	0
182.904	-0
183.125	-0
183.346	0
183.567	0
183.788	0
184.009	0
184.23	0
184.451	0
184.672	0
184.892	0
185.113	0
185.334	0
185.555	0
185.776	0
185.996	0
186.217	0
186.438	0
186.659	0
186.879	0
187.1	0
187.321	0
187.541	0
187.762	0
187.983	0
188.203	0
188.424	0
188.644	0
188.865	0
189.086	0
189.306	0
189.527	0
189.747	0
189.968	0
190.188	0
190.409	0
190.629	0
190.849	0
191.07	0
191.29	0
191.511	0
191.731	0
191.951	0
192.172	0
192.392	0
192.612	0
192.833	0
193.053	0
193.273	0
193.493	0
193.714	0
193.934	0
194.154	0
194.374	0
194.594	0
194.815	0
195.035	0
195.255	0
195.475	0
195.695	0
195.915	0
196.135	0
196.355	0
196.575	0
196.795	0
197.015	0
197.235	0
197.455	0
197.675	0
197.895	0
198.115	0
198.335	0
198.555	0
198.775	0
198.995	0
199.214	0
199.434	0
199.654	0
199.874	0
200.094	4.23
200.313	2.79
200.533	2.02
200.753	1.36
200.973	3.91
201.192	4.11
201.412	1.7
201.632	1.98
201.851	3.17
202.071	1.9
202.291	1.52
202.51	0.96
202.73	2.2
202.95	1.61
203.169	1.46
203.389	1.99
203.608	1.98
203.828	1.41
204.047	1.51
204.267	2.36
204.486	2.14
204.706	2.28
204.925	1.76
205.145	1.48
205.364	2.22
205.583	2.75
205.803	1.29
206.022	1.2
206.242	1.69
206.461	1.31
206.68	1.34
206.9	1.5
207.119	2.42
207.338	2.31
207.557	1.22
207.777	1.19
207.996	1.31
208.215	1.91
208.434	1.22
208.654	0.8
208.873	1.07
209.092	2.32
209.311	1.22
209.53	0.92
209.749	1.17
209.968	1.01
210.187	1.37
210.407	0.82
210.626	1.01
210.845	1.63
211.064	0.93
211.283	0.86
211.502	1.65
211.721	1.11
211.94	0.91
212.159	1.37
212.377	1.38
212.596	1.73
212.815	1.33
213.034	1.29
213.253	1.39
213.472	1.29
213.691	0.93
213.91	0.85
214.128	0.8
214.347	1.63
214.566	0.49
214.785	0.68
215.003	1.3
215.222	1.27
215.441	0.96
215.66	0.38
215.878	0.98
216.097	1.29
216.316	0.94
216.534	0.74
216.753	1.11
216.972	0.8
217.19	0.83
217.409	0.64
217.627	0.73
217.846	0.88
218.064	1
218.283	0.33
218.501	1.26
218.72	1.24
218.938	0.61
219.157	0.83
219.375	1.08
219.594	0.94
219.812	0.54
220.031	0.6
220.249	1.13
220.467	1.19
220.686	0.72
220.904	0.53
221.122	0.57
221.341	1.39
221.559	0.83
221.777	0.34
221.995	0.88
222.214	0.96
222.432	0.61
222.65	0.87
222.868	0.8
223.086	0.79
223.305	0.84
223.523	0.61
223.741	1.27
223.959	0.64
224.177	0.39
224.395	0.6
224.613	0.73
224.831	0.85
225.049	0.57
225.267	0.55
225.485	0.62
225.703	0.58
225.921	0.72
226.139	0.52
226.357	0.76
226.575	0.76
226.793	0.58
227.011	1.41
227.229	0.76
227.447	0.9
227.665	0.52
227.883	0.37
228.1	0.71
228.318	0.85
228.536	0.29
228.754	0.48
228.972	0.74
229.189	0.84
229.407	0.49
229.625	0.57
229.843	0.94
230.06	0.76
230.278	0.53
230.496	0.58
230.713	0.72
230.931	0.77
231.149	0.45
231.366	0.33
231.584	0.46
231.801	1.11
232.019	0.56
232.236	0.4
232.454	0.61
232.671	0.62
232.889	0.5
233.106	0.48
233.324	0.73
233.541	0.48
233.759	0.59
233.976	0.44
234.194	0.62
234.411	0.52
234.628	0.46
234.846	0.45
235.063	0.52
235.28	0.55
235.498	0.59
235.715	0.38
235.932	0.76
236.149	0.53
236.367	0.42
236.584	0.47
236.801	0.52
237.018	0.64
237.236	0.46
237.453	0.29
237.67	0.57
237.887	0.52
238.104	0.47
238.321	0.41
238.538	0.34
238.755	0.66
238.973	0.31
239.19	0.55
239.407	0.6
239.624	0.5
239.841	0.37
240.058	0.37
240.275	0.57
240.492	0.48
240.709	0.42
240.925	0.31
241.142	0.51
241.359	0.38
241.576	0.32
241.793	0.44
242.01	0.47
242.227	0.67
242.444	0.44
242.66	0.64
242.877	0.6
243.094	0.4
243.311	0.41
243.527	0.44
243.744	0.5
243.961	0.5
244.178	0.35
244.394	0.5
244.611	0.54
244.828	0.67
245.044	0.42
245.261	0.42
245.477	0.45
245.694	0.66
245.911	0.41
246.127	0.48
246.344	0.57
246.56	0.53
246.777	0.36
246.993	0.37
247.21	0.48
247.426	0.53
247.643	0.34
247.859	0.25
248.076	0.32
248.292	0.61
248.508	0.32
248.725	0.42
248.941	0.54
249.157	0.62
249.374	0.34
249.59	0.42
249.806	0.5
250.023	0.49
250.239	0.39
250.455	0.27
250.671	0.39
250.888	0.45
251.104	0.5
251.32	0.39
251.536	0.4
251.752	0.41
251.969	0.43
252.185	0.35
252.401	0.65
252.617	0.49
252.833	0.38
253.049	0.38
253.265	0.34
253.481	0.39
253.697	0.38
253.913	0.29
254.129	0.42
254.345	0.53
254.561	0.39
254.777	0.37
254.993	0.44
255.209	0.4
255.425	0.35
255.641	0.31
255.857	0.45
256.073	0.53
256.288	0.29
256.504	0.31
256.72	0.47
256.936	0.57
257.152	0.35
257.367	0.33
257.583	0.42
257.799	0.43
258.015	0.3
258.23	0.4
258.446	0.65
258.662	0.34
258.877	0.34
259.093	0.33
259.309	0.32
259.524	0.49
259.74	0.37
259.955	0.23
260.171	0.42
260.387	0.38
260.602	0.44
260.818	0.4
261.033	0.34
261.249	0.43
261.464	0.27
261.68	0.28
261.895	0.45
262.11	0.43
262.326	0.36
262.541	0.29
262.757	0.51
262.972	0.44
263.187	0.37
263.403	0.39
263.618	0.47
263.833	0.42
264.049	0.33
264.264	0.33
264.479	0.39
264.694	0.5
264.91	0.28
265.125	0.34
265.34	0.48
265.555	0.57
265.77	0.37
265.986	0.32
266.201	0.44
266.416	0.51
266.631	0.31
266.846	0.32
267.061	0.45
267.276	0.44
267.491	0.16
267.706	0.38
267.921	0.44
268.136	0.4
268.351	0.34
268.566	0.21
268.781	0.5
268.996	0.42
269.211	0.37
269.426	0.28
269.641	0.28
269.856	0.43
270.071	0.29
270.285	0.24
270.5	0.46
270.715	0.39
270.93	0.3
271.145	0.34
271.359	0.43
271.574	0.29
271.789	0.35
272.004	0.3
272.218	0.37
272.433	0.39
272.648	0.27
272.862	0.41
273.077	0.38
273.292	0.32
273.506	0.29
273.721	0.29
273.936	0.36
274.15	0.4
274.365	0.31
274.579	0.36
274.794	0.38
275.008	0.36
275.223	0.19
275.437	0.26
275.652	0.39
275.866	0.38
276.081	0.33
276.295	0.4
276.509	0.28
276.724	0.32
276.938	0.3
277.153	0.32
277.367	0.41
277.581	0.28
277.796	0.31
278.01	0.26
278.224	0.4
278.438	0.51
278.653	0.28
278.867	0.28
279.081	0.14
279.295	0.28
279.51	0.38
279.724	0.22
279.938	0.35
280.152	0.33
280.366	0.25
280.58	0.3
280.794	0.42
281.008	0.33
281.222	0.35
281.437	0.47
281.651	0.35
281.865	0.4
282.079	0.31
282.293	0.15
282.507	0.27
282.721	0.31
282.935	0.26
283.148	0.19
283.362	0.3
283.576	0.23
283.79	0.33
284.004	0.24
284.218	0.44
284.432	0.3
284.646	0.28
284.859	0.19
285.073	0.28
285.287	0.33
285.501	0.34
285.714	0.26
285.928	0.33
286.142	0.3
286.356	0.24
286.569	0.24
286.783	0.41
286.997	0.36
287.21	0.27
287.424	0.27
287.637	0.29
287.851	0.28
288.065	0.32
288.278	0.26
288.492	0.33
288.705	0.28
288.919	0.39
289.132	0.2
289.346	0.37
289.559	0.21
289.773	0.23
289.986	0.25
290.2	0.29
290.413	0.37
290.626	0.21
290.84	0.24
291.053	0.31
291.267	0.42
291.48	0.27
291.693	0.24
291.906	0.2
292.12	0.31
292.333	0.26
292.546	0.24
292.76	0.36
292.973	0.32
293.186	0.31
293.399	0.25
293.612	0.33
293.826	0.33
294.039	0.25
294.252	0.22
294.465	0.34
294.678	0.3
294.891	0.29
295.104	0.24
295.317	0.21
295.53	0.3
295.743	0.27
295.956	0.24
296.169	0.41
296.382	0.35
296.595	0.25
296.808	0.26
297.021	0.42
297.234	0.33
297.447	0.24
297.66	0.35
297.873	0.31
298.086	0.35
298.299	0.22
298.511	0.17
298.724	0.28
298.937	0.18
299.15	0.18
299.363	0.25
299.575	0.33
299.788	0.3
300.001	0.19
300.213	0.27
300.426	0.27
300.639	0.21
300.852	0.17
301.064	0.31
301.277	0.37
301.489	0.34
301.702	0.26
301.915	0.28
302.127	0.31
302.34	0.29
302.552	0.26
302.765	0.21
302.977	0.35
303.19	0.19
303.402	0.23
303.615	0.25
303.827	0.27
304.04	0.23
304.252	0.29
304.464	0.24
304.677	0.38
304.889	0.29
305.102	0.18
305.314	0.17
305.526	0.29
305.739	0.32
305.951	0.22
306.163	0.22
306.375	0.36
306.588	0.21
306.8	0.23
307.012	0.19
307.224	0.3
307.436	0.33
307.649	0.17
307.861	0.27
308.073	0.3
308.285	0.25
308.497	0.19
308.709	0.19
308.921	0.3
309.133	0.3
309.346	0.22
309.558	0.26
309.77	0.3
309.982	0.38
310.194	0.29
310.406	0.22
310.617	0.39
310.829	0.27
311.041	0.24
311.253	0.2
311.465	0.27
311.677	0.26
311.889	0.28
312.101	0.21
312.313	0.31
312.524	0.37
312.736	0.2
312.948	0.24
313.16	0.36
313.372	0.32
313.583	0.27
313.795	0.23
314.007	0.25
314.218	0.35
314.43	0.23
314.642	0.25
314.853	0.19
315.065	0.35
315.277	0.24
315.488	0.3
315.7	0.32
315.912	0.31
316.123	0.26
316.335	0.26
316.546	0.38
316.758	0.26
316.969	0.23
317.181	0.25
317.392	0.28
317.604	0.33
317.815	0.28
318.026	0.2
318.238	0.23
318.449	0.24
318.661	0.2
318.872	0.19
319.083	0.2
319.295	0.32
319.506	0.2
319.717	0.26
319.929	0.27
320.14	0.24
320.351	0.27
320.562	0.21
320.774	0.3
320.985	0.3
321.196	0.19
321.407	0.17
321.618	0.31
321.829	0.28
322.041	0.27
322.252	0.25
322.463	0.3
322.674	0.33
322.885	0.17
323.096	0.23
323.307	0.23
323.518	0.3
323.729	0.22
323.94	0.21
324.151	0.24
324.362	0.31
324.573	0.25
324.784	0.24
324.995	0.32
325.206	0.31
325.417	0.27
325.628	0.23
325.838	0.25
326.049	0.29
326.26	0.34
326.471	0.23
326.682	0.27
326.892	0.25
327.103	0.17
327.314	0.21
327.525	0.33
327.735	0.31
327.946	0.27
328.157	0.2
328.368	0.3
328.578	0.25
328.789	0.35
328.999	0.21
329.21	0.26
329.421	0.35
329.631	0.21
329.842	0.17
330.052	0.27
330.263	0.31
330.473	0.29
330.684	0.21
330.894	0.27
331.105	0.29
331.315	0.25
331.526	0.16
331.736	0.34
331.947	0.28
332.157	0.28
332.367	0.23
332.578	0.3
332.788	0.38
332.999	0.34
333.209	0.24
333.419	0.21
333.629	0.27
333.84	0.29
334.05	0.25
334.26	0.37
334.47	0.27
334.681	0.29
334.891	0.24
335.101	0.34
335.311	0.41
335.521	0.26
335.732	0.21
335.942	0.39
336.152	0.26
336.362	0.28
336.572	0.3
336.782	0.33
336.992	0.26
337.202	0.24
337.412	0.24
337.622	0.23
337.832	0.29
338.042	0.21
338.252	0.22
338.462	0.26
338.672	0.26
338.882	0.21
339.092	0.32
339.302	0.32
339.511	0.29
339.721	0.27
339.931	0.17
340.141	0.3
340.351	0.36
340.561	0.27
340.77	0.26
340.98	0.27
341.19	0.32
341.4	0.23
341.609	0.22
341.819	0.26
342.029	0.21
342.238	0.24
342.448	0.23
342.658	0.28
342.867	0.22
343.077	0.24
343.286	0.27
343.496	0.25
343.706	0.31
343.915	0.2
344.125	0.22
344.334	0.3
344.544	0.23
344.753	0.22
344.963	0.2
345.172	0.21
345.381	0.18
345.591	0.21
345.8	0.25
346.01	0.34
346.219	0.34
346.428	0.14
346.638	0.24
346.847	0.27
347.056	0.34
347.266	0.22
347.475	0.24
347.684	0.27
347.893	0.31
348.103	0.25
348.312	0.22
348.521	0.25
348.73	0.26
348.94	0.23
349.149	0.25
349.358	0.24
349.567	0.25
349.776	0.21
349.985	0.22
350.194	0.3
350.403	0.32
350.612	0.12
350.821	0.24
351.03	0.25
351.239	0.22
351.448	0.26
351.657	0.23
351.866	0.37
352.075	0.25
352.284	0.32
352.493	0.18
352.702	0.32
352.911	0.31
353.12	0.25
353.329	0.23
353.538	0.28
353.746	0.21
353.955	0.22
354.164	0.28
354.373	0.26
354.582	0.27
354.79	0.23
354.999	0.28
355.208	0.25
355.416	0.33
355.625	0.16
355.834	0.26
356.042	0.31
356.251	0.19
356.46	0.2
356.668	0.26
356.877	0.38
357.085	0.28
357.294	0.14
357.503	0.26
357.711	0.21
357.92	0.42
358.128	0.29
358.337	0.21
358.545	0.29
358.754	0.22
358.962	0.27
359.17	0.24
359.379	0.28
359.587	0.25
359.796	0.19
360.004	0.26
360.212	0.27
360.421	0.31
360.629	0.23
360.837	0.23
361.046	0.28
361.254	0.38
361.462	0.27
361.67	0.23
361.879	0.27
362.087	0.34
362.295	0.25
362.503	0.23
362.711	0.23
362.92	0.25
363.128	0.19
363.336	0.27
363.544	0.18
363.752	0.27
363.96	0.2
364.168	0.18
364.376	0.27
364.584	0.28
364.792	0.32
365	0.29
365.208	0.25
365.416	0.28
365.624	0.37
365.832	0.23
366.04	0.33
366.248	0.24
366.456	0.21
366.664	0.25
366.872	0.27
367.079	0.26
367.287	0.25
367.495	0.3
367.703	0.25
367.911	0.25
368.118	0.28
368.326	0.26
368.534	0.22
368.742	0.32
368.949	0.2
369.157	0.23
369.365	0.32
369.572	0.22
369.78	0.24
369.988	0.25
370.195	0.27
370.403	0.28
370.61	0.23
370.818	0.24
371.026	0.36
371.233	0.2
371.441	0.26
371.648	0.24
371.856	0.27
372.063	0.28
372.271	0.25
372.478	0.24
372.685	0.23
372.893	0.29
373.1	0.24
373.308	0.23
373.515	0.38
373.722	0.32
373.93	0.22
374.137	0.3
374.344	0.35
374.552	0.3
374.759	0.29
374.966	0.21
375.173	0.23
375.381	0.3
375.588	0.27
375.795	0.2
376.002	0.25
376.209	0.24
376.417	0.25
376.624	0.26
376.831	0.35
377.038	0.23
377.245	0.2
377.452	0.21
377.659	0.27
377.866	0.27
378.073	0.25
378.28	0.28
378.487	0.35
378.694	0.35
378.901	0.22
379.108	0.23
379.315	0.35
379.522	0.37
379.729	0.29
379.936	0.23
380.143	0.24
380.35	0.27
380.557	0.24
380.763	0.3
380.97	0.26
381.177	0.31
381.384	0.28
381.591	0.18
381.797	0.27
382.004	0.33
382.211	0.35
382.418	0.23
382.624	0.33
382.831	0.33
383.038	0.25
383.244	0.31
383.451	0.24
383.658	0.29
383.864	0.27
384.071	0.23
384.277	0.35
384.484	0.24
384.69	0.39
384.897	0.27
385.103	0.26
385.31	0.28
385.516	0.22
385.723	0.21
385.929	0.3
386.136	0.26
386.342	0.3
386.549	0.24
386.755	0.33
386.961	0.36
387.168	0.28
387.374	0.31
387.58	0.36
387.787	0.28
387.993	0.29
388.199	0.29
388.406	0.22
388.612	0.25
388.818	0.21
389.024	0.28
389.231	0.24
389.437	0.37
389.643	0.3
389.849	0.29
390.055	0.3
390.261	0.31
390.467	0.35
390.674	0.32
390.88	0.26
391.086	0.35
391.292	0.22
391.498	0.32
391.704	0.29
391.91	0.26
392.116	0.29
392.322	0.23
392.528	0.37
392.734	0.3
392.94	0.35
393.146	0.29
393.352	0.35
393.557	0.27
393.763	0.33
393.969	0.4
394.175	0.29
394.381	0.31
394.587	0.29
394.792	0.29
394.998	0.4
395.204	0.38
395.41	0.27
395.615	0.36
395.821	0.33
396.027	0.37
396.233	0.3
396.438	0.37
396.644	0.42
396.85	0.35
397.055	0.33
397.261	0.35
397.466	0.41
397.672	0.34
397.878	0.4
398.083	0.38
398.289	0.3
398.494	0.44
398.7	0.4
398.905	0.29
399.111	0.45
399.316	0.27
399.522	0.3
399.727	0.33
399.932	0.32
400.138	0.34
400.343	0.4
400.549	0.36
400.754	0.39
400.959	0.39
401.165	0.33
401.37	0.37
401.575	0.42
401.78	0.4
401.986	0.38
402.191	0.37
402.396	0.37
402.601	0.42
402.807	0.44
403.012	0.36
403.217	0.44
403.422	0.43
403.627	0.43
403.832	0.36
404.037	0.49
404.243	0.43
404.448	0.42
404.653	0.41
404.858	0.46
405.063	0.47
405.268	0.42
405.473	0.35
405.678	0.4
405.883	0.68
406.088	0.52
406.293	0.43
406.498	0.46
406.703	0.52
406.907	0.42
407.112	0.48
407.317	0.58
407.522	0.56
407.727	0.45
407.932	0.53
408.136	0.66
408.341	0.55
408.546	0.59
408.751	0.57
408.956	0.61
409.16	0.65
409.365	0.63
409.57	0.61
409.774	0.65
409.979	0.69
410.184	0.68
410.388	0.61
410.593	0.79
410.798	0.79
411.002	0.75
411.207	0.77
411.411	0.79
411.616	0.74
411.82	0.82
412.025	0.8
412.229	0.85
412.434	0.96
412.638	0.93
412.843	0.91
413.047	0.96
413.252	0.92
413.456	1.05
413.66	1.08
413.865	1.01
414.069	1.15
414.273	1.08
414.478	1.16
414.682	1.11
414.886	1.24
415.091	1.18
415.295	1.25
415.499	1.41
415.703	1.38
415.908	1.47
416.112	1.4
416.316	1.59
416.52	1.55
416.724	1.53
416.929	1.64
417.133	1.9
417.337	1.68
417.541	1.81
417.745	1.88
417.949	1.98
418.153	2.02
418.357	2.02
418.561	2.29
418.765	2.26
418.969	2.39
419.173	2.4
419.377	2.38
419.581	2.73
419.785	2.6
419.989	2.63
420.193	2.73
420.397	2.94
420.601	3.01
420.804	3.1
421.008	3.04
421.212	3.29
421.416	3.25
421.62	3.28
421.823	3.38
422.027	3.51
422.231	3.58
422.435	3.51
422.638	3.57
422.842	3.72
423.046	3.74
423.249	3.96
423.453	4.01
423.657	4.18
423.86	4.18
424.064	4.38
424.268	4.42
424.471	4.52
424.675	4.67
424.878	4.84
425.082	4.9
425.285	5.28
425.489	5.17
425.692	5.35
425.896	5.32
426.099	5.49
426.303	5.6
426.506	5.7
426.71	6.09
426.913	6.19
427.116	6.37
427.32	6.43
427.523	6.48
427.726	6.78
427.93	6.85
428.133	7.11
428.336	7.32
428.54	7.48
428.743	7.72
428.946	7.87
429.149	7.99
429.353	7.85
429.556	8.12
429.759	8.15
429.962	8.24
430.165	8.49
430.368	7.96
430.571	8.07
430.775	8.15
430.978	8.14
431.181	8.16
431.384	8.29
431.587	8.44
431.79	8.8
431.993	8.72
432.196	8.93
432.399	9.33
432.602	9.53
432.805	9.54
433.008	10.09
433.211	10
433.414	10.3
433.616	10.32
433.819	10.27
434.022	10.51
434.225	10.64
434.428	10.75
434.631	11.17
434.833	10.9
435.036	11.13
435.239	11.41
435.442	11.4
435.645	11.5
435.847	11.72
436.05	11.91
436.253	12.29
436.455	12.07
436.658	12.11
436.861	12.3
437.063	12.45
437.266	12.5
437.468	12.73
437.671	13.14
437.874	13.2
438.076	13.02
438.279	13.44
438.481	13.49
438.684	14.33
438.886	13.79
439.089	14.19
439.291	14.22
439.494	14.6
439.696	14.68
439.899	15.28
440.101	15.71
440.303	15.9
440.506	16.57
440.708	16.31
440.91	16.47
441.113	16.85
441.315	16.97
441.517	16.79
441.72	17.34
441.922	16.86
442.124	16.88
442.326	17.24
442.529	17.58
442.731	17.37
442.933	17.75
443.135	17.5
443.337	17.44
443.539	18.1
443.742	17.74
443.944	18.47
444.146	18.17
444.348	18.13
444.55	17.95
444.752	18.09
444.954	18.19
445.156	17.98
445.358	18.41
445.56	18.73
445.762	18.59
445.964	18.81
446.166	18.67
446.368	18.58
446.57	18.59
446.772	18.23
446.974	17.94
447.175	18.34
447.377	17.88
447.579	18.37
447.781	18.11
447.983	17.69
448.184	17.41
448.386	17.74
448.588	17.28
448.79	17.16
448.991	17.47
449.193	17.43
449.395	16.84
449.597	16.41
449.798	16.33
450	15.94
450.202	15.81
450.403	15.64
450.605	15.59
450.806	15.46
451.008	15.27
451.21	14.96
451.411	14.61
451.613	13.75
451.814	13.96
452.016	14.02
452.217	13.32
452.419	13.26
452.62	12.89
452.821	12.65
453.023	12.62
453.224	12.17
453.426	11.86
453.627	11.13
453.828	11.11
454.03	11.2
454.231	11.21
454.432	11.06
454.634	10.78
454.835	10.55
455.036	10.4
455.238	9.96
455.439	9.75
455.64	9.5
455.841	9.36
456.042	9.55
456.244	9.14
456.445	8.8
456.646	8.58
456.847	8.56
457.048	8.34
457.249	8.48
457.45	8.24
457.651	7.66
457.852	7.57
458.054	7.24
458.255	7.14
458.456	7.25
458.657	7.18
458.858	6.73
459.058	6.68
459.259	6.79
459.46	6.4
459.661	6.31
459.862	6.46
460.063	6.35
460.264	6.33
460.465	5.95
460.666	6.1
460.866	5.76
461.067	5.46
461.268	5.58
461.469	5.49
461.67	5.34
461.87	5.15
462.071	5.29
462.272	5.18
462.473	5.08
462.673	5.23
462.874	5.14
463.075	5.09
463.275	5.1
463.476	5.22
463.676	5.08
463.877	4.95
464.078	4.96
464.278	4.99
464.479	4.88
464.679	4.73
464.88	4.71
465.08	4.62
465.281	4.43
465.481	4.27
465.682	4.08
465.882	4.13
466.083	4.04
466.283	4.09
466.483	3.95
466.684	3.75
466.884	3.65
467.085	3.66
467.285	3.69
467.485	3.57
467.686	3.5
467.886	3.46
468.086	3.32
468.286	3.31
468.487	3.43
468.687	3.21
468.887	3.28
469.087	3.33
469.287	3.26
469.488	3.05
469.688	3.18
469.888	3.16
470.088	3.12
470.288	3.03
470.488	3.06
470.688	2.87
470.888	2.83
471.088	2.69
471.288	2.8
471.488	2.75
471.688	2.73
471.888	2.68
472.088	2.86
472.288	2.74
472.488	2.61
472.688	2.59
472.888	2.58
473.088	2.63
473.288	2.52
473.488	2.46
473.688	2.62
473.887	2.48
474.087	2.39
474.287	2.51
474.487	2.36
474.687	2.4
474.886	2.32
475.086	2.35
475.286	2.32
475.486	2.23
475.685	2.21
475.885	2.22
476.085	2.23
476.284	2.29
476.484	2.27
476.684	2.25
476.883	2.28
477.083	2.19
477.282	2.11
477.482	2.24
477.681	2.17
477.881	2.08
478.08	2.09
478.28	2.03
478.479	2.12
478.679	2.17
478.878	2.02
479.078	2
479.277	2.05
479.477	1.98
479.676	2.01
479.875	2.01
480.075	1.96
480.274	1.99
480.473	2.07
480.673	2
480.872	2.09
481.071	2.05
481.271	2.01
481.47	2
481.669	1.99
481.868	1.95
482.067	1.97
482.267	1.93
482.466	1.95
482.665	1.91
482.864	1.94
483.063	1.94
483.262	2.02
483.461	2.07
483.661	2.05
483.86	2.03
484.059	2.05
484.258	2.04
484.457	2
484.656	1.99
484.855	2.08
485.054	1.92
485.253	2
485.452	1.97
485.651	2.05
485.849	2.06
486.048	2
486.247	2.1
486.446	2.09
486.645	2.05
486.844	2.06
487.043	2.06
487.241	2.08
487.44	2.08
487.639	2.11
487.838	2.13
488.037	2.12
488.235	2.2
488.434	2.16
488.633	2.06
488.831	2.23
489.03	2.25
489.229	2.22
489.427	2.21
489.626	2.26
489.825	2.29
490.023	2.25
490.222	2.28
490.42	2.31
490.619	2.39
490.817	2.35
491.016	2.36
491.214	2.38
491.413	2.38
491.611	2.38
491.81	2.42
492.008	2.43
492.207	2.57
492.405	2.5
492.604	2.41
492.802	2.54
493	2.59
493.199	2.57
493.397	2.66
493.595	2.72
493.794	2.67
493.992	2.78
494.19	2.75
494.388	2.81
494.587	2.77
494.785	2.79
494.983	2.73
495.181	2.86
495.379	2.91
495.578	2.93
495.776	2.94
495.974	2.91
496.172	2.93
496.37	3.15
496.568	3.06
496.766	3.08
496.964	3.18
497.162	3.2
497.36	3.2
497.558	3.22
497.756	3.29
497.954	3.29
498.152	3.35
498.35	3.38
498.548	3.38
498.746	3.37
498.944	3.4
499.142	3.45
499.34	3.56
499.538	3.65
499.736	3.53
499.933	3.63
500.131	3.62
500.329	3.74
500.527	3.71
500.725	3.86
500.922	3.88
501.12	3.87
501.318	3.95
501.516	3.91
501.713	4.01
501.911	4.01
502.109	4.01
502.306	4.09
502.504	4.05
502.701	4.08
502.899	4.13
503.097	4.33
503.294	4.21
503.492	4.33
503.689	4.37
503.887	4.37
504.084	4.46
504.282	4.43
504.479	4.41
504.677	4.61
504.874	4.54
505.072	4.45
505.269	4.68
505.466	4.68
505.664	4.71
505.861	4.62
506.059	4.8
506.256	4.77
506.453	4.85
506.651	5.02
506.848	4.96
507.045	5
507.242	4.98
507.44	5.02
507.637	5.08
507.834	5.04
508.031	5.19
508.229	5.14
508.426	5.08
508.623	5.23
508.82	5.3
509.017	5.26
509.214	5.27
509.411	5.42
509.608	5.34
509.805	5.5
510.003	5.49
510.2	5.5
510.397	5.68
510.594	5.56
510.791	5.63
510.988	5.68
511.184	5.62
511.381	5.55
511.578	5.67
511.775	5.83
511.972	5.71
512.169	5.84
512.366	5.83
512.563	5.95
512.76	6.02
512.956	5.96
513.153	5.96
513.35	5.92
513.547	5.87
513.744	6.03
513.94	6.02
514.137	6.16
514.334	6.13
514.53	6.13
514.727	6.39
514.924	6.28
515.12	6.24
515.317	6.27
515.514	6.28
515.71	6.2
515.907	6.44
516.103	6.42
516.3	6.35
516.497	6.48
516.693	6.46
516.89	6.49
517.086	6.52
517.283	6.6
517.479	6.47
517.676	6.62
517.872	6.63
518.068	6.59
518.265	6.68
518.461	6.56
518.658	6.73
518.854	6.78
519.05	6.82
519.247	6.86
519.443	6.76
519.639	6.92
519.836	6.78
520.032	6.77
520.228	6.92
520.424	6.9
520.621	6.93
520.817	7.02
521.013	6.95
521.209	7.12
521.405	7.08
521.601	7.02
521.798	6.97
521.994	7.04
522.19	7
522.386	7.1
522.582	7.13
522.778	7.25
522.974	7.1
523.17	7.17
523.366	7.08
523.562	7.2
523.758	7.18
523.954	7.06
524.15	7.24
524.346	7.29
524.542	7.27
524.738	7.23
524.934	7.36
525.129	7.29
525.325	7.27
525.521	7.27
525.717	7.5
525.913	7.39
526.109	7.36
526.304	7.43
526.5	7.47
526.696	7.5
526.892	7.42
527.087	7.6
527.283	7.51
527.479	7.53
527.674	7.33
527.87	7.53
528.066	7.53
528.261	7.59
528.457	7.48
528.653	7.58
528.848	7.65
529.044	7.74
529.239	7.52
529.435	7.52
529.63	7.53
529.826	7.57
530.021	7.57
530.217	7.6
530.412	7.59
530.608	7.65
530.803	7.6
530.999	7.53
531.194	7.69
531.389	7.74
531.585	7.71
531.78	7.78
531.975	7.72
532.171	7.77
532.366	7.75
532.561	7.84
532.757	7.65
532.952	7.91
533.147	7.68
533.342	7.85
533.538	7.7
533.733	7.9
533.928	7.64
534.123	7.74
534.318	7.88
534.513	7.7
534.709	7.92
534.904	7.85
535.099	7.96
535.294	7.88
535.489	7.91
535.684	7.82
535.879	7.84
536.074	7.98
536.269	7.93
536.464	7.91
536.659	7.9
536.854	7.93
537.049	7.96
537.244	7.85
537.439	7.92
537.634	7.91
537.828	7.98
538.023	7.94
538.218	8.03
538.413	7.86
538.608	7.94
538.803	7.93
538.997	7.95
539.192	7.98
539.387	7.94
539.582	7.91
539.776	7.83
539.971	7.99
540.166	8.09
540.36	7.88
540.555	8.06
540.75	7.98
540.944	8.05
541.139	8.05
541.334	7.98
541.528	8.05
541.723	8.1
541.917	8.08
542.112	7.95
542.306	7.9
542.501	7.94
542.695	7.92
542.89	7.98
543.084	8.05
543.279	8.03
543.473	8.1
543.668	8.11
543.862	7.93
544.056	7.92
544.251	8.09
544.445	8.09
544.64	8.2
544.834	7.82
545.028	7.75
545.222	8.06
545.417	8.19
545.611	8.16
545.805	8.06
546	7.89
546.194	8.14
546.388	8.09
546.582	8
546.776	8.04
546.97	8.06
547.165	8.12
547.359	8.07
547.553	8.04
547.747	7.99
547.941	8.26
548.135	8.03
548.329	8.08
548.523	8.11
548.717	7.97
548.911	8.06
549.105	8.01
549.299	8.13
549.493	8.09
549.687	8.04
549.881	8.1
550.075	8.13
550.269	8
550.463	8.15
550.657	8.07
550.85	8.09
551.044	8.09
551.238	8.1
551.432	8.07
551.626	8.19
551.82	8.1
552.013	7.99
552.207	8.17
552.401	8.27
552.594	8.1
552.788	8.03
552.982	8.06
553.176	8.05
553.369	8.25
553.563	8.19
553.756	8.03
553.95	8.15
554.144	8.22
554.337	8.2
554.531	8.03
554.724	8.13
554.918	8.25
555.111	8.12
555.305	8.09
555.498	8.03
555.692	8.23
555.885	8.16
556.079	8.11
556.272	8.16
556.466	8.11
556.659	8.07
556.852	8.16
557.046	8.04
557.239	7.95
557.432	8.06
557.626	8.24
557.819	8.19
558.012	8.12
558.206	8.25
558.399	8.15
558.592	8.02
558.785	8.09
558.979	8.15
559.172	8.16
559.365	8.12
559.558	8.06
559.751	8
559.944	8.18
560.138	8.05
560.331	8.14
560.524	8.1
560.717	8.1
560.91	8.1
561.103	8.18
561.296	7.96
561.489	8.12
561.682	8.23
561.875	8.15
562.068	8.25
562.261	8.06
562.454	8.26
562.647	8.04
562.84	8.17
563.032	8.2
563.225	8.1
563.418	8.1
563.611	8.17
563.804	8.13
563.997	7.94
564.19	7.94
564.382	8.2
564.575	8.09
564.768	8.07
564.961	8.11
565.153	8.1
565.346	8.05
565.539	8.13
565.731	8.1
565.924	8.23
566.117	8.28
566.309	8.16
566.502	8.13
566.695	8.05
566.887	8.16
567.08	8.13
567.272	8.13
567.465	8
567.657	8.17
567.85	8.02
568.042	8.16
568.235	8.14
568.427	7.95
568.62	8.08
568.812	7.99
569.005	8.15
569.197	7.99
569.389	8.03
569.582	8.09
569.774	8.11
569.966	7.93
570.159	7.99
570.351	7.98
570.543	8.06
570.736	8.07
570.928	7.9
571.12	8.04
571.312	8
571.505	7.81
571.697	8.05
571.889	8.02
572.081	8.06
572.273	7.93
572.465	8.04
572.658	8.04
572.85	8.03
573.042	8.02
573.234	7.94
573.426	7.98
573.618	7.93
573.81	8
574.002	7.97
574.194	8
574.386	7.95
574.578	7.85
574.77	7.88
574.962	7.94
575.154	7.82
575.346	7.88
575.538	7.89
575.729	7.84
575.921	7.95
576.113	7.98
576.305	7.87
576.497	7.97
576.689	7.75
576.88	7.77
577.072	7.96
577.264	7.93
577.456	7.92
577.647	7.87
577.839	8.03
578.031	7.8
578.223	7.86
578.414	7.75
578.606	7.91
578.798	7.89
578.989	7.86
579.181	7.95
579.372	7.84
579.564	7.88
579.755	7.77
579.947	7.71
580.139	7.86
580.33	7.63
580.522	7.77
580.713	7.76
580.905	7.72
581.096	7.83
581.287	7.71
581.479	7.71
581.67	7.83
581.862	7.67
582.053	7.8
582.244	7.55
582.436	7.83
582.627	7.66
582.818	7.6
583.01	7.65
583.201	7.73
583.392	7.59
583.583	7.59
583.775	7.52
583.966	7.56
584.157	7.67
584.348	7.69
584.54	7.61
584.731	7.69
584.922	7.52
585.113	7.46
585.304	7.62
585.495	7.59
585.686	7.64
585.877	7.6
586.068	7.74
586.259	7.58
586.45	7.53
586.641	7.48
586.832	7.67
587.023	7.55
587.214	7.45
587.405	7.6
587.596	7.37
587.787	7.45
587.978	7.44
588.169	7.4
588.36	7.39
588.551	7.42
588.742	7.45
588.932	7.48
589.123	7.27
589.314	7.5
589.505	7.29
589.696	7.37
589.886	7.3
590.077	7.4
590.268	7.27
590.458	7.24
590.649	7.1
590.84	7.34
591.03	7.23
591.221	7.25
591.412	7.12
591.602	7.34
591.793	7.28
591.984	7.33
592.174	7.26
592.365	7.4
592.555	7.1
592.746	7.13
592.936	7.15
593.127	7.21
593.317	7.21
593.508	7.17
593.698	7.11
593.889	7.1
594.079	7.07
594.269	6.98
594.46	7.05
594.65	7.09
594.84	7.09
595.031	6.92
595.221	7.01
595.411	6.94
595.602	7.06
595.792	6.98
595.982	6.83
596.172	7.04
596.363	6.87
596.553	6.9
596.743	6.97
596.933	6.93
597.123	6.94
597.314	6.75
597.504	6.82
597.694	6.96
597.884	6.88
598.074	6.9
598.264	6.81
598.454	6.88
598.644	6.77
598.834	6.78
599.024	6.66
599.214	6.72
599.404	6.78
599.594	6.74
599.784	6.67
599.974	6.75
600.164	6.71
600.354	6.62
600.544	6.53
600.734	6.66
600.924	6.63
601.114	6.53
601.303	6.5
601.493	6.63
601.683	6.56
601.873	6.55
602.063	6.44
602.252	6.51
602.442	6.48
602.632	6.51
602.821	6.46
603.011	6.53
603.201	6.49
603.39	6.45
603.58	6.24
603.77	6.45
603.959	6.48
604.149	6.39
604.339	6.37
604.528	6.42
604.718	6.38
604.907	6.33
605.097	6.22
605.286	6.21
605.476	6.27
605.665	6.3
605.855	6.21
606.044	6.33
606.234	6.2
606.423	6.21
606.612	6.18
606.802	6.11
606.991	6.23
607.181	6.15
607.37	6.19
607.559	5.97
607.749	6.15
607.938	6.01
608.127	6.11
608.316	6.06
608.506	6.07
608.695	6.14
608.884	5.97
609.073	6.07
609.263	6.07
609.452	5.98
609.641	5.9
609.83	5.88
610.019	5.93
610.208	5.9
610.397	5.94
610.586	5.82
610.775	5.8
610.965	5.78
611.154	5.7
611.343	5.82
611.532	5.69
611.721	5.78
611.91	5.67
612.099	5.74
612.287	5.63
612.476	5.63
612.665	5.75
612.854	5.57
613.043	5.63
613.232	5.6
613.421	5.62
613.61	5.59
613.798	5.58
613.987	5.56
614.176	5.52
614.365	5.56
614.554	5.48
614.742	5.57
614.931	5.32
615.12	5.56
615.309	5.51
615.497	5.4
615.686	5.33
615.875	5.41
616.063	5.44
616.252	5.31
616.44	5.36
616.629	5.29
616.818	5.28
617.006	5.27
617.195	5.24
617.383	5.26
617.572	5.19
617.76	5.18
617.949	5.25
618.137	5.31
618.326	5.25
618.514	5.02
618.703	5.01
618.891	5.21
619.079	5.03
619.268	5.19
619.456	5
619.644	5.12
619.833	5.02
620.021	4.99
620.209	4.9
620.398	5.01
620.586	4.92
620.774	4.99
620.962	4.99
621.151	5.06
621.339	4.92
621.527	4.79
621.715	4.8
621.903	4.87
622.092	4.79
622.28	4.93
622.468	4.69
622.656	4.79
622.844	4.77
623.032	4.86
623.22	4.69
623.408	4.85
623.596	4.68
623.784	4.82
623.972	4.59
624.16	4.61
624.348	4.68
624.536	4.8
624.724	4.63
624.912	4.67
625.1	4.66
625.288	4.6
625.476	4.55
625.664	4.62
625.851	4.53
626.039	4.53
626.227	4.51
626.415	4.57
626.603	4.46
626.79	4.49
626.978	4.44
627.166	4.45
627.354	4.4
627.541	4.4
627.729	4.25
627.917	4.48
628.104	4.47
628.292	4.29
628.48	4.34
628.667	4.25
628.855	4.33
629.042	4.37
629.23	4.26
629.418	4.25
629.605	4.29
629.793	4.17
629.98	4.17
630.168	4.14
630.355	4.23
630.543	4.16
630.73	4.09
630.917	4.09
631.105	4.2
631.292	4.13
631.48	4.08
631.667	4.18
631.854	4.05
632.042	4.01
632.229	3.97
632.416	4.07
632.604	3.95
632.791	3.87
632.978	3.97
633.165	3.94
633.353	4
633.54	4.03
633.727	3.86
633.914	3.85
634.101	3.78
634.289	3.94
634.476	3.75
634.663	3.78
634.85	3.82
635.037	3.76
635.224	3.76
635.411	3.84
635.598	3.7
635.785	3.69
635.972	3.64
636.159	3.72
636.346	3.67
636.533	3.61
636.72	3.68
636.907	3.61
637.094	3.67
637.281	3.53
637.468	3.55
637.655	3.57
637.842	3.58
638.029	3.52
638.215	3.54
638.402	3.53
638.589	3.46
638.776	3.48
638.963	3.45
639.149	3.52
639.336	3.53
639.523	3.45
639.709	3.4
639.896	3.43
640.083	3.41
640.27	3.45
640.456	3.36
640.643	3.32
640.829	3.24
641.016	3.29
641.203	3.24
641.389	3.3
641.576	3.33
641.762	3.21
641.949	3.23
642.135	3.27
642.322	3.22
642.508	3.15
642.695	3.19
642.881	3.12
643.068	3.14
643.254	3.15
643.441	3.19
643.627	3.17
643.813	3.04
644	3.19
644.186	3.02
644.372	3.24
644.559	3.07
644.745	3
644.931	3
645.118	3
645.304	2.99
645.49	3.01
645.676	2.98
645.862	3
646.049	3
646.235	2.93
646.421	3.09
646.607	3.05
646.793	2.9
646.979	2.83
647.165	2.84
647.352	2.91
647.538	2.88
647.724	2.88
647.91	2.76
648.096	2.87
648.282	2.87
648.468	2.81
648.654	2.85
648.84	2.82
649.026	2.82
649.212	2.77
649.397	2.7
649.583	2.68
649.769	2.74
649.955	2.7
650.141	2.8
650.327	2.74
650.513	2.58
650.698	2.7
650.884	2.54
651.07	2.69
651.256	2.63
651.442	2.62
651.627	2.56
651.813	2.64
651.999	2.55
652.184	2.58
652.37	2.58
652.556	2.56
652.741	2.59
652.927	2.4
653.113	2.53
653.298	2.5
653.484	2.49
653.669	2.39
653.855	2.44
654.04	2.56
654.226	2.47
654.412	2.39
654.597	2.35
654.782	2.43
654.968	2.5
655.153	2.36
655.339	2.39
655.524	2.36
655.71	2.45
655.895	2.36
656.08	2.39
656.266	2.46
656.451	2.3
656.636	2.28
656.822	2.32
657.007	2.33
657.192	2.27
657.378	2.25
657.563	2.22
657.748	2.29
657.933	2.23
658.118	2.21
658.304	2.2
658.489	2.24
658.674	2.2
658.859	2.13
659.044	2.26
659.229	2.17
659.414	2.16
659.599	2.12
659.785	2.05
659.97	2.13
660.155	2.12
660.34	2.18
660.525	2.1
660.71	2.05
660.895	2.08
661.08	2.11
661.264	2.01
661.449	2.13
661.634	2.08
661.819	2.09
662.004	2.03
662.189	1.98
662.374	1.99
662.559	1.91
662.743	1.91
662.928	1.98
663.113	1.93
663.298	1.9
663.483	1.9
663.667	1.99
663.852	1.87
664.037	2.04
664.221	1.94
664.406	1.97
664.591	1.94
664.775	1.94
664.96	1.89
665.145	1.87
665.329	1.94
665.514	1.88
665.698	1.83
665.883	1.79
666.068	1.92
666.252	1.85
666.437	1.77
666.621	1.81
666.806	1.86
666.99	1.79
667.174	1.79
667.359	1.83
667.543	1.76
667.728	1.75
667.912	1.71
668.096	1.76
668.281	1.7
668.465	1.77
668.649	1.71
668.834	1.69
669.018	1.67
669.202	1.73
669.387	1.68
669.571	1.75
669.755	1.68
669.939	1.69
670.124	1.67
670.308	1.69
670.492	1.68
670.676	1.68
670.86	1.61
671.044	1.6
671.228	1.64
671.413	1.6
671.597	1.57
671.781	1.58
671.965	1.64
672.149	1.56
672.333	1.55
672.517	1.51
672.701	1.63
672.885	1.5
673.069	1.43
673.253	1.64
673.437	1.55
673.621	1.52
673.804	1.57
673.988	1.47
674.172	1.54
674.356	1.43
674.54	1.51
674.724	1.61
674.908	1.46
675.091	1.56
675.275	1.47
675.459	1.56
675.643	1.45
675.826	1.45
676.01	1.45
676.194	1.45
676.377	1.51
676.561	1.51
676.745	1.42
676.928	1.46
677.112	1.47
677.296	1.39
677.479	1.36
677.663	1.43
677.846	1.43
678.03	1.4
678.213	1.33
678.397	1.44
678.58	1.35
678.764	1.37
678.947	1.27
679.131	1.35
679.314	1.43
679.498	1.33
679.681	1.39
679.865	1.4
680.048	1.28
680.231	1.25
680.415	1.25
680.598	1.31
680.781	1.3
680.965	1.24
681.148	1.31
681.331	1.24
681.514	1.35
681.698	1.25
681.881	1.32
682.064	1.25
682.247	1.28
682.43	1.24
682.614	1.28
682.797	1.29
682.98	1.28
683.163	1.13
683.346	1.22
683.529	1.21
683.712	1.13
683.895	1.2
684.078	1.17
684.261	1.15
684.444	1.22
684.627	1.21
684.81	1.1
684.993	1.19
685.176	1.18
685.359	1.1
685.542	1.14
685.725	1.23
685.908	1.15
686.091	1.14
686.274	1.12
686.457	1.16
686.639	1.13
686.822	1.19
687.005	1.13
687.188	1.19
687.371	1.21
687.553	1.15
687.736	1.09
687.919	1.24
688.102	1.16
688.284	1
688.467	1.08
688.65	1.04
688.832	1.06
689.015	1.02
689.197	0.95
689.38	1.14
689.563	1.18
689.745	0.96
689.928	0.95
690.11	1.06
690.293	1.04
690.475	0.93
690.658	1.08
690.84	1.01
691.023	0.99
691.205	0.96
691.388	1.02
691.57	1.07
691.752	1.07
691.935	0.87
692.117	0.93
692.3	1.02
692.482	1
692.664	0.91
692.847	0.96
693.029	1.07
693.211	1.06
693.393	0.96
693.576	0.92
693.758	0.95
693.94	0.88
694.122	0.97
694.304	0.93
694.487	0.95
694.669	1.01
694.851	0.83
695.033	0.95
695.215	0.91
695.397	0.93
695.579	0.87
695.761	0.87
695.943	0.82
696.125	1.01
696.308	0.9
696.49	0.71
696.671	1.06
696.853	0.9
697.035	1.11
697.217	0.87
697.399	0.97
697.581	0.82
697.763	0.84
697.945	0.77
698.127	0.9
698.309	1.02
698.491	0.9
698.672	0.92
698.854	0.95
699.036	1.01
699.218	0.82
699.399	0.92
699.581	0.94
699.763	0.87
699.945	0.76
700.126	0.74
700.308	0.85
700.49	0.8
700.671	0.7
700.853	0.76
701.035	0.8
701.216	0.8
701.398	0.71
701.579	0.76
701.761	0.94
701.943	0.83
702.124	0.77
702.306	0.74
702.487	0.93
702.669	0.82
702.85	0.73
703.031	0.67
703.213	0.92
703.394	0.88
703.576	0.73
703.757	0.94
703.938	0.88
704.12	0.97
704.301	0.73
704.483	0.67
704.664	0.81
704.845	0.89
705.026	0.76
705.208	0.75
705.389	0.77
705.57	0.7
705.751	0.76
705.933	0.79
706.114	0.83
706.295	0.76
706.476	0.69
706.657	0.82
706.838	0.77
707.02	0.79
707.201	0.68
707.382	0.72
707.563	0.74
707.744	0.63
707.925	0.67
708.106	0.68
708.287	0.75
708.468	0.78
708.649	0.66
708.83	0.73
709.011	0.67
709.192	0.83
709.373	0.63
709.554	0.69
709.734	0.78
709.915	0.73
710.096	0.67
710.277	0.53
710.458	0.71
710.639	0.73
710.819	0.59
711	0.63
711.181	0.66
711.362	0.8
711.542	0.72
711.723	0.66
711.904	0.79
712.085	0.73
712.265	0.71
712.446	0.59
712.627	0.71
712.807	0.6
712.988	0.61
713.168	0.47
713.349	0.67
713.53	0.52
713.71	0.59
713.891	0.5
714.071	0.51
714.252	0.63
714.432	0.55
714.613	0.46
714.793	0.59
714.974	0.76
715.154	0.72
715.334	0.71
715.515	0.72
715.695	0.56
715.876	0.57
716.056	0.62
716.236	0.54
716.417	0.63
716.597	0.48
716.777	0.87
716.957	0.6
717.138	0.64
717.318	0.55
717.498	0.44
717.678	0.61
717.859	0.65
718.039	0.56
718.219	0.64
718.399	0.57
718.579	0.55
718.759	0.45
718.939	0.61
719.12	0.6
719.3	0.61
719.48	0.4
719.66	0.46
719.84	0.63
720.02	0.55
720.2	0.49
720.38	0.52
720.56	0.7
720.74	0.49
720.92	0.62
721.1	0.73
721.279	0.72
721.459	0.54
721.639	0.43
721.819	0.5
721.999	0.48
722.179	0.64
722.359	0.54
722.538	0.57
722.718	0.61
722.898	0.56
723.078	0.57
723.257	0.48
723.437	0.59
723.617	0.55
723.797	0.54
723.976	0.56
724.156	0.55
724.336	0.64
724.515	0.69
724.695	0.36
724.874	0.6
725.054	0.63
725.234	0.45
725.413	0.55
725.593	0.55
725.772	0.45
725.952	0.52
726.131	0.48
726.311	0.47
726.49	0.46
726.67	0.47
726.849	0.49
727.028	0.49
727.208	0.51
727.387	0.49
727.567	0.37
727.746	0.46
727.925	0.51
728.105	0.42
728.284	0.47
728.463	0.44
728.643	0.57
728.822	0.36
729.001	0.45
729.18	0.54
729.359	0.62
729.539	0.53
729.718	0.59
729.897	0.6
730.076	0.51
730.255	0.37
730.434	0.48
730.614	0.57
730.793	0.66
730.972	0.53
731.151	0.44
731.33	0.64
731.509	0.65
731.688	0.55
731.867	0.48
732.046	0.36
732.225	0.72
732.404	0.41
732.583	0.4
732.762	0.49
732.941	0.64
733.12	0.55
733.298	0.47
733.477	0.71
733.656	0.49
733.835	0.33
734.014	0.55
734.193	0.47
734.371	0.53
734.55	0.55
734.729	0.28
734.908	0.57
735.086	0.51
735.265	0.64
735.444	0.29
735.623	0.43
735.801	0.4
735.98	0.43
736.159	0.44
736.337	0.62
736.516	0.51
736.694	0.57
736.873	0.38
737.052	0.79
737.23	0.72
737.409	0.46
737.587	0.62
737.766	0.29
737.944	0.59
738.123	0.45
738.301	0.55
738.479	0.51
738.658	0.55
738.836	0.26
739.015	0.44
739.193	0.62
739.371	0.44
739.55	0.46
739.728	0.44
739.906	0.62
740.085	0.66
740.263	0.45
740.441	0.24
740.62	0.74
740.798	0.5
740.976	0.38
741.154	0.34
741.332	0.64
741.511	0.43
741.689	0.44
741.867	0.52
742.045	0.49
742.223	0.47
742.401	0.38
742.579	0.39
742.757	0.63
742.935	0.4
743.114	0.3
743.292	0.44
743.47	0.54
743.648	0.52
743.826	0.45
744.004	0.49
744.181	0.56
744.359	0.39
744.537	0.54
744.715	0.49
744.893	0.47
745.071	0.43
745.249	0.43
745.427	0.41
745.605	0.52
745.782	0.46
745.96	0.57
746.138	0.61
746.316	0.51
746.493	0.41
746.671	0.5
746.849	0.31
747.027	0.55
747.204	0.34
747.382	0.47
747.56	0.28
747.737	0.36
747.915	0.45
748.093	0.54
748.27	0.37
748.448	0.41
748.625	0.26
748.803	0.33
748.98	0.4
749.158	0.47
749.335	0.57
749.513	0.44
749.69	0.37
749.868	0.33
750.045	0.47
750.223	0.39
750.4	0.22
750.578	0.66
750.755	0.42
750.932	0.19
751.11	0.53
751.287	0.23
751.464	0.59
751.642	0.31
751.819	0.5
751.996	0.41
752.173	0.4
752.351	0.21
752.528	0.38
752.705	0.47
752.882	0.34
753.06	0.47
753.237	0.53
753.414	0.57
753.591	0.56
753.768	0.33
753.945	0.32
754.122	0.5
754.299	0.55
754.476	0.24
754.654	0.37
754.831	0.57
755.008	0.46
755.185	0.38
755.362	0.32
755.539	0.45
755.716	0.26
755.892	0.37
756.069	0.4
756.246	0.39
756.423	0.4
756.6	0.58
756.777	0.26
756.954	0.56
757.131	0.3
757.307	0.26
757.484	0.22
757.661	0.43
757.838	0.52
758.015	0.17
758.191	0.49
758.368	0.34
758.545	0.65
758.721	0.53
758.898	0.32
759.075	0.38
759.251	0.5
759.428	0.5
759.605	0.13
759.781	0.4
759.958	0.51
760.134	0.39
760.311	0.3
760.488	0.7
760.664	0.54
760.841	0.41
761.017	0.21
761.194	0.37
761.37	0.56
761.547	0.24
761.723	0.29
761.899	0.51
762.076	0.33
762.252	0.31
762.429	0.37
762.605	0.49
762.781	0.24
762.958	0.43
763.134	0.2
763.31	0.35
763.486	0.54
763.663	0.12
763.839	0.48
764.015	0.18
764.191	0.32
764.368	0.3
764.544	0.35
764.72	0.4
764.896	0.42
765.072	0.49
765.248	0.31
765.425	0.32
765.601	0.37
765.777	0.44
765.953	0.12
766.129	0.4
766.305	0.29
766.481	0.44
766.657	0.48
766.833	0.59
767.009	0.41
767.185	0.37
767.361	0.35
767.537	0.18
767.713	0.56
767.889	0.29
768.065	0.31
768.24	0.2
768.416	0.44
768.592	0.3
768.768	0.29
768.944	0.43
769.12	0.22
769.295	0.21
769.471	0.21
769.647	0.41
769.823	0.64
769.998	0.23
770.174	0.21
770.35	0.72
770.525	0.76
770.701	0.35
770.877	0.38
771.052	0.22
771.228	0.67
771.403	0.37
771.579	0.47
771.755	0.78
771.93	0.28
772.106	0.24
772.281	0.01
772.457	0.36
772.632	0.49
772.808	0.22
772.983	0.31
773.159	0.19
773.334	0.51
773.509	0.46
773.685	0.26
773.86	0.81
774.036	0.71
774.211	0.29
774.386	0.27
774.562	0.42
774.737	0.35
774.912	0.36
775.087	0.51
775.263	0.46
775.438	0.47
775.613	0.36
775.788	0.43
775.964	0.51
776.139	0.88
776.314	0.18
776.489	0.46
776.664	0.37
776.839	0.26
777.014	0.49
777.19	0.61
777.365	0.7
777.54	0.69
777.715	0.25
777.89	0.33
778.065	0.38
778.24	0.32
778.415	0.54
778.59	0.2
778.765	0.41
778.94	0.51
779.115	0.33
779.289	0.31
779.464	0.37
779.639	0.27
779.814	0.23
779.989	0.19
780.164	0.69
780.339	0.48
780.513	0.33
780.688	0.14
780.863	0.39
781.038	0.83
781.212	0.12
781.387	0.45
781.562	0.74
781.737	0.3
781.911	0.59
782.086	0.14
782.261	0.41
782.435	0.76
782.61	0.4
782.784	0.35
782.959	0.7
783.134	0.3
783.308	0.21
783.483	0.24
783.657	0.88
783.832	0.56
784.006	0.03
784.181	0.58
784.355	0.62
784.53	0.18
784.704	0.17
784.878	0.6
785.053	0.42
785.227	0.59
785.402	0.95
785.576	0.2
785.75	0.35
785.925	0.45
786.099	0.56
786.273	0.59
786.448	0.67
786.622	0.64
786.796	0.41
786.97	0.43
787.145	1.11
787.319	0.13
787.493	0.44
787.667	-0.09
787.841	0.49
788.015	0.56
788.19	0.4
788.364	0.26
788.538	0.66
788.712	0.66
788.886	0.6
789.06	0.49
789.234	0.71
789.408	0.12
789.582	0.35
789.756	0.27
789.93	0.37
790.104	0.54
790.278	0.38
790.452	0.16
790.626	0.62
790.8	0.17
790.973	0.69
791.147	0.78
791.321	1
791.495	0.86
791.669	0.47
791.843	0.6
792.016	0.7
792.19	0.88
792.364	0.18
792.538	1.05
792.711	0.68
792.885	0.34
793.059	0.29
793.233	0.17
793.406	0.68
793.58	0.66
793.754	0.57
793.927	0.49
794.101	0.57
794.274	0.52
794.448	0.67
794.622	0.2
794.795	0.86
794.969	0.44
795.142	0.68
795.316	0.12
795.489	0.27
795.663	0.93
795.836	0.47
796.009	0.38
796.183	0.93
796.356	0.73
796.53	0.5
796.703	0.61
796.876	1.14
797.05	0.48
797.223	0.38
797.396	0.62
797.57	0.63
797.743	1.07
797.916	0.49
798.09	0.41
798.263	0.83
798.436	0.76
798.609	0.41
798.782	0.61
798.956	0.52
799.129	0.56
799.302	0.32
799.475	0.45
799.648	0.43
799.821	0.29
799.994	0.46
800.167	-0.03
800.34	0.4
800.514	0.45
800.687	0.31
800.86	0.47
801.033	0.67
801.206	0.73
801.379	0.35
801.551	0.64
801.724	1
801.897	1.27
802.07	0.31
802.243	-0.07
802.416	0.5
802.589	0.68
802.762	0.66
802.935	0.43
803.107	0.78
803.28	0.95
803.453	0.64
803.626	0.45
803.798	0.65
803.971	0.26
804.144	0.51
804.317	0.44
804.489	1.01
804.662	0.35
804.835	0.63
805.007	0.3
805.18	1.1
805.353	0.83
805.525	0.26
805.698	0.18
805.87	0.95
806.043	0.96
806.215	-0.03
806.388	0.2
806.56	0.69
806.733	1.17
806.905	0.13
807.078	0.25
807.25	0.43
807.423	1.16
807.595	0.5
807.768	0.46
807.94	0.74
808.112	0.54
808.285	0.85
808.457	0.42
808.629	0.99
808.802	0.52
808.974	0.76
809.146	0.68
809.318	0.81
809.491	0.52
809.663	0.78
809.835	0.29
810.007	0.54
810.18	0.65
810.352	-0.07
810.524	0.2
810.696	0.96
810.868	0.93
811.04	0.43
811.212	0.74
811.384	0.98
811.556	0.74
811.728	0.3
811.901	1.19
812.073	0.56
812.245	1.15
812.417	0.36
812.589	0.01
812.76	0.37
812.932	0.85
813.104	0.73
813.276	0.65
813.448	0.8
813.62	0.91
813.792	0.67
813.964	0.63
814.136	0.81
814.307	0.28
814.479	0.45
814.651	0.28
814.823	1.44
814.995	0.48
815.166	0.62
815.338	-0.07
815.51	0.2
815.681	1.43
815.853	0.57
816.025	0.47
816.196	1.43
816.368	1.75
816.54	0.07
816.711	0.47
816.883	0.92
817.054	1.73
817.226	0.17
817.398	1.05
817.569	0.12
817.741	0.91
817.912	0.46
818.084	0.35
818.255	1.7
818.426	0.36
818.598	0.86
818.769	0.21
818.941	1.37
819.112	1.42
819.283	0.48
819.455	0.49
819.626	0.65
819.798	0.92
819.969	0.47
820.14	0.45
820.311	1.22
820.483	0.94
820.654	1.11
820.825	0.69
820.996	0.62
821.168	-0.12
821.339	0.67
821.51	0.15
821.681	0.74
821.852	1.1
822.023	0.2
822.195	0.21
822.366	0.88
822.537	0.84
822.708	0.91
822.879	0.31
823.05	1.64
823.221	0.67
823.392	1.07
823.563	0.83
823.734	0.98
823.905	0.49
824.076	0.53
824.247	0.51
824.418	0.96
824.589	1.42
824.759	0.87
824.93	0.5
825.101	-0.18
825.272	1.59
825.443	1.31
825.614	0.98
825.784	0.49
825.955	2.26
826.126	1.18
826.297	1.46
826.467	1.71
826.638	2.27
826.809	-0.06
826.98	0.92
827.15	0.95
827.321	0.76
827.492	1.49
827.662	0.83
827.833	2.11
828.003	1.72
828.174	0.16
828.345	-0.11
828.515	1.8
828.686	1.08
828.856	0.85
829.027	0.95
829.197	0.95
829.368	0.95
829.538	0.52
829.709	0.53
829.879	1.01
830.049	0.91
830.22	0.43
830.39	0.39
830.56	1.81
830.731	1.43
830.901	0.21
831.072	0.22
831.242	1.1
831.412	1.38
831.582	0.58
831.753	-0.26
831.923	1.51
832.093	1.31
832.263	0.8
832.434	0.22
832.604	0.73
832.774	1.08
832.944	0.75
833.114	0.45
833.284	1.63
833.454	0.49
833.624	0.33
833.795	0.71
833.965	2.07
834.135	1.32
834.305	-0.67
834.475	-0.01
834.645	1.49
834.815	0.77
834.985	0.38
835.155	0.6
835.325	1.68
835.494	1.05
835.664	0.81
835.834	0.46
836.004	0.89
836.174	1.04
836.344	0.66
836.514	-0.12
836.684	0.37
836.853	1.56
837.023	1.68
837.193	0.24
837.363	1.65
837.532	1.91
837.702	0.38
837.872	0.35
838.041	2.02
838.211	2.42
838.381	0.11
838.55	1.17
838.72	3.63
838.89	2.72
839.059	-0.34
839.229	0.38
839.398	3.04
839.568	0.64
839.738	0.14
839.907	1.58
840.077	1.41
840.246	0.6
840.416	0.44
840.585	-0.02
840.755	3
840.924	3.3
841.093	-0.25
841.263	0.45
841.432	0.63
841.602	0.54
841.771	0.97
841.94	1.38
842.11	2.95
842.279	3.23
842.448	-0.5
842.617	0.27
842.787	3.37
842.956	0.14
843.125	1.1
843.294	0.2
843.464	2.81
843.633	1.21
843.802	0.32
843.971	0.84
844.14	1.62
844.309	1.56
844.479	-0.7
844.648	0.64
844.817	1.83
844.986	1.16
845.155	-0
845.324	0.74
845.493	1.06
845.662	0.26
845.831	1.41
846	1.74
846.169	0.93
846.338	2.6
846.507	1.35
846.676	0.89
846.844	0.98
847.013	1
847.182	1.31
847.351	0.67
847.52	1.14
847.689	1.41
847.858	0.89
848.026	0.16
848.195	1.55
848.364	0.16
848.533	-0.36
848.701	-0.16
848.87	1.5
849.039	2.34
849.207	1.15
849.376	1.88
849.545	3.02
849.713	0.16
849.882	0.71
850.051	0.46
850.219	1.87
850.388	1.8
850.556	0.94
850.725	-0.61
850.893	2.25
851.062	0.95
851.23	1.59
851.399	-0.64
851.567	1.71
851.736	1.16
851.904	0.28
852.073	0.84
852.241	2.29
852.41	0.58
852.578	1.32
852.746	0.57
852.915	2.75
853.083	1.47
853.251	0.2
853.42	0.39
853.588	1.79
853.756	2.81
853.924	1.75
854.093	1.21
854.261	0.47
854.429	0.6
854.597	1.7
854.765	-0.3
854.934	2.87
855.102	3.65
855.27	1.2
855.438	2.02
855.606	2.52
855.774	3.4
855.942	-0.28
856.11	-0.01
856.278	1.34
856.446	2.13
856.614	2.31
856.782	0.27
856.95	2.1
857.118	1.58
857.286	2.01
857.454	1.59
857.622	3.13
857.79	1.75
857.958	0.5
858.126	1.08
858.294	-0.73
858.462	1.55
858.629	1.15
858.797	0.07
858.965	2.17
859.133	1.33
859.301	0.73
859.468	1.82
859.636	1.47
859.804	3.13
859.971	2.82
860.139	1.37
860.307	2.36
860.474	1.51
860.642	1.35
860.81	1.46
860.977	0.84
861.145	3.71
861.313	1.49
861.48	0.46
861.648	3.25
861.815	0.85
861.983	-0.1
862.15	-0.08
862.318	3.1
862.485	4.27
862.653	1.25
862.82	0.31
862.988	3.89
863.155	2.54
863.322	0.58
863.49	0.29
863.657	2.24
863.824	4.27
863.992	2.47
864.159	2.14
864.326	3.26
864.494	0.34
864.661	4.34
864.828	-0.28
864.996	4.22
865.163	3.1
865.33	0.65
865.497	-2.36
865.664	-0.46
865.832	-1.18
865.999	0.92
866.166	-1.07
866.333	1.8
866.5	2.23
866.667	1.39
866.834	1.99
867.001	4.17
867.168	-0.69
867.335	2.16
867.502	-0.73
867.669	2.55
867.836	5.94
868.003	0.74
868.17	3.85
868.337	5.26
868.504	4.77
868.671	-0.94
868.838	1.66
869.005	4.09
869.172	3.27
869.339	1.42
869.505	1.07
869.672	3.02
869.839	3.38
870.006	2.63
870.173	0.93
870.339	3.12
870.506	4.24
870.673	-0.41
870.84	2.55
871.006	2.15
871.173	0.92
871.34	2.41
871.506	-1
871.673	1.33
871.839	1.11
872.006	1.83
872.173	1.9
872.339	1.71
872.506	2.84
872.672	2.34
872.839	0.71
873.005	2.68
873.172	5.4
873.338	3.43
873.505	1.82
873.671	4.57
873.838	3.98
874.004	-0.41
874.171	1.96
874.337	3.04
874.503	2.21
874.67	2.16
874.836	1.7
875.002	4.8
875.169	4.95
875.335	2.66
875.501	0.84
875.668	3.22
875.834	2.92
876	0.33
876.166	3.77
876.332	3.94
876.499	5.41
876.665	1.81
876.831	2.15
876.997	5.08
877.163	2.95
877.329	-0.46
877.495	3.11
877.662	1.94
877.828	2.34
877.994	2.09
878.16	-1.26
878.326	1.25
878.492	3.62
878.658	2.74
878.824	2.85
878.99	3.55
879.156	0.68
879.322	5.24
879.487	1.96
879.653	3.06
879.819	3.48
879.985	0.63
880.151	2.01
880.317	2.8
880.483	2.22
880.648	3.64
880.814	-1.35
880.98	2.43
881.146	-1.37
881.312	0.45
881.477	2.1
881.643	1.67
881.809	4.91
881.974	2.65
882.14	-0.21
882.306	2.01
882.471	6.34
882.637	0.11
882.803	3.03
882.968	5.49
883.134	6.33
883.299	2.8
883.465	3.49
883.63	3.76
883.796	3.11
883.961	3.23
884.127	2.82
884.292	-4.42
884.458	0.97
884.623	0.97
