Data from Apollo_Calib_20240827__AbsoluteIrradiance__873__13-42-02-771.txt Node

Date: Wed Aug 28 13:42:02 BST 2024
User: biology
Spectrometer: FLMT08252
Trigger mode: 0
Integration Time (sec): 5.000000E-1
Scans to average: 5
Electric dark correction enabled: true
Nonlinearity correction enabled: false
Boxcar width: 0
XAxis mode: Wavelengths
Number of Pixels in Spectrum: 3648
>>>>>Begin Spectral Data<<<<<
179.588	-0
179.809	-0
180.03	-0
180.251	-0
180.473	-0
180.694	0
180.915	0
181.136	-0
181.357	0
181.578	-0
181.799	0
182.02	-0
182.241	0
182.462	-0
182.683	0
182.904	-0
183.125	-0
183.346	0
183.567	0
183.788	0
184.009	0
184.23	0
184.451	0
184.672	0
184.892	0
185.113	0
185.334	0
185.555	0
185.776	0
185.996	0
186.217	0
186.438	0
186.659	0
186.879	0
187.1	0
187.321	0
187.541	0
187.762	0
187.983	0
188.203	0
188.424	0
188.644	0
188.865	0
189.086	0
189.306	0
189.527	0
189.747	0
189.968	0
190.188	0
190.409	0
190.629	0
190.849	0
191.07	0
191.29	0
191.511	0
191.731	0
191.951	0
192.172	0
192.392	0
192.612	0
192.833	0
193.053	0
193.273	0
193.493	0
193.714	0
193.934	0
194.154	0
194.374	0
194.594	0
194.815	0
195.035	0
195.255	0
195.475	0
195.695	0
195.915	0
196.135	0
196.355	0
196.575	0
196.795	0
197.015	0
197.235	0
197.455	0
197.675	0
197.895	0
198.115	0
198.335	0
198.555	0
198.775	0
198.995	0
199.214	0
199.434	0
199.654	0
199.874	0
200.094	3.71
200.313	2.21
200.533	1.49
200.753	1.51
200.973	3.52
201.192	3.11
201.412	0.89
201.632	1.8
201.851	3.65
202.071	1.63
202.291	1.45
202.51	1.34
202.73	2.82
202.95	1.97
203.169	1.14
203.389	1.69
203.608	1.98
203.828	1.7
204.047	1.42
204.267	2.26
204.486	2.5
204.706	2.24
204.925	1.63
205.145	1.4
205.364	2.23
205.583	2.67
205.803	1.2
206.022	0.78
206.242	1.61
206.461	1.88
206.68	0.98
206.9	1.42
207.119	2.36
207.338	2.35
207.557	0.86
207.777	1.17
207.996	1.52
208.215	2.14
208.434	1.01
208.654	0.71
208.873	1.52
209.092	2.48
209.311	1.13
209.53	1.16
209.749	1.21
209.968	0.97
210.187	1.07
210.407	0.69
210.626	1.11
210.845	1.48
211.064	1.07
211.283	0.74
211.502	1.49
211.721	1.09
211.94	0.98
212.159	1.53
212.377	1.55
212.596	1.27
212.815	1.31
213.034	1.03
213.253	1.34
213.472	1.49
213.691	0.83
213.91	0.36
214.128	0.5
214.347	1.65
214.566	0.73
214.785	0.42
215.003	1.09
215.222	1.16
215.441	0.86
215.66	0.57
215.878	1.04
216.097	1.23
216.316	0.56
216.534	0.81
216.753	1.11
216.972	0.8
217.19	0.82
217.409	0.62
217.627	0.99
217.846	0.75
218.064	1.03
218.283	0.52
218.501	1.28
218.72	1.06
218.938	0.53
219.157	0.54
219.375	1.08
219.594	1
219.812	0.47
220.031	0.52
220.249	1.24
220.467	1.02
220.686	0.65
220.904	0.44
221.122	0.75
221.341	1.36
221.559	0.76
221.777	0.53
221.995	0.84
222.214	0.96
222.432	0.54
222.65	0.71
222.868	0.86
223.086	0.83
223.305	0.89
223.523	0.52
223.741	1.04
223.959	0.77
224.177	0.44
224.395	0.4
224.613	0.74
224.831	0.97
225.049	0.49
225.267	0.62
225.485	0.77
225.703	0.69
225.921	0.5
226.139	0.5
226.357	0.87
226.575	0.87
226.793	0.55
227.011	1.63
227.229	0.81
227.447	0.97
227.665	0.56
227.883	0.21
228.1	0.62
228.318	0.77
228.536	0.33
228.754	0.42
228.972	0.75
229.189	0.86
229.407	0.51
229.625	0.61
229.843	0.84
230.06	0.78
230.278	0.54
230.496	0.53
230.713	0.68
230.931	0.87
231.149	0.5
231.366	0.24
231.584	0.5
231.801	1.03
232.019	0.43
232.236	0.35
232.454	0.51
232.671	0.66
232.889	0.36
233.106	0.32
233.324	0.64
233.541	0.43
233.759	0.58
233.976	0.38
234.194	0.55
234.411	0.46
234.628	0.4
234.846	0.39
235.063	0.63
235.28	0.61
235.498	0.6
235.715	0.32
235.932	0.72
236.149	0.53
236.367	0.31
236.584	0.52
236.801	0.44
237.018	0.57
237.236	0.48
237.453	0.34
237.67	0.73
237.887	0.48
238.104	0.43
238.321	0.4
238.538	0.34
238.755	0.77
238.973	0.22
239.19	0.5
239.407	0.58
239.624	0.58
239.841	0.37
240.058	0.37
240.275	0.53
240.492	0.42
240.709	0.47
240.925	0.34
241.142	0.52
241.359	0.41
241.576	0.26
241.793	0.32
242.01	0.41
242.227	0.6
242.444	0.45
242.66	0.56
242.877	0.54
243.094	0.36
243.311	0.44
243.527	0.41
243.744	0.56
243.961	0.5
244.178	0.42
244.394	0.34
244.611	0.66
244.828	0.64
245.044	0.3
245.261	0.34
245.477	0.56
245.694	0.55
245.911	0.28
246.127	0.48
246.344	0.63
246.56	0.58
246.777	0.35
246.993	0.45
247.21	0.47
247.426	0.52
247.643	0.28
247.859	0.33
248.076	0.3
248.292	0.69
248.508	0.37
248.725	0.43
248.941	0.51
249.157	0.53
249.374	0.33
249.59	0.34
249.806	0.34
250.023	0.51
250.239	0.28
250.455	0.36
250.671	0.4
250.888	0.47
251.104	0.49
251.32	0.32
251.536	0.39
251.752	0.4
251.969	0.37
252.185	0.36
252.401	0.6
252.617	0.43
252.833	0.28
253.049	0.37
253.265	0.34
253.481	0.4
253.697	0.38
253.913	0.31
254.129	0.45
254.345	0.44
254.561	0.3
254.777	0.33
254.993	0.49
255.209	0.42
255.425	0.27
255.641	0.36
255.857	0.46
256.073	0.44
256.288	0.24
256.504	0.27
256.72	0.53
256.936	0.61
257.152	0.35
257.367	0.28
257.583	0.45
257.799	0.5
258.015	0.36
258.23	0.37
258.446	0.63
258.662	0.39
258.877	0.24
259.093	0.18
259.309	0.39
259.524	0.5
259.74	0.31
259.955	0.23
260.171	0.42
260.387	0.42
260.602	0.47
260.818	0.41
261.033	0.28
261.249	0.45
261.464	0.32
261.68	0.23
261.895	0.5
262.11	0.4
262.326	0.27
262.541	0.22
262.757	0.45
262.972	0.46
263.187	0.32
263.403	0.35
263.618	0.6
263.833	0.37
264.049	0.27
264.264	0.19
264.479	0.38
264.694	0.51
264.91	0.27
265.125	0.27
265.34	0.4
265.555	0.59
265.77	0.35
265.986	0.25
266.201	0.44
266.416	0.47
266.631	0.31
266.846	0.34
267.061	0.49
267.276	0.45
267.491	0.18
267.706	0.39
267.921	0.37
268.136	0.36
268.351	0.31
268.566	0.21
268.781	0.46
268.996	0.51
269.211	0.3
269.426	0.27
269.641	0.28
269.856	0.4
270.071	0.23
270.285	0.24
270.5	0.48
270.715	0.42
270.93	0.29
271.145	0.33
271.359	0.43
271.574	0.26
271.789	0.3
272.004	0.24
272.218	0.31
272.433	0.4
272.648	0.27
272.862	0.39
273.077	0.35
273.292	0.31
273.506	0.27
273.721	0.34
273.936	0.32
274.15	0.39
274.365	0.2
274.579	0.39
274.794	0.37
275.008	0.42
275.223	0.19
275.437	0.28
275.652	0.4
275.866	0.41
276.081	0.24
276.295	0.35
276.509	0.33
276.724	0.32
276.938	0.35
277.153	0.35
277.367	0.4
277.581	0.3
277.796	0.29
278.01	0.21
278.224	0.4
278.438	0.45
278.653	0.19
278.867	0.23
279.081	0.17
279.295	0.3
279.51	0.31
279.724	0.22
279.938	0.42
280.152	0.39
280.366	0.23
280.58	0.25
280.794	0.43
281.008	0.39
281.222	0.38
281.437	0.48
281.651	0.31
281.865	0.41
282.079	0.27
282.293	0.16
282.507	0.26
282.721	0.28
282.935	0.27
283.148	0.27
283.362	0.31
283.576	0.22
283.79	0.28
284.004	0.25
284.218	0.42
284.432	0.28
284.646	0.27
284.859	0.23
285.073	0.24
285.287	0.35
285.501	0.24
285.714	0.27
285.928	0.35
286.142	0.43
286.356	0.21
286.569	0.25
286.783	0.4
286.997	0.37
287.21	0.29
287.424	0.26
287.637	0.26
287.851	0.24
288.065	0.32
288.278	0.26
288.492	0.3
288.705	0.27
288.919	0.32
289.132	0.21
289.346	0.35
289.559	0.22
289.773	0.27
289.986	0.26
290.2	0.28
290.413	0.35
290.626	0.26
290.84	0.23
291.053	0.27
291.267	0.42
291.48	0.2
291.693	0.29
291.906	0.27
292.12	0.29
292.333	0.22
292.546	0.23
292.76	0.37
292.973	0.3
293.186	0.32
293.399	0.24
293.612	0.33
293.826	0.29
294.039	0.26
294.252	0.25
294.465	0.36
294.678	0.29
294.891	0.25
295.104	0.22
295.317	0.27
295.53	0.31
295.743	0.23
295.956	0.28
296.169	0.35
296.382	0.33
296.595	0.22
296.808	0.23
297.021	0.32
297.234	0.31
297.447	0.24
297.66	0.26
297.873	0.31
298.086	0.37
298.299	0.19
298.511	0.13
298.724	0.24
298.937	0.21
299.15	0.16
299.363	0.25
299.575	0.3
299.788	0.28
300.001	0.25
300.213	0.2
300.426	0.26
300.639	0.21
300.852	0.23
301.064	0.29
301.277	0.35
301.489	0.3
301.702	0.29
301.915	0.25
302.127	0.25
302.34	0.3
302.552	0.27
302.765	0.23
302.977	0.34
303.19	0.27
303.402	0.22
303.615	0.22
303.827	0.22
304.04	0.23
304.252	0.26
304.464	0.25
304.677	0.41
304.889	0.31
305.102	0.2
305.314	0.2
305.526	0.25
305.739	0.3
305.951	0.24
306.163	0.26
306.375	0.33
306.588	0.23
306.8	0.21
307.012	0.19
307.224	0.26
307.436	0.3
307.649	0.12
307.861	0.28
308.073	0.31
308.285	0.24
308.497	0.16
308.709	0.21
308.921	0.29
309.133	0.3
309.346	0.23
309.558	0.22
309.77	0.32
309.982	0.33
310.194	0.29
310.406	0.17
310.617	0.4
310.829	0.27
311.041	0.25
311.253	0.19
311.465	0.25
311.677	0.26
311.889	0.2
312.101	0.2
312.313	0.27
312.524	0.38
312.736	0.18
312.948	0.21
313.16	0.34
313.372	0.31
313.583	0.26
313.795	0.26
314.007	0.26
314.218	0.35
314.43	0.23
314.642	0.17
314.853	0.18
315.065	0.34
315.277	0.26
315.488	0.21
315.7	0.35
315.912	0.31
316.123	0.26
316.335	0.21
316.546	0.38
316.758	0.24
316.969	0.23
317.181	0.23
317.392	0.25
317.604	0.35
317.815	0.19
318.026	0.22
318.238	0.23
318.449	0.29
318.661	0.15
318.872	0.18
319.083	0.22
319.295	0.29
319.506	0.23
319.717	0.24
319.929	0.27
320.14	0.24
320.351	0.25
320.562	0.23
320.774	0.29
320.985	0.26
321.196	0.19
321.407	0.19
321.618	0.28
321.829	0.29
322.041	0.29
322.252	0.24
322.463	0.32
322.674	0.27
322.885	0.19
323.096	0.21
323.307	0.27
323.518	0.26
323.729	0.22
323.94	0.24
324.151	0.24
324.362	0.29
324.573	0.26
324.784	0.18
324.995	0.34
325.206	0.3
325.417	0.24
325.628	0.24
325.838	0.3
326.049	0.22
326.26	0.29
326.471	0.18
326.682	0.3
326.892	0.24
327.103	0.16
327.314	0.18
327.525	0.32
327.735	0.3
327.946	0.23
328.157	0.18
328.368	0.25
328.578	0.28
328.789	0.32
328.999	0.24
329.21	0.25
329.421	0.31
329.631	0.23
329.842	0.22
330.052	0.24
330.263	0.36
330.473	0.3
330.684	0.21
330.894	0.28
331.105	0.27
331.315	0.28
331.526	0.16
331.736	0.32
331.947	0.31
332.157	0.3
332.367	0.17
332.578	0.3
332.788	0.34
332.999	0.3
333.209	0.23
333.419	0.17
333.629	0.3
333.84	0.25
334.05	0.23
334.26	0.34
334.47	0.25
334.681	0.27
334.891	0.19
335.101	0.3
335.311	0.39
335.521	0.25
335.732	0.22
335.942	0.31
336.152	0.27
336.362	0.26
336.572	0.25
336.782	0.35
336.992	0.22
337.202	0.23
337.412	0.22
337.622	0.25
337.832	0.24
338.042	0.2
338.252	0.2
338.462	0.25
338.672	0.27
338.882	0.24
339.092	0.25
339.302	0.33
339.511	0.27
339.721	0.24
339.931	0.16
340.141	0.35
340.351	0.34
340.561	0.3
340.77	0.26
340.98	0.29
341.19	0.24
341.4	0.23
341.609	0.23
341.819	0.22
342.029	0.21
342.238	0.25
342.448	0.19
342.658	0.29
342.867	0.26
343.077	0.22
343.286	0.24
343.496	0.25
343.706	0.34
343.915	0.21
344.125	0.24
344.334	0.3
344.544	0.17
344.753	0.21
344.963	0.21
345.172	0.25
345.381	0.2
345.591	0.19
345.8	0.23
346.01	0.38
346.219	0.3
346.428	0.14
346.638	0.27
346.847	0.21
347.056	0.32
347.266	0.21
347.475	0.22
347.684	0.3
347.893	0.28
348.103	0.28
348.312	0.25
348.521	0.26
348.73	0.26
348.94	0.27
349.149	0.23
349.358	0.25
349.567	0.22
349.776	0.14
349.985	0.19
350.194	0.27
350.403	0.31
350.612	0.16
350.821	0.19
351.03	0.22
351.239	0.18
351.448	0.28
351.657	0.23
351.866	0.33
352.075	0.29
352.284	0.32
352.493	0.2
352.702	0.33
352.911	0.27
353.12	0.26
353.329	0.25
353.538	0.28
353.746	0.23
353.955	0.16
354.164	0.25
354.373	0.22
354.582	0.31
354.79	0.26
354.999	0.28
355.208	0.22
355.416	0.33
355.625	0.22
355.834	0.19
356.042	0.31
356.251	0.18
356.46	0.16
356.668	0.28
356.877	0.38
357.085	0.31
357.294	0.16
357.503	0.26
357.711	0.23
357.92	0.45
358.128	0.26
358.337	0.21
358.545	0.26
358.754	0.21
358.962	0.31
359.17	0.2
359.379	0.24
359.587	0.24
359.796	0.22
360.004	0.31
360.212	0.3
360.421	0.33
360.629	0.26
360.837	0.23
361.046	0.29
361.254	0.41
361.462	0.25
361.67	0.22
361.879	0.28
362.087	0.3
362.295	0.21
362.503	0.21
362.711	0.17
362.92	0.2
363.128	0.22
363.336	0.19
363.544	0.21
363.752	0.23
363.96	0.24
364.168	0.2
364.376	0.27
364.584	0.27
364.792	0.31
365	0.27
365.208	0.29
365.416	0.3
365.624	0.27
365.832	0.22
366.04	0.33
366.248	0.25
366.456	0.26
366.664	0.25
366.872	0.25
367.079	0.24
367.287	0.24
367.495	0.23
367.703	0.26
367.911	0.26
368.118	0.24
368.326	0.23
368.534	0.17
368.742	0.32
368.949	0.15
369.157	0.22
369.365	0.27
369.572	0.22
369.78	0.22
369.988	0.31
370.195	0.26
370.403	0.32
370.61	0.23
370.818	0.2
371.026	0.37
371.233	0.19
371.441	0.26
371.648	0.25
371.856	0.29
372.063	0.27
372.271	0.21
372.478	0.22
372.685	0.21
372.893	0.3
373.1	0.26
373.308	0.21
373.515	0.36
373.722	0.3
373.93	0.24
374.137	0.28
374.344	0.36
374.552	0.31
374.759	0.26
374.966	0.29
375.173	0.23
375.381	0.32
375.588	0.23
375.795	0.22
376.002	0.26
376.209	0.23
376.417	0.23
376.624	0.32
376.831	0.3
377.038	0.27
377.245	0.17
377.452	0.25
377.659	0.26
377.866	0.25
378.073	0.25
378.28	0.28
378.487	0.33
378.694	0.31
378.901	0.24
379.108	0.27
379.315	0.32
379.522	0.36
379.729	0.26
379.936	0.25
380.143	0.28
380.35	0.26
380.557	0.26
380.763	0.23
380.97	0.26
381.177	0.3
381.384	0.27
381.591	0.21
381.797	0.29
382.004	0.33
382.211	0.31
382.418	0.19
382.624	0.31
382.831	0.32
383.038	0.21
383.244	0.3
383.451	0.3
383.658	0.33
383.864	0.23
384.071	0.23
384.277	0.35
384.484	0.23
384.69	0.34
384.897	0.22
385.103	0.27
385.31	0.23
385.516	0.22
385.723	0.22
385.929	0.26
386.136	0.24
386.342	0.34
386.549	0.26
386.755	0.32
386.961	0.33
387.168	0.26
387.374	0.28
387.58	0.33
387.787	0.28
387.993	0.32
388.199	0.29
388.406	0.26
388.612	0.29
388.818	0.23
389.024	0.21
389.231	0.3
389.437	0.42
389.643	0.3
389.849	0.3
390.055	0.29
390.261	0.3
390.467	0.32
390.674	0.24
390.88	0.28
391.086	0.36
391.292	0.24
391.498	0.32
391.704	0.33
391.91	0.27
392.116	0.26
392.322	0.2
392.528	0.32
392.734	0.32
392.94	0.26
393.146	0.32
393.352	0.32
393.557	0.29
393.763	0.3
393.969	0.34
394.175	0.33
394.381	0.32
394.587	0.28
394.792	0.3
394.998	0.38
395.204	0.36
395.41	0.27
395.615	0.34
395.821	0.31
396.027	0.33
396.233	0.29
396.438	0.33
396.644	0.42
396.85	0.34
397.055	0.31
397.261	0.33
397.466	0.33
397.672	0.34
397.878	0.39
398.083	0.32
398.289	0.32
398.494	0.41
398.7	0.33
398.905	0.27
399.111	0.45
399.316	0.29
399.522	0.35
399.727	0.31
399.932	0.35
400.138	0.28
400.343	0.39
400.549	0.34
400.754	0.38
400.959	0.42
401.165	0.32
401.37	0.42
401.575	0.32
401.78	0.37
401.986	0.36
402.191	0.37
402.396	0.37
402.601	0.47
402.807	0.42
403.012	0.38
403.217	0.44
403.422	0.41
403.627	0.42
403.832	0.4
404.037	0.51
404.243	0.42
404.448	0.43
404.653	0.39
404.858	0.5
405.063	0.44
405.268	0.4
405.473	0.37
405.678	0.44
405.883	0.67
406.088	0.53
406.293	0.43
406.498	0.45
406.703	0.48
406.907	0.54
407.112	0.41
407.317	0.49
407.522	0.62
407.727	0.46
407.932	0.56
408.136	0.67
408.341	0.55
408.546	0.57
408.751	0.54
408.956	0.58
409.16	0.68
409.365	0.57
409.57	0.59
409.774	0.68
409.979	0.71
410.184	0.66
410.388	0.63
410.593	0.86
410.798	0.72
411.002	0.7
411.207	0.83
411.411	0.79
411.616	0.76
411.82	0.88
412.025	0.81
412.229	0.83
412.434	0.99
412.638	0.98
412.843	0.91
413.047	0.96
413.252	0.98
413.456	1.01
413.66	1.06
413.865	1.06
414.069	1.13
414.273	1.14
414.478	1.14
414.682	1.2
414.886	1.31
415.091	1.23
415.295	1.25
415.499	1.43
415.703	1.37
415.908	1.47
416.112	1.38
416.316	1.59
416.52	1.6
416.724	1.57
416.929	1.63
417.133	1.92
417.337	1.8
417.541	1.85
417.745	1.89
417.949	2.02
418.153	2.06
418.357	2.04
418.561	2.3
418.765	2.24
418.969	2.43
419.173	2.54
419.377	2.52
419.581	2.74
419.785	2.71
419.989	2.7
420.193	2.8
420.397	2.95
420.601	3.13
420.804	3.16
421.008	3.14
421.212	3.35
421.416	3.36
421.62	3.35
421.823	3.46
422.027	3.62
422.231	3.58
422.435	3.51
422.638	3.68
422.842	3.75
423.046	3.84
423.249	4.02
423.453	4.04
423.657	4.25
423.86	4.33
424.064	4.42
424.268	4.58
424.471	4.6
424.675	4.78
424.878	4.87
425.082	5.01
425.285	5.29
425.489	5.22
425.692	5.36
425.896	5.34
426.099	5.63
426.303	5.75
426.506	5.87
426.71	6.12
426.913	6.38
427.116	6.45
427.32	6.36
427.523	6.48
427.726	6.85
427.93	6.89
428.133	7.27
428.336	7.44
428.54	7.55
428.743	7.84
428.946	7.93
429.149	8.16
429.353	8.04
429.556	8.19
429.759	8.14
429.962	8.3
430.165	8.46
430.368	8.11
430.571	8.18
430.775	8.31
430.978	8.17
431.181	8.36
431.384	8.44
431.587	8.43
431.79	8.9
431.993	8.76
432.196	9.06
432.399	9.46
432.602	9.49
432.805	9.66
433.008	10.2
433.211	10.11
433.414	10.46
433.616	10.42
433.819	10.37
434.022	10.63
434.225	10.78
434.428	10.82
434.631	11.24
434.833	11.01
435.036	11.19
435.239	11.5
435.442	11.51
435.645	11.62
435.847	11.65
436.05	12.01
436.253	12.23
436.455	12.33
436.658	12.08
436.861	12.5
437.063	12.58
437.266	12.54
437.468	12.87
437.671	13.26
437.874	13.29
438.076	13.18
438.279	13.55
438.481	13.61
438.684	14.41
438.886	13.95
439.089	14.27
439.291	14.4
439.494	14.55
439.696	14.84
439.899	15.35
440.101	15.87
440.303	15.93
440.506	16.7
440.708	16.43
440.91	16.67
441.113	16.99
441.315	17.19
441.517	16.96
441.72	17.4
441.922	16.99
442.124	16.94
442.326	17.32
442.529	17.58
442.731	17.61
442.933	17.88
443.135	17.52
443.337	17.64
443.539	18.14
443.742	17.71
443.944	18.51
444.146	18.27
444.348	18.12
444.55	18
444.752	18.28
444.954	18.28
445.156	18.09
445.358	18.63
445.56	18.87
445.762	18.54
445.964	18.92
446.166	18.87
446.368	18.64
446.57	18.75
446.772	18.17
446.974	18.01
447.175	18.31
447.377	18.04
447.579	18.33
447.781	18.08
447.983	17.81
448.184	17.39
448.386	17.79
448.588	17.29
448.79	17.18
448.991	17.62
449.193	17.46
449.395	16.85
449.597	16.45
449.798	16.45
450	15.86
450.202	15.82
450.403	15.82
450.605	15.72
450.806	15.25
451.008	15.2
451.21	14.85
451.411	14.39
451.613	13.67
451.814	13.97
452.016	13.94
452.217	13.2
452.419	13.28
452.62	12.9
452.821	12.47
453.023	12.55
453.224	12.09
453.426	11.6
453.627	11.06
453.828	11.1
454.03	11.22
454.231	11.07
454.432	10.87
454.634	10.65
454.835	10.27
455.036	10.31
455.238	9.93
455.439	9.75
455.64	9.43
455.841	9.3
456.042	9.39
456.244	9.03
456.445	8.84
456.646	8.49
456.847	8.39
457.048	8.43
457.249	8.28
457.45	8.14
457.651	7.61
457.852	7.5
458.054	7.1
458.255	7.16
458.456	7.22
458.657	7.07
458.858	6.63
459.058	6.56
459.259	6.62
459.46	6.29
459.661	6.34
459.862	6.43
460.063	6.15
460.264	6.17
460.465	5.9
460.666	6.01
460.866	5.6
461.067	5.41
461.268	5.48
461.469	5.43
461.67	5.34
461.87	5.2
462.071	5.2
462.272	5.13
462.473	5.02
462.673	5.21
462.874	5.09
463.075	5.05
463.275	5.01
463.476	5.09
463.676	5.01
463.877	4.85
464.078	4.87
464.278	4.91
464.479	4.82
464.679	4.63
464.88	4.64
465.08	4.62
465.281	4.41
465.481	4.22
465.682	4.06
465.882	4.04
466.083	4.02
466.283	3.98
466.483	3.86
466.684	3.68
466.884	3.5
467.085	3.65
467.285	3.69
467.485	3.6
467.686	3.5
467.886	3.38
468.086	3.32
468.286	3.32
468.487	3.43
468.687	3.2
468.887	3.19
469.087	3.37
469.287	3.24
469.488	3.03
469.688	3.15
469.888	3.16
470.088	3.09
470.288	3.03
470.488	3.04
470.688	2.84
470.888	2.78
471.088	2.66
471.288	2.74
471.488	2.75
471.688	2.72
471.888	2.62
472.088	2.75
472.288	2.67
472.488	2.57
472.688	2.53
472.888	2.59
473.088	2.52
473.288	2.46
473.488	2.48
473.688	2.56
473.887	2.42
474.087	2.41
474.287	2.39
474.487	2.39
474.687	2.41
474.886	2.31
475.086	2.28
475.286	2.29
475.486	2.29
475.685	2.24
475.885	2.19
476.085	2.23
476.284	2.23
476.484	2.25
476.684	2.14
476.883	2.31
477.083	2.15
477.282	2.1
477.482	2.19
477.681	2.13
477.881	2.1
478.08	2.02
478.28	2
478.479	2.09
478.679	2.12
478.878	2
479.078	2.01
479.277	2.04
479.477	1.99
479.676	1.98
479.875	1.98
480.075	1.95
480.274	1.97
480.473	2.08
480.673	2
480.872	2.06
481.071	2
481.271	2.01
481.47	1.98
481.669	1.98
481.868	1.97
482.067	1.95
482.267	1.88
482.466	1.91
482.665	1.9
482.864	1.92
483.063	1.91
483.262	1.99
483.461	2.01
483.661	2.07
483.86	1.94
484.059	2.06
484.258	2.05
484.457	1.96
484.656	2.03
484.855	2.11
485.054	1.89
485.253	1.94
485.452	1.94
485.651	2.05
485.849	2.04
486.048	1.99
486.247	2.02
486.446	2.04
486.645	1.99
486.844	2
487.043	2.04
487.241	2.06
487.44	2.05
487.639	2.1
487.838	2.12
488.037	2.09
488.235	2.22
488.434	2.17
488.633	2.03
488.831	2.19
489.03	2.23
489.229	2.2
489.427	2.15
489.626	2.27
489.825	2.28
490.023	2.31
490.222	2.25
490.42	2.3
490.619	2.34
490.817	2.36
491.016	2.35
491.214	2.37
491.413	2.39
491.611	2.4
491.81	2.39
492.008	2.48
492.207	2.52
492.405	2.52
492.604	2.48
492.802	2.56
493	2.59
493.199	2.63
493.397	2.6
493.595	2.67
493.794	2.65
493.992	2.74
494.19	2.69
494.388	2.8
494.587	2.74
494.785	2.77
494.983	2.72
495.181	2.88
495.379	2.91
495.578	2.94
495.776	2.96
495.974	2.94
496.172	2.96
496.37	3.06
496.568	3.1
496.766	3.09
496.964	3.18
497.162	3.15
497.36	3.2
497.558	3.27
497.756	3.34
497.954	3.32
498.152	3.34
498.35	3.51
498.548	3.39
498.746	3.4
498.944	3.4
499.142	3.43
499.34	3.53
499.538	3.66
499.736	3.53
499.933	3.69
500.131	3.64
500.329	3.8
500.527	3.73
500.725	3.92
500.922	3.89
501.12	3.92
501.318	3.97
501.516	3.92
501.713	4.03
501.911	4
502.109	3.95
502.306	4.09
502.504	4.04
502.701	4.14
502.899	4.17
503.097	4.39
503.294	4.22
503.492	4.31
503.689	4.37
503.887	4.39
504.084	4.45
504.282	4.42
504.479	4.43
504.677	4.6
504.874	4.59
505.072	4.41
505.269	4.73
505.466	4.71
505.664	4.8
505.861	4.65
506.059	4.75
506.256	4.79
506.453	4.86
506.651	5
506.848	5.03
507.045	5.01
507.242	4.96
507.44	5.04
507.637	5.12
507.834	5.06
508.031	5.25
508.229	5.11
508.426	5.12
508.623	5.28
508.82	5.32
509.017	5.28
509.214	5.27
509.411	5.4
509.608	5.35
509.805	5.51
510.003	5.45
510.2	5.52
510.397	5.73
510.594	5.58
510.791	5.67
510.988	5.66
511.184	5.66
511.381	5.52
511.578	5.66
511.775	5.81
511.972	5.77
512.169	5.87
512.366	5.84
512.563	5.97
512.76	6.07
512.956	6.02
513.153	6.01
513.35	5.87
513.547	5.93
513.744	6.11
513.94	6.09
514.137	6.2
514.334	6.14
514.53	6.23
514.727	6.36
514.924	6.31
515.12	6.25
515.317	6.31
515.514	6.28
515.71	6.22
515.907	6.48
516.103	6.45
516.3	6.35
516.497	6.47
516.693	6.56
516.89	6.46
517.086	6.54
517.283	6.58
517.479	6.47
517.676	6.65
517.872	6.67
518.068	6.64
518.265	6.68
518.461	6.59
518.658	6.73
518.854	6.76
519.05	6.9
519.247	6.85
519.443	6.79
519.639	6.9
519.836	6.84
520.032	6.8
520.228	6.95
520.424	6.94
520.621	6.95
520.817	6.98
521.013	6.92
521.209	7.13
521.405	7.13
521.601	7.07
521.798	7.06
521.994	7.12
522.19	6.96
522.386	7.1
522.582	7.14
522.778	7.27
522.974	7.18
523.17	7.15
523.366	7.13
523.562	7.23
523.758	7.26
523.954	7.04
524.15	7.25
524.346	7.27
524.542	7.29
524.738	7.28
524.934	7.37
525.129	7.36
525.325	7.3
525.521	7.24
525.717	7.47
525.913	7.32
526.109	7.38
526.304	7.5
526.5	7.44
526.696	7.53
526.892	7.41
527.087	7.66
527.283	7.52
527.479	7.53
527.674	7.33
527.87	7.51
528.066	7.55
528.261	7.53
528.457	7.47
528.653	7.66
528.848	7.56
529.044	7.71
529.239	7.56
529.435	7.58
529.63	7.54
529.826	7.59
530.021	7.54
530.217	7.64
530.412	7.6
530.608	7.7
530.803	7.71
530.999	7.54
531.194	7.67
531.389	7.75
531.585	7.73
531.78	7.79
531.975	7.75
532.171	7.81
532.366	7.75
532.561	7.8
532.757	7.78
532.952	7.94
533.147	7.66
533.342	7.83
533.538	7.71
533.733	7.91
533.928	7.6
534.123	7.79
534.318	7.88
534.513	7.77
534.709	7.94
534.904	7.82
535.099	7.91
535.294	7.95
535.489	7.98
535.684	7.89
535.879	7.82
536.074	7.93
536.269	8
536.464	7.94
536.659	7.85
536.854	7.92
537.049	7.97
537.244	7.95
537.439	7.93
537.634	7.92
537.828	8.01
538.023	7.94
538.218	7.98
538.413	7.88
538.608	7.99
538.803	8
538.997	7.92
539.192	7.96
539.387	7.96
539.582	8.03
539.776	7.86
539.971	7.98
540.166	8.09
540.36	7.92
540.555	8.07
540.75	7.98
540.944	8.1
541.139	8
541.334	8.03
541.528	8.01
541.723	8.18
541.917	8.05
542.112	7.95
542.306	7.95
542.501	7.97
542.695	8.07
542.89	7.86
543.084	8.02
543.279	8.02
543.473	8.11
543.668	8.1
543.862	7.92
544.056	7.97
544.251	8.14
544.445	8.14
544.64	8.13
544.834	7.86
545.028	7.66
545.222	8.05
545.417	8.21
545.611	8.12
545.805	8.09
546	7.84
546.194	8.07
546.388	8.04
546.582	7.99
546.776	8.04
546.97	8.07
547.165	8.06
547.359	8
547.553	8.04
547.747	8.02
547.941	8.24
548.135	8.02
548.329	8.13
548.523	8.15
548.717	8.08
548.911	8.12
549.105	8.07
549.299	8.15
549.493	8.1
549.687	8.04
549.881	8.21
550.075	8.14
550.269	8.01
550.463	8.11
550.657	8.1
550.85	8.11
551.044	8.11
551.238	8.09
551.432	8.09
551.626	8.11
551.82	8.17
552.013	7.98
552.207	8.17
552.401	8.17
552.594	8.11
552.788	8.03
552.982	8.08
553.176	8.05
553.369	8.24
553.563	8.19
553.756	8.09
553.95	8.16
554.144	8.1
554.337	8.16
554.531	7.98
554.724	8.19
554.918	8.24
555.111	8.13
555.305	8.13
555.498	8.11
555.692	8.31
555.885	8.16
556.079	8.06
556.272	8.21
556.466	8.08
556.659	8.07
556.852	8.21
557.046	8.07
557.239	7.95
557.432	8.03
557.626	8.15
557.819	8.21
558.012	8.17
558.206	8.22
558.399	8.18
558.592	8.11
558.785	8.04
558.979	8.08
559.172	8.07
559.365	8.11
559.558	8.06
559.751	8.04
559.944	8.23
560.138	8.04
560.331	8.17
560.524	8.18
560.717	8.09
560.91	8.08
561.103	8.16
561.296	8.05
561.489	8.11
561.682	8.26
561.875	8.19
562.068	8.27
562.261	8.07
562.454	8.29
562.647	8.11
562.84	8.08
563.032	8.15
563.225	8.07
563.418	8.11
563.611	8.19
563.804	8.15
563.997	8.01
564.19	7.97
564.382	8.22
564.575	8.12
564.768	8.08
564.961	8.16
565.153	8.09
565.346	8.03
565.539	8.15
565.731	8.11
565.924	8.19
566.117	8.29
566.309	8.16
566.502	8.08
566.695	8
566.887	8.17
567.08	8.11
567.272	8.18
567.465	8.03
567.657	8.18
567.85	8.01
568.042	8.16
568.235	8.12
568.427	7.99
568.62	8.11
568.812	8.08
569.005	8.13
569.197	7.99
569.389	8.04
569.582	8.08
569.774	8.02
569.966	8.07
570.159	7.92
570.351	8.01
570.543	8
570.736	8.04
570.928	7.91
571.12	8.08
571.312	7.99
571.505	7.73
571.697	8.07
571.889	8.04
572.081	8.02
572.273	7.97
572.465	8.03
572.658	8.05
572.85	8.06
573.042	8.05
573.234	7.93
573.426	8.01
573.618	7.95
573.81	8.05
574.002	8.05
574.194	8.04
574.386	7.92
574.578	7.84
574.77	7.94
574.962	7.94
575.154	7.87
575.346	7.88
575.538	7.86
575.729	7.86
575.921	7.93
576.113	8.04
576.305	7.94
576.497	7.97
576.689	7.85
576.88	7.75
577.072	8
577.264	7.88
577.456	7.91
577.647	7.82
577.839	8.07
578.031	7.83
578.223	7.81
578.414	7.74
578.606	7.88
578.798	7.92
578.989	7.85
579.181	7.91
579.372	7.78
579.564	7.88
579.755	7.73
579.947	7.72
580.139	7.84
580.33	7.69
580.522	7.83
580.713	7.71
580.905	7.78
581.096	7.86
581.287	7.76
581.479	7.7
581.67	7.84
581.862	7.74
582.053	7.73
582.244	7.58
582.436	7.81
582.627	7.65
582.818	7.63
583.01	7.61
583.201	7.7
583.392	7.68
583.583	7.61
583.775	7.42
583.966	7.62
584.157	7.64
584.348	7.7
584.54	7.5
584.731	7.68
584.922	7.54
585.113	7.49
585.304	7.63
585.495	7.57
585.686	7.7
585.877	7.61
586.068	7.73
586.259	7.57
586.45	7.55
586.641	7.55
586.832	7.6
587.023	7.54
587.214	7.45
587.405	7.55
587.596	7.44
587.787	7.39
587.978	7.46
588.169	7.38
588.36	7.37
588.551	7.43
588.742	7.46
588.932	7.52
589.123	7.3
589.314	7.59
589.505	7.36
589.696	7.36
589.886	7.37
590.077	7.4
590.268	7.26
590.458	7.23
590.649	7.14
590.84	7.34
591.03	7.36
591.221	7.28
591.412	7.18
591.602	7.43
591.793	7.27
591.984	7.27
592.174	7.29
592.365	7.36
592.555	7.17
592.746	7.07
592.936	7.19
593.127	7.23
593.317	7.22
593.508	7.19
593.698	7.09
593.889	7.1
594.079	7.13
594.269	7.07
594.46	7.04
594.65	7.1
594.84	7.12
595.031	6.95
595.221	7.03
595.411	7.05
595.602	7.01
595.792	7
595.982	6.89
596.172	7.07
596.363	6.92
596.553	7
596.743	6.98
596.933	6.88
597.123	6.82
597.314	6.75
597.504	6.85
597.694	6.95
597.884	6.79
598.074	6.87
598.264	6.83
598.454	6.87
598.644	6.81
598.834	6.75
599.024	6.68
599.214	6.77
599.404	6.81
599.594	6.72
599.784	6.69
599.974	6.73
600.164	6.75
600.354	6.67
600.544	6.56
600.734	6.67
600.924	6.67
601.114	6.54
601.303	6.58
601.493	6.57
601.683	6.55
601.873	6.51
602.063	6.45
602.252	6.56
602.442	6.39
602.632	6.47
602.821	6.39
603.011	6.49
603.201	6.46
603.39	6.39
603.58	6.25
603.77	6.43
603.959	6.52
604.149	6.4
604.339	6.4
604.528	6.48
604.718	6.4
604.907	6.32
605.097	6.25
605.286	6.29
605.476	6.24
605.665	6.25
605.855	6.28
606.044	6.33
606.234	6.16
606.423	6.13
606.612	6.2
606.802	6.13
606.991	6.24
607.181	6.18
607.37	6.19
607.559	5.98
607.749	6.17
607.938	6
608.127	6.05
608.316	6.03
608.506	6
608.695	6.06
608.884	5.99
609.073	6.05
609.263	6.04
609.452	6.02
609.641	5.86
609.83	5.85
610.019	5.95
610.208	5.87
610.397	5.81
610.586	5.88
610.775	5.82
610.965	5.78
611.154	5.72
611.343	5.81
611.532	5.7
611.721	5.84
611.91	5.75
612.099	5.72
612.287	5.64
612.476	5.57
612.665	5.7
612.854	5.58
613.043	5.66
613.232	5.56
613.421	5.49
613.61	5.62
613.798	5.57
613.987	5.56
614.176	5.61
614.365	5.54
614.554	5.52
614.742	5.56
614.931	5.43
615.12	5.6
615.309	5.46
615.497	5.39
615.686	5.3
615.875	5.4
616.063	5.37
616.252	5.29
616.44	5.37
616.629	5.35
616.818	5.38
617.006	5.26
617.195	5.27
617.383	5.37
617.572	5.18
617.76	5.21
617.949	5.21
618.137	5.26
618.326	5.26
618.514	5.05
618.703	5.01
618.891	5.21
619.079	5.12
619.268	5.17
619.456	5.02
619.644	5.18
619.833	5.03
620.021	5.04
620.209	4.95
620.398	5
620.586	4.93
620.774	4.98
620.962	4.93
621.151	5.02
621.339	4.86
621.527	4.83
621.715	4.81
621.903	4.9
622.092	4.83
622.28	4.85
622.468	4.66
622.656	4.85
622.844	4.78
623.032	4.82
623.22	4.67
623.408	4.9
623.596	4.79
623.784	4.83
623.972	4.64
624.16	4.65
624.348	4.73
624.536	4.69
624.724	4.55
624.912	4.66
625.1	4.61
625.288	4.64
625.476	4.54
625.664	4.62
625.851	4.5
626.039	4.56
626.227	4.46
626.415	4.54
626.603	4.46
626.79	4.47
626.978	4.47
627.166	4.44
627.354	4.4
627.541	4.38
627.729	4.3
627.917	4.51
628.104	4.44
628.292	4.37
628.48	4.31
628.667	4.32
628.855	4.39
629.042	4.44
629.23	4.14
629.418	4.2
629.605	4.25
629.793	4.16
629.98	4.22
630.168	4.19
630.355	4.25
630.543	4.1
630.73	4.08
630.917	4.12
631.105	4.22
631.292	4.18
631.48	4.08
631.667	4.21
631.854	4.08
632.042	4.02
632.229	3.99
632.416	4.01
632.604	4
632.791	3.88
632.978	4
633.165	3.99
633.353	4.07
633.54	3.96
633.727	3.8
633.914	3.84
634.101	3.79
634.289	3.93
634.476	3.8
634.663	3.77
634.85	3.82
635.037	3.76
635.224	3.66
635.411	3.86
635.598	3.74
635.785	3.72
635.972	3.72
636.159	3.71
636.346	3.7
636.533	3.6
636.72	3.65
636.907	3.66
637.094	3.59
637.281	3.54
637.468	3.58
637.655	3.57
637.842	3.59
638.029	3.49
638.215	3.51
638.402	3.54
638.589	3.47
638.776	3.44
638.963	3.44
639.149	3.54
639.336	3.56
639.523	3.47
639.709	3.42
639.896	3.41
640.083	3.37
640.27	3.42
640.456	3.36
640.643	3.42
640.829	3.28
641.016	3.28
641.203	3.26
641.389	3.31
641.576	3.29
641.762	3.27
641.949	3.24
642.135	3.28
642.322	3.21
642.508	3.1
642.695	3.17
642.881	3.14
643.068	3.16
643.254	3.19
643.441	3.15
643.627	3.13
643.813	2.99
644	3.12
644.186	3.03
644.372	3.1
644.559	3.08
644.745	3.06
644.931	2.99
645.118	3
645.304	3.03
645.49	3.02
645.676	2.95
645.862	3
646.049	3.04
646.235	2.94
646.421	3.08
646.607	3.04
646.793	2.93
646.979	2.79
647.165	2.92
647.352	2.94
647.538	2.9
647.724	2.85
647.91	2.82
648.096	2.86
648.282	2.85
648.468	2.8
648.654	2.81
648.84	2.85
649.026	2.79
649.212	2.72
649.397	2.66
649.583	2.69
649.769	2.74
649.955	2.75
650.141	2.71
650.327	2.74
650.513	2.68
650.698	2.68
650.884	2.58
651.07	2.69
651.256	2.65
651.442	2.66
651.627	2.55
651.813	2.67
651.999	2.56
652.184	2.57
652.37	2.55
652.556	2.59
652.741	2.61
652.927	2.4
653.113	2.47
653.298	2.55
653.484	2.47
653.669	2.43
653.855	2.44
654.04	2.5
654.226	2.48
654.412	2.39
654.597	2.33
654.782	2.43
654.968	2.44
655.153	2.43
655.339	2.35
655.524	2.35
655.71	2.42
655.895	2.31
656.08	2.38
656.266	2.4
656.451	2.35
656.636	2.22
656.822	2.3
657.007	2.29
657.192	2.26
657.378	2.25
657.563	2.21
657.748	2.26
657.933	2.3
658.118	2.23
658.304	2.23
658.489	2.28
658.674	2.2
658.859	2.13
659.044	2.15
659.229	2.2
659.414	2.16
659.599	2.11
659.785	2.06
659.97	2.12
660.155	2.14
660.34	2.14
660.525	2.08
660.71	2.06
660.895	2.1
661.08	2.03
661.264	1.99
661.449	2.13
661.634	2.07
661.819	2.02
662.004	1.99
662.189	1.99
662.374	1.97
662.559	1.95
662.743	1.97
662.928	1.99
663.113	1.91
663.298	1.88
663.483	1.89
663.667	1.95
663.852	1.93
664.037	1.97
664.221	1.9
664.406	2.01
664.591	1.98
664.775	1.93
664.96	1.84
665.145	1.83
665.329	1.93
665.514	1.87
665.698	1.84
665.883	1.77
666.068	1.9
666.252	1.87
666.437	1.77
666.621	1.84
666.806	1.84
666.99	1.84
667.174	1.74
667.359	1.86
667.543	1.73
667.728	1.74
667.912	1.69
668.096	1.79
668.281	1.74
668.465	1.77
668.649	1.76
668.834	1.71
669.018	1.73
669.202	1.72
669.387	1.67
669.571	1.79
669.755	1.68
669.939	1.65
670.124	1.64
670.308	1.72
670.492	1.68
670.676	1.63
670.86	1.6
671.044	1.54
671.228	1.67
671.413	1.58
671.597	1.54
671.781	1.61
671.965	1.61
672.149	1.58
672.333	1.58
672.517	1.54
672.701	1.65
672.885	1.52
673.069	1.48
673.253	1.65
673.437	1.53
673.621	1.49
673.804	1.52
673.988	1.52
674.172	1.49
674.356	1.49
674.54	1.44
674.724	1.58
674.908	1.49
675.091	1.52
675.275	1.45
675.459	1.57
675.643	1.56
675.826	1.49
676.01	1.43
676.194	1.44
676.377	1.51
676.561	1.47
676.745	1.41
676.928	1.45
677.112	1.46
677.296	1.37
677.479	1.34
677.663	1.39
677.846	1.46
678.03	1.39
678.213	1.33
678.397	1.41
678.58	1.36
678.764	1.26
678.947	1.27
679.131	1.37
679.314	1.4
679.498	1.35
679.681	1.35
679.865	1.42
680.048	1.35
680.231	1.31
680.415	1.26
680.598	1.26
680.781	1.27
680.965	1.26
681.148	1.29
681.331	1.25
681.514	1.28
681.698	1.26
681.881	1.27
682.064	1.27
682.247	1.25
682.43	1.15
682.614	1.19
682.797	1.31
682.98	1.24
683.163	1.15
683.346	1.26
683.529	1.13
683.712	1.17
683.895	1.23
684.078	1.12
684.261	1.2
684.444	1.29
684.627	1.23
684.81	1.18
684.993	1.14
685.176	1.21
685.359	1.15
685.542	1.11
685.725	1.22
685.908	1.17
686.091	1.12
686.274	1.19
686.457	1.2
686.639	1.15
686.822	1.15
687.005	1.17
687.188	1.17
687.371	1.25
687.553	1.2
687.736	1.15
687.919	1.19
688.102	1.17
688.284	1.08
688.467	1.09
688.65	1.08
688.832	1.07
689.015	1.04
689.197	0.99
689.38	1.1
689.563	1.2
689.745	0.97
689.928	1
690.11	1.04
690.293	1.11
690.475	0.96
690.658	1.08
690.84	0.98
691.023	1.03
691.205	0.95
691.388	1
691.57	1.1
691.752	1.05
691.935	0.9
692.117	0.86
692.3	1.04
692.482	0.96
692.664	0.9
692.847	0.98
693.029	1.02
693.211	1.03
693.393	0.93
693.576	0.93
693.758	0.99
693.94	0.94
694.122	0.93
694.304	0.91
694.487	0.86
694.669	0.99
694.851	0.85
695.033	0.9
695.215	0.88
695.397	0.87
695.579	0.89
695.761	0.81
695.943	0.82
696.125	1.02
696.308	0.91
696.49	0.79
696.671	1.04
696.853	0.89
697.035	1.16
697.217	0.86
697.399	0.97
697.581	0.83
697.763	0.88
697.945	0.79
698.127	0.84
698.309	0.99
698.491	0.83
698.672	0.91
698.854	0.88
699.036	0.96
699.218	0.88
699.399	0.9
699.581	0.93
699.763	0.81
699.945	0.75
700.126	0.74
700.308	0.89
700.49	0.8
700.671	0.7
700.853	0.79
701.035	0.77
701.216	0.83
701.398	0.72
701.579	0.78
701.761	0.89
701.943	0.79
702.124	0.74
702.306	0.73
702.487	1.01
702.669	0.73
702.85	0.73
703.031	0.65
703.213	0.9
703.394	0.91
703.576	0.72
703.757	0.92
703.938	0.81
704.12	0.94
704.301	0.77
704.483	0.64
704.664	0.8
704.845	0.87
705.026	0.83
705.208	0.73
705.389	0.8
705.57	0.82
705.751	0.69
705.933	0.78
706.114	0.83
706.295	0.77
706.476	0.64
706.657	0.84
706.838	0.85
707.02	0.84
707.201	0.68
707.382	0.65
707.563	0.78
707.744	0.69
707.925	0.6
708.106	0.65
708.287	0.71
708.468	0.79
708.649	0.69
708.83	0.75
709.011	0.61
709.192	0.81
709.373	0.6
709.554	0.65
709.734	0.85
709.915	0.74
710.096	0.65
710.277	0.51
710.458	0.72
710.639	0.65
710.819	0.55
711	0.62
711.181	0.71
711.362	0.72
711.542	0.65
711.723	0.58
711.904	0.68
712.085	0.74
712.265	0.7
712.446	0.57
712.627	0.6
712.807	0.61
712.988	0.6
713.168	0.54
713.349	0.72
713.53	0.45
713.71	0.57
713.891	0.5
714.071	0.64
714.252	0.57
714.432	0.61
714.613	0.53
714.793	0.6
714.974	0.66
715.154	0.66
715.334	0.69
715.515	0.72
715.695	0.58
715.876	0.55
716.056	0.59
716.236	0.58
716.417	0.58
716.597	0.51
716.777	0.85
716.957	0.66
717.138	0.58
717.318	0.49
717.498	0.45
717.678	0.59
717.859	0.61
718.039	0.44
718.219	0.58
718.399	0.6
718.579	0.52
718.759	0.48
718.939	0.57
719.12	0.6
719.3	0.53
719.48	0.41
719.66	0.43
719.84	0.74
720.02	0.59
720.2	0.52
720.38	0.41
720.56	0.64
720.74	0.46
720.92	0.53
721.1	0.77
721.279	0.62
721.459	0.6
721.639	0.43
721.819	0.48
721.999	0.52
722.179	0.63
722.359	0.46
722.538	0.51
722.718	0.57
722.898	0.46
723.078	0.49
723.257	0.5
723.437	0.55
723.617	0.5
723.797	0.51
723.976	0.61
724.156	0.59
724.336	0.68
724.515	0.74
724.695	0.36
724.874	0.53
725.054	0.63
725.234	0.54
725.413	0.48
725.593	0.56
725.772	0.51
725.952	0.54
726.131	0.43
726.311	0.53
726.49	0.55
726.67	0.43
726.849	0.44
727.028	0.53
727.208	0.51
727.387	0.55
727.567	0.39
727.746	0.49
727.925	0.45
728.105	0.41
728.284	0.46
728.463	0.5
728.643	0.47
728.822	0.44
729.001	0.41
729.18	0.57
729.359	0.6
729.539	0.55
729.718	0.43
729.897	0.56
730.076	0.44
730.255	0.4
730.434	0.42
730.614	0.45
730.793	0.63
730.972	0.42
731.151	0.39
731.33	0.58
731.509	0.6
731.688	0.44
731.867	0.47
732.046	0.28
732.225	0.73
732.404	0.37
732.583	0.35
732.762	0.5
732.941	0.55
733.12	0.53
733.298	0.45
733.477	0.58
733.656	0.5
733.835	0.44
734.014	0.6
734.193	0.44
734.371	0.48
734.55	0.56
734.729	0.33
734.908	0.5
735.086	0.48
735.265	0.63
735.444	0.35
735.623	0.35
735.801	0.36
735.98	0.38
736.159	0.42
736.337	0.59
736.516	0.54
736.694	0.44
736.873	0.38
737.052	0.59
737.23	0.73
737.409	0.38
737.587	0.7
737.766	0.4
737.944	0.38
738.123	0.52
738.301	0.63
738.479	0.42
738.658	0.54
738.836	0.29
739.015	0.44
739.193	0.66
739.371	0.24
739.55	0.47
739.728	0.39
739.906	0.52
740.085	0.67
740.263	0.49
740.441	0.27
740.62	0.74
740.798	0.52
740.976	0.36
741.154	0.3
741.332	0.57
741.511	0.42
741.689	0.53
741.867	0.5
742.045	0.52
742.223	0.52
742.401	0.38
742.579	0.4
742.757	0.58
742.935	0.38
743.114	0.36
743.292	0.29
743.47	0.39
743.648	0.54
743.826	0.42
744.004	0.52
744.181	0.59
744.359	0.43
744.537	0.53
744.715	0.38
744.893	0.38
745.071	0.32
745.249	0.37
745.427	0.37
745.605	0.56
745.782	0.47
745.96	0.52
746.138	0.53
746.316	0.57
746.493	0.35
746.671	0.32
746.849	0.4
747.027	0.64
747.204	0.3
747.382	0.51
747.56	0.33
747.737	0.38
747.915	0.31
748.093	0.49
748.27	0.33
748.448	0.37
748.625	0.3
748.803	0.38
748.98	0.29
749.158	0.44
749.335	0.45
749.513	0.33
749.69	0.35
749.868	0.46
750.045	0.5
750.223	0.29
750.4	0.15
750.578	0.55
750.755	0.4
750.932	0.12
751.11	0.51
751.287	0.42
751.464	0.52
751.642	0.31
751.819	0.59
751.996	0.55
752.173	0.37
752.351	0.19
752.528	0.33
752.705	0.32
752.882	0.19
753.06	0.37
753.237	0.42
753.414	0.53
753.591	0.6
753.768	0.42
753.945	0.32
754.122	0.36
754.299	0.46
754.476	0.24
754.654	0.28
754.831	0.4
755.008	0.56
755.185	0.3
755.362	0.25
755.539	0.45
755.716	0.32
755.892	0.25
756.069	0.39
756.246	0.54
756.423	0.4
756.6	0.52
756.777	0.27
756.954	0.52
757.131	0.38
757.307	0.29
757.484	0.21
757.661	0.36
757.838	0.42
758.015	0.16
758.191	0.47
758.368	0.31
758.545	0.42
758.721	0.46
758.898	0.24
759.075	0.34
759.251	0.38
759.428	0.4
759.605	0.19
759.781	0.31
759.958	0.42
760.134	0.36
760.311	0.28
760.488	0.7
760.664	0.52
760.841	0.27
761.017	0.31
761.194	0.37
761.37	0.53
761.547	0.41
761.723	0.28
761.899	0.52
762.076	0.33
762.252	0.2
762.429	0.26
762.605	0.51
762.781	0.45
762.958	0.35
763.134	0.15
763.31	0.23
763.486	0.61
763.663	0.03
763.839	0.36
764.015	0.04
764.191	0.26
764.368	0.32
764.544	0.3
764.72	0.39
764.896	0.43
765.072	0.44
765.248	0.42
765.425	0.23
765.601	0.52
765.777	0.42
765.953	0.05
766.129	0.28
766.305	0.2
766.481	0.47
766.657	0.31
766.833	0.51
767.009	0.13
767.185	0.32
767.361	0.28
767.537	0.4
767.713	0.5
767.889	0.26
768.065	0.24
768.24	0.25
768.416	0.45
768.592	0.29
768.768	0.32
768.944	0.4
769.12	0.23
769.295	0.39
769.471	0.32
769.647	0.37
769.823	0.63
769.998	0.1
770.174	0.27
770.35	0.78
770.525	0.68
770.701	0.31
770.877	0.22
771.052	0.35
771.228	0.61
771.403	0.44
771.579	0.44
771.755	0.67
771.93	0.29
772.106	0.24
772.281	0.06
772.457	0.36
772.632	0.57
772.808	0.3
772.983	0.25
773.159	0.11
773.334	0.66
773.509	0.34
773.685	0.13
773.86	0.9
774.036	0.64
774.211	0.36
774.386	0.25
774.562	0.32
774.737	0.68
774.912	0.24
775.087	0.41
775.263	0.3
775.438	0.38
775.613	0.17
775.788	0.32
775.964	0.64
776.139	0.91
776.314	0.16
776.489	0.38
776.664	0.33
776.839	0.16
777.014	0.53
777.19	0.43
777.365	0.84
777.54	0.64
777.715	0.25
777.89	0.39
778.065	0.23
778.24	0.45
778.415	0.43
778.59	0.22
778.765	0.41
778.94	0.54
779.115	0.36
779.289	0.19
779.464	0.41
779.639	0.22
779.814	0.18
779.989	0.2
780.164	0.57
780.339	0.45
780.513	0.16
780.688	0.14
780.863	0.27
781.038	0.49
781.212	0.23
781.387	0.28
781.562	0.73
781.737	0.15
781.911	0.67
782.086	0.18
782.261	0.39
782.435	0.62
782.61	0.26
782.784	0.3
782.959	0.48
783.134	0.28
783.308	0.17
783.483	0.34
783.657	0.95
783.832	0.54
784.006	0
784.181	0.37
784.355	0.78
784.53	0.34
784.704	0.13
784.878	0.58
785.053	0.61
785.227	0.71
785.402	0.73
785.576	0.22
785.75	0.58
785.925	0.31
786.099	0.47
786.273	0.51
786.448	0.99
786.622	0.83
786.796	0.43
786.97	0.34
787.145	1.16
787.319	0.07
787.493	0.33
787.667	0.04
787.841	0.36
788.015	0.8
788.19	0.4
788.364	0.41
788.538	0.69
788.712	0.81
788.886	0.24
789.06	0.7
789.234	0.64
789.408	0.13
789.582	0.2
789.756	0.3
789.93	0.17
790.104	0.33
790.278	0.33
790.452	0.17
790.626	0.63
790.8	0.31
790.973	0.53
791.147	0.81
791.321	0.71
791.495	0.56
791.669	0.37
791.843	0.61
792.016	0.46
792.19	1.15
792.364	0.11
792.538	1.01
792.711	0.75
792.885	0.29
793.059	0.14
793.233	-0.2
793.406	0.7
793.58	0.53
793.754	0.26
793.927	0.52
794.101	0.86
794.274	0.36
794.448	0.78
794.622	0.23
794.795	0.97
794.969	0.41
795.142	0.91
795.316	0.12
795.489	0.43
795.663	0.8
795.836	0.32
796.009	0.24
796.183	0.92
796.356	0.6
796.53	0.46
796.703	0.47
796.876	1.23
797.05	0.34
797.223	0.55
797.396	0.41
797.57	0.6
797.743	0.84
797.916	0.48
798.09	0.47
798.263	0.83
798.436	0.87
798.609	0.42
798.782	0.41
798.956	0.62
799.129	0.51
799.302	0.48
799.475	0.13
799.648	0.14
799.821	0.29
799.994	0.37
800.167	-0.24
800.34	0.37
800.514	0.6
800.687	0.19
800.86	0.05
801.033	0.74
801.206	0.74
801.379	0.09
801.551	0.84
801.724	0.66
801.897	0.94
802.07	0.45
802.243	0.01
802.416	0.57
802.589	0.38
802.762	0.52
802.935	0.64
803.107	0.78
803.28	0.81
803.453	0.64
803.626	0.48
803.798	0.75
803.971	0.33
804.144	0.6
804.317	0.58
804.489	0.77
804.662	0.61
804.835	0.26
805.007	0.51
805.18	1.16
805.353	0.5
805.525	0.09
805.698	0.24
805.87	0.92
806.043	1.05
806.215	-0.05
806.388	0.1
806.56	0.42
806.733	0.74
806.905	0.45
807.078	0.28
807.25	0.4
807.423	0.99
807.595	0.5
807.768	0.37
807.94	0.83
808.112	0.94
808.285	0.54
808.457	0.23
808.629	0.46
808.802	0.96
808.974	0.68
809.146	0.11
809.318	0.11
809.491	0.5
809.663	0.83
809.835	0.57
810.007	0.38
810.18	0.57
810.352	-0
810.524	0.11
810.696	0.96
810.868	0.86
811.04	0.72
811.212	0.46
811.384	1.15
811.556	0.93
811.728	0.31
811.901	1.69
812.073	0.55
812.245	1.09
812.417	0.34
812.589	-0.51
812.76	0.71
812.932	1
813.104	0.93
813.276	0.35
813.448	0.79
813.62	0.78
813.792	0.61
813.964	0.74
814.136	1.05
814.307	0.43
814.479	0.19
814.651	0.4
814.823	1.58
814.995	0.7
815.166	0.51
815.338	0.2
815.51	-0.07
815.681	1.61
815.853	0.74
816.025	0.02
816.196	1.57
816.368	1.34
816.54	-0.14
816.711	0.24
816.883	0.95
817.054	1.66
817.226	-0.08
817.398	0.69
817.569	0.56
817.741	0.98
817.912	0.23
818.084	0.53
818.255	1.43
818.426	0.25
818.598	0.57
818.769	0.04
818.941	1.02
819.112	1.68
819.283	0.57
819.455	0.14
819.626	0.72
819.798	1.17
819.969	0.84
820.14	0.41
820.311	0.47
820.483	1
820.654	0.86
820.825	0.67
820.996	0.81
821.168	0.12
821.339	0.61
821.51	-0.24
821.681	0.02
821.852	1.33
822.023	0.08
822.195	-0.46
822.366	1.1
822.537	0.33
822.708	1.04
822.879	0.34
823.05	1.46
823.221	0.38
823.392	0.78
823.563	1.07
823.734	1.05
823.905	0.98
824.076	-0.12
824.247	0.2
824.418	1.1
824.589	1.97
824.759	0.46
824.93	1
825.101	-0.27
825.272	1.68
825.443	0.97
825.614	1.5
825.784	0.48
825.955	2.25
826.126	1.29
826.297	0.36
826.467	1.46
826.638	2.38
826.809	0.12
826.98	0.63
827.15	1.23
827.321	1.37
827.492	1.31
827.662	0.56
827.833	2.15
828.003	1.65
828.174	-0.03
828.345	-0.13
828.515	1.94
828.686	1.05
828.856	0.59
829.027	0.99
829.197	1.65
829.368	1
829.538	-0.05
829.709	0.47
829.879	0.87
830.049	0.63
830.22	0.62
830.39	0.71
830.56	2.05
830.731	0.7
830.901	0.28
831.072	0.66
831.242	1.39
831.412	0.56
831.582	0.42
831.753	-0.18
831.923	1.21
832.093	1.47
832.263	1.08
832.434	0.37
832.604	0.56
832.774	1.61
832.944	0.6
833.114	0.65
833.284	1.53
833.454	0.92
833.624	0.87
833.795	0.3
833.965	1.47
834.135	2.06
834.305	-0.33
834.475	-0.09
834.645	0.89
834.815	0.98
834.985	-0.03
835.155	0.42
835.325	1.42
835.494	1.41
835.664	0.66
835.834	-0.26
836.004	0.98
836.174	0.76
836.344	0.55
836.514	-0.49
836.684	0.36
836.853	0.78
837.023	0.99
837.193	0.48
837.363	2.28
837.532	1.11
837.702	0.72
837.872	0.22
838.041	1.52
838.211	2.48
838.381	-0.29
838.55	0.41
838.72	3.6
838.89	2.85
839.059	0.48
839.229	0.15
839.398	3.72
839.568	0.91
839.738	0.74
839.907	1.66
840.077	1.07
840.246	0.84
840.416	0.68
840.585	-0.05
840.755	2.67
840.924	2.85
841.093	0.38
841.263	0.03
841.432	0.47
841.602	-0.55
841.771	0.22
841.94	0.68
842.11	3.39
842.279	2.78
842.448	0.35
842.617	-0.27
842.787	2.48
842.956	0.49
843.125	0.76
843.294	0.87
843.464	2.32
843.633	1.25
843.802	-0.54
843.971	1.34
844.14	2.07
844.309	2.53
844.479	-0.85
844.648	0.13
844.817	0.88
844.986	1.48
845.155	-0.19
845.324	0.78
845.493	0.27
845.662	0.46
845.831	1.05
846	1.65
846.169	1.28
846.338	2.38
846.507	0.83
846.676	1.38
846.844	0.71
847.013	1.42
847.182	1.46
847.351	0.24
847.52	0.82
847.689	2.12
847.858	1.35
848.026	0.38
848.195	1.43
848.364	0.82
848.533	-0.46
848.701	0.14
848.87	1.53
849.039	3.05
849.207	0.79
849.376	2.63
849.545	2.92
849.713	0.05
849.882	0.2
850.051	0.44
850.219	1.17
850.388	2.63
850.556	-0.5
850.725	0.28
850.893	1.55
851.062	1.69
851.23	1.31
851.399	-0.28
851.567	1.15
851.736	1.18
851.904	0.15
852.073	0.7
852.241	2.46
852.41	2.11
852.578	0.51
852.746	-0.43
852.915	2.98
853.083	1.43
853.251	-0.45
853.42	0.58
853.588	0.64
853.756	3.03
853.924	1.18
854.093	1.09
854.261	0.86
854.429	-0.81
854.597	1.12
854.765	0.46
854.934	2.2
855.102	2.66
855.27	1.22
855.438	1.26
855.606	3.47
855.774	3.35
855.942	-1.14
856.11	-0.26
856.278	0.73
856.446	2.17
856.614	0.34
856.782	0.16
856.95	1.79
857.118	1.8
857.286	1.85
857.454	-0.32
857.622	3.81
857.79	2.22
857.958	0.1
858.126	1.03
858.294	-1.71
858.462	2.38
858.629	-0.21
858.797	0.75
858.965	2.12
859.133	1.37
859.301	0.19
859.468	1.62
859.636	1.19
859.804	4.3
859.971	0.67
860.139	1.34
860.307	2.66
860.474	2.75
860.642	0.62
860.81	0.23
860.977	1.32
861.145	2.99
861.313	1.86
861.48	0.03
861.648	2.2
861.815	1.51
861.983	-0.22
862.15	-0.36
862.318	3.72
862.485	2.26
862.653	-0.23
862.82	0.1
862.988	4.18
863.155	2.24
863.322	0.37
863.49	1.18
863.657	0.1
863.824	4.58
863.992	1.22
864.159	1.51
864.326	3.71
864.494	0.9
864.661	3.43
864.828	0.78
864.996	3.63
865.163	3.05
865.33	-0.04
865.497	-1.77
865.664	-0.08
865.832	-0.78
865.999	0.91
866.166	0.75
866.333	-0.16
866.5	1.27
866.667	0.7
866.834	1.37
867.001	5.26
867.168	-0.78
867.335	1.49
867.502	-0.44
867.669	1.15
867.836	6.82
868.003	0.08
868.17	3.38
868.337	1.64
868.504	6.69
868.671	-1.36
868.838	-0.02
869.005	3.11
869.172	2.79
869.339	1.54
869.505	0.5
869.672	2.88
869.839	4.54
870.006	2.23
870.173	-0.34
870.339	2.34
870.506	5.37
870.673	0.7
870.84	2.17
871.006	2.4
871.173	2.75
871.34	1.7
871.506	0.94
871.673	3.08
871.839	-0.06
872.006	1.46
872.173	-0.14
872.339	3.39
872.506	3.93
872.672	1.09
872.839	-0.84
873.005	2.4
873.172	4.64
873.338	4.33
873.505	1.41
873.671	3.54
873.838	3.06
874.004	-1.18
874.171	2.55
874.337	4.84
874.503	4.11
874.67	2.09
874.836	1.84
875.002	3.48
875.169	3.88
875.335	1.77
875.501	2.46
875.668	2.49
875.834	1.92
876	1.09
876.166	2.62
876.332	3.06
876.499	6.36
876.665	0.1
876.831	0.94
876.997	5.35
877.163	4.49
877.329	1.36
877.495	1.82
877.662	3.16
877.828	3.21
877.994	2.92
878.16	-1.05
878.326	1.34
878.492	2.12
878.658	-0.14
878.824	3.76
878.99	4.12
879.156	-0.01
879.322	5.12
879.487	0.96
879.653	1.93
879.819	2.45
879.985	1.64
880.151	1.41
880.317	2.68
880.483	2.12
880.648	4.19
880.814	-0.53
880.98	2.05
881.146	-2.49
881.312	1.17
881.477	0.63
881.643	0.52
881.809	2.63
881.974	5.14
882.14	-1.16
882.306	3.04
882.471	4.75
882.637	0.4
882.803	2.72
882.968	4.79
883.134	4.91
883.299	1.84
883.465	1.11
883.63	5.62
883.796	3.59
883.961	2.64
884.127	2.7
884.292	-2.61
884.458	-0.88
884.623	-0.88
