Data from Apollo_Calib_20240827__AbsoluteIrradiance__809__12-38-02-918.txt Node

Date: Wed Aug 28 12:38:02 BST 2024
User: biology
Spectrometer: FLMT08252
Trigger mode: 0
Integration Time (sec): 5.000000E-1
Scans to average: 5
Electric dark correction enabled: true
Nonlinearity correction enabled: false
Boxcar width: 0
XAxis mode: Wavelengths
Number of Pixels in Spectrum: 3648
>>>>>Begin Spectral Data<<<<<
179.588	-0
179.809	-0
180.03	-0
180.251	-0
180.473	-0
180.694	0
180.915	0
181.136	-0
181.357	-0
181.578	-0
181.799	-0
182.02	-0
182.241	0
182.462	-0
182.683	0
182.904	-0
183.125	-0
183.346	0
183.567	0
183.788	0
184.009	0
184.23	0
184.451	0
184.672	0
184.892	0
185.113	0
185.334	0
185.555	0
185.776	0
185.996	0
186.217	0
186.438	0
186.659	0
186.879	0
187.1	0
187.321	0
187.541	0
187.762	0
187.983	0
188.203	0
188.424	0
188.644	0
188.865	0
189.086	0
189.306	0
189.527	0
189.747	0
189.968	0
190.188	0
190.409	0
190.629	0
190.849	0
191.07	0
191.29	0
191.511	0
191.731	0
191.951	0
192.172	0
192.392	0
192.612	0
192.833	0
193.053	0
193.273	0
193.493	0
193.714	0
193.934	0
194.154	0
194.374	0
194.594	0
194.815	0
195.035	0
195.255	0
195.475	0
195.695	0
195.915	0
196.135	0
196.355	0
196.575	0
196.795	0
197.015	0
197.235	0
197.455	0
197.675	0
197.895	0
198.115	0
198.335	0
198.555	0
198.775	0
198.995	0
199.214	0
199.434	0
199.654	0
199.874	0
200.094	4.08
200.313	2.03
200.533	1.89
200.753	1.34
200.973	3.52
201.192	2.81
201.412	1.39
201.632	1.89
201.851	3.24
202.071	1.48
202.291	1.72
202.51	1.2
202.73	2.71
202.95	2.17
203.169	1.15
203.389	1.56
203.608	2.03
203.828	1.89
204.047	1.25
204.267	2.41
204.486	1.83
204.706	2.04
204.925	1.68
205.145	1.62
205.364	2.06
205.583	2.54
205.803	1.17
206.022	0.98
206.242	1.95
206.461	1.72
206.68	1.15
206.9	1.52
207.119	2.77
207.338	1.95
207.557	1.12
207.777	1.07
207.996	1.19
208.215	2.2
208.434	1.03
208.654	0.84
208.873	1.5
209.092	1.99
209.311	1.05
209.53	0.82
209.749	1.34
209.968	0.89
210.187	0.7
210.407	0.43
210.626	1.06
210.845	1.35
211.064	1.06
211.283	0.43
211.502	1.61
211.721	1.16
211.94	0.94
212.159	1.19
212.377	1.34
212.596	1.57
212.815	1.14
213.034	1.18
213.253	1.52
213.472	1.36
213.691	0.93
213.91	0.73
214.128	0.71
214.347	1.39
214.566	0.59
214.785	0.55
215.003	1.17
215.222	1.22
215.441	0.75
215.66	0.46
215.878	1.09
216.097	1.21
216.316	0.59
216.534	0.68
216.753	1
216.972	0.6
217.19	0.74
217.409	0.55
217.627	0.92
217.846	0.83
218.064	0.77
218.283	0.49
218.501	1.36
218.72	1.04
218.938	0.67
219.157	0.55
219.375	1.1
219.594	1.1
219.812	0.57
220.031	0.43
220.249	1.15
220.467	1.04
220.686	0.65
220.904	0.59
221.122	0.73
221.341	1.14
221.559	0.68
221.777	0.42
221.995	0.75
222.214	0.97
222.432	0.7
222.65	0.92
222.868	0.77
223.086	0.82
223.305	0.85
223.523	0.71
223.741	1.08
223.959	0.74
224.177	0.36
224.395	0.5
224.613	0.73
224.831	1.03
225.049	0.42
225.267	0.56
225.485	0.8
225.703	0.51
225.921	0.52
226.139	0.57
226.357	0.92
226.575	0.78
226.793	0.61
227.011	1.68
227.229	0.71
227.447	0.84
227.665	0.55
227.883	0.39
228.1	0.68
228.318	0.81
228.536	0.26
228.754	0.46
228.972	0.64
229.189	0.7
229.407	0.51
229.625	0.5
229.843	0.79
230.06	0.79
230.278	0.44
230.496	0.58
230.713	0.6
230.931	0.8
231.149	0.38
231.366	0.21
231.584	0.54
231.801	0.91
232.019	0.55
232.236	0.3
232.454	0.31
232.671	0.64
232.889	0.56
233.106	0.39
233.324	0.5
233.541	0.48
233.759	0.48
233.976	0.37
234.194	0.44
234.411	0.47
234.628	0.35
234.846	0.38
235.063	0.52
235.28	0.55
235.498	0.39
235.715	0.28
235.932	0.79
236.149	0.54
236.367	0.38
236.584	0.47
236.801	0.43
237.018	0.62
237.236	0.52
237.453	0.26
237.67	0.62
237.887	0.56
238.104	0.37
238.321	0.29
238.538	0.35
238.755	0.7
238.973	0.24
239.19	0.51
239.407	0.54
239.624	0.59
239.841	0.35
240.058	0.38
240.275	0.62
240.492	0.45
240.709	0.42
240.925	0.43
241.142	0.48
241.359	0.38
241.576	0.32
241.793	0.35
242.01	0.45
242.227	0.74
242.444	0.46
242.66	0.65
242.877	0.51
243.094	0.4
243.311	0.47
243.527	0.4
243.744	0.5
243.961	0.59
244.178	0.37
244.394	0.46
244.611	0.66
244.828	0.68
245.044	0.38
245.261	0.33
245.477	0.5
245.694	0.66
245.911	0.36
246.127	0.54
246.344	0.73
246.56	0.52
246.777	0.35
246.993	0.38
247.21	0.46
247.426	0.53
247.643	0.38
247.859	0.24
248.076	0.31
248.292	0.69
248.508	0.38
248.725	0.47
248.941	0.48
249.157	0.59
249.374	0.31
249.59	0.38
249.806	0.38
250.023	0.5
250.239	0.27
250.455	0.32
250.671	0.44
250.888	0.51
251.104	0.44
251.32	0.34
251.536	0.3
251.752	0.33
251.969	0.39
252.185	0.39
252.401	0.62
252.617	0.42
252.833	0.33
253.049	0.39
253.265	0.42
253.481	0.45
253.697	0.34
253.913	0.34
254.129	0.49
254.345	0.43
254.561	0.31
254.777	0.38
254.993	0.51
255.209	0.43
255.425	0.33
255.641	0.35
255.857	0.43
256.073	0.47
256.288	0.21
256.504	0.33
256.72	0.45
256.936	0.6
257.152	0.3
257.367	0.35
257.583	0.44
257.799	0.49
258.015	0.34
258.23	0.25
258.446	0.61
258.662	0.35
258.877	0.28
259.093	0.21
259.309	0.37
259.524	0.45
259.74	0.32
259.955	0.28
260.171	0.33
260.387	0.43
260.602	0.44
260.818	0.4
261.033	0.23
261.249	0.45
261.464	0.29
261.68	0.2
261.895	0.39
262.11	0.42
262.326	0.28
262.541	0.2
262.757	0.45
262.972	0.44
263.187	0.37
263.403	0.38
263.618	0.49
263.833	0.33
264.049	0.3
264.264	0.36
264.479	0.39
264.694	0.51
264.91	0.27
265.125	0.34
265.34	0.45
265.555	0.56
265.77	0.34
265.986	0.27
266.201	0.33
266.416	0.49
266.631	0.32
266.846	0.27
267.061	0.5
267.276	0.44
267.491	0.22
267.706	0.37
267.921	0.41
268.136	0.41
268.351	0.4
268.566	0.14
268.781	0.42
268.996	0.41
269.211	0.29
269.426	0.25
269.641	0.32
269.856	0.49
270.071	0.25
270.285	0.27
270.5	0.41
270.715	0.4
270.93	0.29
271.145	0.29
271.359	0.42
271.574	0.34
271.789	0.29
272.004	0.29
272.218	0.31
272.433	0.36
272.648	0.28
272.862	0.42
273.077	0.34
273.292	0.34
273.506	0.18
273.721	0.25
273.936	0.37
274.15	0.44
274.365	0.24
274.579	0.33
274.794	0.36
275.008	0.4
275.223	0.16
275.437	0.3
275.652	0.45
275.866	0.37
276.081	0.28
276.295	0.37
276.509	0.34
276.724	0.32
276.938	0.27
277.153	0.31
277.367	0.35
277.581	0.3
277.796	0.25
278.01	0.23
278.224	0.4
278.438	0.52
278.653	0.19
278.867	0.22
279.081	0.4
279.295	0.29
279.51	0.24
279.724	0.2
279.938	0.39
280.152	0.35
280.366	0.25
280.58	0.3
280.794	0.45
281.008	0.37
281.222	0.35
281.437	0.47
281.651	0.34
281.865	0.43
282.079	0.28
282.293	0.15
282.507	0.25
282.721	0.31
282.935	0.28
283.148	0.18
283.362	0.27
283.576	0.21
283.79	0.3
284.004	0.23
284.218	0.37
284.432	0.28
284.646	0.25
284.859	0.19
285.073	0.26
285.287	0.29
285.501	0.27
285.714	0.26
285.928	0.34
286.142	0.3
286.356	0.22
286.569	0.27
286.783	0.47
286.997	0.37
287.21	0.28
287.424	0.32
287.637	0.27
287.851	0.25
288.065	0.33
288.278	0.22
288.492	0.34
288.705	0.28
288.919	0.33
289.132	0.21
289.346	0.36
289.559	0.17
289.773	0.19
289.986	0.26
290.2	0.25
290.413	0.34
290.626	0.23
290.84	0.18
291.053	0.26
291.267	0.4
291.48	0.23
291.693	0.23
291.906	0.24
292.12	0.27
292.333	0.22
292.546	0.24
292.76	0.36
292.973	0.28
293.186	0.3
293.399	0.23
293.612	0.33
293.826	0.28
294.039	0.25
294.252	0.24
294.465	0.38
294.678	0.27
294.891	0.27
295.104	0.21
295.317	0.25
295.53	0.29
295.743	0.22
295.956	0.26
296.169	0.32
296.382	0.32
296.595	0.25
296.808	0.23
297.021	0.35
297.234	0.34
297.447	0.27
297.66	0.24
297.873	0.3
298.086	0.35
298.299	0.19
298.511	0.15
298.724	0.25
298.937	0.19
299.15	0.18
299.363	0.26
299.575	0.32
299.788	0.26
300.001	0.22
300.213	0.17
300.426	0.24
300.639	0.19
300.852	0.22
301.064	0.29
301.277	0.33
301.489	0.28
301.702	0.29
301.915	0.26
302.127	0.23
302.34	0.29
302.552	0.3
302.765	0.23
302.977	0.31
303.19	0.23
303.402	0.2
303.615	0.23
303.827	0.16
304.04	0.24
304.252	0.3
304.464	0.23
304.677	0.41
304.889	0.27
305.102	0.2
305.314	0.23
305.526	0.32
305.739	0.32
305.951	0.17
306.163	0.24
306.375	0.37
306.588	0.23
306.8	0.26
307.012	0.2
307.224	0.26
307.436	0.36
307.649	0.18
307.861	0.23
308.073	0.26
308.285	0.22
308.497	0.17
308.709	0.21
308.921	0.27
309.133	0.35
309.346	0.22
309.558	0.22
309.77	0.3
309.982	0.35
310.194	0.3
310.406	0.22
310.617	0.39
310.829	0.25
311.041	0.29
311.253	0.19
311.465	0.26
311.677	0.22
311.889	0.21
312.101	0.24
312.313	0.33
312.524	0.34
312.736	0.19
312.948	0.25
313.16	0.36
313.372	0.36
313.583	0.29
313.795	0.24
314.007	0.26
314.218	0.28
314.43	0.23
314.642	0.22
314.853	0.17
315.065	0.28
315.277	0.23
315.488	0.25
315.7	0.32
315.912	0.28
316.123	0.25
316.335	0.21
316.546	0.37
316.758	0.23
316.969	0.2
317.181	0.23
317.392	0.25
317.604	0.33
317.815	0.23
318.026	0.24
318.238	0.23
318.449	0.29
318.661	0.18
318.872	0.18
319.083	0.2
319.295	0.3
319.506	0.26
319.717	0.28
319.929	0.33
320.14	0.25
320.351	0.25
320.562	0.22
320.774	0.29
320.985	0.24
321.196	0.23
321.407	0.16
321.618	0.33
321.829	0.24
322.041	0.27
322.252	0.23
322.463	0.27
322.674	0.3
322.885	0.23
323.096	0.19
323.307	0.25
323.518	0.28
323.729	0.21
323.94	0.2
324.151	0.22
324.362	0.27
324.573	0.29
324.784	0.24
324.995	0.28
325.206	0.29
325.417	0.21
325.628	0.19
325.838	0.25
326.049	0.27
326.26	0.31
326.471	0.18
326.682	0.31
326.892	0.29
327.103	0.15
327.314	0.16
327.525	0.31
327.735	0.28
327.946	0.27
328.157	0.21
328.368	0.32
328.578	0.23
328.789	0.31
328.999	0.25
329.21	0.24
329.421	0.34
329.631	0.22
329.842	0.21
330.052	0.25
330.263	0.25
330.473	0.3
330.684	0.23
330.894	0.24
331.105	0.27
331.315	0.27
331.526	0.17
331.736	0.36
331.947	0.28
332.157	0.32
332.367	0.18
332.578	0.28
332.788	0.4
332.999	0.32
333.209	0.25
333.419	0.22
333.629	0.28
333.84	0.25
334.05	0.24
334.26	0.35
334.47	0.25
334.681	0.23
334.891	0.23
335.101	0.34
335.311	0.34
335.521	0.27
335.732	0.21
335.942	0.33
336.152	0.24
336.362	0.27
336.572	0.25
336.782	0.29
336.992	0.23
337.202	0.22
337.412	0.18
337.622	0.27
337.832	0.25
338.042	0.26
338.252	0.23
338.462	0.23
338.672	0.29
338.882	0.25
339.092	0.26
339.302	0.34
339.511	0.28
339.721	0.21
339.931	0.15
340.141	0.33
340.351	0.32
340.561	0.26
340.77	0.3
340.98	0.29
341.19	0.29
341.4	0.23
341.609	0.17
341.819	0.21
342.029	0.2
342.238	0.26
342.448	0.23
342.658	0.27
342.867	0.21
343.077	0.23
343.286	0.26
343.496	0.23
343.706	0.32
343.915	0.2
344.125	0.19
344.334	0.27
344.544	0.19
344.753	0.21
344.963	0.18
345.172	0.22
345.381	0.2
345.591	0.16
345.8	0.24
346.01	0.31
346.219	0.31
346.428	0.14
346.638	0.24
346.847	0.26
347.056	0.28
347.266	0.21
347.475	0.2
347.684	0.29
347.893	0.26
348.103	0.24
348.312	0.16
348.521	0.25
348.73	0.26
348.94	0.24
349.149	0.18
349.358	0.2
349.567	0.18
349.776	0.16
349.985	0.22
350.194	0.28
350.403	0.31
350.612	0.17
350.821	0.2
351.03	0.26
351.239	0.18
351.448	0.23
351.657	0.19
351.866	0.37
352.075	0.3
352.284	0.26
352.493	0.22
352.702	0.32
352.911	0.24
353.12	0.24
353.329	0.2
353.538	0.28
353.746	0.23
353.955	0.2
354.164	0.26
354.373	0.25
354.582	0.3
354.79	0.2
354.999	0.32
355.208	0.24
355.416	0.29
355.625	0.19
355.834	0.21
356.042	0.29
356.251	0.23
356.46	0.18
356.668	0.29
356.877	0.35
357.085	0.27
357.294	0.14
357.503	0.23
357.711	0.22
357.92	0.48
358.128	0.25
358.337	0.22
358.545	0.27
358.754	0.21
358.962	0.3
359.17	0.19
359.379	0.28
359.587	0.28
359.796	0.23
360.004	0.27
360.212	0.27
360.421	0.32
360.629	0.23
360.837	0.24
361.046	0.31
361.254	0.39
361.462	0.22
361.67	0.22
361.879	0.24
362.087	0.34
362.295	0.27
362.503	0.19
362.711	0.21
362.92	0.21
363.128	0.18
363.336	0.2
363.544	0.2
363.752	0.26
363.96	0.2
364.168	0.2
364.376	0.25
364.584	0.27
364.792	0.32
365	0.27
365.208	0.27
365.416	0.3
365.624	0.3
365.832	0.2
366.04	0.3
366.248	0.21
366.456	0.21
366.664	0.25
366.872	0.26
367.079	0.27
367.287	0.25
367.495	0.21
367.703	0.24
367.911	0.21
368.118	0.2
368.326	0.25
368.534	0.18
368.742	0.3
368.949	0.19
369.157	0.21
369.365	0.29
369.572	0.21
369.78	0.19
369.988	0.26
370.195	0.24
370.403	0.31
370.61	0.25
370.818	0.24
371.026	0.34
371.233	0.21
371.441	0.25
371.648	0.22
371.856	0.29
372.063	0.29
372.271	0.22
372.478	0.22
372.685	0.23
372.893	0.31
373.1	0.23
373.308	0.25
373.515	0.38
373.722	0.31
373.93	0.21
374.137	0.3
374.344	0.33
374.552	0.31
374.759	0.27
374.966	0.27
375.173	0.25
375.381	0.27
375.588	0.24
375.795	0.18
376.002	0.24
376.209	0.23
376.417	0.21
376.624	0.28
376.831	0.28
377.038	0.24
377.245	0.18
377.452	0.23
377.659	0.28
377.866	0.24
378.073	0.26
378.28	0.25
378.487	0.33
378.694	0.33
378.901	0.24
379.108	0.26
379.315	0.34
379.522	0.37
379.729	0.27
379.936	0.22
380.143	0.29
380.35	0.27
380.557	0.26
380.763	0.22
380.97	0.24
381.177	0.27
381.384	0.29
381.591	0.2
381.797	0.27
382.004	0.32
382.211	0.29
382.418	0.19
382.624	0.31
382.831	0.31
383.038	0.23
383.244	0.32
383.451	0.27
383.658	0.28
383.864	0.27
384.071	0.21
384.277	0.32
384.484	0.23
384.69	0.31
384.897	0.21
385.103	0.26
385.31	0.26
385.516	0.25
385.723	0.26
385.929	0.31
386.136	0.25
386.342	0.3
386.549	0.22
386.755	0.3
386.961	0.34
387.168	0.27
387.374	0.24
387.58	0.35
387.787	0.29
387.993	0.27
388.199	0.24
388.406	0.25
388.612	0.26
388.818	0.22
389.024	0.25
389.231	0.29
389.437	0.42
389.643	0.28
389.849	0.26
390.055	0.25
390.261	0.27
390.467	0.3
390.674	0.27
390.88	0.27
391.086	0.34
391.292	0.23
391.498	0.34
391.704	0.32
391.91	0.27
392.116	0.25
392.322	0.16
392.528	0.32
392.734	0.28
392.94	0.28
393.146	0.29
393.352	0.32
393.557	0.26
393.763	0.3
393.969	0.35
394.175	0.31
394.381	0.33
394.587	0.27
394.792	0.27
394.998	0.34
395.204	0.34
395.41	0.31
395.615	0.3
395.821	0.36
396.027	0.33
396.233	0.26
396.438	0.35
396.644	0.36
396.85	0.35
397.055	0.31
397.261	0.31
397.466	0.45
397.672	0.27
397.878	0.35
398.083	0.35
398.289	0.26
398.494	0.37
398.7	0.42
398.905	0.25
399.111	0.46
399.316	0.27
399.522	0.33
399.727	0.34
399.932	0.29
400.138	0.28
400.343	0.36
400.549	0.32
400.754	0.36
400.959	0.35
401.165	0.37
401.37	0.36
401.575	0.49
401.78	0.37
401.986	0.33
402.191	0.37
402.396	0.37
402.601	0.4
402.807	0.37
403.012	0.4
403.217	0.43
403.422	0.45
403.627	0.35
403.832	0.4
404.037	0.46
404.243	0.41
404.448	0.41
404.653	0.41
404.858	0.42
405.063	0.46
405.268	0.43
405.473	0.34
405.678	0.41
405.883	0.62
406.088	0.47
406.293	0.39
406.498	0.43
406.703	0.52
406.907	0.42
407.112	0.45
407.317	0.48
407.522	0.58
407.727	0.5
407.932	0.51
408.136	0.66
408.341	0.53
408.546	0.56
408.751	0.56
408.956	0.59
409.16	0.69
409.365	0.57
409.57	0.58
409.774	0.61
409.979	0.73
410.184	0.71
410.388	0.6
410.593	0.78
410.798	0.7
411.002	0.73
411.207	0.84
411.411	0.83
411.616	0.79
411.82	0.82
412.025	0.83
412.229	0.85
412.434	1
412.638	0.95
412.843	0.93
413.047	0.98
413.252	0.95
413.456	1.01
413.66	1.1
413.865	1.06
414.069	1.11
414.273	1.16
414.478	1.12
414.682	1.12
414.886	1.21
415.091	1.18
415.295	1.29
415.499	1.41
415.703	1.35
415.908	1.45
416.112	1.29
416.316	1.6
416.52	1.56
416.724	1.59
416.929	1.69
417.133	1.89
417.337	1.76
417.541	1.88
417.745	1.92
417.949	1.99
418.153	2.02
418.357	2.05
418.561	2.26
418.765	2.21
418.969	2.37
419.173	2.45
419.377	2.44
419.581	2.7
419.785	2.66
419.989	2.62
420.193	2.85
420.397	2.94
420.601	3.17
420.804	3.19
421.008	3.17
421.212	3.34
421.416	3.37
421.62	3.37
421.823	3.42
422.027	3.6
422.231	3.55
422.435	3.53
422.638	3.63
422.842	3.7
423.046	3.87
423.249	3.97
423.453	4.05
423.657	4.2
423.86	4.27
424.064	4.38
424.268	4.65
424.471	4.66
424.675	4.81
424.878	4.89
425.082	4.97
425.285	5.25
425.489	5.26
425.692	5.41
425.896	5.36
426.099	5.52
426.303	5.61
426.506	5.86
426.71	6.09
426.913	6.32
427.116	6.4
427.32	6.38
427.523	6.48
427.726	6.86
427.93	6.95
428.133	7.27
428.336	7.41
428.54	7.45
428.743	7.78
428.946	8.07
429.149	7.98
429.353	8.01
429.556	8.12
429.759	8.14
429.962	8.37
430.165	8.42
430.368	8.13
430.571	8.28
430.775	8.17
430.978	8.1
431.181	8.27
431.384	8.37
431.587	8.47
431.79	8.88
431.993	8.78
432.196	9.08
432.399	9.4
432.602	9.54
432.805	9.58
433.008	10.16
433.211	10.15
433.414	10.34
433.616	10.45
433.819	10.29
434.022	10.55
434.225	10.62
434.428	10.8
434.631	11.07
434.833	10.97
435.036	11.21
435.239	11.44
435.442	11.45
435.645	11.57
435.847	11.7
436.05	12
436.253	12.32
436.455	12.37
436.658	12.2
436.861	12.39
437.063	12.69
437.266	12.42
437.468	12.92
437.671	13.24
437.874	13.24
438.076	13.12
438.279	13.62
438.481	13.76
438.684	14.49
438.886	13.93
439.089	14.24
439.291	14.22
439.494	14.61
439.696	14.79
439.899	15.33
440.101	15.76
440.303	15.94
440.506	16.68
440.708	16.45
440.91	16.61
441.113	16.92
441.315	17.05
441.517	16.85
441.72	17.41
441.922	16.94
442.124	16.94
442.326	17.4
442.529	17.57
442.731	17.45
442.933	17.94
443.135	17.68
443.337	17.55
443.539	18.27
443.742	17.69
443.944	18.56
444.146	18.03
444.348	18.17
444.55	18
444.752	18.3
444.954	18.15
445.156	18.13
445.358	18.51
445.56	18.87
445.762	18.54
445.964	18.86
446.166	18.66
446.368	18.62
446.57	18.6
446.772	18.17
446.974	18.03
447.175	18.34
447.377	17.92
447.579	18.37
447.781	18.12
447.983	17.75
448.184	17.34
448.386	17.69
448.588	17.22
448.79	17.22
448.991	17.53
449.193	17.53
449.395	16.84
449.597	16.3
449.798	16.39
450	15.89
450.202	15.88
450.403	15.82
450.605	15.66
450.806	15.33
451.008	15.12
451.21	14.98
451.411	14.55
451.613	13.64
451.814	13.93
452.016	13.88
452.217	13.26
452.419	13.2
452.62	12.87
452.821	12.66
453.023	12.54
453.224	12.21
453.426	11.74
453.627	11.06
453.828	11.05
454.03	11.18
454.231	11.07
454.432	10.84
454.634	10.76
454.835	10.46
455.036	10.33
455.238	9.86
455.439	9.56
455.64	9.36
455.841	9.35
456.042	9.4
456.244	9.1
456.445	8.83
456.646	8.46
456.847	8.45
457.048	8.41
457.249	8.35
457.45	8.23
457.651	7.62
457.852	7.46
458.054	7.2
458.255	7.14
458.456	7.27
458.657	7.09
458.858	6.57
459.058	6.58
459.259	6.66
459.46	6.3
459.661	6.34
459.862	6.39
460.063	6.28
460.264	6.22
460.465	5.92
460.666	6.03
460.866	5.74
461.067	5.51
461.268	5.5
461.469	5.37
461.67	5.25
461.87	5.19
462.071	5.15
462.272	5.06
462.473	5.03
462.673	5.2
462.874	5.11
463.075	5.05
463.275	5.02
463.476	5.04
463.676	5.07
463.877	4.88
464.078	4.81
464.278	4.83
464.479	4.8
464.679	4.71
464.88	4.63
465.08	4.65
465.281	4.36
465.481	4.28
465.682	4.09
465.882	4.2
466.083	4.12
466.283	3.96
466.483	3.85
466.684	3.72
466.884	3.59
467.085	3.62
467.285	3.73
467.485	3.56
467.686	3.58
467.886	3.38
468.086	3.31
468.286	3.28
468.487	3.35
468.687	3.24
468.887	3.21
469.087	3.29
469.287	3.21
469.488	3
469.688	3.16
469.888	3.16
470.088	3.14
470.288	3.02
470.488	3
470.688	2.76
470.888	2.85
471.088	2.65
471.288	2.81
471.488	2.69
471.688	2.67
471.888	2.69
472.088	2.77
472.288	2.71
472.488	2.56
472.688	2.53
472.888	2.53
473.088	2.53
473.288	2.48
473.488	2.4
473.688	2.58
473.887	2.47
474.087	2.45
474.287	2.45
474.487	2.34
474.687	2.38
474.886	2.33
475.086	2.3
475.286	2.32
475.486	2.32
475.685	2.23
475.885	2.15
476.085	2.28
476.284	2.27
476.484	2.24
476.684	2.19
476.883	2.28
477.083	2.18
477.282	2.1
477.482	2.2
477.681	2.14
477.881	2.07
478.08	2.06
478.28	2.03
478.479	2.1
478.679	2.15
478.878	1.98
479.078	1.99
479.277	2.09
479.477	2.05
479.676	2
479.875	2.01
480.075	1.93
480.274	1.96
480.473	2.03
480.673	2.01
480.872	2.06
481.071	2
481.271	2
481.47	2
481.669	2.01
481.868	1.96
482.067	1.99
482.267	1.9
482.466	1.92
482.665	1.95
482.864	1.91
483.063	1.93
483.262	2
483.461	2.02
483.661	2.04
483.86	2
484.059	2.06
484.258	2
484.457	2.01
484.656	2
484.855	2.1
485.054	1.92
485.253	1.95
485.452	1.96
485.651	2.06
485.849	2.06
486.048	1.98
486.247	2.02
486.446	2.04
486.645	2.02
486.844	2.03
487.043	2.04
487.241	2.08
487.44	2.09
487.639	2.11
487.838	2.1
488.037	2.12
488.235	2.19
488.434	2.13
488.633	2.03
488.831	2.22
489.03	2.22
489.229	2.18
489.427	2.19
489.626	2.29
489.825	2.27
490.023	2.27
490.222	2.26
490.42	2.32
490.619	2.33
490.817	2.33
491.016	2.39
491.214	2.41
491.413	2.37
491.611	2.33
491.81	2.36
492.008	2.45
492.207	2.54
492.405	2.55
492.604	2.38
492.802	2.55
493	2.58
493.199	2.63
493.397	2.64
493.595	2.7
493.794	2.65
493.992	2.78
494.19	2.7
494.388	2.83
494.587	2.74
494.785	2.77
494.983	2.71
495.181	2.85
495.379	2.9
495.578	2.95
495.776	2.94
495.974	2.91
496.172	2.94
496.37	3.05
496.568	3.09
496.766	3.07
496.964	3.23
497.162	3.17
497.36	3.2
497.558	3.23
497.756	3.33
497.954	3.23
498.152	3.34
498.35	3.46
498.548	3.33
498.746	3.42
498.944	3.43
499.142	3.45
499.34	3.53
499.538	3.63
499.736	3.48
499.933	3.62
500.131	3.64
500.329	3.77
500.527	3.77
500.725	3.85
500.922	3.84
501.12	3.89
501.318	3.94
501.516	3.95
501.713	4.04
501.911	4.01
502.109	3.92
502.306	4.08
502.504	4.01
502.701	4.07
502.899	4.15
503.097	4.38
503.294	4.17
503.492	4.35
503.689	4.41
503.887	4.37
504.084	4.49
504.282	4.4
504.479	4.39
504.677	4.61
504.874	4.58
505.072	4.48
505.269	4.66
505.466	4.67
505.664	4.75
505.861	4.62
506.059	4.77
506.256	4.81
506.453	4.91
506.651	4.95
506.848	4.99
507.045	4.94
507.242	4.98
507.44	5.02
507.637	5.11
507.834	5.09
508.031	5.2
508.229	5.13
508.426	5.09
508.623	5.25
508.82	5.35
509.017	5.3
509.214	5.28
509.411	5.41
509.608	5.35
509.805	5.49
510.003	5.43
510.2	5.53
510.397	5.74
510.594	5.56
510.791	5.65
510.988	5.63
511.184	5.62
511.381	5.54
511.578	5.67
511.775	5.82
511.972	5.76
512.169	5.82
512.366	5.8
512.563	5.95
512.76	5.95
512.956	6.04
513.153	5.98
513.35	5.93
513.547	5.94
513.744	6.07
513.94	6.04
514.137	6.14
514.334	6.15
514.53	6.13
514.727	6.38
514.924	6.27
515.12	6.28
515.317	6.29
515.514	6.22
515.71	6.21
515.907	6.46
516.103	6.44
516.3	6.36
516.497	6.53
516.693	6.5
516.89	6.48
517.086	6.48
517.283	6.6
517.479	6.46
517.676	6.66
517.872	6.65
518.068	6.65
518.265	6.67
518.461	6.6
518.658	6.73
518.854	6.72
519.05	6.8
519.247	6.8
519.443	6.84
519.639	6.96
519.836	6.79
520.032	6.77
520.228	6.97
520.424	6.91
520.621	6.94
520.817	7.02
521.013	6.91
521.209	7.12
521.405	7.15
521.601	6.98
521.798	7.01
521.994	7.05
522.19	6.99
522.386	7.03
522.582	7.19
522.778	7.28
522.974	7.09
523.17	7.14
523.366	7.11
523.562	7.25
523.758	7.19
523.954	7.09
524.15	7.22
524.346	7.31
524.542	7.32
524.738	7.22
524.934	7.41
525.129	7.3
525.325	7.26
525.521	7.26
525.717	7.46
525.913	7.36
526.109	7.33
526.304	7.49
526.5	7.49
526.696	7.43
526.892	7.39
527.087	7.62
527.283	7.55
527.479	7.51
527.674	7.39
527.87	7.52
528.066	7.49
528.261	7.52
528.457	7.4
528.653	7.59
528.848	7.66
529.044	7.68
529.239	7.47
529.435	7.58
529.63	7.55
529.826	7.56
530.021	7.62
530.217	7.63
530.412	7.6
530.608	7.62
530.803	7.73
530.999	7.56
531.194	7.66
531.389	7.69
531.585	7.72
531.78	7.81
531.975	7.77
532.171	7.79
532.366	7.72
532.561	7.78
532.757	7.73
532.952	7.87
533.147	7.66
533.342	7.82
533.538	7.69
533.733	7.95
533.928	7.62
534.123	7.82
534.318	7.82
534.513	7.8
534.709	7.92
534.904	7.86
535.099	7.93
535.294	7.87
535.489	7.95
535.684	7.9
535.879	7.86
536.074	7.94
536.269	7.98
536.464	7.92
536.659	7.93
536.854	7.89
537.049	8.02
537.244	7.96
537.439	7.88
537.634	7.97
537.828	8.08
538.023	7.94
538.218	7.89
538.413	7.86
538.608	7.95
538.803	7.88
538.997	7.95
539.192	7.96
539.387	7.94
539.582	7.94
539.776	7.89
539.971	8.05
540.166	8.04
540.36	7.93
540.555	8.16
540.75	7.99
540.944	8.02
541.139	8.07
541.334	8
541.528	8.03
541.723	8.09
541.917	8.11
542.112	8.04
542.306	7.88
542.501	7.94
542.695	7.95
542.89	7.97
543.084	8.02
543.279	8.06
543.473	8.03
543.668	8.1
543.862	7.91
544.056	7.9
544.251	8.06
544.445	8.11
544.64	8.16
544.834	7.79
545.028	7.74
545.222	8.06
545.417	8.23
545.611	8.08
545.805	8.11
546	7.93
546.194	8.05
546.388	8.09
546.582	7.93
546.776	8.04
546.97	8.1
547.165	8.06
547.359	8.05
547.553	8.02
547.747	7.96
547.941	8.25
548.135	8.06
548.329	8.12
548.523	8.12
548.717	8.01
548.911	8
549.105	7.97
549.299	8.17
549.493	8.09
549.687	7.95
549.881	8.1
550.075	8.14
550.269	7.99
550.463	8.16
550.657	8.11
550.85	8.05
551.044	8.06
551.238	8.07
551.432	8.07
551.626	8.19
551.82	8.19
552.013	8.03
552.207	8.16
552.401	8.19
552.594	8.08
552.788	8.01
552.982	8.04
553.176	7.97
553.369	8.27
553.563	8.15
553.756	8.12
553.95	8.17
554.144	8.19
554.337	8.16
554.531	7.89
554.724	8.16
554.918	8.17
555.111	8.1
555.305	8.14
555.498	8.13
555.692	8.24
555.885	8.18
556.079	8.06
556.272	8.08
556.466	8.04
556.659	8.11
556.852	8.23
557.046	7.99
557.239	7.97
557.432	8.01
557.626	8.17
557.819	8.21
558.012	8.13
558.206	8.18
558.399	8.19
558.592	8.07
558.785	8.06
558.979	8.06
559.172	8.1
559.365	8.23
559.558	8.03
559.751	8.03
559.944	8.22
560.138	8.06
560.331	8.15
560.524	8.14
560.717	8.16
560.91	8.12
561.103	8.13
561.296	7.97
561.489	8.21
561.682	8.27
561.875	8.17
562.068	8.23
562.261	8.01
562.454	8.24
562.647	8.08
562.84	8.1
563.032	8.19
563.225	8.05
563.418	8.13
563.611	8.18
563.804	8.23
563.997	7.99
564.19	7.92
564.382	8.2
564.575	8.13
564.768	8.01
564.961	8.16
565.153	8.06
565.346	7.99
565.539	8.17
565.731	8.08
565.924	8.19
566.117	8.19
566.309	8.1
566.502	8.07
566.695	8.05
566.887	8.14
567.08	8.07
567.272	8.15
567.465	8.02
567.657	8.14
567.85	7.97
568.042	8.16
568.235	8.15
568.427	7.93
568.62	8.1
568.812	8.05
569.005	8.04
569.197	7.96
569.389	8.11
569.582	8.1
569.774	8.09
569.966	8.01
570.159	7.98
570.351	7.98
570.543	8.07
570.736	8.07
570.928	7.88
571.12	8.08
571.312	7.95
571.505	7.8
571.697	8.09
571.889	7.99
572.081	8.06
572.273	7.9
572.465	8.07
572.658	8.04
572.85	8.05
573.042	8.08
573.234	7.89
573.426	8.02
573.618	7.93
573.81	7.98
574.002	7.9
574.194	8.07
574.386	7.91
574.578	7.8
574.77	7.91
574.962	7.94
575.154	7.84
575.346	7.84
575.538	7.82
575.729	7.85
575.921	7.95
576.113	7.99
576.305	7.93
576.497	7.98
576.689	7.83
576.88	7.75
577.072	7.99
577.264	7.84
577.456	7.96
577.647	7.83
577.839	7.95
578.031	7.83
578.223	7.86
578.414	7.73
578.606	7.83
578.798	7.93
578.989	7.83
579.181	7.92
579.372	7.85
579.564	7.86
579.755	7.79
579.947	7.77
580.139	7.84
580.33	7.68
580.522	7.8
580.713	7.68
580.905	7.76
581.096	7.84
581.287	7.67
581.479	7.72
581.67	7.79
581.862	7.69
582.053	7.77
582.244	7.57
582.436	7.81
582.627	7.6
582.818	7.63
583.01	7.67
583.201	7.71
583.392	7.65
583.583	7.58
583.775	7.44
583.966	7.58
584.157	7.57
584.348	7.72
584.54	7.57
584.731	7.61
584.922	7.52
585.113	7.52
585.304	7.6
585.495	7.65
585.686	7.62
585.877	7.66
586.068	7.71
586.259	7.62
586.45	7.59
586.641	7.49
586.832	7.58
587.023	7.5
587.214	7.46
587.405	7.53
587.596	7.46
587.787	7.39
587.978	7.48
588.169	7.4
588.36	7.31
588.551	7.48
588.742	7.39
588.932	7.46
589.123	7.25
589.314	7.51
589.505	7.36
589.696	7.42
589.886	7.35
590.077	7.34
590.268	7.29
590.458	7.3
590.649	7.12
590.84	7.3
591.03	7.34
591.221	7.22
591.412	7.14
591.602	7.33
591.793	7.22
591.984	7.23
592.174	7.23
592.365	7.4
592.555	7.13
592.746	7.15
592.936	7.2
593.127	7.23
593.317	7.28
593.508	7.24
593.698	7.13
593.889	7.15
594.079	7.12
594.269	7.02
594.46	7.05
594.65	7.09
594.84	7.03
595.031	6.89
595.221	7.01
595.411	7.03
595.602	7.05
595.792	6.94
595.982	6.91
596.172	7.05
596.363	6.92
596.553	6.92
596.743	6.97
596.933	6.89
597.123	6.83
597.314	6.75
597.504	6.77
597.694	6.91
597.884	6.88
598.074	6.9
598.264	6.82
598.454	6.84
598.644	6.79
598.834	6.8
599.024	6.69
599.214	6.74
599.404	6.8
599.594	6.69
599.784	6.64
599.974	6.76
600.164	6.72
600.354	6.7
600.544	6.56
600.734	6.74
600.924	6.59
601.114	6.48
601.303	6.52
601.493	6.57
601.683	6.58
601.873	6.6
602.063	6.46
602.252	6.61
602.442	6.43
602.632	6.4
602.821	6.37
603.011	6.52
603.201	6.44
603.39	6.4
603.58	6.33
603.77	6.42
603.959	6.48
604.149	6.4
604.339	6.31
604.528	6.45
604.718	6.39
604.907	6.3
605.097	6.28
605.286	6.24
605.476	6.22
605.665	6.25
605.855	6.2
606.044	6.28
606.234	6.29
606.423	6.15
606.612	6.21
606.802	6.13
606.991	6.19
607.181	6.21
607.37	6.17
607.559	5.93
607.749	6.07
607.938	5.98
608.127	6.07
608.316	6.04
608.506	6.06
608.695	6.1
608.884	5.94
609.073	6.04
609.263	6.07
609.452	6.05
609.641	5.88
609.83	5.88
610.019	5.97
610.208	5.84
610.397	5.9
610.586	5.96
610.775	5.79
610.965	5.79
611.154	5.77
611.343	5.8
611.532	5.71
611.721	5.86
611.91	5.66
612.099	5.7
612.287	5.62
612.476	5.61
612.665	5.81
612.854	5.64
613.043	5.7
613.232	5.57
613.421	5.58
613.61	5.55
613.798	5.57
613.987	5.58
614.176	5.52
614.365	5.51
614.554	5.47
614.742	5.54
614.931	5.35
615.12	5.57
615.309	5.52
615.497	5.36
615.686	5.34
615.875	5.37
616.063	5.31
616.252	5.3
616.44	5.37
616.629	5.37
616.818	5.35
617.006	5.32
617.195	5.19
617.383	5.3
617.572	5.16
617.76	5.21
617.949	5.21
618.137	5.22
618.326	5.24
618.514	5.1
618.703	4.96
618.891	5.18
619.079	5.04
619.268	5.2
619.456	4.99
619.644	5.19
619.833	5.07
620.021	5
620.209	4.96
620.398	5.04
620.586	4.88
620.774	4.98
620.962	4.93
621.151	5.07
621.339	4.98
621.527	4.84
621.715	4.82
621.903	4.91
622.092	4.76
622.28	4.89
622.468	4.64
622.656	4.86
622.844	4.83
623.032	4.85
623.22	4.65
623.408	4.83
623.596	4.77
623.784	4.74
623.972	4.64
624.16	4.66
624.348	4.74
624.536	4.7
624.724	4.61
624.912	4.64
625.1	4.65
625.288	4.63
625.476	4.46
625.664	4.6
625.851	4.57
626.039	4.56
626.227	4.45
626.415	4.49
626.603	4.36
626.79	4.44
626.978	4.48
627.166	4.41
627.354	4.32
627.541	4.41
627.729	4.24
627.917	4.46
628.104	4.44
628.292	4.31
628.48	4.31
628.667	4.28
628.855	4.38
629.042	4.38
629.23	4.24
629.418	4.25
629.605	4.25
629.793	4.18
629.98	4.18
630.168	4.21
630.355	4.22
630.543	4.2
630.73	4.09
630.917	4.09
631.105	4.21
631.292	4.14
631.48	4.08
631.667	4.2
631.854	4.07
632.042	4.09
632.229	3.95
632.416	4.04
632.604	3.98
632.791	3.9
632.978	3.99
633.165	3.94
633.353	4.05
633.54	4
633.727	3.85
633.914	3.88
634.101	3.8
634.289	3.92
634.476	3.81
634.663	3.77
634.85	3.82
635.037	3.77
635.224	3.69
635.411	3.85
635.598	3.71
635.785	3.74
635.972	3.72
636.159	3.73
636.346	3.71
636.533	3.62
636.72	3.63
636.907	3.67
637.094	3.63
637.281	3.55
637.468	3.59
637.655	3.55
637.842	3.57
638.029	3.53
638.215	3.53
638.402	3.47
638.589	3.5
638.776	3.5
638.963	3.41
639.149	3.54
639.336	3.56
639.523	3.4
639.709	3.39
639.896	3.4
640.083	3.42
640.27	3.38
640.456	3.31
640.643	3.37
640.829	3.27
641.016	3.27
641.203	3.25
641.389	3.28
641.576	3.3
641.762	3.28
641.949	3.19
642.135	3.28
642.322	3.21
642.508	3.1
642.695	3.2
642.881	3.16
643.068	3.15
643.254	3.15
643.441	3.16
643.627	3.17
643.813	3.07
644	3.16
644.186	3.03
644.372	3.1
644.559	3.11
644.745	3.02
644.931	2.98
645.118	3.01
645.304	3.01
645.49	2.98
645.676	2.97
645.862	3.01
646.049	3.02
646.235	2.98
646.421	3.05
646.607	3.04
646.793	2.86
646.979	2.84
647.165	2.87
647.352	2.88
647.538	2.87
647.724	2.85
647.91	2.81
648.096	2.86
648.282	2.86
648.468	2.77
648.654	2.83
648.84	2.79
649.026	2.77
649.212	2.71
649.397	2.68
649.583	2.69
649.769	2.75
649.955	2.72
650.141	2.7
650.327	2.68
650.513	2.56
650.698	2.64
650.884	2.53
651.07	2.65
651.256	2.65
651.442	2.58
651.627	2.49
651.813	2.66
651.999	2.54
652.184	2.53
652.37	2.57
652.556	2.54
652.741	2.61
652.927	2.4
653.113	2.51
653.298	2.49
653.484	2.5
653.669	2.4
653.855	2.5
654.04	2.55
654.226	2.46
654.412	2.43
654.597	2.33
654.782	2.46
654.968	2.5
655.153	2.39
655.339	2.34
655.524	2.38
655.71	2.39
655.895	2.35
656.08	2.35
656.266	2.45
656.451	2.31
656.636	2.22
656.822	2.32
657.007	2.3
657.192	2.31
657.378	2.21
657.563	2.27
657.748	2.25
657.933	2.25
658.118	2.21
658.304	2.2
658.489	2.31
658.674	2.22
658.859	2.16
659.044	2.19
659.229	2.22
659.414	2.15
659.599	2.16
659.785	2.09
659.97	2.17
660.155	2.13
660.34	2.09
660.525	2.08
660.71	2.04
660.895	2.11
661.08	2.06
661.264	2.04
661.449	2.16
661.634	2.02
661.819	2.11
662.004	2.04
662.189	1.94
662.374	2
662.559	1.93
662.743	1.91
662.928	2
663.113	1.96
663.298	1.89
663.483	1.93
663.667	1.94
663.852	1.91
664.037	1.96
664.221	1.92
664.406	1.99
664.591	1.96
664.775	1.97
664.96	1.91
665.145	1.85
665.329	1.91
665.514	1.84
665.698	1.82
665.883	1.75
666.068	1.88
666.252	1.84
666.437	1.79
666.621	1.78
666.806	1.79
666.99	1.76
667.174	1.72
667.359	1.85
667.543	1.72
667.728	1.76
667.912	1.68
668.096	1.79
668.281	1.69
668.465	1.74
668.649	1.7
668.834	1.68
669.018	1.72
669.202	1.73
669.387	1.61
669.571	1.79
669.755	1.64
669.939	1.65
670.124	1.61
670.308	1.69
670.492	1.71
670.676	1.61
670.86	1.57
671.044	1.58
671.228	1.64
671.413	1.57
671.597	1.6
671.781	1.57
671.965	1.64
672.149	1.56
672.333	1.62
672.517	1.52
672.701	1.56
672.885	1.56
673.069	1.5
673.253	1.62
673.437	1.53
673.621	1.48
673.804	1.54
673.988	1.53
674.172	1.5
674.356	1.39
674.54	1.5
674.724	1.59
674.908	1.48
675.091	1.53
675.275	1.46
675.459	1.53
675.643	1.51
675.826	1.49
676.01	1.44
676.194	1.44
676.377	1.45
676.561	1.46
676.745	1.43
676.928	1.42
677.112	1.52
677.296	1.38
677.479	1.39
677.663	1.36
677.846	1.43
678.03	1.38
678.213	1.35
678.397	1.4
678.58	1.41
678.764	1.32
678.947	1.31
679.131	1.37
679.314	1.45
679.498	1.33
679.681	1.41
679.865	1.41
680.048	1.3
680.231	1.29
680.415	1.27
680.598	1.3
680.781	1.24
680.965	1.28
681.148	1.28
681.331	1.24
681.514	1.31
681.698	1.23
681.881	1.27
682.064	1.26
682.247	1.27
682.43	1.17
682.614	1.2
682.797	1.32
682.98	1.27
683.163	1.11
683.346	1.21
683.529	1.21
683.712	1.14
683.895	1.23
684.078	1.13
684.261	1.18
684.444	1.2
684.627	1.21
684.81	1.15
684.993	1.17
685.176	1.18
685.359	1.09
685.542	1.09
685.725	1.22
685.908	1.12
686.091	1.1
686.274	1.21
686.457	1.24
686.639	1.14
686.822	1.12
687.005	1.06
687.188	1.16
687.371	1.22
687.553	1.18
687.736	1.17
687.919	1.25
688.102	1.15
688.284	1.04
688.467	1.04
688.65	1.09
688.832	0.98
689.015	1.06
689.197	0.96
689.38	1.13
689.563	1.14
689.745	1
689.928	1.02
690.11	1
690.293	1.06
690.475	0.95
690.658	1.05
690.84	1.08
691.023	1.01
691.205	0.98
691.388	0.9
691.57	1.07
691.752	1.06
691.935	0.91
692.117	0.99
692.3	0.99
692.482	0.98
692.664	0.91
692.847	1.01
693.029	1.11
693.211	0.99
693.393	0.9
693.576	0.88
693.758	0.99
693.94	0.92
694.122	0.92
694.304	0.89
694.487	0.83
694.669	1.03
694.851	0.84
695.033	0.95
695.215	0.9
695.397	0.84
695.579	0.88
695.761	0.9
695.943	0.8
696.125	0.99
696.308	0.89
696.49	0.72
696.671	1.03
696.853	0.89
697.035	1.08
697.217	0.87
697.399	0.94
697.581	0.87
697.763	0.84
697.945	0.8
698.127	0.87
698.309	0.96
698.491	0.85
698.672	0.89
698.854	0.92
699.036	0.94
699.218	0.84
699.399	0.93
699.581	0.9
699.763	0.85
699.945	0.81
700.126	0.73
700.308	0.85
700.49	0.81
700.671	0.75
700.853	0.79
701.035	0.82
701.216	0.89
701.398	0.73
701.579	0.77
701.761	0.89
701.943	0.71
702.124	0.7
702.306	0.75
702.487	0.98
702.669	0.79
702.85	0.71
703.031	0.74
703.213	0.9
703.394	0.87
703.576	0.72
703.757	0.9
703.938	0.86
704.12	0.97
704.301	0.74
704.483	0.75
704.664	0.75
704.845	0.96
705.026	0.79
705.208	0.71
705.389	0.78
705.57	0.85
705.751	0.67
705.933	0.77
706.114	0.81
706.295	0.71
706.476	0.63
706.657	0.84
706.838	0.78
707.02	0.79
707.201	0.68
707.382	0.67
707.563	0.78
707.744	0.75
707.925	0.63
708.106	0.69
708.287	0.72
708.468	0.85
708.649	0.7
708.83	0.73
709.011	0.66
709.192	0.72
709.373	0.62
709.554	0.66
709.734	0.77
709.915	0.69
710.096	0.7
710.277	0.48
710.458	0.65
710.639	0.8
710.819	0.59
711	0.62
711.181	0.76
711.362	0.77
711.542	0.63
711.723	0.62
711.904	0.72
712.085	0.69
712.265	0.59
712.446	0.54
712.627	0.59
712.807	0.61
712.988	0.67
713.168	0.52
713.349	0.72
713.53	0.48
713.71	0.54
713.891	0.52
714.071	0.61
714.252	0.55
714.432	0.54
714.613	0.53
714.793	0.57
714.974	0.75
715.154	0.65
715.334	0.69
715.515	0.72
715.695	0.55
715.876	0.61
716.056	0.54
716.236	0.63
716.417	0.54
716.597	0.51
716.777	0.8
716.957	0.61
717.138	0.6
717.318	0.57
717.498	0.47
717.678	0.56
717.859	0.65
718.039	0.43
718.219	0.63
718.399	0.64
718.579	0.51
718.759	0.5
718.939	0.6
719.12	0.59
719.3	0.57
719.48	0.37
719.66	0.39
719.84	0.67
720.02	0.51
720.2	0.44
720.38	0.57
720.56	0.74
720.74	0.47
720.92	0.46
721.1	0.68
721.279	0.62
721.459	0.48
721.639	0.41
721.819	0.56
721.999	0.54
722.179	0.62
722.359	0.4
722.538	0.54
722.718	0.53
722.898	0.49
723.078	0.46
723.257	0.46
723.437	0.55
723.617	0.56
723.797	0.5
723.976	0.52
724.156	0.64
724.336	0.7
724.515	0.65
724.695	0.36
724.874	0.5
725.054	0.49
725.234	0.39
725.413	0.49
725.593	0.58
725.772	0.46
725.952	0.51
726.131	0.49
726.311	0.48
726.49	0.47
726.67	0.38
726.849	0.45
727.028	0.5
727.208	0.47
727.387	0.55
727.567	0.41
727.746	0.46
727.925	0.5
728.105	0.33
728.284	0.42
728.463	0.46
728.643	0.51
728.822	0.43
729.001	0.45
729.18	0.5
729.359	0.57
729.539	0.42
729.718	0.38
729.897	0.56
730.076	0.48
730.255	0.34
730.434	0.43
730.614	0.64
730.793	0.61
730.972	0.45
731.151	0.5
731.33	0.52
731.509	0.55
731.688	0.38
731.867	0.42
732.046	0.36
732.225	0.67
732.404	0.44
732.583	0.38
732.762	0.48
732.941	0.51
733.12	0.54
733.298	0.41
733.477	0.65
733.656	0.47
733.835	0.33
734.014	0.51
734.193	0.4
734.371	0.61
734.55	0.59
734.729	0.39
734.908	0.46
735.086	0.45
735.265	0.57
735.444	0.33
735.623	0.39
735.801	0.45
735.98	0.46
736.159	0.51
736.337	0.62
736.516	0.63
736.694	0.46
736.873	0.39
737.052	0.74
737.23	0.67
737.409	0.37
737.587	0.67
737.766	0.35
737.944	0.51
738.123	0.55
738.301	0.48
738.479	0.5
738.658	0.53
738.836	0.2
739.015	0.45
739.193	0.65
739.371	0.29
739.55	0.41
739.728	0.32
739.906	0.68
740.085	0.71
740.263	0.51
740.441	0.29
740.62	0.73
740.798	0.62
740.976	0.34
741.154	0.24
741.332	0.68
741.511	0.47
741.689	0.48
741.867	0.5
742.045	0.6
742.223	0.31
742.401	0.34
742.579	0.35
742.757	0.57
742.935	0.29
743.114	0.34
743.292	0.38
743.47	0.58
743.648	0.53
743.826	0.32
744.004	0.4
744.181	0.55
744.359	0.48
744.537	0.46
744.715	0.33
744.893	0.45
745.071	0.5
745.249	0.38
745.427	0.38
745.605	0.5
745.782	0.43
745.96	0.48
746.138	0.55
746.316	0.42
746.493	0.34
746.671	0.44
746.849	0.42
747.027	0.56
747.204	0.41
747.382	0.52
747.56	0.18
747.737	0.43
747.915	0.35
748.093	0.46
748.27	0.35
748.448	0.43
748.625	0.2
748.803	0.35
748.98	0.28
749.158	0.44
749.335	0.54
749.513	0.37
749.69	0.35
749.868	0.44
750.045	0.48
750.223	0.34
750.4	0.23
750.578	0.69
750.755	0.44
750.932	0.27
751.11	0.54
751.287	0.3
751.464	0.63
751.642	0.25
751.819	0.48
751.996	0.51
752.173	0.23
752.351	0.32
752.528	0.4
752.705	0.36
752.882	0.26
753.06	0.3
753.237	0.36
753.414	0.58
753.591	0.64
753.768	0.36
753.945	0.31
754.122	0.31
754.299	0.46
754.476	0.27
754.654	0.4
754.831	0.47
755.008	0.41
755.185	0.34
755.362	0.21
755.539	0.43
755.716	0.29
755.892	0.35
756.069	0.41
756.246	0.47
756.423	0.38
756.6	0.38
756.777	0.18
756.954	0.52
757.131	0.34
757.307	0.33
757.484	0.17
757.661	0.39
757.838	0.42
758.015	0.24
758.191	0.47
758.368	0.43
758.545	0.52
758.721	0.47
758.898	0.23
759.075	0.39
759.251	0.41
759.428	0.32
759.605	0.19
759.781	0.17
759.958	0.53
760.134	0.43
760.311	0.17
760.488	0.52
760.664	0.6
760.841	0.44
761.017	0.17
761.194	0.45
761.37	0.47
761.547	0.31
761.723	0.33
761.899	0.6
762.076	0.38
762.252	0.22
762.429	0.22
762.605	0.49
762.781	0.32
762.958	0.47
763.134	0.2
763.31	0.21
763.486	0.56
763.663	0.15
763.839	0.32
764.015	0.12
764.191	0.27
764.368	0.44
764.544	0.2
764.72	0.43
764.896	0.46
765.072	0.36
765.248	0.35
765.425	0.31
765.601	0.41
765.777	0.46
765.953	0.06
766.129	0.26
766.305	0.19
766.481	0.43
766.657	0.37
766.833	0.69
767.009	0.35
767.185	0.37
767.361	0.35
767.537	0.19
767.713	0.49
767.889	0.22
768.065	0.26
768.24	0.27
768.416	0.5
768.592	0.35
768.768	0.42
768.944	0.42
769.12	0.27
769.295	0.39
769.471	0.31
769.647	0.46
769.823	0.59
769.998	0.22
770.174	0.28
770.35	0.76
770.525	0.64
770.701	0.37
770.877	0.17
771.052	0.24
771.228	0.62
771.403	0.23
771.579	0.29
771.755	0.73
771.93	0.22
772.106	0.37
772.281	0.05
772.457	0.39
772.632	0.3
772.808	0.15
772.983	0.2
773.159	0.16
773.334	0.54
773.509	0.36
773.685	0.25
773.86	0.89
774.036	0.56
774.211	0.33
774.386	0.19
774.562	0.45
774.737	0.41
774.912	0.26
775.087	0.44
775.263	0.48
775.438	0.37
775.613	0.2
775.788	0.3
775.964	0.53
776.139	0.84
776.314	0.2
776.489	0.43
776.664	0.43
776.839	0.15
777.014	0.48
777.19	0.29
777.365	0.62
777.54	0.54
777.715	0.18
777.89	0.35
778.065	0.27
778.24	0.34
778.415	0.7
778.59	0.11
778.765	0.35
778.94	0.43
779.115	0.42
779.289	0.38
779.464	0.31
779.639	0.33
779.814	0.16
779.989	0.27
780.164	0.52
780.339	0.55
780.513	0.16
780.688	0.12
780.863	0.46
781.038	0.51
781.212	0.21
781.387	0.3
781.562	0.79
781.737	0.3
781.911	0.66
782.086	0.17
782.261	0.5
782.435	0.7
782.61	0.13
782.784	0.37
782.959	0.65
783.134	0.33
783.308	0.15
783.483	0.32
783.657	0.97
783.832	0.67
784.006	0.07
784.181	0.49
784.355	0.64
784.53	0.14
784.704	0.18
784.878	0.7
785.053	0.41
785.227	0.63
785.402	0.76
785.576	0.32
785.75	0.48
785.925	0.37
786.099	0.68
786.273	0.53
786.448	0.91
786.622	0.56
786.796	0.34
786.97	0.49
787.145	1.16
787.319	0.13
787.493	0.3
787.667	-0.01
787.841	0.29
788.015	0.65
788.19	0.23
788.364	0.28
788.538	0.71
788.712	0.44
788.886	0.35
789.06	0.59
789.234	0.68
789.408	0.15
789.582	0.21
789.756	0.47
789.93	0.32
790.104	0.31
790.278	0.18
790.452	0.38
790.626	0.48
790.8	0.15
790.973	0.53
791.147	0.66
791.321	0.79
791.495	0.7
791.669	0.65
791.843	0.5
792.016	0.5
792.19	0.84
792.364	0.27
792.538	0.87
792.711	0.86
792.885	0.39
793.059	0.04
793.233	-0.3
793.406	0.78
793.58	0.27
793.754	0.32
793.927	0.42
794.101	0.68
794.274	0.47
794.448	0.43
794.622	0.09
794.795	0.81
794.969	0.3
795.142	0.68
795.316	0.14
795.489	0.31
795.663	0.83
795.836	0.16
796.009	0.3
796.183	0.86
796.356	0.53
796.53	0.23
796.703	0.39
796.876	1.12
797.05	0.3
797.223	0.35
797.396	0.49
797.57	0.34
797.743	1.13
797.916	0.33
798.09	0.35
798.263	0.62
798.436	0.57
798.609	0.07
798.782	0.32
798.956	0.42
799.129	0.62
799.302	0.38
799.475	0.22
799.648	0.45
799.821	0.08
799.994	0.4
800.167	0.06
800.34	0.33
800.514	0.54
800.687	0.43
800.86	0.34
801.033	0.56
801.206	0.76
801.379	0.33
801.551	0.96
801.724	0.74
801.897	1.06
802.07	0.46
802.243	0.11
802.416	0.78
802.589	0.47
802.762	0.47
802.935	0.24
803.107	1.02
803.28	0.73
803.453	0.83
803.626	0.08
803.798	0.81
803.971	0.22
804.144	0.24
804.317	0.32
804.489	0.66
804.662	0.73
804.835	0.65
805.007	0.34
805.18	0.97
805.353	0.2
805.525	0.48
805.698	0.28
805.87	0.93
806.043	1
806.215	-0.01
806.388	0.39
806.56	0.76
806.733	0.95
806.905	0.42
807.078	0.45
807.25	0.26
807.423	0.78
807.595	0.72
807.768	0.32
807.94	0.76
808.112	0.7
808.285	0.5
808.457	0.06
808.629	0.58
808.802	0.96
808.974	0.6
809.146	0.2
809.318	0.31
809.491	0.74
809.663	0.62
809.835	0.36
810.007	0.9
810.18	0.29
810.352	-0.11
810.524	0.22
810.696	0.72
810.868	1.11
811.04	0.3
811.212	0.64
811.384	0.58
811.556	0.88
811.728	0.28
811.901	1.36
812.073	0.49
812.245	0.9
812.417	0.42
812.589	-0.11
812.76	0.77
812.932	0.73
813.104	0.97
813.276	0.53
813.448	1.16
813.62	0.51
813.792	0.63
813.964	0.47
814.136	0.96
814.307	0.36
814.479	0.14
814.651	0.26
814.823	1.46
814.995	0.69
815.166	0.71
815.338	0.55
815.51	0.42
815.681	1.16
815.853	0.81
816.025	0.11
816.196	1.29
816.368	1.05
816.54	-0.13
816.711	0.15
816.883	1.4
817.054	2.24
817.226	0.45
817.398	0.7
817.569	0.37
817.741	0.87
817.912	0.59
818.084	0.27
818.255	1.23
818.426	0.07
818.598	0.46
818.769	0.3
818.941	0.73
819.112	1.51
819.283	0.55
819.455	-0.19
819.626	0.25
819.798	0.63
819.969	0.41
820.14	0.26
820.311	0.33
820.483	0.9
820.654	0.9
820.825	0.74
820.996	0.53
821.168	0.26
821.339	0.41
821.51	0.25
821.681	0.14
821.852	0.56
822.023	0.07
822.195	0.16
822.366	0.96
822.537	0.82
822.708	0.68
822.879	0.84
823.05	1.16
823.221	1.11
823.392	0.62
823.563	0.23
823.734	0.75
823.905	0.68
824.076	0.46
824.247	0.42
824.418	1.08
824.589	1.71
824.759	0.85
824.93	1.06
825.101	-0.13
825.272	1.56
825.443	1.75
825.614	1.38
825.784	-0.18
825.955	2.25
826.126	1.21
826.297	0.43
826.467	1.95
826.638	1.61
826.809	-0.25
826.98	0.59
827.15	1.34
827.321	1.28
827.492	1.14
827.662	0.96
827.833	2.34
828.003	1.05
828.174	-0.13
828.345	-0.52
828.515	2.15
828.686	1.13
828.856	0.93
829.027	0.17
829.197	0.85
829.368	0.76
829.538	-0.23
829.709	0.31
829.879	0.97
830.049	0.62
830.22	0.54
830.39	0.21
830.56	1.17
830.731	0.98
830.901	-0.14
831.072	0.56
831.242	0.64
831.412	1.23
831.582	0.69
831.753	0.01
831.923	1.38
832.093	0.86
832.263	0.2
832.434	0.11
832.604	0.41
832.774	1.39
832.944	0.59
833.114	0.56
833.284	1.51
833.454	0.67
833.624	0.16
833.795	0.95
833.965	1.76
834.135	1.64
834.305	-0.49
834.475	-0.49
834.645	1.07
834.815	0.32
834.985	0.12
835.155	0.3
835.325	1.72
835.494	1.67
835.664	0.76
835.834	0.04
836.004	1.14
836.174	1.15
836.344	0.66
836.514	-0.11
836.684	0.95
836.853	0.41
837.023	1.47
837.193	0.35
837.363	1.65
837.532	1.14
837.702	0.56
837.872	-0.31
838.041	2.01
838.211	2.48
838.381	-0.01
838.55	0.68
838.72	3.49
838.89	2.23
839.059	0.33
839.229	-0.08
839.398	3.08
839.568	1.38
839.738	0.52
839.907	2.34
840.077	1.58
840.246	-0.11
840.416	-0.31
840.585	0.11
840.755	2.7
840.924	2.81
841.093	0.14
841.263	0.52
841.432	1.46
841.602	0.47
841.771	0.76
841.94	0.98
842.11	3.06
842.279	2.19
842.448	0.78
842.617	-0.31
842.787	2.83
842.956	0.55
843.125	0.53
843.294	0.45
843.464	2.73
843.633	1
843.802	0.1
843.971	0.97
844.14	2.62
844.309	2.9
844.479	-0.67
844.648	-0.14
844.817	1.21
844.986	1.44
845.155	-0.33
845.324	0.62
845.493	0.84
845.662	0.57
845.831	2.07
846	1.34
846.169	0.62
846.338	3.22
846.507	1.37
846.676	0.85
846.844	1.01
847.013	0.26
847.182	0.39
847.351	0.27
847.52	1.03
847.689	2.61
847.858	1.03
848.026	0.66
848.195	1.23
848.364	-0.48
848.533	0.7
848.701	0.22
848.87	1.33
849.039	2.91
849.207	1.08
849.376	3.19
849.545	3.11
849.713	0.21
849.882	1.02
850.051	0.77
850.219	1.12
850.388	1.94
850.556	0.16
850.725	0.2
850.893	2.38
851.062	1.52
851.23	2.16
851.399	-0.65
851.567	1.09
851.736	0.66
851.904	-0.75
852.073	0.06
852.241	2.07
852.41	0.8
852.578	0.87
852.746	1.5
852.915	2
853.083	1.08
853.251	-0.64
853.42	1.07
853.588	0.12
853.756	3.66
853.924	0.12
854.093	0.95
854.261	1
854.429	0.04
854.597	1.39
854.765	0.52
854.934	3.28
855.102	1.69
855.27	1.09
855.438	1.9
855.606	1.81
855.774	3.69
855.942	-1.18
856.11	1.07
856.278	1.52
856.446	2.46
856.614	1.73
856.782	0.13
856.95	2.06
857.118	2.27
857.286	1.5
857.454	0.89
857.622	2.03
857.79	2.39
857.958	-0.48
858.126	0.5
858.294	-1.38
858.462	0.38
858.629	0.63
858.797	0.31
858.965	1.87
859.133	1.43
859.301	1.69
859.468	1.96
859.636	0.95
859.804	4.16
859.971	1.56
860.139	0.47
860.307	3.21
860.474	0.91
860.642	0.75
860.81	0.33
860.977	0.67
861.145	3.89
861.313	0.07
861.48	0.69
861.648	1.72
861.815	0.73
861.983	-0.76
862.15	1.9
862.318	3.3
862.485	2.31
862.653	0.54
862.82	0.38
862.988	3.72
863.155	2.61
863.322	0.31
863.49	-0.72
863.657	0.33
863.824	3.46
863.992	1.97
864.159	1.34
864.326	4.81
864.494	0.3
864.661	2.21
864.828	-0.22
864.996	2.9
865.163	3.91
865.33	-0.09
865.497	-1.72
865.664	0.93
865.832	-0.67
865.999	0.95
866.166	0.38
866.333	0.86
866.5	1.41
866.667	1.05
866.834	0.99
867.001	6.26
867.168	1.17
867.335	1.47
867.502	-0.9
867.669	1.84
867.836	3.78
868.003	1.04
868.17	3.97
868.337	3.75
868.504	4.3
868.671	-1.5
868.838	-0.47
869.005	3.71
869.172	2.32
869.339	0.81
869.505	0.94
869.672	2.32
869.839	3.95
870.006	1.95
870.173	0.99
870.339	4.07
870.506	2.21
870.673	0.41
870.84	1.28
871.006	0.71
871.173	0.94
871.34	1.29
871.506	-0.39
871.673	1.96
871.839	-1
872.006	1.41
872.173	0.66
872.339	2.04
872.506	4.34
872.672	-0.27
872.839	-0.37
873.005	2.45
873.172	6.9
873.338	2.47
873.505	1.62
873.671	0.34
873.838	1.08
874.004	-1.04
874.171	-0.89
874.337	4.09
874.503	4.96
874.67	1.36
874.836	0.36
875.002	5.32
875.169	5.09
875.335	2.16
875.501	1.61
875.668	2.68
875.834	1.68
876	0.23
876.166	3.18
876.332	3.3
876.499	5.7
876.665	0.92
876.831	1.31
876.997	4.76
877.163	3.38
877.329	0.69
877.495	2.34
877.662	1.5
877.828	2.71
877.994	1.05
878.16	-2.59
878.326	1.83
878.492	3.92
878.658	1.72
878.824	2
878.99	3.07
879.156	-0.34
879.322	3.94
879.487	2.04
879.653	1.89
879.819	3.8
879.985	-0.09
880.151	2.48
880.317	2.15
880.483	1.6
880.648	3.32
880.814	-1.07
880.98	2.02
881.146	-1.62
881.312	0.26
881.477	2.1
881.643	1.52
881.809	3.76
881.974	1.97
882.14	-0.96
882.306	2.73
882.471	6.57
882.637	1.93
882.803	3.2
882.968	4.13
883.134	7.59
883.299	0.47
883.465	1.47
883.63	4.77
883.796	3.43
883.961	3.59
884.127	4.3
884.292	-3.92
884.458	-0.96
884.623	-0.96
