Data from Apollo_Calib_20240827__AbsoluteIrradiance__789__12-18-02-962.txt Node

Date: Wed Aug 28 12:18:02 BST 2024
User: biology
Spectrometer: FLMT08252
Trigger mode: 0
Integration Time (sec): 5.000000E-1
Scans to average: 5
Electric dark correction enabled: true
Nonlinearity correction enabled: false
Boxcar width: 0
XAxis mode: Wavelengths
Number of Pixels in Spectrum: 3648
>>>>>Begin Spectral Data<<<<<
179.588	-0
179.809	-0
180.03	-0
180.251	-0
180.473	-0
180.694	0
180.915	0
181.136	-0
181.357	0
181.578	-0
181.799	-0
182.02	-0
182.241	-0
182.462	-0
182.683	0
182.904	-0
183.125	-0
183.346	0
183.567	0
183.788	0
184.009	0
184.23	0
184.451	0
184.672	0
184.892	0
185.113	0
185.334	0
185.555	0
185.776	0
185.996	0
186.217	0
186.438	0
186.659	0
186.879	0
187.1	0
187.321	0
187.541	0
187.762	0
187.983	0
188.203	0
188.424	0
188.644	0
188.865	0
189.086	0
189.306	0
189.527	0
189.747	0
189.968	0
190.188	0
190.409	0
190.629	0
190.849	0
191.07	0
191.29	0
191.511	0
191.731	0
191.951	0
192.172	0
192.392	0
192.612	0
192.833	0
193.053	0
193.273	0
193.493	0
193.714	0
193.934	0
194.154	0
194.374	0
194.594	0
194.815	0
195.035	0
195.255	0
195.475	0
195.695	0
195.915	0
196.135	0
196.355	0
196.575	0
196.795	0
197.015	0
197.235	0
197.455	0
197.675	0
197.895	0
198.115	0
198.335	0
198.555	0
198.775	0
198.995	0
199.214	0
199.434	0
199.654	0
199.874	0
200.094	4.35
200.313	2.13
200.533	2.13
200.753	1.67
200.973	3.42
201.192	2.86
201.412	1.78
201.632	2.15
201.851	3.19
202.071	1.97
202.291	1.48
202.51	1.45
202.73	2.56
202.95	1.87
203.169	0.82
203.389	2.03
203.608	2.12
203.828	1.59
204.047	1.46
204.267	2.19
204.486	2.03
204.706	2.4
204.925	1.42
205.145	1.37
205.364	2.29
205.583	2.71
205.803	1.14
206.022	1.19
206.242	1.38
206.461	1.75
206.68	1.15
206.9	1.61
207.119	2.65
207.338	2.26
207.557	1.27
207.777	1.29
207.996	1.55
208.215	2.08
208.434	1.09
208.654	0.75
208.873	1.31
209.092	2.18
209.311	0.93
209.53	1.15
209.749	1.21
209.968	1.24
210.187	1.41
210.407	0.53
210.626	1.19
210.845	1.4
211.064	1.34
211.283	0.67
211.502	1.59
211.721	1.04
211.94	1.16
212.159	1.35
212.377	1.37
212.596	1.64
212.815	1.36
213.034	1.1
213.253	1.35
213.472	1.32
213.691	0.98
213.91	0.7
214.128	0.75
214.347	1.53
214.566	0.51
214.785	0.5
215.003	1.09
215.222	1.22
215.441	0.97
215.66	0.74
215.878	0.97
216.097	1.24
216.316	0.7
216.534	0.77
216.753	0.93
216.972	0.88
217.19	0.86
217.409	0.65
217.627	0.67
217.846	0.6
218.064	1
218.283	0.5
218.501	1.33
218.72	1.37
218.938	0.58
219.157	0.7
219.375	1.11
219.594	1.15
219.812	0.52
220.031	0.56
220.249	1.17
220.467	1.12
220.686	0.48
220.904	0.53
221.122	0.65
221.341	1.1
221.559	0.69
221.777	0.38
221.995	0.76
222.214	0.96
222.432	0.78
222.65	0.85
222.868	0.78
223.086	0.82
223.305	0.84
223.523	0.66
223.741	1.04
223.959	0.57
224.177	0.37
224.395	0.42
224.613	0.8
224.831	0.83
225.049	0.38
225.267	0.54
225.485	0.77
225.703	0.6
225.921	0.66
226.139	0.61
226.357	0.82
226.575	0.9
226.793	0.55
227.011	1.63
227.229	0.78
227.447	0.89
227.665	0.51
227.883	0.32
228.1	0.54
228.318	0.8
228.536	0.22
228.754	0.47
228.972	0.72
229.189	0.74
229.407	0.57
229.625	0.61
229.843	0.95
230.06	0.77
230.278	0.49
230.496	0.58
230.713	0.65
230.931	0.81
231.149	0.38
231.366	0.3
231.584	0.62
231.801	0.98
232.019	0.42
232.236	0.34
232.454	0.47
232.671	0.75
232.889	0.6
233.106	0.45
233.324	0.56
233.541	0.64
233.759	0.57
233.976	0.32
234.194	0.56
234.411	0.56
234.628	0.39
234.846	0.45
235.063	0.53
235.28	0.64
235.498	0.48
235.715	0.38
235.932	0.79
236.149	0.51
236.367	0.36
236.584	0.6
236.801	0.45
237.018	0.63
237.236	0.53
237.453	0.25
237.67	0.61
237.887	0.47
238.104	0.44
238.321	0.29
238.538	0.51
238.755	0.66
238.973	0.31
239.19	0.55
239.407	0.57
239.624	0.53
239.841	0.33
240.058	0.35
240.275	0.57
240.492	0.53
240.709	0.41
240.925	0.32
241.142	0.53
241.359	0.43
241.576	0.34
241.793	0.42
242.01	0.43
242.227	0.59
242.444	0.54
242.66	0.57
242.877	0.59
243.094	0.37
243.311	0.5
243.527	0.44
243.744	0.58
243.961	0.52
244.178	0.41
244.394	0.51
244.611	0.57
244.828	0.66
245.044	0.33
245.261	0.4
245.477	0.45
245.694	0.69
245.911	0.39
246.127	0.5
246.344	0.68
246.56	0.6
246.777	0.43
246.993	0.34
247.21	0.44
247.426	0.42
247.643	0.35
247.859	0.33
248.076	0.35
248.292	0.7
248.508	0.36
248.725	0.53
248.941	0.5
249.157	0.54
249.374	0.36
249.59	0.44
249.806	0.39
250.023	0.51
250.239	0.33
250.455	0.36
250.671	0.5
250.888	0.47
251.104	0.46
251.32	0.34
251.536	0.31
251.752	0.32
251.969	0.36
252.185	0.37
252.401	0.61
252.617	0.52
252.833	0.36
253.049	0.39
253.265	0.51
253.481	0.45
253.697	0.33
253.913	0.32
254.129	0.54
254.345	0.45
254.561	0.37
254.777	0.31
254.993	0.49
255.209	0.44
255.425	0.39
255.641	0.38
255.857	0.5
256.073	0.49
256.288	0.24
256.504	0.33
256.72	0.48
256.936	0.61
257.152	0.33
257.367	0.32
257.583	0.41
257.799	0.47
258.015	0.26
258.23	0.34
258.446	0.65
258.662	0.4
258.877	0.28
259.093	0.28
259.309	0.32
259.524	0.43
259.74	0.37
259.955	0.23
260.171	0.43
260.387	0.42
260.602	0.41
260.818	0.35
261.033	0.28
261.249	0.36
261.464	0.27
261.68	0.26
261.895	0.43
262.11	0.44
262.326	0.32
262.541	0.32
262.757	0.52
262.972	0.39
263.187	0.37
263.403	0.36
263.618	0.42
263.833	0.4
264.049	0.28
264.264	0.38
264.479	0.4
264.694	0.58
264.91	0.31
265.125	0.36
265.34	0.44
265.555	0.59
265.77	0.32
265.986	0.28
266.201	0.4
266.416	0.57
266.631	0.25
266.846	0.29
267.061	0.38
267.276	0.44
267.491	0.17
267.706	0.34
267.921	0.47
268.136	0.41
268.351	0.32
268.566	0.26
268.781	0.39
268.996	0.4
269.211	0.4
269.426	0.25
269.641	0.36
269.856	0.45
270.071	0.23
270.285	0.21
270.5	0.48
270.715	0.45
270.93	0.33
271.145	0.33
271.359	0.41
271.574	0.35
271.789	0.32
272.004	0.33
272.218	0.35
272.433	0.42
272.648	0.26
272.862	0.43
273.077	0.36
273.292	0.35
273.506	0.25
273.721	0.3
273.936	0.44
274.15	0.43
274.365	0.31
274.579	0.38
274.794	0.44
275.008	0.42
275.223	0.2
275.437	0.34
275.652	0.41
275.866	0.36
276.081	0.39
276.295	0.34
276.509	0.33
276.724	0.33
276.938	0.36
277.153	0.36
277.367	0.37
277.581	0.26
277.796	0.33
278.01	0.25
278.224	0.38
278.438	0.48
278.653	0.22
278.867	0.25
279.081	0.17
279.295	0.28
279.51	0.26
279.724	0.25
279.938	0.38
280.152	0.38
280.366	0.31
280.58	0.28
280.794	0.39
281.008	0.4
281.222	0.37
281.437	0.44
281.651	0.38
281.865	0.43
282.079	0.28
282.293	0.23
282.507	0.19
282.721	0.27
282.935	0.29
283.148	0.22
283.362	0.29
283.576	0.3
283.79	0.31
284.004	0.26
284.218	0.36
284.432	0.26
284.646	0.31
284.859	0.22
285.073	0.29
285.287	0.29
285.501	0.29
285.714	0.35
285.928	0.3
286.142	0.31
286.356	0.23
286.569	0.24
286.783	0.41
286.997	0.29
287.21	0.26
287.424	0.28
287.637	0.27
287.851	0.25
288.065	0.38
288.278	0.26
288.492	0.27
288.705	0.24
288.919	0.29
289.132	0.16
289.346	0.4
289.559	0.25
289.773	0.22
289.986	0.3
290.2	0.28
290.413	0.33
290.626	0.23
290.84	0.25
291.053	0.26
291.267	0.38
291.48	0.31
291.693	0.27
291.906	0.26
292.12	0.24
292.333	0.22
292.546	0.23
292.76	0.41
292.973	0.28
293.186	0.28
293.399	0.25
293.612	0.3
293.826	0.27
294.039	0.26
294.252	0.23
294.465	0.34
294.678	0.28
294.891	0.23
295.104	0.21
295.317	0.32
295.53	0.27
295.743	0.26
295.956	0.26
296.169	0.37
296.382	0.32
296.595	0.23
296.808	0.2
297.021	0.38
297.234	0.33
297.447	0.24
297.66	0.29
297.873	0.37
298.086	0.35
298.299	0.21
298.511	0.18
298.724	0.26
298.937	0.24
299.15	0.25
299.363	0.2
299.575	0.38
299.788	0.3
300.001	0.23
300.213	0.21
300.426	0.26
300.639	0.21
300.852	0.21
301.064	0.29
301.277	0.34
301.489	0.27
301.702	0.24
301.915	0.25
302.127	0.3
302.34	0.3
302.552	0.32
302.765	0.18
302.977	0.26
303.19	0.25
303.402	0.23
303.615	0.22
303.827	0.24
304.04	0.23
304.252	0.3
304.464	0.25
304.677	0.42
304.889	0.26
305.102	0.23
305.314	0.21
305.526	0.33
305.739	0.28
305.951	0.21
306.163	0.25
306.375	0.33
306.588	0.24
306.8	0.21
307.012	0.2
307.224	0.28
307.436	0.3
307.649	0.16
307.861	0.26
308.073	0.31
308.285	0.23
308.497	0.19
308.709	0.21
308.921	0.25
309.133	0.36
309.346	0.23
309.558	0.22
309.77	0.31
309.982	0.31
310.194	0.27
310.406	0.21
310.617	0.37
310.829	0.27
311.041	0.29
311.253	0.17
311.465	0.23
311.677	0.28
311.889	0.23
312.101	0.2
312.313	0.32
312.524	0.34
312.736	0.18
312.948	0.24
313.16	0.36
313.372	0.32
313.583	0.29
313.795	0.23
314.007	0.24
314.218	0.31
314.43	0.26
314.642	0.21
314.853	0.17
315.065	0.29
315.277	0.24
315.488	0.27
315.7	0.32
315.912	0.29
316.123	0.29
316.335	0.24
316.546	0.37
316.758	0.22
316.969	0.26
317.181	0.28
317.392	0.23
317.604	0.32
317.815	0.22
318.026	0.21
318.238	0.24
318.449	0.29
318.661	0.18
318.872	0.17
319.083	0.18
319.295	0.33
319.506	0.19
319.717	0.26
319.929	0.31
320.14	0.23
320.351	0.24
320.562	0.23
320.774	0.24
320.985	0.29
321.196	0.21
321.407	0.16
321.618	0.29
321.829	0.3
322.041	0.25
322.252	0.23
322.463	0.27
322.674	0.29
322.885	0.18
323.096	0.21
323.307	0.28
323.518	0.24
323.729	0.22
323.94	0.23
324.151	0.23
324.362	0.28
324.573	0.3
324.784	0.24
324.995	0.34
325.206	0.29
325.417	0.23
325.628	0.21
325.838	0.26
326.049	0.3
326.26	0.28
326.471	0.18
326.682	0.32
326.892	0.22
327.103	0.2
327.314	0.17
327.525	0.32
327.735	0.22
327.946	0.22
328.157	0.22
328.368	0.29
328.578	0.24
328.789	0.3
328.999	0.27
329.21	0.25
329.421	0.27
329.631	0.17
329.842	0.17
330.052	0.28
330.263	0.3
330.473	0.29
330.684	0.24
330.894	0.24
331.105	0.3
331.315	0.27
331.526	0.19
331.736	0.35
331.947	0.24
332.157	0.31
332.367	0.19
332.578	0.34
332.788	0.29
332.999	0.25
333.209	0.2
333.419	0.19
333.629	0.32
333.84	0.31
334.05	0.23
334.26	0.39
334.47	0.26
334.681	0.3
334.891	0.25
335.101	0.31
335.311	0.37
335.521	0.25
335.732	0.21
335.942	0.34
336.152	0.27
336.362	0.22
336.572	0.26
336.782	0.26
336.992	0.21
337.202	0.24
337.412	0.23
337.622	0.29
337.832	0.19
338.042	0.21
338.252	0.24
338.462	0.24
338.672	0.26
338.882	0.25
339.092	0.21
339.302	0.33
339.511	0.26
339.721	0.23
339.931	0.2
340.141	0.3
340.351	0.31
340.561	0.27
340.77	0.28
340.98	0.25
341.19	0.26
341.4	0.23
341.609	0.21
341.819	0.27
342.029	0.22
342.238	0.23
342.448	0.2
342.658	0.28
342.867	0.26
343.077	0.28
343.286	0.25
343.496	0.24
343.706	0.33
343.915	0.27
344.125	0.22
344.334	0.3
344.544	0.21
344.753	0.19
344.963	0.23
345.172	0.21
345.381	0.24
345.591	0.16
345.8	0.25
346.01	0.31
346.219	0.32
346.428	0.08
346.638	0.23
346.847	0.26
347.056	0.37
347.266	0.19
347.475	0.22
347.684	0.32
347.893	0.25
348.103	0.25
348.312	0.22
348.521	0.27
348.73	0.23
348.94	0.31
349.149	0.22
349.358	0.28
349.567	0.25
349.776	0.18
349.985	0.22
350.194	0.31
350.403	0.37
350.612	0.16
350.821	0.15
351.03	0.24
351.239	0.23
351.448	0.27
351.657	0.18
351.866	0.33
352.075	0.26
352.284	0.23
352.493	0.19
352.702	0.34
352.911	0.29
353.12	0.24
353.329	0.23
353.538	0.32
353.746	0.27
353.955	0.2
354.164	0.28
354.373	0.26
354.582	0.31
354.79	0.22
354.999	0.28
355.208	0.24
355.416	0.3
355.625	0.22
355.834	0.22
356.042	0.29
356.251	0.22
356.46	0.2
356.668	0.3
356.877	0.35
357.085	0.32
357.294	0.16
357.503	0.29
357.711	0.23
357.92	0.42
358.128	0.25
358.337	0.19
358.545	0.28
358.754	0.23
358.962	0.29
359.17	0.22
359.379	0.31
359.587	0.25
359.796	0.22
360.004	0.32
360.212	0.3
360.421	0.32
360.629	0.18
360.837	0.21
361.046	0.25
361.254	0.36
361.462	0.25
361.67	0.22
361.879	0.28
362.087	0.32
362.295	0.24
362.503	0.21
362.711	0.24
362.92	0.19
363.128	0.22
363.336	0.18
363.544	0.2
363.752	0.24
363.96	0.24
364.168	0.22
364.376	0.26
364.584	0.22
364.792	0.33
365	0.3
365.208	0.25
365.416	0.28
365.624	0.3
365.832	0.22
366.04	0.31
366.248	0.32
366.456	0.27
366.664	0.26
366.872	0.25
367.079	0.28
367.287	0.26
367.495	0.24
367.703	0.26
367.911	0.24
368.118	0.22
368.326	0.25
368.534	0.19
368.742	0.32
368.949	0.15
369.157	0.22
369.365	0.28
369.572	0.26
369.78	0.22
369.988	0.31
370.195	0.28
370.403	0.31
370.61	0.23
370.818	0.24
371.026	0.37
371.233	0.24
371.441	0.25
371.648	0.27
371.856	0.3
372.063	0.25
372.271	0.22
372.478	0.2
372.685	0.24
372.893	0.29
373.1	0.25
373.308	0.26
373.515	0.38
373.722	0.31
373.93	0.18
374.137	0.31
374.344	0.31
374.552	0.31
374.759	0.28
374.966	0.28
375.173	0.26
375.381	0.34
375.588	0.24
375.795	0.17
376.002	0.26
376.209	0.21
376.417	0.25
376.624	0.31
376.831	0.28
377.038	0.26
377.245	0.14
377.452	0.26
377.659	0.25
377.866	0.25
378.073	0.26
378.28	0.29
378.487	0.34
378.694	0.34
378.901	0.26
379.108	0.23
379.315	0.33
379.522	0.35
379.729	0.25
379.936	0.24
380.143	0.29
380.35	0.27
380.557	0.3
380.763	0.28
380.97	0.27
381.177	0.3
381.384	0.25
381.591	0.26
381.797	0.3
382.004	0.34
382.211	0.29
382.418	0.27
382.624	0.35
382.831	0.34
383.038	0.25
383.244	0.27
383.451	0.26
383.658	0.31
383.864	0.23
384.071	0.21
384.277	0.35
384.484	0.26
384.69	0.39
384.897	0.24
385.103	0.26
385.31	0.24
385.516	0.24
385.723	0.24
385.929	0.29
386.136	0.23
386.342	0.32
386.549	0.25
386.755	0.37
386.961	0.31
387.168	0.22
387.374	0.25
387.58	0.36
387.787	0.27
387.993	0.3
388.199	0.25
388.406	0.26
388.612	0.27
388.818	0.27
389.024	0.26
389.231	0.3
389.437	0.41
389.643	0.33
389.849	0.29
390.055	0.29
390.261	0.28
390.467	0.33
390.674	0.22
390.88	0.3
391.086	0.35
391.292	0.19
391.498	0.34
391.704	0.33
391.91	0.22
392.116	0.31
392.322	0.22
392.528	0.35
392.734	0.3
392.94	0.33
393.146	0.27
393.352	0.31
393.557	0.32
393.763	0.27
393.969	0.38
394.175	0.33
394.381	0.34
394.587	0.28
394.792	0.32
394.998	0.37
395.204	0.37
395.41	0.27
395.615	0.32
395.821	0.33
396.027	0.37
396.233	0.32
396.438	0.31
396.644	0.38
396.85	0.38
397.055	0.29
397.261	0.32
397.466	0.42
397.672	0.37
397.878	0.4
398.083	0.38
398.289	0.28
398.494	0.37
398.7	0.34
398.905	0.24
399.111	0.46
399.316	0.29
399.522	0.33
399.727	0.32
399.932	0.32
400.138	0.35
400.343	0.35
400.549	0.33
400.754	0.34
400.959	0.39
401.165	0.37
401.37	0.37
401.575	0.47
401.78	0.37
401.986	0.36
402.191	0.34
402.396	0.37
402.601	0.45
402.807	0.39
403.012	0.39
403.217	0.45
403.422	0.4
403.627	0.41
403.832	0.38
404.037	0.43
404.243	0.41
404.448	0.41
404.653	0.37
404.858	0.43
405.063	0.44
405.268	0.4
405.473	0.43
405.678	0.43
405.883	0.65
406.088	0.5
406.293	0.42
406.498	0.48
406.703	0.52
406.907	0.47
407.112	0.45
407.317	0.51
407.522	0.58
407.727	0.47
407.932	0.48
408.136	0.64
408.341	0.51
408.546	0.61
408.751	0.57
408.956	0.6
409.16	0.6
409.365	0.59
409.57	0.64
409.774	0.6
409.979	0.7
410.184	0.68
410.388	0.61
410.593	0.79
410.798	0.77
411.002	0.68
411.207	0.81
411.411	0.72
411.616	0.72
411.82	0.79
412.025	0.83
412.229	0.85
412.434	0.97
412.638	0.92
412.843	0.88
413.047	0.97
413.252	0.94
413.456	0.9
413.66	1.04
413.865	1
414.069	1.12
414.273	1.09
414.478	1.08
414.682	1.14
414.886	1.21
415.091	1.17
415.295	1.16
415.499	1.36
415.703	1.32
415.908	1.35
416.112	1.29
416.316	1.57
416.52	1.49
416.724	1.52
416.929	1.56
417.133	1.79
417.337	1.64
417.541	1.68
417.745	1.75
417.949	1.85
418.153	1.93
418.357	1.94
418.561	2.23
418.765	2.14
418.969	2.23
419.173	2.31
419.377	2.28
419.581	2.59
419.785	2.55
419.989	2.51
420.193	2.65
420.397	2.75
420.601	2.88
420.804	3.01
421.008	2.98
421.212	3.18
421.416	3.16
421.62	3.15
421.823	3.18
422.027	3.34
422.231	3.36
422.435	3.38
422.638	3.46
422.842	3.47
423.046	3.63
423.249	3.82
423.453	3.77
423.657	3.96
423.86	3.94
424.064	4.11
424.268	4.27
424.471	4.23
424.675	4.5
424.878	4.61
425.082	4.74
425.285	4.9
425.489	4.93
425.692	5.03
425.896	5.03
426.099	5.19
426.303	5.35
426.506	5.5
426.71	5.76
426.913	5.98
427.116	6.07
427.32	6.05
427.523	6.14
427.726	6.43
427.93	6.57
428.133	6.83
428.336	6.98
428.54	7.1
428.743	7.39
428.946	7.64
429.149	7.54
429.353	7.63
429.556	7.67
429.759	7.82
429.962	7.88
430.165	8.11
430.368	7.71
430.571	7.88
430.775	7.86
430.978	7.78
431.181	7.86
431.384	7.97
431.587	8
431.79	8.43
431.993	8.48
432.196	8.69
432.399	9.04
432.602	9.23
432.805	9.24
433.008	9.76
433.211	9.72
433.414	10.03
433.616	10.13
433.819	10
434.022	10.22
434.225	10.44
434.428	10.55
434.631	10.81
434.833	10.6
435.036	10.92
435.239	11.07
435.442	11.12
435.645	11.29
435.847	11.3
436.05	11.64
436.253	11.87
436.455	11.86
436.658	11.72
436.861	11.98
437.063	12.17
437.266	12.1
437.468	12.55
437.671	12.8
437.874	12.88
438.076	12.67
438.279	13.16
438.481	13.14
438.684	14.01
438.886	13.55
439.089	13.84
439.291	14
439.494	14.26
439.696	14.41
439.899	15.02
440.101	15.34
440.303	15.39
440.506	16.05
440.708	15.84
440.91	16.14
441.113	16.41
441.315	16.6
441.517	16.43
441.72	16.78
441.922	16.37
442.124	16.45
442.326	16.78
442.529	17.07
442.731	16.99
442.933	17.43
443.135	17
443.337	17.14
443.539	17.69
443.742	17.37
443.944	17.88
444.146	17.77
444.348	17.77
444.55	17.59
444.752	17.85
444.954	17.88
445.156	17.77
445.358	18.18
445.56	18.36
445.762	18.34
445.964	18.52
446.166	18.28
446.368	18.39
446.57	18.28
446.772	18.03
446.974	17.83
447.175	18.1
447.377	17.86
447.579	18.21
447.781	17.86
447.983	17.69
448.184	17.22
448.386	17.63
448.588	17.12
448.79	17.13
448.991	17.44
449.193	17.46
449.395	16.91
449.597	16.54
449.798	16.42
450	15.87
450.202	15.81
450.403	15.95
450.605	15.71
450.806	15.48
451.008	15.26
451.21	15.06
451.411	14.56
451.613	13.93
451.814	14.18
452.016	14.03
452.217	13.37
452.419	13.52
452.62	13.08
452.821	12.89
453.023	12.76
453.224	12.35
453.426	12.04
453.627	11.29
453.828	11.35
454.03	11.46
454.231	11.3
454.432	11.19
454.634	10.97
454.835	10.76
455.036	10.65
455.238	10.16
455.439	9.96
455.64	9.74
455.841	9.53
456.042	9.72
456.244	9.35
456.445	9.02
456.646	8.76
456.847	8.66
457.048	8.63
457.249	8.61
457.45	8.45
457.651	7.91
457.852	7.73
458.054	7.31
458.255	7.38
458.456	7.37
458.657	7.36
458.858	6.8
459.058	6.76
459.259	6.96
459.46	6.52
459.661	6.52
459.862	6.61
460.063	6.41
460.264	6.41
460.465	6.12
460.666	6.24
460.866	5.87
461.067	5.57
461.268	5.61
461.469	5.58
461.67	5.46
461.87	5.37
462.071	5.32
462.272	5.22
462.473	5.22
462.673	5.43
462.874	5.16
463.075	5.25
463.275	5.25
463.476	5.24
463.676	5.24
463.877	5.06
464.078	5.09
464.278	5.15
464.479	4.97
464.679	4.87
464.88	4.75
465.08	4.79
465.281	4.62
465.481	4.4
465.682	4.18
465.882	4.27
466.083	4.12
466.283	4.16
466.483	3.96
466.684	3.86
466.884	3.74
467.085	3.78
467.285	3.86
467.485	3.68
467.686	3.64
467.886	3.48
468.086	3.42
468.286	3.42
468.487	3.5
468.687	3.31
468.887	3.29
469.087	3.45
469.287	3.28
469.488	3.12
469.688	3.26
469.888	3.26
470.088	3.22
470.288	3.14
470.488	3.07
470.688	2.95
470.888	2.95
471.088	2.78
471.288	2.79
471.488	2.79
471.688	2.81
471.888	2.76
472.088	2.93
472.288	2.79
472.488	2.65
472.688	2.63
472.888	2.65
473.088	2.67
473.288	2.56
473.488	2.47
473.688	2.69
473.887	2.56
474.087	2.39
474.287	2.5
474.487	2.44
474.687	2.51
474.886	2.39
475.086	2.35
475.286	2.4
475.486	2.31
475.685	2.3
475.885	2.23
476.085	2.36
476.284	2.31
476.484	2.31
476.684	2.23
476.883	2.37
477.083	2.22
477.282	2.18
477.482	2.25
477.681	2.19
477.881	2.06
478.08	2.11
478.28	2.07
478.479	2.18
478.679	2.22
478.878	2.08
479.078	2.08
479.277	2.18
479.477	2.08
479.676	2.03
479.875	2.05
480.075	1.95
480.274	2.08
480.473	2.1
480.673	2.04
480.872	2.15
481.071	2.05
481.271	2.08
481.47	2.02
481.669	2
481.868	2.04
482.067	2.02
482.267	1.94
482.466	1.97
482.665	1.99
482.864	1.95
483.063	1.96
483.262	2
483.461	2.09
483.661	2.08
483.86	2.03
484.059	2.15
484.258	2.02
484.457	2.04
484.656	2.07
484.855	2.1
485.054	1.94
485.253	2.03
485.452	1.99
485.651	2.05
485.849	2.06
486.048	2.06
486.247	2.03
486.446	2.11
486.645	2.05
486.844	2.07
487.043	2.06
487.241	2.16
487.44	2.09
487.639	2.15
487.838	2.14
488.037	2.12
488.235	2.26
488.434	2.19
488.633	2.08
488.831	2.22
489.03	2.29
489.229	2.25
489.427	2.23
489.626	2.29
489.825	2.3
490.023	2.36
490.222	2.28
490.42	2.33
490.619	2.41
490.817	2.37
491.016	2.3
491.214	2.45
491.413	2.39
491.611	2.37
491.81	2.42
492.008	2.49
492.207	2.55
492.405	2.53
492.604	2.52
492.802	2.57
493	2.63
493.199	2.64
493.397	2.64
493.595	2.68
493.794	2.65
493.992	2.79
494.19	2.73
494.388	2.82
494.587	2.76
494.785	2.8
494.983	2.72
495.181	2.85
495.379	2.89
495.578	2.93
495.776	2.94
495.974	2.93
496.172	2.93
496.37	3.04
496.568	3.11
496.766	3.03
496.964	3.19
497.162	3.17
497.36	3.21
497.558	3.28
497.756	3.28
497.954	3.26
498.152	3.35
498.35	3.43
498.548	3.32
498.746	3.43
498.944	3.35
499.142	3.41
499.34	3.54
499.538	3.63
499.736	3.53
499.933	3.61
500.131	3.63
500.329	3.77
500.527	3.74
500.725	3.87
500.922	3.85
501.12	3.87
501.318	3.92
501.516	3.93
501.713	4.01
501.911	3.96
502.109	3.95
502.306	4.06
502.504	4.04
502.701	4.1
502.899	4.17
503.097	4.33
503.294	4.14
503.492	4.29
503.689	4.36
503.887	4.34
504.084	4.45
504.282	4.36
504.479	4.38
504.677	4.55
504.874	4.53
505.072	4.42
505.269	4.67
505.466	4.71
505.664	4.71
505.861	4.63
506.059	4.73
506.256	4.77
506.453	4.83
506.651	4.91
506.848	4.91
507.045	4.96
507.242	4.97
507.44	5
507.637	5.04
507.834	5.04
508.031	5.19
508.229	5.17
508.426	5.05
508.623	5.22
508.82	5.28
509.017	5.2
509.214	5.24
509.411	5.46
509.608	5.34
509.805	5.46
510.003	5.45
510.2	5.5
510.397	5.66
510.594	5.5
510.791	5.59
510.988	5.6
511.184	5.63
511.381	5.45
511.578	5.66
511.775	5.76
511.972	5.71
512.169	5.71
512.366	5.81
512.563	5.91
512.76	5.9
512.956	5.98
513.153	5.92
513.35	5.9
513.547	5.9
513.744	6.03
513.94	6
514.137	6.1
514.334	6.1
514.53	6.13
514.727	6.32
514.924	6.21
515.12	6.19
515.317	6.23
515.514	6.16
515.71	6.13
515.907	6.37
516.103	6.43
516.3	6.34
516.497	6.39
516.693	6.47
516.89	6.44
517.086	6.4
517.283	6.45
517.479	6.38
517.676	6.49
517.872	6.6
518.068	6.61
518.265	6.6
518.461	6.52
518.658	6.65
518.854	6.68
519.05	6.71
519.247	6.8
519.443	6.72
519.639	6.88
519.836	6.71
520.032	6.64
520.228	6.88
520.424	6.8
520.621	6.84
520.817	6.95
521.013	6.87
521.209	7.04
521.405	7.07
521.601	6.98
521.798	6.94
521.994	7
522.19	6.95
522.386	6.99
522.582	7.12
522.778	7.19
522.974	7.06
523.17	7.09
523.366	7.03
523.562	7.14
523.758	7.18
523.954	6.98
524.15	7.19
524.346	7.23
524.542	7.19
524.738	7.14
524.934	7.31
525.129	7.19
525.325	7.22
525.521	7.18
525.717	7.44
525.913	7.24
526.109	7.32
526.304	7.42
526.5	7.37
526.696	7.39
526.892	7.33
527.087	7.59
527.283	7.5
527.479	7.47
527.674	7.3
527.87	7.5
528.066	7.49
528.261	7.49
528.457	7.39
528.653	7.58
528.848	7.55
529.044	7.6
529.239	7.46
529.435	7.49
529.63	7.43
529.826	7.47
530.021	7.53
530.217	7.59
530.412	7.56
530.608	7.53
530.803	7.57
530.999	7.47
531.194	7.59
531.389	7.71
531.585	7.68
531.78	7.8
531.975	7.68
532.171	7.69
532.366	7.72
532.561	7.71
532.757	7.68
532.952	7.87
533.147	7.65
533.342	7.73
533.538	7.64
533.733	7.82
533.928	7.56
534.123	7.71
534.318	7.84
534.513	7.7
534.709	7.87
534.904	7.72
535.099	7.87
535.294	7.88
535.489	7.85
535.684	7.79
535.879	7.77
536.074	7.91
536.269	7.91
536.464	7.92
536.659	7.82
536.854	7.84
537.049	7.92
537.244	7.84
537.439	7.8
537.634	7.88
537.828	7.93
538.023	7.92
538.218	7.9
538.413	7.79
538.608	7.91
538.803	7.9
538.997	7.85
539.192	7.85
539.387	7.85
539.582	7.84
539.776	7.81
539.971	7.93
540.166	7.99
540.36	7.88
540.555	8.01
540.75	7.99
540.944	8
541.139	7.97
541.334	7.88
541.528	8.01
541.723	8.05
541.917	8.02
542.112	7.88
542.306	7.78
542.501	7.85
542.695	7.95
542.89	7.91
543.084	8
543.279	8.02
543.473	8.03
543.668	8.02
543.862	7.85
544.056	7.88
544.251	7.95
544.445	8.13
544.64	8.12
544.834	7.72
545.028	7.66
545.222	8.01
545.417	8.21
545.611	8.09
545.805	8.01
546	7.81
546.194	8.04
546.388	8.06
546.582	7.95
546.776	7.91
546.97	7.99
547.165	7.97
547.359	8.02
547.553	7.93
547.747	7.99
547.941	8.19
548.135	8
548.329	8.04
548.523	8.02
548.717	7.95
548.911	7.99
549.105	7.91
549.299	8.07
549.493	8.07
549.687	7.95
549.881	8.08
550.075	8.06
550.269	7.99
550.463	8.06
550.657	8.07
550.85	8.05
551.044	7.99
551.238	8.08
551.432	8.05
551.626	8.12
551.82	8.08
552.013	7.97
552.207	8.13
552.401	8.2
552.594	8.09
552.788	7.98
552.982	8.01
553.176	7.92
553.369	8.18
553.563	8.06
553.756	8.05
553.95	8.07
554.144	8.07
554.337	8.16
554.531	7.96
554.724	8.12
554.918	8.16
555.111	8.05
555.305	8.07
555.498	8.07
555.692	8.21
555.885	8.13
556.079	8.03
556.272	8.1
556.466	8.05
556.659	8.03
556.852	8.13
557.046	7.99
557.239	7.92
557.432	8.06
557.626	8.18
557.819	8.24
558.012	8.07
558.206	8.17
558.399	8.15
558.592	8.05
558.785	8.02
558.979	8.06
559.172	8.06
559.365	8.05
559.558	8.04
559.751	7.97
559.944	8.11
560.138	8
560.331	8.06
560.524	8.11
560.717	8.07
560.91	8.05
561.103	8.08
561.296	7.94
561.489	8.09
561.682	8.13
561.875	8.14
562.068	8.13
562.261	7.91
562.454	8.24
562.647	8
562.84	8.11
563.032	8.11
563.225	8.02
563.418	7.98
563.611	8.14
563.804	8.12
563.997	7.95
564.19	7.86
564.382	8.15
564.575	8.04
564.768	7.98
564.961	8.07
565.153	8.01
565.346	8
565.539	8.11
565.731	8
565.924	8.13
566.117	8.2
566.309	8.07
566.502	8.03
566.695	7.99
566.887	8.08
567.08	8.02
567.272	8.1
567.465	7.98
567.657	8.1
567.85	7.88
568.042	8.1
568.235	8.08
568.427	7.9
568.62	8.06
568.812	7.97
569.005	8.11
569.197	7.91
569.389	7.99
569.582	8.03
569.774	8.01
569.966	7.96
570.159	7.94
570.351	7.93
570.543	7.99
570.736	8
570.928	7.77
571.12	8.03
571.312	7.89
571.505	7.76
571.697	7.98
571.889	7.96
572.081	7.98
572.273	7.91
572.465	8.01
572.658	7.99
572.85	7.94
573.042	8
573.234	7.88
573.426	7.93
573.618	7.92
573.81	7.93
574.002	7.89
574.194	7.97
574.386	7.88
574.578	7.87
574.77	7.89
574.962	7.9
575.154	7.79
575.346	7.81
575.538	7.81
575.729	7.82
575.921	7.94
576.113	7.93
576.305	7.91
576.497	7.97
576.689	7.75
576.88	7.75
577.072	7.92
577.264	7.83
577.456	7.81
577.647	7.79
577.839	7.97
578.031	7.76
578.223	7.73
578.414	7.71
578.606	7.75
578.798	7.86
578.989	7.81
579.181	7.78
579.372	7.78
579.564	7.83
579.755	7.74
579.947	7.72
580.139	7.78
580.33	7.65
580.522	7.76
580.713	7.68
580.905	7.71
581.096	7.75
581.287	7.65
581.479	7.65
581.67	7.75
581.862	7.65
582.053	7.7
582.244	7.55
582.436	7.73
582.627	7.57
582.818	7.6
583.01	7.56
583.201	7.6
583.392	7.65
583.583	7.58
583.775	7.41
583.966	7.54
584.157	7.61
584.348	7.71
584.54	7.48
584.731	7.57
584.922	7.47
585.113	7.45
585.304	7.53
585.495	7.52
585.686	7.59
585.877	7.56
586.068	7.64
586.259	7.54
586.45	7.5
586.641	7.48
586.832	7.53
587.023	7.49
587.214	7.4
587.405	7.45
587.596	7.36
587.787	7.34
587.978	7.46
588.169	7.4
588.36	7.3
588.551	7.38
588.742	7.34
588.932	7.41
589.123	7.18
589.314	7.37
589.505	7.34
589.696	7.32
589.886	7.35
590.077	7.27
590.268	7.23
590.458	7.18
590.649	7.05
590.84	7.26
591.03	7.22
591.221	7.23
591.412	7.11
591.602	7.29
591.793	7.22
591.984	7.18
592.174	7.18
592.365	7.38
592.555	7.01
592.746	7.03
592.936	7.12
593.127	7.2
593.317	7.21
593.508	7.16
593.698	6.99
593.889	7.07
594.079	7.07
594.269	6.96
594.46	6.96
594.65	7.07
594.84	7.01
595.031	6.81
595.221	6.95
595.411	6.95
595.602	7.01
595.792	6.9
595.982	6.76
596.172	7.01
596.363	6.84
596.553	6.87
596.743	6.9
596.933	6.89
597.123	6.8
597.314	6.69
597.504	6.73
597.694	6.95
597.884	6.8
598.074	6.79
598.264	6.77
598.454	6.71
598.644	6.69
598.834	6.74
599.024	6.6
599.214	6.66
599.404	6.74
599.594	6.73
599.784	6.61
599.974	6.75
600.164	6.58
600.354	6.58
600.544	6.44
600.734	6.61
600.924	6.59
601.114	6.51
601.303	6.51
601.493	6.59
601.683	6.56
601.873	6.55
602.063	6.45
602.252	6.51
602.442	6.35
602.632	6.42
602.821	6.33
603.011	6.35
603.201	6.36
603.39	6.39
603.58	6.27
603.77	6.35
603.959	6.39
604.149	6.28
604.339	6.27
604.528	6.38
604.718	6.36
604.907	6.23
605.097	6.22
605.286	6.25
605.476	6.21
605.665	6.24
605.855	6.14
606.044	6.12
606.234	6.17
606.423	6.12
606.612	6.15
606.802	6.08
606.991	6.16
607.181	6.12
607.37	6.08
607.559	5.88
607.749	6.06
607.938	5.94
608.127	6.02
608.316	6.02
608.506	5.98
608.695	6.04
608.884	5.97
609.073	5.98
609.263	6.04
609.452	5.91
609.641	5.81
609.83	5.8
610.019	5.91
610.208	5.81
610.397	5.76
610.586	5.83
610.775	5.8
610.965	5.74
611.154	5.66
611.343	5.74
611.532	5.68
611.721	5.74
611.91	5.69
612.099	5.69
612.287	5.57
612.476	5.5
612.665	5.7
612.854	5.54
613.043	5.62
613.232	5.57
613.421	5.47
613.61	5.56
613.798	5.55
613.987	5.51
614.176	5.49
614.365	5.51
614.554	5.45
614.742	5.54
614.931	5.31
615.12	5.49
615.309	5.44
615.497	5.32
615.686	5.24
615.875	5.27
616.063	5.3
616.252	5.3
616.44	5.3
616.629	5.27
616.818	5.3
617.006	5.23
617.195	5.15
617.383	5.19
617.572	5.1
617.76	5.14
617.949	5.14
618.137	5.19
618.326	5.18
618.514	5.02
618.703	4.98
618.891	5.09
619.079	5.02
619.268	5.07
619.456	5.03
619.644	5.14
619.833	4.96
620.021	4.97
620.209	4.87
620.398	4.92
620.586	4.83
620.774	4.93
620.962	4.91
621.151	4.96
621.339	4.87
621.527	4.82
621.715	4.79
621.903	4.82
622.092	4.76
622.28	4.93
622.468	4.61
622.656	4.78
622.844	4.76
623.032	4.79
623.22	4.61
623.408	4.82
623.596	4.77
623.784	4.71
623.972	4.58
624.16	4.61
624.348	4.74
624.536	4.69
624.724	4.55
624.912	4.58
625.1	4.63
625.288	4.58
625.476	4.46
625.664	4.56
625.851	4.5
626.039	4.47
626.227	4.38
626.415	4.53
626.603	4.43
626.79	4.38
626.978	4.42
627.166	4.43
627.354	4.38
627.541	4.33
627.729	4.21
627.917	4.43
628.104	4.42
628.292	4.27
628.48	4.3
628.667	4.24
628.855	4.33
629.042	4.31
629.23	4.21
629.418	4.25
629.605	4.18
629.793	4.09
629.98	4.16
630.168	4.1
630.355	4.18
630.543	4.11
630.73	4.07
630.917	4.13
631.105	4.15
631.292	4.09
631.48	4.05
631.667	4.13
631.854	4.06
632.042	3.99
632.229	3.95
632.416	3.99
632.604	3.94
632.791	3.9
632.978	3.97
633.165	3.96
633.353	3.97
633.54	3.95
633.727	3.78
633.914	3.77
634.101	3.73
634.289	3.91
634.476	3.74
634.663	3.74
634.85	3.8
635.037	3.73
635.224	3.63
635.411	3.87
635.598	3.7
635.785	3.66
635.972	3.63
636.159	3.73
636.346	3.65
636.533	3.64
636.72	3.62
636.907	3.63
637.094	3.6
637.281	3.52
637.468	3.55
637.655	3.59
637.842	3.55
638.029	3.5
638.215	3.51
638.402	3.54
638.589	3.43
638.776	3.44
638.963	3.41
639.149	3.53
639.336	3.49
639.523	3.42
639.709	3.38
639.896	3.38
640.083	3.42
640.27	3.44
640.456	3.35
640.643	3.35
640.829	3.21
641.016	3.31
641.203	3.24
641.389	3.31
641.576	3.31
641.762	3.26
641.949	3.22
642.135	3.26
642.322	3.23
642.508	3.12
642.695	3.17
642.881	3.17
643.068	3.12
643.254	3.12
643.441	3.17
643.627	3.17
643.813	3.01
644	3.15
644.186	2.97
644.372	3.07
644.559	3.08
644.745	3.04
644.931	2.95
645.118	3.04
645.304	3.01
645.49	2.92
645.676	2.93
645.862	2.96
646.049	3.05
646.235	2.9
646.421	3.06
646.607	2.98
646.793	2.94
646.979	2.86
647.165	2.89
647.352	2.86
647.538	2.92
647.724	2.81
647.91	2.8
648.096	2.84
648.282	2.84
648.468	2.78
648.654	2.77
648.84	2.85
649.026	2.73
649.212	2.7
649.397	2.66
649.583	2.75
649.769	2.71
649.955	2.69
650.141	2.72
650.327	2.74
650.513	2.64
650.698	2.65
650.884	2.53
651.07	2.66
651.256	2.63
651.442	2.61
651.627	2.51
651.813	2.62
651.999	2.59
652.184	2.57
652.37	2.52
652.556	2.51
652.741	2.6
652.927	2.38
653.113	2.53
653.298	2.52
653.484	2.5
653.669	2.43
653.855	2.47
654.04	2.5
654.226	2.42
654.412	2.42
654.597	2.33
654.782	2.42
654.968	2.49
655.153	2.4
655.339	2.32
655.524	2.3
655.71	2.37
655.895	2.34
656.08	2.3
656.266	2.36
656.451	2.33
656.636	2.24
656.822	2.27
657.007	2.29
657.192	2.25
657.378	2.23
657.563	2.25
657.748	2.28
657.933	2.22
658.118	2.2
658.304	2.17
658.489	2.21
658.674	2.22
658.859	2.12
659.044	2.17
659.229	2.21
659.414	2.1
659.599	2.16
659.785	2.07
659.97	2.06
660.155	2.12
660.34	2.13
660.525	2.09
660.71	2.09
660.895	2.11
661.08	2.07
661.264	1.99
661.449	2.14
661.634	2.05
661.819	2.13
662.004	2.01
662.189	1.98
662.374	1.98
662.559	1.93
662.743	1.91
662.928	1.96
663.113	1.9
663.298	1.83
663.483	1.89
663.667	1.94
663.852	1.86
664.037	2.01
664.221	1.91
664.406	1.99
664.591	1.96
664.775	1.9
664.96	1.83
665.145	1.85
665.329	1.96
665.514	1.85
665.698	1.83
665.883	1.74
666.068	1.89
666.252	1.83
666.437	1.75
666.621	1.82
666.806	1.83
666.99	1.76
667.174	1.71
667.359	1.89
667.543	1.7
667.728	1.75
667.912	1.64
668.096	1.8
668.281	1.72
668.465	1.74
668.649	1.69
668.834	1.71
669.018	1.69
669.202	1.66
669.387	1.69
669.571	1.8
669.755	1.63
669.939	1.62
670.124	1.63
670.308	1.71
670.492	1.68
670.676	1.6
670.86	1.63
671.044	1.6
671.228	1.69
671.413	1.52
671.597	1.56
671.781	1.53
671.965	1.62
672.149	1.54
672.333	1.55
672.517	1.52
672.701	1.6
672.885	1.54
673.069	1.47
673.253	1.63
673.437	1.51
673.621	1.49
673.804	1.53
673.988	1.53
674.172	1.46
674.356	1.41
674.54	1.51
674.724	1.6
674.908	1.46
675.091	1.5
675.275	1.46
675.459	1.51
675.643	1.49
675.826	1.44
676.01	1.42
676.194	1.49
676.377	1.47
676.561	1.46
676.745	1.41
676.928	1.43
677.112	1.53
677.296	1.42
677.479	1.39
677.663	1.38
677.846	1.43
678.03	1.36
678.213	1.32
678.397	1.41
678.58	1.39
678.764	1.33
678.947	1.29
679.131	1.37
679.314	1.36
679.498	1.38
679.681	1.37
679.865	1.37
680.048	1.32
680.231	1.33
680.415	1.26
680.598	1.25
680.781	1.25
680.965	1.25
681.148	1.26
681.331	1.26
681.514	1.33
681.698	1.16
681.881	1.29
682.064	1.22
682.247	1.32
682.43	1.13
682.614	1.23
682.797	1.29
682.98	1.25
683.163	1.15
683.346	1.27
683.529	1.14
683.712	1.24
683.895	1.16
684.078	1.11
684.261	1.13
684.444	1.24
684.627	1.29
684.81	1.14
684.993	1.17
685.176	1.26
685.359	1.13
685.542	1.11
685.725	1.22
685.908	1.15
686.091	1.1
686.274	1.17
686.457	1.19
686.639	1.15
686.822	1.17
687.005	1.13
687.188	1.14
687.371	1.25
687.553	1.13
687.736	1.12
687.919	1.22
688.102	1.15
688.284	1.07
688.467	1.02
688.65	1.15
688.832	1
689.015	1.09
689.197	0.93
689.38	1.15
689.563	1.12
689.745	1.02
689.928	1.01
690.11	1.02
690.293	1.06
690.475	0.97
690.658	1.05
690.84	1.04
691.023	1.05
691.205	0.97
691.388	0.97
691.57	1.08
691.752	1.05
691.935	0.94
692.117	0.97
692.3	1.01
692.482	0.94
692.664	0.94
692.847	0.95
693.029	1.1
693.211	0.99
693.393	0.93
693.576	0.89
693.758	0.95
693.94	0.95
694.122	0.92
694.304	0.94
694.487	0.87
694.669	1
694.851	0.92
695.033	0.88
695.215	0.9
695.397	0.86
695.579	0.89
695.761	0.93
695.943	0.82
696.125	1.01
696.308	0.9
696.49	0.78
696.671	1
696.853	0.89
697.035	1.08
697.217	0.87
697.399	1
697.581	0.83
697.763	0.87
697.945	0.8
698.127	0.87
698.309	0.92
698.491	0.88
698.672	0.94
698.854	0.96
699.036	0.97
699.218	0.84
699.399	0.89
699.581	0.93
699.763	0.89
699.945	0.79
700.126	0.75
700.308	0.88
700.49	0.8
700.671	0.74
700.853	0.79
701.035	0.77
701.216	0.79
701.398	0.74
701.579	0.77
701.761	0.85
701.943	0.73
702.124	0.76
702.306	0.78
702.487	1
702.669	0.81
702.85	0.73
703.031	0.77
703.213	0.93
703.394	0.86
703.576	0.77
703.757	0.94
703.938	0.82
704.12	0.95
704.301	0.79
704.483	0.74
704.664	0.83
704.845	0.85
705.026	0.73
705.208	0.71
705.389	0.85
705.57	0.77
705.751	0.77
705.933	0.74
706.114	0.85
706.295	0.67
706.476	0.66
706.657	0.84
706.838	0.75
707.02	0.81
707.201	0.69
707.382	0.69
707.563	0.72
707.744	0.76
707.925	0.63
708.106	0.69
708.287	0.65
708.468	0.92
708.649	0.73
708.83	0.76
709.011	0.68
709.192	0.77
709.373	0.59
709.554	0.63
709.734	0.77
709.915	0.74
710.096	0.69
710.277	0.55
710.458	0.72
710.639	0.73
710.819	0.53
711	0.67
711.181	0.69
711.362	0.76
711.542	0.65
711.723	0.59
711.904	0.8
712.085	0.71
712.265	0.62
712.446	0.55
712.627	0.67
712.807	0.65
712.988	0.68
713.168	0.58
713.349	0.71
713.53	0.49
713.71	0.55
713.891	0.52
714.071	0.61
714.252	0.57
714.432	0.58
714.613	0.48
714.793	0.61
714.974	0.78
715.154	0.71
715.334	0.65
715.515	0.79
715.695	0.65
715.876	0.61
716.056	0.56
716.236	0.56
716.417	0.56
716.597	0.55
716.777	0.93
716.957	0.64
717.138	0.6
717.318	0.55
717.498	0.49
717.678	0.57
717.859	0.7
718.039	0.45
718.219	0.64
718.399	0.59
718.579	0.47
718.759	0.49
718.939	0.63
719.12	0.61
719.3	0.56
719.48	0.44
719.66	0.45
719.84	0.65
720.02	0.54
720.2	0.48
720.38	0.54
720.56	0.75
720.74	0.4
720.92	0.47
721.1	0.68
721.279	0.66
721.459	0.59
721.639	0.42
721.819	0.54
721.999	0.55
722.179	0.58
722.359	0.47
722.538	0.48
722.718	0.5
722.898	0.55
723.078	0.53
723.257	0.5
723.437	0.59
723.617	0.54
723.797	0.39
723.976	0.56
724.156	0.61
724.336	0.64
724.515	0.74
724.695	0.36
724.874	0.49
725.054	0.56
725.234	0.5
725.413	0.55
725.593	0.55
725.772	0.5
725.952	0.45
726.131	0.52
726.311	0.57
726.49	0.55
726.67	0.43
726.849	0.44
727.028	0.56
727.208	0.47
727.387	0.54
727.567	0.39
727.746	0.55
727.925	0.46
728.105	0.43
728.284	0.44
728.463	0.45
728.643	0.55
728.822	0.38
729.001	0.52
729.18	0.5
729.359	0.56
729.539	0.55
729.718	0.53
729.897	0.6
730.076	0.45
730.255	0.4
730.434	0.51
730.614	0.64
730.793	0.62
730.972	0.54
731.151	0.51
731.33	0.6
731.509	0.42
731.688	0.46
731.867	0.43
732.046	0.32
732.225	0.79
732.404	0.35
732.583	0.36
732.762	0.58
732.941	0.52
733.12	0.54
733.298	0.44
733.477	0.62
733.656	0.43
733.835	0.29
734.014	0.59
734.193	0.45
734.371	0.58
734.55	0.6
734.729	0.43
734.908	0.6
735.086	0.6
735.265	0.64
735.444	0.3
735.623	0.3
735.801	0.4
735.98	0.4
736.159	0.5
736.337	0.51
736.516	0.44
736.694	0.47
736.873	0.46
737.052	0.68
737.23	0.59
737.409	0.61
737.587	0.62
737.766	0.26
737.944	0.44
738.123	0.59
738.301	0.55
738.479	0.58
738.658	0.58
738.836	0.31
739.015	0.42
739.193	0.65
739.371	0.4
739.55	0.39
739.728	0.23
739.906	0.62
740.085	0.77
740.263	0.46
740.441	0.31
740.62	0.83
740.798	0.56
740.976	0.28
741.154	0.32
741.332	0.74
741.511	0.34
741.689	0.43
741.867	0.63
742.045	0.55
742.223	0.43
742.401	0.31
742.579	0.36
742.757	0.52
742.935	0.23
743.114	0.45
743.292	0.49
743.47	0.46
743.648	0.54
743.826	0.51
744.004	0.45
744.181	0.53
744.359	0.44
744.537	0.4
744.715	0.35
744.893	0.47
745.071	0.39
745.249	0.37
745.427	0.4
745.605	0.59
745.782	0.49
745.96	0.46
746.138	0.55
746.316	0.56
746.493	0.46
746.671	0.36
746.849	0.31
747.027	0.6
747.204	0.35
747.382	0.44
747.56	0.29
747.737	0.47
747.915	0.46
748.093	0.43
748.27	0.3
748.448	0.37
748.625	0.32
748.803	0.31
748.98	0.37
749.158	0.45
749.335	0.53
749.513	0.41
749.69	0.52
749.868	0.43
750.045	0.53
750.223	0.37
750.4	0.22
750.578	0.55
750.755	0.32
750.932	0.37
751.11	0.57
751.287	0.32
751.464	0.64
751.642	0.29
751.819	0.42
751.996	0.53
752.173	0.32
752.351	0.33
752.528	0.38
752.705	0.31
752.882	0.34
753.06	0.38
753.237	0.48
753.414	0.61
753.591	0.73
753.768	0.35
753.945	0.31
754.122	0.29
754.299	0.54
754.476	0.36
754.654	0.34
754.831	0.49
755.008	0.4
755.185	0.33
755.362	0.25
755.539	0.49
755.716	0.34
755.892	0.35
756.069	0.4
756.246	0.36
756.423	0.46
756.6	0.49
756.777	0.29
756.954	0.55
757.131	0.41
757.307	0.27
757.484	0.27
757.661	0.39
757.838	0.52
758.015	0.26
758.191	0.34
758.368	0.38
758.545	0.56
758.721	0.44
758.898	0.15
759.075	0.46
759.251	0.48
759.428	0.48
759.605	0.16
759.781	0.31
759.958	0.44
760.134	0.41
760.311	0.26
760.488	0.54
760.664	0.61
760.841	0.26
761.017	0.22
761.194	0.47
761.37	0.58
761.547	0.36
761.723	0.41
761.899	0.62
762.076	0.22
762.252	0.27
762.429	0.32
762.605	0.42
762.781	0.27
762.958	0.51
763.134	0.26
763.31	0.31
763.486	0.64
763.663	0.2
763.839	0.5
764.015	0.14
764.191	0.34
764.368	0.37
764.544	0.14
764.72	0.45
764.896	0.52
765.072	0.23
765.248	0.31
765.425	0.28
765.601	0.37
765.777	0.46
765.953	0.12
766.129	0.3
766.305	0.26
766.481	0.45
766.657	0.37
766.833	0.5
767.009	0.3
767.185	0.22
767.361	0.25
767.537	0.18
767.713	0.59
767.889	0.35
768.065	0.34
768.24	0.52
768.416	0.59
768.592	0.29
768.768	0.41
768.944	0.53
769.12	0.27
769.295	0.46
769.471	0.31
769.647	0.33
769.823	0.51
769.998	0.29
770.174	0.25
770.35	0.83
770.525	0.68
770.701	0.39
770.877	0.35
771.052	0.23
771.228	0.59
771.403	0.36
771.579	0.44
771.755	0.76
771.93	0.42
772.106	0.17
772.281	0.07
772.457	0.3
772.632	0.47
772.808	0.03
772.983	0.29
773.159	0.21
773.334	0.59
773.509	0.36
773.685	0.25
773.86	0.74
774.036	0.68
774.211	0.37
774.386	0.31
774.562	0.13
774.737	0.72
774.912	0.34
775.087	0.56
775.263	0.44
775.438	0.35
775.613	0.31
775.788	0.33
775.964	0.56
776.139	0.98
776.314	0.13
776.489	0.56
776.664	0.5
776.839	0.25
777.014	0.69
777.19	0.63
777.365	0.68
777.54	0.82
777.715	0.22
777.89	0.43
778.065	0.18
778.24	0.31
778.415	0.64
778.59	0.32
778.765	0.35
778.94	0.59
779.115	0.41
779.289	0.19
779.464	0.42
779.639	0.35
779.814	0.19
779.989	0.06
780.164	0.56
780.339	0.59
780.513	0.26
780.688	0.23
780.863	0.37
781.038	0.88
781.212	0.22
781.387	0.46
781.562	0.79
781.737	0.25
781.911	0.57
782.086	0.21
782.261	0.54
782.435	0.7
782.61	0.31
782.784	0.2
782.959	0.83
783.134	0.21
783.308	0.19
783.483	0.5
783.657	1.02
783.832	0.67
784.006	0.12
784.181	0.39
784.355	0.55
784.53	0.25
784.704	0.3
784.878	0.61
785.053	0.94
785.227	0.6
785.402	0.72
785.576	0.23
785.75	0.68
785.925	0.5
786.099	0.41
786.273	0.43
786.448	0.73
786.622	0.79
786.796	0.44
786.97	0.25
787.145	1.15
787.319	0.14
787.493	0.14
787.667	-0.06
787.841	0.32
788.015	0.94
788.19	0.27
788.364	0.17
788.538	0.75
788.712	0.56
788.886	0.34
789.06	0.69
789.234	0.74
789.408	0.19
789.582	0.3
789.756	0.41
789.93	0.31
790.104	0.39
790.278	0.27
790.452	0.11
790.626	0.65
790.8	0.2
790.973	0.94
791.147	0.44
791.321	0.72
791.495	0.79
791.669	0.55
791.843	0.77
792.016	0.46
792.19	1.03
792.364	0.14
792.538	1.07
792.711	0.92
792.885	0.42
793.059	0.25
793.233	0.14
793.406	0.88
793.58	0.61
793.754	0.57
793.927	0.34
794.101	0.72
794.274	0.52
794.448	0.75
794.622	0.22
794.795	1.23
794.969	0.31
795.142	0.78
795.316	0.39
795.489	0.32
795.663	0.91
795.836	0.68
796.009	0.12
796.183	0.87
796.356	0.73
796.53	0.5
796.703	0.31
796.876	0.85
797.05	0.3
797.223	0.36
797.396	0.58
797.57	0.7
797.743	0.74
797.916	0.46
798.09	0.48
798.263	0.78
798.436	0.74
798.609	0.24
798.782	0.42
798.956	0.73
799.129	0.64
799.302	0.28
799.475	0.07
799.648	0.24
799.821	0.18
799.994	0.3
800.167	-0.02
800.34	0.58
800.514	0.62
800.687	0.61
800.86	0.41
801.033	0.53
801.206	0.91
801.379	0.31
801.551	0.63
801.724	0.92
801.897	1.1
802.07	0.38
802.243	0.04
802.416	0.61
802.589	0.61
802.762	0.73
802.935	0.54
803.107	0.84
803.28	1.17
803.453	0.86
803.626	0.32
803.798	0.81
803.971	0.58
804.144	0.55
804.317	0.68
804.489	0.84
804.662	0.58
804.835	0.44
805.007	0.44
805.18	1.04
805.353	0.78
805.525	0.17
805.698	0.32
805.87	1.24
806.043	0.78
806.215	-0.02
806.388	0.14
806.56	0.79
806.733	0.77
806.905	0.63
807.078	0.59
807.25	0.29
807.423	1.1
807.595	0.23
807.768	0.26
807.94	0.6
808.112	1.03
808.285	0.57
808.457	0.24
808.629	0.75
808.802	0.91
808.974	0.75
809.146	0.2
809.318	0.34
809.491	0.64
809.663	0.8
809.835	0.31
810.007	0.95
810.18	0.6
810.352	0.09
810.524	0.41
810.696	0.93
810.868	1.1
811.04	0.6
811.212	0.48
811.384	0.75
811.556	0.48
811.728	0.57
811.901	1.42
812.073	0.67
812.245	0.87
812.417	0.68
812.589	-0.11
812.76	1.24
812.932	0.86
813.104	0.78
813.276	0.44
813.448	0.71
813.62	0.75
813.792	0.58
813.964	0.27
814.136	0.53
814.307	0.46
814.479	0.4
814.651	0.65
814.823	1.34
814.995	0.46
815.166	0.75
815.338	0.24
815.51	0.31
815.681	1.76
815.853	0.94
816.025	0.92
816.196	1.14
816.368	1.14
816.54	0.21
816.711	0.26
816.883	1.02
817.054	1.81
817.226	0.28
817.398	0.75
817.569	0.6
817.741	0.81
817.912	0.29
818.084	0.52
818.255	0.92
818.426	0.24
818.598	0.64
818.769	0.2
818.941	1.2
819.112	1.68
819.283	0.72
819.455	0.36
819.626	0.64
819.798	1.19
819.969	1.02
820.14	0.5
820.311	0.54
820.483	1.13
820.654	0.89
820.825	0.94
820.996	0.67
821.168	0.28
821.339	0.55
821.51	0.39
821.681	0.57
821.852	0.59
822.023	0.11
822.195	-0.2
822.366	1.52
822.537	1.09
822.708	0.81
822.879	0.68
823.05	1.59
823.221	0.6
823.392	0.83
823.563	0.71
823.734	0.95
823.905	0.57
824.076	0.3
824.247	0.09
824.418	0.68
824.589	1.52
824.759	1.29
824.93	0.81
825.101	0.49
825.272	2.06
825.443	1.55
825.614	1.41
825.784	0.67
825.955	2.3
826.126	1.51
826.297	1.03
826.467	1.51
826.638	1.95
826.809	0.19
826.98	1.1
827.15	0.89
827.321	0.72
827.492	1.77
827.662	0.82
827.833	2.13
828.003	1.63
828.174	0.31
828.345	-0.42
828.515	1.89
828.686	0.86
828.856	0.58
829.027	0.62
829.197	1.69
829.368	1.68
829.538	0.29
829.709	0.62
829.879	1.36
830.049	0.78
830.22	0.39
830.39	0.5
830.56	1.48
830.731	0.81
830.901	-0.04
831.072	0.52
831.242	0.85
831.412	0.91
831.582	1.08
831.753	-0.18
831.923	2.18
832.093	1.39
832.263	1.37
832.434	0.31
832.604	1.2
832.774	1.44
832.944	0.25
833.114	0.44
833.284	1.27
833.454	0.6
833.624	-0.38
833.795	0.23
833.965	2.61
834.135	2.09
834.305	-0.49
834.475	-0.2
834.645	1.09
834.815	0.69
834.985	0.16
835.155	0.27
835.325	1.49
835.494	1.5
835.664	0.9
835.834	-0.02
836.004	0.9
836.174	1.61
836.344	0.51
836.514	-0.44
836.684	1.02
836.853	1.38
837.023	1.01
837.193	0.44
837.363	2.33
837.532	1.74
837.702	0.58
837.872	0.65
838.041	2.06
838.211	3.11
838.381	-0.04
838.55	1.18
838.72	3.59
838.89	3
839.059	0.16
839.229	0.37
839.398	2.89
839.568	1.52
839.738	0.65
839.907	2.14
840.077	1.5
840.246	0.64
840.416	-0.04
840.585	0.19
840.755	2.54
840.924	2.6
841.093	0.63
841.263	0.38
841.432	1.02
841.602	0.28
841.771	1.26
841.94	1.3
842.11	3.79
842.279	2.7
842.448	0.31
842.617	-0.33
842.787	2.48
842.956	0.65
843.125	0.73
843.294	0.36
843.464	2.49
843.633	1.71
843.802	0.03
843.971	0.36
844.14	2.58
844.309	1.97
844.479	-0.31
844.648	0.01
844.817	0.36
844.986	0.93
845.155	0.13
845.324	0.39
845.493	0.66
845.662	0.59
845.831	2.3
846	1.54
846.169	0.96
846.338	2.16
846.507	1.72
846.676	1.93
846.844	0.37
847.013	1.7
847.182	1.51
847.351	0.28
847.52	0.79
847.689	1.51
847.858	0.8
848.026	0.73
848.195	2.35
848.364	0.6
848.533	0.21
848.701	0.41
848.87	2.32
849.039	2.66
849.207	2.18
849.376	3.73
849.545	3.39
849.713	0.7
849.882	1.14
850.051	0.7
850.219	1.7
850.388	2.98
850.556	-0.07
850.725	0.54
850.893	2.18
851.062	1.03
851.23	2.83
851.399	0.2
851.567	0.37
851.736	1.97
851.904	0.7
852.073	1.68
852.241	2.7
852.41	1.83
852.578	1.35
852.746	0.89
852.915	1.6
853.083	2.4
853.251	-0.09
853.42	1.73
853.588	1.57
853.756	2.66
853.924	0.94
854.093	1.49
854.261	2.09
854.429	-0.99
854.597	2.1
854.765	0.59
854.934	2.22
855.102	3.64
855.27	0.75
855.438	2.19
855.606	4.39
855.774	4.56
855.942	-0.83
856.11	-0.53
856.278	1.9
856.446	2.42
856.614	1.53
856.782	0.17
856.95	3.14
857.118	2.9
857.286	2.06
857.454	-0.34
857.622	1.77
857.79	3.09
857.958	0.44
858.126	0.56
858.294	-0.97
858.462	0.48
858.629	0.46
858.797	-0.55
858.965	1.93
859.133	1.83
859.301	0.5
859.468	2.21
859.636	3.38
859.804	4.57
859.971	2.83
860.139	1.03
860.307	3.37
860.474	2.07
860.642	0.09
860.81	-0.29
860.977	2.11
861.145	2.73
861.313	0.82
861.48	1.34
861.648	2.41
861.815	1.75
861.983	-0.3
862.15	1.9
862.318	2.72
862.485	3.32
862.653	0.79
862.82	-0.66
862.988	4.19
863.155	0.54
863.322	0.88
863.49	0.69
863.657	0.32
863.824	3.72
863.992	2.48
864.159	1.97
864.326	3.41
864.494	1.42
864.661	3.64
864.828	1.25
864.996	4.12
865.163	4.04
865.33	-0.05
865.497	-0.99
865.664	1.73
865.832	-0.76
865.999	1.76
866.166	-0.14
866.333	0.74
866.5	2.06
866.667	0.27
866.834	2.39
867.001	3.72
867.168	0.25
867.335	2.12
867.502	-0.61
867.669	1.43
867.836	4.58
868.003	1.45
868.17	3.4
868.337	4.8
868.504	4.58
868.671	-0.82
868.838	1.84
869.005	2.64
869.172	2.61
869.339	1.88
869.505	1.59
869.672	2.75
869.839	3.74
870.006	2.45
870.173	0.48
870.339	5.47
870.506	5.3
870.673	0.18
870.84	1.9
871.006	3.31
871.173	2.81
871.34	1.72
871.506	0.83
871.673	3.29
871.839	1.04
872.006	1.7
872.173	2.18
872.339	2.42
872.506	3.01
872.672	1.96
872.839	-1.4
873.005	3.27
873.172	6.3
873.338	2.73
873.505	2.07
873.671	3.55
873.838	4.08
874.004	-1.55
874.171	-1.48
874.337	2.96
874.503	3.88
874.67	1.15
874.836	2.01
875.002	6.23
875.169	4.81
875.335	1.67
875.501	1.12
875.668	4.36
875.834	1.94
876	0.44
876.166	2.57
876.332	2.78
876.499	7.55
876.665	2.3
876.831	1.2
876.997	5.01
877.163	2.88
877.329	0.78
877.495	3.31
877.662	3.97
877.828	2.91
877.994	1.61
878.16	-3.02
878.326	0.23
878.492	2.25
878.658	2.2
878.824	3.15
878.99	4.59
879.156	-0.55
879.322	4.61
879.487	2.05
879.653	3.38
879.819	3.5
879.985	1.13
880.151	2.42
880.317	3.9
880.483	3
880.648	2.55
880.814	-1.13
880.98	2.3
881.146	-0.59
881.312	0.03
881.477	2.51
881.643	1.44
881.809	3.76
881.974	2.66
882.14	-1.21
882.306	4.85
882.471	6.19
882.637	1.37
882.803	3.22
882.968	4.61
883.134	6.56
883.299	0.85
883.465	2.44
883.63	3.97
883.796	4.26
883.961	3.02
884.127	1.93
884.292	-3.22
884.458	-0.02
884.623	-0.02
