Data from Apollo_Calib_20240827__AbsoluteIrradiance__48__23-57-00-164.txt Node

Date: Tue Aug 27 23:57:00 BST 2024
User: biology
Spectrometer: FLMT08252
Trigger mode: 0
Integration Time (sec): 5.000000E-1
Scans to average: 5
Electric dark correction enabled: true
Nonlinearity correction enabled: false
Boxcar width: 0
XAxis mode: Wavelengths
Number of Pixels in Spectrum: 3648
>>>>>Begin Spectral Data<<<<<
179.588	-0
179.809	-0
180.03	-0
180.251	-0
180.473	-0
180.694	0
180.915	0
181.136	-0
181.357	0
181.578	-0
181.799	-0
182.02	-0
182.241	0
182.462	-0
182.683	0
182.904	-0
183.125	0
183.346	0
183.567	0
183.788	0
184.009	0
184.23	0
184.451	0
184.672	0
184.892	0
185.113	0
185.334	0
185.555	0
185.776	0
185.996	0
186.217	0
186.438	0
186.659	0
186.879	0
187.1	0
187.321	0
187.541	0
187.762	0
187.983	0
188.203	0
188.424	0
188.644	0
188.865	0
189.086	0
189.306	0
189.527	0
189.747	0
189.968	0
190.188	0
190.409	0
190.629	0
190.849	0
191.07	0
191.29	0
191.511	0
191.731	0
191.951	0
192.172	0
192.392	0
192.612	0
192.833	0
193.053	0
193.273	0
193.493	0
193.714	0
193.934	0
194.154	0
194.374	0
194.594	0
194.815	0
195.035	0
195.255	0
195.475	0
195.695	0
195.915	0
196.135	0
196.355	0
196.575	0
196.795	0
197.015	0
197.235	0
197.455	0
197.675	0
197.895	0
198.115	0
198.335	0
198.555	0
198.775	0
198.995	0
199.214	0
199.434	0
199.654	0
199.874	0
200.094	4.24
200.313	2.43
200.533	2.27
200.753	2.2
200.973	3.63
201.192	3.17
201.412	1.47
201.632	2.37
201.851	3.57
202.071	1.92
202.291	2.13
202.51	1.7
202.73	2.95
202.95	2.05
203.169	1.89
203.389	1.89
203.608	1.82
203.828	1.9
204.047	1.52
204.267	2.32
204.486	1.97
204.706	2.44
204.925	1.8
205.145	1.5
205.364	2.8
205.583	2.52
205.803	1.62
206.022	1.67
206.242	1.77
206.461	1.76
206.68	1.43
206.9	1.56
207.119	2.56
207.338	2.12
207.557	1.53
207.777	1.36
207.996	1.55
208.215	2.15
208.434	1.02
208.654	0.76
208.873	1.35
209.092	2.27
209.311	1.44
209.53	1.26
209.749	1.16
209.968	1.14
210.187	1.1
210.407	0.9
210.626	1.31
210.845	1.87
211.064	1.27
211.283	0.97
211.502	1.75
211.721	1.12
211.94	1.14
212.159	1.33
212.377	1.2
212.596	1.49
212.815	1.15
213.034	1.58
213.253	1.1
213.472	1.51
213.691	0.96
213.91	0.71
214.128	1.05
214.347	1.17
214.566	0.74
214.785	0.75
215.003	1.3
215.222	1.17
215.441	1.18
215.66	0.72
215.878	1.32
216.097	1.29
216.316	0.9
216.534	0.79
216.753	1.02
216.972	0.9
217.19	0.83
217.409	0.64
217.627	0.62
217.846	1.01
218.064	0.88
218.283	0.6
218.501	1.42
218.72	1.12
218.938	0.74
219.157	0.77
219.375	1.19
219.594	1.1
219.812	0.61
220.031	0.75
220.249	1.27
220.467	1.19
220.686	0.78
220.904	0.64
221.122	0.86
221.341	1.13
221.559	0.82
221.777	0.64
221.995	0.73
222.214	0.97
222.432	0.54
222.65	0.99
222.868	0.77
223.086	0.88
223.305	1.1
223.523	0.66
223.741	1.12
223.959	0.49
224.177	0.41
224.395	0.58
224.613	0.8
224.831	0.84
225.049	0.65
225.267	0.56
225.485	0.75
225.703	0.73
225.921	0.67
226.139	0.66
226.357	0.81
226.575	0.85
226.793	0.57
227.011	1.54
227.229	0.72
227.447	0.83
227.665	0.44
227.883	0.44
228.1	0.66
228.318	0.69
228.536	0.36
228.754	0.6
228.972	0.78
229.189	0.88
229.407	0.63
229.625	0.63
229.843	0.83
230.06	0.85
230.278	0.61
230.496	0.68
230.713	0.7
230.931	0.81
231.149	0.45
231.366	0.35
231.584	0.51
231.801	1.05
232.019	0.55
232.236	0.54
232.454	0.43
232.671	0.7
232.889	0.49
233.106	0.53
233.324	0.51
233.541	0.63
233.759	0.59
233.976	0.51
234.194	0.59
234.411	0.45
234.628	0.38
234.846	0.6
235.063	0.57
235.28	0.6
235.498	0.63
235.715	0.45
235.932	0.81
236.149	0.53
236.367	0.49
236.584	0.59
236.801	0.51
237.018	0.69
237.236	0.56
237.453	0.36
237.67	0.72
237.887	0.5
238.104	0.51
238.321	0.42
238.538	0.38
238.755	0.63
238.973	0.38
239.19	0.55
239.407	0.62
239.624	0.6
239.841	0.47
240.058	0.44
240.275	0.65
240.492	0.46
240.709	0.56
240.925	0.39
241.142	0.43
241.359	0.32
241.576	0.33
241.793	0.47
242.01	0.49
242.227	0.65
242.444	0.62
242.66	0.59
242.877	0.57
243.094	0.41
243.311	0.42
243.527	0.39
243.744	0.57
243.961	0.61
244.178	0.43
244.394	0.5
244.611	0.57
244.828	0.72
245.044	0.43
245.261	0.44
245.477	0.53
245.694	0.6
245.911	0.43
246.127	0.42
246.344	0.65
246.56	0.55
246.777	0.45
246.993	0.44
247.21	0.47
247.426	0.53
247.643	0.43
247.859	0.41
248.076	0.42
248.292	0.74
248.508	0.47
248.725	0.48
248.941	0.48
249.157	0.58
249.374	0.37
249.59	0.46
249.806	0.47
250.023	0.48
250.239	0.32
250.455	0.36
250.671	0.45
250.888	0.42
251.104	0.56
251.32	0.37
251.536	0.43
251.752	0.41
251.969	0.45
252.185	0.43
252.401	0.56
252.617	0.49
252.833	0.37
253.049	0.44
253.265	0.41
253.481	0.43
253.697	0.39
253.913	0.4
254.129	0.48
254.345	0.41
254.561	0.34
254.777	0.39
254.993	0.52
255.209	0.47
255.425	0.45
255.641	0.36
255.857	0.5
256.073	0.49
256.288	0.25
256.504	0.35
256.72	0.44
256.936	0.61
257.152	0.4
257.367	0.32
257.583	0.41
257.799	0.5
258.015	0.3
258.23	0.39
258.446	0.54
258.662	0.36
258.877	0.34
259.093	0.33
259.309	0.45
259.524	0.51
259.74	0.3
259.955	0.29
260.171	0.47
260.387	0.38
260.602	0.43
260.818	0.52
261.033	0.41
261.249	0.38
261.464	0.36
261.68	0.31
261.895	0.4
262.11	0.46
262.326	0.37
262.541	0.21
262.757	0.45
262.972	0.48
263.187	0.47
263.403	0.44
263.618	0.34
263.833	0.34
264.049	0.3
264.264	0.33
264.479	0.42
264.694	0.51
264.91	0.33
265.125	0.27
265.34	0.43
265.555	0.58
265.77	0.39
265.986	0.35
266.201	0.48
266.416	0.49
266.631	0.36
266.846	0.38
267.061	0.38
267.276	0.42
267.491	0.26
267.706	0.47
267.921	0.44
268.136	0.4
268.351	0.42
268.566	0.32
268.781	0.55
268.996	0.37
269.211	0.41
269.426	0.3
269.641	0.3
269.856	0.39
270.071	0.23
270.285	0.27
270.5	0.49
270.715	0.44
270.93	0.35
271.145	0.37
271.359	0.41
271.574	0.34
271.789	0.32
272.004	0.36
272.218	0.33
272.433	0.44
272.648	0.25
272.862	0.42
273.077	0.37
273.292	0.34
273.506	0.36
273.721	0.38
273.936	0.4
274.15	0.43
274.365	0.35
274.579	0.45
274.794	0.4
275.008	0.45
275.223	0.25
275.437	0.29
275.652	0.48
275.866	0.44
276.081	0.32
276.295	0.39
276.509	0.37
276.724	0.31
276.938	0.36
277.153	0.37
277.367	0.39
277.581	0.3
277.796	0.29
278.01	0.23
278.224	0.39
278.438	0.48
278.653	0.32
278.867	0.28
279.081	0.21
279.295	0.33
279.51	0.36
279.724	0.25
279.938	0.39
280.152	0.38
280.366	0.31
280.58	0.33
280.794	0.49
281.008	0.35
281.222	0.4
281.437	0.49
281.651	0.36
281.865	0.38
282.079	0.3
282.293	0.24
282.507	0.32
282.721	0.31
282.935	0.33
283.148	0.2
283.362	0.29
283.576	0.3
283.79	0.35
284.004	0.29
284.218	0.34
284.432	0.27
284.646	0.32
284.859	0.28
285.073	0.26
285.287	0.34
285.501	0.33
285.714	0.31
285.928	0.29
286.142	0.34
286.356	0.25
286.569	0.24
286.783	0.37
286.997	0.32
287.21	0.34
287.424	0.34
287.637	0.32
287.851	0.3
288.065	0.34
288.278	0.27
288.492	0.36
288.705	0.33
288.919	0.32
289.132	0.22
289.346	0.31
289.559	0.19
289.773	0.24
289.986	0.32
290.2	0.26
290.413	0.35
290.626	0.29
290.84	0.29
291.053	0.29
291.267	0.34
291.48	0.23
291.693	0.32
291.906	0.29
292.12	0.28
292.333	0.27
292.546	0.26
292.76	0.38
292.973	0.34
293.186	0.3
293.399	0.27
293.612	0.36
293.826	0.27
294.039	0.26
294.252	0.26
294.465	0.34
294.678	0.3
294.891	0.28
295.104	0.26
295.317	0.28
295.53	0.29
295.743	0.28
295.956	0.29
296.169	0.37
296.382	0.31
296.595	0.29
296.808	0.21
297.021	0.34
297.234	0.32
297.447	0.29
297.66	0.3
297.873	0.33
298.086	0.32
298.299	0.24
298.511	0.23
298.724	0.31
298.937	0.27
299.15	0.23
299.363	0.28
299.575	0.24
299.788	0.33
300.001	0.24
300.213	0.24
300.426	0.26
300.639	0.23
300.852	0.22
301.064	0.3
301.277	0.35
301.489	0.29
301.702	0.3
301.915	0.26
302.127	0.3
302.34	0.31
302.552	0.32
302.765	0.22
302.977	0.33
303.19	0.2
303.402	0.25
303.615	0.25
303.827	0.26
304.04	0.25
304.252	0.29
304.464	0.2
304.677	0.38
304.889	0.34
305.102	0.22
305.314	0.23
305.526	0.31
305.739	0.26
305.951	0.27
306.163	0.26
306.375	0.32
306.588	0.2
306.8	0.23
307.012	0.23
307.224	0.28
307.436	0.31
307.649	0.19
307.861	0.27
308.073	0.27
308.285	0.25
308.497	0.21
308.709	0.24
308.921	0.29
309.133	0.29
309.346	0.27
309.558	0.25
309.77	0.32
309.982	0.36
310.194	0.34
310.406	0.25
310.617	0.32
310.829	0.28
311.041	0.27
311.253	0.28
311.465	0.28
311.677	0.23
311.889	0.25
312.101	0.26
312.313	0.34
312.524	0.33
312.736	0.21
312.948	0.24
313.16	0.35
313.372	0.32
313.583	0.25
313.795	0.24
314.007	0.24
314.218	0.35
314.43	0.26
314.642	0.26
314.853	0.16
315.065	0.31
315.277	0.25
315.488	0.26
315.7	0.33
315.912	0.33
316.123	0.25
316.335	0.26
316.546	0.37
316.758	0.24
316.969	0.25
317.181	0.29
317.392	0.27
317.604	0.31
317.815	0.21
318.026	0.26
318.238	0.26
318.449	0.31
318.661	0.2
318.872	0.22
319.083	0.24
319.295	0.34
319.506	0.26
319.717	0.26
319.929	0.3
320.14	0.28
320.351	0.25
320.562	0.26
320.774	0.28
320.985	0.27
321.196	0.21
321.407	0.18
321.618	0.32
321.829	0.34
322.041	0.26
322.252	0.27
322.463	0.3
322.674	0.31
322.885	0.21
323.096	0.2
323.307	0.28
323.518	0.31
323.729	0.24
323.94	0.29
324.151	0.22
324.362	0.28
324.573	0.24
324.784	0.26
324.995	0.3
325.206	0.29
325.417	0.27
325.628	0.25
325.838	0.24
326.049	0.31
326.26	0.27
326.471	0.25
326.682	0.27
326.892	0.29
327.103	0.2
327.314	0.21
327.525	0.32
327.735	0.27
327.946	0.26
328.157	0.24
328.368	0.28
328.578	0.29
328.789	0.32
328.999	0.26
329.21	0.24
329.421	0.29
329.631	0.22
329.842	0.2
330.052	0.29
330.263	0.3
330.473	0.29
330.684	0.25
330.894	0.26
331.105	0.28
331.315	0.25
331.526	0.2
331.736	0.31
331.947	0.27
332.157	0.24
332.367	0.24
332.578	0.36
332.788	0.3
332.999	0.3
333.209	0.27
333.419	0.24
333.629	0.27
333.84	0.27
334.05	0.24
334.26	0.33
334.47	0.37
334.681	0.34
334.891	0.24
335.101	0.33
335.311	0.33
335.521	0.26
335.732	0.25
335.942	0.33
336.152	0.29
336.362	0.29
336.572	0.28
336.782	0.28
336.992	0.25
337.202	0.26
337.412	0.23
337.622	0.29
337.832	0.27
338.042	0.26
338.252	0.25
338.462	0.27
338.672	0.34
338.882	0.32
339.092	0.27
339.302	0.38
339.511	0.25
339.721	0.26
339.931	0.2
340.141	0.32
340.351	0.3
340.561	0.25
340.77	0.31
340.98	0.24
341.19	0.26
341.4	0.23
341.609	0.23
341.819	0.22
342.029	0.17
342.238	0.28
342.448	0.23
342.658	0.28
342.867	0.26
343.077	0.3
343.286	0.28
343.496	0.29
343.706	0.33
343.915	0.21
344.125	0.29
344.334	0.29
344.544	0.2
344.753	0.21
344.963	0.2
345.172	0.2
345.381	0.29
345.591	0.26
345.8	0.25
346.01	0.33
346.219	0.3
346.428	0.15
346.638	0.25
346.847	0.23
347.056	0.33
347.266	0.2
347.475	0.25
347.684	0.34
347.893	0.31
348.103	0.32
348.312	0.26
348.521	0.22
348.73	0.26
348.94	0.23
349.149	0.28
349.358	0.25
349.567	0.2
349.776	0.22
349.985	0.2
350.194	0.31
350.403	0.27
350.612	0.22
350.821	0.22
351.03	0.25
351.239	0.2
351.448	0.27
351.657	0.22
351.866	0.34
352.075	0.23
352.284	0.3
352.493	0.19
352.702	0.34
352.911	0.29
353.12	0.28
353.329	0.26
353.538	0.3
353.746	0.28
353.955	0.21
354.164	0.28
354.373	0.26
354.582	0.28
354.79	0.26
354.999	0.29
355.208	0.25
355.416	0.33
355.625	0.23
355.834	0.23
356.042	0.29
356.251	0.24
356.46	0.2
356.668	0.3
356.877	0.35
357.085	0.32
357.294	0.14
357.503	0.28
357.711	0.29
357.92	0.39
358.128	0.21
358.337	0.24
358.545	0.27
358.754	0.24
358.962	0.25
359.17	0.21
359.379	0.27
359.587	0.28
359.796	0.26
360.004	0.35
360.212	0.26
360.421	0.26
360.629	0.2
360.837	0.21
361.046	0.3
361.254	0.37
361.462	0.27
361.67	0.2
361.879	0.26
362.087	0.3
362.295	0.3
362.503	0.23
362.711	0.17
362.92	0.25
363.128	0.23
363.336	0.19
363.544	0.19
363.752	0.25
363.96	0.24
364.168	0.2
364.376	0.24
364.584	0.26
364.792	0.29
365	0.32
365.208	0.26
365.416	0.25
365.624	0.3
365.832	0.23
366.04	0.35
366.248	0.31
366.456	0.26
366.664	0.27
366.872	0.26
367.079	0.25
367.287	0.29
367.495	0.28
367.703	0.27
367.911	0.24
368.118	0.23
368.326	0.25
368.534	0.23
368.742	0.33
368.949	0.18
369.157	0.2
369.365	0.29
369.572	0.26
369.78	0.23
369.988	0.3
370.195	0.29
370.403	0.27
370.61	0.26
370.818	0.28
371.026	0.31
371.233	0.26
371.441	0.21
371.648	0.25
371.856	0.24
372.063	0.27
372.271	0.23
372.478	0.25
372.685	0.26
372.893	0.33
373.1	0.25
373.308	0.28
373.515	0.35
373.722	0.25
373.93	0.27
374.137	0.31
374.344	0.34
374.552	0.34
374.759	0.3
374.966	0.27
375.173	0.28
375.381	0.32
375.588	0.3
375.795	0.19
376.002	0.25
376.209	0.27
376.417	0.26
376.624	0.29
376.831	0.28
377.038	0.24
377.245	0.18
377.452	0.27
377.659	0.27
377.866	0.24
378.073	0.23
378.28	0.27
378.487	0.28
378.694	0.32
378.901	0.27
379.108	0.26
379.315	0.34
379.522	0.39
379.729	0.32
379.936	0.25
380.143	0.27
380.35	0.29
380.557	0.25
380.763	0.29
380.97	0.26
381.177	0.3
381.384	0.29
381.591	0.22
381.797	0.26
382.004	0.37
382.211	0.31
382.418	0.3
382.624	0.34
382.831	0.33
383.038	0.27
383.244	0.28
383.451	0.27
383.658	0.3
383.864	0.25
384.071	0.24
384.277	0.35
384.484	0.29
384.69	0.36
384.897	0.22
385.103	0.26
385.31	0.26
385.516	0.24
385.723	0.24
385.929	0.3
386.136	0.26
386.342	0.33
386.549	0.27
386.755	0.34
386.961	0.34
387.168	0.27
387.374	0.32
387.58	0.37
387.787	0.29
387.993	0.3
388.199	0.28
388.406	0.25
388.612	0.3
388.818	0.26
389.024	0.23
389.231	0.3
389.437	0.38
389.643	0.37
389.849	0.31
390.055	0.29
390.261	0.31
390.467	0.29
390.674	0.26
390.88	0.31
391.086	0.36
391.292	0.23
391.498	0.33
391.704	0.31
391.91	0.32
392.116	0.31
392.322	0.27
392.528	0.38
392.734	0.3
392.94	0.35
393.146	0.28
393.352	0.34
393.557	0.29
393.763	0.33
393.969	0.33
394.175	0.38
394.381	0.33
394.587	0.26
394.792	0.31
394.998	0.34
395.204	0.35
395.41	0.29
395.615	0.32
395.821	0.33
396.027	0.33
396.233	0.3
396.438	0.3
396.644	0.44
396.85	0.33
397.055	0.3
397.261	0.32
397.466	0.35
397.672	0.37
397.878	0.36
398.083	0.39
398.289	0.36
398.494	0.39
398.7	0.39
398.905	0.24
399.111	0.38
399.316	0.3
399.522	0.41
399.727	0.4
399.932	0.33
400.138	0.33
400.343	0.41
400.549	0.39
400.754	0.37
400.959	0.38
401.165	0.36
401.37	0.39
401.575	0.37
401.78	0.37
401.986	0.35
402.191	0.35
402.396	0.37
402.601	0.45
402.807	0.43
403.012	0.42
403.217	0.46
403.422	0.4
403.627	0.41
403.832	0.4
404.037	0.43
404.243	0.41
404.448	0.4
404.653	0.45
404.858	0.48
405.063	0.49
405.268	0.39
405.473	0.39
405.678	0.43
405.883	0.59
406.088	0.5
406.293	0.45
406.498	0.46
406.703	0.54
406.907	0.49
407.112	0.4
407.317	0.54
407.522	0.57
407.727	0.47
407.932	0.57
408.136	0.65
408.341	0.57
408.546	0.59
408.751	0.58
408.956	0.61
409.16	0.68
409.365	0.58
409.57	0.66
409.774	0.62
409.979	0.71
410.184	0.69
410.388	0.64
410.593	0.71
410.798	0.69
411.002	0.76
411.207	0.84
411.411	0.83
411.616	0.73
411.82	0.84
412.025	0.89
412.229	0.86
412.434	0.98
412.638	0.92
412.843	0.9
413.047	1
413.252	0.95
413.456	1.04
413.66	1.11
413.865	1.04
414.069	1.17
414.273	1.18
414.478	1.15
414.682	1.26
414.886	1.28
415.091	1.24
415.295	1.28
415.499	1.44
415.703	1.44
415.908	1.52
416.112	1.37
416.316	1.61
416.52	1.59
416.724	1.6
416.929	1.62
417.133	1.9
417.337	1.72
417.541	1.8
417.745	1.89
417.949	2.04
418.153	2.1
418.357	2.04
418.561	2.29
418.765	2.26
418.969	2.34
419.173	2.43
419.377	2.41
419.581	2.64
419.785	2.68
419.989	2.71
420.193	2.85
420.397	2.91
420.601	3.03
420.804	3.15
421.008	3.19
421.212	3.34
421.416	3.32
421.62	3.33
421.823	3.4
422.027	3.6
422.231	3.51
422.435	3.55
422.638	3.62
422.842	3.74
423.046	3.78
423.249	4
423.453	4.05
423.657	4.17
423.86	4.26
424.064	4.34
424.268	4.52
424.471	4.55
424.675	4.8
424.878	4.81
425.082	4.95
425.285	5.3
425.489	5.14
425.692	5.35
425.896	5.26
426.099	5.49
426.303	5.75
426.506	5.83
426.71	6.08
426.913	6.3
427.116	6.41
427.32	6.4
427.523	6.48
427.726	6.84
427.93	6.91
428.133	7.14
428.336	7.46
428.54	7.5
428.743	7.74
428.946	7.95
429.149	7.96
429.353	7.99
429.556	8.13
429.759	8.22
429.962	8.29
430.165	8.48
430.368	8.14
430.571	8.04
430.775	8.18
430.978	8.08
431.181	8.19
431.384	8.39
431.587	8.35
431.79	8.88
431.993	8.77
432.196	9.02
432.399	9.37
432.602	9.49
432.805	9.7
433.008	10.15
433.211	10.11
433.414	10.37
433.616	10.43
433.819	10.35
434.022	10.44
434.225	10.73
434.428	10.7
434.631	11.19
434.833	10.89
435.036	11.24
435.239	11.26
435.442	11.4
435.645	11.55
435.847	11.61
436.05	11.97
436.253	12.29
436.455	12.31
436.658	12.08
436.861	12.38
437.063	12.59
437.266	12.53
437.468	12.85
437.671	13.19
437.874	13.24
438.076	13.09
438.279	13.55
438.481	13.54
438.684	14.29
438.886	13.97
439.089	14.22
439.291	14.19
439.494	14.67
439.696	14.73
439.899	15.33
440.101	15.77
440.303	16.01
440.506	16.75
440.708	16.37
440.91	16.73
441.113	16.84
441.315	17.02
441.517	16.9
441.72	17.39
441.922	17.1
442.124	17.04
442.326	17.36
442.529	17.51
442.731	17.5
442.933	17.86
443.135	17.57
443.337	17.52
443.539	18.13
443.742	17.74
443.944	18.61
444.146	18.11
444.348	18.24
444.55	18.11
444.752	18.26
444.954	18.29
445.156	18.08
445.358	18.61
445.56	18.77
445.762	18.64
445.964	18.9
446.166	18.73
446.368	18.73
446.57	18.79
446.772	18.23
446.974	18.12
447.175	18.37
447.377	18.03
447.579	18.47
447.781	18.23
447.983	17.87
448.184	17.46
448.386	17.93
448.588	17.36
448.79	17.33
448.991	17.61
449.193	17.54
449.395	16.88
449.597	16.61
449.798	16.52
450	15.85
450.202	15.78
450.403	15.7
450.605	15.79
450.806	15.4
451.008	15.27
451.21	15.04
451.411	14.61
451.613	13.86
451.814	14.04
452.016	13.97
452.217	13.28
452.419	13.23
452.62	12.96
452.821	12.84
453.023	12.55
453.224	12.28
453.426	11.9
453.627	11.19
453.828	11.07
454.03	11.41
454.231	11.22
454.432	11.08
454.634	10.75
454.835	10.42
455.036	10.48
455.238	9.91
455.439	9.76
455.64	9.51
455.841	9.39
456.042	9.49
456.244	9.27
456.445	9.03
456.646	8.58
456.847	8.52
457.048	8.51
457.249	8.59
457.45	8.18
457.651	7.69
457.852	7.64
458.054	7.25
458.255	7.18
458.456	7.25
458.657	7.16
458.858	6.7
459.058	6.68
459.259	6.67
459.46	6.42
459.661	6.39
459.862	6.45
460.063	6.3
460.264	6.2
460.465	6.05
460.666	6.07
460.866	5.7
461.067	5.54
461.268	5.61
461.469	5.52
461.67	5.4
461.87	5.24
462.071	5.24
462.272	5.09
462.473	5.08
462.673	5.27
462.874	5.14
463.075	5.18
463.275	5.07
463.476	5.17
463.676	5.15
463.877	5.01
464.078	4.96
464.278	5
464.479	4.91
464.679	4.76
464.88	4.73
465.08	4.65
465.281	4.52
465.481	4.26
465.682	4.17
465.882	4.17
466.083	4.02
466.283	3.96
466.483	3.87
466.684	3.72
466.884	3.64
467.085	3.71
467.285	3.72
467.485	3.58
467.686	3.51
467.886	3.42
468.086	3.35
468.286	3.39
468.487	3.42
468.687	3.23
468.887	3.15
469.087	3.27
469.287	3.19
469.488	3.01
469.688	3.2
469.888	3.17
470.088	3.11
470.288	3.12
470.488	3.01
470.688	2.85
470.888	2.81
471.088	2.65
471.288	2.83
471.488	2.78
471.688	2.73
471.888	2.7
472.088	2.84
472.288	2.72
472.488	2.59
472.688	2.57
472.888	2.62
473.088	2.58
473.288	2.44
473.488	2.41
473.688	2.57
473.887	2.46
474.087	2.42
474.287	2.45
474.487	2.35
474.687	2.41
474.886	2.35
475.086	2.28
475.286	2.33
475.486	2.28
475.685	2.24
475.885	2.19
476.085	2.25
476.284	2.26
476.484	2.24
476.684	2.19
476.883	2.28
477.083	2.15
477.282	2.09
477.482	2.21
477.681	2.16
477.881	2.05
478.08	2.13
478.28	2.04
478.479	2.11
478.679	2.13
478.878	2.03
479.078	2.07
479.277	2.08
479.477	2.04
479.676	2
479.875	2.03
480.075	1.94
480.274	2.02
480.473	2.06
480.673	2.03
480.872	2.1
481.071	2.05
481.271	2.07
481.47	2.01
481.669	2.01
481.868	1.91
482.067	1.95
482.267	1.91
482.466	1.95
482.665	1.92
482.864	2
483.063	1.95
483.262	2.02
483.461	2
483.661	2.03
483.86	2
484.059	2.06
484.258	2.04
484.457	1.99
484.656	1.99
484.855	2.08
485.054	1.94
485.253	1.96
485.452	2
485.651	2.03
485.849	2.01
486.048	2.04
486.247	2.01
486.446	2.05
486.645	2.04
486.844	2.03
487.043	2.04
487.241	2.12
487.44	2.08
487.639	2.12
487.838	2.08
488.037	2.11
488.235	2.17
488.434	2.16
488.633	2.05
488.831	2.25
489.03	2.23
489.229	2.23
489.427	2.22
489.626	2.26
489.825	2.28
490.023	2.33
490.222	2.27
490.42	2.31
490.619	2.36
490.817	2.33
491.016	2.35
491.214	2.41
491.413	2.44
491.611	2.35
491.81	2.38
492.008	2.49
492.207	2.52
492.405	2.52
492.604	2.47
492.802	2.56
493	2.6
493.199	2.61
493.397	2.64
493.595	2.7
493.794	2.67
493.992	2.79
494.19	2.73
494.388	2.81
494.587	2.73
494.785	2.79
494.983	2.74
495.181	2.82
495.379	2.92
495.578	2.95
495.776	2.96
495.974	2.93
496.172	2.96
496.37	3.1
496.568	3.09
496.766	3.07
496.964	3.22
497.162	3.18
497.36	3.24
497.558	3.26
497.756	3.3
497.954	3.27
498.152	3.39
498.35	3.42
498.548	3.34
498.746	3.38
498.944	3.41
499.142	3.46
499.34	3.54
499.538	3.59
499.736	3.53
499.933	3.63
500.131	3.61
500.329	3.78
500.527	3.75
500.725	3.86
500.922	3.88
501.12	3.9
501.318	3.96
501.516	3.9
501.713	4.03
501.911	3.97
502.109	3.94
502.306	4.1
502.504	4.01
502.701	4.11
502.899	4.17
503.097	4.36
503.294	4.27
503.492	4.38
503.689	4.38
503.887	4.34
504.084	4.49
504.282	4.43
504.479	4.4
504.677	4.59
504.874	4.52
505.072	4.48
505.269	4.66
505.466	4.69
505.664	4.73
505.861	4.67
506.059	4.79
506.256	4.76
506.453	4.88
506.651	4.96
506.848	4.94
507.045	4.96
507.242	4.94
507.44	5.02
507.637	5.09
507.834	5.08
508.031	5.19
508.229	5.12
508.426	5.15
508.623	5.28
508.82	5.34
509.017	5.25
509.214	5.23
509.411	5.39
509.608	5.31
509.805	5.48
510.003	5.48
510.2	5.48
510.397	5.67
510.594	5.54
510.791	5.61
510.988	5.68
511.184	5.68
511.381	5.53
511.578	5.73
511.775	5.8
511.972	5.72
512.169	5.82
512.366	5.82
512.563	5.96
512.76	5.99
512.956	5.99
513.153	5.95
513.35	5.97
513.547	5.92
513.744	6.06
513.94	6.06
514.137	6.13
514.334	6.16
514.53	6.19
514.727	6.35
514.924	6.22
515.12	6.25
515.317	6.3
515.514	6.19
515.71	6.16
515.907	6.42
516.103	6.42
516.3	6.34
516.497	6.46
516.693	6.53
516.89	6.5
517.086	6.55
517.283	6.6
517.479	6.4
517.676	6.64
517.872	6.65
518.068	6.61
518.265	6.59
518.461	6.59
518.658	6.66
518.854	6.71
519.05	6.78
519.247	6.82
519.443	6.78
519.639	6.93
519.836	6.77
520.032	6.81
520.228	6.92
520.424	6.88
520.621	6.95
520.817	6.99
521.013	6.89
521.209	7.1
521.405	7.12
521.601	7.05
521.798	7.02
521.994	7.01
522.19	7
522.386	7.02
522.582	7.13
522.778	7.27
522.974	7.08
523.17	7.14
523.366	7.08
523.562	7.2
523.758	7.19
523.954	7.06
524.15	7.24
524.346	7.25
524.542	7.3
524.738	7.24
524.934	7.34
525.129	7.37
525.325	7.26
525.521	7.22
525.717	7.46
525.913	7.29
526.109	7.27
526.304	7.5
526.5	7.42
526.696	7.45
526.892	7.4
527.087	7.59
527.283	7.56
527.479	7.49
527.674	7.39
527.87	7.45
528.066	7.46
528.261	7.53
528.457	7.48
528.653	7.63
528.848	7.63
529.044	7.65
529.239	7.56
529.435	7.5
529.63	7.49
529.826	7.6
530.021	7.56
530.217	7.62
530.412	7.59
530.608	7.63
530.803	7.59
530.999	7.51
531.194	7.56
531.389	7.75
531.585	7.65
531.78	7.85
531.975	7.72
532.171	7.75
532.366	7.8
532.561	7.74
532.757	7.7
532.952	7.9
533.147	7.63
533.342	7.73
533.538	7.73
533.733	7.94
533.928	7.57
534.123	7.76
534.318	7.88
534.513	7.71
534.709	7.94
534.904	7.88
535.099	7.87
535.294	7.85
535.489	7.92
535.684	7.84
535.879	7.85
536.074	7.98
536.269	7.92
536.464	7.92
536.659	7.87
536.854	7.88
537.049	7.96
537.244	7.94
537.439	7.9
537.634	7.9
537.828	7.98
538.023	7.93
538.218	7.98
538.413	7.86
538.608	7.94
538.803	7.91
538.997	7.96
539.192	7.93
539.387	7.94
539.582	7.91
539.776	7.86
539.971	8.01
540.166	7.99
540.36	7.95
540.555	8.04
540.75	7.99
540.944	8
541.139	8
541.334	7.98
541.528	8
541.723	8.05
541.917	8.09
542.112	7.92
542.306	7.93
542.501	7.93
542.695	8
542.89	7.91
543.084	8.02
543.279	7.98
543.473	8.1
543.668	8.1
543.862	7.87
544.056	7.93
544.251	8.06
544.445	8.13
544.64	8.22
544.834	7.82
545.028	7.72
545.222	8.07
545.417	8.21
545.611	8.14
545.805	8.04
546	7.88
546.194	8.14
546.388	8.11
546.582	8.02
546.776	7.99
546.97	8.06
547.165	8.03
547.359	8.04
547.553	7.98
547.747	8.03
547.941	8.24
548.135	7.99
548.329	8.12
548.523	8.05
548.717	8
548.911	7.97
549.105	7.97
549.299	8.17
549.493	8.09
549.687	8
549.881	8.1
550.075	8.14
550.269	8.04
550.463	8.12
550.657	8.1
550.85	8.05
551.044	8.1
551.238	8.08
551.432	8.07
551.626	8.2
551.82	8.09
552.013	7.93
552.207	8.2
552.401	8.14
552.594	8.07
552.788	8.04
552.982	8.05
553.176	8.02
553.369	8.28
553.563	8.17
553.756	8.06
553.95	8.09
554.144	8.16
554.337	8.19
554.531	7.93
554.724	8.1
554.918	8.24
555.111	8.02
555.305	8.19
555.498	8.05
555.692	8.21
555.885	8.17
556.079	8.05
556.272	8.1
556.466	8.09
556.659	8.09
556.852	8.22
557.046	8.02
557.239	7.94
557.432	8.11
557.626	8.15
557.819	8.15
558.012	8.19
558.206	8.21
558.399	8.21
558.592	8.09
558.785	8.06
558.979	8.06
559.172	8.13
559.365	8.09
559.558	8.08
559.751	8.05
559.944	8.18
560.138	8.02
560.331	8.05
560.524	8.19
560.717	8.13
560.91	8.04
561.103	8.11
561.296	7.97
561.489	8.09
561.682	8.2
561.875	8.13
562.068	8.26
562.261	8.05
562.454	8.25
562.647	8.08
562.84	8.12
563.032	8.17
563.225	8
563.418	8.07
563.611	8.18
563.804	8.16
563.997	7.94
564.19	7.87
564.382	8.33
564.575	8.12
564.768	8.02
564.961	8.13
565.153	8.05
565.346	8.04
565.539	8.15
565.731	8.08
565.924	8.13
566.117	8.22
566.309	8.13
566.502	8.04
566.695	8.05
566.887	8.16
567.08	8.08
567.272	8.18
567.465	8.03
567.657	8.13
567.85	7.96
568.042	8.09
568.235	8.16
568.427	7.92
568.62	8.08
568.812	8.03
569.005	8.11
569.197	8.03
569.389	8.14
569.582	8.07
569.774	8.05
569.966	7.9
570.159	7.97
570.351	7.96
570.543	8.06
570.736	8.04
570.928	7.87
571.12	8.02
571.312	7.98
571.505	7.79
571.697	8.02
571.889	7.96
572.081	8.03
572.273	7.96
572.465	7.97
572.658	7.97
572.85	8.03
573.042	8.03
573.234	7.92
573.426	7.92
573.618	7.98
573.81	8.01
574.002	8.01
574.194	7.97
574.386	7.93
574.578	7.78
574.77	7.88
574.962	7.95
575.154	7.78
575.346	7.81
575.538	7.83
575.729	7.79
575.921	7.92
576.113	7.99
576.305	7.9
576.497	8.01
576.689	7.87
576.88	7.8
577.072	7.95
577.264	7.9
577.456	7.91
577.647	7.82
577.839	8.01
578.031	7.83
578.223	7.84
578.414	7.71
578.606	7.86
578.798	7.87
578.989	7.89
579.181	7.92
579.372	7.82
579.564	7.8
579.755	7.78
579.947	7.73
580.139	7.85
580.33	7.59
580.522	7.74
580.713	7.76
580.905	7.75
581.096	7.81
581.287	7.74
581.479	7.76
581.67	7.73
581.862	7.71
582.053	7.73
582.244	7.63
582.436	7.81
582.627	7.62
582.818	7.57
583.01	7.65
583.201	7.69
583.392	7.58
583.583	7.63
583.775	7.53
583.966	7.51
584.157	7.66
584.348	7.81
584.54	7.63
584.731	7.65
584.922	7.58
585.113	7.4
585.304	7.6
585.495	7.56
585.686	7.63
585.877	7.57
586.068	7.62
586.259	7.54
586.45	7.53
586.641	7.51
586.832	7.58
587.023	7.44
587.214	7.46
587.405	7.54
587.596	7.42
587.787	7.43
587.978	7.46
588.169	7.4
588.36	7.4
588.551	7.41
588.742	7.42
588.932	7.52
589.123	7.28
589.314	7.5
589.505	7.32
589.696	7.4
589.886	7.37
590.077	7.32
590.268	7.28
590.458	7.3
590.649	7.13
590.84	7.31
591.03	7.35
591.221	7.29
591.412	7.17
591.602	7.38
591.793	7.25
591.984	7.27
592.174	7.29
592.365	7.32
592.555	7.1
592.746	7.2
592.936	7.18
593.127	7.22
593.317	7.18
593.508	7.22
593.698	7.07
593.889	7.12
594.079	7.05
594.269	7.01
594.46	7.07
594.65	7.12
594.84	7.03
595.031	6.92
595.221	6.96
595.411	6.95
595.602	7.06
595.792	6.97
595.982	6.94
596.172	7.01
596.363	6.91
596.553	6.87
596.743	6.97
596.933	6.91
597.123	6.93
597.314	6.81
597.504	6.82
597.694	6.95
597.884	6.87
598.074	6.9
598.264	6.85
598.454	6.87
598.644	6.74
598.834	6.79
599.024	6.74
599.214	6.72
599.404	6.84
599.594	6.7
599.784	6.67
599.974	6.76
600.164	6.67
600.354	6.65
600.544	6.6
600.734	6.71
600.924	6.67
601.114	6.59
601.303	6.52
601.493	6.58
601.683	6.55
601.873	6.57
602.063	6.48
602.252	6.55
602.442	6.39
602.632	6.48
602.821	6.42
603.011	6.49
603.201	6.43
603.39	6.39
603.58	6.3
603.77	6.39
603.959	6.47
604.149	6.4
604.339	6.35
604.528	6.42
604.718	6.37
604.907	6.33
605.097	6.26
605.286	6.3
605.476	6.3
605.665	6.35
605.855	6.15
606.044	6.34
606.234	6.24
606.423	6.18
606.612	6.22
606.802	6.19
606.991	6.18
607.181	6.22
607.37	6.14
607.559	5.92
607.749	6.14
607.938	5.99
608.127	6.03
608.316	6.03
608.506	6.04
608.695	6.03
608.884	6.04
609.073	5.97
609.263	6.07
609.452	6.01
609.641	5.88
609.83	5.88
610.019	6
610.208	5.86
610.397	5.93
610.586	5.83
610.775	5.81
610.965	5.84
611.154	5.64
611.343	5.85
611.532	5.73
611.721	5.78
611.91	5.73
612.099	5.68
612.287	5.67
612.476	5.63
612.665	5.73
612.854	5.61
613.043	5.62
613.232	5.61
613.421	5.56
613.61	5.67
613.798	5.53
613.987	5.61
614.176	5.53
614.365	5.58
614.554	5.55
614.742	5.51
614.931	5.39
615.12	5.56
615.309	5.46
615.497	5.39
615.686	5.31
615.875	5.36
616.063	5.32
616.252	5.32
616.44	5.32
616.629	5.29
616.818	5.34
617.006	5.32
617.195	5.26
617.383	5.26
617.572	5.17
617.76	5.18
617.949	5.24
618.137	5.22
618.326	5.19
618.514	5.06
618.703	5.05
618.891	5.21
619.079	5.08
619.268	5.18
619.456	5
619.644	5.15
619.833	5
620.021	5.02
620.209	4.9
620.398	5.04
620.586	4.98
620.774	5.04
620.962	4.91
621.151	5.01
621.339	4.91
621.527	4.87
621.715	4.88
621.903	4.86
622.092	4.71
622.28	4.98
622.468	4.68
622.656	4.77
622.844	4.8
623.032	4.82
623.22	4.65
623.408	4.83
623.596	4.73
623.784	4.81
623.972	4.64
624.16	4.65
624.348	4.71
624.536	4.77
624.724	4.59
624.912	4.65
625.1	4.61
625.288	4.57
625.476	4.55
625.664	4.66
625.851	4.59
626.039	4.63
626.227	4.54
626.415	4.53
626.603	4.36
626.79	4.47
626.978	4.44
627.166	4.48
627.354	4.36
627.541	4.44
627.729	4.29
627.917	4.47
628.104	4.43
628.292	4.31
628.48	4.34
628.667	4.27
628.855	4.4
629.042	4.4
629.23	4.31
629.418	4.27
629.605	4.26
629.793	4.22
629.98	4.26
630.168	4.11
630.355	4.21
630.543	4.13
630.73	4.07
630.917	4.15
631.105	4.24
631.292	4.11
631.48	4.11
631.667	4.21
631.854	4.07
632.042	4.07
632.229	3.94
632.416	4.05
632.604	4.01
632.791	3.92
632.978	3.99
633.165	3.92
633.353	3.99
633.54	4.04
633.727	3.85
633.914	3.88
634.101	3.84
634.289	3.95
634.476	3.92
634.663	3.88
634.85	3.82
635.037	3.82
635.224	3.71
635.411	3.81
635.598	3.81
635.785	3.76
635.972	3.72
636.159	3.77
636.346	3.76
636.533	3.65
636.72	3.68
636.907	3.69
637.094	3.63
637.281	3.58
637.468	3.58
637.655	3.64
637.842	3.62
638.029	3.53
638.215	3.52
638.402	3.58
638.589	3.52
638.776	3.49
638.963	3.44
639.149	3.55
639.336	3.51
639.523	3.46
639.709	3.47
639.896	3.45
640.083	3.42
640.27	3.53
640.456	3.41
640.643	3.38
640.829	3.22
641.016	3.31
641.203	3.31
641.389	3.38
641.576	3.35
641.762	3.36
641.949	3.27
642.135	3.28
642.322	3.24
642.508	3.19
642.695	3.23
642.881	3.21
643.068	3.17
643.254	3.24
643.441	3.26
643.627	3.2
643.813	3.04
644	3.21
644.186	3.05
644.372	3.16
644.559	3.15
644.745	3.09
644.931	3.03
645.118	3.12
645.304	3.05
645.49	3.04
645.676	3
645.862	3.05
646.049	3.04
646.235	2.99
646.421	3.09
646.607	3.1
646.793	2.98
646.979	2.88
647.165	2.97
647.352	2.97
647.538	2.95
647.724	2.93
647.91	2.88
648.096	2.94
648.282	2.97
648.468	2.86
648.654	2.9
648.84	2.84
649.026	2.89
649.212	2.8
649.397	2.82
649.583	2.78
649.769	2.86
649.955	2.78
650.141	2.85
650.327	2.81
650.513	2.72
650.698	2.74
650.884	2.66
651.07	2.76
651.256	2.73
651.442	2.73
651.627	2.63
651.813	2.72
651.999	2.66
652.184	2.65
652.37	2.62
652.556	2.62
652.741	2.69
652.927	2.54
653.113	2.57
653.298	2.59
653.484	2.59
653.669	2.57
653.855	2.54
654.04	2.59
654.226	2.57
654.412	2.5
654.597	2.53
654.782	2.54
654.968	2.55
655.153	2.56
655.339	2.49
655.524	2.46
655.71	2.5
655.895	2.49
656.08	2.45
656.266	2.56
656.451	2.45
656.636	2.38
656.822	2.47
657.007	2.49
657.192	2.35
657.378	2.34
657.563	2.39
657.748	2.39
657.933	2.38
658.118	2.32
658.304	2.29
658.489	2.41
658.674	2.39
658.859	2.31
659.044	2.28
659.229	2.34
659.414	2.33
659.599	2.29
659.785	2.26
659.97	2.29
660.155	2.32
660.34	2.31
660.525	2.29
660.71	2.2
660.895	2.25
661.08	2.24
661.264	2.14
661.449	2.25
661.634	2.14
661.819	2.17
662.004	2.2
662.189	2.09
662.374	2.11
662.559	2.08
662.743	2.03
662.928	2.1
663.113	2.05
663.298	2
663.483	2.05
663.667	2.07
663.852	2.01
664.037	2.13
664.221	2.01
664.406	2.08
664.591	1.98
664.775	1.99
664.96	1.95
665.145	1.99
665.329	2.03
665.514	1.89
665.698	1.92
665.883	1.87
666.068	1.99
666.252	1.96
666.437	1.81
666.621	1.86
666.806	1.89
666.99	1.89
667.174	1.8
667.359	1.91
667.543	1.85
667.728	1.84
667.912	1.75
668.096	1.82
668.281	1.77
668.465	1.79
668.649	1.79
668.834	1.7
669.018	1.76
669.202	1.74
669.387	1.68
669.571	1.74
669.755	1.7
669.939	1.68
670.124	1.72
670.308	1.81
670.492	1.71
670.676	1.72
670.86	1.66
671.044	1.59
671.228	1.66
671.413	1.62
671.597	1.63
671.781	1.59
671.965	1.64
672.149	1.61
672.333	1.61
672.517	1.56
672.701	1.62
672.885	1.56
673.069	1.51
673.253	1.64
673.437	1.56
673.621	1.51
673.804	1.57
673.988	1.55
674.172	1.54
674.356	1.42
674.54	1.51
674.724	1.6
674.908	1.48
675.091	1.55
675.275	1.49
675.459	1.55
675.643	1.53
675.826	1.5
676.01	1.44
676.194	1.46
676.377	1.53
676.561	1.51
676.745	1.44
676.928	1.49
677.112	1.48
677.296	1.42
677.479	1.36
677.663	1.38
677.846	1.43
678.03	1.42
678.213	1.37
678.397	1.46
678.58	1.34
678.764	1.38
678.947	1.35
679.131	1.39
679.314	1.34
679.498	1.36
679.681	1.39
679.865	1.42
680.048	1.35
680.231	1.34
680.415	1.27
680.598	1.3
680.781	1.29
680.965	1.31
681.148	1.31
681.331	1.23
681.514	1.33
681.698	1.21
681.881	1.3
682.064	1.29
682.247	1.26
682.43	1.19
682.614	1.25
682.797	1.29
682.98	1.29
683.163	1.17
683.346	1.25
683.529	1.22
683.712	1.14
683.895	1.27
684.078	1.19
684.261	1.17
684.444	1.27
684.627	1.24
684.81	1.1
684.993	1.17
685.176	1.23
685.359	1.17
685.542	1.1
685.725	1.23
685.908	1.14
686.091	1.07
686.274	1.17
686.457	1.22
686.639	1.17
686.822	1.19
687.005	1.12
687.188	1.17
687.371	1.2
687.553	1.19
687.736	1.14
687.919	1.24
688.102	1.17
688.284	1.09
688.467	1.09
688.65	1.11
688.832	1.01
689.015	1.07
689.197	0.95
689.38	1.12
689.563	1.15
689.745	1
689.928	1.05
690.11	1.06
690.293	1.03
690.475	0.98
690.658	1.06
690.84	1
691.023	1.05
691.205	1
691.388	1.03
691.57	1.09
691.752	1
691.935	0.93
692.117	0.92
692.3	1.01
692.482	0.99
692.664	0.96
692.847	0.99
693.029	1.05
693.211	1.04
693.393	0.92
693.576	0.93
693.758	1
693.94	0.96
694.122	0.99
694.304	0.93
694.487	0.89
694.669	0.97
694.851	0.84
695.033	0.95
695.215	0.93
695.397	0.9
695.579	0.91
695.761	0.86
695.943	0.84
696.125	1.01
696.308	0.96
696.49	0.81
696.671	1
696.853	0.9
697.035	1.13
697.217	0.91
697.399	0.95
697.581	0.85
697.763	0.9
697.945	0.9
698.127	0.81
698.309	0.92
698.491	0.87
698.672	0.92
698.854	0.95
699.036	0.89
699.218	0.86
699.399	0.97
699.581	0.93
699.763	0.78
699.945	0.79
700.126	0.81
700.308	0.86
700.49	0.86
700.671	0.81
700.853	0.8
701.035	0.78
701.216	0.83
701.398	0.78
701.579	0.83
701.761	0.94
701.943	0.76
702.124	0.77
702.306	0.77
702.487	0.97
702.669	0.78
702.85	0.76
703.031	0.72
703.213	0.91
703.394	0.81
703.576	0.81
703.757	0.89
703.938	0.86
704.12	0.93
704.301	0.82
704.483	0.72
704.664	0.78
704.845	0.87
705.026	0.84
705.208	0.73
705.389	0.8
705.57	0.82
705.751	0.78
705.933	0.73
706.114	0.82
706.295	0.81
706.476	0.71
706.657	0.84
706.838	0.82
707.02	0.74
707.201	0.72
707.382	0.71
707.563	0.78
707.744	0.69
707.925	0.69
708.106	0.63
708.287	0.75
708.468	0.85
708.649	0.77
708.83	0.72
709.011	0.69
709.192	0.79
709.373	0.7
709.554	0.68
709.734	0.83
709.915	0.79
710.096	0.71
710.277	0.57
710.458	0.72
710.639	0.72
710.819	0.6
711	0.69
711.181	0.73
711.362	0.72
711.542	0.68
711.723	0.68
711.904	0.79
712.085	0.73
712.265	0.7
712.446	0.58
712.627	0.67
712.807	0.68
712.988	0.74
713.168	0.59
713.349	0.71
713.53	0.56
713.71	0.58
713.891	0.55
714.071	0.67
714.252	0.63
714.432	0.64
714.613	0.54
714.793	0.6
714.974	0.74
715.154	0.71
715.334	0.69
715.515	0.76
715.695	0.52
715.876	0.63
716.056	0.58
716.236	0.54
716.417	0.61
716.597	0.6
716.777	0.75
716.957	0.64
717.138	0.63
717.318	0.63
717.498	0.48
717.678	0.65
717.859	0.61
718.039	0.53
718.219	0.67
718.399	0.61
718.579	0.59
718.759	0.57
718.939	0.69
719.12	0.64
719.3	0.7
719.48	0.55
719.66	0.49
719.84	0.72
720.02	0.57
720.2	0.63
720.38	0.57
720.56	0.88
720.74	0.54
720.92	0.65
721.1	0.82
721.279	0.59
721.459	0.51
721.639	0.54
721.819	0.62
721.999	0.58
722.179	0.62
722.359	0.49
722.538	0.57
722.718	0.57
722.898	0.56
723.078	0.64
723.257	0.53
723.437	0.65
723.617	0.6
723.797	0.6
723.976	0.58
724.156	0.63
724.336	0.73
724.515	0.76
724.695	0.5
724.874	0.58
725.054	0.65
725.234	0.55
725.413	0.58
725.593	0.61
725.772	0.62
725.952	0.62
726.131	0.6
726.311	0.61
726.49	0.57
726.67	0.61
726.849	0.55
727.028	0.6
727.208	0.58
727.387	0.65
727.567	0.49
727.746	0.6
727.925	0.49
728.105	0.58
728.284	0.62
728.463	0.56
728.643	0.58
728.822	0.49
729.001	0.64
729.18	0.62
729.359	0.69
729.539	0.65
729.718	0.57
729.897	0.64
730.076	0.58
730.255	0.45
730.434	0.62
730.614	0.6
730.793	0.71
730.972	0.56
731.151	0.54
731.33	0.64
731.509	0.65
731.688	0.62
731.867	0.57
732.046	0.49
732.225	0.77
732.404	0.62
732.583	0.54
732.762	0.54
732.941	0.63
733.12	0.64
733.298	0.58
733.477	0.65
733.656	0.54
733.835	0.43
734.014	0.77
734.193	0.57
734.371	0.66
734.55	0.68
734.729	0.45
734.908	0.67
735.086	0.64
735.265	0.69
735.444	0.41
735.623	0.45
735.801	0.55
735.98	0.58
736.159	0.5
736.337	0.59
736.516	0.58
736.694	0.66
736.873	0.5
737.052	0.82
737.23	0.76
737.409	0.5
737.587	0.77
737.766	0.43
737.944	0.49
738.123	0.66
738.301	0.79
738.479	0.59
738.658	0.66
738.836	0.56
739.015	0.72
739.193	0.75
739.371	0.47
739.55	0.64
739.728	0.55
739.906	0.77
740.085	0.77
740.263	0.71
740.441	0.52
740.62	0.84
740.798	0.55
740.976	0.45
741.154	0.43
741.332	0.76
741.511	0.5
741.689	0.54
741.867	0.64
742.045	0.64
742.223	0.47
742.401	0.48
742.579	0.54
742.757	0.63
742.935	0.45
743.114	0.58
743.292	0.47
743.47	0.64
743.648	0.6
743.826	0.56
744.004	0.65
744.181	0.68
744.359	0.53
744.537	0.62
744.715	0.45
744.893	0.6
745.071	0.57
745.249	0.48
745.427	0.51
745.605	0.65
745.782	0.49
745.96	0.66
746.138	0.63
746.316	0.6
746.493	0.43
746.671	0.46
746.849	0.48
747.027	0.62
747.204	0.34
747.382	0.45
747.56	0.46
747.737	0.42
747.915	0.42
748.093	0.54
748.27	0.49
748.448	0.3
748.625	0.32
748.803	0.42
748.98	0.39
749.158	0.66
749.335	0.59
749.513	0.44
749.69	0.43
749.868	0.41
750.045	0.52
750.223	0.43
750.4	0.18
750.578	0.64
750.755	0.46
750.932	0.35
751.11	0.6
751.287	0.27
751.464	0.57
751.642	0.34
751.819	0.6
751.996	0.51
752.173	0.36
752.351	0.35
752.528	0.42
752.705	0.38
752.882	0.4
753.06	0.44
753.237	0.45
753.414	0.64
753.591	0.62
753.768	0.39
753.945	0.46
754.122	0.36
754.299	0.53
754.476	0.36
754.654	0.35
754.831	0.41
755.008	0.46
755.185	0.3
755.362	0.42
755.539	0.48
755.716	0.67
755.892	0.31
756.069	0.38
756.246	0.36
756.423	0.43
756.6	0.58
756.777	0.39
756.954	0.68
757.131	0.47
757.307	0.34
757.484	0.3
757.661	0.39
757.838	0.49
758.015	0.23
758.191	0.52
758.368	0.45
758.545	0.46
758.721	0.43
758.898	0.28
759.075	0.49
759.251	0.53
759.428	0.47
759.605	0.24
759.781	0.42
759.958	0.48
760.134	0.41
760.311	0.33
760.488	0.6
760.664	0.48
760.841	0.41
761.017	0.24
761.194	0.5
761.37	0.55
761.547	0.48
761.723	0.34
761.899	0.52
762.076	0.33
762.252	0.24
762.429	0.41
762.605	0.54
762.781	0.4
762.958	0.42
763.134	0.38
763.31	0.33
763.486	0.48
763.663	0.19
763.839	0.42
764.015	0.22
764.191	0.3
764.368	0.36
764.544	0.26
764.72	0.43
764.896	0.47
765.072	0.51
765.248	0.38
765.425	0.44
765.601	0.41
765.777	0.43
765.953	0.26
766.129	0.27
766.305	0.3
766.481	0.4
766.657	0.39
766.833	0.51
767.009	0.23
767.185	0.34
767.361	0.42
767.537	0.23
767.713	0.64
767.889	0.48
768.065	0.51
768.24	0.3
768.416	0.54
768.592	0.35
768.768	0.44
768.944	0.45
769.12	0.26
769.295	0.34
769.471	0.39
769.647	0.32
769.823	0.53
769.998	0.3
770.174	0.26
770.35	0.76
770.525	0.83
770.701	0.36
770.877	0.39
771.052	0.36
771.228	0.61
771.403	0.35
771.579	0.47
771.755	0.74
771.93	0.27
772.106	0.27
772.281	0.1
772.457	0.33
772.632	0.46
772.808	0.26
772.983	0.34
773.159	0.31
773.334	0.51
773.509	0.46
773.685	0.31
773.86	0.75
774.036	0.68
774.211	0.35
774.386	0.3
774.562	0.4
774.737	0.51
774.912	0.31
775.087	0.53
775.263	0.44
775.438	0.56
775.613	0.32
775.788	0.31
775.964	0.54
776.139	1.03
776.314	0.22
776.489	0.47
776.664	0.54
776.839	0.17
777.014	0.58
777.19	0.44
777.365	0.61
777.54	0.6
777.715	0.37
777.89	0.44
778.065	0.27
778.24	0.42
778.415	0.57
778.59	0.3
778.765	0.44
778.94	0.49
779.115	0.38
779.289	0.24
779.464	0.42
779.639	0.53
779.814	0.1
779.989	0.29
780.164	0.65
780.339	0.4
780.513	0.26
780.688	0.32
780.863	0.4
781.038	0.56
781.212	0.26
781.387	0.39
781.562	0.6
781.737	0.57
781.911	0.75
782.086	0.29
782.261	0.37
782.435	0.72
782.61	0.39
782.784	0.42
782.959	0.57
783.134	0.4
783.308	0.12
783.483	0.54
783.657	0.79
783.832	0.52
784.006	0.18
784.181	0.38
784.355	0.71
784.53	0.61
784.704	0.6
784.878	0.66
785.053	0.59
785.227	0.83
785.402	0.92
785.576	0.28
785.75	0.5
785.925	0.44
786.099	0.46
786.273	0.52
786.448	0.78
786.622	0.61
786.796	0.56
786.97	0.55
787.145	1.12
787.319	0.21
787.493	0.55
787.667	0.19
787.841	0.57
788.015	0.7
788.19	0.3
788.364	0.53
788.538	0.63
788.712	0.54
788.886	0.43
789.06	0.75
789.234	0.69
789.408	0.41
789.582	0.47
789.756	0.47
789.93	0.52
790.104	0.5
790.278	0.26
790.452	0.37
790.626	0.64
790.8	0.34
790.973	0.56
791.147	0.85
791.321	0.76
791.495	0.73
791.669	0.6
791.843	0.64
792.016	0.75
792.19	0.86
792.364	0.31
792.538	1.03
792.711	0.75
792.885	0.17
793.059	0.35
793.233	-0.01
793.406	0.75
793.58	0.42
793.754	0.46
793.927	0.34
794.101	0.88
794.274	0.72
794.448	0.48
794.622	0.4
794.795	0.75
794.969	0.68
795.142	0.7
795.316	0.58
795.489	0.39
795.663	0.73
795.836	0.73
796.009	0.22
796.183	1.03
796.356	0.78
796.53	0.76
796.703	0.54
796.876	1.02
797.05	0.63
797.223	0.5
797.396	0.54
797.57	0.7
797.743	0.91
797.916	0.65
798.09	0.75
798.263	0.79
798.436	0.62
798.609	0.24
798.782	0.46
798.956	0.58
799.129	0.49
799.302	0.15
799.475	0.38
799.648	0.44
799.821	0.57
799.994	0.45
800.167	0.08
800.34	0.87
800.514	0.61
800.687	0.42
800.86	0.27
801.033	0.52
801.206	0.45
801.379	0.14
801.551	1.03
801.724	0.35
801.897	1.12
802.07	0.48
802.243	0.12
802.416	0.6
802.589	0.25
802.762	0.55
802.935	0.58
803.107	0.98
803.28	0.92
803.453	0.96
803.626	0.44
803.798	0.59
803.971	0.34
804.144	0.6
804.317	0.75
804.489	0.97
804.662	0.5
804.835	0.42
805.007	0.23
805.18	1.26
805.353	0.58
805.525	0.49
805.698	0.33
805.87	0.86
806.043	0.93
806.215	0.29
806.388	0.23
806.56	0.84
806.733	0.89
806.905	0.77
807.078	0.47
807.25	0.46
807.423	0.78
807.595	0.77
807.768	0.69
807.94	1.07
808.112	0.45
808.285	0.89
808.457	0.66
808.629	0.8
808.802	0.76
808.974	0.81
809.146	0.48
809.318	0.14
809.491	0.61
809.663	1.18
809.835	0.15
810.007	1.51
810.18	0.61
810.352	0.25
810.524	0.69
810.696	0.9
810.868	0.98
811.04	0.37
811.212	0.7
811.384	1.07
811.556	0.59
811.728	0.85
811.901	1.25
812.073	0.84
812.245	0.45
812.417	0.94
812.589	0.05
812.76	0.85
812.932	0.7
813.104	0.94
813.276	0.31
813.448	0.91
813.62	0.65
813.792	0.67
813.964	0.57
814.136	0.76
814.307	0.58
814.479	0.72
814.651	0.56
814.823	1.73
814.995	0.9
815.166	0.9
815.338	0.59
815.51	0.22
815.681	1.16
815.853	0.91
816.025	0.93
816.196	1.57
816.368	0.81
816.54	0.09
816.711	0.65
816.883	1.33
817.054	1.63
817.226	0.17
817.398	0.93
817.569	0.35
817.741	0.71
817.912	0.31
818.084	0.76
818.255	1.12
818.426	0.67
818.598	0.92
818.769	0.34
818.941	1.05
819.112	1.16
819.283	0.84
819.455	0.33
819.626	0.93
819.798	0.86
819.969	0.57
820.14	0.69
820.311	0.64
820.483	1.05
820.654	0.61
820.825	0.82
820.996	0.64
821.168	0.38
821.339	0.59
821.51	-0.23
821.681	0.54
821.852	0.9
822.023	0.07
822.195	0.12
822.366	1.34
822.537	0.6
822.708	1.11
822.879	0.3
823.05	1.27
823.221	0.57
823.392	0.85
823.563	0.65
823.734	0.85
823.905	1.3
824.076	0.26
824.247	0.7
824.418	0.87
824.589	1.23
824.759	1.51
824.93	1.01
825.101	0.65
825.272	1.77
825.443	1.05
825.614	1.48
825.784	0.02
825.955	1.57
826.126	1.66
826.297	1.36
826.467	2.2
826.638	2.27
826.809	0.52
826.98	1.44
827.15	1.73
827.321	1.2
827.492	1.82
827.662	1.03
827.833	2.43
828.003	1.48
828.174	0.39
828.345	0.37
828.515	1.58
828.686	1.25
828.856	0.94
829.027	0.54
829.197	0.85
829.368	0.93
829.538	0.76
829.709	0.57
829.879	1.66
830.049	0.92
830.22	0.52
830.39	0.95
830.56	1.18
830.731	0.32
830.901	0.3
831.072	0.36
831.242	0.92
831.412	1.19
831.582	1.72
831.753	0.69
831.923	1.27
832.093	1.33
832.263	0.69
832.434	0.28
832.604	0.65
832.774	1.63
832.944	0.46
833.114	0.35
833.284	1.29
833.454	0.71
833.624	-0.27
833.795	0.89
833.965	2.2
834.135	1.92
834.305	-0.28
834.475	0.12
834.645	1.31
834.815	0.98
834.985	0.52
835.155	0.91
835.325	1.25
835.494	1.52
835.664	1
835.834	-0.08
836.004	1.35
836.174	1.4
836.344	0.94
836.514	0.01
836.684	0.52
836.853	0.91
837.023	0.81
837.193	0.54
837.363	2.44
837.532	2.3
837.702	0.78
837.872	0.91
838.041	1.39
838.211	2.04
838.381	0.18
838.55	0.97
838.72	3.18
838.89	2.29
839.059	0.52
839.229	0.3
839.398	2.45
839.568	1.18
839.738	1.07
839.907	1.87
840.077	1.75
840.246	1.13
840.416	0.08
840.585	0.72
840.755	2.07
840.924	2.11
841.093	0.7
841.263	-0.1
841.432	0.9
841.602	0.93
841.771	0.19
841.94	1.67
842.11	3.05
842.279	2.64
842.448	0.85
842.617	0.56
842.787	2.17
842.956	0.15
843.125	0.82
843.294	0.74
843.464	1.57
843.633	1.81
843.802	-0.36
843.971	1.59
844.14	1.24
844.309	2.28
844.479	0.55
844.648	-0.24
844.817	0.83
844.986	0.99
845.155	0.86
845.324	1.38
845.493	0.99
845.662	1.55
845.831	1.71
846	1.6
846.169	1.56
846.338	2.59
846.507	1.5
846.676	1.1
846.844	0.58
847.013	2.13
847.182	1.25
847.351	1.79
847.52	1.07
847.689	1.43
847.858	1.41
848.026	0.89
848.195	1.52
848.364	0.7
848.533	0.2
848.701	0.43
848.87	0.98
849.039	2.36
849.207	2.47
849.376	0.98
849.545	2.84
849.713	0.98
849.882	0.61
850.051	0.71
850.219	1.41
850.388	2.52
850.556	0.66
850.725	0.91
850.893	1.63
851.062	1.09
851.23	2.22
851.399	0.23
851.567	1.18
851.736	1.49
851.904	0
852.073	1.3
852.241	2.65
852.41	1.9
852.578	1.52
852.746	-0.05
852.915	2.12
853.083	1.53
853.251	-0.51
853.42	1.74
853.588	1.7
853.756	2.57
853.924	1.77
854.093	1.47
854.261	0.61
854.429	-0.43
854.597	1.96
854.765	0.92
854.934	2.54
855.102	3.27
855.27	2.69
855.438	1.84
855.606	3.51
855.774	3.26
855.942	0.87
856.11	1.47
856.278	1.4
856.446	3.19
856.614	2.14
856.782	1.36
856.95	1.75
857.118	3.19
857.286	0.97
857.454	0.47
857.622	2.03
857.79	3.04
857.958	1.95
858.126	2.23
858.294	1.33
858.462	2.07
858.629	0.11
858.797	0.42
858.965	2.19
859.133	0.6
859.301	1.51
859.468	3.16
859.636	1.39
859.804	1.91
859.971	1.88
860.139	0.56
860.307	3.29
860.474	1.95
860.642	0.08
860.81	1.33
860.977	1.14
861.145	2.87
861.313	0.96
861.48	2.47
861.648	2.7
861.815	1.25
861.983	-0.02
862.15	1.27
862.318	2.18
862.485	2.79
862.653	0.26
862.82	0.83
862.988	3.68
863.155	2.83
863.322	1.11
863.49	0.48
863.657	0.59
863.824	4.63
863.992	2.54
864.159	2.42
864.326	3.17
864.494	2.02
864.661	6.44
864.828	0.36
864.996	3.05
865.163	4.42
865.33	1.55
865.497	-0.93
865.664	0.91
865.832	-0.56
865.999	1.03
866.166	0.42
866.333	2.18
866.5	2.49
866.667	2.15
866.834	2.16
867.001	2.51
867.168	0.85
867.335	2.39
867.502	0.3
867.669	3.44
867.836	4.37
868.003	1.23
868.17	2.75
868.337	2.07
868.504	5.63
868.671	0.68
868.838	1.9
869.005	2.66
869.172	2.03
869.339	2.24
869.505	1.44
869.672	1.74
869.839	3.65
870.006	2.58
870.173	0.46
870.339	4.26
870.506	4.28
870.673	1.91
870.84	2.39
871.006	2.29
871.173	1.87
871.34	2.17
871.506	1.85
871.673	2.7
871.839	0.79
872.006	2.36
872.173	1.78
872.339	2.16
872.506	3.6
872.672	1.98
872.839	-0.23
873.005	3.4
873.172	4.84
873.338	4.72
873.505	3.15
873.671	1.89
873.838	2.31
874.004	0.73
874.171	1.13
874.337	2.14
874.503	3.92
874.67	1.96
874.836	1.85
875.002	4.74
875.169	4.87
875.335	1.78
875.501	0.86
875.668	4.48
875.834	2.54
876	2.03
876.166	2.01
876.332	3.7
876.499	5.38
876.665	0.95
876.831	2.63
876.997	3.44
877.163	3.33
877.329	2
877.495	3.88
877.662	4.84
877.828	3.02
877.994	1.88
878.16	1.52
878.326	1.24
878.492	3.95
878.658	2.28
878.824	2.96
878.99	3.72
879.156	1.08
879.322	4.73
879.487	2.99
879.653	2.99
879.819	3.38
879.985	1.23
880.151	0.58
880.317	4.21
880.483	3.35
880.648	3.42
880.814	-1.12
880.98	4.95
881.146	-0.05
881.312	2.18
881.477	2.95
881.643	1.53
881.809	5.71
881.974	5.21
882.14	0.12
882.306	2.56
882.471	4.09
882.637	2.03
882.803	1.91
882.968	6.68
883.134	6.45
883.299	2.64
883.465	1.37
883.63	5.17
883.796	3.28
883.961	3.52
884.127	2.09
884.292	-0.65
884.458	-1.22
884.623	-1.21
