Data from Apollo_Calib_20240827__AbsoluteIrradiance__788__12-17-02-166.txt Node

Date: Wed Aug 28 12:17:02 BST 2024
User: biology
Spectrometer: FLMT08252
Trigger mode: 0
Integration Time (sec): 5.000000E-1
Scans to average: 5
Electric dark correction enabled: true
Nonlinearity correction enabled: false
Boxcar width: 0
XAxis mode: Wavelengths
Number of Pixels in Spectrum: 3648
>>>>>Begin Spectral Data<<<<<
179.588	-0
179.809	-0
180.03	-0
180.251	-0
180.473	-0
180.694	0
180.915	0
181.136	-0
181.357	0
181.578	-0
181.799	0
182.02	-0
182.241	-0
182.462	-0
182.683	0
182.904	-0
183.125	-0
183.346	0
183.567	0
183.788	0
184.009	0
184.23	0
184.451	0
184.672	0
184.892	0
185.113	0
185.334	0
185.555	0
185.776	0
185.996	0
186.217	0
186.438	0
186.659	0
186.879	0
187.1	0
187.321	0
187.541	0
187.762	0
187.983	0
188.203	0
188.424	0
188.644	0
188.865	0
189.086	0
189.306	0
189.527	0
189.747	0
189.968	0
190.188	0
190.409	0
190.629	0
190.849	0
191.07	0
191.29	0
191.511	0
191.731	0
191.951	0
192.172	0
192.392	0
192.612	0
192.833	0
193.053	0
193.273	0
193.493	0
193.714	0
193.934	0
194.154	0
194.374	0
194.594	0
194.815	0
195.035	0
195.255	0
195.475	0
195.695	0
195.915	0
196.135	0
196.355	0
196.575	0
196.795	0
197.015	0
197.235	0
197.455	0
197.675	0
197.895	0
198.115	0
198.335	0
198.555	0
198.775	0
198.995	0
199.214	0
199.434	0
199.654	0
199.874	0
200.094	3.89
200.313	2.75
200.533	1.69
200.753	1.73
200.973	3.71
201.192	2.92
201.412	1.03
201.632	1.46
201.851	3.22
202.071	1.7
202.291	1.47
202.51	1.16
202.73	2.87
202.95	1.73
203.169	0.92
203.389	1.91
203.608	1.83
203.828	1.38
204.047	1.42
204.267	2.31
204.486	2.48
204.706	2.1
204.925	1.55
205.145	1.31
205.364	2.2
205.583	2.44
205.803	1.3
206.022	1.11
206.242	1.87
206.461	1.73
206.68	1.31
206.9	1.41
207.119	2.25
207.338	1.93
207.557	1.01
207.777	1.17
207.996	1.53
208.215	2.16
208.434	0.83
208.654	0.76
208.873	1.66
209.092	1.71
209.311	0.92
209.53	1.14
209.749	1.24
209.968	1.03
210.187	0.97
210.407	0.7
210.626	1.02
210.845	1.49
211.064	1.1
211.283	0.95
211.502	1.45
211.721	1.02
211.94	0.9
212.159	1.3
212.377	1.45
212.596	1.4
212.815	1.06
213.034	0.9
213.253	1.23
213.472	1.12
213.691	0.91
213.91	0.71
214.128	0.55
214.347	1.36
214.566	0.4
214.785	0.6
215.003	1.04
215.222	1.16
215.441	0.83
215.66	0.52
215.878	1.16
216.097	1.12
216.316	0.65
216.534	0.84
216.753	1.26
216.972	0.81
217.19	0.55
217.409	0.62
217.627	0.71
217.846	0.83
218.064	0.88
218.283	0.55
218.501	1.28
218.72	1.18
218.938	0.58
219.157	0.51
219.375	0.85
219.594	0.83
219.812	0.51
220.031	0.53
220.249	1.28
220.467	1.31
220.686	0.54
220.904	0.51
221.122	0.63
221.341	1.14
221.559	0.69
221.777	0.41
221.995	0.74
222.214	0.89
222.432	0.64
222.65	0.7
222.868	0.76
223.086	0.8
223.305	0.85
223.523	0.76
223.741	1.15
223.959	0.62
224.177	0.37
224.395	0.52
224.613	0.83
224.831	0.91
225.049	0.34
225.267	0.45
225.485	0.74
225.703	0.53
225.921	0.52
226.139	0.47
226.357	0.81
226.575	0.79
226.793	0.59
227.011	1.53
227.229	0.63
227.447	0.8
227.665	0.43
227.883	0.27
228.1	0.72
228.318	0.64
228.536	0.4
228.754	0.45
228.972	0.74
229.189	0.86
229.407	0.52
229.625	0.58
229.843	0.8
230.06	0.64
230.278	0.56
230.496	0.46
230.713	0.65
230.931	0.83
231.149	0.42
231.366	0.31
231.584	0.52
231.801	1
232.019	0.51
232.236	0.29
232.454	0.34
232.671	0.62
232.889	0.45
233.106	0.26
233.324	0.58
233.541	0.54
233.759	0.53
233.976	0.36
234.194	0.62
234.411	0.48
234.628	0.42
234.846	0.44
235.063	0.5
235.28	0.5
235.498	0.4
235.715	0.32
235.932	0.77
236.149	0.54
236.367	0.29
236.584	0.54
236.801	0.42
237.018	0.65
237.236	0.49
237.453	0.3
237.67	0.75
237.887	0.58
238.104	0.44
238.321	0.32
238.538	0.31
238.755	0.59
238.973	0.41
239.19	0.4
239.407	0.65
239.624	0.5
239.841	0.34
240.058	0.26
240.275	0.49
240.492	0.49
240.709	0.47
240.925	0.35
241.142	0.46
241.359	0.26
241.576	0.28
241.793	0.32
242.01	0.4
242.227	0.56
242.444	0.45
242.66	0.56
242.877	0.44
243.094	0.39
243.311	0.39
243.527	0.26
243.744	0.53
243.961	0.57
244.178	0.41
244.394	0.33
244.611	0.68
244.828	0.65
245.044	0.31
245.261	0.34
245.477	0.52
245.694	0.59
245.911	0.3
246.127	0.41
246.344	0.56
246.56	0.51
246.777	0.34
246.993	0.35
247.21	0.5
247.426	0.56
247.643	0.28
247.859	0.29
248.076	0.36
248.292	0.71
248.508	0.29
248.725	0.45
248.941	0.43
249.157	0.58
249.374	0.29
249.59	0.33
249.806	0.45
250.023	0.5
250.239	0.28
250.455	0.26
250.671	0.35
250.888	0.5
251.104	0.38
251.32	0.33
251.536	0.38
251.752	0.36
251.969	0.38
252.185	0.33
252.401	0.64
252.617	0.44
252.833	0.33
253.049	0.36
253.265	0.45
253.481	0.35
253.697	0.27
253.913	0.28
254.129	0.45
254.345	0.45
254.561	0.28
254.777	0.35
254.993	0.49
255.209	0.37
255.425	0.32
255.641	0.28
255.857	0.44
256.073	0.4
256.288	0.24
256.504	0.3
256.72	0.4
256.936	0.58
257.152	0.32
257.367	0.25
257.583	0.33
257.799	0.55
258.015	0.3
258.23	0.31
258.446	0.59
258.662	0.36
258.877	0.19
259.093	0.23
259.309	0.39
259.524	0.43
259.74	0.29
259.955	0.17
260.171	0.35
260.387	0.36
260.602	0.39
260.818	0.37
261.033	0.31
261.249	0.26
261.464	0.3
261.68	0.26
261.895	0.45
262.11	0.45
262.326	0.28
262.541	0.21
262.757	0.43
262.972	0.38
263.187	0.28
263.403	0.37
263.618	0.45
263.833	0.31
264.049	0.33
264.264	0.36
264.479	0.37
264.694	0.5
264.91	0.22
265.125	0.27
265.34	0.35
265.555	0.52
265.77	0.35
265.986	0.32
266.201	0.38
266.416	0.46
266.631	0.28
266.846	0.31
267.061	0.43
267.276	0.44
267.491	0.12
267.706	0.33
267.921	0.37
268.136	0.33
268.351	0.33
268.566	0.19
268.781	0.48
268.996	0.43
269.211	0.35
269.426	0.24
269.641	0.37
269.856	0.44
270.071	0.25
270.285	0.24
270.5	0.43
270.715	0.44
270.93	0.33
271.145	0.31
271.359	0.41
271.574	0.27
271.789	0.34
272.004	0.23
272.218	0.24
272.433	0.34
272.648	0.23
272.862	0.41
273.077	0.3
273.292	0.32
273.506	0.32
273.721	0.29
273.936	0.34
274.15	0.39
274.365	0.31
274.579	0.35
274.794	0.38
275.008	0.37
275.223	0.18
275.437	0.29
275.652	0.44
275.866	0.41
276.081	0.29
276.295	0.4
276.509	0.27
276.724	0.3
276.938	0.29
277.153	0.36
277.367	0.38
277.581	0.32
277.796	0.28
278.01	0.24
278.224	0.39
278.438	0.45
278.653	0.24
278.867	0.23
279.081	0.38
279.295	0.25
279.51	0.34
279.724	0.15
279.938	0.36
280.152	0.32
280.366	0.29
280.58	0.24
280.794	0.41
281.008	0.38
281.222	0.4
281.437	0.47
281.651	0.34
281.865	0.38
282.079	0.24
282.293	0.13
282.507	0.24
282.721	0.3
282.935	0.23
283.148	0.21
283.362	0.23
283.576	0.19
283.79	0.25
284.004	0.21
284.218	0.39
284.432	0.24
284.646	0.26
284.859	0.26
285.073	0.25
285.287	0.27
285.501	0.27
285.714	0.23
285.928	0.28
286.142	0.32
286.356	0.27
286.569	0.28
286.783	0.38
286.997	0.37
287.21	0.32
287.424	0.25
287.637	0.31
287.851	0.25
288.065	0.29
288.278	0.22
288.492	0.31
288.705	0.29
288.919	0.32
289.132	0.19
289.346	0.35
289.559	0.26
289.773	0.18
289.986	0.27
290.2	0.26
290.413	0.32
290.626	0.21
290.84	0.19
291.053	0.29
291.267	0.37
291.48	0.24
291.693	0.25
291.906	0.22
292.12	0.27
292.333	0.26
292.546	0.21
292.76	0.36
292.973	0.27
293.186	0.29
293.399	0.24
293.612	0.3
293.826	0.26
294.039	0.21
294.252	0.26
294.465	0.33
294.678	0.26
294.891	0.27
295.104	0.17
295.317	0.24
295.53	0.26
295.743	0.25
295.956	0.21
296.169	0.4
296.382	0.34
296.595	0.25
296.808	0.2
297.021	0.31
297.234	0.35
297.447	0.25
297.66	0.3
297.873	0.34
298.086	0.29
298.299	0.22
298.511	0.18
298.724	0.25
298.937	0.2
299.15	0.17
299.363	0.23
299.575	0.31
299.788	0.29
300.001	0.21
300.213	0.23
300.426	0.17
300.639	0.19
300.852	0.23
301.064	0.28
301.277	0.3
301.489	0.29
301.702	0.29
301.915	0.22
302.127	0.23
302.34	0.28
302.552	0.3
302.765	0.18
302.977	0.33
303.19	0.24
303.402	0.21
303.615	0.21
303.827	0.25
304.04	0.23
304.252	0.31
304.464	0.21
304.677	0.37
304.889	0.28
305.102	0.26
305.314	0.2
305.526	0.3
305.739	0.26
305.951	0.19
306.163	0.21
306.375	0.33
306.588	0.25
306.8	0.25
307.012	0.21
307.224	0.24
307.436	0.34
307.649	0.18
307.861	0.23
308.073	0.29
308.285	0.24
308.497	0.17
308.709	0.22
308.921	0.25
309.133	0.31
309.346	0.25
309.558	0.18
309.77	0.3
309.982	0.34
310.194	0.25
310.406	0.2
310.617	0.28
310.829	0.28
311.041	0.3
311.253	0.2
311.465	0.22
311.677	0.28
311.889	0.22
312.101	0.21
312.313	0.32
312.524	0.31
312.736	0.15
312.948	0.21
313.16	0.33
313.372	0.28
313.583	0.28
313.795	0.24
314.007	0.23
314.218	0.28
314.43	0.23
314.642	0.19
314.853	0.16
315.065	0.31
315.277	0.22
315.488	0.25
315.7	0.29
315.912	0.27
316.123	0.24
316.335	0.25
316.546	0.36
316.758	0.25
316.969	0.27
317.181	0.25
317.392	0.29
317.604	0.31
317.815	0.13
318.026	0.22
318.238	0.2
318.449	0.26
318.661	0.1
318.872	0.21
319.083	0.24
319.295	0.27
319.506	0.24
319.717	0.23
319.929	0.31
320.14	0.23
320.351	0.24
320.562	0.21
320.774	0.25
320.985	0.24
321.196	0.22
321.407	0.16
321.618	0.3
321.829	0.26
322.041	0.27
322.252	0.23
322.463	0.25
322.674	0.28
322.885	0.19
323.096	0.18
323.307	0.27
323.518	0.27
323.729	0.22
323.94	0.19
324.151	0.19
324.362	0.33
324.573	0.28
324.784	0.28
324.995	0.32
325.206	0.26
325.417	0.19
325.628	0.19
325.838	0.26
326.049	0.26
326.26	0.3
326.471	0.21
326.682	0.3
326.892	0.24
327.103	0.2
327.314	0.21
327.525	0.34
327.735	0.29
327.946	0.18
328.157	0.2
328.368	0.27
328.578	0.22
328.789	0.28
328.999	0.24
329.21	0.24
329.421	0.29
329.631	0.24
329.842	0.15
330.052	0.31
330.263	0.3
330.473	0.26
330.684	0.24
330.894	0.22
331.105	0.23
331.315	0.21
331.526	0.14
331.736	0.32
331.947	0.24
332.157	0.3
332.367	0.2
332.578	0.28
332.788	0.31
332.999	0.24
333.209	0.25
333.419	0.18
333.629	0.27
333.84	0.27
334.05	0.21
334.26	0.36
334.47	0.28
334.681	0.3
334.891	0.21
335.101	0.25
335.311	0.35
335.521	0.26
335.732	0.22
335.942	0.3
336.152	0.27
336.362	0.26
336.572	0.27
336.782	0.28
336.992	0.21
337.202	0.28
337.412	0.24
337.622	0.29
337.832	0.24
338.042	0.29
338.252	0.2
338.462	0.22
338.672	0.24
338.882	0.23
339.092	0.29
339.302	0.33
339.511	0.27
339.721	0.26
339.931	0.16
340.141	0.28
340.351	0.31
340.561	0.28
340.77	0.23
340.98	0.27
341.19	0.27
341.4	0.19
341.609	0.17
341.819	0.26
342.029	0.18
342.238	0.23
342.448	0.23
342.658	0.27
342.867	0.19
343.077	0.24
343.286	0.21
343.496	0.27
343.706	0.32
343.915	0.18
344.125	0.19
344.334	0.29
344.544	0.18
344.753	0.17
344.963	0.21
345.172	0.21
345.381	0.2
345.591	0.16
345.8	0.24
346.01	0.33
346.219	0.27
346.428	0.11
346.638	0.24
346.847	0.28
347.056	0.28
347.266	0.18
347.475	0.23
347.684	0.29
347.893	0.28
348.103	0.3
348.312	0.19
348.521	0.25
348.73	0.27
348.94	0.22
349.149	0.22
349.358	0.24
349.567	0.24
349.776	0.14
349.985	0.18
350.194	0.3
350.403	0.31
350.612	0.15
350.821	0.2
351.03	0.24
351.239	0.19
351.448	0.22
351.657	0.24
351.866	0.37
352.075	0.25
352.284	0.22
352.493	0.22
352.702	0.3
352.911	0.26
353.12	0.27
353.329	0.25
353.538	0.28
353.746	0.24
353.955	0.18
354.164	0.23
354.373	0.2
354.582	0.29
354.79	0.24
354.999	0.25
355.208	0.25
355.416	0.31
355.625	0.18
355.834	0.21
356.042	0.26
356.251	0.2
356.46	0.18
356.668	0.23
356.877	0.31
357.085	0.26
357.294	0.16
357.503	0.26
357.711	0.21
357.92	0.36
358.128	0.27
358.337	0.21
358.545	0.24
358.754	0.19
358.962	0.28
359.17	0.2
359.379	0.3
359.587	0.28
359.796	0.21
360.004	0.32
360.212	0.29
360.421	0.32
360.629	0.16
360.837	0.21
361.046	0.29
361.254	0.32
361.462	0.21
361.67	0.21
361.879	0.25
362.087	0.31
362.295	0.23
362.503	0.19
362.711	0.2
362.92	0.22
363.128	0.22
363.336	0.15
363.544	0.17
363.752	0.18
363.96	0.24
364.168	0.2
364.376	0.24
364.584	0.27
364.792	0.33
365	0.24
365.208	0.21
365.416	0.31
365.624	0.3
365.832	0.23
366.04	0.33
366.248	0.26
366.456	0.26
366.664	0.23
366.872	0.24
367.079	0.27
367.287	0.22
367.495	0.26
367.703	0.22
367.911	0.24
368.118	0.21
368.326	0.21
368.534	0.2
368.742	0.3
368.949	0.19
369.157	0.19
369.365	0.27
369.572	0.23
369.78	0.2
369.988	0.27
370.195	0.28
370.403	0.24
370.61	0.2
370.818	0.24
371.026	0.32
371.233	0.17
371.441	0.24
371.648	0.22
371.856	0.23
372.063	0.25
372.271	0.21
372.478	0.19
372.685	0.22
372.893	0.32
373.1	0.24
373.308	0.2
373.515	0.37
373.722	0.32
373.93	0.23
374.137	0.28
374.344	0.34
374.552	0.3
374.759	0.27
374.966	0.23
375.173	0.22
375.381	0.31
375.588	0.25
375.795	0.18
376.002	0.23
376.209	0.26
376.417	0.25
376.624	0.25
376.831	0.28
377.038	0.24
377.245	0.15
377.452	0.24
377.659	0.24
377.866	0.22
378.073	0.25
378.28	0.22
378.487	0.3
378.694	0.33
378.901	0.25
379.108	0.26
379.315	0.3
379.522	0.37
379.729	0.27
379.936	0.24
380.143	0.26
380.35	0.28
380.557	0.21
380.763	0.21
380.97	0.27
381.177	0.27
381.384	0.22
381.591	0.22
381.797	0.28
382.004	0.3
382.211	0.32
382.418	0.23
382.624	0.29
382.831	0.31
383.038	0.26
383.244	0.25
383.451	0.26
383.658	0.29
383.864	0.21
384.071	0.2
384.277	0.37
384.484	0.23
384.69	0.35
384.897	0.23
385.103	0.25
385.31	0.22
385.516	0.23
385.723	0.19
385.929	0.28
386.136	0.3
386.342	0.28
386.549	0.19
386.755	0.32
386.961	0.34
387.168	0.24
387.374	0.24
387.58	0.28
387.787	0.3
387.993	0.28
388.199	0.29
388.406	0.25
388.612	0.24
388.818	0.2
389.024	0.25
389.231	0.23
389.437	0.39
389.643	0.26
389.849	0.28
390.055	0.29
390.261	0.32
390.467	0.34
390.674	0.24
390.88	0.27
391.086	0.29
391.292	0.19
391.498	0.33
391.704	0.33
391.91	0.29
392.116	0.25
392.322	0.21
392.528	0.34
392.734	0.27
392.94	0.28
393.146	0.3
393.352	0.29
393.557	0.25
393.763	0.3
393.969	0.36
394.175	0.31
394.381	0.34
394.587	0.22
394.792	0.32
394.998	0.4
395.204	0.33
395.41	0.26
395.615	0.3
395.821	0.33
396.027	0.35
396.233	0.27
396.438	0.29
396.644	0.38
396.85	0.34
397.055	0.32
397.261	0.32
397.466	0.31
397.672	0.32
397.878	0.37
398.083	0.37
398.289	0.28
398.494	0.33
398.7	0.38
398.905	0.23
399.111	0.37
399.316	0.23
399.522	0.3
399.727	0.31
399.932	0.27
400.138	0.33
400.343	0.38
400.549	0.3
400.754	0.35
400.959	0.36
401.165	0.39
401.37	0.34
401.575	0.33
401.78	0.32
401.986	0.33
402.191	0.33
402.396	0.39
402.601	0.41
402.807	0.37
403.012	0.38
403.217	0.43
403.422	0.41
403.627	0.4
403.832	0.35
404.037	0.45
404.243	0.42
404.448	0.33
404.653	0.4
404.858	0.41
405.063	0.45
405.268	0.36
405.473	0.41
405.678	0.43
405.883	0.68
406.088	0.51
406.293	0.41
406.498	0.41
406.703	0.52
406.907	0.45
407.112	0.45
407.317	0.5
407.522	0.54
407.727	0.45
407.932	0.47
408.136	0.64
408.341	0.5
408.546	0.57
408.751	0.57
408.956	0.54
409.16	0.65
409.365	0.59
409.57	0.57
409.774	0.62
409.979	0.69
410.184	0.66
410.388	0.56
410.593	0.76
410.798	0.75
411.002	0.68
411.207	0.76
411.411	0.75
411.616	0.78
411.82	0.79
412.025	0.83
412.229	0.86
412.434	0.96
412.638	0.9
412.843	0.84
413.047	0.97
413.252	0.93
413.456	0.97
413.66	1.03
413.865	1.01
414.069	1.1
414.273	1.1
414.478	1.1
414.682	1.11
414.886	1.17
415.091	1.15
415.295	1.19
415.499	1.34
415.703	1.27
415.908	1.37
416.112	1.23
416.316	1.54
416.52	1.53
416.724	1.52
416.929	1.55
417.133	1.79
417.337	1.67
417.541	1.75
417.745	1.79
417.949	1.83
418.153	1.97
418.357	1.93
418.561	2.15
418.765	2.08
418.969	2.28
419.173	2.33
419.377	2.31
419.581	2.58
419.785	2.56
419.989	2.55
420.193	2.66
420.397	2.75
420.601	2.93
420.804	3.07
421.008	2.95
421.212	3.15
421.416	3.06
421.62	3.13
421.823	3.24
422.027	3.37
422.231	3.31
422.435	3.37
422.638	3.43
422.842	3.61
423.046	3.58
423.249	3.75
423.453	3.75
423.657	3.96
423.86	4.02
424.064	4.11
424.268	4.36
424.471	4.32
424.675	4.56
424.878	4.61
425.082	4.69
425.285	5
425.489	4.9
425.692	5.08
425.896	5.09
426.099	5.2
426.303	5.42
426.506	5.53
426.71	5.73
426.913	5.98
427.116	6.17
427.32	6.09
427.523	6.29
427.726	6.45
427.93	6.54
428.133	6.84
428.336	7.07
428.54	7.16
428.743	7.47
428.946	7.72
429.149	7.62
429.353	7.65
429.556	7.82
429.759	7.93
429.962	7.97
430.165	8.15
430.368	7.79
430.571	7.75
430.775	7.86
430.978	7.86
431.181	7.95
431.384	8.05
431.587	8.1
431.79	8.42
431.993	8.44
432.196	8.78
432.399	9.07
432.602	9.16
432.805	9.36
433.008	9.83
433.211	9.79
433.414	10.09
433.616	10.01
433.819	10.05
434.022	10.13
434.225	10.38
434.428	10.46
434.631	10.77
434.833	10.53
435.036	10.87
435.239	11.16
435.442	11.07
435.645	11.25
435.847	11.35
436.05	11.59
436.253	11.82
436.455	11.94
436.658	11.88
436.861	12.07
437.063	12.22
437.266	12.12
437.468	12.56
437.671	12.91
437.874	12.8
438.076	12.71
438.279	13.31
438.481	13.19
438.684	14.04
438.886	13.55
439.089	13.75
439.291	13.94
439.494	14.1
439.696	14.35
439.899	14.9
440.101	15.34
440.303	15.55
440.506	16.21
440.708	16.01
440.91	16.29
441.113	16.56
441.315	16.6
441.517	16.41
441.72	17.01
441.922	16.6
442.124	16.43
442.326	16.86
442.529	17.05
442.731	16.96
442.933	17.28
443.135	17.21
443.337	17.24
443.539	17.62
443.742	17.28
443.944	17.98
444.146	17.68
444.348	17.79
444.55	17.59
444.752	17.89
444.954	17.91
445.156	17.85
445.358	18.22
445.56	18.51
445.762	18.14
445.964	18.52
446.166	18.51
446.368	18.36
446.57	18.55
446.772	17.89
446.974	17.72
447.175	18.11
447.377	17.85
447.579	18.22
447.781	17.88
447.983	17.59
448.184	17.16
448.386	17.82
448.588	17.21
448.79	17.07
448.991	17.46
449.193	17.35
449.395	16.75
449.597	16.47
449.798	16.18
450	15.91
450.202	15.84
450.403	15.83
450.605	15.64
450.806	15.34
451.008	15.28
451.21	15.12
451.411	14.68
451.613	13.92
451.814	14.03
452.016	14.19
452.217	13.28
452.419	13.37
452.62	13.07
452.821	12.84
453.023	12.72
453.224	12.47
453.426	11.9
453.627	11.27
453.828	11.37
454.03	11.41
454.231	11.33
454.432	11.07
454.634	11.01
454.835	10.53
455.036	10.59
455.238	10.12
455.439	10
455.64	9.61
455.841	9.6
456.042	9.64
456.244	9.26
456.445	9.01
456.646	8.71
456.847	8.76
457.048	8.6
457.249	8.62
457.45	8.43
457.651	7.85
457.852	7.67
458.054	7.37
458.255	7.28
458.456	7.45
458.657	7.32
458.858	6.82
459.058	6.63
459.259	6.8
459.46	6.54
459.661	6.51
459.862	6.55
460.063	6.41
460.264	6.29
460.465	6.04
460.666	6.13
460.866	5.87
461.067	5.61
461.268	5.68
461.469	5.57
461.67	5.43
461.87	5.3
462.071	5.31
462.272	5.2
462.473	5.17
462.673	5.36
462.874	5.19
463.075	5.21
463.275	5.09
463.476	5.21
463.676	5.15
463.877	4.99
464.078	5
464.278	4.99
464.479	4.82
464.679	4.82
464.88	4.74
465.08	4.8
465.281	4.63
465.481	4.32
465.682	4.2
465.882	4.26
466.083	4.16
466.283	4.15
466.483	3.94
466.684	3.79
466.884	3.68
467.085	3.67
467.285	3.79
467.485	3.72
467.686	3.53
467.886	3.47
468.086	3.43
468.286	3.39
468.487	3.41
468.687	3.32
468.887	3.24
469.087	3.38
469.287	3.26
469.488	3.1
469.688	3.29
469.888	3.26
470.088	3.15
470.288	3.14
470.488	3.07
470.688	2.84
470.888	2.91
471.088	2.73
471.288	2.84
471.488	2.86
471.688	2.75
471.888	2.72
472.088	2.88
472.288	2.74
472.488	2.68
472.688	2.6
472.888	2.66
473.088	2.65
473.288	2.5
473.488	2.49
473.688	2.7
473.887	2.55
474.087	2.45
474.287	2.43
474.487	2.42
474.687	2.46
474.886	2.38
475.086	2.32
475.286	2.38
475.486	2.27
475.685	2.29
475.885	2.27
476.085	2.31
476.284	2.26
476.484	2.32
476.684	2.23
476.883	2.31
477.083	2.24
477.282	2.15
477.482	2.25
477.681	2.19
477.881	2.12
478.08	2.11
478.28	2.08
478.479	2.14
478.679	2.19
478.878	2.07
479.078	2.03
479.277	2.07
479.477	2.16
479.676	2.05
479.875	2.02
480.075	1.99
480.274	2
480.473	2.02
480.673	2.07
480.872	2.1
481.071	2.07
481.271	2
481.47	2.05
481.669	2.02
481.868	2
482.067	1.99
482.267	1.96
482.466	1.95
482.665	1.99
482.864	1.99
483.063	1.97
483.262	2.02
483.461	2.1
483.661	2.12
483.86	2
484.059	2.07
484.258	2.09
484.457	2.02
484.656	2.06
484.855	2.13
485.054	1.9
485.253	2
485.452	1.95
485.651	2.05
485.849	2.07
486.048	2
486.247	2.07
486.446	2.1
486.645	2.03
486.844	2.12
487.043	2.07
487.241	2.14
487.44	2.09
487.639	2.13
487.838	2.14
488.037	2.16
488.235	2.26
488.434	2.16
488.633	2.1
488.831	2.22
489.03	2.17
489.229	2.25
489.427	2.22
489.626	2.3
489.825	2.28
490.023	2.32
490.222	2.27
490.42	2.28
490.619	2.36
490.817	2.36
491.016	2.34
491.214	2.41
491.413	2.39
491.611	2.37
491.81	2.4
492.008	2.47
492.207	2.53
492.405	2.54
492.604	2.43
492.802	2.54
493	2.59
493.199	2.59
493.397	2.66
493.595	2.73
493.794	2.65
493.992	2.79
494.19	2.74
494.388	2.81
494.587	2.74
494.785	2.77
494.983	2.72
495.181	2.86
495.379	2.92
495.578	2.92
495.776	2.93
495.974	2.95
496.172	2.93
496.37	3.06
496.568	3.11
496.766	3.08
496.964	3.13
497.162	3.16
497.36	3.23
497.558	3.22
497.756	3.3
497.954	3.29
498.152	3.37
498.35	3.41
498.548	3.39
498.746	3.37
498.944	3.43
499.142	3.4
499.34	3.46
499.538	3.62
499.736	3.5
499.933	3.61
500.131	3.62
500.329	3.72
500.527	3.72
500.725	3.88
500.922	3.83
501.12	3.87
501.318	3.96
501.516	3.9
501.713	4.04
501.911	3.99
502.109	3.91
502.306	4.09
502.504	4.02
502.701	4.06
502.899	4.11
503.097	4.32
503.294	4.18
503.492	4.31
503.689	4.35
503.887	4.34
504.084	4.42
504.282	4.41
504.479	4.35
504.677	4.56
504.874	4.51
505.072	4.47
505.269	4.6
505.466	4.67
505.664	4.68
505.861	4.64
506.059	4.69
506.256	4.78
506.453	4.78
506.651	4.92
506.848	5.01
507.045	4.99
507.242	4.93
507.44	4.95
507.637	5.07
507.834	5.02
508.031	5.2
508.229	5.04
508.426	5.12
508.623	5.28
508.82	5.26
509.017	5.2
509.214	5.22
509.411	5.41
509.608	5.35
509.805	5.37
510.003	5.42
510.2	5.54
510.397	5.65
510.594	5.48
510.791	5.59
510.988	5.58
511.184	5.62
511.381	5.5
511.578	5.64
511.775	5.78
511.972	5.67
512.169	5.77
512.366	5.76
512.563	5.86
512.76	5.97
512.956	6.02
513.153	5.91
513.35	5.87
513.547	5.9
513.744	6.02
513.94	5.97
514.137	6.05
514.334	6.13
514.53	6.14
514.727	6.32
514.924	6.22
515.12	6.2
515.317	6.22
515.514	6.13
515.71	6.14
515.907	6.42
516.103	6.41
516.3	6.31
516.497	6.48
516.693	6.4
516.89	6.45
517.086	6.43
517.283	6.46
517.479	6.4
517.676	6.62
517.872	6.61
518.068	6.61
518.265	6.61
518.461	6.49
518.658	6.68
518.854	6.69
519.05	6.75
519.247	6.81
519.443	6.67
519.639	6.85
519.836	6.71
520.032	6.67
520.228	6.9
520.424	6.78
520.621	6.87
520.817	6.89
521.013	6.88
521.209	7.01
521.405	7.03
521.601	6.99
521.798	6.96
521.994	7
522.19	6.94
522.386	6.97
522.582	7.08
522.778	7.21
522.974	7.1
523.17	7.11
523.366	7.05
523.562	7.14
523.758	7.13
523.954	6.98
524.15	7.21
524.346	7.23
524.542	7.22
524.738	7.18
524.934	7.3
525.129	7.22
525.325	7.21
525.521	7.2
525.717	7.42
525.913	7.24
526.109	7.26
526.304	7.44
526.5	7.37
526.696	7.44
526.892	7.39
527.087	7.54
527.283	7.53
527.479	7.49
527.674	7.31
527.87	7.45
528.066	7.49
528.261	7.48
528.457	7.39
528.653	7.53
528.848	7.6
529.044	7.6
529.239	7.49
529.435	7.47
529.63	7.43
529.826	7.56
530.021	7.53
530.217	7.58
530.412	7.54
530.608	7.51
530.803	7.6
530.999	7.48
531.194	7.56
531.389	7.62
531.585	7.67
531.78	7.73
531.975	7.72
532.171	7.76
532.366	7.66
532.561	7.74
532.757	7.64
532.952	7.91
533.147	7.64
533.342	7.7
533.538	7.62
533.733	7.87
533.928	7.54
534.123	7.77
534.318	7.78
534.513	7.7
534.709	7.85
534.904	7.76
535.099	7.86
535.294	7.83
535.489	7.91
535.684	7.79
535.879	7.75
536.074	7.88
536.269	7.91
536.464	7.87
536.659	7.81
536.854	7.86
537.049	7.9
537.244	7.86
537.439	7.82
537.634	7.86
537.828	7.93
538.023	7.88
538.218	7.89
538.413	7.79
538.608	7.87
538.803	7.9
538.997	7.92
539.192	7.97
539.387	7.84
539.582	7.84
539.776	7.78
539.971	7.93
540.166	8
540.36	7.91
540.555	8.05
540.75	7.96
540.944	7.97
541.139	8.02
541.334	7.97
541.528	7.99
541.723	8.04
541.917	8.05
542.112	7.92
542.306	7.85
542.501	7.88
542.695	7.9
542.89	7.89
543.084	7.94
543.279	8.04
543.473	8.03
543.668	8.01
543.862	7.88
544.056	7.86
544.251	8
544.445	8.08
544.64	8.09
544.834	7.75
545.028	7.68
545.222	7.97
545.417	8.19
545.611	8.07
545.805	7.98
546	7.83
546.194	8.16
546.388	8.05
546.582	8
546.776	8.01
546.97	8.01
547.165	8.01
547.359	8.03
547.553	7.94
547.747	7.98
547.941	8.12
548.135	8
548.329	8.03
548.523	8.15
548.717	7.94
548.911	7.95
549.105	7.97
549.299	8.09
549.493	8.09
549.687	7.97
549.881	8.13
550.075	8.12
550.269	7.86
550.463	8.1
550.657	8.07
550.85	8.07
551.044	8.02
551.238	8.15
551.432	8.05
551.626	8.07
551.82	8.12
552.013	7.91
552.207	8.12
552.401	8.12
552.594	7.99
552.788	8.02
552.982	8.02
553.176	7.94
553.369	8.22
553.563	8.12
553.756	8.05
553.95	8.09
554.144	8.12
554.337	8.11
554.531	7.88
554.724	8.06
554.918	8.13
555.111	8.03
555.305	8.15
555.498	8.02
555.692	8.17
555.885	8.11
556.079	7.97
556.272	8.09
556.466	8.05
556.659	8.07
556.852	8.16
557.046	8.05
557.239	7.96
557.432	8.03
557.626	8.15
557.819	8.08
558.012	8.08
558.206	8.13
558.399	8.1
558.592	8.02
558.785	7.92
558.979	8.09
559.172	8
559.365	8.08
559.558	8.02
559.751	8.03
559.944	8.12
560.138	8.08
560.331	8.09
560.524	8.07
560.717	8.05
560.91	8.07
561.103	8.11
561.296	7.94
561.489	8.12
561.682	8.15
561.875	8.09
562.068	8.18
562.261	7.99
562.454	8.18
562.647	8.05
562.84	8.04
563.032	8.09
563.225	8.03
563.418	8.06
563.611	8.04
563.804	8.12
563.997	7.94
564.19	7.81
564.382	8.15
564.575	8.08
564.768	7.96
564.961	8.14
565.153	8.01
565.346	8
565.539	8.08
565.731	8.02
565.924	8.13
566.117	8.24
566.309	8.07
566.502	8.03
566.695	7.94
566.887	8.05
567.08	8.04
567.272	8.16
567.465	7.93
567.657	8.09
567.85	7.9
568.042	8.04
568.235	8.13
568.427	7.86
568.62	7.99
568.812	7.93
569.005	8.07
569.197	7.92
569.389	8
569.582	8.09
569.774	8.04
569.966	7.94
570.159	7.91
570.351	7.9
570.543	8.02
570.736	7.99
570.928	7.83
571.12	8.07
571.312	7.98
571.505	7.74
571.697	8.04
571.889	7.99
572.081	7.97
572.273	7.89
572.465	8.03
572.658	7.97
572.85	7.97
573.042	7.92
573.234	7.85
573.426	7.88
573.618	7.88
573.81	7.97
574.002	7.88
574.194	7.95
574.386	7.92
574.578	7.81
574.77	7.91
574.962	7.92
575.154	7.77
575.346	7.8
575.538	7.81
575.729	7.84
575.921	7.89
576.113	7.9
576.305	7.92
576.497	8.01
576.689	7.77
576.88	7.73
577.072	7.91
577.264	7.85
577.456	7.82
577.647	7.76
577.839	7.9
578.031	7.81
578.223	7.8
578.414	7.7
578.606	7.8
578.798	7.88
578.989	7.74
579.181	7.83
579.372	7.76
579.564	7.77
579.755	7.72
579.947	7.67
580.139	7.78
580.33	7.65
580.522	7.72
580.713	7.71
580.905	7.64
581.096	7.8
581.287	7.71
581.479	7.72
581.67	7.74
581.862	7.66
582.053	7.69
582.244	7.53
582.436	7.7
582.627	7.58
582.818	7.53
583.01	7.56
583.201	7.67
583.392	7.59
583.583	7.58
583.775	7.44
583.966	7.56
584.157	7.56
584.348	7.7
584.54	7.53
584.731	7.51
584.922	7.49
585.113	7.36
585.304	7.53
585.495	7.54
585.686	7.59
585.877	7.55
586.068	7.61
586.259	7.54
586.45	7.43
586.641	7.43
586.832	7.56
587.023	7.44
587.214	7.4
587.405	7.46
587.596	7.33
587.787	7.31
587.978	7.4
588.169	7.36
588.36	7.27
588.551	7.34
588.742	7.38
588.932	7.4
589.123	7.2
589.314	7.45
589.505	7.29
589.696	7.28
589.886	7.25
590.077	7.33
590.268	7.29
590.458	7.13
590.649	7.05
590.84	7.28
591.03	7.27
591.221	7.21
591.412	7.18
591.602	7.35
591.793	7.15
591.984	7.22
592.174	7.14
592.365	7.28
592.555	7.05
592.746	7.12
592.936	7.05
593.127	7.16
593.317	7.15
593.508	7.14
593.698	6.96
593.889	7.09
594.079	7.02
594.269	6.96
594.46	7.05
594.65	7.03
594.84	7.01
595.031	6.96
595.221	6.92
595.411	6.91
595.602	7.01
595.792	6.96
595.982	6.83
596.172	6.98
596.363	6.86
596.553	6.84
596.743	6.88
596.933	6.86
597.123	6.85
597.314	6.75
597.504	6.75
597.694	6.88
597.884	6.79
598.074	6.84
598.264	6.71
598.454	6.72
598.644	6.73
598.834	6.76
599.024	6.54
599.214	6.67
599.404	6.79
599.594	6.6
599.784	6.61
599.974	6.67
600.164	6.6
600.354	6.59
600.544	6.53
600.734	6.59
600.924	6.57
601.114	6.48
601.303	6.44
601.493	6.5
601.683	6.53
601.873	6.48
602.063	6.39
602.252	6.56
602.442	6.38
602.632	6.29
602.821	6.36
603.011	6.39
603.201	6.38
603.39	6.34
603.58	6.26
603.77	6.39
603.959	6.46
604.149	6.29
604.339	6.28
604.528	6.41
604.718	6.35
604.907	6.27
605.097	6.17
605.286	6.15
605.476	6.2
605.665	6.24
605.855	6.13
606.044	6.15
606.234	6.12
606.423	6.13
606.612	6.15
606.802	6.01
606.991	6.2
607.181	6.17
607.37	6.06
607.559	5.84
607.749	6
607.938	5.97
608.127	5.98
608.316	5.99
608.506	5.94
608.695	6.04
608.884	5.96
609.073	5.96
609.263	6.02
609.452	5.98
609.641	5.84
609.83	5.75
610.019	5.88
610.208	5.77
610.397	5.82
610.586	5.85
610.775	5.72
610.965	5.79
611.154	5.67
611.343	5.74
611.532	5.63
611.721	5.8
611.91	5.63
612.099	5.64
612.287	5.61
612.476	5.5
612.665	5.66
612.854	5.56
613.043	5.58
613.232	5.55
613.421	5.51
613.61	5.52
613.798	5.52
613.987	5.53
614.176	5.44
614.365	5.49
614.554	5.49
614.742	5.44
614.931	5.35
615.12	5.52
615.309	5.47
615.497	5.32
615.686	5.25
615.875	5.33
616.063	5.33
616.252	5.29
616.44	5.31
616.629	5.31
616.818	5.21
617.006	5.21
617.195	5.17
617.383	5.19
617.572	5.1
617.76	5.12
617.949	5.12
618.137	5.21
618.326	5.18
618.514	4.91
618.703	4.98
618.891	5.12
619.079	5
619.268	5.06
619.456	4.96
619.644	5.09
619.833	4.97
620.021	4.97
620.209	4.86
620.398	4.98
620.586	4.91
620.774	4.97
620.962	4.95
621.151	5.01
621.339	4.93
621.527	4.8
621.715	4.84
621.903	4.82
622.092	4.76
622.28	4.86
622.468	4.6
622.656	4.78
622.844	4.73
623.032	4.76
623.22	4.6
623.408	4.78
623.596	4.67
623.784	4.72
623.972	4.55
624.16	4.57
624.348	4.68
624.536	4.66
624.724	4.56
624.912	4.58
625.1	4.58
625.288	4.6
625.476	4.48
625.664	4.54
625.851	4.45
626.039	4.54
626.227	4.49
626.415	4.44
626.603	4.39
626.79	4.45
626.978	4.39
627.166	4.36
627.354	4.37
627.541	4.36
627.729	4.28
627.917	4.49
628.104	4.41
628.292	4.25
628.48	4.22
628.667	4.27
628.855	4.3
629.042	4.3
629.23	4.23
629.418	4.25
629.605	4.18
629.793	4.13
629.98	4.19
630.168	4.08
630.355	4.22
630.543	4.08
630.73	4.09
630.917	4.05
631.105	4.11
631.292	4.09
631.48	4.02
631.667	4.22
631.854	4.04
632.042	3.98
632.229	3.99
632.416	4.02
632.604	3.94
632.791	3.86
632.978	3.95
633.165	3.97
633.353	3.99
633.54	3.98
633.727	3.78
633.914	3.8
634.101	3.79
634.289	3.91
634.476	3.77
634.663	3.8
634.85	3.77
635.037	3.69
635.224	3.65
635.411	3.8
635.598	3.75
635.785	3.68
635.972	3.63
636.159	3.74
636.346	3.65
636.533	3.6
636.72	3.6
636.907	3.63
637.094	3.6
637.281	3.49
637.468	3.58
637.655	3.6
637.842	3.58
638.029	3.43
638.215	3.53
638.402	3.47
638.589	3.49
638.776	3.42
638.963	3.43
639.149	3.49
639.336	3.51
639.523	3.36
639.709	3.36
639.896	3.37
640.083	3.37
640.27	3.43
640.456	3.28
640.643	3.29
640.829	3.23
641.016	3.27
641.203	3.21
641.389	3.25
641.576	3.28
641.762	3.18
641.949	3.21
642.135	3.23
642.322	3.13
642.508	3.07
642.695	3.2
642.881	3.12
643.068	3.11
643.254	3.16
643.441	3.11
643.627	3.12
643.813	3.01
644	3.14
644.186	3.01
644.372	3.05
644.559	3.05
644.745	3
644.931	2.92
645.118	3.04
645.304	3.01
645.49	3.02
645.676	2.92
645.862	2.94
646.049	3.01
646.235	2.93
646.421	3.03
646.607	3.01
646.793	2.88
646.979	2.82
647.165	2.92
647.352	2.85
647.538	2.89
647.724	2.85
647.91	2.77
648.096	2.8
648.282	2.88
648.468	2.78
648.654	2.77
648.84	2.82
649.026	2.75
649.212	2.7
649.397	2.69
649.583	2.7
649.769	2.75
649.955	2.67
650.141	2.69
650.327	2.7
650.513	2.64
650.698	2.6
650.884	2.56
651.07	2.67
651.256	2.65
651.442	2.59
651.627	2.54
651.813	2.67
651.999	2.54
652.184	2.53
652.37	2.51
652.556	2.52
652.741	2.51
652.927	2.37
653.113	2.44
653.298	2.47
653.484	2.52
653.669	2.41
653.855	2.48
654.04	2.49
654.226	2.45
654.412	2.41
654.597	2.36
654.782	2.44
654.968	2.37
655.153	2.37
655.339	2.32
655.524	2.34
655.71	2.37
655.895	2.31
656.08	2.33
656.266	2.39
656.451	2.28
656.636	2.27
656.822	2.3
657.007	2.26
657.192	2.23
657.378	2.23
657.563	2.21
657.748	2.23
657.933	2.2
658.118	2.16
658.304	2.15
658.489	2.32
658.674	2.23
658.859	2.18
659.044	2.13
659.229	2.2
659.414	2.15
659.599	2.18
659.785	2.04
659.97	2.09
660.155	2.13
660.34	2.1
660.525	2.07
660.71	2.09
660.895	2.05
661.08	2.02
661.264	2.02
661.449	2.18
661.634	2.06
661.819	2.07
662.004	2
662.189	1.94
662.374	1.97
662.559	1.95
662.743	1.89
662.928	1.93
663.113	1.99
663.298	1.9
663.483	1.92
663.667	1.9
663.852	1.88
664.037	1.94
664.221	1.82
664.406	1.95
664.591	1.94
664.775	1.9
664.96	1.82
665.145	1.87
665.329	1.91
665.514	1.85
665.698	1.79
665.883	1.77
666.068	1.9
666.252	1.83
666.437	1.8
666.621	1.77
666.806	1.79
666.99	1.73
667.174	1.75
667.359	1.85
667.543	1.72
667.728	1.75
667.912	1.68
668.096	1.72
668.281	1.69
668.465	1.76
668.649	1.66
668.834	1.71
669.018	1.66
669.202	1.73
669.387	1.65
669.571	1.78
669.755	1.6
669.939	1.63
670.124	1.67
670.308	1.68
670.492	1.64
670.676	1.63
670.86	1.59
671.044	1.52
671.228	1.64
671.413	1.55
671.597	1.53
671.781	1.55
671.965	1.59
672.149	1.57
672.333	1.53
672.517	1.53
672.701	1.57
672.885	1.52
673.069	1.46
673.253	1.68
673.437	1.47
673.621	1.45
673.804	1.52
673.988	1.51
674.172	1.45
674.356	1.41
674.54	1.45
674.724	1.61
674.908	1.4
675.091	1.47
675.275	1.44
675.459	1.49
675.643	1.47
675.826	1.48
676.01	1.4
676.194	1.42
676.377	1.45
676.561	1.46
676.745	1.39
676.928	1.48
677.112	1.5
677.296	1.38
677.479	1.37
677.663	1.34
677.846	1.37
678.03	1.4
678.213	1.27
678.397	1.38
678.58	1.36
678.764	1.38
678.947	1.27
679.131	1.3
679.314	1.39
679.498	1.32
679.681	1.37
679.865	1.39
680.048	1.28
680.231	1.3
680.415	1.27
680.598	1.29
680.781	1.27
680.965	1.31
681.148	1.27
681.331	1.23
681.514	1.28
681.698	1.22
681.881	1.22
682.064	1.28
682.247	1.31
682.43	1.16
682.614	1.2
682.797	1.26
682.98	1.29
683.163	1.13
683.346	1.21
683.529	1.17
683.712	1.18
683.895	1.23
684.078	1.12
684.261	1.17
684.444	1.2
684.627	1.25
684.81	1.13
684.993	1.13
685.176	1.18
685.359	1.12
685.542	1.11
685.725	1.22
685.908	1.15
686.091	1.13
686.274	1.14
686.457	1.17
686.639	1.15
686.822	1.13
687.005	1.08
687.188	1.15
687.371	1.23
687.553	1.21
687.736	1.12
687.919	1.16
688.102	1.18
688.284	1.05
688.467	1.06
688.65	1.09
688.832	1.03
689.015	1.01
689.197	0.95
689.38	1.2
689.563	1.2
689.745	1
689.928	1.07
690.11	0.99
690.293	1.04
690.475	1
690.658	1.01
690.84	0.98
691.023	1.03
691.205	0.98
691.388	0.97
691.57	1.06
691.752	1.03
691.935	0.91
692.117	0.94
692.3	0.99
692.482	0.95
692.664	0.95
692.847	0.95
693.029	1.02
693.211	0.97
693.393	0.88
693.576	0.9
693.758	0.97
693.94	0.87
694.122	0.9
694.304	0.88
694.487	0.9
694.669	0.98
694.851	0.84
695.033	0.9
695.215	0.88
695.397	0.87
695.579	0.92
695.761	0.82
695.943	0.82
696.125	1.03
696.308	0.89
696.49	0.74
696.671	1
696.853	0.84
697.035	1.08
697.217	0.87
697.399	0.94
697.581	0.81
697.763	0.84
697.945	0.79
698.127	0.88
698.309	0.91
698.491	0.88
698.672	0.84
698.854	0.83
699.036	0.9
699.218	0.79
699.399	0.88
699.581	0.85
699.763	0.84
699.945	0.72
700.126	0.7
700.308	0.84
700.49	0.79
700.671	0.65
700.853	0.7
701.035	0.7
701.216	0.77
701.398	0.68
701.579	0.8
701.761	0.82
701.943	0.76
702.124	0.75
702.306	0.77
702.487	0.91
702.669	0.74
702.85	0.73
703.031	0.67
703.213	0.85
703.394	0.86
703.576	0.74
703.757	0.89
703.938	0.77
704.12	0.96
704.301	0.79
704.483	0.71
704.664	0.78
704.845	0.84
705.026	0.76
705.208	0.72
705.389	0.85
705.57	0.76
705.751	0.76
705.933	0.82
706.114	0.8
706.295	0.72
706.476	0.62
706.657	0.79
706.838	0.8
707.02	0.79
707.201	0.71
707.382	0.67
707.563	0.74
707.744	0.63
707.925	0.66
708.106	0.61
708.287	0.7
708.468	0.85
708.649	0.72
708.83	0.69
709.011	0.69
709.192	0.73
709.373	0.58
709.554	0.67
709.734	0.75
709.915	0.72
710.096	0.64
710.277	0.5
710.458	0.69
710.639	0.71
710.819	0.55
711	0.62
711.181	0.76
711.362	0.75
711.542	0.67
711.723	0.58
711.904	0.7
712.085	0.7
712.265	0.6
712.446	0.55
712.627	0.59
712.807	0.6
712.988	0.65
713.168	0.56
713.349	0.68
713.53	0.51
713.71	0.5
713.891	0.54
714.071	0.58
714.252	0.58
714.432	0.59
714.613	0.43
714.793	0.64
714.974	0.74
715.154	0.73
715.334	0.64
715.515	0.77
715.695	0.51
715.876	0.59
716.056	0.56
716.236	0.59
716.417	0.53
716.597	0.51
716.777	0.76
716.957	0.51
717.138	0.62
717.318	0.54
717.498	0.41
717.678	0.56
717.859	0.56
718.039	0.45
718.219	0.61
718.399	0.54
718.579	0.54
718.759	0.5
718.939	0.58
719.12	0.57
719.3	0.52
719.48	0.44
719.66	0.48
719.84	0.71
720.02	0.59
720.2	0.46
720.38	0.54
720.56	0.69
720.74	0.44
720.92	0.53
721.1	0.65
721.279	0.54
721.459	0.55
721.639	0.41
721.819	0.5
721.999	0.54
722.179	0.51
722.359	0.39
722.538	0.56
722.718	0.52
722.898	0.5
723.078	0.48
723.257	0.5
723.437	0.48
723.617	0.48
723.797	0.45
723.976	0.5
724.156	0.6
724.336	0.64
724.515	0.73
724.695	0.38
724.874	0.48
725.054	0.55
725.234	0.4
725.413	0.48
725.593	0.52
725.772	0.49
725.952	0.5
726.131	0.54
726.311	0.54
726.49	0.45
726.67	0.37
726.849	0.41
727.028	0.49
727.208	0.56
727.387	0.46
727.567	0.33
727.746	0.49
727.925	0.49
728.105	0.38
728.284	0.43
728.463	0.36
728.643	0.54
728.822	0.4
729.001	0.43
729.18	0.49
729.359	0.51
729.539	0.47
729.718	0.45
729.897	0.61
730.076	0.41
730.255	0.35
730.434	0.44
730.614	0.51
730.793	0.54
730.972	0.43
731.151	0.41
731.33	0.58
731.509	0.62
731.688	0.36
731.867	0.52
732.046	0.31
732.225	0.67
732.404	0.33
732.583	0.36
732.762	0.49
732.941	0.61
733.12	0.46
733.298	0.47
733.477	0.59
733.656	0.4
733.835	0.33
734.014	0.54
734.193	0.44
734.371	0.55
734.55	0.57
734.729	0.34
734.908	0.47
735.086	0.4
735.265	0.45
735.444	0.25
735.623	0.33
735.801	0.46
735.98	0.38
736.159	0.47
736.337	0.55
736.516	0.53
736.694	0.37
736.873	0.33
737.052	0.67
737.23	0.62
737.409	0.41
737.587	0.67
737.766	0.27
737.944	0.43
738.123	0.46
738.301	0.54
738.479	0.48
738.658	0.44
738.836	0.19
739.015	0.59
739.193	0.5
739.371	0.41
739.55	0.42
739.728	0.38
739.906	0.6
740.085	0.63
740.263	0.53
740.441	0.23
740.62	0.74
740.798	0.53
740.976	0.36
741.154	0.33
741.332	0.67
741.511	0.46
741.689	0.46
741.867	0.45
742.045	0.61
742.223	0.49
742.401	0.26
742.579	0.29
742.757	0.56
742.935	0.31
743.114	0.43
743.292	0.32
743.47	0.53
743.648	0.5
743.826	0.27
744.004	0.49
744.181	0.56
744.359	0.34
744.537	0.43
744.715	0.32
744.893	0.47
745.071	0.41
745.249	0.39
745.427	0.49
745.605	0.44
745.782	0.36
745.96	0.48
746.138	0.54
746.316	0.54
746.493	0.31
746.671	0.37
746.849	0.34
747.027	0.55
747.204	0.28
747.382	0.5
747.56	0.24
747.737	0.56
747.915	0.37
748.093	0.45
748.27	0.22
748.448	0.52
748.625	0.22
748.803	0.41
748.98	0.3
749.158	0.41
749.335	0.45
749.513	0.33
749.69	0.39
749.868	0.38
750.045	0.47
750.223	0.28
750.4	0.14
750.578	0.56
750.755	0.43
750.932	0.23
751.11	0.52
751.287	0.27
751.464	0.56
751.642	0.2
751.819	0.44
751.996	0.48
752.173	0.38
752.351	0.17
752.528	0.37
752.705	0.33
752.882	0.28
753.06	0.4
753.237	0.33
753.414	0.62
753.591	0.65
753.768	0.37
753.945	0.34
754.122	0.36
754.299	0.4
754.476	0.23
754.654	0.31
754.831	0.44
755.008	0.48
755.185	0.29
755.362	0.17
755.539	0.46
755.716	0.29
755.892	0.29
756.069	0.26
756.246	0.37
756.423	0.33
756.6	0.56
756.777	0.24
756.954	0.45
757.131	0.37
757.307	0.25
757.484	0.22
757.661	0.46
757.838	0.42
758.015	0.11
758.191	0.41
758.368	0.34
758.545	0.57
758.721	0.38
758.898	0.23
759.075	0.44
759.251	0.37
759.428	0.39
759.605	0.22
759.781	0.3
759.958	0.44
760.134	0.34
760.311	0.23
760.488	0.5
760.664	0.54
760.841	0.36
761.017	0.18
761.194	0.33
761.37	0.55
761.547	0.27
761.723	0.34
761.899	0.51
762.076	0.26
762.252	0.2
762.429	0.31
762.605	0.49
762.781	0.34
762.958	0.37
763.134	0.28
763.31	0.32
763.486	0.48
763.663	0.1
763.839	0.37
764.015	0.17
764.191	0.22
764.368	0.36
764.544	0.21
764.72	0.45
764.896	0.39
765.072	0.3
765.248	0.34
765.425	0.31
765.601	0.4
765.777	0.39
765.953	0.02
766.129	0.27
766.305	0.3
766.481	0.4
766.657	0.31
766.833	0.52
767.009	0.28
767.185	0.21
767.361	0.52
767.537	0.14
767.713	0.53
767.889	0.28
768.065	0.37
768.24	0.33
768.416	0.48
768.592	0.19
768.768	0.42
768.944	0.51
769.12	0.13
769.295	0.26
769.471	0.32
769.647	0.31
769.823	0.56
769.998	0.23
770.174	0.12
770.35	0.88
770.525	0.66
770.701	0.34
770.877	0.26
771.052	0.2
771.228	0.5
771.403	0.49
771.579	0.29
771.755	0.72
771.93	0.28
772.106	0.12
772.281	-0.04
772.457	0.41
772.632	0.39
772.808	-0.04
772.983	0.3
773.159	0.22
773.334	0.39
773.509	0.43
773.685	0.18
773.86	0.81
774.036	0.52
774.211	0.4
774.386	0.28
774.562	0.43
774.737	0.35
774.912	0.15
775.087	0.54
775.263	0.5
775.438	0.33
775.613	0.17
775.788	0.27
775.964	0.4
776.139	0.88
776.314	0.04
776.489	0.39
776.664	0.5
776.839	0.29
777.014	0.47
777.19	0.41
777.365	0.74
777.54	0.58
777.715	0.29
777.89	0.3
778.065	0.34
778.24	0.31
778.415	0.31
778.59	0.13
778.765	0.26
778.94	0.46
779.115	0.25
779.289	0.3
779.464	0.32
779.639	0.4
779.814	0.06
779.989	0.11
780.164	0.48
780.339	0.55
780.513	0.21
780.688	0.15
780.863	0.35
781.038	0.48
781.212	0.24
781.387	0.37
781.562	0.79
781.737	0.26
781.911	0.6
782.086	0.16
782.261	0.31
782.435	0.71
782.61	0.21
782.784	0.31
782.959	0.67
783.134	0.29
783.308	0.19
783.483	0.32
783.657	0.97
783.832	0.68
784.006	0.15
784.181	0.53
784.355	0.49
784.53	0.18
784.704	0.17
784.878	0.56
785.053	0.38
785.227	0.6
785.402	0.63
785.576	0.2
785.75	0.51
785.925	0.49
786.099	0.38
786.273	0.46
786.448	0.7
786.622	0.68
786.796	0.21
786.97	0.41
787.145	1.09
787.319	0.15
787.493	0.3
787.667	0.06
787.841	0.55
788.015	0.74
788.19	0.16
788.364	0.36
788.538	0.65
788.712	0.63
788.886	0.43
789.06	0.64
789.234	0.54
789.408	0.3
789.582	0.19
789.756	0.39
789.93	0.22
790.104	0.32
790.278	0.22
790.452	0.19
790.626	0.48
790.8	0.21
790.973	0.54
791.147	0.86
791.321	0.66
791.495	0.77
791.669	0.33
791.843	0.45
792.016	0.55
792.19	0.79
792.364	0.3
792.538	1.01
792.711	0.66
792.885	0.12
793.059	-0.04
793.233	-0.2
793.406	0.54
793.58	0.4
793.754	0.54
793.927	0.17
794.101	0.75
794.274	0.4
794.448	0.63
794.622	-0.01
794.795	1.18
794.969	0.29
795.142	0.84
795.316	0.26
795.489	0.18
795.663	0.89
795.836	0.38
796.009	0.26
796.183	0.94
796.356	0.48
796.53	0.25
796.703	0.4
796.876	1.06
797.05	0.42
797.223	0.18
797.396	0.41
797.57	0.39
797.743	0.93
797.916	0.43
798.09	0.66
798.263	0.69
798.436	0.5
798.609	0.34
798.782	0.43
798.956	0.36
799.129	0.42
799.302	0.48
799.475	0.12
799.648	0.26
799.821	0.2
799.994	0.33
800.167	-0.14
800.34	0.49
800.514	0.41
800.687	0.15
800.86	0.33
801.033	0.74
801.206	0.73
801.379	0.18
801.551	0.75
801.724	0.55
801.897	1.12
802.07	0.42
802.243	-0.13
802.416	0.47
802.589	0.38
802.762	0.58
802.935	0.58
803.107	0.66
803.28	1.1
803.453	0.72
803.626	0.19
803.798	0.49
803.971	0.05
804.144	0.41
804.317	0.56
804.489	0.67
804.662	0.72
804.835	0.47
805.007	0.49
805.18	0.97
805.353	0.45
805.525	-0.01
805.698	0.19
805.87	0.84
806.043	0.84
806.215	0.25
806.388	0.02
806.56	0.67
806.733	1.08
806.905	0.72
807.078	0.43
807.25	0.13
807.423	0.67
807.595	0.56
807.768	0.44
807.94	0.77
808.112	0.43
808.285	0.58
808.457	0.21
808.629	0.53
808.802	0.94
808.974	0.41
809.146	0.19
809.318	0.37
809.491	0.77
809.663	0.82
809.835	0.01
810.007	0.4
810.18	0.77
810.352	0.31
810.524	0.38
810.696	0.45
810.868	0.95
811.04	0.46
811.212	0.11
811.384	0.83
811.556	0.46
811.728	0.22
811.901	1.35
812.073	0.02
812.245	1.05
812.417	0.68
812.589	-0.27
812.76	0.76
812.932	0.87
813.104	1.01
813.276	0.31
813.448	1.04
813.62	0.43
813.792	0.32
813.964	0.35
814.136	1.11
814.307	0.43
814.479	0.39
814.651	0.17
814.823	1.92
814.995	0.36
815.166	0.53
815.338	0.05
815.51	-0.26
815.681	2.09
815.853	0.31
816.025	0.61
816.196	1.21
816.368	0.9
816.54	0.09
816.711	0.07
816.883	1.65
817.054	1.58
817.226	-0.1
817.398	0.59
817.569	0.61
817.741	0.39
817.912	0.44
818.084	0.51
818.255	1.04
818.426	-0.24
818.598	0.62
818.769	0.46
818.941	0.8
819.112	1.5
819.283	0.75
819.455	0.04
819.626	0.79
819.798	0.93
819.969	0.84
820.14	0.49
820.311	0.12
820.483	0.97
820.654	0.86
820.825	0.32
820.996	0.54
821.168	0.17
821.339	-0.14
821.51	-0.17
821.681	0.46
821.852	0.85
822.023	0.04
822.195	0.22
822.366	1.07
822.537	0.33
822.708	0.78
822.879	0.58
823.05	1.14
823.221	0.27
823.392	0.9
823.563	0.72
823.734	0.54
823.905	0.4
824.076	0.4
824.247	0.3
824.418	0.63
824.589	1.47
824.759	0.24
824.93	0.45
825.101	0.06
825.272	1.99
825.443	1.52
825.614	1.41
825.784	0.14
825.955	1.53
826.126	1.04
826.297	0.46
826.467	1.36
826.638	2.07
826.809	0.18
826.98	0.5
827.15	1.2
827.321	1.11
827.492	1.78
827.662	0.58
827.833	2.39
828.003	0.71
828.174	-0.38
828.345	-0.09
828.515	1.73
828.686	1.1
828.856	0.07
829.027	1
829.197	0.42
829.368	1.15
829.538	-0.29
829.709	0.68
829.879	1.02
830.049	0.55
830.22	0.84
830.39	0.11
830.56	1.43
830.731	1.12
830.901	0.47
831.072	0.71
831.242	0.98
831.412	0.83
831.582	0.69
831.753	-0.07
831.923	1.35
832.093	1.01
832.263	0.58
832.434	-0.19
832.604	0.18
832.774	1.27
832.944	0.73
833.114	0.6
833.284	1.28
833.454	0.94
833.624	-0.38
833.795	0.5
833.965	2.2
834.135	1.73
834.305	-0.23
834.475	-0
834.645	0.73
834.815	0.56
834.985	0.02
835.155	0.44
835.325	1.18
835.494	1.47
835.664	0.34
835.834	0.02
836.004	0.79
836.174	1.41
836.344	0.96
836.514	-0.47
836.684	0.14
836.853	1.15
837.023	0.47
837.193	0.07
837.363	2.34
837.532	1.45
837.702	0.92
837.872	0.34
838.041	0.86
838.211	2.35
838.381	-0.66
838.55	0.64
838.72	3.39
838.89	2.39
839.059	0.98
839.229	-0.14
839.398	2.42
839.568	1.61
839.738	0.62
839.907	1.52
840.077	0.89
840.246	0.5
840.416	0.44
840.585	0.15
840.755	2.71
840.924	1.75
841.093	0.21
841.263	0.31
841.432	1.37
841.602	0.24
841.771	-0.12
841.94	0.52
842.11	3.29
842.279	1.8
842.448	-0.29
842.617	-0.38
842.787	2.48
842.956	-0
843.125	0.84
843.294	0.92
843.464	2.09
843.633	1.21
843.802	0.44
843.971	-0.07
844.14	1.26
844.309	2.02
844.479	-1.34
844.648	0.01
844.817	0.92
844.986	0.92
845.155	0.35
845.324	0.44
845.493	0.53
845.662	0.79
845.831	1.17
846	1.24
846.169	0.94
846.338	2.86
846.507	0.93
846.676	0.93
846.844	0.12
847.013	2.22
847.182	0.51
847.351	0.52
847.52	0.45
847.689	1.27
847.858	-0.29
848.026	0.54
848.195	2.03
848.364	0.68
848.533	-0.42
848.701	0.15
848.87	1.51
849.039	2.87
849.207	2
849.376	2.21
849.545	2.7
849.713	-0.11
849.882	0.26
850.051	1.02
850.219	1.72
850.388	1.75
850.556	0.18
850.725	0.05
850.893	1.68
851.062	1.14
851.23	1.89
851.399	-0.09
851.567	1.09
851.736	0.17
851.904	0.44
852.073	1.36
852.241	2.49
852.41	2.17
852.578	1.6
852.746	0.65
852.915	2.63
853.083	0.65
853.251	-0.38
853.42	0.61
853.588	1.06
853.756	2.12
853.924	0.8
854.093	0.81
854.261	0.61
854.429	-0.38
854.597	1.34
854.765	-0.52
854.934	2.8
855.102	2.79
855.27	0.32
855.438	2.44
855.606	3.59
855.774	2.79
855.942	-0.37
856.11	-1.24
856.278	1
856.446	2.28
856.614	1.66
856.782	1.51
856.95	2.28
857.118	1.18
857.286	1.38
857.454	0.83
857.622	3.02
857.79	1.66
857.958	-0.08
858.126	-0.42
858.294	-2.34
858.462	1.51
858.629	-0.08
858.797	-0.27
858.965	1.58
859.133	1.48
859.301	1.59
859.468	0.58
859.636	-0.64
859.804	4.35
859.971	1.81
860.139	0.25
860.307	2.61
860.474	0.83
860.642	0.34
860.81	-0.15
860.977	2.11
861.145	3.61
861.313	-0.19
861.48	1.07
861.648	2.09
861.815	0.54
861.983	-0.74
862.15	0.55
862.318	2.49
862.485	2.85
862.653	0.33
862.82	-0.36
862.988	4.33
863.155	-0.32
863.322	0.6
863.49	-1.32
863.657	1.84
863.824	3.35
863.992	2.04
864.159	1.3
864.326	3.3
864.494	0.3
864.661	4.08
864.828	-0.79
864.996	4.38
865.163	3.54
865.33	0.82
865.497	-1.66
865.664	0.83
865.832	-0.18
865.999	0.89
866.166	1.03
866.333	1.28
866.5	0.94
866.667	1.95
866.834	0.25
867.001	3.28
867.168	-0.58
867.335	2.21
867.502	-0.7
867.669	2.18
867.836	4.04
868.003	0.52
868.17	1.22
868.337	4.86
868.504	5.14
868.671	-0.26
868.838	0.64
869.005	0.72
869.172	1.98
869.339	0.33
869.505	0.12
869.672	2.57
869.839	3.96
870.006	3.05
870.173	-0.51
870.339	2.58
870.506	3.68
870.673	-0.3
870.84	2.98
871.006	2.63
871.173	1.99
871.34	1.98
871.506	0.16
871.673	1.75
871.839	-0.28
872.006	2.03
872.173	0.18
872.339	1.83
872.506	3.66
872.672	1.08
872.839	-1.23
873.005	2.21
873.172	6.38
873.338	2.17
873.505	1.89
873.671	5.28
873.838	2.93
874.004	-2.15
874.171	1.28
874.337	3.17
874.503	1.56
874.67	0.19
874.836	1.48
875.002	4.44
875.169	5.38
875.335	2.46
875.501	1.42
875.668	2.32
875.834	0.26
876	1.31
876.166	1.62
876.332	2.73
876.499	5.9
876.665	1.59
876.831	1.02
876.997	6.59
877.163	3.08
877.329	0.67
877.495	1.92
877.662	4.41
877.828	2.25
877.994	1.06
878.16	-2.39
878.326	-0
878.492	2.05
878.658	0.55
878.824	3.43
878.99	3.14
879.156	-0.67
879.322	5.67
879.487	1.3
879.653	0.99
879.819	2.51
879.985	0.68
880.151	3.86
880.317	2.22
880.483	3.43
880.648	4.24
880.814	-1.83
880.98	2.12
881.146	-3.14
881.312	0.47
881.477	1.8
881.643	1.56
881.809	5.27
881.974	3.55
882.14	-0.21
882.306	2.76
882.471	6.19
882.637	-0.3
882.803	2.43
882.968	4.35
883.134	5.96
883.299	0.95
883.465	-0.58
883.63	2.7
883.796	2.05
883.961	3.84
884.127	2.88
884.292	-2.27
884.458	0.05
884.623	0.05
