Data from Apollo_Calib_20240827__AbsoluteIrradiance__867__13-36-01-186.txt Node

Date: Wed Aug 28 13:36:01 BST 2024
User: biology
Spectrometer: FLMT08252
Trigger mode: 0
Integration Time (sec): 5.000000E-1
Scans to average: 5
Electric dark correction enabled: true
Nonlinearity correction enabled: false
Boxcar width: 0
XAxis mode: Wavelengths
Number of Pixels in Spectrum: 3648
>>>>>Begin Spectral Data<<<<<
179.588	-0
179.809	-0
180.03	-0
180.251	-0
180.473	-0
180.694	0
180.915	0
181.136	-0
181.357	0
181.578	0
181.799	0
182.02	-0
182.241	-0
182.462	-0
182.683	0
182.904	-0
183.125	-0
183.346	0
183.567	0
183.788	0
184.009	0
184.23	0
184.451	0
184.672	0
184.892	0
185.113	0
185.334	0
185.555	0
185.776	0
185.996	0
186.217	0
186.438	0
186.659	0
186.879	0
187.1	0
187.321	0
187.541	0
187.762	0
187.983	0
188.203	0
188.424	0
188.644	0
188.865	0
189.086	0
189.306	0
189.527	0
189.747	0
189.968	0
190.188	0
190.409	0
190.629	0
190.849	0
191.07	0
191.29	0
191.511	0
191.731	0
191.951	0
192.172	0
192.392	0
192.612	0
192.833	0
193.053	0
193.273	0
193.493	0
193.714	0
193.934	0
194.154	0
194.374	0
194.594	0
194.815	0
195.035	0
195.255	0
195.475	0
195.695	0
195.915	0
196.135	0
196.355	0
196.575	0
196.795	0
197.015	0
197.235	0
197.455	0
197.675	0
197.895	0
198.115	0
198.335	0
198.555	0
198.775	0
198.995	0
199.214	0
199.434	0
199.654	0
199.874	0
200.094	4.83
200.313	2.21
200.533	2.23
200.753	1.41
200.973	3.62
201.192	3.64
201.412	1.82
201.632	1.66
201.851	3.14
202.071	1.5
202.291	1.76
202.51	1.26
202.73	2.91
202.95	1.93
203.169	1.49
203.389	1.74
203.608	2.18
203.828	1.86
204.047	1.84
204.267	2.48
204.486	2.13
204.706	2.2
204.925	1.67
205.145	1.69
205.364	2.52
205.583	2.77
205.803	1.23
206.022	1.32
206.242	1.65
206.461	1.94
206.68	1.19
206.9	1.56
207.119	2.5
207.338	2.55
207.557	1.12
207.777	1.01
207.996	1.62
208.215	2.22
208.434	0.84
208.654	1.06
208.873	1.55
209.092	2.36
209.311	0.95
209.53	0.94
209.749	1.36
209.968	1.03
210.187	0.95
210.407	0.75
210.626	1.4
210.845	1.31
211.064	0.95
211.283	0.81
211.502	1.82
211.721	1.17
211.94	1.02
212.159	1.23
212.377	1.36
212.596	1.71
212.815	0.95
213.034	1.28
213.253	1.41
213.472	1.3
213.691	1.01
213.91	0.62
214.128	0.68
214.347	1.5
214.566	0.41
214.785	0.35
215.003	1.27
215.222	1.19
215.441	0.82
215.66	0.64
215.878	0.95
216.097	1.3
216.316	0.65
216.534	1.03
216.753	1.25
216.972	0.76
217.19	0.94
217.409	0.59
217.627	0.75
217.846	0.87
218.064	1.06
218.283	0.65
218.501	1.47
218.72	1.27
218.938	0.58
219.157	0.62
219.375	1.17
219.594	1.05
219.812	0.49
220.031	0.55
220.249	1.39
220.467	1.39
220.686	0.64
220.904	0.58
221.122	0.68
221.341	1.1
221.559	0.83
221.777	0.53
221.995	0.85
222.214	1.08
222.432	0.53
222.65	0.81
222.868	0.81
223.086	0.84
223.305	0.91
223.523	0.64
223.741	1.03
223.959	0.77
224.177	0.29
224.395	0.5
224.613	0.82
224.831	0.97
225.049	0.29
225.267	0.59
225.485	0.76
225.703	0.73
225.921	0.58
226.139	0.56
226.357	0.87
226.575	0.85
226.793	0.56
227.011	1.62
227.229	0.76
227.447	0.86
227.665	0.55
227.883	0.34
228.1	0.66
228.318	0.71
228.536	0.1
228.754	0.5
228.972	0.87
229.189	0.77
229.407	0.52
229.625	0.51
229.843	0.97
230.06	0.85
230.278	0.54
230.496	0.57
230.713	0.75
230.931	0.74
231.149	0.45
231.366	0.33
231.584	0.64
231.801	1.08
232.019	0.49
232.236	0.29
232.454	0.43
232.671	0.61
232.889	0.46
233.106	0.39
233.324	0.66
233.541	0.54
233.759	0.56
233.976	0.37
234.194	0.6
234.411	0.69
234.628	0.32
234.846	0.45
235.063	0.59
235.28	0.64
235.498	0.6
235.715	0.31
235.932	0.8
236.149	0.51
236.367	0.45
236.584	0.58
236.801	0.51
237.018	0.6
237.236	0.55
237.453	0.31
237.67	0.7
237.887	0.48
238.104	0.42
238.321	0.32
238.538	0.5
238.755	0.76
238.973	0.31
239.19	0.51
239.407	0.62
239.624	0.55
239.841	0.28
240.058	0.41
240.275	0.58
240.492	0.55
240.709	0.4
240.925	0.39
241.142	0.53
241.359	0.4
241.576	0.35
241.793	0.3
242.01	0.46
242.227	0.72
242.444	0.5
242.66	0.68
242.877	0.5
243.094	0.45
243.311	0.53
243.527	0.43
243.744	0.59
243.961	0.66
244.178	0.42
244.394	0.36
244.611	0.69
244.828	0.73
245.044	0.37
245.261	0.35
245.477	0.48
245.694	0.52
245.911	0.37
246.127	0.45
246.344	0.72
246.56	0.61
246.777	0.32
246.993	0.38
247.21	0.53
247.426	0.59
247.643	0.31
247.859	0.32
248.076	0.34
248.292	0.68
248.508	0.42
248.725	0.45
248.941	0.55
249.157	0.57
249.374	0.33
249.59	0.35
249.806	0.4
250.023	0.57
250.239	0.3
250.455	0.27
250.671	0.41
250.888	0.47
251.104	0.5
251.32	0.35
251.536	0.39
251.752	0.46
251.969	0.43
252.185	0.44
252.401	0.69
252.617	0.53
252.833	0.39
253.049	0.36
253.265	0.51
253.481	0.53
253.697	0.36
253.913	0.34
254.129	0.46
254.345	0.49
254.561	0.42
254.777	0.27
254.993	0.49
255.209	0.45
255.425	0.37
255.641	0.27
255.857	0.43
256.073	0.41
256.288	0.36
256.504	0.32
256.72	0.47
256.936	0.6
257.152	0.3
257.367	0.31
257.583	0.42
257.799	0.54
258.015	0.3
258.23	0.3
258.446	0.53
258.662	0.37
258.877	0.28
259.093	0.23
259.309	0.47
259.524	0.45
259.74	0.34
259.955	0.21
260.171	0.42
260.387	0.46
260.602	0.39
260.818	0.43
261.033	0.31
261.249	0.46
261.464	0.32
261.68	0.31
261.895	0.41
262.11	0.46
262.326	0.28
262.541	0.22
262.757	0.51
262.972	0.45
263.187	0.42
263.403	0.4
263.618	0.42
263.833	0.38
264.049	0.25
264.264	0.29
264.479	0.35
264.694	0.52
264.91	0.33
265.125	0.28
265.34	0.49
265.555	0.64
265.77	0.42
265.986	0.31
266.201	0.41
266.416	0.47
266.631	0.31
266.846	0.33
267.061	0.43
267.276	0.42
267.491	0.17
267.706	0.38
267.921	0.41
268.136	0.42
268.351	0.35
268.566	0.25
268.781	0.44
268.996	0.43
269.211	0.31
269.426	0.24
269.641	0.29
269.856	0.41
270.071	0.3
270.285	0.23
270.5	0.44
270.715	0.49
270.93	0.29
271.145	0.38
271.359	0.39
271.574	0.32
271.789	0.28
272.004	0.27
272.218	0.35
272.433	0.4
272.648	0.34
272.862	0.35
273.077	0.41
273.292	0.33
273.506	0.23
273.721	0.28
273.936	0.36
274.15	0.44
274.365	0.25
274.579	0.36
274.794	0.36
275.008	0.41
275.223	0.21
275.437	0.28
275.652	0.41
275.866	0.4
276.081	0.32
276.295	0.42
276.509	0.32
276.724	0.39
276.938	0.29
277.153	0.36
277.367	0.42
277.581	0.33
277.796	0.29
278.01	0.17
278.224	0.41
278.438	0.51
278.653	0.25
278.867	0.26
279.081	0.39
279.295	0.3
279.51	0.32
279.724	0.2
279.938	0.41
280.152	0.34
280.366	0.32
280.58	0.3
280.794	0.42
281.008	0.39
281.222	0.32
281.437	0.46
281.651	0.36
281.865	0.47
282.079	0.28
282.293	0.21
282.507	0.3
282.721	0.31
282.935	0.31
283.148	0.23
283.362	0.33
283.576	0.27
283.79	0.26
284.004	0.25
284.218	0.43
284.432	0.26
284.646	0.3
284.859	0.29
285.073	0.25
285.287	0.31
285.501	0.26
285.714	0.21
285.928	0.29
286.142	0.35
286.356	0.26
286.569	0.27
286.783	0.41
286.997	0.43
287.21	0.28
287.424	0.28
287.637	0.23
287.851	0.28
288.065	0.34
288.278	0.29
288.492	0.28
288.705	0.29
288.919	0.3
289.132	0.21
289.346	0.36
289.559	0.17
289.773	0.18
289.986	0.28
290.2	0.28
290.413	0.36
290.626	0.26
290.84	0.23
291.053	0.31
291.267	0.4
291.48	0.28
291.693	0.27
291.906	0.29
292.12	0.27
292.333	0.26
292.546	0.24
292.76	0.4
292.973	0.33
293.186	0.31
293.399	0.23
293.612	0.35
293.826	0.28
294.039	0.28
294.252	0.25
294.465	0.35
294.678	0.23
294.891	0.26
295.104	0.24
295.317	0.28
295.53	0.27
295.743	0.26
295.956	0.27
296.169	0.4
296.382	0.33
296.595	0.25
296.808	0.25
297.021	0.33
297.234	0.36
297.447	0.27
297.66	0.3
297.873	0.37
298.086	0.32
298.299	0.26
298.511	0.2
298.724	0.26
298.937	0.2
299.15	0.26
299.363	0.24
299.575	0.34
299.788	0.29
300.001	0.27
300.213	0.24
300.426	0.22
300.639	0.26
300.852	0.19
301.064	0.31
301.277	0.38
301.489	0.33
301.702	0.29
301.915	0.26
302.127	0.3
302.34	0.31
302.552	0.33
302.765	0.21
302.977	0.37
303.19	0.22
303.402	0.26
303.615	0.21
303.827	0.26
304.04	0.26
304.252	0.33
304.464	0.24
304.677	0.41
304.889	0.35
305.102	0.25
305.314	0.25
305.526	0.27
305.739	0.31
305.951	0.18
306.163	0.23
306.375	0.37
306.588	0.22
306.8	0.24
307.012	0.2
307.224	0.29
307.436	0.36
307.649	0.16
307.861	0.22
308.073	0.31
308.285	0.24
308.497	0.19
308.709	0.23
308.921	0.29
309.133	0.32
309.346	0.26
309.558	0.25
309.77	0.29
309.982	0.37
310.194	0.27
310.406	0.22
310.617	0.34
310.829	0.31
311.041	0.31
311.253	0.2
311.465	0.26
311.677	0.3
311.889	0.28
312.101	0.25
312.313	0.36
312.524	0.39
312.736	0.19
312.948	0.22
313.16	0.38
313.372	0.35
313.583	0.27
313.795	0.27
314.007	0.25
314.218	0.28
314.43	0.21
314.642	0.22
314.853	0.2
315.065	0.31
315.277	0.24
315.488	0.27
315.7	0.32
315.912	0.31
316.123	0.24
316.335	0.26
316.546	0.36
316.758	0.27
316.969	0.2
317.181	0.23
317.392	0.28
317.604	0.35
317.815	0.21
318.026	0.24
318.238	0.23
318.449	0.29
318.661	0.17
318.872	0.18
319.083	0.22
319.295	0.34
319.506	0.22
319.717	0.26
319.929	0.32
320.14	0.22
320.351	0.26
320.562	0.2
320.774	0.28
320.985	0.27
321.196	0.21
321.407	0.17
321.618	0.34
321.829	0.27
322.041	0.28
322.252	0.3
322.463	0.33
322.674	0.29
322.885	0.22
323.096	0.29
323.307	0.28
323.518	0.26
323.729	0.22
323.94	0.26
324.151	0.26
324.362	0.31
324.573	0.29
324.784	0.24
324.995	0.33
325.206	0.3
325.417	0.24
325.628	0.23
325.838	0.21
326.049	0.31
326.26	0.32
326.471	0.22
326.682	0.31
326.892	0.27
327.103	0.18
327.314	0.2
327.525	0.36
327.735	0.31
327.946	0.19
328.157	0.17
328.368	0.37
328.578	0.27
328.789	0.29
328.999	0.2
329.21	0.21
329.421	0.34
329.631	0.21
329.842	0.22
330.052	0.3
330.263	0.32
330.473	0.29
330.684	0.25
330.894	0.27
331.105	0.27
331.315	0.29
331.526	0.17
331.736	0.32
331.947	0.27
332.157	0.29
332.367	0.15
332.578	0.32
332.788	0.36
332.999	0.3
333.209	0.24
333.419	0.14
333.629	0.33
333.84	0.27
334.05	0.24
334.26	0.35
334.47	0.27
334.681	0.26
334.891	0.22
335.101	0.33
335.311	0.39
335.521	0.26
335.732	0.22
335.942	0.32
336.152	0.29
336.362	0.25
336.572	0.3
336.782	0.33
336.992	0.2
337.202	0.25
337.412	0.24
337.622	0.3
337.832	0.29
338.042	0.26
338.252	0.23
338.462	0.26
338.672	0.28
338.882	0.17
339.092	0.22
339.302	0.31
339.511	0.36
339.721	0.21
339.931	0.19
340.141	0.32
340.351	0.32
340.561	0.29
340.77	0.28
340.98	0.27
341.19	0.26
341.4	0.25
341.609	0.2
341.819	0.26
342.029	0.17
342.238	0.29
342.448	0.26
342.658	0.31
342.867	0.25
343.077	0.25
343.286	0.28
343.496	0.29
343.706	0.32
343.915	0.2
344.125	0.26
344.334	0.27
344.544	0.2
344.753	0.2
344.963	0.18
345.172	0.24
345.381	0.24
345.591	0.21
345.8	0.26
346.01	0.34
346.219	0.32
346.428	0.11
346.638	0.25
346.847	0.25
347.056	0.33
347.266	0.22
347.475	0.22
347.684	0.35
347.893	0.28
348.103	0.3
348.312	0.24
348.521	0.27
348.73	0.3
348.94	0.27
349.149	0.24
349.358	0.27
349.567	0.23
349.776	0.17
349.985	0.19
350.194	0.34
350.403	0.28
350.612	0.17
350.821	0.2
351.03	0.26
351.239	0.21
351.448	0.25
351.657	0.22
351.866	0.37
352.075	0.29
352.284	0.35
352.493	0.14
352.702	0.36
352.911	0.26
353.12	0.29
353.329	0.22
353.538	0.31
353.746	0.25
353.955	0.2
354.164	0.31
354.373	0.22
354.582	0.31
354.79	0.25
354.999	0.24
355.208	0.27
355.416	0.33
355.625	0.18
355.834	0.26
356.042	0.29
356.251	0.24
356.46	0.24
356.668	0.25
356.877	0.36
357.085	0.32
357.294	0.18
357.503	0.28
357.711	0.29
357.92	0.39
358.128	0.23
358.337	0.2
358.545	0.27
358.754	0.19
358.962	0.28
359.17	0.23
359.379	0.29
359.587	0.28
359.796	0.23
360.004	0.28
360.212	0.27
360.421	0.29
360.629	0.25
360.837	0.17
361.046	0.26
361.254	0.43
361.462	0.21
361.67	0.26
361.879	0.3
362.087	0.32
362.295	0.26
362.503	0.23
362.711	0.2
362.92	0.22
363.128	0.22
363.336	0.2
363.544	0.2
363.752	0.24
363.96	0.24
364.168	0.24
364.376	0.28
364.584	0.31
364.792	0.29
365	0.27
365.208	0.27
365.416	0.28
365.624	0.3
365.832	0.2
366.04	0.32
366.248	0.26
366.456	0.24
366.664	0.27
366.872	0.27
367.079	0.24
367.287	0.25
367.495	0.27
367.703	0.26
367.911	0.27
368.118	0.27
368.326	0.24
368.534	0.22
368.742	0.32
368.949	0.21
369.157	0.19
369.365	0.29
369.572	0.21
369.78	0.23
369.988	0.29
370.195	0.27
370.403	0.3
370.61	0.23
370.818	0.24
371.026	0.33
371.233	0.22
371.441	0.29
371.648	0.22
371.856	0.28
372.063	0.29
372.271	0.22
372.478	0.23
372.685	0.28
372.893	0.34
373.1	0.28
373.308	0.19
373.515	0.38
373.722	0.32
373.93	0.25
374.137	0.28
374.344	0.41
374.552	0.34
374.759	0.28
374.966	0.26
375.173	0.24
375.381	0.34
375.588	0.24
375.795	0.19
376.002	0.24
376.209	0.22
376.417	0.23
376.624	0.3
376.831	0.25
377.038	0.26
377.245	0.19
377.452	0.25
377.659	0.25
377.866	0.22
378.073	0.28
378.28	0.26
378.487	0.35
378.694	0.28
378.901	0.24
379.108	0.26
379.315	0.35
379.522	0.39
379.729	0.31
379.936	0.25
380.143	0.28
380.35	0.32
380.557	0.25
380.763	0.24
380.97	0.28
381.177	0.36
381.384	0.27
381.591	0.2
381.797	0.29
382.004	0.32
382.211	0.3
382.418	0.19
382.624	0.3
382.831	0.28
383.038	0.26
383.244	0.3
383.451	0.25
383.658	0.27
383.864	0.22
384.071	0.23
384.277	0.34
384.484	0.3
384.69	0.32
384.897	0.29
385.103	0.27
385.31	0.25
385.516	0.26
385.723	0.23
385.929	0.32
386.136	0.25
386.342	0.32
386.549	0.25
386.755	0.38
386.961	0.34
387.168	0.24
387.374	0.32
387.58	0.33
387.787	0.29
387.993	0.34
388.199	0.31
388.406	0.27
388.612	0.24
388.818	0.24
389.024	0.23
389.231	0.32
389.437	0.41
389.643	0.3
389.849	0.28
390.055	0.26
390.261	0.32
390.467	0.32
390.674	0.24
390.88	0.31
391.086	0.34
391.292	0.27
391.498	0.34
391.704	0.37
391.91	0.29
392.116	0.29
392.322	0.16
392.528	0.37
392.734	0.28
392.94	0.27
393.146	0.29
393.352	0.3
393.557	0.32
393.763	0.31
393.969	0.38
394.175	0.3
394.381	0.31
394.587	0.28
394.792	0.32
394.998	0.37
395.204	0.4
395.41	0.3
395.615	0.35
395.821	0.37
396.027	0.35
396.233	0.28
396.438	0.37
396.644	0.38
396.85	0.38
397.055	0.31
397.261	0.33
397.466	0.35
397.672	0.37
397.878	0.36
398.083	0.37
398.289	0.33
398.494	0.45
398.7	0.41
398.905	0.26
399.111	0.43
399.316	0.25
399.522	0.37
399.727	0.3
399.932	0.31
400.138	0.32
400.343	0.42
400.549	0.35
400.754	0.4
400.959	0.36
401.165	0.35
401.37	0.39
401.575	0.53
401.78	0.4
401.986	0.4
402.191	0.36
402.396	0.4
402.601	0.42
402.807	0.41
403.012	0.39
403.217	0.47
403.422	0.39
403.627	0.43
403.832	0.39
404.037	0.46
404.243	0.4
404.448	0.38
404.653	0.4
404.858	0.46
405.063	0.48
405.268	0.39
405.473	0.39
405.678	0.43
405.883	0.67
406.088	0.48
406.293	0.44
406.498	0.46
406.703	0.54
406.907	0.46
407.112	0.43
407.317	0.54
407.522	0.62
407.727	0.51
407.932	0.58
408.136	0.71
408.341	0.57
408.546	0.59
408.751	0.6
408.956	0.62
409.16	0.73
409.365	0.61
409.57	0.6
409.774	0.68
409.979	0.7
410.184	0.68
410.388	0.66
410.593	0.76
410.798	0.75
411.002	0.73
411.207	0.82
411.411	0.82
411.616	0.77
411.82	0.85
412.025	0.87
412.229	0.87
412.434	0.95
412.638	0.93
412.843	0.96
413.047	1.03
413.252	0.96
413.456	1.03
413.66	1.08
413.865	1.05
414.069	1.21
414.273	1.08
414.478	1.13
414.682	1.22
414.886	1.23
415.091	1.21
415.295	1.23
415.499	1.41
415.703	1.42
415.908	1.51
416.112	1.42
416.316	1.56
416.52	1.58
416.724	1.6
416.929	1.62
417.133	1.94
417.337	1.79
417.541	1.83
417.745	1.82
417.949	2
418.153	2.06
418.357	2
418.561	2.33
418.765	2.23
418.969	2.46
419.173	2.42
419.377	2.46
419.581	2.74
419.785	2.7
419.989	2.7
420.193	2.81
420.397	3.01
420.601	3.11
420.804	3.12
421.008	3.1
421.212	3.32
421.416	3.35
421.62	3.38
421.823	3.43
422.027	3.61
422.231	3.5
422.435	3.54
422.638	3.6
422.842	3.8
423.046	3.78
423.249	4.02
423.453	4.02
423.657	4.12
423.86	4.32
424.064	4.4
424.268	4.57
424.471	4.59
424.675	4.79
424.878	4.83
425.082	5.02
425.285	5.31
425.489	5.24
425.692	5.33
425.896	5.34
426.099	5.56
426.303	5.7
426.506	5.77
426.71	6.12
426.913	6.34
427.116	6.48
427.32	6.46
427.523	6.55
427.726	6.76
427.93	6.98
428.133	7.26
428.336	7.39
428.54	7.5
428.743	7.75
428.946	7.94
429.149	7.97
429.353	7.96
429.556	8.08
429.759	8.15
429.962	8.22
430.165	8.47
430.368	8.09
430.571	8.12
430.775	8.25
430.978	8.12
431.181	8.27
431.384	8.3
431.587	8.43
431.79	8.82
431.993	8.73
432.196	9.04
432.399	9.44
432.602	9.6
432.805	9.61
433.008	10.21
433.211	9.88
433.414	10.4
433.616	10.41
433.819	10.34
434.022	10.62
434.225	10.72
434.428	10.8
434.631	11.13
434.833	10.98
435.036	11.32
435.239	11.41
435.442	11.32
435.645	11.64
435.847	11.84
436.05	11.93
436.253	12.32
436.455	12.12
436.658	12.14
436.861	12.42
437.063	12.54
437.266	12.54
437.468	12.87
437.671	13.15
437.874	13.24
438.076	13.1
438.279	13.63
438.481	13.6
438.684	14.35
438.886	13.97
439.089	14.32
439.291	14.29
439.494	14.66
439.696	14.87
439.899	15.49
440.101	15.76
440.303	15.97
440.506	16.71
440.708	16.34
440.91	16.69
441.113	16.75
441.315	17.17
441.517	16.86
441.72	17.38
441.922	17.02
442.124	16.94
442.326	17.14
442.529	17.66
442.731	17.46
442.933	17.77
443.135	17.69
443.337	17.69
443.539	18.19
443.742	17.63
443.944	18.39
444.146	18.24
444.348	18.1
444.55	18.13
444.752	18.2
444.954	18.3
445.156	18.07
445.358	18.44
445.56	18.81
445.762	18.62
445.964	18.88
446.166	18.58
446.368	18.62
446.57	18.63
446.772	18.28
446.974	18.07
447.175	18.33
447.377	17.96
447.579	18.41
447.781	18.02
447.983	17.85
448.184	17.33
448.386	17.72
448.588	17.28
448.79	17.14
448.991	17.41
449.193	17.58
449.395	16.8
449.597	16.49
449.798	16.37
450	15.84
450.202	15.89
450.403	15.86
450.605	15.68
450.806	15.23
451.008	15.1
451.21	14.79
451.411	14.51
451.613	13.76
451.814	13.93
452.016	13.91
452.217	13.17
452.419	13.13
452.62	12.9
452.821	12.61
453.023	12.56
453.224	12.21
453.426	11.68
453.627	11.02
453.828	11.07
454.03	11.2
454.231	11.2
454.432	10.9
454.634	10.67
454.835	10.43
455.036	10.38
455.238	9.98
455.439	9.81
455.64	9.48
455.841	9.34
456.042	9.45
456.244	9
456.445	8.8
456.646	8.46
456.847	8.38
457.048	8.44
457.249	8.35
457.45	8.24
457.651	7.7
457.852	7.56
458.054	7.16
458.255	7.19
458.456	7.2
458.657	7.1
458.858	6.65
459.058	6.63
459.259	6.69
459.46	6.35
459.661	6.43
459.862	6.43
460.063	6.3
460.264	6.22
460.465	5.91
460.666	5.95
460.866	5.74
461.067	5.52
461.268	5.57
461.469	5.37
461.67	5.38
461.87	5.21
462.071	5.14
462.272	5.09
462.473	5.09
462.673	5.18
462.874	5.18
463.075	5.17
463.275	5.09
463.476	5.13
463.676	4.99
463.877	4.88
464.078	4.91
464.278	4.91
464.479	4.77
464.679	4.74
464.88	4.7
465.08	4.66
465.281	4.42
465.481	4.27
465.682	4.16
465.882	4.18
466.083	4.07
466.283	4.06
466.483	3.87
466.684	3.72
466.884	3.6
467.085	3.66
467.285	3.71
467.485	3.58
467.686	3.53
467.886	3.38
468.086	3.33
468.286	3.31
468.487	3.38
468.687	3.21
468.887	3.24
469.087	3.37
469.287	3.21
469.488	3.01
469.688	3.2
469.888	3.22
470.088	3.09
470.288	3.05
470.488	3.03
470.688	2.87
470.888	2.83
471.088	2.66
471.288	2.79
471.488	2.74
471.688	2.69
471.888	2.65
472.088	2.86
472.288	2.68
472.488	2.54
472.688	2.56
472.888	2.62
473.088	2.54
473.288	2.49
473.488	2.4
473.688	2.61
473.887	2.47
474.087	2.38
474.287	2.43
474.487	2.38
474.687	2.44
474.886	2.34
475.086	2.32
475.286	2.28
475.486	2.26
475.685	2.32
475.885	2.21
476.085	2.32
476.284	2.27
476.484	2.22
476.684	2.2
476.883	2.33
477.083	2.16
477.282	2.15
477.482	2.19
477.681	2.19
477.881	2.05
478.08	2.07
478.28	2.05
478.479	2.1
478.679	2.12
478.878	2.01
479.078	2.03
479.277	2.07
479.477	2.04
479.676	2
479.875	2.03
480.075	1.94
480.274	2.03
480.473	2.07
480.673	2.04
480.872	2.07
481.071	2.07
481.271	2.02
481.47	1.96
481.669	1.96
481.868	1.97
482.067	1.99
482.267	1.93
482.466	1.93
482.665	1.91
482.864	1.94
483.063	1.94
483.262	2.01
483.461	2.06
483.661	2.07
483.86	2.02
484.059	2.01
484.258	2.06
484.457	2.02
484.656	2.07
484.855	2.09
485.054	1.89
485.253	1.97
485.452	1.95
485.651	2.08
485.849	2.01
486.048	2.06
486.247	2.03
486.446	2.08
486.645	2.02
486.844	2.05
487.043	2.06
487.241	2.12
487.44	2.12
487.639	2.13
487.838	2.15
488.037	2.09
488.235	2.22
488.434	2.1
488.633	2.01
488.831	2.2
489.03	2.22
489.229	2.23
489.427	2.21
489.626	2.24
489.825	2.29
490.023	2.32
490.222	2.26
490.42	2.31
490.619	2.36
490.817	2.35
491.016	2.34
491.214	2.4
491.413	2.43
491.611	2.32
491.81	2.38
492.008	2.47
492.207	2.53
492.405	2.52
492.604	2.45
492.802	2.54
493	2.64
493.199	2.62
493.397	2.62
493.595	2.72
493.794	2.66
493.992	2.77
494.19	2.73
494.388	2.83
494.587	2.76
494.785	2.77
494.983	2.75
495.181	2.82
495.379	2.89
495.578	2.95
495.776	2.96
495.974	2.97
496.172	2.99
496.37	3.08
496.568	3.08
496.766	3.09
496.964	3.18
497.162	3.2
497.36	3.23
497.558	3.28
497.756	3.33
497.954	3.3
498.152	3.36
498.35	3.43
498.548	3.37
498.746	3.39
498.944	3.38
499.142	3.48
499.34	3.54
499.538	3.62
499.736	3.52
499.933	3.68
500.131	3.67
500.329	3.8
500.527	3.73
500.725	3.89
500.922	3.88
501.12	3.85
501.318	3.97
501.516	3.95
501.713	4.05
501.911	4.02
502.109	3.95
502.306	4.15
502.504	4.04
502.701	4.12
502.899	4.24
503.097	4.38
503.294	4.21
503.492	4.34
503.689	4.35
503.887	4.38
504.084	4.5
504.282	4.42
504.479	4.42
504.677	4.58
504.874	4.54
505.072	4.46
505.269	4.7
505.466	4.7
505.664	4.76
505.861	4.65
506.059	4.79
506.256	4.77
506.453	4.86
506.651	4.99
506.848	5.05
507.045	5.01
507.242	4.96
507.44	5.07
507.637	5.13
507.834	5.08
508.031	5.27
508.229	5.1
508.426	5.16
508.623	5.3
508.82	5.35
509.017	5.3
509.214	5.27
509.411	5.45
509.608	5.38
509.805	5.49
510.003	5.47
510.2	5.51
510.397	5.67
510.594	5.53
510.791	5.64
510.988	5.69
511.184	5.66
511.381	5.56
511.578	5.66
511.775	5.85
511.972	5.76
512.169	5.81
512.366	5.82
512.563	5.94
512.76	5.96
512.956	5.94
513.153	5.96
513.35	5.91
513.547	5.92
513.744	6.06
513.94	6.02
514.137	6.19
514.334	6.14
514.53	6.13
514.727	6.45
514.924	6.28
515.12	6.26
515.317	6.29
515.514	6.25
515.71	6.25
515.907	6.44
516.103	6.46
516.3	6.34
516.497	6.52
516.693	6.49
516.89	6.59
517.086	6.57
517.283	6.57
517.479	6.42
517.676	6.6
517.872	6.65
518.068	6.63
518.265	6.64
518.461	6.57
518.658	6.71
518.854	6.71
519.05	6.79
519.247	6.82
519.443	6.78
519.639	6.93
519.836	6.81
520.032	6.72
520.228	6.95
520.424	6.89
520.621	6.94
520.817	7.02
521.013	6.87
521.209	7.07
521.405	7.1
521.601	7.02
521.798	7.03
521.994	7.09
522.19	6.97
522.386	7.02
522.582	7.16
522.778	7.3
522.974	7.17
523.17	7.12
523.366	7.1
523.562	7.25
523.758	7.24
523.954	7.08
524.15	7.25
524.346	7.29
524.542	7.29
524.738	7.21
524.934	7.35
525.129	7.39
525.325	7.28
525.521	7.25
525.717	7.56
525.913	7.3
526.109	7.34
526.304	7.48
526.5	7.42
526.696	7.44
526.892	7.42
527.087	7.62
527.283	7.55
527.479	7.53
527.674	7.34
527.87	7.61
528.066	7.52
528.261	7.56
528.457	7.51
528.653	7.65
528.848	7.61
529.044	7.63
529.239	7.52
529.435	7.57
529.63	7.53
529.826	7.56
530.021	7.6
530.217	7.64
530.412	7.59
530.608	7.61
530.803	7.68
530.999	7.54
531.194	7.67
531.389	7.71
531.585	7.72
531.78	7.83
531.975	7.71
532.171	7.8
532.366	7.74
532.561	7.77
532.757	7.69
532.952	7.92
533.147	7.63
533.342	7.82
533.538	7.74
533.733	7.94
533.928	7.61
534.123	7.8
534.318	7.83
534.513	7.72
534.709	7.94
534.904	7.89
535.099	7.91
535.294	7.96
535.489	7.9
535.684	7.85
535.879	7.88
536.074	7.95
536.269	7.98
536.464	7.97
536.659	7.95
536.854	7.84
537.049	7.96
537.244	7.89
537.439	7.93
537.634	7.95
537.828	7.98
538.023	8.01
538.218	7.93
538.413	7.91
538.608	7.92
538.803	7.92
538.997	7.94
539.192	8.01
539.387	7.93
539.582	7.96
539.776	7.86
539.971	7.99
540.166	8.14
540.36	8.01
540.555	8.09
540.75	8
540.944	8.07
541.139	8.05
541.334	7.93
541.528	8.09
541.723	8.13
541.917	8.14
542.112	7.97
542.306	7.85
542.501	8
542.695	7.96
542.89	8
543.084	8
543.279	8.07
543.473	8.05
543.668	8.13
543.862	7.9
544.056	7.92
544.251	8.1
544.445	8.17
544.64	8.12
544.834	7.8
545.028	7.72
545.222	8.06
545.417	8.26
545.611	8.18
545.805	8.07
546	7.85
546.194	8.02
546.388	8.16
546.582	8.02
546.776	8.05
546.97	8.05
547.165	8.05
547.359	8.05
547.553	8.02
547.747	8.04
547.941	8.24
548.135	8.03
548.329	8.16
548.523	8.1
548.717	8.01
548.911	8.02
549.105	7.99
549.299	8.14
549.493	8.11
549.687	8.01
549.881	8.19
550.075	8.1
550.269	7.94
550.463	8.18
550.657	8.15
550.85	8.13
551.044	8.05
551.238	8.07
551.432	8.1
551.626	8.14
551.82	8.15
552.013	8.02
552.207	8.15
552.401	8.22
552.594	8.08
552.788	8.05
552.982	8.05
553.176	8.08
553.369	8.22
553.563	8.15
553.756	8.09
553.95	8.16
554.144	8.18
554.337	8.13
554.531	7.95
554.724	8.19
554.918	8.13
555.111	8.11
555.305	8.16
555.498	8.08
555.692	8.23
555.885	8.16
556.079	8.12
556.272	8.16
556.466	8.09
556.659	8.08
556.852	8.18
557.046	8.01
557.239	8.04
557.432	8.04
557.626	8.16
557.819	8.17
558.012	8.14
558.206	8.2
558.399	8.19
558.592	8.05
558.785	8.01
558.979	8.15
559.172	8.15
559.365	8.19
559.558	8.06
559.751	8.05
559.944	8.23
560.138	8.04
560.331	8.13
560.524	8.12
560.717	8.11
560.91	8.13
561.103	8.13
561.296	8.03
561.489	8.16
561.682	8.22
561.875	8.19
562.068	8.24
562.261	8.01
562.454	8.27
562.647	8.14
562.84	8.13
563.032	8.19
563.225	8.07
563.418	8.03
563.611	8.25
563.804	8.22
563.997	8.03
564.19	7.92
564.382	8.24
564.575	8.14
564.768	8.07
564.961	8.1
565.153	8.07
565.346	8.05
565.539	8.23
565.731	8.17
565.924	8.22
566.117	8.31
566.309	8.19
566.502	8.09
566.695	7.99
566.887	8.18
567.08	8.09
567.272	8.16
567.465	8.06
567.657	8.11
567.85	8.01
568.042	8.12
568.235	8.15
568.427	7.95
568.62	8.07
568.812	8
569.005	8.18
569.197	8.01
569.389	8.16
569.582	8.14
569.774	8.07
569.966	8
570.159	7.99
570.351	7.95
570.543	8.04
570.736	8.1
570.928	7.96
571.12	8.14
571.312	7.99
571.505	7.79
571.697	8.11
571.889	8.04
572.081	8
572.273	7.99
572.465	8.01
572.658	8
572.85	8.06
573.042	8
573.234	7.93
573.426	7.99
573.618	7.92
573.81	7.97
574.002	8.01
574.194	8.02
574.386	7.89
574.578	7.82
574.77	7.89
574.962	8.01
575.154	7.84
575.346	7.78
575.538	7.87
575.729	7.82
575.921	7.94
576.113	7.96
576.305	7.89
576.497	8.01
576.689	7.84
576.88	7.84
577.072	8.03
577.264	7.86
577.456	7.88
577.647	7.83
577.839	8.04
578.031	7.88
578.223	7.85
578.414	7.73
578.606	7.84
578.798	7.98
578.989	7.86
579.181	7.93
579.372	7.86
579.564	7.93
579.755	7.75
579.947	7.73
580.139	7.9
580.33	7.72
580.522	7.8
580.713	7.71
580.905	7.78
581.096	7.86
581.287	7.74
581.479	7.76
581.67	7.84
581.862	7.67
582.053	7.74
582.244	7.6
582.436	7.84
582.627	7.71
582.818	7.63
583.01	7.63
583.201	7.72
583.392	7.67
583.583	7.6
583.775	7.43
583.966	7.66
584.157	7.58
584.348	7.72
584.54	7.52
584.731	7.64
584.922	7.62
585.113	7.45
585.304	7.59
585.495	7.59
585.686	7.66
585.877	7.64
586.068	7.67
586.259	7.6
586.45	7.58
586.641	7.51
586.832	7.55
587.023	7.44
587.214	7.53
587.405	7.58
587.596	7.39
587.787	7.4
587.978	7.55
588.169	7.44
588.36	7.3
588.551	7.42
588.742	7.46
588.932	7.52
589.123	7.26
589.314	7.54
589.505	7.38
589.696	7.36
589.886	7.33
590.077	7.41
590.268	7.31
590.458	7.23
590.649	7.18
590.84	7.3
591.03	7.29
591.221	7.27
591.412	7.09
591.602	7.39
591.793	7.28
591.984	7.4
592.174	7.17
592.365	7.45
592.555	7.14
592.746	7.14
592.936	7.18
593.127	7.19
593.317	7.28
593.508	7.13
593.698	7.12
593.889	7.07
594.079	7.06
594.269	6.95
594.46	7
594.65	7.08
594.84	7.07
595.031	6.95
595.221	7.01
595.411	6.98
595.602	7.05
595.792	6.99
595.982	6.87
596.172	7.08
596.363	6.93
596.553	6.92
596.743	6.9
596.933	6.89
597.123	6.93
597.314	6.77
597.504	6.71
597.694	6.96
597.884	6.86
598.074	6.91
598.264	6.8
598.454	6.85
598.644	6.77
598.834	6.77
599.024	6.72
599.214	6.69
599.404	6.84
599.594	6.74
599.784	6.67
599.974	6.78
600.164	6.76
600.354	6.65
600.544	6.59
600.734	6.65
600.924	6.61
601.114	6.49
601.303	6.55
601.493	6.52
601.683	6.58
601.873	6.52
602.063	6.48
602.252	6.56
602.442	6.45
602.632	6.49
602.821	6.4
603.011	6.4
603.201	6.53
603.39	6.32
603.58	6.31
603.77	6.42
603.959	6.47
604.149	6.42
604.339	6.35
604.528	6.47
604.718	6.4
604.907	6.31
605.097	6.24
605.286	6.24
605.476	6.35
605.665	6.3
605.855	6.21
606.044	6.3
606.234	6.29
606.423	6.2
606.612	6.23
606.802	6.11
606.991	6.2
607.181	6.27
607.37	6.21
607.559	5.96
607.749	6.13
607.938	6.02
608.127	6.05
608.316	6.07
608.506	5.99
608.695	6.06
608.884	6
609.073	6
609.263	6.03
609.452	6.02
609.641	5.87
609.83	5.82
610.019	6.01
610.208	5.87
610.397	5.83
610.586	5.85
610.775	5.78
610.965	5.81
611.154	5.7
611.343	5.84
611.532	5.73
611.721	5.81
611.91	5.69
612.099	5.76
612.287	5.58
612.476	5.63
612.665	5.75
612.854	5.63
613.043	5.65
613.232	5.63
613.421	5.6
613.61	5.6
613.798	5.55
613.987	5.6
614.176	5.51
614.365	5.63
614.554	5.51
614.742	5.59
614.931	5.36
615.12	5.56
615.309	5.53
615.497	5.36
615.686	5.34
615.875	5.38
616.063	5.37
616.252	5.35
616.44	5.45
616.629	5.37
616.818	5.38
617.006	5.3
617.195	5.26
617.383	5.25
617.572	5.22
617.76	5.23
617.949	5.2
618.137	5.27
618.326	5.24
618.514	5.07
618.703	5.04
618.891	5.26
619.079	5.06
619.268	5.14
619.456	5.04
619.644	5.19
619.833	5
620.021	5.04
620.209	4.92
620.398	5.03
620.586	4.94
620.774	4.97
620.962	4.96
621.151	5.1
621.339	4.94
621.527	4.87
621.715	4.86
621.903	4.88
622.092	4.73
622.28	4.93
622.468	4.74
622.656	4.79
622.844	4.77
623.032	4.81
623.22	4.65
623.408	4.85
623.596	4.79
623.784	4.77
623.972	4.69
624.16	4.67
624.348	4.79
624.536	4.75
624.724	4.58
624.912	4.64
625.1	4.68
625.288	4.66
625.476	4.47
625.664	4.65
625.851	4.54
626.039	4.6
626.227	4.51
626.415	4.5
626.603	4.46
626.79	4.52
626.978	4.44
627.166	4.44
627.354	4.38
627.541	4.39
627.729	4.24
627.917	4.54
628.104	4.46
628.292	4.31
628.48	4.35
628.667	4.3
628.855	4.35
629.042	4.4
629.23	4.28
629.418	4.3
629.605	4.21
629.793	4.1
629.98	4.21
630.168	4.12
630.355	4.2
630.543	4.17
630.73	4.07
630.917	4.11
631.105	4.25
631.292	4.08
631.48	4.05
631.667	4.27
631.854	4.08
632.042	4.03
632.229	4.04
632.416	4
632.604	4.04
632.791	3.85
632.978	4.02
633.165	3.96
633.353	4.02
633.54	3.94
633.727	3.82
633.914	3.84
634.101	3.85
634.289	3.93
634.476	3.73
634.663	3.8
634.85	3.79
635.037	3.78
635.224	3.71
635.411	3.83
635.598	3.75
635.785	3.71
635.972	3.65
636.159	3.74
636.346	3.68
636.533	3.66
636.72	3.66
636.907	3.69
637.094	3.69
637.281	3.52
637.468	3.58
637.655	3.64
637.842	3.6
638.029	3.54
638.215	3.54
638.402	3.53
638.589	3.46
638.776	3.43
638.963	3.39
639.149	3.49
639.336	3.6
639.523	3.41
639.709	3.42
639.896	3.37
640.083	3.4
640.27	3.46
640.456	3.37
640.643	3.33
640.829	3.25
641.016	3.34
641.203	3.24
641.389	3.31
641.576	3.28
641.762	3.27
641.949	3.2
642.135	3.25
642.322	3.25
642.508	3.1
642.695	3.24
642.881	3.12
643.068	3.11
643.254	3.17
643.441	3.21
643.627	3.23
643.813	3.06
644	3.18
644.186	3.03
644.372	3.05
644.559	3.1
644.745	3.03
644.931	2.95
645.118	3.03
645.304	3.03
645.49	3.01
645.676	2.98
645.862	2.99
646.049	3.01
646.235	2.97
646.421	3.12
646.607	3.03
646.793	2.92
646.979	2.87
647.165	2.9
647.352	2.91
647.538	2.9
647.724	2.84
647.91	2.84
648.096	2.86
648.282	2.87
648.468	2.77
648.654	2.85
648.84	2.79
649.026	2.86
649.212	2.72
649.397	2.72
649.583	2.72
649.769	2.74
649.955	2.7
650.141	2.72
650.327	2.74
650.513	2.67
650.698	2.72
650.884	2.54
651.07	2.69
651.256	2.65
651.442	2.61
651.627	2.53
651.813	2.63
651.999	2.59
652.184	2.55
652.37	2.54
652.556	2.54
652.741	2.64
652.927	2.43
653.113	2.5
653.298	2.54
653.484	2.43
653.669	2.36
653.855	2.44
654.04	2.48
654.226	2.44
654.412	2.39
654.597	2.33
654.782	2.41
654.968	2.42
655.153	2.47
655.339	2.42
655.524	2.39
655.71	2.38
655.895	2.37
656.08	2.35
656.266	2.42
656.451	2.34
656.636	2.29
656.822	2.32
657.007	2.28
657.192	2.28
657.378	2.22
657.563	2.24
657.748	2.3
657.933	2.29
658.118	2.17
658.304	2.21
658.489	2.35
658.674	2.23
658.859	2.13
659.044	2.19
659.229	2.18
659.414	2.18
659.599	2.15
659.785	2.12
659.97	2.14
660.155	2.14
660.34	2.15
660.525	2.05
660.71	2.06
660.895	2.14
661.08	2.06
661.264	2.04
661.449	2.12
661.634	2.09
661.819	2.06
662.004	2.03
662.189	1.96
662.374	2
662.559	1.96
662.743	1.89
662.928	2.04
663.113	1.94
663.298	1.92
663.483	1.92
663.667	1.95
663.852	1.9
664.037	1.98
664.221	1.93
664.406	1.97
664.591	2.01
664.775	1.93
664.96	1.83
665.145	1.91
665.329	1.94
665.514	1.86
665.698	1.8
665.883	1.76
666.068	1.88
666.252	1.91
666.437	1.77
666.621	1.86
666.806	1.83
666.99	1.8
667.174	1.78
667.359	1.87
667.543	1.77
667.728	1.76
667.912	1.66
668.096	1.81
668.281	1.76
668.465	1.74
668.649	1.69
668.834	1.7
669.018	1.75
669.202	1.67
669.387	1.69
669.571	1.79
669.755	1.67
669.939	1.69
670.124	1.65
670.308	1.71
670.492	1.7
670.676	1.66
670.86	1.62
671.044	1.63
671.228	1.7
671.413	1.58
671.597	1.55
671.781	1.56
671.965	1.6
672.149	1.61
672.333	1.56
672.517	1.53
672.701	1.6
672.885	1.55
673.069	1.44
673.253	1.64
673.437	1.52
673.621	1.5
673.804	1.53
673.988	1.58
674.172	1.54
674.356	1.47
674.54	1.52
674.724	1.64
674.908	1.53
675.091	1.53
675.275	1.45
675.459	1.55
675.643	1.51
675.826	1.47
676.01	1.48
676.194	1.53
676.377	1.53
676.561	1.49
676.745	1.5
676.928	1.43
677.112	1.55
677.296	1.43
677.479	1.41
677.663	1.42
677.846	1.42
678.03	1.41
678.213	1.27
678.397	1.39
678.58	1.34
678.764	1.36
678.947	1.29
679.131	1.34
679.314	1.42
679.498	1.29
679.681	1.39
679.865	1.44
680.048	1.33
680.231	1.27
680.415	1.28
680.598	1.31
680.781	1.3
680.965	1.3
681.148	1.29
681.331	1.22
681.514	1.3
681.698	1.25
681.881	1.32
682.064	1.25
682.247	1.2
682.43	1.16
682.614	1.25
682.797	1.32
682.98	1.29
683.163	1.12
683.346	1.23
683.529	1.2
683.712	1.16
683.895	1.27
684.078	1.11
684.261	1.18
684.444	1.23
684.627	1.21
684.81	1.16
684.993	1.2
685.176	1.19
685.359	1.12
685.542	1.12
685.725	1.22
685.908	1.16
686.091	1.16
686.274	1.24
686.457	1.19
686.639	1.13
686.822	1.2
687.005	1.14
687.188	1.19
687.371	1.23
687.553	1.2
687.736	1.13
687.919	1.23
688.102	1.18
688.284	1.09
688.467	1.07
688.65	1.12
688.832	0.99
689.015	1.04
689.197	1.02
689.38	1.19
689.563	1.16
689.745	1.02
689.928	1.04
690.11	1.05
690.293	1.06
690.475	1.03
690.658	1.07
690.84	1.04
691.023	1
691.205	0.97
691.388	1.03
691.57	1.09
691.752	1.08
691.935	0.87
692.117	1.01
692.3	0.99
692.482	0.98
692.664	0.92
692.847	0.98
693.029	1.07
693.211	1.02
693.393	0.93
693.576	0.95
693.758	0.96
693.94	0.96
694.122	0.97
694.304	0.91
694.487	0.9
694.669	1.02
694.851	0.86
695.033	0.93
695.215	0.96
695.397	0.94
695.579	0.87
695.761	0.85
695.943	0.89
696.125	1.05
696.308	0.97
696.49	0.78
696.671	1.06
696.853	0.93
697.035	1.19
697.217	0.85
697.399	0.99
697.581	0.88
697.763	0.9
697.945	0.85
698.127	0.87
698.309	0.96
698.491	0.87
698.672	0.89
698.854	0.91
699.036	0.99
699.218	0.81
699.399	0.84
699.581	0.89
699.763	0.83
699.945	0.76
700.126	0.77
700.308	0.87
700.49	0.87
700.671	0.72
700.853	0.77
701.035	0.83
701.216	0.78
701.398	0.72
701.579	0.82
701.761	0.91
701.943	0.78
702.124	0.76
702.306	0.75
702.487	0.96
702.669	0.77
702.85	0.75
703.031	0.68
703.213	0.93
703.394	0.88
703.576	0.77
703.757	0.9
703.938	0.87
704.12	0.99
704.301	0.77
704.483	0.69
704.664	0.81
704.845	0.9
705.026	0.82
705.208	0.77
705.389	0.76
705.57	0.85
705.751	0.74
705.933	0.69
706.114	0.87
706.295	0.74
706.476	0.64
706.657	0.87
706.838	0.81
707.02	0.82
707.201	0.68
707.382	0.71
707.563	0.79
707.744	0.68
707.925	0.67
708.106	0.62
708.287	0.78
708.468	0.84
708.649	0.73
708.83	0.72
709.011	0.67
709.192	0.71
709.373	0.58
709.554	0.66
709.734	0.82
709.915	0.79
710.096	0.69
710.277	0.56
710.458	0.68
710.639	0.79
710.819	0.55
711	0.6
711.181	0.73
711.362	0.79
711.542	0.73
711.723	0.66
711.904	0.73
712.085	0.69
712.265	0.61
712.446	0.52
712.627	0.65
712.807	0.7
712.988	0.62
713.168	0.49
713.349	0.66
713.53	0.48
713.71	0.63
713.891	0.55
714.071	0.66
714.252	0.6
714.432	0.66
714.613	0.49
714.793	0.63
714.974	0.74
715.154	0.7
715.334	0.68
715.515	0.84
715.695	0.49
715.876	0.58
716.056	0.63
716.236	0.58
716.417	0.58
716.597	0.48
716.777	0.78
716.957	0.57
717.138	0.61
717.318	0.66
717.498	0.55
717.678	0.6
717.859	0.62
718.039	0.47
718.219	0.61
718.399	0.61
718.579	0.55
718.759	0.47
718.939	0.64
719.12	0.64
719.3	0.63
719.48	0.43
719.66	0.43
719.84	0.69
720.02	0.55
720.2	0.49
720.38	0.55
720.56	0.81
720.74	0.49
720.92	0.55
721.1	0.62
721.279	0.68
721.459	0.53
721.639	0.43
721.819	0.58
721.999	0.54
722.179	0.63
722.359	0.46
722.538	0.48
722.718	0.58
722.898	0.56
723.078	0.52
723.257	0.43
723.437	0.64
723.617	0.59
723.797	0.45
723.976	0.51
724.156	0.72
724.336	0.68
724.515	0.71
724.695	0.34
724.874	0.57
725.054	0.65
725.234	0.43
725.413	0.51
725.593	0.59
725.772	0.63
725.952	0.53
726.131	0.5
726.311	0.48
726.49	0.5
726.67	0.48
726.849	0.4
727.028	0.59
727.208	0.49
727.387	0.5
727.567	0.36
727.746	0.54
727.925	0.57
728.105	0.44
728.284	0.49
728.463	0.53
728.643	0.57
728.822	0.41
729.001	0.42
729.18	0.5
729.359	0.64
729.539	0.45
729.718	0.54
729.897	0.5
730.076	0.55
730.255	0.44
730.434	0.56
730.614	0.59
730.793	0.69
730.972	0.44
731.151	0.52
731.33	0.54
731.509	0.57
731.688	0.49
731.867	0.51
732.046	0.35
732.225	0.8
732.404	0.45
732.583	0.38
732.762	0.48
732.941	0.54
733.12	0.46
733.298	0.5
733.477	0.64
733.656	0.54
733.835	0.36
734.014	0.61
734.193	0.5
734.371	0.58
734.55	0.59
734.729	0.34
734.908	0.58
735.086	0.6
735.265	0.53
735.444	0.33
735.623	0.35
735.801	0.38
735.98	0.44
736.159	0.45
736.337	0.63
736.516	0.56
736.694	0.49
736.873	0.54
737.052	0.78
737.23	0.74
737.409	0.43
737.587	0.78
737.766	0.26
737.944	0.48
738.123	0.57
738.301	0.62
738.479	0.53
738.658	0.58
738.836	0.36
739.015	0.43
739.193	0.63
739.371	0.33
739.55	0.5
739.728	0.44
739.906	0.7
740.085	0.73
740.263	0.56
740.441	0.25
740.62	0.69
740.798	0.62
740.976	0.34
741.154	0.38
741.332	0.68
741.511	0.48
741.689	0.55
741.867	0.49
742.045	0.63
742.223	0.37
742.401	0.34
742.579	0.29
742.757	0.63
742.935	0.22
743.114	0.41
743.292	0.46
743.47	0.42
743.648	0.54
743.826	0.53
744.004	0.53
744.181	0.58
744.359	0.41
744.537	0.5
744.715	0.49
744.893	0.49
745.071	0.43
745.249	0.41
745.427	0.41
745.605	0.51
745.782	0.46
745.96	0.58
746.138	0.6
746.316	0.57
746.493	0.48
746.671	0.34
746.849	0.45
747.027	0.61
747.204	0.36
747.382	0.44
747.56	0.3
747.737	0.47
747.915	0.44
748.093	0.54
748.27	0.33
748.448	0.35
748.625	0.34
748.803	0.32
748.98	0.32
749.158	0.56
749.335	0.47
749.513	0.46
749.69	0.35
749.868	0.37
750.045	0.36
750.223	0.38
750.4	0.19
750.578	0.74
750.755	0.45
750.932	0.2
751.11	0.45
751.287	0.39
751.464	0.57
751.642	0.32
751.819	0.48
751.996	0.49
752.173	0.29
752.351	0.34
752.528	0.37
752.705	0.43
752.882	0.35
753.06	0.49
753.237	0.45
753.414	0.66
753.591	0.58
753.768	0.39
753.945	0.37
754.122	0.38
754.299	0.49
754.476	0.31
754.654	0.37
754.831	0.49
755.008	0.42
755.185	0.17
755.362	0.21
755.539	0.38
755.716	0.41
755.892	0.42
756.069	0.41
756.246	0.46
756.423	0.41
756.6	0.55
756.777	0.33
756.954	0.49
757.131	0.54
757.307	0.25
757.484	0.16
757.661	0.37
757.838	0.34
758.015	0.13
758.191	0.48
758.368	0.46
758.545	0.53
758.721	0.5
758.898	0.21
759.075	0.4
759.251	0.45
759.428	0.47
759.605	0.15
759.781	0.38
759.958	0.48
760.134	0.39
760.311	0.38
760.488	0.58
760.664	0.7
760.841	0.38
761.017	0.26
761.194	0.42
761.37	0.57
761.547	0.4
761.723	0.27
761.899	0.59
762.076	0.36
762.252	0.29
762.429	0.31
762.605	0.52
762.781	0.27
762.958	0.45
763.134	0.35
763.31	0.23
763.486	0.6
763.663	0.13
763.839	0.4
764.015	0.13
764.191	0.32
764.368	0.32
764.544	0.32
764.72	0.41
764.896	0.45
765.072	0.36
765.248	0.42
765.425	0.34
765.601	0.46
765.777	0.36
765.953	0.09
766.129	0.31
766.305	0.24
766.481	0.52
766.657	0.32
766.833	0.66
767.009	0.27
767.185	0.35
767.361	0.35
767.537	0.34
767.713	0.58
767.889	0.31
768.065	0.36
768.24	0.51
768.416	0.48
768.592	0.32
768.768	0.29
768.944	0.47
769.12	0.26
769.295	0.31
769.471	0.37
769.647	0.44
769.823	0.59
769.998	0.24
770.174	0.23
770.35	0.87
770.525	0.8
770.701	0.5
770.877	0.4
771.052	0.27
771.228	0.73
771.403	0.38
771.579	0.45
771.755	0.72
771.93	0.27
772.106	0.26
772.281	0.06
772.457	0.23
772.632	0.4
772.808	0.19
772.983	0.22
773.159	0.23
773.334	0.64
773.509	0.43
773.685	0.25
773.86	0.83
774.036	0.63
774.211	0.47
774.386	0.37
774.562	0.56
774.737	0.74
774.912	0.27
775.087	0.45
775.263	0.42
775.438	0.34
775.613	0.3
775.788	0.33
775.964	0.59
776.139	0.86
776.314	0.2
776.489	0.45
776.664	0.43
776.839	0.33
777.014	0.49
777.19	0.64
777.365	0.82
777.54	0.61
777.715	0.31
777.89	0.32
778.065	0.32
778.24	0.36
778.415	0.48
778.59	0.31
778.765	0.42
778.94	0.57
779.115	0.29
779.289	0.3
779.464	0.35
779.639	0.3
779.814	0.27
779.989	0.17
780.164	0.64
780.339	0.64
780.513	0.46
780.688	0.18
780.863	0.4
781.038	0.75
781.212	0.06
781.387	0.22
781.562	0.78
781.737	0.37
781.911	0.65
782.086	0.14
782.261	0.3
782.435	0.67
782.61	0.21
782.784	0.33
782.959	0.67
783.134	0.35
783.308	0.06
783.483	0.41
783.657	0.91
783.832	0.79
784.006	0.07
784.181	0.38
784.355	0.61
784.53	0.37
784.704	0.15
784.878	0.83
785.053	0.71
785.227	0.86
785.402	0.78
785.576	0.19
785.75	0.36
785.925	0.41
786.099	0.54
786.273	0.5
786.448	0.8
786.622	0.65
786.796	0.48
786.97	0.28
787.145	1.01
787.319	0.19
787.493	0.34
787.667	-0.08
787.841	0.5
788.015	0.9
788.19	0.44
788.364	0.34
788.538	0.84
788.712	0.63
788.886	0.36
789.06	0.76
789.234	0.63
789.408	0.22
789.582	0.47
789.756	0.22
789.93	0.21
790.104	0.47
790.278	0.24
790.452	0.24
790.626	0.54
790.8	0.3
790.973	0.68
791.147	0.64
791.321	0.75
791.495	0.68
791.669	0.46
791.843	0.53
792.016	0.53
792.19	1.14
792.364	0.26
792.538	1.17
792.711	0.83
792.885	0.19
793.059	0.16
793.233	-0.21
793.406	0.69
793.58	0.42
793.754	0.78
793.927	0.46
794.101	0.99
794.274	0.64
794.448	0.72
794.622	0.17
794.795	1.15
794.969	0.43
795.142	0.58
795.316	0.46
795.489	0.37
795.663	0.91
795.836	0.28
796.009	0.19
796.183	1.12
796.356	0.6
796.53	0.66
796.703	0.3
796.876	1.24
797.05	0.58
797.223	0.6
797.396	0.41
797.57	0.5
797.743	0.98
797.916	0.54
798.09	0.47
798.263	0.85
798.436	0.84
798.609	0.27
798.782	0.45
798.956	0.81
799.129	0.49
799.302	0.45
799.475	0.3
799.648	0.42
799.821	0.4
799.994	0.58
800.167	-0.16
800.34	0.69
800.514	0.49
800.687	0.08
800.86	0.02
801.033	0.64
801.206	0.86
801.379	0.26
801.551	0.85
801.724	0.41
801.897	1.21
802.07	0.27
802.243	-0.05
802.416	0.65
802.589	0.67
802.762	0.65
802.935	0.35
803.107	0.89
803.28	0.95
803.453	0.8
803.626	0.42
803.798	0.81
803.971	0.47
804.144	0.81
804.317	0.8
804.489	1.06
804.662	0.34
804.835	0.62
805.007	0.13
805.18	1.14
805.353	0.62
805.525	0.3
805.698	0.52
805.87	1.08
806.043	0.86
806.215	0.17
806.388	0.22
806.56	0.57
806.733	1
806.905	0.57
807.078	0.29
807.25	0.45
807.423	0.9
807.595	0.67
807.768	0.72
807.94	0.98
808.112	0.64
808.285	0.69
808.457	0.45
808.629	0.7
808.802	0.86
808.974	0.85
809.146	0.14
809.318	0.52
809.491	1.04
809.663	0.99
809.835	0.13
810.007	0.89
810.18	0.6
810.352	-0.12
810.524	0.45
810.696	1.13
810.868	1.26
811.04	0.33
811.212	0.37
811.384	1.02
811.556	0.81
811.728	0.69
811.901	1.93
812.073	0.46
812.245	0.95
812.417	0.36
812.589	-0.21
812.76	0.95
812.932	1
813.104	0.95
813.276	0.36
813.448	1.35
813.62	0.92
813.792	0.67
813.964	0.41
814.136	1.02
814.307	0.64
814.479	0.1
814.651	0.24
814.823	1.83
814.995	0.38
815.166	0.62
815.338	0.43
815.51	-0.01
815.681	1.69
815.853	0.75
816.025	0.74
816.196	1.49
816.368	1.12
816.54	0.18
816.711	0.25
816.883	1.17
817.054	2.02
817.226	0.43
817.398	0.78
817.569	0.44
817.741	0.77
817.912	0.22
818.084	0.39
818.255	1.32
818.426	0.53
818.598	0.68
818.769	0.26
818.941	1.01
819.112	1.41
819.283	0.71
819.455	0.19
819.626	0.8
819.798	1.34
819.969	1.08
820.14	0.52
820.311	0.74
820.483	0.91
820.654	0.89
820.825	0.74
820.996	0.56
821.168	0.61
821.339	0.73
821.51	0.19
821.681	0.57
821.852	0.74
822.023	0.13
822.195	0.49
822.366	1.17
822.537	0.8
822.708	0.87
822.879	0.36
823.05	1.41
823.221	0.86
823.392	1.19
823.563	1.1
823.734	1.06
823.905	0.68
824.076	0.8
824.247	0.27
824.418	0.61
824.589	2.09
824.759	0.7
824.93	0.82
825.101	-0.08
825.272	1.65
825.443	1.17
825.614	1.57
825.784	0.38
825.955	1.76
826.126	1.76
826.297	1.27
826.467	2.11
826.638	2.03
826.809	-0.02
826.98	0.43
827.15	1.28
827.321	1.05
827.492	1.35
827.662	0.94
827.833	2.04
828.003	1.75
828.174	0.09
828.345	-0.07
828.515	2.51
828.686	1.16
828.856	0.25
829.027	1.27
829.197	1.17
829.368	1.55
829.538	0.45
829.709	0.39
829.879	1.46
830.049	0.92
830.22	0.68
830.39	0.57
830.56	2.07
830.731	1.55
830.901	0.14
831.072	0.92
831.242	1.49
831.412	1.9
831.582	0.56
831.753	0
831.923	1.16
832.093	1.17
832.263	0.88
832.434	0.24
832.604	0.79
832.774	1.95
832.944	0.76
833.114	0.58
833.284	1.03
833.454	0.99
833.624	0.52
833.795	0.67
833.965	1.64
834.135	1.61
834.305	-0.09
834.475	0.34
834.645	1.55
834.815	1.22
834.985	-0.36
835.155	-0.04
835.325	1.86
835.494	1.54
835.664	0.43
835.834	0.48
836.004	0.76
836.174	1.89
836.344	0.69
836.514	0.23
836.684	0.19
836.853	1.19
837.023	1.68
837.193	0.75
837.363	2.17
837.532	2.06
837.702	1.44
837.872	0.01
838.041	1.1
838.211	3.34
838.381	-0.04
838.55	0.74
838.72	4.12
838.89	2.93
839.059	0.29
839.229	-0.56
839.398	3.31
839.568	1.39
839.738	0.86
839.907	2.56
840.077	1.66
840.246	0.8
840.416	0.12
840.585	0.58
840.755	3
840.924	1.9
841.093	0.2
841.263	1.05
841.432	1.38
841.602	1.45
841.771	0.29
841.94	0.48
842.11	3.58
842.279	2.78
842.448	0.57
842.617	0.87
842.787	3.29
842.956	0.31
843.125	0.71
843.294	0.92
843.464	2.14
843.633	1.84
843.802	0.11
843.971	0.88
844.14	1.58
844.309	2.67
844.479	-0.78
844.648	-0.31
844.817	1.06
844.986	2.12
845.155	0.67
845.324	1.7
845.493	0.64
845.662	1.34
845.831	1.76
846	2.16
846.169	0.91
846.338	3.1
846.507	1.21
846.676	1.17
846.844	0.92
847.013	2.28
847.182	1.19
847.351	1.3
847.52	1.77
847.689	2.77
847.858	0.78
848.026	0.88
848.195	1.34
848.364	0.83
848.533	0.23
848.701	0.5
848.87	1.34
849.039	3.91
849.207	1.28
849.376	2.97
849.545	2.67
849.713	0.96
849.882	0.4
850.051	0.86
850.219	1.99
850.388	2.9
850.556	0.67
850.725	0.49
850.893	1.21
851.062	1.11
851.23	2.45
851.399	0.34
851.567	1.6
851.736	1.11
851.904	-0.16
852.073	0.93
852.241	2.89
852.41	2.25
852.578	1.41
852.746	1.14
852.915	1.71
853.083	2.59
853.251	-0.66
853.42	0.5
853.588	1.17
853.756	3.18
853.924	1.66
854.093	2.31
854.261	0.59
854.429	-0.32
854.597	1.91
854.765	0.49
854.934	2.85
855.102	2.72
855.27	1.36
855.438	1.81
855.606	2.62
855.774	3.07
855.942	0.19
856.11	0.27
856.278	1.23
856.446	2.63
856.614	1.15
856.782	0.12
856.95	3.59
857.118	3.14
857.286	2.09
857.454	1.76
857.622	4.33
857.79	2.63
857.958	0.81
858.126	0.8
858.294	-2.6
858.462	1.37
858.629	0.24
858.797	0.4
858.965	2.51
859.133	2.02
859.301	1.75
859.468	1.8
859.636	0.7
859.804	3.88
859.971	1.82
860.139	0.08
860.307	3.53
860.474	2.29
860.642	0.12
860.81	-0.09
860.977	1.47
861.145	4.99
861.313	1.8
861.48	1.3
861.648	3.3
861.815	1.03
861.983	-0.1
862.15	1.08
862.318	4.04
862.485	2.97
862.653	0.28
862.82	0.57
862.988	4.97
863.155	0.26
863.322	1.04
863.49	0.66
863.657	0.35
863.824	4.46
863.992	2.93
864.159	2.16
864.326	3.84
864.494	1.99
864.661	4.71
864.828	0.7
864.996	3
865.163	5.7
865.33	-0.08
865.497	-1.01
865.664	1.5
865.832	-0.5
865.999	1.02
866.166	0.95
866.333	0.47
866.5	2.45
866.667	0.94
866.834	2.28
867.001	4.42
867.168	-1.51
867.335	1.93
867.502	-0.39
867.669	2.38
867.836	6.1
868.003	1.77
868.17	3.04
868.337	5.63
868.504	6.28
868.671	-0.54
868.838	1.75
869.005	3.38
869.172	2.7
869.339	1.89
869.505	1.32
869.672	3.33
869.839	4.95
870.006	2.46
870.173	0.07
870.339	3.6
870.506	6.72
870.673	0.62
870.84	2
871.006	2.1
871.173	3.31
871.34	0.93
871.506	0.54
871.673	3.26
871.839	-0.25
872.006	1.24
872.173	0.83
872.339	3.14
872.506	4.88
872.672	1.39
872.839	0.82
873.005	3.9
873.172	3.39
873.338	3.89
873.505	2.76
873.671	2.15
873.838	4.14
874.004	-0.91
874.171	-0.49
874.337	3.04
874.503	4.2
874.67	1.61
874.836	1.56
875.002	5.12
875.169	4.02
875.335	1.49
875.501	1.17
875.668	4.73
875.834	2.17
876	-0.24
876.166	1.17
876.332	4.44
876.499	5.84
876.665	0.23
876.831	1.76
876.997	7.59
877.163	3.28
877.329	1.07
877.495	1.38
877.662	4.04
877.828	3.09
877.994	1.65
878.16	-1.32
878.326	2.6
878.492	1.36
878.658	3.05
878.824	2.57
878.99	3.37
879.156	1.2
879.322	5.18
879.487	0.25
879.653	3.04
879.819	3.31
879.985	0.62
880.151	2.19
880.317	4.4
880.483	3.76
880.648	4.14
880.814	-0.29
880.98	4.25
881.146	-2.3
881.312	1.06
881.477	2.07
881.643	1.89
881.809	3.66
881.974	1.55
882.14	0.2
882.306	0.99
882.471	6.34
882.637	1.93
882.803	2.67
882.968	6.42
883.134	6.03
883.299	0.87
883.465	1.65
883.63	6.61
883.796	4.91
883.961	4.11
884.127	3.21
884.292	-1.92
884.458	-0.12
884.623	-0.12
