Data from Apollo_Calib_20240827__AbsoluteIrradiance__18__23-27-01-833.txt Node

Date: Tue Aug 27 23:27:01 BST 2024
User: biology
Spectrometer: FLMT08252
Trigger mode: 0
Integration Time (sec): 5.000000E-1
Scans to average: 5
Electric dark correction enabled: true
Nonlinearity correction enabled: false
Boxcar width: 0
XAxis mode: Wavelengths
Number of Pixels in Spectrum: 3648
>>>>>Begin Spectral Data<<<<<
179.588	-0
179.809	-0
180.03	-0
180.251	-0
180.473	-0
180.694	0
180.915	0
181.136	-0
181.357	-0
181.578	0
181.799	-0
182.02	-0
182.241	0
182.462	-0
182.683	0
182.904	-0
183.125	-0
183.346	0
183.567	0
183.788	0
184.009	0
184.23	0
184.451	0
184.672	0
184.892	0
185.113	0
185.334	0
185.555	0
185.776	0
185.996	0
186.217	0
186.438	0
186.659	0
186.879	0
187.1	0
187.321	0
187.541	0
187.762	0
187.983	0
188.203	0
188.424	0
188.644	0
188.865	0
189.086	0
189.306	0
189.527	0
189.747	0
189.968	0
190.188	0
190.409	0
190.629	0
190.849	0
191.07	0
191.29	0
191.511	0
191.731	0
191.951	0
192.172	0
192.392	0
192.612	0
192.833	0
193.053	0
193.273	0
193.493	0
193.714	0
193.934	0
194.154	0
194.374	0
194.594	0
194.815	0
195.035	0
195.255	0
195.475	0
195.695	0
195.915	0
196.135	0
196.355	0
196.575	0
196.795	0
197.015	0
197.235	0
197.455	0
197.675	0
197.895	0
198.115	0
198.335	0
198.555	0
198.775	0
198.995	0
199.214	0
199.434	0
199.654	0
199.874	0
200.094	3.62
200.313	2.18
200.533	2.66
200.753	2.58
200.973	3.63
201.192	3.08
201.412	1.7
201.632	2.24
201.851	3.48
202.071	1.71
202.291	2.29
202.51	1.59
202.73	2.68
202.95	1.93
203.169	1.77
203.389	1.74
203.608	2.37
203.828	1.69
204.047	2.2
204.267	2.53
204.486	1.79
204.706	1.99
204.925	2.07
205.145	1.74
205.364	2.39
205.583	2.65
205.803	1.43
206.022	1.49
206.242	1.7
206.461	1.92
206.68	1.51
206.9	1.99
207.119	2.22
207.338	1.65
207.557	1.47
207.777	1.38
207.996	1.56
208.215	2.02
208.434	1.36
208.654	1.54
208.873	1.55
209.092	2.06
209.311	1.57
209.53	1.47
209.749	1.35
209.968	1.15
210.187	1.29
210.407	0.97
210.626	1.34
210.845	1.43
211.064	1.22
211.283	1.05
211.502	1.54
211.721	1.18
211.94	1.12
212.159	1.49
212.377	1.28
212.596	1.31
212.815	1.33
213.034	1.34
213.253	1.59
213.472	1.16
213.691	1.07
213.91	0.81
214.128	0.91
214.347	1.68
214.566	0.71
214.785	0.85
215.003	1.24
215.222	1.08
215.441	1.1
215.66	0.67
215.878	1.2
216.097	1.22
216.316	0.93
216.534	1.03
216.753	1.02
216.972	0.9
217.19	0.83
217.409	0.86
217.627	0.9
217.846	0.82
218.064	0.83
218.283	0.89
218.501	1.29
218.72	0.98
218.938	0.71
219.157	0.64
219.375	1.08
219.594	1.02
219.812	0.69
220.031	0.64
220.249	1.08
220.467	1.06
220.686	0.79
220.904	0.72
221.122	0.78
221.341	1.11
221.559	0.97
221.777	0.69
221.995	0.88
222.214	0.84
222.432	0.66
222.65	0.95
222.868	0.74
223.086	0.82
223.305	0.97
223.523	0.87
223.741	1.18
223.959	0.63
224.177	0.42
224.395	0.62
224.613	0.8
224.831	0.9
225.049	0.4
225.267	0.59
225.485	0.67
225.703	0.6
225.921	0.8
226.139	0.68
226.357	0.85
226.575	0.82
226.793	0.51
227.011	1.3
227.229	0.85
227.447	0.77
227.665	0.48
227.883	0.48
228.1	0.7
228.318	0.7
228.536	0.41
228.754	0.52
228.972	0.77
229.189	0.7
229.407	0.57
229.625	0.56
229.843	0.91
230.06	0.78
230.278	0.58
230.496	0.59
230.713	0.54
230.931	0.71
231.149	0.56
231.366	0.42
231.584	0.64
231.801	0.93
232.019	0.47
232.236	0.37
232.454	0.55
232.671	0.61
232.889	0.71
233.106	0.57
233.324	0.63
233.541	0.5
233.759	0.53
233.976	0.46
234.194	0.56
234.411	0.65
234.628	0.55
234.846	0.47
235.063	0.56
235.28	0.58
235.498	0.52
235.715	0.44
235.932	0.77
236.149	0.61
236.367	0.45
236.584	0.58
236.801	0.51
237.018	0.57
237.236	0.67
237.453	0.47
237.67	0.67
237.887	0.49
238.104	0.52
238.321	0.44
238.538	0.46
238.755	0.65
238.973	0.41
239.19	0.54
239.407	0.61
239.624	0.51
239.841	0.35
240.058	0.46
240.275	0.57
240.492	0.51
240.709	0.48
240.925	0.39
241.142	0.56
241.359	0.39
241.576	0.49
241.793	0.38
242.01	0.55
242.227	0.64
242.444	0.57
242.66	0.52
242.877	0.44
243.094	0.46
243.311	0.6
243.527	0.5
243.744	0.48
243.961	0.59
244.178	0.47
244.394	0.43
244.611	0.61
244.828	0.68
245.044	0.35
245.261	0.43
245.477	0.46
245.694	0.65
245.911	0.46
246.127	0.53
246.344	0.61
246.56	0.56
246.777	0.45
246.993	0.43
247.21	0.51
247.426	0.5
247.643	0.39
247.859	0.36
248.076	0.4
248.292	0.64
248.508	0.43
248.725	0.49
248.941	0.56
249.157	0.51
249.374	0.43
249.59	0.42
249.806	0.38
250.023	0.5
250.239	0.42
250.455	0.41
250.671	0.43
250.888	0.38
251.104	0.52
251.32	0.33
251.536	0.4
251.752	0.41
251.969	0.42
252.185	0.45
252.401	0.51
252.617	0.49
252.833	0.43
253.049	0.47
253.265	0.41
253.481	0.47
253.697	0.42
253.913	0.36
254.129	0.4
254.345	0.4
254.561	0.38
254.777	0.43
254.993	0.49
255.209	0.42
255.425	0.42
255.641	0.42
255.857	0.54
256.073	0.39
256.288	0.36
256.504	0.39
256.72	0.45
256.936	0.49
257.152	0.44
257.367	0.39
257.583	0.43
257.799	0.46
258.015	0.28
258.23	0.36
258.446	0.52
258.662	0.39
258.877	0.37
259.093	0.33
259.309	0.33
259.524	0.44
259.74	0.41
259.955	0.29
260.171	0.45
260.387	0.48
260.602	0.45
260.818	0.48
261.033	0.36
261.249	0.44
261.464	0.37
261.68	0.29
261.895	0.4
262.11	0.47
262.326	0.4
262.541	0.26
262.757	0.47
262.972	0.38
263.187	0.43
263.403	0.39
263.618	0.47
263.833	0.33
264.049	0.38
264.264	0.36
264.479	0.42
264.694	0.46
264.91	0.22
265.125	0.4
265.34	0.38
265.555	0.45
265.77	0.41
265.986	0.32
266.201	0.39
266.416	0.5
266.631	0.38
266.846	0.36
267.061	0.42
267.276	0.44
267.491	0.24
267.706	0.42
267.921	0.35
268.136	0.35
268.351	0.42
268.566	0.25
268.781	0.41
268.996	0.41
269.211	0.35
269.426	0.34
269.641	0.32
269.856	0.36
270.071	0.33
270.285	0.3
270.5	0.48
270.715	0.46
270.93	0.37
271.145	0.37
271.359	0.43
271.574	0.24
271.789	0.36
272.004	0.36
272.218	0.32
272.433	0.37
272.648	0.28
272.862	0.47
273.077	0.38
273.292	0.35
273.506	0.32
273.721	0.35
273.936	0.44
274.15	0.35
274.365	0.28
274.579	0.43
274.794	0.39
275.008	0.41
275.223	0.22
275.437	0.35
275.652	0.49
275.866	0.35
276.081	0.3
276.295	0.41
276.509	0.36
276.724	0.29
276.938	0.39
277.153	0.36
277.367	0.38
277.581	0.34
277.796	0.3
278.01	0.3
278.224	0.37
278.438	0.42
278.653	0.34
278.867	0.28
279.081	0.13
279.295	0.34
279.51	0.32
279.724	0.23
279.938	0.34
280.152	0.32
280.366	0.27
280.58	0.33
280.794	0.45
281.008	0.34
281.222	0.33
281.437	0.47
281.651	0.31
281.865	0.41
282.079	0.3
282.293	0.16
282.507	0.29
282.721	0.34
282.935	0.36
283.148	0.22
283.362	0.27
283.576	0.3
283.79	0.38
284.004	0.25
284.218	0.35
284.432	0.28
284.646	0.34
284.859	0.24
285.073	0.26
285.287	0.31
285.501	0.31
285.714	0.31
285.928	0.28
286.142	0.34
286.356	0.28
286.569	0.23
286.783	0.36
286.997	0.31
287.21	0.26
287.424	0.29
287.637	0.3
287.851	0.27
288.065	0.38
288.278	0.26
288.492	0.32
288.705	0.34
288.919	0.33
289.132	0.26
289.346	0.36
289.559	0.28
289.773	0.21
289.986	0.29
290.2	0.3
290.413	0.38
290.626	0.2
290.84	0.3
291.053	0.29
291.267	0.32
291.48	0.25
291.693	0.33
291.906	0.29
292.12	0.25
292.333	0.23
292.546	0.31
292.76	0.39
292.973	0.31
293.186	0.3
293.399	0.23
293.612	0.32
293.826	0.28
294.039	0.29
294.252	0.26
294.465	0.35
294.678	0.28
294.891	0.29
295.104	0.25
295.317	0.29
295.53	0.28
295.743	0.28
295.956	0.28
296.169	0.32
296.382	0.34
296.595	0.27
296.808	0.23
297.021	0.33
297.234	0.33
297.447	0.27
297.66	0.3
297.873	0.32
298.086	0.3
298.299	0.22
298.511	0.28
298.724	0.27
298.937	0.27
299.15	0.24
299.363	0.27
299.575	0.32
299.788	0.27
300.001	0.23
300.213	0.18
300.426	0.25
300.639	0.24
300.852	0.23
301.064	0.33
301.277	0.33
301.489	0.29
301.702	0.29
301.915	0.26
302.127	0.23
302.34	0.32
302.552	0.28
302.765	0.23
302.977	0.31
303.19	0.25
303.402	0.26
303.615	0.25
303.827	0.22
304.04	0.23
304.252	0.3
304.464	0.23
304.677	0.4
304.889	0.28
305.102	0.23
305.314	0.23
305.526	0.31
305.739	0.28
305.951	0.25
306.163	0.24
306.375	0.35
306.588	0.25
306.8	0.24
307.012	0.23
307.224	0.3
307.436	0.36
307.649	0.2
307.861	0.25
308.073	0.3
308.285	0.25
308.497	0.24
308.709	0.25
308.921	0.23
309.133	0.31
309.346	0.28
309.558	0.22
309.77	0.3
309.982	0.29
310.194	0.3
310.406	0.22
310.617	0.38
310.829	0.28
311.041	0.32
311.253	0.23
311.465	0.25
311.677	0.26
311.889	0.27
312.101	0.24
312.313	0.3
312.524	0.29
312.736	0.21
312.948	0.25
313.16	0.36
313.372	0.32
313.583	0.29
313.795	0.21
314.007	0.24
314.218	0.33
314.43	0.29
314.642	0.26
314.853	0.17
315.065	0.29
315.277	0.25
315.488	0.28
315.7	0.3
315.912	0.31
316.123	0.24
316.335	0.3
316.546	0.32
316.758	0.25
316.969	0.23
317.181	0.28
317.392	0.25
317.604	0.33
317.815	0.23
318.026	0.23
318.238	0.24
318.449	0.27
318.661	0.18
318.872	0.23
319.083	0.25
319.295	0.28
319.506	0.18
319.717	0.28
319.929	0.33
320.14	0.29
320.351	0.29
320.562	0.27
320.774	0.27
320.985	0.28
321.196	0.25
321.407	0.23
321.618	0.34
321.829	0.24
322.041	0.27
322.252	0.25
322.463	0.33
322.674	0.26
322.885	0.24
323.096	0.23
323.307	0.26
323.518	0.3
323.729	0.24
323.94	0.28
324.151	0.26
324.362	0.31
324.573	0.27
324.784	0.25
324.995	0.29
325.206	0.29
325.417	0.26
325.628	0.27
325.838	0.24
326.049	0.24
326.26	0.31
326.471	0.25
326.682	0.29
326.892	0.27
327.103	0.24
327.314	0.21
327.525	0.33
327.735	0.28
327.946	0.3
328.157	0.25
328.368	0.26
328.578	0.25
328.789	0.26
328.999	0.23
329.21	0.21
329.421	0.29
329.631	0.23
329.842	0.19
330.052	0.26
330.263	0.28
330.473	0.32
330.684	0.26
330.894	0.26
331.105	0.26
331.315	0.24
331.526	0.19
331.736	0.31
331.947	0.27
332.157	0.26
332.367	0.23
332.578	0.3
332.788	0.3
332.999	0.28
333.209	0.24
333.419	0.22
333.629	0.21
333.84	0.32
334.05	0.24
334.26	0.32
334.47	0.32
334.681	0.3
334.891	0.2
335.101	0.25
335.311	0.34
335.521	0.29
335.732	0.21
335.942	0.32
336.152	0.31
336.362	0.28
336.572	0.24
336.782	0.28
336.992	0.24
337.202	0.26
337.412	0.27
337.622	0.28
337.832	0.24
338.042	0.24
338.252	0.25
338.462	0.23
338.672	0.28
338.882	0.26
339.092	0.29
339.302	0.34
339.511	0.28
339.721	0.26
339.931	0.25
340.141	0.29
340.351	0.29
340.561	0.27
340.77	0.29
340.98	0.28
341.19	0.29
341.4	0.25
341.609	0.22
341.819	0.22
342.029	0.22
342.238	0.25
342.448	0.23
342.658	0.31
342.867	0.31
343.077	0.22
343.286	0.25
343.496	0.29
343.706	0.33
343.915	0.22
344.125	0.28
344.334	0.29
344.544	0.2
344.753	0.26
344.963	0.27
345.172	0.24
345.381	0.23
345.591	0.23
345.8	0.28
346.01	0.31
346.219	0.28
346.428	0.14
346.638	0.23
346.847	0.3
347.056	0.32
347.266	0.2
347.475	0.32
347.684	0.29
347.893	0.26
348.103	0.27
348.312	0.28
348.521	0.21
348.73	0.24
348.94	0.29
349.149	0.22
349.358	0.25
349.567	0.19
349.776	0.22
349.985	0.2
350.194	0.27
350.403	0.28
350.612	0.21
350.821	0.24
351.03	0.24
351.239	0.22
351.448	0.25
351.657	0.23
351.866	0.37
352.075	0.22
352.284	0.3
352.493	0.19
352.702	0.3
352.911	0.33
353.12	0.24
353.329	0.25
353.538	0.29
353.746	0.26
353.955	0.23
354.164	0.26
354.373	0.26
354.582	0.27
354.79	0.24
354.999	0.3
355.208	0.26
355.416	0.29
355.625	0.23
355.834	0.23
356.042	0.27
356.251	0.27
356.46	0.22
356.668	0.26
356.877	0.32
357.085	0.27
357.294	0.25
357.503	0.29
357.711	0.21
357.92	0.38
358.128	0.26
358.337	0.22
358.545	0.25
358.754	0.25
358.962	0.3
359.17	0.24
359.379	0.26
359.587	0.24
359.796	0.27
360.004	0.33
360.212	0.26
360.421	0.27
360.629	0.21
360.837	0.26
361.046	0.29
361.254	0.37
361.462	0.26
361.67	0.25
361.879	0.3
362.087	0.31
362.295	0.27
362.503	0.24
362.711	0.2
362.92	0.26
363.128	0.21
363.336	0.2
363.544	0.16
363.752	0.27
363.96	0.26
364.168	0.23
364.376	0.25
364.584	0.27
364.792	0.32
365	0.25
365.208	0.25
365.416	0.29
365.624	0.32
365.832	0.23
366.04	0.28
366.248	0.27
366.456	0.25
366.664	0.27
366.872	0.24
367.079	0.25
367.287	0.22
367.495	0.23
367.703	0.24
367.911	0.24
368.118	0.23
368.326	0.23
368.534	0.22
368.742	0.32
368.949	0.19
369.157	0.22
369.365	0.3
369.572	0.22
369.78	0.24
369.988	0.31
370.195	0.32
370.403	0.27
370.61	0.23
370.818	0.27
371.026	0.31
371.233	0.24
371.441	0.24
371.648	0.27
371.856	0.27
372.063	0.29
372.271	0.21
372.478	0.22
372.685	0.25
372.893	0.27
373.1	0.27
373.308	0.24
373.515	0.35
373.722	0.26
373.93	0.23
374.137	0.28
374.344	0.36
374.552	0.3
374.759	0.3
374.966	0.34
375.173	0.28
375.381	0.33
375.588	0.25
375.795	0.18
376.002	0.24
376.209	0.24
376.417	0.26
376.624	0.23
376.831	0.29
377.038	0.25
377.245	0.18
377.452	0.25
377.659	0.28
377.866	0.29
378.073	0.27
378.28	0.3
378.487	0.32
378.694	0.3
378.901	0.27
379.108	0.25
379.315	0.28
379.522	0.34
379.729	0.29
379.936	0.27
380.143	0.33
380.35	0.29
380.557	0.3
380.763	0.29
380.97	0.25
381.177	0.31
381.384	0.32
381.591	0.29
381.797	0.29
382.004	0.33
382.211	0.29
382.418	0.28
382.624	0.34
382.831	0.35
383.038	0.28
383.244	0.32
383.451	0.26
383.658	0.3
383.864	0.27
384.071	0.27
384.277	0.33
384.484	0.24
384.69	0.32
384.897	0.26
385.103	0.3
385.31	0.23
385.516	0.28
385.723	0.26
385.929	0.33
386.136	0.24
386.342	0.28
386.549	0.25
386.755	0.37
386.961	0.31
387.168	0.27
387.374	0.3
387.58	0.3
387.787	0.28
387.993	0.32
388.199	0.3
388.406	0.31
388.612	0.29
388.818	0.28
389.024	0.26
389.231	0.33
389.437	0.36
389.643	0.34
389.849	0.29
390.055	0.29
390.261	0.32
390.467	0.34
390.674	0.3
390.88	0.3
391.086	0.32
391.292	0.28
391.498	0.34
391.704	0.34
391.91	0.34
392.116	0.28
392.322	0.27
392.528	0.33
392.734	0.29
392.94	0.34
393.146	0.31
393.352	0.31
393.557	0.28
393.763	0.3
393.969	0.3
394.175	0.29
394.381	0.36
394.587	0.3
394.792	0.3
394.998	0.37
395.204	0.36
395.41	0.29
395.615	0.31
395.821	0.39
396.027	0.35
396.233	0.32
396.438	0.35
396.644	0.43
396.85	0.35
397.055	0.35
397.261	0.35
397.466	0.43
397.672	0.32
397.878	0.4
398.083	0.34
398.289	0.34
398.494	0.41
398.7	0.39
398.905	0.28
399.111	0.34
399.316	0.32
399.522	0.38
399.727	0.37
399.932	0.36
400.138	0.33
400.343	0.37
400.549	0.32
400.754	0.39
400.959	0.4
401.165	0.34
401.37	0.35
401.575	0.46
401.78	0.4
401.986	0.4
402.191	0.38
402.396	0.38
402.601	0.4
402.807	0.44
403.012	0.41
403.217	0.46
403.422	0.4
403.627	0.41
403.832	0.39
404.037	0.45
404.243	0.44
404.448	0.39
404.653	0.42
404.858	0.45
405.063	0.44
405.268	0.41
405.473	0.4
405.678	0.42
405.883	0.6
406.088	0.54
406.293	0.45
406.498	0.5
406.703	0.47
406.907	0.51
407.112	0.41
407.317	0.56
407.522	0.58
407.727	0.53
407.932	0.56
408.136	0.64
408.341	0.58
408.546	0.55
408.751	0.61
408.956	0.59
409.16	0.61
409.365	0.62
409.57	0.63
409.774	0.63
409.979	0.71
410.184	0.67
410.388	0.68
410.593	0.74
410.798	0.72
411.002	0.76
411.207	0.79
411.411	0.83
411.616	0.75
411.82	0.86
412.025	0.84
412.229	0.82
412.434	0.94
412.638	0.92
412.843	0.93
413.047	0.93
413.252	0.97
413.456	1.03
413.66	1.04
413.865	1.08
414.069	1.14
414.273	1.1
414.478	1.11
414.682	1.2
414.886	1.19
415.091	1.2
415.295	1.25
415.499	1.36
415.703	1.34
415.908	1.38
416.112	1.33
416.316	1.57
416.52	1.54
416.724	1.55
416.929	1.63
417.133	1.84
417.337	1.71
417.541	1.82
417.745	1.83
417.949	1.96
418.153	1.96
418.357	1.93
418.561	2.26
418.765	2.25
418.969	2.27
419.173	2.31
419.377	2.36
419.581	2.6
419.785	2.62
419.989	2.61
420.193	2.79
420.397	2.85
420.601	2.89
420.804	3.03
421.008	3
421.212	3.24
421.416	3.2
421.62	3.17
421.823	3.34
422.027	3.42
422.231	3.44
422.435	3.47
422.638	3.49
422.842	3.68
423.046	3.69
423.249	3.92
423.453	3.96
423.657	4.02
423.86	4.15
424.064	4.23
424.268	4.44
424.471	4.41
424.675	4.55
424.878	4.72
425.082	4.84
425.285	5.1
425.489	4.99
425.692	5.13
425.896	5.24
426.099	5.41
426.303	5.54
426.506	5.73
426.71	5.9
426.913	6
427.116	6.3
427.32	6.2
427.523	6.32
427.726	6.6
427.93	6.71
428.133	7.08
428.336	7.18
428.54	7.35
428.743	7.47
428.946	7.76
429.149	7.75
429.353	7.93
429.556	7.87
429.759	7.95
429.962	8.19
430.165	8.25
430.368	7.96
430.571	7.97
430.775	8.1
430.978	8.01
431.181	8.1
431.384	8.13
431.587	8.21
431.79	8.67
431.993	8.71
432.196	8.81
432.399	9.26
432.602	9.33
432.805	9.46
433.008	9.91
433.211	9.91
433.414	10.23
433.616	10.31
433.819	10.14
434.022	10.44
434.225	10.61
434.428	10.6
434.631	11.08
434.833	10.81
435.036	11
435.239	11.29
435.442	11.32
435.645	11.37
435.847	11.58
436.05	11.82
436.253	12.04
436.455	12.07
436.658	11.97
436.861	12.3
437.063	12.43
437.266	12.36
437.468	12.81
437.671	12.97
437.874	13.1
438.076	12.93
438.279	13.47
438.481	13.39
438.684	14.34
438.886	13.67
439.089	14.12
439.291	14.2
439.494	14.44
439.696	14.61
439.899	15.18
440.101	15.62
440.303	15.76
440.506	16.49
440.708	16.17
440.91	16.43
441.113	16.49
441.315	16.94
441.517	16.7
441.72	17.23
441.922	16.8
442.124	16.72
442.326	17.13
442.529	17.28
442.731	17.4
442.933	17.65
443.135	17.26
443.337	17.38
443.539	17.97
443.742	17.73
443.944	18.25
444.146	18.09
444.348	18.04
444.55	17.94
444.752	18.04
444.954	18.2
445.156	18
445.358	18.53
445.56	18.74
445.762	18.48
445.964	18.77
446.166	18.68
446.368	18.67
446.57	18.62
446.772	18.3
446.974	18.04
447.175	18.14
447.377	18.07
447.579	18.54
447.781	18.09
447.983	17.75
448.184	17.44
448.386	17.83
448.588	17.38
448.79	17.3
448.991	17.46
449.193	17.6
449.395	17.08
449.597	16.6
449.798	16.54
450	16.24
450.202	15.95
450.403	15.91
450.605	15.89
450.806	15.52
451.008	15.3
451.21	15.02
451.411	14.67
451.613	13.86
451.814	14.17
452.016	14.13
452.217	13.44
452.419	13.46
452.62	13.1
452.821	12.89
453.023	12.72
453.224	12.39
453.426	12.03
453.627	11.22
453.828	11.36
454.03	11.39
454.231	11.44
454.432	11.29
454.634	10.91
454.835	10.65
455.036	10.46
455.238	10.21
455.439	9.89
455.64	9.59
455.841	9.55
456.042	9.54
456.244	9.3
456.445	9.06
456.646	8.72
456.847	8.72
457.048	8.57
457.249	8.7
457.45	8.25
457.651	7.74
457.852	7.68
458.054	7.4
458.255	7.27
458.456	7.39
458.657	7.29
458.858	6.82
459.058	6.78
459.259	6.73
459.46	6.46
459.661	6.48
459.862	6.42
460.063	6.31
460.264	6.28
460.465	6.07
460.666	6.05
460.866	5.82
461.067	5.59
461.268	5.65
461.469	5.64
461.67	5.45
461.87	5.28
462.071	5.31
462.272	5.27
462.473	5.12
462.673	5.37
462.874	5.19
463.075	5.22
463.275	5.17
463.476	5.24
463.676	5.13
463.877	5.02
464.078	5.01
464.278	4.94
464.479	4.91
464.679	4.83
464.88	4.71
465.08	4.77
465.281	4.59
465.481	4.4
465.682	4.15
465.882	4.18
466.083	4.15
466.283	4.05
466.483	3.94
466.684	3.78
466.884	3.68
467.085	3.68
467.285	3.76
467.485	3.65
467.686	3.54
467.886	3.49
468.086	3.46
468.286	3.41
468.487	3.44
468.687	3.25
468.887	3.29
469.087	3.38
469.287	3.27
469.488	3.15
469.688	3.2
469.888	3.22
470.088	3.17
470.288	3.09
470.488	3.03
470.688	2.9
470.888	2.92
471.088	2.65
471.288	2.79
471.488	2.77
471.688	2.7
471.888	2.68
472.088	2.87
472.288	2.74
472.488	2.67
472.688	2.6
472.888	2.6
473.088	2.63
473.288	2.56
473.488	2.52
473.688	2.64
473.887	2.48
474.087	2.49
474.287	2.47
474.487	2.34
474.687	2.47
474.886	2.42
475.086	2.33
475.286	2.4
475.486	2.26
475.685	2.25
475.885	2.22
476.085	2.29
476.284	2.26
476.484	2.17
476.684	2.26
476.883	2.32
477.083	2.2
477.282	2.18
477.482	2.17
477.681	2.15
477.881	2.06
478.08	2.06
478.28	2.07
478.479	2.12
478.679	2.17
478.878	2.03
479.078	2.04
479.277	2.11
479.477	2.06
479.676	2.07
479.875	2.04
480.075	1.99
480.274	2.04
480.473	2.06
480.673	2.02
480.872	2.12
481.071	2.04
481.271	2.05
481.47	2.01
481.669	2.01
481.868	1.96
482.067	1.96
482.267	1.98
482.466	1.99
482.665	1.93
482.864	1.96
483.063	1.97
483.262	2.05
483.461	2.07
483.661	2.08
483.86	2.01
484.059	2.03
484.258	2.07
484.457	2.04
484.656	2.01
484.855	2.08
485.054	1.92
485.253	2.01
485.452	1.96
485.651	2.02
485.849	2.04
486.048	2.01
486.247	2.02
486.446	2.12
486.645	2.06
486.844	2.05
487.043	2.03
487.241	2.08
487.44	2.05
487.639	2.15
487.838	2.15
488.037	2.13
488.235	2.2
488.434	2.17
488.633	2.08
488.831	2.23
489.03	2.27
489.229	2.21
489.427	2.23
489.626	2.24
489.825	2.31
490.023	2.35
490.222	2.27
490.42	2.34
490.619	2.39
490.817	2.37
491.016	2.34
491.214	2.43
491.413	2.41
491.611	2.38
491.81	2.42
492.008	2.42
492.207	2.52
492.405	2.57
492.604	2.47
492.802	2.56
493	2.61
493.199	2.59
493.397	2.61
493.595	2.68
493.794	2.68
493.992	2.78
494.19	2.74
494.388	2.8
494.587	2.7
494.785	2.77
494.983	2.73
495.181	2.87
495.379	2.88
495.578	2.93
495.776	2.95
495.974	2.9
496.172	2.98
496.37	3.03
496.568	3.09
496.766	3.09
496.964	3.16
497.162	3.15
497.36	3.22
497.558	3.22
497.756	3.29
497.954	3.28
498.152	3.37
498.35	3.47
498.548	3.35
498.746	3.41
498.944	3.42
499.142	3.45
499.34	3.51
499.538	3.65
499.736	3.53
499.933	3.56
500.131	3.58
500.329	3.81
500.527	3.79
500.725	3.84
500.922	3.81
501.12	3.88
501.318	3.96
501.516	3.94
501.713	3.98
501.911	4
502.109	4
502.306	4.07
502.504	3.99
502.701	4.11
502.899	4.19
503.097	4.33
503.294	4.19
503.492	4.34
503.689	4.37
503.887	4.33
504.084	4.42
504.282	4.39
504.479	4.4
504.677	4.58
504.874	4.52
505.072	4.45
505.269	4.64
505.466	4.66
505.664	4.77
505.861	4.69
506.059	4.8
506.256	4.83
506.453	4.85
506.651	4.95
506.848	4.98
507.045	4.94
507.242	4.95
507.44	4.98
507.637	5.08
507.834	5.04
508.031	5.19
508.229	5.12
508.426	5.06
508.623	5.23
508.82	5.32
509.017	5.25
509.214	5.27
509.411	5.4
509.608	5.33
509.805	5.46
510.003	5.4
510.2	5.46
510.397	5.65
510.594	5.6
510.791	5.62
510.988	5.61
511.184	5.63
511.381	5.51
511.578	5.7
511.775	5.77
511.972	5.75
512.169	5.8
512.366	5.78
512.563	5.94
512.76	5.93
512.956	5.98
513.153	5.98
513.35	5.92
513.547	5.89
513.744	6.05
513.94	5.99
514.137	6.13
514.334	6.06
514.53	6.18
514.727	6.34
514.924	6.2
515.12	6.23
515.317	6.25
515.514	6.22
515.71	6.19
515.907	6.37
516.103	6.39
516.3	6.36
516.497	6.49
516.693	6.43
516.89	6.48
517.086	6.5
517.283	6.47
517.479	6.38
517.676	6.61
517.872	6.64
518.068	6.66
518.265	6.6
518.461	6.56
518.658	6.68
518.854	6.65
519.05	6.76
519.247	6.87
519.443	6.68
519.639	6.9
519.836	6.72
520.032	6.75
520.228	6.86
520.424	6.82
520.621	6.88
520.817	6.95
521.013	6.94
521.209	7.06
521.405	7.09
521.601	7.05
521.798	6.99
521.994	7.03
522.19	6.93
522.386	6.99
522.582	7.07
522.778	7.24
522.974	7.08
523.17	7.09
523.366	7.08
523.562	7.13
523.758	7.19
523.954	7.02
524.15	7.26
524.346	7.26
524.542	7.27
524.738	7.25
524.934	7.3
525.129	7.32
525.325	7.19
525.521	7.23
525.717	7.41
525.913	7.32
526.109	7.38
526.304	7.45
526.5	7.42
526.696	7.41
526.892	7.3
527.087	7.6
527.283	7.52
527.479	7.45
527.674	7.35
527.87	7.5
528.066	7.45
528.261	7.47
528.457	7.46
528.653	7.61
528.848	7.56
529.044	7.66
529.239	7.5
529.435	7.51
529.63	7.49
529.826	7.5
530.021	7.55
530.217	7.6
530.412	7.55
530.608	7.53
530.803	7.59
530.999	7.56
531.194	7.6
531.389	7.71
531.585	7.71
531.78	7.82
531.975	7.67
532.171	7.76
532.366	7.69
532.561	7.73
532.757	7.67
532.952	7.87
533.147	7.65
533.342	7.74
533.538	7.68
533.733	7.89
533.928	7.55
534.123	7.77
534.318	7.84
534.513	7.68
534.709	7.87
534.904	7.78
535.099	7.89
535.294	7.84
535.489	7.88
535.684	7.8
535.879	7.78
536.074	7.88
536.269	7.89
536.464	7.88
536.659	7.84
536.854	7.85
537.049	7.94
537.244	7.9
537.439	7.89
537.634	7.88
537.828	7.99
538.023	7.91
538.218	7.96
538.413	7.76
538.608	7.85
538.803	7.93
538.997	7.92
539.192	7.92
539.387	7.85
539.582	7.88
539.776	7.84
539.971	7.99
540.166	8.02
540.36	7.89
540.555	8.1
540.75	7.96
540.944	7.99
541.139	8.02
541.334	8
541.528	7.94
541.723	8.09
541.917	8.07
542.112	7.95
542.306	7.87
542.501	7.92
542.695	7.93
542.89	7.95
543.084	7.99
543.279	8.05
543.473	8.06
543.668	8.12
543.862	7.93
544.056	7.92
544.251	8.05
544.445	8.14
544.64	8.15
544.834	7.79
545.028	7.73
545.222	8.02
545.417	8.18
545.611	8.15
545.805	8.04
546	7.84
546.194	8.09
546.388	8.07
546.582	7.92
546.776	7.99
546.97	8.06
547.165	8.06
547.359	8.03
547.553	8.01
547.747	8.02
547.941	8.17
548.135	8.01
548.329	8.04
548.523	8.09
548.717	8.01
548.911	8
549.105	7.98
549.299	8.09
549.493	8.06
549.687	8.04
549.881	8.14
550.075	8.08
550.269	7.93
550.463	8.03
550.657	8.07
550.85	8.11
551.044	8.04
551.238	8.07
551.432	8.07
551.626	8.11
551.82	8.14
552.013	8.02
552.207	8.14
552.401	8.16
552.594	8.02
552.788	7.95
552.982	8.05
553.176	7.98
553.369	8.17
553.563	8.05
553.756	8.1
553.95	8.1
554.144	8.14
554.337	8.1
554.531	7.92
554.724	8.07
554.918	8.12
555.111	8
555.305	8.18
555.498	8.04
555.692	8.21
555.885	8.15
556.079	8.02
556.272	8.1
556.466	8.05
556.659	8.04
556.852	8.16
557.046	8.02
557.239	7.96
557.432	8.05
557.626	8.12
557.819	8.18
558.012	8.15
558.206	8.27
558.399	8.09
558.592	8.07
558.785	8.03
558.979	8.01
559.172	8.11
559.365	8.06
559.558	8.05
559.751	8
559.944	8.15
560.138	8.09
560.331	8.1
560.524	8.23
560.717	8.07
560.91	8.1
561.103	8.1
561.296	7.92
561.489	8.15
561.682	8.19
561.875	8.09
562.068	8.25
562.261	8.02
562.454	8.18
562.647	8.04
562.84	8.11
563.032	8.1
563.225	8.02
563.418	8.06
563.611	8.12
563.804	8.19
563.997	7.99
564.19	7.88
564.382	8.15
564.575	8.11
564.768	8.03
564.961	8.13
565.153	8.04
565.346	7.94
565.539	8.13
565.731	8.03
565.924	8.14
566.117	8.23
566.309	8.09
566.502	8.05
566.695	7.96
566.887	8.11
567.08	8
567.272	8.16
567.465	8.03
567.657	8.09
567.85	7.97
568.042	8.04
568.235	8.09
568.427	7.97
568.62	8.04
568.812	8.08
569.005	8.14
569.197	7.99
569.389	7.99
569.582	8.01
569.774	8.09
569.966	7.98
570.159	7.91
570.351	7.96
570.543	8.01
570.736	8.02
570.928	7.87
571.12	8.03
571.312	7.91
571.505	7.76
571.697	8.05
571.889	8.02
572.081	7.98
572.273	7.89
572.465	7.94
572.658	7.98
572.85	7.99
573.042	8.02
573.234	7.91
573.426	7.93
573.618	7.9
573.81	7.97
574.002	7.93
574.194	8
574.386	7.85
574.578	7.83
574.77	7.91
574.962	7.92
575.154	7.79
575.346	7.8
575.538	7.81
575.729	7.85
575.921	7.96
576.113	7.96
576.305	7.95
576.497	7.98
576.689	7.83
576.88	7.69
577.072	7.87
577.264	7.88
577.456	7.84
577.647	7.84
577.839	7.94
578.031	7.75
578.223	7.81
578.414	7.71
578.606	7.83
578.798	7.85
578.989	7.79
579.181	7.88
579.372	7.8
579.564	7.82
579.755	7.71
579.947	7.69
580.139	7.77
580.33	7.66
580.522	7.78
580.713	7.68
580.905	7.69
581.096	7.85
581.287	7.71
581.479	7.73
581.67	7.71
581.862	7.66
582.053	7.66
582.244	7.58
582.436	7.85
582.627	7.63
582.818	7.62
583.01	7.64
583.201	7.65
583.392	7.58
583.583	7.59
583.775	7.49
583.966	7.56
584.157	7.61
584.348	7.64
584.54	7.56
584.731	7.58
584.922	7.51
585.113	7.42
585.304	7.63
585.495	7.54
585.686	7.6
585.877	7.62
586.068	7.67
586.259	7.54
586.45	7.54
586.641	7.46
586.832	7.56
587.023	7.49
587.214	7.43
587.405	7.54
587.596	7.39
587.787	7.29
587.978	7.45
588.169	7.42
588.36	7.41
588.551	7.4
588.742	7.37
588.932	7.49
589.123	7.19
589.314	7.47
589.505	7.36
589.696	7.37
589.886	7.37
590.077	7.31
590.268	7.28
590.458	7.29
590.649	7.12
590.84	7.31
591.03	7.28
591.221	7.29
591.412	7.11
591.602	7.31
591.793	7.2
591.984	7.17
592.174	7.22
592.365	7.31
592.555	7.1
592.746	7.09
592.936	7.19
593.127	7.14
593.317	7.18
593.508	7.23
593.698	7.07
593.889	7.15
594.079	7.03
594.269	6.98
594.46	7.07
594.65	7.06
594.84	7.05
595.031	6.94
595.221	6.97
595.411	7.04
595.602	7
595.792	6.96
595.982	6.84
596.172	7.03
596.363	6.91
596.553	6.89
596.743	6.92
596.933	6.94
597.123	6.84
597.314	6.78
597.504	6.76
597.694	6.93
597.884	6.79
598.074	6.87
598.264	6.85
598.454	6.84
598.644	6.72
598.834	6.77
599.024	6.78
599.214	6.68
599.404	6.81
599.594	6.7
599.784	6.59
599.974	6.7
600.164	6.69
600.354	6.56
600.544	6.52
600.734	6.59
600.924	6.55
601.114	6.51
601.303	6.58
601.493	6.52
601.683	6.53
601.873	6.57
602.063	6.47
602.252	6.49
602.442	6.44
602.632	6.47
602.821	6.4
603.011	6.44
603.201	6.44
603.39	6.37
603.58	6.27
603.77	6.37
603.959	6.43
604.149	6.32
604.339	6.4
604.528	6.4
604.718	6.38
604.907	6.31
605.097	6.24
605.286	6.2
605.476	6.26
605.665	6.27
605.855	6.24
606.044	6.23
606.234	6.22
606.423	6.21
606.612	6.17
606.802	6.07
606.991	6.13
607.181	6.23
607.37	6.17
607.559	5.89
607.749	6.14
607.938	5.97
608.127	6.02
608.316	6.02
608.506	5.95
608.695	6.06
608.884	5.94
609.073	6.02
609.263	6.08
609.452	6.04
609.641	5.84
609.83	5.83
610.019	5.96
610.208	5.83
610.397	5.84
610.586	5.83
610.775	5.77
610.965	5.83
611.154	5.73
611.343	5.76
611.532	5.73
611.721	5.8
611.91	5.69
612.099	5.73
612.287	5.56
612.476	5.59
612.665	5.75
612.854	5.59
613.043	5.62
613.232	5.57
613.421	5.56
613.61	5.56
613.798	5.53
613.987	5.59
614.176	5.56
614.365	5.55
614.554	5.56
614.742	5.54
614.931	5.38
615.12	5.51
615.309	5.47
615.497	5.37
615.686	5.31
615.875	5.43
616.063	5.32
616.252	5.35
616.44	5.36
616.629	5.29
616.818	5.24
617.006	5.29
617.195	5.22
617.383	5.2
617.572	5.21
617.76	5.23
617.949	5.19
618.137	5.25
618.326	5.2
618.514	5.07
618.703	5.07
618.891	5.12
619.079	5.08
619.268	5.14
619.456	4.97
619.644	5.12
619.833	4.97
620.021	5
620.209	4.88
620.398	4.98
620.586	4.97
620.774	4.98
620.962	4.93
621.151	5.05
621.339	4.86
621.527	4.82
621.715	4.86
621.903	4.88
622.092	4.77
622.28	4.92
622.468	4.66
622.656	4.83
622.844	4.79
623.032	4.8
623.22	4.7
623.408	4.78
623.596	4.74
623.784	4.76
623.972	4.7
624.16	4.65
624.348	4.74
624.536	4.75
624.724	4.51
624.912	4.55
625.1	4.65
625.288	4.61
625.476	4.5
625.664	4.54
625.851	4.53
626.039	4.54
626.227	4.48
626.415	4.51
626.603	4.4
626.79	4.45
626.978	4.42
627.166	4.44
627.354	4.42
627.541	4.37
627.729	4.29
627.917	4.39
628.104	4.41
628.292	4.38
628.48	4.36
628.667	4.31
628.855	4.36
629.042	4.36
629.23	4.24
629.418	4.28
629.605	4.26
629.793	4.15
629.98	4.19
630.168	4.21
630.355	4.16
630.543	4.19
630.73	4.08
630.917	4.04
631.105	4.22
631.292	4.14
631.48	4.07
631.667	4.17
631.854	4.04
632.042	4.02
632.229	3.97
632.416	4.08
632.604	4.06
632.791	3.9
632.978	3.99
633.165	3.95
633.353	3.99
633.54	3.99
633.727	3.86
633.914	3.87
634.101	3.79
634.289	3.88
634.476	3.82
634.663	3.83
634.85	3.84
635.037	3.8
635.224	3.73
635.411	3.81
635.598	3.75
635.785	3.73
635.972	3.71
636.159	3.72
636.346	3.68
636.533	3.63
636.72	3.62
636.907	3.68
637.094	3.59
637.281	3.56
637.468	3.66
637.655	3.64
637.842	3.58
638.029	3.52
638.215	3.57
638.402	3.56
638.589	3.42
638.776	3.5
638.963	3.47
639.149	3.56
639.336	3.52
639.523	3.47
639.709	3.46
639.896	3.39
640.083	3.42
640.27	3.44
640.456	3.42
640.643	3.35
640.829	3.25
641.016	3.34
641.203	3.29
641.389	3.32
641.576	3.29
641.762	3.29
641.949	3.24
642.135	3.31
642.322	3.26
642.508	3.14
642.695	3.24
642.881	3.18
643.068	3.12
643.254	3.15
643.441	3.21
643.627	3.26
643.813	3.1
644	3.17
644.186	3.09
644.372	3.15
644.559	3.11
644.745	3.12
644.931	3.02
645.118	3.1
645.304	3.1
645.49	3.08
645.676	3.01
645.862	3.02
646.049	3.02
646.235	3.06
646.421	3.12
646.607	3.06
646.793	2.96
646.979	2.89
647.165	2.98
647.352	2.91
647.538	3
647.724	2.92
647.91	2.91
648.096	2.87
648.282	2.87
648.468	2.89
648.654	2.88
648.84	2.87
649.026	2.78
649.212	2.77
649.397	2.77
649.583	2.8
649.769	2.81
649.955	2.83
650.141	2.85
650.327	2.8
650.513	2.66
650.698	2.75
650.884	2.65
651.07	2.73
651.256	2.7
651.442	2.64
651.627	2.61
651.813	2.72
651.999	2.64
652.184	2.61
652.37	2.6
652.556	2.6
652.741	2.67
652.927	2.55
653.113	2.63
653.298	2.57
653.484	2.59
653.669	2.52
653.855	2.56
654.04	2.62
654.226	2.56
654.412	2.49
654.597	2.42
654.782	2.59
654.968	2.5
655.153	2.55
655.339	2.47
655.524	2.49
655.71	2.51
655.895	2.45
656.08	2.5
656.266	2.53
656.451	2.44
656.636	2.39
656.822	2.45
657.007	2.37
657.192	2.4
657.378	2.4
657.563	2.39
657.748	2.42
657.933	2.34
658.118	2.29
658.304	2.37
658.489	2.42
658.674	2.32
658.859	2.26
659.044	2.29
659.229	2.33
659.414	2.32
659.599	2.28
659.785	2.25
659.97	2.27
660.155	2.25
660.34	2.29
660.525	2.25
660.71	2.22
660.895	2.23
661.08	2.21
661.264	2.19
661.449	2.23
661.634	2.17
661.819	2.21
662.004	2.13
662.189	2.12
662.374	2.14
662.559	2.14
662.743	2.02
662.928	2.07
663.113	2.06
663.298	2.03
663.483	2.05
663.667	2.02
663.852	2.02
664.037	2.08
664.221	2
664.406	1.97
664.591	2.01
664.775	1.96
664.96	1.95
665.145	2
665.329	1.96
665.514	1.94
665.698	1.92
665.883	1.87
666.068	1.99
666.252	1.91
666.437	1.83
666.621	1.86
666.806	1.87
666.99	1.83
667.174	1.8
667.359	1.86
667.543	1.8
667.728	1.79
667.912	1.75
668.096	1.83
668.281	1.75
668.465	1.81
668.649	1.78
668.834	1.74
669.018	1.76
669.202	1.74
669.387	1.72
669.571	1.76
669.755	1.67
669.939	1.7
670.124	1.66
670.308	1.72
670.492	1.73
670.676	1.72
670.86	1.63
671.044	1.62
671.228	1.66
671.413	1.63
671.597	1.6
671.781	1.61
671.965	1.67
672.149	1.63
672.333	1.63
672.517	1.57
672.701	1.64
672.885	1.56
673.069	1.51
673.253	1.64
673.437	1.57
673.621	1.54
673.804	1.55
673.988	1.57
674.172	1.54
674.356	1.43
674.54	1.48
674.724	1.58
674.908	1.48
675.091	1.55
675.275	1.48
675.459	1.53
675.643	1.44
675.826	1.5
676.01	1.4
676.194	1.44
676.377	1.48
676.561	1.54
676.745	1.44
676.928	1.44
677.112	1.49
677.296	1.37
677.479	1.38
677.663	1.36
677.846	1.38
678.03	1.43
678.213	1.4
678.397	1.41
678.58	1.36
678.764	1.46
678.947	1.25
679.131	1.37
679.314	1.35
679.498	1.33
679.681	1.38
679.865	1.43
680.048	1.38
680.231	1.29
680.415	1.3
680.598	1.35
680.781	1.29
680.965	1.26
681.148	1.26
681.331	1.24
681.514	1.33
681.698	1.3
681.881	1.25
682.064	1.26
682.247	1.27
682.43	1.23
682.614	1.3
682.797	1.25
682.98	1.23
683.163	1.13
683.346	1.27
683.529	1.22
683.712	1.14
683.895	1.23
684.078	1.11
684.261	1.15
684.444	1.17
684.627	1.24
684.81	1.16
684.993	1.17
685.176	1.19
685.359	1.18
685.542	1.17
685.725	1.28
685.908	1.17
686.091	1.09
686.274	1.16
686.457	1.18
686.639	1.09
686.822	1.18
687.005	1.14
687.188	1.17
687.371	1.19
687.553	1.17
687.736	1.13
687.919	1.24
688.102	1.11
688.284	1.11
688.467	1.05
688.65	1.05
688.832	1.03
689.015	1.1
689.197	0.95
689.38	1.16
689.563	1.14
689.745	1.03
689.928	1.05
690.11	1.04
690.293	1.04
690.475	0.93
690.658	1.07
690.84	1.05
691.023	0.98
691.205	1.01
691.388	1.09
691.57	1.1
691.752	1.06
691.935	0.96
692.117	0.99
692.3	1
692.482	0.98
692.664	0.95
692.847	0.98
693.029	1.05
693.211	0.99
693.393	0.94
693.576	0.93
693.758	0.95
693.94	0.97
694.122	0.97
694.304	0.95
694.487	0.99
694.669	0.96
694.851	0.94
695.033	0.97
695.215	0.88
695.397	0.86
695.579	0.94
695.761	0.87
695.943	0.85
696.125	0.96
696.308	0.91
696.49	0.81
696.671	1
696.853	0.89
697.035	1.1
697.217	0.9
697.399	0.89
697.581	0.9
697.763	0.89
697.945	0.84
698.127	0.85
698.309	0.9
698.491	0.89
698.672	0.81
698.854	0.9
699.036	0.91
699.218	0.86
699.399	0.93
699.581	0.83
699.763	0.79
699.945	0.78
700.126	0.79
700.308	0.82
700.49	0.78
700.671	0.79
700.853	0.78
701.035	0.8
701.216	0.8
701.398	0.79
701.579	0.8
701.761	0.94
701.943	0.75
702.124	0.81
702.306	0.77
702.487	0.95
702.669	0.79
702.85	0.71
703.031	0.77
703.213	0.9
703.394	0.8
703.576	0.81
703.757	0.85
703.938	0.8
704.12	0.89
704.301	0.81
704.483	0.79
704.664	0.81
704.845	0.83
705.026	0.87
705.208	0.77
705.389	0.81
705.57	0.76
705.751	0.8
705.933	0.81
706.114	0.79
706.295	0.78
706.476	0.67
706.657	0.84
706.838	0.77
707.02	0.84
707.201	0.73
707.382	0.72
707.563	0.77
707.744	0.71
707.925	0.69
708.106	0.71
708.287	0.8
708.468	0.79
708.649	0.69
708.83	0.82
709.011	0.7
709.192	0.8
709.373	0.7
709.554	0.73
709.734	0.74
709.915	0.75
710.096	0.72
710.277	0.59
710.458	0.73
710.639	0.74
710.819	0.68
711	0.61
711.181	0.79
711.362	0.77
711.542	0.68
711.723	0.77
711.904	0.77
712.085	0.69
712.265	0.65
712.446	0.58
712.627	0.61
712.807	0.67
712.988	0.7
713.168	0.56
713.349	0.69
713.53	0.54
713.71	0.6
713.891	0.62
714.071	0.68
714.252	0.58
714.432	0.62
714.613	0.61
714.793	0.69
714.974	0.76
715.154	0.74
715.334	0.67
715.515	0.76
715.695	0.51
715.876	0.65
716.056	0.61
716.236	0.65
716.417	0.57
716.597	0.64
716.777	0.79
716.957	0.65
717.138	0.65
717.318	0.66
717.498	0.56
717.678	0.6
717.859	0.59
718.039	0.53
718.219	0.58
718.399	0.65
718.579	0.55
718.759	0.55
718.939	0.6
719.12	0.65
719.3	0.64
719.48	0.44
719.66	0.54
719.84	0.67
720.02	0.62
720.2	0.59
720.38	0.64
720.56	0.74
720.74	0.58
720.92	0.57
721.1	0.69
721.279	0.69
721.459	0.64
721.639	0.55
721.819	0.64
721.999	0.64
722.179	0.69
722.359	0.45
722.538	0.54
722.718	0.58
722.898	0.55
723.078	0.62
723.257	0.59
723.437	0.66
723.617	0.66
723.797	0.57
723.976	0.62
724.156	0.63
724.336	0.68
724.515	0.75
724.695	0.48
724.874	0.65
725.054	0.69
725.234	0.6
725.413	0.62
725.593	0.56
725.772	0.67
725.952	0.54
726.131	0.61
726.311	0.68
726.49	0.62
726.67	0.54
726.849	0.45
727.028	0.63
727.208	0.64
727.387	0.6
727.567	0.5
727.746	0.56
727.925	0.52
728.105	0.49
728.284	0.58
728.463	0.6
728.643	0.64
728.822	0.42
729.001	0.61
729.18	0.6
729.359	0.71
729.539	0.61
729.718	0.56
729.897	0.67
730.076	0.53
730.255	0.51
730.434	0.59
730.614	0.61
730.793	0.69
730.972	0.54
731.151	0.6
731.33	0.7
731.509	0.67
731.688	0.61
731.867	0.55
732.046	0.56
732.225	0.86
732.404	0.55
732.583	0.54
732.762	0.64
732.941	0.73
733.12	0.66
733.298	0.59
733.477	0.75
733.656	0.47
733.835	0.56
734.014	0.69
734.193	0.52
734.371	0.64
734.55	0.68
734.729	0.48
734.908	0.71
735.086	0.66
735.265	0.65
735.444	0.47
735.623	0.55
735.801	0.47
735.98	0.65
736.159	0.61
736.337	0.78
736.516	0.67
736.694	0.64
736.873	0.59
737.052	0.75
737.23	0.73
737.409	0.62
737.587	0.73
737.766	0.34
737.944	0.59
738.123	0.76
738.301	0.82
738.479	0.63
738.658	0.6
738.836	0.45
739.015	0.63
739.193	0.74
739.371	0.46
739.55	0.53
739.728	0.37
739.906	0.79
740.085	0.74
740.263	0.55
740.441	0.42
740.62	0.79
740.798	0.6
740.976	0.59
741.154	0.47
741.332	0.64
741.511	0.62
741.689	0.51
741.867	0.63
742.045	0.62
742.223	0.54
742.401	0.54
742.579	0.57
742.757	0.63
742.935	0.48
743.114	0.58
743.292	0.55
743.47	0.5
743.648	0.49
743.826	0.58
744.004	0.6
744.181	0.58
744.359	0.51
744.537	0.5
744.715	0.43
744.893	0.54
745.071	0.52
745.249	0.48
745.427	0.5
745.605	0.53
745.782	0.47
745.96	0.52
746.138	0.59
746.316	0.55
746.493	0.46
746.671	0.62
746.849	0.48
747.027	0.61
747.204	0.36
747.382	0.47
747.56	0.37
747.737	0.35
747.915	0.3
748.093	0.55
748.27	0.43
748.448	0.48
748.625	0.39
748.803	0.38
748.98	0.46
749.158	0.44
749.335	0.6
749.513	0.43
749.69	0.4
749.868	0.45
750.045	0.49
750.223	0.33
750.4	0.24
750.578	0.58
750.755	0.4
750.932	0.27
751.11	0.56
751.287	0.35
751.464	0.58
751.642	0.39
751.819	0.51
751.996	0.44
752.173	0.4
752.351	0.32
752.528	0.52
752.705	0.47
752.882	0.39
753.06	0.44
753.237	0.37
753.414	0.64
753.591	0.54
753.768	0.57
753.945	0.34
754.122	0.4
754.299	0.52
754.476	0.37
754.654	0.49
754.831	0.47
755.008	0.56
755.185	0.43
755.362	0.29
755.539	0.37
755.716	0.65
755.892	0.45
756.069	0.46
756.246	0.35
756.423	0.46
756.6	0.56
756.777	0.38
756.954	0.58
757.131	0.4
757.307	0.26
757.484	0.27
757.661	0.37
757.838	0.58
758.015	0.28
758.191	0.43
758.368	0.42
758.545	0.41
758.721	0.47
758.898	0.28
759.075	0.5
759.251	0.51
759.428	0.49
759.605	0.26
759.781	0.4
759.958	0.49
760.134	0.39
760.311	0.38
760.488	0.56
760.664	0.61
760.841	0.41
761.017	0.36
761.194	0.49
761.37	0.47
761.547	0.47
761.723	0.35
761.899	0.44
762.076	0.32
762.252	0.31
762.429	0.28
762.605	0.54
762.781	0.43
762.958	0.36
763.134	0.31
763.31	0.34
763.486	0.39
763.663	0.3
763.839	0.43
764.015	0.24
764.191	0.28
764.368	0.48
764.544	0.32
764.72	0.43
764.896	0.42
765.072	0.37
765.248	0.33
765.425	0.38
765.601	0.3
765.777	0.44
765.953	0.33
766.129	0.36
766.305	0.31
766.481	0.43
766.657	0.48
766.833	0.55
767.009	0.37
767.185	0.33
767.361	0.31
767.537	0.23
767.713	0.55
767.889	0.32
768.065	0.3
768.24	0.54
768.416	0.47
768.592	0.34
768.768	0.36
768.944	0.48
769.12	0.29
769.295	0.34
769.471	0.48
769.647	0.37
769.823	0.51
769.998	0.26
770.174	0.35
770.35	0.78
770.525	0.62
770.701	0.46
770.877	0.32
771.052	0.3
771.228	0.4
771.403	0.37
771.579	0.48
771.755	0.66
771.93	0.37
772.106	0.3
772.281	0.23
772.457	0.35
772.632	0.52
772.808	0.15
772.983	0.24
773.159	0.2
773.334	0.47
773.509	0.41
773.685	0.35
773.86	0.64
774.036	0.54
774.211	0.36
774.386	0.32
774.562	0.52
774.737	0.48
774.912	0.22
775.087	0.54
775.263	0.51
775.438	0.31
775.613	0.31
775.788	0.39
775.964	0.53
776.139	0.81
776.314	0.18
776.489	0.45
776.664	0.45
776.839	0.26
777.014	0.6
777.19	0.52
777.365	0.49
777.54	0.7
777.715	0.32
777.89	0.35
778.065	0.3
778.24	0.37
778.415	0.56
778.59	0.08
778.765	0.35
778.94	0.34
779.115	0.38
779.289	0.36
779.464	0.58
779.639	0.36
779.814	0.18
779.989	0.22
780.164	0.59
780.339	0.49
780.513	0.45
780.688	0.27
780.863	0.43
781.038	0.51
781.212	0.3
781.387	0.43
781.562	0.7
781.737	0.51
781.911	0.42
782.086	0.34
782.261	0.42
782.435	0.63
782.61	0.52
782.784	0.47
782.959	0.65
783.134	0.38
783.308	0.32
783.483	0.38
783.657	0.71
783.832	0.68
784.006	0.2
784.181	0.57
784.355	0.55
784.53	0.48
784.704	0.29
784.878	0.64
785.053	0.53
785.227	0.57
785.402	1
785.576	0.26
785.75	0.47
785.925	0.41
786.099	0.6
786.273	0.56
786.448	0.49
786.622	0.76
786.796	0.5
786.97	0.46
787.145	1.11
787.319	0.31
787.493	0.51
787.667	0.16
787.841	0.5
788.015	0.57
788.19	0.26
788.364	0.53
788.538	0.79
788.712	0.7
788.886	0.4
789.06	0.66
789.234	0.53
789.408	0.22
789.582	0.29
789.756	0.41
789.93	0.4
790.104	0.48
790.278	0.39
790.452	0.23
790.626	0.64
790.8	0.3
790.973	0.65
791.147	0.66
791.321	0.83
791.495	0.68
791.669	0.59
791.843	0.55
792.016	0.65
792.19	0.83
792.364	0.32
792.538	0.97
792.711	0.69
792.885	0.38
793.059	0.24
793.233	-0.04
793.406	0.64
793.58	0.49
793.754	0.39
793.927	0.43
794.101	0.69
794.274	0.49
794.448	0.73
794.622	0.47
794.795	0.77
794.969	0.49
795.142	0.79
795.316	0.61
795.489	0.36
795.663	0.84
795.836	0.43
796.009	0.26
796.183	0.67
796.356	0.68
796.53	0.57
796.703	0.48
796.876	1.02
797.05	0.64
797.223	0.63
797.396	0.54
797.57	0.72
797.743	0.83
797.916	0.67
798.09	0.49
798.263	0.77
798.436	0.54
798.609	0.52
798.782	0.61
798.956	0.68
799.129	0.36
799.302	0.61
799.475	0.4
799.648	0.15
799.821	0.66
799.994	0.3
800.167	0.12
800.34	0.51
800.514	0.52
800.687	0.19
800.86	0.52
801.033	0.41
801.206	0.75
801.379	0.47
801.551	0.66
801.724	0.92
801.897	0.92
802.07	0.58
802.243	0.22
802.416	0.41
802.589	0.21
802.762	0.99
802.935	0.56
803.107	0.58
803.28	0.81
803.453	0.81
803.626	0.53
803.798	0.57
803.971	0.52
804.144	0.82
804.317	0.51
804.489	1
804.662	0.22
804.835	0.62
805.007	0.07
805.18	0.54
805.353	0.68
805.525	0.41
805.698	0.71
805.87	0.79
806.043	0.79
806.215	0.52
806.388	0.55
806.56	0.58
806.733	1.07
806.905	0.65
807.078	0.83
807.25	0.39
807.423	0.9
807.595	0.67
807.768	0.75
807.94	0.75
808.112	0.47
808.285	0.94
808.457	0.25
808.629	0.43
808.802	1.07
808.974	0.65
809.146	0.5
809.318	0.46
809.491	0.48
809.663	0.5
809.835	0.24
810.007	0.95
810.18	0.52
810.352	0.31
810.524	0.54
810.696	0.94
810.868	0.91
811.04	0.52
811.212	0.36
811.384	0.79
811.556	0.75
811.728	0.51
811.901	1.46
812.073	0.51
812.245	0.91
812.417	0.49
812.589	0.16
812.76	0.69
812.932	0.75
813.104	1.18
813.276	0.58
813.448	0.97
813.62	0.59
813.792	1.21
813.964	0.63
814.136	0.54
814.307	0.45
814.479	0.34
814.651	0.3
814.823	1.17
814.995	0.53
815.166	1.08
815.338	0.68
815.51	0.27
815.681	1.63
815.853	0.75
816.025	0.7
816.196	1.27
816.368	1.25
816.54	0.21
816.711	0.58
816.883	0.9
817.054	1.27
817.226	0.12
817.398	1.32
817.569	0.59
817.741	0.98
817.912	0.71
818.084	0.61
818.255	0.91
818.426	0.24
818.598	1.03
818.769	0.27
818.941	0.67
819.112	1.23
819.283	1.13
819.455	0.22
819.626	1.09
819.798	0.79
819.969	0.93
820.14	0.73
820.311	0.61
820.483	0.67
820.654	1.09
820.825	0.81
820.996	0.24
821.168	0.34
821.339	0.33
821.51	0.42
821.681	0.82
821.852	0.65
822.023	0.34
822.195	-0.07
822.366	0.62
822.537	0.92
822.708	0.96
822.879	0.09
823.05	1.29
823.221	0.79
823.392	0.95
823.563	0.74
823.734	0.85
823.905	0.9
824.076	0.6
824.247	0.52
824.418	0.87
824.589	1.5
824.759	0.91
824.93	1.18
825.101	0.27
825.272	1.29
825.443	1.88
825.614	0.93
825.784	0.46
825.955	1.98
826.126	1.61
826.297	1.79
826.467	1.77
826.638	1.58
826.809	0.23
826.98	0.71
827.15	1.51
827.321	1.28
827.492	1.23
827.662	1.23
827.833	1.76
828.003	1.1
828.174	0.49
828.345	0.35
828.515	1.36
828.686	1.04
828.856	0.37
829.027	0.93
829.197	0.67
829.368	1.19
829.538	0.9
829.709	0.79
829.879	1.19
830.049	1.39
830.22	0.46
830.39	0.8
830.56	1.07
830.731	0.62
830.901	0.79
831.072	1.26
831.242	0.63
831.412	1.36
831.582	0.63
831.753	0.05
831.923	1.42
832.093	0.89
832.263	0.66
832.434	0.72
832.604	0.68
832.774	1.27
832.944	1.2
833.114	0.51
833.284	1.1
833.454	0.53
833.624	0.91
833.795	1.06
833.965	2.09
834.135	1.53
834.305	0.24
834.475	0.1
834.645	0.38
834.815	1.36
834.985	0.48
835.155	0.84
835.325	1.4
835.494	1.17
835.664	0.33
835.834	0.19
836.004	1.05
836.174	1.44
836.344	0.61
836.514	0.34
836.684	0.63
836.853	1.12
837.023	1.33
837.193	1.03
837.363	1.6
837.532	1.69
837.702	0.49
837.872	0.82
838.041	1.79
838.211	2.08
838.381	0.55
838.55	1.1
838.72	2.31
838.89	2.75
839.059	1.05
839.229	0.87
839.398	2.08
839.568	1.56
839.738	0.75
839.907	2.13
840.077	1.34
840.246	0.94
840.416	0.41
840.585	0.47
840.755	2.07
840.924	2.1
841.093	0.5
841.263	0.97
841.432	2.06
841.602	0.54
841.771	1.66
841.94	1.23
842.11	3.71
842.279	2.86
842.448	0.59
842.617	1
842.787	2.82
842.956	-0.26
843.125	1.76
843.294	0.78
843.464	1.03
843.633	1.06
843.802	1.09
843.971	1.17
844.14	2
844.309	1.77
844.479	0.86
844.648	1.11
844.817	1.11
844.986	1.35
845.155	0.7
845.324	0.97
845.493	1.68
845.662	0.9
845.831	1.36
846	1.72
846.169	1.02
846.338	2.92
846.507	1.49
846.676	1.61
846.844	1.2
847.013	1.99
847.182	1.59
847.351	0.82
847.52	0.76
847.689	1.82
847.858	1.88
848.026	0.94
848.195	0.99
848.364	1.31
848.533	0.72
848.701	1.91
848.87	1.41
849.039	2.08
849.207	2.69
849.376	2.6
849.545	2.54
849.713	1.41
849.882	0.61
850.051	1.76
850.219	1.37
850.388	1.61
850.556	0.26
850.725	1.58
850.893	1.68
851.062	1.67
851.23	1.95
851.399	0.37
851.567	1.02
851.736	1.77
851.904	1.23
852.073	1.2
852.241	2.21
852.41	2.31
852.578	1.44
852.746	1.16
852.915	1.55
853.083	1.55
853.251	0.75
853.42	2.08
853.588	1.67
853.756	2.24
853.924	1.65
854.093	0.93
854.261	1.26
854.429	-0.37
854.597	2.06
854.765	0.44
854.934	2.75
855.102	1.94
855.27	1.91
855.438	2.22
855.606	2.81
855.774	2.58
855.942	0.67
856.11	1.39
856.278	1.52
856.446	2.02
856.614	2.07
856.782	1.13
856.95	3.31
857.118	2.67
857.286	2.57
857.454	0.93
857.622	2.48
857.79	1.84
857.958	0.41
858.126	1.67
858.294	0.54
858.462	1.45
858.629	2.2
858.797	0.44
858.965	0.68
859.133	1.67
859.301	2.41
859.468	2.35
859.636	0.34
859.804	3.38
859.971	2.54
860.139	0.09
860.307	3.21
860.474	2.88
860.642	1.39
860.81	1.13
860.977	1.85
861.145	2.11
861.313	1.36
861.48	0.67
861.648	2.42
861.815	2.45
861.983	1.55
862.15	2.32
862.318	2
862.485	3.81
862.653	1.12
862.82	1.1
862.988	3.3
863.155	3.25
863.322	0.32
863.49	1.98
863.657	0.81
863.824	2.98
863.992	3.57
864.159	1.92
864.326	3.53
864.494	0.86
864.661	4.76
864.828	0.74
864.996	2.26
865.163	4.45
865.33	2.26
865.497	0.04
865.664	1.99
865.832	0.57
865.999	1.85
866.166	0.27
866.333	1.84
866.5	0.5
866.667	1.51
866.834	1.39
867.001	3.93
867.168	0.38
867.335	2.26
867.502	-0.26
867.669	2.6
867.836	4.87
868.003	1.81
868.17	3
868.337	-0.16
868.504	3.18
868.671	-0.27
868.838	1.23
869.005	2.46
869.172	3.4
869.339	1.61
869.505	3.81
869.672	0.91
869.839	3.96
870.006	1.19
870.173	-0.15
870.339	2.26
870.506	4.37
870.673	2.08
870.84	2.94
871.006	3.04
871.173	-0.09
871.34	2.42
871.506	2.05
871.673	3.14
871.839	0.42
872.006	2.3
872.173	2.61
872.339	3.24
872.506	3.59
872.672	2.05
872.839	1.22
873.005	3.16
873.172	4.96
873.338	2.74
873.505	3.83
873.671	1.81
873.838	3.19
874.004	1.08
874.171	1.58
874.337	3.06
874.503	3.48
874.67	1.66
874.836	0.97
875.002	4.16
875.169	3.67
875.335	3.15
875.501	2.69
875.668	2.76
875.834	1.99
876	2.61
876.166	4.71
876.332	2.88
876.499	5.6
876.665	1.31
876.831	3.72
876.997	5.57
877.163	3.5
877.329	1.49
877.495	3.03
877.662	2.17
877.828	3.27
877.994	3.34
878.16	0.86
878.326	1.21
878.492	2.62
878.658	1.84
878.824	3.95
878.99	2.11
879.156	0.83
879.322	4.71
879.487	0.66
879.653	1.65
879.819	3.07
879.985	3.45
880.151	2.6
880.317	3.49
880.483	1.65
880.648	1.97
880.814	-0.38
880.98	4.38
881.146	-0.1
881.312	1.42
881.477	2.04
881.643	2.77
881.809	3.79
881.974	4.86
882.14	2.17
882.306	2.19
882.471	5.21
882.637	0.33
882.803	2.78
882.968	4.33
883.134	5.41
883.299	0.93
883.465	1.82
883.63	3.39
883.796	3.18
883.961	3.38
884.127	3.51
884.292	-1.49
884.458	-0.43
884.623	-0.43
