Data from Apollo_Calib_20240827__AbsoluteIrradiance__842__13-11-00-443.txt Node

Date: Wed Aug 28 13:11:00 BST 2024
User: biology
Spectrometer: FLMT08252
Trigger mode: 0
Integration Time (sec): 5.000000E-1
Scans to average: 5
Electric dark correction enabled: true
Nonlinearity correction enabled: false
Boxcar width: 0
XAxis mode: Wavelengths
Number of Pixels in Spectrum: 3648
>>>>>Begin Spectral Data<<<<<
179.588	-0
179.809	-0
180.03	-0
180.251	-0
180.473	-0
180.694	0
180.915	0
181.136	-0
181.357	0
181.578	-0
181.799	0
182.02	-0
182.241	-0
182.462	0
182.683	0
182.904	-0
183.125	-0
183.346	0
183.567	0
183.788	0
184.009	0
184.23	0
184.451	0
184.672	0
184.892	0
185.113	0
185.334	0
185.555	0
185.776	0
185.996	0
186.217	0
186.438	0
186.659	0
186.879	0
187.1	0
187.321	0
187.541	0
187.762	0
187.983	0
188.203	0
188.424	0
188.644	0
188.865	0
189.086	0
189.306	0
189.527	0
189.747	0
189.968	0
190.188	0
190.409	0
190.629	0
190.849	0
191.07	0
191.29	0
191.511	0
191.731	0
191.951	0
192.172	0
192.392	0
192.612	0
192.833	0
193.053	0
193.273	0
193.493	0
193.714	0
193.934	0
194.154	0
194.374	0
194.594	0
194.815	0
195.035	0
195.255	0
195.475	0
195.695	0
195.915	0
196.135	0
196.355	0
196.575	0
196.795	0
197.015	0
197.235	0
197.455	0
197.675	0
197.895	0
198.115	0
198.335	0
198.555	0
198.775	0
198.995	0
199.214	0
199.434	0
199.654	0
199.874	0
200.094	3.84
200.313	2.36
200.533	2.49
200.753	2.15
200.973	3.27
201.192	3.41
201.412	1.26
201.632	1.44
201.851	3.62
202.071	1.67
202.291	1.69
202.51	1.58
202.73	3.1
202.95	1.89
203.169	0.86
203.389	1.61
203.608	1.68
203.828	1.9
204.047	1.33
204.267	2.16
204.486	2.43
204.706	2.49
204.925	1.63
205.145	1.18
205.364	2.56
205.583	2.7
205.803	1.44
206.022	0.87
206.242	2.08
206.461	1.79
206.68	1.14
206.9	1.42
207.119	2.42
207.338	2.06
207.557	1.33
207.777	0.92
207.996	1.42
208.215	2.08
208.434	1.15
208.654	1.01
208.873	1.4
209.092	2.21
209.311	0.85
209.53	1.11
209.749	1.27
209.968	1.04
210.187	1.18
210.407	0.64
210.626	1.14
210.845	1.58
211.064	1.15
211.283	0.79
211.502	1.42
211.721	1.06
211.94	1.08
212.159	1.44
212.377	1.36
212.596	1.97
212.815	1.04
213.034	1.13
213.253	1.51
213.472	1.38
213.691	0.83
213.91	0.88
214.128	0.75
214.347	1.42
214.566	0.51
214.785	0.49
215.003	1.23
215.222	0.98
215.441	0.93
215.66	0.5
215.878	0.93
216.097	1.27
216.316	0.67
216.534	0.77
216.753	1.08
216.972	0.89
217.19	0.7
217.409	0.57
217.627	0.7
217.846	0.81
218.064	0.77
218.283	0.59
218.501	1.54
218.72	1.24
218.938	0.6
219.157	0.94
219.375	1.12
219.594	1.07
219.812	0.61
220.031	0.54
220.249	1.07
220.467	1.23
220.686	0.67
220.904	0.45
221.122	0.75
221.341	1.28
221.559	0.78
221.777	0.39
221.995	0.79
222.214	1.09
222.432	0.52
222.65	0.83
222.868	0.85
223.086	0.89
223.305	0.82
223.523	0.63
223.741	1.21
223.959	0.52
224.177	0.4
224.395	0.46
224.613	0.81
224.831	0.94
225.049	0.54
225.267	0.62
225.485	0.85
225.703	0.71
225.921	0.66
226.139	0.46
226.357	0.91
226.575	0.75
226.793	0.46
227.011	1.79
227.229	0.69
227.447	0.87
227.665	0.59
227.883	0.51
228.1	0.79
228.318	0.65
228.536	0.28
228.754	0.41
228.972	0.63
229.189	0.93
229.407	0.5
229.625	0.71
229.843	0.91
230.06	0.74
230.278	0.48
230.496	0.55
230.713	0.69
230.931	0.78
231.149	0.49
231.366	0.23
231.584	0.56
231.801	1.1
232.019	0.43
232.236	0.41
232.454	0.44
232.671	0.71
232.889	0.41
233.106	0.34
233.324	0.58
233.541	0.56
233.759	0.57
233.976	0.35
234.194	0.55
234.411	0.59
234.628	0.38
234.846	0.46
235.063	0.55
235.28	0.61
235.498	0.49
235.715	0.4
235.932	0.76
236.149	0.58
236.367	0.49
236.584	0.46
236.801	0.54
237.018	0.77
237.236	0.54
237.453	0.38
237.67	0.69
237.887	0.4
238.104	0.43
238.321	0.3
238.538	0.45
238.755	0.76
238.973	0.32
239.19	0.52
239.407	0.55
239.624	0.55
239.841	0.31
240.058	0.35
240.275	0.52
240.492	0.54
240.709	0.41
240.925	0.38
241.142	0.44
241.359	0.34
241.576	0.34
241.793	0.4
242.01	0.52
242.227	0.72
242.444	0.52
242.66	0.61
242.877	0.46
243.094	0.4
243.311	0.43
243.527	0.41
243.744	0.53
243.961	0.52
244.178	0.4
244.394	0.46
244.611	0.58
244.828	0.63
245.044	0.35
245.261	0.39
245.477	0.51
245.694	0.52
245.911	0.39
246.127	0.46
246.344	0.61
246.56	0.5
246.777	0.43
246.993	0.42
247.21	0.43
247.426	0.53
247.643	0.29
247.859	0.38
248.076	0.41
248.292	0.75
248.508	0.35
248.725	0.44
248.941	0.54
249.157	0.7
249.374	0.31
249.59	0.44
249.806	0.41
250.023	0.53
250.239	0.33
250.455	0.24
250.671	0.5
250.888	0.46
251.104	0.52
251.32	0.29
251.536	0.52
251.752	0.46
251.969	0.37
252.185	0.35
252.401	0.65
252.617	0.35
252.833	0.34
253.049	0.33
253.265	0.36
253.481	0.44
253.697	0.26
253.913	0.28
254.129	0.51
254.345	0.43
254.561	0.41
254.777	0.34
254.993	0.49
255.209	0.51
255.425	0.44
255.641	0.29
255.857	0.56
256.073	0.39
256.288	0.28
256.504	0.28
256.72	0.53
256.936	0.59
257.152	0.37
257.367	0.36
257.583	0.38
257.799	0.46
258.015	0.34
258.23	0.29
258.446	0.61
258.662	0.42
258.877	0.32
259.093	0.31
259.309	0.45
259.524	0.43
259.74	0.37
259.955	0.21
260.171	0.46
260.387	0.37
260.602	0.44
260.818	0.4
261.033	0.25
261.249	0.43
261.464	0.31
261.68	0.23
261.895	0.45
262.11	0.51
262.326	0.38
262.541	0.29
262.757	0.5
262.972	0.42
263.187	0.39
263.403	0.37
263.618	0.54
263.833	0.39
264.049	0.32
264.264	0.26
264.479	0.42
264.694	0.49
264.91	0.21
265.125	0.25
265.34	0.48
265.555	0.56
265.77	0.39
265.986	0.29
266.201	0.41
266.416	0.5
266.631	0.33
266.846	0.3
267.061	0.41
267.276	0.43
267.491	0.17
267.706	0.31
267.921	0.44
268.136	0.41
268.351	0.36
268.566	0.22
268.781	0.46
268.996	0.46
269.211	0.32
269.426	0.3
269.641	0.32
269.856	0.36
270.071	0.24
270.285	0.18
270.5	0.41
270.715	0.45
270.93	0.32
271.145	0.34
271.359	0.4
271.574	0.26
271.789	0.33
272.004	0.29
272.218	0.35
272.433	0.41
272.648	0.27
272.862	0.33
273.077	0.32
273.292	0.39
273.506	0.3
273.721	0.3
273.936	0.36
274.15	0.4
274.365	0.26
274.579	0.35
274.794	0.41
275.008	0.45
275.223	0.16
275.437	0.33
275.652	0.38
275.866	0.4
276.081	0.29
276.295	0.37
276.509	0.37
276.724	0.36
276.938	0.36
277.153	0.4
277.367	0.42
277.581	0.24
277.796	0.24
278.01	0.22
278.224	0.42
278.438	0.51
278.653	0.26
278.867	0.25
279.081	0.34
279.295	0.27
279.51	0.3
279.724	0.14
279.938	0.37
280.152	0.4
280.366	0.25
280.58	0.33
280.794	0.46
281.008	0.33
281.222	0.37
281.437	0.46
281.651	0.4
281.865	0.41
282.079	0.27
282.293	0.17
282.507	0.23
282.721	0.28
282.935	0.29
283.148	0.16
283.362	0.22
283.576	0.25
283.79	0.33
284.004	0.26
284.218	0.37
284.432	0.3
284.646	0.35
284.859	0.26
285.073	0.25
285.287	0.35
285.501	0.23
285.714	0.28
285.928	0.34
286.142	0.35
286.356	0.23
286.569	0.3
286.783	0.41
286.997	0.39
287.21	0.27
287.424	0.27
287.637	0.28
287.851	0.22
288.065	0.31
288.278	0.27
288.492	0.34
288.705	0.28
288.919	0.35
289.132	0.19
289.346	0.34
289.559	0.22
289.773	0.22
289.986	0.26
290.2	0.3
290.413	0.35
290.626	0.2
290.84	0.27
291.053	0.33
291.267	0.4
291.48	0.29
291.693	0.21
291.906	0.25
292.12	0.31
292.333	0.25
292.546	0.25
292.76	0.37
292.973	0.31
293.186	0.3
293.399	0.22
293.612	0.38
293.826	0.26
294.039	0.24
294.252	0.25
294.465	0.38
294.678	0.33
294.891	0.3
295.104	0.16
295.317	0.24
295.53	0.29
295.743	0.27
295.956	0.24
296.169	0.36
296.382	0.3
296.595	0.26
296.808	0.24
297.021	0.38
297.234	0.39
297.447	0.22
297.66	0.29
297.873	0.39
298.086	0.34
298.299	0.23
298.511	0.19
298.724	0.3
298.937	0.26
299.15	0.23
299.363	0.23
299.575	0.28
299.788	0.29
300.001	0.19
300.213	0.23
300.426	0.26
300.639	0.23
300.852	0.24
301.064	0.3
301.277	0.34
301.489	0.33
301.702	0.33
301.915	0.29
302.127	0.3
302.34	0.27
302.552	0.29
302.765	0.19
302.977	0.29
303.19	0.24
303.402	0.26
303.615	0.25
303.827	0.27
304.04	0.26
304.252	0.31
304.464	0.24
304.677	0.39
304.889	0.25
305.102	0.2
305.314	0.2
305.526	0.31
305.739	0.33
305.951	0.2
306.163	0.24
306.375	0.34
306.588	0.24
306.8	0.21
307.012	0.2
307.224	0.25
307.436	0.37
307.649	0.19
307.861	0.26
308.073	0.3
308.285	0.26
308.497	0.2
308.709	0.22
308.921	0.31
309.133	0.32
309.346	0.24
309.558	0.23
309.77	0.31
309.982	0.4
310.194	0.25
310.406	0.22
310.617	0.38
310.829	0.25
311.041	0.28
311.253	0.23
311.465	0.24
311.677	0.25
311.889	0.23
312.101	0.22
312.313	0.33
312.524	0.34
312.736	0.18
312.948	0.24
313.16	0.33
313.372	0.33
313.583	0.26
313.795	0.22
314.007	0.25
314.218	0.37
314.43	0.21
314.642	0.26
314.853	0.22
315.065	0.32
315.277	0.21
315.488	0.26
315.7	0.27
315.912	0.3
316.123	0.24
316.335	0.27
316.546	0.39
316.758	0.26
316.969	0.2
317.181	0.27
317.392	0.27
317.604	0.33
317.815	0.22
318.026	0.19
318.238	0.25
318.449	0.28
318.661	0.17
318.872	0.17
319.083	0.18
319.295	0.28
319.506	0.22
319.717	0.22
319.929	0.33
320.14	0.29
320.351	0.25
320.562	0.19
320.774	0.27
320.985	0.25
321.196	0.21
321.407	0.19
321.618	0.33
321.829	0.27
322.041	0.29
322.252	0.25
322.463	0.28
322.674	0.33
322.885	0.21
323.096	0.26
323.307	0.27
323.518	0.25
323.729	0.2
323.94	0.22
324.151	0.24
324.362	0.28
324.573	0.28
324.784	0.23
324.995	0.31
325.206	0.27
325.417	0.23
325.628	0.22
325.838	0.28
326.049	0.27
326.26	0.27
326.471	0.24
326.682	0.31
326.892	0.26
327.103	0.15
327.314	0.2
327.525	0.34
327.735	0.25
327.946	0.23
328.157	0.22
328.368	0.31
328.578	0.28
328.789	0.26
328.999	0.29
329.21	0.23
329.421	0.33
329.631	0.26
329.842	0.2
330.052	0.29
330.263	0.32
330.473	0.27
330.684	0.21
330.894	0.26
331.105	0.31
331.315	0.29
331.526	0.18
331.736	0.35
331.947	0.27
332.157	0.3
332.367	0.18
332.578	0.31
332.788	0.37
332.999	0.3
333.209	0.25
333.419	0.16
333.629	0.33
333.84	0.27
334.05	0.2
334.26	0.35
334.47	0.26
334.681	0.25
334.891	0.23
335.101	0.29
335.311	0.39
335.521	0.25
335.732	0.18
335.942	0.36
336.152	0.3
336.362	0.27
336.572	0.25
336.782	0.3
336.992	0.21
337.202	0.24
337.412	0.22
337.622	0.26
337.832	0.24
338.042	0.26
338.252	0.23
338.462	0.27
338.672	0.28
338.882	0.21
339.092	0.21
339.302	0.37
339.511	0.28
339.721	0.25
339.931	0.2
340.141	0.32
340.351	0.31
340.561	0.25
340.77	0.29
340.98	0.28
341.19	0.31
341.4	0.28
341.609	0.22
341.819	0.26
342.029	0.18
342.238	0.28
342.448	0.19
342.658	0.29
342.867	0.27
343.077	0.26
343.286	0.28
343.496	0.31
343.706	0.39
343.915	0.22
344.125	0.27
344.334	0.27
344.544	0.19
344.753	0.2
344.963	0.22
345.172	0.21
345.381	0.22
345.591	0.23
345.8	0.25
346.01	0.33
346.219	0.31
346.428	0.12
346.638	0.23
346.847	0.24
347.056	0.3
347.266	0.23
347.475	0.26
347.684	0.31
347.893	0.28
348.103	0.29
348.312	0.19
348.521	0.23
348.73	0.22
348.94	0.26
349.149	0.23
349.358	0.24
349.567	0.21
349.776	0.19
349.985	0.21
350.194	0.32
350.403	0.32
350.612	0.17
350.821	0.2
351.03	0.26
351.239	0.19
351.448	0.29
351.657	0.22
351.866	0.35
352.075	0.25
352.284	0.28
352.493	0.19
352.702	0.36
352.911	0.3
353.12	0.19
353.329	0.23
353.538	0.27
353.746	0.21
353.955	0.21
354.164	0.25
354.373	0.24
354.582	0.3
354.79	0.28
354.999	0.31
355.208	0.25
355.416	0.36
355.625	0.2
355.834	0.22
356.042	0.27
356.251	0.25
356.46	0.2
356.668	0.22
356.877	0.35
357.085	0.3
357.294	0.14
357.503	0.25
357.711	0.29
357.92	0.47
358.128	0.27
358.337	0.2
358.545	0.28
358.754	0.24
358.962	0.32
359.17	0.2
359.379	0.26
359.587	0.29
359.796	0.23
360.004	0.31
360.212	0.3
360.421	0.3
360.629	0.24
360.837	0.21
361.046	0.31
361.254	0.4
361.462	0.28
361.67	0.21
361.879	0.29
362.087	0.34
362.295	0.28
362.503	0.23
362.711	0.21
362.92	0.22
363.128	0.19
363.336	0.2
363.544	0.2
363.752	0.24
363.96	0.21
364.168	0.2
364.376	0.24
364.584	0.23
364.792	0.32
365	0.25
365.208	0.25
365.416	0.29
365.624	0.28
365.832	0.24
366.04	0.34
366.248	0.27
366.456	0.23
366.664	0.25
366.872	0.27
367.079	0.27
367.287	0.22
367.495	0.3
367.703	0.26
367.911	0.2
368.118	0.25
368.326	0.24
368.534	0.25
368.742	0.31
368.949	0.22
369.157	0.22
369.365	0.29
369.572	0.24
369.78	0.19
369.988	0.28
370.195	0.28
370.403	0.34
370.61	0.2
370.818	0.25
371.026	0.35
371.233	0.21
371.441	0.26
371.648	0.22
371.856	0.25
372.063	0.3
372.271	0.26
372.478	0.18
372.685	0.26
372.893	0.3
373.1	0.24
373.308	0.23
373.515	0.42
373.722	0.31
373.93	0.26
374.137	0.27
374.344	0.33
374.552	0.31
374.759	0.28
374.966	0.22
375.173	0.25
375.381	0.31
375.588	0.23
375.795	0.2
376.002	0.28
376.209	0.22
376.417	0.26
376.624	0.25
376.831	0.3
377.038	0.26
377.245	0.16
377.452	0.26
377.659	0.27
377.866	0.23
378.073	0.29
378.28	0.24
378.487	0.33
378.694	0.32
378.901	0.26
379.108	0.24
379.315	0.32
379.522	0.37
379.729	0.22
379.936	0.26
380.143	0.29
380.35	0.25
380.557	0.27
380.763	0.23
380.97	0.28
381.177	0.3
381.384	0.27
381.591	0.29
381.797	0.33
382.004	0.34
382.211	0.28
382.418	0.22
382.624	0.28
382.831	0.36
383.038	0.25
383.244	0.29
383.451	0.26
383.658	0.28
383.864	0.28
384.071	0.17
384.277	0.37
384.484	0.25
384.69	0.36
384.897	0.21
385.103	0.27
385.31	0.27
385.516	0.29
385.723	0.21
385.929	0.32
386.136	0.28
386.342	0.29
386.549	0.24
386.755	0.35
386.961	0.34
387.168	0.27
387.374	0.24
387.58	0.3
387.787	0.31
387.993	0.26
388.199	0.26
388.406	0.24
388.612	0.28
388.818	0.28
389.024	0.31
389.231	0.32
389.437	0.41
389.643	0.33
389.849	0.33
390.055	0.29
390.261	0.29
390.467	0.33
390.674	0.27
390.88	0.31
391.086	0.34
391.292	0.23
391.498	0.29
391.704	0.31
391.91	0.28
392.116	0.25
392.322	0.19
392.528	0.32
392.734	0.32
392.94	0.31
393.146	0.28
393.352	0.33
393.557	0.27
393.763	0.31
393.969	0.36
394.175	0.34
394.381	0.32
394.587	0.25
394.792	0.3
394.998	0.39
395.204	0.36
395.41	0.26
395.615	0.3
395.821	0.32
396.027	0.36
396.233	0.3
396.438	0.35
396.644	0.38
396.85	0.32
397.055	0.33
397.261	0.35
397.466	0.45
397.672	0.31
397.878	0.39
398.083	0.37
398.289	0.33
398.494	0.42
398.7	0.39
398.905	0.22
399.111	0.44
399.316	0.31
399.522	0.34
399.727	0.35
399.932	0.34
400.138	0.28
400.343	0.37
400.549	0.34
400.754	0.35
400.959	0.39
401.165	0.35
401.37	0.37
401.575	0.48
401.78	0.4
401.986	0.37
402.191	0.37
402.396	0.36
402.601	0.42
402.807	0.44
403.012	0.4
403.217	0.44
403.422	0.43
403.627	0.42
403.832	0.37
404.037	0.49
404.243	0.46
404.448	0.34
404.653	0.39
404.858	0.47
405.063	0.46
405.268	0.4
405.473	0.36
405.678	0.41
405.883	0.69
406.088	0.52
406.293	0.4
406.498	0.44
406.703	0.5
406.907	0.48
407.112	0.42
407.317	0.56
407.522	0.59
407.727	0.46
407.932	0.55
408.136	0.72
408.341	0.55
408.546	0.59
408.751	0.6
408.956	0.61
409.16	0.64
409.365	0.62
409.57	0.63
409.774	0.63
409.979	0.67
410.184	0.69
410.388	0.64
410.593	0.84
410.798	0.73
411.002	0.73
411.207	0.79
411.411	0.77
411.616	0.77
411.82	0.82
412.025	0.87
412.229	0.85
412.434	0.99
412.638	0.95
412.843	0.92
413.047	0.94
413.252	0.98
413.456	1.02
413.66	1.09
413.865	1.04
414.069	1.19
414.273	1.13
414.478	1.13
414.682	1.22
414.886	1.23
415.091	1.21
415.295	1.25
415.499	1.47
415.703	1.37
415.908	1.51
416.112	1.3
416.316	1.62
416.52	1.62
416.724	1.56
416.929	1.63
417.133	1.91
417.337	1.71
417.541	1.88
417.745	1.92
417.949	2.04
418.153	2.06
418.357	2.07
418.561	2.29
418.765	2.28
418.969	2.43
419.173	2.45
419.377	2.48
419.581	2.69
419.785	2.65
419.989	2.67
420.193	2.89
420.397	2.99
420.601	3.13
420.804	3.2
421.008	3.14
421.212	3.35
421.416	3.35
421.62	3.41
421.823	3.48
422.027	3.65
422.231	3.59
422.435	3.56
422.638	3.67
422.842	3.8
423.046	3.85
423.249	4.07
423.453	4.11
423.657	4.16
423.86	4.35
424.064	4.44
424.268	4.51
424.471	4.59
424.675	4.85
424.878	4.86
425.082	5.03
425.285	5.28
425.489	5.22
425.692	5.39
425.896	5.4
426.099	5.6
426.303	5.71
426.506	5.81
426.71	6.07
426.913	6.35
427.116	6.49
427.32	6.33
427.523	6.61
427.726	6.87
427.93	6.95
428.133	7.28
428.336	7.31
428.54	7.54
428.743	7.77
428.946	8.01
429.149	8.07
429.353	7.98
429.556	8.14
429.759	8.09
429.962	8.33
430.165	8.48
430.368	8.19
430.571	8.17
430.775	8.29
430.978	8.2
431.181	8.32
431.384	8.36
431.587	8.45
431.79	8.78
431.993	8.7
432.196	9.01
432.399	9.51
432.602	9.68
432.805	9.66
433.008	10.23
433.211	10.08
433.414	10.53
433.616	10.47
433.819	10.43
434.022	10.54
434.225	10.71
434.428	10.76
434.631	11.23
434.833	11.01
435.036	11.24
435.239	11.62
435.442	11.43
435.645	11.64
435.847	11.64
436.05	11.95
436.253	12.25
436.455	12.25
436.658	12.2
436.861	12.53
437.063	12.51
437.266	12.57
437.468	12.89
437.671	13.28
437.874	13.36
438.076	13
438.279	13.57
438.481	13.66
438.684	14.29
438.886	13.98
439.089	14.33
439.291	14.32
439.494	14.67
439.696	14.86
439.899	15.41
440.101	15.85
440.303	15.95
440.506	16.63
440.708	16.64
440.91	16.57
441.113	16.94
441.315	17.19
441.517	17.01
441.72	17.38
441.922	17.14
442.124	16.96
442.326	17.41
442.529	17.52
442.731	17.46
442.933	17.83
443.135	17.65
443.337	17.73
443.539	18.06
443.742	17.84
443.944	18.57
444.146	18.34
444.348	18.24
444.55	18.01
444.752	18.23
444.954	18.3
445.156	18.07
445.358	18.71
445.56	18.77
445.762	18.68
445.964	18.99
446.166	18.64
446.368	18.67
446.57	18.75
446.772	18.23
446.974	18.01
447.175	18.36
447.377	18.06
447.579	18.41
447.781	18.16
447.983	17.75
448.184	17.38
448.386	17.77
448.588	17.29
448.79	17.24
448.991	17.57
449.193	17.45
449.395	16.75
449.597	16.55
449.798	16.47
450	15.85
450.202	15.75
450.403	15.75
450.605	15.68
450.806	15.22
451.008	15.08
451.21	14.98
451.411	14.41
451.613	13.73
451.814	13.97
452.016	14.01
452.217	13.17
452.419	13.2
452.62	12.83
452.821	12.5
453.023	12.41
453.224	12.16
453.426	11.73
453.627	11
453.828	11.1
454.03	11.2
454.231	11.12
454.432	10.92
454.634	10.66
454.835	10.32
455.036	10.26
455.238	9.92
455.439	9.64
455.64	9.37
455.841	9.21
456.042	9.34
456.244	9.17
456.445	8.72
456.646	8.55
456.847	8.42
457.048	8.46
457.249	8.4
457.45	8.2
457.651	7.64
457.852	7.54
458.054	7.22
458.255	7.08
458.456	7.18
458.657	7.1
458.858	6.71
459.058	6.52
459.259	6.61
459.46	6.4
459.661	6.34
459.862	6.38
460.063	6.21
460.264	6.11
460.465	5.95
460.666	6
460.866	5.62
461.067	5.51
461.268	5.51
461.469	5.37
461.67	5.3
461.87	5.18
462.071	5.16
462.272	5.12
462.473	5.14
462.673	5.22
462.874	5.06
463.075	5.1
463.275	5.04
463.476	5.1
463.676	5.02
463.877	4.92
464.078	4.88
464.278	4.99
464.479	4.84
464.679	4.65
464.88	4.67
465.08	4.67
465.281	4.4
465.481	4.28
465.682	4.17
465.882	4.19
466.083	4.02
466.283	3.96
466.483	3.8
466.684	3.7
466.884	3.67
467.085	3.62
467.285	3.68
467.485	3.52
467.686	3.51
467.886	3.36
468.086	3.36
468.286	3.32
468.487	3.35
468.687	3.21
468.887	3.18
469.087	3.34
469.287	3.28
469.488	3.02
469.688	3.14
469.888	3.15
470.088	3.13
470.288	3
470.488	3.01
470.688	2.83
470.888	2.75
471.088	2.65
471.288	2.78
471.488	2.76
471.688	2.7
471.888	2.64
472.088	2.76
472.288	2.64
472.488	2.52
472.688	2.53
472.888	2.61
473.088	2.6
473.288	2.51
473.488	2.39
473.688	2.54
473.887	2.44
474.087	2.34
474.287	2.37
474.487	2.37
474.687	2.37
474.886	2.3
475.086	2.24
475.286	2.25
475.486	2.23
475.685	2.23
475.885	2.18
476.085	2.23
476.284	2.24
476.484	2.27
476.684	2.17
476.883	2.3
477.083	2.15
477.282	2.09
477.482	2.13
477.681	2.11
477.881	2.07
478.08	2.03
478.28	2.01
478.479	2.09
478.679	2.14
478.878	2.04
479.078	2
479.277	2.06
479.477	2.06
479.676	1.99
479.875	1.98
480.075	1.93
480.274	1.98
480.473	2.06
480.673	1.98
480.872	2.07
481.071	2.01
481.271	2.02
481.47	1.99
481.669	2
481.868	1.95
482.067	1.95
482.267	1.92
482.466	1.91
482.665	1.93
482.864	1.9
483.063	1.89
483.262	1.98
483.461	2.02
483.661	2.05
483.86	1.97
484.059	2.08
484.258	2.01
484.457	2.01
484.656	1.99
484.855	2.08
485.054	1.88
485.253	1.96
485.452	1.95
485.651	2.03
485.849	2.02
486.048	1.98
486.247	2
486.446	2.09
486.645	2.01
486.844	2.05
487.043	2.07
487.241	2.13
487.44	2.07
487.639	2.12
487.838	2.1
488.037	2.13
488.235	2.23
488.434	2.17
488.633	2.02
488.831	2.22
489.03	2.24
489.229	2.19
489.427	2.21
489.626	2.25
489.825	2.28
490.023	2.29
490.222	2.28
490.42	2.27
490.619	2.38
490.817	2.39
491.016	2.34
491.214	2.42
491.413	2.43
491.611	2.38
491.81	2.41
492.008	2.47
492.207	2.57
492.405	2.53
492.604	2.44
492.802	2.55
493	2.6
493.199	2.62
493.397	2.65
493.595	2.67
493.794	2.66
493.992	2.78
494.19	2.77
494.388	2.77
494.587	2.76
494.785	2.8
494.983	2.73
495.181	2.84
495.379	2.91
495.578	2.94
495.776	2.97
495.974	2.92
496.172	2.95
496.37	3.08
496.568	3.11
496.766	3.08
496.964	3.22
497.162	3.24
497.36	3.24
497.558	3.21
497.756	3.31
497.954	3.32
498.152	3.35
498.35	3.47
498.548	3.34
498.746	3.41
498.944	3.39
499.142	3.44
499.34	3.51
499.538	3.62
499.736	3.51
499.933	3.64
500.131	3.68
500.329	3.8
500.527	3.76
500.725	3.85
500.922	3.89
501.12	3.88
501.318	3.96
501.516	3.97
501.713	4
501.911	4.01
502.109	4
502.306	4.08
502.504	4.05
502.701	4.15
502.899	4.16
503.097	4.36
503.294	4.23
503.492	4.34
503.689	4.36
503.887	4.4
504.084	4.45
504.282	4.45
504.479	4.42
504.677	4.64
504.874	4.59
505.072	4.5
505.269	4.71
505.466	4.68
505.664	4.73
505.861	4.67
506.059	4.75
506.256	4.77
506.453	4.89
506.651	4.95
506.848	4.98
507.045	4.98
507.242	5.01
507.44	5.02
507.637	5.09
507.834	5.08
508.031	5.26
508.229	5.13
508.426	5.15
508.623	5.29
508.82	5.31
509.017	5.31
509.214	5.28
509.411	5.41
509.608	5.37
509.805	5.5
510.003	5.51
510.2	5.56
510.397	5.66
510.594	5.56
510.791	5.68
510.988	5.65
511.184	5.67
511.381	5.53
511.578	5.68
511.775	5.87
511.972	5.71
512.169	5.85
512.366	5.82
512.563	6.01
512.76	5.99
512.956	6.04
513.153	5.99
513.35	5.98
513.547	5.94
513.744	6.08
513.94	6.05
514.137	6.15
514.334	6.15
514.53	6.2
514.727	6.37
514.924	6.31
515.12	6.29
515.317	6.27
515.514	6.23
515.71	6.23
515.907	6.43
516.103	6.51
516.3	6.37
516.497	6.52
516.693	6.53
516.89	6.55
517.086	6.53
517.283	6.56
517.479	6.48
517.676	6.63
517.872	6.62
518.068	6.62
518.265	6.66
518.461	6.58
518.658	6.7
518.854	6.72
519.05	6.83
519.247	6.85
519.443	6.78
519.639	6.91
519.836	6.85
520.032	6.76
520.228	6.89
520.424	6.92
520.621	6.99
520.817	6.96
521.013	6.94
521.209	7.16
521.405	7.11
521.601	7.11
521.798	7.1
521.994	7.07
522.19	7.03
522.386	7.01
522.582	7.12
522.778	7.29
522.974	7.15
523.17	7.21
523.366	7.1
523.562	7.22
523.758	7.18
523.954	7.08
524.15	7.21
524.346	7.32
524.542	7.29
524.738	7.28
524.934	7.32
525.129	7.34
525.325	7.26
525.521	7.29
525.717	7.48
525.913	7.34
526.109	7.37
526.304	7.44
526.5	7.49
526.696	7.48
526.892	7.39
527.087	7.61
527.283	7.48
527.479	7.51
527.674	7.31
527.87	7.57
528.066	7.54
528.261	7.52
528.457	7.43
528.653	7.6
528.848	7.6
529.044	7.7
529.239	7.52
529.435	7.58
529.63	7.51
529.826	7.6
530.021	7.58
530.217	7.69
530.412	7.64
530.608	7.67
530.803	7.67
530.999	7.53
531.194	7.71
531.389	7.76
531.585	7.69
531.78	7.85
531.975	7.74
532.171	7.8
532.366	7.79
532.561	7.78
532.757	7.74
532.952	7.91
533.147	7.68
533.342	7.79
533.538	7.68
533.733	7.86
533.928	7.61
534.123	7.8
534.318	7.88
534.513	7.82
534.709	7.9
534.904	7.95
535.099	7.95
535.294	7.92
535.489	7.92
535.684	7.84
535.879	7.85
536.074	7.93
536.269	7.94
536.464	8
536.659	7.88
536.854	7.93
537.049	8
537.244	7.92
537.439	7.91
537.634	7.97
537.828	7.99
538.023	7.97
538.218	7.93
538.413	7.87
538.608	7.96
538.803	7.97
538.997	7.92
539.192	7.99
539.387	7.88
539.582	7.94
539.776	7.89
539.971	8.03
540.166	8.07
540.36	7.94
540.555	8.07
540.75	7.98
540.944	8.06
541.139	8.05
541.334	8.01
541.528	8.04
541.723	8.09
541.917	8.06
542.112	7.98
542.306	7.89
542.501	7.9
542.695	8.01
542.89	7.95
543.084	8.02
543.279	8.08
543.473	8.06
543.668	8.09
543.862	7.92
544.056	7.93
544.251	8.11
544.445	8.14
544.64	8.19
544.834	7.85
545.028	7.72
545.222	8.04
545.417	8.26
545.611	8.16
545.805	8.04
546	7.86
546.194	8.12
546.388	8.08
546.582	7.98
546.776	8.01
546.97	8.06
547.165	8.05
547.359	8.04
547.553	7.99
547.747	7.98
547.941	8.23
548.135	8.04
548.329	8.06
548.523	8.05
548.717	8.06
548.911	8.06
549.105	8
549.299	8.16
549.493	8.14
549.687	8.03
549.881	8.22
550.075	8.11
550.269	8.01
550.463	8.16
550.657	8.09
550.85	8.07
551.044	8.07
551.238	8.19
551.432	8.15
551.626	8.11
551.82	8.18
552.013	8.01
552.207	8.23
552.401	8.19
552.594	8.09
552.788	8.04
552.982	8.1
553.176	7.99
553.369	8.24
553.563	8.1
553.756	8.14
553.95	8.15
554.144	8.17
554.337	8.18
554.531	7.99
554.724	8.13
554.918	8.18
555.111	8.15
555.305	8.2
555.498	8.04
555.692	8.22
555.885	8.14
556.079	8.13
556.272	8.16
556.466	8.1
556.659	8.07
556.852	8.14
557.046	8.1
557.239	7.99
557.432	8.03
557.626	8.17
557.819	8.19
558.012	8.19
558.206	8.23
558.399	8.12
558.592	8.06
558.785	8.08
558.979	8.07
559.172	8.13
559.365	8.16
559.558	8.11
559.751	8.05
559.944	8.17
560.138	8.12
560.331	8.15
560.524	8.14
560.717	8.12
560.91	8.12
561.103	8.12
561.296	8.01
561.489	8.19
561.682	8.2
561.875	8.19
562.068	8.2
562.261	8.05
562.454	8.25
562.647	8.09
562.84	8.19
563.032	8.14
563.225	8.08
563.418	8.12
563.611	8.17
563.804	8.16
563.997	8.01
564.19	7.84
564.382	8.18
564.575	8.13
564.768	8.06
564.961	8.16
565.153	8.07
565.346	8.07
565.539	8.15
565.731	8.1
565.924	8.21
566.117	8.26
566.309	8.21
566.502	8.08
566.695	7.95
566.887	8.15
567.08	8.12
567.272	8.16
567.465	8.03
567.657	8.12
567.85	8.06
568.042	8.12
568.235	8.11
568.427	8
568.62	8.06
568.812	8.04
569.005	8.11
569.197	8.03
569.389	8.11
569.582	8.11
569.774	8.09
569.966	8
570.159	8.03
570.351	7.97
570.543	8.05
570.736	8.05
570.928	7.9
571.12	8.07
571.312	8.01
571.505	7.79
571.697	8.1
571.889	8.07
572.081	8.05
572.273	7.93
572.465	8.05
572.658	8.03
572.85	8.03
573.042	8.01
573.234	7.92
573.426	7.99
573.618	7.96
573.81	8.02
574.002	7.98
574.194	7.98
574.386	7.92
574.578	7.83
574.77	7.97
574.962	7.93
575.154	7.82
575.346	7.82
575.538	7.92
575.729	7.87
575.921	7.98
576.113	7.94
576.305	7.95
576.497	8.03
576.689	7.8
576.88	7.81
577.072	7.96
577.264	7.85
577.456	7.88
577.647	7.86
577.839	8.05
578.031	7.88
578.223	7.88
578.414	7.76
578.606	7.82
578.798	7.93
578.989	7.81
579.181	7.95
579.372	7.91
579.564	7.86
579.755	7.74
579.947	7.76
580.139	7.89
580.33	7.63
580.522	7.77
580.713	7.71
580.905	7.79
581.096	7.87
581.287	7.74
581.479	7.74
581.67	7.81
581.862	7.7
582.053	7.7
582.244	7.63
582.436	7.88
582.627	7.66
582.818	7.57
583.01	7.68
583.201	7.74
583.392	7.69
583.583	7.62
583.775	7.5
583.966	7.58
584.157	7.72
584.348	7.68
584.54	7.62
584.731	7.67
584.922	7.57
585.113	7.52
585.304	7.63
585.495	7.62
585.686	7.68
585.877	7.63
586.068	7.66
586.259	7.61
586.45	7.5
586.641	7.53
586.832	7.59
587.023	7.55
587.214	7.46
587.405	7.58
587.596	7.37
587.787	7.45
587.978	7.51
588.169	7.38
588.36	7.35
588.551	7.42
588.742	7.46
588.932	7.45
589.123	7.26
589.314	7.54
589.505	7.29
589.696	7.44
589.886	7.31
590.077	7.43
590.268	7.27
590.458	7.23
590.649	7.15
590.84	7.4
591.03	7.26
591.221	7.3
591.412	7.13
591.602	7.38
591.793	7.23
591.984	7.27
592.174	7.23
592.365	7.4
592.555	7.1
592.746	7.16
592.936	7.22
593.127	7.22
593.317	7.22
593.508	7.16
593.698	7.12
593.889	7.15
594.079	7.11
594.269	7.09
594.46	7.08
594.65	7.1
594.84	7.08
595.031	6.95
595.221	6.97
595.411	7.05
595.602	7.07
595.792	6.96
595.982	6.95
596.172	7.06
596.363	6.91
596.553	6.96
596.743	6.95
596.933	6.91
597.123	6.9
597.314	6.82
597.504	6.79
597.694	6.96
597.884	6.88
598.074	6.86
598.264	6.81
598.454	6.8
598.644	6.76
598.834	6.71
599.024	6.65
599.214	6.7
599.404	6.78
599.594	6.74
599.784	6.65
599.974	6.76
600.164	6.69
600.354	6.65
600.544	6.62
600.734	6.68
600.924	6.65
601.114	6.59
601.303	6.56
601.493	6.59
601.683	6.57
601.873	6.59
602.063	6.48
602.252	6.55
602.442	6.43
602.632	6.48
602.821	6.39
603.011	6.5
603.201	6.4
603.39	6.45
603.58	6.29
603.77	6.48
603.959	6.51
604.149	6.32
604.339	6.36
604.528	6.42
604.718	6.45
604.907	6.31
605.097	6.22
605.286	6.19
605.476	6.29
605.665	6.32
605.855	6.25
606.044	6.3
606.234	6.24
606.423	6.21
606.612	6.23
606.802	6.09
606.991	6.2
607.181	6.16
607.37	6.14
607.559	5.89
607.749	6.17
607.938	6.02
608.127	6.08
608.316	6.07
608.506	6.06
608.695	6.09
608.884	6.02
609.073	6.03
609.263	6.06
609.452	6.05
609.641	5.91
609.83	5.91
610.019	5.94
610.208	5.85
610.397	5.88
610.586	5.9
610.775	5.78
610.965	5.86
611.154	5.75
611.343	5.82
611.532	5.71
611.721	5.81
611.91	5.74
612.099	5.73
612.287	5.66
612.476	5.64
612.665	5.77
612.854	5.65
613.043	5.72
613.232	5.6
613.421	5.6
613.61	5.57
613.798	5.54
613.987	5.57
614.176	5.51
614.365	5.54
614.554	5.56
614.742	5.56
614.931	5.38
615.12	5.62
615.309	5.45
615.497	5.39
615.686	5.35
615.875	5.35
616.063	5.34
616.252	5.35
616.44	5.4
616.629	5.3
616.818	5.31
617.006	5.3
617.195	5.18
617.383	5.26
617.572	5.17
617.76	5.18
617.949	5.21
618.137	5.25
618.326	5.23
618.514	5.07
618.703	5.03
618.891	5.24
619.079	5.05
619.268	5.19
619.456	4.98
619.644	5.14
619.833	5.04
620.021	5
620.209	4.92
620.398	4.99
620.586	4.94
620.774	5.04
620.962	4.97
621.151	4.98
621.339	4.96
621.527	4.86
621.715	4.85
621.903	4.89
622.092	4.8
622.28	4.9
622.468	4.72
622.656	4.84
622.844	4.75
623.032	4.87
623.22	4.75
623.408	4.88
623.596	4.75
623.784	4.84
623.972	4.59
624.16	4.71
624.348	4.74
624.536	4.68
624.724	4.63
624.912	4.65
625.1	4.65
625.288	4.61
625.476	4.55
625.664	4.68
625.851	4.58
626.039	4.5
626.227	4.46
626.415	4.54
626.603	4.39
626.79	4.52
626.978	4.46
627.166	4.53
627.354	4.4
627.541	4.33
627.729	4.21
627.917	4.52
628.104	4.43
628.292	4.32
628.48	4.31
628.667	4.29
628.855	4.42
629.042	4.36
629.23	4.29
629.418	4.29
629.605	4.28
629.793	4.19
629.98	4.2
630.168	4.12
630.355	4.2
630.543	4.16
630.73	4.03
630.917	4.15
631.105	4.28
631.292	4.1
631.48	4.09
631.667	4.11
631.854	4.02
632.042	4.04
632.229	3.94
632.416	4.11
632.604	3.98
632.791	3.88
632.978	4.02
633.165	3.98
633.353	3.94
633.54	3.99
633.727	3.83
633.914	3.84
634.101	3.82
634.289	3.94
634.476	3.8
634.663	3.83
634.85	3.85
635.037	3.74
635.224	3.75
635.411	3.81
635.598	3.77
635.785	3.7
635.972	3.68
636.159	3.73
636.346	3.68
636.533	3.59
636.72	3.67
636.907	3.63
637.094	3.71
637.281	3.54
637.468	3.59
637.655	3.55
637.842	3.58
638.029	3.55
638.215	3.6
638.402	3.51
638.589	3.43
638.776	3.54
638.963	3.43
639.149	3.57
639.336	3.63
639.523	3.45
639.709	3.43
639.896	3.45
640.083	3.41
640.27	3.44
640.456	3.33
640.643	3.39
640.829	3.27
641.016	3.31
641.203	3.27
641.389	3.37
641.576	3.31
641.762	3.28
641.949	3.23
642.135	3.27
642.322	3.24
642.508	3.1
642.695	3.2
642.881	3.17
643.068	3.14
643.254	3.18
643.441	3.14
643.627	3.16
643.813	3.05
644	3.13
644.186	3.02
644.372	3.07
644.559	3.11
644.745	3.04
644.931	3.03
645.118	3.11
645.304	3.04
645.49	2.94
645.676	2.95
645.862	2.95
646.049	3.09
646.235	2.95
646.421	3.07
646.607	3.06
646.793	2.9
646.979	2.85
647.165	2.94
647.352	2.91
647.538	2.93
647.724	2.87
647.91	2.83
648.096	2.84
648.282	2.83
648.468	2.8
648.654	2.83
648.84	2.81
649.026	2.79
649.212	2.73
649.397	2.7
649.583	2.74
649.769	2.71
649.955	2.72
650.141	2.69
650.327	2.73
650.513	2.66
650.698	2.63
650.884	2.54
651.07	2.71
651.256	2.63
651.442	2.62
651.627	2.51
651.813	2.67
651.999	2.57
652.184	2.62
652.37	2.57
652.556	2.51
652.741	2.63
652.927	2.45
653.113	2.47
653.298	2.56
653.484	2.49
653.669	2.42
653.855	2.47
654.04	2.5
654.226	2.46
654.412	2.46
654.597	2.35
654.782	2.44
654.968	2.44
655.153	2.4
655.339	2.34
655.524	2.39
655.71	2.38
655.895	2.3
656.08	2.35
656.266	2.37
656.451	2.28
656.636	2.26
656.822	2.28
657.007	2.28
657.192	2.25
657.378	2.2
657.563	2.25
657.748	2.29
657.933	2.25
658.118	2.21
658.304	2.23
658.489	2.29
658.674	2.17
658.859	2.13
659.044	2.15
659.229	2.18
659.414	2.15
659.599	2.16
659.785	2.08
659.97	2.14
660.155	2.16
660.34	2.13
660.525	2.05
660.71	2.04
660.895	2.1
661.08	2.05
661.264	2.01
661.449	2.11
661.634	2.09
661.819	2.05
662.004	2.06
662.189	1.94
662.374	2
662.559	2.01
662.743	1.91
662.928	1.97
663.113	1.98
663.298	1.96
663.483	1.93
663.667	1.99
663.852	1.92
664.037	1.96
664.221	1.91
664.406	1.99
664.591	1.93
664.775	1.93
664.96	1.92
665.145	1.86
665.329	1.95
665.514	1.88
665.698	1.81
665.883	1.8
666.068	1.88
666.252	1.84
666.437	1.83
666.621	1.79
666.806	1.85
666.99	1.83
667.174	1.73
667.359	1.82
667.543	1.78
667.728	1.74
667.912	1.66
668.096	1.78
668.281	1.76
668.465	1.77
668.649	1.68
668.834	1.7
669.018	1.73
669.202	1.73
669.387	1.69
669.571	1.8
669.755	1.67
669.939	1.71
670.124	1.63
670.308	1.73
670.492	1.7
670.676	1.67
670.86	1.61
671.044	1.56
671.228	1.7
671.413	1.56
671.597	1.51
671.781	1.59
671.965	1.67
672.149	1.58
672.333	1.62
672.517	1.53
672.701	1.6
672.885	1.59
673.069	1.45
673.253	1.63
673.437	1.56
673.621	1.54
673.804	1.5
673.988	1.53
674.172	1.49
674.356	1.43
674.54	1.53
674.724	1.69
674.908	1.45
675.091	1.54
675.275	1.51
675.459	1.56
675.643	1.49
675.826	1.52
676.01	1.45
676.194	1.44
676.377	1.46
676.561	1.49
676.745	1.43
676.928	1.49
677.112	1.48
677.296	1.4
677.479	1.39
677.663	1.4
677.846	1.4
678.03	1.42
678.213	1.35
678.397	1.41
678.58	1.33
678.764	1.33
678.947	1.23
679.131	1.41
679.314	1.5
679.498	1.29
679.681	1.38
679.865	1.31
680.048	1.32
680.231	1.31
680.415	1.26
680.598	1.27
680.781	1.27
680.965	1.28
681.148	1.26
681.331	1.18
681.514	1.34
681.698	1.21
681.881	1.27
682.064	1.26
682.247	1.27
682.43	1.17
682.614	1.24
682.797	1.34
682.98	1.28
683.163	1.15
683.346	1.21
683.529	1.13
683.712	1.19
683.895	1.21
684.078	1.15
684.261	1.18
684.444	1.3
684.627	1.2
684.81	1.14
684.993	1.13
685.176	1.26
685.359	1.12
685.542	1.07
685.725	1.28
685.908	1.18
686.091	1.18
686.274	1.19
686.457	1.16
686.639	1.22
686.822	1.15
687.005	1.09
687.188	1.16
687.371	1.28
687.553	1.2
687.736	1.13
687.919	1.22
688.102	1.15
688.284	1.07
688.467	1.07
688.65	1.11
688.832	0.99
689.015	1.09
689.197	1.03
689.38	1.21
689.563	1.19
689.745	1.01
689.928	0.96
690.11	1.04
690.293	1.08
690.475	0.96
690.658	1.06
690.84	1.03
691.023	1.04
691.205	0.97
691.388	0.95
691.57	1.06
691.752	1
691.935	0.92
692.117	0.96
692.3	1.01
692.482	0.94
692.664	0.91
692.847	0.96
693.029	1.08
693.211	1.04
693.393	0.91
693.576	0.94
693.758	0.99
693.94	0.98
694.122	0.89
694.304	0.93
694.487	0.92
694.669	1.03
694.851	0.87
695.033	0.91
695.215	0.92
695.397	0.84
695.579	0.86
695.761	0.89
695.943	0.86
696.125	1.02
696.308	0.94
696.49	0.75
696.671	1.05
696.853	0.91
697.035	1.12
697.217	0.86
697.399	1.01
697.581	0.92
697.763	0.86
697.945	0.84
698.127	0.85
698.309	0.94
698.491	0.85
698.672	0.91
698.854	0.93
699.036	0.98
699.218	0.86
699.399	0.89
699.581	0.93
699.763	0.86
699.945	0.82
700.126	0.73
700.308	0.81
700.49	0.84
700.671	0.7
700.853	0.76
701.035	0.78
701.216	0.8
701.398	0.75
701.579	0.77
701.761	0.86
701.943	0.77
702.124	0.71
702.306	0.78
702.487	0.96
702.669	0.78
702.85	0.75
703.031	0.68
703.213	0.89
703.394	0.89
703.576	0.74
703.757	0.91
703.938	0.86
704.12	0.99
704.301	0.75
704.483	0.7
704.664	0.83
704.845	0.9
705.026	0.84
705.208	0.71
705.389	0.76
705.57	0.78
705.751	0.72
705.933	0.79
706.114	0.78
706.295	0.73
706.476	0.64
706.657	0.86
706.838	0.75
707.02	0.82
707.201	0.71
707.382	0.69
707.563	0.82
707.744	0.7
707.925	0.62
708.106	0.65
708.287	0.76
708.468	0.8
708.649	0.72
708.83	0.73
709.011	0.65
709.192	0.82
709.373	0.55
709.554	0.65
709.734	0.82
709.915	0.75
710.096	0.68
710.277	0.54
710.458	0.67
710.639	0.75
710.819	0.49
711	0.64
711.181	0.74
711.362	0.73
711.542	0.68
711.723	0.66
711.904	0.74
712.085	0.78
712.265	0.61
712.446	0.52
712.627	0.6
712.807	0.65
712.988	0.6
713.168	0.47
713.349	0.74
713.53	0.43
713.71	0.51
713.891	0.51
714.071	0.61
714.252	0.67
714.432	0.57
714.613	0.49
714.793	0.64
714.974	0.75
715.154	0.69
715.334	0.67
715.515	0.72
715.695	0.53
715.876	0.6
716.056	0.61
716.236	0.54
716.417	0.65
716.597	0.53
716.777	0.85
716.957	0.64
717.138	0.58
717.318	0.54
717.498	0.49
717.678	0.62
717.859	0.62
718.039	0.44
718.219	0.62
718.399	0.6
718.579	0.47
718.759	0.48
718.939	0.63
719.12	0.61
719.3	0.63
719.48	0.39
719.66	0.42
719.84	0.69
720.02	0.56
720.2	0.51
720.38	0.59
720.56	0.75
720.74	0.52
720.92	0.6
721.1	0.72
721.279	0.66
721.459	0.62
721.639	0.48
721.819	0.54
721.999	0.54
722.179	0.61
722.359	0.53
722.538	0.52
722.718	0.53
722.898	0.58
723.078	0.49
723.257	0.5
723.437	0.6
723.617	0.57
723.797	0.49
723.976	0.59
724.156	0.64
724.336	0.65
724.515	0.76
724.695	0.42
724.874	0.49
725.054	0.62
725.234	0.47
725.413	0.55
725.593	0.52
725.772	0.57
725.952	0.52
726.131	0.47
726.311	0.56
726.49	0.48
726.67	0.47
726.849	0.46
727.028	0.55
727.208	0.55
727.387	0.53
727.567	0.32
727.746	0.47
727.925	0.47
728.105	0.37
728.284	0.5
728.463	0.5
728.643	0.53
728.822	0.39
729.001	0.51
729.18	0.41
729.359	0.61
729.539	0.5
729.718	0.44
729.897	0.53
730.076	0.47
730.255	0.46
730.434	0.53
730.614	0.55
730.793	0.64
730.972	0.48
731.151	0.54
731.33	0.71
731.509	0.56
731.688	0.47
731.867	0.53
732.046	0.34
732.225	0.8
732.404	0.45
732.583	0.32
732.762	0.44
732.941	0.47
733.12	0.57
733.298	0.5
733.477	0.64
733.656	0.36
733.835	0.39
734.014	0.62
734.193	0.52
734.371	0.59
734.55	0.57
734.729	0.43
734.908	0.47
735.086	0.46
735.265	0.56
735.444	0.27
735.623	0.4
735.801	0.45
735.98	0.43
736.159	0.49
736.337	0.54
736.516	0.49
736.694	0.54
736.873	0.44
737.052	0.69
737.23	0.67
737.409	0.38
737.587	0.82
737.766	0.46
737.944	0.47
738.123	0.63
738.301	0.53
738.479	0.46
738.658	0.51
738.836	0.28
739.015	0.45
739.193	0.64
739.371	0.34
739.55	0.53
739.728	0.43
739.906	0.67
740.085	0.75
740.263	0.58
740.441	0.24
740.62	0.73
740.798	0.62
740.976	0.48
741.154	0.4
741.332	0.59
741.511	0.42
741.689	0.49
741.867	0.41
742.045	0.56
742.223	0.57
742.401	0.28
742.579	0.46
742.757	0.56
742.935	0.28
743.114	0.43
743.292	0.41
743.47	0.5
743.648	0.52
743.826	0.4
744.004	0.57
744.181	0.62
744.359	0.42
744.537	0.63
744.715	0.44
744.893	0.46
745.071	0.63
745.249	0.44
745.427	0.42
745.605	0.53
745.782	0.41
745.96	0.49
746.138	0.44
746.316	0.51
746.493	0.55
746.671	0.4
746.849	0.35
747.027	0.67
747.204	0.33
747.382	0.53
747.56	0.39
747.737	0.4
747.915	0.41
748.093	0.38
748.27	0.37
748.448	0.47
748.625	0.35
748.803	0.4
748.98	0.29
749.158	0.49
749.335	0.51
749.513	0.39
749.69	0.36
749.868	0.44
750.045	0.5
750.223	0.34
750.4	0.24
750.578	0.58
750.755	0.32
750.932	0.25
751.11	0.52
751.287	0.31
751.464	0.62
751.642	0.24
751.819	0.45
751.996	0.4
752.173	0.37
752.351	0.31
752.528	0.38
752.705	0.42
752.882	0.35
753.06	0.4
753.237	0.32
753.414	0.59
753.591	0.65
753.768	0.41
753.945	0.35
754.122	0.36
754.299	0.49
754.476	0.36
754.654	0.34
754.831	0.48
755.008	0.52
755.185	0.41
755.362	0.26
755.539	0.48
755.716	0.41
755.892	0.44
756.069	0.46
756.246	0.43
756.423	0.43
756.6	0.41
756.777	0.24
756.954	0.59
757.131	0.35
757.307	0.37
757.484	0.25
757.661	0.39
757.838	0.56
758.015	0.22
758.191	0.42
758.368	0.46
758.545	0.65
758.721	0.44
758.898	0.23
759.075	0.52
759.251	0.46
759.428	0.37
759.605	0.3
759.781	0.31
759.958	0.38
760.134	0.27
760.311	0.34
760.488	0.76
760.664	0.58
760.841	0.33
761.017	0.27
761.194	0.51
761.37	0.54
761.547	0.41
761.723	0.21
761.899	0.52
762.076	0.24
762.252	0.2
762.429	0.2
762.605	0.45
762.781	0.19
762.958	0.4
763.134	0.43
763.31	0.24
763.486	0.63
763.663	0.11
763.839	0.42
764.015	0.21
764.191	0.31
764.368	0.21
764.544	0.11
764.72	0.42
764.896	0.44
765.072	0.44
765.248	0.34
765.425	0.34
765.601	0.5
765.777	0.31
765.953	0.08
766.129	0.27
766.305	0.37
766.481	0.46
766.657	0.43
766.833	0.47
767.009	0.24
767.185	0.32
767.361	0.33
767.537	0.33
767.713	0.57
767.889	0.29
768.065	0.4
768.24	0.2
768.416	0.57
768.592	0.34
768.768	0.4
768.944	0.34
769.12	0.34
769.295	0.21
769.471	0.44
769.647	0.34
769.823	0.65
769.998	0.1
770.174	0.17
770.35	0.72
770.525	0.58
770.701	0.39
770.877	0.35
771.052	0.24
771.228	0.55
771.403	0.42
771.579	0.48
771.755	0.75
771.93	0.41
772.106	0.23
772.281	0.08
772.457	0.44
772.632	0.41
772.808	0.2
772.983	0.24
773.159	0.18
773.334	0.72
773.509	0.39
773.685	0.22
773.86	0.85
774.036	0.68
774.211	0.45
774.386	0.42
774.562	0.34
774.737	0.55
774.912	0.28
775.087	0.43
775.263	0.33
775.438	0.45
775.613	0.29
775.788	0.29
775.964	0.6
776.139	0.96
776.314	0.08
776.489	0.34
776.664	0.48
776.839	0.36
777.014	0.57
777.19	0.54
777.365	0.71
777.54	0.71
777.715	0.33
777.89	0.4
778.065	0.26
778.24	0.24
778.415	0.47
778.59	0.2
778.765	0.4
778.94	0.44
779.115	0.26
779.289	0.33
779.464	0.24
779.639	0.29
779.814	0.31
779.989	0.14
780.164	0.46
780.339	0.52
780.513	0.26
780.688	0.09
780.863	0.42
781.038	0.68
781.212	0.27
781.387	0.27
781.562	0.77
781.737	0.25
781.911	0.72
782.086	0.16
782.261	0.34
782.435	0.7
782.61	0.3
782.784	0.34
782.959	0.74
783.134	0.29
783.308	0.18
783.483	0.31
783.657	0.74
783.832	0.51
784.006	0.12
784.181	0.59
784.355	0.73
784.53	0.11
784.704	0.37
784.878	0.73
785.053	0.59
785.227	0.91
785.402	0.86
785.576	0.24
785.75	0.38
785.925	0.28
786.099	0.35
786.273	0.42
786.448	0.65
786.622	0.56
786.796	0.32
786.97	0.43
787.145	1.04
787.319	0.16
787.493	0.27
787.667	-0.04
787.841	0.48
788.015	0.8
788.19	0.15
788.364	0.29
788.538	0.79
788.712	0.73
788.886	0.38
789.06	0.56
789.234	0.65
789.408	0.23
789.582	0.18
789.756	0.36
789.93	0.3
790.104	0.49
790.278	0.4
790.452	0.36
790.626	0.71
790.8	0.33
790.973	0.61
791.147	0.81
791.321	0.84
791.495	0.69
791.669	0.48
791.843	0.61
792.016	0.65
792.19	1.03
792.364	0.35
792.538	1.01
792.711	0.73
792.885	0.35
793.059	0.26
793.233	0.05
793.406	0.47
793.58	0.56
793.754	0.56
793.927	0.55
794.101	0.8
794.274	0.43
794.448	0.5
794.622	0.23
794.795	1.07
794.969	0.22
795.142	0.63
795.316	0.51
795.489	0.23
795.663	1.18
795.836	0.43
796.009	0.22
796.183	0.86
796.356	0.55
796.53	0.56
796.703	0.25
796.876	1.29
797.05	0.55
797.223	0.4
797.396	0.27
797.57	0.6
797.743	0.86
797.916	0.59
798.09	0.49
798.263	0.68
798.436	0.51
798.609	0.23
798.782	0.72
798.956	0.82
799.129	0.58
799.302	0.5
799.475	0.26
799.648	0.31
799.821	0.27
799.994	0.53
800.167	-0.05
800.34	0.36
800.514	0.73
800.687	0.37
800.86	0.22
801.033	0.68
801.206	0.6
801.379	0.23
801.551	0.72
801.724	0.8
801.897	0.98
802.07	0.35
802.243	0.07
802.416	0.44
802.589	0.39
802.762	0.63
802.935	0.32
803.107	1.06
803.28	0.85
803.453	0.78
803.626	0.5
803.798	0.61
803.971	0.69
804.144	0.63
804.317	0.47
804.489	1
804.662	0.82
804.835	0.41
805.007	0.27
805.18	1.12
805.353	0.48
805.525	0.51
805.698	0.03
805.87	1.02
806.043	0.86
806.215	0.13
806.388	0.24
806.56	0.61
806.733	0.92
806.905	0.55
807.078	0.1
807.25	0.35
807.423	0.97
807.595	0.51
807.768	0.65
807.94	1.03
808.112	1.07
808.285	0.6
808.457	0.36
808.629	0.55
808.802	0.65
808.974	0.22
809.146	0.16
809.318	0.45
809.491	0.36
809.663	0.72
809.835	0.19
810.007	0.5
810.18	0.61
810.352	-0.22
810.524	0.17
810.696	0.98
810.868	0.89
811.04	0.44
811.212	0.25
811.384	1.25
811.556	0.98
811.728	0.45
811.901	1.07
812.073	0.61
812.245	1.03
812.417	0.48
812.589	-0.02
812.76	0.74
812.932	1.16
813.104	1
813.276	0.36
813.448	1.16
813.62	0.43
813.792	0.96
813.964	0.41
814.136	0.57
814.307	0.32
814.479	0.23
814.651	0.29
814.823	1.6
814.995	0.73
815.166	0.73
815.338	0.56
815.51	0.46
815.681	1.64
815.853	0.55
816.025	0.41
816.196	1.29
816.368	0.81
816.54	-0.05
816.711	0.15
816.883	1.44
817.054	2.36
817.226	-0.34
817.398	0.93
817.569	0.69
817.741	0.76
817.912	0.5
818.084	0.27
818.255	1.48
818.426	0.19
818.598	0.64
818.769	0.62
818.941	0.95
819.112	1.43
819.283	1.14
819.455	0.44
819.626	0.53
819.798	1.41
819.969	0.56
820.14	0.55
820.311	0.89
820.483	1.07
820.654	0.92
820.825	0.36
820.996	0.32
821.168	0.04
821.339	0.71
821.51	0.34
821.681	0.78
821.852	1.11
822.023	0.41
822.195	0.28
822.366	1.49
822.537	1.06
822.708	0.56
822.879	0.02
823.05	1.33
823.221	0.34
823.392	0.64
823.563	0.45
823.734	1.29
823.905	0.79
824.076	0.65
824.247	0.39
824.418	0.54
824.589	1.63
824.759	0.98
824.93	0.56
825.101	-0.2
825.272	1.59
825.443	1.11
825.614	1.01
825.784	0.1
825.955	1.59
826.126	1.22
826.297	1.17
826.467	2.34
826.638	2.31
826.809	-0.13
826.98	0.9
827.15	1.66
827.321	0.98
827.492	1.64
827.662	0.9
827.833	2.83
828.003	1.38
828.174	0.29
828.345	0.41
828.515	1.63
828.686	1.15
828.856	0.05
829.027	0.39
829.197	1.7
829.368	1.68
829.538	0.21
829.709	0.92
829.879	1.02
830.049	1.4
830.22	0.67
830.39	0.55
830.56	1.53
830.731	0.54
830.901	0.31
831.072	1.11
831.242	1.44
831.412	1.72
831.582	1
831.753	-0.61
831.923	1.49
832.093	1.87
832.263	0.64
832.434	-0.01
832.604	0.61
832.774	1.87
832.944	-0.04
833.114	0.24
833.284	1.13
833.454	0.55
833.624	-0.04
833.795	0.69
833.965	1.77
834.135	2.19
834.305	-0.57
834.475	-0.29
834.645	1.19
834.815	1.29
834.985	0.55
835.155	0.22
835.325	1.47
835.494	1.4
835.664	0.2
835.834	0.27
836.004	1.37
836.174	1.19
836.344	0.86
836.514	-0.05
836.684	0.41
836.853	0.93
837.023	1.24
837.193	0.21
837.363	1.85
837.532	2.16
837.702	0.63
837.872	0.45
838.041	1.41
838.211	2.69
838.381	-0.43
838.55	0.87
838.72	4.29
838.89	2.55
839.059	0.79
839.229	0.44
839.398	3.79
839.568	1.78
839.738	0.89
839.907	2.31
840.077	1.1
840.246	0.15
840.416	0.56
840.585	0.4
840.755	2.57
840.924	2.62
841.093	0.51
841.263	-0.24
841.432	1.09
841.602	0.25
841.771	-0.4
841.94	0.83
842.11	3.38
842.279	2.74
842.448	0.71
842.617	1.08
842.787	2.62
842.956	-0.46
843.125	0.91
843.294	0.08
843.464	1.54
843.633	1.38
843.802	0.49
843.971	0.71
844.14	1.46
844.309	2.83
844.479	-0.78
844.648	-0.02
844.817	0.84
844.986	1.73
845.155	0.61
845.324	0.64
845.493	0.85
845.662	0.69
845.831	1.62
846	2.21
846.169	1.18
846.338	3
846.507	1.34
846.676	0.89
846.844	1.08
847.013	1.9
847.182	0.78
847.351	0.35
847.52	1.25
847.689	1.11
847.858	0.94
848.026	-0.06
848.195	1.47
848.364	0.64
848.533	0.65
848.701	-0.14
848.87	1.46
849.039	2.32
849.207	1.27
849.376	1.85
849.545	2.41
849.713	0.95
849.882	1.13
850.051	1.57
850.219	1.84
850.388	1.36
850.556	-0.56
850.725	-0.56
850.893	1.2
851.062	0.6
851.23	2.21
851.399	-0.25
851.567	0.89
851.736	1.44
851.904	0.08
852.073	1.41
852.241	2.5
852.41	1.57
852.578	1.08
852.746	0.35
852.915	2.46
853.083	1.5
853.251	-0.69
853.42	1.61
853.588	1.22
853.756	2.78
853.924	0.2
854.093	1.96
854.261	1.5
854.429	0.06
854.597	0.5
854.765	-0.02
854.934	2.95
855.102	4.77
855.27	1.62
855.438	2.79
855.606	2.66
855.774	3.73
855.942	-0.94
856.11	0.45
856.278	1.58
856.446	2.4
856.614	1.25
856.782	0.6
856.95	3.81
857.118	2.41
857.286	1.36
857.454	1.32
857.622	2.63
857.79	3.37
857.958	0.55
858.126	1
858.294	-0.71
858.462	1.03
858.629	1.06
858.797	-0.27
858.965	1.61
859.133	1.53
859.301	1.83
859.468	1.84
859.636	2.06
859.804	4.13
859.971	2.65
860.139	0.73
860.307	3.86
860.474	1.66
860.642	0.88
860.81	-0.36
860.977	0.75
861.145	3.39
861.313	0.71
861.48	0.65
861.648	3.57
861.815	1.66
861.983	-0.77
862.15	1.12
862.318	3.45
862.485	3.06
862.653	0.67
862.82	-0.12
862.988	2.93
863.155	3.75
863.322	0.6
863.49	-0.19
863.657	1.62
863.824	3.94
863.992	1.67
864.159	1.29
864.326	3.58
864.494	1.65
864.661	3.52
864.828	0.78
864.996	3.2
865.163	4.6
865.33	1.83
865.497	-0.86
865.664	0.86
865.832	-0.35
865.999	1.17
866.166	-0.92
866.333	1.55
866.5	1.15
866.667	0.81
866.834	0.51
867.001	3.56
867.168	-0.95
867.335	2.49
867.502	-1.38
867.669	2.7
867.836	6.21
868.003	0.84
868.17	2.05
868.337	1.99
868.504	5.45
868.671	-1.18
868.838	1.22
869.005	3.61
869.172	2.24
869.339	2.68
869.505	0.94
869.672	1.37
869.839	3.63
870.006	1.31
870.173	-0.73
870.339	1.69
870.506	4.72
870.673	1.34
870.84	2.19
871.006	2.52
871.173	2.44
871.34	1.8
871.506	-0.1
871.673	3.75
871.839	0.11
872.006	2.08
872.173	0.36
872.339	1.5
872.506	3.48
872.672	1.31
872.839	-0.02
873.005	3.43
873.172	6.18
873.338	3.67
873.505	2.26
873.671	3.47
873.838	2.2
874.004	-0.46
874.171	1.11
874.337	3.46
874.503	1.8
874.67	1.12
874.836	1.46
875.002	6
875.169	3.47
875.335	0.89
875.501	0.3
875.668	3.94
875.834	2.94
876	1.79
876.166	1.72
876.332	5.35
876.499	6.66
876.665	0.74
876.831	1.59
876.997	7.36
877.163	3.75
877.329	2.05
877.495	0.79
877.662	2.03
877.828	2.64
877.994	1.56
878.16	-2.09
878.326	2.53
878.492	3.63
878.658	2.87
878.824	2.67
878.99	3.51
879.156	-0.02
879.322	5.36
879.487	-0.04
879.653	1.7
879.819	0.99
879.985	0.02
880.151	1.36
880.317	2.24
880.483	3.92
880.648	3.21
880.814	-2.17
880.98	2.74
881.146	-1.17
881.312	-0
881.477	0.84
881.643	0.54
881.809	3.63
881.974	4.62
882.14	-3.31
882.306	1.6
882.471	6.06
882.637	1.43
882.803	0.92
882.968	4.97
883.134	6.73
883.299	1.89
883.465	2.93
883.63	4.55
883.796	3.75
883.961	3.76
884.127	3.98
884.292	-1.41
884.458	0.35
884.623	0.35
