Data from Apollo_Calib_20240827__AbsoluteIrradiance__832__13-01-02-067.txt Node

Date: Wed Aug 28 13:01:02 BST 2024
User: biology
Spectrometer: FLMT08252
Trigger mode: 0
Integration Time (sec): 5.000000E-1
Scans to average: 5
Electric dark correction enabled: true
Nonlinearity correction enabled: false
Boxcar width: 0
XAxis mode: Wavelengths
Number of Pixels in Spectrum: 3648
>>>>>Begin Spectral Data<<<<<
179.588	-0
179.809	-0
180.03	-0
180.251	-0
180.473	-0
180.694	0
180.915	0
181.136	-0
181.357	-0
181.578	-0
181.799	0
182.02	-0
182.241	-0
182.462	-0
182.683	0
182.904	-0
183.125	-0
183.346	0
183.567	0
183.788	0
184.009	0
184.23	0
184.451	0
184.672	0
184.892	0
185.113	0
185.334	0
185.555	0
185.776	0
185.996	0
186.217	0
186.438	0
186.659	0
186.879	0
187.1	0
187.321	0
187.541	0
187.762	0
187.983	0
188.203	0
188.424	0
188.644	0
188.865	0
189.086	0
189.306	0
189.527	0
189.747	0
189.968	0
190.188	0
190.409	0
190.629	0
190.849	0
191.07	0
191.29	0
191.511	0
191.731	0
191.951	0
192.172	0
192.392	0
192.612	0
192.833	0
193.053	0
193.273	0
193.493	0
193.714	0
193.934	0
194.154	0
194.374	0
194.594	0
194.815	0
195.035	0
195.255	0
195.475	0
195.695	0
195.915	0
196.135	0
196.355	0
196.575	0
196.795	0
197.015	0
197.235	0
197.455	0
197.675	0
197.895	0
198.115	0
198.335	0
198.555	0
198.775	0
198.995	0
199.214	0
199.434	0
199.654	0
199.874	0
200.094	3.96
200.313	2.34
200.533	2.06
200.753	1.39
200.973	3.35
201.192	2.53
201.412	1.51
201.632	1.43
201.851	3.28
202.071	1.72
202.291	1.37
202.51	1.41
202.73	2.9
202.95	1.85
203.169	1.03
203.389	1.46
203.608	2.26
203.828	1.75
204.047	0.99
204.267	2.03
204.486	1.82
204.706	1.95
204.925	1.61
205.145	1.29
205.364	2.02
205.583	2.74
205.803	1.31
206.022	0.93
206.242	1.55
206.461	1.62
206.68	0.94
206.9	1.55
207.119	2.61
207.338	2.27
207.557	1.32
207.777	1.35
207.996	1.39
208.215	1.97
208.434	0.71
208.654	0.71
208.873	1.53
209.092	2.14
209.311	0.97
209.53	0.94
209.749	1.3
209.968	0.98
210.187	1.04
210.407	0.78
210.626	1.07
210.845	1.56
211.064	0.97
211.283	0.67
211.502	1.4
211.721	0.86
211.94	1.01
212.159	1.17
212.377	1.23
212.596	1.51
212.815	1.22
213.034	1.02
213.253	1.41
213.472	1.18
213.691	0.96
213.91	0.64
214.128	0.84
214.347	1.54
214.566	0.46
214.785	0.46
215.003	1.2
215.222	1.11
215.441	0.72
215.66	0.49
215.878	0.63
216.097	1.18
216.316	0.66
216.534	0.86
216.753	0.94
216.972	0.88
217.19	0.92
217.409	0.79
217.627	0.66
217.846	0.86
218.064	0.95
218.283	0.58
218.501	1.41
218.72	1.19
218.938	0.55
219.157	0.5
219.375	1.11
219.594	1
219.812	0.35
220.031	0.59
220.249	1.22
220.467	1.22
220.686	0.56
220.904	0.41
221.122	0.68
221.341	1.2
221.559	0.83
221.777	0.39
221.995	0.75
222.214	1.03
222.432	0.57
222.65	0.79
222.868	0.86
223.086	0.78
223.305	0.91
223.523	0.57
223.741	1.07
223.959	0.49
224.177	0.23
224.395	0.52
224.613	0.75
224.831	0.79
225.049	0.3
225.267	0.53
225.485	0.88
225.703	0.67
225.921	0.61
226.139	0.55
226.357	0.76
226.575	0.82
226.793	0.45
227.011	1.56
227.229	0.74
227.447	0.85
227.665	0.56
227.883	0.51
228.1	0.6
228.318	0.72
228.536	0.32
228.754	0.38
228.972	0.73
229.189	0.83
229.407	0.49
229.625	0.48
229.843	0.87
230.06	0.76
230.278	0.51
230.496	0.54
230.713	0.66
230.931	0.83
231.149	0.35
231.366	0.44
231.584	0.57
231.801	0.93
232.019	0.58
232.236	0.27
232.454	0.41
232.671	0.66
232.889	0.49
233.106	0.35
233.324	0.56
233.541	0.6
233.759	0.61
233.976	0.25
234.194	0.53
234.411	0.54
234.628	0.36
234.846	0.37
235.063	0.61
235.28	0.55
235.498	0.44
235.715	0.33
235.932	0.82
236.149	0.6
236.367	0.4
236.584	0.53
236.801	0.41
237.018	0.62
237.236	0.5
237.453	0.31
237.67	0.71
237.887	0.54
238.104	0.44
238.321	0.25
238.538	0.34
238.755	0.77
238.973	0.29
239.19	0.41
239.407	0.58
239.624	0.53
239.841	0.3
240.058	0.34
240.275	0.49
240.492	0.53
240.709	0.42
240.925	0.29
241.142	0.5
241.359	0.35
241.576	0.35
241.793	0.44
242.01	0.4
242.227	0.65
242.444	0.37
242.66	0.53
242.877	0.53
243.094	0.43
243.311	0.49
243.527	0.44
243.744	0.52
243.961	0.45
244.178	0.31
244.394	0.38
244.611	0.55
244.828	0.69
245.044	0.35
245.261	0.41
245.477	0.59
245.694	0.5
245.911	0.29
246.127	0.43
246.344	0.64
246.56	0.51
246.777	0.41
246.993	0.36
247.21	0.43
247.426	0.5
247.643	0.35
247.859	0.26
248.076	0.36
248.292	0.62
248.508	0.31
248.725	0.42
248.941	0.51
249.157	0.61
249.374	0.31
249.59	0.34
249.806	0.36
250.023	0.47
250.239	0.32
250.455	0.34
250.671	0.44
250.888	0.45
251.104	0.47
251.32	0.31
251.536	0.36
251.752	0.35
251.969	0.39
252.185	0.37
252.401	0.71
252.617	0.43
252.833	0.36
253.049	0.3
253.265	0.39
253.481	0.37
253.697	0.31
253.913	0.33
254.129	0.41
254.345	0.47
254.561	0.3
254.777	0.31
254.993	0.52
255.209	0.43
255.425	0.38
255.641	0.27
255.857	0.53
256.073	0.35
256.288	0.28
256.504	0.34
256.72	0.37
256.936	0.54
257.152	0.25
257.367	0.3
257.583	0.4
257.799	0.45
258.015	0.31
258.23	0.34
258.446	0.57
258.662	0.35
258.877	0.31
259.093	0.28
259.309	0.35
259.524	0.45
259.74	0.31
259.955	0.16
260.171	0.38
260.387	0.45
260.602	0.44
260.818	0.44
261.033	0.22
261.249	0.29
261.464	0.3
261.68	0.28
261.895	0.44
262.11	0.43
262.326	0.27
262.541	0.2
262.757	0.43
262.972	0.44
263.187	0.38
263.403	0.37
263.618	0.48
263.833	0.33
264.049	0.23
264.264	0.29
264.479	0.39
264.694	0.52
264.91	0.25
265.125	0.34
265.34	0.42
265.555	0.53
265.77	0.42
265.986	0.31
266.201	0.37
266.416	0.39
266.631	0.29
266.846	0.34
267.061	0.47
267.276	0.41
267.491	0.17
267.706	0.4
267.921	0.35
268.136	0.38
268.351	0.36
268.566	0.2
268.781	0.46
268.996	0.47
269.211	0.29
269.426	0.22
269.641	0.32
269.856	0.43
270.071	0.26
270.285	0.22
270.5	0.42
270.715	0.45
270.93	0.28
271.145	0.37
271.359	0.49
271.574	0.29
271.789	0.34
272.004	0.28
272.218	0.31
272.433	0.38
272.648	0.3
272.862	0.34
273.077	0.43
273.292	0.33
273.506	0.19
273.721	0.32
273.936	0.35
274.15	0.45
274.365	0.27
274.579	0.31
274.794	0.42
275.008	0.39
275.223	0.22
275.437	0.33
275.652	0.41
275.866	0.41
276.081	0.29
276.295	0.41
276.509	0.33
276.724	0.31
276.938	0.23
277.153	0.3
277.367	0.39
277.581	0.26
277.796	0.26
278.01	0.24
278.224	0.39
278.438	0.41
278.653	0.2
278.867	0.22
279.081	0.17
279.295	0.29
279.51	0.27
279.724	0.22
279.938	0.3
280.152	0.37
280.366	0.25
280.58	0.32
280.794	0.45
281.008	0.38
281.222	0.37
281.437	0.45
281.651	0.34
281.865	0.36
282.079	0.24
282.293	0.17
282.507	0.22
282.721	0.23
282.935	0.27
283.148	0.2
283.362	0.22
283.576	0.17
283.79	0.28
284.004	0.22
284.218	0.41
284.432	0.23
284.646	0.23
284.859	0.24
285.073	0.27
285.287	0.29
285.501	0.31
285.714	0.22
285.928	0.27
286.142	0.34
286.356	0.22
286.569	0.29
286.783	0.4
286.997	0.33
287.21	0.28
287.424	0.23
287.637	0.29
287.851	0.27
288.065	0.31
288.278	0.3
288.492	0.3
288.705	0.24
288.919	0.29
289.132	0.21
289.346	0.32
289.559	0.16
289.773	0.21
289.986	0.23
290.2	0.29
290.413	0.35
290.626	0.23
290.84	0.21
291.053	0.33
291.267	0.35
291.48	0.32
291.693	0.25
291.906	0.22
292.12	0.31
292.333	0.21
292.546	0.23
292.76	0.36
292.973	0.35
293.186	0.34
293.399	0.23
293.612	0.38
293.826	0.26
294.039	0.24
294.252	0.19
294.465	0.34
294.678	0.29
294.891	0.27
295.104	0.18
295.317	0.24
295.53	0.32
295.743	0.25
295.956	0.23
296.169	0.35
296.382	0.31
296.595	0.21
296.808	0.17
297.021	0.34
297.234	0.35
297.447	0.3
297.66	0.29
297.873	0.34
298.086	0.34
298.299	0.24
298.511	0.18
298.724	0.27
298.937	0.2
299.15	0.2
299.363	0.24
299.575	0.34
299.788	0.26
300.001	0.23
300.213	0.18
300.426	0.27
300.639	0.22
300.852	0.21
301.064	0.29
301.277	0.35
301.489	0.29
301.702	0.28
301.915	0.24
302.127	0.26
302.34	0.26
302.552	0.27
302.765	0.14
302.977	0.34
303.19	0.2
303.402	0.23
303.615	0.21
303.827	0.26
304.04	0.28
304.252	0.31
304.464	0.2
304.677	0.37
304.889	0.27
305.102	0.22
305.314	0.2
305.526	0.32
305.739	0.26
305.951	0.16
306.163	0.21
306.375	0.38
306.588	0.24
306.8	0.25
307.012	0.17
307.224	0.27
307.436	0.34
307.649	0.16
307.861	0.24
308.073	0.28
308.285	0.2
308.497	0.17
308.709	0.24
308.921	0.26
309.133	0.3
309.346	0.22
309.558	0.21
309.77	0.26
309.982	0.35
310.194	0.29
310.406	0.25
310.617	0.37
310.829	0.27
311.041	0.27
311.253	0.19
311.465	0.24
311.677	0.27
311.889	0.25
312.101	0.18
312.313	0.35
312.524	0.35
312.736	0.19
312.948	0.19
313.16	0.36
313.372	0.3
313.583	0.27
313.795	0.21
314.007	0.24
314.218	0.31
314.43	0.23
314.642	0.22
314.853	0.19
315.065	0.34
315.277	0.23
315.488	0.27
315.7	0.25
315.912	0.28
316.123	0.28
316.335	0.25
316.546	0.37
316.758	0.25
316.969	0.25
317.181	0.25
317.392	0.28
317.604	0.31
317.815	0.2
318.026	0.21
318.238	0.16
318.449	0.3
318.661	0.16
318.872	0.19
319.083	0.26
319.295	0.34
319.506	0.18
319.717	0.25
319.929	0.27
320.14	0.3
320.351	0.27
320.562	0.18
320.774	0.26
320.985	0.27
321.196	0.19
321.407	0.22
321.618	0.32
321.829	0.25
322.041	0.21
322.252	0.22
322.463	0.3
322.674	0.34
322.885	0.18
323.096	0.18
323.307	0.27
323.518	0.28
323.729	0.24
323.94	0.2
324.151	0.26
324.362	0.29
324.573	0.28
324.784	0.22
324.995	0.33
325.206	0.3
325.417	0.22
325.628	0.23
325.838	0.23
326.049	0.27
326.26	0.25
326.471	0.19
326.682	0.29
326.892	0.24
327.103	0.17
327.314	0.19
327.525	0.33
327.735	0.28
327.946	0.21
328.157	0.18
328.368	0.33
328.578	0.2
328.789	0.28
328.999	0.24
329.21	0.22
329.421	0.33
329.631	0.21
329.842	0.2
330.052	0.27
330.263	0.28
330.473	0.28
330.684	0.24
330.894	0.28
331.105	0.26
331.315	0.27
331.526	0.19
331.736	0.36
331.947	0.29
332.157	0.23
332.367	0.16
332.578	0.24
332.788	0.36
332.999	0.28
333.209	0.22
333.419	0.16
333.629	0.29
333.84	0.27
334.05	0.24
334.26	0.39
334.47	0.28
334.681	0.26
334.891	0.26
335.101	0.29
335.311	0.39
335.521	0.24
335.732	0.17
335.942	0.34
336.152	0.25
336.362	0.25
336.572	0.23
336.782	0.31
336.992	0.19
337.202	0.24
337.412	0.21
337.622	0.27
337.832	0.21
338.042	0.23
338.252	0.18
338.462	0.25
338.672	0.26
338.882	0.23
339.092	0.26
339.302	0.38
339.511	0.34
339.721	0.16
339.931	0.16
340.141	0.34
340.351	0.36
340.561	0.28
340.77	0.25
340.98	0.29
341.19	0.29
341.4	0.21
341.609	0.22
341.819	0.24
342.029	0.18
342.238	0.3
342.448	0.22
342.658	0.3
342.867	0.26
343.077	0.25
343.286	0.24
343.496	0.28
343.706	0.33
343.915	0.2
344.125	0.23
344.334	0.28
344.544	0.2
344.753	0.21
344.963	0.22
345.172	0.17
345.381	0.23
345.591	0.17
345.8	0.21
346.01	0.3
346.219	0.29
346.428	0.11
346.638	0.23
346.847	0.25
347.056	0.34
347.266	0.23
347.475	0.21
347.684	0.28
347.893	0.28
348.103	0.27
348.312	0.21
348.521	0.18
348.73	0.29
348.94	0.27
349.149	0.19
349.358	0.21
349.567	0.21
349.776	0.19
349.985	0.2
350.194	0.29
350.403	0.3
350.612	0.15
350.821	0.21
351.03	0.24
351.239	0.2
351.448	0.26
351.657	0.2
351.866	0.37
352.075	0.29
352.284	0.26
352.493	0.17
352.702	0.31
352.911	0.25
353.12	0.26
353.329	0.22
353.538	0.27
353.746	0.24
353.955	0.18
354.164	0.19
354.373	0.21
354.582	0.28
354.79	0.24
354.999	0.25
355.208	0.21
355.416	0.32
355.625	0.19
355.834	0.21
356.042	0.28
356.251	0.21
356.46	0.2
356.668	0.24
356.877	0.35
357.085	0.26
357.294	0.13
357.503	0.21
357.711	0.22
357.92	0.35
358.128	0.22
358.337	0.26
358.545	0.26
358.754	0.2
358.962	0.3
359.17	0.19
359.379	0.25
359.587	0.28
359.796	0.22
360.004	0.29
360.212	0.28
360.421	0.34
360.629	0.25
360.837	0.22
361.046	0.32
361.254	0.36
361.462	0.23
361.67	0.25
361.879	0.26
362.087	0.31
362.295	0.26
362.503	0.22
362.711	0.17
362.92	0.19
363.128	0.17
363.336	0.23
363.544	0.19
363.752	0.23
363.96	0.23
364.168	0.2
364.376	0.26
364.584	0.23
364.792	0.34
365	0.24
365.208	0.24
365.416	0.29
365.624	0.32
365.832	0.22
366.04	0.32
366.248	0.27
366.456	0.25
366.664	0.26
366.872	0.27
367.079	0.23
367.287	0.21
367.495	0.2
367.703	0.25
367.911	0.26
368.118	0.23
368.326	0.23
368.534	0.18
368.742	0.3
368.949	0.16
369.157	0.2
369.365	0.28
369.572	0.23
369.78	0.22
369.988	0.28
370.195	0.27
370.403	0.32
370.61	0.19
370.818	0.23
371.026	0.35
371.233	0.21
371.441	0.25
371.648	0.24
371.856	0.29
372.063	0.24
372.271	0.22
372.478	0.19
372.685	0.27
372.893	0.28
373.1	0.28
373.308	0.22
373.515	0.35
373.722	0.28
373.93	0.19
374.137	0.31
374.344	0.33
374.552	0.31
374.759	0.25
374.966	0.22
375.173	0.27
375.381	0.32
375.588	0.31
375.795	0.17
376.002	0.22
376.209	0.19
376.417	0.22
376.624	0.28
376.831	0.29
377.038	0.25
377.245	0.17
377.452	0.21
377.659	0.22
377.866	0.24
378.073	0.23
378.28	0.28
378.487	0.33
378.694	0.32
378.901	0.25
379.108	0.28
379.315	0.33
379.522	0.37
379.729	0.29
379.936	0.24
380.143	0.27
380.35	0.3
380.557	0.24
380.763	0.24
380.97	0.26
381.177	0.32
381.384	0.26
381.591	0.24
381.797	0.34
382.004	0.3
382.211	0.25
382.418	0.24
382.624	0.3
382.831	0.29
383.038	0.25
383.244	0.31
383.451	0.27
383.658	0.32
383.864	0.28
384.071	0.19
384.277	0.38
384.484	0.28
384.69	0.32
384.897	0.22
385.103	0.27
385.31	0.23
385.516	0.26
385.723	0.22
385.929	0.3
386.136	0.29
386.342	0.33
386.549	0.22
386.755	0.35
386.961	0.33
387.168	0.25
387.374	0.27
387.58	0.3
387.787	0.28
387.993	0.26
388.199	0.24
388.406	0.27
388.612	0.25
388.818	0.26
389.024	0.23
389.231	0.27
389.437	0.38
389.643	0.3
389.849	0.28
390.055	0.3
390.261	0.27
390.467	0.34
390.674	0.26
390.88	0.28
391.086	0.37
391.292	0.24
391.498	0.26
391.704	0.34
391.91	0.26
392.116	0.23
392.322	0.17
392.528	0.39
392.734	0.24
392.94	0.26
393.146	0.25
393.352	0.34
393.557	0.3
393.763	0.3
393.969	0.35
394.175	0.37
394.381	0.32
394.587	0.27
394.792	0.32
394.998	0.37
395.204	0.37
395.41	0.24
395.615	0.3
395.821	0.37
396.027	0.36
396.233	0.22
396.438	0.3
396.644	0.43
396.85	0.3
397.055	0.33
397.261	0.34
397.466	0.46
397.672	0.29
397.878	0.38
398.083	0.32
398.289	0.33
398.494	0.35
398.7	0.38
398.905	0.26
399.111	0.45
399.316	0.29
399.522	0.34
399.727	0.32
399.932	0.32
400.138	0.34
400.343	0.38
400.549	0.34
400.754	0.33
400.959	0.4
401.165	0.34
401.37	0.37
401.575	0.33
401.78	0.39
401.986	0.33
402.191	0.32
402.396	0.35
402.601	0.46
402.807	0.43
403.012	0.37
403.217	0.46
403.422	0.35
403.627	0.4
403.832	0.37
404.037	0.43
404.243	0.38
404.448	0.37
404.653	0.41
404.858	0.44
405.063	0.45
405.268	0.42
405.473	0.37
405.678	0.37
405.883	0.65
406.088	0.49
406.293	0.41
406.498	0.46
406.703	0.55
406.907	0.49
407.112	0.43
407.317	0.5
407.522	0.55
407.727	0.46
407.932	0.52
408.136	0.72
408.341	0.56
408.546	0.62
408.751	0.59
408.956	0.56
409.16	0.62
409.365	0.57
409.57	0.65
409.774	0.63
409.979	0.69
410.184	0.67
410.388	0.64
410.593	0.76
410.798	0.72
411.002	0.76
411.207	0.82
411.411	0.81
411.616	0.75
411.82	0.8
412.025	0.83
412.229	0.85
412.434	0.93
412.638	0.95
412.843	0.91
413.047	0.98
413.252	0.95
413.456	0.98
413.66	1.03
413.865	1.09
414.069	1.17
414.273	1.1
414.478	1.1
414.682	1.15
414.886	1.23
415.091	1.15
415.295	1.26
415.499	1.39
415.703	1.39
415.908	1.47
416.112	1.31
416.316	1.61
416.52	1.56
416.724	1.48
416.929	1.59
417.133	1.89
417.337	1.71
417.541	1.8
417.745	1.81
417.949	1.98
418.153	2.03
418.357	2
418.561	2.26
418.765	2.22
418.969	2.39
419.173	2.49
419.377	2.45
419.581	2.62
419.785	2.6
419.989	2.63
420.193	2.82
420.397	2.86
420.601	3.13
420.804	3.13
421.008	3.09
421.212	3.25
421.416	3.33
421.62	3.3
421.823	3.31
422.027	3.57
422.231	3.53
422.435	3.46
422.638	3.54
422.842	3.71
423.046	3.76
423.249	3.91
423.453	3.9
423.657	4.11
423.86	4.22
424.064	4.34
424.268	4.55
424.471	4.46
424.675	4.71
424.878	4.82
425.082	4.89
425.285	5.19
425.489	5.14
425.692	5.25
425.896	5.23
426.099	5.47
426.303	5.64
426.506	5.7
426.71	5.98
426.913	6.17
427.116	6.35
427.32	6.32
427.523	6.36
427.726	6.76
427.93	6.82
428.133	7.16
428.336	7.33
428.54	7.35
428.743	7.65
428.946	7.84
429.149	7.93
429.353	7.86
429.556	8.04
429.759	8.09
429.962	8.2
430.165	8.35
430.368	8.08
430.571	8.13
430.775	8.13
430.978	8.12
431.181	8.12
431.384	8.38
431.587	8.42
431.79	8.81
431.993	8.66
432.196	9.07
432.399	9.27
432.602	9.48
432.805	9.66
433.008	10.08
433.211	9.97
433.414	10.37
433.616	10.4
433.819	10.28
434.022	10.49
434.225	10.69
434.428	10.59
434.631	11.19
434.833	10.83
435.036	11.09
435.239	11.2
435.442	11.3
435.645	11.47
435.847	11.59
436.05	11.94
436.253	12.14
436.455	12.17
436.658	12.05
436.861	12.47
437.063	12.52
437.266	12.47
437.468	12.72
437.671	13.05
437.874	13.18
438.076	12.89
438.279	13.42
438.481	13.59
438.684	14.25
438.886	13.88
439.089	14.11
439.291	14.27
439.494	14.45
439.696	14.6
439.899	15.22
440.101	15.55
440.303	15.87
440.506	16.54
440.708	16.21
440.91	16.46
441.113	16.73
441.315	17.02
441.517	16.81
441.72	17.19
441.922	16.81
442.124	16.81
442.326	17.07
442.529	17.47
442.731	17.51
442.933	17.76
443.135	17.43
443.337	17.5
443.539	18.06
443.742	17.61
443.944	18.45
444.146	18.13
444.348	18.06
444.55	17.92
444.752	18.07
444.954	18.21
445.156	18.13
445.358	18.48
445.56	18.71
445.762	18.49
445.964	18.89
446.166	18.44
446.368	18.64
446.57	18.57
446.772	18.18
446.974	18.05
447.175	18.24
447.377	17.9
447.579	18.48
447.781	17.88
447.983	17.72
448.184	17.29
448.386	17.65
448.588	17.25
448.79	17.12
448.991	17.38
449.193	17.39
449.395	16.72
449.597	16.37
449.798	16.31
450	15.92
450.202	15.78
450.403	15.73
450.605	15.75
450.806	15.36
451.008	15.16
451.21	14.96
451.411	14.45
451.613	13.78
451.814	13.93
452.016	14.04
452.217	13.16
452.419	13.31
452.62	12.94
452.821	12.74
453.023	12.51
453.224	12.14
453.426	11.81
453.627	11.16
453.828	11.25
454.03	11.16
454.231	11.29
454.432	11
454.634	10.78
454.835	10.54
455.036	10.52
455.238	9.99
455.439	9.8
455.64	9.5
455.841	9.31
456.042	9.42
456.244	9.12
456.445	8.82
456.646	8.65
456.847	8.57
457.048	8.44
457.249	8.47
457.45	8.25
457.651	7.7
457.852	7.69
458.054	7.24
458.255	7.11
458.456	7.16
458.657	7.12
458.858	6.63
459.058	6.62
459.259	6.75
459.46	6.47
459.661	6.44
459.862	6.44
460.063	6.36
460.264	6.2
460.465	5.94
460.666	6.06
460.866	5.74
461.067	5.47
461.268	5.53
461.469	5.39
461.67	5.34
461.87	5.24
462.071	5.19
462.272	5.08
462.473	5.07
462.673	5.28
462.874	5.13
463.075	5.15
463.275	5.06
463.476	5.05
463.676	5
463.877	4.9
464.078	4.93
464.278	5.05
464.479	4.85
464.679	4.76
464.88	4.72
465.08	4.67
465.281	4.52
465.481	4.27
465.682	4.08
465.882	4.1
466.083	4.15
466.283	4.03
466.483	3.89
466.684	3.73
466.884	3.66
467.085	3.63
467.285	3.69
467.485	3.61
467.686	3.54
467.886	3.43
468.086	3.34
468.286	3.4
468.487	3.48
468.687	3.23
468.887	3.24
469.087	3.33
469.287	3.21
469.488	3.05
469.688	3.19
469.888	3.18
470.088	3.12
470.288	3
470.488	3.03
470.688	2.83
470.888	2.89
471.088	2.65
471.288	2.8
471.488	2.74
471.688	2.74
471.888	2.69
472.088	2.77
472.288	2.68
472.488	2.62
472.688	2.56
472.888	2.62
473.088	2.6
473.288	2.45
473.488	2.45
473.688	2.61
473.887	2.49
474.087	2.39
474.287	2.45
474.487	2.35
474.687	2.42
474.886	2.33
475.086	2.29
475.286	2.29
475.486	2.26
475.685	2.24
475.885	2.19
476.085	2.27
476.284	2.22
476.484	2.24
476.684	2.21
476.883	2.28
477.083	2.2
477.282	2.15
477.482	2.17
477.681	2.18
477.881	2.05
478.08	2.05
478.28	2.01
478.479	2.06
478.679	2.11
478.878	2.03
479.078	2.02
479.277	2.1
479.477	2.06
479.676	2.03
479.875	2.01
480.075	1.91
480.274	2.02
480.473	1.99
480.673	1.95
480.872	2.09
481.071	2.05
481.271	2.08
481.47	1.95
481.669	2.04
481.868	1.94
482.067	1.96
482.267	1.94
482.466	1.92
482.665	1.92
482.864	1.93
483.063	1.92
483.262	2.06
483.461	2.03
483.661	2.1
483.86	2.01
484.059	2.06
484.258	2.1
484.457	2.01
484.656	2
484.855	2.09
485.054	1.92
485.253	1.97
485.452	1.99
485.651	2.05
485.849	1.99
486.048	1.98
486.247	2.03
486.446	2.06
486.645	2.03
486.844	2.1
487.043	2.08
487.241	2.08
487.44	2.09
487.639	2.12
487.838	2.1
488.037	2.13
488.235	2.21
488.434	2.21
488.633	2.05
488.831	2.19
489.03	2.24
489.229	2.19
489.427	2.19
489.626	2.3
489.825	2.28
490.023	2.3
490.222	2.23
490.42	2.32
490.619	2.33
490.817	2.36
491.016	2.34
491.214	2.42
491.413	2.45
491.611	2.39
491.81	2.39
492.008	2.46
492.207	2.54
492.405	2.52
492.604	2.47
492.802	2.54
493	2.61
493.199	2.59
493.397	2.67
493.595	2.68
493.794	2.66
493.992	2.79
494.19	2.74
494.388	2.81
494.587	2.79
494.785	2.77
494.983	2.75
495.181	2.88
495.379	2.9
495.578	2.89
495.776	2.97
495.974	2.96
496.172	2.94
496.37	3.1
496.568	3.09
496.766	3.12
496.964	3.18
497.162	3.21
497.36	3.19
497.558	3.25
497.756	3.28
497.954	3.32
498.152	3.31
498.35	3.45
498.548	3.38
498.746	3.4
498.944	3.42
499.142	3.45
499.34	3.55
499.538	3.63
499.736	3.48
499.933	3.62
500.131	3.63
500.329	3.77
500.527	3.76
500.725	3.9
500.922	3.89
501.12	3.84
501.318	3.94
501.516	3.96
501.713	3.99
501.911	4.02
502.109	3.93
502.306	4.14
502.504	4.02
502.701	4.07
502.899	4.15
503.097	4.36
503.294	4.21
503.492	4.4
503.689	4.4
503.887	4.36
504.084	4.45
504.282	4.46
504.479	4.41
504.677	4.62
504.874	4.51
505.072	4.51
505.269	4.65
505.466	4.72
505.664	4.77
505.861	4.64
506.059	4.7
506.256	4.77
506.453	4.86
506.651	4.96
506.848	5.04
507.045	4.95
507.242	5.02
507.44	5.01
507.637	5.04
507.834	5.08
508.031	5.24
508.229	5.14
508.426	5.14
508.623	5.29
508.82	5.26
509.017	5.25
509.214	5.21
509.411	5.49
509.608	5.38
509.805	5.45
510.003	5.47
510.2	5.5
510.397	5.64
510.594	5.52
510.791	5.67
510.988	5.59
511.184	5.63
511.381	5.54
511.578	5.66
511.775	5.81
511.972	5.68
512.169	5.83
512.366	5.84
512.563	5.91
512.76	5.96
512.956	6.01
513.153	6
513.35	5.89
513.547	5.97
513.744	5.98
513.94	6.06
514.137	6.12
514.334	6.08
514.53	6.12
514.727	6.37
514.924	6.23
515.12	6.27
515.317	6.27
515.514	6.23
515.71	6.17
515.907	6.48
516.103	6.46
516.3	6.36
516.497	6.45
516.693	6.47
516.89	6.53
517.086	6.55
517.283	6.61
517.479	6.43
517.676	6.6
517.872	6.65
518.068	6.65
518.265	6.65
518.461	6.57
518.658	6.71
518.854	6.74
519.05	6.83
519.247	6.79
519.443	6.8
519.639	6.94
519.836	6.85
520.032	6.76
520.228	6.94
520.424	6.89
520.621	6.93
520.817	6.99
521.013	6.94
521.209	7.07
521.405	7.13
521.601	7.02
521.798	7.05
521.994	7.01
522.19	7.01
522.386	6.99
522.582	7.07
522.778	7.23
522.974	7.1
523.17	7.12
523.366	7.07
523.562	7.21
523.758	7.19
523.954	7.05
524.15	7.17
524.346	7.3
524.542	7.25
524.738	7.24
524.934	7.36
525.129	7.3
525.325	7.24
525.521	7.26
525.717	7.48
525.913	7.3
526.109	7.35
526.304	7.42
526.5	7.47
526.696	7.47
526.892	7.39
527.087	7.61
527.283	7.53
527.479	7.45
527.674	7.33
527.87	7.47
528.066	7.51
528.261	7.52
528.457	7.48
528.653	7.62
528.848	7.6
529.044	7.71
529.239	7.6
529.435	7.51
529.63	7.45
529.826	7.56
530.021	7.63
530.217	7.66
530.412	7.63
530.608	7.68
530.803	7.65
530.999	7.55
531.194	7.7
531.389	7.74
531.585	7.68
531.78	7.81
531.975	7.72
532.171	7.8
532.366	7.79
532.561	7.81
532.757	7.72
532.952	7.85
533.147	7.67
533.342	7.82
533.538	7.72
533.733	7.92
533.928	7.6
534.123	7.83
534.318	7.81
534.513	7.72
534.709	7.91
534.904	7.87
535.099	7.92
535.294	7.88
535.489	7.92
535.684	7.87
535.879	7.87
536.074	7.91
536.269	7.91
536.464	7.98
536.659	7.87
536.854	7.93
537.049	7.9
537.244	7.88
537.439	7.9
537.634	7.95
537.828	8.02
538.023	7.91
538.218	7.95
538.413	7.81
538.608	7.96
538.803	7.92
538.997	7.86
539.192	8.01
539.387	7.89
539.582	7.9
539.776	7.87
539.971	8.03
540.166	8.05
540.36	7.91
540.555	8.09
540.75	7.98
540.944	8.01
541.139	7.98
541.334	8.01
541.528	7.99
541.723	8.11
541.917	8.07
542.112	7.93
542.306	7.83
542.501	7.94
542.695	7.95
542.89	7.95
543.084	8
543.279	8.07
543.473	8.07
543.668	8.09
543.862	7.88
544.056	7.96
544.251	8.07
544.445	8.11
544.64	8.17
544.834	7.79
545.028	7.64
545.222	8.07
545.417	8.28
545.611	8.09
545.805	8.09
546	7.87
546.194	8.1
546.388	8.13
546.582	7.97
546.776	8.04
546.97	8.14
547.165	8.05
547.359	8.02
547.553	8.04
547.747	8.02
547.941	8.26
548.135	8.05
548.329	8.09
548.523	8.07
548.717	7.99
548.911	8.04
549.105	7.99
549.299	8.11
549.493	8.07
549.687	7.99
549.881	8.2
550.075	8.03
550.269	7.97
550.463	8.14
550.657	8.17
550.85	8.09
551.044	8.06
551.238	8.09
551.432	8.06
551.626	8.14
551.82	8.16
552.013	7.94
552.207	8.17
552.401	8.2
552.594	8.08
552.788	7.99
552.982	8.01
553.176	8.04
553.369	8.23
553.563	8.11
553.756	8.08
553.95	8.18
554.144	8.14
554.337	8.18
554.531	7.94
554.724	8.2
554.918	8.18
555.111	8.1
555.305	8.07
555.498	8.07
555.692	8.16
555.885	8.13
556.079	8.04
556.272	8.12
556.466	8.1
556.659	8.03
556.852	8.17
557.046	7.96
557.239	7.96
557.432	8.05
557.626	8.17
557.819	8.2
558.012	8.18
558.206	8.16
558.399	8.11
558.592	8.09
558.785	8.1
558.979	8.09
559.172	8.1
559.365	8.13
559.558	8.07
559.751	8.01
559.944	8.2
560.138	8.14
560.331	8.13
560.524	8.12
560.717	8.14
560.91	8.13
561.103	8.13
561.296	7.96
561.489	8.15
561.682	8.23
561.875	8.24
562.068	8.18
562.261	8.05
562.454	8.31
562.647	8.09
562.84	8.15
563.032	8.14
563.225	8.02
563.418	8.03
563.611	8.18
563.804	8.14
563.997	7.95
564.19	7.87
564.382	8.23
564.575	8.16
564.768	8.04
564.961	8.2
565.153	8.12
565.346	8.04
565.539	8.13
565.731	8.16
565.924	8.16
566.117	8.23
566.309	8.1
566.502	8.04
566.695	8
566.887	8.13
567.08	8.11
567.272	8.09
567.465	8.08
567.657	8.16
567.85	8
568.042	8.16
568.235	8.1
568.427	7.96
568.62	8.11
568.812	8.03
569.005	8.07
569.197	7.97
569.389	8.09
569.582	8.09
569.774	8.08
569.966	8.05
570.159	8.02
570.351	7.99
570.543	8.03
570.736	8
570.928	7.84
571.12	8.05
571.312	7.93
571.505	7.77
571.697	8.04
571.889	8.01
572.081	8
572.273	7.91
572.465	8.01
572.658	8.02
572.85	7.97
573.042	7.98
573.234	7.95
573.426	8
573.618	7.87
573.81	8.03
574.002	7.93
574.194	8.04
574.386	7.89
574.578	7.81
574.77	7.96
574.962	7.94
575.154	7.82
575.346	7.85
575.538	7.87
575.729	7.85
575.921	7.96
576.113	8
576.305	7.94
576.497	8.03
576.689	7.83
576.88	7.77
577.072	7.97
577.264	7.84
577.456	7.9
577.647	7.83
577.839	7.96
578.031	7.86
578.223	7.82
578.414	7.68
578.606	7.86
578.798	7.89
578.989	7.89
579.181	7.92
579.372	7.9
579.564	7.81
579.755	7.78
579.947	7.75
580.139	7.82
580.33	7.66
580.522	7.76
580.713	7.72
580.905	7.74
581.096	7.91
581.287	7.79
581.479	7.69
581.67	7.78
581.862	7.71
582.053	7.71
582.244	7.54
582.436	7.83
582.627	7.69
582.818	7.68
583.01	7.56
583.201	7.72
583.392	7.63
583.583	7.65
583.775	7.42
583.966	7.53
584.157	7.7
584.348	7.71
584.54	7.59
584.731	7.58
584.922	7.52
585.113	7.43
585.304	7.55
585.495	7.54
585.686	7.7
585.877	7.62
586.068	7.7
586.259	7.6
586.45	7.58
586.641	7.53
586.832	7.56
587.023	7.47
587.214	7.46
587.405	7.59
587.596	7.39
587.787	7.38
587.978	7.48
588.169	7.4
588.36	7.32
588.551	7.44
588.742	7.43
588.932	7.5
589.123	7.25
589.314	7.49
589.505	7.37
589.696	7.35
589.886	7.35
590.077	7.31
590.268	7.27
590.458	7.23
590.649	7.12
590.84	7.3
591.03	7.34
591.221	7.28
591.412	7.13
591.602	7.31
591.793	7.27
591.984	7.29
592.174	7.26
592.365	7.37
592.555	7.13
592.746	7.12
592.936	7.14
593.127	7.22
593.317	7.19
593.508	7.2
593.698	7.1
593.889	7.13
594.079	7.09
594.269	7.07
594.46	7.04
594.65	7.14
594.84	7.1
595.031	6.98
595.221	7.02
595.411	7.01
595.602	7.05
595.792	6.93
595.982	6.86
596.172	7.1
596.363	6.91
596.553	6.91
596.743	6.93
596.933	6.91
597.123	6.84
597.314	6.74
597.504	6.81
597.694	6.99
597.884	6.83
598.074	6.86
598.264	6.82
598.454	6.79
598.644	6.73
598.834	6.75
599.024	6.65
599.214	6.75
599.404	6.82
599.594	6.74
599.784	6.66
599.974	6.74
600.164	6.74
600.354	6.64
600.544	6.6
600.734	6.63
600.924	6.64
601.114	6.52
601.303	6.56
601.493	6.65
601.683	6.49
601.873	6.56
602.063	6.48
602.252	6.56
602.442	6.44
602.632	6.39
602.821	6.37
603.011	6.51
603.201	6.45
603.39	6.39
603.58	6.33
603.77	6.45
603.959	6.39
604.149	6.31
604.339	6.31
604.528	6.42
604.718	6.39
604.907	6.34
605.097	6.21
605.286	6.24
605.476	6.27
605.665	6.32
605.855	6.18
606.044	6.3
606.234	6.27
606.423	6.17
606.612	6.19
606.802	6.15
606.991	6.21
607.181	6.22
607.37	6.15
607.559	5.86
607.749	6.12
607.938	5.97
608.127	6
608.316	6.03
608.506	6.02
608.695	6.04
608.884	5.95
609.073	6.07
609.263	6.12
609.452	6.04
609.641	5.87
609.83	5.81
610.019	5.96
610.208	5.8
610.397	5.83
610.586	5.83
610.775	5.83
610.965	5.81
611.154	5.69
611.343	5.78
611.532	5.69
611.721	5.77
611.91	5.68
612.099	5.73
612.287	5.67
612.476	5.59
612.665	5.73
612.854	5.57
613.043	5.6
613.232	5.58
613.421	5.47
613.61	5.56
613.798	5.52
613.987	5.61
614.176	5.61
614.365	5.56
614.554	5.52
614.742	5.55
614.931	5.36
615.12	5.55
615.309	5.52
615.497	5.4
615.686	5.31
615.875	5.39
616.063	5.35
616.252	5.4
616.44	5.31
616.629	5.31
616.818	5.31
617.006	5.25
617.195	5.18
617.383	5.24
617.572	5.19
617.76	5.19
617.949	5.17
618.137	5.29
618.326	5.22
618.514	5.03
618.703	4.95
618.891	5.17
619.079	5.02
619.268	5.11
619.456	4.99
619.644	5.08
619.833	5.03
620.021	5
620.209	4.92
620.398	5.02
620.586	4.94
620.774	4.97
620.962	4.91
621.151	5.03
621.339	4.83
621.527	4.85
621.715	4.81
621.903	4.85
622.092	4.77
622.28	4.89
622.468	4.68
622.656	4.84
622.844	4.71
623.032	4.74
623.22	4.64
623.408	4.87
623.596	4.76
623.784	4.74
623.972	4.59
624.16	4.65
624.348	4.76
624.536	4.75
624.724	4.57
624.912	4.59
625.1	4.69
625.288	4.61
625.476	4.52
625.664	4.62
625.851	4.52
626.039	4.55
626.227	4.52
626.415	4.52
626.603	4.41
626.79	4.47
626.978	4.47
627.166	4.47
627.354	4.36
627.541	4.35
627.729	4.23
627.917	4.47
628.104	4.46
628.292	4.29
628.48	4.27
628.667	4.27
628.855	4.42
629.042	4.37
629.23	4.27
629.418	4.18
629.605	4.23
629.793	4.19
629.98	4.18
630.168	4.16
630.355	4.2
630.543	4.22
630.73	4.07
630.917	4.13
631.105	4.22
631.292	4.16
631.48	4.09
631.667	4.23
631.854	4.03
632.042	4.05
632.229	3.96
632.416	4.01
632.604	3.97
632.791	3.86
632.978	4.03
633.165	3.98
633.353	3.93
633.54	3.94
633.727	3.81
633.914	3.85
634.101	3.79
634.289	3.98
634.476	3.78
634.663	3.83
634.85	3.85
635.037	3.76
635.224	3.7
635.411	3.82
635.598	3.73
635.785	3.75
635.972	3.63
636.159	3.74
636.346	3.64
636.533	3.65
636.72	3.62
636.907	3.67
637.094	3.65
637.281	3.5
637.468	3.62
637.655	3.55
637.842	3.58
638.029	3.53
638.215	3.49
638.402	3.55
638.589	3.48
638.776	3.48
638.963	3.4
639.149	3.55
639.336	3.56
639.523	3.46
639.709	3.45
639.896	3.44
640.083	3.45
640.27	3.43
640.456	3.31
640.643	3.34
640.829	3.28
641.016	3.28
641.203	3.21
641.389	3.33
641.576	3.3
641.762	3.22
641.949	3.21
642.135	3.25
642.322	3.23
642.508	3.14
642.695	3.22
642.881	3.16
643.068	3.16
643.254	3.12
643.441	3.18
643.627	3.17
643.813	3.07
644	3.13
644.186	2.99
644.372	3.14
644.559	3.02
644.745	3.02
644.931	2.98
645.118	2.99
645.304	3.03
645.49	2.98
645.676	2.9
645.862	2.98
646.049	3.02
646.235	2.95
646.421	3.03
646.607	3.02
646.793	2.86
646.979	2.82
647.165	2.91
647.352	2.9
647.538	2.88
647.724	2.81
647.91	2.82
648.096	2.88
648.282	2.9
648.468	2.84
648.654	2.84
648.84	2.82
649.026	2.78
649.212	2.69
649.397	2.71
649.583	2.7
649.769	2.74
649.955	2.74
650.141	2.74
650.327	2.74
650.513	2.61
650.698	2.68
650.884	2.56
651.07	2.68
651.256	2.65
651.442	2.61
651.627	2.52
651.813	2.62
651.999	2.58
652.184	2.56
652.37	2.52
652.556	2.53
652.741	2.56
652.927	2.43
653.113	2.48
653.298	2.51
653.484	2.49
653.669	2.38
653.855	2.4
654.04	2.49
654.226	2.46
654.412	2.42
654.597	2.34
654.782	2.42
654.968	2.45
655.153	2.41
655.339	2.37
655.524	2.27
655.71	2.38
655.895	2.3
656.08	2.32
656.266	2.46
656.451	2.31
656.636	2.31
656.822	2.28
657.007	2.3
657.192	2.3
657.378	2.17
657.563	2.24
657.748	2.28
657.933	2.25
658.118	2.18
658.304	2.18
658.489	2.28
658.674	2.22
658.859	2.15
659.044	2.1
659.229	2.18
659.414	2.15
659.599	2.12
659.785	2.05
659.97	2.12
660.155	2.18
660.34	2.17
660.525	2.12
660.71	2.02
660.895	2.14
661.08	2.05
661.264	2.01
661.449	2.15
661.634	2.1
661.819	2.12
662.004	2.01
662.189	1.96
662.374	2.01
662.559	1.93
662.743	1.92
662.928	1.96
663.113	1.99
663.298	1.91
663.483	1.93
663.667	2.02
663.852	1.89
664.037	1.94
664.221	1.87
664.406	1.94
664.591	1.96
664.775	1.92
664.96	1.86
665.145	1.87
665.329	1.97
665.514	1.81
665.698	1.82
665.883	1.73
666.068	1.9
666.252	1.83
666.437	1.82
666.621	1.8
666.806	1.86
666.99	1.74
667.174	1.77
667.359	1.86
667.543	1.76
667.728	1.78
667.912	1.66
668.096	1.75
668.281	1.76
668.465	1.81
668.649	1.69
668.834	1.65
669.018	1.75
669.202	1.68
669.387	1.74
669.571	1.75
669.755	1.63
669.939	1.68
670.124	1.68
670.308	1.71
670.492	1.75
670.676	1.61
670.86	1.59
671.044	1.57
671.228	1.68
671.413	1.57
671.597	1.59
671.781	1.55
671.965	1.6
672.149	1.56
672.333	1.59
672.517	1.56
672.701	1.61
672.885	1.54
673.069	1.47
673.253	1.67
673.437	1.52
673.621	1.49
673.804	1.5
673.988	1.56
674.172	1.53
674.356	1.42
674.54	1.45
674.724	1.64
674.908	1.48
675.091	1.5
675.275	1.45
675.459	1.54
675.643	1.51
675.826	1.47
676.01	1.44
676.194	1.47
676.377	1.48
676.561	1.47
676.745	1.37
676.928	1.52
677.112	1.48
677.296	1.41
677.479	1.37
677.663	1.39
677.846	1.42
678.03	1.44
678.213	1.34
678.397	1.36
678.58	1.4
678.764	1.36
678.947	1.25
679.131	1.38
679.314	1.47
679.498	1.33
679.681	1.38
679.865	1.46
680.048	1.28
680.231	1.33
680.415	1.28
680.598	1.23
680.781	1.3
680.965	1.28
681.148	1.26
681.331	1.23
681.514	1.3
681.698	1.19
681.881	1.22
682.064	1.32
682.247	1.24
682.43	1.15
682.614	1.25
682.797	1.28
682.98	1.25
683.163	1.17
683.346	1.19
683.529	1.21
683.712	1.16
683.895	1.22
684.078	1.12
684.261	1.13
684.444	1.27
684.627	1.18
684.81	1.15
684.993	1.18
685.176	1.21
685.359	1.12
685.542	1.05
685.725	1.27
685.908	1.21
686.091	1.09
686.274	1.16
686.457	1.14
686.639	1.08
686.822	1.15
687.005	1.1
687.188	1.22
687.371	1.2
687.553	1.18
687.736	1.12
687.919	1.2
688.102	1.21
688.284	1.11
688.467	1.06
688.65	1.07
688.832	1.03
689.015	1.13
689.197	0.95
689.38	1.14
689.563	1.18
689.745	0.96
689.928	1.02
690.11	0.99
690.293	1.06
690.475	0.93
690.658	1.07
690.84	1.02
691.023	0.98
691.205	0.96
691.388	1.03
691.57	1.09
691.752	0.98
691.935	0.91
692.117	0.93
692.3	1
692.482	0.96
692.664	0.96
692.847	0.97
693.029	1.03
693.211	0.97
693.393	0.96
693.576	0.91
693.758	0.99
693.94	0.98
694.122	0.92
694.304	0.97
694.487	0.92
694.669	0.98
694.851	0.86
695.033	0.87
695.215	0.87
695.397	0.86
695.579	0.9
695.761	0.83
695.943	0.8
696.125	1.02
696.308	0.92
696.49	0.71
696.671	1.07
696.853	0.88
697.035	1.17
697.217	0.88
697.399	1.03
697.581	0.83
697.763	0.84
697.945	0.76
698.127	0.84
698.309	0.89
698.491	0.9
698.672	0.88
698.854	0.94
699.036	0.94
699.218	0.75
699.399	0.91
699.581	0.84
699.763	0.81
699.945	0.78
700.126	0.74
700.308	0.85
700.49	0.82
700.671	0.69
700.853	0.71
701.035	0.75
701.216	0.82
701.398	0.72
701.579	0.79
701.761	0.88
701.943	0.72
702.124	0.7
702.306	0.78
702.487	0.92
702.669	0.75
702.85	0.74
703.031	0.66
703.213	0.87
703.394	0.85
703.576	0.71
703.757	0.9
703.938	0.86
704.12	0.97
704.301	0.81
704.483	0.72
704.664	0.76
704.845	0.95
705.026	0.81
705.208	0.74
705.389	0.78
705.57	0.83
705.751	0.75
705.933	0.78
706.114	0.88
706.295	0.69
706.476	0.66
706.657	0.84
706.838	0.82
707.02	0.76
707.201	0.69
707.382	0.69
707.563	0.81
707.744	0.65
707.925	0.58
708.106	0.66
708.287	0.78
708.468	0.83
708.649	0.63
708.83	0.7
709.011	0.67
709.192	0.8
709.373	0.63
709.554	0.71
709.734	0.78
709.915	0.72
710.096	0.63
710.277	0.58
710.458	0.71
710.639	0.67
710.819	0.6
711	0.62
711.181	0.7
711.362	0.75
711.542	0.68
711.723	0.58
711.904	0.73
712.085	0.7
712.265	0.66
712.446	0.55
712.627	0.68
712.807	0.64
712.988	0.62
713.168	0.5
713.349	0.7
713.53	0.44
713.71	0.47
713.891	0.51
714.071	0.59
714.252	0.61
714.432	0.54
714.613	0.54
714.793	0.6
714.974	0.65
715.154	0.61
715.334	0.65
715.515	0.69
715.695	0.59
715.876	0.56
716.056	0.61
716.236	0.55
716.417	0.6
716.597	0.5
716.777	0.73
716.957	0.57
717.138	0.62
717.318	0.61
717.498	0.45
717.678	0.59
717.859	0.63
718.039	0.45
718.219	0.58
718.399	0.6
718.579	0.48
718.759	0.48
718.939	0.55
719.12	0.59
719.3	0.56
719.48	0.46
719.66	0.41
719.84	0.71
720.02	0.57
720.2	0.42
720.38	0.54
720.56	0.66
720.74	0.46
720.92	0.6
721.1	0.69
721.279	0.63
721.459	0.51
721.639	0.51
721.819	0.52
721.999	0.45
722.179	0.63
722.359	0.41
722.538	0.6
722.718	0.57
722.898	0.56
723.078	0.48
723.257	0.44
723.437	0.58
723.617	0.53
723.797	0.52
723.976	0.53
724.156	0.6
724.336	0.65
724.515	0.71
724.695	0.45
724.874	0.51
725.054	0.57
725.234	0.43
725.413	0.47
725.593	0.46
725.772	0.6
725.952	0.47
726.131	0.48
726.311	0.5
726.49	0.53
726.67	0.43
726.849	0.42
727.028	0.55
727.208	0.43
727.387	0.56
727.567	0.31
727.746	0.49
727.925	0.46
728.105	0.34
728.284	0.48
728.463	0.5
728.643	0.55
728.822	0.41
729.001	0.54
729.18	0.49
729.359	0.61
729.539	0.46
729.718	0.4
729.897	0.6
730.076	0.48
730.255	0.35
730.434	0.47
730.614	0.52
730.793	0.56
730.972	0.49
731.151	0.35
731.33	0.57
731.509	0.53
731.688	0.46
731.867	0.49
732.046	0.32
732.225	0.7
732.404	0.4
732.583	0.32
732.762	0.49
732.941	0.54
733.12	0.45
733.298	0.34
733.477	0.67
733.656	0.5
733.835	0.28
734.014	0.51
734.193	0.48
734.371	0.53
734.55	0.6
734.729	0.27
734.908	0.47
735.086	0.52
735.265	0.65
735.444	0.26
735.623	0.4
735.801	0.33
735.98	0.46
736.159	0.56
736.337	0.56
736.516	0.49
736.694	0.55
736.873	0.46
737.052	0.79
737.23	0.72
737.409	0.5
737.587	0.63
737.766	0.31
737.944	0.48
738.123	0.6
738.301	0.6
738.479	0.41
738.658	0.54
738.836	0.25
739.015	0.4
739.193	0.62
739.371	0.33
739.55	0.37
739.728	0.38
739.906	0.55
740.085	0.66
740.263	0.51
740.441	0.21
740.62	0.64
740.798	0.58
740.976	0.48
741.154	0.35
741.332	0.67
741.511	0.44
741.689	0.44
741.867	0.54
742.045	0.47
742.223	0.42
742.401	0.44
742.579	0.25
742.757	0.46
742.935	0.35
743.114	0.32
743.292	0.4
743.47	0.45
743.648	0.46
743.826	0.43
744.004	0.46
744.181	0.58
744.359	0.43
744.537	0.52
744.715	0.49
744.893	0.43
745.071	0.44
745.249	0.43
745.427	0.38
745.605	0.54
745.782	0.48
745.96	0.47
746.138	0.53
746.316	0.54
746.493	0.36
746.671	0.38
746.849	0.36
747.027	0.63
747.204	0.43
747.382	0.49
747.56	0.41
747.737	0.31
747.915	0.38
748.093	0.49
748.27	0.33
748.448	0.41
748.625	0.23
748.803	0.28
748.98	0.39
749.158	0.5
749.335	0.39
749.513	0.41
749.69	0.33
749.868	0.31
750.045	0.41
750.223	0.29
750.4	0.13
750.578	0.68
750.755	0.36
750.932	0.29
751.11	0.54
751.287	0.41
751.464	0.64
751.642	0.24
751.819	0.53
751.996	0.36
752.173	0.27
752.351	0.26
752.528	0.39
752.705	0.49
752.882	0.26
753.06	0.28
753.237	0.44
753.414	0.57
753.591	0.72
753.768	0.32
753.945	0.34
754.122	0.36
754.299	0.55
754.476	0.25
754.654	0.37
754.831	0.5
755.008	0.47
755.185	0.3
755.362	0.14
755.539	0.39
755.716	0.33
755.892	0.4
756.069	0.31
756.246	0.38
756.423	0.37
756.6	0.56
756.777	0.14
756.954	0.55
757.131	0.39
757.307	0.22
757.484	0.28
757.661	0.41
757.838	0.46
758.015	0.19
758.191	0.25
758.368	0.39
758.545	0.57
758.721	0.39
758.898	0.16
759.075	0.4
759.251	0.56
759.428	0.55
759.605	0.19
759.781	0.29
759.958	0.45
760.134	0.39
760.311	0.28
760.488	0.39
760.664	0.65
760.841	0.19
761.017	0.21
761.194	0.47
761.37	0.5
761.547	0.32
761.723	0.33
761.899	0.62
762.076	0.25
762.252	0.24
762.429	0.22
762.605	0.59
762.781	0.2
762.958	0.43
763.134	0.26
763.31	0.21
763.486	0.48
763.663	0.29
763.839	0.39
764.015	0.04
764.191	0.25
764.368	0.28
764.544	0.18
764.72	0.31
764.896	0.4
765.072	0.39
765.248	0.35
765.425	0.24
765.601	0.43
765.777	0.29
765.953	0.08
766.129	0.27
766.305	0.2
766.481	0.39
766.657	0.29
766.833	0.56
767.009	0.18
767.185	0.3
767.361	0.36
767.537	0.2
767.713	0.49
767.889	0.3
768.065	0.26
768.24	0.36
768.416	0.5
768.592	0.36
768.768	0.22
768.944	0.46
769.12	0.21
769.295	0.33
769.471	0.29
769.647	0.28
769.823	0.62
769.998	0.24
770.174	0.19
770.35	0.83
770.525	0.63
770.701	0.35
770.877	0.23
771.052	0.3
771.228	0.56
771.403	0.42
771.579	0.38
771.755	0.74
771.93	0.25
772.106	0.13
772.281	0.04
772.457	0.42
772.632	0.44
772.808	0.23
772.983	0.3
773.159	0.18
773.334	0.6
773.509	0.46
773.685	0.18
773.86	0.75
774.036	0.53
774.211	0.38
774.386	0.26
774.562	0.45
774.737	0.71
774.912	0.24
775.087	0.51
775.263	0.42
775.438	0.43
775.613	0.24
775.788	0.31
775.964	0.72
776.139	0.84
776.314	0.12
776.489	0.45
776.664	0.39
776.839	0.16
777.014	0.44
777.19	0.48
777.365	0.69
777.54	0.6
777.715	0.06
777.89	0.36
778.065	0.28
778.24	0.41
778.415	0.48
778.59	0.1
778.765	0.21
778.94	0.49
779.115	0.41
779.289	0.29
779.464	0.5
779.639	0.35
779.814	0.04
779.989	0.02
780.164	0.58
780.339	0.41
780.513	0.28
780.688	0.26
780.863	0.47
781.038	0.71
781.212	0.24
781.387	0.48
781.562	0.77
781.737	0.11
781.911	0.52
782.086	0.17
782.261	0.34
782.435	0.63
782.61	0.41
782.784	0.32
782.959	0.75
783.134	0.21
783.308	0.18
783.483	0.19
783.657	1.02
783.832	0.63
784.006	0.03
784.181	0.29
784.355	0.64
784.53	0.21
784.704	0.05
784.878	0.66
785.053	0.56
785.227	0.83
785.402	0.91
785.576	0.21
785.75	0.48
785.925	0.38
786.099	0.38
786.273	0.38
786.448	0.71
786.622	0.69
786.796	0.4
786.97	0.32
787.145	1.02
787.319	-0.02
787.493	0.29
787.667	0.1
787.841	0.36
788.015	0.8
788.19	0.32
788.364	0.33
788.538	0.55
788.712	0.44
788.886	0.29
789.06	0.64
789.234	0.62
789.408	0.17
789.582	0.18
789.756	0.27
789.93	0.24
790.104	0.39
790.278	0.43
790.452	0.25
790.626	0.46
790.8	0.15
790.973	0.59
791.147	0.69
791.321	0.95
791.495	0.56
791.669	0.43
791.843	0.42
792.016	0.5
792.19	0.81
792.364	-0.1
792.538	1.09
792.711	0.72
792.885	0.18
793.059	0.18
793.233	-0.13
793.406	0.89
793.58	0.47
793.754	0.73
793.927	0.45
794.101	0.69
794.274	0.54
794.448	0.68
794.622	0.12
794.795	0.82
794.969	0.36
795.142	0.89
795.316	0.2
795.489	0.3
795.663	0.95
795.836	0.15
796.009	0.03
796.183	0.89
796.356	0.61
796.53	0.26
796.703	0.46
796.876	0.96
797.05	0.34
797.223	0.46
797.396	0.49
797.57	0.49
797.743	1.06
797.916	0.56
798.09	0.15
798.263	1
798.436	0.76
798.609	0.14
798.782	0.27
798.956	0.6
799.129	0.44
799.302	0.38
799.475	0.17
799.648	0.28
799.821	0.27
799.994	0.55
800.167	-0.08
800.34	0.67
800.514	0.63
800.687	0.38
800.86	0.34
801.033	0.35
801.206	0.74
801.379	-0.01
801.551	0.91
801.724	0.84
801.897	0.87
802.07	0.3
802.243	-0.21
802.416	0.32
802.589	0.33
802.762	0.64
802.935	0.46
803.107	0.84
803.28	0.83
803.453	0.45
803.626	0.17
803.798	0.73
803.971	0.21
804.144	0.65
804.317	0.58
804.489	0.79
804.662	0.95
804.835	0.3
805.007	0.17
805.18	1.22
805.353	0.29
805.525	0.3
805.698	0.38
805.87	0.95
806.043	0.88
806.215	-0.05
806.388	0.09
806.56	0.79
806.733	1.03
806.905	0.77
807.078	0.2
807.25	0.5
807.423	1.03
807.595	0.47
807.768	0.5
807.94	0.68
808.112	0.75
808.285	0.58
808.457	0.23
808.629	0.76
808.802	1.06
808.974	0.89
809.146	0.12
809.318	0.62
809.491	0.83
809.663	0.66
809.835	0.25
810.007	0.76
810.18	0.78
810.352	-0.01
810.524	0.26
810.696	1.04
810.868	0.94
811.04	0.52
811.212	0.41
811.384	0.78
811.556	0.54
811.728	0.38
811.901	1.62
812.073	0.47
812.245	1
812.417	0.77
812.589	-0.32
812.76	0.77
812.932	1.03
813.104	1.01
813.276	0.16
813.448	1.01
813.62	0.6
813.792	0.87
813.964	0.24
814.136	0.81
814.307	0.51
814.479	0.23
814.651	-0.08
814.823	1.41
814.995	0.28
815.166	0.3
815.338	0.38
815.51	-0.07
815.681	1.41
815.853	0.87
816.025	0.23
816.196	1.61
816.368	0.64
816.54	0.07
816.711	-0.05
816.883	1.46
817.054	1.66
817.226	-0.03
817.398	0.85
817.569	0.42
817.741	0.7
817.912	0.36
818.084	0.47
818.255	1.12
818.426	0.62
818.598	0.96
818.769	0
818.941	0.89
819.112	1.59
819.283	0.73
819.455	0.14
819.626	1.1
819.798	0.97
819.969	0.61
820.14	0.31
820.311	0.76
820.483	1.11
820.654	1.28
820.825	0.53
820.996	0.59
821.168	0.12
821.339	0.51
821.51	0.07
821.681	0.39
821.852	0.9
822.023	0.46
822.195	-0.32
822.366	1.17
822.537	0.65
822.708	0.67
822.879	0.38
823.05	1.51
823.221	0.25
823.392	0.91
823.563	0.54
823.734	0.47
823.905	0.89
824.076	0.25
824.247	0.12
824.418	0.32
824.589	1.4
824.759	1.21
824.93	0.32
825.101	-0.12
825.272	1.22
825.443	1.4
825.614	1.56
825.784	-0.11
825.955	2.18
826.126	1.59
826.297	0.89
826.467	1.66
826.638	2.09
826.809	-0.2
826.98	0.67
827.15	1.35
827.321	0.96
827.492	1.37
827.662	0.52
827.833	2.11
828.003	1.46
828.174	0.44
828.345	-0.52
828.515	2.05
828.686	0.95
828.856	0.32
829.027	0.77
829.197	1.3
829.368	1.31
829.538	0.37
829.709	-0.03
829.879	1.23
830.049	1
830.22	0.21
830.39	0.86
830.56	1.74
830.731	0.92
830.901	0.63
831.072	0.56
831.242	1.25
831.412	1.08
831.582	0.18
831.753	-0.3
831.923	1.32
832.093	0.64
832.263	1.11
832.434	0.04
832.604	0.48
832.774	1.48
832.944	0.31
833.114	0.34
833.284	0.89
833.454	0.4
833.624	0.66
833.795	0.69
833.965	1.62
834.135	2.42
834.305	-0.47
834.475	-0.45
834.645	1.13
834.815	0.79
834.985	-0.15
835.155	0.13
835.325	1.18
835.494	1.92
835.664	0.12
835.834	0.17
836.004	0.95
836.174	0.97
836.344	0.62
836.514	-0.31
836.684	0.51
836.853	0.12
837.023	1.01
837.193	-0.01
837.363	2.09
837.532	1.71
837.702	1.08
837.872	0.35
838.041	1.85
838.211	2.31
838.381	-0.01
838.55	0.76
838.72	2.66
838.89	1.85
839.059	0.68
839.229	0.14
839.398	2.71
839.568	1.16
839.738	0.3
839.907	1.99
840.077	1.51
840.246	0.2
840.416	-0.15
840.585	-0.02
840.755	2.87
840.924	1.85
841.093	-0.22
841.263	0.39
841.432	1.26
841.602	0.75
841.771	-0.12
841.94	0.84
842.11	3.57
842.279	2.47
842.448	-0.5
842.617	0.17
842.787	2.28
842.956	0.16
843.125	0.94
843.294	1.07
843.464	2.19
843.633	1.83
843.802	0.19
843.971	0.9
844.14	1.35
844.309	1.95
844.479	-1.04
844.648	-0.88
844.817	1.24
844.986	1.22
845.155	0.76
845.324	0.09
845.493	0.68
845.662	0.1
845.831	1.54
846	0.88
846.169	1.81
846.338	1.69
846.507	1.33
846.676	1.17
846.844	0.64
847.013	2.03
847.182	1.3
847.351	0.68
847.52	0.98
847.689	1.5
847.858	0.87
848.026	0.35
848.195	0.89
848.364	0.67
848.533	-0.05
848.701	0.34
848.87	1.15
849.039	3.78
849.207	1.47
849.376	1.35
849.545	3.01
849.713	0.56
849.882	0.65
850.051	0.18
850.219	1.15
850.388	2.1
850.556	0.27
850.725	0.29
850.893	0.81
851.062	0.93
851.23	0.89
851.399	-0.24
851.567	0.56
851.736	0.93
851.904	-0.16
852.073	1.62
852.241	2.5
852.41	0.58
852.578	0.73
852.746	-0.45
852.915	2.7
853.083	1.5
853.251	-0.18
853.42	0.76
853.588	1.1
853.756	2.63
853.924	0.28
854.093	0.67
854.261	0.98
854.429	-0.96
854.597	1.91
854.765	-0.07
854.934	2.33
855.102	2.93
855.27	1.23
855.438	1.33
855.606	3.36
855.774	3.29
855.942	0.21
856.11	-0.24
856.278	2.05
856.446	2.69
856.614	1.37
856.782	-0.83
856.95	2.46
857.118	1.57
857.286	1.33
857.454	-0.15
857.622	1.71
857.79	2.31
857.958	1.47
858.126	0.2
858.294	-0.53
858.462	0.97
858.629	-0.58
858.797	-0.89
858.965	2.31
859.133	1.75
859.301	1.82
859.468	1.45
859.636	1.97
859.804	3.75
859.971	2.1
860.139	0.16
860.307	2.66
860.474	2.19
860.642	-0.31
860.81	0.06
860.977	1.32
861.145	2.9
861.313	1.05
861.48	1.23
861.648	2.1
861.815	1.12
861.983	-0.11
862.15	-0.03
862.318	2.65
862.485	3.59
862.653	0.2
862.82	1.37
862.988	4.56
863.155	1.96
863.322	-0.32
863.49	0.95
863.657	1.94
863.824	4.72
863.992	2.53
864.159	1.85
864.326	3.42
864.494	1.24
864.661	3.52
864.828	0.05
864.996	2.16
865.163	4.49
865.33	0.75
865.497	-2.97
865.664	-0.27
865.832	-0.72
865.999	1.44
866.166	0.14
866.333	0.01
866.5	1.97
866.667	1.43
866.834	0.89
867.001	4.23
867.168	-0.07
867.335	1.85
867.502	-1.16
867.669	1.77
867.836	5.24
868.003	0.78
868.17	3.1
868.337	4.33
868.504	5.48
868.671	-1.92
868.838	0.47
869.005	3.73
869.172	1.97
869.339	3.25
869.505	1.93
869.672	1.75
869.839	2.52
870.006	1.9
870.173	-0.13
870.339	2.69
870.506	5.93
870.673	-0.4
870.84	1.87
871.006	1.61
871.173	1.66
871.34	0.71
871.506	0.51
871.673	2.66
871.839	-0.43
872.006	0.83
872.173	0.53
872.339	2.99
872.506	2.91
872.672	1.35
872.839	0.16
873.005	2.06
873.172	6.63
873.338	3.84
873.505	0.93
873.671	3.27
873.838	2.77
874.004	-0.74
874.171	-0.32
874.337	3.07
874.503	3.79
874.67	3.42
874.836	0.7
875.002	2.39
875.169	5.43
875.335	1.67
875.501	1.08
875.668	3.58
875.834	1.94
876	0.33
876.166	2.42
876.332	2.5
876.499	5.82
876.665	1.68
876.831	0.67
876.997	5.48
877.163	2.25
877.329	0.87
877.495	1.31
877.662	2.3
877.828	2.26
877.994	1.11
878.16	-0.8
878.326	1.54
878.492	2.92
878.658	0.12
878.824	2.72
878.99	4.34
879.156	0.47
879.322	3.28
879.487	0.72
879.653	1
879.819	0.53
879.985	-0.77
880.151	1.43
880.317	2.35
880.483	2.53
880.648	2.16
880.814	-2.27
880.98	0.85
881.146	-0.93
881.312	0.14
881.477	0.84
881.643	1.53
881.809	4.58
881.974	2.79
882.14	0.33
882.306	2.72
882.471	6.09
882.637	-0.03
882.803	1.71
882.968	5.34
883.134	8.18
883.299	2.7
883.465	1.07
883.63	3.4
883.796	3.16
883.961	3.98
884.127	3.23
884.292	-5.06
884.458	-0.01
884.623	-0.01
