Data from Apollo_Calib_20240827__AbsoluteIrradiance__830__12-59-00-470.txt Node

Date: Wed Aug 28 12:59:00 BST 2024
User: biology
Spectrometer: FLMT08252
Trigger mode: 0
Integration Time (sec): 5.000000E-1
Scans to average: 5
Electric dark correction enabled: true
Nonlinearity correction enabled: false
Boxcar width: 0
XAxis mode: Wavelengths
Number of Pixels in Spectrum: 3648
>>>>>Begin Spectral Data<<<<<
179.588	-0
179.809	-0
180.03	-0
180.251	-0
180.473	-0
180.694	0
180.915	0
181.136	-0
181.357	0
181.578	-0
181.799	-0
182.02	0
182.241	-0
182.462	-0
182.683	0
182.904	-0
183.125	-0
183.346	0
183.567	0
183.788	0
184.009	0
184.23	0
184.451	0
184.672	0
184.892	0
185.113	0
185.334	0
185.555	0
185.776	0
185.996	0
186.217	0
186.438	0
186.659	0
186.879	0
187.1	0
187.321	0
187.541	0
187.762	0
187.983	0
188.203	0
188.424	0
188.644	0
188.865	0
189.086	0
189.306	0
189.527	0
189.747	0
189.968	0
190.188	0
190.409	0
190.629	0
190.849	0
191.07	0
191.29	0
191.511	0
191.731	0
191.951	0
192.172	0
192.392	0
192.612	0
192.833	0
193.053	0
193.273	0
193.493	0
193.714	0
193.934	0
194.154	0
194.374	0
194.594	0
194.815	0
195.035	0
195.255	0
195.475	0
195.695	0
195.915	0
196.135	0
196.355	0
196.575	0
196.795	0
197.015	0
197.235	0
197.455	0
197.675	0
197.895	0
198.115	0
198.335	0
198.555	0
198.775	0
198.995	0
199.214	0
199.434	0
199.654	0
199.874	0
200.094	3.87
200.313	2.79
200.533	1.41
200.753	1.57
200.973	3.97
201.192	3.48
201.412	0.8
201.632	1.64
201.851	3.12
202.071	2.03
202.291	1.45
202.51	1.3
202.73	3.11
202.95	1.65
203.169	0.87
203.389	1.91
203.608	1.85
203.828	1.44
204.047	1.46
204.267	1.95
204.486	2.15
204.706	2.4
204.925	1.98
205.145	1.39
205.364	2.44
205.583	2.49
205.803	1.15
206.022	1.06
206.242	1.54
206.461	1.49
206.68	1.22
206.9	1.48
207.119	2.57
207.338	2.16
207.557	1.04
207.777	1.4
207.996	1.3
208.215	1.89
208.434	0.99
208.654	0.85
208.873	1.54
209.092	1.88
209.311	1.21
209.53	0.93
209.749	1.28
209.968	0.82
210.187	0.83
210.407	0.85
210.626	1.31
210.845	1.6
211.064	1.09
211.283	0.75
211.502	1.36
211.721	1.03
211.94	1.07
212.159	1.25
212.377	1.39
212.596	1.38
212.815	1.11
213.034	1.02
213.253	1.38
213.472	1.09
213.691	0.76
213.91	0.79
214.128	0.78
214.347	1.51
214.566	0.71
214.785	0.51
215.003	1.41
215.222	1.24
215.441	0.92
215.66	0.43
215.878	0.82
216.097	1.31
216.316	0.6
216.534	0.79
216.753	0.84
216.972	0.8
217.19	0.85
217.409	0.67
217.627	0.72
217.846	0.62
218.064	0.62
218.283	0.63
218.501	1.19
218.72	1.23
218.938	0.53
219.157	0.69
219.375	1.12
219.594	1.02
219.812	0.32
220.031	0.55
220.249	1.17
220.467	1.19
220.686	0.42
220.904	0.45
221.122	0.59
221.341	1.15
221.559	0.77
221.777	0.43
221.995	0.7
222.214	0.99
222.432	0.56
222.65	0.86
222.868	0.73
223.086	0.81
223.305	0.75
223.523	0.52
223.741	1.07
223.959	0.65
224.177	0.46
224.395	0.56
224.613	0.77
224.831	1.05
225.049	0.51
225.267	0.52
225.485	0.75
225.703	0.52
225.921	0.52
226.139	0.41
226.357	0.86
226.575	0.78
226.793	0.54
227.011	1.57
227.229	0.67
227.447	0.86
227.665	0.5
227.883	0.43
228.1	0.71
228.318	0.63
228.536	0.27
228.754	0.43
228.972	0.76
229.189	0.78
229.407	0.61
229.625	0.5
229.843	0.75
230.06	0.73
230.278	0.45
230.496	0.62
230.713	0.7
230.931	0.71
231.149	0.61
231.366	0.35
231.584	0.53
231.801	1
232.019	0.49
232.236	0.36
232.454	0.39
232.671	0.66
232.889	0.45
233.106	0.43
233.324	0.62
233.541	0.49
233.759	0.54
233.976	0.41
234.194	0.54
234.411	0.51
234.628	0.38
234.846	0.38
235.063	0.59
235.28	0.66
235.498	0.52
235.715	0.32
235.932	0.75
236.149	0.51
236.367	0.34
236.584	0.52
236.801	0.52
237.018	0.65
237.236	0.43
237.453	0.34
237.67	0.56
237.887	0.58
238.104	0.39
238.321	0.25
238.538	0.4
238.755	0.71
238.973	0.17
239.19	0.52
239.407	0.49
239.624	0.5
239.841	0.43
240.058	0.4
240.275	0.53
240.492	0.55
240.709	0.41
240.925	0.45
241.142	0.45
241.359	0.28
241.576	0.27
241.793	0.27
242.01	0.45
242.227	0.62
242.444	0.46
242.66	0.59
242.877	0.45
243.094	0.4
243.311	0.4
243.527	0.4
243.744	0.48
243.961	0.56
244.178	0.33
244.394	0.33
244.611	0.55
244.828	0.7
245.044	0.39
245.261	0.32
245.477	0.52
245.694	0.54
245.911	0.39
246.127	0.39
246.344	0.63
246.56	0.59
246.777	0.35
246.993	0.36
247.21	0.51
247.426	0.38
247.643	0.34
247.859	0.23
248.076	0.33
248.292	0.65
248.508	0.3
248.725	0.51
248.941	0.48
249.157	0.66
249.374	0.34
249.59	0.37
249.806	0.49
250.023	0.43
250.239	0.28
250.455	0.25
250.671	0.34
250.888	0.44
251.104	0.48
251.32	0.39
251.536	0.43
251.752	0.36
251.969	0.47
252.185	0.32
252.401	0.64
252.617	0.37
252.833	0.36
253.049	0.35
253.265	0.42
253.481	0.44
253.697	0.3
253.913	0.28
254.129	0.49
254.345	0.4
254.561	0.33
254.777	0.33
254.993	0.47
255.209	0.48
255.425	0.37
255.641	0.23
255.857	0.44
256.073	0.45
256.288	0.26
256.504	0.33
256.72	0.44
256.936	0.58
257.152	0.29
257.367	0.32
257.583	0.39
257.799	0.5
258.015	0.32
258.23	0.3
258.446	0.54
258.662	0.39
258.877	0.24
259.093	0.28
259.309	0.37
259.524	0.42
259.74	0.31
259.955	0.26
260.171	0.41
260.387	0.41
260.602	0.46
260.818	0.41
261.033	0.33
261.249	0.34
261.464	0.28
261.68	0.24
261.895	0.43
262.11	0.41
262.326	0.29
262.541	0.22
262.757	0.49
262.972	0.35
263.187	0.35
263.403	0.37
263.618	0.47
263.833	0.41
264.049	0.23
264.264	0.36
264.479	0.39
264.694	0.51
264.91	0.2
265.125	0.29
265.34	0.42
265.555	0.57
265.77	0.44
265.986	0.34
266.201	0.42
266.416	0.41
266.631	0.29
266.846	0.32
267.061	0.44
267.276	0.45
267.491	0.2
267.706	0.43
267.921	0.45
268.136	0.47
268.351	0.29
268.566	0.21
268.781	0.41
268.996	0.42
269.211	0.27
269.426	0.24
269.641	0.35
269.856	0.46
270.071	0.25
270.285	0.22
270.5	0.41
270.715	0.44
270.93	0.32
271.145	0.36
271.359	0.48
271.574	0.28
271.789	0.31
272.004	0.29
272.218	0.31
272.433	0.4
272.648	0.3
272.862	0.44
273.077	0.4
273.292	0.39
273.506	0.3
273.721	0.24
273.936	0.35
274.15	0.43
274.365	0.22
274.579	0.31
274.794	0.44
275.008	0.43
275.223	0.23
275.437	0.31
275.652	0.36
275.866	0.43
276.081	0.31
276.295	0.37
276.509	0.33
276.724	0.35
276.938	0.3
277.153	0.41
277.367	0.43
277.581	0.27
277.796	0.19
278.01	0.2
278.224	0.36
278.438	0.42
278.653	0.23
278.867	0.26
279.081	0.13
279.295	0.32
279.51	0.32
279.724	0.14
279.938	0.32
280.152	0.34
280.366	0.24
280.58	0.27
280.794	0.43
281.008	0.27
281.222	0.35
281.437	0.55
281.651	0.35
281.865	0.39
282.079	0.24
282.293	0.16
282.507	0.32
282.721	0.27
282.935	0.28
283.148	0.17
283.362	0.22
283.576	0.18
283.79	0.26
284.004	0.25
284.218	0.41
284.432	0.23
284.646	0.32
284.859	0.23
285.073	0.26
285.287	0.33
285.501	0.28
285.714	0.23
285.928	0.31
286.142	0.32
286.356	0.22
286.569	0.26
286.783	0.37
286.997	0.33
287.21	0.32
287.424	0.25
287.637	0.28
287.851	0.26
288.065	0.31
288.278	0.21
288.492	0.3
288.705	0.27
288.919	0.33
289.132	0.18
289.346	0.32
289.559	0.19
289.773	0.18
289.986	0.3
290.2	0.31
290.413	0.33
290.626	0.26
290.84	0.26
291.053	0.28
291.267	0.4
291.48	0.29
291.693	0.22
291.906	0.25
292.12	0.32
292.333	0.24
292.546	0.25
292.76	0.38
292.973	0.34
293.186	0.35
293.399	0.2
293.612	0.33
293.826	0.25
294.039	0.29
294.252	0.22
294.465	0.34
294.678	0.31
294.891	0.26
295.104	0.19
295.317	0.23
295.53	0.27
295.743	0.25
295.956	0.2
296.169	0.39
296.382	0.31
296.595	0.26
296.808	0.21
297.021	0.36
297.234	0.33
297.447	0.27
297.66	0.27
297.873	0.33
298.086	0.35
298.299	0.22
298.511	0.18
298.724	0.22
298.937	0.25
299.15	0.2
299.363	0.24
299.575	0.34
299.788	0.32
300.001	0.26
300.213	0.19
300.426	0.25
300.639	0.22
300.852	0.19
301.064	0.3
301.277	0.35
301.489	0.27
301.702	0.23
301.915	0.22
302.127	0.27
302.34	0.29
302.552	0.28
302.765	0.21
302.977	0.31
303.19	0.26
303.402	0.22
303.615	0.23
303.827	0.26
304.04	0.26
304.252	0.28
304.464	0.23
304.677	0.37
304.889	0.3
305.102	0.18
305.314	0.17
305.526	0.28
305.739	0.28
305.951	0.23
306.163	0.22
306.375	0.32
306.588	0.22
306.8	0.22
307.012	0.18
307.224	0.24
307.436	0.33
307.649	0.17
307.861	0.24
308.073	0.32
308.285	0.22
308.497	0.21
308.709	0.24
308.921	0.26
309.133	0.34
309.346	0.22
309.558	0.22
309.77	0.3
309.982	0.33
310.194	0.28
310.406	0.23
310.617	0.33
310.829	0.27
311.041	0.31
311.253	0.15
311.465	0.22
311.677	0.29
311.889	0.23
312.101	0.22
312.313	0.27
312.524	0.34
312.736	0.18
312.948	0.19
313.16	0.33
313.372	0.28
313.583	0.25
313.795	0.23
314.007	0.25
314.218	0.33
314.43	0.25
314.642	0.18
314.853	0.18
315.065	0.31
315.277	0.23
315.488	0.26
315.7	0.25
315.912	0.29
316.123	0.24
316.335	0.22
316.546	0.34
316.758	0.31
316.969	0.22
317.181	0.28
317.392	0.28
317.604	0.39
317.815	0.21
318.026	0.2
318.238	0.2
318.449	0.3
318.661	0.15
318.872	0.18
319.083	0.17
319.295	0.29
319.506	0.24
319.717	0.24
319.929	0.29
320.14	0.26
320.351	0.25
320.562	0.19
320.774	0.27
320.985	0.22
321.196	0.23
321.407	0.19
321.618	0.3
321.829	0.25
322.041	0.3
322.252	0.24
322.463	0.29
322.674	0.33
322.885	0.15
323.096	0.23
323.307	0.24
323.518	0.29
323.729	0.21
323.94	0.24
324.151	0.23
324.362	0.29
324.573	0.19
324.784	0.28
324.995	0.28
325.206	0.32
325.417	0.2
325.628	0.2
325.838	0.28
326.049	0.28
326.26	0.29
326.471	0.21
326.682	0.29
326.892	0.28
327.103	0.17
327.314	0.23
327.525	0.31
327.735	0.31
327.946	0.24
328.157	0.19
328.368	0.35
328.578	0.23
328.789	0.29
328.999	0.2
329.21	0.23
329.421	0.3
329.631	0.2
329.842	0.2
330.052	0.28
330.263	0.27
330.473	0.28
330.684	0.21
330.894	0.28
331.105	0.24
331.315	0.21
331.526	0.17
331.736	0.35
331.947	0.29
332.157	0.25
332.367	0.19
332.578	0.26
332.788	0.32
332.999	0.31
333.209	0.23
333.419	0.15
333.629	0.31
333.84	0.27
334.05	0.18
334.26	0.33
334.47	0.25
334.681	0.32
334.891	0.21
335.101	0.25
335.311	0.37
335.521	0.26
335.732	0.19
335.942	0.29
336.152	0.29
336.362	0.23
336.572	0.28
336.782	0.32
336.992	0.2
337.202	0.25
337.412	0.24
337.622	0.29
337.832	0.24
338.042	0.24
338.252	0.22
338.462	0.22
338.672	0.23
338.882	0.27
339.092	0.26
339.302	0.33
339.511	0.26
339.721	0.22
339.931	0.15
340.141	0.35
340.351	0.36
340.561	0.28
340.77	0.27
340.98	0.29
341.19	0.28
341.4	0.26
341.609	0.2
341.819	0.25
342.029	0.24
342.238	0.24
342.448	0.22
342.658	0.28
342.867	0.23
343.077	0.25
343.286	0.22
343.496	0.26
343.706	0.34
343.915	0.22
344.125	0.26
344.334	0.28
344.544	0.24
344.753	0.21
344.963	0.19
345.172	0.22
345.381	0.21
345.591	0.18
345.8	0.24
346.01	0.33
346.219	0.33
346.428	0.1
346.638	0.19
346.847	0.25
347.056	0.34
347.266	0.21
347.475	0.21
347.684	0.31
347.893	0.26
348.103	0.28
348.312	0.18
348.521	0.23
348.73	0.22
348.94	0.26
349.149	0.23
349.358	0.27
349.567	0.23
349.776	0.18
349.985	0.18
350.194	0.3
350.403	0.3
350.612	0.19
350.821	0.2
351.03	0.24
351.239	0.19
351.448	0.23
351.657	0.23
351.866	0.34
352.075	0.26
352.284	0.3
352.493	0.19
352.702	0.34
352.911	0.27
353.12	0.25
353.329	0.21
353.538	0.26
353.746	0.2
353.955	0.18
354.164	0.24
354.373	0.23
354.582	0.27
354.79	0.24
354.999	0.26
355.208	0.22
355.416	0.35
355.625	0.2
355.834	0.2
356.042	0.27
356.251	0.24
356.46	0.15
356.668	0.26
356.877	0.32
357.085	0.29
357.294	0.13
357.503	0.25
357.711	0.23
357.92	0.38
358.128	0.3
358.337	0.21
358.545	0.28
358.754	0.2
358.962	0.32
359.17	0.23
359.379	0.24
359.587	0.25
359.796	0.23
360.004	0.3
360.212	0.29
360.421	0.35
360.629	0.22
360.837	0.16
361.046	0.29
361.254	0.41
361.462	0.22
361.67	0.17
361.879	0.25
362.087	0.31
362.295	0.24
362.503	0.25
362.711	0.19
362.92	0.22
363.128	0.22
363.336	0.18
363.544	0.21
363.752	0.24
363.96	0.23
364.168	0.19
364.376	0.28
364.584	0.26
364.792	0.27
365	0.26
365.208	0.24
365.416	0.28
365.624	0.29
365.832	0.2
366.04	0.33
366.248	0.26
366.456	0.24
366.664	0.24
366.872	0.23
367.079	0.25
367.287	0.24
367.495	0.26
367.703	0.26
367.911	0.23
368.118	0.21
368.326	0.23
368.534	0.19
368.742	0.31
368.949	0.19
369.157	0.23
369.365	0.32
369.572	0.21
369.78	0.19
369.988	0.29
370.195	0.26
370.403	0.3
370.61	0.23
370.818	0.21
371.026	0.34
371.233	0.23
371.441	0.26
371.648	0.24
371.856	0.29
372.063	0.25
372.271	0.24
372.478	0.21
372.685	0.19
372.893	0.3
373.1	0.24
373.308	0.23
373.515	0.34
373.722	0.31
373.93	0.22
374.137	0.28
374.344	0.35
374.552	0.26
374.759	0.26
374.966	0.26
375.173	0.21
375.381	0.32
375.588	0.24
375.795	0.16
376.002	0.23
376.209	0.23
376.417	0.25
376.624	0.27
376.831	0.31
377.038	0.25
377.245	0.15
377.452	0.22
377.659	0.3
377.866	0.23
378.073	0.29
378.28	0.27
378.487	0.27
378.694	0.29
378.901	0.18
379.108	0.19
379.315	0.34
379.522	0.37
379.729	0.28
379.936	0.25
380.143	0.29
380.35	0.25
380.557	0.28
380.763	0.28
380.97	0.28
381.177	0.31
381.384	0.3
381.591	0.22
381.797	0.29
382.004	0.31
382.211	0.29
382.418	0.23
382.624	0.35
382.831	0.36
383.038	0.23
383.244	0.27
383.451	0.29
383.658	0.29
383.864	0.24
384.071	0.25
384.277	0.31
384.484	0.28
384.69	0.33
384.897	0.24
385.103	0.3
385.31	0.23
385.516	0.23
385.723	0.21
385.929	0.3
386.136	0.29
386.342	0.29
386.549	0.19
386.755	0.33
386.961	0.32
387.168	0.28
387.374	0.27
387.58	0.35
387.787	0.29
387.993	0.29
388.199	0.29
388.406	0.26
388.612	0.23
388.818	0.27
389.024	0.24
389.231	0.28
389.437	0.38
389.643	0.35
389.849	0.25
390.055	0.27
390.261	0.32
390.467	0.3
390.674	0.27
390.88	0.3
391.086	0.32
391.292	0.25
391.498	0.31
391.704	0.33
391.91	0.31
392.116	0.25
392.322	0.19
392.528	0.3
392.734	0.27
392.94	0.32
393.146	0.27
393.352	0.29
393.557	0.25
393.763	0.28
393.969	0.36
394.175	0.33
394.381	0.31
394.587	0.23
394.792	0.33
394.998	0.39
395.204	0.37
395.41	0.29
395.615	0.34
395.821	0.38
396.027	0.32
396.233	0.3
396.438	0.35
396.644	0.35
396.85	0.37
397.055	0.29
397.261	0.34
397.466	0.41
397.672	0.32
397.878	0.37
398.083	0.33
398.289	0.32
398.494	0.4
398.7	0.35
398.905	0.24
399.111	0.45
399.316	0.27
399.522	0.35
399.727	0.34
399.932	0.33
400.138	0.34
400.343	0.43
400.549	0.31
400.754	0.32
400.959	0.41
401.165	0.34
401.37	0.38
401.575	0.46
401.78	0.4
401.986	0.37
402.191	0.34
402.396	0.39
402.601	0.41
402.807	0.39
403.012	0.36
403.217	0.45
403.422	0.41
403.627	0.42
403.832	0.36
404.037	0.49
404.243	0.44
404.448	0.37
404.653	0.39
404.858	0.44
405.063	0.43
405.268	0.45
405.473	0.36
405.678	0.41
405.883	0.68
406.088	0.5
406.293	0.38
406.498	0.46
406.703	0.51
406.907	0.46
407.112	0.43
407.317	0.56
407.522	0.59
407.727	0.46
407.932	0.52
408.136	0.66
408.341	0.5
408.546	0.58
408.751	0.6
408.956	0.61
409.16	0.68
409.365	0.59
409.57	0.63
409.774	0.64
409.979	0.76
410.184	0.66
410.388	0.59
410.593	0.74
410.798	0.77
411.002	0.75
411.207	0.78
411.411	0.81
411.616	0.75
411.82	0.8
412.025	0.84
412.229	0.82
412.434	0.92
412.638	0.93
412.843	0.91
413.047	1.04
413.252	0.93
413.456	0.98
413.66	1.05
413.865	1.1
414.069	1.11
414.273	1.11
414.478	1.1
414.682	1.17
414.886	1.22
415.091	1.13
415.295	1.2
415.499	1.38
415.703	1.34
415.908	1.49
416.112	1.36
416.316	1.54
416.52	1.53
416.724	1.54
416.929	1.51
417.133	1.8
417.337	1.72
417.541	1.79
417.745	1.83
417.949	1.94
418.153	2.09
418.357	2.03
418.561	2.23
418.765	2.16
418.969	2.38
419.173	2.37
419.377	2.4
419.581	2.68
419.785	2.64
419.989	2.64
420.193	2.76
420.397	2.89
420.601	3.02
420.804	3.06
421.008	3.02
421.212	3.19
421.416	3.22
421.62	3.23
421.823	3.3
422.027	3.53
422.231	3.5
422.435	3.42
422.638	3.54
422.842	3.68
423.046	3.72
423.249	3.89
423.453	3.87
423.657	4.05
423.86	4.15
424.064	4.22
424.268	4.38
424.471	4.38
424.675	4.68
424.878	4.75
425.082	4.78
425.285	5.13
425.489	5.07
425.692	5.19
425.896	5.21
426.099	5.46
426.303	5.54
426.506	5.64
426.71	5.83
426.913	6.14
427.116	6.23
427.32	6.26
427.523	6.31
427.726	6.71
427.93	6.74
428.133	7.1
428.336	7.29
428.54	7.39
428.743	7.58
428.946	7.82
429.149	7.83
429.353	7.82
429.556	7.92
429.759	8.06
429.962	8.16
430.165	8.25
430.368	7.82
430.571	7.93
430.775	8.03
430.978	8
431.181	8.16
431.384	8.26
431.587	8.26
431.79	8.66
431.993	8.58
432.196	8.87
432.399	9.41
432.602	9.42
432.805	9.48
433.008	9.96
433.211	9.79
433.414	10.21
433.616	10.26
433.819	10.18
434.022	10.42
434.225	10.53
434.428	10.5
434.631	11.07
434.833	10.83
435.036	11.08
435.239	11.27
435.442	11.33
435.645	11.52
435.847	11.55
436.05	11.86
436.253	12.14
436.455	11.96
436.658	11.99
436.861	12.24
437.063	12.41
437.266	12.43
437.468	12.79
437.671	13.02
437.874	13.08
438.076	12.89
438.279	13.35
438.481	13.43
438.684	14.17
438.886	13.68
439.089	14.08
439.291	14.14
439.494	14.45
439.696	14.61
439.899	15.21
440.101	15.55
440.303	15.86
440.506	16.27
440.708	16.06
440.91	16.48
441.113	16.63
441.315	16.69
441.517	16.7
441.72	17.16
441.922	16.86
442.124	16.83
442.326	17.14
442.529	17.33
442.731	17.27
442.933	17.64
443.135	17.5
443.337	17.44
443.539	17.88
443.742	17.61
443.944	18.29
444.146	18.05
444.348	17.97
444.55	17.97
444.752	18.13
444.954	18.02
445.156	18.15
445.358	18.29
445.56	18.65
445.762	18.47
445.964	18.79
446.166	18.57
446.368	18.55
446.57	18.49
446.772	18.12
446.974	17.85
447.175	18.19
447.377	17.9
447.579	18.34
447.781	18.04
447.983	17.69
448.184	17.45
448.386	17.83
448.588	17.39
448.79	17.12
448.991	17.51
449.193	17.48
449.395	16.91
449.597	16.42
449.798	16.38
450	15.82
450.202	15.77
450.403	15.84
450.605	15.73
450.806	15.33
451.008	15.2
451.21	14.98
451.411	14.49
451.613	13.9
451.814	14
452.016	14.08
452.217	13.33
452.419	13.33
452.62	13.03
452.821	12.68
453.023	12.67
453.224	12.26
453.426	11.84
453.627	11.28
453.828	11.28
454.03	11.37
454.231	11.25
454.432	11.12
454.634	10.83
454.835	10.61
455.036	10.35
455.238	10.18
455.439	9.86
455.64	9.54
455.841	9.37
456.042	9.5
456.244	9.18
456.445	8.98
456.646	8.64
456.847	8.67
457.048	8.51
457.249	8.56
457.45	8.37
457.651	7.72
457.852	7.66
458.054	7.29
458.255	7.22
458.456	7.3
458.657	7.23
458.858	6.75
459.058	6.7
459.259	6.77
459.46	6.4
459.661	6.44
459.862	6.57
460.063	6.36
460.264	6.19
460.465	5.89
460.666	6.07
460.866	5.73
461.067	5.57
461.268	5.55
461.469	5.52
461.67	5.41
461.87	5.22
462.071	5.29
462.272	5.19
462.473	5.06
462.673	5.3
462.874	5.16
463.075	5.08
463.275	5.15
463.476	5.19
463.676	5.07
463.877	4.92
464.078	5.04
464.278	4.98
464.479	4.81
464.679	4.74
464.88	4.77
465.08	4.7
465.281	4.51
465.481	4.29
465.682	4.2
465.882	4.2
466.083	4.1
466.283	4.06
466.483	3.89
466.684	3.73
466.884	3.7
467.085	3.66
467.285	3.72
467.485	3.65
467.686	3.56
467.886	3.45
468.086	3.37
468.286	3.37
468.487	3.44
468.687	3.33
468.887	3.29
469.087	3.34
469.287	3.27
469.488	3.08
469.688	3.24
469.888	3.14
470.088	3.13
470.288	3.05
470.488	3.05
470.688	2.86
470.888	2.85
471.088	2.63
471.288	2.83
471.488	2.83
471.688	2.75
471.888	2.68
472.088	2.85
472.288	2.7
472.488	2.61
472.688	2.61
472.888	2.58
473.088	2.58
473.288	2.47
473.488	2.43
473.688	2.58
473.887	2.5
474.087	2.44
474.287	2.47
474.487	2.4
474.687	2.39
474.886	2.34
475.086	2.34
475.286	2.42
475.486	2.32
475.685	2.22
475.885	2.21
476.085	2.3
476.284	2.28
476.484	2.25
476.684	2.19
476.883	2.31
477.083	2.21
477.282	2.17
477.482	2.24
477.681	2.15
477.881	2.08
478.08	2.11
478.28	2.02
478.479	2.13
478.679	2.14
478.878	2.03
479.078	1.99
479.277	2.08
479.477	2.08
479.676	2.02
479.875	2.04
480.075	1.98
480.274	2.08
480.473	2.03
480.673	2.02
480.872	2.09
481.071	2.01
481.271	2.09
481.47	1.97
481.669	2
481.868	1.98
482.067	1.97
482.267	1.9
482.466	1.95
482.665	1.96
482.864	1.93
483.063	1.93
483.262	2.08
483.461	2.05
483.661	2.07
483.86	2.03
484.059	2.03
484.258	2.06
484.457	2.03
484.656	2.04
484.855	2.11
485.054	1.88
485.253	2.03
485.452	1.95
485.651	2.01
485.849	2.04
486.048	1.97
486.247	2.03
486.446	2.08
486.645	2.03
486.844	2.12
487.043	2.06
487.241	2.07
487.44	2.07
487.639	2.17
487.838	2.14
488.037	2.12
488.235	2.28
488.434	2.15
488.633	2
488.831	2.27
489.03	2.23
489.229	2.21
489.427	2.23
489.626	2.29
489.825	2.29
490.023	2.33
490.222	2.26
490.42	2.34
490.619	2.37
490.817	2.41
491.016	2.36
491.214	2.45
491.413	2.44
491.611	2.36
491.81	2.44
492.008	2.45
492.207	2.55
492.405	2.47
492.604	2.47
492.802	2.52
493	2.63
493.199	2.66
493.397	2.61
493.595	2.69
493.794	2.67
493.992	2.78
494.19	2.72
494.388	2.82
494.587	2.72
494.785	2.76
494.983	2.72
495.181	2.83
495.379	2.89
495.578	2.93
495.776	2.92
495.974	2.94
496.172	2.95
496.37	3.11
496.568	3.06
496.766	3.09
496.964	3.16
497.162	3.2
497.36	3.21
497.558	3.21
497.756	3.34
497.954	3.3
498.152	3.33
498.35	3.46
498.548	3.38
498.746	3.4
498.944	3.44
499.142	3.43
499.34	3.57
499.538	3.66
499.736	3.5
499.933	3.62
500.131	3.65
500.329	3.78
500.527	3.76
500.725	3.86
500.922	3.87
501.12	3.82
501.318	3.97
501.516	3.93
501.713	4.05
501.911	3.98
502.109	3.98
502.306	4.08
502.504	3.97
502.701	4.13
502.899	4.15
503.097	4.34
503.294	4.2
503.492	4.35
503.689	4.32
503.887	4.38
504.084	4.46
504.282	4.43
504.479	4.39
504.677	4.59
504.874	4.55
505.072	4.45
505.269	4.69
505.466	4.71
505.664	4.73
505.861	4.57
506.059	4.71
506.256	4.81
506.453	4.85
506.651	4.96
506.848	5.02
507.045	4.97
507.242	4.98
507.44	5.01
507.637	5.04
507.834	5.03
508.031	5.24
508.229	5.19
508.426	5.1
508.623	5.26
508.82	5.29
509.017	5.23
509.214	5.22
509.411	5.36
509.608	5.34
509.805	5.4
510.003	5.47
510.2	5.48
510.397	5.68
510.594	5.53
510.791	5.59
510.988	5.6
511.184	5.61
511.381	5.5
511.578	5.65
511.775	5.86
511.972	5.76
512.169	5.84
512.366	5.83
512.563	5.95
512.76	6.08
512.956	5.98
513.153	5.94
513.35	5.91
513.547	5.91
513.744	6.04
513.94	6.01
514.137	6.12
514.334	6.12
514.53	6.14
514.727	6.35
514.924	6.29
515.12	6.2
515.317	6.3
515.514	6.21
515.71	6.16
515.907	6.45
516.103	6.46
516.3	6.37
516.497	6.48
516.693	6.5
516.89	6.49
517.086	6.53
517.283	6.54
517.479	6.43
517.676	6.6
517.872	6.71
518.068	6.64
518.265	6.62
518.461	6.57
518.658	6.65
518.854	6.66
519.05	6.78
519.247	6.79
519.443	6.78
519.639	6.9
519.836	6.81
520.032	6.77
520.228	6.91
520.424	6.91
520.621	6.92
520.817	6.95
521.013	6.9
521.209	7.15
521.405	7.16
521.601	7.04
521.798	6.97
521.994	7.03
522.19	6.96
522.386	7
522.582	7.07
522.778	7.26
522.974	7.13
523.17	7.09
523.366	7.04
523.562	7.22
523.758	7.23
523.954	7
524.15	7.22
524.346	7.24
524.542	7.29
524.738	7.19
524.934	7.35
525.129	7.28
525.325	7.25
525.521	7.28
525.717	7.49
525.913	7.3
526.109	7.34
526.304	7.47
526.5	7.44
526.696	7.44
526.892	7.37
527.087	7.65
527.283	7.48
527.479	7.48
527.674	7.31
527.87	7.5
528.066	7.47
528.261	7.51
528.457	7.48
528.653	7.64
528.848	7.56
529.044	7.74
529.239	7.52
529.435	7.56
529.63	7.48
529.826	7.56
530.021	7.55
530.217	7.59
530.412	7.58
530.608	7.62
530.803	7.57
530.999	7.57
531.194	7.61
531.389	7.68
531.585	7.73
531.78	7.81
531.975	7.71
532.171	7.81
532.366	7.77
532.561	7.74
532.757	7.71
532.952	7.86
533.147	7.67
533.342	7.79
533.538	7.7
533.733	7.92
533.928	7.6
534.123	7.74
534.318	7.86
534.513	7.74
534.709	7.9
534.904	7.88
535.099	7.93
535.294	7.9
535.489	7.91
535.684	7.79
535.879	7.83
536.074	7.9
536.269	7.92
536.464	8.01
536.659	7.83
536.854	7.93
537.049	7.98
537.244	7.94
537.439	7.89
537.634	7.95
537.828	7.99
538.023	7.93
538.218	7.94
538.413	7.85
538.608	7.96
538.803	7.96
538.997	7.92
539.192	7.93
539.387	7.92
539.582	7.94
539.776	7.86
539.971	7.99
540.166	8.05
540.36	7.91
540.555	8.1
540.75	7.98
540.944	8
541.139	8.01
541.334	8.02
541.528	8.06
541.723	8.08
541.917	8.13
542.112	7.94
542.306	7.85
542.501	7.99
542.695	7.97
542.89	7.99
543.084	8.01
543.279	8.04
543.473	8.02
543.668	8.09
543.862	7.9
544.056	7.94
544.251	8.04
544.445	8.1
544.64	8.15
544.834	7.82
545.028	7.69
545.222	8.04
545.417	8.21
545.611	8.09
545.805	8.06
546	7.92
546.194	8.04
546.388	8.1
546.582	7.96
546.776	8.02
546.97	8.03
547.165	8
547.359	8.06
547.553	7.99
547.747	8.06
547.941	8.29
548.135	8.05
548.329	8.12
548.523	8.06
548.717	8.05
548.911	8
549.105	8.03
549.299	8.1
549.493	8.07
549.687	8.02
549.881	8.2
550.075	8.11
550.269	7.98
550.463	8.17
550.657	8.09
550.85	8.1
551.044	8.03
551.238	8.09
551.432	8.06
551.626	8.12
551.82	8.11
552.013	7.99
552.207	8.2
552.401	8.17
552.594	8.14
552.788	8.01
552.982	8.1
553.176	7.97
553.369	8.24
553.563	8.18
553.756	8.09
553.95	8.12
554.144	8.17
554.337	8.13
554.531	7.99
554.724	8.15
554.918	8.22
555.111	8.1
555.305	8.1
555.498	8.09
555.692	8.23
555.885	8.18
556.079	8.07
556.272	8.13
556.466	8.05
556.659	8.11
556.852	8.16
557.046	8.02
557.239	8.01
557.432	8.08
557.626	8.11
557.819	8.14
558.012	8.11
558.206	8.23
558.399	8.17
558.592	8.04
558.785	8.01
558.979	8.1
559.172	8.12
559.365	8.09
559.558	8.12
559.751	7.99
559.944	8.25
560.138	8.11
560.331	8.16
560.524	8.17
560.717	8.14
560.91	8.18
561.103	8.17
561.296	8
561.489	8.13
561.682	8.24
561.875	8.16
562.068	8.24
562.261	8
562.454	8.26
562.647	8.03
562.84	8.14
563.032	8.15
563.225	8.06
563.418	8.04
563.611	8.15
563.804	8.18
563.997	7.98
564.19	7.88
564.382	8.23
564.575	8.14
564.768	8.06
564.961	8.2
565.153	8.05
565.346	8.01
565.539	8.15
565.731	8.13
565.924	8.21
566.117	8.23
566.309	8.14
566.502	8.05
566.695	7.98
566.887	8.1
567.08	8.14
567.272	8.15
567.465	8.01
567.657	8.11
567.85	8.02
568.042	8.11
568.235	8.13
568.427	7.96
568.62	8.14
568.812	7.98
569.005	8.16
569.197	8.02
569.389	8.06
569.582	8.07
569.774	8.04
569.966	7.91
570.159	7.94
570.351	8.01
570.543	8.05
570.736	8.02
570.928	7.83
571.12	8.01
571.312	7.98
571.505	7.78
571.697	8.06
571.889	8.03
572.081	8.04
572.273	7.9
572.465	7.99
572.658	8.04
572.85	8.05
573.042	8
573.234	7.94
573.426	8.06
573.618	7.95
573.81	8.03
574.002	7.98
574.194	8.04
574.386	7.89
574.578	7.85
574.77	7.91
574.962	8.01
575.154	7.79
575.346	7.84
575.538	7.86
575.729	7.86
575.921	7.9
576.113	8
576.305	7.89
576.497	8
576.689	7.77
576.88	7.76
577.072	7.98
577.264	7.89
577.456	7.9
577.647	7.86
577.839	7.95
578.031	7.86
578.223	7.82
578.414	7.74
578.606	7.79
578.798	7.84
578.989	7.84
579.181	7.85
579.372	7.82
579.564	7.81
579.755	7.8
579.947	7.75
580.139	7.78
580.33	7.65
580.522	7.78
580.713	7.69
580.905	7.72
581.096	7.89
581.287	7.74
581.479	7.72
581.67	7.79
581.862	7.67
582.053	7.75
582.244	7.63
582.436	7.74
582.627	7.7
582.818	7.67
583.01	7.65
583.201	7.69
583.392	7.73
583.583	7.66
583.775	7.48
583.966	7.59
584.157	7.58
584.348	7.72
584.54	7.53
584.731	7.66
584.922	7.52
585.113	7.48
585.304	7.63
585.495	7.53
585.686	7.6
585.877	7.58
586.068	7.66
586.259	7.59
586.45	7.56
586.641	7.45
586.832	7.61
587.023	7.52
587.214	7.46
587.405	7.54
587.596	7.39
587.787	7.43
587.978	7.41
588.169	7.37
588.36	7.38
588.551	7.45
588.742	7.41
588.932	7.42
589.123	7.21
589.314	7.46
589.505	7.33
589.696	7.4
589.886	7.31
590.077	7.35
590.268	7.23
590.458	7.19
590.649	7.13
590.84	7.33
591.03	7.27
591.221	7.3
591.412	7.11
591.602	7.34
591.793	7.25
591.984	7.24
592.174	7.22
592.365	7.32
592.555	7.09
592.746	7.14
592.936	7.15
593.127	7.23
593.317	7.22
593.508	7.2
593.698	7.04
593.889	7.17
594.079	7.01
594.269	7.02
594.46	7
594.65	7.07
594.84	7.09
595.031	6.9
595.221	7.08
595.411	7.02
595.602	7.03
595.792	6.99
595.982	6.82
596.172	7.07
596.363	6.97
596.553	6.89
596.743	6.96
596.933	6.9
597.123	6.96
597.314	6.7
597.504	6.73
597.694	6.9
597.884	6.8
598.074	6.87
598.264	6.82
598.454	6.79
598.644	6.77
598.834	6.78
599.024	6.71
599.214	6.69
599.404	6.76
599.594	6.7
599.784	6.66
599.974	6.75
600.164	6.76
600.354	6.57
600.544	6.55
600.734	6.66
600.924	6.56
601.114	6.53
601.303	6.56
601.493	6.57
601.683	6.62
601.873	6.55
602.063	6.42
602.252	6.51
602.442	6.36
602.632	6.4
602.821	6.39
603.011	6.49
603.201	6.41
603.39	6.35
603.58	6.3
603.77	6.38
603.959	6.51
604.149	6.31
604.339	6.34
604.528	6.4
604.718	6.39
604.907	6.31
605.097	6.25
605.286	6.21
605.476	6.22
605.665	6.25
605.855	6.18
606.044	6.3
606.234	6.23
606.423	6.21
606.612	6.21
606.802	6.09
606.991	6.24
607.181	6.16
607.37	6.09
607.559	5.97
607.749	6.12
607.938	5.96
608.127	6.05
608.316	6.02
608.506	6.04
608.695	6.07
608.884	5.98
609.073	5.96
609.263	6.09
609.452	5.96
609.641	5.9
609.83	5.82
610.019	5.95
610.208	5.81
610.397	5.86
610.586	5.84
610.775	5.76
610.965	5.78
611.154	5.68
611.343	5.87
611.532	5.73
611.721	5.81
611.91	5.7
612.099	5.72
612.287	5.57
612.476	5.63
612.665	5.72
612.854	5.55
613.043	5.66
613.232	5.62
613.421	5.53
613.61	5.53
613.798	5.54
613.987	5.58
614.176	5.55
614.365	5.52
614.554	5.54
614.742	5.57
614.931	5.35
615.12	5.56
615.309	5.46
615.497	5.38
615.686	5.33
615.875	5.35
616.063	5.33
616.252	5.39
616.44	5.38
616.629	5.29
616.818	5.31
617.006	5.24
617.195	5.2
617.383	5.21
617.572	5.18
617.76	5.12
617.949	5.13
618.137	5.27
618.326	5.22
618.514	5.05
618.703	5.02
618.891	5.16
619.079	5.04
619.268	5.22
619.456	5
619.644	5.13
619.833	5.03
620.021	4.99
620.209	4.91
620.398	5.03
620.586	4.96
620.774	4.95
620.962	4.87
621.151	5.04
621.339	4.93
621.527	4.83
621.715	4.85
621.903	4.82
622.092	4.8
622.28	4.98
622.468	4.65
622.656	4.77
622.844	4.8
623.032	4.85
623.22	4.66
623.408	4.77
623.596	4.74
623.784	4.78
623.972	4.62
624.16	4.65
624.348	4.74
624.536	4.64
624.724	4.6
624.912	4.71
625.1	4.64
625.288	4.59
625.476	4.52
625.664	4.61
625.851	4.49
626.039	4.55
626.227	4.51
626.415	4.51
626.603	4.45
626.79	4.49
626.978	4.42
627.166	4.44
627.354	4.29
627.541	4.37
627.729	4.17
627.917	4.46
628.104	4.47
628.292	4.3
628.48	4.3
628.667	4.26
628.855	4.34
629.042	4.29
629.23	4.3
629.418	4.31
629.605	4.23
629.793	4.11
629.98	4.13
630.168	4.16
630.355	4.19
630.543	4.14
630.73	4.02
630.917	4.08
631.105	4.2
631.292	4.16
631.48	4.07
631.667	4.21
631.854	4.04
632.042	4.06
632.229	3.92
632.416	4.01
632.604	3.99
632.791	3.87
632.978	4.02
633.165	3.92
633.353	4
633.54	3.95
633.727	3.81
633.914	3.84
634.101	3.84
634.289	3.92
634.476	3.75
634.663	3.79
634.85	3.79
635.037	3.79
635.224	3.67
635.411	3.87
635.598	3.71
635.785	3.67
635.972	3.67
636.159	3.7
636.346	3.71
636.533	3.65
636.72	3.6
636.907	3.62
637.094	3.66
637.281	3.49
637.468	3.59
637.655	3.58
637.842	3.56
638.029	3.52
638.215	3.54
638.402	3.55
638.589	3.44
638.776	3.51
638.963	3.44
639.149	3.53
639.336	3.56
639.523	3.43
639.709	3.4
639.896	3.35
640.083	3.39
640.27	3.39
640.456	3.33
640.643	3.41
640.829	3.22
641.016	3.33
641.203	3.22
641.389	3.34
641.576	3.33
641.762	3.25
641.949	3.21
642.135	3.25
642.322	3.17
642.508	3.11
642.695	3.2
642.881	3.16
643.068	3.1
643.254	3.16
643.441	3.19
643.627	3.18
643.813	3.08
644	3.1
644.186	3.02
644.372	3.13
644.559	3.11
644.745	3.04
644.931	3
645.118	3.05
645.304	2.98
645.49	2.99
645.676	2.94
645.862	2.93
646.049	3.02
646.235	2.92
646.421	3.03
646.607	3.04
646.793	2.87
646.979	2.87
647.165	2.91
647.352	2.95
647.538	2.87
647.724	2.84
647.91	2.78
648.096	2.81
648.282	2.9
648.468	2.8
648.654	2.8
648.84	2.82
649.026	2.8
649.212	2.69
649.397	2.67
649.583	2.7
649.769	2.78
649.955	2.72
650.141	2.73
650.327	2.74
650.513	2.63
650.698	2.67
650.884	2.54
651.07	2.65
651.256	2.64
651.442	2.6
651.627	2.5
651.813	2.66
651.999	2.53
652.184	2.58
652.37	2.55
652.556	2.52
652.741	2.66
652.927	2.42
653.113	2.45
653.298	2.53
653.484	2.48
653.669	2.42
653.855	2.45
654.04	2.52
654.226	2.46
654.412	2.39
654.597	2.31
654.782	2.42
654.968	2.41
655.153	2.43
655.339	2.38
655.524	2.33
655.71	2.43
655.895	2.38
656.08	2.34
656.266	2.4
656.451	2.36
656.636	2.24
656.822	2.29
657.007	2.27
657.192	2.29
657.378	2.22
657.563	2.21
657.748	2.29
657.933	2.25
658.118	2.15
658.304	2.21
658.489	2.26
658.674	2.23
658.859	2.13
659.044	2.2
659.229	2.26
659.414	2.14
659.599	2.15
659.785	2.1
659.97	2.09
660.155	2.18
660.34	2.13
660.525	2.06
660.71	2.08
660.895	2.15
661.08	2.05
661.264	2
661.449	2.17
661.634	2.05
661.819	2.01
662.004	2
662.189	1.96
662.374	1.93
662.559	1.92
662.743	1.92
662.928	2.01
663.113	1.97
663.298	1.93
663.483	1.94
663.667	1.95
663.852	1.89
664.037	1.97
664.221	1.91
664.406	1.99
664.591	1.93
664.775	1.94
664.96	1.85
665.145	1.89
665.329	1.95
665.514	1.88
665.698	1.77
665.883	1.78
666.068	1.92
666.252	1.85
666.437	1.78
666.621	1.79
666.806	1.89
666.99	1.79
667.174	1.78
667.359	1.86
667.543	1.75
667.728	1.78
667.912	1.66
668.096	1.74
668.281	1.7
668.465	1.8
668.649	1.71
668.834	1.63
669.018	1.72
669.202	1.67
669.387	1.69
669.571	1.76
669.755	1.6
669.939	1.66
670.124	1.71
670.308	1.72
670.492	1.68
670.676	1.6
670.86	1.59
671.044	1.56
671.228	1.68
671.413	1.53
671.597	1.59
671.781	1.62
671.965	1.62
672.149	1.57
672.333	1.58
672.517	1.56
672.701	1.6
672.885	1.55
673.069	1.46
673.253	1.65
673.437	1.48
673.621	1.53
673.804	1.5
673.988	1.57
674.172	1.52
674.356	1.38
674.54	1.5
674.724	1.65
674.908	1.5
675.091	1.58
675.275	1.53
675.459	1.51
675.643	1.54
675.826	1.5
676.01	1.42
676.194	1.43
676.377	1.47
676.561	1.48
676.745	1.42
676.928	1.49
677.112	1.54
677.296	1.33
677.479	1.39
677.663	1.36
677.846	1.42
678.03	1.37
678.213	1.32
678.397	1.37
678.58	1.36
678.764	1.31
678.947	1.3
679.131	1.37
679.314	1.39
679.498	1.33
679.681	1.35
679.865	1.41
680.048	1.29
680.231	1.26
680.415	1.27
680.598	1.36
680.781	1.24
680.965	1.27
681.148	1.29
681.331	1.26
681.514	1.31
681.698	1.17
681.881	1.28
682.064	1.23
682.247	1.23
682.43	1.15
682.614	1.26
682.797	1.29
682.98	1.24
683.163	1.14
683.346	1.24
683.529	1.21
683.712	1.13
683.895	1.23
684.078	1.14
684.261	1.19
684.444	1.22
684.627	1.22
684.81	1.14
684.993	1.13
685.176	1.16
685.359	1.08
685.542	1.13
685.725	1.29
685.908	1.15
686.091	1.13
686.274	1.22
686.457	1.21
686.639	1.14
686.822	1.19
687.005	1.11
687.188	1.21
687.371	1.29
687.553	1.13
687.736	1.08
687.919	1.23
688.102	1.18
688.284	1.08
688.467	1.07
688.65	1.11
688.832	0.97
689.015	1.07
689.197	1
689.38	1.14
689.563	1.16
689.745	0.95
689.928	1.01
690.11	1.02
690.293	1.07
690.475	0.94
690.658	0.98
690.84	1.03
691.023	0.98
691.205	0.97
691.388	0.97
691.57	1.06
691.752	0.99
691.935	0.91
692.117	0.92
692.3	1.03
692.482	0.97
692.664	0.99
692.847	0.98
693.029	1.04
693.211	1
693.393	0.89
693.576	0.85
693.758	0.97
693.94	0.92
694.122	0.95
694.304	0.88
694.487	0.89
694.669	0.96
694.851	0.85
695.033	0.78
695.215	0.93
695.397	0.84
695.579	0.89
695.761	0.85
695.943	0.81
696.125	0.94
696.308	0.93
696.49	0.76
696.671	1.08
696.853	0.86
697.035	1.12
697.217	0.85
697.399	1.01
697.581	0.78
697.763	0.84
697.945	0.81
698.127	0.93
698.309	0.94
698.491	0.93
698.672	0.93
698.854	0.92
699.036	0.93
699.218	0.84
699.399	0.9
699.581	0.86
699.763	0.8
699.945	0.74
700.126	0.72
700.308	0.85
700.49	0.84
700.671	0.69
700.853	0.77
701.035	0.78
701.216	0.78
701.398	0.7
701.579	0.77
701.761	0.83
701.943	0.76
702.124	0.78
702.306	0.75
702.487	0.95
702.669	0.83
702.85	0.77
703.031	0.69
703.213	0.89
703.394	0.81
703.576	0.74
703.757	0.92
703.938	0.82
704.12	0.98
704.301	0.74
704.483	0.69
704.664	0.72
704.845	0.87
705.026	0.76
705.208	0.7
705.389	0.79
705.57	0.79
705.751	0.66
705.933	0.73
706.114	0.84
706.295	0.75
706.476	0.65
706.657	0.83
706.838	0.78
707.02	0.8
707.201	0.67
707.382	0.71
707.563	0.74
707.744	0.72
707.925	0.65
708.106	0.64
708.287	0.66
708.468	0.9
708.649	0.67
708.83	0.69
709.011	0.66
709.192	0.77
709.373	0.61
709.554	0.73
709.734	0.78
709.915	0.79
710.096	0.67
710.277	0.52
710.458	0.69
710.639	0.64
710.819	0.55
711	0.58
711.181	0.75
711.362	0.78
711.542	0.64
711.723	0.67
711.904	0.79
712.085	0.69
712.265	0.69
712.446	0.53
712.627	0.6
712.807	0.66
712.988	0.64
713.168	0.48
713.349	0.68
713.53	0.49
713.71	0.54
713.891	0.58
714.071	0.55
714.252	0.53
714.432	0.54
714.613	0.49
714.793	0.63
714.974	0.68
715.154	0.71
715.334	0.67
715.515	0.74
715.695	0.53
715.876	0.62
716.056	0.51
716.236	0.55
716.417	0.54
716.597	0.56
716.777	0.82
716.957	0.55
717.138	0.57
717.318	0.52
717.498	0.51
717.678	0.6
717.859	0.64
718.039	0.48
718.219	0.65
718.399	0.55
718.579	0.47
718.759	0.45
718.939	0.55
719.12	0.65
719.3	0.56
719.48	0.43
719.66	0.48
719.84	0.67
720.02	0.57
720.2	0.5
720.38	0.54
720.56	0.75
720.74	0.4
720.92	0.59
721.1	0.71
721.279	0.64
721.459	0.61
721.639	0.43
721.819	0.55
721.999	0.51
722.179	0.6
722.359	0.46
722.538	0.49
722.718	0.56
722.898	0.5
723.078	0.53
723.257	0.47
723.437	0.59
723.617	0.55
723.797	0.5
723.976	0.48
724.156	0.62
724.336	0.6
724.515	0.74
724.695	0.4
724.874	0.58
725.054	0.63
725.234	0.48
725.413	0.51
725.593	0.49
725.772	0.53
725.952	0.44
726.131	0.5
726.311	0.57
726.49	0.47
726.67	0.39
726.849	0.43
727.028	0.51
727.208	0.4
727.387	0.55
727.567	0.34
727.746	0.51
727.925	0.47
728.105	0.34
728.284	0.48
728.463	0.36
728.643	0.57
728.822	0.37
729.001	0.5
729.18	0.48
729.359	0.6
729.539	0.46
729.718	0.5
729.897	0.57
730.076	0.48
730.255	0.45
730.434	0.56
730.614	0.54
730.793	0.53
730.972	0.41
731.151	0.44
731.33	0.57
731.509	0.57
731.688	0.46
731.867	0.37
732.046	0.32
732.225	0.65
732.404	0.42
732.583	0.39
732.762	0.46
732.941	0.56
733.12	0.47
733.298	0.49
733.477	0.65
733.656	0.43
733.835	0.37
734.014	0.52
734.193	0.52
734.371	0.58
734.55	0.57
734.729	0.38
734.908	0.45
735.086	0.51
735.265	0.5
735.444	0.34
735.623	0.4
735.801	0.36
735.98	0.42
736.159	0.41
736.337	0.57
736.516	0.53
736.694	0.42
736.873	0.43
737.052	0.69
737.23	0.68
737.409	0.38
737.587	0.67
737.766	0.4
737.944	0.48
738.123	0.55
738.301	0.55
738.479	0.54
738.658	0.54
738.836	0.17
739.015	0.5
739.193	0.6
739.371	0.35
739.55	0.49
739.728	0.3
739.906	0.6
740.085	0.68
740.263	0.44
740.441	0.22
740.62	0.73
740.798	0.64
740.976	0.32
741.154	0.26
741.332	0.57
741.511	0.5
741.689	0.48
741.867	0.48
742.045	0.5
742.223	0.41
742.401	0.25
742.579	0.34
742.757	0.39
742.935	0.33
743.114	0.31
743.292	0.46
743.47	0.52
743.648	0.55
743.826	0.25
744.004	0.49
744.181	0.55
744.359	0.46
744.537	0.51
744.715	0.31
744.893	0.36
745.071	0.35
745.249	0.26
745.427	0.45
745.605	0.53
745.782	0.38
745.96	0.5
746.138	0.52
746.316	0.51
746.493	0.37
746.671	0.33
746.849	0.37
747.027	0.6
747.204	0.33
747.382	0.45
747.56	0.29
747.737	0.31
747.915	0.36
748.093	0.55
748.27	0.34
748.448	0.36
748.625	0.34
748.803	0.29
748.98	0.31
749.158	0.44
749.335	0.47
749.513	0.45
749.69	0.25
749.868	0.44
750.045	0.36
750.223	0.39
750.4	0.12
750.578	0.67
750.755	0.45
750.932	0.18
751.11	0.46
751.287	0.37
751.464	0.58
751.642	0.29
751.819	0.42
751.996	0.42
752.173	0.37
752.351	0.29
752.528	0.36
752.705	0.33
752.882	0.36
753.06	0.34
753.237	0.43
753.414	0.62
753.591	0.73
753.768	0.46
753.945	0.31
754.122	0.35
754.299	0.56
754.476	0.25
754.654	0.36
754.831	0.45
755.008	0.43
755.185	0.23
755.362	0.28
755.539	0.36
755.716	0.35
755.892	0.41
756.069	0.27
756.246	0.35
756.423	0.42
756.6	0.52
756.777	0.33
756.954	0.57
757.131	0.39
757.307	0.34
757.484	0.16
757.661	0.32
757.838	0.39
758.015	0.16
758.191	0.42
758.368	0.46
758.545	0.68
758.721	0.47
758.898	0.18
759.075	0.4
759.251	0.39
759.428	0.49
759.605	0.04
759.781	0.39
759.958	0.36
760.134	0.42
760.311	0.25
760.488	0.56
760.664	0.5
760.841	0.24
761.017	0.21
761.194	0.51
761.37	0.48
761.547	0.32
761.723	0.27
761.899	0.58
762.076	0.24
762.252	0.27
762.429	0.23
762.605	0.55
762.781	0.22
762.958	0.48
763.134	0.28
763.31	0.32
763.486	0.37
763.663	0.07
763.839	0.34
764.015	0.15
764.191	0.45
764.368	0.21
764.544	0.3
764.72	0.33
764.896	0.46
765.072	0.35
765.248	0.28
765.425	0.31
765.601	0.34
765.777	0.31
765.953	0.09
766.129	0.27
766.305	0.31
766.481	0.48
766.657	0.28
766.833	0.69
767.009	0.17
767.185	0.22
767.361	0.26
767.537	0.29
767.713	0.49
767.889	0.25
768.065	0.39
768.24	0.44
768.416	0.38
768.592	0.25
768.768	0.28
768.944	0.41
769.12	0.32
769.295	0.32
769.471	0.35
769.647	0.42
769.823	0.45
769.998	0.28
770.174	0.41
770.35	0.81
770.525	0.62
770.701	0.22
770.877	0.33
771.052	0.16
771.228	0.48
771.403	0.43
771.579	0.29
771.755	0.68
771.93	0.43
772.106	0.25
772.281	0.06
772.457	0.37
772.632	0.45
772.808	0.04
772.983	0.2
773.159	0.14
773.334	0.6
773.509	0.31
773.685	0.04
773.86	0.85
774.036	0.51
774.211	0.42
774.386	0.33
774.562	0.44
774.737	0.58
774.912	0.31
775.087	0.57
775.263	0.23
775.438	0.33
775.613	0.31
775.788	0.34
775.964	0.52
776.139	0.7
776.314	0.04
776.489	0.4
776.664	0.43
776.839	0.17
777.014	0.6
777.19	0.56
777.365	0.69
777.54	0.71
777.715	0.21
777.89	0.39
778.065	0.25
778.24	0.34
778.415	0.5
778.59	0.13
778.765	0.24
778.94	0.5
779.115	0.42
779.289	0.23
779.464	0.45
779.639	0.39
779.814	0.05
779.989	0.3
780.164	0.71
780.339	0.39
780.513	0.28
780.688	0.11
780.863	0.41
781.038	0.65
781.212	0.19
781.387	0.41
781.562	0.66
781.737	0.33
781.911	0.57
782.086	0.23
782.261	0.2
782.435	0.67
782.61	0.29
782.784	0.58
782.959	0.78
783.134	0.22
783.308	0.07
783.483	0.34
783.657	0.86
783.832	0.53
784.006	-0.27
784.181	0.47
784.355	0.46
784.53	0.09
784.704	0.37
784.878	0.69
785.053	0.46
785.227	0.8
785.402	0.64
785.576	0.2
785.75	0.42
785.925	0.27
786.099	0.56
786.273	0.42
786.448	0.55
786.622	0.73
786.796	0.25
786.97	0.48
787.145	0.95
787.319	-0.04
787.493	0.27
787.667	-0.17
787.841	0.4
788.015	0.91
788.19	0.21
788.364	0.33
788.538	0.68
788.712	0.59
788.886	0.5
789.06	0.54
789.234	0.62
789.408	0.18
789.582	0.36
789.756	0.27
789.93	0.15
790.104	0.43
790.278	0.33
790.452	0.23
790.626	0.53
790.8	0.23
790.973	0.57
791.147	0.78
791.321	0.91
791.495	0.68
791.669	0.53
791.843	0.65
792.016	0.5
792.19	0.99
792.364	0.3
792.538	1.23
792.711	0.56
792.885	0.24
793.059	0.08
793.233	0.1
793.406	0.72
793.58	0.38
793.754	0.48
793.927	0.42
794.101	0.78
794.274	0.37
794.448	0.66
794.622	0.08
794.795	1.02
794.969	0.18
795.142	0.79
795.316	0.15
795.489	0.28
795.663	0.83
795.836	0.55
796.009	0.37
796.183	0.78
796.356	0.38
796.53	0.67
796.703	0.4
796.876	1.02
797.05	0.35
797.223	0.36
797.396	0.56
797.57	0.45
797.743	0.85
797.916	0.47
798.09	0.56
798.263	0.93
798.436	0.7
798.609	0.11
798.782	0.49
798.956	0.66
799.129	0.53
799.302	0.23
799.475	0.31
799.648	0.44
799.821	0.18
799.994	0.29
800.167	-0.05
800.34	0.69
800.514	0.48
800.687	0.16
800.86	0.04
801.033	0.67
801.206	0.67
801.379	0.17
801.551	0.77
801.724	0.77
801.897	1.16
802.07	0.34
802.243	0.09
802.416	0.43
802.589	0.14
802.762	0.75
802.935	0.47
803.107	0.87
803.28	1.35
803.453	0.83
803.626	0.46
803.798	0.47
803.971	0.09
804.144	0.44
804.317	0.76
804.489	0.91
804.662	0.58
804.835	0.64
805.007	0.3
805.18	1.07
805.353	0.82
805.525	0.05
805.698	0.37
805.87	0.78
806.043	0.8
806.215	0.02
806.388	0.2
806.56	0.81
806.733	1.06
806.905	0.69
807.078	0.42
807.25	0.43
807.423	0.73
807.595	0.5
807.768	0.37
807.94	0.78
808.112	0.56
808.285	0.8
808.457	0.06
808.629	0.99
808.802	0.89
808.974	1
809.146	0.33
809.318	0.23
809.491	0.71
809.663	0.75
809.835	0.18
810.007	0.78
810.18	0.57
810.352	0.13
810.524	0.42
810.696	0.96
810.868	0.96
811.04	0.57
811.212	0.45
811.384	0.89
811.556	0.89
811.728	0.53
811.901	1.69
812.073	0.37
812.245	0.99
812.417	0.51
812.589	-0.17
812.76	0.71
812.932	0.8
813.104	0.71
813.276	0.49
813.448	1.05
813.62	0.47
813.792	0.66
813.964	0.47
814.136	0.73
814.307	0.54
814.479	0.01
814.651	0.25
814.823	2
814.995	0.41
815.166	0.89
815.338	0.45
815.51	0
815.681	2.13
815.853	0.96
816.025	0.24
816.196	1.31
816.368	0.91
816.54	0.19
816.711	0.07
816.883	1.1
817.054	2.12
817.226	-0.16
817.398	1.13
817.569	0.49
817.741	0.57
817.912	0.24
818.084	0.41
818.255	0.89
818.426	0.46
818.598	0.52
818.769	0.12
818.941	1.24
819.112	1.46
819.283	0.89
819.455	0.4
819.626	0.92
819.798	0.98
819.969	0.65
820.14	0.48
820.311	0.45
820.483	0.87
820.654	1.04
820.825	0.64
820.996	0.57
821.168	0.17
821.339	0.33
821.51	0.06
821.681	0.83
821.852	0.79
822.023	0.3
822.195	-0.33
822.366	1.46
822.537	0.26
822.708	1.08
822.879	-0.05
823.05	1.18
823.221	0.53
823.392	0.16
823.563	0.29
823.734	0.95
823.905	0.6
824.076	0.45
824.247	0.06
824.418	0.29
824.589	1.42
824.759	0.82
824.93	0.37
825.101	-0.14
825.272	1.72
825.443	1.83
825.614	1.52
825.784	-0.04
825.955	1.91
826.126	1.21
826.297	0.83
826.467	2.34
826.638	1.93
826.809	-0.1
826.98	0.69
827.15	1.26
827.321	1.07
827.492	1.9
827.662	0.76
827.833	2.41
828.003	1.17
828.174	0.14
828.345	0.38
828.515	1.7
828.686	0.75
828.856	0.25
829.027	0.69
829.197	0.83
829.368	1.48
829.538	0.74
829.709	0.43
829.879	0.69
830.049	0.78
830.22	0.38
830.39	0.65
830.56	1.5
830.731	0.49
830.901	0.19
831.072	0.33
831.242	1.21
831.412	0.9
831.582	0.34
831.753	-0.71
831.923	1.64
832.093	1.29
832.263	0.69
832.434	-0.61
832.604	0.97
832.774	1.42
832.944	0.79
833.114	0.18
833.284	0.94
833.454	0.57
833.624	0.74
833.795	0.52
833.965	2.16
834.135	2.09
834.305	-0.56
834.475	0.25
834.645	1.29
834.815	0.53
834.985	-0.14
835.155	-0.17
835.325	1.32
835.494	1.44
835.664	0.1
835.834	-0.17
836.004	1.3
836.174	1.2
836.344	0.91
836.514	0.18
836.684	0.44
836.853	0.86
837.023	0.62
837.193	-0.25
837.363	2.03
837.532	1.85
837.702	0.6
837.872	0.27
838.041	1.54
838.211	2.86
838.381	-0.02
838.55	0.16
838.72	3.19
838.89	2.25
839.059	1.33
839.229	0.28
839.398	3.09
839.568	1.23
839.738	0.57
839.907	2.3
840.077	0.98
840.246	0.29
840.416	0.47
840.585	0.04
840.755	2.48
840.924	1.91
841.093	1.02
841.263	-0.26
841.432	1.1
841.602	0.59
841.771	0.58
841.94	0.66
842.11	4.06
842.279	3.23
842.448	-0.14
842.617	0.15
842.787	2.78
842.956	-0.03
843.125	0.06
843.294	1.63
843.464	1.74
843.633	1.42
843.802	-0.25
843.971	1.15
844.14	1.99
844.309	2.31
844.479	-1.05
844.648	0.49
844.817	0.41
844.986	1.36
845.155	0.75
845.324	0.54
845.493	-0.11
845.662	0.3
845.831	2.23
846	0.9
846.169	0.35
846.338	2.68
846.507	0.9
846.676	0.76
846.844	0.56
847.013	1.98
847.182	1.9
847.351	1.08
847.52	1.47
847.689	1.28
847.858	0.04
848.026	-0.09
848.195	0.98
848.364	0.66
848.533	-0.11
848.701	0.34
848.87	1.9
849.039	2.01
849.207	1.86
849.376	2.47
849.545	3.49
849.713	0.55
849.882	1.44
850.051	0.58
850.219	0.74
850.388	1.27
850.556	-0.1
850.725	1.04
850.893	1.91
851.062	0.37
851.23	1.22
851.399	-0.34
851.567	0.87
851.736	1.53
851.904	-0.5
852.073	1.41
852.241	1.27
852.41	0.7
852.578	0.14
852.746	1.25
852.915	1.42
853.083	1.77
853.251	-0.35
853.42	0.2
853.588	1.34
853.756	2
853.924	1.2
854.093	1.11
854.261	0.87
854.429	-0.48
854.597	0.47
854.765	0.88
854.934	2.04
855.102	2.87
855.27	1.02
855.438	2.28
855.606	2.38
855.774	3.39
855.942	-1.07
856.11	-0.32
856.278	1.41
856.446	3.56
856.614	1
856.782	0.45
856.95	3.26
857.118	1.9
857.286	1.21
857.454	-0.66
857.622	2.72
857.79	2.18
857.958	0.63
858.126	0.72
858.294	-1.65
858.462	1.14
858.629	1.34
858.797	0.65
858.965	1.98
859.133	1.74
859.301	0.02
859.468	0.77
859.636	2.13
859.804	4.22
859.971	2.35
860.139	1.11
860.307	2.15
860.474	1.29
860.642	-0.31
860.81	-0.01
860.977	0.85
861.145	4.08
861.313	1.7
861.48	0.32
861.648	3.16
861.815	1.78
861.983	0.55
862.15	0.79
862.318	2.88
862.485	3.87
862.653	0.33
862.82	0.15
862.988	3.76
863.155	2.21
863.322	-0.15
863.49	-0.92
863.657	0.6
863.824	3.49
863.992	2.54
864.159	1.33
864.326	4.27
864.494	0.28
864.661	3.47
864.828	-1.33
864.996	3.23
865.163	3.78
865.33	-0.35
865.497	-2.76
865.664	0.86
865.832	-0.1
865.999	0.53
866.166	-0.92
866.333	1.34
866.5	0.81
866.667	2.34
866.834	1.84
867.001	4.13
867.168	-0.03
867.335	0.5
867.502	-1.01
867.669	2.18
867.836	6.98
868.003	1.36
868.17	2.63
868.337	5.38
868.504	5.39
868.671	-1.79
868.838	1.16
869.005	4.02
869.172	1.85
869.339	1.68
869.505	1.97
869.672	1.36
869.839	3.23
870.006	1.32
870.173	-0.74
870.339	2.7
870.506	6.13
870.673	0.35
870.84	1.25
871.006	1.17
871.173	1.4
871.34	0.57
871.506	-0.22
871.673	2.65
871.839	-1.55
872.006	0.43
872.173	0.77
872.339	3.37
872.506	3.93
872.672	1.68
872.839	-0.5
873.005	0.13
873.172	5.07
873.338	3.17
873.505	2.13
873.671	2.96
873.838	2.37
874.004	-2.98
874.171	1.79
874.337	2.5
874.503	2.53
874.67	1.33
874.836	1.47
875.002	5.25
875.169	3.32
875.335	1.22
875.501	0.04
875.668	3.61
875.834	2
876	1.64
876.166	4.65
876.332	4.29
876.499	5.58
876.665	1.78
876.831	1.83
876.997	5.03
877.163	3.42
877.329	1.41
877.495	0.6
877.662	3.94
877.828	1.9
877.994	1.6
878.16	-2.38
878.326	2.2
878.492	2.81
878.658	0.37
878.824	2.43
878.99	3.09
879.156	2.25
879.322	4.95
879.487	1.61
879.653	0.77
879.819	2.57
879.985	0.2
880.151	3.1
880.317	3.94
880.483	1.05
880.648	4.01
880.814	-1.59
880.98	1.01
881.146	-0.36
881.312	0
881.477	-0.23
881.643	1.15
881.809	3.11
881.974	3.57
882.14	-2.29
882.306	1.77
882.471	6.27
882.637	0.51
882.803	2.88
882.968	6.23
883.134	6.71
883.299	2.94
883.465	1.57
883.63	2.57
883.796	3.77
883.961	1.51
884.127	2.49
884.292	-2.9
884.458	-0.02
884.623	-0.02
