Data from Apollo_Calib_20240827__AbsoluteIrradiance__17__23-26-01-036.txt Node

Date: Tue Aug 27 23:26:01 BST 2024
User: biology
Spectrometer: FLMT08252
Trigger mode: 0
Integration Time (sec): 5.000000E-1
Scans to average: 5
Electric dark correction enabled: true
Nonlinearity correction enabled: false
Boxcar width: 0
XAxis mode: Wavelengths
Number of Pixels in Spectrum: 3648
>>>>>Begin Spectral Data<<<<<
179.588	-0
179.809	-0
180.03	-0
180.251	-0
180.473	-0
180.694	0
180.915	0
181.136	-0
181.357	0
181.578	-0
181.799	-0
182.02	-0
182.241	-0
182.462	-0
182.683	0
182.904	-0
183.125	-0
183.346	0
183.567	0
183.788	0
184.009	0
184.23	0
184.451	0
184.672	0
184.892	0
185.113	0
185.334	0
185.555	0
185.776	0
185.996	0
186.217	0
186.438	0
186.659	0
186.879	0
187.1	0
187.321	0
187.541	0
187.762	0
187.983	0
188.203	0
188.424	0
188.644	0
188.865	0
189.086	0
189.306	0
189.527	0
189.747	0
189.968	0
190.188	0
190.409	0
190.629	0
190.849	0
191.07	0
191.29	0
191.511	0
191.731	0
191.951	0
192.172	0
192.392	0
192.612	0
192.833	0
193.053	0
193.273	0
193.493	0
193.714	0
193.934	0
194.154	0
194.374	0
194.594	0
194.815	0
195.035	0
195.255	0
195.475	0
195.695	0
195.915	0
196.135	0
196.355	0
196.575	0
196.795	0
197.015	0
197.235	0
197.455	0
197.675	0
197.895	0
198.115	0
198.335	0
198.555	0
198.775	0
198.995	0
199.214	0
199.434	0
199.654	0
199.874	0
200.094	4.03
200.313	2.63
200.533	2.78
200.753	1.87
200.973	3.08
201.192	2.91
201.412	1.66
201.632	2.27
201.851	2.9
202.071	1.79
202.291	2.16
202.51	2.12
202.73	2.59
202.95	2.25
203.169	1.71
203.389	2.39
203.608	2.1
203.828	1.46
204.047	2.01
204.267	2.23
204.486	1.59
204.706	2.02
204.925	2
205.145	1.71
205.364	2.19
205.583	2.59
205.803	1.69
206.022	1.52
206.242	1.54
206.461	2.13
206.68	0.99
206.9	1.74
207.119	1.89
207.338	2.23
207.557	1.61
207.777	1.51
207.996	1.02
208.215	1.89
208.434	1.15
208.654	1.5
208.873	1.28
209.092	1.88
209.311	1.47
209.53	1.06
209.749	1.38
209.968	1.06
210.187	1.31
210.407	1.01
210.626	1.27
210.845	1.53
211.064	1.25
211.283	1.03
211.502	1.45
211.721	1.05
211.94	1.26
212.159	1.24
212.377	1.21
212.596	1.48
212.815	1.14
213.034	1.27
213.253	1.33
213.472	1.3
213.691	1.08
213.91	0.81
214.128	0.93
214.347	1.34
214.566	0.66
214.785	0.74
215.003	1.23
215.222	1.29
215.441	1.04
215.66	0.86
215.878	1.01
216.097	1.19
216.316	0.69
216.534	1.03
216.753	0.84
216.972	0.77
217.19	0.92
217.409	0.68
217.627	0.65
217.846	0.85
218.064	0.97
218.283	0.7
218.501	1.25
218.72	1.04
218.938	0.72
219.157	0.76
219.375	1.04
219.594	0.73
219.812	0.67
220.031	0.69
220.249	1.25
220.467	1.07
220.686	0.7
220.904	0.61
221.122	0.63
221.341	1.15
221.559	0.84
221.777	0.69
221.995	0.82
222.214	0.84
222.432	0.72
222.65	1.09
222.868	0.82
223.086	0.77
223.305	0.94
223.523	0.57
223.741	0.87
223.959	0.65
224.177	0.46
224.395	0.68
224.613	0.9
224.831	0.91
225.049	0.41
225.267	0.69
225.485	0.88
225.703	0.72
225.921	0.58
226.139	0.61
226.357	0.83
226.575	0.68
226.793	0.59
227.011	1.19
227.229	0.69
227.447	0.83
227.665	0.43
227.883	0.38
228.1	0.62
228.318	0.67
228.536	0.45
228.754	0.56
228.972	0.7
229.189	0.79
229.407	0.48
229.625	0.78
229.843	0.74
230.06	0.74
230.278	0.45
230.496	0.58
230.713	0.62
230.931	0.69
231.149	0.58
231.366	0.39
231.584	0.56
231.801	0.93
232.019	0.44
232.236	0.49
232.454	0.54
232.671	0.58
232.889	0.5
233.106	0.61
233.324	0.55
233.541	0.61
233.759	0.63
233.976	0.52
234.194	0.6
234.411	0.59
234.628	0.36
234.846	0.42
235.063	0.52
235.28	0.51
235.498	0.57
235.715	0.49
235.932	0.66
236.149	0.46
236.367	0.46
236.584	0.46
236.801	0.51
237.018	0.57
237.236	0.5
237.453	0.54
237.67	0.61
237.887	0.51
238.104	0.48
238.321	0.46
238.538	0.43
238.755	0.62
238.973	0.33
239.19	0.52
239.407	0.47
239.624	0.52
239.841	0.37
240.058	0.44
240.275	0.48
240.492	0.47
240.709	0.61
240.925	0.38
241.142	0.52
241.359	0.41
241.576	0.43
241.793	0.39
242.01	0.43
242.227	0.6
242.444	0.56
242.66	0.59
242.877	0.44
243.094	0.38
243.311	0.58
243.527	0.42
243.744	0.49
243.961	0.61
244.178	0.43
244.394	0.4
244.611	0.57
244.828	0.55
245.044	0.44
245.261	0.44
245.477	0.46
245.694	0.49
245.911	0.39
246.127	0.43
246.344	0.58
246.56	0.51
246.777	0.43
246.993	0.42
247.21	0.36
247.426	0.52
247.643	0.34
247.859	0.43
248.076	0.42
248.292	0.58
248.508	0.37
248.725	0.43
248.941	0.51
249.157	0.46
249.374	0.36
249.59	0.42
249.806	0.33
250.023	0.46
250.239	0.33
250.455	0.3
250.671	0.43
250.888	0.47
251.104	0.51
251.32	0.39
251.536	0.3
251.752	0.4
251.969	0.46
252.185	0.42
252.401	0.6
252.617	0.42
252.833	0.33
253.049	0.4
253.265	0.45
253.481	0.47
253.697	0.38
253.913	0.37
254.129	0.43
254.345	0.35
254.561	0.41
254.777	0.38
254.993	0.5
255.209	0.41
255.425	0.39
255.641	0.32
255.857	0.42
256.073	0.36
256.288	0.33
256.504	0.38
256.72	0.38
256.936	0.46
257.152	0.4
257.367	0.37
257.583	0.36
257.799	0.43
258.015	0.42
258.23	0.33
258.446	0.49
258.662	0.41
258.877	0.28
259.093	0.41
259.309	0.42
259.524	0.39
259.74	0.38
259.955	0.23
260.171	0.4
260.387	0.35
260.602	0.43
260.818	0.43
261.033	0.33
261.249	0.41
261.464	0.37
261.68	0.29
261.895	0.37
262.11	0.45
262.326	0.31
262.541	0.24
262.757	0.41
262.972	0.43
263.187	0.39
263.403	0.35
263.618	0.45
263.833	0.28
264.049	0.26
264.264	0.38
264.479	0.4
264.694	0.43
264.91	0.29
265.125	0.4
265.34	0.42
265.555	0.55
265.77	0.35
265.986	0.37
266.201	0.46
266.416	0.47
266.631	0.35
266.846	0.38
267.061	0.44
267.276	0.39
267.491	0.21
267.706	0.32
267.921	0.4
268.136	0.37
268.351	0.42
268.566	0.25
268.781	0.44
268.996	0.44
269.211	0.42
269.426	0.3
269.641	0.26
269.856	0.45
270.071	0.26
270.285	0.27
270.5	0.43
270.715	0.4
270.93	0.33
271.145	0.35
271.359	0.42
271.574	0.28
271.789	0.38
272.004	0.42
272.218	0.33
272.433	0.37
272.648	0.29
272.862	0.42
273.077	0.32
273.292	0.35
273.506	0.29
273.721	0.37
273.936	0.37
274.15	0.38
274.365	0.27
274.579	0.4
274.794	0.35
275.008	0.37
275.223	0.22
275.437	0.33
275.652	0.43
275.866	0.35
276.081	0.3
276.295	0.37
276.509	0.29
276.724	0.37
276.938	0.33
277.153	0.31
277.367	0.36
277.581	0.23
277.796	0.3
278.01	0.28
278.224	0.37
278.438	0.48
278.653	0.24
278.867	0.32
279.081	0.35
279.295	0.3
279.51	0.41
279.724	0.24
279.938	0.33
280.152	0.4
280.366	0.26
280.58	0.33
280.794	0.4
281.008	0.37
281.222	0.36
281.437	0.45
281.651	0.31
281.865	0.4
282.079	0.26
282.293	0.22
282.507	0.27
282.721	0.28
282.935	0.25
283.148	0.24
283.362	0.25
283.576	0.28
283.79	0.28
284.004	0.28
284.218	0.32
284.432	0.31
284.646	0.25
284.859	0.24
285.073	0.22
285.287	0.34
285.501	0.32
285.714	0.27
285.928	0.32
286.142	0.27
286.356	0.27
286.569	0.28
286.783	0.37
286.997	0.33
287.21	0.28
287.424	0.33
287.637	0.3
287.851	0.33
288.065	0.31
288.278	0.37
288.492	0.35
288.705	0.3
288.919	0.34
289.132	0.2
289.346	0.33
289.559	0.22
289.773	0.24
289.986	0.22
290.2	0.3
290.413	0.31
290.626	0.27
290.84	0.27
291.053	0.29
291.267	0.32
291.48	0.29
291.693	0.3
291.906	0.21
292.12	0.27
292.333	0.22
292.546	0.25
292.76	0.36
292.973	0.32
293.186	0.28
293.399	0.25
293.612	0.28
293.826	0.27
294.039	0.26
294.252	0.25
294.465	0.3
294.678	0.27
294.891	0.29
295.104	0.22
295.317	0.26
295.53	0.27
295.743	0.26
295.956	0.3
296.169	0.35
296.382	0.34
296.595	0.28
296.808	0.23
297.021	0.33
297.234	0.3
297.447	0.25
297.66	0.3
297.873	0.35
298.086	0.3
298.299	0.24
298.511	0.22
298.724	0.28
298.937	0.23
299.15	0.23
299.363	0.29
299.575	0.28
299.788	0.3
300.001	0.22
300.213	0.24
300.426	0.29
300.639	0.22
300.852	0.24
301.064	0.31
301.277	0.31
301.489	0.34
301.702	0.3
301.915	0.28
302.127	0.22
302.34	0.25
302.552	0.29
302.765	0.26
302.977	0.28
303.19	0.22
303.402	0.22
303.615	0.21
303.827	0.22
304.04	0.26
304.252	0.32
304.464	0.25
304.677	0.34
304.889	0.29
305.102	0.24
305.314	0.23
305.526	0.32
305.739	0.32
305.951	0.21
306.163	0.29
306.375	0.32
306.588	0.22
306.8	0.27
307.012	0.2
307.224	0.26
307.436	0.31
307.649	0.16
307.861	0.26
308.073	0.25
308.285	0.24
308.497	0.21
308.709	0.22
308.921	0.3
309.133	0.32
309.346	0.24
309.558	0.2
309.77	0.29
309.982	0.24
310.194	0.29
310.406	0.25
310.617	0.33
310.829	0.28
311.041	0.27
311.253	0.25
311.465	0.25
311.677	0.24
311.889	0.25
312.101	0.2
312.313	0.32
312.524	0.34
312.736	0.2
312.948	0.21
313.16	0.32
313.372	0.33
313.583	0.27
313.795	0.25
314.007	0.24
314.218	0.25
314.43	0.26
314.642	0.24
314.853	0.23
315.065	0.34
315.277	0.26
315.488	0.26
315.7	0.31
315.912	0.27
316.123	0.22
316.335	0.24
316.546	0.38
316.758	0.25
316.969	0.23
317.181	0.25
317.392	0.27
317.604	0.32
317.815	0.22
318.026	0.21
318.238	0.22
318.449	0.28
318.661	0.2
318.872	0.18
319.083	0.23
319.295	0.29
319.506	0.26
319.717	0.27
319.929	0.27
320.14	0.28
320.351	0.24
320.562	0.26
320.774	0.24
320.985	0.26
321.196	0.23
321.407	0.19
321.618	0.29
321.829	0.25
322.041	0.29
322.252	0.25
322.463	0.28
322.674	0.27
322.885	0.18
323.096	0.25
323.307	0.27
323.518	0.27
323.729	0.24
323.94	0.23
324.151	0.21
324.362	0.28
324.573	0.29
324.784	0.24
324.995	0.26
325.206	0.26
325.417	0.23
325.628	0.18
325.838	0.24
326.049	0.24
326.26	0.3
326.471	0.23
326.682	0.29
326.892	0.24
327.103	0.23
327.314	0.22
327.525	0.34
327.735	0.28
327.946	0.25
328.157	0.23
328.368	0.26
328.578	0.22
328.789	0.25
328.999	0.24
329.21	0.25
329.421	0.27
329.631	0.25
329.842	0.2
330.052	0.31
330.263	0.33
330.473	0.26
330.684	0.19
330.894	0.24
331.105	0.27
331.315	0.27
331.526	0.23
331.736	0.33
331.947	0.23
332.157	0.24
332.367	0.23
332.578	0.24
332.788	0.37
332.999	0.31
333.209	0.28
333.419	0.23
333.629	0.28
333.84	0.23
334.05	0.27
334.26	0.35
334.47	0.34
334.681	0.31
334.891	0.22
335.101	0.27
335.311	0.35
335.521	0.28
335.732	0.24
335.942	0.26
336.152	0.26
336.362	0.27
336.572	0.21
336.782	0.28
336.992	0.23
337.202	0.25
337.412	0.21
337.622	0.27
337.832	0.28
338.042	0.29
338.252	0.2
338.462	0.22
338.672	0.26
338.882	0.25
339.092	0.24
339.302	0.32
339.511	0.29
339.721	0.22
339.931	0.22
340.141	0.31
340.351	0.28
340.561	0.28
340.77	0.27
340.98	0.23
341.19	0.27
341.4	0.24
341.609	0.2
341.819	0.22
342.029	0.25
342.238	0.27
342.448	0.2
342.658	0.26
342.867	0.26
343.077	0.23
343.286	0.28
343.496	0.28
343.706	0.34
343.915	0.21
344.125	0.25
344.334	0.25
344.544	0.22
344.753	0.22
344.963	0.25
345.172	0.24
345.381	0.23
345.591	0.26
345.8	0.24
346.01	0.31
346.219	0.25
346.428	0.17
346.638	0.25
346.847	0.26
347.056	0.3
347.266	0.21
347.475	0.28
347.684	0.28
347.893	0.27
348.103	0.28
348.312	0.26
348.521	0.27
348.73	0.24
348.94	0.31
349.149	0.23
349.358	0.22
349.567	0.25
349.776	0.22
349.985	0.29
350.194	0.29
350.403	0.28
350.612	0.21
350.821	0.19
351.03	0.26
351.239	0.21
351.448	0.22
351.657	0.19
351.866	0.27
352.075	0.25
352.284	0.3
352.493	0.21
352.702	0.33
352.911	0.29
353.12	0.25
353.329	0.23
353.538	0.31
353.746	0.25
353.955	0.21
354.164	0.25
354.373	0.21
354.582	0.25
354.79	0.24
354.999	0.29
355.208	0.27
355.416	0.29
355.625	0.19
355.834	0.2
356.042	0.24
356.251	0.22
356.46	0.2
356.668	0.27
356.877	0.33
357.085	0.24
357.294	0.23
357.503	0.26
357.711	0.24
357.92	0.38
358.128	0.27
358.337	0.21
358.545	0.26
358.754	0.19
358.962	0.27
359.17	0.24
359.379	0.27
359.587	0.27
359.796	0.27
360.004	0.28
360.212	0.25
360.421	0.25
360.629	0.23
360.837	0.27
361.046	0.24
361.254	0.32
361.462	0.26
361.67	0.25
361.879	0.25
362.087	0.3
362.295	0.27
362.503	0.23
362.711	0.22
362.92	0.24
363.128	0.2
363.336	0.18
363.544	0.24
363.752	0.23
363.96	0.21
364.168	0.22
364.376	0.24
364.584	0.26
364.792	0.29
365	0.26
365.208	0.25
365.416	0.25
365.624	0.29
365.832	0.21
366.04	0.32
366.248	0.27
366.456	0.28
366.664	0.27
366.872	0.25
367.079	0.22
367.287	0.22
367.495	0.22
367.703	0.27
367.911	0.22
368.118	0.25
368.326	0.24
368.534	0.18
368.742	0.31
368.949	0.2
369.157	0.22
369.365	0.26
369.572	0.21
369.78	0.18
369.988	0.27
370.195	0.28
370.403	0.26
370.61	0.21
370.818	0.26
371.026	0.32
371.233	0.21
371.441	0.24
371.648	0.27
371.856	0.27
372.063	0.28
372.271	0.26
372.478	0.25
372.685	0.24
372.893	0.28
373.1	0.24
373.308	0.27
373.515	0.34
373.722	0.27
373.93	0.29
374.137	0.33
374.344	0.34
374.552	0.25
374.759	0.29
374.966	0.26
375.173	0.27
375.381	0.3
375.588	0.27
375.795	0.22
376.002	0.22
376.209	0.2
376.417	0.27
376.624	0.28
376.831	0.31
377.038	0.28
377.245	0.2
377.452	0.27
377.659	0.28
377.866	0.22
378.073	0.28
378.28	0.23
378.487	0.33
378.694	0.26
378.901	0.25
379.108	0.26
379.315	0.26
379.522	0.36
379.729	0.28
379.936	0.22
380.143	0.31
380.35	0.25
380.557	0.27
380.763	0.26
380.97	0.24
381.177	0.27
381.384	0.26
381.591	0.25
381.797	0.29
382.004	0.29
382.211	0.3
382.418	0.28
382.624	0.29
382.831	0.24
383.038	0.27
383.244	0.25
383.451	0.25
383.658	0.29
383.864	0.29
384.071	0.26
384.277	0.33
384.484	0.25
384.69	0.33
384.897	0.24
385.103	0.25
385.31	0.22
385.516	0.25
385.723	0.19
385.929	0.29
386.136	0.24
386.342	0.34
386.549	0.22
386.755	0.31
386.961	0.3
387.168	0.28
387.374	0.31
387.58	0.31
387.787	0.28
387.993	0.29
388.199	0.26
388.406	0.24
388.612	0.26
388.818	0.25
389.024	0.28
389.231	0.29
389.437	0.34
389.643	0.31
389.849	0.35
390.055	0.28
390.261	0.33
390.467	0.34
390.674	0.26
390.88	0.28
391.086	0.3
391.292	0.31
391.498	0.36
391.704	0.31
391.91	0.3
392.116	0.27
392.322	0.22
392.528	0.35
392.734	0.29
392.94	0.33
393.146	0.32
393.352	0.3
393.557	0.27
393.763	0.31
393.969	0.36
394.175	0.32
394.381	0.34
394.587	0.25
394.792	0.35
394.998	0.34
395.204	0.36
395.41	0.29
395.615	0.36
395.821	0.33
396.027	0.33
396.233	0.29
396.438	0.31
396.644	0.41
396.85	0.35
397.055	0.35
397.261	0.37
397.466	0.44
397.672	0.34
397.878	0.39
398.083	0.4
398.289	0.31
398.494	0.33
398.7	0.37
398.905	0.26
399.111	0.41
399.316	0.29
399.522	0.38
399.727	0.32
399.932	0.3
400.138	0.32
400.343	0.37
400.549	0.36
400.754	0.34
400.959	0.35
401.165	0.36
401.37	0.37
401.575	0.47
401.78	0.36
401.986	0.35
402.191	0.4
402.396	0.4
402.601	0.42
402.807	0.4
403.012	0.4
403.217	0.45
403.422	0.43
403.627	0.36
403.832	0.36
404.037	0.44
404.243	0.39
404.448	0.41
404.653	0.42
404.858	0.51
405.063	0.48
405.268	0.4
405.473	0.39
405.678	0.4
405.883	0.6
406.088	0.47
406.293	0.39
406.498	0.45
406.703	0.47
406.907	0.5
407.112	0.47
407.317	0.56
407.522	0.5
407.727	0.51
407.932	0.51
408.136	0.62
408.341	0.56
408.546	0.58
408.751	0.57
408.956	0.56
409.16	0.63
409.365	0.61
409.57	0.6
409.774	0.66
409.979	0.65
410.184	0.66
410.388	0.64
410.593	0.74
410.798	0.74
411.002	0.76
411.207	0.82
411.411	0.8
411.616	0.76
411.82	0.81
412.025	0.85
412.229	0.84
412.434	0.94
412.638	0.87
412.843	0.95
413.047	0.96
413.252	0.92
413.456	1.02
413.66	1.05
413.865	0.96
414.069	1.15
414.273	1.08
414.478	1.13
414.682	1.21
414.886	1.18
415.091	1.19
415.295	1.21
415.499	1.34
415.703	1.33
415.908	1.45
416.112	1.39
416.316	1.48
416.52	1.54
416.724	1.55
416.929	1.6
417.133	1.87
417.337	1.71
417.541	1.82
417.745	1.78
417.949	1.91
418.153	1.99
418.357	2.01
418.561	2.24
418.765	2.13
418.969	2.31
419.173	2.38
419.377	2.35
419.581	2.59
419.785	2.55
419.989	2.62
420.193	2.79
420.397	2.85
420.601	2.96
420.804	3.05
421.008	3.07
421.212	3.17
421.416	3.16
421.62	3.2
421.823	3.32
422.027	3.42
422.231	3.47
422.435	3.48
422.638	3.53
422.842	3.59
423.046	3.73
423.249	3.95
423.453	3.92
423.657	4.08
423.86	4.13
424.064	4.26
424.268	4.38
424.471	4.4
424.675	4.68
424.878	4.73
425.082	4.82
425.285	5.11
425.489	5.08
425.692	5.2
425.896	5.22
426.099	5.31
426.303	5.56
426.506	5.83
426.71	5.95
426.913	6.05
427.116	6.23
427.32	6.26
427.523	6.31
427.726	6.6
427.93	6.67
428.133	7.11
428.336	7.14
428.54	7.35
428.743	7.56
428.946	7.76
429.149	7.77
429.353	7.8
429.556	7.89
429.759	7.97
429.962	8.14
430.165	8.3
430.368	7.89
430.571	7.99
430.775	8.04
430.978	7.98
431.181	8.09
431.384	8.17
431.587	8.2
431.79	8.65
431.993	8.66
432.196	8.89
432.399	9.2
432.602	9.4
432.805	9.53
433.008	10.06
433.211	9.84
433.414	10.27
433.616	10.35
433.819	10.22
434.022	10.41
434.225	10.56
434.428	10.65
434.631	11
434.833	10.82
435.036	11.02
435.239	11.25
435.442	11.29
435.645	11.44
435.847	11.52
436.05	11.76
436.253	12.18
436.455	12.2
436.658	11.82
436.861	12.28
437.063	12.4
437.266	12.27
437.468	12.65
437.671	13.07
437.874	13.08
438.076	12.93
438.279	13.41
438.481	13.34
438.684	14.21
438.886	13.79
439.089	14.05
439.291	14.16
439.494	14.44
439.696	14.51
439.899	15.15
440.101	15.55
440.303	15.8
440.506	16.47
440.708	16.33
440.91	16.37
441.113	16.58
441.315	16.81
441.517	16.82
441.72	17.13
441.922	16.93
442.124	16.72
442.326	17.16
442.529	17.43
442.731	17.4
442.933	17.7
443.135	17.42
443.337	17.33
443.539	18.14
443.742	17.61
443.944	18.35
444.146	18.15
444.348	18.1
444.55	17.84
444.752	18.14
444.954	18.07
445.156	18.01
445.358	18.57
445.56	18.75
445.762	18.47
445.964	18.92
446.166	18.65
446.368	18.48
446.57	18.51
446.772	18.18
446.974	17.98
447.175	18.38
447.377	17.88
447.579	18.58
447.781	18.15
447.983	17.84
448.184	17.48
448.386	17.72
448.588	17.33
448.79	17.17
448.991	17.48
449.193	17.55
449.395	16.93
449.597	16.46
449.798	16.51
450	16.02
450.202	15.89
450.403	15.89
450.605	15.85
450.806	15.59
451.008	15.35
451.21	15.19
451.411	14.8
451.613	13.82
451.814	14.24
452.016	14.11
452.217	13.48
452.419	13.35
452.62	13.15
452.821	12.84
453.023	12.86
453.224	12.35
453.426	11.86
453.627	11.26
453.828	11.42
454.03	11.45
454.231	11.56
454.432	11.2
454.634	10.92
454.835	10.68
455.036	10.64
455.238	10.19
455.439	10.01
455.64	9.63
455.841	9.45
456.042	9.66
456.244	9.29
456.445	9.01
456.646	8.82
456.847	8.6
457.048	8.54
457.249	8.59
457.45	8.31
457.651	7.76
457.852	7.65
458.054	7.36
458.255	7.35
458.456	7.48
458.657	7.29
458.858	6.8
459.058	6.8
459.259	6.79
459.46	6.45
459.661	6.53
459.862	6.46
460.063	6.4
460.264	6.36
460.465	6.03
460.666	6.14
460.866	5.77
461.067	5.56
461.268	5.65
461.469	5.51
461.67	5.42
461.87	5.29
462.071	5.32
462.272	5.21
462.473	5.17
462.673	5.27
462.874	5.2
463.075	5.19
463.275	5.07
463.476	5.21
463.676	5.14
463.877	4.98
464.078	4.97
464.278	5.02
464.479	4.92
464.679	4.79
464.88	4.76
465.08	4.63
465.281	4.53
465.481	4.38
465.682	4.14
465.882	4.19
466.083	4.15
466.283	4.06
466.483	3.94
466.684	3.76
466.884	3.68
467.085	3.7
467.285	3.77
467.485	3.59
467.686	3.56
467.886	3.48
468.086	3.42
468.286	3.4
468.487	3.48
468.687	3.34
468.887	3.2
469.087	3.38
469.287	3.31
469.488	3.06
469.688	3.16
469.888	3.23
470.088	3.18
470.288	3.07
470.488	3.02
470.688	2.9
470.888	2.89
471.088	2.74
471.288	2.8
471.488	2.79
471.688	2.71
471.888	2.67
472.088	2.85
472.288	2.72
472.488	2.65
472.688	2.54
472.888	2.59
473.088	2.6
473.288	2.5
473.488	2.52
473.688	2.65
473.887	2.45
474.087	2.47
474.287	2.48
474.487	2.37
474.687	2.45
474.886	2.36
475.086	2.3
475.286	2.37
475.486	2.28
475.685	2.23
475.885	2.23
476.085	2.29
476.284	2.25
476.484	2.24
476.684	2.22
476.883	2.28
477.083	2.19
477.282	2.14
477.482	2.17
477.681	2.14
477.881	2.07
478.08	2.08
478.28	2.05
478.479	2.08
478.679	2.12
478.878	2.05
479.078	2.05
479.277	2.06
479.477	2.03
479.676	2.04
479.875	2.03
480.075	1.99
480.274	2.03
480.473	2.09
480.673	2.01
480.872	2.12
481.071	2.06
481.271	1.99
481.47	2.02
481.669	1.99
481.868	1.96
482.067	2.03
482.267	1.94
482.466	1.93
482.665	1.96
482.864	1.94
483.063	1.94
483.262	2.01
483.461	2
483.661	2.08
483.86	1.98
484.059	2.05
484.258	2.04
484.457	2.02
484.656	2.06
484.855	2.11
485.054	1.89
485.253	2.01
485.452	2
485.651	2.05
485.849	2
486.048	2
486.247	2.01
486.446	2.08
486.645	2
486.844	2.09
487.043	2.07
487.241	2.09
487.44	2.11
487.639	2.12
487.838	2.12
488.037	2.11
488.235	2.19
488.434	2.17
488.633	2.04
488.831	2.21
489.03	2.22
489.229	2.24
489.427	2.22
489.626	2.26
489.825	2.3
490.023	2.32
490.222	2.23
490.42	2.32
490.619	2.35
490.817	2.35
491.016	2.33
491.214	2.41
491.413	2.39
491.611	2.37
491.81	2.45
492.008	2.43
492.207	2.53
492.405	2.48
492.604	2.5
492.802	2.58
493	2.59
493.199	2.57
493.397	2.68
493.595	2.71
493.794	2.62
493.992	2.75
494.19	2.74
494.388	2.79
494.587	2.73
494.785	2.77
494.983	2.74
495.181	2.87
495.379	2.85
495.578	2.92
495.776	2.91
495.974	2.89
496.172	2.95
496.37	3.09
496.568	3.13
496.766	3.06
496.964	3.13
497.162	3.12
497.36	3.21
497.558	3.25
497.756	3.27
497.954	3.27
498.152	3.35
498.35	3.41
498.548	3.3
498.746	3.37
498.944	3.4
499.142	3.42
499.34	3.48
499.538	3.64
499.736	3.48
499.933	3.59
500.131	3.6
500.329	3.76
500.527	3.78
500.725	3.85
500.922	3.83
501.12	3.86
501.318	3.94
501.516	3.91
501.713	4.01
501.911	4
502.109	3.9
502.306	4.07
502.504	4
502.701	4.15
502.899	4.14
503.097	4.3
503.294	4.2
503.492	4.27
503.689	4.36
503.887	4.32
504.084	4.41
504.282	4.36
504.479	4.38
504.677	4.54
504.874	4.51
505.072	4.42
505.269	4.65
505.466	4.7
505.664	4.69
505.861	4.62
506.059	4.71
506.256	4.76
506.453	4.82
506.651	4.97
506.848	4.96
507.045	4.97
507.242	4.94
507.44	5
507.637	5.09
507.834	5.05
508.031	5.18
508.229	5.12
508.426	5.07
508.623	5.24
508.82	5.26
509.017	5.24
509.214	5.24
509.411	5.34
509.608	5.33
509.805	5.47
510.003	5.41
510.2	5.53
510.397	5.63
510.594	5.53
510.791	5.61
510.988	5.64
511.184	5.57
511.381	5.5
511.578	5.63
511.775	5.81
511.972	5.72
512.169	5.79
512.366	5.81
512.563	5.91
512.76	5.92
512.956	6.01
513.153	5.93
513.35	5.88
513.547	5.87
513.744	6.04
513.94	6.02
514.137	6.15
514.334	6.11
514.53	6.14
514.727	6.33
514.924	6.19
515.12	6.24
515.317	6.28
515.514	6.2
515.71	6.12
515.907	6.38
516.103	6.39
516.3	6.27
516.497	6.43
516.693	6.43
516.89	6.45
517.086	6.5
517.283	6.54
517.479	6.38
517.676	6.62
517.872	6.64
518.068	6.61
518.265	6.59
518.461	6.5
518.658	6.69
518.854	6.71
519.05	6.79
519.247	6.82
519.443	6.71
519.639	6.87
519.836	6.74
520.032	6.7
520.228	6.88
520.424	6.87
520.621	6.96
520.817	7.03
521.013	6.85
521.209	7.09
521.405	6.98
521.601	7.02
521.798	6.99
521.994	7
522.19	6.94
522.386	6.98
522.582	7.14
522.778	7.19
522.974	7.04
523.17	7.07
523.366	7.09
523.562	7.17
523.758	7.15
523.954	6.95
524.15	7.22
524.346	7.22
524.542	7.26
524.738	7.23
524.934	7.32
525.129	7.31
525.325	7.23
525.521	7.26
525.717	7.47
525.913	7.27
526.109	7.3
526.304	7.44
526.5	7.46
526.696	7.42
526.892	7.32
527.087	7.52
527.283	7.52
527.479	7.46
527.674	7.29
527.87	7.47
528.066	7.49
528.261	7.5
528.457	7.43
528.653	7.57
528.848	7.57
529.044	7.58
529.239	7.48
529.435	7.49
529.63	7.48
529.826	7.51
530.021	7.53
530.217	7.58
530.412	7.54
530.608	7.58
530.803	7.65
530.999	7.49
531.194	7.61
531.389	7.7
531.585	7.68
531.78	7.76
531.975	7.69
532.171	7.71
532.366	7.71
532.561	7.77
532.757	7.66
532.952	7.91
533.147	7.65
533.342	7.75
533.538	7.69
533.733	7.86
533.928	7.55
534.123	7.7
534.318	7.8
534.513	7.71
534.709	7.92
534.904	7.79
535.099	7.87
535.294	7.89
535.489	7.88
535.684	7.78
535.879	7.81
536.074	7.87
536.269	7.87
536.464	7.87
536.659	7.86
536.854	7.85
537.049	7.88
537.244	7.85
537.439	7.85
537.634	7.89
537.828	7.94
538.023	7.92
538.218	7.91
538.413	7.88
538.608	7.93
538.803	7.9
538.997	7.9
539.192	7.93
539.387	7.84
539.582	7.91
539.776	7.88
539.971	7.96
540.166	7.99
540.36	7.89
540.555	8.05
540.75	7.98
540.944	8.03
541.139	7.95
541.334	7.98
541.528	7.99
541.723	8.08
541.917	8.08
542.112	7.96
542.306	7.83
542.501	7.85
542.695	7.97
542.89	7.92
543.084	7.97
543.279	7.96
543.473	8.02
543.668	8.08
543.862	7.93
544.056	7.87
544.251	8.03
544.445	8.11
544.64	8.08
544.834	7.79
545.028	7.69
545.222	8.02
545.417	8.23
545.611	8.06
545.805	8.07
546	7.84
546.194	8.04
546.388	8.1
546.582	7.97
546.776	8.01
546.97	8.01
547.165	7.99
547.359	8.08
547.553	8.03
547.747	8
547.941	8.17
548.135	8.05
548.329	8.09
548.523	8.08
548.717	8.03
548.911	8.02
549.105	7.92
549.299	8.08
549.493	8.06
549.687	7.93
549.881	8.11
550.075	8.1
550.269	7.98
550.463	8.07
550.657	8.08
550.85	8.01
551.044	8.1
551.238	8.12
551.432	8.1
551.626	8.14
551.82	8.11
552.013	8.02
552.207	8.12
552.401	8.14
552.594	8.01
552.788	8
552.982	8.08
553.176	8.01
553.369	8.28
553.563	8.07
553.756	8.06
553.95	8.14
554.144	8.16
554.337	8.15
554.531	7.92
554.724	8.06
554.918	8.15
555.111	7.98
555.305	8.08
555.498	8.04
555.692	8.18
555.885	8.13
556.079	8.05
556.272	8.04
556.466	8.08
556.659	8.04
556.852	8.14
557.046	8.02
557.239	7.91
557.432	8.08
557.626	8.12
557.819	8.14
558.012	8.13
558.206	8.16
558.399	8.14
558.592	8.05
558.785	7.98
558.979	8.11
559.172	8.04
559.365	8.1
559.558	8.01
559.751	8.02
559.944	8.19
560.138	8.06
560.331	8.11
560.524	8.13
560.717	8.12
560.91	8.08
561.103	8.12
561.296	7.95
561.489	8.15
561.682	8.19
561.875	8.06
562.068	8.18
562.261	7.99
562.454	8.17
562.647	8.04
562.84	8.09
563.032	8.15
563.225	8.01
563.418	8.06
563.611	8.15
563.804	8.09
563.997	8.01
564.19	7.88
564.382	8.22
564.575	8.05
564.768	7.99
564.961	8.11
565.153	8.06
565.346	7.94
565.539	8.09
565.731	8.1
565.924	8.12
566.117	8.25
566.309	8.13
566.502	8.02
566.695	8.05
566.887	8.09
567.08	8.08
567.272	8.15
567.465	7.97
567.657	8.15
567.85	7.99
568.042	8.08
568.235	8.06
568.427	7.91
568.62	8.07
568.812	8.01
569.005	8.08
569.197	7.97
569.389	8.04
569.582	8.02
569.774	8.04
569.966	7.98
570.159	7.94
570.351	7.93
570.543	8.01
570.736	8.02
570.928	7.92
571.12	8.04
571.312	7.97
571.505	7.78
571.697	7.95
571.889	8.01
572.081	8
572.273	7.91
572.465	7.97
572.658	7.9
572.85	8.01
573.042	7.98
573.234	7.89
573.426	7.9
573.618	7.91
573.81	7.98
574.002	7.95
574.194	7.92
574.386	7.88
574.578	7.89
574.77	7.9
574.962	7.99
575.154	7.78
575.346	7.81
575.538	7.75
575.729	7.83
575.921	7.86
576.113	8
576.305	7.89
576.497	7.91
576.689	7.76
576.88	7.73
577.072	7.9
577.264	7.83
577.456	7.86
577.647	7.82
577.839	7.95
578.031	7.85
578.223	7.83
578.414	7.68
578.606	7.75
578.798	7.82
578.989	7.81
579.181	7.89
579.372	7.88
579.564	7.85
579.755	7.72
579.947	7.7
580.139	7.79
580.33	7.62
580.522	7.85
580.713	7.68
580.905	7.67
581.096	7.79
581.287	7.69
581.479	7.67
581.67	7.72
581.862	7.68
582.053	7.69
582.244	7.59
582.436	7.84
582.627	7.63
582.818	7.64
583.01	7.69
583.201	7.64
583.392	7.61
583.583	7.57
583.775	7.46
583.966	7.56
584.157	7.61
584.348	7.7
584.54	7.64
584.731	7.57
584.922	7.46
585.113	7.47
585.304	7.53
585.495	7.52
585.686	7.63
585.877	7.56
586.068	7.66
586.259	7.62
586.45	7.42
586.641	7.52
586.832	7.62
587.023	7.49
587.214	7.48
587.405	7.56
587.596	7.4
587.787	7.31
587.978	7.43
588.169	7.41
588.36	7.41
588.551	7.4
588.742	7.44
588.932	7.46
589.123	7.21
589.314	7.48
589.505	7.31
589.696	7.37
589.886	7.33
590.077	7.28
590.268	7.25
590.458	7.3
590.649	7.15
590.84	7.26
591.03	7.23
591.221	7.31
591.412	7.13
591.602	7.28
591.793	7.18
591.984	7.23
592.174	7.2
592.365	7.33
592.555	7.12
592.746	7.11
592.936	7.16
593.127	7.11
593.317	7.15
593.508	7.19
593.698	7.08
593.889	7.08
594.079	7.07
594.269	7.03
594.46	7.06
594.65	7.07
594.84	7.04
595.031	6.94
595.221	7.03
595.411	6.98
595.602	7
595.792	6.9
595.982	6.94
596.172	6.98
596.363	6.89
596.553	6.94
596.743	6.98
596.933	6.93
597.123	6.85
597.314	6.73
597.504	6.78
597.694	6.84
597.884	6.78
598.074	6.88
598.264	6.79
598.454	6.8
598.644	6.75
598.834	6.75
599.024	6.75
599.214	6.68
599.404	6.78
599.594	6.7
599.784	6.6
599.974	6.67
600.164	6.68
600.354	6.61
600.544	6.53
600.734	6.65
600.924	6.56
601.114	6.53
601.303	6.52
601.493	6.53
601.683	6.53
601.873	6.53
602.063	6.42
602.252	6.57
602.442	6.37
602.632	6.38
602.821	6.4
603.011	6.5
603.201	6.38
603.39	6.36
603.58	6.27
603.77	6.34
603.959	6.41
604.149	6.36
604.339	6.34
604.528	6.44
604.718	6.36
604.907	6.34
605.097	6.19
605.286	6.28
605.476	6.19
605.665	6.31
605.855	6.23
606.044	6.33
606.234	6.22
606.423	6.19
606.612	6.16
606.802	6.15
606.991	6.18
607.181	6.19
607.37	6.11
607.559	5.9
607.749	6.1
607.938	6.05
608.127	6.06
608.316	6.02
608.506	5.96
608.695	6.02
608.884	5.89
609.073	5.97
609.263	6.06
609.452	5.97
609.641	5.82
609.83	5.84
610.019	5.95
610.208	5.85
610.397	5.86
610.586	5.79
610.775	5.79
610.965	5.82
611.154	5.69
611.343	5.8
611.532	5.68
611.721	5.82
611.91	5.7
612.099	5.73
612.287	5.64
612.476	5.58
612.665	5.77
612.854	5.57
613.043	5.62
613.232	5.56
613.421	5.55
613.61	5.55
613.798	5.54
613.987	5.57
614.176	5.52
614.365	5.57
614.554	5.53
614.742	5.52
614.931	5.32
615.12	5.52
615.309	5.46
615.497	5.33
615.686	5.32
615.875	5.36
616.063	5.25
616.252	5.32
616.44	5.33
616.629	5.27
616.818	5.31
617.006	5.24
617.195	5.23
617.383	5.27
617.572	5.18
617.76	5.13
617.949	5.23
618.137	5.19
618.326	5.29
618.514	5.04
618.703	5
618.891	5.14
619.079	4.96
619.268	5.12
619.456	5.01
619.644	5.05
619.833	4.96
620.021	5.02
620.209	4.97
620.398	5.03
620.586	4.93
620.774	4.97
620.962	4.96
621.151	4.97
621.339	4.88
621.527	4.89
621.715	4.83
621.903	4.82
622.092	4.76
622.28	4.92
622.468	4.74
622.656	4.76
622.844	4.68
623.032	4.83
623.22	4.7
623.408	4.78
623.596	4.63
623.784	4.77
623.972	4.61
624.16	4.71
624.348	4.77
624.536	4.68
624.724	4.56
624.912	4.66
625.1	4.58
625.288	4.62
625.476	4.5
625.664	4.57
625.851	4.49
626.039	4.6
626.227	4.49
626.415	4.48
626.603	4.44
626.79	4.45
626.978	4.43
627.166	4.43
627.354	4.36
627.541	4.37
627.729	4.2
627.917	4.41
628.104	4.36
628.292	4.28
628.48	4.33
628.667	4.31
628.855	4.39
629.042	4.32
629.23	4.25
629.418	4.23
629.605	4.26
629.793	4.16
629.98	4.26
630.168	4.14
630.355	4.19
630.543	4.17
630.73	4.1
630.917	4.08
631.105	4.19
631.292	4.12
631.48	4.03
631.667	4.11
631.854	4.05
632.042	4.01
632.229	4
632.416	4.07
632.604	3.95
632.791	3.87
632.978	4.03
633.165	3.95
633.353	3.97
633.54	4.03
633.727	3.84
633.914	3.85
634.101	3.79
634.289	3.95
634.476	3.81
634.663	3.81
634.85	3.79
635.037	3.74
635.224	3.73
635.411	3.82
635.598	3.71
635.785	3.74
635.972	3.64
636.159	3.71
636.346	3.73
636.533	3.66
636.72	3.68
636.907	3.64
637.094	3.63
637.281	3.54
637.468	3.62
637.655	3.67
637.842	3.54
638.029	3.57
638.215	3.5
638.402	3.53
638.589	3.48
638.776	3.46
638.963	3.48
639.149	3.52
639.336	3.53
639.523	3.5
639.709	3.48
639.896	3.39
640.083	3.37
640.27	3.5
640.456	3.41
640.643	3.42
640.829	3.29
641.016	3.35
641.203	3.23
641.389	3.3
641.576	3.31
641.762	3.23
641.949	3.21
642.135	3.28
642.322	3.26
642.508	3.19
642.695	3.28
642.881	3.18
643.068	3.14
643.254	3.15
643.441	3.2
643.627	3.19
643.813	3.05
644	3.23
644.186	3.09
644.372	3.13
644.559	3.11
644.745	3.07
644.931	3.06
645.118	3.07
645.304	3.08
645.49	3.05
645.676	2.97
645.862	3
646.049	3.06
646.235	3
646.421	3.1
646.607	3.09
646.793	2.91
646.979	2.86
647.165	2.96
647.352	2.9
647.538	2.95
647.724	2.85
647.91	2.81
648.096	2.9
648.282	2.87
648.468	2.88
648.654	2.88
648.84	2.86
649.026	2.81
649.212	2.82
649.397	2.77
649.583	2.8
649.769	2.84
649.955	2.82
650.141	2.78
650.327	2.78
650.513	2.73
650.698	2.72
650.884	2.6
651.07	2.77
651.256	2.72
651.442	2.7
651.627	2.6
651.813	2.7
651.999	2.6
652.184	2.66
652.37	2.7
652.556	2.66
652.741	2.61
652.927	2.47
653.113	2.64
653.298	2.62
653.484	2.53
653.669	2.53
653.855	2.54
654.04	2.55
654.226	2.64
654.412	2.54
654.597	2.48
654.782	2.56
654.968	2.52
655.153	2.53
655.339	2.51
655.524	2.47
655.71	2.51
655.895	2.44
656.08	2.4
656.266	2.54
656.451	2.48
656.636	2.43
656.822	2.4
657.007	2.4
657.192	2.38
657.378	2.33
657.563	2.34
657.748	2.39
657.933	2.37
658.118	2.29
658.304	2.36
658.489	2.39
658.674	2.32
658.859	2.34
659.044	2.3
659.229	2.32
659.414	2.33
659.599	2.28
659.785	2.25
659.97	2.24
660.155	2.26
660.34	2.31
660.525	2.2
660.71	2.25
660.895	2.2
661.08	2.19
661.264	2.14
661.449	2.22
661.634	2.19
661.819	2.2
662.004	2.18
662.189	2.09
662.374	2.11
662.559	2.04
662.743	2.01
662.928	2.1
663.113	2.04
663.298	2.04
663.483	2.01
663.667	2.09
663.852	1.98
664.037	2.09
664.221	2.01
664.406	2.04
664.591	2.04
664.775	1.96
664.96	1.92
665.145	1.91
665.329	1.91
665.514	1.92
665.698	1.88
665.883	1.92
666.068	1.92
666.252	1.88
666.437	1.92
666.621	1.89
666.806	1.86
666.99	1.84
667.174	1.83
667.359	1.9
667.543	1.79
667.728	1.82
667.912	1.73
668.096	1.77
668.281	1.74
668.465	1.73
668.649	1.77
668.834	1.71
669.018	1.74
669.202	1.72
669.387	1.68
669.571	1.79
669.755	1.67
669.939	1.72
670.124	1.71
670.308	1.74
670.492	1.72
670.676	1.65
670.86	1.66
671.044	1.53
671.228	1.65
671.413	1.57
671.597	1.59
671.781	1.61
671.965	1.66
672.149	1.65
672.333	1.56
672.517	1.59
672.701	1.61
672.885	1.58
673.069	1.45
673.253	1.63
673.437	1.56
673.621	1.53
673.804	1.57
673.988	1.55
674.172	1.54
674.356	1.47
674.54	1.49
674.724	1.62
674.908	1.54
675.091	1.51
675.275	1.55
675.459	1.57
675.643	1.47
675.826	1.49
676.01	1.51
676.194	1.47
676.377	1.43
676.561	1.5
676.745	1.47
676.928	1.46
677.112	1.45
677.296	1.35
677.479	1.38
677.663	1.34
677.846	1.39
678.03	1.39
678.213	1.33
678.397	1.43
678.58	1.36
678.764	1.41
678.947	1.33
679.131	1.35
679.314	1.36
679.498	1.37
679.681	1.4
679.865	1.43
680.048	1.34
680.231	1.35
680.415	1.28
680.598	1.27
680.781	1.34
680.965	1.34
681.148	1.31
681.331	1.27
681.514	1.25
681.698	1.26
681.881	1.31
682.064	1.31
682.247	1.25
682.43	1.22
682.614	1.23
682.797	1.29
682.98	1.26
683.163	1.23
683.346	1.2
683.529	1.17
683.712	1.21
683.895	1.22
684.078	1.11
684.261	1.18
684.444	1.18
684.627	1.26
684.81	1.17
684.993	1.16
685.176	1.16
685.359	1.17
685.542	1.15
685.725	1.26
685.908	1.13
686.091	1.12
686.274	1.16
686.457	1.15
686.639	1.12
686.822	1.21
687.005	1.09
687.188	1.11
687.371	1.13
687.553	1.2
687.736	1.17
687.919	1.21
688.102	1.24
688.284	1.06
688.467	1.14
688.65	1.08
688.832	0.98
689.015	1.03
689.197	1.07
689.38	1.22
689.563	1.1
689.745	0.99
689.928	1
690.11	1
690.293	1.04
690.475	1.01
690.658	1.08
690.84	0.96
691.023	1.01
691.205	0.99
691.388	1.05
691.57	1.04
691.752	1.02
691.935	0.91
692.117	0.98
692.3	1.02
692.482	0.98
692.664	0.97
692.847	0.97
693.029	1
693.211	1.05
693.393	0.91
693.576	0.92
693.758	0.95
693.94	0.99
694.122	0.89
694.304	0.92
694.487	0.9
694.669	0.95
694.851	0.87
695.033	0.92
695.215	0.88
695.397	0.92
695.579	0.89
695.761	0.84
695.943	0.79
696.125	1.03
696.308	0.91
696.49	0.77
696.671	1.01
696.853	0.88
697.035	1.06
697.217	0.88
697.399	0.93
697.581	0.86
697.763	0.83
697.945	0.84
698.127	0.88
698.309	0.98
698.491	0.8
698.672	0.93
698.854	0.87
699.036	0.87
699.218	0.84
699.399	0.88
699.581	0.88
699.763	0.84
699.945	0.77
700.126	0.8
700.308	0.85
700.49	0.76
700.671	0.77
700.853	0.8
701.035	0.78
701.216	0.82
701.398	0.8
701.579	0.75
701.761	0.89
701.943	0.75
702.124	0.71
702.306	0.8
702.487	0.94
702.669	0.78
702.85	0.72
703.031	0.77
703.213	0.88
703.394	0.79
703.576	0.8
703.757	0.95
703.938	0.79
704.12	0.89
704.301	0.74
704.483	0.73
704.664	0.77
704.845	0.88
705.026	0.82
705.208	0.77
705.389	0.74
705.57	0.82
705.751	0.7
705.933	0.75
706.114	0.81
706.295	0.73
706.476	0.67
706.657	0.85
706.838	0.78
707.02	0.82
707.201	0.7
707.382	0.68
707.563	0.73
707.744	0.71
707.925	0.65
708.106	0.73
708.287	0.69
708.468	0.84
708.649	0.71
708.83	0.78
709.011	0.7
709.192	0.78
709.373	0.64
709.554	0.68
709.734	0.74
709.915	0.72
710.096	0.73
710.277	0.62
710.458	0.72
710.639	0.68
710.819	0.59
711	0.69
711.181	0.73
711.362	0.77
711.542	0.66
711.723	0.62
711.904	0.72
712.085	0.69
712.265	0.61
712.446	0.6
712.627	0.7
712.807	0.69
712.988	0.67
713.168	0.57
713.349	0.71
713.53	0.56
713.71	0.66
713.891	0.62
714.071	0.57
714.252	0.6
714.432	0.59
714.613	0.61
714.793	0.67
714.974	0.7
715.154	0.72
715.334	0.66
715.515	0.64
715.695	0.58
715.876	0.66
716.056	0.62
716.236	0.53
716.417	0.62
716.597	0.55
716.777	0.78
716.957	0.59
717.138	0.63
717.318	0.69
717.498	0.54
717.678	0.67
717.859	0.6
718.039	0.48
718.219	0.63
718.399	0.6
718.579	0.57
718.759	0.58
718.939	0.7
719.12	0.6
719.3	0.56
719.48	0.44
719.66	0.42
719.84	0.71
720.02	0.62
720.2	0.61
720.38	0.57
720.56	0.68
720.74	0.57
720.92	0.64
721.1	0.73
721.279	0.63
721.459	0.64
721.639	0.54
721.819	0.6
721.999	0.57
722.179	0.64
722.359	0.48
722.538	0.56
722.718	0.58
722.898	0.55
723.078	0.58
723.257	0.59
723.437	0.57
723.617	0.61
723.797	0.58
723.976	0.66
724.156	0.69
724.336	0.65
724.515	0.76
724.695	0.45
724.874	0.62
725.054	0.64
725.234	0.51
725.413	0.59
725.593	0.56
725.772	0.58
725.952	0.52
726.131	0.58
726.311	0.61
726.49	0.55
726.67	0.55
726.849	0.49
727.028	0.62
727.208	0.52
727.387	0.63
727.567	0.47
727.746	0.56
727.925	0.51
728.105	0.5
728.284	0.6
728.463	0.56
728.643	0.53
728.822	0.56
729.001	0.53
729.18	0.57
729.359	0.61
729.539	0.62
729.718	0.62
729.897	0.58
730.076	0.52
730.255	0.46
730.434	0.59
730.614	0.57
730.793	0.64
730.972	0.5
731.151	0.57
731.33	0.65
731.509	0.61
731.688	0.55
731.867	0.54
732.046	0.48
732.225	0.72
732.404	0.5
732.583	0.5
732.762	0.54
732.941	0.64
733.12	0.63
733.298	0.59
733.477	0.72
733.656	0.62
733.835	0.55
734.014	0.72
734.193	0.51
734.371	0.62
734.55	0.74
734.729	0.41
734.908	0.62
735.086	0.61
735.265	0.59
735.444	0.41
735.623	0.5
735.801	0.6
735.98	0.6
736.159	0.58
736.337	0.65
736.516	0.73
736.694	0.67
736.873	0.52
737.052	0.81
737.23	0.64
737.409	0.56
737.587	0.75
737.766	0.36
737.944	0.54
738.123	0.7
738.301	0.59
738.479	0.55
738.658	0.66
738.836	0.38
739.015	0.67
739.193	0.65
739.371	0.54
739.55	0.5
739.728	0.46
739.906	0.7
740.085	0.73
740.263	0.6
740.441	0.46
740.62	0.82
740.798	0.64
740.976	0.55
741.154	0.5
741.332	0.76
741.511	0.46
741.689	0.66
741.867	0.69
742.045	0.58
742.223	0.52
742.401	0.45
742.579	0.64
742.757	0.59
742.935	0.39
743.114	0.51
743.292	0.44
743.47	0.59
743.648	0.53
743.826	0.55
744.004	0.57
744.181	0.55
744.359	0.37
744.537	0.58
744.715	0.43
744.893	0.47
745.071	0.43
745.249	0.33
745.427	0.62
745.605	0.63
745.782	0.55
745.96	0.63
746.138	0.53
746.316	0.52
746.493	0.5
746.671	0.5
746.849	0.39
747.027	0.64
747.204	0.42
747.382	0.47
747.56	0.36
747.737	0.33
747.915	0.36
748.093	0.54
748.27	0.43
748.448	0.51
748.625	0.25
748.803	0.49
748.98	0.41
749.158	0.5
749.335	0.57
749.513	0.45
749.69	0.38
749.868	0.45
750.045	0.44
750.223	0.38
750.4	0.25
750.578	0.58
750.755	0.46
750.932	0.36
751.11	0.43
751.287	0.34
751.464	0.5
751.642	0.33
751.819	0.56
751.996	0.41
752.173	0.41
752.351	0.24
752.528	0.42
752.705	0.36
752.882	0.33
753.06	0.4
753.237	0.49
753.414	0.74
753.591	0.59
753.768	0.42
753.945	0.26
754.122	0.28
754.299	0.42
754.476	0.29
754.654	0.51
754.831	0.4
755.008	0.41
755.185	0.38
755.362	0.38
755.539	0.34
755.716	0.52
755.892	0.39
756.069	0.32
756.246	0.39
756.423	0.35
756.6	0.52
756.777	0.35
756.954	0.43
757.131	0.38
757.307	0.25
757.484	0.17
757.661	0.31
757.838	0.44
758.015	0.33
758.191	0.48
758.368	0.39
758.545	0.56
758.721	0.4
758.898	0.32
759.075	0.43
759.251	0.56
759.428	0.43
759.605	0.19
759.781	0.44
759.958	0.44
760.134	0.45
760.311	0.34
760.488	0.5
760.664	0.48
760.841	0.4
761.017	0.26
761.194	0.5
761.37	0.45
761.547	0.3
761.723	0.3
761.899	0.52
762.076	0.28
762.252	0.26
762.429	0.33
762.605	0.5
762.781	0.27
762.958	0.47
763.134	0.32
763.31	0.22
763.486	0.67
763.663	0.19
763.839	0.43
764.015	0.3
764.191	0.34
764.368	0.39
764.544	0.2
764.72	0.41
764.896	0.48
765.072	0.28
765.248	0.38
765.425	0.35
765.601	0.3
765.777	0.29
765.953	0.22
766.129	0.32
766.305	0.25
766.481	0.55
766.657	0.4
766.833	0.56
767.009	0.23
767.185	0.35
767.361	0.39
767.537	0.2
767.713	0.47
767.889	0.28
768.065	0.38
768.24	0.36
768.416	0.34
768.592	0.22
768.768	0.33
768.944	0.43
769.12	0.28
769.295	0.26
769.471	0.48
769.647	0.21
769.823	0.56
769.998	0.3
770.174	0.25
770.35	0.69
770.525	0.66
770.701	0.41
770.877	0.41
771.052	0.24
771.228	0.33
771.403	0.35
771.579	0.58
771.755	0.61
771.93	0.31
772.106	0.23
772.281	0.04
772.457	0.5
772.632	0.52
772.808	0.21
772.983	0.29
773.159	0.25
773.334	0.67
773.509	0.42
773.685	0.34
773.86	0.69
774.036	0.75
774.211	0.44
774.386	0.34
774.562	0.25
774.737	0.48
774.912	0.38
775.087	0.36
775.263	0.46
775.438	0.41
775.613	0.31
775.788	0.31
775.964	0.49
776.139	0.64
776.314	0.26
776.489	0.38
776.664	0.44
776.839	0.34
777.014	0.47
777.19	0.5
777.365	0.51
777.54	0.6
777.715	0.39
777.89	0.27
778.065	0.11
778.24	0.36
778.415	0.5
778.59	0.23
778.765	0.34
778.94	0.35
779.115	0.29
779.289	0.26
779.464	0.35
779.639	0.38
779.814	0.03
779.989	0.17
780.164	0.56
780.339	0.42
780.513	0.34
780.688	0.35
780.863	0.41
781.038	0.61
781.212	0.2
781.387	0.36
781.562	0.52
781.737	0.43
781.911	0.53
782.086	0.32
782.261	0.3
782.435	0.51
782.61	0.31
782.784	0.32
782.959	0.72
783.134	0.39
783.308	0.13
783.483	0.36
783.657	0.77
783.832	0.84
784.006	0.11
784.181	0.39
784.355	0.69
784.53	0.56
784.704	0.2
784.878	0.74
785.053	0.78
785.227	0.44
785.402	0.69
785.576	0.28
785.75	0.57
785.925	0.09
786.099	0.46
786.273	0.47
786.448	0.64
786.622	0.53
786.796	0.5
786.97	0.57
787.145	1.01
787.319	0.39
787.493	0.41
787.667	0.26
787.841	0.55
788.015	0.58
788.19	0.4
788.364	0.57
788.538	0.56
788.712	0.55
788.886	0.5
789.06	0.55
789.234	0.65
789.408	0.26
789.582	0.36
789.756	0.21
789.93	0.14
790.104	0.26
790.278	0.38
790.452	0.31
790.626	0.7
790.8	0.49
790.973	0.59
791.147	0.63
791.321	0.65
791.495	0.55
791.669	0.46
791.843	0.59
792.016	0.61
792.19	0.82
792.364	0.16
792.538	0.77
792.711	0.58
792.885	0.41
793.059	0.28
793.233	-0.02
793.406	0.58
793.58	0.53
793.754	0.51
793.927	0.48
794.101	0.66
794.274	0.5
794.448	0.66
794.622	0.11
794.795	0.7
794.969	-0.02
795.142	0.91
795.316	0.34
795.489	0.31
795.663	0.74
795.836	0.43
796.009	0.34
796.183	0.93
796.356	0.67
796.53	0.55
796.703	0.48
796.876	0.92
797.05	0.4
797.223	0.34
797.396	0.61
797.57	0.42
797.743	0.69
797.916	0.6
798.09	0.54
798.263	0.47
798.436	0.54
798.609	0.43
798.782	0.64
798.956	0.5
799.129	0.42
799.302	0.33
799.475	0.23
799.648	0.21
799.821	0.22
799.994	0.58
800.167	0.21
800.34	0.5
800.514	0.52
800.687	0.37
800.86	0.35
801.033	0.44
801.206	0.35
801.379	0.64
801.551	0.8
801.724	0.93
801.897	0.82
802.07	0.49
802.243	0.24
802.416	0.79
802.589	0.29
802.762	0.51
802.935	0.34
803.107	0.55
803.28	0.78
803.453	0.71
803.626	0.17
803.798	0.36
803.971	0.53
804.144	0.61
804.317	0.66
804.489	0.81
804.662	0.3
804.835	0.65
805.007	0.28
805.18	0.97
805.353	0.51
805.525	0.35
805.698	0.41
805.87	0.85
806.043	0.78
806.215	0.28
806.388	0.47
806.56	0.21
806.733	0.91
806.905	0.75
807.078	0.65
807.25	0.16
807.423	1.11
807.595	0.43
807.768	0.6
807.94	1.13
808.112	0.48
808.285	0.76
808.457	0.65
808.629	0.72
808.802	1.23
808.974	0.81
809.146	0.49
809.318	0.55
809.491	0.56
809.663	0.8
809.835	0.82
810.007	0.72
810.18	0.53
810.352	0.35
810.524	0.39
810.696	0.9
810.868	1.12
811.04	0.46
811.212	0.41
811.384	0.95
811.556	0.64
811.728	0.52
811.901	1.28
812.073	0.41
812.245	0.79
812.417	0.6
812.589	0.46
812.76	0.59
812.932	0.71
813.104	0.99
813.276	0.7
813.448	0.95
813.62	0.73
813.792	0.63
813.964	0.96
814.136	0.59
814.307	0.33
814.479	0.45
814.651	0.71
814.823	1.24
814.995	0.64
815.166	0.64
815.338	0.63
815.51	0.32
815.681	1.14
815.853	0.43
816.025	0.72
816.196	1.43
816.368	0.76
816.54	0.52
816.711	0.18
816.883	1.28
817.054	1.77
817.226	-0.15
817.398	1.32
817.569	0.64
817.741	0.88
817.912	0.76
818.084	0.97
818.255	1.27
818.426	0.3
818.598	0.39
818.769	0.45
818.941	0.65
819.112	1.4
819.283	1
819.455	0.44
819.626	0.72
819.798	1.1
819.969	1.2
820.14	0.48
820.311	0.62
820.483	0.35
820.654	0.54
820.825	0.46
820.996	0.55
821.168	0.27
821.339	0.93
821.51	0.28
821.681	0.85
821.852	0.88
822.023	0.12
822.195	0.27
822.366	1.06
822.537	0.78
822.708	0.93
822.879	0.57
823.05	0.99
823.221	0.86
823.392	1.13
823.563	0.98
823.734	0.94
823.905	1.25
824.076	0.22
824.247	0.2
824.418	0.76
824.589	1.48
824.759	0.98
824.93	0.98
825.101	0.24
825.272	1.44
825.443	1.37
825.614	1.23
825.784	-0.45
825.955	1.7
826.126	1.58
826.297	1.17
826.467	1.61
826.638	1.23
826.809	0.16
826.98	0.85
827.15	1.01
827.321	1.05
827.492	1.29
827.662	0.92
827.833	1.89
828.003	1.08
828.174	0.36
828.345	0.32
828.515	1.45
828.686	0.91
828.856	0.95
829.027	0.72
829.197	0.38
829.368	1.52
829.538	0.74
829.709	0.45
829.879	0.86
830.049	0.79
830.22	0.93
830.39	0.7
830.56	1.15
830.731	0.57
830.901	0.4
831.072	1.03
831.242	0.59
831.412	1.12
831.582	1.05
831.753	-0.1
831.923	1.18
832.093	0.99
832.263	0.55
832.434	-0.07
832.604	0.26
832.774	1.02
832.944	1.09
833.114	0.46
833.284	0.67
833.454	0.59
833.624	0.45
833.795	0.3
833.965	1.03
834.135	1.31
834.305	0.17
834.475	0.29
834.645	0.86
834.815	1.12
834.985	0.68
835.155	1.26
835.325	1.26
835.494	1.29
835.664	1.17
835.834	-0.23
836.004	0.97
836.174	1.73
836.344	0.45
836.514	-0.07
836.684	1.34
836.853	1.28
837.023	1.15
837.193	0.68
837.363	1.29
837.532	1.16
837.702	0.9
837.872	0.29
838.041	1.34
838.211	2.38
838.381	-0.26
838.55	0.26
838.72	1.87
838.89	2.4
839.059	1.1
839.229	0.28
839.398	2.51
839.568	1.02
839.738	0.64
839.907	1.85
840.077	0.88
840.246	0.48
840.416	0.69
840.585	-0.04
840.755	2.06
840.924	1.61
841.093	0.14
841.263	0.57
841.432	1.24
841.602	0.33
841.771	0.07
841.94	1.25
842.11	2.52
842.279	2.33
842.448	0.65
842.617	0.62
842.787	1.39
842.956	-0.09
843.125	1.53
843.294	1.02
843.464	1.82
843.633	0.93
843.802	1.25
843.971	0.83
844.14	0.55
844.309	1.23
844.479	0.76
844.648	0.29
844.817	0.61
844.986	1.26
845.155	0.59
845.324	1
845.493	0.58
845.662	1.13
845.831	1.91
846	1.68
846.169	1.18
846.338	2.94
846.507	1.76
846.676	1.41
846.844	0.52
847.013	1.59
847.182	1.16
847.351	0.75
847.52	1.3
847.689	1.82
847.858	1.31
848.026	1.21
848.195	1.22
848.364	0.83
848.533	0.7
848.701	0.94
848.87	1.52
849.039	2.01
849.207	1.68
849.376	1.8
849.545	1.65
849.713	0.31
849.882	0.96
850.051	1.48
850.219	1.49
850.388	2.09
850.556	0.82
850.725	0.41
850.893	2.12
851.062	0.62
851.23	1.72
851.399	0.61
851.567	1.41
851.736	0.38
851.904	0.28
852.073	0.94
852.241	3.13
852.41	1.54
852.578	1
852.746	0.9
852.915	1.42
853.083	1.42
853.251	-0.13
853.42	0.79
853.588	2.39
853.756	2.03
853.924	1.21
854.093	-0.02
854.261	1.04
854.429	-0.01
854.597	0.97
854.765	0.18
854.934	1.47
855.102	2.98
855.27	1.03
855.438	2.46
855.606	2.65
855.774	2.78
855.942	-0.18
856.11	1.76
856.278	1.41
856.446	2.46
856.614	1.33
856.782	1.07
856.95	2.19
857.118	2.01
857.286	0.83
857.454	0.51
857.622	1.35
857.79	1.84
857.958	1.3
858.126	2.12
858.294	0.92
858.462	1.67
858.629	0.97
858.797	1.14
858.965	3.09
859.133	1.36
859.301	1.18
859.468	1.21
859.636	1.15
859.804	2.71
859.971	2.78
860.139	0.44
860.307	3.05
860.474	0.49
860.642	0.06
860.81	1.13
860.977	1.06
861.145	1.98
861.313	0.57
861.48	-0.07
861.648	2.07
861.815	1.3
861.983	0.65
862.15	1.47
862.318	2.12
862.485	3.32
862.653	1.02
862.82	0.96
862.988	3.63
863.155	1.86
863.322	0.58
863.49	0.39
863.657	0.94
863.824	3.84
863.992	2.22
864.159	0.15
864.326	2.27
864.494	0.95
864.661	4.57
864.828	0.13
864.996	2.23
865.163	3.17
865.33	0.78
865.497	-0.4
865.664	0.49
865.832	-0.51
865.999	1.16
866.166	0.41
866.333	0.06
866.5	0.7
866.667	1.5
866.834	1.68
867.001	3.5
867.168	-0.73
867.335	1.65
867.502	-0.64
867.669	2.74
867.836	4.91
868.003	1.6
868.17	3.61
868.337	4.11
868.504	3.67
868.671	0.53
868.838	0.41
869.005	1.53
869.172	2.74
869.339	0.38
869.505	2.6
869.672	1.9
869.839	3.73
870.006	3.18
870.173	-0.96
870.339	1.62
870.506	3.74
870.673	0.52
870.84	4.13
871.006	2.38
871.173	2.5
871.34	3.18
871.506	0.11
871.673	2.27
871.839	-0.15
872.006	2.67
872.173	0.71
872.339	2.06
872.506	3.03
872.672	3.52
872.839	0.63
873.005	1.07
873.172	6.68
873.338	3.12
873.505	2.95
873.671	2.12
873.838	4
874.004	0.6
874.171	1.4
874.337	2.86
874.503	3.13
874.67	1.24
874.836	1.95
875.002	3.25
875.169	4.07
875.335	2.62
875.501	0.82
875.668	4
875.834	1.7
876	1.97
876.166	2.66
876.332	2.76
876.499	5.56
876.665	0.18
876.831	1.75
876.997	5.64
877.163	2.74
877.329	0.22
877.495	1.76
877.662	3.04
877.828	1.85
877.994	2.54
878.16	-0.52
878.326	-0.13
878.492	2.35
878.658	1.8
878.824	3.14
878.99	3.31
879.156	1.6
879.322	4.59
879.487	1.7
879.653	4.54
879.819	2.63
879.985	1.99
880.151	2.57
880.317	4.11
880.483	2.15
880.648	4.35
880.814	-1.83
880.98	2.91
881.146	-0.77
881.312	1.76
881.477	1.58
881.643	2.39
881.809	1.3
881.974	4.46
882.14	0.38
882.306	1.88
882.471	4.73
882.637	0.9
882.803	2.96
882.968	3.78
883.134	3.96
883.299	2.84
883.465	1.76
883.63	3.75
883.796	4.14
883.961	3.09
884.127	3.03
884.292	-2.6
884.458	-0.09
884.623	-0.09
