Data from Apollo_Calib_20240827__AbsoluteIrradiance__780__12-09-02-184.txt Node

Date: Wed Aug 28 12:09:02 BST 2024
User: biology
Spectrometer: FLMT08252
Trigger mode: 0
Integration Time (sec): 5.000000E-1
Scans to average: 5
Electric dark correction enabled: true
Nonlinearity correction enabled: false
Boxcar width: 0
XAxis mode: Wavelengths
Number of Pixels in Spectrum: 3648
>>>>>Begin Spectral Data<<<<<
179.588	-0
179.809	-0
180.03	-0
180.251	-0
180.473	-0
180.694	0
180.915	0
181.136	-0
181.357	0
181.578	0
181.799	-0
182.02	-0
182.241	-0
182.462	-0
182.683	0
182.904	-0
183.125	-0
183.346	0
183.567	0
183.788	0
184.009	0
184.23	0
184.451	0
184.672	0
184.892	0
185.113	0
185.334	0
185.555	0
185.776	0
185.996	0
186.217	0
186.438	0
186.659	0
186.879	0
187.1	0
187.321	0
187.541	0
187.762	0
187.983	0
188.203	0
188.424	0
188.644	0
188.865	0
189.086	0
189.306	0
189.527	0
189.747	0
189.968	0
190.188	0
190.409	0
190.629	0
190.849	0
191.07	0
191.29	0
191.511	0
191.731	0
191.951	0
192.172	0
192.392	0
192.612	0
192.833	0
193.053	0
193.273	0
193.493	0
193.714	0
193.934	0
194.154	0
194.374	0
194.594	0
194.815	0
195.035	0
195.255	0
195.475	0
195.695	0
195.915	0
196.135	0
196.355	0
196.575	0
196.795	0
197.015	0
197.235	0
197.455	0
197.675	0
197.895	0
198.115	0
198.335	0
198.555	0
198.775	0
198.995	0
199.214	0
199.434	0
199.654	0
199.874	0
200.094	3.81
200.313	2.47
200.533	2.03
200.753	1.59
200.973	3.68
201.192	2.86
201.412	1.11
201.632	1.52
201.851	3.3
202.071	1.69
202.291	1.59
202.51	1.22
202.73	2.27
202.95	1.67
203.169	0.57
203.389	1.85
203.608	1.89
203.828	1.35
204.047	1.19
204.267	2.45
204.486	1.61
204.706	2.32
204.925	1.83
205.145	1.32
205.364	2.06
205.583	2.24
205.803	1.25
206.022	1.07
206.242	1.91
206.461	1.79
206.68	1.33
206.9	1.8
207.119	2.23
207.338	2.05
207.557	1.3
207.777	0.94
207.996	1.35
208.215	1.66
208.434	1.05
208.654	0.67
208.873	1.45
209.092	1.96
209.311	1.07
209.53	1.2
209.749	1.1
209.968	0.98
210.187	0.91
210.407	0.63
210.626	1.03
210.845	1.82
211.064	1.17
211.283	0.62
211.502	1.66
211.721	0.98
211.94	0.98
212.159	1.22
212.377	1.16
212.596	1.47
212.815	1.08
213.034	1.18
213.253	1.3
213.472	1.18
213.691	0.89
213.91	0.64
214.128	0.88
214.347	1.42
214.566	0.5
214.785	0.39
215.003	1.16
215.222	1.18
215.441	0.72
215.66	0.74
215.878	0.91
216.097	1.21
216.316	0.62
216.534	0.74
216.753	1.01
216.972	0.83
217.19	0.91
217.409	0.55
217.627	0.88
217.846	0.82
218.064	1.02
218.283	0.71
218.501	1.66
218.72	1.18
218.938	0.64
219.157	0.69
219.375	1.05
219.594	0.94
219.812	0.45
220.031	0.53
220.249	1.26
220.467	0.99
220.686	0.64
220.904	0.61
221.122	0.73
221.341	1.06
221.559	0.77
221.777	0.55
221.995	0.74
222.214	0.83
222.432	0.6
222.65	0.76
222.868	0.78
223.086	0.71
223.305	0.92
223.523	0.65
223.741	1.16
223.959	0.5
224.177	0.47
224.395	0.58
224.613	0.8
224.831	0.84
225.049	0.43
225.267	0.52
225.485	0.76
225.703	0.44
225.921	0.48
226.139	0.59
226.357	0.79
226.575	0.75
226.793	0.41
227.011	1.43
227.229	0.66
227.447	0.78
227.665	0.48
227.883	0.43
228.1	0.61
228.318	0.76
228.536	0.24
228.754	0.33
228.972	0.49
229.189	0.64
229.407	0.57
229.625	0.52
229.843	0.82
230.06	0.8
230.278	0.6
230.496	0.65
230.713	0.52
230.931	0.78
231.149	0.4
231.366	0.3
231.584	0.6
231.801	1.01
232.019	0.48
232.236	0.37
232.454	0.44
232.671	0.53
232.889	0.42
233.106	0.39
233.324	0.54
233.541	0.56
233.759	0.49
233.976	0.46
234.194	0.58
234.411	0.52
234.628	0.38
234.846	0.64
235.063	0.47
235.28	0.55
235.498	0.62
235.715	0.32
235.932	0.75
236.149	0.6
236.367	0.36
236.584	0.52
236.801	0.52
237.018	0.55
237.236	0.42
237.453	0.25
237.67	0.57
237.887	0.49
238.104	0.4
238.321	0.3
238.538	0.37
238.755	0.61
238.973	0.33
239.19	0.44
239.407	0.59
239.624	0.52
239.841	0.35
240.058	0.26
240.275	0.56
240.492	0.43
240.709	0.37
240.925	0.35
241.142	0.47
241.359	0.45
241.576	0.35
241.793	0.35
242.01	0.45
242.227	0.61
242.444	0.57
242.66	0.55
242.877	0.55
243.094	0.34
243.311	0.54
243.527	0.41
243.744	0.53
243.961	0.48
244.178	0.31
244.394	0.28
244.611	0.56
244.828	0.7
245.044	0.35
245.261	0.39
245.477	0.44
245.694	0.59
245.911	0.32
246.127	0.37
246.344	0.52
246.56	0.52
246.777	0.33
246.993	0.37
247.21	0.5
247.426	0.45
247.643	0.28
247.859	0.39
248.076	0.32
248.292	0.68
248.508	0.34
248.725	0.4
248.941	0.46
249.157	0.56
249.374	0.31
249.59	0.38
249.806	0.48
250.023	0.57
250.239	0.36
250.455	0.29
250.671	0.41
250.888	0.48
251.104	0.51
251.32	0.25
251.536	0.43
251.752	0.4
251.969	0.43
252.185	0.4
252.401	0.64
252.617	0.46
252.833	0.38
253.049	0.35
253.265	0.4
253.481	0.45
253.697	0.37
253.913	0.29
254.129	0.45
254.345	0.46
254.561	0.32
254.777	0.32
254.993	0.41
255.209	0.4
255.425	0.29
255.641	0.22
255.857	0.43
256.073	0.39
256.288	0.26
256.504	0.3
256.72	0.34
256.936	0.55
257.152	0.33
257.367	0.3
257.583	0.34
257.799	0.4
258.015	0.25
258.23	0.32
258.446	0.63
258.662	0.32
258.877	0.36
259.093	0.27
259.309	0.43
259.524	0.46
259.74	0.34
259.955	0.26
260.171	0.34
260.387	0.4
260.602	0.47
260.818	0.38
261.033	0.29
261.249	0.3
261.464	0.3
261.68	0.23
261.895	0.42
262.11	0.45
262.326	0.31
262.541	0.23
262.757	0.43
262.972	0.44
263.187	0.36
263.403	0.34
263.618	0.53
263.833	0.34
264.049	0.29
264.264	0.3
264.479	0.41
264.694	0.48
264.91	0.19
265.125	0.3
265.34	0.45
265.555	0.57
265.77	0.36
265.986	0.3
266.201	0.4
266.416	0.41
266.631	0.27
266.846	0.27
267.061	0.4
267.276	0.4
267.491	0.17
267.706	0.39
267.921	0.34
268.136	0.36
268.351	0.36
268.566	0.25
268.781	0.5
268.996	0.38
269.211	0.28
269.426	0.22
269.641	0.29
269.856	0.41
270.071	0.17
270.285	0.15
270.5	0.47
270.715	0.46
270.93	0.26
271.145	0.35
271.359	0.46
271.574	0.3
271.789	0.33
272.004	0.24
272.218	0.24
272.433	0.44
272.648	0.27
272.862	0.37
273.077	0.35
273.292	0.32
273.506	0.25
273.721	0.19
273.936	0.37
274.15	0.38
274.365	0.27
274.579	0.33
274.794	0.41
275.008	0.38
275.223	0.23
275.437	0.29
275.652	0.39
275.866	0.37
276.081	0.32
276.295	0.38
276.509	0.29
276.724	0.31
276.938	0.36
277.153	0.33
277.367	0.38
277.581	0.36
277.796	0.26
278.01	0.18
278.224	0.34
278.438	0.42
278.653	0.3
278.867	0.24
279.081	0.14
279.295	0.26
279.51	0.28
279.724	0.18
279.938	0.39
280.152	0.41
280.366	0.27
280.58	0.27
280.794	0.44
281.008	0.39
281.222	0.34
281.437	0.44
281.651	0.36
281.865	0.41
282.079	0.25
282.293	0.18
282.507	0.27
282.721	0.26
282.935	0.32
283.148	0.21
283.362	0.26
283.576	0.25
283.79	0.26
284.004	0.24
284.218	0.42
284.432	0.24
284.646	0.26
284.859	0.29
285.073	0.26
285.287	0.35
285.501	0.26
285.714	0.27
285.928	0.35
286.142	0.3
286.356	0.2
286.569	0.25
286.783	0.4
286.997	0.35
287.21	0.29
287.424	0.29
287.637	0.28
287.851	0.25
288.065	0.35
288.278	0.27
288.492	0.27
288.705	0.28
288.919	0.35
289.132	0.17
289.346	0.31
289.559	0.18
289.773	0.19
289.986	0.31
290.2	0.28
290.413	0.33
290.626	0.22
290.84	0.23
291.053	0.27
291.267	0.36
291.48	0.26
291.693	0.26
291.906	0.26
292.12	0.24
292.333	0.24
292.546	0.24
292.76	0.36
292.973	0.3
293.186	0.28
293.399	0.21
293.612	0.32
293.826	0.28
294.039	0.25
294.252	0.24
294.465	0.32
294.678	0.3
294.891	0.29
295.104	0.17
295.317	0.2
295.53	0.25
295.743	0.29
295.956	0.24
296.169	0.38
296.382	0.34
296.595	0.32
296.808	0.26
297.021	0.3
297.234	0.29
297.447	0.22
297.66	0.29
297.873	0.38
298.086	0.32
298.299	0.2
298.511	0.2
298.724	0.27
298.937	0.17
299.15	0.22
299.363	0.26
299.575	0.3
299.788	0.26
300.001	0.25
300.213	0.23
300.426	0.22
300.639	0.22
300.852	0.18
301.064	0.27
301.277	0.36
301.489	0.31
301.702	0.27
301.915	0.27
302.127	0.21
302.34	0.28
302.552	0.27
302.765	0.21
302.977	0.3
303.19	0.18
303.402	0.23
303.615	0.21
303.827	0.29
304.04	0.25
304.252	0.29
304.464	0.25
304.677	0.4
304.889	0.28
305.102	0.22
305.314	0.2
305.526	0.25
305.739	0.29
305.951	0.19
306.163	0.2
306.375	0.36
306.588	0.21
306.8	0.21
307.012	0.17
307.224	0.25
307.436	0.33
307.649	0.19
307.861	0.23
308.073	0.29
308.285	0.21
308.497	0.19
308.709	0.2
308.921	0.24
309.133	0.28
309.346	0.2
309.558	0.24
309.77	0.3
309.982	0.36
310.194	0.29
310.406	0.2
310.617	0.34
310.829	0.27
311.041	0.3
311.253	0.18
311.465	0.28
311.677	0.26
311.889	0.25
312.101	0.2
312.313	0.32
312.524	0.33
312.736	0.2
312.948	0.24
313.16	0.35
313.372	0.29
313.583	0.26
313.795	0.21
314.007	0.25
314.218	0.27
314.43	0.27
314.642	0.21
314.853	0.16
315.065	0.29
315.277	0.21
315.488	0.28
315.7	0.29
315.912	0.3
316.123	0.25
316.335	0.24
316.546	0.39
316.758	0.25
316.969	0.19
317.181	0.25
317.392	0.25
317.604	0.33
317.815	0.22
318.026	0.24
318.238	0.23
318.449	0.26
318.661	0.2
318.872	0.18
319.083	0.22
319.295	0.29
319.506	0.24
319.717	0.24
319.929	0.28
320.14	0.31
320.351	0.22
320.562	0.2
320.774	0.29
320.985	0.28
321.196	0.21
321.407	0.15
321.618	0.31
321.829	0.25
322.041	0.3
322.252	0.23
322.463	0.25
322.674	0.31
322.885	0.19
323.096	0.25
323.307	0.27
323.518	0.29
323.729	0.2
323.94	0.22
324.151	0.27
324.362	0.26
324.573	0.25
324.784	0.25
324.995	0.32
325.206	0.27
325.417	0.25
325.628	0.21
325.838	0.3
326.049	0.26
326.26	0.28
326.471	0.21
326.682	0.28
326.892	0.27
327.103	0.2
327.314	0.23
327.525	0.28
327.735	0.27
327.946	0.24
328.157	0.18
328.368	0.31
328.578	0.25
328.789	0.28
328.999	0.27
329.21	0.22
329.421	0.31
329.631	0.23
329.842	0.18
330.052	0.25
330.263	0.31
330.473	0.24
330.684	0.22
330.894	0.24
331.105	0.3
331.315	0.23
331.526	0.18
331.736	0.34
331.947	0.29
332.157	0.28
332.367	0.14
332.578	0.27
332.788	0.28
332.999	0.28
333.209	0.23
333.419	0.19
333.629	0.32
333.84	0.28
334.05	0.27
334.26	0.35
334.47	0.24
334.681	0.31
334.891	0.23
335.101	0.29
335.311	0.35
335.521	0.27
335.732	0.23
335.942	0.29
336.152	0.25
336.362	0.22
336.572	0.25
336.782	0.31
336.992	0.2
337.202	0.22
337.412	0.22
337.622	0.28
337.832	0.25
338.042	0.25
338.252	0.19
338.462	0.24
338.672	0.26
338.882	0.21
339.092	0.19
339.302	0.35
339.511	0.29
339.721	0.22
339.931	0.15
340.141	0.3
340.351	0.35
340.561	0.25
340.77	0.25
340.98	0.24
341.19	0.28
341.4	0.22
341.609	0.19
341.819	0.2
342.029	0.19
342.238	0.26
342.448	0.22
342.658	0.31
342.867	0.26
343.077	0.23
343.286	0.23
343.496	0.27
343.706	0.31
343.915	0.23
344.125	0.22
344.334	0.28
344.544	0.2
344.753	0.21
344.963	0.21
345.172	0.22
345.381	0.2
345.591	0.22
345.8	0.26
346.01	0.28
346.219	0.3
346.428	0.13
346.638	0.22
346.847	0.2
347.056	0.31
347.266	0.22
347.475	0.25
347.684	0.28
347.893	0.29
348.103	0.28
348.312	0.23
348.521	0.24
348.73	0.31
348.94	0.24
349.149	0.25
349.358	0.23
349.567	0.25
349.776	0.18
349.985	0.19
350.194	0.28
350.403	0.31
350.612	0.17
350.821	0.2
351.03	0.24
351.239	0.14
351.448	0.23
351.657	0.22
351.866	0.33
352.075	0.25
352.284	0.22
352.493	0.2
352.702	0.3
352.911	0.23
353.12	0.22
353.329	0.22
353.538	0.26
353.746	0.27
353.955	0.18
354.164	0.28
354.373	0.22
354.582	0.3
354.79	0.2
354.999	0.3
355.208	0.22
355.416	0.31
355.625	0.15
355.834	0.25
356.042	0.22
356.251	0.22
356.46	0.18
356.668	0.22
356.877	0.33
357.085	0.25
357.294	0.15
357.503	0.25
357.711	0.23
357.92	0.44
358.128	0.24
358.337	0.21
358.545	0.26
358.754	0.2
358.962	0.28
359.17	0.22
359.379	0.28
359.587	0.28
359.796	0.21
360.004	0.3
360.212	0.3
360.421	0.3
360.629	0.24
360.837	0.21
361.046	0.3
361.254	0.4
361.462	0.2
361.67	0.21
361.879	0.27
362.087	0.36
362.295	0.27
362.503	0.21
362.711	0.18
362.92	0.2
363.128	0.19
363.336	0.16
363.544	0.18
363.752	0.22
363.96	0.24
364.168	0.24
364.376	0.28
364.584	0.23
364.792	0.29
365	0.26
365.208	0.22
365.416	0.28
365.624	0.28
365.832	0.24
366.04	0.32
366.248	0.25
366.456	0.24
366.664	0.24
366.872	0.22
367.079	0.22
367.287	0.22
367.495	0.24
367.703	0.21
367.911	0.21
368.118	0.25
368.326	0.25
368.534	0.21
368.742	0.34
368.949	0.19
369.157	0.22
369.365	0.25
369.572	0.22
369.78	0.21
369.988	0.28
370.195	0.25
370.403	0.31
370.61	0.19
370.818	0.25
371.026	0.35
371.233	0.23
371.441	0.25
371.648	0.24
371.856	0.28
372.063	0.26
372.271	0.26
372.478	0.2
372.685	0.25
372.893	0.32
373.1	0.23
373.308	0.21
373.515	0.35
373.722	0.3
373.93	0.22
374.137	0.31
374.344	0.35
374.552	0.32
374.759	0.28
374.966	0.25
375.173	0.22
375.381	0.3
375.588	0.25
375.795	0.19
376.002	0.25
376.209	0.23
376.417	0.22
376.624	0.28
376.831	0.3
377.038	0.21
377.245	0.18
377.452	0.24
377.659	0.26
377.866	0.21
378.073	0.24
378.28	0.2
378.487	0.36
378.694	0.29
378.901	0.26
379.108	0.22
379.315	0.32
379.522	0.38
379.729	0.27
379.936	0.24
380.143	0.26
380.35	0.25
380.557	0.25
380.763	0.27
380.97	0.27
381.177	0.27
381.384	0.26
381.591	0.22
381.797	0.32
382.004	0.3
382.211	0.31
382.418	0.22
382.624	0.27
382.831	0.33
383.038	0.26
383.244	0.31
383.451	0.26
383.658	0.32
383.864	0.23
384.071	0.21
384.277	0.33
384.484	0.23
384.69	0.34
384.897	0.26
385.103	0.27
385.31	0.22
385.516	0.27
385.723	0.25
385.929	0.29
386.136	0.26
386.342	0.27
386.549	0.25
386.755	0.35
386.961	0.32
387.168	0.26
387.374	0.25
387.58	0.31
387.787	0.25
387.993	0.32
388.199	0.28
388.406	0.24
388.612	0.26
388.818	0.27
389.024	0.23
389.231	0.32
389.437	0.41
389.643	0.33
389.849	0.27
390.055	0.29
390.261	0.28
390.467	0.32
390.674	0.26
390.88	0.27
391.086	0.35
391.292	0.21
391.498	0.32
391.704	0.32
391.91	0.31
392.116	0.27
392.322	0.18
392.528	0.38
392.734	0.28
392.94	0.29
393.146	0.26
393.352	0.33
393.557	0.28
393.763	0.28
393.969	0.31
394.175	0.31
394.381	0.34
394.587	0.27
394.792	0.3
394.998	0.4
395.204	0.32
395.41	0.3
395.615	0.31
395.821	0.36
396.027	0.36
396.233	0.27
396.438	0.37
396.644	0.36
396.85	0.35
397.055	0.3
397.261	0.34
397.466	0.45
397.672	0.35
397.878	0.4
398.083	0.31
398.289	0.29
398.494	0.39
398.7	0.39
398.905	0.3
399.111	0.43
399.316	0.31
399.522	0.37
399.727	0.33
399.932	0.33
400.138	0.32
400.343	0.32
400.549	0.34
400.754	0.36
400.959	0.36
401.165	0.37
401.37	0.38
401.575	0.5
401.78	0.42
401.986	0.31
402.191	0.4
402.396	0.37
402.601	0.43
402.807	0.42
403.012	0.41
403.217	0.46
403.422	0.39
403.627	0.41
403.832	0.35
404.037	0.42
404.243	0.45
404.448	0.38
404.653	0.44
404.858	0.46
405.063	0.5
405.268	0.39
405.473	0.36
405.678	0.42
405.883	0.65
406.088	0.53
406.293	0.4
406.498	0.42
406.703	0.54
406.907	0.49
407.112	0.39
407.317	0.55
407.522	0.6
407.727	0.5
407.932	0.58
408.136	0.7
408.341	0.54
408.546	0.58
408.751	0.61
408.956	0.61
409.16	0.65
409.365	0.6
409.57	0.63
409.774	0.65
409.979	0.73
410.184	0.67
410.388	0.63
410.593	0.76
410.798	0.75
411.002	0.72
411.207	0.77
411.411	0.82
411.616	0.78
411.82	0.84
412.025	0.86
412.229	0.85
412.434	1
412.638	0.89
412.843	0.9
413.047	0.95
413.252	0.96
413.456	1.04
413.66	1.07
413.865	1.03
414.069	1.18
414.273	1.08
414.478	1.18
414.682	1.14
414.886	1.19
415.091	1.19
415.295	1.27
415.499	1.45
415.703	1.4
415.908	1.46
416.112	1.35
416.316	1.59
416.52	1.62
416.724	1.54
416.929	1.59
417.133	1.93
417.337	1.73
417.541	1.8
417.745	1.9
417.949	2.01
418.153	2.06
418.357	2.05
418.561	2.23
418.765	2.27
418.969	2.43
419.173	2.42
419.377	2.45
419.581	2.71
419.785	2.6
419.989	2.73
420.193	2.88
420.397	2.92
420.601	3.13
420.804	3.2
421.008	3.14
421.212	3.31
421.416	3.34
421.62	3.35
421.823	3.45
422.027	3.58
422.231	3.57
422.435	3.56
422.638	3.6
422.842	3.78
423.046	3.86
423.249	4.01
423.453	4.02
423.657	4.2
423.86	4.27
424.064	4.37
424.268	4.58
424.471	4.58
424.675	4.83
424.878	4.86
425.082	4.92
425.285	5.28
425.489	5.17
425.692	5.3
425.896	5.35
426.099	5.59
426.303	5.67
426.506	5.85
426.71	6.07
426.913	6.28
427.116	6.41
427.32	6.46
427.523	6.52
427.726	6.87
427.93	6.89
428.133	7.22
428.336	7.33
428.54	7.49
428.743	7.85
428.946	8.07
429.149	8.06
429.353	8.04
429.556	8.16
429.759	8.17
429.962	8.31
430.165	8.37
430.368	8.15
430.571	8.19
430.775	8.2
430.978	8.18
431.181	8.28
431.384	8.41
431.587	8.49
431.79	8.89
431.993	8.76
432.196	9.11
432.399	9.3
432.602	9.61
432.805	9.72
433.008	10.17
433.211	9.96
433.414	10.34
433.616	10.43
433.819	10.4
434.022	10.55
434.225	10.7
434.428	10.77
434.631	11.16
434.833	10.94
435.036	11.23
435.239	11.44
435.442	11.39
435.645	11.57
435.847	11.64
436.05	12.02
436.253	12.15
436.455	12.24
436.658	12.15
436.861	12.5
437.063	12.64
437.266	12.47
437.468	12.91
437.671	13.22
437.874	13.37
438.076	13.15
438.279	13.59
438.481	13.55
438.684	14.28
438.886	13.93
439.089	14.36
439.291	14.29
439.494	14.64
439.696	14.76
439.899	15.24
440.101	15.81
440.303	15.93
440.506	16.73
440.708	16.4
440.91	16.72
441.113	16.89
441.315	17.12
441.517	16.81
441.72	17.33
441.922	17.09
442.124	16.89
442.326	17.28
442.529	17.58
442.731	17.5
442.933	17.84
443.135	17.71
443.337	17.63
443.539	18.07
443.742	17.65
443.944	18.48
444.146	18.14
444.348	18.28
444.55	18.02
444.752	18.37
444.954	18.29
445.156	18.07
445.358	18.47
445.56	18.75
445.762	18.47
445.964	18.94
446.166	18.62
446.368	18.71
446.57	18.58
446.772	18.24
446.974	18.01
447.175	18.23
447.377	17.94
447.579	18.34
447.781	18.22
447.983	17.76
448.184	17.39
448.386	17.79
448.588	17.15
448.79	17.1
448.991	17.44
449.193	17.65
449.395	16.76
449.597	16.4
449.798	16.35
450	15.86
450.202	15.8
450.403	15.79
450.605	15.68
450.806	15.2
451.008	15.04
451.21	14.95
451.411	14.53
451.613	13.62
451.814	13.89
452.016	13.91
452.217	13.18
452.419	13.26
452.62	12.82
452.821	12.71
453.023	12.5
453.224	12.06
453.426	11.74
453.627	10.95
453.828	11.13
454.03	11.22
454.231	11.18
454.432	10.93
454.634	10.58
454.835	10.44
455.036	10.2
455.238	9.87
455.439	9.72
455.64	9.4
455.841	9.27
456.042	9.5
456.244	9.02
456.445	8.83
456.646	8.56
456.847	8.4
457.048	8.32
457.249	8.32
457.45	8.13
457.651	7.67
457.852	7.45
458.054	7.14
458.255	7.1
458.456	7.24
458.657	6.99
458.858	6.7
459.058	6.57
459.259	6.69
459.46	6.3
459.661	6.31
459.862	6.38
460.063	6.21
460.264	6.27
460.465	5.86
460.666	5.98
460.866	5.72
461.067	5.47
461.268	5.49
461.469	5.46
461.67	5.34
461.87	5.17
462.071	5.18
462.272	5.11
462.473	5.13
462.673	5.25
462.874	5.13
463.075	5.06
463.275	5.01
463.476	5.06
463.676	5.07
463.877	4.88
464.078	4.94
464.278	4.97
464.479	4.78
464.679	4.7
464.88	4.57
465.08	4.66
465.281	4.46
465.481	4.26
465.682	4.02
465.882	4.13
466.083	4.01
466.283	3.98
466.483	3.86
466.684	3.67
466.884	3.58
467.085	3.61
467.285	3.66
467.485	3.58
467.686	3.45
467.886	3.42
468.086	3.26
468.286	3.28
468.487	3.41
468.687	3.19
468.887	3.24
469.087	3.32
469.287	3.24
469.488	3
469.688	3.12
469.888	3.16
470.088	3.11
470.288	3.05
470.488	3.02
470.688	2.83
470.888	2.79
471.088	2.68
471.288	2.75
471.488	2.75
471.688	2.73
471.888	2.65
472.088	2.8
472.288	2.64
472.488	2.55
472.688	2.51
472.888	2.55
473.088	2.6
473.288	2.46
473.488	2.46
473.688	2.61
473.887	2.44
474.087	2.33
474.287	2.4
474.487	2.37
474.687	2.38
474.886	2.33
475.086	2.25
475.286	2.26
475.486	2.27
475.685	2.21
475.885	2.18
476.085	2.3
476.284	2.19
476.484	2.2
476.684	2.18
476.883	2.29
477.083	2.13
477.282	2.1
477.482	2.17
477.681	2.16
477.881	2.07
478.08	2.04
478.28	1.98
478.479	2.09
478.679	2.16
478.878	1.99
479.078	2.03
479.277	2.01
479.477	2.08
479.676	2.03
479.875	2.02
480.075	1.93
480.274	2.02
480.473	2.02
480.673	1.94
480.872	2.05
481.071	2.02
481.271	2.06
481.47	1.98
481.669	2.02
481.868	1.95
482.067	1.94
482.267	1.89
482.466	1.95
482.665	1.91
482.864	1.93
483.063	1.91
483.262	2.01
483.461	1.97
483.661	2.07
483.86	2
484.059	2.02
484.258	2.01
484.457	1.95
484.656	2.01
484.855	2.07
485.054	1.91
485.253	1.98
485.452	1.97
485.651	2.04
485.849	1.97
486.048	1.97
486.247	1.99
486.446	2.09
486.645	2.02
486.844	2.07
487.043	1.99
487.241	2.09
487.44	2.07
487.639	2.12
487.838	2.1
488.037	2.1
488.235	2.22
488.434	2.16
488.633	2.01
488.831	2.25
489.03	2.22
489.229	2.25
489.427	2.19
489.626	2.28
489.825	2.32
490.023	2.27
490.222	2.24
490.42	2.28
490.619	2.36
490.817	2.33
491.016	2.33
491.214	2.42
491.413	2.41
491.611	2.36
491.81	2.38
492.008	2.44
492.207	2.53
492.405	2.52
492.604	2.43
492.802	2.51
493	2.6
493.199	2.61
493.397	2.62
493.595	2.69
493.794	2.66
493.992	2.81
494.19	2.78
494.388	2.83
494.587	2.73
494.785	2.82
494.983	2.75
495.181	2.88
495.379	2.88
495.578	2.98
495.776	2.97
495.974	2.92
496.172	2.98
496.37	3.1
496.568	3.09
496.766	3.07
496.964	3.18
497.162	3.19
497.36	3.23
497.558	3.26
497.756	3.31
497.954	3.27
498.152	3.3
498.35	3.41
498.548	3.37
498.746	3.36
498.944	3.41
499.142	3.47
499.34	3.54
499.538	3.64
499.736	3.53
499.933	3.64
500.131	3.61
500.329	3.75
500.527	3.76
500.725	3.87
500.922	3.87
501.12	3.86
501.318	3.9
501.516	3.96
501.713	4.03
501.911	3.97
502.109	3.95
502.306	4.1
502.504	3.98
502.701	4.11
502.899	4.16
503.097	4.37
503.294	4.22
503.492	4.31
503.689	4.4
503.887	4.38
504.084	4.5
504.282	4.49
504.479	4.39
504.677	4.57
504.874	4.54
505.072	4.45
505.269	4.66
505.466	4.71
505.664	4.77
505.861	4.69
506.059	4.79
506.256	4.78
506.453	4.83
506.651	4.99
506.848	5
507.045	5.01
507.242	4.95
507.44	5.05
507.637	5.09
507.834	5.1
508.031	5.22
508.229	5.16
508.426	5.1
508.623	5.25
508.82	5.27
509.017	5.29
509.214	5.24
509.411	5.42
509.608	5.41
509.805	5.45
510.003	5.51
510.2	5.54
510.397	5.71
510.594	5.57
510.791	5.7
510.988	5.66
511.184	5.59
511.381	5.49
511.578	5.67
511.775	5.84
511.972	5.79
512.169	5.86
512.366	5.85
512.563	5.98
512.76	6
512.956	6.09
513.153	6.02
513.35	5.91
513.547	5.93
513.744	6.06
513.94	6.02
514.137	6.15
514.334	6.16
514.53	6.23
514.727	6.39
514.924	6.28
515.12	6.31
515.317	6.29
515.514	6.21
515.71	6.23
515.907	6.44
516.103	6.51
516.3	6.31
516.497	6.54
516.693	6.48
516.89	6.5
517.086	6.49
517.283	6.58
517.479	6.45
517.676	6.65
517.872	6.67
518.068	6.66
518.265	6.62
518.461	6.59
518.658	6.72
518.854	6.72
519.05	6.86
519.247	6.8
519.443	6.77
519.639	6.93
519.836	6.77
520.032	6.72
520.228	6.88
520.424	6.91
520.621	6.98
520.817	6.97
521.013	6.91
521.209	7.17
521.405	7.06
521.601	7.04
521.798	7.02
521.994	7.06
522.19	6.99
522.386	7.06
522.582	7.13
522.778	7.24
522.974	7.09
523.17	7.15
523.366	7.12
523.562	7.18
523.758	7.2
523.954	7.06
524.15	7.3
524.346	7.26
524.542	7.34
524.738	7.28
524.934	7.42
525.129	7.31
525.325	7.23
525.521	7.22
525.717	7.45
525.913	7.39
526.109	7.38
526.304	7.51
526.5	7.47
526.696	7.48
526.892	7.42
527.087	7.66
527.283	7.55
527.479	7.53
527.674	7.33
527.87	7.51
528.066	7.52
528.261	7.59
528.457	7.46
528.653	7.63
528.848	7.63
529.044	7.67
529.239	7.57
529.435	7.59
529.63	7.53
529.826	7.58
530.021	7.56
530.217	7.66
530.412	7.58
530.608	7.64
530.803	7.64
530.999	7.54
531.194	7.67
531.389	7.69
531.585	7.7
531.78	7.82
531.975	7.75
532.171	7.81
532.366	7.78
532.561	7.76
532.757	7.73
532.952	7.89
533.147	7.66
533.342	7.79
533.538	7.66
533.733	7.95
533.928	7.62
534.123	7.78
534.318	7.85
534.513	7.73
534.709	7.96
534.904	7.88
535.099	7.91
535.294	7.95
535.489	7.91
535.684	7.9
535.879	7.84
536.074	7.92
536.269	7.91
536.464	7.92
536.659	7.87
536.854	7.93
537.049	8.02
537.244	7.91
537.439	7.86
537.634	7.92
537.828	8.04
538.023	7.92
538.218	7.96
538.413	7.81
538.608	7.96
538.803	7.92
538.997	7.85
539.192	8
539.387	7.94
539.582	7.91
539.776	7.87
539.971	8
540.166	8.01
540.36	7.94
540.555	8.04
540.75	8.03
540.944	8
541.139	8.06
541.334	7.99
541.528	8.04
541.723	8.12
541.917	8.07
542.112	7.94
542.306	7.85
542.501	8
542.695	8.04
542.89	7.97
543.084	7.95
543.279	8.08
543.473	8.05
543.668	8.17
543.862	7.94
544.056	7.91
544.251	8.05
544.445	8.12
544.64	8.13
544.834	7.86
545.028	7.72
545.222	8.03
545.417	8.25
545.611	8.1
545.805	8.11
546	7.91
546.194	8.09
546.388	8.09
546.582	8.02
546.776	8.02
546.97	8.08
547.165	8.06
547.359	8.04
547.553	8.05
547.747	8.07
547.941	8.27
548.135	8.09
548.329	8.1
548.523	8.11
548.717	8
548.911	8.04
549.105	7.99
549.299	8.13
549.493	8.13
549.687	8.01
549.881	8.15
550.075	8.13
550.269	7.98
550.463	8.14
550.657	8.12
550.85	8.12
551.044	8.14
551.238	8.14
551.432	8.07
551.626	8.13
551.82	8.2
552.013	8.03
552.207	8.23
552.401	8.28
552.594	8.12
552.788	8.01
552.982	8.06
553.176	8.04
553.369	8.25
553.563	8.15
553.756	8.1
553.95	8.15
554.144	8.23
554.337	8.09
554.531	7.99
554.724	8.13
554.918	8.23
555.111	8.09
555.305	8.13
555.498	8.07
555.692	8.21
555.885	8.13
556.079	8.11
556.272	8.2
556.466	8.12
556.659	8.11
556.852	8.16
557.046	8.07
557.239	7.96
557.432	8.08
557.626	8.17
557.819	8.25
558.012	8.14
558.206	8.22
558.399	8.14
558.592	8.07
558.785	8.07
558.979	8.09
559.172	8.14
559.365	8.14
559.558	8.03
559.751	8.02
559.944	8.23
560.138	8.11
560.331	8.15
560.524	8.21
560.717	8.07
560.91	8.14
561.103	8.17
561.296	7.97
561.489	8.16
561.682	8.24
561.875	8.14
562.068	8.2
562.261	8.08
562.454	8.27
562.647	8.12
562.84	8.14
563.032	8.15
563.225	8.06
563.418	8.08
563.611	8.19
563.804	8.14
563.997	7.98
564.19	7.9
564.382	8.2
564.575	8.08
564.768	8.09
564.961	8.19
565.153	8.02
565.346	8.03
565.539	8.14
565.731	8.03
565.924	8.11
566.117	8.23
566.309	8.12
566.502	8.07
566.695	8.07
566.887	8.15
567.08	8.13
567.272	8.19
567.465	7.99
567.657	8.19
567.85	8.05
568.042	8.17
568.235	8.1
568.427	7.98
568.62	8.05
568.812	8.01
569.005	8.16
569.197	7.97
569.389	8.06
569.582	8.09
569.774	8.05
569.966	8.02
570.159	7.94
570.351	7.99
570.543	7.95
570.736	8.07
570.928	7.84
571.12	8.1
571.312	8
571.505	7.78
571.697	8.15
571.889	8.01
572.081	8.05
572.273	7.95
572.465	8.03
572.658	8.02
572.85	8.03
573.042	8.07
573.234	7.95
573.426	8
573.618	7.92
573.81	8
574.002	7.9
574.194	8
574.386	7.96
574.578	7.76
574.77	7.98
574.962	7.99
575.154	7.86
575.346	7.86
575.538	7.84
575.729	7.85
575.921	7.97
576.113	7.96
576.305	7.93
576.497	7.95
576.689	7.83
576.88	7.81
577.072	7.97
577.264	7.88
577.456	7.92
577.647	7.82
577.839	8.02
578.031	7.95
578.223	7.83
578.414	7.72
578.606	7.84
578.798	7.94
578.989	7.9
579.181	7.89
579.372	7.84
579.564	7.83
579.755	7.77
579.947	7.68
580.139	7.89
580.33	7.7
580.522	7.79
580.713	7.72
580.905	7.74
581.096	7.87
581.287	7.72
581.479	7.73
581.67	7.85
581.862	7.72
582.053	7.74
582.244	7.64
582.436	7.8
582.627	7.67
582.818	7.67
583.01	7.63
583.201	7.67
583.392	7.66
583.583	7.63
583.775	7.5
583.966	7.58
584.157	7.62
584.348	7.67
584.54	7.58
584.731	7.62
584.922	7.52
585.113	7.48
585.304	7.55
585.495	7.59
585.686	7.76
585.877	7.62
586.068	7.67
586.259	7.6
586.45	7.54
586.641	7.54
586.832	7.61
587.023	7.54
587.214	7.44
587.405	7.57
587.596	7.42
587.787	7.4
587.978	7.47
588.169	7.43
588.36	7.37
588.551	7.48
588.742	7.46
588.932	7.45
589.123	7.28
589.314	7.49
589.505	7.4
589.696	7.44
589.886	7.3
590.077	7.38
590.268	7.3
590.458	7.23
590.649	7.17
590.84	7.35
591.03	7.32
591.221	7.29
591.412	7.15
591.602	7.36
591.793	7.29
591.984	7.29
592.174	7.26
592.365	7.39
592.555	7.1
592.746	7.13
592.936	7.23
593.127	7.15
593.317	7.25
593.508	7.25
593.698	7.05
593.889	7.13
594.079	7.1
594.269	6.99
594.46	7.1
594.65	7.09
594.84	7.07
595.031	6.97
595.221	6.96
595.411	7.03
595.602	7.06
595.792	6.94
595.982	6.84
596.172	7.05
596.363	6.96
596.553	6.92
596.743	6.96
596.933	6.89
597.123	6.9
597.314	6.75
597.504	6.8
597.694	6.89
597.884	6.77
598.074	6.91
598.264	6.87
598.454	6.85
598.644	6.83
598.834	6.79
599.024	6.66
599.214	6.74
599.404	6.82
599.594	6.74
599.784	6.66
599.974	6.81
600.164	6.68
600.354	6.62
600.544	6.61
600.734	6.68
600.924	6.65
601.114	6.55
601.303	6.6
601.493	6.66
601.683	6.63
601.873	6.55
602.063	6.45
602.252	6.49
602.442	6.45
602.632	6.43
602.821	6.37
603.011	6.45
603.201	6.44
603.39	6.41
603.58	6.24
603.77	6.43
603.959	6.41
604.149	6.4
604.339	6.37
604.528	6.5
604.718	6.41
604.907	6.29
605.097	6.2
605.286	6.21
605.476	6.2
605.665	6.27
605.855	6.21
606.044	6.34
606.234	6.22
606.423	6.24
606.612	6.08
606.802	6.14
606.991	6.23
607.181	6.2
607.37	6.12
607.559	5.94
607.749	6.09
607.938	6
608.127	6.03
608.316	6.06
608.506	5.98
608.695	6.07
608.884	6.03
609.073	6.03
609.263	6.05
609.452	6.07
609.641	5.92
609.83	5.8
610.019	5.99
610.208	5.85
610.397	5.84
610.586	5.88
610.775	5.83
610.965	5.81
611.154	5.76
611.343	5.77
611.532	5.72
611.721	5.85
611.91	5.7
612.099	5.71
612.287	5.68
612.476	5.62
612.665	5.7
612.854	5.61
613.043	5.66
613.232	5.62
613.421	5.56
613.61	5.62
613.798	5.61
613.987	5.6
614.176	5.51
614.365	5.56
614.554	5.55
614.742	5.54
614.931	5.44
615.12	5.53
615.309	5.47
615.497	5.41
615.686	5.29
615.875	5.38
616.063	5.39
616.252	5.33
616.44	5.34
616.629	5.32
616.818	5.29
617.006	5.27
617.195	5.23
617.383	5.34
617.572	5.16
617.76	5.18
617.949	5.22
618.137	5.27
618.326	5.24
618.514	4.98
618.703	5.02
618.891	5.16
619.079	5.05
619.268	5.13
619.456	5.04
619.644	5.17
619.833	5.03
620.021	5.04
620.209	4.94
620.398	5.02
620.586	4.9
620.774	4.99
620.962	4.94
621.151	5.02
621.339	4.84
621.527	4.79
621.715	4.81
621.903	4.86
622.092	4.72
622.28	4.96
622.468	4.67
622.656	4.79
622.844	4.75
623.032	4.83
623.22	4.65
623.408	4.82
623.596	4.71
623.784	4.76
623.972	4.72
624.16	4.67
624.348	4.74
624.536	4.73
624.724	4.56
624.912	4.64
625.1	4.64
625.288	4.59
625.476	4.52
625.664	4.6
625.851	4.53
626.039	4.58
626.227	4.52
626.415	4.48
626.603	4.41
626.79	4.51
626.978	4.39
627.166	4.51
627.354	4.36
627.541	4.37
627.729	4.32
627.917	4.52
628.104	4.42
628.292	4.31
628.48	4.31
628.667	4.24
628.855	4.39
629.042	4.35
629.23	4.29
629.418	4.29
629.605	4.28
629.793	4.14
629.98	4.2
630.168	4.23
630.355	4.21
630.543	4.19
630.73	4.09
630.917	4.1
631.105	4.26
631.292	4.1
631.48	4.04
631.667	4.17
631.854	4.08
632.042	4.07
632.229	3.98
632.416	4.02
632.604	4.02
632.791	3.91
632.978	3.96
633.165	3.92
633.353	3.95
633.54	3.97
633.727	3.85
633.914	3.84
634.101	3.81
634.289	3.94
634.476	3.79
634.663	3.79
634.85	3.79
635.037	3.78
635.224	3.67
635.411	3.76
635.598	3.74
635.785	3.7
635.972	3.66
636.159	3.74
636.346	3.71
636.533	3.65
636.72	3.67
636.907	3.61
637.094	3.66
637.281	3.48
637.468	3.58
637.655	3.57
637.842	3.58
638.029	3.51
638.215	3.53
638.402	3.46
638.589	3.46
638.776	3.45
638.963	3.44
639.149	3.55
639.336	3.65
639.523	3.44
639.709	3.4
639.896	3.38
640.083	3.41
640.27	3.43
640.456	3.34
640.643	3.34
640.829	3.2
641.016	3.28
641.203	3.29
641.389	3.34
641.576	3.31
641.762	3.21
641.949	3.22
642.135	3.27
642.322	3.2
642.508	3.11
642.695	3.21
642.881	3.13
643.068	3.14
643.254	3.16
643.441	3.2
643.627	3.2
643.813	3.07
644	3.18
644.186	3.02
644.372	3.11
644.559	3.11
644.745	3.03
644.931	3.04
645.118	3
645.304	3.03
645.49	3
645.676	2.96
645.862	2.99
646.049	3.02
646.235	2.95
646.421	3.08
646.607	3.04
646.793	2.89
646.979	2.87
647.165	2.9
647.352	2.89
647.538	2.9
647.724	2.87
647.91	2.77
648.096	2.92
648.282	2.87
648.468	2.78
648.654	2.77
648.84	2.83
649.026	2.74
649.212	2.73
649.397	2.69
649.583	2.69
649.769	2.75
649.955	2.69
650.141	2.68
650.327	2.72
650.513	2.67
650.698	2.69
650.884	2.55
651.07	2.68
651.256	2.64
651.442	2.6
651.627	2.53
651.813	2.6
651.999	2.57
652.184	2.55
652.37	2.53
652.556	2.52
652.741	2.57
652.927	2.45
653.113	2.49
653.298	2.54
653.484	2.45
653.669	2.47
653.855	2.46
654.04	2.51
654.226	2.47
654.412	2.41
654.597	2.33
654.782	2.44
654.968	2.46
655.153	2.41
655.339	2.32
655.524	2.31
655.71	2.41
655.895	2.37
656.08	2.3
656.266	2.44
656.451	2.32
656.636	2.21
656.822	2.33
657.007	2.26
657.192	2.3
657.378	2.21
657.563	2.22
657.748	2.26
657.933	2.24
658.118	2.21
658.304	2.19
658.489	2.25
658.674	2.21
658.859	2.14
659.044	2.13
659.229	2.31
659.414	2.17
659.599	2.17
659.785	2.11
659.97	2.13
660.155	2.12
660.34	2.15
660.525	2.09
660.71	2.08
660.895	2.1
661.08	2.07
661.264	2.02
661.449	2.09
661.634	2.06
661.819	2.12
662.004	2.05
662.189	1.98
662.374	1.99
662.559	1.94
662.743	1.94
662.928	1.98
663.113	1.91
663.298	1.93
663.483	1.92
663.667	1.99
663.852	1.87
664.037	1.93
664.221	1.89
664.406	1.94
664.591	1.97
664.775	1.93
664.96	1.8
665.145	1.86
665.329	1.93
665.514	1.89
665.698	1.81
665.883	1.76
666.068	1.91
666.252	1.87
666.437	1.75
666.621	1.77
666.806	1.87
666.99	1.86
667.174	1.77
667.359	1.85
667.543	1.74
667.728	1.75
667.912	1.67
668.096	1.79
668.281	1.74
668.465	1.81
668.649	1.76
668.834	1.69
669.018	1.73
669.202	1.67
669.387	1.69
669.571	1.77
669.755	1.6
669.939	1.68
670.124	1.62
670.308	1.73
670.492	1.71
670.676	1.62
670.86	1.66
671.044	1.57
671.228	1.71
671.413	1.56
671.597	1.6
671.781	1.55
671.965	1.64
672.149	1.59
672.333	1.58
672.517	1.54
672.701	1.6
672.885	1.54
673.069	1.44
673.253	1.6
673.437	1.53
673.621	1.49
673.804	1.49
673.988	1.48
674.172	1.54
674.356	1.43
674.54	1.46
674.724	1.61
674.908	1.46
675.091	1.47
675.275	1.47
675.459	1.52
675.643	1.55
675.826	1.47
676.01	1.44
676.194	1.43
676.377	1.49
676.561	1.45
676.745	1.43
676.928	1.44
677.112	1.45
677.296	1.37
677.479	1.34
677.663	1.36
677.846	1.48
678.03	1.38
678.213	1.24
678.397	1.34
678.58	1.37
678.764	1.33
678.947	1.32
679.131	1.34
679.314	1.4
679.498	1.37
679.681	1.32
679.865	1.39
680.048	1.35
680.231	1.29
680.415	1.25
680.598	1.28
680.781	1.27
680.965	1.24
681.148	1.33
681.331	1.26
681.514	1.34
681.698	1.22
681.881	1.29
682.064	1.27
682.247	1.27
682.43	1.17
682.614	1.24
682.797	1.33
682.98	1.25
683.163	1.12
683.346	1.19
683.529	1.17
683.712	1.18
683.895	1.26
684.078	1.11
684.261	1.21
684.444	1.24
684.627	1.2
684.81	1.14
684.993	1.15
685.176	1.2
685.359	1.1
685.542	1.08
685.725	1.19
685.908	1.2
686.091	1.14
686.274	1.14
686.457	1.2
686.639	1.18
686.822	1.1
687.005	1.07
687.188	1.18
687.371	1.27
687.553	1.18
687.736	1.08
687.919	1.21
688.102	1.23
688.284	1.03
688.467	1.01
688.65	1.03
688.832	1.02
689.015	1.01
689.197	0.93
689.38	1.21
689.563	1.16
689.745	1
689.928	1.02
690.11	1.03
690.293	1.08
690.475	0.93
690.658	1.09
690.84	0.99
691.023	0.95
691.205	0.97
691.388	0.97
691.57	1.05
691.752	1
691.935	0.91
692.117	0.96
692.3	0.97
692.482	0.98
692.664	0.88
692.847	0.97
693.029	1.04
693.211	1.05
693.393	0.89
693.576	0.91
693.758	0.91
693.94	0.92
694.122	0.93
694.304	0.9
694.487	0.88
694.669	1.03
694.851	0.82
695.033	0.85
695.215	0.91
695.397	0.89
695.579	0.91
695.761	0.83
695.943	0.81
696.125	0.99
696.308	0.96
696.49	0.75
696.671	1.05
696.853	0.87
697.035	1.1
697.217	0.84
697.399	0.93
697.581	0.82
697.763	0.87
697.945	0.84
698.127	0.84
698.309	0.94
698.491	0.89
698.672	0.87
698.854	0.85
699.036	0.97
699.218	0.81
699.399	0.87
699.581	0.86
699.763	0.84
699.945	0.74
700.126	0.77
700.308	0.83
700.49	0.8
700.671	0.69
700.853	0.75
701.035	0.79
701.216	0.84
701.398	0.73
701.579	0.8
701.761	0.87
701.943	0.73
702.124	0.72
702.306	0.76
702.487	0.98
702.669	0.76
702.85	0.71
703.031	0.63
703.213	0.95
703.394	0.83
703.576	0.71
703.757	0.94
703.938	0.82
704.12	0.97
704.301	0.78
704.483	0.68
704.664	0.72
704.845	0.83
705.026	0.77
705.208	0.78
705.389	0.76
705.57	0.81
705.751	0.7
705.933	0.71
706.114	0.81
706.295	0.71
706.476	0.74
706.657	0.83
706.838	0.78
707.02	0.8
707.201	0.64
707.382	0.69
707.563	0.77
707.744	0.69
707.925	0.62
708.106	0.63
708.287	0.76
708.468	0.84
708.649	0.68
708.83	0.73
709.011	0.6
709.192	0.74
709.373	0.61
709.554	0.64
709.734	0.71
709.915	0.62
710.096	0.69
710.277	0.51
710.458	0.67
710.639	0.64
710.819	0.56
711	0.6
711.181	0.77
711.362	0.66
711.542	0.67
711.723	0.66
711.904	0.75
712.085	0.74
712.265	0.68
712.446	0.52
712.627	0.57
712.807	0.66
712.988	0.62
713.168	0.48
713.349	0.68
713.53	0.46
713.71	0.53
713.891	0.49
714.071	0.67
714.252	0.63
714.432	0.53
714.613	0.54
714.793	0.65
714.974	0.7
715.154	0.68
715.334	0.7
715.515	0.78
715.695	0.58
715.876	0.54
716.056	0.55
716.236	0.5
716.417	0.54
716.597	0.51
716.777	0.83
716.957	0.54
717.138	0.63
717.318	0.53
717.498	0.36
717.678	0.6
717.859	0.69
718.039	0.51
718.219	0.57
718.399	0.6
718.579	0.57
718.759	0.46
718.939	0.64
719.12	0.58
719.3	0.56
719.48	0.43
719.66	0.43
719.84	0.64
720.02	0.55
720.2	0.43
720.38	0.51
720.56	0.66
720.74	0.4
720.92	0.58
721.1	0.72
721.279	0.66
721.459	0.52
721.639	0.46
721.819	0.57
721.999	0.52
722.179	0.66
722.359	0.44
722.538	0.5
722.718	0.48
722.898	0.48
723.078	0.46
723.257	0.52
723.437	0.57
723.617	0.57
723.797	0.49
723.976	0.51
724.156	0.6
724.336	0.63
724.515	0.67
724.695	0.36
724.874	0.47
725.054	0.61
725.234	0.53
725.413	0.51
725.593	0.5
725.772	0.59
725.952	0.49
726.131	0.48
726.311	0.5
726.49	0.46
726.67	0.43
726.849	0.43
727.028	0.5
727.208	0.51
727.387	0.47
727.567	0.32
727.746	0.45
727.925	0.38
728.105	0.36
728.284	0.44
728.463	0.44
728.643	0.57
728.822	0.41
729.001	0.39
729.18	0.51
729.359	0.58
729.539	0.51
729.718	0.53
729.897	0.56
730.076	0.49
730.255	0.4
730.434	0.41
730.614	0.57
730.793	0.63
730.972	0.46
731.151	0.51
731.33	0.62
731.509	0.51
731.688	0.49
731.867	0.5
732.046	0.32
732.225	0.72
732.404	0.41
732.583	0.29
732.762	0.48
732.941	0.52
733.12	0.51
733.298	0.41
733.477	0.58
733.656	0.47
733.835	0.36
734.014	0.6
734.193	0.54
734.371	0.54
734.55	0.46
734.729	0.38
734.908	0.56
735.086	0.57
735.265	0.64
735.444	0.29
735.623	0.36
735.801	0.34
735.98	0.52
736.159	0.43
736.337	0.56
736.516	0.53
736.694	0.51
736.873	0.51
737.052	0.64
737.23	0.59
737.409	0.44
737.587	0.68
737.766	0.37
737.944	0.48
738.123	0.55
738.301	0.55
738.479	0.47
738.658	0.47
738.836	0.28
739.015	0.51
739.193	0.69
739.371	0.44
739.55	0.34
739.728	0.35
739.906	0.61
740.085	0.64
740.263	0.45
740.441	0.3
740.62	0.62
740.798	0.62
740.976	0.36
741.154	0.35
741.332	0.69
741.511	0.43
741.689	0.5
741.867	0.58
742.045	0.54
742.223	0.51
742.401	0.39
742.579	0.28
742.757	0.5
742.935	0.3
743.114	0.34
743.292	0.34
743.47	0.46
743.648	0.42
743.826	0.52
744.004	0.44
744.181	0.47
744.359	0.37
744.537	0.33
744.715	0.28
744.893	0.48
745.071	0.4
745.249	0.33
745.427	0.36
745.605	0.52
745.782	0.35
745.96	0.59
746.138	0.49
746.316	0.57
746.493	0.36
746.671	0.46
746.849	0.36
747.027	0.54
747.204	0.38
747.382	0.39
747.56	0.3
747.737	0.41
747.915	0.33
748.093	0.42
748.27	0.36
748.448	0.39
748.625	0.21
748.803	0.3
748.98	0.37
749.158	0.42
749.335	0.47
749.513	0.34
749.69	0.3
749.868	0.32
750.045	0.55
750.223	0.35
750.4	0.16
750.578	0.54
750.755	0.51
750.932	0.23
751.11	0.45
751.287	0.27
751.464	0.48
751.642	0.35
751.819	0.41
751.996	0.43
752.173	0.34
752.351	0.3
752.528	0.39
752.705	0.25
752.882	0.37
753.06	0.38
753.237	0.36
753.414	0.59
753.591	0.68
753.768	0.33
753.945	0.31
754.122	0.39
754.299	0.48
754.476	0.36
754.654	0.39
754.831	0.49
755.008	0.43
755.185	0.37
755.362	0.22
755.539	0.41
755.716	0.28
755.892	0.33
756.069	0.43
756.246	0.33
756.423	0.45
756.6	0.56
756.777	0.3
756.954	0.5
757.131	0.31
757.307	0.33
757.484	0.17
757.661	0.22
757.838	0.47
758.015	0.18
758.191	0.42
758.368	0.39
758.545	0.55
758.721	0.35
758.898	0.2
759.075	0.4
759.251	0.37
759.428	0.36
759.605	0.14
759.781	0.36
759.958	0.35
760.134	0.41
760.311	0.26
760.488	0.52
760.664	0.6
760.841	0.4
761.017	0.25
761.194	0.35
761.37	0.39
761.547	0.37
761.723	0.32
761.899	0.6
762.076	0.21
762.252	0.24
762.429	0.39
762.605	0.47
762.781	0.25
762.958	0.4
763.134	0.26
763.31	0.33
763.486	0.44
763.663	0.06
763.839	0.43
764.015	0.1
764.191	0.29
764.368	0.25
764.544	0.19
764.72	0.38
764.896	0.43
765.072	0.39
765.248	0.29
765.425	0.33
765.601	0.31
765.777	0.38
765.953	0.04
766.129	0.2
766.305	0.23
766.481	0.39
766.657	0.38
766.833	0.58
767.009	0.2
767.185	0.36
767.361	0.24
767.537	0.17
767.713	0.54
767.889	0.27
768.065	0.29
768.24	0.47
768.416	0.62
768.592	0.19
768.768	0.42
768.944	0.58
769.12	0.18
769.295	0.16
769.471	0.38
769.647	0.22
769.823	0.59
769.998	0.25
770.174	0.14
770.35	0.68
770.525	0.7
770.701	0.27
770.877	0.27
771.052	0.23
771.228	0.53
771.403	0.41
771.579	0.33
771.755	0.62
771.93	0.25
772.106	0.21
772.281	-0
772.457	0.33
772.632	0.55
772.808	0
772.983	0.37
773.159	0.19
773.334	0.56
773.509	0.37
773.685	0.28
773.86	0.8
774.036	0.48
774.211	0.46
774.386	0.2
774.562	0.32
774.737	0.5
774.912	0.17
775.087	0.38
775.263	0.32
775.438	0.34
775.613	0.28
775.788	0.25
775.964	0.51
776.139	0.94
776.314	0.04
776.489	0.5
776.664	0.43
776.839	0.34
777.014	0.55
777.19	0.58
777.365	0.67
777.54	0.66
777.715	0.2
777.89	0.24
778.065	0.36
778.24	0.32
778.415	0.5
778.59	0.15
778.765	0.35
778.94	0.51
779.115	0.34
779.289	0.34
779.464	0.35
779.639	0.32
779.814	0.18
779.989	0.12
780.164	0.71
780.339	0.44
780.513	0.17
780.688	0.16
780.863	0.4
781.038	0.63
781.212	0.19
781.387	0.41
781.562	0.63
781.737	0.3
781.911	0.65
782.086	0.07
782.261	0.28
782.435	0.7
782.61	0.35
782.784	0.35
782.959	0.6
783.134	0.25
783.308	0.24
783.483	0.27
783.657	0.91
783.832	0.37
784.006	0.08
784.181	0.35
784.355	0.59
784.53	0.16
784.704	0.2
784.878	0.51
785.053	0.56
785.227	0.68
785.402	0.63
785.576	0.09
785.75	0.45
785.925	0.27
786.099	0.35
786.273	0.41
786.448	0.55
786.622	0.59
786.796	0.1
786.97	0.21
787.145	1.1
787.319	0.29
787.493	0.27
787.667	-0.04
787.841	0.32
788.015	0.69
788.19	0.36
788.364	0.35
788.538	0.47
788.712	0.43
788.886	0.31
789.06	0.46
789.234	0.6
789.408	0.04
789.582	0.26
789.756	0.37
789.93	0.15
790.104	0.46
790.278	0.32
790.452	0.12
790.626	0.67
790.8	0.36
790.973	0.32
791.147	0.56
791.321	0.86
791.495	0.72
791.669	0.45
791.843	0.59
792.016	0.62
792.19	0.83
792.364	0.27
792.538	0.86
792.711	0.89
792.885	0.34
793.059	0.15
793.233	-0.22
793.406	0.68
793.58	0.4
793.754	0.44
793.927	0.42
794.101	0.72
794.274	0.5
794.448	0.77
794.622	0.07
794.795	0.92
794.969	0.2
795.142	0.88
795.316	0.37
795.489	0.24
795.663	0.84
795.836	0.47
796.009	0.16
796.183	1.12
796.356	0.46
796.53	0.49
796.703	0.39
796.876	0.95
797.05	0.27
797.223	0.22
797.396	0.53
797.57	0.37
797.743	0.87
797.916	0.6
798.09	0.41
798.263	0.82
798.436	0.52
798.609	0.16
798.782	0.01
798.956	0.57
799.129	0.48
799.302	0.14
799.475	0.31
799.648	0.3
799.821	0.5
799.994	0.5
800.167	-0.01
800.34	0.27
800.514	0.61
800.687	0.2
800.86	0.19
801.033	0.46
801.206	0.55
801.379	0.07
801.551	0.77
801.724	0.51
801.897	0.95
802.07	0.39
802.243	-0.13
802.416	0.51
802.589	0.38
802.762	0.76
802.935	0.56
803.107	0.56
803.28	0.82
803.453	0.76
803.626	0.18
803.798	0.5
803.971	0.29
804.144	0.73
804.317	0.49
804.489	0.8
804.662	0.76
804.835	0.51
805.007	0.29
805.18	0.76
805.353	0.61
805.525	0.16
805.698	0.63
805.87	0.97
806.043	0.59
806.215	0.22
806.388	0.18
806.56	0.72
806.733	0.88
806.905	0.85
807.078	0.01
807.25	0.32
807.423	0.78
807.595	0.44
807.768	0.5
807.94	0.75
808.112	1.08
808.285	0.45
808.457	0.44
808.629	0.43
808.802	0.91
808.974	0.5
809.146	0.04
809.318	0.31
809.491	0.9
809.663	0.54
809.835	0.25
810.007	0.53
810.18	0.66
810.352	0.02
810.524	0.32
810.696	0.86
810.868	0.92
811.04	0.32
811.212	0.22
811.384	0.9
811.556	0.63
811.728	0.49
811.901	1.46
812.073	0.66
812.245	0.54
812.417	0.42
812.589	-0.08
812.76	0.62
812.932	0.74
813.104	0.6
813.276	0.43
813.448	0.89
813.62	0.24
813.792	0.53
813.964	0.37
814.136	0.6
814.307	0.35
814.479	-0.01
814.651	0.01
814.823	1.13
814.995	0.76
815.166	0.65
815.338	0.23
815.51	-0.08
815.681	1.83
815.853	0.54
816.025	0.34
816.196	1.63
816.368	1.41
816.54	0.5
816.711	0.3
816.883	1.06
817.054	1.79
817.226	-0.06
817.398	0.82
817.569	0.04
817.741	0.67
817.912	0.63
818.084	0.29
818.255	0.98
818.426	-0.08
818.598	0.46
818.769	0.53
818.941	0.78
819.112	1.09
819.283	1.29
819.455	0.1
819.626	0.52
819.798	1.11
819.969	0.76
820.14	0.64
820.311	0.62
820.483	1.31
820.654	0.56
820.825	0.56
820.996	0.47
821.168	0.08
821.339	0.75
821.51	-0.22
821.681	0.19
821.852	0.84
822.023	-0.15
822.195	0.15
822.366	1.01
822.537	0.65
822.708	0.34
822.879	0.41
823.05	1.3
823.221	0.37
823.392	0.8
823.563	0.76
823.734	1.61
823.905	0.72
824.076	0.28
824.247	0.31
824.418	0.23
824.589	1.81
824.759	0.93
824.93	0.11
825.101	0.12
825.272	1.52
825.443	1.19
825.614	1.35
825.784	-0.09
825.955	2.27
826.126	1.24
826.297	0.88
826.467	1.9
826.638	1.31
826.809	-0.65
826.98	0.16
827.15	1.26
827.321	1.15
827.492	1.4
827.662	0.93
827.833	2.06
828.003	1.64
828.174	-0.09
828.345	0.23
828.515	1.82
828.686	0.82
828.856	0.37
829.027	0.51
829.197	1.2
829.368	1.13
829.538	-0.07
829.709	0.38
829.879	0.8
830.049	1.14
830.22	0.98
830.39	0.63
830.56	1.41
830.731	0.58
830.901	0.39
831.072	0.02
831.242	1.14
831.412	1.24
831.582	0.28
831.753	-0.4
831.923	1.6
832.093	1.11
832.263	0.35
832.434	0.39
832.604	0.08
832.774	1.59
832.944	0.73
833.114	0.03
833.284	1.1
833.454	0.03
833.624	-0.03
833.795	0.54
833.965	1.9
834.135	1.61
834.305	-0.21
834.475	-0.22
834.645	1
834.815	0.88
834.985	0.21
835.155	0.11
835.325	1.2
835.494	1.35
835.664	0.42
835.834	0.3
836.004	1.12
836.174	1.13
836.344	0.86
836.514	-0.01
836.684	0.89
836.853	1.18
837.023	1.38
837.193	0.23
837.363	1.74
837.532	2.09
837.702	0.05
837.872	-0.26
838.041	0.98
838.211	2.93
838.381	-0.53
838.55	0.42
838.72	3.72
838.89	2.49
839.059	0.4
839.229	0.57
839.398	2.63
839.568	1.83
839.738	0.61
839.907	1.97
840.077	0.87
840.246	0.47
840.416	0.09
840.585	0.24
840.755	2.59
840.924	2
841.093	-0.08
841.263	0.69
841.432	1.19
841.602	0.54
841.771	-0.15
841.94	0.53
842.11	2.45
842.279	2.66
842.448	-0.42
842.617	-0.06
842.787	1.89
842.956	0.22
843.125	1.05
843.294	1.87
843.464	2.67
843.633	1.34
843.802	0.29
843.971	0.51
844.14	1.46
844.309	2.04
844.479	-1.39
844.648	0.37
844.817	1.05
844.986	0.84
845.155	-0.29
845.324	-0.13
845.493	1.3
845.662	-0.36
845.831	1.24
846	0.93
846.169	1.2
846.338	2.73
846.507	1.08
846.676	1.49
846.844	0.73
847.013	2.26
847.182	2.14
847.351	0.3
847.52	1.25
847.689	1.27
847.858	1.48
848.026	0.57
848.195	1.81
848.364	0.44
848.533	0.06
848.701	-0.05
848.87	1.67
849.039	2.54
849.207	1.72
849.376	1.95
849.545	3.49
849.713	-0.52
849.882	0.49
850.051	0.94
850.219	1.84
850.388	1.44
850.556	0.05
850.725	0.45
850.893	1.52
851.062	0.61
851.23	1.38
851.399	-0.45
851.567	1.44
851.736	0.35
851.904	0.33
852.073	0.69
852.241	3.01
852.41	1.64
852.578	0.21
852.746	0.68
852.915	2.27
853.083	1.59
853.251	-0.91
853.42	0.05
853.588	0.13
853.756	2.61
853.924	1.15
854.093	0.92
854.261	1.17
854.429	0.02
854.597	0.69
854.765	0.29
854.934	2.25
855.102	2.37
855.27	0.03
855.438	3.07
855.606	3.31
855.774	4.49
855.942	-0.15
856.11	-1.1
856.278	2.29
856.446	2.99
856.614	0.75
856.782	0.03
856.95	2.22
857.118	2.06
857.286	1.42
857.454	0.67
857.622	2.98
857.79	2.32
857.958	0.65
858.126	0.53
858.294	-1.3
858.462	0.69
858.629	-0.13
858.797	1.28
858.965	2.15
859.133	1.57
859.301	1.24
859.468	2.42
859.636	0.69
859.804	4.23
859.971	1.45
860.139	0.5
860.307	1.83
860.474	1.78
860.642	0.49
860.81	0.13
860.977	1.24
861.145	3.15
861.313	0.72
861.48	2
861.648	1.88
861.815	1.42
861.983	0.11
862.15	0.89
862.318	2.82
862.485	2.7
862.653	0.29
862.82	-0.86
862.988	4.15
863.155	3.06
863.322	0.4
863.49	1.23
863.657	0.8
863.824	4.36
863.992	3.45
864.159	2.75
864.326	4.13
864.494	0.95
864.661	3.22
864.828	0.97
864.996	3.03
865.163	3.95
865.33	0.11
865.497	-1.33
865.664	0.39
865.832	-1.85
865.999	0.95
866.166	-0.11
866.333	0.77
866.5	1.36
866.667	0.46
866.834	1.42
867.001	3.83
867.168	-1.16
867.335	0.18
867.502	-0.05
867.669	1.49
867.836	4.74
868.003	-0.09
868.17	4.39
868.337	0.39
868.504	4.26
868.671	-1
868.838	0.23
869.005	2.72
869.172	1.68
869.339	1.39
869.505	0.91
869.672	1.71
869.839	4.21
870.006	1.07
870.173	-0.57
870.339	2.49
870.506	4.15
870.673	-0.32
870.84	2.13
871.006	1.31
871.173	1.59
871.34	1.23
871.506	-0.42
871.673	1.22
871.839	-0.88
872.006	1.93
872.173	0.38
872.339	2.59
872.506	1.97
872.672	1.91
872.839	0.03
873.005	1.76
873.172	4.76
873.338	4.7
873.505	1.02
873.671	2.08
873.838	1.79
874.004	-0.96
874.171	-0.5
874.337	2.81
874.503	3.86
874.67	1.82
874.836	-0.07
875.002	4.49
875.169	3.07
875.335	1.51
875.501	2.15
875.668	3.41
875.834	1.38
876	2.11
876.166	2.95
876.332	3.91
876.499	6.91
876.665	-0.6
876.831	0.05
876.997	6.07
877.163	2.92
877.329	1.97
877.495	1.09
877.662	3.86
877.828	1.33
877.994	1.21
878.16	-1.32
878.326	0.64
878.492	3.29
878.658	0.68
878.824	2.99
878.99	3.59
879.156	3.74
879.322	3.67
879.487	1.55
879.653	1.64
879.819	1.32
879.985	0.7
880.151	2.57
880.317	3.21
880.483	3.38
880.648	3.34
880.814	-1.98
880.98	1.44
881.146	-0.19
881.312	1.08
881.477	1.63
881.643	0.52
881.809	2.71
881.974	3.27
882.14	-0.23
882.306	3.38
882.471	6.67
882.637	-0.17
882.803	4.38
882.968	5.61
883.134	6.24
883.299	1.81
883.465	1.83
883.63	3.34
883.796	3.84
883.961	2.99
884.127	2.4
884.292	-2.47
884.458	-0.78
884.623	-0.78
