Data from Apollo_Calib_20240827__AbsoluteIrradiance__822__12-51-00-490.txt Node

Date: Wed Aug 28 12:51:00 BST 2024
User: biology
Spectrometer: FLMT08252
Trigger mode: 0
Integration Time (sec): 5.000000E-1
Scans to average: 5
Electric dark correction enabled: true
Nonlinearity correction enabled: false
Boxcar width: 0
XAxis mode: Wavelengths
Number of Pixels in Spectrum: 3648
>>>>>Begin Spectral Data<<<<<
179.588	-0
179.809	-0
180.03	-0
180.251	-0
180.473	-0
180.694	0
180.915	0
181.136	-0
181.357	-0
181.578	-0
181.799	0
182.02	-0
182.241	0
182.462	-0
182.683	0
182.904	-0
183.125	-0
183.346	0
183.567	0
183.788	0
184.009	0
184.23	0
184.451	0
184.672	0
184.892	0
185.113	0
185.334	0
185.555	0
185.776	0
185.996	0
186.217	0
186.438	0
186.659	0
186.879	0
187.1	0
187.321	0
187.541	0
187.762	0
187.983	0
188.203	0
188.424	0
188.644	0
188.865	0
189.086	0
189.306	0
189.527	0
189.747	0
189.968	0
190.188	0
190.409	0
190.629	0
190.849	0
191.07	0
191.29	0
191.511	0
191.731	0
191.951	0
192.172	0
192.392	0
192.612	0
192.833	0
193.053	0
193.273	0
193.493	0
193.714	0
193.934	0
194.154	0
194.374	0
194.594	0
194.815	0
195.035	0
195.255	0
195.475	0
195.695	0
195.915	0
196.135	0
196.355	0
196.575	0
196.795	0
197.015	0
197.235	0
197.455	0
197.675	0
197.895	0
198.115	0
198.335	0
198.555	0
198.775	0
198.995	0
199.214	0
199.434	0
199.654	0
199.874	0
200.094	4.24
200.313	2.13
200.533	2
200.753	1.8
200.973	3.4
201.192	2.92
201.412	1.39
201.632	1.25
201.851	3.37
202.071	1.69
202.291	1.86
202.51	1.63
202.73	2.81
202.95	1.71
203.169	1.13
203.389	1.7
203.608	1.98
203.828	1.75
204.047	1.21
204.267	2.21
204.486	2.1
204.706	2.22
204.925	1.54
205.145	1.49
205.364	1.88
205.583	2.35
205.803	1.34
206.022	1.17
206.242	1.86
206.461	1.79
206.68	1.17
206.9	1.74
207.119	2.16
207.338	2.39
207.557	1.08
207.777	1.23
207.996	1.39
208.215	2.2
208.434	0.98
208.654	0.63
208.873	1.37
209.092	2.25
209.311	1
209.53	1.1
209.749	1.32
209.968	1.14
210.187	1.11
210.407	0.63
210.626	1.33
210.845	1.34
211.064	1.26
211.283	0.66
211.502	1.57
211.721	1.06
211.94	0.95
212.159	1.06
212.377	1.55
212.596	1.7
212.815	1.09
213.034	1.1
213.253	1.39
213.472	1.3
213.691	0.98
213.91	0.56
214.128	0.77
214.347	1.5
214.566	0.42
214.785	0.36
215.003	1.17
215.222	1.08
215.441	0.86
215.66	0.3
215.878	0.91
216.097	1.25
216.316	0.71
216.534	0.82
216.753	1.02
216.972	0.86
217.19	0.79
217.409	0.6
217.627	0.66
217.846	0.67
218.064	0.87
218.283	0.59
218.501	1.46
218.72	1.15
218.938	0.68
219.157	0.43
219.375	1.17
219.594	1.12
219.812	0.52
220.031	0.39
220.249	1.22
220.467	1
220.686	0.62
220.904	0.39
221.122	0.66
221.341	1.06
221.559	0.69
221.777	0.38
221.995	0.77
222.214	0.82
222.432	0.57
222.65	0.68
222.868	0.71
223.086	0.97
223.305	0.9
223.523	0.7
223.741	1.06
223.959	0.6
224.177	0.28
224.395	0.39
224.613	0.75
224.831	1.01
225.049	0.56
225.267	0.55
225.485	0.72
225.703	0.59
225.921	0.48
226.139	0.56
226.357	0.89
226.575	0.74
226.793	0.45
227.011	1.46
227.229	0.74
227.447	0.94
227.665	0.55
227.883	0.29
228.1	0.62
228.318	0.72
228.536	0.21
228.754	0.44
228.972	0.67
229.189	0.92
229.407	0.48
229.625	0.58
229.843	0.75
230.06	0.8
230.278	0.39
230.496	0.52
230.713	0.71
230.931	0.81
231.149	0.45
231.366	0.33
231.584	0.5
231.801	1.06
232.019	0.44
232.236	0.3
232.454	0.43
232.671	0.64
232.889	0.31
233.106	0.39
233.324	0.56
233.541	0.51
233.759	0.48
233.976	0.29
234.194	0.53
234.411	0.56
234.628	0.4
234.846	0.39
235.063	0.49
235.28	0.5
235.498	0.44
235.715	0.33
235.932	0.66
236.149	0.55
236.367	0.31
236.584	0.55
236.801	0.49
237.018	0.64
237.236	0.49
237.453	0.25
237.67	0.68
237.887	0.53
238.104	0.37
238.321	0.27
238.538	0.43
238.755	0.67
238.973	0.23
239.19	0.47
239.407	0.65
239.624	0.51
239.841	0.41
240.058	0.36
240.275	0.44
240.492	0.46
240.709	0.4
240.925	0.45
241.142	0.45
241.359	0.26
241.576	0.3
241.793	0.36
242.01	0.37
242.227	0.57
242.444	0.51
242.66	0.58
242.877	0.42
243.094	0.41
243.311	0.48
243.527	0.42
243.744	0.43
243.961	0.47
244.178	0.37
244.394	0.45
244.611	0.51
244.828	0.61
245.044	0.34
245.261	0.41
245.477	0.38
245.694	0.58
245.911	0.39
246.127	0.37
246.344	0.61
246.56	0.51
246.777	0.32
246.993	0.37
247.21	0.42
247.426	0.58
247.643	0.34
247.859	0.32
248.076	0.28
248.292	0.61
248.508	0.31
248.725	0.45
248.941	0.42
249.157	0.54
249.374	0.3
249.59	0.32
249.806	0.44
250.023	0.41
250.239	0.25
250.455	0.26
250.671	0.42
250.888	0.46
251.104	0.49
251.32	0.35
251.536	0.35
251.752	0.41
251.969	0.39
252.185	0.34
252.401	0.63
252.617	0.39
252.833	0.36
253.049	0.38
253.265	0.37
253.481	0.46
253.697	0.35
253.913	0.26
254.129	0.45
254.345	0.38
254.561	0.32
254.777	0.24
254.993	0.42
255.209	0.41
255.425	0.38
255.641	0.37
255.857	0.5
256.073	0.44
256.288	0.23
256.504	0.3
256.72	0.41
256.936	0.56
257.152	0.28
257.367	0.29
257.583	0.39
257.799	0.46
258.015	0.27
258.23	0.38
258.446	0.56
258.662	0.32
258.877	0.3
259.093	0.25
259.309	0.39
259.524	0.38
259.74	0.29
259.955	0.22
260.171	0.35
260.387	0.35
260.602	0.44
260.818	0.35
261.033	0.29
261.249	0.34
261.464	0.3
261.68	0.3
261.895	0.43
262.11	0.44
262.326	0.31
262.541	0.21
262.757	0.45
262.972	0.43
263.187	0.32
263.403	0.44
263.618	0.41
263.833	0.39
264.049	0.29
264.264	0.32
264.479	0.38
264.694	0.49
264.91	0.18
265.125	0.36
265.34	0.45
265.555	0.54
265.77	0.38
265.986	0.28
266.201	0.41
266.416	0.41
266.631	0.31
266.846	0.31
267.061	0.39
267.276	0.42
267.491	0.16
267.706	0.36
267.921	0.4
268.136	0.33
268.351	0.34
268.566	0.16
268.781	0.49
268.996	0.42
269.211	0.28
269.426	0.3
269.641	0.34
269.856	0.44
270.071	0.19
270.285	0.23
270.5	0.42
270.715	0.41
270.93	0.24
271.145	0.29
271.359	0.48
271.574	0.29
271.789	0.3
272.004	0.27
272.218	0.28
272.433	0.41
272.648	0.24
272.862	0.37
273.077	0.37
273.292	0.35
273.506	0.3
273.721	0.27
273.936	0.37
274.15	0.41
274.365	0.24
274.579	0.31
274.794	0.41
275.008	0.38
275.223	0.22
275.437	0.25
275.652	0.38
275.866	0.32
276.081	0.32
276.295	0.37
276.509	0.26
276.724	0.3
276.938	0.33
277.153	0.33
277.367	0.37
277.581	0.27
277.796	0.24
278.01	0.23
278.224	0.33
278.438	0.47
278.653	0.22
278.867	0.21
279.081	0.18
279.295	0.3
279.51	0.31
279.724	0.21
279.938	0.33
280.152	0.33
280.366	0.26
280.58	0.31
280.794	0.4
281.008	0.35
281.222	0.34
281.437	0.5
281.651	0.39
281.865	0.33
282.079	0.26
282.293	0.16
282.507	0.25
282.721	0.23
282.935	0.28
283.148	0.16
283.362	0.26
283.576	0.23
283.79	0.25
284.004	0.24
284.218	0.37
284.432	0.21
284.646	0.3
284.859	0.23
285.073	0.3
285.287	0.34
285.501	0.25
285.714	0.19
285.928	0.34
286.142	0.31
286.356	0.28
286.569	0.19
286.783	0.38
286.997	0.38
287.21	0.27
287.424	0.31
287.637	0.23
287.851	0.24
288.065	0.32
288.278	0.26
288.492	0.26
288.705	0.27
288.919	0.31
289.132	0.15
289.346	0.35
289.559	0.14
289.773	0.18
289.986	0.24
290.2	0.26
290.413	0.33
290.626	0.2
290.84	0.22
291.053	0.33
291.267	0.37
291.48	0.25
291.693	0.26
291.906	0.25
292.12	0.29
292.333	0.21
292.546	0.21
292.76	0.4
292.973	0.28
293.186	0.33
293.399	0.16
293.612	0.32
293.826	0.26
294.039	0.26
294.252	0.21
294.465	0.32
294.678	0.3
294.891	0.24
295.104	0.21
295.317	0.22
295.53	0.24
295.743	0.25
295.956	0.2
296.169	0.37
296.382	0.29
296.595	0.22
296.808	0.19
297.021	0.35
297.234	0.34
297.447	0.26
297.66	0.26
297.873	0.31
298.086	0.31
298.299	0.18
298.511	0.18
298.724	0.28
298.937	0.18
299.15	0.2
299.363	0.22
299.575	0.28
299.788	0.28
300.001	0.19
300.213	0.2
300.426	0.26
300.639	0.2
300.852	0.17
301.064	0.27
301.277	0.37
301.489	0.28
301.702	0.22
301.915	0.22
302.127	0.28
302.34	0.29
302.552	0.3
302.765	0.21
302.977	0.32
303.19	0.21
303.402	0.25
303.615	0.22
303.827	0.28
304.04	0.26
304.252	0.28
304.464	0.26
304.677	0.4
304.889	0.28
305.102	0.2
305.314	0.21
305.526	0.29
305.739	0.31
305.951	0.2
306.163	0.23
306.375	0.36
306.588	0.23
306.8	0.18
307.012	0.2
307.224	0.25
307.436	0.33
307.649	0.23
307.861	0.26
308.073	0.31
308.285	0.24
308.497	0.17
308.709	0.2
308.921	0.2
309.133	0.29
309.346	0.22
309.558	0.19
309.77	0.31
309.982	0.32
310.194	0.28
310.406	0.21
310.617	0.35
310.829	0.31
311.041	0.26
311.253	0.2
311.465	0.27
311.677	0.26
311.889	0.2
312.101	0.15
312.313	0.32
312.524	0.35
312.736	0.17
312.948	0.24
313.16	0.35
313.372	0.28
313.583	0.27
313.795	0.19
314.007	0.2
314.218	0.28
314.43	0.27
314.642	0.22
314.853	0.19
315.065	0.32
315.277	0.24
315.488	0.24
315.7	0.29
315.912	0.29
316.123	0.27
316.335	0.23
316.546	0.36
316.758	0.22
316.969	0.22
317.181	0.26
317.392	0.22
317.604	0.35
317.815	0.17
318.026	0.15
318.238	0.21
318.449	0.26
318.661	0.11
318.872	0.19
319.083	0.23
319.295	0.31
319.506	0.27
319.717	0.23
319.929	0.26
320.14	0.27
320.351	0.27
320.562	0.19
320.774	0.33
320.985	0.24
321.196	0.18
321.407	0.14
321.618	0.26
321.829	0.27
322.041	0.27
322.252	0.22
322.463	0.3
322.674	0.27
322.885	0.18
323.096	0.22
323.307	0.24
323.518	0.25
323.729	0.2
323.94	0.19
324.151	0.24
324.362	0.27
324.573	0.23
324.784	0.25
324.995	0.32
325.206	0.3
325.417	0.22
325.628	0.22
325.838	0.27
326.049	0.23
326.26	0.26
326.471	0.18
326.682	0.3
326.892	0.27
327.103	0.18
327.314	0.25
327.525	0.31
327.735	0.3
327.946	0.18
328.157	0.18
328.368	0.34
328.578	0.28
328.789	0.26
328.999	0.25
329.21	0.25
329.421	0.36
329.631	0.18
329.842	0.19
330.052	0.27
330.263	0.31
330.473	0.3
330.684	0.16
330.894	0.29
331.105	0.29
331.315	0.27
331.526	0.18
331.736	0.38
331.947	0.28
332.157	0.28
332.367	0.18
332.578	0.28
332.788	0.34
332.999	0.3
333.209	0.2
333.419	0.16
333.629	0.31
333.84	0.28
334.05	0.26
334.26	0.33
334.47	0.26
334.681	0.28
334.891	0.2
335.101	0.31
335.311	0.35
335.521	0.27
335.732	0.18
335.942	0.34
336.152	0.24
336.362	0.25
336.572	0.27
336.782	0.3
336.992	0.22
337.202	0.21
337.412	0.21
337.622	0.27
337.832	0.27
338.042	0.23
338.252	0.18
338.462	0.2
338.672	0.23
338.882	0.17
339.092	0.24
339.302	0.34
339.511	0.32
339.721	0.23
339.931	0.17
340.141	0.31
340.351	0.3
340.561	0.27
340.77	0.25
340.98	0.26
341.19	0.25
341.4	0.18
341.609	0.15
341.819	0.23
342.029	0.21
342.238	0.23
342.448	0.22
342.658	0.3
342.867	0.3
343.077	0.27
343.286	0.26
343.496	0.24
343.706	0.31
343.915	0.19
344.125	0.24
344.334	0.24
344.544	0.19
344.753	0.19
344.963	0.19
345.172	0.19
345.381	0.23
345.591	0.22
345.8	0.22
346.01	0.29
346.219	0.33
346.428	0.18
346.638	0.23
346.847	0.26
347.056	0.3
347.266	0.24
347.475	0.22
347.684	0.32
347.893	0.26
348.103	0.25
348.312	0.21
348.521	0.28
348.73	0.23
348.94	0.23
349.149	0.2
349.358	0.26
349.567	0.17
349.776	0.17
349.985	0.2
350.194	0.25
350.403	0.3
350.612	0.14
350.821	0.18
351.03	0.24
351.239	0.18
351.448	0.25
351.657	0.2
351.866	0.33
352.075	0.23
352.284	0.16
352.493	0.19
352.702	0.33
352.911	0.28
353.12	0.23
353.329	0.2
353.538	0.27
353.746	0.24
353.955	0.17
354.164	0.25
354.373	0.2
354.582	0.26
354.79	0.26
354.999	0.25
355.208	0.27
355.416	0.34
355.625	0.18
355.834	0.22
356.042	0.24
356.251	0.22
356.46	0.21
356.668	0.25
356.877	0.34
357.085	0.28
357.294	0.17
357.503	0.28
357.711	0.22
357.92	0.35
358.128	0.24
358.337	0.19
358.545	0.24
358.754	0.21
358.962	0.3
359.17	0.21
359.379	0.25
359.587	0.26
359.796	0.21
360.004	0.31
360.212	0.28
360.421	0.34
360.629	0.17
360.837	0.19
361.046	0.31
361.254	0.39
361.462	0.22
361.67	0.21
361.879	0.26
362.087	0.32
362.295	0.23
362.503	0.23
362.711	0.19
362.92	0.2
363.128	0.18
363.336	0.17
363.544	0.19
363.752	0.22
363.96	0.22
364.168	0.2
364.376	0.27
364.584	0.24
364.792	0.27
365	0.26
365.208	0.26
365.416	0.29
365.624	0.3
365.832	0.2
366.04	0.3
366.248	0.25
366.456	0.25
366.664	0.28
366.872	0.23
367.079	0.23
367.287	0.22
367.495	0.24
367.703	0.23
367.911	0.23
368.118	0.23
368.326	0.25
368.534	0.22
368.742	0.27
368.949	0.16
369.157	0.22
369.365	0.25
369.572	0.26
369.78	0.2
369.988	0.28
370.195	0.26
370.403	0.29
370.61	0.18
370.818	0.2
371.026	0.34
371.233	0.22
371.441	0.28
371.648	0.24
371.856	0.28
372.063	0.28
372.271	0.2
372.478	0.2
372.685	0.24
372.893	0.27
373.1	0.22
373.308	0.19
373.515	0.39
373.722	0.3
373.93	0.23
374.137	0.26
374.344	0.35
374.552	0.29
374.759	0.25
374.966	0.22
375.173	0.24
375.381	0.32
375.588	0.22
375.795	0.16
376.002	0.24
376.209	0.2
376.417	0.24
376.624	0.24
376.831	0.28
377.038	0.26
377.245	0.14
377.452	0.21
377.659	0.23
377.866	0.15
378.073	0.25
378.28	0.22
378.487	0.31
378.694	0.32
378.901	0.24
379.108	0.23
379.315	0.29
379.522	0.35
379.729	0.27
379.936	0.22
380.143	0.24
380.35	0.24
380.557	0.22
380.763	0.29
380.97	0.25
381.177	0.33
381.384	0.28
381.591	0.24
381.797	0.32
382.004	0.31
382.211	0.27
382.418	0.21
382.624	0.29
382.831	0.31
383.038	0.23
383.244	0.27
383.451	0.27
383.658	0.33
383.864	0.22
384.071	0.16
384.277	0.34
384.484	0.25
384.69	0.33
384.897	0.19
385.103	0.28
385.31	0.22
385.516	0.23
385.723	0.2
385.929	0.23
386.136	0.21
386.342	0.3
386.549	0.21
386.755	0.32
386.961	0.32
387.168	0.25
387.374	0.24
387.58	0.31
387.787	0.25
387.993	0.23
388.199	0.23
388.406	0.23
388.612	0.29
388.818	0.22
389.024	0.25
389.231	0.3
389.437	0.39
389.643	0.3
389.849	0.26
390.055	0.26
390.261	0.26
390.467	0.27
390.674	0.24
390.88	0.24
391.086	0.34
391.292	0.25
391.498	0.29
391.704	0.3
391.91	0.27
392.116	0.26
392.322	0.2
392.528	0.36
392.734	0.29
392.94	0.26
393.146	0.28
393.352	0.27
393.557	0.29
393.763	0.28
393.969	0.33
394.175	0.27
394.381	0.29
394.587	0.24
394.792	0.29
394.998	0.36
395.204	0.36
395.41	0.26
395.615	0.3
395.821	0.31
396.027	0.34
396.233	0.3
396.438	0.3
396.644	0.37
396.85	0.35
397.055	0.31
397.261	0.36
397.466	0.3
397.672	0.33
397.878	0.35
398.083	0.33
398.289	0.31
398.494	0.38
398.7	0.34
398.905	0.21
399.111	0.42
399.316	0.25
399.522	0.35
399.727	0.36
399.932	0.31
400.138	0.31
400.343	0.38
400.549	0.35
400.754	0.35
400.959	0.39
401.165	0.34
401.37	0.38
401.575	0.28
401.78	0.33
401.986	0.32
402.191	0.3
402.396	0.38
402.601	0.43
402.807	0.41
403.012	0.31
403.217	0.38
403.422	0.36
403.627	0.39
403.832	0.34
404.037	0.45
404.243	0.4
404.448	0.36
404.653	0.39
404.858	0.46
405.063	0.46
405.268	0.36
405.473	0.4
405.678	0.36
405.883	0.63
406.088	0.5
406.293	0.36
406.498	0.48
406.703	0.5
406.907	0.47
407.112	0.43
407.317	0.5
407.522	0.53
407.727	0.44
407.932	0.53
408.136	0.61
408.341	0.53
408.546	0.56
408.751	0.55
408.956	0.54
409.16	0.64
409.365	0.61
409.57	0.57
409.774	0.57
409.979	0.68
410.184	0.68
410.388	0.62
410.593	0.76
410.798	0.69
411.002	0.72
411.207	0.78
411.411	0.75
411.616	0.68
411.82	0.79
412.025	0.82
412.229	0.77
412.434	0.93
412.638	0.81
412.843	0.83
413.047	0.88
413.252	0.84
413.456	0.95
413.66	0.95
413.865	0.97
414.069	1.09
414.273	1.02
414.478	1.01
414.682	1.07
414.886	1.15
415.091	1.09
415.295	1.16
415.499	1.32
415.703	1.31
415.908	1.37
416.112	1.31
416.316	1.43
416.52	1.45
416.724	1.47
416.929	1.48
417.133	1.78
417.337	1.61
417.541	1.64
417.745	1.74
417.949	1.84
418.153	1.87
418.357	1.88
418.561	2.08
418.765	2.07
418.969	2.23
419.173	2.22
419.377	2.22
419.581	2.48
419.785	2.43
419.989	2.45
420.193	2.55
420.397	2.67
420.601	2.78
420.804	2.86
421.008	2.81
421.212	3.09
421.416	3.05
421.62	2.98
421.823	3.05
422.027	3.26
422.231	3.18
422.435	3.24
422.638	3.26
422.842	3.44
423.046	3.43
423.249	3.68
423.453	3.69
423.657	3.79
423.86	3.9
424.064	3.93
424.268	4.13
424.471	4.13
424.675	4.33
424.878	4.37
425.082	4.51
425.285	4.82
425.489	4.7
425.692	4.87
425.896	4.91
426.099	5.08
426.303	5.12
426.506	5.27
426.71	5.51
426.913	5.74
427.116	5.94
427.32	5.84
427.523	5.99
427.726	6.24
427.93	6.38
428.133	6.63
428.336	6.7
428.54	6.88
428.743	7.25
428.946	7.32
429.149	7.39
429.353	7.52
429.556	7.6
429.759	7.6
429.962	7.69
430.165	7.82
430.368	7.48
430.571	7.61
430.775	7.57
430.978	7.66
431.181	7.71
431.384	7.77
431.587	7.92
431.79	8.26
431.993	8.2
432.196	8.54
432.399	8.86
432.602	8.95
432.805	9.11
433.008	9.65
433.211	9.35
433.414	9.78
433.616	9.89
433.819	9.78
434.022	9.99
434.225	10.21
434.428	10.1
434.631	10.58
434.833	10.34
435.036	10.64
435.239	10.82
435.442	10.83
435.645	11.01
435.847	11.07
436.05	11.39
436.253	11.66
436.455	11.64
436.658	11.54
436.861	11.83
437.063	11.82
437.266	11.81
437.468	12.28
437.671	12.59
437.874	12.55
438.076	12.43
438.279	12.92
438.481	12.95
438.684	13.6
438.886	13.24
439.089	13.62
439.291	13.65
439.494	14.06
439.696	14.16
439.899	14.6
440.101	15.03
440.303	15.2
440.506	15.89
440.708	15.7
440.91	15.83
441.113	16.08
441.315	16.4
441.517	16.13
441.72	16.63
441.922	16.28
442.124	16.2
442.326	16.59
442.529	16.8
442.731	16.69
442.933	17.11
443.135	16.84
443.337	16.89
443.539	17.48
443.742	16.95
443.944	17.56
444.146	17.39
444.348	17.41
444.55	17.41
444.752	17.47
444.954	17.67
445.156	17.55
445.358	17.98
445.56	18.13
445.762	18.05
445.964	18.29
446.166	18.09
446.368	18.17
446.57	18.14
446.772	17.74
446.974	17.66
447.175	18.01
447.377	17.56
447.579	17.99
447.781	17.78
447.983	17.53
448.184	17.15
448.386	17.4
448.588	17.1
448.79	17.05
448.991	17.41
449.193	17.44
449.395	16.62
449.597	16.44
449.798	16.26
450	16.01
450.202	15.75
450.403	16.02
450.605	15.85
450.806	15.49
451.008	15.33
451.21	15.1
451.411	14.62
451.613	14
451.814	14.2
452.016	14.22
452.217	13.58
452.419	13.46
452.62	13.27
452.821	13.02
453.023	12.9
453.224	12.47
453.426	12.04
453.627	11.3
453.828	11.48
454.03	11.55
454.231	11.53
454.432	11.44
454.634	11.2
454.835	10.82
455.036	10.82
455.238	10.39
455.439	10.03
455.64	9.89
455.841	9.64
456.042	9.92
456.244	9.5
456.445	9.3
456.646	8.92
456.847	8.98
457.048	8.84
457.249	8.76
457.45	8.54
457.651	8.03
457.852	7.87
458.054	7.49
458.255	7.41
458.456	7.64
458.657	7.44
458.858	7.01
459.058	6.88
459.259	6.99
459.46	6.69
459.661	6.71
459.862	6.77
460.063	6.5
460.264	6.46
460.465	6.3
460.666	6.32
460.866	5.87
461.067	5.68
461.268	5.71
461.469	5.7
461.67	5.5
461.87	5.38
462.071	5.4
462.272	5.33
462.473	5.33
462.673	5.46
462.874	5.34
463.075	5.34
463.275	5.15
463.476	5.29
463.676	5.28
463.877	5.15
464.078	5.11
464.278	5.15
464.479	4.95
464.679	4.83
464.88	4.92
465.08	4.9
465.281	4.66
465.481	4.47
465.682	4.31
465.882	4.31
466.083	4.24
466.283	4.22
466.483	4.06
466.684	3.83
466.884	3.76
467.085	3.86
467.285	3.84
467.485	3.73
467.686	3.73
467.886	3.56
468.086	3.51
468.286	3.5
468.487	3.57
468.687	3.41
468.887	3.35
469.087	3.5
469.287	3.4
469.488	3.21
469.688	3.34
469.888	3.42
470.088	3.3
470.288	3.15
470.488	3.18
470.688	2.91
470.888	2.97
471.088	2.78
471.288	2.92
471.488	2.89
471.688	2.84
471.888	2.77
472.088	2.96
472.288	2.77
472.488	2.74
472.688	2.7
472.888	2.67
473.088	2.75
473.288	2.54
473.488	2.57
473.688	2.81
473.887	2.58
474.087	2.52
474.287	2.5
474.487	2.44
474.687	2.54
474.886	2.43
475.086	2.4
475.286	2.43
475.486	2.31
475.685	2.37
475.885	2.32
476.085	2.34
476.284	2.32
476.484	2.34
476.684	2.26
476.883	2.4
477.083	2.27
477.282	2.19
477.482	2.24
477.681	2.25
477.881	2.16
478.08	2.12
478.28	2.09
478.479	2.15
478.679	2.23
478.878	2.11
479.078	2.1
479.277	2.12
479.477	2.15
479.676	2.06
479.875	2.05
480.075	2.02
480.274	2.05
480.473	2.13
480.673	2.06
480.872	2.16
481.071	2.07
481.271	2.12
481.47	2.05
481.669	2.06
481.868	2.03
482.067	2.04
482.267	1.96
482.466	1.99
482.665	1.98
482.864	2
483.063	1.96
483.262	2.08
483.461	2.11
483.661	2.08
483.86	2.02
484.059	2.08
484.258	2.11
484.457	2.03
484.656	2.05
484.855	2.13
485.054	1.99
485.253	2.02
485.452	1.98
485.651	2.11
485.849	2.11
486.048	2.03
486.247	2.07
486.446	2.13
486.645	2.05
486.844	2.07
487.043	2.04
487.241	2.15
487.44	2.08
487.639	2.18
487.838	2.14
488.037	2.17
488.235	2.24
488.434	2.16
488.633	2.08
488.831	2.24
489.03	2.26
489.229	2.23
489.427	2.22
489.626	2.29
489.825	2.32
490.023	2.33
490.222	2.3
490.42	2.36
490.619	2.37
490.817	2.38
491.016	2.31
491.214	2.39
491.413	2.44
491.611	2.38
491.81	2.44
492.008	2.44
492.207	2.53
492.405	2.56
492.604	2.44
492.802	2.54
493	2.61
493.199	2.62
493.397	2.64
493.595	2.71
493.794	2.64
493.992	2.78
494.19	2.73
494.388	2.77
494.587	2.72
494.785	2.79
494.983	2.73
495.181	2.86
495.379	2.89
495.578	2.96
495.776	2.94
495.974	2.9
496.172	2.99
496.37	3.04
496.568	3.09
496.766	3.08
496.964	3.18
497.162	3.17
497.36	3.23
497.558	3.21
497.756	3.28
497.954	3.27
498.152	3.33
498.35	3.46
498.548	3.32
498.746	3.39
498.944	3.4
499.142	3.42
499.34	3.5
499.538	3.56
499.736	3.47
499.933	3.62
500.131	3.61
500.329	3.78
500.527	3.75
500.725	3.84
500.922	3.87
501.12	3.83
501.318	3.92
501.516	3.93
501.713	3.91
501.911	3.92
502.109	3.91
502.306	4.02
502.504	3.99
502.701	4.04
502.899	4.16
503.097	4.34
503.294	4.16
503.492	4.27
503.689	4.33
503.887	4.29
504.084	4.43
504.282	4.38
504.479	4.38
504.677	4.53
504.874	4.47
505.072	4.43
505.269	4.59
505.466	4.65
505.664	4.72
505.861	4.59
506.059	4.74
506.256	4.76
506.453	4.78
506.651	4.91
506.848	4.92
507.045	4.91
507.242	4.91
507.44	4.97
507.637	5.03
507.834	4.99
508.031	5.16
508.229	5.08
508.426	4.99
508.623	5.21
508.82	5.26
509.017	5.17
509.214	5.23
509.411	5.3
509.608	5.29
509.805	5.38
510.003	5.37
510.2	5.41
510.397	5.59
510.594	5.45
510.791	5.58
510.988	5.57
511.184	5.56
511.381	5.49
511.578	5.66
511.775	5.72
511.972	5.68
512.169	5.75
512.366	5.78
512.563	5.86
512.76	5.9
512.956	5.89
513.153	5.89
513.35	5.88
513.547	5.87
513.744	5.98
513.94	5.92
514.137	6.1
514.334	6.07
514.53	6.08
514.727	6.22
514.924	6.19
515.12	6.19
515.317	6.19
515.514	6.07
515.71	6.11
515.907	6.35
516.103	6.37
516.3	6.24
516.497	6.39
516.693	6.45
516.89	6.43
517.086	6.43
517.283	6.48
517.479	6.32
517.676	6.54
517.872	6.56
518.068	6.55
518.265	6.54
518.461	6.48
518.658	6.6
518.854	6.65
519.05	6.72
519.247	6.67
519.443	6.7
519.639	6.82
519.836	6.69
520.032	6.64
520.228	6.78
520.424	6.78
520.621	6.8
520.817	6.91
521.013	6.81
521.209	7.02
521.405	6.97
521.601	6.96
521.798	6.91
521.994	6.96
522.19	6.85
522.386	6.97
522.582	7.07
522.778	7.19
522.974	7.02
523.17	7.04
523.366	7.03
523.562	7.06
523.758	7.1
523.954	6.85
524.15	7.09
524.346	7.19
524.542	7.16
524.738	7.14
524.934	7.21
525.129	7.13
525.325	7.18
525.521	7.15
525.717	7.41
525.913	7.21
526.109	7.31
526.304	7.36
526.5	7.29
526.696	7.38
526.892	7.23
527.087	7.52
527.283	7.41
527.479	7.39
527.674	7.26
527.87	7.42
528.066	7.41
528.261	7.5
528.457	7.34
528.653	7.52
528.848	7.5
529.044	7.6
529.239	7.4
529.435	7.42
529.63	7.4
529.826	7.49
530.021	7.54
530.217	7.52
530.412	7.46
530.608	7.52
530.803	7.58
530.999	7.49
531.194	7.48
531.389	7.68
531.585	7.57
531.78	7.73
531.975	7.59
532.171	7.67
532.366	7.62
532.561	7.66
532.757	7.59
532.952	7.8
533.147	7.6
533.342	7.7
533.538	7.64
533.733	7.85
533.928	7.46
534.123	7.69
534.318	7.77
534.513	7.67
534.709	7.84
534.904	7.81
535.099	7.8
535.294	7.79
535.489	7.81
535.684	7.73
535.879	7.78
536.074	7.83
536.269	7.86
536.464	7.87
536.659	7.7
536.854	7.82
537.049	7.88
537.244	7.82
537.439	7.79
537.634	7.84
537.828	7.92
538.023	7.88
538.218	7.84
538.413	7.75
538.608	7.82
538.803	7.84
538.997	7.85
539.192	7.86
539.387	7.84
539.582	7.91
539.776	7.79
539.971	7.85
540.166	8
540.36	7.81
540.555	8
540.75	7.92
540.944	7.9
541.139	7.94
541.334	7.94
541.528	7.91
541.723	8
541.917	7.99
542.112	7.87
542.306	7.81
542.501	7.86
542.695	7.92
542.89	7.83
543.084	7.92
543.279	8.01
543.473	7.96
543.668	8.01
543.862	7.81
544.056	7.84
544.251	8
544.445	8.1
544.64	8.1
544.834	7.75
545.028	7.63
545.222	7.98
545.417	8.12
545.611	8.06
545.805	7.99
546	7.85
546.194	7.95
546.388	8.03
546.582	7.92
546.776	7.9
546.97	7.95
547.165	7.98
547.359	7.94
547.553	7.88
547.747	7.93
547.941	8.19
548.135	7.95
548.329	8.03
548.523	8.05
548.717	7.9
548.911	7.94
549.105	7.94
549.299	8.07
549.493	8
549.687	7.94
549.881	8.09
550.075	8.01
550.269	7.88
550.463	8.02
550.657	8.05
550.85	8.04
551.044	8.01
551.238	8.11
551.432	8.01
551.626	8.09
551.82	8.05
552.013	7.91
552.207	8.11
552.401	8.15
552.594	7.96
552.788	8.05
552.982	7.98
553.176	7.91
553.369	8.19
553.563	8.02
553.756	8.04
553.95	8.06
554.144	8.04
554.337	8.09
554.531	7.92
554.724	8.08
554.918	8.13
555.111	8.03
555.305	8.09
555.498	8
555.692	8.15
555.885	8.09
556.079	8.03
556.272	8.02
556.466	8.07
556.659	8.05
556.852	8.1
557.046	7.97
557.239	7.92
557.432	8
557.626	8.13
557.819	8.12
558.012	8.08
558.206	8.15
558.399	8.03
558.592	8
558.785	7.97
558.979	8.05
559.172	7.98
559.365	8.14
559.558	8.03
559.751	7.98
559.944	8.15
560.138	8
560.331	8.06
560.524	8.05
560.717	8.03
560.91	7.98
561.103	8.1
561.296	7.92
561.489	8.09
561.682	8.11
561.875	8.08
562.068	8.15
562.261	7.95
562.454	8.24
562.647	8.04
562.84	8.13
563.032	8.06
563.225	7.98
563.418	8.07
563.611	8.15
563.804	8.12
563.997	7.95
564.19	7.79
564.382	8.09
564.575	8.05
564.768	7.94
564.961	8.03
565.153	7.98
565.346	7.94
565.539	8.08
565.731	8.02
565.924	8.05
566.117	8.21
566.309	8.07
566.502	8.01
566.695	7.98
566.887	8.05
567.08	8.02
567.272	8.09
567.465	7.98
567.657	8.05
567.85	7.92
568.042	8.03
568.235	8.02
568.427	7.9
568.62	8.01
568.812	7.97
569.005	8.06
569.197	7.91
569.389	8.02
569.582	7.99
569.774	7.94
569.966	7.84
570.159	7.9
570.351	7.88
570.543	7.97
570.736	7.92
570.928	7.77
571.12	8
571.312	7.89
571.505	7.69
571.697	7.96
571.889	7.93
572.081	7.89
572.273	7.83
572.465	7.93
572.658	7.95
572.85	7.92
573.042	7.92
573.234	7.84
573.426	7.91
573.618	7.88
573.81	7.95
574.002	7.92
574.194	7.94
574.386	7.85
574.578	7.7
574.77	7.83
574.962	7.86
575.154	7.71
575.346	7.8
575.538	7.82
575.729	7.76
575.921	7.9
576.113	7.86
576.305	7.81
576.497	7.93
576.689	7.78
576.88	7.68
577.072	7.89
577.264	7.73
577.456	7.84
577.647	7.73
577.839	7.88
578.031	7.72
578.223	7.73
578.414	7.68
578.606	7.84
578.798	7.79
578.989	7.78
579.181	7.75
579.372	7.75
579.564	7.79
579.755	7.73
579.947	7.62
580.139	7.77
580.33	7.62
580.522	7.76
580.713	7.65
580.905	7.65
581.096	7.82
581.287	7.63
581.479	7.66
581.67	7.74
581.862	7.58
582.053	7.67
582.244	7.52
582.436	7.7
582.627	7.57
582.818	7.47
583.01	7.5
583.201	7.67
583.392	7.58
583.583	7.48
583.775	7.38
583.966	7.42
584.157	7.59
584.348	7.66
584.54	7.47
584.731	7.56
584.922	7.49
585.113	7.33
585.304	7.53
585.495	7.56
585.686	7.56
585.877	7.54
586.068	7.6
586.259	7.54
586.45	7.46
586.641	7.44
586.832	7.49
587.023	7.41
587.214	7.38
587.405	7.52
587.596	7.37
587.787	7.28
587.978	7.39
588.169	7.31
588.36	7.23
588.551	7.3
588.742	7.38
588.932	7.43
589.123	7.15
589.314	7.41
589.505	7.32
589.696	7.29
589.886	7.24
590.077	7.28
590.268	7.2
590.458	7.08
590.649	7.03
590.84	7.27
591.03	7.23
591.221	7.16
591.412	7.06
591.602	7.3
591.793	7.19
591.984	7.1
592.174	7.07
592.365	7.28
592.555	6.98
592.746	7.08
592.936	7.1
593.127	7.09
593.317	7.07
593.508	7.11
593.698	6.98
593.889	6.99
594.079	6.99
594.269	6.96
594.46	6.99
594.65	7.03
594.84	6.96
595.031	6.87
595.221	6.89
595.411	6.93
595.602	6.99
595.792	6.88
595.982	6.84
596.172	6.94
596.363	6.77
596.553	6.82
596.743	6.88
596.933	6.78
597.123	6.86
597.314	6.74
597.504	6.65
597.694	6.81
597.884	6.72
598.074	6.75
598.264	6.74
598.454	6.77
598.644	6.7
598.834	6.69
599.024	6.61
599.214	6.62
599.404	6.71
599.594	6.72
599.784	6.61
599.974	6.65
600.164	6.62
600.354	6.53
600.544	6.47
600.734	6.62
600.924	6.5
601.114	6.44
601.303	6.48
601.493	6.51
601.683	6.52
601.873	6.53
602.063	6.37
602.252	6.41
602.442	6.34
602.632	6.37
602.821	6.31
603.011	6.44
603.201	6.33
603.39	6.3
603.58	6.17
603.77	6.3
603.959	6.43
604.149	6.29
604.339	6.24
604.528	6.4
604.718	6.24
604.907	6.21
605.097	6.12
605.286	6.23
605.476	6.27
605.665	6.22
605.855	6.13
606.044	6.25
606.234	6.2
606.423	6.13
606.612	6.08
606.802	6.08
606.991	6.14
607.181	6.1
607.37	6.1
607.559	5.9
607.749	6.02
607.938	5.96
608.127	6.03
608.316	5.99
608.506	5.9
608.695	6.02
608.884	5.89
609.073	5.93
609.263	5.95
609.452	5.97
609.641	5.8
609.83	5.72
610.019	5.88
610.208	5.74
610.397	5.78
610.586	5.8
610.775	5.68
610.965	5.7
611.154	5.67
611.343	5.77
611.532	5.66
611.721	5.73
611.91	5.64
612.099	5.59
612.287	5.56
612.476	5.53
612.665	5.67
612.854	5.52
613.043	5.6
613.232	5.57
613.421	5.54
613.61	5.55
613.798	5.46
613.987	5.48
614.176	5.43
614.365	5.45
614.554	5.44
614.742	5.47
614.931	5.31
615.12	5.44
615.309	5.35
615.497	5.26
615.686	5.23
615.875	5.3
616.063	5.28
616.252	5.27
616.44	5.27
616.629	5.2
616.818	5.28
617.006	5.22
617.195	5.16
617.383	5.19
617.572	5.1
617.76	5.08
617.949	5.11
618.137	5.26
618.326	5.22
618.514	4.95
618.703	4.94
618.891	5.07
619.079	4.96
619.268	5.09
619.456	4.94
619.644	5.04
619.833	4.95
620.021	4.92
620.209	4.81
620.398	4.94
620.586	4.85
620.774	4.91
620.962	4.9
621.151	4.94
621.339	4.88
621.527	4.79
621.715	4.73
621.903	4.76
622.092	4.63
622.28	4.85
622.468	4.58
622.656	4.75
622.844	4.67
623.032	4.77
623.22	4.59
623.408	4.77
623.596	4.69
623.784	4.68
623.972	4.54
624.16	4.65
624.348	4.64
624.536	4.66
624.724	4.51
624.912	4.55
625.1	4.56
625.288	4.52
625.476	4.44
625.664	4.5
625.851	4.5
626.039	4.52
626.227	4.41
626.415	4.46
626.603	4.41
626.79	4.43
626.978	4.34
627.166	4.43
627.354	4.33
627.541	4.33
627.729	4.19
627.917	4.45
628.104	4.4
628.292	4.3
628.48	4.28
628.667	4.26
628.855	4.31
629.042	4.27
629.23	4.2
629.418	4.19
629.605	4.2
629.793	4.06
629.98	4.13
630.168	4.09
630.355	4.16
630.543	4.1
630.73	4.02
630.917	4.13
631.105	4.18
631.292	4.03
631.48	4.07
631.667	4.14
631.854	3.98
632.042	3.96
632.229	3.91
632.416	3.94
632.604	3.98
632.791	3.84
632.978	3.94
633.165	3.91
633.353	3.92
633.54	3.93
633.727	3.75
633.914	3.81
634.101	3.74
634.289	3.81
634.476	3.75
634.663	3.75
634.85	3.76
635.037	3.7
635.224	3.66
635.411	3.76
635.598	3.65
635.785	3.68
635.972	3.62
636.159	3.68
636.346	3.63
636.533	3.6
636.72	3.59
636.907	3.6
637.094	3.57
637.281	3.47
637.468	3.57
637.655	3.57
637.842	3.54
638.029	3.48
638.215	3.52
638.402	3.52
638.589	3.43
638.776	3.4
638.963	3.41
639.149	3.47
639.336	3.5
639.523	3.4
639.709	3.36
639.896	3.36
640.083	3.36
640.27	3.4
640.456	3.32
640.643	3.36
640.829	3.23
641.016	3.31
641.203	3.21
641.389	3.29
641.576	3.29
641.762	3.21
641.949	3.19
642.135	3.23
642.322	3.21
642.508	3.09
642.695	3.13
642.881	3.11
643.068	3.08
643.254	3.09
643.441	3.14
643.627	3.16
643.813	2.98
644	3.07
644.186	2.96
644.372	3.09
644.559	3.09
644.745	3.03
644.931	2.92
645.118	3
645.304	2.99
645.49	2.95
645.676	2.96
645.862	2.93
646.049	2.98
646.235	2.95
646.421	2.99
646.607	3.02
646.793	2.9
646.979	2.81
647.165	2.84
647.352	2.84
647.538	2.86
647.724	2.75
647.91	2.79
648.096	2.81
648.282	2.8
648.468	2.78
648.654	2.81
648.84	2.8
649.026	2.76
649.212	2.7
649.397	2.65
649.583	2.7
649.769	2.75
649.955	2.68
650.141	2.7
650.327	2.7
650.513	2.65
650.698	2.64
650.884	2.49
651.07	2.63
651.256	2.58
651.442	2.6
651.627	2.51
651.813	2.63
651.999	2.56
652.184	2.54
652.37	2.54
652.556	2.5
652.741	2.55
652.927	2.39
653.113	2.47
653.298	2.5
653.484	2.45
653.669	2.39
653.855	2.45
654.04	2.48
654.226	2.43
654.412	2.39
654.597	2.31
654.782	2.44
654.968	2.43
655.153	2.31
655.339	2.35
655.524	2.32
655.71	2.37
655.895	2.33
656.08	2.34
656.266	2.41
656.451	2.3
656.636	2.23
656.822	2.27
657.007	2.23
657.192	2.26
657.378	2.24
657.563	2.23
657.748	2.27
657.933	2.28
658.118	2.18
658.304	2.19
658.489	2.25
658.674	2.18
658.859	2.14
659.044	2.15
659.229	2.17
659.414	2.11
659.599	2.17
659.785	2.09
659.97	2.06
660.155	2.1
660.34	2.12
660.525	2.04
660.71	2
660.895	2.08
661.08	2.04
661.264	2.01
661.449	2.12
661.634	2.03
661.819	2.07
662.004	1.95
662.189	1.97
662.374	1.96
662.559	1.96
662.743	1.9
662.928	2
663.113	1.92
663.298	1.89
663.483	1.89
663.667	1.93
663.852	1.82
664.037	1.96
664.221	1.92
664.406	1.96
664.591	1.92
664.775	1.9
664.96	1.83
665.145	1.87
665.329	1.92
665.514	1.83
665.698	1.78
665.883	1.76
666.068	1.88
666.252	1.81
666.437	1.71
666.621	1.81
666.806	1.85
666.99	1.73
667.174	1.73
667.359	1.81
667.543	1.77
667.728	1.72
667.912	1.67
668.096	1.77
668.281	1.7
668.465	1.78
668.649	1.65
668.834	1.67
669.018	1.73
669.202	1.65
669.387	1.63
669.571	1.72
669.755	1.67
669.939	1.61
670.124	1.69
670.308	1.69
670.492	1.65
670.676	1.59
670.86	1.63
671.044	1.6
671.228	1.67
671.413	1.56
671.597	1.51
671.781	1.53
671.965	1.6
672.149	1.62
672.333	1.56
672.517	1.53
672.701	1.62
672.885	1.5
673.069	1.43
673.253	1.62
673.437	1.53
673.621	1.43
673.804	1.49
673.988	1.52
674.172	1.48
674.356	1.38
674.54	1.53
674.724	1.59
674.908	1.45
675.091	1.53
675.275	1.44
675.459	1.55
675.643	1.39
675.826	1.45
676.01	1.38
676.194	1.43
676.377	1.46
676.561	1.48
676.745	1.4
676.928	1.46
677.112	1.47
677.296	1.37
677.479	1.37
677.663	1.3
677.846	1.43
678.03	1.36
678.213	1.27
678.397	1.46
678.58	1.35
678.764	1.35
678.947	1.31
679.131	1.31
679.314	1.43
679.498	1.31
679.681	1.33
679.865	1.46
680.048	1.25
680.231	1.28
680.415	1.29
680.598	1.3
680.781	1.23
680.965	1.32
681.148	1.27
681.331	1.21
681.514	1.29
681.698	1.17
681.881	1.25
682.064	1.23
682.247	1.29
682.43	1.11
682.614	1.24
682.797	1.24
682.98	1.27
683.163	1.14
683.346	1.17
683.529	1.21
683.712	1.15
683.895	1.26
684.078	1.14
684.261	1.22
684.444	1.24
684.627	1.2
684.81	1.13
684.993	1.17
685.176	1.22
685.359	1.1
685.542	1.11
685.725	1.26
685.908	1.17
686.091	1.07
686.274	1.17
686.457	1.21
686.639	1.09
686.822	1.13
687.005	1.11
687.188	1.13
687.371	1.23
687.553	1.18
687.736	1.1
687.919	1.19
688.102	1.18
688.284	1.07
688.467	1.07
688.65	1.04
688.832	0.98
689.015	1.01
689.197	0.91
689.38	1.17
689.563	1.12
689.745	0.95
689.928	0.99
690.11	1.05
690.293	1.06
690.475	0.94
690.658	1.1
690.84	1
691.023	0.97
691.205	0.98
691.388	1.03
691.57	1.04
691.752	1.06
691.935	0.9
692.117	1
692.3	1.06
692.482	0.9
692.664	0.88
692.847	0.99
693.029	1.04
693.211	1.01
693.393	0.92
693.576	0.89
693.758	1.03
693.94	0.91
694.122	0.88
694.304	0.91
694.487	0.88
694.669	1.02
694.851	0.88
695.033	0.89
695.215	0.97
695.397	0.86
695.579	0.94
695.761	0.85
695.943	0.84
696.125	0.99
696.308	0.89
696.49	0.78
696.671	1.03
696.853	0.92
697.035	1.11
697.217	0.8
697.399	0.94
697.581	0.84
697.763	0.84
697.945	0.77
698.127	0.88
698.309	0.99
698.491	0.88
698.672	0.88
698.854	0.9
699.036	0.91
699.218	0.78
699.399	0.91
699.581	0.88
699.763	0.82
699.945	0.72
700.126	0.72
700.308	0.87
700.49	0.78
700.671	0.71
700.853	0.75
701.035	0.79
701.216	0.83
701.398	0.75
701.579	0.75
701.761	0.91
701.943	0.72
702.124	0.71
702.306	0.8
702.487	0.93
702.669	0.79
702.85	0.72
703.031	0.69
703.213	0.77
703.394	0.84
703.576	0.75
703.757	0.96
703.938	0.88
704.12	0.97
704.301	0.77
704.483	0.73
704.664	0.83
704.845	0.85
705.026	0.78
705.208	0.71
705.389	0.76
705.57	0.75
705.751	0.71
705.933	0.77
706.114	0.77
706.295	0.73
706.476	0.58
706.657	0.84
706.838	0.73
707.02	0.78
707.201	0.65
707.382	0.73
707.563	0.69
707.744	0.69
707.925	0.6
708.106	0.59
708.287	0.71
708.468	0.84
708.649	0.68
708.83	0.72
709.011	0.63
709.192	0.79
709.373	0.56
709.554	0.59
709.734	0.83
709.915	0.78
710.096	0.67
710.277	0.5
710.458	0.6
710.639	0.74
710.819	0.48
711	0.67
711.181	0.67
711.362	0.74
711.542	0.63
711.723	0.6
711.904	0.75
712.085	0.64
712.265	0.69
712.446	0.56
712.627	0.58
712.807	0.61
712.988	0.64
713.168	0.54
713.349	0.69
713.53	0.49
713.71	0.52
713.891	0.51
714.071	0.55
714.252	0.5
714.432	0.57
714.613	0.49
714.793	0.59
714.974	0.72
715.154	0.63
715.334	0.69
715.515	0.7
715.695	0.56
715.876	0.56
716.056	0.48
716.236	0.53
716.417	0.56
716.597	0.53
716.777	0.79
716.957	0.58
717.138	0.61
717.318	0.6
717.498	0.47
717.678	0.56
717.859	0.6
718.039	0.42
718.219	0.59
718.399	0.57
718.579	0.48
718.759	0.44
718.939	0.63
719.12	0.64
719.3	0.54
719.48	0.39
719.66	0.37
719.84	0.72
720.02	0.57
720.2	0.5
720.38	0.47
720.56	0.63
720.74	0.46
720.92	0.57
721.1	0.67
721.279	0.65
721.459	0.56
721.639	0.4
721.819	0.49
721.999	0.51
722.179	0.58
722.359	0.44
722.538	0.47
722.718	0.48
722.898	0.53
723.078	0.46
723.257	0.52
723.437	0.54
723.617	0.56
723.797	0.47
723.976	0.51
724.156	0.62
724.336	0.55
724.515	0.74
724.695	0.4
724.874	0.49
725.054	0.65
725.234	0.48
725.413	0.48
725.593	0.47
725.772	0.47
725.952	0.51
726.131	0.52
726.311	0.51
726.49	0.48
726.67	0.4
726.849	0.46
727.028	0.55
727.208	0.49
727.387	0.44
727.567	0.41
727.746	0.53
727.925	0.5
728.105	0.36
728.284	0.42
728.463	0.44
728.643	0.58
728.822	0.45
729.001	0.52
729.18	0.53
729.359	0.59
729.539	0.48
729.718	0.42
729.897	0.63
730.076	0.48
730.255	0.39
730.434	0.51
730.614	0.62
730.793	0.61
730.972	0.44
731.151	0.5
731.33	0.5
731.509	0.54
731.688	0.51
731.867	0.48
732.046	0.29
732.225	0.72
732.404	0.45
732.583	0.31
732.762	0.45
732.941	0.61
733.12	0.47
733.298	0.45
733.477	0.6
733.656	0.34
733.835	0.36
734.014	0.57
734.193	0.37
734.371	0.59
734.55	0.6
734.729	0.37
734.908	0.5
735.086	0.52
735.265	0.51
735.444	0.3
735.623	0.4
735.801	0.4
735.98	0.48
736.159	0.44
736.337	0.5
736.516	0.53
736.694	0.37
736.873	0.34
737.052	0.65
737.23	0.76
737.409	0.44
737.587	0.77
737.766	0.42
737.944	0.39
738.123	0.49
738.301	0.5
738.479	0.43
738.658	0.48
738.836	0.22
739.015	0.52
739.193	0.54
739.371	0.25
739.55	0.41
739.728	0.32
739.906	0.68
740.085	0.61
740.263	0.43
740.441	0.28
740.62	0.72
740.798	0.59
740.976	0.31
741.154	0.28
741.332	0.6
741.511	0.43
741.689	0.53
741.867	0.49
742.045	0.54
742.223	0.41
742.401	0.3
742.579	0.38
742.757	0.49
742.935	0.24
743.114	0.41
743.292	0.38
743.47	0.48
743.648	0.52
743.826	0.29
744.004	0.44
744.181	0.58
744.359	0.44
744.537	0.46
744.715	0.32
744.893	0.49
745.071	0.49
745.249	0.37
745.427	0.41
745.605	0.57
745.782	0.45
745.96	0.41
746.138	0.65
746.316	0.49
746.493	0.35
746.671	0.44
746.849	0.37
747.027	0.63
747.204	0.32
747.382	0.33
747.56	0.26
747.737	0.46
747.915	0.45
748.093	0.56
748.27	0.29
748.448	0.35
748.625	0.21
748.803	0.36
748.98	0.25
749.158	0.44
749.335	0.51
749.513	0.35
749.69	0.42
749.868	0.4
750.045	0.48
750.223	0.35
750.4	0.16
750.578	0.63
750.755	0.33
750.932	0.09
751.11	0.52
751.287	0.19
751.464	0.43
751.642	0.23
751.819	0.44
751.996	0.48
752.173	0.31
752.351	0.18
752.528	0.28
752.705	0.29
752.882	0.33
753.06	0.33
753.237	0.43
753.414	0.5
753.591	0.67
753.768	0.46
753.945	0.29
754.122	0.38
754.299	0.5
754.476	0.26
754.654	0.32
754.831	0.52
755.008	0.37
755.185	0.23
755.362	0.2
755.539	0.39
755.716	0.4
755.892	0.35
756.069	0.42
756.246	0.35
756.423	0.37
756.6	0.42
756.777	0.36
756.954	0.49
757.131	0.4
757.307	0.29
757.484	0.23
757.661	0.43
757.838	0.51
758.015	0.11
758.191	0.34
758.368	0.43
758.545	0.54
758.721	0.37
758.898	0.23
759.075	0.35
759.251	0.37
759.428	0.39
759.605	0.18
759.781	0.27
759.958	0.41
760.134	0.39
760.311	0.23
760.488	0.61
760.664	0.54
760.841	0.55
761.017	0.34
761.194	0.43
761.37	0.67
761.547	0.37
761.723	0.37
761.899	0.45
762.076	0.28
762.252	0.36
762.429	0.31
762.605	0.44
762.781	0.23
762.958	0.41
763.134	0.2
763.31	0.23
763.486	0.51
763.663	0.03
763.839	0.5
764.015	0.04
764.191	0.23
764.368	0.25
764.544	0.21
764.72	0.38
764.896	0.4
765.072	0.38
765.248	0.26
765.425	0.34
765.601	0.46
765.777	0.36
765.953	0.01
766.129	0.23
766.305	0.17
766.481	0.39
766.657	0.35
766.833	0.49
767.009	0.21
767.185	0.22
767.361	0.25
767.537	0.17
767.713	0.51
767.889	0.24
768.065	0.47
768.24	0.48
768.416	0.46
768.592	0.27
768.768	0.25
768.944	0.41
769.12	0.11
769.295	0.28
769.471	0.23
769.647	0.24
769.823	0.61
769.998	0.08
770.174	0.23
770.35	0.68
770.525	0.69
770.701	0.27
770.877	0.37
771.052	0.37
771.228	0.4
771.403	0.4
771.579	0.39
771.755	0.74
771.93	0.35
772.106	0.26
772.281	0.03
772.457	0.35
772.632	0.42
772.808	0.14
772.983	0.18
773.159	0.16
773.334	0.68
773.509	0.45
773.685	0.16
773.86	0.81
774.036	0.53
774.211	0.33
774.386	0.3
774.562	0.35
774.737	0.71
774.912	0.24
775.087	0.39
775.263	0.28
775.438	0.44
775.613	0.27
775.788	0.28
775.964	0.51
776.139	0.83
776.314	0.06
776.489	0.34
776.664	0.35
776.839	0.26
777.014	0.54
777.19	0.51
777.365	0.68
777.54	0.65
777.715	0.34
777.89	0.22
778.065	0.3
778.24	0.32
778.415	0.53
778.59	0.02
778.765	0.24
778.94	0.41
779.115	0.25
779.289	0.23
779.464	0.3
779.639	0.32
779.814	0.22
779.989	0.23
780.164	0.41
780.339	0.43
780.513	0.27
780.688	0.08
780.863	0.49
781.038	0.66
781.212	0.22
781.387	0.22
781.562	0.86
781.737	0.1
781.911	0.66
782.086	0.23
782.261	0.28
782.435	0.75
782.61	0.13
782.784	0.48
782.959	0.71
783.134	0.26
783.308	0.18
783.483	0.28
783.657	0.99
783.832	0.43
784.006	0.09
784.181	0.19
784.355	0.61
784.53	0.1
784.704	0.31
784.878	0.72
785.053	0.53
785.227	0.66
785.402	0.63
785.576	0.15
785.75	0.48
785.925	0.31
786.099	0.29
786.273	0.43
786.448	0.64
786.622	0.62
786.796	0.24
786.97	0.31
787.145	1.13
787.319	-0.01
787.493	0.35
787.667	-0.02
787.841	0.46
788.015	0.93
788.19	0.09
788.364	0.44
788.538	0.61
788.712	0.35
788.886	0.1
789.06	0.65
789.234	0.75
789.408	0.17
789.582	0.29
789.756	0.08
789.93	0.46
790.104	0.27
790.278	0.18
790.452	0.2
790.626	0.69
790.8	0.48
790.973	0.61
791.147	0.71
791.321	0.66
791.495	0.72
791.669	0.51
791.843	0.56
792.016	0.63
792.19	0.96
792.364	0.22
792.538	1.03
792.711	0.47
792.885	0.25
793.059	0.16
793.233	-0.17
793.406	0.47
793.58	0.64
793.754	0.65
793.927	0.25
794.101	0.78
794.274	0.59
794.448	0.46
794.622	0.25
794.795	1.08
794.969	0.41
795.142	0.79
795.316	0.42
795.489	0.31
795.663	0.93
795.836	0.27
796.009	0.11
796.183	0.77
796.356	0.44
796.53	0.49
796.703	0.2
796.876	1.13
797.05	0.21
797.223	0.3
797.396	0.38
797.57	0.34
797.743	0.92
797.916	0.38
798.09	0.55
798.263	0.85
798.436	0.82
798.609	0.2
798.782	0.16
798.956	0.56
799.129	0.49
799.302	0.32
799.475	0.12
799.648	0.45
799.821	0.22
799.994	0.39
800.167	-0.07
800.34	0.51
800.514	0.48
800.687	0.37
800.86	0.13
801.033	0.75
801.206	0.59
801.379	0.21
801.551	0.6
801.724	0.86
801.897	0.78
802.07	0.48
802.243	-0.03
802.416	0.54
802.589	0.43
802.762	0.67
802.935	0.39
803.107	1.07
803.28	1.06
803.453	0.89
803.626	0.41
803.798	0.41
803.971	0.28
804.144	0.37
804.317	0.55
804.489	1.15
804.662	0.59
804.835	0.45
805.007	0.34
805.18	1.21
805.353	0.7
805.525	0.26
805.698	0.2
805.87	0.58
806.043	0.58
806.215	0.08
806.388	0.43
806.56	0.46
806.733	0.76
806.905	0.47
807.078	0.27
807.25	0.17
807.423	0.7
807.595	0.18
807.768	0.43
807.94	0.66
808.112	0.59
808.285	0.45
808.457	0.26
808.629	0.59
808.802	0.83
808.974	0.58
809.146	0.04
809.318	0.39
809.491	0.75
809.663	0.67
809.835	0.2
810.007	0.61
810.18	0.51
810.352	-0.24
810.524	0.11
810.696	0.89
810.868	1.19
811.04	0.19
811.212	0.64
811.384	0.99
811.556	0.89
811.728	0.15
811.901	1.54
812.073	0.57
812.245	0.64
812.417	0.33
812.589	-0.23
812.76	1.01
812.932	0.74
813.104	0.8
813.276	0.38
813.448	0.78
813.62	0.87
813.792	0.33
813.964	0.23
814.136	1.2
814.307	0.38
814.479	0.16
814.651	0.29
814.823	1.51
814.995	0.69
815.166	0.72
815.338	-0.03
815.51	-0.23
815.681	1.76
815.853	0.81
816.025	0.37
816.196	1.27
816.368	1.04
816.54	0.24
816.711	0.54
816.883	0.91
817.054	1.65
817.226	-0.36
817.398	0.47
817.569	0.18
817.741	0.46
817.912	0.12
818.084	0.33
818.255	1.17
818.426	0.16
818.598	0.65
818.769	0.07
818.941	1.38
819.112	1.21
819.283	0.8
819.455	-0.23
819.626	0.39
819.798	1.24
819.969	0.38
820.14	0.64
820.311	0.63
820.483	0.61
820.654	0.68
820.825	0.83
820.996	0.58
821.168	0.25
821.339	0.17
821.51	-0.02
821.681	-0.03
821.852	0.94
822.023	0.08
822.195	0.42
822.366	1.15
822.537	0.76
822.708	0.64
822.879	0.21
823.05	1.69
823.221	0.5
823.392	0.8
823.563	0.46
823.734	1.06
823.905	0.87
824.076	0.03
824.247	0.3
824.418	0.15
824.589	1.7
824.759	0.5
824.93	0.33
825.101	0.15
825.272	1.14
825.443	1.14
825.614	1.22
825.784	0.59
825.955	1.89
826.126	1.02
826.297	0.82
826.467	1.34
826.638	2.18
826.809	-0.15
826.98	0.45
827.15	1.16
827.321	0.56
827.492	1.52
827.662	0.07
827.833	2.28
828.003	1.32
828.174	0.05
828.345	-0.17
828.515	1.87
828.686	0.68
828.856	0.36
829.027	0.53
829.197	1.63
829.368	1.34
829.538	0.33
829.709	0.27
829.879	1.23
830.049	0.79
830.22	0.72
830.39	0.43
830.56	1.96
830.731	0.83
830.901	0.4
831.072	0.53
831.242	0.9
831.412	1.01
831.582	0.14
831.753	-0.64
831.923	1.37
832.093	1.41
832.263	0.57
832.434	0.1
832.604	0.64
832.774	1.38
832.944	0.3
833.114	0.37
833.284	1.07
833.454	0.38
833.624	0.26
833.795	0.28
833.965	0.84
834.135	1.92
834.305	-0.85
834.475	-0.41
834.645	1.37
834.815	0.55
834.985	0.17
835.155	0.35
835.325	1.2
835.494	1.25
835.664	0.85
835.834	-0.35
836.004	1.17
836.174	0.93
836.344	0.2
836.514	-0.12
836.684	0.46
836.853	0.84
837.023	1.17
837.193	-0.56
837.363	1.83
837.532	1.97
837.702	1.23
837.872	0.34
838.041	1.77
838.211	2.59
838.381	-0.13
838.55	0.96
838.72	3.43
838.89	1.83
839.059	0.58
839.229	0.13
839.398	2.94
839.568	1.5
839.738	0.3
839.907	1.55
840.077	1.07
840.246	0.21
840.416	0.26
840.585	-0.24
840.755	2.39
840.924	1.91
841.093	0.23
841.263	0.81
841.432	0.99
841.602	0.69
841.771	0.55
841.94	1.17
842.11	3
842.279	2.44
842.448	-0.15
842.617	-0.58
842.787	2.66
842.956	0.02
843.125	0.69
843.294	1.37
843.464	1.82
843.633	1.26
843.802	-0.58
843.971	0.16
844.14	1.39
844.309	2.2
844.479	-1.28
844.648	0.31
844.817	0.78
844.986	1.1
845.155	0.63
845.324	0.11
845.493	0.57
845.662	0.54
845.831	1.78
846	1.22
846.169	0.52
846.338	3.24
846.507	0.8
846.676	1.28
846.844	0.61
847.013	2.41
847.182	1.3
847.351	-0.21
847.52	0.95
847.689	1.78
847.858	0.78
848.026	0.08
848.195	1.34
848.364	0.95
848.533	0.45
848.701	-0.01
848.87	1.19
849.039	2.28
849.207	1.41
849.376	2.01
849.545	3.18
849.713	-0.45
849.882	1.12
850.051	-0.02
850.219	2.35
850.388	2.51
850.556	-0.32
850.725	0.59
850.893	1.29
851.062	1.1
851.23	1.94
851.399	0.3
851.567	2.08
851.736	1.04
851.904	0.08
852.073	1.36
852.241	3.77
852.41	1.78
852.578	0.16
852.746	0.49
852.915	1.86
853.083	0.4
853.251	0.01
853.42	0.25
853.588	1.19
853.756	3.21
853.924	0.92
854.093	1.37
854.261	0.27
854.429	-0.36
854.597	1.92
854.765	0.42
854.934	2.75
855.102	2.22
855.27	0.95
855.438	1.95
855.606	3.52
855.774	3.71
855.942	-0.65
856.11	-0.05
856.278	1.13
856.446	2.53
856.614	1.45
856.782	0.78
856.95	3.75
857.118	1.86
857.286	1.79
857.454	0.99
857.622	3.09
857.79	1.42
857.958	-0.83
858.126	-0.23
858.294	-1.23
858.462	1.5
858.629	0.43
858.797	0.44
858.965	1.36
859.133	1.65
859.301	1.36
859.468	1.77
859.636	1.64
859.804	4.02
859.971	2.5
860.139	0.03
860.307	3.26
860.474	1.57
860.642	-0.18
860.81	-0.12
860.977	0.89
861.145	3.08
861.313	-0.15
861.48	1.59
861.648	2.96
861.815	1.26
861.983	0.01
862.15	0.15
862.318	2.05
862.485	3.75
862.653	-1.11
862.82	-0.12
862.988	4.48
863.155	0.9
863.322	0.45
863.49	-0.75
863.657	0.98
863.824	3.65
863.992	2.17
864.159	0.09
864.326	2.33
864.494	0.6
864.661	3.67
864.828	-0.67
864.996	3.59
865.163	3.52
865.33	0.38
865.497	-2.72
865.664	0.24
865.832	-0.57
865.999	0.43
866.166	-0.54
866.333	2.8
866.5	0.7
866.667	0.67
866.834	1.97
867.001	2.96
867.168	-0.82
867.335	1.18
867.502	-1.37
867.669	1.28
867.836	3.57
868.003	1.31
868.17	2.31
868.337	1.38
868.504	5.36
868.671	-0.45
868.838	1.86
869.005	1.99
869.172	3.56
869.339	1.8
869.505	1.25
869.672	3.16
869.839	4.48
870.006	1.71
870.173	-0.65
870.339	2.72
870.506	4.22
870.673	0.66
870.84	0.97
871.006	1.67
871.173	1.76
871.34	1.88
871.506	-0.63
871.673	2.41
871.839	-2.73
872.006	1.3
872.173	0.75
872.339	1.4
872.506	3.69
872.672	1.22
872.839	-0.21
873.005	2.11
873.172	7.04
873.338	1.68
873.505	2.47
873.671	4.82
873.838	3.06
874.004	-1.16
874.171	0.22
874.337	3.85
874.503	3.41
874.67	-0.08
874.836	0.8
875.002	3.69
875.169	4.25
875.335	1.21
875.501	1.31
875.668	3.11
875.834	2.24
876	0.74
876.166	2.08
876.332	3.19
876.499	6.15
876.665	1.26
876.831	1.4
876.997	6.38
877.163	3.24
877.329	0.94
877.495	0.43
877.662	3.25
877.828	2.67
877.994	0.77
878.16	-3.17
878.326	0.16
878.492	2.73
878.658	3.08
878.824	2.28
878.99	3.02
879.156	0.98
879.322	5.07
879.487	1.21
879.653	1.32
879.819	1.15
879.985	-1.44
880.151	3.07
880.317	2.63
880.483	2.36
880.648	2.53
880.814	-1.07
880.98	2.11
881.146	-1.19
881.312	-1.83
881.477	0.82
881.643	1.46
881.809	3.78
881.974	2.57
882.14	-1.62
882.306	2.25
882.471	7.19
882.637	0.5
882.803	2.65
882.968	4.91
883.134	6.43
883.299	2.05
883.465	2.23
883.63	4.47
883.796	3.5
883.961	3.51
884.127	2.78
884.292	-2.96
884.458	0.92
884.623	0.91
