Data from Apollo_Calib_20240827__AbsoluteIrradiance__47__23-56-02-564.txt Node

Date: Tue Aug 27 23:56:02 BST 2024
User: biology
Spectrometer: FLMT08252
Trigger mode: 0
Integration Time (sec): 5.000000E-1
Scans to average: 5
Electric dark correction enabled: true
Nonlinearity correction enabled: false
Boxcar width: 0
XAxis mode: Wavelengths
Number of Pixels in Spectrum: 3648
>>>>>Begin Spectral Data<<<<<
179.588	-0
179.809	-0
180.03	-0
180.251	-0
180.473	-0
180.694	0
180.915	0
181.136	-0
181.357	0
181.578	-0
181.799	0
182.02	-0
182.241	-0
182.462	-0
182.683	0
182.904	-0
183.125	-0
183.346	0
183.567	0
183.788	0
184.009	0
184.23	0
184.451	0
184.672	0
184.892	0
185.113	0
185.334	0
185.555	0
185.776	0
185.996	0
186.217	0
186.438	0
186.659	0
186.879	0
187.1	0
187.321	0
187.541	0
187.762	0
187.983	0
188.203	0
188.424	0
188.644	0
188.865	0
189.086	0
189.306	0
189.527	0
189.747	0
189.968	0
190.188	0
190.409	0
190.629	0
190.849	0
191.07	0
191.29	0
191.511	0
191.731	0
191.951	0
192.172	0
192.392	0
192.612	0
192.833	0
193.053	0
193.273	0
193.493	0
193.714	0
193.934	0
194.154	0
194.374	0
194.594	0
194.815	0
195.035	0
195.255	0
195.475	0
195.695	0
195.915	0
196.135	0
196.355	0
196.575	0
196.795	0
197.015	0
197.235	0
197.455	0
197.675	0
197.895	0
198.115	0
198.335	0
198.555	0
198.775	0
198.995	0
199.214	0
199.434	0
199.654	0
199.874	0
200.094	3.61
200.313	2.66
200.533	1.9
200.753	1.77
200.973	3.17
201.192	2.47
201.412	1.79
201.632	1.88
201.851	3.41
202.071	1.91
202.291	2.3
202.51	1.83
202.73	2.58
202.95	1.67
203.169	1.48
203.389	1.57
203.608	2.16
203.828	1.28
204.047	1.81
204.267	2.5
204.486	2.22
204.706	2.15
204.925	1.79
205.145	1.23
205.364	1.9
205.583	2.38
205.803	1.31
206.022	1.48
206.242	1.53
206.461	1.73
206.68	1.03
206.9	1.64
207.119	2.44
207.338	2
207.557	1.27
207.777	1.34
207.996	1.31
208.215	1.69
208.434	1.09
208.654	0.93
208.873	1.28
209.092	1.64
209.311	1.02
209.53	1.11
209.749	0.87
209.968	0.99
210.187	1.16
210.407	0.77
210.626	1.19
210.845	1.41
211.064	1.27
211.283	1.26
211.502	1.67
211.721	0.91
211.94	0.93
212.159	1.16
212.377	1.4
212.596	1.36
212.815	1.03
213.034	1.48
213.253	1.45
213.472	1.45
213.691	1.02
213.91	0.85
214.128	0.75
214.347	1.08
214.566	0.81
214.785	0.7
215.003	1.22
215.222	1.08
215.441	0.89
215.66	0.65
215.878	1.02
216.097	1.14
216.316	0.75
216.534	0.78
216.753	0.87
216.972	1.01
217.19	0.85
217.409	0.72
217.627	0.73
217.846	0.93
218.064	0.77
218.283	0.65
218.501	1.23
218.72	1.32
218.938	0.56
219.157	0.77
219.375	0.97
219.594	1.01
219.812	0.51
220.031	0.49
220.249	1.13
220.467	1.14
220.686	0.51
220.904	0.46
221.122	0.69
221.341	1.04
221.559	0.78
221.777	0.52
221.995	0.63
222.214	0.8
222.432	0.67
222.65	0.68
222.868	0.79
223.086	0.82
223.305	0.83
223.523	0.73
223.741	0.98
223.959	0.58
224.177	0.38
224.395	0.55
224.613	0.89
224.831	0.9
225.049	0.46
225.267	0.69
225.485	0.79
225.703	0.66
225.921	0.58
226.139	0.61
226.357	0.78
226.575	0.73
226.793	0.47
227.011	1.21
227.229	0.85
227.447	0.82
227.665	0.5
227.883	0.35
228.1	0.72
228.318	0.84
228.536	0.38
228.754	0.52
228.972	0.65
229.189	0.71
229.407	0.61
229.625	0.56
229.843	0.68
230.06	0.74
230.278	0.51
230.496	0.6
230.713	0.65
230.931	0.77
231.149	0.49
231.366	0.39
231.584	0.59
231.801	0.84
232.019	0.48
232.236	0.53
232.454	0.49
232.671	0.63
232.889	0.52
233.106	0.37
233.324	0.52
233.541	0.59
233.759	0.5
233.976	0.4
234.194	0.5
234.411	0.54
234.628	0.46
234.846	0.46
235.063	0.53
235.28	0.47
235.498	0.45
235.715	0.43
235.932	0.71
236.149	0.52
236.367	0.39
236.584	0.5
236.801	0.5
237.018	0.6
237.236	0.51
237.453	0.4
237.67	0.58
237.887	0.36
238.104	0.4
238.321	0.3
238.538	0.45
238.755	0.66
238.973	0.24
239.19	0.51
239.407	0.57
239.624	0.53
239.841	0.32
240.058	0.33
240.275	0.59
240.492	0.37
240.709	0.5
240.925	0.44
241.142	0.44
241.359	0.36
241.576	0.35
241.793	0.43
242.01	0.41
242.227	0.68
242.444	0.54
242.66	0.55
242.877	0.46
243.094	0.4
243.311	0.52
243.527	0.46
243.744	0.56
243.961	0.53
244.178	0.35
244.394	0.39
244.611	0.6
244.828	0.56
245.044	0.42
245.261	0.41
245.477	0.42
245.694	0.5
245.911	0.42
246.127	0.47
246.344	0.64
246.56	0.55
246.777	0.4
246.993	0.44
247.21	0.46
247.426	0.46
247.643	0.33
247.859	0.4
248.076	0.42
248.292	0.62
248.508	0.35
248.725	0.39
248.941	0.45
249.157	0.63
249.374	0.35
249.59	0.42
249.806	0.43
250.023	0.58
250.239	0.27
250.455	0.46
250.671	0.4
250.888	0.45
251.104	0.47
251.32	0.35
251.536	0.36
251.752	0.36
251.969	0.4
252.185	0.42
252.401	0.58
252.617	0.49
252.833	0.35
253.049	0.46
253.265	0.41
253.481	0.43
253.697	0.33
253.913	0.28
254.129	0.44
254.345	0.4
254.561	0.36
254.777	0.32
254.993	0.47
255.209	0.4
255.425	0.37
255.641	0.31
255.857	0.55
256.073	0.34
256.288	0.3
256.504	0.34
256.72	0.37
256.936	0.53
257.152	0.4
257.367	0.34
257.583	0.4
257.799	0.55
258.015	0.27
258.23	0.35
258.446	0.58
258.662	0.36
258.877	0.3
259.093	0.29
259.309	0.34
259.524	0.36
259.74	0.37
259.955	0.23
260.171	0.43
260.387	0.31
260.602	0.46
260.818	0.42
261.033	0.25
261.249	0.32
261.464	0.27
261.68	0.28
261.895	0.43
262.11	0.46
262.326	0.3
262.541	0.32
262.757	0.39
262.972	0.35
263.187	0.39
263.403	0.37
263.618	0.39
263.833	0.34
264.049	0.42
264.264	0.4
264.479	0.41
264.694	0.47
264.91	0.28
265.125	0.38
265.34	0.43
265.555	0.51
265.77	0.38
265.986	0.34
266.201	0.46
266.416	0.52
266.631	0.29
266.846	0.36
267.061	0.34
267.276	0.39
267.491	0.18
267.706	0.34
267.921	0.46
268.136	0.31
268.351	0.42
268.566	0.3
268.781	0.41
268.996	0.34
269.211	0.32
269.426	0.28
269.641	0.3
269.856	0.35
270.071	0.27
270.285	0.25
270.5	0.35
270.715	0.39
270.93	0.31
271.145	0.37
271.359	0.43
271.574	0.28
271.789	0.34
272.004	0.38
272.218	0.26
272.433	0.38
272.648	0.28
272.862	0.37
273.077	0.31
273.292	0.33
273.506	0.26
273.721	0.36
273.936	0.36
274.15	0.39
274.365	0.29
274.579	0.41
274.794	0.34
275.008	0.39
275.223	0.23
275.437	0.33
275.652	0.45
275.866	0.35
276.081	0.34
276.295	0.37
276.509	0.34
276.724	0.33
276.938	0.39
277.153	0.31
277.367	0.36
277.581	0.29
277.796	0.35
278.01	0.31
278.224	0.41
278.438	0.5
278.653	0.26
278.867	0.27
279.081	0.19
279.295	0.27
279.51	0.34
279.724	0.21
279.938	0.38
280.152	0.37
280.366	0.23
280.58	0.34
280.794	0.39
281.008	0.34
281.222	0.34
281.437	0.47
281.651	0.31
281.865	0.41
282.079	0.29
282.293	0.14
282.507	0.27
282.721	0.3
282.935	0.26
283.148	0.23
283.362	0.21
283.576	0.21
283.79	0.29
284.004	0.31
284.218	0.34
284.432	0.27
284.646	0.29
284.859	0.28
285.073	0.26
285.287	0.3
285.501	0.25
285.714	0.26
285.928	0.33
286.142	0.28
286.356	0.26
286.569	0.26
286.783	0.41
286.997	0.31
287.21	0.28
287.424	0.27
287.637	0.29
287.851	0.29
288.065	0.39
288.278	0.29
288.492	0.3
288.705	0.31
288.919	0.33
289.132	0.19
289.346	0.32
289.559	0.17
289.773	0.23
289.986	0.24
290.2	0.27
290.413	0.37
290.626	0.24
290.84	0.22
291.053	0.26
291.267	0.34
291.48	0.26
291.693	0.28
291.906	0.23
292.12	0.29
292.333	0.2
292.546	0.28
292.76	0.42
292.973	0.35
293.186	0.29
293.399	0.22
293.612	0.31
293.826	0.28
294.039	0.27
294.252	0.26
294.465	0.28
294.678	0.29
294.891	0.25
295.104	0.23
295.317	0.28
295.53	0.29
295.743	0.23
295.956	0.25
296.169	0.34
296.382	0.31
296.595	0.27
296.808	0.19
297.021	0.31
297.234	0.28
297.447	0.26
297.66	0.27
297.873	0.37
298.086	0.34
298.299	0.26
298.511	0.22
298.724	0.29
298.937	0.24
299.15	0.24
299.363	0.23
299.575	0.29
299.788	0.29
300.001	0.23
300.213	0.19
300.426	0.3
300.639	0.24
300.852	0.17
301.064	0.23
301.277	0.36
301.489	0.29
301.702	0.3
301.915	0.27
302.127	0.26
302.34	0.3
302.552	0.31
302.765	0.2
302.977	0.31
303.19	0.21
303.402	0.24
303.615	0.25
303.827	0.23
304.04	0.26
304.252	0.32
304.464	0.23
304.677	0.34
304.889	0.26
305.102	0.25
305.314	0.2
305.526	0.31
305.739	0.23
305.951	0.23
306.163	0.25
306.375	0.39
306.588	0.24
306.8	0.27
307.012	0.17
307.224	0.31
307.436	0.29
307.649	0.19
307.861	0.26
308.073	0.28
308.285	0.27
308.497	0.2
308.709	0.23
308.921	0.3
309.133	0.27
309.346	0.25
309.558	0.3
309.77	0.29
309.982	0.35
310.194	0.29
310.406	0.17
310.617	0.28
310.829	0.29
311.041	0.31
311.253	0.21
311.465	0.3
311.677	0.25
311.889	0.23
312.101	0.21
312.313	0.31
312.524	0.32
312.736	0.2
312.948	0.24
313.16	0.37
313.372	0.24
313.583	0.26
313.795	0.27
314.007	0.21
314.218	0.3
314.43	0.25
314.642	0.23
314.853	0.14
315.065	0.25
315.277	0.24
315.488	0.25
315.7	0.3
315.912	0.27
316.123	0.22
316.335	0.21
316.546	0.37
316.758	0.22
316.969	0.21
317.181	0.22
317.392	0.24
317.604	0.29
317.815	0.19
318.026	0.18
318.238	0.23
318.449	0.3
318.661	0.17
318.872	0.21
319.083	0.19
319.295	0.31
319.506	0.25
319.717	0.28
319.929	0.31
320.14	0.27
320.351	0.21
320.562	0.18
320.774	0.26
320.985	0.28
321.196	0.22
321.407	0.2
321.618	0.27
321.829	0.27
322.041	0.33
322.252	0.27
322.463	0.27
322.674	0.28
322.885	0.17
323.096	0.23
323.307	0.21
323.518	0.26
323.729	0.22
323.94	0.24
324.151	0.19
324.362	0.25
324.573	0.28
324.784	0.2
324.995	0.28
325.206	0.26
325.417	0.26
325.628	0.23
325.838	0.29
326.049	0.29
326.26	0.26
326.471	0.22
326.682	0.27
326.892	0.27
327.103	0.19
327.314	0.21
327.525	0.3
327.735	0.25
327.946	0.28
328.157	0.23
328.368	0.31
328.578	0.21
328.789	0.3
328.999	0.25
329.21	0.25
329.421	0.27
329.631	0.22
329.842	0.19
330.052	0.3
330.263	0.25
330.473	0.29
330.684	0.24
330.894	0.26
331.105	0.26
331.315	0.29
331.526	0.16
331.736	0.32
331.947	0.3
332.157	0.23
332.367	0.17
332.578	0.28
332.788	0.29
332.999	0.26
333.209	0.24
333.419	0.2
333.629	0.31
333.84	0.28
334.05	0.24
334.26	0.32
334.47	0.33
334.681	0.27
334.891	0.22
335.101	0.27
335.311	0.29
335.521	0.23
335.732	0.2
335.942	0.29
336.152	0.25
336.362	0.27
336.572	0.29
336.782	0.28
336.992	0.17
337.202	0.21
337.412	0.23
337.622	0.28
337.832	0.26
338.042	0.24
338.252	0.19
338.462	0.23
338.672	0.22
338.882	0.28
339.092	0.25
339.302	0.3
339.511	0.29
339.721	0.24
339.931	0.2
340.141	0.29
340.351	0.34
340.561	0.24
340.77	0.27
340.98	0.26
341.19	0.28
341.4	0.23
341.609	0.2
341.819	0.22
342.029	0.22
342.238	0.28
342.448	0.21
342.658	0.25
342.867	0.22
343.077	0.23
343.286	0.24
343.496	0.26
343.706	0.29
343.915	0.2
344.125	0.16
344.334	0.28
344.544	0.19
344.753	0.23
344.963	0.22
345.172	0.22
345.381	0.16
345.591	0.18
345.8	0.23
346.01	0.3
346.219	0.26
346.428	0.15
346.638	0.24
346.847	0.2
347.056	0.31
347.266	0.22
347.475	0.3
347.684	0.25
347.893	0.26
348.103	0.24
348.312	0.22
348.521	0.2
348.73	0.27
348.94	0.25
349.149	0.23
349.358	0.25
349.567	0.22
349.776	0.16
349.985	0.23
350.194	0.31
350.403	0.28
350.612	0.18
350.821	0.23
351.03	0.25
351.239	0.22
351.448	0.26
351.657	0.18
351.866	0.34
352.075	0.21
352.284	0.29
352.493	0.16
352.702	0.3
352.911	0.23
353.12	0.24
353.329	0.27
353.538	0.26
353.746	0.25
353.955	0.23
354.164	0.22
354.373	0.24
354.582	0.25
354.79	0.28
354.999	0.29
355.208	0.2
355.416	0.29
355.625	0.22
355.834	0.22
356.042	0.22
356.251	0.21
356.46	0.24
356.668	0.24
356.877	0.31
357.085	0.26
357.294	0.18
357.503	0.24
357.711	0.23
357.92	0.37
358.128	0.24
358.337	0.22
358.545	0.29
358.754	0.24
358.962	0.28
359.17	0.19
359.379	0.25
359.587	0.3
359.796	0.23
360.004	0.28
360.212	0.25
360.421	0.29
360.629	0.23
360.837	0.26
361.046	0.28
361.254	0.32
361.462	0.23
361.67	0.2
361.879	0.28
362.087	0.29
362.295	0.26
362.503	0.24
362.711	0.19
362.92	0.29
363.128	0.19
363.336	0.2
363.544	0.13
363.752	0.26
363.96	0.22
364.168	0.2
364.376	0.26
364.584	0.25
364.792	0.29
365	0.24
365.208	0.27
365.416	0.27
365.624	0.28
365.832	0.22
366.04	0.28
366.248	0.22
366.456	0.24
366.664	0.27
366.872	0.24
367.079	0.23
367.287	0.23
367.495	0.24
367.703	0.25
367.911	0.25
368.118	0.23
368.326	0.26
368.534	0.18
368.742	0.28
368.949	0.16
369.157	0.2
369.365	0.27
369.572	0.18
369.78	0.22
369.988	0.31
370.195	0.25
370.403	0.29
370.61	0.2
370.818	0.24
371.026	0.28
371.233	0.2
371.441	0.28
371.648	0.26
371.856	0.26
372.063	0.28
372.271	0.24
372.478	0.21
372.685	0.26
372.893	0.31
373.1	0.27
373.308	0.23
373.515	0.33
373.722	0.26
373.93	0.24
374.137	0.28
374.344	0.35
374.552	0.26
374.759	0.32
374.966	0.24
375.173	0.2
375.381	0.3
375.588	0.26
375.795	0.17
376.002	0.25
376.209	0.24
376.417	0.2
376.624	0.26
376.831	0.26
377.038	0.23
377.245	0.16
377.452	0.25
377.659	0.28
377.866	0.24
378.073	0.23
378.28	0.25
378.487	0.32
378.694	0.29
378.901	0.25
379.108	0.22
379.315	0.27
379.522	0.38
379.729	0.26
379.936	0.25
380.143	0.28
380.35	0.3
380.557	0.25
380.763	0.25
380.97	0.22
381.177	0.24
381.384	0.27
381.591	0.26
381.797	0.28
382.004	0.32
382.211	0.28
382.418	0.3
382.624	0.28
382.831	0.33
383.038	0.29
383.244	0.28
383.451	0.3
383.658	0.32
383.864	0.3
384.071	0.22
384.277	0.35
384.484	0.24
384.69	0.33
384.897	0.25
385.103	0.24
385.31	0.29
385.516	0.3
385.723	0.25
385.929	0.25
386.136	0.27
386.342	0.28
386.549	0.24
386.755	0.34
386.961	0.32
387.168	0.28
387.374	0.32
387.58	0.33
387.787	0.31
387.993	0.27
388.199	0.25
388.406	0.28
388.612	0.27
388.818	0.21
389.024	0.27
389.231	0.28
389.437	0.36
389.643	0.31
389.849	0.3
390.055	0.3
390.261	0.32
390.467	0.32
390.674	0.23
390.88	0.27
391.086	0.29
391.292	0.26
391.498	0.38
391.704	0.33
391.91	0.29
392.116	0.3
392.322	0.21
392.528	0.3
392.734	0.31
392.94	0.31
393.146	0.3
393.352	0.31
393.557	0.34
393.763	0.25
393.969	0.35
394.175	0.29
394.381	0.3
394.587	0.29
394.792	0.32
394.998	0.33
395.204	0.36
395.41	0.26
395.615	0.27
395.821	0.3
396.027	0.35
396.233	0.27
396.438	0.34
396.644	0.37
396.85	0.34
397.055	0.3
397.261	0.32
397.466	0.32
397.672	0.38
397.878	0.35
398.083	0.34
398.289	0.27
398.494	0.39
398.7	0.37
398.905	0.28
399.111	0.39
399.316	0.24
399.522	0.38
399.727	0.35
399.932	0.34
400.138	0.3
400.343	0.38
400.549	0.32
400.754	0.3
400.959	0.39
401.165	0.33
401.37	0.39
401.575	0.48
401.78	0.36
401.986	0.33
402.191	0.34
402.396	0.36
402.601	0.41
402.807	0.39
403.012	0.36
403.217	0.41
403.422	0.41
403.627	0.4
403.832	0.38
404.037	0.44
404.243	0.43
404.448	0.38
404.653	0.44
404.858	0.43
405.063	0.44
405.268	0.42
405.473	0.34
405.678	0.41
405.883	0.56
406.088	0.48
406.293	0.39
406.498	0.44
406.703	0.49
406.907	0.49
407.112	0.45
407.317	0.52
407.522	0.53
407.727	0.47
407.932	0.51
408.136	0.64
408.341	0.51
408.546	0.58
408.751	0.53
408.956	0.58
409.16	0.64
409.365	0.58
409.57	0.63
409.774	0.65
409.979	0.69
410.184	0.69
410.388	0.63
410.593	0.72
410.798	0.7
411.002	0.71
411.207	0.83
411.411	0.82
411.616	0.76
411.82	0.78
412.025	0.83
412.229	0.88
412.434	0.92
412.638	0.89
412.843	0.84
413.047	0.94
413.252	0.9
413.456	1.06
413.66	1.05
413.865	1.04
414.069	1.15
414.273	1.15
414.478	1.11
414.682	1.19
414.886	1.24
415.091	1.17
415.295	1.22
415.499	1.34
415.703	1.4
415.908	1.45
416.112	1.43
416.316	1.57
416.52	1.57
416.724	1.56
416.929	1.59
417.133	1.87
417.337	1.72
417.541	1.83
417.745	1.84
417.949	2.02
418.153	2.11
418.357	2.01
418.561	2.29
418.765	2.25
418.969	2.42
419.173	2.43
419.377	2.44
419.581	2.67
419.785	2.68
419.989	2.68
420.193	2.89
420.397	2.97
420.601	3.07
420.804	3.16
421.008	3.1
421.212	3.23
421.416	3.24
421.62	3.33
421.823	3.37
422.027	3.59
422.231	3.48
422.435	3.58
422.638	3.54
422.842	3.75
423.046	3.83
423.249	4.01
423.453	4.01
423.657	4.14
423.86	4.24
424.064	4.38
424.268	4.55
424.471	4.52
424.675	4.78
424.878	4.8
425.082	4.99
425.285	5.23
425.489	5.14
425.692	5.27
425.896	5.28
426.099	5.52
426.303	5.63
426.506	5.84
426.71	6.03
426.913	6.19
427.116	6.39
427.32	6.4
427.523	6.49
427.726	6.82
427.93	6.89
428.133	7.11
428.336	7.34
428.54	7.42
428.743	7.71
428.946	8
429.149	8.04
429.353	7.92
429.556	8.07
429.759	8.1
429.962	8.32
430.165	8.46
430.368	8.08
430.571	8.15
430.775	8.27
430.978	8.14
431.181	8.17
431.384	8.23
431.587	8.41
431.79	8.8
431.993	8.63
432.196	8.99
432.399	9.35
432.602	9.44
432.805	9.6
433.008	10.04
433.211	9.95
433.414	10.32
433.616	10.34
433.819	10.28
434.022	10.51
434.225	10.61
434.428	10.67
434.631	11.14
434.833	10.89
435.036	11.23
435.239	11.44
435.442	11.51
435.645	11.59
435.847	11.63
436.05	12.02
436.253	12.17
436.455	12.13
436.658	12.02
436.861	12.32
437.063	12.55
437.266	12.48
437.468	12.85
437.671	13.22
437.874	13.29
438.076	13.05
438.279	13.53
438.481	13.53
438.684	14.32
438.886	13.88
439.089	14.22
439.291	14.16
439.494	14.61
439.696	14.83
439.899	15.35
440.101	15.67
440.303	15.92
440.506	16.59
440.708	16.48
440.91	16.56
441.113	16.89
441.315	17.03
441.517	16.83
441.72	17.41
441.922	16.97
442.124	16.9
442.326	17.3
442.529	17.47
442.731	17.59
442.933	17.82
443.135	17.66
443.337	17.44
443.539	18.05
443.742	17.85
443.944	18.55
444.146	18.15
444.348	18.37
444.55	18.09
444.752	18.24
444.954	18.27
445.156	18.11
445.358	18.6
445.56	18.75
445.762	18.61
445.964	18.92
446.166	18.7
446.368	18.63
446.57	18.59
446.772	18.26
446.974	17.92
447.175	18.35
447.377	17.92
447.579	18.47
447.781	18.03
447.983	17.8
448.184	17.57
448.386	17.86
448.588	17.46
448.79	17.14
448.991	17.5
449.193	17.57
449.395	16.9
449.597	16.54
449.798	16.47
450	16.02
450.202	15.92
450.403	15.94
450.605	15.77
450.806	15.5
451.008	15.3
451.21	15.01
451.411	14.64
451.613	13.86
451.814	14.16
452.016	14.01
452.217	13.34
452.419	13.39
452.62	12.96
452.821	12.63
453.023	12.56
453.224	12.25
453.426	11.8
453.627	11.13
453.828	11.2
454.03	11.22
454.231	11.22
454.432	11.09
454.634	10.76
454.835	10.45
455.036	10.4
455.238	10.02
455.439	9.75
455.64	9.52
455.841	9.44
456.042	9.51
456.244	9.2
456.445	8.9
456.646	8.63
456.847	8.49
457.048	8.37
457.249	8.45
457.45	8.1
457.651	7.68
457.852	7.5
458.054	7.3
458.255	7.3
458.456	7.35
458.657	7.13
458.858	6.61
459.058	6.63
459.259	6.68
459.46	6.46
459.661	6.33
459.862	6.4
460.063	6.31
460.264	6.16
460.465	6
460.666	6.06
460.866	5.68
461.067	5.43
461.268	5.54
461.469	5.48
461.67	5.39
461.87	5.23
462.071	5.2
462.272	5.18
462.473	5.07
462.673	5.25
462.874	5.11
463.075	5.16
463.275	5.11
463.476	5.08
463.676	5.17
463.877	4.94
464.078	4.98
464.278	4.93
464.479	4.85
464.679	4.7
464.88	4.72
465.08	4.62
465.281	4.49
465.481	4.28
465.682	4.14
465.882	4.13
466.083	4.04
466.283	4.02
466.483	3.91
466.684	3.75
466.884	3.55
467.085	3.64
467.285	3.74
467.485	3.6
467.686	3.51
467.886	3.4
468.086	3.37
468.286	3.39
468.487	3.45
468.687	3.23
468.887	3.17
469.087	3.32
469.287	3.21
469.488	3.11
469.688	3.18
469.888	3.14
470.088	3.09
470.288	3.06
470.488	2.92
470.688	2.85
470.888	2.78
471.088	2.65
471.288	2.73
471.488	2.78
471.688	2.73
471.888	2.67
472.088	2.8
472.288	2.67
472.488	2.61
472.688	2.53
472.888	2.57
473.088	2.55
473.288	2.53
473.488	2.41
473.688	2.52
473.887	2.46
474.087	2.44
474.287	2.39
474.487	2.38
474.687	2.41
474.886	2.3
475.086	2.34
475.286	2.27
475.486	2.28
475.685	2.27
475.885	2.19
476.085	2.27
476.284	2.25
476.484	2.23
476.684	2.2
476.883	2.25
477.083	2.12
477.282	2.12
477.482	2.12
477.681	2.13
477.881	2.07
478.08	2.06
478.28	2
478.479	2.1
478.679	2.1
478.878	2.01
479.078	2.01
479.277	2.09
479.477	2.01
479.676	1.99
479.875	1.97
480.075	1.96
480.274	2.01
480.473	2.05
480.673	2.01
480.872	2.09
481.071	2.05
481.271	2.06
481.47	2
481.669	2
481.868	1.96
482.067	1.98
482.267	1.91
482.466	1.88
482.665	1.9
482.864	1.94
483.063	1.95
483.262	2.03
483.461	1.97
483.661	2.08
483.86	1.98
484.059	2.06
484.258	2.01
484.457	2
484.656	1.99
484.855	2.03
485.054	1.9
485.253	1.97
485.452	1.92
485.651	2.1
485.849	2.01
486.048	1.97
486.247	2
486.446	2.09
486.645	2.05
486.844	2.08
487.043	2.04
487.241	2.06
487.44	2.05
487.639	2.16
487.838	2.08
488.037	2.07
488.235	2.16
488.434	2.17
488.633	2.06
488.831	2.23
489.03	2.24
489.229	2.2
489.427	2.21
489.626	2.24
489.825	2.26
490.023	2.31
490.222	2.25
490.42	2.33
490.619	2.36
490.817	2.33
491.016	2.34
491.214	2.42
491.413	2.39
491.611	2.38
491.81	2.38
492.008	2.47
492.207	2.52
492.405	2.49
492.604	2.45
492.802	2.52
493	2.62
493.199	2.63
493.397	2.64
493.595	2.64
493.794	2.63
493.992	2.76
494.19	2.75
494.388	2.79
494.587	2.72
494.785	2.75
494.983	2.71
495.181	2.81
495.379	2.92
495.578	2.94
495.776	2.92
495.974	2.94
496.172	2.95
496.37	3.07
496.568	3.1
496.766	3.09
496.964	3.14
497.162	3.15
497.36	3.18
497.558	3.24
497.756	3.3
497.954	3.3
498.152	3.3
498.35	3.43
498.548	3.34
498.746	3.38
498.944	3.45
499.142	3.46
499.34	3.52
499.538	3.59
499.736	3.52
499.933	3.65
500.131	3.61
500.329	3.71
500.527	3.77
500.725	3.84
500.922	3.85
501.12	3.88
501.318	3.93
501.516	3.92
501.713	4.03
501.911	3.98
502.109	3.97
502.306	4.12
502.504	4
502.701	4.1
502.899	4.15
503.097	4.35
503.294	4.18
503.492	4.36
503.689	4.4
503.887	4.41
504.084	4.46
504.282	4.39
504.479	4.41
504.677	4.58
504.874	4.59
505.072	4.45
505.269	4.66
505.466	4.67
505.664	4.77
505.861	4.64
506.059	4.73
506.256	4.73
506.453	4.8
506.651	4.94
506.848	4.97
507.045	4.96
507.242	4.98
507.44	5.09
507.637	5.06
507.834	5.02
508.031	5.17
508.229	5.18
508.426	5.09
508.623	5.28
508.82	5.27
509.017	5.28
509.214	5.23
509.411	5.4
509.608	5.35
509.805	5.45
510.003	5.47
510.2	5.52
510.397	5.73
510.594	5.58
510.791	5.65
510.988	5.65
511.184	5.63
511.381	5.52
511.578	5.71
511.775	5.84
511.972	5.73
512.169	5.84
512.366	5.82
512.563	5.96
512.76	5.99
512.956	5.98
513.153	5.97
513.35	5.91
513.547	5.94
513.744	6.03
513.94	6.02
514.137	6.11
514.334	6.09
514.53	6.16
514.727	6.4
514.924	6.27
515.12	6.22
515.317	6.28
515.514	6.16
515.71	6.19
515.907	6.45
516.103	6.46
516.3	6.36
516.497	6.47
516.693	6.46
516.89	6.5
517.086	6.5
517.283	6.52
517.479	6.45
517.676	6.63
517.872	6.67
518.068	6.63
518.265	6.68
518.461	6.56
518.658	6.67
518.854	6.66
519.05	6.8
519.247	6.84
519.443	6.78
519.639	6.88
519.836	6.73
520.032	6.73
520.228	6.89
520.424	6.84
520.621	6.94
520.817	6.94
521.013	6.85
521.209	7.08
521.405	7.1
521.601	6.99
521.798	7.02
521.994	7.03
522.19	6.96
522.386	7.03
522.582	7.07
522.778	7.24
522.974	7.11
523.17	7.14
523.366	7.13
523.562	7.22
523.758	7.22
523.954	6.98
524.15	7.24
524.346	7.28
524.542	7.29
524.738	7.22
524.934	7.37
525.129	7.36
525.325	7.24
525.521	7.25
525.717	7.45
525.913	7.25
526.109	7.31
526.304	7.43
526.5	7.44
526.696	7.45
526.892	7.31
527.087	7.62
527.283	7.48
527.479	7.48
527.674	7.34
527.87	7.5
528.066	7.45
528.261	7.54
528.457	7.43
528.653	7.62
528.848	7.59
529.044	7.66
529.239	7.5
529.435	7.52
529.63	7.57
529.826	7.55
530.021	7.56
530.217	7.61
530.412	7.62
530.608	7.59
530.803	7.68
530.999	7.52
531.194	7.61
531.389	7.69
531.585	7.71
531.78	7.8
531.975	7.71
532.171	7.72
532.366	7.78
532.561	7.76
532.757	7.66
532.952	7.84
533.147	7.64
533.342	7.78
533.538	7.73
533.733	7.92
533.928	7.53
534.123	7.77
534.318	7.78
534.513	7.78
534.709	7.9
534.904	7.85
535.099	7.88
535.294	7.89
535.489	7.92
535.684	7.85
535.879	7.78
536.074	7.89
536.269	7.89
536.464	7.96
536.659	7.83
536.854	7.84
537.049	7.95
537.244	7.9
537.439	7.92
537.634	7.86
537.828	7.96
538.023	7.92
538.218	7.94
538.413	7.86
538.608	7.9
538.803	7.97
538.997	7.87
539.192	7.93
539.387	7.86
539.582	7.93
539.776	7.86
539.971	7.99
540.166	8.06
540.36	7.93
540.555	8.06
540.75	8.01
540.944	7.98
541.139	7.99
541.334	7.98
541.528	8.02
541.723	8.06
541.917	8.05
542.112	7.9
542.306	7.88
542.501	7.91
542.695	7.94
542.89	7.94
543.084	7.99
543.279	7.99
543.473	8.04
543.668	8.09
543.862	7.94
544.056	7.92
544.251	8.13
544.445	8.08
544.64	8.1
544.834	7.85
545.028	7.69
545.222	8
545.417	8.24
545.611	8.09
545.805	8.07
546	7.86
546.194	8.11
546.388	8.11
546.582	8.01
546.776	8
546.97	8.05
547.165	8.04
547.359	8.02
547.553	7.99
547.747	7.97
547.941	8.34
548.135	8.04
548.329	8.08
548.523	8.08
548.717	7.98
548.911	8.04
549.105	7.94
549.299	8.07
549.493	8.08
549.687	7.98
549.881	8.17
550.075	8.11
550.269	7.96
550.463	8.09
550.657	8.11
550.85	8.05
551.044	8.07
551.238	8.09
551.432	8.13
551.626	8.15
551.82	8.04
552.013	8.02
552.207	8.15
552.401	8.13
552.594	8.01
552.788	7.97
552.982	8.04
553.176	7.97
553.369	8.27
553.563	8.16
553.756	8.04
553.95	8.13
554.144	8.19
554.337	8.1
554.531	7.95
554.724	8.12
554.918	8.15
555.111	8.06
555.305	8.1
555.498	8.01
555.692	8.16
555.885	8.18
556.079	8.05
556.272	8.16
556.466	7.98
556.659	8.04
556.852	8.16
557.046	8.08
557.239	7.93
557.432	8.08
557.626	8.14
557.819	8.12
558.012	8.1
558.206	8.19
558.399	8.12
558.592	8.03
558.785	8.03
558.979	8.06
559.172	8.07
559.365	8.04
559.558	8.05
559.751	7.93
559.944	8.18
560.138	8.04
560.331	8.09
560.524	8.2
560.717	8.11
560.91	8.1
561.103	8.11
561.296	7.94
561.489	8.16
561.682	8.21
561.875	8.15
562.068	8.24
562.261	8.08
562.454	8.22
562.647	8.03
562.84	8.1
563.032	8.17
563.225	8
563.418	8.1
563.611	8.17
563.804	8.13
563.997	8.04
564.19	7.88
564.382	8.25
564.575	8.09
564.768	8.06
564.961	8.18
565.153	8
565.346	7.97
565.539	8.18
565.731	8.02
565.924	8.13
566.117	8.21
566.309	8.16
566.502	8.04
566.695	8.01
566.887	8.1
567.08	8.07
567.272	8.07
567.465	8.06
567.657	8.12
567.85	8.02
568.042	8.12
568.235	8.1
568.427	7.98
568.62	8.07
568.812	8.01
569.005	8.15
569.197	8.02
569.389	8.09
569.582	8.06
569.774	8.01
569.966	7.91
570.159	7.98
570.351	7.96
570.543	8.01
570.736	8.02
570.928	7.84
571.12	8.1
571.312	7.99
571.505	7.77
571.697	8.07
571.889	7.96
572.081	8.04
572.273	7.88
572.465	8.07
572.658	7.97
572.85	7.97
573.042	8.02
573.234	7.92
573.426	7.87
573.618	7.95
573.81	8
574.002	8.01
574.194	7.94
574.386	7.95
574.578	7.8
574.77	7.9
574.962	7.97
575.154	7.82
575.346	7.91
575.538	7.88
575.729	7.83
575.921	7.89
576.113	7.99
576.305	7.93
576.497	7.99
576.689	7.79
576.88	7.77
577.072	7.93
577.264	7.85
577.456	7.87
577.647	7.83
577.839	7.98
578.031	7.87
578.223	7.83
578.414	7.74
578.606	7.82
578.798	7.83
578.989	7.86
579.181	7.91
579.372	7.82
579.564	7.79
579.755	7.77
579.947	7.72
580.139	7.87
580.33	7.63
580.522	7.82
580.713	7.72
580.905	7.77
581.096	7.8
581.287	7.73
581.479	7.7
581.67	7.78
581.862	7.68
582.053	7.7
582.244	7.58
582.436	7.81
582.627	7.65
582.818	7.63
583.01	7.59
583.201	7.69
583.392	7.66
583.583	7.62
583.775	7.52
583.966	7.53
584.157	7.68
584.348	7.67
584.54	7.57
584.731	7.68
584.922	7.58
585.113	7.44
585.304	7.62
585.495	7.57
585.686	7.61
585.877	7.56
586.068	7.68
586.259	7.58
586.45	7.55
586.641	7.55
586.832	7.63
587.023	7.48
587.214	7.47
587.405	7.53
587.596	7.43
587.787	7.39
587.978	7.49
588.169	7.41
588.36	7.36
588.551	7.46
588.742	7.42
588.932	7.47
589.123	7.27
589.314	7.5
589.505	7.39
589.696	7.37
589.886	7.41
590.077	7.29
590.268	7.25
590.458	7.28
590.649	7.11
590.84	7.31
591.03	7.26
591.221	7.24
591.412	7.13
591.602	7.38
591.793	7.27
591.984	7.24
592.174	7.21
592.365	7.3
592.555	7.13
592.746	7.2
592.936	7.18
593.127	7.28
593.317	7.23
593.508	7.17
593.698	7.05
593.889	7.16
594.079	7.14
594.269	7
594.46	7.02
594.65	7.14
594.84	7.05
595.031	6.99
595.221	6.95
595.411	6.99
595.602	7.04
595.792	6.92
595.982	6.93
596.172	7.05
596.363	6.91
596.553	6.98
596.743	6.94
596.933	6.94
597.123	6.82
597.314	6.81
597.504	6.81
597.694	6.96
597.884	6.76
598.074	6.88
598.264	6.76
598.454	6.79
598.644	6.75
598.834	6.79
599.024	6.7
599.214	6.72
599.404	6.77
599.594	6.77
599.784	6.6
599.974	6.7
600.164	6.67
600.354	6.64
600.544	6.54
600.734	6.56
600.924	6.6
601.114	6.56
601.303	6.51
601.493	6.55
601.683	6.64
601.873	6.5
602.063	6.44
602.252	6.51
602.442	6.41
602.632	6.46
602.821	6.38
603.011	6.56
603.201	6.44
603.39	6.37
603.58	6.28
603.77	6.41
603.959	6.47
604.149	6.34
604.339	6.36
604.528	6.46
604.718	6.41
604.907	6.26
605.097	6.22
605.286	6.33
605.476	6.24
605.665	6.28
605.855	6.23
606.044	6.23
606.234	6.24
606.423	6.2
606.612	6.22
606.802	6.14
606.991	6.17
607.181	6.18
607.37	6.13
607.559	5.88
607.749	6.06
607.938	6.01
608.127	6.04
608.316	6.07
608.506	6
608.695	6.06
608.884	5.95
609.073	5.98
609.263	6.01
609.452	5.94
609.641	5.89
609.83	5.84
610.019	5.94
610.208	5.85
610.397	5.86
610.586	5.89
610.775	5.82
610.965	5.81
611.154	5.75
611.343	5.77
611.532	5.73
611.721	5.76
611.91	5.71
612.099	5.68
612.287	5.62
612.476	5.64
612.665	5.79
612.854	5.55
613.043	5.62
613.232	5.65
613.421	5.55
613.61	5.52
613.798	5.55
613.987	5.58
614.176	5.52
614.365	5.51
614.554	5.5
614.742	5.57
614.931	5.39
615.12	5.56
615.309	5.45
615.497	5.37
615.686	5.32
615.875	5.37
616.063	5.31
616.252	5.35
616.44	5.4
616.629	5.32
616.818	5.37
617.006	5.28
617.195	5.23
617.383	5.23
617.572	5.14
617.76	5.18
617.949	5.2
618.137	5.32
618.326	5.25
618.514	5.04
618.703	5.07
618.891	5.13
619.079	5.03
619.268	5.15
619.456	5.02
619.644	5.14
619.833	5
620.021	5.02
620.209	4.94
620.398	5.03
620.586	4.89
620.774	4.97
620.962	4.9
621.151	4.97
621.339	4.95
621.527	4.81
621.715	4.81
621.903	4.84
622.092	4.79
622.28	4.94
622.468	4.68
622.656	4.78
622.844	4.75
623.032	4.81
623.22	4.66
623.408	4.82
623.596	4.68
623.784	4.81
623.972	4.6
624.16	4.64
624.348	4.69
624.536	4.73
624.724	4.6
624.912	4.63
625.1	4.63
625.288	4.61
625.476	4.48
625.664	4.56
625.851	4.48
626.039	4.56
626.227	4.49
626.415	4.49
626.603	4.45
626.79	4.53
626.978	4.44
627.166	4.46
627.354	4.35
627.541	4.42
627.729	4.32
627.917	4.46
628.104	4.43
628.292	4.36
628.48	4.34
628.667	4.22
628.855	4.36
629.042	4.34
629.23	4.34
629.418	4.24
629.605	4.29
629.793	4.17
629.98	4.2
630.168	4.14
630.355	4.21
630.543	4.15
630.73	4.11
630.917	4.1
631.105	4.19
631.292	4.13
631.48	4.08
631.667	4.22
631.854	4.04
632.042	4.05
632.229	3.93
632.416	4.06
632.604	4.04
632.791	3.92
632.978	4
633.165	3.94
633.353	4.03
633.54	4.04
633.727	3.84
633.914	3.88
634.101	3.78
634.289	3.98
634.476	3.77
634.663	3.8
634.85	3.84
635.037	3.8
635.224	3.72
635.411	3.74
635.598	3.72
635.785	3.73
635.972	3.74
636.159	3.7
636.346	3.7
636.533	3.64
636.72	3.62
636.907	3.69
637.094	3.57
637.281	3.54
637.468	3.61
637.655	3.64
637.842	3.56
638.029	3.53
638.215	3.51
638.402	3.5
638.589	3.5
638.776	3.44
638.963	3.44
639.149	3.47
639.336	3.51
639.523	3.47
639.709	3.44
639.896	3.4
640.083	3.46
640.27	3.49
640.456	3.45
640.643	3.35
640.829	3.28
641.016	3.36
641.203	3.25
641.389	3.33
641.576	3.26
641.762	3.27
641.949	3.29
642.135	3.3
642.322	3.26
642.508	3.15
642.695	3.29
642.881	3.15
643.068	3.15
643.254	3.21
643.441	3.21
643.627	3.21
643.813	3.1
644	3.24
644.186	3.03
644.372	3.2
644.559	3.14
644.745	3.14
644.931	3.03
645.118	3.06
645.304	3.03
645.49	3.05
645.676	3.03
645.862	2.95
646.049	3.09
646.235	3.01
646.421	3.07
646.607	3.07
646.793	2.94
646.979	2.88
647.165	2.93
647.352	2.9
647.538	2.93
647.724	2.91
647.91	2.89
648.096	2.92
648.282	2.95
648.468	2.86
648.654	2.9
648.84	2.86
649.026	2.82
649.212	2.8
649.397	2.78
649.583	2.81
649.769	2.77
649.955	2.79
650.141	2.78
650.327	2.72
650.513	2.71
650.698	2.75
650.884	2.64
651.07	2.77
651.256	2.68
651.442	2.68
651.627	2.57
651.813	2.68
651.999	2.6
652.184	2.66
652.37	2.61
652.556	2.67
652.741	2.63
652.927	2.5
653.113	2.59
653.298	2.58
653.484	2.56
653.669	2.55
653.855	2.55
654.04	2.58
654.226	2.56
654.412	2.5
654.597	2.41
654.782	2.53
654.968	2.5
655.153	2.5
655.339	2.48
655.524	2.45
655.71	2.52
655.895	2.41
656.08	2.46
656.266	2.56
656.451	2.51
656.636	2.38
656.822	2.43
657.007	2.42
657.192	2.38
657.378	2.37
657.563	2.34
657.748	2.42
657.933	2.39
658.118	2.31
658.304	2.32
658.489	2.38
658.674	2.29
658.859	2.26
659.044	2.3
659.229	2.29
659.414	2.3
659.599	2.26
659.785	2.22
659.97	2.26
660.155	2.26
660.34	2.3
660.525	2.26
660.71	2.26
660.895	2.26
661.08	2.2
661.264	2.12
661.449	2.24
661.634	2.21
661.819	2.18
662.004	2.15
662.189	2.05
662.374	2.11
662.559	2.15
662.743	2.05
662.928	2.05
663.113	2.1
663.298	2.07
663.483	2.04
663.667	2.04
663.852	2.01
664.037	2.1
664.221	1.98
664.406	2.04
664.591	1.99
664.775	2.02
664.96	1.96
665.145	1.95
665.329	1.98
665.514	1.9
665.698	1.94
665.883	1.85
666.068	1.93
666.252	1.91
666.437	1.86
666.621	1.8
666.806	1.89
666.99	1.77
667.174	1.82
667.359	1.9
667.543	1.86
667.728	1.82
667.912	1.76
668.096	1.85
668.281	1.77
668.465	1.78
668.649	1.76
668.834	1.71
669.018	1.76
669.202	1.73
669.387	1.71
669.571	1.79
669.755	1.67
669.939	1.66
670.124	1.66
670.308	1.74
670.492	1.7
670.676	1.67
670.86	1.65
671.044	1.59
671.228	1.66
671.413	1.62
671.597	1.58
671.781	1.57
671.965	1.59
672.149	1.62
672.333	1.6
672.517	1.54
672.701	1.6
672.885	1.58
673.069	1.5
673.253	1.61
673.437	1.59
673.621	1.51
673.804	1.53
673.988	1.56
674.172	1.52
674.356	1.45
674.54	1.54
674.724	1.58
674.908	1.5
675.091	1.57
675.275	1.47
675.459	1.53
675.643	1.48
675.826	1.43
676.01	1.43
676.194	1.48
676.377	1.49
676.561	1.47
676.745	1.5
676.928	1.47
677.112	1.53
677.296	1.38
677.479	1.37
677.663	1.42
677.846	1.44
678.03	1.44
678.213	1.33
678.397	1.42
678.58	1.35
678.764	1.34
678.947	1.3
679.131	1.32
679.314	1.36
679.498	1.35
679.681	1.38
679.865	1.4
680.048	1.31
680.231	1.29
680.415	1.37
680.598	1.27
680.781	1.29
680.965	1.29
681.148	1.32
681.331	1.29
681.514	1.28
681.698	1.22
681.881	1.26
682.064	1.24
682.247	1.3
682.43	1.15
682.614	1.24
682.797	1.28
682.98	1.28
683.163	1.15
683.346	1.25
683.529	1.18
683.712	1.19
683.895	1.17
684.078	1.07
684.261	1.12
684.444	1.25
684.627	1.23
684.81	1.19
684.993	1.17
685.176	1.18
685.359	1.13
685.542	1.08
685.725	1.17
685.908	1.11
686.091	1.1
686.274	1.2
686.457	1.2
686.639	1.19
686.822	1.15
687.005	1.16
687.188	1.17
687.371	1.22
687.553	1.15
687.736	1.15
687.919	1.23
688.102	1.16
688.284	1.14
688.467	1.08
688.65	1.08
688.832	1.01
689.015	1.06
689.197	0.95
689.38	1.15
689.563	1.12
689.745	0.98
689.928	1.03
690.11	1.05
690.293	1.03
690.475	0.94
690.658	1.05
690.84	1.03
691.023	1.02
691.205	0.91
691.388	1.01
691.57	1.03
691.752	1
691.935	0.91
692.117	0.97
692.3	1.03
692.482	1
692.664	0.94
692.847	0.95
693.029	1.03
693.211	1
693.393	0.94
693.576	0.95
693.758	0.94
693.94	0.94
694.122	0.92
694.304	0.91
694.487	0.89
694.669	0.98
694.851	0.9
695.033	0.92
695.215	0.93
695.397	0.89
695.579	0.87
695.761	0.84
695.943	0.83
696.125	1.01
696.308	0.93
696.49	0.79
696.671	1.01
696.853	0.86
697.035	1.09
697.217	0.87
697.399	0.93
697.581	0.83
697.763	0.86
697.945	0.81
698.127	0.95
698.309	0.86
698.491	0.9
698.672	0.87
698.854	0.86
699.036	0.92
699.218	0.84
699.399	0.87
699.581	0.87
699.763	0.84
699.945	0.81
700.126	0.77
700.308	0.85
700.49	0.81
700.671	0.71
700.853	0.81
701.035	0.8
701.216	0.77
701.398	0.72
701.579	0.82
701.761	0.86
701.943	0.68
702.124	0.76
702.306	0.77
702.487	0.93
702.669	0.81
702.85	0.72
703.031	0.77
703.213	0.87
703.394	0.79
703.576	0.8
703.757	0.97
703.938	0.81
704.12	0.89
704.301	0.77
704.483	0.72
704.664	0.8
704.845	0.88
705.026	0.89
705.208	0.69
705.389	0.76
705.57	0.78
705.751	0.78
705.933	0.77
706.114	0.86
706.295	0.79
706.476	0.7
706.657	0.85
706.838	0.72
707.02	0.77
707.201	0.65
707.382	0.67
707.563	0.76
707.744	0.67
707.925	0.72
708.106	0.68
708.287	0.73
708.468	0.82
708.649	0.72
708.83	0.79
709.011	0.67
709.192	0.72
709.373	0.58
709.554	0.67
709.734	0.76
709.915	0.65
710.096	0.74
710.277	0.6
710.458	0.72
710.639	0.69
710.819	0.58
711	0.63
711.181	0.79
711.362	0.72
711.542	0.67
711.723	0.67
711.904	0.76
712.085	0.67
712.265	0.72
712.446	0.58
712.627	0.62
712.807	0.68
712.988	0.7
713.168	0.56
713.349	0.69
713.53	0.46
713.71	0.53
713.891	0.52
714.071	0.65
714.252	0.63
714.432	0.63
714.613	0.66
714.793	0.62
714.974	0.67
715.154	0.67
715.334	0.64
715.515	0.62
715.695	0.52
715.876	0.61
716.056	0.65
716.236	0.57
716.417	0.61
716.597	0.56
716.777	0.78
716.957	0.61
717.138	0.58
717.318	0.63
717.498	0.53
717.678	0.64
717.859	0.66
718.039	0.53
718.219	0.61
718.399	0.66
718.579	0.51
718.759	0.6
718.939	0.62
719.12	0.63
719.3	0.63
719.48	0.41
719.66	0.47
719.84	0.65
720.02	0.61
720.2	0.54
720.38	0.58
720.56	0.73
720.74	0.6
720.92	0.59
721.1	0.67
721.279	0.63
721.459	0.65
721.639	0.46
721.819	0.56
721.999	0.52
722.179	0.6
722.359	0.51
722.538	0.58
722.718	0.64
722.898	0.56
723.078	0.48
723.257	0.51
723.437	0.65
723.617	0.58
723.797	0.57
723.976	0.56
724.156	0.61
724.336	0.71
724.515	0.83
724.695	0.46
724.874	0.52
725.054	0.55
725.234	0.53
725.413	0.63
725.593	0.56
725.772	0.51
725.952	0.61
726.131	0.56
726.311	0.62
726.49	0.58
726.67	0.48
726.849	0.47
727.028	0.54
727.208	0.49
727.387	0.55
727.567	0.47
727.746	0.53
727.925	0.52
728.105	0.5
728.284	0.55
728.463	0.48
728.643	0.58
728.822	0.5
729.001	0.55
729.18	0.69
729.359	0.66
729.539	0.6
729.718	0.61
729.897	0.55
730.076	0.5
730.255	0.45
730.434	0.56
730.614	0.61
730.793	0.56
730.972	0.48
731.151	0.61
731.33	0.66
731.509	0.7
731.688	0.56
731.867	0.57
732.046	0.38
732.225	0.7
732.404	0.5
732.583	0.49
732.762	0.61
732.941	0.69
733.12	0.64
733.298	0.53
733.477	0.65
733.656	0.61
733.835	0.38
734.014	0.69
734.193	0.54
734.371	0.57
734.55	0.64
734.729	0.44
734.908	0.64
735.086	0.68
735.265	0.68
735.444	0.41
735.623	0.4
735.801	0.42
735.98	0.63
736.159	0.53
736.337	0.6
736.516	0.67
736.694	0.6
736.873	0.48
737.052	0.76
737.23	0.68
737.409	0.52
737.587	0.71
737.766	0.43
737.944	0.76
738.123	0.6
738.301	0.66
738.479	0.65
738.658	0.68
738.836	0.4
739.015	0.73
739.193	0.6
739.371	0.46
739.55	0.5
739.728	0.52
739.906	0.79
740.085	0.76
740.263	0.62
740.441	0.39
740.62	0.85
740.798	0.59
740.976	0.43
741.154	0.44
741.332	0.82
741.511	0.51
741.689	0.61
741.867	0.57
742.045	0.5
742.223	0.55
742.401	0.46
742.579	0.5
742.757	0.65
742.935	0.37
743.114	0.54
743.292	0.48
743.47	0.51
743.648	0.52
743.826	0.55
744.004	0.53
744.181	0.54
744.359	0.39
744.537	0.53
744.715	0.44
744.893	0.49
745.071	0.41
745.249	0.49
745.427	0.44
745.605	0.47
745.782	0.43
745.96	0.48
746.138	0.55
746.316	0.51
746.493	0.45
746.671	0.45
746.849	0.4
747.027	0.57
747.204	0.5
747.382	0.47
747.56	0.37
747.737	0.39
747.915	0.36
748.093	0.51
748.27	0.41
748.448	0.39
748.625	0.26
748.803	0.38
748.98	0.37
749.158	0.49
749.335	0.51
749.513	0.38
749.69	0.4
749.868	0.44
750.045	0.5
750.223	0.29
750.4	0.19
750.578	0.51
750.755	0.41
750.932	0.26
751.11	0.56
751.287	0.39
751.464	0.52
751.642	0.31
751.819	0.43
751.996	0.47
752.173	0.36
752.351	0.29
752.528	0.31
752.705	0.37
752.882	0.4
753.06	0.37
753.237	0.51
753.414	0.67
753.591	0.57
753.768	0.45
753.945	0.31
754.122	0.33
754.299	0.39
754.476	0.34
754.654	0.39
754.831	0.47
755.008	0.44
755.185	0.37
755.362	0.29
755.539	0.35
755.716	0.49
755.892	0.4
756.069	0.43
756.246	0.31
756.423	0.43
756.6	0.53
756.777	0.3
756.954	0.52
757.131	0.53
757.307	0.24
757.484	0.33
757.661	0.48
757.838	0.53
758.015	0.24
758.191	0.44
758.368	0.45
758.545	0.44
758.721	0.42
758.898	0.29
759.075	0.38
759.251	0.42
759.428	0.41
759.605	0.18
759.781	0.33
759.958	0.48
760.134	0.38
760.311	0.27
760.488	0.49
760.664	0.51
760.841	0.33
761.017	0.17
761.194	0.42
761.37	0.52
761.547	0.41
761.723	0.36
761.899	0.55
762.076	0.3
762.252	0.26
762.429	0.34
762.605	0.47
762.781	0.41
762.958	0.42
763.134	0.35
763.31	0.39
763.486	0.54
763.663	0.22
763.839	0.58
764.015	0.09
764.191	0.24
764.368	0.29
764.544	0.2
764.72	0.36
764.896	0.45
765.072	0.32
765.248	0.29
765.425	0.29
765.601	0.54
765.777	0.39
765.953	0.13
766.129	0.32
766.305	0.3
766.481	0.39
766.657	0.34
766.833	0.45
767.009	0.25
767.185	0.28
767.361	0.33
767.537	0.25
767.713	0.48
767.889	0.24
768.065	0.34
768.24	0.42
768.416	0.4
768.592	0.38
768.768	0.32
768.944	0.4
769.12	0.34
769.295	0.28
769.471	0.41
769.647	0.13
769.823	0.5
769.998	0.3
770.174	0.22
770.35	0.51
770.525	0.61
770.701	0.46
770.877	0.32
771.052	0.25
771.228	0.41
771.403	0.39
771.579	0.35
771.755	0.57
771.93	0.35
772.106	0.23
772.281	0.15
772.457	0.32
772.632	0.4
772.808	0.19
772.983	0.38
773.159	0.2
773.334	0.48
773.509	0.33
773.685	0.17
773.86	0.86
774.036	0.56
774.211	0.31
774.386	0.21
774.562	0.39
774.737	0.6
774.912	0.13
775.087	0.52
775.263	0.46
775.438	0.33
775.613	0.2
775.788	0.36
775.964	0.51
776.139	0.97
776.314	0.19
776.489	0.38
776.664	0.5
776.839	0.27
777.014	0.6
777.19	0.62
777.365	0.58
777.54	0.51
777.715	0.18
777.89	0.29
778.065	0.38
778.24	0.34
778.415	0.54
778.59	0.22
778.765	0.3
778.94	0.37
779.115	0.21
779.289	0.39
779.464	0.38
779.639	0.37
779.814	0.09
779.989	0.18
780.164	0.53
780.339	0.44
780.513	0.08
780.688	0.06
780.863	0.34
781.038	0.6
781.212	0.2
781.387	0.34
781.562	0.68
781.737	0.52
781.911	0.65
782.086	0.27
782.261	0.3
782.435	0.76
782.61	0.31
782.784	0.32
782.959	0.77
783.134	0.19
783.308	0.24
783.483	0.24
783.657	0.65
783.832	0.43
784.006	0.04
784.181	0.52
784.355	0.49
784.53	0.38
784.704	0.36
784.878	0.61
785.053	0.55
785.227	0.72
785.402	0.81
785.576	0.27
785.75	0.24
785.925	0.35
786.099	0.45
786.273	0.52
786.448	0.49
786.622	0.7
786.796	0.37
786.97	0.21
787.145	0.9
787.319	0.21
787.493	0.28
787.667	0.29
787.841	0.49
788.015	0.19
788.19	0.39
788.364	0.38
788.538	0.54
788.712	0.58
788.886	0.28
789.06	0.64
789.234	0.65
789.408	0.34
789.582	0.39
789.756	0.37
789.93	0.23
790.104	0.25
790.278	0.25
790.452	0.19
790.626	0.68
790.8	0.12
790.973	0.4
791.147	0.6
791.321	0.75
791.495	0.61
791.669	0.31
791.843	0.65
792.016	0.63
792.19	0.94
792.364	0.21
792.538	1.01
792.711	0.66
792.885	0.38
793.059	0.09
793.233	-0.06
793.406	0.45
793.58	0.4
793.754	0.42
793.927	0.56
794.101	0.71
794.274	0.66
794.448	0.59
794.622	0.23
794.795	0.94
794.969	0.29
795.142	0.72
795.316	0.34
795.489	0.35
795.663	0.94
795.836	0.41
796.009	0.16
796.183	0.6
796.356	0.47
796.53	0.41
796.703	0.38
796.876	0.81
797.05	0.2
797.223	0.39
797.396	0.61
797.57	0.35
797.743	0.88
797.916	0.22
798.09	0.33
798.263	0.54
798.436	0.69
798.609	0.37
798.782	0.5
798.956	0.53
799.129	0.55
799.302	0.15
799.475	0.48
799.648	0.2
799.821	0.56
799.994	0.53
800.167	-0.19
800.34	0.38
800.514	0.44
800.687	0.2
800.86	0.25
801.033	0.57
801.206	0.53
801.379	0.2
801.551	0.9
801.724	0.64
801.897	0.88
802.07	0.62
802.243	0.01
802.416	0.4
802.589	0.16
802.762	0.66
802.935	0.21
803.107	0.66
803.28	0.76
803.453	0.78
803.626	0.14
803.798	0.24
803.971	0.23
804.144	0.98
804.317	0.82
804.489	0.89
804.662	0.69
804.835	0.57
805.007	0.44
805.18	0.86
805.353	0.49
805.525	0.05
805.698	0.31
805.87	0.82
806.043	1.18
806.215	0.18
806.388	0.26
806.56	0.58
806.733	0.75
806.905	0.77
807.078	0.41
807.25	0.32
807.423	0.67
807.595	0.69
807.768	0.55
807.94	0.81
808.112	0.79
808.285	0.53
808.457	0.49
808.629	0.65
808.802	0.49
808.974	0.73
809.146	0.19
809.318	0.18
809.491	0.37
809.663	0.7
809.835	0.28
810.007	0.82
810.18	0.65
810.352	-0.05
810.524	0.25
810.696	0.82
810.868	1.01
811.04	0.61
811.212	0.37
811.384	1.01
811.556	0.87
811.728	0.63
811.901	1.4
812.073	0.45
812.245	1.17
812.417	0.57
812.589	0.07
812.76	0.57
812.932	0.48
813.104	0.71
813.276	0.27
813.448	0.95
813.62	0.5
813.792	0.67
813.964	0.81
814.136	0.63
814.307	0.28
814.479	-0.03
814.651	0.63
814.823	1.26
814.995	0.59
815.166	0.21
815.338	0.43
815.51	0.13
815.681	1.37
815.853	0.55
816.025	0.27
816.196	0.77
816.368	0.53
816.54	0.07
816.711	0.28
816.883	1.07
817.054	1.45
817.226	-0.03
817.398	0.7
817.569	0.56
817.741	0.74
817.912	0.3
818.084	0.56
818.255	0.84
818.426	0.65
818.598	0.52
818.769	0.25
818.941	0.84
819.112	0.84
819.283	0.72
819.455	0.11
819.626	0.9
819.798	0.85
819.969	0.56
820.14	0.6
820.311	0.22
820.483	0.51
820.654	0.99
820.825	0.85
820.996	0.61
821.168	0.28
821.339	0.24
821.51	-0.07
821.681	0.41
821.852	0.6
822.023	0.03
822.195	-0.51
822.366	0.74
822.537	0.72
822.708	0.85
822.879	0.41
823.05	1.7
823.221	0.53
823.392	0.74
823.563	0.73
823.734	0.54
823.905	0.56
824.076	0.67
824.247	0.29
824.418	0.21
824.589	1.73
824.759	0.72
824.93	0.69
825.101	0.29
825.272	1.11
825.443	0.91
825.614	1.09
825.784	-0.07
825.955	2.33
826.126	1.79
826.297	0.61
826.467	1.39
826.638	1.39
826.809	0.22
826.98	0.88
827.15	0.87
827.321	0.79
827.492	1.39
827.662	0.28
827.833	1.84
828.003	1.15
828.174	0.63
828.345	0.18
828.515	1.33
828.686	0.27
828.856	0.26
829.027	0.69
829.197	1.31
829.368	1.08
829.538	0.56
829.709	-0.23
829.879	1.24
830.049	1.12
830.22	0.86
830.39	0.62
830.56	1.19
830.731	1.05
830.901	0.43
831.072	0.84
831.242	0.63
831.412	1.1
831.582	0.61
831.753	-0.21
831.923	1.17
832.093	0.51
832.263	0.43
832.434	0.39
832.604	0.35
832.774	1.43
832.944	1.04
833.114	-0.11
833.284	1.12
833.454	0.47
833.624	0.37
833.795	0.06
833.965	1.5
834.135	2.08
834.305	-0.25
834.475	0.58
834.645	1.02
834.815	1.5
834.985	0.96
835.155	0.49
835.325	1.45
835.494	1.01
835.664	0.65
835.834	-0.3
836.004	1.04
836.174	1.27
836.344	0.76
836.514	-0.04
836.684	0.64
836.853	0.88
837.023	1.13
837.193	0.55
837.363	1.09
837.532	1.8
837.702	1.17
837.872	0.22
838.041	1.23
838.211	1.89
838.381	0.57
838.55	0.5
838.72	2.95
838.89	2.96
839.059	0.18
839.229	0.55
839.398	2.59
839.568	0.38
839.738	0.59
839.907	1.64
840.077	1.67
840.246	0.51
840.416	0.6
840.585	0.32
840.755	1.86
840.924	2.56
841.093	-0.05
841.263	0.5
841.432	1.27
841.602	0.79
841.771	0.28
841.94	1.55
842.11	2.42
842.279	2.38
842.448	0.04
842.617	0.6
842.787	2.6
842.956	-0.07
843.125	0.35
843.294	1.05
843.464	2.34
843.633	1.12
843.802	0.01
843.971	0.79
844.14	0.88
844.309	2.53
844.479	0.55
844.648	0.52
844.817	0.74
844.986	0.78
845.155	1.02
845.324	0.34
845.493	1.17
845.662	1.33
845.831	1.07
846	1.71
846.169	1.13
846.338	2.27
846.507	1.51
846.676	0.96
846.844	0.17
847.013	1.82
847.182	1.71
847.351	0.44
847.52	1.07
847.689	0.49
847.858	0.65
848.026	0.82
848.195	1.59
848.364	0.08
848.533	0.94
848.701	0.62
848.87	0.62
849.039	2.6
849.207	1.89
849.376	1.39
849.545	1.18
849.713	1.26
849.882	0.21
850.051	0.77
850.219	1.75
850.388	2.3
850.556	0.26
850.725	0.6
850.893	1.27
851.062	1.08
851.23	2.07
851.399	-0.21
851.567	0.7
851.736	0.32
851.904	0.3
852.073	1.39
852.241	1.86
852.41	1.12
852.578	0.57
852.746	-0.15
852.915	2.14
853.083	1.19
853.251	0.02
853.42	0.66
853.588	0.6
853.756	1.6
853.924	0.37
854.093	0.01
854.261	1.02
854.429	0.49
854.597	1.09
854.765	0.86
854.934	1.25
855.102	2.35
855.27	1.67
855.438	0.32
855.606	3.42
855.774	2.56
855.942	-0.61
856.11	1.32
856.278	1.73
856.446	1.25
856.614	1.78
856.782	0.46
856.95	2.56
857.118	2.37
857.286	1.2
857.454	1.24
857.622	2.24
857.79	1.55
857.958	0.51
858.126	0.24
858.294	0.11
858.462	0.98
858.629	0.52
858.797	0.26
858.965	1.86
859.133	0.49
859.301	1.99
859.468	2.65
859.636	1.28
859.804	3.52
859.971	2.59
860.139	0.45
860.307	2.21
860.474	1.02
860.642	1.1
860.81	0.47
860.977	1.3
861.145	2.79
861.313	0.8
861.48	0.93
861.648	2.5
861.815	1.65
861.983	0.12
862.15	0.81
862.318	2.45
862.485	2.8
862.653	1.25
862.82	0.08
862.988	2.51
863.155	3.25
863.322	0.02
863.49	0.74
863.657	0.38
863.824	2.21
863.992	1.42
864.159	1.77
864.326	2.87
864.494	-0.06
864.661	3.88
864.828	0.41
864.996	3.78
865.163	4.16
865.33	1.98
865.497	-0.79
865.664	1.06
865.832	-0.08
865.999	2.32
866.166	0.9
866.333	-0.7
866.5	1.2
866.667	1.11
866.834	0.81
867.001	2.16
867.168	0.04
867.335	1.15
867.502	-0.12
867.669	0.87
867.836	5.73
868.003	1.83
868.17	3.06
868.337	4.6
868.504	4.13
868.671	0.53
868.838	1.97
869.005	1.31
869.172	1.8
869.339	0.18
869.505	1.73
869.672	1.18
869.839	3.36
870.006	1.52
870.173	0.88
870.339	1.13
870.506	4.23
870.673	-0.67
870.84	2.08
871.006	3.66
871.173	1.81
871.34	3.37
871.506	0.25
871.673	2.42
871.839	0.09
872.006	3.53
872.173	0.52
872.339	1.71
872.506	3.67
872.672	0.81
872.839	0.56
873.005	1.66
873.172	4.96
873.338	3.13
873.505	3.16
873.671	3.9
873.838	2.03
874.004	-0.4
874.171	-0.55
874.337	4.05
874.503	3.28
874.67	1.13
874.836	0.6
875.002	4.07
875.169	3.3
875.335	2.47
875.501	-0.57
875.668	4.24
875.834	1.73
876	1.51
876.166	2.12
876.332	2.15
876.499	4.31
876.665	1.32
876.831	2.33
876.997	4.85
877.163	2.57
877.329	1.11
877.495	1.22
877.662	3.49
877.828	1.92
877.994	1.17
878.16	-0.17
878.326	0.42
878.492	-0.13
878.658	0.29
878.824	1.98
878.99	2.78
879.156	-0.14
879.322	4.66
879.487	2.03
879.653	3.1
879.819	3.29
879.985	0.87
880.151	4.19
880.317	3.04
880.483	2.48
880.648	2.44
880.814	-0.79
880.98	1.23
881.146	-0.47
881.312	-0
881.477	0.84
881.643	0.86
881.809	4.19
881.974	3.36
882.14	-0.83
882.306	1.95
882.471	4.01
882.637	0.71
882.803	2.21
882.968	3.51
883.134	5.57
883.299	1.01
883.465	3.02
883.63	2.77
883.796	3.31
883.961	2.16
884.127	2.06
884.292	-3.51
884.458	-1.48
884.623	-1.48
