Data from Apollo_Calib_20240827__AbsoluteIrradiance__744__11-33-02-266.txt Node

Date: Wed Aug 28 11:33:02 BST 2024
User: biology
Spectrometer: FLMT08252
Trigger mode: 0
Integration Time (sec): 5.000000E-1
Scans to average: 5
Electric dark correction enabled: true
Nonlinearity correction enabled: false
Boxcar width: 0
XAxis mode: Wavelengths
Number of Pixels in Spectrum: 3648
>>>>>Begin Spectral Data<<<<<
179.588	-0
179.809	-0
180.03	-0
180.251	-0
180.473	-0
180.694	0
180.915	0
181.136	-0
181.357	0
181.578	-0
181.799	-0
182.02	-0
182.241	0
182.462	-0
182.683	0
182.904	-0
183.125	-0
183.346	0
183.567	0
183.788	0
184.009	0
184.23	0
184.451	0
184.672	0
184.892	0
185.113	0
185.334	0
185.555	0
185.776	0
185.996	0
186.217	0
186.438	0
186.659	0
186.879	0
187.1	0
187.321	0
187.541	0
187.762	0
187.983	0
188.203	0
188.424	0
188.644	0
188.865	0
189.086	0
189.306	0
189.527	0
189.747	0
189.968	0
190.188	0
190.409	0
190.629	0
190.849	0
191.07	0
191.29	0
191.511	0
191.731	0
191.951	0
192.172	0
192.392	0
192.612	0
192.833	0
193.053	0
193.273	0
193.493	0
193.714	0
193.934	0
194.154	0
194.374	0
194.594	0
194.815	0
195.035	0
195.255	0
195.475	0
195.695	0
195.915	0
196.135	0
196.355	0
196.575	0
196.795	0
197.015	0
197.235	0
197.455	0
197.675	0
197.895	0
198.115	0
198.335	0
198.555	0
198.775	0
198.995	0
199.214	0
199.434	0
199.654	0
199.874	0
200.094	2.96
200.313	1.1
200.533	1.49
200.753	0.74
200.973	2.33
201.192	2.3
201.412	0.13
201.632	1.19
201.851	2.26
202.071	0.84
202.291	0.89
202.51	0.73
202.73	1.86
202.95	0.98
203.169	0.6
203.389	1.32
203.608	1.29
203.828	0.91
204.047	0.47
204.267	1.06
204.486	1.24
204.706	1.54
204.925	0.91
205.145	0.7
205.364	1.59
205.583	1.68
205.803	1.02
206.022	0.47
206.242	0.92
206.461	0.9
206.68	0.5
206.9	0.9
207.119	1.47
207.338	1.04
207.557	0.6
207.777	0.82
207.996	0.72
208.215	1.38
208.434	0.66
208.654	0.15
208.873	1.12
209.092	1.52
209.311	0.58
209.53	0.9
209.749	0.35
209.968	0.66
210.187	0.63
210.407	0.46
210.626	0.73
210.845	0.98
211.064	0.74
211.283	0.46
211.502	0.93
211.721	0.66
211.94	0.66
212.159	1.03
212.377	0.92
212.596	0.95
212.815	0.74
213.034	0.57
213.253	0.92
213.472	0.96
213.691	0.75
213.91	0.31
214.128	0.65
214.347	1.07
214.566	0.07
214.785	0.17
215.003	0.8
215.222	0.7
215.441	0.3
215.66	0.02
215.878	0.44
216.097	0.85
216.316	0.35
216.534	0.44
216.753	0.55
216.972	0.46
217.19	0.46
217.409	0.35
217.627	0.34
217.846	0.42
218.064	0.6
218.283	0.19
218.501	0.93
218.72	0.73
218.938	0.37
219.157	0.42
219.375	0.72
219.594	0.64
219.812	0.14
220.031	0.21
220.249	0.78
220.467	0.81
220.686	0.24
220.904	0.14
221.122	0.55
221.341	0.85
221.559	0.51
221.777	0.29
221.995	0.44
222.214	0.69
222.432	0.31
222.65	0.56
222.868	0.48
223.086	0.61
223.305	0.54
223.523	0.35
223.741	0.87
223.959	0.38
224.177	0.12
224.395	0.25
224.613	0.45
224.831	0.54
225.049	0.05
225.267	0.3
225.485	0.47
225.703	0.38
225.921	0.34
226.139	0.2
226.357	0.48
226.575	0.54
226.793	0.27
227.011	1.01
227.229	0.43
227.447	0.56
227.665	0.34
227.883	0.22
228.1	0.18
228.318	0.33
228.536	0.1
228.754	0.21
228.972	0.39
229.189	0.45
229.407	0.24
229.625	0.29
229.843	0.49
230.06	0.48
230.278	0.35
230.496	0.26
230.713	0.22
230.931	0.5
231.149	0.31
231.366	0.15
231.584	0.29
231.801	0.6
232.019	0.2
232.236	0.18
232.454	0.26
232.671	0.42
232.889	0.27
233.106	0.33
233.324	0.27
233.541	0.25
233.759	0.34
233.976	0.21
234.194	0.27
234.411	0.28
234.628	0.12
234.846	0.27
235.063	0.33
235.28	0.31
235.498	0.31
235.715	0.16
235.932	0.46
236.149	0.31
236.367	0.16
236.584	0.33
236.801	0.28
237.018	0.43
237.236	0.34
237.453	0.16
237.67	0.39
237.887	0.31
238.104	0.18
238.321	0.21
238.538	0.19
238.755	0.47
238.973	0.08
239.19	0.34
239.407	0.38
239.624	0.37
239.841	0.13
240.058	0.23
240.275	0.33
240.492	0.26
240.709	0.28
240.925	0.2
241.142	0.35
241.359	0.15
241.576	0.15
241.793	0.24
242.01	0.22
242.227	0.38
242.444	0.24
242.66	0.3
242.877	0.36
243.094	0.27
243.311	0.21
243.527	0.15
243.744	0.27
243.961	0.38
244.178	0.13
244.394	0.29
244.611	0.35
244.828	0.49
245.044	0.21
245.261	0.27
245.477	0.3
245.694	0.32
245.911	0.14
246.127	0.2
246.344	0.37
246.56	0.35
246.777	0.21
246.993	0.2
247.21	0.29
247.426	0.2
247.643	0.2
247.859	0.17
248.076	0.2
248.292	0.47
248.508	0.25
248.725	0.23
248.941	0.19
249.157	0.32
249.374	0.19
249.59	0.31
249.806	0.14
250.023	0.43
250.239	0.14
250.455	0.18
250.671	0.25
250.888	0.23
251.104	0.3
251.32	0.18
251.536	0.16
251.752	0.22
251.969	0.28
252.185	0.25
252.401	0.42
252.617	0.27
252.833	0.22
253.049	0.22
253.265	0.15
253.481	0.3
253.697	0.23
253.913	0.17
254.129	0.22
254.345	0.27
254.561	0.17
254.777	0.16
254.993	0.32
255.209	0.26
255.425	0.18
255.641	0.09
255.857	0.3
256.073	0.2
256.288	0.09
256.504	0.2
256.72	0.25
256.936	0.3
257.152	0.15
257.367	0.16
257.583	0.22
257.799	0.26
258.015	0.19
258.23	0.11
258.446	0.34
258.662	0.2
258.877	0.07
259.093	0.21
259.309	0.24
259.524	0.35
259.74	0.18
259.955	0.13
260.171	0.25
260.387	0.19
260.602	0.27
260.818	0.31
261.033	0.15
261.249	0.19
261.464	0.2
261.68	0.16
261.895	0.22
262.11	0.28
262.326	0.17
262.541	0.13
262.757	0.28
262.972	0.26
263.187	0.14
263.403	0.18
263.618	0.29
263.833	0.31
264.049	0.13
264.264	0.14
264.479	0.17
264.694	0.3
264.91	0.1
265.125	0.14
265.34	0.24
265.555	0.38
265.77	0.23
265.986	0.14
266.201	0.31
266.416	0.34
266.631	0.15
266.846	0.18
267.061	0.17
267.276	0.2
267.491	0.03
267.706	0.21
267.921	0.26
268.136	0.21
268.351	0.27
268.566	0.12
268.781	0.26
268.996	0.22
269.211	0.16
269.426	0.17
269.641	0.15
269.856	0.28
270.071	0.15
270.285	0.05
270.5	0.28
270.715	0.3
270.93	0.16
271.145	0.21
271.359	0.28
271.574	0.17
271.789	0.21
272.004	0.12
272.218	0.08
272.433	0.27
272.648	0.12
272.862	0.29
273.077	0.17
273.292	0.19
273.506	0.14
273.721	0.14
273.936	0.26
274.15	0.29
274.365	0.16
274.579	0.23
274.794	0.2
275.008	0.27
275.223	0.12
275.437	0.16
275.652	0.25
275.866	0.24
276.081	0.2
276.295	0.24
276.509	0.15
276.724	0.16
276.938	0.22
277.153	0.25
277.367	0.2
277.581	0.14
277.796	0.13
278.01	0.12
278.224	0.23
278.438	0.28
278.653	0.13
278.867	0.15
279.081	0
279.295	0.21
279.51	0.2
279.724	0.1
279.938	0.24
280.152	0.18
280.366	0.14
280.58	0.2
280.794	0.24
281.008	0.2
281.222	0.26
281.437	0.33
281.651	0.17
281.865	0.2
282.079	0.12
282.293	0.07
282.507	0.17
282.721	0.18
282.935	0.17
283.148	0.04
283.362	0.15
283.576	0.11
283.79	0.14
284.004	0.12
284.218	0.27
284.432	0.13
284.646	0.17
284.859	0.14
285.073	0.15
285.287	0.18
285.501	0.15
285.714	0.11
285.928	0.15
286.142	0.15
286.356	0.16
286.569	0.17
286.783	0.21
286.997	0.22
287.21	0.18
287.424	0.15
287.637	0.12
287.851	0.16
288.065	0.22
288.278	0.15
288.492	0.2
288.705	0.13
288.919	0.2
289.132	0.07
289.346	0.16
289.559	0.08
289.773	0.08
289.986	0.13
290.2	0.19
290.413	0.2
290.626	0.11
290.84	0.13
291.053	0.12
291.267	0.26
291.48	0.16
291.693	0.19
291.906	0.08
292.12	0.14
292.333	0.14
292.546	0.1
292.76	0.27
292.973	0.22
293.186	0.22
293.399	0.08
293.612	0.23
293.826	0.15
294.039	0.12
294.252	0.17
294.465	0.25
294.678	0.14
294.891	0.19
295.104	0.1
295.317	0.15
295.53	0.18
295.743	0.14
295.956	0.11
296.169	0.25
296.382	0.19
296.595	0.15
296.808	0.13
297.021	0.2
297.234	0.2
297.447	0.12
297.66	0.18
297.873	0.24
298.086	0.19
298.299	0.14
298.511	0.08
298.724	0.15
298.937	0.12
299.15	0.11
299.363	0.17
299.575	0.17
299.788	0.16
300.001	0.11
300.213	0.15
300.426	0.15
300.639	0.13
300.852	0.07
301.064	0.17
301.277	0.25
301.489	0.19
301.702	0.15
301.915	0.19
302.127	0.2
302.34	0.14
302.552	0.12
302.765	0.14
302.977	0.24
303.19	0.11
303.402	0.1
303.615	0.11
303.827	0.08
304.04	0.13
304.252	0.21
304.464	0.13
304.677	0.29
304.889	0.21
305.102	0.11
305.314	0.11
305.526	0.18
305.739	0.21
305.951	0.12
306.163	0.12
306.375	0.2
306.588	0.11
306.8	0.13
307.012	0.12
307.224	0.16
307.436	0.2
307.649	0.09
307.861	0.14
308.073	0.18
308.285	0.16
308.497	0.12
308.709	0.13
308.921	0.13
309.133	0.23
309.346	0.11
309.558	0.11
309.77	0.2
309.982	0.22
310.194	0.18
310.406	0.13
310.617	0.24
310.829	0.17
311.041	0.19
311.253	0.09
311.465	0.12
311.677	0.15
311.889	0.13
312.101	0.12
312.313	0.17
312.524	0.18
312.736	0.06
312.948	0.09
313.16	0.24
313.372	0.19
313.583	0.16
313.795	0.11
314.007	0.11
314.218	0.17
314.43	0.18
314.642	0.11
314.853	0.13
315.065	0.18
315.277	0.14
315.488	0.17
315.7	0.21
315.912	0.19
316.123	0.1
316.335	0.12
316.546	0.26
316.758	0.1
316.969	0.11
317.181	0.13
317.392	0.18
317.604	0.16
317.815	0.12
318.026	0.11
318.238	0.14
318.449	0.19
318.661	0.14
318.872	0.07
319.083	0.09
319.295	0.18
319.506	0.16
319.717	0.12
319.929	0.17
320.14	0.15
320.351	0.15
320.562	0.11
320.774	0.15
320.985	0.19
321.196	0.13
321.407	0.05
321.618	0.19
321.829	0.14
322.041	0.16
322.252	0.14
322.463	0.16
322.674	0.19
322.885	0.1
323.096	0.16
323.307	0.14
323.518	0.17
323.729	0.13
323.94	0.07
324.151	0.13
324.362	0.16
324.573	0.14
324.784	0.16
324.995	0.21
325.206	0.14
325.417	0.11
325.628	0.11
325.838	0.15
326.049	0.16
326.26	0.17
326.471	0.14
326.682	0.2
326.892	0.19
327.103	0.07
327.314	0.12
327.525	0.23
327.735	0.18
327.946	0.12
328.157	0.11
328.368	0.13
328.578	0.16
328.789	0.23
328.999	0.15
329.21	0.11
329.421	0.21
329.631	0.1
329.842	0.11
330.052	0.18
330.263	0.18
330.473	0.17
330.684	0.12
330.894	0.16
331.105	0.16
331.315	0.1
331.526	0.05
331.736	0.21
331.947	0.2
332.157	0.19
332.367	0.09
332.578	0.23
332.788	0.22
332.999	0.22
333.209	0.14
333.419	0.1
333.629	0.18
333.84	0.17
334.05	0.14
334.26	0.23
334.47	0.18
334.681	0.16
334.891	0.15
335.101	0.15
335.311	0.28
335.521	0.19
335.732	0.13
335.942	0.23
336.152	0.2
336.362	0.15
336.572	0.17
336.782	0.19
336.992	0.12
337.202	0.13
337.412	0.1
337.622	0.2
337.832	0.14
338.042	0.17
338.252	0.13
338.462	0.15
338.672	0.15
338.882	0.12
339.092	0.13
339.302	0.24
339.511	0.2
339.721	0.13
339.931	0.08
340.141	0.19
340.351	0.23
340.561	0.18
340.77	0.15
340.98	0.13
341.19	0.19
341.4	0.08
341.609	0.07
341.819	0.16
342.029	0.12
342.238	0.16
342.448	0.08
342.658	0.2
342.867	0.14
343.077	0.15
343.286	0.14
343.496	0.17
343.706	0.22
343.915	0.11
344.125	0.14
344.334	0.14
344.544	0.1
344.753	0.14
344.963	0.15
345.172	0.1
345.381	0.12
345.591	0.09
345.8	0.14
346.01	0.2
346.219	0.19
346.428	0.02
346.638	0.19
346.847	0.18
347.056	0.18
347.266	0.11
347.475	0.14
347.684	0.17
347.893	0.18
348.103	0.21
348.312	0.17
348.521	0.15
348.73	0.11
348.94	0.15
349.149	0.14
349.358	0.1
349.567	0.09
349.776	0.12
349.985	0.12
350.194	0.18
350.403	0.22
350.612	0.09
350.821	0.11
351.03	0.17
351.239	0.1
351.448	0.2
351.657	0.11
351.866	0.23
352.075	0.13
352.284	0.16
352.493	0.07
352.702	0.21
352.911	0.14
353.12	0.15
353.329	0.1
353.538	0.15
353.746	0.15
353.955	0.12
354.164	0.14
354.373	0.11
354.582	0.17
354.79	0.16
354.999	0.18
355.208	0.13
355.416	0.21
355.625	0.08
355.834	0.13
356.042	0.14
356.251	0.14
356.46	0.11
356.668	0.17
356.877	0.23
357.085	0.19
357.294	0.05
357.503	0.17
357.711	0.13
357.92	0.27
358.128	0.14
358.337	0.12
358.545	0.16
358.754	0.11
358.962	0.19
359.17	0.11
359.379	0.15
359.587	0.13
359.796	0.13
360.004	0.18
360.212	0.17
360.421	0.21
360.629	0.13
360.837	0.14
361.046	0.19
361.254	0.31
361.462	0.15
361.67	0.13
361.879	0.13
362.087	0.22
362.295	0.18
362.503	0.11
362.711	0.11
362.92	0.1
363.128	0.1
363.336	0.12
363.544	0.04
363.752	0.12
363.96	0.12
364.168	0.11
364.376	0.13
364.584	0.17
364.792	0.21
365	0.16
365.208	0.15
365.416	0.15
365.624	0.19
365.832	0.13
366.04	0.16
366.248	0.12
366.456	0.16
366.664	0.15
366.872	0.14
367.079	0.18
367.287	0.13
367.495	0.16
367.703	0.18
367.911	0.13
368.118	0.12
368.326	0.17
368.534	0.11
368.742	0.23
368.949	0.04
369.157	0.15
369.365	0.19
369.572	0.11
369.78	0.08
369.988	0.17
370.195	0.18
370.403	0.2
370.61	0.13
370.818	0.14
371.026	0.23
371.233	0.1
371.441	0.13
371.648	0.12
371.856	0.15
372.063	0.13
372.271	0.14
372.478	0.15
372.685	0.13
372.893	0.19
373.1	0.11
373.308	0.12
373.515	0.25
373.722	0.21
373.93	0.15
374.137	0.16
374.344	0.26
374.552	0.22
374.759	0.16
374.966	0.12
375.173	0.15
375.381	0.2
375.588	0.16
375.795	0.07
376.002	0.12
376.209	0.12
376.417	0.14
376.624	0.17
376.831	0.22
377.038	0.15
377.245	0.06
377.452	0.09
377.659	0.17
377.866	0.13
378.073	0.17
378.28	0.12
378.487	0.22
378.694	0.17
378.901	0.14
379.108	0.16
379.315	0.21
379.522	0.26
379.729	0.15
379.936	0.14
380.143	0.18
380.35	0.15
380.557	0.15
380.763	0.15
380.97	0.11
381.177	0.17
381.384	0.18
381.591	0.17
381.797	0.17
382.004	0.2
382.211	0.19
382.418	0.15
382.624	0.19
382.831	0.19
383.038	0.15
383.244	0.2
383.451	0.14
383.658	0.19
383.864	0.12
384.071	0.14
384.277	0.22
384.484	0.15
384.69	0.19
384.897	0.13
385.103	0.18
385.31	0.12
385.516	0.12
385.723	0.12
385.929	0.14
386.136	0.15
386.342	0.16
386.549	0.17
386.755	0.23
386.961	0.22
387.168	0.19
387.374	0.19
387.58	0.18
387.787	0.17
387.993	0.18
388.199	0.17
388.406	0.16
388.612	0.16
388.818	0.13
389.024	0.18
389.231	0.17
389.437	0.23
389.643	0.2
389.849	0.19
390.055	0.2
390.261	0.18
390.467	0.16
390.674	0.12
390.88	0.17
391.086	0.21
391.292	0.14
391.498	0.18
391.704	0.21
391.91	0.17
392.116	0.14
392.322	0.09
392.528	0.21
392.734	0.18
392.94	0.15
393.146	0.17
393.352	0.19
393.557	0.2
393.763	0.16
393.969	0.23
394.175	0.14
394.381	0.19
394.587	0.15
394.792	0.18
394.998	0.23
395.204	0.19
395.41	0.15
395.615	0.2
395.821	0.16
396.027	0.21
396.233	0.14
396.438	0.18
396.644	0.23
396.85	0.22
397.055	0.18
397.261	0.19
397.466	0.21
397.672	0.21
397.878	0.23
398.083	0.19
398.289	0.13
398.494	0.24
398.7	0.23
398.905	0.1
399.111	0.26
399.316	0.16
399.522	0.22
399.727	0.18
399.932	0.19
400.138	0.15
400.343	0.23
400.549	0.22
400.754	0.18
400.959	0.21
401.165	0.21
401.37	0.24
401.575	0.3
401.78	0.24
401.986	0.17
402.191	0.21
402.396	0.22
402.601	0.22
402.807	0.22
403.012	0.22
403.217	0.24
403.422	0.26
403.627	0.24
403.832	0.21
404.037	0.29
404.243	0.26
404.448	0.23
404.653	0.21
404.858	0.25
405.063	0.26
405.268	0.2
405.473	0.22
405.678	0.24
405.883	0.4
406.088	0.3
406.293	0.18
406.498	0.2
406.703	0.33
406.907	0.28
407.112	0.22
407.317	0.27
407.522	0.31
407.727	0.19
407.932	0.27
408.136	0.36
408.341	0.32
408.546	0.33
408.751	0.32
408.956	0.33
409.16	0.41
409.365	0.33
409.57	0.35
409.774	0.35
409.979	0.43
410.184	0.38
410.388	0.3
410.593	0.38
410.798	0.4
411.002	0.37
411.207	0.44
411.411	0.42
411.616	0.45
411.82	0.47
412.025	0.48
412.229	0.47
412.434	0.55
412.638	0.5
412.843	0.49
413.047	0.51
413.252	0.48
413.456	0.54
413.66	0.55
413.865	0.57
414.069	0.7
414.273	0.57
414.478	0.61
414.682	0.66
414.886	0.66
415.091	0.6
415.295	0.64
415.499	0.77
415.703	0.71
415.908	0.8
416.112	0.66
416.316	0.83
416.52	0.8
416.724	0.88
416.929	0.8
417.133	1.05
417.337	0.95
417.541	0.97
417.745	0.99
417.949	1.05
418.153	1.09
418.357	1.11
418.561	1.21
418.765	1.18
418.969	1.32
419.173	1.34
419.377	1.3
419.581	1.44
419.785	1.43
419.989	1.39
420.193	1.55
420.397	1.55
420.601	1.67
420.804	1.72
421.008	1.66
421.212	1.83
421.416	1.83
421.62	1.8
421.823	1.79
422.027	1.95
422.231	1.9
422.435	1.9
422.638	1.99
422.842	1.99
423.046	2.06
423.249	2.16
423.453	2.25
423.657	2.3
423.86	2.32
424.064	2.47
424.268	2.51
424.471	2.45
424.675	2.67
424.878	2.66
425.082	2.71
425.285	2.94
425.489	2.87
425.692	2.9
425.896	2.93
426.099	3.02
426.303	3.08
426.506	3.11
426.71	3.32
426.913	3.47
427.116	3.54
427.32	3.5
427.523	3.59
427.726	3.84
427.93	3.83
428.133	3.96
428.336	4.06
428.54	4.16
428.743	4.25
428.946	4.35
429.149	4.32
429.353	4.49
429.556	4.54
429.759	4.5
429.962	4.5
430.165	4.79
430.368	4.53
430.571	4.49
430.775	4.55
430.978	4.55
431.181	4.59
431.384	4.69
431.587	4.67
431.79	4.88
431.993	4.89
432.196	4.99
432.399	5.21
432.602	5.35
432.805	5.35
433.008	5.67
433.211	5.57
433.414	5.81
433.616	5.88
433.819	5.82
434.022	5.88
434.225	6.03
434.428	6.1
434.631	6.34
434.833	6.15
435.036	6.29
435.239	6.44
435.442	6.51
435.645	6.58
435.847	6.76
436.05	6.87
436.253	7.01
436.455	6.87
436.658	6.86
436.861	7.15
437.063	7.1
437.266	7.22
437.468	7.36
437.671	7.6
437.874	7.61
438.076	7.44
438.279	7.72
438.481	7.74
438.684	8.18
438.886	8.05
439.089	8.18
439.291	8.34
439.494	8.46
439.696	8.58
439.899	8.97
440.101	9.14
440.303	9.15
440.506	9.77
440.708	9.52
440.91	9.78
441.113	9.91
441.315	9.99
441.517	9.91
441.72	10.27
441.922	10.03
442.124	9.97
442.326	10.25
442.529	10.49
442.731	10.41
442.933	10.76
443.135	10.52
443.337	10.57
443.539	10.84
443.742	10.63
443.944	11.11
444.146	10.96
444.348	10.94
444.55	10.92
444.752	11.18
444.954	11.01
445.156	11.09
445.358	11.4
445.56	11.5
445.762	11.52
445.964	11.65
446.166	11.52
446.368	11.42
446.57	11.56
446.772	11.31
446.974	11.22
447.175	11.46
447.377	11.27
447.579	11.49
447.781	11.36
447.983	11.25
448.184	10.99
448.386	11.27
448.588	10.77
448.79	10.92
448.991	11.23
449.193	11.1
449.395	10.78
449.597	10.53
449.798	10.52
450	10.3
450.202	10.2
450.403	10.26
450.605	10.21
450.806	9.85
451.008	9.75
451.21	9.73
451.411	9.37
451.613	8.95
451.814	9.1
452.016	9
452.217	8.5
452.419	8.64
452.62	8.39
452.821	8.26
453.023	8.14
453.224	7.87
453.426	7.66
453.627	7.09
453.828	7.24
454.03	7.27
454.231	7.16
454.432	7.09
454.634	7.04
454.835	6.71
455.036	6.62
455.238	6.44
455.439	6.37
455.64	6.1
455.841	6.02
456.042	6.15
456.244	5.92
456.445	5.7
456.646	5.43
456.847	5.46
457.048	5.36
457.249	5.37
457.45	5.37
457.651	4.87
457.852	4.71
458.054	4.57
458.255	4.54
458.456	4.64
458.657	4.52
458.858	4.32
459.058	4.2
459.259	4.32
459.46	4.03
459.661	4.06
459.862	4.17
460.063	3.97
460.264	3.9
460.465	3.73
460.666	3.87
460.866	3.62
461.067	3.46
461.268	3.48
461.469	3.46
461.67	3.38
461.87	3.3
462.071	3.3
462.272	3.26
462.473	3.22
462.673	3.31
462.874	3.22
463.075	3.2
463.275	3.2
463.476	3.21
463.676	3.19
463.877	3.12
464.078	3.1
464.278	3.18
464.479	3.09
464.679	3
464.88	3
465.08	2.97
465.281	2.79
465.481	2.77
465.682	2.65
465.882	2.65
466.083	2.55
466.283	2.6
466.483	2.47
466.684	2.3
466.884	2.23
467.085	2.27
467.285	2.32
467.485	2.25
467.686	2.15
467.886	2.16
468.086	2.1
468.286	2.08
468.487	2.21
468.687	2
468.887	2.01
469.087	2.11
469.287	2.06
469.488	1.9
469.688	2.03
469.888	1.99
470.088	1.97
470.288	1.9
470.488	1.92
470.688	1.78
470.888	1.75
471.088	1.66
471.288	1.76
471.488	1.67
471.688	1.74
471.888	1.67
472.088	1.75
472.288	1.71
472.488	1.62
472.688	1.57
472.888	1.65
473.088	1.59
473.288	1.54
473.488	1.51
473.688	1.68
473.887	1.54
474.087	1.49
474.287	1.51
474.487	1.48
474.687	1.47
474.886	1.46
475.086	1.44
475.286	1.44
475.486	1.43
475.685	1.31
475.885	1.33
476.085	1.38
476.284	1.38
476.484	1.32
476.684	1.34
476.883	1.44
477.083	1.36
477.282	1.31
477.482	1.31
477.681	1.31
477.881	1.29
478.08	1.28
478.28	1.25
478.479	1.32
478.679	1.38
478.878	1.26
479.078	1.24
479.277	1.26
479.477	1.26
479.676	1.23
479.875	1.22
480.075	1.17
480.274	1.23
480.473	1.29
480.673	1.21
480.872	1.29
481.071	1.24
481.271	1.24
481.47	1.24
481.669	1.21
481.868	1.19
482.067	1.21
482.267	1.17
482.466	1.14
482.665	1.15
482.864	1.19
483.063	1.16
483.262	1.23
483.461	1.26
483.661	1.28
483.86	1.22
484.059	1.24
484.258	1.27
484.457	1.19
484.656	1.24
484.855	1.3
485.054	1.15
485.253	1.17
485.452	1.16
485.651	1.26
485.849	1.22
486.048	1.21
486.247	1.24
486.446	1.28
486.645	1.21
486.844	1.23
487.043	1.24
487.241	1.27
487.44	1.25
487.639	1.31
487.838	1.3
488.037	1.3
488.235	1.38
488.434	1.31
488.633	1.22
488.831	1.38
489.03	1.38
489.229	1.35
489.427	1.34
489.626	1.39
489.825	1.4
490.023	1.44
490.222	1.37
490.42	1.43
490.619	1.44
490.817	1.45
491.016	1.43
491.214	1.54
491.413	1.52
491.611	1.45
491.81	1.46
492.008	1.5
492.207	1.57
492.405	1.55
492.604	1.5
492.802	1.58
493	1.61
493.199	1.59
493.397	1.61
493.595	1.68
493.794	1.62
493.992	1.72
494.19	1.68
494.388	1.71
494.587	1.69
494.785	1.74
494.983	1.66
495.181	1.77
495.379	1.79
495.578	1.8
495.776	1.85
495.974	1.81
496.172	1.83
496.37	1.92
496.568	1.89
496.766	1.88
496.964	1.97
497.162	1.97
497.36	1.99
497.558	2.02
497.756	2.06
497.954	2.02
498.152	2.08
498.35	2.15
498.548	2.07
498.746	2.15
498.944	2.11
499.142	2.13
499.34	2.13
499.538	2.27
499.736	2.14
499.933	2.29
500.131	2.24
500.329	2.33
500.527	2.3
500.725	2.43
500.922	2.43
501.12	2.38
501.318	2.44
501.516	2.42
501.713	2.54
501.911	2.52
502.109	2.46
502.306	2.54
502.504	2.49
502.701	2.56
502.899	2.58
503.097	2.73
503.294	2.64
503.492	2.71
503.689	2.71
503.887	2.74
504.084	2.83
504.282	2.77
504.479	2.72
504.677	2.85
504.874	2.79
505.072	2.79
505.269	2.91
505.466	2.94
505.664	2.93
505.861	2.9
506.059	2.94
506.256	3
506.453	2.98
506.651	3.09
506.848	3.15
507.045	3.1
507.242	3.12
507.44	3.13
507.637	3.2
507.834	3.13
508.031	3.25
508.229	3.18
508.426	3.21
508.623	3.29
508.82	3.3
509.017	3.29
509.214	3.27
509.411	3.39
509.608	3.32
509.805	3.41
510.003	3.43
510.2	3.45
510.397	3.54
510.594	3.47
510.791	3.55
510.988	3.57
511.184	3.53
511.381	3.44
511.578	3.57
511.775	3.68
511.972	3.58
512.169	3.61
512.366	3.66
512.563	3.75
512.76	3.72
512.956	3.77
513.153	3.7
513.35	3.72
513.547	3.71
513.744	3.76
513.94	3.78
514.137	3.87
514.334	3.8
514.53	3.89
514.727	3.97
514.924	4
515.12	3.92
515.317	3.96
515.514	3.92
515.71	3.9
515.907	4.01
516.103	4.01
516.3	3.98
516.497	4.1
516.693	4.12
516.89	4.05
517.086	4.07
517.283	4.19
517.479	4.06
517.676	4.18
517.872	4.17
518.068	4.16
518.265	4.14
518.461	4.1
518.658	4.24
518.854	4.24
519.05	4.28
519.247	4.26
519.443	4.27
519.639	4.32
519.836	4.31
520.032	4.24
520.228	4.33
520.424	4.36
520.621	4.4
520.817	4.42
521.013	4.36
521.209	4.47
521.405	4.47
521.601	4.4
521.798	4.39
521.994	4.44
522.19	4.36
522.386	4.43
522.582	4.49
522.778	4.54
522.974	4.47
523.17	4.47
523.366	4.48
523.562	4.52
523.758	4.55
523.954	4.42
524.15	4.55
524.346	4.58
524.542	4.56
524.738	4.53
524.934	4.65
525.129	4.59
525.325	4.55
525.521	4.56
525.717	4.71
525.913	4.59
526.109	4.58
526.304	4.71
526.5	4.65
526.696	4.69
526.892	4.65
527.087	4.79
527.283	4.71
527.479	4.76
527.674	4.58
527.87	4.74
528.066	4.71
528.261	4.75
528.457	4.64
528.653	4.82
528.848	4.79
529.044	4.85
529.239	4.72
529.435	4.71
529.63	4.73
529.826	4.77
530.021	4.76
530.217	4.83
530.412	4.75
530.608	4.79
530.803	4.76
530.999	4.7
531.194	4.78
531.389	4.83
531.585	4.82
531.78	4.91
531.975	4.8
532.171	4.92
532.366	4.79
532.561	4.87
532.757	4.84
532.952	4.93
533.147	4.77
533.342	4.88
533.538	4.84
533.733	4.97
533.928	4.75
534.123	4.89
534.318	4.92
534.513	4.87
534.709	4.98
534.904	4.9
535.099	4.94
535.294	4.94
535.489	5.01
535.684	4.9
535.879	4.88
536.074	4.99
536.269	4.92
536.464	5.01
536.659	4.92
536.854	4.93
537.049	5.02
537.244	5
537.439	4.95
537.634	4.98
537.828	4.98
538.023	5
538.218	4.95
538.413	4.89
538.608	4.91
538.803	4.98
538.997	4.93
539.192	4.97
539.387	4.97
539.582	4.98
539.776	4.91
539.971	5
540.166	5.04
540.36	4.94
540.555	5.09
540.75	5.02
540.944	5.04
541.139	5.01
541.334	5
541.528	5.02
541.723	5.11
541.917	5.06
542.112	4.98
542.306	4.96
542.501	4.99
542.695	5.02
542.89	4.97
543.084	4.99
543.279	5.04
543.473	5.08
543.668	5.05
543.862	4.92
544.056	4.98
544.251	5.09
544.445	5.1
544.64	5.13
544.834	4.87
545.028	4.8
545.222	5.04
545.417	5.18
545.611	5.1
545.805	5.03
546	4.95
546.194	5.05
546.388	5.1
546.582	4.99
546.776	4.99
546.97	5.03
547.165	5.02
547.359	5.02
547.553	4.98
547.747	5.04
547.941	5.14
548.135	5.01
548.329	5.1
548.523	5.06
548.717	5
548.911	5.03
549.105	5.01
549.299	5.1
549.493	5.07
549.687	5
549.881	5.13
550.075	5.07
550.269	4.98
550.463	5.09
550.657	5.1
550.85	5.03
551.044	5.03
551.238	5.14
551.432	5.01
551.626	5.13
551.82	5.11
552.013	4.99
552.207	5.12
552.401	5.11
552.594	5.05
552.788	5.04
552.982	5.01
553.176	5.01
553.369	5.2
553.563	5.12
553.756	5.08
553.95	5.14
554.144	5.07
554.337	5.1
554.531	4.99
554.724	5.09
554.918	5.15
555.111	5.07
555.305	5.08
555.498	5.06
555.692	5.15
555.885	5.07
556.079	5.07
556.272	5.07
556.466	5.08
556.659	5.01
556.852	5.12
557.046	5.04
557.239	5
557.432	5.05
557.626	5.12
557.819	5.15
558.012	5.13
558.206	5.15
558.399	5.1
558.592	5.05
558.785	5.01
558.979	5.06
559.172	5.06
559.365	5.08
559.558	5.04
559.751	5.01
559.944	5.19
560.138	5.05
560.331	5.08
560.524	5.06
560.717	5.1
560.91	5.06
561.103	5.07
561.296	4.98
561.489	5.12
561.682	5.18
561.875	5.09
562.068	5.1
562.261	5.06
562.454	5.17
562.647	5.06
562.84	5.07
563.032	5.11
563.225	5.03
563.418	5.06
563.611	5.09
563.804	5.14
563.997	5.01
564.19	4.88
564.382	5.08
564.575	5.06
564.768	5.06
564.961	5.1
565.153	5.02
565.346	5.02
565.539	5.17
565.731	5.07
565.924	5.12
566.117	5.16
566.309	5.08
566.502	5.02
566.695	5.05
566.887	5.07
567.08	5.02
567.272	5.1
567.465	4.99
567.657	5.14
567.85	5.04
568.042	5.08
568.235	5.12
568.427	4.95
568.62	5.07
568.812	5.01
569.005	5.04
569.197	4.93
569.389	5.09
569.582	5.07
569.774	5.09
569.966	4.99
570.159	4.95
570.351	5.01
570.543	5.03
570.736	5.06
570.928	4.93
571.12	5.02
571.312	5.05
571.505	4.85
571.697	5.06
571.889	5.01
572.081	5.04
572.273	4.91
572.465	5.01
572.658	5.05
572.85	5.04
573.042	5.08
573.234	4.96
573.426	5.04
573.618	4.99
573.81	5.06
574.002	4.99
574.194	4.99
574.386	4.99
574.578	4.85
574.77	4.97
574.962	5.01
575.154	4.88
575.346	4.96
575.538	4.94
575.729	4.94
575.921	5.02
576.113	4.99
576.305	4.94
576.497	5.01
576.689	4.87
576.88	4.86
577.072	5.03
577.264	4.91
577.456	5
577.647	4.91
577.839	5.01
578.031	4.98
578.223	4.88
578.414	4.87
578.606	4.94
578.798	4.92
578.989	4.91
579.181	4.98
579.372	4.93
579.564	4.9
579.755	4.88
579.947	4.84
580.139	4.94
580.33	4.81
580.522	4.91
580.713	4.83
580.905	4.85
581.096	4.97
581.287	4.89
581.479	4.86
581.67	4.93
581.862	4.83
582.053	4.88
582.244	4.74
582.436	4.9
582.627	4.78
582.818	4.83
583.01	4.78
583.201	4.89
583.392	4.81
583.583	4.77
583.775	4.72
583.966	4.75
584.157	4.82
584.348	4.84
584.54	4.71
584.731	4.77
584.922	4.71
585.113	4.62
585.304	4.82
585.495	4.74
585.686	4.8
585.877	4.79
586.068	4.79
586.259	4.74
586.45	4.72
586.641	4.76
586.832	4.78
587.023	4.73
587.214	4.7
587.405	4.8
587.596	4.65
587.787	4.72
587.978	4.65
588.169	4.62
588.36	4.65
588.551	4.65
588.742	4.67
588.932	4.74
589.123	4.56
589.314	4.72
589.505	4.63
589.696	4.64
589.886	4.59
590.077	4.64
590.268	4.59
590.458	4.55
590.649	4.45
590.84	4.64
591.03	4.53
591.221	4.59
591.412	4.5
591.602	4.6
591.793	4.62
591.984	4.53
592.174	4.55
592.365	4.6
592.555	4.47
592.746	4.46
592.936	4.52
593.127	4.51
593.317	4.54
593.508	4.55
593.698	4.45
593.889	4.5
594.079	4.48
594.269	4.39
594.46	4.41
594.65	4.44
594.84	4.46
595.031	4.38
595.221	4.45
595.411	4.38
595.602	4.45
595.792	4.35
595.982	4.31
596.172	4.47
596.363	4.32
596.553	4.37
596.743	4.33
596.933	4.41
597.123	4.35
597.314	4.27
597.504	4.23
597.694	4.36
597.884	4.3
598.074	4.32
598.264	4.27
598.454	4.28
598.644	4.24
598.834	4.28
599.024	4.16
599.214	4.21
599.404	4.3
599.594	4.22
599.784	4.13
599.974	4.3
600.164	4.18
600.354	4.18
600.544	4.15
600.734	4.17
600.924	4.12
601.114	4.11
601.303	4.09
601.493	4.13
601.683	4.11
601.873	4.1
602.063	4.09
602.252	4.09
602.442	4.01
602.632	4
602.821	4.01
603.011	4.12
603.201	3.99
603.39	3.99
603.58	3.96
603.77	3.98
603.959	4.04
604.149	3.97
604.339	4.01
604.528	4.03
604.718	4.01
604.907	3.95
605.097	3.92
605.286	3.91
605.476	3.97
605.665	3.95
605.855	3.82
606.044	4
606.234	3.89
606.423	3.92
606.612	3.89
606.802	3.86
606.991	3.88
607.181	3.83
607.37	3.87
607.559	3.73
607.749	3.8
607.938	3.75
608.127	3.84
608.316	3.78
608.506	3.76
608.695	3.8
608.884	3.76
609.073	3.73
609.263	3.8
609.452	3.77
609.641	3.67
609.83	3.64
610.019	3.75
610.208	3.7
610.397	3.64
610.586	3.71
610.775	3.63
610.965	3.62
611.154	3.6
611.343	3.67
611.532	3.58
611.721	3.64
611.91	3.59
612.099	3.57
612.287	3.56
612.476	3.47
612.665	3.63
612.854	3.5
613.043	3.6
613.232	3.47
613.421	3.5
613.61	3.49
613.798	3.48
613.987	3.53
614.176	3.48
614.365	3.56
614.554	3.47
614.742	3.49
614.931	3.36
615.12	3.51
615.309	3.46
615.497	3.36
615.686	3.39
615.875	3.41
616.063	3.32
616.252	3.37
616.44	3.37
616.629	3.34
616.818	3.36
617.006	3.31
617.195	3.27
617.383	3.33
617.572	3.21
617.76	3.22
617.949	3.28
618.137	3.31
618.326	3.33
618.514	3.15
618.703	3.12
618.891	3.28
619.079	3.14
619.268	3.24
619.456	3.13
619.644	3.28
619.833	3.17
620.021	3.07
620.209	3.09
620.398	3.17
620.586	3.06
620.774	3.13
620.962	3.14
621.151	3.21
621.339	3.08
621.527	2.96
621.715	3.07
621.903	3.04
622.092	2.91
622.28	3.1
622.468	2.94
622.656	3.02
622.844	2.96
623.032	3.05
623.22	2.94
623.408	3.03
623.596	2.96
623.784	2.96
623.972	2.87
624.16	2.89
624.348	2.97
624.536	2.97
624.724	2.87
624.912	2.99
625.1	2.9
625.288	2.87
625.476	2.8
625.664	2.89
625.851	2.85
626.039	2.85
626.227	2.79
626.415	2.84
626.603	2.71
626.79	2.84
626.978	2.79
627.166	2.83
627.354	2.72
627.541	2.76
627.729	2.65
627.917	2.85
628.104	2.78
628.292	2.68
628.48	2.71
628.667	2.7
628.855	2.74
629.042	2.69
629.23	2.64
629.418	2.65
629.605	2.64
629.793	2.59
629.98	2.61
630.168	2.6
630.355	2.66
630.543	2.61
630.73	2.54
630.917	2.56
631.105	2.68
631.292	2.54
631.48	2.55
631.667	2.66
631.854	2.55
632.042	2.45
632.229	2.44
632.416	2.58
632.604	2.49
632.791	2.36
632.978	2.52
633.165	2.45
633.353	2.51
633.54	2.55
633.727	2.35
633.914	2.39
634.101	2.3
634.289	2.46
634.476	2.37
634.663	2.37
634.85	2.41
635.037	2.32
635.224	2.27
635.411	2.35
635.598	2.33
635.785	2.32
635.972	2.28
636.159	2.34
636.346	2.26
636.533	2.31
636.72	2.21
636.907	2.24
637.094	2.25
637.281	2.19
637.468	2.28
637.655	2.21
637.842	2.24
638.029	2.21
638.215	2.18
638.402	2.18
638.589	2.13
638.776	2.14
638.963	2.11
639.149	2.24
639.336	2.22
639.523	2.17
639.709	2.1
639.896	2.09
640.083	2.13
640.27	2.15
640.456	2.03
640.643	2.11
640.829	1.99
641.016	2.02
641.203	1.99
641.389	2.03
641.576	2.04
641.762	2.03
641.949	1.99
642.135	2.05
642.322	2
642.508	1.91
642.695	1.99
642.881	1.94
643.068	1.9
643.254	1.93
643.441	1.99
643.627	1.98
643.813	1.92
644	1.96
644.186	1.84
644.372	1.89
644.559	1.95
644.745	1.87
644.931	1.83
645.118	1.89
645.304	1.89
645.49	1.83
645.676	1.82
645.862	1.82
646.049	1.9
646.235	1.83
646.421	1.94
646.607	1.9
646.793	1.77
646.979	1.75
647.165	1.8
647.352	1.82
647.538	1.79
647.724	1.77
647.91	1.7
648.096	1.82
648.282	1.79
648.468	1.7
648.654	1.71
648.84	1.75
649.026	1.74
649.212	1.65
649.397	1.64
649.583	1.66
649.769	1.71
649.955	1.65
650.141	1.69
650.327	1.69
650.513	1.57
650.698	1.59
650.884	1.58
651.07	1.63
651.256	1.64
651.442	1.62
651.627	1.58
651.813	1.62
651.999	1.6
652.184	1.59
652.37	1.59
652.556	1.56
652.741	1.58
652.927	1.47
653.113	1.54
653.298	1.53
653.484	1.49
653.669	1.48
653.855	1.5
654.04	1.52
654.226	1.52
654.412	1.47
654.597	1.39
654.782	1.53
654.968	1.54
655.153	1.48
655.339	1.43
655.524	1.4
655.71	1.49
655.895	1.41
656.08	1.42
656.266	1.48
656.451	1.47
656.636	1.4
656.822	1.44
657.007	1.38
657.192	1.45
657.378	1.37
657.563	1.35
657.748	1.37
657.933	1.42
658.118	1.28
658.304	1.35
658.489	1.4
658.674	1.33
658.859	1.3
659.044	1.33
659.229	1.35
659.414	1.28
659.599	1.29
659.785	1.27
659.97	1.34
660.155	1.35
660.34	1.34
660.525	1.23
660.71	1.26
660.895	1.32
661.08	1.22
661.264	1.24
661.449	1.35
661.634	1.28
661.819	1.27
662.004	1.27
662.189	1.2
662.374	1.23
662.559	1.18
662.743	1.15
662.928	1.21
663.113	1.14
663.298	1.15
663.483	1.18
663.667	1.21
663.852	1.15
664.037	1.19
664.221	1.19
664.406	1.23
664.591	1.2
664.775	1.21
664.96	1.1
665.145	1.15
665.329	1.19
665.514	1.13
665.698	1.08
665.883	1.06
666.068	1.17
666.252	1.1
666.437	1.11
666.621	1.1
666.806	1.12
666.99	1.09
667.174	1.04
667.359	1.12
667.543	1.13
667.728	1.07
667.912	0.98
668.096	1.09
668.281	1.01
668.465	1.09
668.649	1.06
668.834	0.97
669.018	1.04
669.202	1.04
669.387	0.95
669.571	1.1
669.755	0.99
669.939	1.01
670.124	1.01
670.308	1.03
670.492	1.05
670.676	1
670.86	0.99
671.044	0.91
671.228	1.04
671.413	1
671.597	0.97
671.781	0.92
671.965	0.99
672.149	0.96
672.333	0.97
672.517	0.93
672.701	0.94
672.885	0.94
673.069	0.9
673.253	1.02
673.437	0.92
673.621	0.88
673.804	0.9
673.988	0.92
674.172	0.88
674.356	0.88
674.54	0.9
674.724	1
674.908	0.87
675.091	0.95
675.275	0.85
675.459	0.91
675.643	0.93
675.826	0.92
676.01	0.89
676.194	0.85
676.377	0.86
676.561	0.89
676.745	0.87
676.928	0.9
677.112	0.91
677.296	0.82
677.479	0.82
677.663	0.84
677.846	0.9
678.03	0.83
678.213	0.76
678.397	0.83
678.58	0.87
678.764	0.84
678.947	0.77
679.131	0.76
679.314	0.82
679.498	0.82
679.681	0.84
679.865	0.88
680.048	0.81
680.231	0.78
680.415	0.73
680.598	0.8
680.781	0.78
680.965	0.77
681.148	0.75
681.331	0.79
681.514	0.76
681.698	0.69
681.881	0.74
682.064	0.75
682.247	0.75
682.43	0.69
682.614	0.76
682.797	0.81
682.98	0.79
683.163	0.66
683.346	0.78
683.529	0.66
683.712	0.64
683.895	0.75
684.078	0.61
684.261	0.68
684.444	0.74
684.627	0.75
684.81	0.73
684.993	0.72
685.176	0.72
685.359	0.67
685.542	0.7
685.725	0.8
685.908	0.66
686.091	0.65
686.274	0.73
686.457	0.66
686.639	0.69
686.822	0.75
687.005	0.65
687.188	0.71
687.371	0.76
687.553	0.72
687.736	0.66
687.919	0.75
688.102	0.72
688.284	0.65
688.467	0.7
688.65	0.63
688.832	0.55
689.015	0.6
689.197	0.6
689.38	0.73
689.563	0.72
689.745	0.64
689.928	0.62
690.11	0.64
690.293	0.7
690.475	0.53
690.658	0.64
690.84	0.63
691.023	0.62
691.205	0.62
691.388	0.64
691.57	0.63
691.752	0.64
691.935	0.5
692.117	0.55
692.3	0.6
692.482	0.58
692.664	0.52
692.847	0.63
693.029	0.62
693.211	0.65
693.393	0.54
693.576	0.54
693.758	0.58
693.94	0.54
694.122	0.54
694.304	0.56
694.487	0.54
694.669	0.64
694.851	0.54
695.033	0.6
695.215	0.55
695.397	0.52
695.579	0.58
695.761	0.47
695.943	0.52
696.125	0.61
696.308	0.58
696.49	0.44
696.671	0.68
696.853	0.44
697.035	0.7
697.217	0.48
697.399	0.58
697.581	0.49
697.763	0.55
697.945	0.48
698.127	0.51
698.309	0.62
698.491	0.55
698.672	0.58
698.854	0.58
699.036	0.56
699.218	0.42
699.399	0.55
699.581	0.6
699.763	0.46
699.945	0.45
700.126	0.45
700.308	0.51
700.49	0.43
700.671	0.38
700.853	0.42
701.035	0.47
701.216	0.45
701.398	0.43
701.579	0.45
701.761	0.54
701.943	0.38
702.124	0.38
702.306	0.49
702.487	0.57
702.669	0.43
702.85	0.42
703.031	0.38
703.213	0.52
703.394	0.53
703.576	0.42
703.757	0.59
703.938	0.59
704.12	0.65
704.301	0.48
704.483	0.4
704.664	0.44
704.845	0.58
705.026	0.49
705.208	0.39
705.389	0.49
705.57	0.46
705.751	0.44
705.933	0.46
706.114	0.49
706.295	0.5
706.476	0.39
706.657	0.57
706.838	0.49
707.02	0.53
707.201	0.39
707.382	0.36
707.563	0.42
707.744	0.41
707.925	0.38
708.106	0.39
708.287	0.4
708.468	0.47
708.649	0.42
708.83	0.48
709.011	0.35
709.192	0.46
709.373	0.35
709.554	0.36
709.734	0.48
709.915	0.4
710.096	0.41
710.277	0.29
710.458	0.44
710.639	0.47
710.819	0.28
711	0.4
711.181	0.51
711.362	0.45
711.542	0.41
711.723	0.41
711.904	0.42
712.085	0.43
712.265	0.39
712.446	0.32
712.627	0.32
712.807	0.42
712.988	0.42
713.168	0.3
713.349	0.36
713.53	0.16
713.71	0.31
713.891	0.27
714.071	0.36
714.252	0.29
714.432	0.24
714.613	0.25
714.793	0.33
714.974	0.49
715.154	0.45
715.334	0.42
715.515	0.49
715.695	0.29
715.876	0.41
716.056	0.36
716.236	0.35
716.417	0.38
716.597	0.33
716.777	0.56
716.957	0.28
717.138	0.38
717.318	0.39
717.498	0.29
717.678	0.37
717.859	0.4
718.039	0.28
718.219	0.39
718.399	0.42
718.579	0.26
718.759	0.25
718.939	0.36
719.12	0.36
719.3	0.35
719.48	0.16
719.66	0.24
719.84	0.41
720.02	0.35
720.2	0.23
720.38	0.36
720.56	0.43
720.74	0.22
720.92	0.34
721.1	0.5
721.279	0.35
721.459	0.25
721.639	0.3
721.819	0.29
721.999	0.29
722.179	0.37
722.359	0.28
722.538	0.26
722.718	0.31
722.898	0.25
723.078	0.29
723.257	0.25
723.437	0.27
723.617	0.35
723.797	0.21
723.976	0.3
724.156	0.36
724.336	0.42
724.515	0.5
724.695	0.18
724.874	0.35
725.054	0.38
725.234	0.27
725.413	0.36
725.593	0.33
725.772	0.27
725.952	0.35
726.131	0.24
726.311	0.27
726.49	0.3
726.67	0.25
726.849	0.26
727.028	0.34
727.208	0.27
727.387	0.35
727.567	0.19
727.746	0.33
727.925	0.27
728.105	0.23
728.284	0.31
728.463	0.2
728.643	0.36
728.822	0.21
729.001	0.2
729.18	0.29
729.359	0.42
729.539	0.31
729.718	0.33
729.897	0.37
730.076	0.3
730.255	0.17
730.434	0.3
730.614	0.31
730.793	0.4
730.972	0.31
731.151	0.24
731.33	0.4
731.509	0.34
731.688	0.26
731.867	0.31
732.046	0.08
732.225	0.47
732.404	0.2
732.583	0.19
732.762	0.27
732.941	0.39
733.12	0.25
733.298	0.22
733.477	0.41
733.656	0.28
733.835	0.18
734.014	0.36
734.193	0.29
734.371	0.43
734.55	0.34
734.729	0.14
734.908	0.34
735.086	0.26
735.265	0.39
735.444	0.07
735.623	0.23
735.801	0.25
735.98	0.3
736.159	0.35
736.337	0.43
736.516	0.37
736.694	0.32
736.873	0.21
737.052	0.43
737.23	0.41
737.409	0.27
737.587	0.45
737.766	0.27
737.944	0.14
738.123	0.33
738.301	0.28
738.479	0.28
738.658	0.32
738.836	-0.02
739.015	0.37
739.193	0.38
739.371	0.16
739.55	0.27
739.728	0.13
739.906	0.38
740.085	0.46
740.263	0.34
740.441	0.12
740.62	0.36
740.798	0.24
740.976	0.18
741.154	0.12
741.332	0.42
741.511	0.26
741.689	0.38
741.867	0.31
742.045	0.33
742.223	0.19
742.401	0.09
742.579	0.23
742.757	0.38
742.935	0.17
743.114	0.25
743.292	0.22
743.47	0.26
743.648	0.35
743.826	0.18
744.004	0.34
744.181	0.45
744.359	0.26
744.537	0.29
744.715	0.23
744.893	0.22
745.071	0.31
745.249	0.13
745.427	0.35
745.605	0.25
745.782	0.28
745.96	0.3
746.138	0.35
746.316	0.39
746.493	0.23
746.671	0.32
746.849	0.25
747.027	0.35
747.204	0.21
747.382	0.32
747.56	0.05
747.737	0.3
747.915	0.17
748.093	0.32
748.27	0.11
748.448	0.18
748.625	0.05
748.803	0.19
748.98	0.12
749.158	0.35
749.335	0.27
749.513	0.21
749.69	0.26
749.868	0.3
750.045	0.28
750.223	0.16
750.4	0.1
750.578	0.37
750.755	0.18
750.932	0.19
751.11	0.36
751.287	0.16
751.464	0.4
751.642	0.14
751.819	0.18
751.996	0.33
752.173	0.09
752.351	0.02
752.528	0.18
752.705	0.3
752.882	0.17
753.06	0.19
753.237	0.2
753.414	0.41
753.591	0.43
753.768	0.3
753.945	0.15
754.122	0.18
754.299	0.36
754.476	0.04
754.654	0.23
754.831	0.18
755.008	0.18
755.185	0.18
755.362	0.1
755.539	0.26
755.716	0.17
755.892	0.12
756.069	0.31
756.246	0.21
756.423	0.12
756.6	0.34
756.777	0.1
756.954	0.36
757.131	0.12
757.307	0.17
757.484	0.11
757.661	0.23
757.838	0.26
758.015	0.1
758.191	0.24
758.368	0.28
758.545	0.41
758.721	0.24
758.898	0.16
759.075	0.16
759.251	0.41
759.428	0.18
759.605	0.09
759.781	0.2
759.958	0.23
760.134	0.21
760.311	0.14
760.488	0.32
760.664	0.43
760.841	0.13
761.017	0.13
761.194	0.18
761.37	0.42
761.547	0.23
761.723	0.2
761.899	0.42
762.076	0.15
762.252	0.06
762.429	0.16
762.605	0.26
762.781	0.14
762.958	0.2
763.134	0.24
763.31	0.09
763.486	0.38
763.663	-0.05
763.839	0.22
764.015	0.09
764.191	0.03
764.368	0.14
764.544	0.18
764.72	0.23
764.896	0.32
765.072	0.3
765.248	0.12
765.425	0.19
765.601	0.21
765.777	0.24
765.953	-0.02
766.129	-0.02
766.305	0.24
766.481	0.3
766.657	0.25
766.833	0.33
767.009	0.11
767.185	0.2
767.361	0.06
767.537	-0.02
767.713	0.39
767.889	0.09
768.065	0.15
768.24	0.12
768.416	0.27
768.592	0.19
768.768	0.14
768.944	0.22
769.12	0.05
769.295	0.13
769.471	0.19
769.647	0.13
769.823	0.34
769.998	0.11
770.174	-0.05
770.35	0.62
770.525	0.55
770.701	0.22
770.877	0.25
771.052	0.15
771.228	0.43
771.403	0.3
771.579	0.13
771.755	0.62
771.93	0.19
772.106	0.1
772.281	-0.04
772.457	0.28
772.632	0.22
772.808	0.07
772.983	0.17
773.159	0.03
773.334	0.36
773.509	0.22
773.685	0.15
773.86	0.57
774.036	0.45
774.211	0.3
774.386	0.18
774.562	0.28
774.737	0.31
774.912	0.11
775.087	0.37
775.263	0.19
775.438	0.05
775.613	-0.08
775.788	0.11
775.964	0.5
776.139	0.63
776.314	-0.07
776.489	0.06
776.664	0.29
776.839	0.06
777.014	0.4
777.19	0.35
777.365	0.4
777.54	0.57
777.715	0.04
777.89	0.18
778.065	0.04
778.24	0.17
778.415	0.31
778.59	-0.03
778.765	0.11
778.94	0.26
779.115	0.22
779.289	0.14
779.464	0.19
779.639	0.22
779.814	-0.03
779.989	-0.01
780.164	0.42
780.339	0.27
780.513	0.12
780.688	-0.06
780.863	0.27
781.038	0.34
781.212	-0.05
781.387	0.41
781.562	0.38
781.737	0.15
781.911	0.34
782.086	-0.01
782.261	0.33
782.435	0.42
782.61	0.11
782.784	0.21
782.959	0.63
783.134	0.07
783.308	0
783.483	0.08
783.657	0.73
783.832	0.56
784.006	-0.05
784.181	0.39
784.355	0.28
784.53	0.01
784.704	0.15
784.878	0.46
785.053	0.47
785.227	0.65
785.402	0.62
785.576	0.06
785.75	0.17
785.925	0.39
786.099	0.21
786.273	0.44
786.448	0.38
786.622	0.26
786.796	0.15
786.97	0.05
787.145	0.6
787.319	-0.18
787.493	0.07
787.667	-0.09
787.841	0.15
788.015	0.47
788.19	0.07
788.364	0.28
788.538	0.41
788.712	0.35
788.886	0.27
789.06	0.64
789.234	0.36
789.408	-0
789.582	0.22
789.756	0.23
789.93	-0.12
790.104	0.2
790.278	0.02
790.452	0.1
790.626	0.32
790.8	-0
790.973	0.38
791.147	0.41
791.321	0.51
791.495	0.53
791.669	0.34
791.843	0.45
792.016	0.18
792.19	0.74
792.364	-0.01
792.538	0.76
792.711	0.41
792.885	0.14
793.059	-0.02
793.233	0.08
793.406	0.37
793.58	0.42
793.754	0.35
793.927	-0.12
794.101	0.67
794.274	0.19
794.448	0.26
794.622	0.07
794.795	0.77
794.969	-0.08
795.142	0.71
795.316	0.03
795.489	0.12
795.663	0.8
795.836	0.24
796.009	0.01
796.183	0.69
796.356	0.56
796.53	0.43
796.703	0.21
796.876	0.95
797.05	0.09
797.223	0.04
797.396	0.56
797.57	0.13
797.743	0.65
797.916	0.24
798.09	0.35
798.263	0.29
798.436	0.58
798.609	0.22
798.782	0.24
798.956	0.27
799.129	0.37
799.302	0.12
799.475	-0.03
799.648	0.08
799.821	0.13
799.994	0.31
800.167	0.07
800.34	0.49
800.514	0.46
800.687	0.1
800.86	0.22
801.033	0.07
801.206	0.46
801.379	-0.01
801.551	0.71
801.724	0.25
801.897	0.71
802.07	0.09
802.243	-0.34
802.416	0.44
802.589	0.12
802.762	0.51
802.935	0.04
803.107	0.43
803.28	0.44
803.453	0.43
803.626	0.39
803.798	0.11
803.971	0.32
804.144	0.62
804.317	0.23
804.489	0.58
804.662	0.38
804.835	0.49
805.007	-0.04
805.18	0.88
805.353	0.27
805.525	0.11
805.698	0.26
805.87	0.53
806.043	0.48
806.215	0.08
806.388	0.03
806.56	0.32
806.733	0.46
806.905	0.45
807.078	-0.1
807.25	0.1
807.423	0.52
807.595	0.31
807.768	0.15
807.94	0.49
808.112	0.82
808.285	0.16
808.457	0.11
808.629	0.23
808.802	0.47
808.974	0.44
809.146	0.25
809.318	0.11
809.491	0
809.663	0.61
809.835	-0.23
810.007	0.42
810.18	0.21
810.352	-0.04
810.524	-0.1
810.696	0.35
810.868	0.93
811.04	0.28
811.212	-0.01
811.384	0.77
811.556	0.55
811.728	0.19
811.901	1.07
812.073	0.17
812.245	0.62
812.417	0.27
812.589	-0.26
812.76	0.55
812.932	0.19
813.104	0.55
813.276	0.23
813.448	0.7
813.62	0.33
813.792	0.39
813.964	0.27
814.136	0.59
814.307	0.17
814.479	-0.1
814.651	0.43
814.823	1.22
814.995	0.43
815.166	0.17
815.338	-0.07
815.51	-0.05
815.681	1.53
815.853	0.11
816.025	-0.08
816.196	1.02
816.368	0.79
816.54	0
816.711	-0.14
816.883	0.7
817.054	1.15
817.226	-0.51
817.398	0.24
817.569	0.2
817.741	0.73
817.912	0.5
818.084	-0.03
818.255	0.57
818.426	-0.09
818.598	0.19
818.769	-0.17
818.941	0.88
819.112	0.78
819.283	0.53
819.455	0.21
819.626	0.25
819.798	0.38
819.969	0.29
820.14	0.37
820.311	0.25
820.483	0.72
820.654	0.66
820.825	0.37
820.996	0.08
821.168	0.01
821.339	0.32
821.51	0.09
821.681	0.25
821.852	0.35
822.023	0.18
822.195	-0.1
822.366	0.9
822.537	0.07
822.708	0.46
822.879	0.01
823.05	0.66
823.221	0.38
823.392	0.72
823.563	0.57
823.734	0.08
823.905	0.25
824.076	0.18
824.247	-0.11
824.418	0.07
824.589	0.95
824.759	0.16
824.93	0.02
825.101	0.13
825.272	0.99
825.443	0.77
825.614	0.9
825.784	-0.33
825.955	1.64
826.126	0.89
826.297	1.12
826.467	0.68
826.638	1.78
826.809	-0.62
826.98	0.68
827.15	0.81
827.321	0.84
827.492	1.29
827.662	0.48
827.833	1.55
828.003	1.02
828.174	-0.15
828.345	-0.7
828.515	1.49
828.686	1.02
828.856	0.41
829.027	0.58
829.197	0.47
829.368	0.79
829.538	-0.54
829.709	0.24
829.879	0.54
830.049	0.57
830.22	-0.05
830.39	-0.04
830.56	0.74
830.731	-0.01
830.901	0
831.072	0.29
831.242	0.72
831.412	0.61
831.582	0.7
831.753	-0.55
831.923	0.97
832.093	0.81
832.263	0.5
832.434	-0.45
832.604	0.17
832.774	1.19
832.944	0.3
833.114	0.14
833.284	0.68
833.454	0.12
833.624	0.37
833.795	0.32
833.965	1.17
834.135	1.14
834.305	-0.6
834.475	0.01
834.645	0.39
834.815	0.52
834.985	-0.79
835.155	-0.15
835.325	0.74
835.494	0.67
835.664	0.3
835.834	-0.97
836.004	0.6
836.174	0.71
836.344	0.23
836.514	-0.5
836.684	-0.54
836.853	0.63
837.023	0.89
837.193	0.26
837.363	1.12
837.532	1.29
837.702	0.04
837.872	-0.32
838.041	1.53
838.211	1.46
838.381	-0.62
838.55	0.66
838.72	2.64
838.89	1.85
839.059	-0.02
839.229	-0.38
839.398	2.24
839.568	0.97
839.738	0.3
839.907	1.5
840.077	0.99
840.246	0.5
840.416	0.1
840.585	-0.9
840.755	1.98
840.924	2
841.093	0.11
841.263	0.23
841.432	1.1
841.602	-0.36
841.771	-0.44
841.94	0.57
842.11	2.05
842.279	2.62
842.448	0.39
842.617	-0.01
842.787	1.84
842.956	0.17
843.125	1.07
843.294	0.52
843.464	1.79
843.633	0.2
843.802	-0.19
843.971	0.1
844.14	0.14
844.309	1.68
844.479	-0.84
844.648	0.39
844.817	-0.19
844.986	0.81
845.155	-0.15
845.324	0.32
845.493	0.23
845.662	-0.42
845.831	1.33
846	1.12
846.169	0.84
846.338	1.65
846.507	0.68
846.676	0.78
846.844	0.26
847.013	1.08
847.182	0.69
847.351	-0.42
847.52	0.77
847.689	0.78
847.858	0.7
848.026	-0.49
848.195	0.09
848.364	0.15
848.533	0.1
848.701	-0.25
848.87	0.56
849.039	1.39
849.207	1.22
849.376	1.82
849.545	1.9
849.713	-0.04
849.882	-0.69
850.051	0.12
850.219	0.38
850.388	1.2
850.556	-0.07
850.725	-0.57
850.893	0.9
851.062	0.69
851.23	1.07
851.399	-0.05
851.567	1.22
851.736	0.54
851.904	-0.03
852.073	0.55
852.241	1.44
852.41	0.84
852.578	0.67
852.746	0.73
852.915	1.12
853.083	0.65
853.251	-0.83
853.42	-0.69
853.588	1.21
853.756	1.14
853.924	1.01
854.093	0.33
854.261	0.7
854.429	-0.75
854.597	0.38
854.765	-0.79
854.934	0.78
855.102	2.04
855.27	0.37
855.438	0.34
855.606	1.51
855.774	1.73
855.942	-1.27
856.11	-0.55
856.278	1.52
856.446	1.05
856.614	0.21
856.782	0.72
856.95	1.96
857.118	0.77
857.286	1.27
857.454	-0.52
857.622	2.09
857.79	0.67
857.958	-0.69
858.126	-0.01
858.294	-1.83
858.462	0.62
858.629	0.15
858.797	-0.79
858.965	0.74
859.133	1.2
859.301	0.88
859.468	1.19
859.636	0.64
859.804	2.7
859.971	1.69
860.139	0.06
860.307	2.06
860.474	-0.48
860.642	-0.38
860.81	0.06
860.977	1.27
861.145	1.48
861.313	1.37
861.48	-0.13
861.648	1.58
861.815	-0.29
861.983	-0.57
862.15	0.56
862.318	1.17
862.485	1.43
862.653	-0.42
862.82	-0.87
862.988	3.5
863.155	2.63
863.322	-0.16
863.49	-0.4
863.657	0.44
863.824	2.99
863.992	1.71
864.159	1.87
864.326	3.47
864.494	-0.66
864.661	3.02
864.828	-1.18
864.996	2.33
865.163	1.67
865.33	-0.42
865.497	-2.28
865.664	0.82
865.832	-1.2
865.999	-1.36
866.166	-0.14
866.333	1.33
866.5	-0.66
866.667	-0.12
866.834	0.86
867.001	1.81
867.168	-1.6
867.335	0.79
867.502	-1.06
867.669	0.82
867.836	4.78
868.003	1.23
868.17	1.74
868.337	-0.3
868.504	3.66
868.671	-0.8
868.838	-0.13
869.005	0.53
869.172	1.67
869.339	-1
869.505	0.26
869.672	1.05
869.839	2.52
870.006	1.59
870.173	-1.07
870.339	1.34
870.506	5.17
870.673	0.51
870.84	3.02
871.006	1.61
871.173	0.74
871.34	1.51
871.506	-1.22
871.673	1.3
871.839	-0.21
872.006	1.2
872.173	0.94
872.339	0.88
872.506	3.08
872.672	1.73
872.839	-1.84
873.005	2.37
873.172	3.35
873.338	1.07
873.505	2.2
873.671	0.78
873.838	2.02
874.004	-0.95
874.171	-0.87
874.337	1.05
874.503	2.6
874.67	0.23
874.836	-0.32
875.002	4.12
875.169	0.49
875.335	1.07
875.501	1.23
875.668	3.67
875.834	2.17
876	1.2
876.166	1.51
876.332	2.66
876.499	4.64
876.665	-0.45
876.831	-0.58
876.997	3.37
877.163	2.06
877.329	1.07
877.495	0.88
877.662	1.8
877.828	1.29
877.994	1.39
878.16	-1.4
878.326	1.09
878.492	2.28
878.658	-0.11
878.824	1.71
878.99	2.7
879.156	0.43
879.322	3.91
879.487	0.23
879.653	-0.41
879.819	2.71
879.985	0.1
880.151	0.62
880.317	2.62
880.483	3.76
880.648	3.52
880.814	-0.22
880.98	1.37
881.146	-3.73
881.312	-0.09
881.477	1.9
881.643	0.57
881.809	3.86
881.974	3.54
882.14	-1.14
882.306	1.23
882.471	3.36
882.637	0.36
882.803	2.7
882.968	4.16
883.134	5.13
883.299	0.94
883.465	0.99
883.63	3.96
883.796	1.5
883.961	2.87
884.127	1.55
884.292	-3.22
884.458	-1.38
884.623	-1.38
