Data from Apollo_Calib_20240827__AbsoluteIrradiance__787__12-16-01-366.txt Node

Date: Wed Aug 28 12:16:01 BST 2024
User: biology
Spectrometer: FLMT08252
Trigger mode: 0
Integration Time (sec): 5.000000E-1
Scans to average: 5
Electric dark correction enabled: true
Nonlinearity correction enabled: false
Boxcar width: 0
XAxis mode: Wavelengths
Number of Pixels in Spectrum: 3648
>>>>>Begin Spectral Data<<<<<
179.588	-0
179.809	-0
180.03	-0
180.251	-0
180.473	-0
180.694	0
180.915	0
181.136	-0
181.357	0
181.578	-0
181.799	-0
182.02	-0
182.241	0
182.462	-0
182.683	0
182.904	-0
183.125	-0
183.346	0
183.567	0
183.788	0
184.009	0
184.23	0
184.451	0
184.672	0
184.892	0
185.113	0
185.334	0
185.555	0
185.776	0
185.996	0
186.217	0
186.438	0
186.659	0
186.879	0
187.1	0
187.321	0
187.541	0
187.762	0
187.983	0
188.203	0
188.424	0
188.644	0
188.865	0
189.086	0
189.306	0
189.527	0
189.747	0
189.968	0
190.188	0
190.409	0
190.629	0
190.849	0
191.07	0
191.29	0
191.511	0
191.731	0
191.951	0
192.172	0
192.392	0
192.612	0
192.833	0
193.053	0
193.273	0
193.493	0
193.714	0
193.934	0
194.154	0
194.374	0
194.594	0
194.815	0
195.035	0
195.255	0
195.475	0
195.695	0
195.915	0
196.135	0
196.355	0
196.575	0
196.795	0
197.015	0
197.235	0
197.455	0
197.675	0
197.895	0
198.115	0
198.335	0
198.555	0
198.775	0
198.995	0
199.214	0
199.434	0
199.654	0
199.874	0
200.094	4.09
200.313	1.71
200.533	1.68
200.753	1.9
200.973	3.52
201.192	3.2
201.412	1.11
201.632	1.97
201.851	3.06
202.071	1.92
202.291	2.08
202.51	1.28
202.73	2.56
202.95	1.76
203.169	1.3
203.389	2.14
203.608	1.89
203.828	1.5
204.047	1.56
204.267	1.94
204.486	2.05
204.706	2.12
204.925	1.87
205.145	1.59
205.364	2.34
205.583	2.38
205.803	1.46
206.022	1.14
206.242	1.79
206.461	1.57
206.68	1.37
206.9	1.81
207.119	2.33
207.338	1.87
207.557	1.26
207.777	1.15
207.996	1.35
208.215	2.25
208.434	1.06
208.654	0.86
208.873	1.6
209.092	2.06
209.311	1.19
209.53	1.26
209.749	0.8
209.968	1.24
210.187	1.02
210.407	0.67
210.626	1.13
210.845	1.74
211.064	0.96
211.283	0.62
211.502	1.63
211.721	1.29
211.94	1.07
212.159	1.16
212.377	1.35
212.596	1.55
212.815	1.12
213.034	1.12
213.253	1.43
213.472	1.31
213.691	0.86
213.91	0.8
214.128	0.71
214.347	1.51
214.566	0.51
214.785	0.43
215.003	1.09
215.222	1.32
215.441	0.75
215.66	0.5
215.878	0.87
216.097	1.07
216.316	0.78
216.534	0.82
216.753	1.07
216.972	0.9
217.19	0.76
217.409	0.76
217.627	0.77
217.846	0.84
218.064	0.8
218.283	0.68
218.501	1.27
218.72	1.18
218.938	0.62
219.157	0.62
219.375	0.98
219.594	1.22
219.812	0.5
220.031	0.6
220.249	1.18
220.467	1.07
220.686	0.62
220.904	0.52
221.122	0.67
221.341	1.15
221.559	0.74
221.777	0.62
221.995	0.85
222.214	0.99
222.432	0.75
222.65	0.82
222.868	0.77
223.086	0.78
223.305	0.7
223.523	0.71
223.741	0.97
223.959	0.66
224.177	0.34
224.395	0.51
224.613	0.74
224.831	0.99
225.049	0.51
225.267	0.62
225.485	0.72
225.703	0.48
225.921	0.69
226.139	0.5
226.357	0.93
226.575	0.78
226.793	0.54
227.011	1.4
227.229	0.61
227.447	0.94
227.665	0.49
227.883	0.38
228.1	0.71
228.318	0.73
228.536	0.21
228.754	0.46
228.972	0.73
229.189	0.74
229.407	0.58
229.625	0.55
229.843	0.76
230.06	0.72
230.278	0.42
230.496	0.55
230.713	0.73
230.931	0.75
231.149	0.46
231.366	0.33
231.584	0.64
231.801	1.02
232.019	0.49
232.236	0.41
232.454	0.37
232.671	0.68
232.889	0.48
233.106	0.49
233.324	0.54
233.541	0.56
233.759	0.57
233.976	0.37
234.194	0.44
234.411	0.53
234.628	0.35
234.846	0.54
235.063	0.58
235.28	0.64
235.498	0.43
235.715	0.25
235.932	0.67
236.149	0.53
236.367	0.33
236.584	0.57
236.801	0.55
237.018	0.68
237.236	0.47
237.453	0.29
237.67	0.62
237.887	0.52
238.104	0.43
238.321	0.31
238.538	0.39
238.755	0.73
238.973	0.29
239.19	0.47
239.407	0.61
239.624	0.66
239.841	0.39
240.058	0.31
240.275	0.5
240.492	0.56
240.709	0.45
240.925	0.45
241.142	0.58
241.359	0.35
241.576	0.42
241.793	0.41
242.01	0.47
242.227	0.66
242.444	0.48
242.66	0.59
242.877	0.5
243.094	0.38
243.311	0.43
243.527	0.4
243.744	0.46
243.961	0.54
244.178	0.29
244.394	0.45
244.611	0.68
244.828	0.67
245.044	0.35
245.261	0.32
245.477	0.45
245.694	0.6
245.911	0.39
246.127	0.4
246.344	0.77
246.56	0.6
246.777	0.41
246.993	0.35
247.21	0.46
247.426	0.61
247.643	0.36
247.859	0.27
248.076	0.4
248.292	0.71
248.508	0.35
248.725	0.54
248.941	0.58
249.157	0.52
249.374	0.35
249.59	0.42
249.806	0.39
250.023	0.49
250.239	0.29
250.455	0.33
250.671	0.53
250.888	0.51
251.104	0.45
251.32	0.35
251.536	0.4
251.752	0.45
251.969	0.37
252.185	0.42
252.401	0.69
252.617	0.49
252.833	0.34
253.049	0.44
253.265	0.38
253.481	0.49
253.697	0.27
253.913	0.3
254.129	0.55
254.345	0.4
254.561	0.33
254.777	0.4
254.993	0.45
255.209	0.38
255.425	0.35
255.641	0.37
255.857	0.44
256.073	0.44
256.288	0.26
256.504	0.32
256.72	0.42
256.936	0.64
257.152	0.32
257.367	0.26
257.583	0.38
257.799	0.52
258.015	0.25
258.23	0.33
258.446	0.51
258.662	0.4
258.877	0.24
259.093	0.3
259.309	0.41
259.524	0.47
259.74	0.31
259.955	0.18
260.171	0.39
260.387	0.42
260.602	0.45
260.818	0.43
261.033	0.25
261.249	0.33
261.464	0.3
261.68	0.19
261.895	0.44
262.11	0.44
262.326	0.3
262.541	0.25
262.757	0.4
262.972	0.39
263.187	0.42
263.403	0.29
263.618	0.39
263.833	0.42
264.049	0.34
264.264	0.32
264.479	0.32
264.694	0.54
264.91	0.22
265.125	0.36
265.34	0.43
265.555	0.55
265.77	0.34
265.986	0.29
266.201	0.43
266.416	0.44
266.631	0.36
266.846	0.31
267.061	0.36
267.276	0.47
267.491	0.25
267.706	0.42
267.921	0.4
268.136	0.33
268.351	0.27
268.566	0.3
268.781	0.46
268.996	0.46
269.211	0.3
269.426	0.23
269.641	0.35
269.856	0.48
270.071	0.29
270.285	0.21
270.5	0.43
270.715	0.44
270.93	0.24
271.145	0.33
271.359	0.49
271.574	0.32
271.789	0.32
272.004	0.28
272.218	0.3
272.433	0.37
272.648	0.28
272.862	0.41
273.077	0.39
273.292	0.37
273.506	0.3
273.721	0.26
273.936	0.45
274.15	0.44
274.365	0.31
274.579	0.38
274.794	0.4
275.008	0.37
275.223	0.23
275.437	0.3
275.652	0.39
275.866	0.39
276.081	0.33
276.295	0.39
276.509	0.34
276.724	0.29
276.938	0.36
277.153	0.3
277.367	0.43
277.581	0.26
277.796	0.3
278.01	0.25
278.224	0.38
278.438	0.49
278.653	0.28
278.867	0.29
279.081	0.45
279.295	0.28
279.51	0.33
279.724	0.23
279.938	0.4
280.152	0.29
280.366	0.28
280.58	0.32
280.794	0.42
281.008	0.41
281.222	0.38
281.437	0.48
281.651	0.3
281.865	0.45
282.079	0.28
282.293	0.19
282.507	0.26
282.721	0.31
282.935	0.27
283.148	0.21
283.362	0.28
283.576	0.24
283.79	0.3
284.004	0.25
284.218	0.42
284.432	0.26
284.646	0.29
284.859	0.26
285.073	0.29
285.287	0.3
285.501	0.31
285.714	0.26
285.928	0.26
286.142	0.33
286.356	0.24
286.569	0.3
286.783	0.4
286.997	0.34
287.21	0.3
287.424	0.24
287.637	0.26
287.851	0.28
288.065	0.38
288.278	0.29
288.492	0.39
288.705	0.27
288.919	0.32
289.132	0.19
289.346	0.33
289.559	0.21
289.773	0.25
289.986	0.25
290.2	0.29
290.413	0.35
290.626	0.23
290.84	0.24
291.053	0.25
291.267	0.39
291.48	0.28
291.693	0.23
291.906	0.25
292.12	0.28
292.333	0.21
292.546	0.22
292.76	0.43
292.973	0.29
293.186	0.32
293.399	0.25
293.612	0.38
293.826	0.25
294.039	0.34
294.252	0.31
294.465	0.3
294.678	0.29
294.891	0.28
295.104	0.22
295.317	0.22
295.53	0.31
295.743	0.26
295.956	0.21
296.169	0.38
296.382	0.31
296.595	0.23
296.808	0.23
297.021	0.33
297.234	0.36
297.447	0.25
297.66	0.27
297.873	0.3
298.086	0.34
298.299	0.2
298.511	0.19
298.724	0.24
298.937	0.26
299.15	0.22
299.363	0.24
299.575	0.33
299.788	0.32
300.001	0.23
300.213	0.24
300.426	0.25
300.639	0.2
300.852	0.2
301.064	0.27
301.277	0.36
301.489	0.31
301.702	0.3
301.915	0.24
302.127	0.23
302.34	0.28
302.552	0.27
302.765	0.22
302.977	0.33
303.19	0.22
303.402	0.24
303.615	0.25
303.827	0.29
304.04	0.23
304.252	0.28
304.464	0.24
304.677	0.4
304.889	0.29
305.102	0.24
305.314	0.21
305.526	0.3
305.739	0.31
305.951	0.22
306.163	0.25
306.375	0.37
306.588	0.23
306.8	0.26
307.012	0.18
307.224	0.26
307.436	0.32
307.649	0.21
307.861	0.27
308.073	0.29
308.285	0.23
308.497	0.21
308.709	0.19
308.921	0.23
309.133	0.34
309.346	0.24
309.558	0.25
309.77	0.3
309.982	0.3
310.194	0.29
310.406	0.25
310.617	0.35
310.829	0.24
311.041	0.28
311.253	0.23
311.465	0.26
311.677	0.25
311.889	0.26
312.101	0.19
312.313	0.3
312.524	0.38
312.736	0.23
312.948	0.22
313.16	0.36
313.372	0.33
313.583	0.29
313.795	0.26
314.007	0.27
314.218	0.25
314.43	0.27
314.642	0.22
314.853	0.16
315.065	0.31
315.277	0.25
315.488	0.27
315.7	0.29
315.912	0.29
316.123	0.26
316.335	0.23
316.546	0.36
316.758	0.24
316.969	0.23
317.181	0.29
317.392	0.26
317.604	0.34
317.815	0.21
318.026	0.21
318.238	0.29
318.449	0.31
318.661	0.17
318.872	0.22
319.083	0.22
319.295	0.31
319.506	0.23
319.717	0.29
319.929	0.3
320.14	0.27
320.351	0.25
320.562	0.25
320.774	0.26
320.985	0.25
321.196	0.25
321.407	0.19
321.618	0.31
321.829	0.28
322.041	0.28
322.252	0.24
322.463	0.32
322.674	0.29
322.885	0.2
323.096	0.25
323.307	0.27
323.518	0.26
323.729	0.2
323.94	0.23
324.151	0.24
324.362	0.26
324.573	0.26
324.784	0.21
324.995	0.33
325.206	0.27
325.417	0.24
325.628	0.2
325.838	0.27
326.049	0.29
326.26	0.27
326.471	0.27
326.682	0.31
326.892	0.28
327.103	0.14
327.314	0.18
327.525	0.34
327.735	0.29
327.946	0.22
328.157	0.2
328.368	0.36
328.578	0.29
328.789	0.31
328.999	0.25
329.21	0.2
329.421	0.3
329.631	0.24
329.842	0.21
330.052	0.25
330.263	0.29
330.473	0.32
330.684	0.2
330.894	0.23
331.105	0.28
331.315	0.28
331.526	0.17
331.736	0.34
331.947	0.27
332.157	0.26
332.367	0.17
332.578	0.31
332.788	0.32
332.999	0.34
333.209	0.24
333.419	0.16
333.629	0.32
333.84	0.29
334.05	0.24
334.26	0.4
334.47	0.23
334.681	0.3
334.891	0.25
335.101	0.28
335.311	0.36
335.521	0.23
335.732	0.22
335.942	0.3
336.152	0.3
336.362	0.31
336.572	0.28
336.782	0.3
336.992	0.18
337.202	0.2
337.412	0.24
337.622	0.24
337.832	0.25
338.042	0.24
338.252	0.19
338.462	0.23
338.672	0.29
338.882	0.2
339.092	0.25
339.302	0.34
339.511	0.32
339.721	0.22
339.931	0.16
340.141	0.29
340.351	0.3
340.561	0.23
340.77	0.28
340.98	0.27
341.19	0.27
341.4	0.26
341.609	0.2
341.819	0.25
342.029	0.18
342.238	0.26
342.448	0.24
342.658	0.32
342.867	0.21
343.077	0.24
343.286	0.22
343.496	0.27
343.706	0.34
343.915	0.16
344.125	0.24
344.334	0.28
344.544	0.21
344.753	0.21
344.963	0.22
345.172	0.2
345.381	0.21
345.591	0.22
345.8	0.23
346.01	0.29
346.219	0.31
346.428	0.14
346.638	0.23
346.847	0.29
347.056	0.31
347.266	0.23
347.475	0.18
347.684	0.26
347.893	0.28
348.103	0.3
348.312	0.21
348.521	0.26
348.73	0.25
348.94	0.25
349.149	0.24
349.358	0.22
349.567	0.24
349.776	0.19
349.985	0.23
350.194	0.27
350.403	0.28
350.612	0.21
350.821	0.17
351.03	0.22
351.239	0.16
351.448	0.26
351.657	0.19
351.866	0.36
352.075	0.24
352.284	0.25
352.493	0.2
352.702	0.34
352.911	0.31
353.12	0.24
353.329	0.23
353.538	0.26
353.746	0.27
353.955	0.19
354.164	0.29
354.373	0.21
354.582	0.31
354.79	0.27
354.999	0.29
355.208	0.23
355.416	0.37
355.625	0.18
355.834	0.25
356.042	0.29
356.251	0.21
356.46	0.17
356.668	0.26
356.877	0.33
357.085	0.28
357.294	0.16
357.503	0.27
357.711	0.24
357.92	0.45
358.128	0.29
358.337	0.22
358.545	0.24
358.754	0.26
358.962	0.28
359.17	0.24
359.379	0.27
359.587	0.28
359.796	0.21
360.004	0.27
360.212	0.32
360.421	0.34
360.629	0.22
360.837	0.21
361.046	0.3
361.254	0.38
361.462	0.16
361.67	0.23
361.879	0.28
362.087	0.33
362.295	0.28
362.503	0.26
362.711	0.24
362.92	0.21
363.128	0.22
363.336	0.16
363.544	0.18
363.752	0.26
363.96	0.27
364.168	0.23
364.376	0.27
364.584	0.25
364.792	0.28
365	0.26
365.208	0.3
365.416	0.26
365.624	0.3
365.832	0.24
366.04	0.31
366.248	0.25
366.456	0.21
366.664	0.26
366.872	0.25
367.079	0.27
367.287	0.24
367.495	0.22
367.703	0.25
367.911	0.23
368.118	0.27
368.326	0.24
368.534	0.19
368.742	0.33
368.949	0.21
369.157	0.23
369.365	0.3
369.572	0.28
369.78	0.21
369.988	0.27
370.195	0.28
370.403	0.29
370.61	0.17
370.818	0.21
371.026	0.35
371.233	0.19
371.441	0.28
371.648	0.21
371.856	0.25
372.063	0.28
372.271	0.22
372.478	0.24
372.685	0.25
372.893	0.33
373.1	0.22
373.308	0.24
373.515	0.35
373.722	0.31
373.93	0.24
374.137	0.23
374.344	0.36
374.552	0.32
374.759	0.29
374.966	0.25
375.173	0.23
375.381	0.33
375.588	0.27
375.795	0.19
376.002	0.21
376.209	0.21
376.417	0.25
376.624	0.28
376.831	0.29
377.038	0.23
377.245	0.18
377.452	0.26
377.659	0.25
377.866	0.21
378.073	0.25
378.28	0.25
378.487	0.34
378.694	0.3
378.901	0.29
379.108	0.27
379.315	0.33
379.522	0.43
379.729	0.26
379.936	0.24
380.143	0.29
380.35	0.25
380.557	0.21
380.763	0.24
380.97	0.29
381.177	0.25
381.384	0.25
381.591	0.2
381.797	0.33
382.004	0.33
382.211	0.28
382.418	0.23
382.624	0.29
382.831	0.3
383.038	0.28
383.244	0.3
383.451	0.31
383.658	0.31
383.864	0.24
384.071	0.25
384.277	0.36
384.484	0.23
384.69	0.34
384.897	0.23
385.103	0.31
385.31	0.23
385.516	0.23
385.723	0.21
385.929	0.3
386.136	0.28
386.342	0.29
386.549	0.22
386.755	0.34
386.961	0.35
387.168	0.27
387.374	0.25
387.58	0.31
387.787	0.26
387.993	0.27
388.199	0.27
388.406	0.24
388.612	0.28
388.818	0.28
389.024	0.22
389.231	0.29
389.437	0.37
389.643	0.31
389.849	0.28
390.055	0.31
390.261	0.28
390.467	0.34
390.674	0.28
390.88	0.29
391.086	0.37
391.292	0.24
391.498	0.35
391.704	0.33
391.91	0.28
392.116	0.24
392.322	0.19
392.528	0.34
392.734	0.33
392.94	0.27
393.146	0.27
393.352	0.38
393.557	0.3
393.763	0.28
393.969	0.36
394.175	0.3
394.381	0.32
394.587	0.27
394.792	0.3
394.998	0.39
395.204	0.38
395.41	0.33
395.615	0.34
395.821	0.33
396.027	0.34
396.233	0.27
396.438	0.35
396.644	0.39
396.85	0.37
397.055	0.29
397.261	0.32
397.466	0.34
397.672	0.34
397.878	0.38
398.083	0.41
398.289	0.29
398.494	0.44
398.7	0.39
398.905	0.26
399.111	0.41
399.316	0.31
399.522	0.38
399.727	0.33
399.932	0.33
400.138	0.3
400.343	0.36
400.549	0.34
400.754	0.32
400.959	0.37
401.165	0.33
401.37	0.39
401.575	0.5
401.78	0.35
401.986	0.33
402.191	0.33
402.396	0.35
402.601	0.39
402.807	0.4
403.012	0.39
403.217	0.44
403.422	0.45
403.627	0.42
403.832	0.37
404.037	0.5
404.243	0.45
404.448	0.39
404.653	0.39
404.858	0.51
405.063	0.5
405.268	0.38
405.473	0.35
405.678	0.4
405.883	0.65
406.088	0.51
406.293	0.42
406.498	0.45
406.703	0.54
406.907	0.46
407.112	0.43
407.317	0.52
407.522	0.6
407.727	0.44
407.932	0.52
408.136	0.67
408.341	0.5
408.546	0.54
408.751	0.58
408.956	0.59
409.16	0.64
409.365	0.6
409.57	0.64
409.774	0.66
409.979	0.63
410.184	0.68
410.388	0.62
410.593	0.8
410.798	0.76
411.002	0.66
411.207	0.78
411.411	0.8
411.616	0.75
411.82	0.84
412.025	0.86
412.229	0.86
412.434	0.96
412.638	0.91
412.843	0.88
413.047	0.95
413.252	0.91
413.456	0.99
413.66	1.08
413.865	1.04
414.069	1.11
414.273	1.07
414.478	1.07
414.682	1.19
414.886	1.19
415.091	1.16
415.295	1.19
415.499	1.33
415.703	1.33
415.908	1.42
416.112	1.36
416.316	1.54
416.52	1.55
416.724	1.49
416.929	1.64
417.133	1.8
417.337	1.64
417.541	1.74
417.745	1.79
417.949	1.92
418.153	1.96
418.357	1.95
418.561	2.25
418.765	2.15
418.969	2.36
419.173	2.4
419.377	2.36
419.581	2.62
419.785	2.58
419.989	2.57
420.193	2.74
420.397	2.83
420.601	2.97
420.804	3
421.008	3.02
421.212	3.2
421.416	3.15
421.62	3.17
421.823	3.24
422.027	3.47
422.231	3.43
422.435	3.44
422.638	3.43
422.842	3.55
423.046	3.68
423.249	3.79
423.453	3.82
423.657	4.02
423.86	4.11
424.064	4.23
424.268	4.4
424.471	4.45
424.675	4.66
424.878	4.68
425.082	4.76
425.285	5.09
425.489	4.96
425.692	5.13
425.896	5.15
426.099	5.34
426.303	5.48
426.506	5.56
426.71	5.9
426.913	6.08
427.116	6.21
427.32	6.16
427.523	6.16
427.726	6.59
427.93	6.63
428.133	6.92
428.336	7.12
428.54	7.33
428.743	7.51
428.946	7.65
429.149	7.8
429.353	7.83
429.556	7.79
429.759	7.85
429.962	8.15
430.165	8.15
430.368	7.84
430.571	7.91
430.775	7.89
430.978	7.9
431.181	8.08
431.384	8.04
431.587	8.13
431.79	8.6
431.993	8.4
432.196	8.79
432.399	9.2
432.602	9.26
432.805	9.32
433.008	9.86
433.211	9.63
433.414	10.09
433.616	10.07
433.819	10.14
434.022	10.28
434.225	10.48
434.428	10.46
434.631	10.89
434.833	10.73
435.036	10.85
435.239	11.11
435.442	11.19
435.645	11.32
435.847	11.47
436.05	11.7
436.253	12.05
436.455	12.01
436.658	11.87
436.861	12.25
437.063	12.22
437.266	12.24
437.468	12.6
437.671	12.94
437.874	12.9
438.076	12.76
438.279	13.35
438.481	13.34
438.684	13.97
438.886	13.7
439.089	13.9
439.291	13.98
439.494	14.33
439.696	14.42
439.899	14.95
440.101	15.42
440.303	15.69
440.506	16.32
440.708	16.01
440.91	16.37
441.113	16.43
441.315	16.7
441.517	16.53
441.72	17.03
441.922	16.67
442.124	16.56
442.326	16.96
442.529	17.09
442.731	17.11
442.933	17.46
443.135	17.26
443.337	17.15
443.539	17.87
443.742	17.46
443.944	18.16
444.146	17.82
444.348	17.81
444.55	17.72
444.752	17.85
444.954	17.99
445.156	17.73
445.358	18.3
445.56	18.56
445.762	18.31
445.964	18.67
446.166	18.38
446.368	18.44
446.57	18.39
446.772	18
446.974	17.79
447.175	18.04
447.377	17.73
447.579	18.28
447.781	17.94
447.983	17.73
448.184	17.37
448.386	17.68
448.588	17.12
448.79	17.18
448.991	17.38
449.193	17.43
449.395	16.85
449.597	16.47
449.798	16.27
450	15.91
450.202	15.9
450.403	15.87
450.605	15.78
450.806	15.42
451.008	15.17
451.21	14.97
451.411	14.58
451.613	13.66
451.814	14.15
452.016	14.04
452.217	13.44
452.419	13.46
452.62	12.96
452.821	12.79
453.023	12.7
453.224	12.3
453.426	11.91
453.627	11.14
453.828	11.29
454.03	11.3
454.231	11.38
454.432	11.14
454.634	10.95
454.835	10.59
455.036	10.46
455.238	10.09
455.439	9.8
455.64	9.58
455.841	9.36
456.042	9.52
456.244	9.2
456.445	8.94
456.646	8.72
456.847	8.65
457.048	8.57
457.249	8.58
457.45	8.36
457.651	7.85
457.852	7.65
458.054	7.34
458.255	7.26
458.456	7.45
458.657	7.18
458.858	6.8
459.058	6.76
459.259	6.87
459.46	6.49
459.661	6.49
459.862	6.47
460.063	6.35
460.264	6.26
460.465	6.01
460.666	6.11
460.866	5.8
461.067	5.52
461.268	5.56
461.469	5.5
461.67	5.39
461.87	5.28
462.071	5.27
462.272	5.18
462.473	5.14
462.673	5.3
462.874	5.18
463.075	5.19
463.275	5.05
463.476	5.17
463.676	5.08
463.877	5.04
464.078	4.92
464.278	4.96
464.479	4.85
464.679	4.82
464.88	4.76
465.08	4.76
465.281	4.56
465.481	4.38
465.682	4.14
465.882	4.17
466.083	4.14
466.283	4.06
466.483	3.88
466.684	3.75
466.884	3.73
467.085	3.7
467.285	3.77
467.485	3.68
467.686	3.61
467.886	3.44
468.086	3.46
468.286	3.4
468.487	3.49
468.687	3.34
468.887	3.21
469.087	3.4
469.287	3.29
469.488	2.99
469.688	3.24
469.888	3.2
470.088	3.16
470.288	3.14
470.488	3.04
470.688	2.87
470.888	2.9
471.088	2.73
471.288	2.87
471.488	2.78
471.688	2.75
471.888	2.72
472.088	2.84
472.288	2.76
472.488	2.64
472.688	2.58
472.888	2.64
473.088	2.65
473.288	2.5
473.488	2.48
473.688	2.66
473.887	2.54
474.087	2.47
474.287	2.44
474.487	2.39
474.687	2.44
474.886	2.37
475.086	2.29
475.286	2.33
475.486	2.33
475.685	2.26
475.885	2.2
476.085	2.28
476.284	2.29
476.484	2.25
476.684	2.18
476.883	2.3
477.083	2.2
477.282	2.07
477.482	2.23
477.681	2.18
477.881	2.14
478.08	2.09
478.28	2.06
478.479	2.1
478.679	2.15
478.878	2.04
479.078	2.04
479.277	2.11
479.477	2.08
479.676	2.02
479.875	2.03
480.075	1.98
480.274	2.06
480.473	2.05
480.673	2.03
480.872	2.14
481.071	2.09
481.271	2.06
481.47	2.02
481.669	2.01
481.868	1.99
482.067	2
482.267	1.93
482.466	1.97
482.665	2.01
482.864	1.98
483.063	1.94
483.262	2.05
483.461	2.02
483.661	2.09
483.86	1.97
484.059	2.08
484.258	2.06
484.457	2.06
484.656	2.02
484.855	2.11
485.054	1.94
485.253	2
485.452	1.96
485.651	2.04
485.849	2.04
486.048	2.01
486.247	2.05
486.446	2.09
486.645	2.04
486.844	2.1
487.043	2.04
487.241	2.12
487.44	2.09
487.639	2.1
487.838	2.12
488.037	2.1
488.235	2.23
488.434	2.21
488.633	2.05
488.831	2.21
489.03	2.25
489.229	2.22
489.427	2.2
489.626	2.31
489.825	2.26
490.023	2.31
490.222	2.26
490.42	2.33
490.619	2.35
490.817	2.38
491.016	2.36
491.214	2.43
491.413	2.44
491.611	2.36
491.81	2.35
492.008	2.45
492.207	2.54
492.405	2.52
492.604	2.47
492.802	2.55
493	2.64
493.199	2.62
493.397	2.65
493.595	2.72
493.794	2.66
493.992	2.8
494.19	2.71
494.388	2.8
494.587	2.74
494.785	2.75
494.983	2.71
495.181	2.83
495.379	2.89
495.578	2.9
495.776	2.97
495.974	2.91
496.172	2.95
496.37	3.09
496.568	3.07
496.766	3.06
496.964	3.18
497.162	3.16
497.36	3.21
497.558	3.24
497.756	3.26
497.954	3.27
498.152	3.29
498.35	3.44
498.548	3.38
498.746	3.41
498.944	3.39
499.142	3.47
499.34	3.52
499.538	3.59
499.736	3.52
499.933	3.64
500.131	3.63
500.329	3.73
500.527	3.74
500.725	3.82
500.922	3.84
501.12	3.87
501.318	3.93
501.516	3.93
501.713	4.02
501.911	3.98
502.109	3.91
502.306	4.07
502.504	4
502.701	4.07
502.899	4.12
503.097	4.37
503.294	4.19
503.492	4.29
503.689	4.41
503.887	4.36
504.084	4.49
504.282	4.4
504.479	4.36
504.677	4.57
504.874	4.5
505.072	4.45
505.269	4.69
505.466	4.68
505.664	4.7
505.861	4.61
506.059	4.72
506.256	4.8
506.453	4.81
506.651	4.96
506.848	4.96
507.045	4.91
507.242	4.93
507.44	4.96
507.637	5.05
507.834	5.04
508.031	5.2
508.229	5.14
508.426	5.08
508.623	5.28
508.82	5.27
509.017	5.26
509.214	5.28
509.411	5.46
509.608	5.31
509.805	5.44
510.003	5.41
510.2	5.52
510.397	5.62
510.594	5.54
510.791	5.63
510.988	5.67
511.184	5.64
511.381	5.5
511.578	5.69
511.775	5.83
511.972	5.7
512.169	5.78
512.366	5.77
512.563	5.91
512.76	5.96
512.956	6
513.153	5.92
513.35	5.95
513.547	5.92
513.744	6.02
513.94	5.94
514.137	6.11
514.334	6.1
514.53	6.13
514.727	6.33
514.924	6.26
515.12	6.18
515.317	6.29
515.514	6.2
515.71	6.19
515.907	6.39
516.103	6.37
516.3	6.33
516.497	6.46
516.693	6.42
516.89	6.46
517.086	6.49
517.283	6.47
517.479	6.39
517.676	6.62
517.872	6.62
518.068	6.64
518.265	6.6
518.461	6.52
518.658	6.62
518.854	6.69
519.05	6.8
519.247	6.81
519.443	6.77
519.639	6.88
519.836	6.73
520.032	6.72
520.228	6.88
520.424	6.89
520.621	6.93
520.817	6.94
521.013	6.92
521.209	7.1
521.405	7.06
521.601	6.96
521.798	7.01
521.994	7.05
522.19	6.92
522.386	7.02
522.582	7.07
522.778	7.21
522.974	7.02
523.17	7.13
523.366	7.03
523.562	7.13
523.758	7.14
523.954	6.99
524.15	7.22
524.346	7.24
524.542	7.25
524.738	7.19
524.934	7.37
525.129	7.22
525.325	7.2
525.521	7.24
525.717	7.43
525.913	7.33
526.109	7.32
526.304	7.42
526.5	7.37
526.696	7.45
526.892	7.38
527.087	7.54
527.283	7.48
527.479	7.47
527.674	7.29
527.87	7.47
528.066	7.48
528.261	7.5
528.457	7.45
528.653	7.55
528.848	7.61
529.044	7.63
529.239	7.47
529.435	7.5
529.63	7.48
529.826	7.55
530.021	7.57
530.217	7.57
530.412	7.53
530.608	7.62
530.803	7.58
530.999	7.52
531.194	7.58
531.389	7.66
531.585	7.64
531.78	7.79
531.975	7.64
532.171	7.79
532.366	7.67
532.561	7.67
532.757	7.67
532.952	7.81
533.147	7.63
533.342	7.72
533.538	7.68
533.733	7.86
533.928	7.58
534.123	7.75
534.318	7.81
534.513	7.73
534.709	7.89
534.904	7.79
535.099	7.91
535.294	7.81
535.489	7.91
535.684	7.83
535.879	7.74
536.074	7.94
536.269	7.89
536.464	7.95
536.659	7.87
536.854	7.84
537.049	7.91
537.244	7.82
537.439	7.88
537.634	7.86
537.828	7.97
538.023	7.89
538.218	7.9
538.413	7.77
538.608	7.94
538.803	7.95
538.997	7.92
539.192	7.93
539.387	7.86
539.582	7.93
539.776	7.82
539.971	7.97
540.166	8.03
540.36	7.87
540.555	7.98
540.75	7.96
540.944	8.01
541.139	7.97
541.334	8.01
541.528	8
541.723	8.06
541.917	8.07
542.112	7.85
542.306	7.8
542.501	7.87
542.695	8
542.89	7.95
543.084	7.98
543.279	7.98
543.473	8.04
543.668	8.07
543.862	7.85
544.056	7.93
544.251	8
544.445	8.08
544.64	8.14
544.834	7.78
545.028	7.68
545.222	8
545.417	8.16
545.611	8.12
545.805	8.05
546	7.88
546.194	8.04
546.388	8.06
546.582	8.01
546.776	8.02
546.97	8.03
547.165	7.98
547.359	7.95
547.553	8.02
547.747	7.97
547.941	8.19
548.135	8.03
548.329	8.07
548.523	8.06
548.717	7.98
548.911	8.01
549.105	7.95
549.299	8.1
549.493	8.1
549.687	7.97
549.881	8.17
550.075	8.07
550.269	7.94
550.463	8.09
550.657	8.1
550.85	8.06
551.044	8.04
551.238	8.09
551.432	8.08
551.626	8.09
551.82	8.14
552.013	7.92
552.207	8.09
552.401	8.16
552.594	8.01
552.788	8.03
552.982	8.04
553.176	7.95
553.369	8.18
553.563	8.11
553.756	8.09
553.95	8.09
554.144	8.11
554.337	8.1
554.531	7.91
554.724	8.15
554.918	8.16
555.111	8.06
555.305	8.09
555.498	8.05
555.692	8.23
555.885	8.12
556.079	8.06
556.272	8.04
556.466	8.04
556.659	8.01
556.852	8.15
557.046	8
557.239	7.9
557.432	7.99
557.626	8.18
557.819	8.22
558.012	8.17
558.206	8.18
558.399	8.09
558.592	8.02
558.785	7.98
558.979	8.05
559.172	8.06
559.365	8.09
559.558	7.98
559.751	7.99
559.944	8.15
560.138	8.05
560.331	8.1
560.524	8.09
560.717	8.05
560.91	8.02
561.103	8.11
561.296	7.98
561.489	8.11
561.682	8.15
561.875	8.15
562.068	8.17
562.261	8
562.454	8.19
562.647	8.03
562.84	8.13
563.032	8.12
563.225	8.01
563.418	8.1
563.611	8.18
563.804	8.14
563.997	7.92
564.19	7.89
564.382	8.17
564.575	8.06
564.768	8.02
564.961	8.14
565.153	7.96
565.346	8.02
565.539	8.1
565.731	8.06
565.924	8.14
566.117	8.22
566.309	8.11
566.502	8.06
566.695	7.94
566.887	8.07
567.08	8.05
567.272	8.15
567.465	7.99
567.657	8.12
567.85	7.97
568.042	8.04
568.235	8.13
568.427	7.93
568.62	8.06
568.812	8.02
569.005	8.13
569.197	7.93
569.389	8.05
569.582	8.04
569.774	8.05
569.966	7.99
570.159	7.87
570.351	7.88
570.543	7.98
570.736	7.94
570.928	7.82
571.12	8.06
571.312	7.93
571.505	7.71
571.697	8
571.889	7.95
572.081	7.97
572.273	7.89
572.465	7.97
572.658	8
572.85	7.93
573.042	7.92
573.234	7.93
573.426	7.94
573.618	7.92
573.81	7.99
574.002	7.91
574.194	8.02
574.386	7.88
574.578	7.77
574.77	7.9
574.962	7.92
575.154	7.74
575.346	7.8
575.538	7.84
575.729	7.85
575.921	7.89
576.113	7.92
576.305	7.88
576.497	7.96
576.689	7.71
576.88	7.71
577.072	7.96
577.264	7.86
577.456	7.85
577.647	7.77
577.839	7.9
578.031	7.82
578.223	7.8
578.414	7.69
578.606	7.82
578.798	7.97
578.989	7.79
579.181	7.8
579.372	7.85
579.564	7.77
579.755	7.77
579.947	7.7
580.139	7.82
580.33	7.63
580.522	7.81
580.713	7.69
580.905	7.72
581.096	7.8
581.287	7.69
581.479	7.66
581.67	7.8
581.862	7.66
582.053	7.63
582.244	7.53
582.436	7.75
582.627	7.64
582.818	7.6
583.01	7.55
583.201	7.6
583.392	7.64
583.583	7.55
583.775	7.45
583.966	7.59
584.157	7.68
584.348	7.71
584.54	7.51
584.731	7.62
584.922	7.52
585.113	7.42
585.304	7.58
585.495	7.54
585.686	7.58
585.877	7.58
586.068	7.58
586.259	7.49
586.45	7.5
586.641	7.5
586.832	7.52
587.023	7.51
587.214	7.46
587.405	7.48
587.596	7.38
587.787	7.34
587.978	7.45
588.169	7.39
588.36	7.33
588.551	7.38
588.742	7.38
588.932	7.49
589.123	7.18
589.314	7.5
589.505	7.32
589.696	7.28
589.886	7.37
590.077	7.32
590.268	7.16
590.458	7.2
590.649	7.06
590.84	7.3
591.03	7.28
591.221	7.23
591.412	7.12
591.602	7.32
591.793	7.2
591.984	7.22
592.174	7.18
592.365	7.32
592.555	7.07
592.746	7.13
592.936	7.14
593.127	7.15
593.317	7.16
593.508	7.12
593.698	7.12
593.889	7.08
594.079	7.04
594.269	6.99
594.46	7.06
594.65	7.08
594.84	7.08
595.031	6.87
595.221	6.94
595.411	6.98
595.602	7.03
595.792	6.91
595.982	6.81
596.172	7.08
596.363	6.93
596.553	6.91
596.743	6.89
596.933	6.81
597.123	6.87
597.314	6.71
597.504	6.74
597.694	6.89
597.884	6.75
598.074	6.83
598.264	6.79
598.454	6.81
598.644	6.76
598.834	6.72
599.024	6.66
599.214	6.65
599.404	6.75
599.594	6.65
599.784	6.62
599.974	6.76
600.164	6.67
600.354	6.64
600.544	6.53
600.734	6.63
600.924	6.53
601.114	6.51
601.303	6.5
601.493	6.55
601.683	6.56
601.873	6.53
602.063	6.43
602.252	6.48
602.442	6.4
602.632	6.44
602.821	6.38
603.011	6.41
603.201	6.44
603.39	6.39
603.58	6.22
603.77	6.43
603.959	6.37
604.149	6.23
604.339	6.33
604.528	6.41
604.718	6.34
604.907	6.29
605.097	6.18
605.286	6.2
605.476	6.27
605.665	6.28
605.855	6.13
606.044	6.21
606.234	6.21
606.423	6.13
606.612	6.13
606.802	6.11
606.991	6.18
607.181	6.15
607.37	6.15
607.559	5.87
607.749	6.09
607.938	6.01
608.127	6.04
608.316	6.02
608.506	6.04
608.695	6.07
608.884	5.97
609.073	5.98
609.263	6.03
609.452	6.01
609.641	5.83
609.83	5.81
610.019	5.97
610.208	5.85
610.397	5.77
610.586	5.81
610.775	5.79
610.965	5.8
611.154	5.67
611.343	5.77
611.532	5.67
611.721	5.78
611.91	5.66
612.099	5.71
612.287	5.6
612.476	5.52
612.665	5.67
612.854	5.58
613.043	5.63
613.232	5.55
613.421	5.52
613.61	5.58
613.798	5.55
613.987	5.56
614.176	5.56
614.365	5.5
614.554	5.53
614.742	5.49
614.931	5.39
615.12	5.52
615.309	5.48
615.497	5.36
615.686	5.24
615.875	5.38
616.063	5.35
616.252	5.33
616.44	5.37
616.629	5.22
616.818	5.29
617.006	5.2
617.195	5.19
617.383	5.22
617.572	5.17
617.76	5.18
617.949	5.2
618.137	5.26
618.326	5.17
618.514	5
618.703	4.96
618.891	5.16
619.079	5.03
619.268	5.11
619.456	4.97
619.644	5.16
619.833	5
620.021	5.02
620.209	4.87
620.398	5
620.586	4.89
620.774	4.99
620.962	4.94
621.151	4.97
621.339	4.9
621.527	4.79
621.715	4.82
621.903	4.87
622.092	4.74
622.28	4.92
622.468	4.64
622.656	4.8
622.844	4.72
623.032	4.81
623.22	4.7
623.408	4.78
623.596	4.72
623.784	4.76
623.972	4.6
624.16	4.62
624.348	4.72
624.536	4.69
624.724	4.54
624.912	4.53
625.1	4.61
625.288	4.6
625.476	4.48
625.664	4.59
625.851	4.48
626.039	4.5
626.227	4.4
626.415	4.45
626.603	4.38
626.79	4.45
626.978	4.51
627.166	4.43
627.354	4.37
627.541	4.31
627.729	4.19
627.917	4.44
628.104	4.4
628.292	4.22
628.48	4.36
628.667	4.22
628.855	4.35
629.042	4.34
629.23	4.28
629.418	4.27
629.605	4.29
629.793	4.18
629.98	4.16
630.168	4.17
630.355	4.19
630.543	4.1
630.73	4.12
630.917	4.05
631.105	4.17
631.292	4.11
631.48	4.07
631.667	4.18
631.854	3.98
632.042	4.02
632.229	3.92
632.416	4.04
632.604	3.97
632.791	3.86
632.978	3.99
633.165	3.92
633.353	4
633.54	3.95
633.727	3.81
633.914	3.84
634.101	3.76
634.289	3.93
634.476	3.76
634.663	3.76
634.85	3.84
635.037	3.71
635.224	3.69
635.411	3.81
635.598	3.73
635.785	3.7
635.972	3.65
636.159	3.72
636.346	3.67
636.533	3.65
636.72	3.62
636.907	3.6
637.094	3.61
637.281	3.53
637.468	3.63
637.655	3.52
637.842	3.55
638.029	3.56
638.215	3.6
638.402	3.47
638.589	3.45
638.776	3.44
638.963	3.43
639.149	3.51
639.336	3.55
639.523	3.43
639.709	3.4
639.896	3.37
640.083	3.4
640.27	3.44
640.456	3.33
640.643	3.34
640.829	3.24
641.016	3.29
641.203	3.23
641.389	3.32
641.576	3.25
641.762	3.21
641.949	3.19
642.135	3.29
642.322	3.21
642.508	3.08
642.695	3.21
642.881	3.11
643.068	3.11
643.254	3.16
643.441	3.15
643.627	3.23
643.813	2.99
644	3.12
644.186	2.99
644.372	3.13
644.559	3.09
644.745	2.98
644.931	2.99
645.118	3.02
645.304	3.03
645.49	3.02
645.676	2.93
645.862	3.01
646.049	3.04
646.235	2.97
646.421	3.03
646.607	3
646.793	2.91
646.979	2.84
647.165	2.89
647.352	2.92
647.538	2.83
647.724	2.84
647.91	2.83
648.096	2.86
648.282	2.83
648.468	2.78
648.654	2.79
648.84	2.79
649.026	2.79
649.212	2.75
649.397	2.71
649.583	2.68
649.769	2.72
649.955	2.69
650.141	2.7
650.327	2.67
650.513	2.61
650.698	2.67
650.884	2.58
651.07	2.71
651.256	2.61
651.442	2.6
651.627	2.52
651.813	2.64
651.999	2.53
652.184	2.55
652.37	2.58
652.556	2.51
652.741	2.6
652.927	2.36
653.113	2.52
653.298	2.46
653.484	2.46
653.669	2.38
653.855	2.44
654.04	2.51
654.226	2.46
654.412	2.4
654.597	2.31
654.782	2.45
654.968	2.42
655.153	2.38
655.339	2.33
655.524	2.35
655.71	2.37
655.895	2.35
656.08	2.31
656.266	2.37
656.451	2.3
656.636	2.27
656.822	2.27
657.007	2.25
657.192	2.3
657.378	2.19
657.563	2.3
657.748	2.23
657.933	2.21
658.118	2.12
658.304	2.19
658.489	2.27
658.674	2.2
658.859	2.13
659.044	2.21
659.229	2.21
659.414	2.14
659.599	2.14
659.785	2.07
659.97	2.11
660.155	2.12
660.34	2.15
660.525	2.09
660.71	2.02
660.895	2.18
661.08	2.03
661.264	2
661.449	2.1
661.634	2.05
661.819	2.09
662.004	2.04
662.189	2.02
662.374	2
662.559	1.96
662.743	1.93
662.928	1.99
663.113	1.9
663.298	1.91
663.483	1.93
663.667	1.96
663.852	1.89
664.037	1.94
664.221	1.85
664.406	1.97
664.591	1.97
664.775	1.92
664.96	1.91
665.145	1.83
665.329	1.93
665.514	1.83
665.698	1.81
665.883	1.79
666.068	1.9
666.252	1.84
666.437	1.73
666.621	1.82
666.806	1.85
666.99	1.79
667.174	1.79
667.359	1.83
667.543	1.75
667.728	1.78
667.912	1.66
668.096	1.78
668.281	1.66
668.465	1.74
668.649	1.72
668.834	1.66
669.018	1.73
669.202	1.71
669.387	1.67
669.571	1.71
669.755	1.66
669.939	1.71
670.124	1.64
670.308	1.7
670.492	1.67
670.676	1.59
670.86	1.61
671.044	1.61
671.228	1.69
671.413	1.59
671.597	1.56
671.781	1.62
671.965	1.63
672.149	1.59
672.333	1.63
672.517	1.49
672.701	1.6
672.885	1.58
673.069	1.45
673.253	1.61
673.437	1.54
673.621	1.48
673.804	1.54
673.988	1.49
674.172	1.44
674.356	1.41
674.54	1.5
674.724	1.61
674.908	1.48
675.091	1.49
675.275	1.44
675.459	1.51
675.643	1.45
675.826	1.44
676.01	1.45
676.194	1.45
676.377	1.47
676.561	1.53
676.745	1.41
676.928	1.41
677.112	1.51
677.296	1.36
677.479	1.39
677.663	1.37
677.846	1.45
678.03	1.39
678.213	1.35
678.397	1.38
678.58	1.38
678.764	1.34
678.947	1.34
679.131	1.3
679.314	1.4
679.498	1.32
679.681	1.38
679.865	1.38
680.048	1.31
680.231	1.33
680.415	1.25
680.598	1.31
680.781	1.25
680.965	1.23
681.148	1.32
681.331	1.24
681.514	1.35
681.698	1.23
681.881	1.25
682.064	1.28
682.247	1.26
682.43	1.23
682.614	1.27
682.797	1.33
682.98	1.3
683.163	1.15
683.346	1.28
683.529	1.21
683.712	1.1
683.895	1.25
684.078	1.12
684.261	1.18
684.444	1.23
684.627	1.18
684.81	1.11
684.993	1.19
685.176	1.19
685.359	1.15
685.542	1.1
685.725	1.24
685.908	1.13
686.091	1.14
686.274	1.17
686.457	1.17
686.639	1.16
686.822	1.19
687.005	1.09
687.188	1.2
687.371	1.22
687.553	1.15
687.736	1.1
687.919	1.19
688.102	1.19
688.284	1.07
688.467	1.03
688.65	1.12
688.832	1.07
689.015	1.02
689.197	0.97
689.38	1.17
689.563	1.23
689.745	0.98
689.928	0.97
690.11	1.06
690.293	1.05
690.475	0.97
690.658	1.03
690.84	1.01
691.023	0.97
691.205	0.98
691.388	1.08
691.57	1.08
691.752	1.03
691.935	0.86
692.117	0.96
692.3	0.96
692.482	0.96
692.664	0.9
692.847	1.03
693.029	1.06
693.211	1.01
693.393	0.91
693.576	0.88
693.758	0.99
693.94	0.91
694.122	0.96
694.304	0.92
694.487	0.9
694.669	1.04
694.851	0.88
695.033	0.85
695.215	0.91
695.397	0.87
695.579	0.88
695.761	0.84
695.943	0.81
696.125	0.99
696.308	0.93
696.49	0.77
696.671	0.95
696.853	0.86
697.035	1.13
697.217	0.88
697.399	0.9
697.581	0.83
697.763	0.85
697.945	0.8
698.127	0.81
698.309	0.94
698.491	0.88
698.672	0.9
698.854	0.92
699.036	0.93
699.218	0.81
699.399	0.86
699.581	0.92
699.763	0.83
699.945	0.81
700.126	0.81
700.308	0.89
700.49	0.82
700.671	0.74
700.853	0.76
701.035	0.79
701.216	0.87
701.398	0.7
701.579	0.79
701.761	0.86
701.943	0.82
702.124	0.76
702.306	0.75
702.487	0.97
702.669	0.8
702.85	0.75
703.031	0.71
703.213	0.89
703.394	0.9
703.576	0.74
703.757	0.86
703.938	0.86
704.12	1.03
704.301	0.75
704.483	0.71
704.664	0.8
704.845	0.85
705.026	0.79
705.208	0.71
705.389	0.73
705.57	0.8
705.751	0.74
705.933	0.76
706.114	0.83
706.295	0.77
706.476	0.62
706.657	0.84
706.838	0.78
707.02	0.82
707.201	0.66
707.382	0.74
707.563	0.74
707.744	0.67
707.925	0.68
708.106	0.59
708.287	0.72
708.468	0.84
708.649	0.76
708.83	0.76
709.011	0.66
709.192	0.75
709.373	0.56
709.554	0.68
709.734	0.75
709.915	0.67
710.096	0.7
710.277	0.53
710.458	0.74
710.639	0.76
710.819	0.6
711	0.62
711.181	0.74
711.362	0.79
711.542	0.68
711.723	0.63
711.904	0.74
712.085	0.74
712.265	0.68
712.446	0.56
712.627	0.59
712.807	0.67
712.988	0.6
713.168	0.6
713.349	0.72
713.53	0.49
713.71	0.56
713.891	0.57
714.071	0.59
714.252	0.55
714.432	0.62
714.613	0.49
714.793	0.59
714.974	0.7
715.154	0.63
715.334	0.64
715.515	0.73
715.695	0.45
715.876	0.61
716.056	0.59
716.236	0.57
716.417	0.52
716.597	0.48
716.777	0.8
716.957	0.59
717.138	0.57
717.318	0.61
717.498	0.48
717.678	0.61
717.859	0.62
718.039	0.52
718.219	0.59
718.399	0.62
718.579	0.48
718.759	0.48
718.939	0.64
719.12	0.57
719.3	0.58
719.48	0.41
719.66	0.37
719.84	0.65
720.02	0.59
720.2	0.5
720.38	0.55
720.56	0.74
720.74	0.44
720.92	0.55
721.1	0.67
721.279	0.53
721.459	0.64
721.639	0.48
721.819	0.5
721.999	0.55
722.179	0.63
722.359	0.43
722.538	0.59
722.718	0.56
722.898	0.55
723.078	0.53
723.257	0.56
723.437	0.57
723.617	0.5
723.797	0.44
723.976	0.52
724.156	0.57
724.336	0.64
724.515	0.72
724.695	0.46
724.874	0.51
725.054	0.61
725.234	0.52
725.413	0.53
725.593	0.57
725.772	0.54
725.952	0.48
726.131	0.48
726.311	0.55
726.49	0.56
726.67	0.5
726.849	0.54
727.028	0.54
727.208	0.53
727.387	0.51
727.567	0.46
727.746	0.41
727.925	0.42
728.105	0.37
728.284	0.4
728.463	0.49
728.643	0.62
728.822	0.34
729.001	0.44
729.18	0.5
729.359	0.57
729.539	0.5
729.718	0.46
729.897	0.58
730.076	0.47
730.255	0.35
730.434	0.51
730.614	0.56
730.793	0.67
730.972	0.41
731.151	0.5
731.33	0.55
731.509	0.62
731.688	0.48
731.867	0.51
732.046	0.34
732.225	0.74
732.404	0.38
732.583	0.33
732.762	0.48
732.941	0.57
733.12	0.48
733.298	0.47
733.477	0.66
733.656	0.47
733.835	0.34
734.014	0.66
734.193	0.52
734.371	0.57
734.55	0.57
734.729	0.36
734.908	0.51
735.086	0.54
735.265	0.56
735.444	0.21
735.623	0.44
735.801	0.37
735.98	0.54
736.159	0.53
736.337	0.48
736.516	0.58
736.694	0.59
736.873	0.31
737.052	0.79
737.23	0.66
737.409	0.36
737.587	0.71
737.766	0.32
737.944	0.48
738.123	0.59
738.301	0.6
738.479	0.49
738.658	0.6
738.836	0.33
739.015	0.61
739.193	0.55
739.371	0.28
739.55	0.49
739.728	0.36
739.906	0.62
740.085	0.63
740.263	0.53
740.441	0.19
740.62	0.74
740.798	0.58
740.976	0.33
741.154	0.36
741.332	0.7
741.511	0.49
741.689	0.39
741.867	0.55
742.045	0.57
742.223	0.39
742.401	0.37
742.579	0.36
742.757	0.59
742.935	0.26
743.114	0.38
743.292	0.51
743.47	0.4
743.648	0.53
743.826	0.22
744.004	0.49
744.181	0.65
744.359	0.37
744.537	0.49
744.715	0.54
744.893	0.43
745.071	0.49
745.249	0.39
745.427	0.5
745.605	0.62
745.782	0.43
745.96	0.58
746.138	0.58
746.316	0.56
746.493	0.44
746.671	0.46
746.849	0.44
747.027	0.62
747.204	0.3
747.382	0.46
747.56	0.22
747.737	0.37
747.915	0.26
748.093	0.57
748.27	0.26
748.448	0.41
748.625	0.26
748.803	0.25
748.98	0.34
749.158	0.51
749.335	0.54
749.513	0.37
749.69	0.39
749.868	0.41
750.045	0.44
750.223	0.28
750.4	0.25
750.578	0.66
750.755	0.41
750.932	0.17
751.11	0.51
751.287	0.27
751.464	0.51
751.642	0.27
751.819	0.45
751.996	0.37
752.173	0.34
752.351	0.33
752.528	0.25
752.705	0.33
752.882	0.31
753.06	0.45
753.237	0.4
753.414	0.52
753.591	0.72
753.768	0.49
753.945	0.41
754.122	0.35
754.299	0.5
754.476	0.39
754.654	0.34
754.831	0.49
755.008	0.5
755.185	0.35
755.362	0.34
755.539	0.41
755.716	0.35
755.892	0.35
756.069	0.41
756.246	0.43
756.423	0.48
756.6	0.5
756.777	0.34
756.954	0.53
757.131	0.36
757.307	0.21
757.484	0.25
757.661	0.36
757.838	0.5
758.015	0.24
758.191	0.37
758.368	0.5
758.545	0.58
758.721	0.51
758.898	0.16
759.075	0.36
759.251	0.48
759.428	0.47
759.605	0.18
759.781	0.31
759.958	0.55
760.134	0.24
760.311	0.28
760.488	0.53
760.664	0.67
760.841	0.39
761.017	0.25
761.194	0.49
761.37	0.54
761.547	0.44
761.723	0.34
761.899	0.58
762.076	0.36
762.252	0.16
762.429	0.3
762.605	0.51
762.781	0.42
762.958	0.39
763.134	0.24
763.31	0.26
763.486	0.49
763.663	0.06
763.839	0.42
764.015	0.21
764.191	0.37
764.368	0.29
764.544	0.18
764.72	0.45
764.896	0.5
765.072	0.43
765.248	0.33
765.425	0.33
765.601	0.43
765.777	0.37
765.953	0.04
766.129	0.36
766.305	0.32
766.481	0.56
766.657	0.43
766.833	0.53
767.009	0.22
767.185	0.33
767.361	0.34
767.537	0.3
767.713	0.58
767.889	0.31
768.065	0.32
768.24	0.37
768.416	0.53
768.592	0.25
768.768	0.29
768.944	0.38
769.12	0.24
769.295	0.34
769.471	0.33
769.647	0.3
769.823	0.62
769.998	0.16
770.174	0.28
770.35	0.81
770.525	0.71
770.701	0.39
770.877	0.34
771.052	0.23
771.228	0.53
771.403	0.43
771.579	0.39
771.755	0.67
771.93	0.33
772.106	0.18
772.281	0.19
772.457	0.43
772.632	0.42
772.808	0.19
772.983	0.34
773.159	0.19
773.334	0.53
773.509	0.51
773.685	0.22
773.86	0.7
774.036	0.5
774.211	0.34
774.386	0.37
774.562	0.47
774.737	0.61
774.912	0.4
775.087	0.56
775.263	0.32
775.438	0.37
775.613	0.31
775.788	0.45
775.964	0.57
776.139	1.01
776.314	0.22
776.489	0.4
776.664	0.49
776.839	0.28
777.014	0.57
777.19	0.6
777.365	0.81
777.54	0.69
777.715	0.35
777.89	0.53
778.065	0.16
778.24	0.46
778.415	0.52
778.59	0.04
778.765	0.1
778.94	0.46
779.115	0.33
779.289	0.29
779.464	0.54
779.639	0.45
779.814	0.21
779.989	0.13
780.164	0.66
780.339	0.64
780.513	0.38
780.688	0.12
780.863	0.44
781.038	0.55
781.212	0.14
781.387	0.34
781.562	0.66
781.737	0.25
781.911	0.65
782.086	0.19
782.261	0.26
782.435	0.83
782.61	0.26
782.784	0.28
782.959	0.65
783.134	0.3
783.308	0.2
783.483	0.32
783.657	0.93
783.832	0.78
784.006	0.14
784.181	0.44
784.355	0.63
784.53	0.28
784.704	0.23
784.878	0.59
785.053	0.61
785.227	0.78
785.402	0.81
785.576	0.41
785.75	0.59
785.925	0.36
786.099	0.45
786.273	0.4
786.448	0.58
786.622	0.59
786.796	0.39
786.97	0.15
787.145	1
787.319	0.09
787.493	0.26
787.667	0.11
787.841	0.47
788.015	0.68
788.19	0.23
788.364	0.34
788.538	0.57
788.712	0.6
788.886	0.14
789.06	0.79
789.234	0.61
789.408	0.13
789.582	0.31
789.756	0.26
789.93	0.35
790.104	0.39
790.278	0.44
790.452	0.09
790.626	0.42
790.8	0.34
790.973	0.49
791.147	0.66
791.321	0.78
791.495	0.78
791.669	0.58
791.843	0.66
792.016	0.55
792.19	0.99
792.364	0.1
792.538	1.02
792.711	0.77
792.885	0.28
793.059	0.19
793.233	-0.2
793.406	0.56
793.58	0.4
793.754	0.61
793.927	0.55
794.101	0.74
794.274	0.56
794.448	0.92
794.622	0.13
794.795	0.78
794.969	0.35
795.142	1
795.316	0.26
795.489	0.18
795.663	0.94
795.836	0.34
796.009	0.12
796.183	0.94
796.356	0.66
796.53	0.56
796.703	0.34
796.876	0.93
797.05	0.42
797.223	0.36
797.396	0.53
797.57	0.62
797.743	0.99
797.916	0.5
798.09	0.23
798.263	0.54
798.436	0.5
798.609	0.41
798.782	0.06
798.956	0.6
799.129	0.62
799.302	0.4
799.475	0.11
799.648	0.22
799.821	0.55
799.994	0.31
800.167	0.05
800.34	0.59
800.514	0.6
800.687	0.4
800.86	0.31
801.033	0.54
801.206	0.63
801.379	0.16
801.551	0.81
801.724	0.61
801.897	1.48
802.07	0.08
802.243	0.06
802.416	0.66
802.589	0.67
802.762	0.62
802.935	0.46
803.107	0.98
803.28	0.78
803.453	0.68
803.626	0.27
803.798	0.77
803.971	0.23
804.144	0.59
804.317	0.77
804.489	0.9
804.662	0.7
804.835	0.39
805.007	0.37
805.18	1.26
805.353	0.41
805.525	0.42
805.698	0.05
805.87	1.13
806.043	0.56
806.215	-0
806.388	0.34
806.56	0.83
806.733	1.12
806.905	0.79
807.078	0.37
807.25	0.21
807.423	0.96
807.595	0.68
807.768	0.46
807.94	0.77
808.112	0.84
808.285	0.6
808.457	0.27
808.629	0.45
808.802	0.68
808.974	0.73
809.146	0.62
809.318	0.31
809.491	0.65
809.663	0.88
809.835	0.42
810.007	0.73
810.18	0.54
810.352	0.28
810.524	0.51
810.696	0.88
810.868	0.89
811.04	0.67
811.212	0.55
811.384	1.11
811.556	0.8
811.728	0.6
811.901	1.41
812.073	0.62
812.245	0.84
812.417	0.46
812.589	-0.08
812.76	0.96
812.932	0.76
813.104	1.09
813.276	0.66
813.448	0.76
813.62	0.62
813.792	0.64
813.964	0.36
814.136	0.74
814.307	0.65
814.479	0.16
814.651	0.26
814.823	1.5
814.995	0.52
815.166	0.89
815.338	0.47
815.51	0.02
815.681	1.63
815.853	1.04
816.025	0.5
816.196	1.36
816.368	1.49
816.54	0.06
816.711	0.39
816.883	1.13
817.054	1.91
817.226	-0.37
817.398	0.91
817.569	0.42
817.741	1.16
817.912	1
818.084	0.67
818.255	1.19
818.426	0.57
818.598	0.69
818.769	0.43
818.941	0.93
819.112	1.29
819.283	0.71
819.455	0.07
819.626	0.4
819.798	1.4
819.969	0.63
820.14	0.34
820.311	0.88
820.483	0.72
820.654	0.99
820.825	0.38
820.996	0.82
821.168	0.26
821.339	0.41
821.51	0.46
821.681	0.43
821.852	0.45
822.023	0.34
822.195	-0.36
822.366	1.41
822.537	0.67
822.708	0.86
822.879	0.44
823.05	1.35
823.221	0.79
823.392	1.27
823.563	0.38
823.734	0.99
823.905	1.26
824.076	0.54
824.247	0.06
824.418	0.44
824.589	1.3
824.759	0.93
824.93	0.59
825.101	0.02
825.272	1.59
825.443	1.7
825.614	1.47
825.784	0.11
825.955	1.4
826.126	1.15
826.297	0.79
826.467	1.84
826.638	1.86
826.809	-0.54
826.98	1.11
827.15	1.69
827.321	0.9
827.492	1.41
827.662	0.89
827.833	2.69
828.003	1.61
828.174	0.12
828.345	-0.05
828.515	1.62
828.686	1.13
828.856	0.69
829.027	0.58
829.197	1.45
829.368	1.4
829.538	0.4
829.709	0.88
829.879	0.91
830.049	0.68
830.22	0.52
830.39	0.69
830.56	1.45
830.731	1.25
830.901	0.34
831.072	0.47
831.242	1.93
831.412	0.63
831.582	0.47
831.753	0.23
831.923	1.42
832.093	1.29
832.263	0.62
832.434	0.42
832.604	1.16
832.774	1.64
832.944	0.35
833.114	0.49
833.284	1.15
833.454	0.29
833.624	0.43
833.795	0.36
833.965	1.49
834.135	2.23
834.305	-0.9
834.475	-0.14
834.645	0.77
834.815	0.56
834.985	0.33
835.155	0.55
835.325	1.13
835.494	1.59
835.664	-0.05
835.834	-0.56
836.004	0.88
836.174	1.3
836.344	0.56
836.514	0.12
836.684	0.11
836.853	1.61
837.023	0.38
837.193	0.17
837.363	1.96
837.532	1.33
837.702	0.52
837.872	-0.27
838.041	1.22
838.211	2.02
838.381	-0.44
838.55	0.75
838.72	3.37
838.89	2.82
839.059	0.89
839.229	0.13
839.398	3.06
839.568	1.2
839.738	0.77
839.907	2.28
840.077	1.13
840.246	0.72
840.416	0.44
840.585	0.2
840.755	2.36
840.924	2.36
841.093	0.09
841.263	0.65
841.432	1.22
841.602	0.61
841.771	-0.09
841.94	0.95
842.11	3.58
842.279	3.06
842.448	-0.02
842.617	0.19
842.787	2.64
842.956	-0.29
843.125	1.08
843.294	1.05
843.464	2.55
843.633	1.43
843.802	-0.67
843.971	1.13
844.14	1.75
844.309	2.1
844.479	-0.84
844.648	-0.18
844.817	0.53
844.986	0.67
845.155	0.76
845.324	1.07
845.493	1.51
845.662	0.58
845.831	1.59
846	1.22
846.169	0.72
846.338	2.82
846.507	1.8
846.676	1.31
846.844	0.7
847.013	1.73
847.182	0.56
847.351	1.17
847.52	1.59
847.689	1.4
847.858	0.71
848.026	0.18
848.195	2.69
848.364	1
848.533	0.41
848.701	0.67
848.87	1.22
849.039	1.98
849.207	1.23
849.376	2.54
849.545	2.84
849.713	0.68
849.882	0.55
850.051	0.51
850.219	1.63
850.388	2.48
850.556	0.15
850.725	0.82
850.893	1.86
851.062	1.77
851.23	1.47
851.399	-0.31
851.567	0.79
851.736	1.36
851.904	1.09
852.073	2.14
852.241	2.25
852.41	1.56
852.578	1.54
852.746	1.18
852.915	1.83
853.083	0.75
853.251	-0.54
853.42	1.61
853.588	1.54
853.756	2.46
853.924	1.49
854.093	0.4
854.261	1.74
854.429	-0.42
854.597	0.03
854.765	0.12
854.934	2.73
855.102	3.16
855.27	1.47
855.438	1.93
855.606	3.16
855.774	3.6
855.942	0.46
856.11	-0.67
856.278	2.39
856.446	3.12
856.614	1.1
856.782	1.68
856.95	2.71
857.118	2.03
857.286	1.8
857.454	1.12
857.622	2.99
857.79	2.03
857.958	0.92
858.126	0.47
858.294	-1.33
858.462	1.82
858.629	0.11
858.797	0.89
858.965	1.77
859.133	2.12
859.301	0.17
859.468	1.56
859.636	1.43
859.804	4.31
859.971	2.77
860.139	0.45
860.307	4.38
860.474	2.69
860.642	1.06
860.81	0.45
860.977	2.19
861.145	4.82
861.313	1.25
861.48	1.44
861.648	2.91
861.815	1.59
861.983	0.41
862.15	-0.11
862.318	2.57
862.485	2.74
862.653	-0.72
862.82	0.44
862.988	3.46
863.155	0.4
863.322	-0.07
863.49	1.33
863.657	-0.32
863.824	4.32
863.992	3.59
864.159	2.52
864.326	2.75
864.494	1.52
864.661	5.2
864.828	-0.25
864.996	3.73
865.163	3.39
865.33	0.68
865.497	-2.09
865.664	-0.59
865.832	-0.91
865.999	0.91
866.166	0.73
866.333	1.37
866.5	3.05
866.667	1.79
866.834	2.09
867.001	3.94
867.168	-0.09
867.335	1.34
867.502	-0.01
867.669	1.72
867.836	5.28
868.003	1.38
868.17	3.42
868.337	5.3
868.504	6.34
868.671	-0.48
868.838	0.34
869.005	3.31
869.172	3.49
869.339	1.27
869.505	2.51
869.672	2.88
869.839	5.38
870.006	2.16
870.173	-0.11
870.339	2.62
870.506	4.94
870.673	-0.8
870.84	1.38
871.006	1.32
871.173	3.4
871.34	1.76
871.506	-0.19
871.673	2.37
871.839	0.23
872.006	1.87
872.173	-1.08
872.339	1.98
872.506	3.98
872.672	0.72
872.839	-1.53
873.005	3.42
873.172	5.95
873.338	3.41
873.505	1.9
873.671	2.06
873.838	4.66
874.004	-1.83
874.171	0.21
874.337	2.64
874.503	4.14
874.67	1
874.836	2.38
875.002	4.79
875.169	3.04
875.335	3.54
875.501	-0.24
875.668	3.98
875.834	1.39
876	0.39
876.166	2.69
876.332	2.1
876.499	6.14
876.665	2.92
876.831	2.08
876.997	6.85
877.163	4.04
877.329	2.47
877.495	1.81
877.662	4.42
877.828	3.48
877.994	1.57
878.16	-0.79
878.326	1.22
878.492	2.63
878.658	0.52
878.824	4.26
878.99	2.1
879.156	0.84
879.322	4.09
879.487	2.56
879.653	3.14
879.819	3.25
879.985	1.47
880.151	1.46
880.317	3.2
880.483	2.41
880.648	2.84
880.814	-2.52
880.98	1.97
881.146	-1.93
881.312	-0.84
881.477	1.52
881.643	2.86
881.809	4.48
881.974	4.78
882.14	-0.95
882.306	2.21
882.471	3.45
882.637	1
882.803	1.82
882.968	4.3
883.134	6.85
883.299	2.34
883.465	2.08
883.63	3.96
883.796	5.26
883.961	2.62
884.127	3.02
884.292	-3.26
884.458	-0.07
884.623	-0.07
