Data from Apollo_Calib_20240827__AbsoluteIrradiance__747__11-36-01-458.txt Node

Date: Wed Aug 28 11:36:01 BST 2024
User: biology
Spectrometer: FLMT08252
Trigger mode: 0
Integration Time (sec): 5.000000E-1
Scans to average: 5
Electric dark correction enabled: true
Nonlinearity correction enabled: false
Boxcar width: 0
XAxis mode: Wavelengths
Number of Pixels in Spectrum: 3648
>>>>>Begin Spectral Data<<<<<
179.588	-0
179.809	-0
180.03	-0
180.251	-0
180.473	-0
180.694	0
180.915	0
181.136	-0
181.357	0
181.578	-0
181.799	-0
182.02	-0
182.241	-0
182.462	-0
182.683	0
182.904	-0
183.125	-0
183.346	0
183.567	0
183.788	0
184.009	0
184.23	0
184.451	0
184.672	0
184.892	0
185.113	0
185.334	0
185.555	0
185.776	0
185.996	0
186.217	0
186.438	0
186.659	0
186.879	0
187.1	0
187.321	0
187.541	0
187.762	0
187.983	0
188.203	0
188.424	0
188.644	0
188.865	0
189.086	0
189.306	0
189.527	0
189.747	0
189.968	0
190.188	0
190.409	0
190.629	0
190.849	0
191.07	0
191.29	0
191.511	0
191.731	0
191.951	0
192.172	0
192.392	0
192.612	0
192.833	0
193.053	0
193.273	0
193.493	0
193.714	0
193.934	0
194.154	0
194.374	0
194.594	0
194.815	0
195.035	0
195.255	0
195.475	0
195.695	0
195.915	0
196.135	0
196.355	0
196.575	0
196.795	0
197.015	0
197.235	0
197.455	0
197.675	0
197.895	0
198.115	0
198.335	0
198.555	0
198.775	0
198.995	0
199.214	0
199.434	0
199.654	0
199.874	0
200.094	2.59
200.313	1.92
200.533	1.09
200.753	0.94
200.973	2.27
201.192	1.92
201.412	0.57
201.632	1.25
201.851	2.57
202.071	0.93
202.291	1.47
202.51	0.81
202.73	2.39
202.95	1.2
203.169	0.68
203.389	1.14
203.608	1.21
203.828	1.06
204.047	1.19
204.267	1.49
204.486	1.74
204.706	1.42
204.925	1.26
205.145	0.67
205.364	1.39
205.583	1.69
205.803	0.9
206.022	0.13
206.242	0.86
206.461	0.96
206.68	0.48
206.9	1.12
207.119	1.74
207.338	1.38
207.557	0.73
207.777	0.67
207.996	0.77
208.215	1.62
208.434	0.42
208.654	0.41
208.873	0.89
209.092	1.43
209.311	0.86
209.53	0.95
209.749	0.67
209.968	0.53
210.187	0.68
210.407	0.26
210.626	0.78
210.845	1.09
211.064	0.79
211.283	0.61
211.502	0.87
211.721	0.56
211.94	0.63
212.159	1.13
212.377	0.78
212.596	1.09
212.815	0.68
213.034	0.86
213.253	0.88
213.472	0.97
213.691	0.5
213.91	0.48
214.128	0.39
214.347	1.12
214.566	0.21
214.785	0.21
215.003	0.46
215.222	0.6
215.441	0.55
215.66	0.39
215.878	0.47
216.097	1.06
216.316	0.28
216.534	0.59
216.753	0.71
216.972	0.52
217.19	0.49
217.409	0.24
217.627	0.33
217.846	0.47
218.064	0.57
218.283	0.44
218.501	1.04
218.72	0.7
218.938	0.28
219.157	0.46
219.375	0.68
219.594	0.5
219.812	0.18
220.031	0.34
220.249	0.74
220.467	0.76
220.686	0.4
220.904	0.26
221.122	0.31
221.341	0.92
221.559	0.48
221.777	0.33
221.995	0.58
222.214	0.65
222.432	0.29
222.65	0.5
222.868	0.52
223.086	0.54
223.305	0.65
223.523	0.46
223.741	0.74
223.959	0.5
224.177	0.08
224.395	0.27
224.613	0.47
224.831	0.74
225.049	0.1
225.267	0.39
225.485	0.53
225.703	0.42
225.921	0.39
226.139	0.43
226.357	0.49
226.575	0.62
226.793	0.27
227.011	1.14
227.229	0.48
227.447	0.55
227.665	0.37
227.883	0.21
228.1	0.32
228.318	0.29
228.536	0.18
228.754	0.32
228.972	0.54
229.189	0.44
229.407	0.38
229.625	0.32
229.843	0.65
230.06	0.37
230.278	0.29
230.496	0.37
230.713	0.34
230.931	0.55
231.149	0.29
231.366	0.24
231.584	0.32
231.801	0.68
232.019	0.35
232.236	0.18
232.454	0.27
232.671	0.41
232.889	0.27
233.106	0.28
233.324	0.44
233.541	0.39
233.759	0.41
233.976	0.19
234.194	0.32
234.411	0.39
234.628	0.21
234.846	0.21
235.063	0.34
235.28	0.36
235.498	0.26
235.715	0.16
235.932	0.44
236.149	0.3
236.367	0.27
236.584	0.3
236.801	0.38
237.018	0.55
237.236	0.32
237.453	0.2
237.67	0.38
237.887	0.31
238.104	0.24
238.321	0.25
238.538	0.28
238.755	0.51
238.973	0.07
239.19	0.35
239.407	0.32
239.624	0.37
239.841	0.15
240.058	0.19
240.275	0.37
240.492	0.3
240.709	0.3
240.925	0.25
241.142	0.25
241.359	0.25
241.576	0.22
241.793	0.24
242.01	0.39
242.227	0.52
242.444	0.3
242.66	0.43
242.877	0.31
243.094	0.2
243.311	0.26
243.527	0.2
243.744	0.39
243.961	0.31
244.178	0.15
244.394	0.26
244.611	0.44
244.828	0.51
245.044	0.14
245.261	0.13
245.477	0.29
245.694	0.44
245.911	0.16
246.127	0.35
246.344	0.45
246.56	0.3
246.777	0.34
246.993	0.26
247.21	0.31
247.426	0.39
247.643	0.35
247.859	0.14
248.076	0.19
248.292	0.39
248.508	0.22
248.725	0.25
248.941	0.32
249.157	0.42
249.374	0.2
249.59	0.25
249.806	0.31
250.023	0.47
250.239	0.15
250.455	0.17
250.671	0.25
250.888	0.31
251.104	0.29
251.32	0.24
251.536	0.22
251.752	0.33
251.969	0.2
252.185	0.28
252.401	0.42
252.617	0.2
252.833	0.19
253.049	0.29
253.265	0.24
253.481	0.27
253.697	0.14
253.913	0.2
254.129	0.3
254.345	0.22
254.561	0.19
254.777	0.19
254.993	0.24
255.209	0.24
255.425	0.21
255.641	0.22
255.857	0.3
256.073	0.32
256.288	0.13
256.504	0.16
256.72	0.32
256.936	0.41
257.152	0.25
257.367	0.15
257.583	0.25
257.799	0.36
258.015	0.15
258.23	0.21
258.446	0.46
258.662	0.24
258.877	0.18
259.093	0.16
259.309	0.2
259.524	0.36
259.74	0.22
259.955	0.08
260.171	0.23
260.387	0.26
260.602	0.28
260.818	0.28
261.033	0.15
261.249	0.25
261.464	0.23
261.68	0.11
261.895	0.23
262.11	0.27
262.326	0.24
262.541	0.07
262.757	0.29
262.972	0.29
263.187	0.25
263.403	0.24
263.618	0.29
263.833	0.27
264.049	0.12
264.264	0.2
264.479	0.3
264.694	0.29
264.91	0.18
265.125	0.13
265.34	0.3
265.555	0.37
265.77	0.26
265.986	0.19
266.201	0.29
266.416	0.29
266.631	0.18
266.846	0.23
267.061	0.27
267.276	0.3
267.491	0.11
267.706	0.23
267.921	0.28
268.136	0.27
268.351	0.23
268.566	0.17
268.781	0.32
268.996	0.36
269.211	0.21
269.426	0.2
269.641	0.23
269.856	0.31
270.071	0.17
270.285	0.1
270.5	0.29
270.715	0.25
270.93	0.24
271.145	0.23
271.359	0.26
271.574	0.21
271.789	0.23
272.004	0.2
272.218	0.16
272.433	0.3
272.648	0.15
272.862	0.25
273.077	0.2
273.292	0.27
273.506	0.15
273.721	0.15
273.936	0.26
274.15	0.29
274.365	0.18
274.579	0.21
274.794	0.31
275.008	0.29
275.223	0.09
275.437	0.2
275.652	0.25
275.866	0.24
276.081	0.21
276.295	0.24
276.509	0.21
276.724	0.26
276.938	0.2
277.153	0.21
277.367	0.22
277.581	0.19
277.796	0.15
278.01	0.13
278.224	0.25
278.438	0.39
278.653	0.19
278.867	0.17
279.081	0.03
279.295	0.23
279.51	0.21
279.724	0.07
279.938	0.26
280.152	0.28
280.366	0.16
280.58	0.24
280.794	0.33
281.008	0.27
281.222	0.25
281.437	0.33
281.651	0.25
281.865	0.28
282.079	0.16
282.293	0.05
282.507	0.11
282.721	0.15
282.935	0.2
283.148	0.09
283.362	0.11
283.576	0.13
283.79	0.2
284.004	0.14
284.218	0.24
284.432	0.14
284.646	0.16
284.859	0.23
285.073	0.22
285.287	0.19
285.501	0.22
285.714	0.18
285.928	0.21
286.142	0.19
286.356	0.18
286.569	0.14
286.783	0.28
286.997	0.25
287.21	0.22
287.424	0.21
287.637	0.17
287.851	0.16
288.065	0.21
288.278	0.17
288.492	0.2
288.705	0.15
288.919	0.22
289.132	0.11
289.346	0.27
289.559	0.05
289.773	0.1
289.986	0.17
290.2	0.15
290.413	0.26
290.626	0.14
290.84	0.17
291.053	0.17
291.267	0.25
291.48	0.2
291.693	0.2
291.906	0.14
292.12	0.19
292.333	0.11
292.546	0.15
292.76	0.31
292.973	0.24
293.186	0.22
293.399	0.11
293.612	0.23
293.826	0.17
294.039	0.2
294.252	0.18
294.465	0.24
294.678	0.2
294.891	0.16
295.104	0.11
295.317	0.15
295.53	0.2
295.743	0.14
295.956	0.18
296.169	0.29
296.382	0.2
296.595	0.16
296.808	0.12
297.021	0.24
297.234	0.2
297.447	0.17
297.66	0.17
297.873	0.25
298.086	0.22
298.299	0.11
298.511	0.09
298.724	0.14
298.937	0.12
299.15	0.11
299.363	0.17
299.575	0.19
299.788	0.19
300.001	0.12
300.213	0.16
300.426	0.19
300.639	0.16
300.852	0.15
301.064	0.2
301.277	0.25
301.489	0.2
301.702	0.2
301.915	0.14
302.127	0.16
302.34	0.2
302.552	0.21
302.765	0.14
302.977	0.23
303.19	0.13
303.402	0.14
303.615	0.16
303.827	0.14
304.04	0.18
304.252	0.24
304.464	0.16
304.677	0.31
304.889	0.21
305.102	0.1
305.314	0.12
305.526	0.21
305.739	0.2
305.951	0.15
306.163	0.18
306.375	0.23
306.588	0.17
306.8	0.14
307.012	0.08
307.224	0.17
307.436	0.23
307.649	0.07
307.861	0.19
308.073	0.2
308.285	0.12
308.497	0.13
308.709	0.1
308.921	0.15
309.133	0.21
309.346	0.17
309.558	0.15
309.77	0.24
309.982	0.27
310.194	0.22
310.406	0.08
310.617	0.25
310.829	0.19
311.041	0.19
311.253	0.09
311.465	0.19
311.677	0.2
311.889	0.19
312.101	0.12
312.313	0.23
312.524	0.24
312.736	0.11
312.948	0.15
313.16	0.23
313.372	0.2
313.583	0.18
313.795	0.13
314.007	0.14
314.218	0.21
314.43	0.17
314.642	0.17
314.853	0.14
315.065	0.23
315.277	0.15
315.488	0.15
315.7	0.24
315.912	0.2
316.123	0.17
316.335	0.19
316.546	0.31
316.758	0.19
316.969	0.19
317.181	0.15
317.392	0.15
317.604	0.21
317.815	0.11
318.026	0.12
318.238	0.18
318.449	0.16
318.661	0.13
318.872	0.1
319.083	0.13
319.295	0.19
319.506	0.15
319.717	0.2
319.929	0.24
320.14	0.19
320.351	0.17
320.562	0.1
320.774	0.23
320.985	0.2
321.196	0.14
321.407	0.07
321.618	0.26
321.829	0.21
322.041	0.22
322.252	0.17
322.463	0.22
322.674	0.18
322.885	0.1
323.096	0.16
323.307	0.16
323.518	0.13
323.729	0.14
323.94	0.08
324.151	0.12
324.362	0.18
324.573	0.19
324.784	0.13
324.995	0.22
325.206	0.21
325.417	0.14
325.628	0.11
325.838	0.2
326.049	0.17
326.26	0.24
326.471	0.15
326.682	0.21
326.892	0.15
327.103	0.12
327.314	0.11
327.525	0.26
327.735	0.19
327.946	0.19
328.157	0.13
328.368	0.22
328.578	0.16
328.789	0.22
328.999	0.17
329.21	0.12
329.421	0.16
329.631	0.1
329.842	0.14
330.052	0.21
330.263	0.24
330.473	0.19
330.684	0.16
330.894	0.15
331.105	0.16
331.315	0.17
331.526	0.15
331.736	0.29
331.947	0.2
332.157	0.15
332.367	0.11
332.578	0.2
332.788	0.24
332.999	0.21
333.209	0.16
333.419	0.11
333.629	0.18
333.84	0.2
334.05	0.17
334.26	0.23
334.47	0.13
334.681	0.19
334.891	0.14
335.101	0.2
335.311	0.25
335.521	0.17
335.732	0.1
335.942	0.27
336.152	0.17
336.362	0.18
336.572	0.14
336.782	0.21
336.992	0.15
337.202	0.17
337.412	0.11
337.622	0.2
337.832	0.14
338.042	0.16
338.252	0.11
338.462	0.13
338.672	0.18
338.882	0.06
339.092	0.19
339.302	0.25
339.511	0.19
339.721	0.17
339.931	0.15
340.141	0.21
340.351	0.24
340.561	0.15
340.77	0.19
340.98	0.16
341.19	0.2
341.4	0.15
341.609	0.13
341.819	0.14
342.029	0.12
342.238	0.18
342.448	0.13
342.658	0.2
342.867	0.18
343.077	0.17
343.286	0.17
343.496	0.18
343.706	0.23
343.915	0.13
344.125	0.15
344.334	0.17
344.544	0.07
344.753	0.12
344.963	0.13
345.172	0.14
345.381	0.16
345.591	0.12
345.8	0.16
346.01	0.21
346.219	0.2
346.428	0.05
346.638	0.19
346.847	0.19
347.056	0.27
347.266	0.15
347.475	0.13
347.684	0.21
347.893	0.15
348.103	0.21
348.312	0.13
348.521	0.12
348.73	0.2
348.94	0.17
349.149	0.1
349.358	0.19
349.567	0.17
349.776	0.14
349.985	0.18
350.194	0.19
350.403	0.2
350.612	0.06
350.821	0.15
351.03	0.19
351.239	0.1
351.448	0.18
351.657	0.16
351.866	0.23
352.075	0.16
352.284	0.2
352.493	0.1
352.702	0.23
352.911	0.2
353.12	0.16
353.329	0.15
353.538	0.16
353.746	0.16
353.955	0.15
354.164	0.18
354.373	0.17
354.582	0.19
354.79	0.17
354.999	0.17
355.208	0.17
355.416	0.21
355.625	0.14
355.834	0.16
356.042	0.16
356.251	0.15
356.46	0.13
356.668	0.18
356.877	0.24
357.085	0.2
357.294	0.07
357.503	0.14
357.711	0.16
357.92	0.28
358.128	0.2
358.337	0.13
358.545	0.17
358.754	0.13
358.962	0.18
359.17	0.14
359.379	0.16
359.587	0.19
359.796	0.15
360.004	0.22
360.212	0.16
360.421	0.21
360.629	0.14
360.837	0.15
361.046	0.19
361.254	0.27
361.462	0.16
361.67	0.16
361.879	0.2
362.087	0.22
362.295	0.16
362.503	0.12
362.711	0.1
362.92	0.11
363.128	0.15
363.336	0.09
363.544	0.1
363.752	0.2
363.96	0.13
364.168	0.11
364.376	0.2
364.584	0.16
364.792	0.21
365	0.18
365.208	0.15
365.416	0.21
365.624	0.21
365.832	0.1
366.04	0.24
366.248	0.14
366.456	0.17
366.664	0.18
366.872	0.12
367.079	0.21
367.287	0.18
367.495	0.18
367.703	0.15
367.911	0.16
368.118	0.15
368.326	0.14
368.534	0.12
368.742	0.22
368.949	0.12
369.157	0.14
369.365	0.2
369.572	0.17
369.78	0.13
369.988	0.18
370.195	0.17
370.403	0.23
370.61	0.12
370.818	0.15
371.026	0.22
371.233	0.17
371.441	0.17
371.648	0.11
371.856	0.21
372.063	0.17
372.271	0.16
372.478	0.14
372.685	0.15
372.893	0.22
373.1	0.19
373.308	0.11
373.515	0.25
373.722	0.2
373.93	0.17
374.137	0.13
374.344	0.2
374.552	0.27
374.759	0.21
374.966	0.14
375.173	0.17
375.381	0.24
375.588	0.19
375.795	0.09
376.002	0.19
376.209	0.13
376.417	0.17
376.624	0.19
376.831	0.15
377.038	0.17
377.245	0.09
377.452	0.17
377.659	0.22
377.866	0.18
378.073	0.12
378.28	0.14
378.487	0.23
378.694	0.23
378.901	0.19
379.108	0.14
379.315	0.22
379.522	0.25
379.729	0.18
379.936	0.12
380.143	0.2
380.35	0.18
380.557	0.13
380.763	0.17
380.97	0.18
381.177	0.19
381.384	0.22
381.591	0.16
381.797	0.18
382.004	0.21
382.211	0.2
382.418	0.13
382.624	0.2
382.831	0.24
383.038	0.19
383.244	0.26
383.451	0.16
383.658	0.22
383.864	0.15
384.071	0.13
384.277	0.22
384.484	0.13
384.69	0.23
384.897	0.14
385.103	0.16
385.31	0.13
385.516	0.15
385.723	0.15
385.929	0.18
386.136	0.18
386.342	0.22
386.549	0.17
386.755	0.2
386.961	0.2
387.168	0.18
387.374	0.18
387.58	0.2
387.787	0.17
387.993	0.16
388.199	0.19
388.406	0.13
388.612	0.15
388.818	0.14
389.024	0.16
389.231	0.19
389.437	0.27
389.643	0.2
389.849	0.23
390.055	0.22
390.261	0.18
390.467	0.22
390.674	0.16
390.88	0.18
391.086	0.26
391.292	0.14
391.498	0.24
391.704	0.22
391.91	0.17
392.116	0.19
392.322	0.12
392.528	0.23
392.734	0.18
392.94	0.2
393.146	0.16
393.352	0.17
393.557	0.2
393.763	0.22
393.969	0.19
394.175	0.21
394.381	0.18
394.587	0.14
394.792	0.16
394.998	0.22
395.204	0.24
395.41	0.15
395.615	0.24
395.821	0.26
396.027	0.21
396.233	0.15
396.438	0.22
396.644	0.28
396.85	0.22
397.055	0.19
397.261	0.16
397.466	0.34
397.672	0.26
397.878	0.24
398.083	0.24
398.289	0.13
398.494	0.23
398.7	0.24
398.905	0.17
399.111	0.31
399.316	0.21
399.522	0.2
399.727	0.23
399.932	0.24
400.138	0.24
400.343	0.28
400.549	0.21
400.754	0.24
400.959	0.23
401.165	0.22
401.37	0.28
401.575	0.32
401.78	0.29
401.986	0.22
402.191	0.21
402.396	0.23
402.601	0.3
402.807	0.29
403.012	0.2
403.217	0.32
403.422	0.27
403.627	0.24
403.832	0.21
404.037	0.27
404.243	0.28
404.448	0.23
404.653	0.25
404.858	0.28
405.063	0.33
405.268	0.23
405.473	0.24
405.678	0.27
405.883	0.48
406.088	0.33
406.293	0.22
406.498	0.31
406.703	0.34
406.907	0.31
407.112	0.27
407.317	0.37
407.522	0.34
407.727	0.31
407.932	0.34
408.136	0.46
408.341	0.33
408.546	0.38
408.751	0.39
408.956	0.37
409.16	0.42
409.365	0.35
409.57	0.43
409.774	0.4
409.979	0.47
410.184	0.44
410.388	0.37
410.593	0.51
410.798	0.48
411.002	0.49
411.207	0.58
411.411	0.53
411.616	0.46
411.82	0.54
412.025	0.57
412.229	0.51
412.434	0.63
412.638	0.62
412.843	0.59
413.047	0.65
413.252	0.64
413.456	0.6
413.66	0.7
413.865	0.62
414.069	0.75
414.273	0.7
414.478	0.77
414.682	0.75
414.886	0.78
415.091	0.73
415.295	0.79
415.499	0.92
415.703	0.9
415.908	0.97
416.112	0.9
416.316	1
416.52	1.02
416.724	1.01
416.929	1.04
417.133	1.24
417.337	1.14
417.541	1.13
417.745	1.25
417.949	1.26
418.153	1.39
418.357	1.32
418.561	1.5
418.765	1.44
418.969	1.58
419.173	1.63
419.377	1.57
419.581	1.74
419.785	1.75
419.989	1.73
420.193	1.83
420.397	2
420.601	2.07
420.804	2.02
421.008	2.08
421.212	2.17
421.416	2.18
421.62	2.21
421.823	2.23
422.027	2.41
422.231	2.34
422.435	2.33
422.638	2.43
422.842	2.46
423.046	2.51
423.249	2.63
423.453	2.61
423.657	2.76
423.86	2.84
424.064	2.83
424.268	3.06
424.471	3.02
424.675	3.19
424.878	3.23
425.082	3.27
425.285	3.51
425.489	3.51
425.692	3.46
425.896	3.58
426.099	3.72
426.303	3.8
426.506	3.84
426.71	3.99
426.913	4.15
427.116	4.33
427.32	4.24
427.523	4.29
427.726	4.61
427.93	4.55
428.133	4.83
428.336	4.87
428.54	5.01
428.743	5.17
428.946	5.29
429.149	5.27
429.353	5.37
429.556	5.38
429.759	5.41
429.962	5.45
430.165	5.65
430.368	5.37
430.571	5.34
430.775	5.5
430.978	5.42
431.181	5.51
431.384	5.47
431.587	5.6
431.79	5.91
431.993	5.76
432.196	5.99
432.399	6.24
432.602	6.4
432.805	6.4
433.008	6.81
433.211	6.62
433.414	6.95
433.616	6.98
433.819	6.89
434.022	6.97
434.225	7.13
434.428	7.12
434.631	7.49
434.833	7.3
435.036	7.41
435.239	7.64
435.442	7.65
435.645	7.76
435.847	7.91
436.05	8
436.253	8.15
436.455	8.18
436.658	8.12
436.861	8.38
437.063	8.38
437.266	8.37
437.468	8.59
437.671	8.95
437.874	8.93
438.076	8.71
438.279	9.14
438.481	9.14
438.684	9.73
438.886	9.38
439.089	9.63
439.291	9.64
439.494	10.01
439.696	10.1
439.899	10.48
440.101	10.85
440.303	10.77
440.506	11.49
440.708	11.28
440.91	11.35
441.113	11.49
441.315	11.77
441.517	11.59
441.72	12.01
441.922	11.69
442.124	11.51
442.326	11.93
442.529	12.15
442.731	12.13
442.933	12.45
443.135	12.28
443.337	12.28
443.539	12.68
443.742	12.46
443.944	12.89
444.146	12.69
444.348	12.78
444.55	12.65
444.752	12.82
444.954	12.74
445.156	12.72
445.358	13.02
445.56	13.32
445.762	13.09
445.964	13.43
446.166	13.13
446.368	13.26
446.57	13.17
446.772	13
446.974	12.89
447.175	13.05
447.377	12.72
447.579	13.04
447.781	12.89
447.983	12.63
448.184	12.45
448.386	12.66
448.588	12.33
448.79	12.34
448.991	12.55
449.193	12.42
449.395	12.04
449.597	11.81
449.798	11.66
450	11.5
450.202	11.33
450.403	11.36
450.605	11.25
450.806	10.99
451.008	10.86
451.21	10.6
451.411	10.36
451.613	9.86
451.814	9.96
452.016	10.08
452.217	9.46
452.419	9.49
452.62	9.2
452.821	9.01
453.023	9.03
453.224	8.7
453.426	8.37
453.627	7.93
453.828	8
454.03	7.95
454.231	7.91
454.432	7.78
454.634	7.69
454.835	7.33
455.036	7.43
455.238	7.01
455.439	6.94
455.64	6.63
455.841	6.53
456.042	6.69
456.244	6.42
456.445	6.22
456.646	6.04
456.847	5.93
457.048	5.91
457.249	5.91
457.45	5.82
457.651	5.39
457.852	5.25
458.054	4.98
458.255	5.03
458.456	5.12
458.657	4.93
458.858	4.7
459.058	4.68
459.259	4.63
459.46	4.48
459.661	4.41
459.862	4.52
460.063	4.42
460.264	4.33
460.465	4.14
460.666	4.19
460.866	3.94
461.067	3.82
461.268	3.82
461.469	3.84
461.67	3.71
461.87	3.59
462.071	3.61
462.272	3.53
462.473	3.47
462.673	3.62
462.874	3.54
463.075	3.5
463.275	3.49
463.476	3.57
463.676	3.6
463.877	3.41
464.078	3.37
464.278	3.38
464.479	3.33
464.679	3.25
464.88	3.24
465.08	3.31
465.281	3.12
465.481	3.01
465.682	2.81
465.882	2.89
466.083	2.87
466.283	2.76
466.483	2.72
466.684	2.56
466.884	2.51
467.085	2.54
467.285	2.58
467.485	2.45
467.686	2.47
467.886	2.37
468.086	2.33
468.286	2.3
468.487	2.33
468.687	2.21
468.887	2.17
469.087	2.32
469.287	2.18
469.488	2.02
469.688	2.2
469.888	2.19
470.088	2.18
470.288	2.08
470.488	2.06
470.688	1.88
470.888	1.9
471.088	1.78
471.288	1.88
471.488	1.85
471.688	1.85
471.888	1.76
472.088	1.91
472.288	1.83
472.488	1.76
472.688	1.7
472.888	1.71
473.088	1.79
473.288	1.66
473.488	1.68
473.688	1.82
473.887	1.67
474.087	1.66
474.287	1.67
474.487	1.59
474.687	1.68
474.886	1.59
475.086	1.61
475.286	1.59
475.486	1.57
475.685	1.53
475.885	1.48
476.085	1.53
476.284	1.52
476.484	1.53
476.684	1.5
476.883	1.56
477.083	1.47
477.282	1.44
477.482	1.48
477.681	1.43
477.881	1.44
478.08	1.36
478.28	1.36
478.479	1.42
478.679	1.49
478.878	1.4
479.078	1.39
479.277	1.4
479.477	1.4
479.676	1.41
479.875	1.36
480.075	1.32
480.274	1.37
480.473	1.37
480.673	1.37
480.872	1.45
481.071	1.38
481.271	1.37
481.47	1.31
481.669	1.33
481.868	1.31
482.067	1.3
482.267	1.29
482.466	1.32
482.665	1.32
482.864	1.31
483.063	1.28
483.262	1.39
483.461	1.36
483.661	1.43
483.86	1.38
484.059	1.39
484.258	1.35
484.457	1.37
484.656	1.4
484.855	1.43
485.054	1.28
485.253	1.37
485.452	1.34
485.651	1.39
485.849	1.31
486.048	1.36
486.247	1.35
486.446	1.41
486.645	1.35
486.844	1.39
487.043	1.37
487.241	1.43
487.44	1.42
487.639	1.47
487.838	1.43
488.037	1.42
488.235	1.52
488.434	1.46
488.633	1.42
488.831	1.53
489.03	1.55
489.229	1.55
489.427	1.51
489.626	1.57
489.825	1.58
490.023	1.59
490.222	1.55
490.42	1.59
490.619	1.66
490.817	1.64
491.016	1.6
491.214	1.69
491.413	1.65
491.611	1.65
491.81	1.68
492.008	1.73
492.207	1.77
492.405	1.7
492.604	1.7
492.802	1.74
493	1.81
493.199	1.81
493.397	1.83
493.595	1.89
493.794	1.81
493.992	1.95
494.19	1.92
494.388	1.97
494.587	1.92
494.785	1.93
494.983	1.88
495.181	1.99
495.379	1.99
495.578	2.04
495.776	2.07
495.974	2.08
496.172	2.06
496.37	2.18
496.568	2.16
496.766	2.17
496.964	2.25
497.162	2.23
497.36	2.22
497.558	2.28
497.756	2.32
497.954	2.32
498.152	2.32
498.35	2.39
498.548	2.34
498.746	2.37
498.944	2.39
499.142	2.41
499.34	2.48
499.538	2.57
499.736	2.44
499.933	2.57
500.131	2.54
500.329	2.63
500.527	2.69
500.725	2.75
500.922	2.73
501.12	2.72
501.318	2.77
501.516	2.77
501.713	2.81
501.911	2.84
502.109	2.76
502.306	2.88
502.504	2.83
502.701	2.89
502.899	2.9
503.097	3.1
503.294	3.01
503.492	3.05
503.689	3.05
503.887	3.08
504.084	3.2
504.282	3.11
504.479	3.1
504.677	3.26
504.874	3.21
505.072	3.14
505.269	3.26
505.466	3.34
505.664	3.37
505.861	3.29
506.059	3.32
506.256	3.4
506.453	3.46
506.651	3.52
506.848	3.52
507.045	3.56
507.242	3.54
507.44	3.54
507.637	3.61
507.834	3.57
508.031	3.67
508.229	3.61
508.426	3.61
508.623	3.77
508.82	3.78
509.017	3.76
509.214	3.72
509.411	3.83
509.608	3.79
509.805	3.87
510.003	3.87
510.2	3.88
510.397	4.02
510.594	4
510.791	4.03
510.988	4.03
511.184	4.01
511.381	3.94
511.578	4.06
511.775	4.19
511.972	4.07
512.169	4.11
512.366	4.18
512.563	4.23
512.76	4.23
512.956	4.29
513.153	4.18
513.35	4.19
513.547	4.19
513.744	4.32
513.94	4.32
514.137	4.39
514.334	4.32
514.53	4.41
514.727	4.57
514.924	4.5
515.12	4.44
515.317	4.46
515.514	4.42
515.71	4.4
515.907	4.57
516.103	4.56
516.3	4.55
516.497	4.63
516.693	4.66
516.89	4.61
517.086	4.6
517.283	4.66
517.479	4.57
517.676	4.71
517.872	4.74
518.068	4.73
518.265	4.72
518.461	4.62
518.658	4.78
518.854	4.8
519.05	4.89
519.247	4.88
519.443	4.79
519.639	4.91
519.836	4.84
520.032	4.83
520.228	4.97
520.424	4.91
520.621	4.93
520.817	4.98
521.013	4.91
521.209	5.07
521.405	5.05
521.601	5
521.798	5.02
521.994	5.06
522.19	4.94
522.386	5.01
522.582	5.08
522.778	5.14
522.974	5.04
523.17	5.07
523.366	5.02
523.562	5.13
523.758	5.11
523.954	5.03
524.15	5.15
524.346	5.16
524.542	5.17
524.738	5.12
524.934	5.25
525.129	5.19
525.325	5.14
525.521	5.18
525.717	5.36
525.913	5.22
526.109	5.21
526.304	5.26
526.5	5.28
526.696	5.36
526.892	5.22
527.087	5.44
527.283	5.32
527.479	5.33
527.674	5.17
527.87	5.38
528.066	5.35
528.261	5.39
528.457	5.33
528.653	5.4
528.848	5.39
529.044	5.47
529.239	5.34
529.435	5.41
529.63	5.32
529.826	5.4
530.021	5.37
530.217	5.42
530.412	5.38
530.608	5.39
530.803	5.42
530.999	5.39
531.194	5.42
531.389	5.46
531.585	5.46
531.78	5.58
531.975	5.53
532.171	5.51
532.366	5.5
532.561	5.56
532.757	5.49
532.952	5.57
533.147	5.48
533.342	5.55
533.538	5.49
533.733	5.67
533.928	5.38
534.123	5.5
534.318	5.52
534.513	5.48
534.709	5.6
534.904	5.62
535.099	5.63
535.294	5.61
535.489	5.66
535.684	5.54
535.879	5.62
536.074	5.66
536.269	5.64
536.464	5.64
536.659	5.6
536.854	5.6
537.049	5.65
537.244	5.64
537.439	5.6
537.634	5.65
537.828	5.72
538.023	5.6
538.218	5.65
538.413	5.55
538.608	5.65
538.803	5.62
538.997	5.58
539.192	5.69
539.387	5.69
539.582	5.65
539.776	5.54
539.971	5.7
540.166	5.73
540.36	5.59
540.555	5.68
540.75	5.68
540.944	5.68
541.139	5.67
541.334	5.66
541.528	5.72
541.723	5.72
541.917	5.75
542.112	5.61
542.306	5.59
542.501	5.61
542.695	5.68
542.89	5.66
543.084	5.66
543.279	5.71
543.473	5.74
543.668	5.7
543.862	5.61
544.056	5.64
544.251	5.7
544.445	5.76
544.64	5.8
544.834	5.53
545.028	5.43
545.222	5.66
545.417	5.85
545.611	5.78
545.805	5.74
546	5.54
546.194	5.74
546.388	5.72
546.582	5.68
546.776	5.66
546.97	5.7
547.165	5.78
547.359	5.66
547.553	5.66
547.747	5.66
547.941	5.86
548.135	5.72
548.329	5.72
548.523	5.74
548.717	5.65
548.911	5.67
549.105	5.68
549.299	5.77
549.493	5.79
549.687	5.65
549.881	5.78
550.075	5.73
550.269	5.65
550.463	5.8
550.657	5.75
550.85	5.68
551.044	5.65
551.238	5.76
551.432	5.72
551.626	5.76
551.82	5.8
552.013	5.64
552.207	5.8
552.401	5.81
552.594	5.73
552.788	5.7
552.982	5.67
553.176	5.68
553.369	5.8
553.563	5.78
553.756	5.72
553.95	5.75
554.144	5.78
554.337	5.78
554.531	5.62
554.724	5.81
554.918	5.79
555.111	5.76
555.305	5.69
555.498	5.74
555.692	5.82
555.885	5.71
556.079	5.71
556.272	5.71
556.466	5.77
556.659	5.73
556.852	5.8
557.046	5.65
557.239	5.67
557.432	5.72
557.626	5.79
557.819	5.84
558.012	5.78
558.206	5.83
558.399	5.81
558.592	5.73
558.785	5.75
558.979	5.76
559.172	5.76
559.365	5.7
559.558	5.74
559.751	5.62
559.944	5.76
560.138	5.74
560.331	5.75
560.524	5.79
560.717	5.71
560.91	5.72
561.103	5.76
561.296	5.62
561.489	5.75
561.682	5.82
561.875	5.78
562.068	5.81
562.261	5.72
562.454	5.78
562.647	5.71
562.84	5.78
563.032	5.79
563.225	5.68
563.418	5.72
563.611	5.83
563.804	5.73
563.997	5.69
564.19	5.55
564.382	5.76
564.575	5.72
564.768	5.73
564.961	5.78
565.153	5.68
565.346	5.7
565.539	5.8
565.731	5.73
565.924	5.82
566.117	5.8
566.309	5.74
566.502	5.74
566.695	5.67
566.887	5.73
567.08	5.7
567.272	5.77
567.465	5.64
567.657	5.75
567.85	5.65
568.042	5.76
568.235	5.76
568.427	5.65
568.62	5.68
568.812	5.69
569.005	5.75
569.197	5.68
569.389	5.7
569.582	5.75
569.774	5.72
569.966	5.67
570.159	5.61
570.351	5.71
570.543	5.71
570.736	5.7
570.928	5.56
571.12	5.69
571.312	5.59
571.505	5.5
571.697	5.71
571.889	5.7
572.081	5.68
572.273	5.62
572.465	5.73
572.658	5.66
572.85	5.73
573.042	5.67
573.234	5.61
573.426	5.71
573.618	5.61
573.81	5.71
574.002	5.65
574.194	5.73
574.386	5.57
574.578	5.57
574.77	5.6
574.962	5.66
575.154	5.56
575.346	5.6
575.538	5.54
575.729	5.55
575.921	5.68
576.113	5.68
576.305	5.62
576.497	5.65
576.689	5.49
576.88	5.5
577.072	5.6
577.264	5.59
577.456	5.59
577.647	5.55
577.839	5.72
578.031	5.64
578.223	5.53
578.414	5.5
578.606	5.53
578.798	5.63
578.989	5.53
579.181	5.57
579.372	5.58
579.564	5.65
579.755	5.5
579.947	5.5
580.139	5.59
580.33	5.42
580.522	5.53
580.713	5.47
580.905	5.51
581.096	5.57
581.287	5.48
581.479	5.47
581.67	5.57
581.862	5.47
582.053	5.49
582.244	5.39
582.436	5.56
582.627	5.43
582.818	5.42
583.01	5.42
583.201	5.48
583.392	5.46
583.583	5.43
583.775	5.36
583.966	5.43
584.157	5.43
584.348	5.48
584.54	5.34
584.731	5.43
584.922	5.34
585.113	5.31
585.304	5.41
585.495	5.4
585.686	5.44
585.877	5.42
586.068	5.47
586.259	5.44
586.45	5.37
586.641	5.33
586.832	5.42
587.023	5.35
587.214	5.32
587.405	5.32
587.596	5.23
587.787	5.24
587.978	5.33
588.169	5.3
588.36	5.23
588.551	5.26
588.742	5.3
588.932	5.32
589.123	5.19
589.314	5.3
589.505	5.25
589.696	5.3
589.886	5.21
590.077	5.15
590.268	5.12
590.458	5.18
590.649	5.06
590.84	5.26
591.03	5.21
591.221	5.21
591.412	5.07
591.602	5.24
591.793	5.19
591.984	5.18
592.174	5.17
592.365	5.28
592.555	5.07
592.746	5.09
592.936	5.18
593.127	5.2
593.317	5.14
593.508	5.1
593.698	5.05
593.889	5.11
594.079	5.04
594.269	4.96
594.46	5.05
594.65	5.05
594.84	4.98
595.031	4.96
595.221	4.96
595.411	4.95
595.602	4.99
595.792	4.98
595.982	4.83
596.172	5.04
596.363	4.9
596.553	4.92
596.743	4.96
596.933	4.9
597.123	4.91
597.314	4.81
597.504	4.79
597.694	4.91
597.884	4.86
598.074	4.84
598.264	4.86
598.454	4.85
598.644	4.8
598.834	4.81
599.024	4.77
599.214	4.8
599.404	4.83
599.594	4.77
599.784	4.67
599.974	4.81
600.164	4.76
600.354	4.68
600.544	4.68
600.734	4.78
600.924	4.69
601.114	4.63
601.303	4.66
601.493	4.68
601.683	4.69
601.873	4.67
602.063	4.6
602.252	4.65
602.442	4.55
602.632	4.57
602.821	4.55
603.011	4.59
603.201	4.54
603.39	4.54
603.58	4.46
603.77	4.57
603.959	4.63
604.149	4.47
604.339	4.53
604.528	4.56
604.718	4.55
604.907	4.48
605.097	4.45
605.286	4.42
605.476	4.39
605.665	4.43
605.855	4.36
606.044	4.47
606.234	4.43
606.423	4.41
606.612	4.38
606.802	4.36
606.991	4.42
607.181	4.47
607.37	4.35
607.559	4.2
607.749	4.31
607.938	4.31
608.127	4.28
608.316	4.3
608.506	4.26
608.695	4.3
608.884	4.29
609.073	4.26
609.263	4.36
609.452	4.3
609.641	4.17
609.83	4.17
610.019	4.3
610.208	4.2
610.397	4.15
610.586	4.16
610.775	4.12
610.965	4.15
611.154	4.08
611.343	4.13
611.532	4.03
611.721	4.13
611.91	4.03
612.099	4.12
612.287	3.99
612.476	3.92
612.665	4.06
612.854	4.01
613.043	4.03
613.232	4.03
613.421	3.96
613.61	3.99
613.798	3.94
613.987	4.04
614.176	3.94
614.365	3.98
614.554	3.91
614.742	3.93
614.931	3.79
615.12	3.95
615.309	3.85
615.497	3.86
615.686	3.78
615.875	3.89
616.063	3.8
616.252	3.78
616.44	3.83
616.629	3.73
616.818	3.84
617.006	3.77
617.195	3.7
617.383	3.72
617.572	3.7
617.76	3.68
617.949	3.71
618.137	3.78
618.326	3.72
618.514	3.51
618.703	3.5
618.891	3.7
619.079	3.59
619.268	3.64
619.456	3.51
619.644	3.6
619.833	3.54
620.021	3.56
620.209	3.46
620.398	3.52
620.586	3.5
620.774	3.54
620.962	3.46
621.151	3.57
621.339	3.44
621.527	3.38
621.715	3.38
621.903	3.4
622.092	3.36
622.28	3.51
622.468	3.32
622.656	3.43
622.844	3.39
623.032	3.45
623.22	3.27
623.408	3.39
623.596	3.36
623.784	3.41
623.972	3.32
624.16	3.32
624.348	3.36
624.536	3.34
624.724	3.22
624.912	3.26
625.1	3.28
625.288	3.26
625.476	3.17
625.664	3.29
625.851	3.17
626.039	3.26
626.227	3.18
626.415	3.19
626.603	3.14
626.79	3.15
626.978	3.12
627.166	3.18
627.354	3.07
627.541	3.05
627.729	2.97
627.917	3.17
628.104	3.13
628.292	3.05
628.48	3.09
628.667	3.07
628.855	3.09
629.042	3.09
629.23	3.04
629.418	3
629.605	3.03
629.793	2.96
629.98	2.99
630.168	2.91
630.355	2.95
630.543	2.95
630.73	2.9
630.917	2.93
631.105	3
631.292	2.94
631.48	2.86
631.667	2.98
631.854	2.9
632.042	2.84
632.229	2.78
632.416	2.87
632.604	2.81
632.791	2.71
632.978	2.83
633.165	2.81
633.353	2.86
633.54	2.85
633.727	2.71
633.914	2.71
634.101	2.67
634.289	2.78
634.476	2.71
634.663	2.67
634.85	2.66
635.037	2.72
635.224	2.63
635.411	2.71
635.598	2.67
635.785	2.6
635.972	2.57
636.159	2.65
636.346	2.58
636.533	2.58
636.72	2.55
636.907	2.6
637.094	2.56
637.281	2.47
637.468	2.52
637.655	2.52
637.842	2.55
638.029	2.45
638.215	2.51
638.402	2.5
638.589	2.44
638.776	2.44
638.963	2.39
639.149	2.52
639.336	2.53
639.523	2.41
639.709	2.45
639.896	2.4
640.083	2.41
640.27	2.48
640.456	2.38
640.643	2.37
640.829	2.29
641.016	2.31
641.203	2.27
641.389	2.33
641.576	2.32
641.762	2.29
641.949	2.26
642.135	2.31
642.322	2.29
642.508	2.26
642.695	2.25
642.881	2.18
643.068	2.22
643.254	2.24
643.441	2.24
643.627	2.23
643.813	2.11
644	2.23
644.186	2.14
644.372	2.18
644.559	2.2
644.745	2.12
644.931	2.04
645.118	2.13
645.304	2.1
645.49	2.12
645.676	2.09
645.862	2.08
646.049	2.15
646.235	2.06
646.421	2.16
646.607	2.18
646.793	2.04
646.979	2.01
647.165	2.06
647.352	2.03
647.538	2
647.724	2
647.91	1.98
648.096	1.99
648.282	2
648.468	1.94
648.654	1.96
648.84	2
649.026	1.94
649.212	1.93
649.397	1.89
649.583	1.87
649.769	1.96
649.955	1.87
650.141	1.87
650.327	1.92
650.513	1.85
650.698	1.87
650.884	1.74
651.07	1.87
651.256	1.85
651.442	1.83
651.627	1.79
651.813	1.84
651.999	1.76
652.184	1.82
652.37	1.78
652.556	1.81
652.741	1.79
652.927	1.67
653.113	1.75
653.298	1.84
653.484	1.76
653.669	1.71
653.855	1.7
654.04	1.73
654.226	1.72
654.412	1.68
654.597	1.6
654.782	1.74
654.968	1.65
655.153	1.66
655.339	1.61
655.524	1.61
655.71	1.6
655.895	1.67
656.08	1.61
656.266	1.7
656.451	1.61
656.636	1.56
656.822	1.57
657.007	1.6
657.192	1.6
657.378	1.54
657.563	1.58
657.748	1.62
657.933	1.61
658.118	1.53
658.304	1.51
658.489	1.59
658.674	1.59
658.859	1.47
659.044	1.5
659.229	1.56
659.414	1.5
659.599	1.46
659.785	1.44
659.97	1.45
660.155	1.5
660.34	1.49
660.525	1.46
660.71	1.44
660.895	1.47
661.08	1.44
661.264	1.43
661.449	1.46
661.634	1.42
661.819	1.46
662.004	1.4
662.189	1.31
662.374	1.38
662.559	1.34
662.743	1.31
662.928	1.37
663.113	1.34
663.298	1.31
663.483	1.38
663.667	1.31
663.852	1.35
664.037	1.32
664.221	1.27
664.406	1.32
664.591	1.33
664.775	1.34
664.96	1.29
665.145	1.25
665.329	1.32
665.514	1.29
665.698	1.21
665.883	1.14
666.068	1.3
666.252	1.28
666.437	1.22
666.621	1.25
666.806	1.27
666.99	1.21
667.174	1.17
667.359	1.31
667.543	1.24
667.728	1.24
667.912	1.17
668.096	1.21
668.281	1.19
668.465	1.26
668.649	1.15
668.834	1.11
669.018	1.19
669.202	1.15
669.387	1.12
669.571	1.2
669.755	1.14
669.939	1.14
670.124	1.15
670.308	1.17
670.492	1.18
670.676	1.16
670.86	1.14
671.044	1.07
671.228	1.14
671.413	1.07
671.597	1.05
671.781	1.11
671.965	1.13
672.149	1.07
672.333	1.04
672.517	1.02
672.701	1.09
672.885	1.06
673.069	1.01
673.253	1.15
673.437	1.06
673.621	1.03
673.804	1.04
673.988	1.07
674.172	1.04
674.356	1.01
674.54	1.05
674.724	1.11
674.908	1.04
675.091	1.04
675.275	1.02
675.459	1.07
675.643	1.12
675.826	1.02
676.01	0.99
676.194	0.98
676.377	1
676.561	0.98
676.745	0.95
676.928	0.99
677.112	0.99
677.296	0.95
677.479	0.91
677.663	0.92
677.846	1.03
678.03	0.95
678.213	0.88
678.397	0.94
678.58	0.94
678.764	0.93
678.947	0.9
679.131	0.87
679.314	0.99
679.498	0.93
679.681	0.96
679.865	0.96
680.048	0.89
680.231	0.86
680.415	0.86
680.598	0.89
680.781	0.84
680.965	0.88
681.148	0.88
681.331	0.84
681.514	0.92
681.698	0.83
681.881	0.89
682.064	0.88
682.247	0.89
682.43	0.76
682.614	0.84
682.797	0.92
682.98	0.86
683.163	0.8
683.346	0.85
683.529	0.78
683.712	0.75
683.895	0.85
684.078	0.75
684.261	0.8
684.444	0.85
684.627	0.84
684.81	0.75
684.993	0.8
685.176	0.8
685.359	0.74
685.542	0.76
685.725	0.83
685.908	0.75
686.091	0.78
686.274	0.83
686.457	0.82
686.639	0.74
686.822	0.78
687.005	0.74
687.188	0.8
687.371	0.88
687.553	0.81
687.736	0.75
687.919	0.89
688.102	0.85
688.284	0.71
688.467	0.73
688.65	0.69
688.832	0.63
689.015	0.74
689.197	0.64
689.38	0.81
689.563	0.79
689.745	0.62
689.928	0.65
690.11	0.65
690.293	0.7
690.475	0.66
690.658	0.69
690.84	0.7
691.023	0.65
691.205	0.63
691.388	0.67
691.57	0.76
691.752	0.68
691.935	0.62
692.117	0.62
692.3	0.72
692.482	0.67
692.664	0.63
692.847	0.66
693.029	0.78
693.211	0.68
693.393	0.66
693.576	0.62
693.758	0.68
693.94	0.61
694.122	0.64
694.304	0.63
694.487	0.6
694.669	0.7
694.851	0.63
695.033	0.62
695.215	0.63
695.397	0.6
695.579	0.63
695.761	0.59
695.943	0.57
696.125	0.67
696.308	0.63
696.49	0.5
696.671	0.74
696.853	0.58
697.035	0.75
697.217	0.57
697.399	0.67
697.581	0.49
697.763	0.63
697.945	0.54
698.127	0.56
698.309	0.65
698.491	0.59
698.672	0.6
698.854	0.65
699.036	0.6
699.218	0.54
699.399	0.6
699.581	0.59
699.763	0.59
699.945	0.53
700.126	0.47
700.308	0.62
700.49	0.59
700.671	0.48
700.853	0.45
701.035	0.56
701.216	0.56
701.398	0.49
701.579	0.55
701.761	0.58
701.943	0.55
702.124	0.45
702.306	0.5
702.487	0.65
702.669	0.54
702.85	0.49
703.031	0.44
703.213	0.67
703.394	0.54
703.576	0.47
703.757	0.62
703.938	0.57
704.12	0.68
704.301	0.48
704.483	0.45
704.664	0.55
704.845	0.59
705.026	0.57
705.208	0.48
705.389	0.47
705.57	0.52
705.751	0.52
705.933	0.48
706.114	0.63
706.295	0.56
706.476	0.45
706.657	0.63
706.838	0.54
707.02	0.56
707.201	0.48
707.382	0.46
707.563	0.53
707.744	0.45
707.925	0.41
708.106	0.44
708.287	0.5
708.468	0.56
708.649	0.44
708.83	0.49
709.011	0.46
709.192	0.53
709.373	0.37
709.554	0.41
709.734	0.51
709.915	0.49
710.096	0.45
710.277	0.35
710.458	0.47
710.639	0.49
710.819	0.33
711	0.44
711.181	0.48
711.362	0.5
711.542	0.49
711.723	0.43
711.904	0.45
712.085	0.49
712.265	0.43
712.446	0.29
712.627	0.41
712.807	0.41
712.988	0.36
713.168	0.31
713.349	0.46
713.53	0.27
713.71	0.35
713.891	0.37
714.071	0.36
714.252	0.41
714.432	0.4
714.613	0.29
714.793	0.4
714.974	0.52
715.154	0.56
715.334	0.45
715.515	0.49
715.695	0.32
715.876	0.4
716.056	0.38
716.236	0.4
716.417	0.34
716.597	0.34
716.777	0.62
716.957	0.36
717.138	0.41
717.318	0.43
717.498	0.29
717.678	0.35
717.859	0.44
718.039	0.33
718.219	0.41
718.399	0.4
718.579	0.32
718.759	0.31
718.939	0.38
719.12	0.39
719.3	0.38
719.48	0.18
719.66	0.29
719.84	0.48
720.02	0.34
720.2	0.35
720.38	0.43
720.56	0.48
720.74	0.3
720.92	0.33
721.1	0.55
721.279	0.38
721.459	0.41
721.639	0.24
721.819	0.37
721.999	0.38
722.179	0.45
722.359	0.28
722.538	0.35
722.718	0.28
722.898	0.38
723.078	0.39
723.257	0.3
723.437	0.35
723.617	0.34
723.797	0.31
723.976	0.4
724.156	0.44
724.336	0.47
724.515	0.54
724.695	0.24
724.874	0.35
725.054	0.41
725.234	0.27
725.413	0.39
725.593	0.32
725.772	0.34
725.952	0.38
726.131	0.34
726.311	0.39
726.49	0.35
726.67	0.27
726.849	0.24
727.028	0.37
727.208	0.27
727.387	0.34
727.567	0.23
727.746	0.35
727.925	0.29
728.105	0.24
728.284	0.33
728.463	0.22
728.643	0.44
728.822	0.31
729.001	0.29
729.18	0.36
729.359	0.33
729.539	0.3
729.718	0.31
729.897	0.37
730.076	0.35
730.255	0.13
730.434	0.25
730.614	0.38
730.793	0.41
730.972	0.27
731.151	0.36
731.33	0.3
731.509	0.31
731.688	0.37
731.867	0.37
732.046	0.15
732.225	0.47
732.404	0.19
732.583	0.24
732.762	0.21
732.941	0.29
733.12	0.36
733.298	0.22
733.477	0.45
733.656	0.23
733.835	0.15
734.014	0.45
734.193	0.25
734.371	0.39
734.55	0.33
734.729	0.17
734.908	0.38
735.086	0.42
735.265	0.38
735.444	0.12
735.623	0.2
735.801	0.22
735.98	0.25
736.159	0.19
736.337	0.45
736.516	0.37
736.694	0.2
736.873	0.21
737.052	0.51
737.23	0.63
737.409	0.17
737.587	0.44
737.766	0.17
737.944	0.24
738.123	0.32
738.301	0.36
738.479	0.34
738.658	0.4
738.836	0.1
739.015	0.37
739.193	0.46
739.371	0.12
739.55	0.19
739.728	0.14
739.906	0.36
740.085	0.51
740.263	0.38
740.441	0.18
740.62	0.41
740.798	0.33
740.976	0.11
741.154	0.28
741.332	0.45
741.511	0.23
741.689	0.31
741.867	0.39
742.045	0.33
742.223	0.27
742.401	0.2
742.579	0.27
742.757	0.3
742.935	0.15
743.114	0.26
743.292	0.27
743.47	0.21
743.648	0.32
743.826	0.12
744.004	0.43
744.181	0.37
744.359	0.27
744.537	0.29
744.715	0.18
744.893	0.33
745.071	0.34
745.249	0.28
745.427	0.24
745.605	0.47
745.782	0.34
745.96	0.31
746.138	0.39
746.316	0.43
746.493	0.32
746.671	0.29
746.849	0.24
747.027	0.41
747.204	0.2
747.382	0.36
747.56	0.12
747.737	0.35
747.915	0.19
748.093	0.33
748.27	0.17
748.448	0.21
748.625	0.14
748.803	0.2
748.98	0.21
749.158	0.33
749.335	0.38
749.513	0.16
749.69	0.31
749.868	0.33
750.045	0.33
750.223	0.17
750.4	0.09
750.578	0.4
750.755	0.24
750.932	0.17
751.11	0.43
751.287	0.13
751.464	0.4
751.642	0.11
751.819	0.24
751.996	0.33
752.173	0.25
752.351	0.06
752.528	0.26
752.705	0.16
752.882	0.2
753.06	0.3
753.237	0.32
753.414	0.51
753.591	0.41
753.768	0.27
753.945	0.08
754.122	0.26
754.299	0.37
754.476	0.17
754.654	0.25
754.831	0.27
755.008	0.28
755.185	0.16
755.362	0.19
755.539	0.35
755.716	0.15
755.892	0.14
756.069	0.27
756.246	0.2
756.423	0.11
756.6	0.45
756.777	0.11
756.954	0.37
757.131	0.18
757.307	0.05
757.484	0.11
757.661	0.33
757.838	0.32
758.015	0.18
758.191	0.29
758.368	0.26
758.545	0.53
758.721	0.29
758.898	0.06
759.075	0.3
759.251	0.31
759.428	0.25
759.605	0.07
759.781	0.1
759.958	0.29
760.134	0.13
760.311	0.26
760.488	0.41
760.664	0.37
760.841	0.22
761.017	0.11
761.194	0.3
761.37	0.24
761.547	0.21
761.723	0.1
761.899	0.26
762.076	0.14
762.252	0.07
762.429	0.23
762.605	0.28
762.781	0.21
762.958	0.3
763.134	0.16
763.31	0.15
763.486	0.45
763.663	0.02
763.839	0.29
764.015	0.08
764.191	0.21
764.368	0.19
764.544	0.12
764.72	0.23
764.896	0.33
765.072	0.31
765.248	0.18
765.425	0.23
765.601	0.26
765.777	0.11
765.953	-0.02
766.129	0.16
766.305	0.14
766.481	0.35
766.657	0.3
766.833	0.32
767.009	0.04
767.185	0.08
767.361	0.2
767.537	0.12
767.713	0.42
767.889	0.2
768.065	0.34
768.24	0.02
768.416	0.39
768.592	0.14
768.768	0.25
768.944	0.31
769.12	0.09
769.295	0.18
769.471	0.2
769.647	0.24
769.823	0.42
769.998	-0
770.174	0.08
770.35	0.49
770.525	0.41
770.701	0.17
770.877	0.08
771.052	0.1
771.228	0.4
771.403	0.26
771.579	0.31
771.755	0.55
771.93	0.21
772.106	0.01
772.281	0.11
772.457	0.31
772.632	0.43
772.808	0.01
772.983	0.26
773.159	0.04
773.334	0.4
773.509	0.35
773.685	0.09
773.86	0.61
774.036	0.39
774.211	0.31
774.386	0.12
774.562	0.28
774.737	0.48
774.912	-0.02
775.087	0.31
775.263	0.22
775.438	0.31
775.613	0.12
775.788	0.09
775.964	0.45
776.139	0.77
776.314	-0.09
776.489	0.27
776.664	0.35
776.839	0.02
777.014	0.39
777.19	0.33
777.365	0.5
777.54	0.6
777.715	0.2
777.89	0.14
778.065	0.18
778.24	0.08
778.415	0.23
778.59	0.02
778.765	0.25
778.94	0.27
779.115	0.33
779.289	0.16
779.464	0.21
779.639	0.21
779.814	0.15
779.989	0.12
780.164	0.29
780.339	0.24
780.513	0.12
780.688	0.2
780.863	0.3
781.038	0.44
781.212	0.02
781.387	0.2
781.562	0.54
781.737	0.13
781.911	0.42
782.086	0.04
782.261	0.01
782.435	0.29
782.61	0.23
782.784	0.22
782.959	0.47
783.134	0.16
783.308	0.09
783.483	0.03
783.657	0.55
783.832	0.48
784.006	0.05
784.181	0.22
784.355	0.38
784.53	0.04
784.704	0.29
784.878	0.68
785.053	0.37
785.227	0.59
785.402	0.6
785.576	-0.04
785.75	0.19
785.925	-0.02
786.099	0.31
786.273	0.35
786.448	0.6
786.622	0.49
786.796	0.19
786.97	0.08
787.145	0.89
787.319	-0.15
787.493	0.22
787.667	-0.22
787.841	0.43
788.015	0.34
788.19	0.18
788.364	0.2
788.538	0.66
788.712	0.47
788.886	0.13
789.06	0.43
789.234	0.31
789.408	0.17
789.582	0.18
789.756	0.32
789.93	0.03
790.104	0.21
790.278	0.13
790.452	-0.05
790.626	0.55
790.8	0.04
790.973	0.35
791.147	0.66
791.321	0.71
791.495	0.56
791.669	0.13
791.843	0.25
792.016	0.22
792.19	0.72
792.364	0.01
792.538	0.49
792.711	0.49
792.885	0.11
793.059	-0.02
793.233	0.11
793.406	0.65
793.58	0.64
793.754	0.49
793.927	0.35
794.101	0.42
794.274	0.09
794.448	0.32
794.622	-0.11
794.795	0.58
794.969	0.27
795.142	0.75
795.316	0.14
795.489	0.11
795.663	0.63
795.836	0.23
796.009	-0
796.183	0.5
796.356	0.53
796.53	0.41
796.703	0.01
796.876	0.81
797.05	0.03
797.223	0.16
797.396	0.17
797.57	0.2
797.743	0.55
797.916	0.46
798.09	0.17
798.263	0.5
798.436	0.41
798.609	0.21
798.782	0.24
798.956	0.41
799.129	0.05
799.302	0.18
799.475	0.16
799.648	-0.01
799.821	0.22
799.994	0.1
800.167	-0.3
800.34	0.29
800.514	0.11
800.687	0.22
800.86	0.15
801.033	0.24
801.206	0.4
801.379	0.07
801.551	0.71
801.724	0.56
801.897	0.84
802.07	0.22
802.243	-0.15
802.416	0.26
802.589	0.27
802.762	0.83
802.935	0.37
803.107	0.48
803.28	0.55
803.453	0.63
803.626	0.01
803.798	0.23
803.971	-0.17
804.144	0.5
804.317	0.54
804.489	0.67
804.662	0.33
804.835	0.38
805.007	0.1
805.18	0.68
805.353	0.24
805.525	0.25
805.698	0.24
805.87	0.86
806.043	0.55
806.215	-0.01
806.388	0.06
806.56	0.42
806.733	0.39
806.905	0.56
807.078	0.03
807.25	-0.11
807.423	0.49
807.595	0.18
807.768	0.35
807.94	0.57
808.112	0.54
808.285	0.36
808.457	0.39
808.629	0.28
808.802	0.67
808.974	0.16
809.146	0.22
809.318	0.21
809.491	0.55
809.663	0.33
809.835	0.1
810.007	0.41
810.18	0.48
810.352	-0.14
810.524	0.42
810.696	0.45
810.868	0.83
811.04	0.16
811.212	0.18
811.384	0.71
811.556	0.52
811.728	0.1
811.901	1.2
812.073	0.07
812.245	0.91
812.417	0.29
812.589	-0.44
812.76	0.37
812.932	0.66
813.104	0.82
813.276	0.09
813.448	0.99
813.62	0.37
813.792	0.56
813.964	0.28
814.136	0.74
814.307	0.06
814.479	-0.04
814.651	0.32
814.823	0.99
814.995	0.35
815.166	0.59
815.338	0.37
815.51	0.32
815.681	1.12
815.853	0.37
816.025	0.25
816.196	0.74
816.368	1.01
816.54	-0.26
816.711	0.03
816.883	0.8
817.054	0.97
817.226	-0
817.398	0.35
817.569	0.45
817.741	0.39
817.912	0.77
818.084	-0.04
818.255	0.7
818.426	-0.04
818.598	0.33
818.769	-0.02
818.941	0.53
819.112	1.28
819.283	0.41
819.455	0.22
819.626	0.75
819.798	0.47
819.969	0.56
820.14	0.46
820.311	0.23
820.483	0.41
820.654	0.44
820.825	0.65
820.996	0.07
821.168	-0.28
821.339	0.6
821.51	-0.08
821.681	-0.19
821.852	0.44
822.023	-0.18
822.195	-0.53
822.366	0.82
822.537	0.47
822.708	0.28
822.879	-0.01
823.05	0.55
823.221	0.23
823.392	0.55
823.563	0.16
823.734	0.68
823.905	0.21
824.076	0.18
824.247	0.09
824.418	-0
824.589	1.42
824.759	0.06
824.93	0.36
825.101	-0.46
825.272	1.03
825.443	1.08
825.614	0.55
825.784	-0.31
825.955	1.42
826.126	0.91
826.297	0.27
826.467	0.92
826.638	1.38
826.809	-0.18
826.98	0.31
827.15	1.28
827.321	1.04
827.492	1.18
827.662	0.02
827.833	2.1
828.003	1.3
828.174	-0.16
828.345	-0.01
828.515	1.18
828.686	0.57
828.856	0.57
829.027	0.28
829.197	0.45
829.368	0.73
829.538	0.4
829.709	0.18
829.879	0.52
830.049	0.52
830.22	0.12
830.39	-0.02
830.56	1.51
830.731	-0.45
830.901	-0.04
831.072	0.56
831.242	0.77
831.412	0.62
831.582	0.2
831.753	-0.5
831.923	1.34
832.093	0.21
832.263	0.43
832.434	-0.35
832.604	0.53
832.774	0.47
832.944	0.19
833.114	0.65
833.284	0.87
833.454	0.53
833.624	0.23
833.795	0.17
833.965	1.28
834.135	1.11
834.305	-0.56
834.475	-0.6
834.645	0.35
834.815	0.1
834.985	-0.39
835.155	-0.16
835.325	0.61
835.494	1.63
835.664	0.13
835.834	-0.27
836.004	0.7
836.174	0.27
836.344	0.15
836.514	-0.35
836.684	0.04
836.853	0.31
837.023	0.41
837.193	-0.47
837.363	0.73
837.532	1
837.702	0.01
837.872	-0.17
838.041	0.54
838.211	1.58
838.381	-0.24
838.55	0.57
838.72	2.45
838.89	1.86
839.059	0.07
839.229	0.2
839.398	2.07
839.568	0.73
839.738	0.42
839.907	1.29
840.077	0.51
840.246	0.6
840.416	0.21
840.585	-0.35
840.755	2.01
840.924	1.43
841.093	0.27
841.263	0.16
841.432	0.54
841.602	-0.12
841.771	-0.73
841.94	0.48
842.11	2.87
842.279	2.36
842.448	-0.29
842.617	0.08
842.787	1.86
842.956	-0.17
843.125	0.17
843.294	0.57
843.464	1.23
843.633	0.03
843.802	-0.12
843.971	0.03
844.14	1.49
844.309	1.6
844.479	-1.12
844.648	-0.2
844.817	0.26
844.986	0.93
845.155	0.36
845.324	-0.19
845.493	0.58
845.662	-0.54
845.831	1.02
846	0.99
846.169	0.95
846.338	1.43
846.507	0.35
846.676	1.3
846.844	0.61
847.013	2.27
847.182	1.28
847.351	-0.18
847.52	0.02
847.689	1.22
847.858	0.28
848.026	-0.04
848.195	0.32
848.364	0.31
848.533	-0.66
848.701	0.35
848.87	0.85
849.039	1.78
849.207	1.7
849.376	1.92
849.545	1.99
849.713	0.17
849.882	0.37
850.051	0.48
850.219	0.35
850.388	1.45
850.556	0.21
850.725	-0.32
850.893	1.39
851.062	0.37
851.23	1.43
851.399	-0.17
851.567	0.26
851.736	0.61
851.904	-0.52
852.073	1.11
852.241	1.01
852.41	0.66
852.578	0.76
852.746	-0.02
852.915	2.61
853.083	1.01
853.251	-0.38
853.42	0.66
853.588	0.59
853.756	2.22
853.924	0.52
854.093	0.9
854.261	0.46
854.429	-0.61
854.597	0.98
854.765	-1.34
854.934	1.82
855.102	2.35
855.27	0.46
855.438	1.3
855.606	1.95
855.774	1.26
855.942	0.03
856.11	-0.66
856.278	0.19
856.446	2.55
856.614	-0.5
856.782	0.05
856.95	2.11
857.118	1.47
857.286	1.74
857.454	0.03
857.622	2.08
857.79	1.99
857.958	-0.91
858.126	-0.3
858.294	-0.62
858.462	1.1
858.629	-1.2
858.797	-1.05
858.965	1.3
859.133	1.02
859.301	0.6
859.468	0.53
859.636	0.14
859.804	2.53
859.971	2.43
860.139	0.01
860.307	3.48
860.474	0.62
860.642	-0.76
860.81	0.15
860.977	1.27
861.145	2.46
861.313	1.38
861.48	0.57
861.648	2.53
861.815	1.03
861.983	-0.47
862.15	0.34
862.318	1.63
862.485	2.06
862.653	0.15
862.82	-0.69
862.988	3.56
863.155	1.83
863.322	0.13
863.49	-1.69
863.657	-0.07
863.824	3.35
863.992	1.75
864.159	0.81
864.326	2.21
864.494	-0.14
864.661	3.14
864.828	0.21
864.996	0.98
865.163	1.83
865.33	0.55
865.497	-2.32
865.664	0.49
865.832	-0.32
865.999	0.35
866.166	-0.02
866.333	0.74
866.5	-1.32
866.667	0.51
866.834	1.62
867.001	1.65
867.168	-1.25
867.335	0.93
867.502	-0.31
867.669	1.14
867.836	3.63
868.003	-0.11
868.17	2.85
868.337	3.57
868.504	3.55
868.671	-0.41
868.838	-0.77
869.005	2.42
869.172	1.54
869.339	2.08
869.505	1.42
869.672	-0.81
869.839	2.7
870.006	-0.02
870.173	-1.5
870.339	1.29
870.506	3.93
870.673	-0.13
870.84	1.18
871.006	2.12
871.173	1.29
871.34	1.31
871.506	-0.21
871.673	1.35
871.839	-2.09
872.006	-0.41
872.173	-0.69
872.339	-0.83
872.506	3.34
872.672	0.23
872.839	-1.58
873.005	0.9
873.172	3.53
873.338	1.62
873.505	1.94
873.671	1.95
873.838	2.05
874.004	-1.89
874.171	0.8
874.337	2.15
874.503	2.27
874.67	1.17
874.836	0.17
875.002	2
875.169	2.78
875.335	1.41
875.501	1.77
875.668	3.57
875.834	1.49
876	-0.66
876.166	1.28
876.332	3.07
876.499	6.82
876.665	-0.06
876.831	1.15
876.997	5.14
877.163	1.82
877.329	0.67
877.495	-0.64
877.662	1.46
877.828	0.69
877.994	0.51
878.16	-0.96
878.326	-0
878.492	2.24
878.658	0.65
878.824	2.47
878.99	3.05
879.156	-0.3
879.322	1.68
879.487	1.08
879.653	1.62
879.819	1.79
879.985	-0.15
880.151	3.43
880.317	1.08
880.483	1.77
880.648	0.56
880.814	-1.78
880.98	-0.47
881.146	-1.67
881.312	0.9
881.477	1.42
881.643	1.54
881.809	3.71
881.974	2.87
882.14	-2.22
882.306	-0.38
882.471	2.75
882.637	-0.6
882.803	0.56
882.968	2.88
883.134	4.17
883.299	-0.15
883.465	1.85
883.63	1.25
883.796	2.23
883.961	2.73
884.127	0.7
884.292	-3.66
884.458	-1.96
884.623	-1.96
