Data from Apollo_Calib_20240827__AbsoluteIrradiance__776__12-05-02-191.txt Node

Date: Wed Aug 28 12:05:02 BST 2024
User: biology
Spectrometer: FLMT08252
Trigger mode: 0
Integration Time (sec): 5.000000E-1
Scans to average: 5
Electric dark correction enabled: true
Nonlinearity correction enabled: false
Boxcar width: 0
XAxis mode: Wavelengths
Number of Pixels in Spectrum: 3648
>>>>>Begin Spectral Data<<<<<
179.588	-0
179.809	-0
180.03	-0
180.251	-0
180.473	-0
180.694	0
180.915	0
181.136	-0
181.357	0
181.578	-0
181.799	-0
182.02	-0
182.241	0
182.462	-0
182.683	0
182.904	-0
183.125	-0
183.346	0
183.567	0
183.788	0
184.009	0
184.23	0
184.451	0
184.672	0
184.892	0
185.113	0
185.334	0
185.555	0
185.776	0
185.996	0
186.217	0
186.438	0
186.659	0
186.879	0
187.1	0
187.321	0
187.541	0
187.762	0
187.983	0
188.203	0
188.424	0
188.644	0
188.865	0
189.086	0
189.306	0
189.527	0
189.747	0
189.968	0
190.188	0
190.409	0
190.629	0
190.849	0
191.07	0
191.29	0
191.511	0
191.731	0
191.951	0
192.172	0
192.392	0
192.612	0
192.833	0
193.053	0
193.273	0
193.493	0
193.714	0
193.934	0
194.154	0
194.374	0
194.594	0
194.815	0
195.035	0
195.255	0
195.475	0
195.695	0
195.915	0
196.135	0
196.355	0
196.575	0
196.795	0
197.015	0
197.235	0
197.455	0
197.675	0
197.895	0
198.115	0
198.335	0
198.555	0
198.775	0
198.995	0
199.214	0
199.434	0
199.654	0
199.874	0
200.094	4.24
200.313	2.55
200.533	2.1
200.753	1.54
200.973	3.9
201.192	3.2
201.412	1.54
201.632	1.7
201.851	3.61
202.071	1.77
202.291	2.46
202.51	1.41
202.73	2.77
202.95	1.93
203.169	1.43
203.389	1.85
203.608	2.25
203.828	1.51
204.047	1.65
204.267	2.51
204.486	2.48
204.706	2.5
204.925	1.86
205.145	1.42
205.364	2.46
205.583	2.6
205.803	1.19
206.022	1.18
206.242	1.56
206.461	1.27
206.68	1.28
206.9	1.54
207.119	2.53
207.338	2.09
207.557	1.22
207.777	1.45
207.996	1.69
208.215	2.16
208.434	1.06
208.654	0.79
208.873	1.68
209.092	2.12
209.311	1.08
209.53	1.14
209.749	1.26
209.968	1.27
210.187	0.95
210.407	0.75
210.626	0.94
210.845	1.63
211.064	1.16
211.283	0.97
211.502	1.66
211.721	1.22
211.94	1.04
212.159	1.23
212.377	1.43
212.596	1.59
212.815	1.2
213.034	1.1
213.253	1.23
213.472	1.31
213.691	0.96
213.91	0.86
214.128	0.67
214.347	1.46
214.566	0.43
214.785	0.69
215.003	1.36
215.222	0.95
215.441	0.81
215.66	0.59
215.878	0.98
216.097	1.21
216.316	0.64
216.534	0.76
216.753	0.99
216.972	0.87
217.19	0.83
217.409	0.81
217.627	0.85
217.846	0.68
218.064	0.95
218.283	0.69
218.501	1.32
218.72	1.29
218.938	0.62
219.157	0.74
219.375	1.02
219.594	1.12
219.812	0.42
220.031	0.69
220.249	1.27
220.467	1.09
220.686	0.5
220.904	0.55
221.122	0.79
221.341	1.17
221.559	0.77
221.777	0.38
221.995	0.86
222.214	0.97
222.432	0.74
222.65	0.73
222.868	0.73
223.086	0.82
223.305	0.73
223.523	0.68
223.741	1.34
223.959	0.57
224.177	0.4
224.395	0.48
224.613	0.8
224.831	0.94
225.049	0.48
225.267	0.54
225.485	0.82
225.703	0.48
225.921	0.74
226.139	0.44
226.357	0.8
226.575	0.68
226.793	0.49
227.011	1.66
227.229	0.95
227.447	1.01
227.665	0.53
227.883	0.31
228.1	0.77
228.318	0.71
228.536	0.4
228.754	0.48
228.972	0.78
229.189	0.8
229.407	0.54
229.625	0.55
229.843	0.82
230.06	0.82
230.278	0.52
230.496	0.56
230.713	0.69
230.931	0.7
231.149	0.5
231.366	0.3
231.584	0.62
231.801	0.99
232.019	0.45
232.236	0.29
232.454	0.48
232.671	0.72
232.889	0.48
233.106	0.31
233.324	0.52
233.541	0.53
233.759	0.58
233.976	0.42
234.194	0.6
234.411	0.59
234.628	0.46
234.846	0.37
235.063	0.58
235.28	0.52
235.498	0.52
235.715	0.36
235.932	0.75
236.149	0.62
236.367	0.32
236.584	0.65
236.801	0.43
237.018	0.74
237.236	0.54
237.453	0.36
237.67	0.72
237.887	0.46
238.104	0.39
238.321	0.39
238.538	0.36
238.755	0.63
238.973	0.23
239.19	0.59
239.407	0.53
239.624	0.57
239.841	0.29
240.058	0.34
240.275	0.55
240.492	0.48
240.709	0.43
240.925	0.49
241.142	0.44
241.359	0.36
241.576	0.33
241.793	0.41
242.01	0.49
242.227	0.6
242.444	0.6
242.66	0.58
242.877	0.52
243.094	0.51
243.311	0.54
243.527	0.38
243.744	0.56
243.961	0.43
244.178	0.37
244.394	0.35
244.611	0.6
244.828	0.72
245.044	0.34
245.261	0.44
245.477	0.47
245.694	0.59
245.911	0.34
246.127	0.43
246.344	0.63
246.56	0.61
246.777	0.35
246.993	0.37
247.21	0.56
247.426	0.49
247.643	0.36
247.859	0.24
248.076	0.35
248.292	0.63
248.508	0.37
248.725	0.43
248.941	0.5
249.157	0.59
249.374	0.35
249.59	0.44
249.806	0.38
250.023	0.57
250.239	0.32
250.455	0.35
250.671	0.43
250.888	0.43
251.104	0.44
251.32	0.36
251.536	0.36
251.752	0.33
251.969	0.39
252.185	0.35
252.401	0.69
252.617	0.52
252.833	0.38
253.049	0.57
253.265	0.45
253.481	0.45
253.697	0.29
253.913	0.28
254.129	0.49
254.345	0.53
254.561	0.29
254.777	0.39
254.993	0.54
255.209	0.41
255.425	0.24
255.641	0.31
255.857	0.54
256.073	0.51
256.288	0.21
256.504	0.34
256.72	0.4
256.936	0.58
257.152	0.32
257.367	0.31
257.583	0.33
257.799	0.48
258.015	0.35
258.23	0.27
258.446	0.63
258.662	0.42
258.877	0.35
259.093	0.26
259.309	0.42
259.524	0.46
259.74	0.31
259.955	0.28
260.171	0.35
260.387	0.41
260.602	0.44
260.818	0.38
261.033	0.25
261.249	0.32
261.464	0.25
261.68	0.25
261.895	0.46
262.11	0.46
262.326	0.29
262.541	0.32
262.757	0.45
262.972	0.35
263.187	0.37
263.403	0.28
263.618	0.52
263.833	0.33
264.049	0.33
264.264	0.37
264.479	0.37
264.694	0.48
264.91	0.28
265.125	0.31
265.34	0.47
265.555	0.56
265.77	0.38
265.986	0.32
266.201	0.36
266.416	0.52
266.631	0.32
266.846	0.3
267.061	0.42
267.276	0.39
267.491	0.15
267.706	0.41
267.921	0.48
268.136	0.41
268.351	0.42
268.566	0.24
268.781	0.44
268.996	0.45
269.211	0.4
269.426	0.26
269.641	0.38
269.856	0.44
270.071	0.24
270.285	0.32
270.5	0.4
270.715	0.41
270.93	0.33
271.145	0.34
271.359	0.43
271.574	0.3
271.789	0.32
272.004	0.26
272.218	0.29
272.433	0.35
272.648	0.26
272.862	0.35
273.077	0.32
273.292	0.32
273.506	0.28
273.721	0.27
273.936	0.41
274.15	0.42
274.365	0.27
274.579	0.35
274.794	0.39
275.008	0.38
275.223	0.23
275.437	0.29
275.652	0.41
275.866	0.38
276.081	0.3
276.295	0.38
276.509	0.35
276.724	0.36
276.938	0.33
277.153	0.36
277.367	0.37
277.581	0.27
277.796	0.26
278.01	0.25
278.224	0.37
278.438	0.5
278.653	0.29
278.867	0.26
279.081	0.38
279.295	0.28
279.51	0.31
279.724	0.19
279.938	0.35
280.152	0.4
280.366	0.32
280.58	0.34
280.794	0.42
281.008	0.36
281.222	0.35
281.437	0.47
281.651	0.31
281.865	0.41
282.079	0.26
282.293	0.18
282.507	0.3
282.721	0.3
282.935	0.27
283.148	0.22
283.362	0.25
283.576	0.18
283.79	0.29
284.004	0.26
284.218	0.37
284.432	0.24
284.646	0.29
284.859	0.26
285.073	0.22
285.287	0.33
285.501	0.27
285.714	0.26
285.928	0.32
286.142	0.34
286.356	0.23
286.569	0.25
286.783	0.42
286.997	0.39
287.21	0.28
287.424	0.31
287.637	0.27
287.851	0.29
288.065	0.38
288.278	0.26
288.492	0.31
288.705	0.29
288.919	0.37
289.132	0.2
289.346	0.34
289.559	0.2
289.773	0.21
289.986	0.22
290.2	0.25
290.413	0.35
290.626	0.22
290.84	0.27
291.053	0.29
291.267	0.36
291.48	0.31
291.693	0.28
291.906	0.23
292.12	0.28
292.333	0.27
292.546	0.22
292.76	0.37
292.973	0.28
293.186	0.33
293.399	0.24
293.612	0.33
293.826	0.3
294.039	0.26
294.252	0.29
294.465	0.34
294.678	0.28
294.891	0.27
295.104	0.2
295.317	0.29
295.53	0.32
295.743	0.22
295.956	0.25
296.169	0.41
296.382	0.3
296.595	0.25
296.808	0.25
297.021	0.31
297.234	0.35
297.447	0.23
297.66	0.3
297.873	0.33
298.086	0.29
298.299	0.23
298.511	0.17
298.724	0.23
298.937	0.2
299.15	0.23
299.363	0.25
299.575	0.3
299.788	0.28
300.001	0.23
300.213	0.25
300.426	0.25
300.639	0.2
300.852	0.18
301.064	0.32
301.277	0.36
301.489	0.31
301.702	0.25
301.915	0.29
302.127	0.28
302.34	0.29
302.552	0.29
302.765	0.26
302.977	0.27
303.19	0.24
303.402	0.23
303.615	0.24
303.827	0.21
304.04	0.27
304.252	0.27
304.464	0.24
304.677	0.38
304.889	0.33
305.102	0.18
305.314	0.23
305.526	0.3
305.739	0.28
305.951	0.18
306.163	0.23
306.375	0.32
306.588	0.23
306.8	0.18
307.012	0.18
307.224	0.27
307.436	0.37
307.649	0.16
307.861	0.27
308.073	0.32
308.285	0.21
308.497	0.2
308.709	0.26
308.921	0.29
309.133	0.31
309.346	0.25
309.558	0.26
309.77	0.26
309.982	0.34
310.194	0.31
310.406	0.25
310.617	0.37
310.829	0.26
311.041	0.28
311.253	0.24
311.465	0.26
311.677	0.27
311.889	0.23
312.101	0.19
312.313	0.35
312.524	0.34
312.736	0.16
312.948	0.22
313.16	0.35
313.372	0.31
313.583	0.25
313.795	0.23
314.007	0.18
314.218	0.3
314.43	0.21
314.642	0.22
314.853	0.2
315.065	0.32
315.277	0.23
315.488	0.21
315.7	0.28
315.912	0.27
316.123	0.24
316.335	0.24
316.546	0.33
316.758	0.24
316.969	0.24
317.181	0.27
317.392	0.27
317.604	0.31
317.815	0.23
318.026	0.2
318.238	0.24
318.449	0.28
318.661	0.16
318.872	0.18
319.083	0.23
319.295	0.32
319.506	0.25
319.717	0.21
319.929	0.34
320.14	0.29
320.351	0.27
320.562	0.23
320.774	0.31
320.985	0.25
321.196	0.23
321.407	0.17
321.618	0.33
321.829	0.26
322.041	0.28
322.252	0.24
322.463	0.29
322.674	0.31
322.885	0.22
323.096	0.24
323.307	0.25
323.518	0.28
323.729	0.24
323.94	0.23
324.151	0.28
324.362	0.31
324.573	0.26
324.784	0.21
324.995	0.33
325.206	0.3
325.417	0.21
325.628	0.19
325.838	0.21
326.049	0.29
326.26	0.31
326.471	0.22
326.682	0.29
326.892	0.27
327.103	0.2
327.314	0.18
327.525	0.34
327.735	0.24
327.946	0.25
328.157	0.2
328.368	0.33
328.578	0.29
328.789	0.29
328.999	0.25
329.21	0.23
329.421	0.32
329.631	0.21
329.842	0.21
330.052	0.27
330.263	0.3
330.473	0.31
330.684	0.24
330.894	0.25
331.105	0.23
331.315	0.27
331.526	0.2
331.736	0.34
331.947	0.28
332.157	0.29
332.367	0.18
332.578	0.25
332.788	0.34
332.999	0.32
333.209	0.23
333.419	0.18
333.629	0.24
333.84	0.3
334.05	0.23
334.26	0.31
334.47	0.28
334.681	0.33
334.891	0.23
335.101	0.29
335.311	0.32
335.521	0.27
335.732	0.18
335.942	0.33
336.152	0.29
336.362	0.27
336.572	0.25
336.782	0.28
336.992	0.24
337.202	0.27
337.412	0.19
337.622	0.3
337.832	0.29
338.042	0.22
338.252	0.21
338.462	0.18
338.672	0.24
338.882	0.2
339.092	0.25
339.302	0.34
339.511	0.29
339.721	0.19
339.931	0.19
340.141	0.3
340.351	0.32
340.561	0.3
340.77	0.27
340.98	0.29
341.19	0.23
341.4	0.22
341.609	0.18
341.819	0.24
342.029	0.19
342.238	0.28
342.448	0.22
342.658	0.29
342.867	0.22
343.077	0.27
343.286	0.25
343.496	0.22
343.706	0.3
343.915	0.18
344.125	0.28
344.334	0.3
344.544	0.18
344.753	0.2
344.963	0.2
345.172	0.22
345.381	0.18
345.591	0.19
345.8	0.2
346.01	0.33
346.219	0.29
346.428	0.15
346.638	0.25
346.847	0.23
347.056	0.35
347.266	0.2
347.475	0.25
347.684	0.25
347.893	0.33
348.103	0.25
348.312	0.21
348.521	0.27
348.73	0.27
348.94	0.24
349.149	0.22
349.358	0.25
349.567	0.25
349.776	0.14
349.985	0.19
350.194	0.32
350.403	0.32
350.612	0.16
350.821	0.23
351.03	0.24
351.239	0.19
351.448	0.23
351.657	0.25
351.866	0.32
352.075	0.22
352.284	0.23
352.493	0.2
352.702	0.33
352.911	0.25
353.12	0.26
353.329	0.24
353.538	0.29
353.746	0.22
353.955	0.21
354.164	0.25
354.373	0.27
354.582	0.32
354.79	0.24
354.999	0.28
355.208	0.22
355.416	0.36
355.625	0.22
355.834	0.24
356.042	0.29
356.251	0.22
356.46	0.2
356.668	0.24
356.877	0.34
357.085	0.3
357.294	0.16
357.503	0.22
357.711	0.23
357.92	0.42
358.128	0.23
358.337	0.22
358.545	0.22
358.754	0.24
358.962	0.32
359.17	0.27
359.379	0.27
359.587	0.29
359.796	0.23
360.004	0.3
360.212	0.29
360.421	0.34
360.629	0.24
360.837	0.25
361.046	0.32
361.254	0.39
361.462	0.26
361.67	0.2
361.879	0.27
362.087	0.32
362.295	0.25
362.503	0.2
362.711	0.18
362.92	0.2
363.128	0.19
363.336	0.17
363.544	0.24
363.752	0.21
363.96	0.2
364.168	0.22
364.376	0.25
364.584	0.27
364.792	0.29
365	0.3
365.208	0.28
365.416	0.29
365.624	0.29
365.832	0.18
366.04	0.34
366.248	0.27
366.456	0.27
366.664	0.25
366.872	0.26
367.079	0.21
367.287	0.25
367.495	0.26
367.703	0.22
367.911	0.2
368.118	0.24
368.326	0.24
368.534	0.21
368.742	0.34
368.949	0.21
369.157	0.22
369.365	0.27
369.572	0.27
369.78	0.22
369.988	0.32
370.195	0.25
370.403	0.29
370.61	0.19
370.818	0.25
371.026	0.37
371.233	0.24
371.441	0.27
371.648	0.21
371.856	0.29
372.063	0.27
372.271	0.22
372.478	0.18
372.685	0.22
372.893	0.31
373.1	0.24
373.308	0.22
373.515	0.36
373.722	0.32
373.93	0.22
374.137	0.27
374.344	0.33
374.552	0.34
374.759	0.32
374.966	0.24
375.173	0.24
375.381	0.33
375.588	0.23
375.795	0.22
376.002	0.24
376.209	0.21
376.417	0.26
376.624	0.31
376.831	0.28
377.038	0.24
377.245	0.19
377.452	0.23
377.659	0.25
377.866	0.22
378.073	0.22
378.28	0.28
378.487	0.31
378.694	0.32
378.901	0.24
379.108	0.28
379.315	0.36
379.522	0.37
379.729	0.3
379.936	0.21
380.143	0.3
380.35	0.24
380.557	0.24
380.763	0.24
380.97	0.26
381.177	0.28
381.384	0.28
381.591	0.22
381.797	0.23
382.004	0.32
382.211	0.31
382.418	0.22
382.624	0.33
382.831	0.34
383.038	0.23
383.244	0.26
383.451	0.27
383.658	0.31
383.864	0.29
384.071	0.21
384.277	0.35
384.484	0.26
384.69	0.35
384.897	0.26
385.103	0.27
385.31	0.25
385.516	0.27
385.723	0.2
385.929	0.3
386.136	0.26
386.342	0.31
386.549	0.22
386.755	0.34
386.961	0.3
387.168	0.28
387.374	0.28
387.58	0.31
387.787	0.3
387.993	0.32
388.199	0.25
388.406	0.23
388.612	0.23
388.818	0.25
389.024	0.24
389.231	0.28
389.437	0.39
389.643	0.3
389.849	0.28
390.055	0.29
390.261	0.33
390.467	0.34
390.674	0.29
390.88	0.32
391.086	0.31
391.292	0.21
391.498	0.34
391.704	0.32
391.91	0.27
392.116	0.28
392.322	0.19
392.528	0.32
392.734	0.29
392.94	0.34
393.146	0.26
393.352	0.31
393.557	0.31
393.763	0.3
393.969	0.35
394.175	0.33
394.381	0.32
394.587	0.28
394.792	0.28
394.998	0.4
395.204	0.34
395.41	0.24
395.615	0.31
395.821	0.37
396.027	0.35
396.233	0.26
396.438	0.34
396.644	0.36
396.85	0.35
397.055	0.37
397.261	0.34
397.466	0.44
397.672	0.39
397.878	0.37
398.083	0.35
398.289	0.34
398.494	0.4
398.7	0.34
398.905	0.27
399.111	0.45
399.316	0.25
399.522	0.34
399.727	0.32
399.932	0.32
400.138	0.32
400.343	0.38
400.549	0.38
400.754	0.32
400.959	0.38
401.165	0.34
401.37	0.38
401.575	0.47
401.78	0.37
401.986	0.37
402.191	0.36
402.396	0.38
402.601	0.43
402.807	0.4
403.012	0.36
403.217	0.47
403.422	0.44
403.627	0.41
403.832	0.4
404.037	0.46
404.243	0.41
404.448	0.45
404.653	0.46
404.858	0.48
405.063	0.48
405.268	0.38
405.473	0.39
405.678	0.4
405.883	0.67
406.088	0.53
406.293	0.46
406.498	0.48
406.703	0.5
406.907	0.48
407.112	0.42
407.317	0.54
407.522	0.6
407.727	0.47
407.932	0.56
408.136	0.68
408.341	0.49
408.546	0.54
408.751	0.56
408.956	0.59
409.16	0.71
409.365	0.6
409.57	0.62
409.774	0.67
409.979	0.7
410.184	0.7
410.388	0.61
410.593	0.8
410.798	0.76
411.002	0.72
411.207	0.82
411.411	0.77
411.616	0.72
411.82	0.82
412.025	0.83
412.229	0.82
412.434	0.96
412.638	0.93
412.843	0.91
413.047	1
413.252	0.94
413.456	0.98
413.66	1.07
413.865	1.06
414.069	1.14
414.273	1.09
414.478	1.12
414.682	1.15
414.886	1.24
415.091	1.18
415.295	1.22
415.499	1.41
415.703	1.4
415.908	1.46
416.112	1.35
416.316	1.58
416.52	1.59
416.724	1.57
416.929	1.6
417.133	1.91
417.337	1.76
417.541	1.83
417.745	1.85
417.949	1.97
418.153	2.04
418.357	2.04
418.561	2.2
418.765	2.18
418.969	2.39
419.173	2.48
419.377	2.44
419.581	2.7
419.785	2.67
419.989	2.66
420.193	2.88
420.397	2.87
420.601	3.07
420.804	3.16
421.008	3.16
421.212	3.29
421.416	3.32
421.62	3.31
421.823	3.42
422.027	3.61
422.231	3.49
422.435	3.48
422.638	3.55
422.842	3.7
423.046	3.85
423.249	3.97
423.453	3.94
423.657	4.13
423.86	4.21
424.064	4.29
424.268	4.6
424.471	4.55
424.675	4.74
424.878	4.82
425.082	4.92
425.285	5.27
425.489	5.15
425.692	5.33
425.896	5.22
426.099	5.6
426.303	5.69
426.506	5.74
426.71	6.01
426.913	6.17
427.116	6.41
427.32	6.28
427.523	6.51
427.726	6.8
427.93	6.89
428.133	7.17
428.336	7.24
428.54	7.38
428.743	7.69
428.946	8.07
429.149	7.97
429.353	7.95
429.556	8.19
429.759	8.05
429.962	8.27
430.165	8.45
430.368	8.01
430.571	8.09
430.775	8.15
430.978	8.14
431.181	8.13
431.384	8.3
431.587	8.36
431.79	8.74
431.993	8.7
432.196	9
432.399	9.28
432.602	9.5
432.805	9.53
433.008	10.15
433.211	10.04
433.414	10.4
433.616	10.46
433.819	10.34
434.022	10.47
434.225	10.67
434.428	10.6
434.631	11.17
434.833	10.87
435.036	11.15
435.239	11.4
435.442	11.36
435.645	11.52
435.847	11.61
436.05	12.02
436.253	12.12
436.455	12.22
436.658	12.21
436.861	12.36
437.063	12.55
437.266	12.41
437.468	12.86
437.671	13.1
437.874	13.14
438.076	13.06
438.279	13.43
438.481	13.63
438.684	14.39
438.886	13.87
439.089	14.23
439.291	14.27
439.494	14.57
439.696	14.69
439.899	15.33
440.101	15.73
440.303	15.84
440.506	16.52
440.708	16.41
440.91	16.5
441.113	16.7
441.315	17.04
441.517	16.9
441.72	17.27
441.922	16.94
442.124	16.85
442.326	17.27
442.529	17.41
442.731	17.45
442.933	17.75
443.135	17.51
443.337	17.42
443.539	18.14
443.742	17.59
443.944	18.37
444.146	18.1
444.348	18.12
444.55	17.88
444.752	18.3
444.954	18.22
445.156	18.15
445.358	18.53
445.56	18.66
445.762	18.45
445.964	18.9
446.166	18.66
446.368	18.59
446.57	18.7
446.772	18.31
446.974	18.01
447.175	18.35
447.377	17.97
447.579	18.28
447.781	18.05
447.983	17.86
448.184	17.4
448.386	17.68
448.588	17.14
448.79	17.06
448.991	17.51
449.193	17.46
449.395	16.89
449.597	16.44
449.798	16.28
450	15.9
450.202	15.77
450.403	15.88
450.605	15.78
450.806	15.42
451.008	15.09
451.21	15.05
451.411	14.48
451.613	13.99
451.814	14.05
452.016	14.03
452.217	13.15
452.419	13.34
452.62	12.95
452.821	12.67
453.023	12.51
453.224	12.25
453.426	11.78
453.627	11.05
453.828	11.17
454.03	11.24
454.231	11.17
454.432	11.04
454.634	10.88
454.835	10.47
455.036	10.42
455.238	9.92
455.439	9.8
455.64	9.49
455.841	9.41
456.042	9.46
456.244	9.07
456.445	8.89
456.646	8.78
456.847	8.49
457.048	8.38
457.249	8.43
457.45	8.2
457.651	7.63
457.852	7.59
458.054	7.21
458.255	7.17
458.456	7.24
458.657	7.13
458.858	6.64
459.058	6.6
459.259	6.71
459.46	6.48
459.661	6.29
459.862	6.42
460.063	6.26
460.264	6.24
460.465	5.91
460.666	6.09
460.866	5.66
461.067	5.45
461.268	5.55
461.469	5.4
461.67	5.39
461.87	5.24
462.071	5.18
462.272	5.19
462.473	5.07
462.673	5.29
462.874	5.11
463.075	5.16
463.275	5.14
463.476	5.1
463.676	5.07
463.877	4.91
464.078	4.87
464.278	4.93
464.479	4.86
464.679	4.74
464.88	4.71
465.08	4.71
465.281	4.52
465.481	4.24
465.682	4.14
465.882	4.1
466.083	4.17
466.283	4.03
466.483	3.86
466.684	3.77
466.884	3.63
467.085	3.68
467.285	3.68
467.485	3.64
467.686	3.55
467.886	3.39
468.086	3.34
468.286	3.32
468.487	3.47
468.687	3.21
468.887	3.21
469.087	3.33
469.287	3.25
469.488	3.03
469.688	3.17
469.888	3.15
470.088	3.11
470.288	3.03
470.488	3.07
470.688	2.88
470.888	2.84
471.088	2.62
471.288	2.82
471.488	2.76
471.688	2.74
471.888	2.6
472.088	2.8
472.288	2.71
472.488	2.61
472.688	2.58
472.888	2.64
473.088	2.61
473.288	2.49
473.488	2.43
473.688	2.61
473.887	2.49
474.087	2.42
474.287	2.46
474.487	2.35
474.687	2.41
474.886	2.35
475.086	2.32
475.286	2.32
475.486	2.23
475.685	2.21
475.885	2.22
476.085	2.25
476.284	2.28
476.484	2.22
476.684	2.18
476.883	2.28
477.083	2.2
477.282	2.12
477.482	2.19
477.681	2.1
477.881	2.03
478.08	2.05
478.28	2
478.479	2.13
478.679	2.15
478.878	2
479.078	2.04
479.277	2.09
479.477	2.07
479.676	2
479.875	2.06
480.075	2.02
480.274	2
480.473	2.06
480.673	2.09
480.872	2.1
481.071	2.06
481.271	2.1
481.47	1.96
481.669	1.96
481.868	1.97
482.067	1.96
482.267	1.88
482.466	1.93
482.665	1.93
482.864	1.95
483.063	1.96
483.262	2
483.461	2.05
483.661	2.11
483.86	1.99
484.059	2.08
484.258	2.05
484.457	1.99
484.656	2.02
484.855	2.11
485.054	1.91
485.253	1.97
485.452	1.94
485.651	2.06
485.849	2
486.048	1.99
486.247	1.98
486.446	2.11
486.645	1.99
486.844	2.05
487.043	2.07
487.241	2.07
487.44	2.08
487.639	2.12
487.838	2.12
488.037	2.09
488.235	2.25
488.434	2.12
488.633	2.09
488.831	2.25
489.03	2.22
489.229	2.2
489.427	2.26
489.626	2.25
489.825	2.29
490.023	2.33
490.222	2.23
490.42	2.3
490.619	2.35
490.817	2.39
491.016	2.3
491.214	2.38
491.413	2.44
491.611	2.33
491.81	2.4
492.008	2.47
492.207	2.55
492.405	2.56
492.604	2.46
492.802	2.56
493	2.59
493.199	2.61
493.397	2.63
493.595	2.68
493.794	2.63
493.992	2.8
494.19	2.71
494.388	2.82
494.587	2.77
494.785	2.82
494.983	2.72
495.181	2.89
495.379	2.92
495.578	2.96
495.776	2.97
495.974	2.97
496.172	2.94
496.37	3.05
496.568	3.09
496.766	3.1
496.964	3.2
497.162	3.17
497.36	3.19
497.558	3.26
497.756	3.3
497.954	3.31
498.152	3.35
498.35	3.47
498.548	3.4
498.746	3.41
498.944	3.4
499.142	3.46
499.34	3.55
499.538	3.66
499.736	3.56
499.933	3.66
500.131	3.66
500.329	3.76
500.527	3.77
500.725	3.91
500.922	3.89
501.12	3.82
501.318	3.93
501.516	3.94
501.713	3.99
501.911	4.01
502.109	3.95
502.306	4.13
502.504	4.02
502.701	4.08
502.899	4.13
503.097	4.35
503.294	4.21
503.492	4.32
503.689	4.37
503.887	4.41
504.084	4.48
504.282	4.43
504.479	4.38
504.677	4.59
504.874	4.56
505.072	4.47
505.269	4.69
505.466	4.73
505.664	4.77
505.861	4.67
506.059	4.74
506.256	4.79
506.453	4.86
506.651	4.97
506.848	5.04
507.045	4.96
507.242	4.98
507.44	4.98
507.637	5.13
507.834	5.13
508.031	5.25
508.229	5.15
508.426	5.11
508.623	5.27
508.82	5.27
509.017	5.34
509.214	5.24
509.411	5.43
509.608	5.37
509.805	5.48
510.003	5.49
510.2	5.48
510.397	5.67
510.594	5.57
510.791	5.62
510.988	5.67
511.184	5.58
511.381	5.57
511.578	5.69
511.775	5.86
511.972	5.76
512.169	5.8
512.366	5.86
512.563	6
512.76	5.99
512.956	6.07
513.153	5.99
513.35	5.89
513.547	5.9
513.744	6.05
513.94	6.06
514.137	6.17
514.334	6.15
514.53	6.15
514.727	6.42
514.924	6.29
515.12	6.21
515.317	6.27
515.514	6.24
515.71	6.23
515.907	6.43
516.103	6.47
516.3	6.35
516.497	6.46
516.693	6.51
516.89	6.51
517.086	6.53
517.283	6.58
517.479	6.46
517.676	6.61
517.872	6.69
518.068	6.63
518.265	6.66
518.461	6.61
518.658	6.72
518.854	6.72
519.05	6.81
519.247	6.86
519.443	6.81
519.639	6.91
519.836	6.77
520.032	6.73
520.228	6.94
520.424	6.88
520.621	6.94
520.817	6.98
521.013	6.93
521.209	7.11
521.405	7.11
521.601	7.07
521.798	7.05
521.994	7.05
522.19	6.97
522.386	7.03
522.582	7.14
522.778	7.3
522.974	7.13
523.17	7.12
523.366	7.08
523.562	7.23
523.758	7.22
523.954	7.06
524.15	7.31
524.346	7.3
524.542	7.31
524.738	7.28
524.934	7.39
525.129	7.3
525.325	7.27
525.521	7.29
525.717	7.5
525.913	7.35
526.109	7.41
526.304	7.48
526.5	7.46
526.696	7.42
526.892	7.42
527.087	7.59
527.283	7.54
527.479	7.58
527.674	7.36
527.87	7.51
528.066	7.56
528.261	7.52
528.457	7.51
528.653	7.63
528.848	7.58
529.044	7.69
529.239	7.53
529.435	7.58
529.63	7.59
529.826	7.62
530.021	7.54
530.217	7.64
530.412	7.56
530.608	7.61
530.803	7.7
530.999	7.56
531.194	7.62
531.389	7.74
531.585	7.7
531.78	7.84
531.975	7.66
532.171	7.78
532.366	7.78
532.561	7.8
532.757	7.67
532.952	7.9
533.147	7.64
533.342	7.79
533.538	7.71
533.733	7.96
533.928	7.63
534.123	7.81
534.318	7.83
534.513	7.74
534.709	7.96
534.904	7.88
535.099	7.95
535.294	7.94
535.489	7.91
535.684	7.88
535.879	7.79
536.074	7.89
536.269	7.97
536.464	7.96
536.659	7.9
536.854	7.89
537.049	8.02
537.244	7.92
537.439	7.9
537.634	7.95
537.828	8.05
538.023	7.92
538.218	7.93
538.413	7.86
538.608	7.93
538.803	8
538.997	7.94
539.192	7.91
539.387	7.96
539.582	7.93
539.776	7.87
539.971	7.99
540.166	8.09
540.36	7.95
540.555	8.11
540.75	8.02
540.944	8
541.139	8.06
541.334	8.02
541.528	8.06
541.723	8.1
541.917	8.13
542.112	7.94
542.306	7.85
542.501	7.93
542.695	7.98
542.89	8.01
543.084	7.99
543.279	8.03
543.473	8.08
543.668	8.07
543.862	7.99
544.056	7.92
544.251	8.15
544.445	8.14
544.64	8.11
544.834	7.84
545.028	7.7
545.222	8.02
545.417	8.21
545.611	8.12
545.805	8.11
546	7.9
546.194	8.1
546.388	8.1
546.582	8.02
546.776	8.01
546.97	8.08
547.165	8.09
547.359	8.05
547.553	8.03
547.747	8.05
547.941	8.25
548.135	8.08
548.329	8.09
548.523	8.1
548.717	8.06
548.911	8.03
549.105	7.97
549.299	8.12
549.493	8.09
549.687	8
549.881	8.19
550.075	8.07
550.269	8.04
550.463	8.14
550.657	8.1
550.85	8.06
551.044	8.11
551.238	8.21
551.432	8.05
551.626	8.14
551.82	8.12
552.013	8.03
552.207	8.2
552.401	8.25
552.594	8.1
552.788	8.06
552.982	8.02
553.176	8
553.369	8.33
553.563	8.14
553.756	8.08
553.95	8.16
554.144	8.18
554.337	8.19
554.531	7.93
554.724	8.1
554.918	8.19
555.111	8
555.305	8.16
555.498	8.07
555.692	8.17
555.885	8.13
556.079	8.09
556.272	8.12
556.466	8.06
556.659	8.04
556.852	8.2
557.046	8
557.239	7.97
557.432	8.07
557.626	8.15
557.819	8.22
558.012	8.17
558.206	8.22
558.399	8.07
558.592	8.05
558.785	8.11
558.979	8.03
559.172	8.13
559.365	8.16
559.558	8.06
559.751	8.01
559.944	8.2
560.138	8.12
560.331	8.16
560.524	8.19
560.717	8.11
560.91	8.17
561.103	8.15
561.296	8.02
561.489	8.21
561.682	8.22
561.875	8.08
562.068	8.23
562.261	8.02
562.454	8.28
562.647	8.09
562.84	8.15
563.032	8.15
563.225	8.07
563.418	8.07
563.611	8.17
563.804	8.24
563.997	7.99
564.19	7.91
564.382	8.19
564.575	8.07
564.768	8.08
564.961	8.17
565.153	8.07
565.346	8.03
565.539	8.2
565.731	8.08
565.924	8.2
566.117	8.31
566.309	8.15
566.502	8.03
566.695	8.02
566.887	8.16
567.08	8.07
567.272	8.17
567.465	7.99
567.657	8.18
567.85	8
568.042	8.1
568.235	8.07
568.427	8
568.62	8.08
568.812	8.03
569.005	8.19
569.197	8
569.389	8.02
569.582	8.11
569.774	8.1
569.966	7.99
570.159	8.03
570.351	8.03
570.543	8.05
570.736	8.03
570.928	7.92
571.12	8.07
571.312	7.95
571.505	7.82
571.697	8.09
571.889	8.04
572.081	8.1
572.273	7.91
572.465	8.07
572.658	8.07
572.85	8.06
573.042	8.04
573.234	7.91
573.426	7.93
573.618	7.94
573.81	8
574.002	7.97
574.194	8.03
574.386	7.97
574.578	7.84
574.77	7.91
574.962	7.98
575.154	7.82
575.346	7.83
575.538	7.85
575.729	7.81
575.921	7.94
576.113	7.96
576.305	7.92
576.497	8.04
576.689	7.85
576.88	7.8
577.072	7.94
577.264	7.93
577.456	7.89
577.647	7.9
577.839	8.03
578.031	7.78
578.223	7.83
578.414	7.71
578.606	7.86
578.798	7.89
578.989	7.83
579.181	7.96
579.372	7.87
579.564	7.81
579.755	7.78
579.947	7.74
580.139	7.87
580.33	7.68
580.522	7.8
580.713	7.75
580.905	7.74
581.096	7.9
581.287	7.78
581.479	7.75
581.67	7.82
581.862	7.67
582.053	7.7
582.244	7.62
582.436	7.82
582.627	7.64
582.818	7.64
583.01	7.61
583.201	7.74
583.392	7.64
583.583	7.65
583.775	7.5
583.966	7.62
584.157	7.64
584.348	7.75
584.54	7.56
584.731	7.69
584.922	7.56
585.113	7.47
585.304	7.55
585.495	7.59
585.686	7.66
585.877	7.63
586.068	7.71
586.259	7.63
586.45	7.58
586.641	7.48
586.832	7.6
587.023	7.49
587.214	7.45
587.405	7.57
587.596	7.41
587.787	7.4
587.978	7.45
588.169	7.44
588.36	7.41
588.551	7.43
588.742	7.43
588.932	7.54
589.123	7.25
589.314	7.46
589.505	7.31
589.696	7.41
589.886	7.38
590.077	7.28
590.268	7.27
590.458	7.27
590.649	7.19
590.84	7.31
591.03	7.3
591.221	7.29
591.412	7.13
591.602	7.33
591.793	7.24
591.984	7.34
592.174	7.22
592.365	7.4
592.555	7.09
592.746	7.14
592.936	7.15
593.127	7.25
593.317	7.19
593.508	7.21
593.698	7.15
593.889	7.15
594.079	7.08
594.269	7.07
594.46	7.05
594.65	7.13
594.84	7.1
595.031	6.96
595.221	7.03
595.411	7
595.602	7.07
595.792	6.95
595.982	6.89
596.172	7.13
596.363	6.88
596.553	6.9
596.743	6.97
596.933	6.94
597.123	6.91
597.314	6.78
597.504	6.79
597.694	6.95
597.884	6.85
598.074	6.79
598.264	6.87
598.454	6.79
598.644	6.72
598.834	6.75
599.024	6.72
599.214	6.7
599.404	6.81
599.594	6.76
599.784	6.58
599.974	6.79
600.164	6.67
600.354	6.63
600.544	6.56
600.734	6.7
600.924	6.62
601.114	6.5
601.303	6.48
601.493	6.56
601.683	6.59
601.873	6.52
602.063	6.46
602.252	6.51
602.442	6.47
602.632	6.5
602.821	6.38
603.011	6.51
603.201	6.41
603.39	6.4
603.58	6.31
603.77	6.44
603.959	6.41
604.149	6.35
604.339	6.38
604.528	6.47
604.718	6.4
604.907	6.32
605.097	6.28
605.286	6.32
605.476	6.26
605.665	6.3
605.855	6.22
606.044	6.27
606.234	6.24
606.423	6.12
606.612	6.14
606.802	6.15
606.991	6.26
607.181	6.23
607.37	6.19
607.559	5.95
607.749	6.16
607.938	6.04
608.127	6.07
608.316	6.03
608.506	6.03
608.695	6.07
608.884	5.96
609.073	6.04
609.263	6.07
609.452	5.97
609.641	5.82
609.83	5.85
610.019	5.95
610.208	5.89
610.397	5.82
610.586	5.85
610.775	5.84
610.965	5.82
611.154	5.68
611.343	5.89
611.532	5.71
611.721	5.81
611.91	5.71
612.099	5.71
612.287	5.64
612.476	5.58
612.665	5.73
612.854	5.59
613.043	5.7
613.232	5.68
613.421	5.5
613.61	5.64
613.798	5.6
613.987	5.63
614.176	5.51
614.365	5.53
614.554	5.6
614.742	5.57
614.931	5.42
615.12	5.57
615.309	5.49
615.497	5.4
615.686	5.34
615.875	5.36
616.063	5.39
616.252	5.33
616.44	5.38
616.629	5.28
616.818	5.33
617.006	5.25
617.195	5.24
617.383	5.3
617.572	5.17
617.76	5.16
617.949	5.21
618.137	5.32
618.326	5.27
618.514	5.06
618.703	5.06
618.891	5.17
619.079	5.01
619.268	5.13
619.456	5.02
619.644	5.11
619.833	5.01
620.021	4.99
620.209	4.91
620.398	5.07
620.586	4.9
620.774	4.98
620.962	4.87
621.151	5
621.339	4.92
621.527	4.84
621.715	4.86
621.903	4.86
622.092	4.73
622.28	4.9
622.468	4.69
622.656	4.81
622.844	4.76
623.032	4.81
623.22	4.65
623.408	4.79
623.596	4.72
623.784	4.76
623.972	4.65
624.16	4.68
624.348	4.7
624.536	4.72
624.724	4.59
624.912	4.64
625.1	4.65
625.288	4.56
625.476	4.54
625.664	4.59
625.851	4.54
626.039	4.53
626.227	4.47
626.415	4.52
626.603	4.44
626.79	4.49
626.978	4.4
627.166	4.47
627.354	4.35
627.541	4.41
627.729	4.29
627.917	4.42
628.104	4.43
628.292	4.28
628.48	4.33
628.667	4.27
628.855	4.35
629.042	4.37
629.23	4.31
629.418	4.24
629.605	4.26
629.793	4.19
629.98	4.17
630.168	4.19
630.355	4.21
630.543	4.16
630.73	4.09
630.917	4.12
631.105	4.25
631.292	4.12
631.48	4.11
631.667	4.22
631.854	4.05
632.042	4.06
632.229	3.95
632.416	4.06
632.604	3.98
632.791	3.91
632.978	3.99
633.165	3.92
633.353	4
633.54	3.99
633.727	3.82
633.914	3.84
634.101	3.81
634.289	3.94
634.476	3.74
634.663	3.77
634.85	3.81
635.037	3.77
635.224	3.75
635.411	3.85
635.598	3.71
635.785	3.72
635.972	3.65
636.159	3.7
636.346	3.68
636.533	3.63
636.72	3.64
636.907	3.62
637.094	3.68
637.281	3.47
637.468	3.57
637.655	3.61
637.842	3.6
638.029	3.52
638.215	3.55
638.402	3.58
638.589	3.49
638.776	3.47
638.963	3.42
639.149	3.53
639.336	3.55
639.523	3.49
639.709	3.49
639.896	3.44
640.083	3.41
640.27	3.46
640.456	3.34
640.643	3.35
640.829	3.23
641.016	3.28
641.203	3.23
641.389	3.31
641.576	3.3
641.762	3.23
641.949	3.22
642.135	3.25
642.322	3.23
642.508	3.12
642.695	3.2
642.881	3.15
643.068	3.13
643.254	3.14
643.441	3.11
643.627	3.17
643.813	3.03
644	3.15
644.186	3.02
644.372	3.11
644.559	3.08
644.745	3.06
644.931	2.96
645.118	3.02
645.304	3.05
645.49	3.04
645.676	2.97
645.862	2.99
646.049	3.02
646.235	2.97
646.421	3.11
646.607	3.03
646.793	2.9
646.979	2.82
647.165	2.94
647.352	2.92
647.538	2.9
647.724	2.84
647.91	2.76
648.096	2.91
648.282	2.89
648.468	2.81
648.654	2.83
648.84	2.75
649.026	2.77
649.212	2.75
649.397	2.68
649.583	2.69
649.769	2.74
649.955	2.71
650.141	2.73
650.327	2.75
650.513	2.64
650.698	2.66
650.884	2.56
651.07	2.67
651.256	2.58
651.442	2.59
651.627	2.53
651.813	2.64
651.999	2.56
652.184	2.58
652.37	2.54
652.556	2.52
652.741	2.55
652.927	2.41
653.113	2.54
653.298	2.51
653.484	2.51
653.669	2.42
653.855	2.5
654.04	2.52
654.226	2.44
654.412	2.39
654.597	2.37
654.782	2.47
654.968	2.43
655.153	2.38
655.339	2.35
655.524	2.36
655.71	2.41
655.895	2.35
656.08	2.35
656.266	2.4
656.451	2.29
656.636	2.23
656.822	2.27
657.007	2.33
657.192	2.3
657.378	2.23
657.563	2.23
657.748	2.26
657.933	2.26
658.118	2.17
658.304	2.19
658.489	2.23
658.674	2.23
658.859	2.1
659.044	2.12
659.229	2.25
659.414	2.13
659.599	2.21
659.785	2.07
659.97	2.07
660.155	2.13
660.34	2.18
660.525	2.08
660.71	2.03
660.895	2.14
661.08	2.08
661.264	1.98
661.449	2.15
661.634	2.11
661.819	2.08
662.004	2.05
662.189	1.98
662.374	1.99
662.559	1.94
662.743	1.95
662.928	2.02
663.113	1.97
663.298	1.9
663.483	1.93
663.667	1.95
663.852	1.91
664.037	1.99
664.221	1.94
664.406	1.98
664.591	1.93
664.775	1.91
664.96	1.85
665.145	1.9
665.329	1.98
665.514	1.86
665.698	1.82
665.883	1.76
666.068	1.86
666.252	1.88
666.437	1.8
666.621	1.82
666.806	1.82
666.99	1.8
667.174	1.78
667.359	1.84
667.543	1.79
667.728	1.78
667.912	1.7
668.096	1.77
668.281	1.74
668.465	1.74
668.649	1.71
668.834	1.63
669.018	1.73
669.202	1.73
669.387	1.72
669.571	1.74
669.755	1.62
669.939	1.71
670.124	1.64
670.308	1.75
670.492	1.66
670.676	1.62
670.86	1.62
671.044	1.62
671.228	1.68
671.413	1.6
671.597	1.61
671.781	1.54
671.965	1.64
672.149	1.61
672.333	1.6
672.517	1.51
672.701	1.6
672.885	1.53
673.069	1.5
673.253	1.6
673.437	1.57
673.621	1.54
673.804	1.53
673.988	1.56
674.172	1.47
674.356	1.43
674.54	1.48
674.724	1.62
674.908	1.48
675.091	1.54
675.275	1.47
675.459	1.52
675.643	1.45
675.826	1.5
676.01	1.45
676.194	1.47
676.377	1.46
676.561	1.47
676.745	1.41
676.928	1.45
677.112	1.48
677.296	1.4
677.479	1.37
677.663	1.33
677.846	1.42
678.03	1.39
678.213	1.32
678.397	1.44
678.58	1.31
678.764	1.37
678.947	1.3
679.131	1.4
679.314	1.45
679.498	1.36
679.681	1.35
679.865	1.41
680.048	1.29
680.231	1.31
680.415	1.24
680.598	1.32
680.781	1.28
680.965	1.29
681.148	1.24
681.331	1.24
681.514	1.31
681.698	1.2
681.881	1.24
682.064	1.26
682.247	1.31
682.43	1.14
682.614	1.27
682.797	1.29
682.98	1.29
683.163	1.17
683.346	1.29
683.529	1.15
683.712	1.13
683.895	1.19
684.078	1.12
684.261	1.17
684.444	1.17
684.627	1.24
684.81	1.14
684.993	1.06
685.176	1.22
685.359	1.08
685.542	1.08
685.725	1.22
685.908	1.15
686.091	1.14
686.274	1.18
686.457	1.2
686.639	1.1
686.822	1.17
687.005	1.18
687.188	1.2
687.371	1.24
687.553	1.12
687.736	1.1
687.919	1.29
688.102	1.17
688.284	1.07
688.467	1.09
688.65	1.12
688.832	1
689.015	1.02
689.197	0.94
689.38	1.16
689.563	1.17
689.745	1
689.928	0.99
690.11	0.99
690.293	1.04
690.475	0.94
690.658	1.02
690.84	1.06
691.023	1.02
691.205	1.02
691.388	1.04
691.57	1.07
691.752	1.08
691.935	0.96
692.117	0.93
692.3	0.99
692.482	0.94
692.664	0.92
692.847	0.94
693.029	1.04
693.211	1
693.393	0.92
693.576	0.88
693.758	1
693.94	0.95
694.122	0.91
694.304	0.9
694.487	0.91
694.669	1.05
694.851	0.88
695.033	0.89
695.215	0.88
695.397	0.95
695.579	0.91
695.761	0.77
695.943	0.83
696.125	1.01
696.308	0.91
696.49	0.77
696.671	1
696.853	0.89
697.035	1.13
697.217	0.9
697.399	0.97
697.581	0.82
697.763	0.86
697.945	0.81
698.127	0.88
698.309	0.93
698.491	0.89
698.672	0.92
698.854	0.9
699.036	0.9
699.218	0.85
699.399	0.87
699.581	0.94
699.763	0.81
699.945	0.82
700.126	0.75
700.308	0.82
700.49	0.76
700.671	0.69
700.853	0.75
701.035	0.75
701.216	0.85
701.398	0.77
701.579	0.79
701.761	0.87
701.943	0.79
702.124	0.72
702.306	0.82
702.487	0.91
702.669	0.79
702.85	0.71
703.031	0.66
703.213	0.96
703.394	0.86
703.576	0.72
703.757	0.86
703.938	0.77
704.12	0.92
704.301	0.7
704.483	0.69
704.664	0.75
704.845	0.85
705.026	0.8
705.208	0.72
705.389	0.77
705.57	0.75
705.751	0.71
705.933	0.76
706.114	0.83
706.295	0.79
706.476	0.65
706.657	0.89
706.838	0.8
707.02	0.78
707.201	0.65
707.382	0.65
707.563	0.73
707.744	0.69
707.925	0.62
708.106	0.62
708.287	0.69
708.468	0.81
708.649	0.71
708.83	0.74
709.011	0.68
709.192	0.71
709.373	0.57
709.554	0.64
709.734	0.82
709.915	0.72
710.096	0.72
710.277	0.55
710.458	0.63
710.639	0.78
710.819	0.57
711	0.64
711.181	0.76
711.362	0.71
711.542	0.63
711.723	0.71
711.904	0.78
712.085	0.66
712.265	0.66
712.446	0.53
712.627	0.58
712.807	0.62
712.988	0.63
713.168	0.52
713.349	0.7
713.53	0.51
713.71	0.62
713.891	0.5
714.071	0.59
714.252	0.57
714.432	0.5
714.613	0.53
714.793	0.55
714.974	0.7
715.154	0.65
715.334	0.69
715.515	0.74
715.695	0.54
715.876	0.62
716.056	0.51
716.236	0.56
716.417	0.62
716.597	0.55
716.777	0.9
716.957	0.57
717.138	0.64
717.318	0.58
717.498	0.49
717.678	0.65
717.859	0.62
718.039	0.49
718.219	0.54
718.399	0.57
718.579	0.55
718.759	0.42
718.939	0.59
719.12	0.54
719.3	0.58
719.48	0.43
719.66	0.4
719.84	0.72
720.02	0.5
720.2	0.55
720.38	0.57
720.56	0.7
720.74	0.46
720.92	0.59
721.1	0.67
721.279	0.69
721.459	0.52
721.639	0.42
721.819	0.51
721.999	0.52
722.179	0.63
722.359	0.39
722.538	0.52
722.718	0.59
722.898	0.45
723.078	0.53
723.257	0.46
723.437	0.56
723.617	0.58
723.797	0.5
723.976	0.57
724.156	0.55
724.336	0.64
724.515	0.71
724.695	0.41
724.874	0.44
725.054	0.54
725.234	0.46
725.413	0.49
725.593	0.53
725.772	0.48
725.952	0.53
726.131	0.45
726.311	0.52
726.49	0.55
726.67	0.44
726.849	0.48
727.028	0.55
727.208	0.48
727.387	0.51
727.567	0.38
727.746	0.48
727.925	0.46
728.105	0.45
728.284	0.47
728.463	0.53
728.643	0.6
728.822	0.38
729.001	0.42
729.18	0.64
729.359	0.54
729.539	0.41
729.718	0.47
729.897	0.52
730.076	0.42
730.255	0.37
730.434	0.45
730.614	0.55
730.793	0.58
730.972	0.49
731.151	0.53
731.33	0.59
731.509	0.59
731.688	0.53
731.867	0.43
732.046	0.33
732.225	0.77
732.404	0.44
732.583	0.34
732.762	0.43
732.941	0.56
733.12	0.53
733.298	0.39
733.477	0.65
733.656	0.47
733.835	0.41
734.014	0.57
734.193	0.39
734.371	0.51
734.55	0.57
734.729	0.27
734.908	0.47
735.086	0.47
735.265	0.61
735.444	0.24
735.623	0.3
735.801	0.29
735.98	0.3
736.159	0.37
736.337	0.55
736.516	0.47
736.694	0.48
736.873	0.42
737.052	0.76
737.23	0.69
737.409	0.45
737.587	0.68
737.766	0.37
737.944	0.52
738.123	0.43
738.301	0.57
738.479	0.49
738.658	0.54
738.836	0.35
739.015	0.56
739.193	0.68
739.371	0.3
739.55	0.41
739.728	0.48
739.906	0.65
740.085	0.72
740.263	0.54
740.441	0.2
740.62	0.69
740.798	0.52
740.976	0.36
741.154	0.41
741.332	0.74
741.511	0.37
741.689	0.49
741.867	0.54
742.045	0.56
742.223	0.4
742.401	0.3
742.579	0.44
742.757	0.55
742.935	0.27
743.114	0.34
743.292	0.35
743.47	0.48
743.648	0.47
743.826	0.37
744.004	0.59
744.181	0.49
744.359	0.35
744.537	0.43
744.715	0.4
744.893	0.33
745.071	0.5
745.249	0.37
745.427	0.42
745.605	0.53
745.782	0.45
745.96	0.5
746.138	0.56
746.316	0.62
746.493	0.4
746.671	0.34
746.849	0.5
747.027	0.6
747.204	0.38
747.382	0.43
747.56	0.32
747.737	0.4
747.915	0.39
748.093	0.43
748.27	0.36
748.448	0.38
748.625	0.22
748.803	0.41
748.98	0.32
749.158	0.44
749.335	0.45
749.513	0.45
749.69	0.3
749.868	0.41
750.045	0.49
750.223	0.38
750.4	0.16
750.578	0.58
750.755	0.37
750.932	0.34
751.11	0.5
751.287	0.27
751.464	0.46
751.642	0.25
751.819	0.5
751.996	0.52
752.173	0.29
752.351	0.19
752.528	0.39
752.705	0.38
752.882	0.32
753.06	0.38
753.237	0.46
753.414	0.59
753.591	0.68
753.768	0.42
753.945	0.31
754.122	0.31
754.299	0.57
754.476	0.35
754.654	0.37
754.831	0.47
755.008	0.54
755.185	0.3
755.362	0.29
755.539	0.49
755.716	0.43
755.892	0.29
756.069	0.39
756.246	0.38
756.423	0.39
756.6	0.45
756.777	0.34
756.954	0.44
757.131	0.48
757.307	0.3
757.484	0.25
757.661	0.43
757.838	0.49
758.015	0.25
758.191	0.48
758.368	0.5
758.545	0.62
758.721	0.41
758.898	0.26
759.075	0.38
759.251	0.46
759.428	0.56
759.605	0.22
759.781	0.36
759.958	0.43
760.134	0.38
760.311	0.13
760.488	0.48
760.664	0.64
760.841	0.43
761.017	0.22
761.194	0.45
761.37	0.54
761.547	0.27
761.723	0.24
761.899	0.47
762.076	0.29
762.252	0.37
762.429	0.38
762.605	0.59
762.781	0.3
762.958	0.42
763.134	0.29
763.31	0.24
763.486	0.64
763.663	0.15
763.839	0.38
764.015	0.16
764.191	0.35
764.368	0.32
764.544	0.22
764.72	0.41
764.896	0.44
765.072	0.51
765.248	0.33
765.425	0.27
765.601	0.39
765.777	0.44
765.953	-0.04
766.129	0.34
766.305	0.24
766.481	0.45
766.657	0.25
766.833	0.58
767.009	0.28
767.185	0.21
767.361	0.37
767.537	0.21
767.713	0.58
767.889	0.33
768.065	0.42
768.24	0.56
768.416	0.42
768.592	0.33
768.768	0.35
768.944	0.5
769.12	0.28
769.295	0.41
769.471	0.34
769.647	0.31
769.823	0.47
769.998	0.31
770.174	0.23
770.35	0.96
770.525	0.66
770.701	0.34
770.877	0.29
771.052	0.37
771.228	0.42
771.403	0.45
771.579	0.43
771.755	0.72
771.93	0.24
772.106	0.31
772.281	0.06
772.457	0.34
772.632	0.51
772.808	0.08
772.983	0.35
773.159	0.05
773.334	0.55
773.509	0.44
773.685	0.19
773.86	0.73
774.036	0.57
774.211	0.42
774.386	0.29
774.562	0.36
774.737	0.5
774.912	0.36
775.087	0.43
775.263	0.43
775.438	0.41
775.613	0.05
775.788	0.38
775.964	0.5
776.139	0.84
776.314	0.16
776.489	0.32
776.664	0.52
776.839	0.4
777.014	0.45
777.19	0.46
777.365	0.55
777.54	0.73
777.715	0.23
777.89	0.27
778.065	0.21
778.24	0.35
778.415	0.55
778.59	0.19
778.765	0.36
778.94	0.49
779.115	0.18
779.289	0.13
779.464	0.39
779.639	0.45
779.814	0.09
779.989	0.18
780.164	0.71
780.339	0.43
780.513	0.33
780.688	0.35
780.863	0.28
781.038	0.54
781.212	0.3
781.387	0.26
781.562	0.78
781.737	0.27
781.911	0.64
782.086	0.27
782.261	0.28
782.435	0.66
782.61	0.32
782.784	0.37
782.959	0.75
783.134	0.29
783.308	0.1
783.483	0.33
783.657	0.81
783.832	0.68
784.006	0.06
784.181	0.44
784.355	0.62
784.53	0.36
784.704	0.23
784.878	0.7
785.053	0.85
785.227	0.63
785.402	0.74
785.576	0.25
785.75	0.51
785.925	0.28
786.099	0.46
786.273	0.6
786.448	0.71
786.622	0.71
786.796	0.51
786.97	0.55
787.145	1.03
787.319	-0.1
787.493	0.31
787.667	0.04
787.841	0.43
788.015	0.7
788.19	0.35
788.364	0.3
788.538	0.72
788.712	0.64
788.886	0.33
789.06	0.47
789.234	0.61
789.408	0.31
789.582	0.21
789.756	0.4
789.93	0.2
790.104	0.34
790.278	0.12
790.452	0.14
790.626	0.53
790.8	0.18
790.973	0.54
791.147	0.65
791.321	0.86
791.495	0.82
791.669	0.54
791.843	0.45
792.016	0.5
792.19	0.88
792.364	0.24
792.538	1.09
792.711	0.8
792.885	0.37
793.059	0.16
793.233	-0.33
793.406	0.69
793.58	0.56
793.754	0.66
793.927	0.6
794.101	0.58
794.274	0.56
794.448	0.89
794.622	0.2
794.795	0.78
794.969	0.33
795.142	0.99
795.316	0.25
795.489	0.29
795.663	0.81
795.836	0.23
796.009	0.23
796.183	0.64
796.356	0.55
796.53	0.57
796.703	0.49
796.876	1.2
797.05	0.35
797.223	0.32
797.396	0.37
797.57	0.41
797.743	0.97
797.916	0.68
798.09	0.5
798.263	0.81
798.436	0.63
798.609	0.29
798.782	0.28
798.956	0.45
799.129	0.61
799.302	0.32
799.475	0.36
799.648	0.24
799.821	0.42
799.994	0.35
800.167	0.01
800.34	0.66
800.514	0.54
800.687	0.27
800.86	0.27
801.033	0.66
801.206	0.83
801.379	0.16
801.551	0.85
801.724	0.81
801.897	0.91
802.07	0.36
802.243	-0.1
802.416	0.75
802.589	0.3
802.762	0.66
802.935	0.52
803.107	0.67
803.28	1.13
803.453	0.78
803.626	0.38
803.798	0.62
803.971	0.18
804.144	0.7
804.317	0.46
804.489	1.11
804.662	0.58
804.835	0.47
805.007	0.13
805.18	1.12
805.353	0.57
805.525	0.27
805.698	0.48
805.87	1.07
806.043	0.82
806.215	-0.05
806.388	0.33
806.56	0.77
806.733	1.04
806.905	0.59
807.078	0.5
807.25	0.24
807.423	1.06
807.595	0.69
807.768	0.57
807.94	0.82
808.112	0.58
808.285	0.36
808.457	0.42
808.629	0.54
808.802	0.92
808.974	0.59
809.146	0.27
809.318	0.64
809.491	1.08
809.663	0.62
809.835	0.36
810.007	0.91
810.18	0.77
810.352	0.25
810.524	0.44
810.696	1.15
810.868	1.1
811.04	0.35
811.212	0.59
811.384	0.56
811.556	0.69
811.728	0.62
811.901	1.22
812.073	0.61
812.245	0.81
812.417	0.82
812.589	-0.1
812.76	0.64
812.932	0.88
813.104	0.72
813.276	0.85
813.448	0.64
813.62	1.01
813.792	0.36
813.964	0.49
814.136	0.73
814.307	0.47
814.479	0.51
814.651	0.67
814.823	1.54
814.995	0.33
815.166	0.79
815.338	0.14
815.51	0.04
815.681	1.61
815.853	0.72
816.025	0.32
816.196	1.5
816.368	1.19
816.54	0.09
816.711	0.09
816.883	1.15
817.054	2.08
817.226	-0.02
817.398	0.81
817.569	0.36
817.741	0.53
817.912	0.72
818.084	0.79
818.255	1.29
818.426	0.35
818.598	0.59
818.769	0.14
818.941	1.25
819.112	1.39
819.283	1.13
819.455	-0.22
819.626	0.58
819.798	0.91
819.969	0.76
820.14	0.59
820.311	0.52
820.483	0.87
820.654	1.03
820.825	0.62
820.996	0.73
821.168	0.12
821.339	0.39
821.51	0.29
821.681	0.45
821.852	0.72
822.023	-0.07
822.195	0.34
822.366	1.17
822.537	0.8
822.708	0.52
822.879	0.12
823.05	1.25
823.221	0.59
823.392	0.8
823.563	1.29
823.734	0.89
823.905	0.99
824.076	0.4
824.247	-0.35
824.418	0.97
824.589	1.27
824.759	0.73
824.93	0.28
825.101	0.2
825.272	1.51
825.443	1.74
825.614	1.19
825.784	-0.14
825.955	1.69
826.126	1.47
826.297	1.2
826.467	1.98
826.638	2.33
826.809	-0.16
826.98	0.84
827.15	1.65
827.321	1.22
827.492	1
827.662	0.23
827.833	2.01
828.003	1.48
828.174	0.26
828.345	-0.44
828.515	1.87
828.686	1.37
828.856	0.72
829.027	0.92
829.197	1.46
829.368	1.42
829.538	-0.21
829.709	0.88
829.879	0.57
830.049	1.1
830.22	1.18
830.39	0.82
830.56	0.97
830.731	0.74
830.901	0.39
831.072	0.88
831.242	0.48
831.412	0.57
831.582	0.2
831.753	-0.29
831.923	1.61
832.093	0.6
832.263	1.1
832.434	-0.22
832.604	0.6
832.774	1.81
832.944	0.64
833.114	0.24
833.284	0.53
833.454	0.24
833.624	0.76
833.795	0.57
833.965	1.99
834.135	1.88
834.305	-0.61
834.475	-0.04
834.645	0.82
834.815	-0
834.985	0.07
835.155	0.27
835.325	1.38
835.494	1.59
835.664	1.12
835.834	0.39
836.004	1.11
836.174	1.55
836.344	0.43
836.514	-0.02
836.684	0.3
836.853	1.46
837.023	0.68
837.193	0.2
837.363	1.6
837.532	1.74
837.702	0.55
837.872	0.61
838.041	1.6
838.211	2.02
838.381	-0.22
838.55	1.02
838.72	3.5
838.89	2.65
839.059	0.69
839.229	-0.19
839.398	2.63
839.568	1.02
839.738	0.48
839.907	1.63
840.077	1.06
840.246	0.3
840.416	-0.32
840.585	0.34
840.755	2.24
840.924	2.21
841.093	0.51
841.263	0.91
841.432	1.61
841.602	-0.67
841.771	0.54
841.94	1.17
842.11	3.12
842.279	2.39
842.448	0.7
842.617	0.26
842.787	2.2
842.956	-0.16
843.125	1.6
843.294	0.62
843.464	2.4
843.633	1.66
843.802	-0.07
843.971	0.94
844.14	1.91
844.309	2.24
844.479	-0.62
844.648	0.88
844.817	1.25
844.986	1.33
845.155	0.51
845.324	0.84
845.493	1.41
845.662	0.93
845.831	1.67
846	1.78
846.169	0.52
846.338	2.47
846.507	1.32
846.676	1.26
846.844	1.16
847.013	2.7
847.182	0.42
847.351	0.29
847.52	0.49
847.689	1.5
847.858	0.99
848.026	-0.46
848.195	1.29
848.364	0.59
848.533	0.24
848.701	0.42
848.87	1.73
849.039	2.75
849.207	1.75
849.376	2.77
849.545	2.21
849.713	0.37
849.882	0.32
850.051	0.86
850.219	1.58
850.388	1.4
850.556	0.61
850.725	0.43
850.893	1.96
851.062	0.56
851.23	1.91
851.399	-0.38
851.567	1.26
851.736	0.56
851.904	0.07
852.073	1.27
852.241	2.16
852.41	1.9
852.578	0.54
852.746	0.67
852.915	2.22
853.083	1.09
853.251	0.19
853.42	1.04
853.588	1.4
853.756	1.37
853.924	1.26
854.093	0.49
854.261	1.96
854.429	0.5
854.597	1.37
854.765	0.58
854.934	2.15
855.102	3.07
855.27	0.82
855.438	2.17
855.606	3.19
855.774	4.13
855.942	-0.39
856.11	0.08
856.278	0.94
856.446	1.91
856.614	1.55
856.782	0.44
856.95	1.69
857.118	2.5
857.286	2.48
857.454	0.63
857.622	3.44
857.79	2.65
857.958	-0.82
858.126	0.99
858.294	-1.66
858.462	1.73
858.629	1.48
858.797	-0.5
858.965	2.38
859.133	1.58
859.301	1.28
859.468	2.12
859.636	1.69
859.804	4
859.971	2.62
860.139	0.03
860.307	2.84
860.474	1.64
860.642	0.41
860.81	0.38
860.977	1.06
861.145	2.12
861.313	2.21
861.48	0.82
861.648	2.15
861.815	0.63
861.983	0.05
862.15	0.34
862.318	2.9
862.485	2.41
862.653	1.82
862.82	0.42
862.988	4.38
863.155	2.4
863.322	0.24
863.49	0.89
863.657	-0.02
863.824	4.12
863.992	0.77
864.159	1.23
864.326	2.64
864.494	1.9
864.661	3.45
864.828	1.62
864.996	2.67
865.163	2.9
865.33	0.09
865.497	-0.72
865.664	0.28
865.832	-0.71
865.999	0.46
866.166	0.35
866.333	1.55
866.5	1.16
866.667	0.96
866.834	0.91
867.001	3.66
867.168	0.35
867.335	0.96
867.502	-0.3
867.669	2.57
867.836	6.46
868.003	-0.11
868.17	4.16
868.337	4.97
868.504	3.52
868.671	0.04
868.838	1.19
869.005	2.31
869.172	2.97
869.339	2.53
869.505	1.95
869.672	1.99
869.839	4.02
870.006	1.43
870.173	1.86
870.339	2.74
870.506	4.87
870.673	1.07
870.84	2.46
871.006	2.85
871.173	1.87
871.34	2.74
871.506	-0.12
871.673	2.84
871.839	0.03
872.006	3.06
872.173	2.21
872.339	1.33
872.506	4.12
872.672	-0.21
872.839	-1.07
873.005	2.53
873.172	6.4
873.338	4.31
873.505	1.44
873.671	2.77
873.838	3.99
874.004	0.57
874.171	0.64
874.337	3.42
874.503	4.46
874.67	1.39
874.836	3.13
875.002	4.8
875.169	4.95
875.335	2.14
875.501	1.85
875.668	2.35
875.834	1.45
876	1.4
876.166	3.36
876.332	2.99
876.499	5.86
876.665	0.88
876.831	1.27
876.997	7.19
877.163	4.95
877.329	0.89
877.495	2.17
877.662	3.95
877.828	4.41
877.994	2.28
878.16	-0.3
878.326	0.53
878.492	2.25
878.658	2.07
878.824	3.19
878.99	5.37
879.156	2.01
879.322	4.49
879.487	-0.47
879.653	1.92
879.819	3.09
879.985	2.21
880.151	4.55
880.317	4.42
880.483	2.48
880.648	1.86
880.814	-1
880.98	3.01
881.146	-1.47
881.312	0.86
881.477	1.42
881.643	1.37
881.809	4.7
881.974	4.39
882.14	-1.47
882.306	2.7
882.471	5.1
882.637	-0.81
882.803	2.47
882.968	4.69
883.134	7.47
883.299	2.11
883.465	1.47
883.63	3.76
883.796	4.11
883.961	1.78
884.127	4.09
884.292	-1.75
884.458	0.66
884.623	0.66
