Data from Apollo_Calib_20240827__AbsoluteIrradiance__882__13-51-00-351.txt Node

Date: Wed Aug 28 13:51:00 BST 2024
User: biology
Spectrometer: FLMT08252
Trigger mode: 0
Integration Time (sec): 5.000000E-1
Scans to average: 5
Electric dark correction enabled: true
Nonlinearity correction enabled: false
Boxcar width: 0
XAxis mode: Wavelengths
Number of Pixels in Spectrum: 3648
>>>>>Begin Spectral Data<<<<<
179.588	-0
179.809	-0
180.03	-0
180.251	-0
180.473	-0
180.694	0
180.915	0
181.136	-0
181.357	0
181.578	-0
181.799	0
182.02	-0
182.241	-0
182.462	-0
182.683	0
182.904	-0
183.125	-0
183.346	0
183.567	0
183.788	0
184.009	0
184.23	0
184.451	0
184.672	0
184.892	0
185.113	0
185.334	0
185.555	0
185.776	0
185.996	0
186.217	0
186.438	0
186.659	0
186.879	0
187.1	0
187.321	0
187.541	0
187.762	0
187.983	0
188.203	0
188.424	0
188.644	0
188.865	0
189.086	0
189.306	0
189.527	0
189.747	0
189.968	0
190.188	0
190.409	0
190.629	0
190.849	0
191.07	0
191.29	0
191.511	0
191.731	0
191.951	0
192.172	0
192.392	0
192.612	0
192.833	0
193.053	0
193.273	0
193.493	0
193.714	0
193.934	0
194.154	0
194.374	0
194.594	0
194.815	0
195.035	0
195.255	0
195.475	0
195.695	0
195.915	0
196.135	0
196.355	0
196.575	0
196.795	0
197.015	0
197.235	0
197.455	0
197.675	0
197.895	0
198.115	0
198.335	0
198.555	0
198.775	0
198.995	0
199.214	0
199.434	0
199.654	0
199.874	0
200.094	3.81
200.313	1.8
200.533	2.21
200.753	1.52
200.973	3.62
201.192	3.53
201.412	1.13
201.632	1.62
201.851	3.33
202.071	1.85
202.291	1.68
202.51	1.13
202.73	2.78
202.95	1.91
203.169	0.94
203.389	1.51
203.608	2.12
203.828	1.65
204.047	1.36
204.267	2.26
204.486	2.04
204.706	2.32
204.925	1.59
205.145	1.14
205.364	2.45
205.583	2.73
205.803	1.25
206.022	0.87
206.242	1.71
206.461	1.65
206.68	1.29
206.9	1.52
207.119	2.46
207.338	2.12
207.557	1.12
207.777	1.11
207.996	1.38
208.215	1.88
208.434	1.03
208.654	1.15
208.873	1.55
209.092	2.48
209.311	0.82
209.53	0.99
209.749	1.17
209.968	1.11
210.187	1.14
210.407	0.68
210.626	1.27
210.845	1.63
211.064	1.06
211.283	0.66
211.502	1.61
211.721	1.35
211.94	1.1
212.159	1.32
212.377	1.4
212.596	1.59
212.815	1.22
213.034	1.1
213.253	1.38
213.472	1.45
213.691	0.99
213.91	0.75
214.128	0.59
214.347	1.53
214.566	0.56
214.785	0.53
215.003	1.17
215.222	1.13
215.441	0.94
215.66	0.41
215.878	0.89
216.097	1.15
216.316	0.64
216.534	0.92
216.753	1.22
216.972	0.79
217.19	0.74
217.409	0.69
217.627	0.86
217.846	0.76
218.064	1.08
218.283	0.57
218.501	1.53
218.72	1.17
218.938	0.49
219.157	0.62
219.375	0.92
219.594	1.24
219.812	0.47
220.031	0.48
220.249	1.42
220.467	1.22
220.686	0.68
220.904	0.57
221.122	0.69
221.341	1.18
221.559	0.61
221.777	0.29
221.995	0.82
222.214	0.98
222.432	0.47
222.65	0.89
222.868	0.68
223.086	0.82
223.305	0.69
223.523	0.58
223.741	1.17
223.959	0.7
224.177	0.43
224.395	0.52
224.613	0.76
224.831	1.04
225.049	0.42
225.267	0.59
225.485	0.7
225.703	0.54
225.921	0.57
226.139	0.48
226.357	0.91
226.575	0.85
226.793	0.53
227.011	1.69
227.229	0.8
227.447	0.9
227.665	0.47
227.883	0.28
228.1	0.49
228.318	0.76
228.536	0.21
228.754	0.46
228.972	0.8
229.189	0.8
229.407	0.49
229.625	0.48
229.843	0.92
230.06	0.78
230.278	0.4
230.496	0.59
230.713	0.61
230.931	0.8
231.149	0.58
231.366	0.31
231.584	0.58
231.801	1.05
232.019	0.57
232.236	0.45
232.454	0.43
232.671	0.68
232.889	0.48
233.106	0.33
233.324	0.69
233.541	0.51
233.759	0.52
233.976	0.42
234.194	0.51
234.411	0.6
234.628	0.42
234.846	0.44
235.063	0.54
235.28	0.57
235.498	0.41
235.715	0.34
235.932	0.82
236.149	0.71
236.367	0.4
236.584	0.56
236.801	0.52
237.018	0.67
237.236	0.52
237.453	0.32
237.67	0.72
237.887	0.47
238.104	0.43
238.321	0.32
238.538	0.35
238.755	0.75
238.973	0.28
239.19	0.48
239.407	0.63
239.624	0.59
239.841	0.28
240.058	0.44
240.275	0.57
240.492	0.41
240.709	0.41
240.925	0.38
241.142	0.47
241.359	0.34
241.576	0.3
241.793	0.36
242.01	0.45
242.227	0.71
242.444	0.45
242.66	0.59
242.877	0.58
243.094	0.43
243.311	0.43
243.527	0.34
243.744	0.54
243.961	0.49
244.178	0.3
244.394	0.41
244.611	0.62
244.828	0.67
245.044	0.36
245.261	0.47
245.477	0.48
245.694	0.57
245.911	0.36
246.127	0.45
246.344	0.61
246.56	0.51
246.777	0.38
246.993	0.37
247.21	0.58
247.426	0.58
247.643	0.37
247.859	0.31
248.076	0.35
248.292	0.67
248.508	0.35
248.725	0.48
248.941	0.58
249.157	0.69
249.374	0.27
249.59	0.4
249.806	0.38
250.023	0.44
250.239	0.31
250.455	0.31
250.671	0.41
250.888	0.47
251.104	0.43
251.32	0.33
251.536	0.4
251.752	0.51
251.969	0.32
252.185	0.26
252.401	0.6
252.617	0.5
252.833	0.38
253.049	0.39
253.265	0.4
253.481	0.45
253.697	0.29
253.913	0.35
254.129	0.48
254.345	0.42
254.561	0.35
254.777	0.34
254.993	0.53
255.209	0.44
255.425	0.37
255.641	0.3
255.857	0.47
256.073	0.45
256.288	0.25
256.504	0.26
256.72	0.43
256.936	0.59
257.152	0.27
257.367	0.31
257.583	0.35
257.799	0.47
258.015	0.36
258.23	0.27
258.446	0.58
258.662	0.4
258.877	0.29
259.093	0.31
259.309	0.41
259.524	0.41
259.74	0.27
259.955	0.28
260.171	0.32
260.387	0.37
260.602	0.44
260.818	0.46
261.033	0.27
261.249	0.46
261.464	0.4
261.68	0.18
261.895	0.42
262.11	0.45
262.326	0.28
262.541	0.24
262.757	0.46
262.972	0.46
263.187	0.38
263.403	0.42
263.618	0.5
263.833	0.39
264.049	0.28
264.264	0.27
264.479	0.35
264.694	0.48
264.91	0.26
265.125	0.33
265.34	0.49
265.555	0.58
265.77	0.33
265.986	0.3
266.201	0.44
266.416	0.51
266.631	0.29
266.846	0.25
267.061	0.47
267.276	0.47
267.491	0.2
267.706	0.41
267.921	0.35
268.136	0.41
268.351	0.31
268.566	0.22
268.781	0.45
268.996	0.37
269.211	0.36
269.426	0.23
269.641	0.37
269.856	0.48
270.071	0.19
270.285	0.19
270.5	0.41
270.715	0.47
270.93	0.35
271.145	0.41
271.359	0.44
271.574	0.31
271.789	0.24
272.004	0.33
272.218	0.29
272.433	0.38
272.648	0.23
272.862	0.38
273.077	0.37
273.292	0.39
273.506	0.2
273.721	0.29
273.936	0.44
274.15	0.36
274.365	0.27
274.579	0.35
274.794	0.38
275.008	0.43
275.223	0.21
275.437	0.34
275.652	0.4
275.866	0.42
276.081	0.29
276.295	0.41
276.509	0.28
276.724	0.33
276.938	0.35
277.153	0.34
277.367	0.37
277.581	0.29
277.796	0.28
278.01	0.27
278.224	0.39
278.438	0.45
278.653	0.19
278.867	0.25
279.081	0.44
279.295	0.38
279.51	0.35
279.724	0.22
279.938	0.41
280.152	0.34
280.366	0.25
280.58	0.32
280.794	0.44
281.008	0.39
281.222	0.35
281.437	0.49
281.651	0.3
281.865	0.43
282.079	0.23
282.293	0.14
282.507	0.23
282.721	0.25
282.935	0.28
283.148	0.17
283.362	0.3
283.576	0.24
283.79	0.21
284.004	0.26
284.218	0.38
284.432	0.23
284.646	0.28
284.859	0.26
285.073	0.32
285.287	0.38
285.501	0.27
285.714	0.25
285.928	0.28
286.142	0.36
286.356	0.23
286.569	0.26
286.783	0.4
286.997	0.35
287.21	0.27
287.424	0.3
287.637	0.27
287.851	0.25
288.065	0.3
288.278	0.23
288.492	0.33
288.705	0.25
288.919	0.33
289.132	0.21
289.346	0.3
289.559	0.21
289.773	0.22
289.986	0.23
290.2	0.27
290.413	0.41
290.626	0.24
290.84	0.29
291.053	0.28
291.267	0.37
291.48	0.29
291.693	0.26
291.906	0.28
292.12	0.27
292.333	0.25
292.546	0.23
292.76	0.36
292.973	0.26
293.186	0.34
293.399	0.22
293.612	0.32
293.826	0.3
294.039	0.2
294.252	0.28
294.465	0.38
294.678	0.33
294.891	0.29
295.104	0.2
295.317	0.26
295.53	0.25
295.743	0.22
295.956	0.26
296.169	0.43
296.382	0.35
296.595	0.25
296.808	0.23
297.021	0.35
297.234	0.32
297.447	0.25
297.66	0.3
297.873	0.35
298.086	0.33
298.299	0.23
298.511	0.15
298.724	0.3
298.937	0.19
299.15	0.21
299.363	0.23
299.575	0.34
299.788	0.27
300.001	0.22
300.213	0.27
300.426	0.25
300.639	0.23
300.852	0.19
301.064	0.33
301.277	0.34
301.489	0.31
301.702	0.3
301.915	0.26
302.127	0.29
302.34	0.32
302.552	0.33
302.765	0.22
302.977	0.32
303.19	0.27
303.402	0.26
303.615	0.24
303.827	0.21
304.04	0.3
304.252	0.3
304.464	0.24
304.677	0.39
304.889	0.36
305.102	0.24
305.314	0.19
305.526	0.31
305.739	0.31
305.951	0.2
306.163	0.26
306.375	0.33
306.588	0.2
306.8	0.28
307.012	0.2
307.224	0.26
307.436	0.32
307.649	0.19
307.861	0.25
308.073	0.27
308.285	0.21
308.497	0.21
308.709	0.21
308.921	0.28
309.133	0.33
309.346	0.24
309.558	0.22
309.77	0.31
309.982	0.34
310.194	0.3
310.406	0.23
310.617	0.35
310.829	0.26
311.041	0.29
311.253	0.17
311.465	0.24
311.677	0.25
311.889	0.26
312.101	0.23
312.313	0.32
312.524	0.37
312.736	0.18
312.948	0.21
313.16	0.36
313.372	0.29
313.583	0.28
313.795	0.19
314.007	0.24
314.218	0.36
314.43	0.22
314.642	0.21
314.853	0.19
315.065	0.28
315.277	0.22
315.488	0.24
315.7	0.34
315.912	0.28
316.123	0.24
316.335	0.21
316.546	0.38
316.758	0.24
316.969	0.21
317.181	0.27
317.392	0.27
317.604	0.33
317.815	0.19
318.026	0.23
318.238	0.23
318.449	0.29
318.661	0.12
318.872	0.2
319.083	0.19
319.295	0.28
319.506	0.25
319.717	0.27
319.929	0.33
320.14	0.25
320.351	0.24
320.562	0.21
320.774	0.31
320.985	0.27
321.196	0.2
321.407	0.18
321.618	0.31
321.829	0.3
322.041	0.27
322.252	0.24
322.463	0.29
322.674	0.32
322.885	0.19
323.096	0.24
323.307	0.25
323.518	0.27
323.729	0.23
323.94	0.24
324.151	0.26
324.362	0.29
324.573	0.29
324.784	0.2
324.995	0.32
325.206	0.27
325.417	0.27
325.628	0.18
325.838	0.26
326.049	0.3
326.26	0.3
326.471	0.16
326.682	0.28
326.892	0.28
327.103	0.19
327.314	0.21
327.525	0.36
327.735	0.31
327.946	0.26
328.157	0.21
328.368	0.3
328.578	0.24
328.789	0.29
328.999	0.24
329.21	0.24
329.421	0.31
329.631	0.26
329.842	0.19
330.052	0.26
330.263	0.29
330.473	0.3
330.684	0.2
330.894	0.29
331.105	0.27
331.315	0.25
331.526	0.16
331.736	0.34
331.947	0.3
332.157	0.27
332.367	0.15
332.578	0.28
332.788	0.35
332.999	0.27
333.209	0.25
333.419	0.22
333.629	0.25
333.84	0.29
334.05	0.27
334.26	0.33
334.47	0.26
334.681	0.32
334.891	0.23
335.101	0.26
335.311	0.33
335.521	0.2
335.732	0.18
335.942	0.34
336.152	0.26
336.362	0.27
336.572	0.24
336.782	0.32
336.992	0.22
337.202	0.24
337.412	0.2
337.622	0.31
337.832	0.28
338.042	0.27
338.252	0.2
338.462	0.25
338.672	0.25
338.882	0.24
339.092	0.25
339.302	0.33
339.511	0.31
339.721	0.22
339.931	0.19
340.141	0.33
340.351	0.36
340.561	0.24
340.77	0.28
340.98	0.29
341.19	0.26
341.4	0.28
341.609	0.15
341.819	0.25
342.029	0.18
342.238	0.29
342.448	0.22
342.658	0.3
342.867	0.21
343.077	0.25
343.286	0.25
343.496	0.25
343.706	0.31
343.915	0.23
344.125	0.25
344.334	0.3
344.544	0.2
344.753	0.2
344.963	0.2
345.172	0.18
345.381	0.24
345.591	0.2
345.8	0.26
346.01	0.33
346.219	0.29
346.428	0.16
346.638	0.23
346.847	0.26
347.056	0.3
347.266	0.22
347.475	0.25
347.684	0.27
347.893	0.3
348.103	0.3
348.312	0.18
348.521	0.28
348.73	0.31
348.94	0.26
349.149	0.2
349.358	0.2
349.567	0.2
349.776	0.14
349.985	0.17
350.194	0.31
350.403	0.34
350.612	0.2
350.821	0.2
351.03	0.27
351.239	0.19
351.448	0.26
351.657	0.19
351.866	0.33
352.075	0.26
352.284	0.28
352.493	0.14
352.702	0.35
352.911	0.3
353.12	0.24
353.329	0.21
353.538	0.31
353.746	0.25
353.955	0.19
354.164	0.26
354.373	0.21
354.582	0.29
354.79	0.24
354.999	0.3
355.208	0.21
355.416	0.37
355.625	0.17
355.834	0.21
356.042	0.27
356.251	0.22
356.46	0.17
356.668	0.22
356.877	0.37
357.085	0.3
357.294	0.11
357.503	0.28
357.711	0.27
357.92	0.44
358.128	0.27
358.337	0.18
358.545	0.34
358.754	0.24
358.962	0.28
359.17	0.21
359.379	0.25
359.587	0.29
359.796	0.23
360.004	0.29
360.212	0.29
360.421	0.35
360.629	0.25
360.837	0.24
361.046	0.31
361.254	0.4
361.462	0.25
361.67	0.19
361.879	0.29
362.087	0.3
362.295	0.27
362.503	0.2
362.711	0.21
362.92	0.21
363.128	0.25
363.336	0.24
363.544	0.19
363.752	0.23
363.96	0.23
364.168	0.19
364.376	0.27
364.584	0.29
364.792	0.35
365	0.25
365.208	0.24
365.416	0.34
365.624	0.29
365.832	0.21
366.04	0.3
366.248	0.26
366.456	0.24
366.664	0.26
366.872	0.25
367.079	0.27
367.287	0.23
367.495	0.21
367.703	0.26
367.911	0.22
368.118	0.24
368.326	0.22
368.534	0.16
368.742	0.33
368.949	0.19
369.157	0.19
369.365	0.3
369.572	0.25
369.78	0.19
369.988	0.26
370.195	0.25
370.403	0.33
370.61	0.2
370.818	0.23
371.026	0.38
371.233	0.22
371.441	0.26
371.648	0.23
371.856	0.3
372.063	0.26
372.271	0.22
372.478	0.22
372.685	0.21
372.893	0.31
373.1	0.25
373.308	0.26
373.515	0.4
373.722	0.34
373.93	0.21
374.137	0.29
374.344	0.37
374.552	0.32
374.759	0.28
374.966	0.25
375.173	0.25
375.381	0.34
375.588	0.24
375.795	0.18
376.002	0.24
376.209	0.21
376.417	0.23
376.624	0.24
376.831	0.33
377.038	0.27
377.245	0.14
377.452	0.21
377.659	0.27
377.866	0.24
378.073	0.24
378.28	0.24
378.487	0.31
378.694	0.36
378.901	0.24
379.108	0.24
379.315	0.31
379.522	0.41
379.729	0.27
379.936	0.24
380.143	0.28
380.35	0.32
380.557	0.28
380.763	0.26
380.97	0.25
381.177	0.31
381.384	0.3
381.591	0.28
381.797	0.33
382.004	0.34
382.211	0.29
382.418	0.23
382.624	0.31
382.831	0.33
383.038	0.27
383.244	0.3
383.451	0.27
383.658	0.35
383.864	0.22
384.071	0.22
384.277	0.34
384.484	0.27
384.69	0.3
384.897	0.26
385.103	0.31
385.31	0.26
385.516	0.26
385.723	0.22
385.929	0.23
386.136	0.25
386.342	0.31
386.549	0.26
386.755	0.35
386.961	0.32
387.168	0.28
387.374	0.25
387.58	0.32
387.787	0.3
387.993	0.27
388.199	0.27
388.406	0.22
388.612	0.29
388.818	0.24
389.024	0.24
389.231	0.3
389.437	0.41
389.643	0.33
389.849	0.3
390.055	0.3
390.261	0.29
390.467	0.33
390.674	0.24
390.88	0.28
391.086	0.31
391.292	0.2
391.498	0.31
391.704	0.34
391.91	0.3
392.116	0.3
392.322	0.19
392.528	0.35
392.734	0.3
392.94	0.3
393.146	0.34
393.352	0.34
393.557	0.3
393.763	0.32
393.969	0.34
394.175	0.28
394.381	0.29
394.587	0.21
394.792	0.29
394.998	0.39
395.204	0.34
395.41	0.29
395.615	0.29
395.821	0.35
396.027	0.31
396.233	0.31
396.438	0.33
396.644	0.41
396.85	0.28
397.055	0.29
397.261	0.37
397.466	0.46
397.672	0.35
397.878	0.4
398.083	0.32
398.289	0.29
398.494	0.37
398.7	0.4
398.905	0.26
399.111	0.43
399.316	0.29
399.522	0.36
399.727	0.34
399.932	0.41
400.138	0.26
400.343	0.38
400.549	0.35
400.754	0.39
400.959	0.42
401.165	0.34
401.37	0.37
401.575	0.46
401.78	0.4
401.986	0.39
402.191	0.36
402.396	0.35
402.601	0.46
402.807	0.44
403.012	0.37
403.217	0.45
403.422	0.39
403.627	0.41
403.832	0.36
404.037	0.5
404.243	0.42
404.448	0.38
404.653	0.36
404.858	0.49
405.063	0.41
405.268	0.39
405.473	0.41
405.678	0.39
405.883	0.65
406.088	0.51
406.293	0.39
406.498	0.46
406.703	0.53
406.907	0.49
407.112	0.43
407.317	0.52
407.522	0.59
407.727	0.47
407.932	0.52
408.136	0.64
408.341	0.54
408.546	0.59
408.751	0.52
408.956	0.57
409.16	0.63
409.365	0.63
409.57	0.59
409.774	0.61
409.979	0.62
410.184	0.67
410.388	0.6
410.593	0.79
410.798	0.73
411.002	0.66
411.207	0.78
411.411	0.84
411.616	0.73
411.82	0.8
412.025	0.81
412.229	0.81
412.434	0.93
412.638	0.87
412.843	0.88
413.047	0.91
413.252	0.89
413.456	0.96
413.66	1.03
413.865	0.98
414.069	1.14
414.273	1.07
414.478	1.07
414.682	1.16
414.886	1.16
415.091	1.11
415.295	1.17
415.499	1.36
415.703	1.25
415.908	1.42
416.112	1.3
416.316	1.51
416.52	1.52
416.724	1.44
416.929	1.54
417.133	1.74
417.337	1.63
417.541	1.65
417.745	1.74
417.949	1.82
418.153	1.91
418.357	1.89
418.561	2.15
418.765	2.1
418.969	2.25
419.173	2.26
419.377	2.27
419.581	2.57
419.785	2.48
419.989	2.44
420.193	2.62
420.397	2.71
420.601	2.84
420.804	2.97
421.008	2.91
421.212	3.14
421.416	3.06
421.62	3.05
421.823	3.09
422.027	3.29
422.231	3.28
422.435	3.29
422.638	3.33
422.842	3.42
423.046	3.48
423.249	3.68
423.453	3.68
423.657	3.85
423.86	3.96
424.064	4.04
424.268	4.25
424.471	4.17
424.675	4.45
424.878	4.49
425.082	4.5
425.285	4.92
425.489	4.83
425.692	4.91
425.896	4.87
426.099	5.09
426.303	5.23
426.506	5.32
426.71	5.54
426.913	5.81
427.116	5.85
427.32	5.88
427.523	6
427.726	6.31
427.93	6.44
428.133	6.69
428.336	6.94
428.54	7.14
428.743	7.27
428.946	7.58
429.149	7.44
429.353	7.49
429.556	7.55
429.759	7.69
429.962	7.73
430.165	7.98
430.368	7.47
430.571	7.7
430.775	7.7
430.978	7.72
431.181	7.8
431.384	7.89
431.587	7.91
431.79	8.25
431.993	8.37
432.196	8.49
432.399	8.93
432.602	9.07
432.805	9.05
433.008	9.64
433.211	9.58
433.414	9.9
433.616	10.03
433.819	9.84
434.022	10.02
434.225	10.28
434.428	10.24
434.631	10.75
434.833	10.51
435.036	10.73
435.239	10.91
435.442	10.92
435.645	11.16
435.847	11.17
436.05	11.45
436.253	11.78
436.455	11.83
436.658	11.71
436.861	11.85
437.063	12.05
437.266	12.03
437.468	12.45
437.671	12.71
437.874	12.72
438.076	12.57
438.279	12.87
438.481	13.08
438.684	13.73
438.886	13.48
439.089	13.58
439.291	13.78
439.494	14.07
439.696	14.26
439.899	14.75
440.101	15.14
440.303	15.25
440.506	16.12
440.708	15.73
440.91	15.92
441.113	16.23
441.315	16.42
441.517	16.19
441.72	16.82
441.922	16.28
442.124	16.17
442.326	16.65
442.529	16.85
442.731	16.79
442.933	17.19
443.135	17.03
443.337	17.14
443.539	17.51
443.742	17.08
443.944	17.83
444.146	17.57
444.348	17.58
444.55	17.36
444.752	17.73
444.954	17.78
445.156	17.54
445.358	17.99
445.56	18.21
445.762	18.07
445.964	18.54
446.166	18.15
446.368	18.4
446.57	18.25
446.772	17.75
446.974	17.64
447.175	17.98
447.377	17.67
447.579	18.04
447.781	17.73
447.983	17.59
448.184	17.21
448.386	17.42
448.588	17.05
448.79	17.04
448.991	17.4
449.193	17.32
449.395	16.65
449.597	16.44
449.798	16.27
450	15.98
450.202	15.85
450.403	15.86
450.605	15.69
450.806	15.57
451.008	15.38
451.21	15.05
451.411	14.79
451.613	13.9
451.814	14.26
452.016	14.23
452.217	13.5
452.419	13.49
452.62	13.19
452.821	12.9
453.023	12.9
453.224	12.56
453.426	12.05
453.627	11.32
453.828	11.36
454.03	11.66
454.231	11.43
454.432	11.3
454.634	11.1
454.835	10.85
455.036	10.78
455.238	10.35
455.439	10.12
455.64	9.74
455.841	9.69
456.042	9.9
456.244	9.47
456.445	9.17
456.646	8.95
456.847	8.82
457.048	8.67
457.249	8.77
457.45	8.63
457.651	7.96
457.852	7.88
458.054	7.5
458.255	7.46
458.456	7.56
458.657	7.46
458.858	7.05
459.058	6.9
459.259	6.98
459.46	6.71
459.661	6.63
459.862	6.69
460.063	6.53
460.264	6.43
460.465	6.21
460.666	6.17
460.866	5.96
461.067	5.72
461.268	5.67
461.469	5.6
461.67	5.55
461.87	5.34
462.071	5.37
462.272	5.33
462.473	5.28
462.673	5.41
462.874	5.31
463.075	5.3
463.275	5.33
463.476	5.29
463.676	5.22
463.877	5.09
464.078	5.11
464.278	5.12
464.479	5.07
464.679	4.95
464.88	4.77
465.08	4.77
465.281	4.65
465.481	4.46
465.682	4.2
465.882	4.35
466.083	4.21
466.283	4.12
466.483	3.99
466.684	3.84
466.884	3.73
467.085	3.83
467.285	3.86
467.485	3.68
467.686	3.73
467.886	3.51
468.086	3.47
468.286	3.44
468.487	3.52
468.687	3.37
468.887	3.4
469.087	3.52
469.287	3.35
469.488	3.14
469.688	3.35
469.888	3.34
470.088	3.25
470.288	3.18
470.488	3.21
470.688	2.96
470.888	2.93
471.088	2.81
471.288	2.87
471.488	2.88
471.688	2.89
471.888	2.77
472.088	2.95
472.288	2.83
472.488	2.67
472.688	2.64
472.888	2.69
473.088	2.71
473.288	2.57
473.488	2.54
473.688	2.74
473.887	2.53
474.087	2.47
474.287	2.56
474.487	2.48
474.687	2.46
474.886	2.43
475.086	2.38
475.286	2.4
475.486	2.36
475.685	2.32
475.885	2.26
476.085	2.37
476.284	2.31
476.484	2.33
476.684	2.35
476.883	2.41
477.083	2.27
477.282	2.2
477.482	2.26
477.681	2.21
477.881	2.18
478.08	2.17
478.28	2.12
478.479	2.11
478.679	2.2
478.878	2.14
479.078	2.09
479.277	2.14
479.477	2.1
479.676	2.08
479.875	2.06
480.075	2.02
480.274	2.07
480.473	2.11
480.673	2.04
480.872	2.17
481.071	2.09
481.271	2.14
481.47	2.04
481.669	2.02
481.868	2.01
482.067	2.04
482.267	1.96
482.466	1.99
482.665	1.99
482.864	2.01
483.063	1.98
483.262	2.07
483.461	2.11
483.661	2.12
483.86	2.05
484.059	2.12
484.258	2.1
484.457	2.02
484.656	2.05
484.855	2.17
485.054	1.98
485.253	2.02
485.452	2
485.651	2.13
485.849	2.04
486.048	2.03
486.247	2.08
486.446	2.14
486.645	2.02
486.844	2.14
487.043	2.1
487.241	2.09
487.44	2.12
487.639	2.18
487.838	2.14
488.037	2.17
488.235	2.27
488.434	2.19
488.633	2.09
488.831	2.24
489.03	2.27
489.229	2.24
489.427	2.25
489.626	2.31
489.825	2.31
490.023	2.3
490.222	2.27
490.42	2.36
490.619	2.39
490.817	2.38
491.016	2.36
491.214	2.46
491.413	2.44
491.611	2.39
491.81	2.39
492.008	2.47
492.207	2.56
492.405	2.55
492.604	2.48
492.802	2.58
493	2.59
493.199	2.63
493.397	2.63
493.595	2.73
493.794	2.65
493.992	2.76
494.19	2.73
494.388	2.84
494.587	2.76
494.785	2.76
494.983	2.73
495.181	2.9
495.379	2.93
495.578	2.93
495.776	2.92
495.974	2.94
496.172	2.96
496.37	3.07
496.568	3.13
496.766	3.06
496.964	3.17
497.162	3.15
497.36	3.19
497.558	3.26
497.756	3.29
497.954	3.27
498.152	3.33
498.35	3.41
498.548	3.36
498.746	3.34
498.944	3.37
499.142	3.41
499.34	3.53
499.538	3.59
499.736	3.47
499.933	3.67
500.131	3.57
500.329	3.76
500.527	3.77
500.725	3.86
500.922	3.83
501.12	3.81
501.318	3.92
501.516	3.87
501.713	3.99
501.911	3.96
502.109	3.9
502.306	4.05
502.504	3.99
502.701	4.06
502.899	4.13
503.097	4.3
503.294	4.17
503.492	4.33
503.689	4.34
503.887	4.38
504.084	4.45
504.282	4.37
504.479	4.38
504.677	4.57
504.874	4.47
505.072	4.38
505.269	4.64
505.466	4.62
505.664	4.68
505.861	4.6
506.059	4.72
506.256	4.73
506.453	4.74
506.651	4.92
506.848	5.01
507.045	4.94
507.242	4.93
507.44	4.97
507.637	5.04
507.834	5.03
508.031	5.18
508.229	5.1
508.426	5.04
508.623	5.24
508.82	5.29
509.017	5.15
509.214	5.2
509.411	5.34
509.608	5.3
509.805	5.45
510.003	5.39
510.2	5.51
510.397	5.65
510.594	5.48
510.791	5.58
510.988	5.58
511.184	5.6
511.381	5.47
511.578	5.62
511.775	5.74
511.972	5.71
512.169	5.74
512.366	5.75
512.563	5.87
512.76	5.87
512.956	5.96
513.153	5.88
513.35	5.86
513.547	5.83
513.744	6.01
513.94	5.96
514.137	6.08
514.334	6.08
514.53	6.1
514.727	6.3
514.924	6.2
515.12	6.2
515.317	6.22
515.514	6.18
515.71	6.13
515.907	6.35
516.103	6.34
516.3	6.25
516.497	6.45
516.693	6.4
516.89	6.41
517.086	6.43
517.283	6.5
517.479	6.29
517.676	6.54
517.872	6.58
518.068	6.61
518.265	6.56
518.461	6.56
518.658	6.62
518.854	6.59
519.05	6.71
519.247	6.67
519.443	6.72
519.639	6.86
519.836	6.71
520.032	6.69
520.228	6.8
520.424	6.83
520.621	6.81
520.817	6.9
521.013	6.84
521.209	7
521.405	6.97
521.601	6.96
521.798	6.93
521.994	6.95
522.19	6.95
522.386	6.93
522.582	7.01
522.778	7.22
522.974	7.01
523.17	7.08
523.366	7
523.562	7.11
523.758	7.13
523.954	6.99
524.15	7.11
524.346	7.2
524.542	7.19
524.738	7.16
524.934	7.36
525.129	7.26
525.325	7.23
525.521	7.16
525.717	7.4
525.913	7.23
526.109	7.28
526.304	7.39
526.5	7.37
526.696	7.4
526.892	7.39
527.087	7.52
527.283	7.48
527.479	7.45
527.674	7.26
527.87	7.45
528.066	7.42
528.261	7.49
528.457	7.35
528.653	7.49
528.848	7.49
529.044	7.62
529.239	7.45
529.435	7.44
529.63	7.33
529.826	7.5
530.021	7.5
530.217	7.54
530.412	7.51
530.608	7.52
530.803	7.58
530.999	7.49
531.194	7.54
531.389	7.61
531.585	7.63
531.78	7.73
531.975	7.58
532.171	7.78
532.366	7.67
532.561	7.7
532.757	7.61
532.952	7.83
533.147	7.5
533.342	7.75
533.538	7.65
533.733	7.87
533.928	7.57
534.123	7.62
534.318	7.77
534.513	7.69
534.709	7.85
534.904	7.8
535.099	7.87
535.294	7.86
535.489	7.84
535.684	7.7
535.879	7.77
536.074	7.87
536.269	7.81
536.464	7.89
536.659	7.81
536.854	7.84
537.049	7.89
537.244	7.82
537.439	7.84
537.634	7.83
537.828	7.93
538.023	7.86
538.218	7.85
538.413	7.74
538.608	7.83
538.803	7.83
538.997	7.79
539.192	7.94
539.387	7.85
539.582	7.86
539.776	7.8
539.971	7.97
540.166	7.95
540.36	7.83
540.555	8
540.75	7.93
540.944	7.99
541.139	8
541.334	7.96
541.528	7.96
541.723	8.08
541.917	8.07
542.112	7.9
542.306	7.82
542.501	7.89
542.695	7.89
542.89	7.88
543.084	7.95
543.279	7.98
543.473	7.93
543.668	8.03
543.862	7.86
544.056	7.9
544.251	7.96
544.445	8.07
544.64	8.01
544.834	7.8
545.028	7.62
545.222	7.96
545.417	8.17
545.611	8.06
545.805	7.98
546	7.86
546.194	8
546.388	8.07
546.582	7.94
546.776	7.97
546.97	8.01
547.165	7.98
547.359	8
547.553	7.98
547.747	7.97
547.941	8.24
548.135	8
548.329	8.07
548.523	8.06
548.717	7.92
548.911	7.94
549.105	7.92
549.299	8.06
549.493	8.03
549.687	7.92
549.881	8.06
550.075	8.02
550.269	7.89
550.463	8.1
550.657	8.1
550.85	7.99
551.044	7.98
551.238	8.05
551.432	8.03
551.626	8.13
551.82	8.12
552.013	7.94
552.207	8.14
552.401	8.11
552.594	8.01
552.788	7.93
552.982	8.05
553.176	7.89
553.369	8.15
553.563	8.1
553.756	8
553.95	8.09
554.144	8.16
554.337	8.17
554.531	7.9
554.724	8.1
554.918	8.14
555.111	8.08
555.305	8.12
555.498	7.98
555.692	8.21
555.885	8.11
556.079	8.02
556.272	8.06
556.466	8.05
556.659	8.04
556.852	8.08
557.046	8.01
557.239	7.91
557.432	7.94
557.626	8.12
557.819	8.16
558.012	8.07
558.206	8.11
558.399	8.01
558.592	8.02
558.785	8.03
558.979	8.03
559.172	8.05
559.365	8.04
559.558	8.07
559.751	7.99
559.944	8.12
560.138	8.01
560.331	8.08
560.524	8.06
560.717	8.04
560.91	8.12
561.103	8.06
561.296	7.92
561.489	8.1
561.682	8.09
561.875	8.15
562.068	8.16
562.261	7.93
562.454	8.16
562.647	8.06
562.84	8.11
563.032	8.13
563.225	7.97
563.418	7.99
563.611	8.04
563.804	8.06
563.997	7.92
564.19	7.79
564.382	8.14
564.575	8.06
564.768	8.01
564.961	8.08
565.153	7.96
565.346	7.93
565.539	8.12
565.731	8.12
565.924	8.04
566.117	8.22
566.309	8.02
566.502	7.98
566.695	7.99
566.887	8.07
567.08	8.02
567.272	8.05
567.465	7.92
567.657	8.15
567.85	7.94
568.042	8.03
568.235	8.02
568.427	7.92
568.62	8.03
568.812	7.96
569.005	8.1
569.197	7.93
569.389	7.95
569.582	8.01
569.774	7.99
569.966	7.94
570.159	7.85
570.351	7.96
570.543	7.96
570.736	7.92
570.928	7.79
571.12	8
571.312	7.86
571.505	7.69
571.697	8.03
571.889	7.99
572.081	7.91
572.273	7.84
572.465	8.01
572.658	7.99
572.85	7.94
573.042	7.92
573.234	7.84
573.426	7.86
573.618	7.88
573.81	7.94
574.002	7.87
574.194	7.95
574.386	7.77
574.578	7.71
574.77	7.89
574.962	7.93
575.154	7.75
575.346	7.8
575.538	7.8
575.729	7.75
575.921	7.84
576.113	7.9
576.305	7.85
576.497	7.91
576.689	7.72
576.88	7.76
577.072	7.92
577.264	7.86
577.456	7.81
577.647	7.81
577.839	7.95
578.031	7.75
578.223	7.77
578.414	7.64
578.606	7.76
578.798	7.84
578.989	7.74
579.181	7.78
579.372	7.8
579.564	7.79
579.755	7.72
579.947	7.68
580.139	7.82
580.33	7.57
580.522	7.75
580.713	7.61
580.905	7.69
581.096	7.79
581.287	7.62
581.479	7.71
581.67	7.74
581.862	7.61
582.053	7.63
582.244	7.5
582.436	7.72
582.627	7.6
582.818	7.54
583.01	7.59
583.201	7.59
583.392	7.62
583.583	7.52
583.775	7.45
583.966	7.49
584.157	7.56
584.348	7.65
584.54	7.54
584.731	7.52
584.922	7.51
585.113	7.39
585.304	7.51
585.495	7.57
585.686	7.59
585.877	7.62
586.068	7.6
586.259	7.49
586.45	7.49
586.641	7.44
586.832	7.53
587.023	7.41
587.214	7.38
587.405	7.47
587.596	7.36
587.787	7.37
587.978	7.47
588.169	7.35
588.36	7.27
588.551	7.37
588.742	7.33
588.932	7.46
589.123	7.14
589.314	7.41
589.505	7.32
589.696	7.31
589.886	7.26
590.077	7.31
590.268	7.22
590.458	7.21
590.649	7.06
590.84	7.27
591.03	7.26
591.221	7.16
591.412	7.06
591.602	7.35
591.793	7.2
591.984	7.22
592.174	7.11
592.365	7.34
592.555	7.02
592.746	7.04
592.936	7.08
593.127	7.11
593.317	7.12
593.508	7.09
593.698	7.03
593.889	7.06
594.079	7.05
594.269	6.93
594.46	6.97
594.65	7.02
594.84	6.96
595.031	6.93
595.221	6.95
595.411	6.93
595.602	6.95
595.792	6.9
595.982	6.85
596.172	7
596.363	6.84
596.553	6.85
596.743	6.85
596.933	6.87
597.123	6.81
597.314	6.68
597.504	6.7
597.694	6.87
597.884	6.75
598.074	6.79
598.264	6.71
598.454	6.77
598.644	6.73
598.834	6.68
599.024	6.65
599.214	6.61
599.404	6.7
599.594	6.69
599.784	6.56
599.974	6.65
600.164	6.65
600.354	6.52
600.544	6.49
600.734	6.62
600.924	6.55
601.114	6.5
601.303	6.45
601.493	6.53
601.683	6.54
601.873	6.51
602.063	6.37
602.252	6.48
602.442	6.37
602.632	6.42
602.821	6.36
603.011	6.4
603.201	6.36
603.39	6.32
603.58	6.18
603.77	6.34
603.959	6.41
604.149	6.29
604.339	6.25
604.528	6.38
604.718	6.32
604.907	6.26
605.097	6.16
605.286	6.12
605.476	6.25
605.665	6.26
605.855	6.11
606.044	6.22
606.234	6.18
606.423	6.11
606.612	6.13
606.802	6.08
606.991	6.19
607.181	6.17
607.37	6.13
607.559	5.83
607.749	6.1
607.938	5.96
608.127	6.02
608.316	5.95
608.506	6.03
608.695	6.01
608.884	5.89
609.073	5.95
609.263	6.02
609.452	5.97
609.641	5.83
609.83	5.73
610.019	5.85
610.208	5.83
610.397	5.72
610.586	5.84
610.775	5.72
610.965	5.75
611.154	5.67
611.343	5.76
611.532	5.68
611.721	5.73
611.91	5.64
612.099	5.67
612.287	5.6
612.476	5.5
612.665	5.71
612.854	5.5
613.043	5.57
613.232	5.61
613.421	5.49
613.61	5.53
613.798	5.48
613.987	5.56
614.176	5.43
614.365	5.51
614.554	5.45
614.742	5.52
614.931	5.3
615.12	5.51
615.309	5.44
615.497	5.35
615.686	5.26
615.875	5.32
616.063	5.35
616.252	5.3
616.44	5.29
616.629	5.25
616.818	5.28
617.006	5.2
617.195	5.15
617.383	5.19
617.572	5.12
617.76	5.13
617.949	5.13
618.137	5.25
618.326	5.18
618.514	4.94
618.703	4.96
618.891	5.13
619.079	5
619.268	5.07
619.456	4.94
619.644	5.1
619.833	4.98
620.021	4.95
620.209	4.84
620.398	4.94
620.586	4.87
620.774	4.9
620.962	4.99
621.151	5.02
621.339	4.8
621.527	4.82
621.715	4.76
621.903	4.86
622.092	4.73
622.28	4.85
622.468	4.65
622.656	4.78
622.844	4.7
623.032	4.75
623.22	4.65
623.408	4.82
623.596	4.67
623.784	4.69
623.972	4.63
624.16	4.62
624.348	4.69
624.536	4.66
624.724	4.55
624.912	4.62
625.1	4.54
625.288	4.55
625.476	4.46
625.664	4.59
625.851	4.48
626.039	4.52
626.227	4.44
626.415	4.39
626.603	4.38
626.79	4.42
626.978	4.42
627.166	4.47
627.354	4.34
627.541	4.35
627.729	4.19
627.917	4.47
628.104	4.37
628.292	4.25
628.48	4.35
628.667	4.28
628.855	4.32
629.042	4.32
629.23	4.2
629.418	4.24
629.605	4.24
629.793	4.11
629.98	4.18
630.168	4.16
630.355	4.16
630.543	4.13
630.73	3.98
630.917	4.08
631.105	4.16
631.292	4.09
631.48	4.04
631.667	4.2
631.854	3.96
632.042	3.99
632.229	3.94
632.416	4.04
632.604	3.98
632.791	3.82
632.978	3.97
633.165	3.88
633.353	3.96
633.54	3.98
633.727	3.77
633.914	3.85
634.101	3.76
634.289	3.95
634.476	3.75
634.663	3.75
634.85	3.76
635.037	3.7
635.224	3.63
635.411	3.86
635.598	3.69
635.785	3.67
635.972	3.66
636.159	3.73
636.346	3.67
636.533	3.59
636.72	3.58
636.907	3.58
637.094	3.6
637.281	3.46
637.468	3.59
637.655	3.51
637.842	3.58
638.029	3.58
638.215	3.57
638.402	3.49
638.589	3.41
638.776	3.4
638.963	3.36
639.149	3.53
639.336	3.53
639.523	3.4
639.709	3.39
639.896	3.4
640.083	3.37
640.27	3.42
640.456	3.25
640.643	3.34
640.829	3.25
641.016	3.24
641.203	3.23
641.389	3.31
641.576	3.3
641.762	3.22
641.949	3.13
642.135	3.25
642.322	3.15
642.508	3.1
642.695	3.21
642.881	3.11
643.068	3.1
643.254	3.1
643.441	3.14
643.627	3.19
643.813	3.02
644	3.11
644.186	3
644.372	3.06
644.559	3.08
644.745	2.99
644.931	2.93
645.118	3.03
645.304	2.98
645.49	3
645.676	2.91
645.862	2.93
646.049	2.97
646.235	2.9
646.421	3.04
646.607	2.99
646.793	2.86
646.979	2.8
647.165	2.92
647.352	2.86
647.538	2.92
647.724	2.83
647.91	2.75
648.096	2.88
648.282	2.8
648.468	2.76
648.654	2.83
648.84	2.81
649.026	2.73
649.212	2.68
649.397	2.64
649.583	2.7
649.769	2.72
649.955	2.68
650.141	2.75
650.327	2.73
650.513	2.62
650.698	2.59
650.884	2.51
651.07	2.65
651.256	2.61
651.442	2.61
651.627	2.51
651.813	2.6
651.999	2.54
652.184	2.53
652.37	2.53
652.556	2.49
652.741	2.62
652.927	2.4
653.113	2.47
653.298	2.47
653.484	2.46
653.669	2.43
653.855	2.47
654.04	2.54
654.226	2.43
654.412	2.4
654.597	2.32
654.782	2.46
654.968	2.44
655.153	2.37
655.339	2.35
655.524	2.31
655.71	2.39
655.895	2.35
656.08	2.28
656.266	2.42
656.451	2.32
656.636	2.29
656.822	2.27
657.007	2.25
657.192	2.26
657.378	2.27
657.563	2.23
657.748	2.21
657.933	2.2
658.118	2.14
658.304	2.18
658.489	2.26
658.674	2.21
658.859	2.11
659.044	2.11
659.229	2.17
659.414	2.12
659.599	2.13
659.785	2.03
659.97	2.13
660.155	2.15
660.34	2.16
660.525	2.07
660.71	2.03
660.895	2.09
661.08	1.98
661.264	2.05
661.449	2.15
661.634	2.06
661.819	2.09
662.004	2.02
662.189	1.92
662.374	2.02
662.559	1.92
662.743	1.92
662.928	1.99
663.113	1.93
663.298	1.91
663.483	1.9
663.667	1.94
663.852	1.87
664.037	1.96
664.221	1.88
664.406	1.94
664.591	1.92
664.775	1.91
664.96	1.8
665.145	1.79
665.329	1.95
665.514	1.81
665.698	1.78
665.883	1.72
666.068	1.91
666.252	1.81
666.437	1.77
666.621	1.78
666.806	1.83
666.99	1.79
667.174	1.73
667.359	1.83
667.543	1.75
667.728	1.76
667.912	1.64
668.096	1.77
668.281	1.69
668.465	1.77
668.649	1.68
668.834	1.69
669.018	1.71
669.202	1.68
669.387	1.64
669.571	1.75
669.755	1.63
669.939	1.65
670.124	1.69
670.308	1.71
670.492	1.7
670.676	1.67
670.86	1.63
671.044	1.6
671.228	1.66
671.413	1.56
671.597	1.54
671.781	1.57
671.965	1.63
672.149	1.6
672.333	1.56
672.517	1.53
672.701	1.59
672.885	1.51
673.069	1.43
673.253	1.6
673.437	1.55
673.621	1.5
673.804	1.51
673.988	1.55
674.172	1.49
674.356	1.4
674.54	1.51
674.724	1.65
674.908	1.48
675.091	1.52
675.275	1.44
675.459	1.52
675.643	1.43
675.826	1.46
676.01	1.42
676.194	1.45
676.377	1.47
676.561	1.52
676.745	1.41
676.928	1.48
677.112	1.5
677.296	1.36
677.479	1.35
677.663	1.35
677.846	1.45
678.03	1.41
678.213	1.36
678.397	1.35
678.58	1.34
678.764	1.37
678.947	1.32
679.131	1.4
679.314	1.4
679.498	1.35
679.681	1.41
679.865	1.41
680.048	1.26
680.231	1.29
680.415	1.3
680.598	1.27
680.781	1.27
680.965	1.29
681.148	1.28
681.331	1.28
681.514	1.27
681.698	1.27
681.881	1.26
682.064	1.28
682.247	1.23
682.43	1.13
682.614	1.23
682.797	1.29
682.98	1.22
683.163	1.17
683.346	1.18
683.529	1.22
683.712	1.16
683.895	1.22
684.078	1.12
684.261	1.17
684.444	1.23
684.627	1.21
684.81	1.15
684.993	1.1
685.176	1.22
685.359	1.12
685.542	1.22
685.725	1.22
685.908	1.14
686.091	1.13
686.274	1.16
686.457	1.17
686.639	1.1
686.822	1.17
687.005	1.12
687.188	1.19
687.371	1.23
687.553	1.21
687.736	1.12
687.919	1.25
688.102	1.17
688.284	1.05
688.467	1.07
688.65	1.03
688.832	1.06
689.015	1.01
689.197	0.95
689.38	1.18
689.563	1.12
689.745	0.99
689.928	0.99
690.11	1.02
690.293	1.13
690.475	0.95
690.658	1.09
690.84	1
691.023	1.01
691.205	0.94
691.388	0.99
691.57	1.06
691.752	1.02
691.935	0.93
692.117	0.98
692.3	1.01
692.482	0.96
692.664	0.92
692.847	0.96
693.029	1.08
693.211	1.07
693.393	0.88
693.576	0.94
693.758	0.96
693.94	0.89
694.122	0.95
694.304	0.94
694.487	0.86
694.669	0.95
694.851	0.84
695.033	0.93
695.215	0.94
695.397	0.85
695.579	0.97
695.761	0.8
695.943	0.86
696.125	1.05
696.308	0.94
696.49	0.78
696.671	1.01
696.853	0.94
697.035	1.15
697.217	0.88
697.399	0.98
697.581	0.82
697.763	0.83
697.945	0.83
698.127	0.92
698.309	0.96
698.491	0.88
698.672	0.9
698.854	0.89
699.036	0.92
699.218	0.85
699.399	0.9
699.581	0.91
699.763	0.84
699.945	0.81
700.126	0.81
700.308	0.81
700.49	0.8
700.671	0.69
700.853	0.71
701.035	0.76
701.216	0.82
701.398	0.77
701.579	0.79
701.761	0.85
701.943	0.74
702.124	0.75
702.306	0.8
702.487	0.93
702.669	0.79
702.85	0.72
703.031	0.67
703.213	0.94
703.394	0.83
703.576	0.77
703.757	0.91
703.938	0.8
704.12	0.97
704.301	0.76
704.483	0.72
704.664	0.78
704.845	0.94
705.026	0.79
705.208	0.7
705.389	0.75
705.57	0.82
705.751	0.77
705.933	0.74
706.114	0.8
706.295	0.77
706.476	0.62
706.657	0.85
706.838	0.75
707.02	0.81
707.201	0.63
707.382	0.74
707.563	0.76
707.744	0.69
707.925	0.63
708.106	0.61
708.287	0.74
708.468	0.83
708.649	0.68
708.83	0.74
709.011	0.63
709.192	0.8
709.373	0.59
709.554	0.6
709.734	0.9
709.915	0.82
710.096	0.58
710.277	0.56
710.458	0.69
710.639	0.76
710.819	0.55
711	0.62
711.181	0.8
711.362	0.78
711.542	0.76
711.723	0.7
711.904	0.79
712.085	0.71
712.265	0.6
712.446	0.64
712.627	0.68
712.807	0.63
712.988	0.68
713.168	0.51
713.349	0.78
713.53	0.5
713.71	0.52
713.891	0.61
714.071	0.63
714.252	0.55
714.432	0.57
714.613	0.46
714.793	0.7
714.974	0.71
715.154	0.71
715.334	0.64
715.515	0.72
715.695	0.54
715.876	0.58
716.056	0.57
716.236	0.54
716.417	0.59
716.597	0.57
716.777	0.84
716.957	0.64
717.138	0.64
717.318	0.59
717.498	0.53
717.678	0.65
717.859	0.6
718.039	0.47
718.219	0.57
718.399	0.6
718.579	0.54
718.759	0.46
718.939	0.53
719.12	0.57
719.3	0.65
719.48	0.41
719.66	0.48
719.84	0.71
720.02	0.52
720.2	0.45
720.38	0.47
720.56	0.75
720.74	0.49
720.92	0.54
721.1	0.73
721.279	0.65
721.459	0.57
721.639	0.4
721.819	0.63
721.999	0.55
722.179	0.63
722.359	0.42
722.538	0.57
722.718	0.61
722.898	0.5
723.078	0.5
723.257	0.5
723.437	0.61
723.617	0.54
723.797	0.51
723.976	0.57
724.156	0.58
724.336	0.7
724.515	0.71
724.695	0.36
724.874	0.55
725.054	0.69
725.234	0.41
725.413	0.52
725.593	0.56
725.772	0.61
725.952	0.45
726.131	0.51
726.311	0.54
726.49	0.48
726.67	0.41
726.849	0.43
727.028	0.54
727.208	0.49
727.387	0.5
727.567	0.36
727.746	0.4
727.925	0.52
728.105	0.38
728.284	0.52
728.463	0.48
728.643	0.58
728.822	0.42
729.001	0.48
729.18	0.59
729.359	0.68
729.539	0.53
729.718	0.5
729.897	0.6
730.076	0.48
730.255	0.44
730.434	0.47
730.614	0.62
730.793	0.64
730.972	0.49
731.151	0.41
731.33	0.66
731.509	0.49
731.688	0.57
731.867	0.51
732.046	0.31
732.225	0.72
732.404	0.4
732.583	0.33
732.762	0.46
732.941	0.63
733.12	0.49
733.298	0.39
733.477	0.67
733.656	0.42
733.835	0.41
734.014	0.48
734.193	0.52
734.371	0.49
734.55	0.51
734.729	0.42
734.908	0.53
735.086	0.52
735.265	0.54
735.444	0.34
735.623	0.24
735.801	0.45
735.98	0.43
736.159	0.5
736.337	0.55
736.516	0.5
736.694	0.46
736.873	0.38
737.052	0.77
737.23	0.74
737.409	0.43
737.587	0.68
737.766	0.47
737.944	0.57
738.123	0.51
738.301	0.49
738.479	0.5
738.658	0.5
738.836	0.28
739.015	0.36
739.193	0.67
739.371	0.35
739.55	0.48
739.728	0.34
739.906	0.68
740.085	0.73
740.263	0.55
740.441	0.24
740.62	0.75
740.798	0.64
740.976	0.39
741.154	0.37
741.332	0.62
741.511	0.52
741.689	0.46
741.867	0.49
742.045	0.48
742.223	0.46
742.401	0.27
742.579	0.31
742.757	0.66
742.935	0.23
743.114	0.36
743.292	0.41
743.47	0.48
743.648	0.5
743.826	0.27
744.004	0.53
744.181	0.55
744.359	0.4
744.537	0.52
744.715	0.41
744.893	0.43
745.071	0.51
745.249	0.46
745.427	0.4
745.605	0.55
745.782	0.42
745.96	0.38
746.138	0.54
746.316	0.6
746.493	0.48
746.671	0.46
746.849	0.39
747.027	0.71
747.204	0.29
747.382	0.43
747.56	0.25
747.737	0.46
747.915	0.34
748.093	0.5
748.27	0.3
748.448	0.44
748.625	0.18
748.803	0.28
748.98	0.37
749.158	0.5
749.335	0.48
749.513	0.3
749.69	0.3
749.868	0.3
750.045	0.41
750.223	0.41
750.4	0.21
750.578	0.66
750.755	0.38
750.932	0.3
751.11	0.52
751.287	0.34
751.464	0.59
751.642	0.28
751.819	0.49
751.996	0.45
752.173	0.34
752.351	0.28
752.528	0.43
752.705	0.41
752.882	0.34
753.06	0.36
753.237	0.49
753.414	0.65
753.591	0.67
753.768	0.41
753.945	0.27
754.122	0.48
754.299	0.45
754.476	0.34
754.654	0.4
754.831	0.48
755.008	0.55
755.185	0.39
755.362	0.31
755.539	0.46
755.716	0.36
755.892	0.41
756.069	0.34
756.246	0.46
756.423	0.35
756.6	0.48
756.777	0.24
756.954	0.39
757.131	0.32
757.307	0.19
757.484	0.14
757.661	0.36
757.838	0.55
758.015	0.18
758.191	0.35
758.368	0.37
758.545	0.65
758.721	0.42
758.898	0.17
759.075	0.34
759.251	0.57
759.428	0.46
759.605	0.21
759.781	0.39
759.958	0.4
760.134	0.44
760.311	0.3
760.488	0.57
760.664	0.61
760.841	0.29
761.017	0.33
761.194	0.48
761.37	0.53
761.547	0.42
761.723	0.31
761.899	0.58
762.076	0.25
762.252	0.28
762.429	0.29
762.605	0.61
762.781	0.26
762.958	0.47
763.134	0.31
763.31	0.39
763.486	0.6
763.663	0.06
763.839	0.45
764.015	0.1
764.191	0.31
764.368	0.37
764.544	0.22
764.72	0.43
764.896	0.41
765.072	0.55
765.248	0.31
765.425	0.4
765.601	0.5
765.777	0.32
765.953	0.03
766.129	0.27
766.305	0.19
766.481	0.44
766.657	0.34
766.833	0.6
767.009	0.11
767.185	0.35
767.361	0.35
767.537	0.29
767.713	0.6
767.889	0.33
768.065	0.36
768.24	0.43
768.416	0.67
768.592	0.28
768.768	0.3
768.944	0.49
769.12	0.22
769.295	0.33
769.471	0.38
769.647	0.24
769.823	0.4
769.998	0.26
770.174	0.22
770.35	0.79
770.525	0.74
770.701	0.27
770.877	0.32
771.052	0.24
771.228	0.5
771.403	0.39
771.579	0.45
771.755	0.74
771.93	0.34
772.106	0.22
772.281	0.19
772.457	0.3
772.632	0.6
772.808	0.21
772.983	0.34
773.159	0.2
773.334	0.53
773.509	0.42
773.685	0.27
773.86	0.85
774.036	0.6
774.211	0.42
774.386	0.34
774.562	0.49
774.737	0.47
774.912	0.22
775.087	0.45
775.263	0.27
775.438	0.42
775.613	0.22
775.788	0.33
775.964	0.61
776.139	1.06
776.314	0.18
776.489	0.45
776.664	0.46
776.839	0.36
777.014	0.47
777.19	0.57
777.365	0.84
777.54	0.79
777.715	0.25
777.89	0.23
778.065	0.24
778.24	0.5
778.415	0.47
778.59	0.06
778.765	0.29
778.94	0.42
779.115	0.32
779.289	0.29
779.464	0.39
779.639	0.42
779.814	0.19
779.989	0.19
780.164	0.56
780.339	0.64
780.513	0.28
780.688	0.21
780.863	0.38
781.038	0.75
781.212	0.24
781.387	0.32
781.562	0.79
781.737	0.39
781.911	0.56
782.086	0.17
782.261	0.36
782.435	0.63
782.61	0.24
782.784	0.4
782.959	0.66
783.134	0.4
783.308	0.15
783.483	0.19
783.657	1.01
783.832	0.76
784.006	0.02
784.181	0.35
784.355	0.79
784.53	0.16
784.704	0.26
784.878	0.72
785.053	0.49
785.227	0.78
785.402	0.81
785.576	0.3
785.75	0.53
785.925	0.45
786.099	0.36
786.273	0.47
786.448	0.61
786.622	0.71
786.796	0.37
786.97	0.24
787.145	1.14
787.319	0.03
787.493	0.39
787.667	-0.1
787.841	0.62
788.015	1.05
788.19	0.27
788.364	0.31
788.538	0.62
788.712	0.61
788.886	0.44
789.06	0.73
789.234	0.66
789.408	0.26
789.582	0.17
789.756	0.21
789.93	0.53
790.104	0.43
790.278	0.35
790.452	0.17
790.626	0.55
790.8	0.17
790.973	0.56
791.147	1.06
791.321	0.91
791.495	0.93
791.669	0.67
791.843	0.59
792.016	0.6
792.19	0.86
792.364	0.1
792.538	1.05
792.711	0.67
792.885	0.22
793.059	0.22
793.233	-0.26
793.406	0.87
793.58	0.5
793.754	0.47
793.927	0.48
794.101	0.95
794.274	0.52
794.448	0.53
794.622	0.13
794.795	0.81
794.969	0.35
795.142	0.72
795.316	0.2
795.489	0.22
795.663	0.85
795.836	0.67
796.009	0.07
796.183	0.8
796.356	0.51
796.53	0.32
796.703	0.27
796.876	1.32
797.05	0.33
797.223	0.31
797.396	0.44
797.57	0.59
797.743	0.92
797.916	0.63
798.09	0.5
798.263	1.07
798.436	0.45
798.609	0.46
798.782	0.23
798.956	0.66
799.129	0.67
799.302	0.61
799.475	0.29
799.648	0.29
799.821	0.36
799.994	0.64
800.167	0.05
800.34	0.56
800.514	0.59
800.687	0.36
800.86	0.2
801.033	0.72
801.206	0.72
801.379	0.25
801.551	0.78
801.724	0.66
801.897	1.18
802.07	0.62
802.243	-0.16
802.416	0.6
802.589	0.67
802.762	0.65
802.935	0.44
803.107	0.94
803.28	0.99
803.453	0.92
803.626	0.5
803.798	0.7
803.971	0.52
804.144	0.51
804.317	0.67
804.489	1.15
804.662	0.61
804.835	0.69
805.007	0.34
805.18	1.1
805.353	0.48
805.525	0.16
805.698	0.35
805.87	0.82
806.043	0.84
806.215	0.13
806.388	0.27
806.56	0.86
806.733	1.14
806.905	0.61
807.078	0.29
807.25	0.56
807.423	0.77
807.595	0.42
807.768	0.36
807.94	0.89
808.112	0.82
808.285	0.58
808.457	0.48
808.629	0.78
808.802	0.83
808.974	0.66
809.146	0.25
809.318	0.5
809.491	0.61
809.663	0.63
809.835	0.39
810.007	0.67
810.18	0.63
810.352	-0.28
810.524	0.16
810.696	0.82
810.868	1.05
811.04	0.5
811.212	0.44
811.384	1.02
811.556	1.08
811.728	0.13
811.901	1.18
812.073	0.51
812.245	0.39
812.417	0.53
812.589	0.23
812.76	0.62
812.932	1.11
813.104	1.24
813.276	0.24
813.448	1.19
813.62	0.54
813.792	0.77
813.964	0.61
814.136	0.9
814.307	0.25
814.479	0.51
814.651	0.67
814.823	1.83
814.995	0.98
815.166	0.8
815.338	0.48
815.51	0.05
815.681	1.49
815.853	0.73
816.025	0.29
816.196	1.65
816.368	1.15
816.54	0.31
816.711	0.17
816.883	1.08
817.054	1.8
817.226	0.11
817.398	0.89
817.569	0.43
817.741	0.77
817.912	0.61
818.084	0.82
818.255	1.27
818.426	0.19
818.598	0.46
818.769	0.15
818.941	1.01
819.112	1.19
819.283	0.89
819.455	0.23
819.626	0.79
819.798	1.12
819.969	0.97
820.14	0.27
820.311	0.78
820.483	0.6
820.654	0.92
820.825	0.56
820.996	0.65
821.168	0.28
821.339	0.62
821.51	0.22
821.681	0.81
821.852	1.04
822.023	0.17
822.195	-0.13
822.366	1.38
822.537	0.65
822.708	0.89
822.879	0.17
823.05	1.89
823.221	-0.02
823.392	0.66
823.563	0.77
823.734	1.2
823.905	1.02
824.076	0.15
824.247	0.2
824.418	0.85
824.589	1.59
824.759	0.47
824.93	0.54
825.101	-0.32
825.272	1.44
825.443	0.93
825.614	1.2
825.784	-0.53
825.955	2.07
826.126	1.22
826.297	0.84
826.467	1.39
826.638	2.09
826.809	-0.19
826.98	0.88
827.15	1.49
827.321	1.27
827.492	1.71
827.662	0.62
827.833	2.25
828.003	1.12
828.174	0.47
828.345	0.08
828.515	2.09
828.686	0.82
828.856	0.64
829.027	0.46
829.197	1.44
829.368	1.2
829.538	0.43
829.709	0.24
829.879	1.43
830.049	0.59
830.22	0.23
830.39	0.57
830.56	1.88
830.731	0.87
830.901	0.16
831.072	1.06
831.242	1.51
831.412	2.06
831.582	0.6
831.753	0.2
831.923	1.94
832.093	1.72
832.263	0.76
832.434	-0.27
832.604	0.79
832.774	1.37
832.944	0.6
833.114	0.37
833.284	1.04
833.454	0.67
833.624	0.21
833.795	0.82
833.965	2.04
834.135	1.99
834.305	-0.59
834.475	-0.24
834.645	0.79
834.815	1.12
834.985	0.05
835.155	0.07
835.325	1.8
835.494	1.48
835.664	0.17
835.834	0.05
836.004	1.45
836.174	0.95
836.344	0.78
836.514	-0.36
836.684	0.77
836.853	1.17
837.023	1.22
837.193	0.11
837.363	1.66
837.532	1.91
837.702	0.49
837.872	0.49
838.041	1.24
838.211	3.03
838.381	-0.02
838.55	1.02
838.72	4.11
838.89	2.64
839.059	0.89
839.229	0.07
839.398	2.81
839.568	1.72
839.738	0.59
839.907	1.92
840.077	1.5
840.246	0.31
840.416	0.51
840.585	-0.08
840.755	2.57
840.924	2.27
841.093	0.15
841.263	0.56
841.432	1.22
841.602	0.52
841.771	0.23
841.94	1.05
842.11	3.78
842.279	2.81
842.448	0.34
842.617	0.33
842.787	2.76
842.956	0.52
843.125	0.66
843.294	0.89
843.464	2.56
843.633	1.38
843.802	0.45
843.971	0.68
844.14	1.72
844.309	1.9
844.479	-0.44
844.648	0.23
844.817	1.02
844.986	1.81
845.155	-0.08
845.324	0.93
845.493	0.88
845.662	0.82
845.831	1.49
846	1.39
846.169	0.97
846.338	3.08
846.507	1.38
846.676	0.58
846.844	0.1
847.013	2.22
847.182	0.61
847.351	0.8
847.52	1.49
847.689	1.96
847.858	1.05
848.026	0.52
848.195	1.85
848.364	1.11
848.533	-0.04
848.701	0.01
848.87	1.42
849.039	2.52
849.207	2.33
849.376	2.24
849.545	3.84
849.713	0.52
849.882	0.79
850.051	-0
850.219	1.19
850.388	1.1
850.556	-0.06
850.725	0.09
850.893	2.27
851.062	1.78
851.23	1.91
851.399	-0.23
851.567	1.29
851.736	0.56
851.904	0.41
852.073	0.91
852.241	2.42
852.41	2.5
852.578	0.2
852.746	0.28
852.915	2.9
853.083	1.61
853.251	-0.03
853.42	0.23
853.588	1.82
853.756	3.19
853.924	0.89
854.093	1
854.261	0.84
854.429	0.28
854.597	1.9
854.765	0.84
854.934	2.61
855.102	2.39
855.27	1.07
855.438	3.36
855.606	2.74
855.774	3.46
855.942	-0.31
856.11	-0.97
856.278	2.48
856.446	2.74
856.614	0.6
856.782	0.22
856.95	3.24
857.118	1.7
857.286	1.42
857.454	0.45
857.622	3.28
857.79	3.08
857.958	0.21
858.126	0.58
858.294	-0.88
858.462	1.83
858.629	0.82
858.797	-0.76
858.965	2.31
859.133	0.74
859.301	1.01
859.468	1.51
859.636	2.71
859.804	3.93
859.971	1.89
860.139	0.3
860.307	2.22
860.474	1.97
860.642	-0.02
860.81	0.7
860.977	0.85
861.145	3.56
861.313	1
861.48	0.8
861.648	3.52
861.815	2.64
861.983	-0.59
862.15	1.08
862.318	2.15
862.485	3.61
862.653	0.26
862.82	-0.82
862.988	2.51
863.155	3.49
863.322	0.47
863.49	1.36
863.657	1.56
863.824	3.94
863.992	1.86
864.159	1.78
864.326	3.7
864.494	0.95
864.661	4.14
864.828	-0.28
864.996	3.83
865.163	3.9
865.33	-0.03
865.497	-0.88
865.664	1.26
865.832	-0.24
865.999	1.6
866.166	0.03
866.333	-0.38
866.5	1.64
866.667	0.79
866.834	2.92
867.001	5.11
867.168	-0.12
867.335	1.18
867.502	-0.3
867.669	1.42
867.836	4.89
868.003	0.84
868.17	3.63
868.337	0.37
868.504	6.65
868.671	-1.59
868.838	-0.69
869.005	3.8
869.172	3.19
869.339	0.89
869.505	1.54
869.672	2.45
869.839	5.25
870.006	1.74
870.173	-1.08
870.339	2.6
870.506	5.96
870.673	0.04
870.84	2.32
871.006	2.93
871.173	1.16
871.34	1.98
871.506	0.09
871.673	3.33
871.839	-1.54
872.006	1.98
872.173	1.56
872.339	1.96
872.506	3.64
872.672	0.2
872.839	0.06
873.005	3.19
873.172	6.1
873.338	3.17
873.505	0.88
873.671	3.65
873.838	4.35
874.004	-0.63
874.171	-0.02
874.337	5.22
874.503	4.12
874.67	1.18
874.836	0.51
875.002	4.54
875.169	4.98
875.335	0.62
875.501	1.29
875.668	5.23
875.834	1.24
876	2.54
876.166	2.7
876.332	4.21
876.499	5.9
876.665	1.7
876.831	1.93
876.997	6.95
877.163	2.25
877.329	1.08
877.495	2.21
877.662	4.06
877.828	1.86
877.994	2.35
878.16	-2.39
878.326	1.81
878.492	3.79
878.658	2.31
878.824	2.33
878.99	2.82
879.156	1.8
879.322	3.58
879.487	1.6
879.653	2.22
879.819	2.19
879.985	-1.88
880.151	1.75
880.317	3.49
880.483	2.07
880.648	3.15
880.814	0.01
880.98	4.1
881.146	0.58
881.312	0.95
881.477	0.01
881.643	1.74
881.809	4.38
881.974	3.08
882.14	0.58
882.306	0.97
882.471	6.29
882.637	2.23
882.803	1.04
882.968	4.78
883.134	8.22
883.299	2.88
883.465	1.19
883.63	3.74
883.796	2.06
883.961	4.8
884.127	1.37
884.292	-2.1
884.458	-0.56
884.623	-0.56
