Data from Apollo_Calib_20240827__AbsoluteIrradiance__33__23-42-00-997.txt Node

Date: Tue Aug 27 23:42:00 BST 2024
User: biology
Spectrometer: FLMT08252
Trigger mode: 0
Integration Time (sec): 5.000000E-1
Scans to average: 5
Electric dark correction enabled: true
Nonlinearity correction enabled: false
Boxcar width: 0
XAxis mode: Wavelengths
Number of Pixels in Spectrum: 3648
>>>>>Begin Spectral Data<<<<<
179.588	-0
179.809	-0
180.03	-0
180.251	-0
180.473	-0
180.694	0
180.915	0
181.136	-0
181.357	0
181.578	-0
181.799	-0
182.02	-0
182.241	0
182.462	-0
182.683	0
182.904	-0
183.125	0
183.346	0
183.567	0
183.788	0
184.009	0
184.23	0
184.451	0
184.672	0
184.892	0
185.113	0
185.334	0
185.555	0
185.776	0
185.996	0
186.217	0
186.438	0
186.659	0
186.879	0
187.1	0
187.321	0
187.541	0
187.762	0
187.983	0
188.203	0
188.424	0
188.644	0
188.865	0
189.086	0
189.306	0
189.527	0
189.747	0
189.968	0
190.188	0
190.409	0
190.629	0
190.849	0
191.07	0
191.29	0
191.511	0
191.731	0
191.951	0
192.172	0
192.392	0
192.612	0
192.833	0
193.053	0
193.273	0
193.493	0
193.714	0
193.934	0
194.154	0
194.374	0
194.594	0
194.815	0
195.035	0
195.255	0
195.475	0
195.695	0
195.915	0
196.135	0
196.355	0
196.575	0
196.795	0
197.015	0
197.235	0
197.455	0
197.675	0
197.895	0
198.115	0
198.335	0
198.555	0
198.775	0
198.995	0
199.214	0
199.434	0
199.654	0
199.874	0
200.094	3.18
200.313	2.46
200.533	2.29
200.753	1.91
200.973	3.32
201.192	3.11
201.412	1.89
201.632	1.98
201.851	3.63
202.071	2.21
202.291	2.21
202.51	1.54
202.73	2.93
202.95	1.72
203.169	1.2
203.389	1.71
203.608	1.92
203.828	1.13
204.047	1.44
204.267	2.41
204.486	1.62
204.706	2.4
204.925	1.96
205.145	1.43
205.364	2.35
205.583	2.31
205.803	1.64
206.022	1.25
206.242	1.5
206.461	1.77
206.68	1
206.9	1.9
207.119	2.55
207.338	2.17
207.557	1.19
207.777	1.54
207.996	1.48
208.215	2.13
208.434	1.08
208.654	1
208.873	1.7
209.092	2
209.311	1.48
209.53	1.3
209.749	1.16
209.968	0.99
210.187	1.28
210.407	0.8
210.626	0.9
210.845	1.52
211.064	1.36
211.283	1.1
211.502	1.58
211.721	1.43
211.94	1.35
212.159	1.29
212.377	1.35
212.596	1.38
212.815	1.14
213.034	1.22
213.253	1.41
213.472	0.99
213.691	0.9
213.91	0.7
214.128	0.75
214.347	1.21
214.566	0.64
214.785	0.69
215.003	1.2
215.222	1.1
215.441	0.92
215.66	0.66
215.878	0.85
216.097	1.05
216.316	0.78
216.534	0.79
216.753	1.1
216.972	0.99
217.19	0.92
217.409	0.83
217.627	0.66
217.846	0.86
218.064	0.84
218.283	0.68
218.501	1.19
218.72	1.12
218.938	0.71
219.157	0.74
219.375	0.87
219.594	1.01
219.812	0.6
220.031	0.59
220.249	1.2
220.467	1.04
220.686	0.69
220.904	0.51
221.122	0.61
221.341	0.98
221.559	0.87
221.777	0.67
221.995	0.74
222.214	0.93
222.432	0.64
222.65	0.94
222.868	0.81
223.086	0.79
223.305	0.87
223.523	0.82
223.741	1.07
223.959	0.6
224.177	0.46
224.395	0.54
224.613	0.7
224.831	0.94
225.049	0.47
225.267	0.6
225.485	0.77
225.703	0.7
225.921	0.6
226.139	0.66
226.357	0.77
226.575	0.78
226.793	0.61
227.011	1.37
227.229	0.76
227.447	0.85
227.665	0.6
227.883	0.4
228.1	0.66
228.318	0.77
228.536	0.36
228.754	0.45
228.972	0.68
229.189	0.81
229.407	0.51
229.625	0.58
229.843	0.74
230.06	0.65
230.278	0.5
230.496	0.72
230.713	0.66
230.931	0.79
231.149	0.57
231.366	0.31
231.584	0.59
231.801	0.93
232.019	0.58
232.236	0.48
232.454	0.49
232.671	0.8
232.889	0.53
233.106	0.41
233.324	0.69
233.541	0.45
233.759	0.56
233.976	0.44
234.194	0.6
234.411	0.58
234.628	0.44
234.846	0.48
235.063	0.55
235.28	0.5
235.498	0.59
235.715	0.49
235.932	0.73
236.149	0.6
236.367	0.46
236.584	0.62
236.801	0.49
237.018	0.57
237.236	0.5
237.453	0.31
237.67	0.62
237.887	0.45
238.104	0.48
238.321	0.46
238.538	0.45
238.755	0.74
238.973	0.31
239.19	0.58
239.407	0.67
239.624	0.54
239.841	0.36
240.058	0.37
240.275	0.45
240.492	0.49
240.709	0.46
240.925	0.53
241.142	0.51
241.359	0.36
241.576	0.4
241.793	0.38
242.01	0.42
242.227	0.66
242.444	0.5
242.66	0.56
242.877	0.46
243.094	0.52
243.311	0.42
243.527	0.49
243.744	0.54
243.961	0.5
244.178	0.38
244.394	0.39
244.611	0.58
244.828	0.61
245.044	0.37
245.261	0.45
245.477	0.43
245.694	0.53
245.911	0.38
246.127	0.51
246.344	0.7
246.56	0.54
246.777	0.35
246.993	0.48
247.21	0.46
247.426	0.55
247.643	0.36
247.859	0.38
248.076	0.36
248.292	0.64
248.508	0.4
248.725	0.43
248.941	0.53
249.157	0.49
249.374	0.36
249.59	0.39
249.806	0.44
250.023	0.51
250.239	0.31
250.455	0.37
250.671	0.49
250.888	0.43
251.104	0.46
251.32	0.46
251.536	0.32
251.752	0.4
251.969	0.42
252.185	0.45
252.401	0.62
252.617	0.44
252.833	0.41
253.049	0.41
253.265	0.44
253.481	0.45
253.697	0.37
253.913	0.32
254.129	0.45
254.345	0.41
254.561	0.32
254.777	0.39
254.993	0.46
255.209	0.4
255.425	0.34
255.641	0.3
255.857	0.53
256.073	0.4
256.288	0.29
256.504	0.45
256.72	0.43
256.936	0.52
257.152	0.4
257.367	0.31
257.583	0.44
257.799	0.43
258.015	0.3
258.23	0.23
258.446	0.55
258.662	0.43
258.877	0.32
259.093	0.31
259.309	0.41
259.524	0.5
259.74	0.39
259.955	0.21
260.171	0.33
260.387	0.43
260.602	0.39
260.818	0.41
261.033	0.3
261.249	0.36
261.464	0.31
261.68	0.26
261.895	0.4
262.11	0.5
262.326	0.31
262.541	0.32
262.757	0.47
262.972	0.39
263.187	0.43
263.403	0.34
263.618	0.42
263.833	0.35
264.049	0.29
264.264	0.33
264.479	0.39
264.694	0.5
264.91	0.23
265.125	0.4
265.34	0.42
265.555	0.54
265.77	0.34
265.986	0.29
266.201	0.41
266.416	0.46
266.631	0.32
266.846	0.36
267.061	0.42
267.276	0.39
267.491	0.24
267.706	0.35
267.921	0.42
268.136	0.41
268.351	0.39
268.566	0.29
268.781	0.47
268.996	0.43
269.211	0.36
269.426	0.31
269.641	0.37
269.856	0.35
270.071	0.29
270.285	0.28
270.5	0.43
270.715	0.37
270.93	0.35
271.145	0.41
271.359	0.35
271.574	0.32
271.789	0.34
272.004	0.33
272.218	0.3
272.433	0.38
272.648	0.31
272.862	0.38
273.077	0.36
273.292	0.35
273.506	0.28
273.721	0.31
273.936	0.41
274.15	0.41
274.365	0.28
274.579	0.38
274.794	0.36
275.008	0.41
275.223	0.21
275.437	0.33
275.652	0.43
275.866	0.4
276.081	0.29
276.295	0.43
276.509	0.29
276.724	0.33
276.938	0.35
277.153	0.38
277.367	0.37
277.581	0.28
277.796	0.27
278.01	0.23
278.224	0.43
278.438	0.38
278.653	0.3
278.867	0.29
279.081	0.14
279.295	0.26
279.51	0.34
279.724	0.22
279.938	0.35
280.152	0.37
280.366	0.27
280.58	0.37
280.794	0.41
281.008	0.34
281.222	0.33
281.437	0.47
281.651	0.35
281.865	0.43
282.079	0.26
282.293	0.23
282.507	0.21
282.721	0.32
282.935	0.31
283.148	0.2
283.362	0.27
283.576	0.25
283.79	0.31
284.004	0.27
284.218	0.39
284.432	0.28
284.646	0.33
284.859	0.25
285.073	0.26
285.287	0.29
285.501	0.28
285.714	0.28
285.928	0.25
286.142	0.31
286.356	0.23
286.569	0.3
286.783	0.32
286.997	0.35
287.21	0.34
287.424	0.31
287.637	0.25
287.851	0.25
288.065	0.32
288.278	0.35
288.492	0.3
288.705	0.28
288.919	0.29
289.132	0.22
289.346	0.34
289.559	0.24
289.773	0.21
289.986	0.25
290.2	0.28
290.413	0.35
290.626	0.22
290.84	0.28
291.053	0.25
291.267	0.36
291.48	0.29
291.693	0.24
291.906	0.25
292.12	0.24
292.333	0.2
292.546	0.21
292.76	0.35
292.973	0.31
293.186	0.3
293.399	0.27
293.612	0.35
293.826	0.27
294.039	0.29
294.252	0.28
294.465	0.27
294.678	0.32
294.891	0.27
295.104	0.21
295.317	0.26
295.53	0.25
295.743	0.24
295.956	0.24
296.169	0.35
296.382	0.32
296.595	0.28
296.808	0.2
297.021	0.29
297.234	0.3
297.447	0.29
297.66	0.26
297.873	0.36
298.086	0.33
298.299	0.23
298.511	0.2
298.724	0.31
298.937	0.21
299.15	0.28
299.363	0.28
299.575	0.27
299.788	0.27
300.001	0.22
300.213	0.25
300.426	0.27
300.639	0.27
300.852	0.21
301.064	0.28
301.277	0.32
301.489	0.31
301.702	0.29
301.915	0.23
302.127	0.23
302.34	0.24
302.552	0.31
302.765	0.22
302.977	0.32
303.19	0.22
303.402	0.22
303.615	0.21
303.827	0.23
304.04	0.21
304.252	0.31
304.464	0.27
304.677	0.35
304.889	0.28
305.102	0.26
305.314	0.21
305.526	0.29
305.739	0.23
305.951	0.23
306.163	0.24
306.375	0.36
306.588	0.26
306.8	0.25
307.012	0.19
307.224	0.3
307.436	0.35
307.649	0.21
307.861	0.27
308.073	0.3
308.285	0.22
308.497	0.22
308.709	0.24
308.921	0.28
309.133	0.31
309.346	0.24
309.558	0.24
309.77	0.31
309.982	0.32
310.194	0.33
310.406	0.24
310.617	0.39
310.829	0.29
311.041	0.27
311.253	0.21
311.465	0.26
311.677	0.26
311.889	0.26
312.101	0.22
312.313	0.28
312.524	0.31
312.736	0.2
312.948	0.22
313.16	0.39
313.372	0.35
313.583	0.27
313.795	0.26
314.007	0.24
314.218	0.31
314.43	0.27
314.642	0.23
314.853	0.22
315.065	0.28
315.277	0.26
315.488	0.32
315.7	0.29
315.912	0.31
316.123	0.24
316.335	0.24
316.546	0.36
316.758	0.21
316.969	0.23
317.181	0.25
317.392	0.27
317.604	0.29
317.815	0.21
318.026	0.2
318.238	0.21
318.449	0.26
318.661	0.17
318.872	0.17
319.083	0.2
319.295	0.28
319.506	0.24
319.717	0.29
319.929	0.29
320.14	0.26
320.351	0.24
320.562	0.25
320.774	0.28
320.985	0.24
321.196	0.26
321.407	0.2
321.618	0.29
321.829	0.3
322.041	0.27
322.252	0.23
322.463	0.24
322.674	0.28
322.885	0.22
323.096	0.24
323.307	0.25
323.518	0.27
323.729	0.21
323.94	0.23
324.151	0.21
324.362	0.29
324.573	0.27
324.784	0.21
324.995	0.32
325.206	0.31
325.417	0.25
325.628	0.26
325.838	0.23
326.049	0.23
326.26	0.29
326.471	0.25
326.682	0.26
326.892	0.29
327.103	0.22
327.314	0.19
327.525	0.32
327.735	0.24
327.946	0.29
328.157	0.21
328.368	0.27
328.578	0.25
328.789	0.29
328.999	0.24
329.21	0.25
329.421	0.3
329.631	0.21
329.842	0.23
330.052	0.28
330.263	0.26
330.473	0.29
330.684	0.24
330.894	0.26
331.105	0.28
331.315	0.27
331.526	0.22
331.736	0.31
331.947	0.3
332.157	0.25
332.367	0.2
332.578	0.3
332.788	0.33
332.999	0.31
333.209	0.21
333.419	0.18
333.629	0.25
333.84	0.29
334.05	0.26
334.26	0.31
334.47	0.32
334.681	0.34
334.891	0.2
335.101	0.28
335.311	0.34
335.521	0.26
335.732	0.19
335.942	0.32
336.152	0.26
336.362	0.24
336.572	0.25
336.782	0.27
336.992	0.24
337.202	0.21
337.412	0.23
337.622	0.31
337.832	0.26
338.042	0.25
338.252	0.26
338.462	0.25
338.672	0.25
338.882	0.2
339.092	0.23
339.302	0.28
339.511	0.27
339.721	0.25
339.931	0.2
340.141	0.33
340.351	0.33
340.561	0.3
340.77	0.27
340.98	0.22
341.19	0.29
341.4	0.2
341.609	0.24
341.819	0.25
342.029	0.21
342.238	0.28
342.448	0.22
342.658	0.31
342.867	0.26
343.077	0.25
343.286	0.3
343.496	0.25
343.706	0.35
343.915	0.19
344.125	0.26
344.334	0.31
344.544	0.16
344.753	0.22
344.963	0.26
345.172	0.24
345.381	0.2
345.591	0.23
345.8	0.23
346.01	0.3
346.219	0.27
346.428	0.1
346.638	0.2
346.847	0.26
347.056	0.32
347.266	0.21
347.475	0.25
347.684	0.29
347.893	0.29
348.103	0.26
348.312	0.23
348.521	0.26
348.73	0.24
348.94	0.29
349.149	0.23
349.358	0.24
349.567	0.28
349.776	0.21
349.985	0.24
350.194	0.28
350.403	0.28
350.612	0.2
350.821	0.2
351.03	0.24
351.239	0.23
351.448	0.28
351.657	0.21
351.866	0.29
352.075	0.24
352.284	0.26
352.493	0.22
352.702	0.28
352.911	0.28
353.12	0.26
353.329	0.25
353.538	0.26
353.746	0.25
353.955	0.23
354.164	0.28
354.373	0.26
354.582	0.23
354.79	0.3
354.999	0.28
355.208	0.23
355.416	0.32
355.625	0.18
355.834	0.23
356.042	0.25
356.251	0.21
356.46	0.2
356.668	0.25
356.877	0.37
357.085	0.32
357.294	0.21
357.503	0.26
357.711	0.24
357.92	0.4
358.128	0.27
358.337	0.22
358.545	0.25
358.754	0.26
358.962	0.28
359.17	0.22
359.379	0.26
359.587	0.29
359.796	0.18
360.004	0.27
360.212	0.28
360.421	0.29
360.629	0.24
360.837	0.24
361.046	0.3
361.254	0.36
361.462	0.27
361.67	0.27
361.879	0.29
362.087	0.29
362.295	0.25
362.503	0.21
362.711	0.24
362.92	0.27
363.128	0.25
363.336	0.21
363.544	0.2
363.752	0.23
363.96	0.24
364.168	0.22
364.376	0.27
364.584	0.28
364.792	0.3
365	0.27
365.208	0.22
365.416	0.31
365.624	0.29
365.832	0.23
366.04	0.27
366.248	0.24
366.456	0.29
366.664	0.23
366.872	0.23
367.079	0.26
367.287	0.23
367.495	0.27
367.703	0.22
367.911	0.22
368.118	0.25
368.326	0.23
368.534	0.21
368.742	0.29
368.949	0.15
369.157	0.23
369.365	0.3
369.572	0.25
369.78	0.19
369.988	0.26
370.195	0.26
370.403	0.31
370.61	0.2
370.818	0.31
371.026	0.31
371.233	0.2
371.441	0.28
371.648	0.23
371.856	0.25
372.063	0.24
372.271	0.22
372.478	0.23
372.685	0.25
372.893	0.27
373.1	0.26
373.308	0.27
373.515	0.31
373.722	0.28
373.93	0.25
374.137	0.26
374.344	0.32
374.552	0.27
374.759	0.29
374.966	0.3
375.173	0.28
375.381	0.35
375.588	0.25
375.795	0.23
376.002	0.26
376.209	0.21
376.417	0.25
376.624	0.24
376.831	0.29
377.038	0.24
377.245	0.19
377.452	0.24
377.659	0.25
377.866	0.26
378.073	0.25
378.28	0.23
378.487	0.32
378.694	0.25
378.901	0.27
379.108	0.23
379.315	0.29
379.522	0.35
379.729	0.28
379.936	0.22
380.143	0.28
380.35	0.31
380.557	0.27
380.763	0.26
380.97	0.22
381.177	0.25
381.384	0.34
381.591	0.24
381.797	0.28
382.004	0.29
382.211	0.31
382.418	0.22
382.624	0.31
382.831	0.27
383.038	0.26
383.244	0.28
383.451	0.25
383.658	0.31
383.864	0.25
384.071	0.21
384.277	0.33
384.484	0.27
384.69	0.33
384.897	0.24
385.103	0.31
385.31	0.27
385.516	0.26
385.723	0.25
385.929	0.29
386.136	0.27
386.342	0.28
386.549	0.25
386.755	0.32
386.961	0.31
387.168	0.27
387.374	0.3
387.58	0.33
387.787	0.27
387.993	0.33
388.199	0.28
388.406	0.26
388.612	0.31
388.818	0.25
389.024	0.27
389.231	0.27
389.437	0.38
389.643	0.34
389.849	0.3
390.055	0.28
390.261	0.28
390.467	0.35
390.674	0.26
390.88	0.25
391.086	0.36
391.292	0.29
391.498	0.31
391.704	0.35
391.91	0.31
392.116	0.29
392.322	0.23
392.528	0.35
392.734	0.27
392.94	0.3
393.146	0.29
393.352	0.33
393.557	0.25
393.763	0.32
393.969	0.34
394.175	0.26
394.381	0.32
394.587	0.27
394.792	0.29
394.998	0.34
395.204	0.34
395.41	0.26
395.615	0.36
395.821	0.37
396.027	0.34
396.233	0.25
396.438	0.31
396.644	0.41
396.85	0.4
397.055	0.34
397.261	0.37
397.466	0.43
397.672	0.36
397.878	0.39
398.083	0.35
398.289	0.32
398.494	0.4
398.7	0.34
398.905	0.27
399.111	0.4
399.316	0.29
399.522	0.36
399.727	0.31
399.932	0.34
400.138	0.34
400.343	0.39
400.549	0.38
400.754	0.36
400.959	0.37
401.165	0.34
401.37	0.43
401.575	0.46
401.78	0.38
401.986	0.34
402.191	0.32
402.396	0.41
402.601	0.44
402.807	0.43
403.012	0.41
403.217	0.46
403.422	0.38
403.627	0.41
403.832	0.4
404.037	0.44
404.243	0.46
404.448	0.39
404.653	0.41
404.858	0.44
405.063	0.44
405.268	0.36
405.473	0.37
405.678	0.38
405.883	0.6
406.088	0.49
406.293	0.42
406.498	0.42
406.703	0.5
406.907	0.46
407.112	0.46
407.317	0.53
407.522	0.6
407.727	0.42
407.932	0.52
408.136	0.62
408.341	0.56
408.546	0.57
408.751	0.58
408.956	0.57
409.16	0.65
409.365	0.66
409.57	0.59
409.774	0.66
409.979	0.65
410.184	0.66
410.388	0.63
410.593	0.76
410.798	0.72
411.002	0.74
411.207	0.78
411.411	0.77
411.616	0.73
411.82	0.8
412.025	0.84
412.229	0.85
412.434	0.95
412.638	0.93
412.843	0.87
413.047	0.94
413.252	0.94
413.456	1.03
413.66	1.02
413.865	1.08
414.069	1.13
414.273	1.12
414.478	1.13
414.682	1.15
414.886	1.22
415.091	1.25
415.295	1.29
415.499	1.33
415.703	1.37
415.908	1.46
416.112	1.4
416.316	1.6
416.52	1.54
416.724	1.56
416.929	1.57
417.133	1.81
417.337	1.68
417.541	1.81
417.745	1.82
417.949	1.94
418.153	2.01
418.357	2.03
418.561	2.28
418.765	2.21
418.969	2.31
419.173	2.44
419.377	2.38
419.581	2.59
419.785	2.52
419.989	2.69
420.193	2.78
420.397	2.9
420.601	3.03
420.804	3.11
421.008	3.12
421.212	3.21
421.416	3.28
421.62	3.22
421.823	3.38
422.027	3.55
422.231	3.42
422.435	3.51
422.638	3.58
422.842	3.68
423.046	3.74
423.249	4
423.453	3.93
423.657	4.1
423.86	4.16
424.064	4.35
424.268	4.47
424.471	4.44
424.675	4.76
424.878	4.74
425.082	4.9
425.285	5.21
425.489	4.98
425.692	5.19
425.896	5.26
426.099	5.41
426.303	5.61
426.506	5.81
426.71	5.93
426.913	6.17
427.116	6.3
427.32	6.29
427.523	6.45
427.726	6.74
427.93	6.85
428.133	7.12
428.336	7.28
428.54	7.43
428.743	7.6
428.946	7.86
429.149	8.01
429.353	7.92
429.556	8.09
429.759	8.05
429.962	8.31
430.165	8.39
430.368	8.05
430.571	8.08
430.775	8.18
430.978	8.07
431.181	8.07
431.384	8.22
431.587	8.33
431.79	8.76
431.993	8.69
432.196	8.86
432.399	9.35
432.602	9.49
432.805	9.58
433.008	10.04
433.211	9.93
433.414	10.24
433.616	10.38
433.819	10.29
434.022	10.49
434.225	10.7
434.428	10.58
434.631	11.05
434.833	10.88
435.036	11.18
435.239	11.33
435.442	11.34
435.645	11.49
435.847	11.61
436.05	11.99
436.253	12.1
436.455	12.2
436.658	12.11
436.861	12.36
437.063	12.41
437.266	12.47
437.468	12.76
437.671	13.12
437.874	13.16
438.076	12.95
438.279	13.43
438.481	13.57
438.684	14.32
438.886	13.92
439.089	14.17
439.291	14.21
439.494	14.65
439.696	14.69
439.899	15.3
440.101	15.54
440.303	15.86
440.506	16.56
440.708	16.23
440.91	16.55
441.113	16.75
441.315	17.03
441.517	16.83
441.72	17.2
441.922	16.9
442.124	16.91
442.326	17.14
442.529	17.51
442.731	17.52
442.933	17.81
443.135	17.47
443.337	17.6
443.539	18.09
443.742	17.77
443.944	18.32
444.146	18.13
444.348	18.2
444.55	18.09
444.752	18.12
444.954	18.22
445.156	18.02
445.358	18.46
445.56	18.74
445.762	18.49
445.964	18.85
446.166	18.68
446.368	18.72
446.57	18.63
446.772	18.27
446.974	18
447.175	18.4
447.377	18.01
447.579	18.45
447.781	18.04
447.983	17.89
448.184	17.5
448.386	17.77
448.588	17.26
448.79	17.18
448.991	17.53
449.193	17.58
449.395	16.82
449.597	16.48
449.798	16.45
450	16.01
450.202	15.9
450.403	15.82
450.605	15.81
450.806	15.43
451.008	15.33
451.21	15.02
451.411	14.63
451.613	13.91
451.814	14.14
452.016	14.07
452.217	13.38
452.419	13.34
452.62	13.04
452.821	12.82
453.023	12.62
453.224	12.25
453.426	11.85
453.627	11.11
453.828	11.31
454.03	11.34
454.231	11.23
454.432	11.11
454.634	10.92
454.835	10.67
455.036	10.5
455.238	10.04
455.439	9.83
455.64	9.7
455.841	9.41
456.042	9.49
456.244	9.12
456.445	9.04
456.646	8.62
456.847	8.62
457.048	8.5
457.249	8.55
457.45	8.23
457.651	7.88
457.852	7.59
458.054	7.39
458.255	7.3
458.456	7.24
458.657	7.17
458.858	6.76
459.058	6.66
459.259	6.78
459.46	6.43
459.661	6.42
459.862	6.54
460.063	6.35
460.264	6.24
460.465	5.97
460.666	6.15
460.866	5.73
461.067	5.47
461.268	5.63
461.469	5.51
461.67	5.33
461.87	5.22
462.071	5.22
462.272	5.2
462.473	5.1
462.673	5.25
462.874	5.12
463.075	5.14
463.275	5.08
463.476	5.13
463.676	5.16
463.877	5.02
464.078	5
464.278	4.96
464.479	4.84
464.679	4.72
464.88	4.79
465.08	4.66
465.281	4.5
465.481	4.32
465.682	4.13
465.882	4.16
466.083	4.11
466.283	4.02
466.483	3.91
466.684	3.77
466.884	3.71
467.085	3.7
467.285	3.69
467.485	3.66
467.686	3.5
467.886	3.46
468.086	3.4
468.286	3.39
468.487	3.46
468.687	3.28
468.887	3.28
469.087	3.28
469.287	3.26
469.488	3.07
469.688	3.18
469.888	3.15
470.088	3.11
470.288	3.11
470.488	2.97
470.688	2.9
470.888	2.91
471.088	2.67
471.288	2.82
471.488	2.77
471.688	2.67
471.888	2.67
472.088	2.83
472.288	2.71
472.488	2.63
472.688	2.56
472.888	2.61
473.088	2.63
473.288	2.53
473.488	2.48
473.688	2.62
473.887	2.5
474.087	2.44
474.287	2.45
474.487	2.34
474.687	2.39
474.886	2.38
475.086	2.27
475.286	2.32
475.486	2.29
475.685	2.24
475.885	2.22
476.085	2.28
476.284	2.23
476.484	2.3
476.684	2.18
476.883	2.27
477.083	2.17
477.282	2.17
477.482	2.16
477.681	2.16
477.881	2.08
478.08	2.09
478.28	2.04
478.479	2.1
478.679	2.18
478.878	2.06
479.078	2.05
479.277	2.08
479.477	2.05
479.676	2.02
479.875	2.01
480.075	1.95
480.274	2
480.473	2.06
480.673	2.07
480.872	2.1
481.071	2.05
481.271	2.07
481.47	2.01
481.669	2
481.868	1.98
482.067	1.99
482.267	1.94
482.466	1.95
482.665	1.93
482.864	1.96
483.063	1.94
483.262	1.98
483.461	2.03
483.661	2.09
483.86	2.02
484.059	2.05
484.258	2.02
484.457	2.01
484.656	2.01
484.855	2.07
485.054	1.94
485.253	1.97
485.452	1.96
485.651	2.04
485.849	1.99
486.048	2
486.247	2.01
486.446	2.04
486.645	2.03
486.844	2.07
487.043	2.03
487.241	2.12
487.44	2.06
487.639	2.17
487.838	2.13
488.037	2.14
488.235	2.18
488.434	2.17
488.633	2.08
488.831	2.21
489.03	2.21
489.229	2.23
489.427	2.21
489.626	2.26
489.825	2.29
490.023	2.28
490.222	2.27
490.42	2.28
490.619	2.34
490.817	2.38
491.016	2.34
491.214	2.4
491.413	2.39
491.611	2.36
491.81	2.39
492.008	2.42
492.207	2.54
492.405	2.55
492.604	2.47
492.802	2.55
493	2.59
493.199	2.61
493.397	2.61
493.595	2.71
493.794	2.62
493.992	2.79
494.19	2.73
494.388	2.8
494.587	2.74
494.785	2.78
494.983	2.77
495.181	2.88
495.379	2.88
495.578	2.95
495.776	2.95
495.974	2.95
496.172	2.97
496.37	3.1
496.568	3.08
496.766	3.08
496.964	3.13
497.162	3.15
497.36	3.2
497.558	3.21
497.756	3.3
497.954	3.27
498.152	3.33
498.35	3.42
498.548	3.37
498.746	3.38
498.944	3.43
499.142	3.41
499.34	3.53
499.538	3.61
499.736	3.52
499.933	3.59
500.131	3.62
500.329	3.8
500.527	3.72
500.725	3.85
500.922	3.86
501.12	3.86
501.318	3.94
501.516	3.96
501.713	4.01
501.911	3.99
502.109	3.93
502.306	4.05
502.504	4.04
502.701	4.07
502.899	4.17
503.097	4.31
503.294	4.19
503.492	4.32
503.689	4.33
503.887	4.34
504.084	4.46
504.282	4.42
504.479	4.38
504.677	4.57
504.874	4.5
505.072	4.43
505.269	4.66
505.466	4.69
505.664	4.72
505.861	4.69
506.059	4.74
506.256	4.8
506.453	4.86
506.651	4.93
506.848	4.97
507.045	4.92
507.242	4.97
507.44	5.02
507.637	5.02
507.834	5.06
508.031	5.19
508.229	5.13
508.426	5.11
508.623	5.25
508.82	5.33
509.017	5.23
509.214	5.29
509.411	5.4
509.608	5.35
509.805	5.47
510.003	5.46
510.2	5.51
510.397	5.63
510.594	5.56
510.791	5.68
510.988	5.69
511.184	5.64
511.381	5.51
511.578	5.69
511.775	5.76
511.972	5.78
512.169	5.77
512.366	5.78
512.563	5.93
512.76	6
512.956	6.02
513.153	5.9
513.35	5.92
513.547	5.91
513.744	6.03
513.94	6.01
514.137	6.12
514.334	6.1
514.53	6.16
514.727	6.32
514.924	6.22
515.12	6.23
515.317	6.21
515.514	6.23
515.71	6.17
515.907	6.43
516.103	6.43
516.3	6.32
516.497	6.43
516.693	6.46
516.89	6.49
517.086	6.45
517.283	6.5
517.479	6.42
517.676	6.63
517.872	6.66
518.068	6.58
518.265	6.61
518.461	6.57
518.658	6.7
518.854	6.71
519.05	6.77
519.247	6.84
519.443	6.76
519.639	6.86
519.836	6.76
520.032	6.77
520.228	6.89
520.424	6.85
520.621	6.9
520.817	6.98
521.013	6.88
521.209	7.09
521.405	7.06
521.601	7.01
521.798	7.02
521.994	7.01
522.19	6.97
522.386	7
522.582	7.11
522.778	7.23
522.974	7.07
523.17	7.14
523.366	7.11
523.562	7.16
523.758	7.18
523.954	6.99
524.15	7.18
524.346	7.24
524.542	7.3
524.738	7.28
524.934	7.33
525.129	7.31
525.325	7.2
525.521	7.23
525.717	7.39
525.913	7.31
526.109	7.26
526.304	7.42
526.5	7.42
526.696	7.42
526.892	7.36
527.087	7.58
527.283	7.45
527.479	7.49
527.674	7.33
527.87	7.45
528.066	7.49
528.261	7.49
528.457	7.44
528.653	7.61
528.848	7.57
529.044	7.68
529.239	7.48
529.435	7.52
529.63	7.52
529.826	7.53
530.021	7.44
530.217	7.63
530.412	7.54
530.608	7.64
530.803	7.64
530.999	7.47
531.194	7.64
531.389	7.69
531.585	7.68
531.78	7.79
531.975	7.7
532.171	7.74
532.366	7.72
532.561	7.72
532.757	7.7
532.952	7.86
533.147	7.64
533.342	7.81
533.538	7.68
533.733	7.87
533.928	7.6
534.123	7.79
534.318	7.83
534.513	7.7
534.709	7.98
534.904	7.84
535.099	7.89
535.294	7.78
535.489	7.9
535.684	7.86
535.879	7.85
536.074	7.9
536.269	7.92
536.464	7.92
536.659	7.86
536.854	7.86
537.049	7.96
537.244	7.89
537.439	7.86
537.634	7.84
537.828	7.95
538.023	7.94
538.218	8.03
538.413	7.79
538.608	7.88
538.803	7.91
538.997	7.87
539.192	7.93
539.387	7.87
539.582	7.9
539.776	7.81
539.971	7.97
540.166	8.05
540.36	7.88
540.555	8.03
540.75	8.01
540.944	7.94
541.139	7.97
541.334	8.03
541.528	8
541.723	8.08
541.917	8.1
542.112	7.91
542.306	7.84
542.501	7.93
542.695	7.94
542.89	7.92
543.084	7.98
543.279	8.01
543.473	8.11
543.668	8.04
543.862	7.89
544.056	7.97
544.251	8.08
544.445	8.11
544.64	8.09
544.834	7.8
545.028	7.7
545.222	8.06
545.417	8.26
545.611	8.1
545.805	8.08
546	7.88
546.194	8.05
546.388	8.11
546.582	7.98
546.776	8
546.97	8.04
547.165	8.04
547.359	8.01
547.553	7.98
547.747	8.05
547.941	8.22
548.135	8
548.329	8.06
548.523	8.1
548.717	7.96
548.911	8.02
549.105	8.04
549.299	8.1
549.493	8.1
549.687	7.98
549.881	8.12
550.075	8.06
550.269	8
550.463	8.07
550.657	8.15
550.85	8.1
551.044	8.11
551.238	8.14
551.432	8.12
551.626	8.08
551.82	8.13
552.013	7.98
552.207	8.13
552.401	8.16
552.594	8.1
552.788	8.01
552.982	7.99
553.176	8.08
553.369	8.21
553.563	8.08
553.756	8.05
553.95	8.12
554.144	8.15
554.337	8.12
554.531	7.91
554.724	8.08
554.918	8.16
555.111	8.07
555.305	8.08
555.498	8.04
555.692	8.19
555.885	8.14
556.079	8.06
556.272	8.09
556.466	8.07
556.659	8.05
556.852	8.17
557.046	8.06
557.239	7.91
557.432	8.09
557.626	8.19
557.819	8.19
558.012	8.14
558.206	8.18
558.399	8.07
558.592	8.06
558.785	8.02
558.979	8.07
559.172	8.07
559.365	8.06
559.558	8.03
559.751	7.92
559.944	8.16
560.138	8.05
560.331	8.08
560.524	8.15
560.717	8.07
560.91	8.1
561.103	8.06
561.296	7.92
561.489	8.12
561.682	8.26
561.875	8.11
562.068	8.14
562.261	8
562.454	8.25
562.647	7.99
562.84	8.09
563.032	8.11
563.225	8.01
563.418	8.05
563.611	8.19
563.804	8.18
563.997	7.98
564.19	7.86
564.382	8.21
564.575	8.15
564.768	8
564.961	8.11
565.153	8.05
565.346	7.97
565.539	8.14
565.731	8.09
565.924	8.13
566.117	8.27
566.309	8.12
566.502	8.09
566.695	8.06
566.887	8.17
567.08	8.1
567.272	8.17
567.465	7.93
567.657	8.08
567.85	7.97
568.042	8.11
568.235	8.05
568.427	7.93
568.62	8.1
568.812	8.01
569.005	8.18
569.197	7.99
569.389	8.09
569.582	8.03
569.774	8.02
569.966	7.98
570.159	7.96
570.351	7.97
570.543	8
570.736	7.99
570.928	7.83
571.12	8.07
571.312	7.96
571.505	7.78
571.697	8.04
571.889	8.02
572.081	8.02
572.273	7.96
572.465	7.99
572.658	8
572.85	7.98
573.042	8.02
573.234	7.82
573.426	7.94
573.618	7.9
573.81	7.96
574.002	7.9
574.194	8.03
574.386	7.93
574.578	7.82
574.77	7.94
574.962	7.94
575.154	7.81
575.346	7.81
575.538	7.84
575.729	7.82
575.921	7.96
576.113	8.04
576.305	7.84
576.497	7.97
576.689	7.8
576.88	7.75
577.072	8.02
577.264	7.89
577.456	7.86
577.647	7.81
577.839	7.98
578.031	7.85
578.223	7.79
578.414	7.74
578.606	7.78
578.798	7.91
578.989	7.88
579.181	7.87
579.372	7.75
579.564	7.76
579.755	7.77
579.947	7.66
580.139	7.86
580.33	7.62
580.522	7.81
580.713	7.71
580.905	7.67
581.096	7.77
581.287	7.78
581.479	7.63
581.67	7.82
581.862	7.69
582.053	7.72
582.244	7.55
582.436	7.74
582.627	7.63
582.818	7.63
583.01	7.6
583.201	7.65
583.392	7.6
583.583	7.64
583.775	7.51
583.966	7.54
584.157	7.62
584.348	7.66
584.54	7.54
584.731	7.57
584.922	7.51
585.113	7.44
585.304	7.65
585.495	7.53
585.686	7.65
585.877	7.65
586.068	7.64
586.259	7.57
586.45	7.54
586.641	7.53
586.832	7.57
587.023	7.5
587.214	7.53
587.405	7.52
587.596	7.44
587.787	7.31
587.978	7.42
588.169	7.38
588.36	7.36
588.551	7.43
588.742	7.41
588.932	7.47
589.123	7.19
589.314	7.48
589.505	7.34
589.696	7.38
589.886	7.31
590.077	7.32
590.268	7.3
590.458	7.18
590.649	7.13
590.84	7.26
591.03	7.22
591.221	7.28
591.412	7.18
591.602	7.32
591.793	7.2
591.984	7.28
592.174	7.17
592.365	7.37
592.555	7.06
592.746	7.08
592.936	7.21
593.127	7.19
593.317	7.21
593.508	7.17
593.698	7.13
593.889	7.07
594.079	7.04
594.269	7.04
594.46	7.07
594.65	7.1
594.84	7.08
595.031	6.96
595.221	6.97
595.411	7.03
595.602	6.98
595.792	6.92
595.982	6.89
596.172	6.99
596.363	6.89
596.553	6.91
596.743	6.99
596.933	6.86
597.123	6.84
597.314	6.73
597.504	6.76
597.694	6.94
597.884	6.79
598.074	6.85
598.264	6.8
598.454	6.74
598.644	6.77
598.834	6.74
599.024	6.68
599.214	6.66
599.404	6.81
599.594	6.71
599.784	6.65
599.974	6.71
600.164	6.71
600.354	6.62
600.544	6.55
600.734	6.6
600.924	6.57
601.114	6.5
601.303	6.56
601.493	6.53
601.683	6.57
601.873	6.55
602.063	6.43
602.252	6.48
602.442	6.41
602.632	6.4
602.821	6.39
603.011	6.52
603.201	6.4
603.39	6.4
603.58	6.31
603.77	6.41
603.959	6.45
604.149	6.32
604.339	6.27
604.528	6.44
604.718	6.38
604.907	6.28
605.097	6.27
605.286	6.3
605.476	6.21
605.665	6.3
605.855	6.18
606.044	6.27
606.234	6.19
606.423	6.15
606.612	6.15
606.802	6.16
606.991	6.17
607.181	6.22
607.37	6.22
607.559	5.91
607.749	6.06
607.938	5.95
608.127	6.04
608.316	5.99
608.506	6
608.695	6.05
608.884	6
609.073	6.02
609.263	6.05
609.452	6
609.641	5.83
609.83	5.81
610.019	5.95
610.208	5.86
610.397	5.77
610.586	5.86
610.775	5.78
610.965	5.8
611.154	5.73
611.343	5.8
611.532	5.7
611.721	5.81
611.91	5.68
612.099	5.71
612.287	5.67
612.476	5.52
612.665	5.74
612.854	5.58
613.043	5.69
613.232	5.63
613.421	5.58
613.61	5.56
613.798	5.61
613.987	5.55
614.176	5.5
614.365	5.54
614.554	5.48
614.742	5.48
614.931	5.39
615.12	5.53
615.309	5.5
615.497	5.38
615.686	5.28
615.875	5.42
616.063	5.36
616.252	5.36
616.44	5.37
616.629	5.36
616.818	5.31
617.006	5.32
617.195	5.21
617.383	5.22
617.572	5.14
617.76	5.16
617.949	5.22
618.137	5.29
618.326	5.19
618.514	5.1
618.703	5.05
618.891	5.13
619.079	5.03
619.268	5.19
619.456	5.03
619.644	5.09
619.833	5.02
620.021	5.03
620.209	4.93
620.398	5.01
620.586	4.92
620.774	5.03
620.962	4.92
621.151	5
621.339	4.87
621.527	4.84
621.715	4.78
621.903	4.86
622.092	4.75
622.28	4.93
622.468	4.63
622.656	4.8
622.844	4.76
623.032	4.84
623.22	4.68
623.408	4.76
623.596	4.76
623.784	4.75
623.972	4.65
624.16	4.67
624.348	4.71
624.536	4.76
624.724	4.62
624.912	4.64
625.1	4.63
625.288	4.59
625.476	4.5
625.664	4.59
625.851	4.48
626.039	4.59
626.227	4.5
626.415	4.46
626.603	4.4
626.79	4.47
626.978	4.45
627.166	4.5
627.354	4.37
627.541	4.4
627.729	4.21
627.917	4.47
628.104	4.4
628.292	4.28
628.48	4.39
628.667	4.26
628.855	4.37
629.042	4.34
629.23	4.25
629.418	4.27
629.605	4.29
629.793	4.14
629.98	4.23
630.168	4.2
630.355	4.16
630.543	4.13
630.73	4.04
630.917	4.13
631.105	4.23
631.292	4.07
631.48	4.08
631.667	4.11
631.854	4.07
632.042	4.07
632.229	4
632.416	4.08
632.604	3.99
632.791	3.89
632.978	4.06
633.165	3.92
633.353	3.96
633.54	3.99
633.727	3.84
633.914	3.82
634.101	3.81
634.289	3.96
634.476	3.82
634.663	3.86
634.85	3.82
635.037	3.76
635.224	3.7
635.411	3.81
635.598	3.71
635.785	3.7
635.972	3.71
636.159	3.73
636.346	3.68
636.533	3.67
636.72	3.64
636.907	3.63
637.094	3.62
637.281	3.5
637.468	3.65
637.655	3.63
637.842	3.61
638.029	3.51
638.215	3.57
638.402	3.59
638.589	3.47
638.776	3.47
638.963	3.49
639.149	3.52
639.336	3.55
639.523	3.49
639.709	3.44
639.896	3.46
640.083	3.41
640.27	3.44
640.456	3.38
640.643	3.41
640.829	3.26
641.016	3.36
641.203	3.28
641.389	3.33
641.576	3.32
641.762	3.23
641.949	3.25
642.135	3.3
642.322	3.23
642.508	3.12
642.695	3.21
642.881	3.16
643.068	3.15
643.254	3.18
643.441	3.21
643.627	3.18
643.813	3.15
644	3.2
644.186	3.1
644.372	3.15
644.559	3.08
644.745	3.11
644.931	3.05
645.118	3.09
645.304	3.05
645.49	3.04
645.676	2.99
645.862	3
646.049	3.07
646.235	3.01
646.421	3.12
646.607	3.1
646.793	2.96
646.979	2.88
647.165	2.98
647.352	2.95
647.538	2.96
647.724	2.91
647.91	2.9
648.096	2.89
648.282	2.94
648.468	2.84
648.654	2.86
648.84	2.87
649.026	2.87
649.212	2.8
649.397	2.78
649.583	2.82
649.769	2.81
649.955	2.79
650.141	2.78
650.327	2.78
650.513	2.75
650.698	2.8
650.884	2.66
651.07	2.74
651.256	2.65
651.442	2.72
651.627	2.64
651.813	2.71
651.999	2.68
652.184	2.68
652.37	2.67
652.556	2.66
652.741	2.64
652.927	2.53
653.113	2.56
653.298	2.57
653.484	2.63
653.669	2.53
653.855	2.59
654.04	2.54
654.226	2.56
654.412	2.54
654.597	2.44
654.782	2.58
654.968	2.53
655.153	2.52
655.339	2.46
655.524	2.47
655.71	2.5
655.895	2.47
656.08	2.45
656.266	2.56
656.451	2.43
656.636	2.41
656.822	2.47
657.007	2.43
657.192	2.43
657.378	2.34
657.563	2.38
657.748	2.43
657.933	2.38
658.118	2.32
658.304	2.35
658.489	2.41
658.674	2.32
658.859	2.29
659.044	2.31
659.229	2.37
659.414	2.31
659.599	2.29
659.785	2.26
659.97	2.25
660.155	2.28
660.34	2.29
660.525	2.24
660.71	2.22
660.895	2.26
661.08	2.18
661.264	2.12
661.449	2.24
661.634	2.18
661.819	2.26
662.004	2.17
662.189	2.09
662.374	2.09
662.559	2.09
662.743	2.03
662.928	2.08
663.113	2.02
663.298	1.99
663.483	2.02
663.667	2.05
663.852	2.01
664.037	2.07
664.221	2.03
664.406	2.08
664.591	2.01
664.775	1.96
664.96	1.96
665.145	1.94
665.329	1.94
665.514	1.88
665.698	1.93
665.883	1.89
666.068	1.93
666.252	1.93
666.437	1.81
666.621	1.85
666.806	1.89
666.99	1.89
667.174	1.84
667.359	1.88
667.543	1.84
667.728	1.81
667.912	1.74
668.096	1.82
668.281	1.73
668.465	1.79
668.649	1.75
668.834	1.68
669.018	1.76
669.202	1.76
669.387	1.73
669.571	1.79
669.755	1.61
669.939	1.69
670.124	1.73
670.308	1.74
670.492	1.66
670.676	1.67
670.86	1.7
671.044	1.56
671.228	1.7
671.413	1.59
671.597	1.58
671.781	1.6
671.965	1.63
672.149	1.63
672.333	1.57
672.517	1.57
672.701	1.57
672.885	1.58
673.069	1.48
673.253	1.61
673.437	1.53
673.621	1.5
673.804	1.57
673.988	1.55
674.172	1.51
674.356	1.47
674.54	1.56
674.724	1.61
674.908	1.51
675.091	1.54
675.275	1.48
675.459	1.54
675.643	1.56
675.826	1.45
676.01	1.43
676.194	1.43
676.377	1.44
676.561	1.52
676.745	1.45
676.928	1.5
677.112	1.52
677.296	1.4
677.479	1.39
677.663	1.36
677.846	1.4
678.03	1.4
678.213	1.38
678.397	1.42
678.58	1.39
678.764	1.35
678.947	1.35
679.131	1.45
679.314	1.42
679.498	1.3
679.681	1.43
679.865	1.39
680.048	1.33
680.231	1.28
680.415	1.28
680.598	1.36
680.781	1.24
680.965	1.31
681.148	1.36
681.331	1.26
681.514	1.3
681.698	1.22
681.881	1.31
682.064	1.26
682.247	1.3
682.43	1.23
682.614	1.24
682.797	1.27
682.98	1.25
683.163	1.15
683.346	1.27
683.529	1.15
683.712	1.17
683.895	1.21
684.078	1.13
684.261	1.17
684.444	1.21
684.627	1.23
684.81	1.16
684.993	1.2
685.176	1.18
685.359	1.1
685.542	1.1
685.725	1.22
685.908	1.13
686.091	1.1
686.274	1.16
686.457	1.17
686.639	1.1
686.822	1.19
687.005	1.12
687.188	1.2
687.371	1.21
687.553	1.14
687.736	1.16
687.919	1.19
688.102	1.18
688.284	1.12
688.467	1.05
688.65	1.09
688.832	1.06
689.015	1.07
689.197	0.95
689.38	1.16
689.563	1.1
689.745	0.97
689.928	1.03
690.11	1.01
690.293	1.09
690.475	0.96
690.658	1.07
690.84	1.08
691.023	1.01
691.205	0.98
691.388	1.02
691.57	1.08
691.752	1.03
691.935	0.93
692.117	0.97
692.3	1
692.482	0.95
692.664	0.96
692.847	0.95
693.029	1.01
693.211	1.02
693.393	0.96
693.576	0.93
693.758	0.95
693.94	0.97
694.122	0.96
694.304	0.98
694.487	0.91
694.669	1.02
694.851	0.88
695.033	0.9
695.215	0.87
695.397	0.83
695.579	0.92
695.761	0.86
695.943	0.87
696.125	0.94
696.308	0.92
696.49	0.79
696.671	1.01
696.853	0.9
697.035	1.05
697.217	0.9
697.399	0.97
697.581	0.83
697.763	0.94
697.945	0.79
698.127	0.87
698.309	0.9
698.491	0.88
698.672	0.89
698.854	0.94
699.036	0.96
699.218	0.84
699.399	0.92
699.581	0.9
699.763	0.79
699.945	0.83
700.126	0.83
700.308	0.82
700.49	0.81
700.671	0.78
700.853	0.81
701.035	0.8
701.216	0.83
701.398	0.76
701.579	0.79
701.761	0.89
701.943	0.78
702.124	0.79
702.306	0.78
702.487	0.93
702.669	0.85
702.85	0.75
703.031	0.68
703.213	0.82
703.394	0.8
703.576	0.81
703.757	0.96
703.938	0.89
704.12	0.9
704.301	0.72
704.483	0.69
704.664	0.76
704.845	0.87
705.026	0.91
705.208	0.68
705.389	0.74
705.57	0.78
705.751	0.73
705.933	0.78
706.114	0.86
706.295	0.76
706.476	0.69
706.657	0.77
706.838	0.77
707.02	0.82
707.201	0.69
707.382	0.69
707.563	0.75
707.744	0.69
707.925	0.63
708.106	0.7
708.287	0.75
708.468	0.81
708.649	0.66
708.83	0.75
709.011	0.68
709.192	0.77
709.373	0.57
709.554	0.66
709.734	0.7
709.915	0.75
710.096	0.67
710.277	0.56
710.458	0.74
710.639	0.78
710.819	0.6
711	0.64
711.181	0.79
711.362	0.67
711.542	0.72
711.723	0.64
711.904	0.79
712.085	0.69
712.265	0.68
712.446	0.58
712.627	0.67
712.807	0.68
712.988	0.72
713.168	0.59
713.349	0.62
713.53	0.46
713.71	0.6
713.891	0.58
714.071	0.61
714.252	0.64
714.432	0.65
714.613	0.54
714.793	0.63
714.974	0.77
715.154	0.65
715.334	0.65
715.515	0.75
715.695	0.45
715.876	0.63
716.056	0.63
716.236	0.62
716.417	0.58
716.597	0.51
716.777	0.81
716.957	0.61
717.138	0.64
717.318	0.61
717.498	0.53
717.678	0.65
717.859	0.67
718.039	0.52
718.219	0.63
718.399	0.7
718.579	0.53
718.759	0.57
718.939	0.62
719.12	0.6
719.3	0.55
719.48	0.45
719.66	0.51
719.84	0.7
720.02	0.55
720.2	0.57
720.38	0.56
720.56	0.7
720.74	0.52
720.92	0.58
721.1	0.71
721.279	0.64
721.459	0.59
721.639	0.5
721.819	0.65
721.999	0.53
722.179	0.68
722.359	0.49
722.538	0.52
722.718	0.6
722.898	0.57
723.078	0.58
723.257	0.54
723.437	0.62
723.617	0.61
723.797	0.6
723.976	0.64
724.156	0.62
724.336	0.71
724.515	0.82
724.695	0.42
724.874	0.61
725.054	0.68
725.234	0.6
725.413	0.57
725.593	0.58
725.772	0.66
725.952	0.57
726.131	0.54
726.311	0.61
726.49	0.55
726.67	0.5
726.849	0.49
727.028	0.58
727.208	0.55
727.387	0.59
727.567	0.47
727.746	0.61
727.925	0.49
728.105	0.44
728.284	0.58
728.463	0.53
728.643	0.59
728.822	0.5
729.001	0.57
729.18	0.65
729.359	0.62
729.539	0.56
729.718	0.6
729.897	0.63
730.076	0.55
730.255	0.49
730.434	0.45
730.614	0.61
730.793	0.68
730.972	0.56
731.151	0.55
731.33	0.65
731.509	0.62
731.688	0.63
731.867	0.61
732.046	0.49
732.225	0.74
732.404	0.51
732.583	0.48
732.762	0.6
732.941	0.65
733.12	0.51
733.298	0.57
733.477	0.7
733.656	0.64
733.835	0.63
734.014	0.73
734.193	0.61
734.371	0.64
734.55	0.76
734.729	0.51
734.908	0.63
735.086	0.59
735.265	0.74
735.444	0.35
735.623	0.53
735.801	0.48
735.98	0.62
736.159	0.58
736.337	0.67
736.516	0.66
736.694	0.57
736.873	0.52
737.052	0.82
737.23	0.72
737.409	0.63
737.587	0.79
737.766	0.45
737.944	0.58
738.123	0.61
738.301	0.74
738.479	0.59
738.658	0.5
738.836	0.37
739.015	0.64
739.193	0.7
739.371	0.39
739.55	0.51
739.728	0.42
739.906	0.78
740.085	0.85
740.263	0.61
740.441	0.46
740.62	0.89
740.798	0.67
740.976	0.53
741.154	0.42
741.332	0.64
741.511	0.52
741.689	0.58
741.867	0.58
742.045	0.63
742.223	0.47
742.401	0.44
742.579	0.38
742.757	0.52
742.935	0.45
743.114	0.48
743.292	0.52
743.47	0.45
743.648	0.51
743.826	0.42
744.004	0.51
744.181	0.73
744.359	0.55
744.537	0.65
744.715	0.48
744.893	0.48
745.071	0.44
745.249	0.51
745.427	0.43
745.605	0.57
745.782	0.51
745.96	0.54
746.138	0.57
746.316	0.57
746.493	0.45
746.671	0.49
746.849	0.51
747.027	0.53
747.204	0.34
747.382	0.51
747.56	0.37
747.737	0.51
747.915	0.44
748.093	0.49
748.27	0.37
748.448	0.45
748.625	0.35
748.803	0.28
748.98	0.34
749.158	0.52
749.335	0.56
749.513	0.35
749.69	0.34
749.868	0.41
750.045	0.49
750.223	0.46
750.4	0.22
750.578	0.6
750.755	0.46
750.932	0.28
751.11	0.52
751.287	0.32
751.464	0.55
751.642	0.25
751.819	0.5
751.996	0.51
752.173	0.43
752.351	0.37
752.528	0.4
752.705	0.41
752.882	0.39
753.06	0.41
753.237	0.48
753.414	0.6
753.591	0.56
753.768	0.43
753.945	0.35
754.122	0.34
754.299	0.53
754.476	0.37
754.654	0.41
754.831	0.41
755.008	0.35
755.185	0.36
755.362	0.29
755.539	0.48
755.716	0.57
755.892	0.35
756.069	0.46
756.246	0.37
756.423	0.37
756.6	0.54
756.777	0.41
756.954	0.47
757.131	0.38
757.307	0.29
757.484	0.31
757.661	0.4
757.838	0.54
758.015	0.23
758.191	0.46
758.368	0.39
758.545	0.54
758.721	0.46
758.898	0.21
759.075	0.44
759.251	0.61
759.428	0.38
759.605	0.25
759.781	0.38
759.958	0.41
760.134	0.43
760.311	0.33
760.488	0.51
760.664	0.56
760.841	0.45
761.017	0.33
761.194	0.5
761.37	0.38
761.547	0.32
761.723	0.29
761.899	0.47
762.076	0.26
762.252	0.25
762.429	0.32
762.605	0.36
762.781	0.3
762.958	0.39
763.134	0.29
763.31	0.27
763.486	0.4
763.663	0.09
763.839	0.48
764.015	0.14
764.191	0.32
764.368	0.32
764.544	0.39
764.72	0.42
764.896	0.34
765.072	0.42
765.248	0.42
765.425	0.27
765.601	0.42
765.777	0.37
765.953	0.18
766.129	0.29
766.305	0.25
766.481	0.42
766.657	0.33
766.833	0.54
767.009	0.14
767.185	0.34
767.361	0.23
767.537	0.32
767.713	0.57
767.889	0.28
768.065	0.38
768.24	0.41
768.416	0.5
768.592	0.51
768.768	0.28
768.944	0.36
769.12	0.21
769.295	0.26
769.471	0.38
769.647	0.16
769.823	0.52
769.998	0.23
770.174	0.23
770.35	0.75
770.525	0.58
770.701	0.43
770.877	0.34
771.052	0.26
771.228	0.51
771.403	0.42
771.579	0.38
771.755	0.56
771.93	0.24
772.106	0.32
772.281	0.34
772.457	0.41
772.632	0.36
772.808	0.1
772.983	0.4
773.159	0.27
773.334	0.56
773.509	0.34
773.685	0.28
773.86	0.71
774.036	0.54
774.211	0.46
774.386	0.47
774.562	0.43
774.737	0.46
774.912	0.29
775.087	0.31
775.263	0.48
775.438	0.34
775.613	0.35
775.788	0.23
775.964	0.43
776.139	0.72
776.314	0.21
776.489	0.33
776.664	0.59
776.839	0.15
777.014	0.52
777.19	0.48
777.365	0.65
777.54	0.81
777.715	0.41
777.89	0.39
778.065	0.3
778.24	0.3
778.415	0.67
778.59	0.22
778.765	0.18
778.94	0.43
779.115	0.27
779.289	0.44
779.464	0.43
779.639	0.41
779.814	0.12
779.989	0.3
780.164	0.53
780.339	0.5
780.513	0.34
780.688	0.13
780.863	0.38
781.038	0.58
781.212	0.27
781.387	0.37
781.562	0.67
781.737	0.32
781.911	0.61
782.086	0.34
782.261	0.5
782.435	0.66
782.61	0.34
782.784	0.31
782.959	0.61
783.134	0.28
783.308	0.3
783.483	0.22
783.657	0.62
783.832	0.71
784.006	0
784.181	0.59
784.355	0.69
784.53	0.59
784.704	0.24
784.878	0.79
785.053	0.79
785.227	0.56
785.402	0.69
785.576	0.09
785.75	0.53
785.925	0.3
786.099	0.49
786.273	0.39
786.448	0.43
786.622	0.69
786.796	0.45
786.97	0.44
787.145	0.79
787.319	0.28
787.493	0.35
787.667	0.2
787.841	0.39
788.015	0.53
788.19	0.37
788.364	0.31
788.538	0.42
788.712	0.63
788.886	0.13
789.06	0.63
789.234	0.52
789.408	0.26
789.582	0.25
789.756	0.43
789.93	0.28
790.104	0.26
790.278	0.2
790.452	0.21
790.626	0.48
790.8	0.33
790.973	0.69
791.147	0.87
791.321	0.77
791.495	0.57
791.669	0.56
791.843	0.66
792.016	0.54
792.19	0.99
792.364	0.35
792.538	0.84
792.711	0.84
792.885	0.25
793.059	0.32
793.233	-0.1
793.406	0.62
793.58	0.49
793.754	0.42
793.927	0.49
794.101	0.63
794.274	0.82
794.448	0.73
794.622	0.3
794.795	0.74
794.969	0.55
795.142	1.06
795.316	0.3
795.489	0.34
795.663	0.88
795.836	0.56
796.009	0.32
796.183	0.78
796.356	0.67
796.53	0.62
796.703	0.39
796.876	1.26
797.05	0.47
797.223	0.48
797.396	0.54
797.57	0.48
797.743	0.85
797.916	0.51
798.09	0.45
798.263	0.57
798.436	0.48
798.609	0.12
798.782	0.44
798.956	0.49
799.129	0.59
799.302	0.5
799.475	0.34
799.648	0.28
799.821	0.19
799.994	0.45
800.167	-0.03
800.34	0.5
800.514	0.68
800.687	0.6
800.86	0.38
801.033	0.88
801.206	0.59
801.379	0.18
801.551	0.79
801.724	0.61
801.897	0.66
802.07	0.31
802.243	-0.1
802.416	0.48
802.589	0.45
802.762	0.86
802.935	0.56
803.107	0.67
803.28	1.02
803.453	0.85
803.626	0.45
803.798	0.44
803.971	0.5
804.144	0.59
804.317	0.45
804.489	0.9
804.662	0.44
804.835	0.47
805.007	0.33
805.18	1.19
805.353	0.74
805.525	0.21
805.698	0.56
805.87	0.9
806.043	0.9
806.215	0.12
806.388	0.29
806.56	0.49
806.733	0.75
806.905	0.75
807.078	0.54
807.25	0.5
807.423	0.63
807.595	0.85
807.768	0.33
807.94	1.15
808.112	0.7
808.285	0.53
808.457	0.29
808.629	0.36
808.802	0.69
808.974	0.94
809.146	0.77
809.318	0.66
809.491	0.56
809.663	0.85
809.835	0.38
810.007	0.73
810.18	0.5
810.352	0.27
810.524	0.53
810.696	0.69
810.868	0.82
811.04	0.48
811.212	0.42
811.384	1.03
811.556	0.58
811.728	0.37
811.901	1.21
812.073	0.4
812.245	0.76
812.417	0.77
812.589	0.03
812.76	0.59
812.932	0.65
813.104	1
813.276	0.74
813.448	0.9
813.62	0.82
813.792	0.46
813.964	0.4
814.136	0.71
814.307	0.72
814.479	0.36
814.651	0.42
814.823	1.62
814.995	0.71
815.166	0.5
815.338	0.81
815.51	0.21
815.681	1.7
815.853	1.05
816.025	0.75
816.196	1.01
816.368	0.72
816.54	0.14
816.711	0.63
816.883	1.15
817.054	1.88
817.226	-0.08
817.398	1.14
817.569	0.4
817.741	0.64
817.912	1.01
818.084	0.96
818.255	1.11
818.426	0.41
818.598	0.58
818.769	0.4
818.941	0.97
819.112	1.18
819.283	0.8
819.455	0.6
819.626	0.68
819.798	0.88
819.969	0.81
820.14	0.65
820.311	0.43
820.483	0.75
820.654	0.73
820.825	0.78
820.996	0.52
821.168	0.14
821.339	0.48
821.51	0.37
821.681	0.81
821.852	0.8
822.023	0.1
822.195	0.37
822.366	0.96
822.537	0.53
822.708	0.78
822.879	0.12
823.05	1.58
823.221	0.77
823.392	1.17
823.563	0.55
823.734	1.02
823.905	0.61
824.076	-0.07
824.247	0.49
824.418	0.83
824.589	1.53
824.759	0.52
824.93	0.79
825.101	0.32
825.272	1.36
825.443	1.22
825.614	1.21
825.784	0.57
825.955	1.9
826.126	1.73
826.297	1.33
826.467	1.78
826.638	1.23
826.809	-0.06
826.98	0.49
827.15	1.33
827.321	0.53
827.492	1.71
827.662	1.08
827.833	1.31
828.003	0.73
828.174	0.6
828.345	0.32
828.515	1.47
828.686	1.26
828.856	0.43
829.027	1.06
829.197	1.04
829.368	1.38
829.538	0.52
829.709	0.46
829.879	1.21
830.049	0.68
830.22	0.75
830.39	1.29
830.56	1.95
830.731	0.5
830.901	1.37
831.072	0.53
831.242	1.39
831.412	0.58
831.582	0.62
831.753	0.29
831.923	1.38
832.093	0.8
832.263	1.24
832.434	0.36
832.604	0.78
832.774	1.24
832.944	1.32
833.114	0.5
833.284	0.96
833.454	0.22
833.624	0.95
833.795	0.68
833.965	1.53
834.135	1.34
834.305	-0.18
834.475	-0.46
834.645	1.03
834.815	1.32
834.985	1.04
835.155	-0.1
835.325	1.08
835.494	1.35
835.664	0.53
835.834	-0.07
836.004	0.81
836.174	1.11
836.344	0.55
836.514	-0.6
836.684	1.75
836.853	1.13
837.023	0.74
837.193	0.69
837.363	1.45
837.532	1.46
837.702	0.88
837.872	0.59
838.041	1.86
838.211	2.38
838.381	0.34
838.55	0.6
838.72	3.31
838.89	2.35
839.059	0.92
839.229	-0.03
839.398	2.64
839.568	1.43
839.738	0.43
839.907	2.12
840.077	1.72
840.246	0.95
840.416	0.03
840.585	0.45
840.755	1.45
840.924	1.92
841.093	0.01
841.263	0.7
841.432	1.24
841.602	0.64
841.771	0.32
841.94	0.72
842.11	2.84
842.279	2.65
842.448	0.28
842.617	0.93
842.787	2.5
842.956	0.8
843.125	1.52
843.294	0.89
843.464	2.06
843.633	1.2
843.802	-0.21
843.971	1.19
844.14	1.37
844.309	1.93
844.479	0.67
844.648	-0.14
844.817	0.94
844.986	1.43
845.155	0.65
845.324	1.95
845.493	0.78
845.662	0.81
845.831	1.97
846	1.51
846.169	1.55
846.338	2.83
846.507	1.12
846.676	1.37
846.844	0.85
847.013	1.82
847.182	0.98
847.351	0.07
847.52	1.79
847.689	1.71
847.858	0.02
848.026	0.57
848.195	1.8
848.364	0.64
848.533	-0.63
848.701	1.11
848.87	1.06
849.039	1.77
849.207	1.99
849.376	2.24
849.545	2.32
849.713	0.36
849.882	0.54
850.051	1.01
850.219	1.22
850.388	1.84
850.556	0.34
850.725	-0.07
850.893	1.08
851.062	1.27
851.23	2.49
851.399	0.33
851.567	1.27
851.736	1.04
851.904	0.76
852.073	1.51
852.241	1.95
852.41	1.49
852.578	0.88
852.746	0.92
852.915	2.53
853.083	1.11
853.251	0.18
853.42	0.73
853.588	2.11
853.756	2.51
853.924	1.24
854.093	1.72
854.261	1.12
854.429	0.15
854.597	2.17
854.765	1.21
854.934	0.9
855.102	2.49
855.27	1.47
855.438	2.16
855.606	2.59
855.774	4.02
855.942	0.29
856.11	0.08
856.278	2.01
856.446	2.58
856.614	1.25
856.782	1.02
856.95	2.29
857.118	1.23
857.286	1.47
857.454	0.09
857.622	2.36
857.79	2.77
857.958	0.42
858.126	1.16
858.294	0.23
858.462	2.11
858.629	1.95
858.797	1.16
858.965	0.69
859.133	1.37
859.301	0.62
859.468	2.01
859.636	0.97
859.804	3.54
859.971	2.49
860.139	0.62
860.307	3.33
860.474	2.32
860.642	1.46
860.81	0.15
860.977	0.65
861.145	3.22
861.313	1.49
861.48	0.58
861.648	2.23
861.815	1.59
861.983	0.51
862.15	1.04
862.318	2.75
862.485	3.52
862.653	0.42
862.82	0.96
862.988	1.96
863.155	2.13
863.322	1.44
863.49	0.72
863.657	1.01
863.824	4.8
863.992	2.85
864.159	1.27
864.326	2.81
864.494	2.26
864.661	3.94
864.828	-0.07
864.996	4.57
865.163	4.02
865.33	1.79
865.497	0.04
865.664	1.03
865.832	-2.33
865.999	1.59
866.166	1.65
866.333	0.43
866.5	-0.51
866.667	2.61
866.834	2.07
867.001	2.85
867.168	-0.48
867.335	1.69
867.502	-0.08
867.669	1.61
867.836	4.73
868.003	-0.14
868.17	3.27
868.337	3.2
868.504	5.61
868.671	0.6
868.838	-0.97
869.005	3.09
869.172	3.32
869.339	2.63
869.505	1.54
869.672	0.93
869.839	4.48
870.006	1.3
870.173	1.2
870.339	3.2
870.506	3.53
870.673	0.06
870.84	2.95
871.006	3.03
871.173	3.29
871.34	2.3
871.506	0.29
871.673	3.62
871.839	0.52
872.006	3.21
872.173	2.38
872.339	2.65
872.506	3.77
872.672	1.99
872.839	0.43
873.005	1.03
873.172	5.28
873.338	2.75
873.505	2.38
873.671	2.08
873.838	1.79
874.004	-1.04
874.171	1.88
874.337	2.79
874.503	2.59
874.67	1.2
874.836	0.27
875.002	4.01
875.169	3.3
875.335	2.28
875.501	0.79
875.668	3.47
875.834	3.45
876	1.31
876.166	2.16
876.332	1.68
876.499	4.69
876.665	2.34
876.831	0.73
876.997	5.82
877.163	3.17
877.329	4.1
877.495	2.52
877.662	5.23
877.828	4.12
877.994	1.32
878.16	0.61
878.326	0.24
878.492	1.81
878.658	1.7
878.824	3.13
878.99	3.49
879.156	1.38
879.322	4.66
879.487	2.37
879.653	2.58
879.819	2.21
879.985	-0.45
880.151	2.4
880.317	3.19
880.483	3
880.648	2.97
880.814	0.76
880.98	3.43
881.146	-0.47
881.312	0.97
881.477	1.16
881.643	2.31
881.809	3.5
881.974	3.78
882.14	-0.62
882.306	0.56
882.471	6.8
882.637	1.44
882.803	3.72
882.968	4.97
883.134	6.99
883.299	0.91
883.465	0.59
883.63	5.33
883.796	2.87
883.961	2.16
884.127	2.41
884.292	-0.21
884.458	-0.1
884.623	-0.1
