Data from Apollo_Calib_20240827__AbsoluteIrradiance__749__11-38-03-054.txt Node

Date: Wed Aug 28 11:38:03 BST 2024
User: biology
Spectrometer: FLMT08252
Trigger mode: 0
Integration Time (sec): 5.000000E-1
Scans to average: 5
Electric dark correction enabled: true
Nonlinearity correction enabled: false
Boxcar width: 0
XAxis mode: Wavelengths
Number of Pixels in Spectrum: 3648
>>>>>Begin Spectral Data<<<<<
179.588	-0
179.809	-0
180.03	-0
180.251	-0
180.473	-0
180.694	0
180.915	0
181.136	-0
181.357	0
181.578	-0
181.799	0
182.02	-0
182.241	-0
182.462	-0
182.683	0
182.904	-0
183.125	-0
183.346	0
183.567	0
183.788	0
184.009	0
184.23	0
184.451	0
184.672	0
184.892	0
185.113	0
185.334	0
185.555	0
185.776	0
185.996	0
186.217	0
186.438	0
186.659	0
186.879	0
187.1	0
187.321	0
187.541	0
187.762	0
187.983	0
188.203	0
188.424	0
188.644	0
188.865	0
189.086	0
189.306	0
189.527	0
189.747	0
189.968	0
190.188	0
190.409	0
190.629	0
190.849	0
191.07	0
191.29	0
191.511	0
191.731	0
191.951	0
192.172	0
192.392	0
192.612	0
192.833	0
193.053	0
193.273	0
193.493	0
193.714	0
193.934	0
194.154	0
194.374	0
194.594	0
194.815	0
195.035	0
195.255	0
195.475	0
195.695	0
195.915	0
196.135	0
196.355	0
196.575	0
196.795	0
197.015	0
197.235	0
197.455	0
197.675	0
197.895	0
198.115	0
198.335	0
198.555	0
198.775	0
198.995	0
199.214	0
199.434	0
199.654	0
199.874	0
200.094	2.56
200.313	1.68
200.533	1.26
200.753	0.67
200.973	2.33
201.192	2.19
201.412	0.92
201.632	1.4
201.851	2.31
202.071	0.67
202.291	0.64
202.51	0.99
202.73	1.93
202.95	1.2
203.169	0.42
203.389	1.07
203.608	1.28
203.828	1
204.047	1.33
204.267	1.48
204.486	1.17
204.706	1.53
204.925	1.05
205.145	0.78
205.364	1.35
205.583	2.04
205.803	0.52
206.022	0.43
206.242	0.92
206.461	0.87
206.68	0.48
206.9	0.98
207.119	1.2
207.338	1.57
207.557	0.91
207.777	0.52
207.996	0.77
208.215	1.28
208.434	0.77
208.654	0.3
208.873	0.88
209.092	1.56
209.311	0.69
209.53	0.63
209.749	0.62
209.968	0.66
210.187	0.52
210.407	0.4
210.626	0.68
210.845	1.13
211.064	0.72
211.283	0.41
211.502	1.1
211.721	0.51
211.94	0.43
212.159	1.03
212.377	0.98
212.596	1.12
212.815	0.57
213.034	0.71
213.253	0.97
213.472	0.93
213.691	0.64
213.91	0.42
214.128	0.59
214.347	1.17
214.566	0.14
214.785	0.27
215.003	0.82
215.222	0.83
215.441	0.36
215.66	0.3
215.878	0.71
216.097	0.87
216.316	0.27
216.534	0.5
216.753	0.62
216.972	0.67
217.19	0.55
217.409	0.37
217.627	0.47
217.846	0.51
218.064	0.55
218.283	0.37
218.501	0.97
218.72	0.85
218.938	0.28
219.157	0.46
219.375	0.76
219.594	0.76
219.812	0.32
220.031	0.3
220.249	0.77
220.467	0.99
220.686	0.38
220.904	0.42
221.122	0.38
221.341	0.75
221.559	0.48
221.777	0.27
221.995	0.39
222.214	0.72
222.432	0.24
222.65	0.61
222.868	0.56
223.086	0.58
223.305	0.58
223.523	0.34
223.741	0.73
223.959	0.3
224.177	0.18
224.395	0.34
224.613	0.45
224.831	0.64
225.049	0.21
225.267	0.32
225.485	0.34
225.703	0.37
225.921	0.3
226.139	0.25
226.357	0.65
226.575	0.48
226.793	0.31
227.011	1.01
227.229	0.51
227.447	0.5
227.665	0.33
227.883	0.11
228.1	0.48
228.318	0.54
228.536	0.14
228.754	0.33
228.972	0.37
229.189	0.57
229.407	0.36
229.625	0.44
229.843	0.49
230.06	0.52
230.278	0.34
230.496	0.4
230.713	0.45
230.931	0.56
231.149	0.2
231.366	0.1
231.584	0.4
231.801	0.66
232.019	0.3
232.236	0.15
232.454	0.19
232.671	0.49
232.889	0.35
233.106	0.27
233.324	0.37
233.541	0.29
233.759	0.29
233.976	0.28
234.194	0.29
234.411	0.37
234.628	0.22
234.846	0.25
235.063	0.33
235.28	0.3
235.498	0.37
235.715	0.26
235.932	0.42
236.149	0.22
236.367	0.17
236.584	0.31
236.801	0.26
237.018	0.43
237.236	0.24
237.453	0.18
237.67	0.48
237.887	0.35
238.104	0.3
238.321	0.13
238.538	0.27
238.755	0.49
238.973	0.19
239.19	0.34
239.407	0.42
239.624	0.34
239.841	0.2
240.058	0.17
240.275	0.36
240.492	0.28
240.709	0.25
240.925	0.23
241.142	0.27
241.359	0.2
241.576	0.22
241.793	0.27
242.01	0.4
242.227	0.55
242.444	0.4
242.66	0.47
242.877	0.33
243.094	0.22
243.311	0.26
243.527	0.28
243.744	0.38
243.961	0.34
244.178	0.23
244.394	0.24
244.611	0.4
244.828	0.5
245.044	0.19
245.261	0.2
245.477	0.28
245.694	0.32
245.911	0.25
246.127	0.32
246.344	0.39
246.56	0.43
246.777	0.19
246.993	0.26
247.21	0.36
247.426	0.29
247.643	0.29
247.859	0.17
248.076	0.25
248.292	0.46
248.508	0.22
248.725	0.26
248.941	0.27
249.157	0.4
249.374	0.15
249.59	0.28
249.806	0.3
250.023	0.46
250.239	0.17
250.455	0.21
250.671	0.24
250.888	0.32
251.104	0.35
251.32	0.2
251.536	0.28
251.752	0.23
251.969	0.3
252.185	0.27
252.401	0.51
252.617	0.21
252.833	0.19
253.049	0.32
253.265	0.26
253.481	0.29
253.697	0.15
253.913	0.19
254.129	0.32
254.345	0.29
254.561	0.22
254.777	0.14
254.993	0.32
255.209	0.31
255.425	0.24
255.641	0.19
255.857	0.39
256.073	0.21
256.288	0.13
256.504	0.22
256.72	0.36
256.936	0.41
257.152	0.21
257.367	0.14
257.583	0.27
257.799	0.27
258.015	0.18
258.23	0.18
258.446	0.38
258.662	0.22
258.877	0.22
259.093	0.14
259.309	0.26
259.524	0.34
259.74	0.18
259.955	0.11
260.171	0.33
260.387	0.22
260.602	0.32
260.818	0.29
261.033	0.12
261.249	0.16
261.464	0.18
261.68	0.09
261.895	0.27
262.11	0.3
262.326	0.19
262.541	0.07
262.757	0.34
262.972	0.28
263.187	0.24
263.403	0.22
263.618	0.31
263.833	0.29
264.049	0.18
264.264	0.24
264.479	0.23
264.694	0.34
264.91	0.12
265.125	0.23
265.34	0.31
265.555	0.43
265.77	0.23
265.986	0.16
266.201	0.27
266.416	0.29
266.631	0.19
266.846	0.21
267.061	0.26
267.276	0.28
267.491	0.05
267.706	0.26
267.921	0.27
268.136	0.24
268.351	0.2
268.566	0.1
268.781	0.27
268.996	0.28
269.211	0.26
269.426	0.21
269.641	0.2
269.856	0.32
270.071	0.18
270.285	0.14
270.5	0.28
270.715	0.26
270.93	0.17
271.145	0.2
271.359	0.32
271.574	0.11
271.789	0.16
272.004	0.14
272.218	0.21
272.433	0.32
272.648	0.15
272.862	0.32
273.077	0.16
273.292	0.26
273.506	0.21
273.721	0.23
273.936	0.28
274.15	0.3
274.365	0.1
274.579	0.24
274.794	0.29
275.008	0.27
275.223	0.09
275.437	0.17
275.652	0.23
275.866	0.24
276.081	0.2
276.295	0.31
276.509	0.17
276.724	0.21
276.938	0.2
277.153	0.28
277.367	0.27
277.581	0.2
277.796	0.16
278.01	0.19
278.224	0.24
278.438	0.32
278.653	0.12
278.867	0.13
279.081	0.23
279.295	0.21
279.51	0.23
279.724	0.09
279.938	0.21
280.152	0.19
280.366	0.19
280.58	0.18
280.794	0.27
281.008	0.22
281.222	0.24
281.437	0.36
281.651	0.23
281.865	0.28
282.079	0.16
282.293	0.05
282.507	0.09
282.721	0.21
282.935	0.17
283.148	0.1
283.362	0.19
283.576	0.15
283.79	0.21
284.004	0.15
284.218	0.28
284.432	0.15
284.646	0.21
284.859	0.19
285.073	0.17
285.287	0.23
285.501	0.19
285.714	0.19
285.928	0.19
286.142	0.21
286.356	0.18
286.569	0.14
286.783	0.26
286.997	0.27
287.21	0.17
287.424	0.16
287.637	0.14
287.851	0.16
288.065	0.21
288.278	0.15
288.492	0.24
288.705	0.14
288.919	0.2
289.132	0.08
289.346	0.21
289.559	0.12
289.773	0.1
289.986	0.17
290.2	0.17
290.413	0.27
290.626	0.14
290.84	0.18
291.053	0.18
291.267	0.27
291.48	0.14
291.693	0.14
291.906	0.1
292.12	0.17
292.333	0.14
292.546	0.17
292.76	0.23
292.973	0.22
293.186	0.27
293.399	0.1
293.612	0.2
293.826	0.17
294.039	0.17
294.252	0.16
294.465	0.18
294.678	0.18
294.891	0.18
295.104	0.14
295.317	0.18
295.53	0.16
295.743	0.15
295.956	0.17
296.169	0.26
296.382	0.22
296.595	0.17
296.808	0.14
297.021	0.2
297.234	0.21
297.447	0.17
297.66	0.2
297.873	0.24
298.086	0.22
298.299	0.12
298.511	0.09
298.724	0.14
298.937	0.14
299.15	0.12
299.363	0.16
299.575	0.22
299.788	0.16
300.001	0.15
300.213	0.15
300.426	0.19
300.639	0.2
300.852	0.16
301.064	0.18
301.277	0.29
301.489	0.17
301.702	0.21
301.915	0.18
302.127	0.19
302.34	0.18
302.552	0.19
302.765	0.12
302.977	0.21
303.19	0.17
303.402	0.16
303.615	0.1
303.827	0.2
304.04	0.14
304.252	0.21
304.464	0.16
304.677	0.29
304.889	0.19
305.102	0.15
305.314	0.17
305.526	0.2
305.739	0.21
305.951	0.13
306.163	0.16
306.375	0.23
306.588	0.18
306.8	0.17
307.012	0.1
307.224	0.18
307.436	0.23
307.649	0.1
307.861	0.17
308.073	0.21
308.285	0.15
308.497	0.17
308.709	0.17
308.921	0.19
309.133	0.23
309.346	0.12
309.558	0.17
309.77	0.24
309.982	0.21
310.194	0.23
310.406	0.14
310.617	0.24
310.829	0.18
311.041	0.19
311.253	0.15
311.465	0.17
311.677	0.14
311.889	0.15
312.101	0.11
312.313	0.24
312.524	0.24
312.736	0.1
312.948	0.13
313.16	0.21
313.372	0.19
313.583	0.18
313.795	0.16
314.007	0.14
314.218	0.21
314.43	0.19
314.642	0.12
314.853	0.1
315.065	0.25
315.277	0.17
315.488	0.17
315.7	0.24
315.912	0.24
316.123	0.11
316.335	0.17
316.546	0.27
316.758	0.15
316.969	0.16
317.181	0.16
317.392	0.17
317.604	0.16
317.815	0.14
318.026	0.11
318.238	0.16
318.449	0.21
318.661	0.06
318.872	0.09
319.083	0.15
319.295	0.19
319.506	0.09
319.717	0.21
319.929	0.23
320.14	0.2
320.351	0.22
320.562	0.16
320.774	0.19
320.985	0.19
321.196	0.1
321.407	0.1
321.618	0.22
321.829	0.19
322.041	0.19
322.252	0.15
322.463	0.21
322.674	0.16
322.885	0.1
323.096	0.19
323.307	0.16
323.518	0.15
323.729	0.15
323.94	0.13
324.151	0.18
324.362	0.16
324.573	0.2
324.784	0.14
324.995	0.22
325.206	0.2
325.417	0.14
325.628	0.14
325.838	0.15
326.049	0.17
326.26	0.25
326.471	0.11
326.682	0.19
326.892	0.16
327.103	0.11
327.314	0.16
327.525	0.21
327.735	0.21
327.946	0.14
328.157	0.1
328.368	0.18
328.578	0.14
328.789	0.16
328.999	0.19
329.21	0.2
329.421	0.23
329.631	0.17
329.842	0.12
330.052	0.14
330.263	0.17
330.473	0.19
330.684	0.17
330.894	0.13
331.105	0.17
331.315	0.17
331.526	0.1
331.736	0.24
331.947	0.18
332.157	0.18
332.367	0.11
332.578	0.19
332.788	0.22
332.999	0.21
333.209	0.2
333.419	0.14
333.629	0.22
333.84	0.22
334.05	0.13
334.26	0.22
334.47	0.11
334.681	0.21
334.891	0.11
335.101	0.14
335.311	0.24
335.521	0.18
335.732	0.12
335.942	0.24
336.152	0.15
336.362	0.18
336.572	0.19
336.782	0.21
336.992	0.14
337.202	0.14
337.412	0.14
337.622	0.19
337.832	0.16
338.042	0.13
338.252	0.13
338.462	0.18
338.672	0.16
338.882	0.11
339.092	0.18
339.302	0.22
339.511	0.23
339.721	0.12
339.931	0.07
340.141	0.21
340.351	0.22
340.561	0.18
340.77	0.17
340.98	0.19
341.19	0.18
341.4	0.15
341.609	0.06
341.819	0.14
342.029	0.1
342.238	0.17
342.448	0.14
342.658	0.23
342.867	0.18
343.077	0.15
343.286	0.19
343.496	0.15
343.706	0.22
343.915	0.1
344.125	0.15
344.334	0.24
344.544	0.07
344.753	0.11
344.963	0.15
345.172	0.12
345.381	0.17
345.591	0.12
345.8	0.13
346.01	0.19
346.219	0.25
346.428	0.02
346.638	0.15
346.847	0.16
347.056	0.23
347.266	0.12
347.475	0.13
347.684	0.2
347.893	0.16
348.103	0.2
348.312	0.15
348.521	0.15
348.73	0.19
348.94	0.18
349.149	0.18
349.358	0.17
349.567	0.13
349.776	0.08
349.985	0.14
350.194	0.24
350.403	0.18
350.612	0.15
350.821	0.15
351.03	0.17
351.239	0.12
351.448	0.14
351.657	0.14
351.866	0.24
352.075	0.14
352.284	0.21
352.493	0.08
352.702	0.19
352.911	0.19
353.12	0.2
353.329	0.16
353.538	0.19
353.746	0.15
353.955	0.13
354.164	0.17
354.373	0.17
354.582	0.18
354.79	0.13
354.999	0.15
355.208	0.18
355.416	0.22
355.625	0.11
355.834	0.13
356.042	0.16
356.251	0.14
356.46	0.07
356.668	0.2
356.877	0.27
357.085	0.16
357.294	0.04
357.503	0.19
357.711	0.15
357.92	0.3
358.128	0.2
358.337	0.13
358.545	0.19
358.754	0.1
358.962	0.22
359.17	0.15
359.379	0.19
359.587	0.16
359.796	0.13
360.004	0.24
360.212	0.18
360.421	0.23
360.629	0.12
360.837	0.15
361.046	0.2
361.254	0.3
361.462	0.19
361.67	0.17
361.879	0.15
362.087	0.22
362.295	0.17
362.503	0.16
362.711	0.1
362.92	0.14
363.128	0.13
363.336	0.12
363.544	0.12
363.752	0.15
363.96	0.15
364.168	0.14
364.376	0.17
364.584	0.19
364.792	0.22
365	0.21
365.208	0.19
365.416	0.18
365.624	0.24
365.832	0.14
366.04	0.24
366.248	0.2
366.456	0.16
366.664	0.14
366.872	0.13
367.079	0.16
367.287	0.1
367.495	0.2
367.703	0.14
367.911	0.14
368.118	0.16
368.326	0.18
368.534	0.14
368.742	0.23
368.949	0.09
369.157	0.14
369.365	0.18
369.572	0.19
369.78	0.13
369.988	0.19
370.195	0.17
370.403	0.23
370.61	0.14
370.818	0.15
371.026	0.28
371.233	0.13
371.441	0.16
371.648	0.12
371.856	0.2
372.063	0.16
372.271	0.16
372.478	0.13
372.685	0.18
372.893	0.19
373.1	0.14
373.308	0.13
373.515	0.26
373.722	0.18
373.93	0.14
374.137	0.16
374.344	0.24
374.552	0.24
374.759	0.2
374.966	0.15
375.173	0.14
375.381	0.28
375.588	0.16
375.795	0.1
376.002	0.16
376.209	0.12
376.417	0.11
376.624	0.15
376.831	0.18
377.038	0.18
377.245	0.08
377.452	0.12
377.659	0.22
377.866	0.16
378.073	0.15
378.28	0.15
378.487	0.21
378.694	0.17
378.901	0.15
379.108	0.14
379.315	0.2
379.522	0.26
379.729	0.17
379.936	0.14
380.143	0.16
380.35	0.18
380.557	0.16
380.763	0.17
380.97	0.2
381.177	0.21
381.384	0.2
381.591	0.14
381.797	0.2
382.004	0.23
382.211	0.18
382.418	0.13
382.624	0.21
382.831	0.2
383.038	0.13
383.244	0.17
383.451	0.2
383.658	0.22
383.864	0.13
384.071	0.12
384.277	0.28
384.484	0.19
384.69	0.23
384.897	0.15
385.103	0.18
385.31	0.13
385.516	0.13
385.723	0.12
385.929	0.18
386.136	0.13
386.342	0.21
386.549	0.15
386.755	0.24
386.961	0.21
387.168	0.16
387.374	0.19
387.58	0.26
387.787	0.16
387.993	0.17
388.199	0.19
388.406	0.16
388.612	0.2
388.818	0.17
389.024	0.17
389.231	0.18
389.437	0.25
389.643	0.23
389.849	0.19
390.055	0.23
390.261	0.19
390.467	0.18
390.674	0.16
390.88	0.19
391.086	0.2
391.292	0.13
391.498	0.18
391.704	0.23
391.91	0.17
392.116	0.13
392.322	0.13
392.528	0.2
392.734	0.19
392.94	0.19
393.146	0.17
393.352	0.16
393.557	0.18
393.763	0.19
393.969	0.26
394.175	0.2
394.381	0.23
394.587	0.14
394.792	0.18
394.998	0.25
395.204	0.27
395.41	0.15
395.615	0.21
395.821	0.19
396.027	0.21
396.233	0.18
396.438	0.24
396.644	0.26
396.85	0.18
397.055	0.2
397.261	0.18
397.466	0.32
397.672	0.19
397.878	0.24
398.083	0.22
398.289	0.18
398.494	0.29
398.7	0.27
398.905	0.15
399.111	0.27
399.316	0.11
399.522	0.21
399.727	0.2
399.932	0.23
400.138	0.2
400.343	0.26
400.549	0.22
400.754	0.24
400.959	0.24
401.165	0.19
401.37	0.25
401.575	0.18
401.78	0.24
401.986	0.26
402.191	0.24
402.396	0.28
402.601	0.28
402.807	0.26
403.012	0.22
403.217	0.37
403.422	0.24
403.627	0.24
403.832	0.23
404.037	0.31
404.243	0.28
404.448	0.26
404.653	0.24
404.858	0.31
405.063	0.32
405.268	0.26
405.473	0.25
405.678	0.28
405.883	0.48
406.088	0.34
406.293	0.27
406.498	0.26
406.703	0.37
406.907	0.3
407.112	0.31
407.317	0.31
407.522	0.38
407.727	0.31
407.932	0.3
408.136	0.46
408.341	0.35
408.546	0.34
408.751	0.38
408.956	0.38
409.16	0.42
409.365	0.41
409.57	0.41
409.774	0.4
409.979	0.49
410.184	0.47
410.388	0.38
410.593	0.51
410.798	0.48
411.002	0.47
411.207	0.51
411.411	0.49
411.616	0.52
411.82	0.58
412.025	0.57
412.229	0.5
412.434	0.65
412.638	0.6
412.843	0.61
413.047	0.64
413.252	0.59
413.456	0.63
413.66	0.69
413.865	0.66
414.069	0.77
414.273	0.75
414.478	0.72
414.682	0.79
414.886	0.83
415.091	0.75
415.295	0.8
415.499	0.96
415.703	0.87
415.908	1
416.112	0.89
416.316	1.08
416.52	1.08
416.724	1.05
416.929	1.05
417.133	1.31
417.337	1.15
417.541	1.18
417.745	1.2
417.949	1.38
418.153	1.36
418.357	1.33
418.561	1.5
418.765	1.53
418.969	1.64
419.173	1.69
419.377	1.67
419.581	1.89
419.785	1.76
419.989	1.77
420.193	1.87
420.397	1.98
420.601	2.12
420.804	2.16
421.008	2.19
421.212	2.25
421.416	2.32
421.62	2.32
421.823	2.32
422.027	2.49
422.231	2.47
422.435	2.46
422.638	2.48
422.842	2.57
423.046	2.52
423.249	2.7
423.453	2.77
423.657	2.84
423.86	2.91
424.064	3.05
424.268	3.09
424.471	3.16
424.675	3.32
424.878	3.35
425.082	3.42
425.285	3.69
425.489	3.6
425.692	3.61
425.896	3.65
426.099	3.84
426.303	3.88
426.506	3.99
426.71	4.21
426.913	4.35
427.116	4.4
427.32	4.37
427.523	4.53
427.726	4.75
427.93	4.69
428.133	4.91
428.336	5.06
428.54	5.15
428.743	5.39
428.946	5.41
429.149	5.38
429.353	5.42
429.556	5.56
429.759	5.56
429.962	5.6
430.165	5.74
430.368	5.48
430.571	5.54
430.775	5.53
430.978	5.5
431.181	5.55
431.384	5.62
431.587	5.66
431.79	6.04
431.993	5.92
432.196	6.06
432.399	6.34
432.602	6.48
432.805	6.51
433.008	6.93
433.211	6.75
433.414	7.01
433.616	7
433.819	6.98
434.022	7.08
434.225	7.3
434.428	7.29
434.631	7.54
434.833	7.4
435.036	7.54
435.239	7.73
435.442	7.68
435.645	7.8
435.847	7.94
436.05	8.15
436.253	8.22
436.455	8.32
436.658	8.24
436.861	8.44
437.063	8.5
437.266	8.44
437.468	8.78
437.671	9.04
437.874	9.07
438.076	8.96
438.279	9.21
438.481	9.27
438.684	9.89
438.886	9.52
439.089	9.69
439.291	9.74
439.494	10.09
439.696	10.11
439.899	10.58
440.101	10.92
440.303	11.03
440.506	11.51
440.708	11.27
440.91	11.54
441.113	11.69
441.315	11.93
441.517	11.67
441.72	12.05
441.922	11.88
442.124	11.81
442.326	12.09
442.529	12.29
442.731	12.26
442.933	12.49
443.135	12.34
443.337	12.35
443.539	12.73
443.742	12.57
443.944	13.09
444.146	12.86
444.348	12.81
444.55	12.75
444.752	13
444.954	12.9
445.156	12.83
445.358	13.1
445.56	13.33
445.762	13.3
445.964	13.52
446.166	13.26
446.368	13.2
446.57	13.33
446.772	13.01
446.974	12.78
447.175	13.04
447.377	12.9
447.579	13.12
447.781	13.01
447.983	12.79
448.184	12.43
448.386	12.69
448.588	12.31
448.79	12.29
448.991	12.58
449.193	12.46
449.395	11.97
449.597	11.79
449.798	11.75
450	11.31
450.202	11.26
450.403	11.22
450.605	11.25
450.806	10.94
451.008	10.78
451.21	10.72
451.411	10.26
451.613	9.85
451.814	9.92
452.016	9.91
452.217	9.37
452.419	9.44
452.62	9.09
452.821	8.96
453.023	8.94
453.224	8.53
453.426	8.24
453.627	7.85
453.828	7.94
454.03	7.84
454.231	7.74
454.432	7.71
454.634	7.48
454.835	7.28
455.036	7.21
455.238	6.92
455.439	6.79
455.64	6.53
455.841	6.39
456.042	6.54
456.244	6.36
456.445	6.11
456.646	5.79
456.847	5.7
457.048	5.82
457.249	5.8
457.45	5.72
457.651	5.29
457.852	5.18
458.054	4.93
458.255	4.89
458.456	4.92
458.657	4.88
458.858	4.57
459.058	4.52
459.259	4.58
459.46	4.35
459.661	4.39
459.862	4.37
460.063	4.35
460.264	4.25
460.465	3.98
460.666	4.2
460.866	3.94
461.067	3.77
461.268	3.72
461.469	3.7
461.67	3.64
461.87	3.55
462.071	3.55
462.272	3.46
462.473	3.52
462.673	3.5
462.874	3.51
463.075	3.55
463.275	3.35
463.476	3.52
463.676	3.45
463.877	3.35
464.078	3.36
464.278	3.4
464.479	3.29
464.679	3.15
464.88	3.19
465.08	3.11
465.281	3.08
465.481	2.92
465.682	2.88
465.882	2.82
466.083	2.81
466.283	2.66
466.483	2.68
466.684	2.52
466.884	2.39
467.085	2.47
467.285	2.47
467.485	2.34
467.686	2.38
467.886	2.24
468.086	2.22
468.286	2.23
468.487	2.28
468.687	2.17
468.887	2.17
469.087	2.25
469.287	2.19
469.488	2.04
469.688	2.18
469.888	2.13
470.088	2.14
470.288	2.05
470.488	2.04
470.688	1.91
470.888	1.89
471.088	1.81
471.288	1.85
471.488	1.87
471.688	1.81
471.888	1.74
472.088	1.91
472.288	1.84
472.488	1.79
472.688	1.71
472.888	1.71
473.088	1.71
473.288	1.63
473.488	1.66
473.688	1.75
473.887	1.66
474.087	1.56
474.287	1.63
474.487	1.57
474.687	1.64
474.886	1.51
475.086	1.53
475.286	1.52
475.486	1.47
475.685	1.5
475.885	1.44
476.085	1.53
476.284	1.51
476.484	1.5
476.684	1.48
476.883	1.56
477.083	1.47
477.282	1.39
477.482	1.46
477.681	1.44
477.881	1.36
478.08	1.37
478.28	1.37
478.479	1.43
478.679	1.42
478.878	1.35
479.078	1.36
479.277	1.4
479.477	1.38
479.676	1.34
479.875	1.35
480.075	1.3
480.274	1.35
480.473	1.39
480.673	1.32
480.872	1.4
481.071	1.37
481.271	1.35
481.47	1.34
481.669	1.36
481.868	1.33
482.067	1.33
482.267	1.3
482.466	1.26
482.665	1.25
482.864	1.3
483.063	1.27
483.262	1.36
483.461	1.39
483.661	1.4
483.86	1.35
484.059	1.39
484.258	1.34
484.457	1.34
484.656	1.34
484.855	1.38
485.054	1.24
485.253	1.34
485.452	1.32
485.651	1.4
485.849	1.36
486.048	1.34
486.247	1.39
486.446	1.41
486.645	1.34
486.844	1.38
487.043	1.36
487.241	1.43
487.44	1.42
487.639	1.42
487.838	1.46
488.037	1.42
488.235	1.52
488.434	1.45
488.633	1.37
488.831	1.53
489.03	1.5
489.229	1.51
489.427	1.51
489.626	1.52
489.825	1.52
490.023	1.55
490.222	1.55
490.42	1.62
490.619	1.63
490.817	1.6
491.016	1.6
491.214	1.68
491.413	1.65
491.611	1.6
491.81	1.63
492.008	1.68
492.207	1.77
492.405	1.77
492.604	1.66
492.802	1.73
493	1.78
493.199	1.81
493.397	1.86
493.595	1.88
493.794	1.85
493.992	1.96
494.19	1.89
494.388	1.96
494.587	1.89
494.785	1.93
494.983	1.89
495.181	1.98
495.379	2.01
495.578	2.04
495.776	2.08
495.974	2.05
496.172	2.04
496.37	2.16
496.568	2.18
496.766	2.12
496.964	2.24
497.162	2.2
497.36	2.24
497.558	2.27
497.756	2.32
497.954	2.3
498.152	2.35
498.35	2.4
498.548	2.32
498.746	2.4
498.944	2.39
499.142	2.42
499.34	2.49
499.538	2.54
499.736	2.46
499.933	2.58
500.131	2.56
500.329	2.69
500.527	2.68
500.725	2.76
500.922	2.7
501.12	2.72
501.318	2.8
501.516	2.77
501.713	2.86
501.911	2.86
502.109	2.8
502.306	2.92
502.504	2.81
502.701	2.9
502.899	2.91
503.097	3.1
503.294	2.98
503.492	3.06
503.689	3.11
503.887	3.1
504.084	3.2
504.282	3.13
504.479	3.13
504.677	3.23
504.874	3.24
505.072	3.16
505.269	3.32
505.466	3.34
505.664	3.36
505.861	3.3
506.059	3.38
506.256	3.39
506.453	3.44
506.651	3.46
506.848	3.63
507.045	3.55
507.242	3.53
507.44	3.58
507.637	3.65
507.834	3.62
508.031	3.76
508.229	3.65
508.426	3.62
508.623	3.77
508.82	3.74
509.017	3.76
509.214	3.75
509.411	3.88
509.608	3.81
509.805	3.93
510.003	3.86
510.2	3.9
510.397	4.08
510.594	3.94
510.791	4.03
510.988	4.08
511.184	4.01
511.381	3.98
511.578	4.05
511.775	4.15
511.972	4.09
512.169	4.17
512.366	4.16
512.563	4.24
512.76	4.28
512.956	4.33
513.153	4.23
513.35	4.23
513.547	4.26
513.744	4.28
513.94	4.28
514.137	4.39
514.334	4.38
514.53	4.42
514.727	4.5
514.924	4.49
515.12	4.43
515.317	4.42
515.514	4.42
515.71	4.44
515.907	4.59
516.103	4.57
516.3	4.52
516.497	4.63
516.693	4.6
516.89	4.61
517.086	4.62
517.283	4.71
517.479	4.6
517.676	4.74
517.872	4.75
518.068	4.74
518.265	4.7
518.461	4.72
518.658	4.78
518.854	4.78
519.05	4.86
519.247	4.88
519.443	4.84
519.639	4.93
519.836	4.86
520.032	4.78
520.228	4.91
520.424	4.89
520.621	4.94
520.817	5
521.013	4.95
521.209	5.07
521.405	5.07
521.601	5.02
521.798	5.02
521.994	5.04
522.19	4.97
522.386	5.02
522.582	5.06
522.778	5.17
522.974	5.05
523.17	5.09
523.366	5.07
523.562	5.15
523.758	5.13
523.954	5.02
524.15	5.12
524.346	5.2
524.542	5.15
524.738	5.15
524.934	5.28
525.129	5.25
525.325	5.17
525.521	5.2
525.717	5.38
525.913	5.25
526.109	5.18
526.304	5.36
526.5	5.32
526.696	5.31
526.892	5.26
527.087	5.4
527.283	5.38
527.479	5.38
527.674	5.22
527.87	5.38
528.066	5.33
528.261	5.41
528.457	5.27
528.653	5.44
528.848	5.46
529.044	5.48
529.239	5.31
529.435	5.35
529.63	5.33
529.826	5.41
530.021	5.37
530.217	5.42
530.412	5.43
530.608	5.41
530.803	5.41
530.999	5.39
531.194	5.43
531.389	5.53
531.585	5.48
531.78	5.59
531.975	5.49
532.171	5.55
532.366	5.53
532.561	5.52
532.757	5.5
532.952	5.63
533.147	5.44
533.342	5.55
533.538	5.45
533.733	5.65
533.928	5.43
534.123	5.51
534.318	5.53
534.513	5.53
534.709	5.62
534.904	5.54
535.099	5.61
535.294	5.61
535.489	5.66
535.684	5.62
535.879	5.58
536.074	5.67
536.269	5.65
536.464	5.73
536.659	5.58
536.854	5.63
537.049	5.65
537.244	5.63
537.439	5.67
537.634	5.64
537.828	5.67
538.023	5.64
538.218	5.62
538.413	5.55
538.608	5.63
538.803	5.59
538.997	5.59
539.192	5.64
539.387	5.63
539.582	5.66
539.776	5.63
539.971	5.74
540.166	5.69
540.36	5.62
540.555	5.74
540.75	5.63
540.944	5.71
541.139	5.7
541.334	5.66
541.528	5.71
541.723	5.73
541.917	5.75
542.112	5.63
542.306	5.57
542.501	5.63
542.695	5.66
542.89	5.61
543.084	5.68
543.279	5.73
543.473	5.72
543.668	5.69
543.862	5.59
544.056	5.61
544.251	5.73
544.445	5.72
544.64	5.78
544.834	5.55
545.028	5.46
545.222	5.72
545.417	5.82
545.611	5.73
545.805	5.73
546	5.55
546.194	5.77
546.388	5.69
546.582	5.69
546.776	5.66
546.97	5.74
547.165	5.71
547.359	5.71
547.553	5.68
547.747	5.73
547.941	5.85
548.135	5.72
548.329	5.77
548.523	5.75
548.717	5.7
548.911	5.67
549.105	5.69
549.299	5.8
549.493	5.74
549.687	5.66
549.881	5.76
550.075	5.74
550.269	5.69
550.463	5.72
550.657	5.76
550.85	5.74
551.044	5.71
551.238	5.74
551.432	5.74
551.626	5.8
551.82	5.81
552.013	5.67
552.207	5.81
552.401	5.86
552.594	5.72
552.788	5.68
552.982	5.75
553.176	5.63
553.369	5.87
553.563	5.75
553.756	5.72
553.95	5.78
554.144	5.76
554.337	5.77
554.531	5.61
554.724	5.75
554.918	5.76
555.111	5.75
555.305	5.76
555.498	5.74
555.692	5.85
555.885	5.75
556.079	5.72
556.272	5.77
556.466	5.74
556.659	5.69
556.852	5.78
557.046	5.69
557.239	5.63
557.432	5.73
557.626	5.76
557.819	5.84
558.012	5.77
558.206	5.84
558.399	5.75
558.592	5.75
558.785	5.69
558.979	5.72
559.172	5.74
559.365	5.76
559.558	5.74
559.751	5.7
559.944	5.81
560.138	5.74
560.331	5.72
560.524	5.76
560.717	5.8
560.91	5.73
561.103	5.8
561.296	5.62
561.489	5.79
561.682	5.85
561.875	5.72
562.068	5.84
562.261	5.71
562.454	5.9
562.647	5.73
562.84	5.81
563.032	5.83
563.225	5.72
563.418	5.72
563.611	5.79
563.804	5.81
563.997	5.71
564.19	5.54
564.382	5.84
564.575	5.81
564.768	5.74
564.961	5.78
565.153	5.65
565.346	5.66
565.539	5.76
565.731	5.71
565.924	5.8
566.117	5.86
566.309	5.71
566.502	5.72
566.695	5.68
566.887	5.75
567.08	5.73
567.272	5.78
567.465	5.69
567.657	5.8
567.85	5.61
568.042	5.8
568.235	5.77
568.427	5.61
568.62	5.73
568.812	5.68
569.005	5.76
569.197	5.58
569.389	5.74
569.582	5.75
569.774	5.77
569.966	5.61
570.159	5.66
570.351	5.65
570.543	5.66
570.736	5.7
570.928	5.57
571.12	5.71
571.312	5.65
571.505	5.49
571.697	5.71
571.889	5.67
572.081	5.7
572.273	5.65
572.465	5.69
572.658	5.68
572.85	5.75
573.042	5.7
573.234	5.59
573.426	5.66
573.618	5.62
573.81	5.68
574.002	5.64
574.194	5.7
574.386	5.57
574.578	5.48
574.77	5.63
574.962	5.64
575.154	5.57
575.346	5.59
575.538	5.52
575.729	5.57
575.921	5.61
576.113	5.65
576.305	5.65
576.497	5.67
576.689	5.56
576.88	5.5
577.072	5.62
577.264	5.6
577.456	5.61
577.647	5.53
577.839	5.65
578.031	5.59
578.223	5.53
578.414	5.53
578.606	5.6
578.798	5.57
578.989	5.56
579.181	5.63
579.372	5.56
579.564	5.56
579.755	5.54
579.947	5.49
580.139	5.53
580.33	5.45
580.522	5.51
580.713	5.5
580.905	5.47
581.096	5.57
581.287	5.5
581.479	5.47
581.67	5.56
581.862	5.48
582.053	5.5
582.244	5.36
582.436	5.56
582.627	5.52
582.818	5.43
583.01	5.46
583.201	5.51
583.392	5.48
583.583	5.39
583.775	5.3
583.966	5.43
584.157	5.43
584.348	5.48
584.54	5.38
584.731	5.4
584.922	5.35
585.113	5.29
585.304	5.4
585.495	5.38
585.686	5.43
585.877	5.46
586.068	5.47
586.259	5.35
586.45	5.39
586.641	5.32
586.832	5.38
587.023	5.4
587.214	5.37
587.405	5.38
587.596	5.26
587.787	5.25
587.978	5.32
588.169	5.23
588.36	5.21
588.551	5.3
588.742	5.26
588.932	5.35
589.123	5.14
589.314	5.32
589.505	5.2
589.696	5.21
589.886	5.27
590.077	5.23
590.268	5.19
590.458	5.11
590.649	5.02
590.84	5.23
591.03	5.17
591.221	5.21
591.412	5.05
591.602	5.25
591.793	5.12
591.984	5.14
592.174	5.15
592.365	5.29
592.555	5.08
592.746	5.12
592.936	5.13
593.127	5.18
593.317	5.19
593.508	5.11
593.698	5.07
593.889	5.04
594.079	5.05
594.269	5.03
594.46	5.03
594.65	5.04
594.84	5.01
595.031	4.94
595.221	4.98
595.411	5
595.602	5
595.792	4.94
595.982	4.91
596.172	5.02
596.363	4.94
596.553	4.93
596.743	4.97
596.933	4.92
597.123	4.97
597.314	4.84
597.504	4.8
597.694	4.95
597.884	4.9
598.074	4.96
598.264	4.84
598.454	4.85
598.644	4.85
598.834	4.83
599.024	4.74
599.214	4.78
599.404	4.86
599.594	4.79
599.784	4.77
599.974	4.81
600.164	4.73
600.354	4.73
600.544	4.68
600.734	4.76
600.924	4.67
601.114	4.64
601.303	4.68
601.493	4.67
601.683	4.73
601.873	4.65
602.063	4.6
602.252	4.7
602.442	4.59
602.632	4.61
602.821	4.56
603.011	4.64
603.201	4.56
603.39	4.5
603.58	4.43
603.77	4.59
603.959	4.58
604.149	4.52
604.339	4.55
604.528	4.62
604.718	4.56
604.907	4.45
605.097	4.49
605.286	4.42
605.476	4.5
605.665	4.48
605.855	4.39
606.044	4.51
606.234	4.49
606.423	4.41
606.612	4.37
606.802	4.31
606.991	4.43
607.181	4.47
607.37	4.37
607.559	4.21
607.749	4.39
607.938	4.25
608.127	4.32
608.316	4.31
608.506	4.3
608.695	4.35
608.884	4.26
609.073	4.27
609.263	4.36
609.452	4.28
609.641	4.15
609.83	4.09
610.019	4.23
610.208	4.16
610.397	4.18
610.586	4.2
610.775	4.13
610.965	4.12
611.154	4.11
611.343	4.1
611.532	4.06
611.721	4.14
611.91	4.09
612.099	4.08
612.287	4.03
612.476	3.98
612.665	4.06
612.854	3.97
613.043	4.03
613.232	4
613.421	3.95
613.61	3.99
613.798	3.94
613.987	3.92
614.176	3.9
614.365	3.93
614.554	3.92
614.742	4.07
614.931	3.83
615.12	3.96
615.309	3.87
615.497	3.84
615.686	3.72
615.875	3.79
616.063	3.79
616.252	3.81
616.44	3.85
616.629	3.8
616.818	3.75
617.006	3.75
617.195	3.68
617.383	3.79
617.572	3.69
617.76	3.7
617.949	3.71
618.137	3.69
618.326	3.73
618.514	3.58
618.703	3.54
618.891	3.68
619.079	3.61
619.268	3.66
619.456	3.55
619.644	3.6
619.833	3.52
620.021	3.53
620.209	3.49
620.398	3.59
620.586	3.5
620.774	3.55
620.962	3.51
621.151	3.62
621.339	3.48
621.527	3.42
621.715	3.42
621.903	3.43
622.092	3.37
622.28	3.42
622.468	3.37
622.656	3.41
622.844	3.38
623.032	3.42
623.22	3.27
623.408	3.43
623.596	3.36
623.784	3.39
623.972	3.28
624.16	3.29
624.348	3.36
624.536	3.36
624.724	3.27
624.912	3.28
625.1	3.32
625.288	3.29
625.476	3.15
625.664	3.24
625.851	3.17
626.039	3.21
626.227	3.21
626.415	3.19
626.603	3.15
626.79	3.21
626.978	3.19
627.166	3.16
627.354	3.11
627.541	3.07
627.729	2.96
627.917	3.23
628.104	3.16
628.292	3.06
628.48	3.08
628.667	3.01
628.855	3.04
629.042	3.13
629.23	3.03
629.418	3.02
629.605	3.03
629.793	2.93
629.98	2.93
630.168	2.95
630.355	2.99
630.543	3
630.73	2.89
630.917	2.94
631.105	2.99
631.292	2.92
631.48	2.88
631.667	2.97
631.854	2.83
632.042	2.83
632.229	2.81
632.416	2.83
632.604	2.78
632.791	2.73
632.978	2.87
633.165	2.81
633.353	2.82
633.54	2.87
633.727	2.68
633.914	2.75
634.101	2.65
634.289	2.79
634.476	2.67
634.663	2.66
634.85	2.72
635.037	2.59
635.224	2.63
635.411	2.71
635.598	2.63
635.785	2.62
635.972	2.59
636.159	2.65
636.346	2.6
636.533	2.54
636.72	2.58
636.907	2.57
637.094	2.59
637.281	2.49
637.468	2.5
637.655	2.57
637.842	2.56
638.029	2.46
638.215	2.51
638.402	2.51
638.589	2.43
638.776	2.46
638.963	2.38
639.149	2.51
639.336	2.5
639.523	2.43
639.709	2.42
639.896	2.41
640.083	2.41
640.27	2.46
640.456	2.36
640.643	2.37
640.829	2.29
641.016	2.34
641.203	2.26
641.389	2.31
641.576	2.32
641.762	2.31
641.949	2.28
642.135	2.27
642.322	2.27
642.508	2.19
642.695	2.23
642.881	2.17
643.068	2.18
643.254	2.19
643.441	2.27
643.627	2.22
643.813	2.17
644	2.23
644.186	2.08
644.372	2.16
644.559	2.18
644.745	2.13
644.931	2.09
645.118	2.17
645.304	2.12
645.49	2.1
645.676	2.08
645.862	2.06
646.049	2.12
646.235	2.03
646.421	2.13
646.607	2.14
646.793	1.99
646.979	1.99
647.165	2.07
647.352	2.06
647.538	2.03
647.724	1.97
647.91	1.98
648.096	2.02
648.282	2
648.468	1.94
648.654	2
648.84	1.96
649.026	1.93
649.212	1.93
649.397	1.89
649.583	1.86
649.769	1.97
649.955	1.92
650.141	1.94
650.327	1.91
650.513	1.87
650.698	1.85
650.884	1.76
651.07	1.85
651.256	1.87
651.442	1.81
651.627	1.73
651.813	1.85
651.999	1.8
652.184	1.83
652.37	1.77
652.556	1.75
652.741	1.8
652.927	1.65
653.113	1.76
653.298	1.77
653.484	1.73
653.669	1.68
653.855	1.67
654.04	1.74
654.226	1.71
654.412	1.73
654.597	1.61
654.782	1.72
654.968	1.66
655.153	1.67
655.339	1.66
655.524	1.65
655.71	1.66
655.895	1.61
656.08	1.62
656.266	1.64
656.451	1.58
656.636	1.54
656.822	1.54
657.007	1.6
657.192	1.58
657.378	1.55
657.563	1.55
657.748	1.54
657.933	1.56
658.118	1.52
658.304	1.53
658.489	1.6
658.674	1.53
658.859	1.47
659.044	1.48
659.229	1.57
659.414	1.5
659.599	1.44
659.785	1.48
659.97	1.5
660.155	1.45
660.34	1.5
660.525	1.44
660.71	1.4
660.895	1.48
661.08	1.42
661.264	1.38
661.449	1.49
661.634	1.41
661.819	1.44
662.004	1.43
662.189	1.35
662.374	1.36
662.559	1.39
662.743	1.32
662.928	1.4
663.113	1.38
663.298	1.29
663.483	1.36
663.667	1.36
663.852	1.32
664.037	1.38
664.221	1.32
664.406	1.42
664.591	1.34
664.775	1.32
664.96	1.3
665.145	1.27
665.329	1.33
665.514	1.29
665.698	1.29
665.883	1.19
666.068	1.35
666.252	1.26
666.437	1.26
666.621	1.27
666.806	1.23
666.99	1.23
667.174	1.22
667.359	1.31
667.543	1.23
667.728	1.18
667.912	1.12
668.096	1.19
668.281	1.16
668.465	1.2
668.649	1.2
668.834	1.12
669.018	1.2
669.202	1.17
669.387	1.16
669.571	1.22
669.755	1.12
669.939	1.12
670.124	1.18
670.308	1.19
670.492	1.14
670.676	1.12
670.86	1.13
671.044	1.09
671.228	1.16
671.413	1.1
671.597	1.06
671.781	1.11
671.965	1.17
672.149	1.06
672.333	1.11
672.517	1.02
672.701	1.09
672.885	1.07
673.069	0.98
673.253	1.1
673.437	1.05
673.621	0.99
673.804	1.06
673.988	1.04
674.172	1.04
674.356	0.94
674.54	1.03
674.724	1.1
674.908	0.97
675.091	1.07
675.275	1.05
675.459	1.05
675.643	1.02
675.826	1.02
676.01	1.01
676.194	0.98
676.377	1.04
676.561	1.03
676.745	1.03
676.928	0.94
677.112	1.04
677.296	0.93
677.479	0.93
677.663	0.94
677.846	0.96
678.03	0.95
678.213	0.87
678.397	0.95
678.58	0.9
678.764	0.97
678.947	0.9
679.131	0.91
679.314	0.92
679.498	0.94
679.681	0.97
679.865	0.99
680.048	0.88
680.231	0.86
680.415	0.85
680.598	0.85
680.781	0.88
680.965	0.9
681.148	0.88
681.331	0.79
681.514	0.87
681.698	0.82
681.881	0.89
682.064	0.85
682.247	0.88
682.43	0.8
682.614	0.84
682.797	0.86
682.98	0.88
683.163	0.75
683.346	0.83
683.529	0.77
683.712	0.79
683.895	0.78
684.078	0.73
684.261	0.79
684.444	0.76
684.627	0.88
684.81	0.71
684.993	0.85
685.176	0.83
685.359	0.76
685.542	0.77
685.725	0.85
685.908	0.84
686.091	0.77
686.274	0.83
686.457	0.77
686.639	0.76
686.822	0.8
687.005	0.73
687.188	0.8
687.371	0.85
687.553	0.84
687.736	0.73
687.919	0.83
688.102	0.81
688.284	0.72
688.467	0.73
688.65	0.67
688.832	0.65
689.015	0.72
689.197	0.7
689.38	0.79
689.563	0.78
689.745	0.69
689.928	0.68
690.11	0.71
690.293	0.69
690.475	0.59
690.658	0.73
690.84	0.68
691.023	0.66
691.205	0.62
691.388	0.7
691.57	0.73
691.752	0.72
691.935	0.63
692.117	0.66
692.3	0.66
692.482	0.69
692.664	0.65
692.847	0.65
693.029	0.76
693.211	0.7
693.393	0.65
693.576	0.59
693.758	0.63
693.94	0.66
694.122	0.7
694.304	0.57
694.487	0.58
694.669	0.68
694.851	0.53
695.033	0.61
695.215	0.58
695.397	0.59
695.579	0.63
695.761	0.55
695.943	0.51
696.125	0.69
696.308	0.62
696.49	0.48
696.671	0.72
696.853	0.62
697.035	0.86
697.217	0.61
697.399	0.63
697.581	0.55
697.763	0.63
697.945	0.56
698.127	0.6
698.309	0.64
698.491	0.59
698.672	0.53
698.854	0.66
699.036	0.66
699.218	0.57
699.399	0.58
699.581	0.62
699.763	0.54
699.945	0.51
700.126	0.46
700.308	0.52
700.49	0.51
700.671	0.47
700.853	0.56
701.035	0.52
701.216	0.59
701.398	0.48
701.579	0.52
701.761	0.62
701.943	0.5
702.124	0.49
702.306	0.5
702.487	0.74
702.669	0.57
702.85	0.48
703.031	0.44
703.213	0.65
703.394	0.65
703.576	0.46
703.757	0.62
703.938	0.61
704.12	0.68
704.301	0.52
704.483	0.5
704.664	0.53
704.845	0.6
705.026	0.48
705.208	0.47
705.389	0.49
705.57	0.48
705.751	0.52
705.933	0.46
706.114	0.59
706.295	0.51
706.476	0.33
706.657	0.58
706.838	0.53
707.02	0.52
707.201	0.41
707.382	0.4
707.563	0.49
707.744	0.47
707.925	0.41
708.106	0.4
708.287	0.51
708.468	0.62
708.649	0.48
708.83	0.48
709.011	0.4
709.192	0.56
709.373	0.38
709.554	0.46
709.734	0.55
709.915	0.55
710.096	0.45
710.277	0.32
710.458	0.46
710.639	0.51
710.819	0.34
711	0.47
711.181	0.49
711.362	0.58
711.542	0.46
711.723	0.42
711.904	0.53
712.085	0.49
712.265	0.42
712.446	0.35
712.627	0.4
712.807	0.4
712.988	0.39
713.168	0.34
713.349	0.45
713.53	0.24
713.71	0.3
713.891	0.32
714.071	0.38
714.252	0.34
714.432	0.33
714.613	0.32
714.793	0.4
714.974	0.55
715.154	0.47
715.334	0.46
715.515	0.51
715.695	0.34
715.876	0.41
716.056	0.38
716.236	0.4
716.417	0.33
716.597	0.31
716.777	0.58
716.957	0.45
717.138	0.45
717.318	0.34
717.498	0.28
717.678	0.43
717.859	0.42
718.039	0.3
718.219	0.36
718.399	0.39
718.579	0.29
718.759	0.3
718.939	0.44
719.12	0.45
719.3	0.38
719.48	0.32
719.66	0.25
719.84	0.5
720.02	0.38
720.2	0.25
720.38	0.38
720.56	0.53
720.74	0.29
720.92	0.36
721.1	0.49
721.279	0.44
721.459	0.32
721.639	0.28
721.819	0.33
721.999	0.3
722.179	0.41
722.359	0.18
722.538	0.31
722.718	0.35
722.898	0.35
723.078	0.29
723.257	0.3
723.437	0.38
723.617	0.35
723.797	0.36
723.976	0.35
724.156	0.38
724.336	0.52
724.515	0.49
724.695	0.2
724.874	0.32
725.054	0.41
725.234	0.26
725.413	0.34
725.593	0.34
725.772	0.33
725.952	0.35
726.131	0.3
726.311	0.32
726.49	0.37
726.67	0.3
726.849	0.32
727.028	0.31
727.208	0.31
727.387	0.34
727.567	0.3
727.746	0.33
727.925	0.23
728.105	0.22
728.284	0.2
728.463	0.28
728.643	0.3
728.822	0.17
729.001	0.23
729.18	0.34
729.359	0.32
729.539	0.27
729.718	0.3
729.897	0.41
730.076	0.3
730.255	0.23
730.434	0.29
730.614	0.35
730.793	0.45
730.972	0.25
731.151	0.31
731.33	0.4
731.509	0.31
731.688	0.23
731.867	0.29
732.046	0.15
732.225	0.63
732.404	0.22
732.583	0.17
732.762	0.26
732.941	0.38
733.12	0.34
733.298	0.33
733.477	0.36
733.656	0.31
733.835	0.24
734.014	0.39
734.193	0.35
734.371	0.35
734.55	0.33
734.729	0.21
734.908	0.37
735.086	0.25
735.265	0.42
735.444	0.14
735.623	0.18
735.801	0.26
735.98	0.25
736.159	0.25
736.337	0.32
736.516	0.27
736.694	0.43
736.873	0.19
737.052	0.47
737.23	0.39
737.409	0.3
737.587	0.51
737.766	0.13
737.944	0.3
738.123	0.36
738.301	0.42
738.479	0.34
738.658	0.28
738.836	0.04
739.015	0.28
739.193	0.4
739.371	0.22
739.55	0.3
739.728	0.24
739.906	0.56
740.085	0.43
740.263	0.27
740.441	0.16
740.62	0.56
740.798	0.34
740.976	0.21
741.154	0.09
741.332	0.49
741.511	0.34
741.689	0.27
741.867	0.27
742.045	0.4
742.223	0.27
742.401	0.17
742.579	0.1
742.757	0.48
742.935	0.08
743.114	0.2
743.292	0.13
743.47	0.3
743.648	0.37
743.826	0.04
744.004	0.37
744.181	0.4
744.359	0.27
744.537	0.3
744.715	0.18
744.893	0.4
745.071	0.43
745.249	0.23
745.427	0.33
745.605	0.29
745.782	0.31
745.96	0.35
746.138	0.36
746.316	0.37
746.493	0.18
746.671	0.26
746.849	0.22
747.027	0.41
747.204	0.15
747.382	0.23
747.56	0.1
747.737	0.35
747.915	0.17
748.093	0.31
748.27	0.18
748.448	0.33
748.625	0.03
748.803	0.21
748.98	0.08
749.158	0.41
749.335	0.26
749.513	0.23
749.69	0.14
749.868	0.26
750.045	0.35
750.223	0.18
750.4	0.05
750.578	0.38
750.755	0.17
750.932	0.03
751.11	0.37
751.287	0.15
751.464	0.33
751.642	0.15
751.819	0.23
751.996	0.33
752.173	0.2
752.351	0.14
752.528	0.27
752.705	0.29
752.882	0.11
753.06	0.21
753.237	0.31
753.414	0.44
753.591	0.52
753.768	0.25
753.945	0.18
754.122	0.13
754.299	0.31
754.476	0.14
754.654	0.3
754.831	0.32
755.008	0.3
755.185	0.09
755.362	0.27
755.539	0.31
755.716	0.17
755.892	0.22
756.069	0.22
756.246	0.28
756.423	0.18
756.6	0.37
756.777	0.23
756.954	0.29
757.131	0.24
757.307	0.07
757.484	0.17
757.661	0.19
757.838	0.17
758.015	0.09
758.191	0.23
758.368	0.17
758.545	0.42
758.721	0.23
758.898	0.04
759.075	0.38
759.251	0.38
759.428	0.3
759.605	0.12
759.781	0.22
759.958	0.32
760.134	0.24
760.311	0.18
760.488	0.38
760.664	0.36
760.841	0.2
761.017	0.1
761.194	0.31
761.37	0.29
761.547	0.32
761.723	0.2
761.899	0.38
762.076	0.11
762.252	0.05
762.429	0.06
762.605	0.39
762.781	0.25
762.958	0.22
763.134	0.15
763.31	0.14
763.486	0.2
763.663	0.11
763.839	0.21
764.015	0.12
764.191	0.1
764.368	0.33
764.544	0.21
764.72	0.26
764.896	0.36
765.072	0.37
765.248	0.12
765.425	0.22
765.601	0.29
765.777	0.21
765.953	-0.06
766.129	0.21
766.305	0.06
766.481	0.32
766.657	0.36
766.833	0.39
767.009	0.11
767.185	0.1
767.361	0.14
767.537	0.05
767.713	0.51
767.889	0.17
768.065	0.18
768.24	0.34
768.416	0.39
768.592	0.09
768.768	0.2
768.944	0.24
769.12	0.12
769.295	0.22
769.471	0.26
769.647	0.18
769.823	0.61
769.998	0.25
770.174	0.11
770.35	0.69
770.525	0.58
770.701	0.26
770.877	0.12
771.052	0.05
771.228	0.46
771.403	0.27
771.579	0.25
771.755	0.53
771.93	0.15
772.106	0.07
772.281	-0.04
772.457	0.33
772.632	0.19
772.808	0.13
772.983	0.1
773.159	-0.02
773.334	0.45
773.509	0.3
773.685	0.16
773.86	0.45
774.036	0.59
774.211	0.22
774.386	0.08
774.562	0.3
774.737	0.28
774.912	0.14
775.087	0.42
775.263	0.23
775.438	0.24
775.613	-0.02
775.788	0.22
775.964	0.33
776.139	0.62
776.314	-0.01
776.489	0.33
776.664	0.26
776.839	0.13
777.014	0.37
777.19	0.38
777.365	0.64
777.54	0.54
777.715	0.05
777.89	0.12
778.065	-0.04
778.24	0.14
778.415	0.27
778.59	-0.03
778.765	0.17
778.94	0.24
779.115	0.22
779.289	0.2
779.464	0.31
779.639	0.3
779.814	-0.01
779.989	0.07
780.164	0.31
780.339	0.22
780.513	0.19
780.688	0.05
780.863	0.29
781.038	0.4
781.212	0.04
781.387	0.29
781.562	0.56
781.737	0.08
781.911	0.31
782.086	0.26
782.261	0.2
782.435	0.41
782.61	0.27
782.784	0.31
782.959	0.46
783.134	0.09
783.308	-0.08
783.483	0.21
783.657	0.6
783.832	0.19
784.006	0.07
784.181	0.28
784.355	0.48
784.53	0.1
784.704	0.11
784.878	0.4
785.053	0.41
785.227	0.4
785.402	0.62
785.576	0.12
785.75	0.18
785.925	0.24
786.099	0.25
786.273	0.23
786.448	0.47
786.622	0.19
786.796	0.1
786.97	0.37
787.145	0.84
787.319	-0.12
787.493	0.28
787.667	-0.09
787.841	0.36
788.015	0.57
788.19	0.14
788.364	0.14
788.538	0.4
788.712	0.44
788.886	0.14
789.06	0.55
789.234	0.35
789.408	-0.03
789.582	0.11
789.756	0.14
789.93	-0.01
790.104	0.37
790.278	0.11
790.452	-0.08
790.626	0.32
790.8	0.09
790.973	0.36
791.147	0.34
791.321	0.57
791.495	0.4
791.669	0.34
791.843	0.27
792.016	0.51
792.19	0.76
792.364	0.04
792.538	0.97
792.711	0.47
792.885	0.2
793.059	0.02
793.233	-0.01
793.406	0.62
793.58	0.32
793.754	0.39
793.927	0.09
794.101	0.73
794.274	0.16
794.448	0.34
794.622	-0.19
794.795	0.53
794.969	0.14
795.142	0.59
795.316	0.16
795.489	-0.02
795.663	0.55
795.836	0.36
796.009	0.07
796.183	0.48
796.356	0.38
796.53	0.21
796.703	0.21
796.876	0.67
797.05	0.14
797.223	0.22
797.396	0.14
797.57	0.29
797.743	0.77
797.916	0.52
798.09	0.18
798.263	0.15
798.436	0.36
798.609	0.21
798.782	0.22
798.956	0.55
799.129	0.18
799.302	0.22
799.475	0.1
799.648	-0.08
799.821	0.13
799.994	0.15
800.167	0.03
800.34	0.15
800.514	0.28
800.687	-0.12
800.86	0.16
801.033	0.48
801.206	0.23
801.379	0.03
801.551	0.74
801.724	0.46
801.897	0.75
802.07	0.42
802.243	-0.25
802.416	0.38
802.589	0.34
802.762	0.27
802.935	0.4
803.107	0.62
803.28	0.56
803.453	0.58
803.626	0.12
803.798	0.14
803.971	0.17
804.144	0.01
804.317	0.5
804.489	0.33
804.662	0.5
804.835	0.41
805.007	-0.25
805.18	0.61
805.353	0.32
805.525	-0.01
805.698	0.03
805.87	0.8
806.043	0.66
806.215	-0.03
806.388	-0.07
806.56	0.12
806.733	0.71
806.905	0.08
807.078	-0.15
807.25	0.09
807.423	0.25
807.595	0.27
807.768	0.3
807.94	0.75
808.112	0.61
808.285	0.43
808.457	0.41
808.629	0.45
808.802	0.42
808.974	0.28
809.146	-0.12
809.318	-0.09
809.491	0.53
809.663	0.53
809.835	0.3
810.007	0.33
810.18	0.74
810.352	-0.17
810.524	0.29
810.696	0.34
810.868	0.9
811.04	0.36
811.212	0.26
811.384	0.88
811.556	0.37
811.728	0.35
811.901	1.52
812.073	0.27
812.245	0.63
812.417	0.22
812.589	-0.21
812.76	0.62
812.932	0.64
813.104	0.46
813.276	0.22
813.448	0.6
813.62	0.48
813.792	0.43
813.964	0.69
814.136	0.47
814.307	0.39
814.479	0.03
814.651	0.12
814.823	1.36
814.995	0.15
815.166	0.05
815.338	0.01
815.51	-0
815.681	1.11
815.853	0.36
816.025	0.04
816.196	1.08
816.368	0.95
816.54	0.16
816.711	0.01
816.883	0.8
817.054	1.19
817.226	-0.32
817.398	0.65
817.569	0.42
817.741	0.82
817.912	0.57
818.084	0.23
818.255	0.73
818.426	0.22
818.598	0.4
818.769	0.1
818.941	0.9
819.112	0.68
819.283	0.49
819.455	-0.29
819.626	0.64
819.798	0.37
819.969	0.31
820.14	0.03
820.311	0.34
820.483	0.34
820.654	0.47
820.825	0.18
820.996	0.1
821.168	-0.26
821.339	0.27
821.51	-0.19
821.681	0.11
821.852	0.29
822.023	0.24
822.195	-0.38
822.366	0.9
822.537	0.08
822.708	0.16
822.879	0.21
823.05	1.06
823.221	0.08
823.392	0.9
823.563	0.63
823.734	0.95
823.905	0.23
824.076	-0.3
824.247	-0.15
824.418	0.37
824.589	1.61
824.759	0.47
824.93	0.39
825.101	-0.18
825.272	0.74
825.443	1.03
825.614	0.8
825.784	-0.83
825.955	1.47
826.126	1.19
826.297	0.17
826.467	1.18
826.638	1.23
826.809	-0.5
826.98	0.09
827.15	0.79
827.321	0.24
827.492	1.34
827.662	0.38
827.833	1.49
828.003	0.81
828.174	0.24
828.345	-0.11
828.515	1.17
828.686	0.79
828.856	0.33
829.027	-0.02
829.197	0.48
829.368	0.48
829.538	-0.23
829.709	0.78
829.879	0.65
830.049	0.74
830.22	0.58
830.39	0.84
830.56	1.08
830.731	0.47
830.901	0.5
831.072	0.18
831.242	0.74
831.412	0.54
831.582	0.25
831.753	-0.58
831.923	0.77
832.093	0.8
832.263	0.29
832.434	0.45
832.604	0.6
832.774	0.44
832.944	0.01
833.114	-0.06
833.284	0.78
833.454	-0.02
833.624	0.33
833.795	0.23
833.965	0.89
834.135	1.23
834.305	-0.93
834.475	-0.46
834.645	0.32
834.815	-0.01
834.985	0.21
835.155	0.06
835.325	0.75
835.494	0.39
835.664	0.07
835.834	0.13
836.004	0.59
836.174	0.92
836.344	0.7
836.514	0.14
836.684	-0.09
836.853	0.19
837.023	0.8
837.193	0.35
837.363	1.75
837.532	0.71
837.702	0.15
837.872	0.15
838.041	0.95
838.211	1.75
838.381	-0.35
838.55	0.2
838.72	2.65
838.89	1.58
839.059	0.28
839.229	-0.11
839.398	2.81
839.568	1.1
839.738	0.6
839.907	1.7
840.077	1.17
840.246	-0.16
840.416	-0.25
840.585	-0.76
840.755	1.76
840.924	2.08
841.093	0.22
841.263	0.5
841.432	0.57
841.602	0.6
841.771	0.15
841.94	0.32
842.11	2.24
842.279	2.22
842.448	-1.25
842.617	-0.24
842.787	1.51
842.956	-0.3
843.125	0.75
843.294	0.16
843.464	1.68
843.633	0.44
843.802	-0.68
843.971	0.32
844.14	0.92
844.309	1.8
844.479	-0.99
844.648	0.03
844.817	0.06
844.986	0.69
845.155	0.27
845.324	0.22
845.493	0.21
845.662	-0.12
845.831	1.03
846	1.18
846.169	0.7
846.338	1.33
846.507	0.19
846.676	0.25
846.844	0.48
847.013	1.01
847.182	0.67
847.351	0.17
847.52	0.43
847.689	1.27
847.858	-0.24
848.026	-0.32
848.195	0.86
848.364	0.01
848.533	-1.01
848.701	0.25
848.87	0.59
849.039	1.69
849.207	0.64
849.376	0.93
849.545	2.01
849.713	0.72
849.882	0
850.051	0.74
850.219	1.01
850.388	1.88
850.556	0.15
850.725	0.1
850.893	0.41
851.062	0.89
851.23	1.49
851.399	0.07
851.567	0.59
851.736	0.41
851.904	-0.02
852.073	-0.07
852.241	2.31
852.41	0.55
852.578	0.68
852.746	0.26
852.915	1.76
853.083	0.53
853.251	-0.61
853.42	0.52
853.588	0.93
853.756	1.92
853.924	0.1
854.093	0.18
854.261	0.38
854.429	-1.66
854.597	0.8
854.765	-1.18
854.934	1.57
855.102	1.97
855.27	0.37
855.438	2.04
855.606	1.82
855.774	1.58
855.942	-0.16
856.11	-0.54
856.278	0.48
856.446	0.81
856.614	0.76
856.782	-0.21
856.95	1.21
857.118	1.61
857.286	0.67
857.454	0.05
857.622	2.37
857.79	0.98
857.958	-0.72
858.126	-0.91
858.294	-1.47
858.462	1.25
858.629	-0.5
858.797	-0.44
858.965	0.33
859.133	0.33
859.301	0.48
859.468	1.62
859.636	0.68
859.804	1.32
859.971	2.82
860.139	-0.62
860.307	1.77
860.474	1.12
860.642	-0.58
860.81	0.1
860.977	0.71
861.145	2.76
861.313	-0.58
861.48	0.59
861.648	3.68
861.815	-0.4
861.983	-0.89
862.15	0.14
862.318	1.27
862.485	1.55
862.653	0.28
862.82	-0.01
862.988	2.38
863.155	2.22
863.322	-0.6
863.49	0.73
863.657	0.89
863.824	3.3
863.992	1.1
864.159	1.41
864.326	2.6
864.494	-0.48
864.661	4.15
864.828	-0.4
864.996	1.86
865.163	2.26
865.33	-1.08
865.497	-1.19
865.664	0.07
865.832	-1.78
865.999	-0.66
866.166	-0.34
866.333	0.03
866.5	0.54
866.667	0.48
866.834	0.74
867.001	2.24
867.168	-1.53
867.335	0.31
867.502	-1.05
867.669	1.04
867.836	3.81
868.003	0.56
868.17	1.47
868.337	-1.05
868.504	3.81
868.671	-1.36
868.838	-0.76
869.005	1.38
869.172	2.24
869.339	0.71
869.505	0.14
869.672	1.58
869.839	2.3
870.006	1.28
870.173	-0.74
870.339	0.49
870.506	4.31
870.673	-1.83
870.84	2.57
871.006	-0.66
871.173	1.29
871.34	0.94
871.506	-1.44
871.673	2
871.839	0.77
872.006	0.38
872.173	-0.34
872.339	0.48
872.506	2.39
872.672	0.7
872.839	-0.5
873.005	3.15
873.172	4.54
873.338	1.97
873.505	-0.15
873.671	-0.03
873.838	3.2
874.004	-0.97
874.171	-0.75
874.337	2.24
874.503	2.82
874.67	0.98
874.836	0.61
875.002	3.39
875.169	1.98
875.335	1.19
875.501	0.42
875.668	2.1
875.834	0.18
876	0.25
876.166	1.88
876.332	2.28
876.499	4.39
876.665	-0.09
876.831	1.9
876.997	3.52
877.163	1.07
877.329	0.73
877.495	1.12
877.662	2.42
877.828	1.83
877.994	1.62
878.16	-0.9
878.326	-2.09
878.492	2.15
878.658	0.48
878.824	3.18
878.99	3.22
879.156	1.9
879.322	3.6
879.487	0.19
879.653	3.52
879.819	1.38
879.985	0.76
880.151	1.21
880.317	1.42
880.483	2.6
880.648	1.63
880.814	-1.88
880.98	0.98
881.146	-1.78
881.312	-1.01
881.477	-0.45
881.643	2.95
881.809	3.52
881.974	1.98
882.14	-0.75
882.306	1.79
882.471	1.43
882.637	-0.17
882.803	1.31
882.968	3.26
883.134	5.41
883.299	0.23
883.465	0.62
883.63	3.15
883.796	3.79
883.961	1.92
884.127	0.56
884.292	-3.6
884.458	-0.98
884.623	-0.98
