Data from Apollo_Calib_20240827__AbsoluteIrradiance__29__23-38-01-009.txt Node

Date: Tue Aug 27 23:38:01 BST 2024
User: biology
Spectrometer: FLMT08252
Trigger mode: 0
Integration Time (sec): 5.000000E-1
Scans to average: 5
Electric dark correction enabled: true
Nonlinearity correction enabled: false
Boxcar width: 0
XAxis mode: Wavelengths
Number of Pixels in Spectrum: 3648
>>>>>Begin Spectral Data<<<<<
179.588	-0
179.809	-0
180.03	-0
180.251	-0
180.473	-0
180.694	0
180.915	0
181.136	-0
181.357	0
181.578	-0
181.799	-0
182.02	-0
182.241	-0
182.462	-0
182.683	0
182.904	-0
183.125	-0
183.346	0
183.567	0
183.788	0
184.009	0
184.23	0
184.451	0
184.672	0
184.892	0
185.113	0
185.334	0
185.555	0
185.776	0
185.996	0
186.217	0
186.438	0
186.659	0
186.879	0
187.1	0
187.321	0
187.541	0
187.762	0
187.983	0
188.203	0
188.424	0
188.644	0
188.865	0
189.086	0
189.306	0
189.527	0
189.747	0
189.968	0
190.188	0
190.409	0
190.629	0
190.849	0
191.07	0
191.29	0
191.511	0
191.731	0
191.951	0
192.172	0
192.392	0
192.612	0
192.833	0
193.053	0
193.273	0
193.493	0
193.714	0
193.934	0
194.154	0
194.374	0
194.594	0
194.815	0
195.035	0
195.255	0
195.475	0
195.695	0
195.915	0
196.135	0
196.355	0
196.575	0
196.795	0
197.015	0
197.235	0
197.455	0
197.675	0
197.895	0
198.115	0
198.335	0
198.555	0
198.775	0
198.995	0
199.214	0
199.434	0
199.654	0
199.874	0
200.094	3.32
200.313	2.07
200.533	1.98
200.753	2.12
200.973	3.53
201.192	2.83
201.412	1.91
201.632	1.95
201.851	3.12
202.071	1.86
202.291	1.93
202.51	1.75
202.73	2.78
202.95	2.35
203.169	1.12
203.389	2.05
203.608	1.85
203.828	1.2
204.047	1.67
204.267	2.06
204.486	1.83
204.706	1.84
204.925	1.95
205.145	1.57
205.364	2.24
205.583	2.2
205.803	1.42
206.022	1.19
206.242	1.55
206.461	1.48
206.68	1.21
206.9	1.62
207.119	2.17
207.338	2.01
207.557	1.41
207.777	1.33
207.996	1.41
208.215	1.85
208.434	1.15
208.654	0.79
208.873	1.36
209.092	1.84
209.311	1.33
209.53	1.25
209.749	1.24
209.968	0.99
210.187	1.25
210.407	0.93
210.626	1.27
210.845	1.47
211.064	1.05
211.283	0.92
211.502	1.41
211.721	0.99
211.94	1.19
212.159	1.35
212.377	1.11
212.596	1.36
212.815	1.23
213.034	1.3
213.253	1.2
213.472	1.23
213.691	0.93
213.91	0.6
214.128	0.74
214.347	1.26
214.566	0.66
214.785	0.54
215.003	1.21
215.222	1.05
215.441	1.06
215.66	0.58
215.878	0.81
216.097	1.12
216.316	0.66
216.534	0.89
216.753	1.01
216.972	0.84
217.19	0.9
217.409	0.7
217.627	0.63
217.846	0.91
218.064	0.94
218.283	0.83
218.501	1.41
218.72	0.96
218.938	0.48
219.157	0.77
219.375	1.04
219.594	1.02
219.812	0.57
220.031	0.64
220.249	1.14
220.467	1.07
220.686	0.74
220.904	0.62
221.122	0.61
221.341	1.13
221.559	0.92
221.777	0.47
221.995	0.79
222.214	1.07
222.432	0.68
222.65	0.89
222.868	0.61
223.086	0.88
223.305	0.86
223.523	0.6
223.741	1.06
223.959	0.71
224.177	0.4
224.395	0.6
224.613	0.77
224.831	0.74
225.049	0.52
225.267	0.56
225.485	0.81
225.703	0.73
225.921	0.68
226.139	0.59
226.357	0.7
226.575	0.77
226.793	0.56
227.011	1.34
227.229	0.76
227.447	0.76
227.665	0.58
227.883	0.45
228.1	0.54
228.318	0.6
228.536	0.33
228.754	0.49
228.972	0.69
229.189	0.68
229.407	0.59
229.625	0.54
229.843	0.7
230.06	0.77
230.278	0.49
230.496	0.59
230.713	0.55
230.931	0.88
231.149	0.51
231.366	0.42
231.584	0.65
231.801	0.93
232.019	0.47
232.236	0.35
232.454	0.47
232.671	0.65
232.889	0.64
233.106	0.41
233.324	0.6
233.541	0.44
233.759	0.55
233.976	0.48
234.194	0.64
234.411	0.59
234.628	0.44
234.846	0.49
235.063	0.46
235.28	0.57
235.498	0.48
235.715	0.39
235.932	0.71
236.149	0.46
236.367	0.4
236.584	0.49
236.801	0.51
237.018	0.69
237.236	0.53
237.453	0.37
237.67	0.52
237.887	0.39
238.104	0.54
238.321	0.44
238.538	0.35
238.755	0.57
238.973	0.39
239.19	0.55
239.407	0.53
239.624	0.52
239.841	0.36
240.058	0.42
240.275	0.59
240.492	0.46
240.709	0.49
240.925	0.4
241.142	0.49
241.359	0.35
241.576	0.42
241.793	0.33
242.01	0.48
242.227	0.61
242.444	0.57
242.66	0.6
242.877	0.51
243.094	0.44
243.311	0.43
243.527	0.47
243.744	0.46
243.961	0.46
244.178	0.37
244.394	0.44
244.611	0.6
244.828	0.54
245.044	0.31
245.261	0.38
245.477	0.46
245.694	0.57
245.911	0.35
246.127	0.52
246.344	0.62
246.56	0.59
246.777	0.35
246.993	0.52
247.21	0.44
247.426	0.58
247.643	0.43
247.859	0.3
248.076	0.39
248.292	0.61
248.508	0.38
248.725	0.46
248.941	0.42
249.157	0.51
249.374	0.35
249.59	0.42
249.806	0.42
250.023	0.42
250.239	0.38
250.455	0.34
250.671	0.43
250.888	0.51
251.104	0.48
251.32	0.4
251.536	0.45
251.752	0.36
251.969	0.37
252.185	0.4
252.401	0.61
252.617	0.48
252.833	0.4
253.049	0.41
253.265	0.45
253.481	0.39
253.697	0.35
253.913	0.38
254.129	0.45
254.345	0.42
254.561	0.37
254.777	0.42
254.993	0.45
255.209	0.44
255.425	0.29
255.641	0.32
255.857	0.46
256.073	0.4
256.288	0.35
256.504	0.38
256.72	0.49
256.936	0.55
257.152	0.42
257.367	0.28
257.583	0.44
257.799	0.5
258.015	0.28
258.23	0.29
258.446	0.59
258.662	0.42
258.877	0.37
259.093	0.36
259.309	0.34
259.524	0.37
259.74	0.28
259.955	0.26
260.171	0.35
260.387	0.43
260.602	0.43
260.818	0.36
261.033	0.35
261.249	0.3
261.464	0.35
261.68	0.21
261.895	0.39
262.11	0.43
262.326	0.32
262.541	0.2
262.757	0.43
262.972	0.43
263.187	0.41
263.403	0.36
263.618	0.44
263.833	0.34
264.049	0.27
264.264	0.36
264.479	0.36
264.694	0.46
264.91	0.3
265.125	0.3
265.34	0.42
265.555	0.56
265.77	0.39
265.986	0.33
266.201	0.46
266.416	0.45
266.631	0.29
266.846	0.34
267.061	0.38
267.276	0.38
267.491	0.15
267.706	0.31
267.921	0.43
268.136	0.35
268.351	0.33
268.566	0.23
268.781	0.47
268.996	0.43
269.211	0.35
269.426	0.33
269.641	0.31
269.856	0.39
270.071	0.31
270.285	0.24
270.5	0.37
270.715	0.4
270.93	0.33
271.145	0.36
271.359	0.42
271.574	0.28
271.789	0.33
272.004	0.41
272.218	0.33
272.433	0.42
272.648	0.29
272.862	0.38
273.077	0.27
273.292	0.33
273.506	0.27
273.721	0.32
273.936	0.41
274.15	0.39
274.365	0.3
274.579	0.36
274.794	0.37
275.008	0.38
275.223	0.29
275.437	0.31
275.652	0.52
275.866	0.41
276.081	0.27
276.295	0.36
276.509	0.33
276.724	0.37
276.938	0.29
277.153	0.36
277.367	0.38
277.581	0.24
277.796	0.29
278.01	0.28
278.224	0.4
278.438	0.46
278.653	0.28
278.867	0.29
279.081	0.39
279.295	0.31
279.51	0.32
279.724	0.24
279.938	0.34
280.152	0.31
280.366	0.23
280.58	0.35
280.794	0.36
281.008	0.34
281.222	0.39
281.437	0.45
281.651	0.35
281.865	0.35
282.079	0.31
282.293	0.18
282.507	0.26
282.721	0.29
282.935	0.31
283.148	0.22
283.362	0.29
283.576	0.25
283.79	0.33
284.004	0.27
284.218	0.33
284.432	0.29
284.646	0.32
284.859	0.26
285.073	0.27
285.287	0.29
285.501	0.29
285.714	0.26
285.928	0.32
286.142	0.27
286.356	0.24
286.569	0.26
286.783	0.33
286.997	0.3
287.21	0.27
287.424	0.28
287.637	0.25
287.851	0.27
288.065	0.34
288.278	0.3
288.492	0.34
288.705	0.27
288.919	0.24
289.132	0.23
289.346	0.3
289.559	0.21
289.773	0.23
289.986	0.22
290.2	0.26
290.413	0.35
290.626	0.28
290.84	0.21
291.053	0.26
291.267	0.34
291.48	0.24
291.693	0.24
291.906	0.28
292.12	0.25
292.333	0.24
292.546	0.25
292.76	0.34
292.973	0.34
293.186	0.3
293.399	0.25
293.612	0.33
293.826	0.33
294.039	0.29
294.252	0.28
294.465	0.32
294.678	0.25
294.891	0.26
295.104	0.21
295.317	0.22
295.53	0.25
295.743	0.24
295.956	0.28
296.169	0.36
296.382	0.3
296.595	0.34
296.808	0.22
297.021	0.34
297.234	0.29
297.447	0.24
297.66	0.31
297.873	0.28
298.086	0.31
298.299	0.23
298.511	0.22
298.724	0.27
298.937	0.22
299.15	0.22
299.363	0.27
299.575	0.27
299.788	0.3
300.001	0.2
300.213	0.21
300.426	0.24
300.639	0.24
300.852	0.23
301.064	0.31
301.277	0.34
301.489	0.29
301.702	0.29
301.915	0.28
302.127	0.26
302.34	0.28
302.552	0.31
302.765	0.18
302.977	0.28
303.19	0.22
303.402	0.24
303.615	0.27
303.827	0.26
304.04	0.24
304.252	0.29
304.464	0.22
304.677	0.34
304.889	0.28
305.102	0.22
305.314	0.2
305.526	0.31
305.739	0.29
305.951	0.2
306.163	0.21
306.375	0.3
306.588	0.21
306.8	0.25
307.012	0.19
307.224	0.29
307.436	0.34
307.649	0.18
307.861	0.23
308.073	0.25
308.285	0.23
308.497	0.19
308.709	0.2
308.921	0.26
309.133	0.32
309.346	0.26
309.558	0.21
309.77	0.33
309.982	0.36
310.194	0.3
310.406	0.19
310.617	0.31
310.829	0.27
311.041	0.23
311.253	0.19
311.465	0.23
311.677	0.22
311.889	0.23
312.101	0.25
312.313	0.31
312.524	0.31
312.736	0.21
312.948	0.22
313.16	0.36
313.372	0.28
313.583	0.28
313.795	0.23
314.007	0.2
314.218	0.31
314.43	0.24
314.642	0.24
314.853	0.2
315.065	0.28
315.277	0.26
315.488	0.27
315.7	0.31
315.912	0.27
316.123	0.24
316.335	0.25
316.546	0.3
316.758	0.25
316.969	0.23
317.181	0.24
317.392	0.25
317.604	0.28
317.815	0.19
318.026	0.16
318.238	0.21
318.449	0.24
318.661	0.16
318.872	0.2
319.083	0.23
319.295	0.29
319.506	0.19
319.717	0.25
319.929	0.23
320.14	0.27
320.351	0.26
320.562	0.24
320.774	0.22
320.985	0.23
321.196	0.18
321.407	0.18
321.618	0.31
321.829	0.28
322.041	0.25
322.252	0.27
322.463	0.29
322.674	0.27
322.885	0.25
323.096	0.26
323.307	0.26
323.518	0.23
323.729	0.24
323.94	0.25
324.151	0.19
324.362	0.28
324.573	0.22
324.784	0.2
324.995	0.3
325.206	0.22
325.417	0.25
325.628	0.21
325.838	0.28
326.049	0.29
326.26	0.29
326.471	0.24
326.682	0.25
326.892	0.21
327.103	0.21
327.314	0.2
327.525	0.3
327.735	0.2
327.946	0.26
328.157	0.28
328.368	0.29
328.578	0.26
328.789	0.27
328.999	0.26
329.21	0.24
329.421	0.31
329.631	0.21
329.842	0.24
330.052	0.26
330.263	0.24
330.473	0.25
330.684	0.24
330.894	0.23
331.105	0.28
331.315	0.31
331.526	0.18
331.736	0.35
331.947	0.28
332.157	0.22
332.367	0.19
332.578	0.31
332.788	0.33
332.999	0.33
333.209	0.25
333.419	0.21
333.629	0.24
333.84	0.27
334.05	0.25
334.26	0.32
334.47	0.31
334.681	0.29
334.891	0.21
335.101	0.29
335.311	0.34
335.521	0.23
335.732	0.22
335.942	0.34
336.152	0.29
336.362	0.27
336.572	0.25
336.782	0.25
336.992	0.22
337.202	0.23
337.412	0.19
337.622	0.28
337.832	0.28
338.042	0.27
338.252	0.17
338.462	0.21
338.672	0.25
338.882	0.29
339.092	0.23
339.302	0.33
339.511	0.3
339.721	0.25
339.931	0.22
340.141	0.29
340.351	0.34
340.561	0.27
340.77	0.26
340.98	0.22
341.19	0.3
341.4	0.22
341.609	0.17
341.819	0.24
342.029	0.24
342.238	0.27
342.448	0.2
342.658	0.29
342.867	0.24
343.077	0.24
343.286	0.26
343.496	0.26
343.706	0.28
343.915	0.19
344.125	0.22
344.334	0.28
344.544	0.22
344.753	0.22
344.963	0.23
345.172	0.19
345.381	0.25
345.591	0.23
345.8	0.28
346.01	0.27
346.219	0.29
346.428	0.1
346.638	0.26
346.847	0.21
347.056	0.3
347.266	0.25
347.475	0.26
347.684	0.3
347.893	0.27
348.103	0.29
348.312	0.23
348.521	0.23
348.73	0.21
348.94	0.26
349.149	0.22
349.358	0.26
349.567	0.18
349.776	0.18
349.985	0.21
350.194	0.29
350.403	0.31
350.612	0.19
350.821	0.22
351.03	0.21
351.239	0.19
351.448	0.26
351.657	0.19
351.866	0.36
352.075	0.22
352.284	0.27
352.493	0.14
352.702	0.27
352.911	0.25
353.12	0.24
353.329	0.19
353.538	0.25
353.746	0.24
353.955	0.2
354.164	0.27
354.373	0.22
354.582	0.27
354.79	0.27
354.999	0.24
355.208	0.21
355.416	0.28
355.625	0.21
355.834	0.26
356.042	0.25
356.251	0.19
356.46	0.23
356.668	0.26
356.877	0.33
357.085	0.25
357.294	0.23
357.503	0.26
357.711	0.22
357.92	0.38
358.128	0.24
358.337	0.22
358.545	0.27
358.754	0.21
358.962	0.26
359.17	0.23
359.379	0.24
359.587	0.27
359.796	0.21
360.004	0.29
360.212	0.26
360.421	0.29
360.629	0.25
360.837	0.25
361.046	0.27
361.254	0.37
361.462	0.26
361.67	0.22
361.879	0.27
362.087	0.33
362.295	0.21
362.503	0.23
362.711	0.19
362.92	0.26
363.128	0.21
363.336	0.18
363.544	0.16
363.752	0.26
363.96	0.25
364.168	0.22
364.376	0.27
364.584	0.24
364.792	0.29
365	0.25
365.208	0.29
365.416	0.27
365.624	0.29
365.832	0.21
366.04	0.31
366.248	0.24
366.456	0.24
366.664	0.27
366.872	0.26
367.079	0.19
367.287	0.24
367.495	0.26
367.703	0.23
367.911	0.22
368.118	0.28
368.326	0.22
368.534	0.21
368.742	0.28
368.949	0.15
369.157	0.22
369.365	0.25
369.572	0.23
369.78	0.2
369.988	0.31
370.195	0.22
370.403	0.25
370.61	0.23
370.818	0.26
371.026	0.32
371.233	0.22
371.441	0.25
371.648	0.23
371.856	0.21
372.063	0.26
372.271	0.2
372.478	0.22
372.685	0.23
372.893	0.29
373.1	0.25
373.308	0.27
373.515	0.35
373.722	0.24
373.93	0.25
374.137	0.3
374.344	0.31
374.552	0.3
374.759	0.28
374.966	0.25
375.173	0.23
375.381	0.28
375.588	0.21
375.795	0.21
376.002	0.25
376.209	0.23
376.417	0.24
376.624	0.24
376.831	0.27
377.038	0.22
377.245	0.16
377.452	0.24
377.659	0.29
377.866	0.25
378.073	0.25
378.28	0.27
378.487	0.28
378.694	0.31
378.901	0.23
379.108	0.26
379.315	0.28
379.522	0.34
379.729	0.27
379.936	0.3
380.143	0.3
380.35	0.27
380.557	0.27
380.763	0.25
380.97	0.25
381.177	0.26
381.384	0.26
381.591	0.24
381.797	0.31
382.004	0.24
382.211	0.3
382.418	0.28
382.624	0.3
382.831	0.28
383.038	0.26
383.244	0.3
383.451	0.25
383.658	0.28
383.864	0.24
384.071	0.2
384.277	0.38
384.484	0.25
384.69	0.33
384.897	0.27
385.103	0.26
385.31	0.25
385.516	0.26
385.723	0.27
385.929	0.28
386.136	0.29
386.342	0.29
386.549	0.26
386.755	0.35
386.961	0.29
387.168	0.25
387.374	0.29
387.58	0.33
387.787	0.31
387.993	0.32
388.199	0.28
388.406	0.21
388.612	0.27
388.818	0.26
389.024	0.29
389.231	0.32
389.437	0.33
389.643	0.3
389.849	0.31
390.055	0.31
390.261	0.29
390.467	0.36
390.674	0.25
390.88	0.31
391.086	0.27
391.292	0.24
391.498	0.3
391.704	0.29
391.91	0.31
392.116	0.29
392.322	0.21
392.528	0.3
392.734	0.27
392.94	0.32
393.146	0.31
393.352	0.36
393.557	0.28
393.763	0.26
393.969	0.3
394.175	0.28
394.381	0.32
394.587	0.24
394.792	0.27
394.998	0.36
395.204	0.37
395.41	0.31
395.615	0.34
395.821	0.35
396.027	0.32
396.233	0.31
396.438	0.37
396.644	0.4
396.85	0.35
397.055	0.28
397.261	0.31
397.466	0.33
397.672	0.27
397.878	0.37
398.083	0.37
398.289	0.32
398.494	0.33
398.7	0.36
398.905	0.23
399.111	0.41
399.316	0.27
399.522	0.41
399.727	0.34
399.932	0.37
400.138	0.33
400.343	0.37
400.549	0.37
400.754	0.36
400.959	0.38
401.165	0.32
401.37	0.4
401.575	0.43
401.78	0.38
401.986	0.34
402.191	0.32
402.396	0.38
402.601	0.43
402.807	0.4
403.012	0.38
403.217	0.4
403.422	0.41
403.627	0.41
403.832	0.38
404.037	0.49
404.243	0.45
404.448	0.37
404.653	0.43
404.858	0.45
405.063	0.47
405.268	0.44
405.473	0.37
405.678	0.42
405.883	0.58
406.088	0.51
406.293	0.41
406.498	0.4
406.703	0.46
406.907	0.52
407.112	0.44
407.317	0.52
407.522	0.55
407.727	0.49
407.932	0.5
408.136	0.6
408.341	0.55
408.546	0.55
408.751	0.57
408.956	0.56
409.16	0.68
409.365	0.61
409.57	0.63
409.774	0.6
409.979	0.65
410.184	0.66
410.388	0.61
410.593	0.72
410.798	0.71
411.002	0.75
411.207	0.78
411.411	0.85
411.616	0.74
411.82	0.78
412.025	0.84
412.229	0.82
412.434	0.97
412.638	0.85
412.843	0.86
413.047	0.94
413.252	0.92
413.456	1.01
413.66	1.04
413.865	1.01
414.069	1.15
414.273	1.11
414.478	1.14
414.682	1.11
414.886	1.17
415.091	1.21
415.295	1.2
415.499	1.35
415.703	1.31
415.908	1.45
416.112	1.33
416.316	1.59
416.52	1.54
416.724	1.59
416.929	1.59
417.133	1.85
417.337	1.69
417.541	1.83
417.745	1.84
417.949	1.89
418.153	2.02
418.357	1.94
418.561	2.2
418.765	2.23
418.969	2.35
419.173	2.39
419.377	2.36
419.581	2.55
419.785	2.6
419.989	2.61
420.193	2.83
420.397	2.88
420.601	2.97
420.804	3.05
421.008	3.09
421.212	3.23
421.416	3.27
421.62	3.23
421.823	3.3
422.027	3.54
422.231	3.46
422.435	3.46
422.638	3.55
422.842	3.67
423.046	3.71
423.249	3.95
423.453	3.89
423.657	4.1
423.86	4.13
424.064	4.39
424.268	4.48
424.471	4.39
424.675	4.59
424.878	4.72
425.082	4.85
425.285	5.11
425.489	4.96
425.692	5.18
425.896	5.21
426.099	5.51
426.303	5.5
426.506	5.72
426.71	5.9
426.913	6.09
427.116	6.27
427.32	6.26
427.523	6.32
427.726	6.65
427.93	6.82
428.133	7.01
428.336	7.15
428.54	7.3
428.743	7.55
428.946	7.8
429.149	7.77
429.353	7.9
429.556	7.93
429.759	8.03
429.962	8.08
430.165	8.35
430.368	7.91
430.571	8.1
430.775	8.05
430.978	8.1
431.181	8.13
431.384	8.09
431.587	8.24
431.79	8.66
431.993	8.62
432.196	8.93
432.399	9.37
432.602	9.41
432.805	9.55
433.008	10.02
433.211	9.97
433.414	10.25
433.616	10.33
433.819	10.16
434.022	10.33
434.225	10.58
434.428	10.73
434.631	11.06
434.833	10.71
435.036	11.16
435.239	11.14
435.442	11.36
435.645	11.39
435.847	11.52
436.05	11.83
436.253	12.1
436.455	12.26
436.658	11.93
436.861	12.28
437.063	12.45
437.266	12.38
437.468	12.81
437.671	13.03
437.874	13.17
438.076	12.91
438.279	13.4
438.481	13.42
438.684	14.2
438.886	13.84
439.089	13.99
439.291	14.07
439.494	14.41
439.696	14.63
439.899	15.16
440.101	15.64
440.303	15.79
440.506	16.62
440.708	16.25
440.91	16.46
441.113	16.71
441.315	17.01
441.517	16.73
441.72	17.24
441.922	16.9
442.124	16.82
442.326	17.28
442.529	17.38
442.731	17.33
442.933	17.65
443.135	17.49
443.337	17.43
443.539	18.07
443.742	17.61
443.944	18.38
444.146	18.08
444.348	18.04
444.55	18.02
444.752	18.19
444.954	18.11
445.156	18.09
445.358	18.59
445.56	18.65
445.762	18.51
445.964	18.83
446.166	18.64
446.368	18.6
446.57	18.57
446.772	18.23
446.974	17.97
447.175	18.31
447.377	18.03
447.579	18.46
447.781	18.12
447.983	17.81
448.184	17.45
448.386	17.91
448.588	17.33
448.79	17.27
448.991	17.45
449.193	17.66
449.395	16.86
449.597	16.51
449.798	16.41
450	16
450.202	15.79
450.403	15.86
450.605	15.72
450.806	15.41
451.008	15.23
451.21	15.1
451.411	14.6
451.613	13.88
451.814	14.13
452.016	14.06
452.217	13.3
452.419	13.39
452.62	13.13
452.821	12.88
453.023	12.76
453.224	12.28
453.426	11.96
453.627	11.19
453.828	11.28
454.03	11.42
454.231	11.47
454.432	11.15
454.634	10.9
454.835	10.52
455.036	10.43
455.238	10.1
455.439	9.83
455.64	9.59
455.841	9.42
456.042	9.45
456.244	9.33
456.445	8.98
456.646	8.64
456.847	8.67
457.048	8.44
457.249	8.58
457.45	8.33
457.651	7.79
457.852	7.63
458.054	7.26
458.255	7.26
458.456	7.3
458.657	7.17
458.858	6.78
459.058	6.77
459.259	6.69
459.46	6.47
459.661	6.42
459.862	6.53
460.063	6.28
460.264	6.23
460.465	5.97
460.666	6.13
460.866	5.83
461.067	5.5
461.268	5.55
461.469	5.51
461.67	5.39
461.87	5.28
462.071	5.28
462.272	5.11
462.473	5.04
462.673	5.28
462.874	5.2
463.075	5.21
463.275	5.08
463.476	5.13
463.676	5.12
463.877	4.89
464.078	4.93
464.278	5.02
464.479	4.88
464.679	4.76
464.88	4.7
465.08	4.64
465.281	4.44
465.481	4.28
465.682	4.07
465.882	4.15
466.083	4.12
466.283	4.07
466.483	3.92
466.684	3.76
466.884	3.64
467.085	3.73
467.285	3.79
467.485	3.64
467.686	3.58
467.886	3.43
468.086	3.34
468.286	3.35
468.487	3.46
468.687	3.24
468.887	3.25
469.087	3.38
469.287	3.23
469.488	3.09
469.688	3.19
469.888	3.13
470.088	3.16
470.288	3.01
470.488	2.98
470.688	2.88
470.888	2.87
471.088	2.77
471.288	2.81
471.488	2.76
471.688	2.76
471.888	2.74
472.088	2.83
472.288	2.71
472.488	2.59
472.688	2.52
472.888	2.59
473.088	2.57
473.288	2.55
473.488	2.42
473.688	2.59
473.887	2.49
474.087	2.37
474.287	2.47
474.487	2.37
474.687	2.46
474.886	2.39
475.086	2.28
475.286	2.36
475.486	2.25
475.685	2.24
475.885	2.2
476.085	2.28
476.284	2.24
476.484	2.2
476.684	2.26
476.883	2.27
477.083	2.21
477.282	2.1
477.482	2.15
477.681	2.18
477.881	2.12
478.08	2.08
478.28	2.07
478.479	2.08
478.679	2.17
478.878	2.05
479.078	2.04
479.277	2.11
479.477	2.06
479.676	2.03
479.875	2.01
480.075	1.94
480.274	2.05
480.473	2.06
480.673	2.04
480.872	2.05
481.071	2.04
481.271	2.03
481.47	2.01
481.669	1.97
481.868	1.95
482.067	1.98
482.267	1.92
482.466	1.96
482.665	1.93
482.864	2.01
483.063	1.94
483.262	1.98
483.461	2.06
483.661	2.03
483.86	1.98
484.059	2.04
484.258	2.09
484.457	2
484.656	2.02
484.855	2.07
485.054	1.89
485.253	1.98
485.452	1.99
485.651	2.05
485.849	1.99
486.048	2
486.247	2.02
486.446	2.03
486.645	2.06
486.844	2.06
487.043	2.04
487.241	2.09
487.44	2.09
487.639	2.14
487.838	2.13
488.037	2.12
488.235	2.18
488.434	2.16
488.633	2.03
488.831	2.2
489.03	2.2
489.229	2.24
489.427	2.22
489.626	2.26
489.825	2.25
490.023	2.29
490.222	2.29
490.42	2.35
490.619	2.36
490.817	2.37
491.016	2.37
491.214	2.42
491.413	2.4
491.611	2.36
491.81	2.42
492.008	2.42
492.207	2.55
492.405	2.53
492.604	2.44
492.802	2.51
493	2.63
493.199	2.62
493.397	2.63
493.595	2.68
493.794	2.63
493.992	2.78
494.19	2.76
494.388	2.82
494.587	2.72
494.785	2.77
494.983	2.74
495.181	2.88
495.379	2.88
495.578	2.94
495.776	2.92
495.974	2.9
496.172	2.98
496.37	3.11
496.568	3.09
496.766	3.07
496.964	3.14
497.162	3.15
497.36	3.2
497.558	3.25
497.756	3.3
497.954	3.27
498.152	3.35
498.35	3.44
498.548	3.36
498.746	3.34
498.944	3.4
499.142	3.46
499.34	3.52
499.538	3.65
499.736	3.53
499.933	3.62
500.131	3.6
500.329	3.8
500.527	3.76
500.725	3.82
500.922	3.84
501.12	3.84
501.318	3.95
501.516	3.91
501.713	4.02
501.911	3.95
502.109	3.97
502.306	4.08
502.504	4.02
502.701	4.1
502.899	4.13
503.097	4.36
503.294	4.19
503.492	4.32
503.689	4.36
503.887	4.37
504.084	4.4
504.282	4.4
504.479	4.34
504.677	4.53
504.874	4.49
505.072	4.43
505.269	4.67
505.466	4.67
505.664	4.74
505.861	4.65
506.059	4.82
506.256	4.75
506.453	4.86
506.651	4.94
506.848	4.99
507.045	4.97
507.242	4.95
507.44	4.97
507.637	5.09
507.834	5.03
508.031	5.17
508.229	5.14
508.426	5.1
508.623	5.27
508.82	5.31
509.017	5.28
509.214	5.29
509.411	5.39
509.608	5.35
509.805	5.42
510.003	5.45
510.2	5.47
510.397	5.64
510.594	5.5
510.791	5.64
510.988	5.64
511.184	5.6
511.381	5.49
511.578	5.67
511.775	5.77
511.972	5.69
512.169	5.75
512.366	5.77
512.563	5.89
512.76	5.97
512.956	5.97
513.153	5.94
513.35	5.86
513.547	5.95
513.744	6.06
513.94	6.05
514.137	6.14
514.334	6.14
514.53	6.15
514.727	6.34
514.924	6.21
515.12	6.25
515.317	6.26
515.514	6.22
515.71	6.13
515.907	6.4
516.103	6.39
516.3	6.28
516.497	6.44
516.693	6.44
516.89	6.52
517.086	6.5
517.283	6.5
517.479	6.41
517.676	6.6
517.872	6.6
518.068	6.64
518.265	6.61
518.461	6.54
518.658	6.72
518.854	6.62
519.05	6.78
519.247	6.85
519.443	6.73
519.639	6.86
519.836	6.72
520.032	6.77
520.228	6.93
520.424	6.89
520.621	6.89
520.817	6.92
521.013	6.86
521.209	7.08
521.405	7.04
521.601	7.03
521.798	6.97
521.994	7.02
522.19	6.92
522.386	7.03
522.582	7.1
522.778	7.24
522.974	7.05
523.17	7.11
523.366	7.16
523.562	7.13
523.758	7.1
523.954	7.05
524.15	7.23
524.346	7.27
524.542	7.27
524.738	7.18
524.934	7.34
525.129	7.34
525.325	7.19
525.521	7.25
525.717	7.47
525.913	7.31
526.109	7.37
526.304	7.5
526.5	7.41
526.696	7.38
526.892	7.39
527.087	7.52
527.283	7.49
527.479	7.49
527.674	7.28
527.87	7.49
528.066	7.51
528.261	7.49
528.457	7.38
528.653	7.6
528.848	7.57
529.044	7.65
529.239	7.49
529.435	7.55
529.63	7.48
529.826	7.57
530.021	7.56
530.217	7.62
530.412	7.55
530.608	7.61
530.803	7.66
530.999	7.55
531.194	7.64
531.389	7.7
531.585	7.66
531.78	7.87
531.975	7.6
532.171	7.8
532.366	7.7
532.561	7.73
532.757	7.65
532.952	7.93
533.147	7.65
533.342	7.75
533.538	7.63
533.733	7.85
533.928	7.57
534.123	7.71
534.318	7.82
534.513	7.72
534.709	7.9
534.904	7.87
535.099	7.92
535.294	7.83
535.489	7.87
535.684	7.78
535.879	7.83
536.074	7.91
536.269	7.87
536.464	7.89
536.659	7.83
536.854	7.86
537.049	7.89
537.244	7.89
537.439	7.91
537.634	7.88
537.828	7.92
538.023	7.89
538.218	7.87
538.413	7.81
538.608	7.86
538.803	7.91
538.997	7.87
539.192	7.93
539.387	7.91
539.582	7.87
539.776	7.85
539.971	7.9
540.166	8.03
540.36	7.92
540.555	8.06
540.75	7.98
540.944	7.97
541.139	8.04
541.334	8.03
541.528	8.02
541.723	8.08
541.917	8.02
542.112	7.94
542.306	7.87
542.501	7.93
542.695	7.93
542.89	7.91
543.084	7.92
543.279	7.97
543.473	8.05
543.668	8.11
543.862	7.88
544.056	7.94
544.251	8.04
544.445	8.12
544.64	8.11
544.834	7.73
545.028	7.67
545.222	8.04
545.417	8.23
545.611	8.11
545.805	8
546	7.86
546.194	8.03
546.388	8.07
546.582	7.93
546.776	7.99
546.97	8.05
547.165	8.04
547.359	8.02
547.553	7.92
547.747	8.02
547.941	8.3
548.135	7.98
548.329	8.11
548.523	8.02
548.717	8.03
548.911	7.98
549.105	7.97
549.299	8.05
549.493	7.98
549.687	8
549.881	8.14
550.075	8.07
550.269	7.97
550.463	8.08
550.657	8.03
550.85	8.11
551.044	8.02
551.238	8.14
551.432	8.07
551.626	8.14
551.82	8.17
552.013	7.97
552.207	8.16
552.401	8.19
552.594	8.07
552.788	8.01
552.982	8.08
553.176	8.01
553.369	8.19
553.563	8.17
553.756	8.1
553.95	8.11
554.144	8.12
554.337	8.15
554.531	7.92
554.724	8.11
554.918	8.16
555.111	8.1
555.305	8.09
555.498	8.07
555.692	8.21
555.885	8.15
556.079	8.07
556.272	8.08
556.466	8.03
556.659	8.04
556.852	8.22
557.046	8.05
557.239	7.93
557.432	8.02
557.626	8.14
557.819	8.19
558.012	8.19
558.206	8.22
558.399	8.12
558.592	8.02
558.785	8.03
558.979	8.02
559.172	8.09
559.365	8.1
559.558	8.06
559.751	7.98
559.944	8.24
560.138	8.08
560.331	8.12
560.524	8.16
560.717	8.08
560.91	8.09
561.103	8.1
561.296	7.97
561.489	8.17
561.682	8.17
561.875	8.2
562.068	8.22
562.261	8
562.454	8.23
562.647	8.05
562.84	8.11
563.032	8.14
563.225	7.99
563.418	8.05
563.611	8.11
563.804	8.13
563.997	7.99
564.19	7.8
564.382	8.24
564.575	8.09
564.768	8
564.961	8.08
565.153	8.04
565.346	7.9
565.539	8.17
565.731	8.08
565.924	8.15
566.117	8.24
566.309	8.09
566.502	8.04
566.695	8.03
566.887	8.1
567.08	8.1
567.272	8.1
567.465	8.01
567.657	8.1
567.85	7.98
568.042	8.02
568.235	8.07
568.427	7.95
568.62	8.03
568.812	7.99
569.005	8.16
569.197	7.96
569.389	8.06
569.582	8.04
569.774	8.02
569.966	8.03
570.159	7.96
570.351	7.98
570.543	7.93
570.736	8.03
570.928	7.83
571.12	8.07
571.312	7.84
571.505	7.8
571.697	8.02
571.889	7.97
572.081	7.99
572.273	7.93
572.465	7.97
572.658	8.01
572.85	8.05
573.042	8.04
573.234	7.93
573.426	7.91
573.618	7.92
573.81	7.94
574.002	7.93
574.194	7.94
574.386	7.87
574.578	7.78
574.77	7.88
574.962	7.89
575.154	7.8
575.346	7.87
575.538	7.76
575.729	7.79
575.921	7.92
576.113	7.93
576.305	7.91
576.497	7.99
576.689	7.78
576.88	7.77
577.072	7.94
577.264	7.87
577.456	7.86
577.647	7.81
577.839	7.94
578.031	7.85
578.223	7.77
578.414	7.78
578.606	7.85
578.798	7.89
578.989	7.81
579.181	7.87
579.372	7.81
579.564	7.84
579.755	7.76
579.947	7.73
580.139	7.79
580.33	7.64
580.522	7.75
580.713	7.69
580.905	7.71
581.096	7.84
581.287	7.71
581.479	7.7
581.67	7.75
581.862	7.7
582.053	7.73
582.244	7.55
582.436	7.78
582.627	7.65
582.818	7.67
583.01	7.68
583.201	7.73
583.392	7.64
583.583	7.57
583.775	7.41
583.966	7.5
584.157	7.67
584.348	7.63
584.54	7.57
584.731	7.59
584.922	7.52
585.113	7.44
585.304	7.57
585.495	7.5
585.686	7.62
585.877	7.59
586.068	7.63
586.259	7.61
586.45	7.49
586.641	7.56
586.832	7.64
587.023	7.49
587.214	7.41
587.405	7.52
587.596	7.43
587.787	7.37
587.978	7.43
588.169	7.45
588.36	7.31
588.551	7.39
588.742	7.46
588.932	7.43
589.123	7.23
589.314	7.46
589.505	7.33
589.696	7.36
589.886	7.34
590.077	7.32
590.268	7.34
590.458	7.21
590.649	7.07
590.84	7.34
591.03	7.23
591.221	7.27
591.412	7.12
591.602	7.32
591.793	7.24
591.984	7.22
592.174	7.21
592.365	7.37
592.555	7.1
592.746	7.19
592.936	7.14
593.127	7.13
593.317	7.14
593.508	7.17
593.698	7.04
593.889	7.12
594.079	7.09
594.269	6.95
594.46	7.13
594.65	7.06
594.84	7.02
595.031	6.92
595.221	6.94
595.411	6.94
595.602	6.97
595.792	7
595.982	6.9
596.172	7.03
596.363	6.92
596.553	6.89
596.743	6.91
596.933	6.88
597.123	6.81
597.314	6.7
597.504	6.75
597.694	6.91
597.884	6.76
598.074	6.86
598.264	6.79
598.454	6.77
598.644	6.76
598.834	6.78
599.024	6.69
599.214	6.68
599.404	6.8
599.594	6.66
599.784	6.64
599.974	6.72
600.164	6.67
600.354	6.55
600.544	6.6
600.734	6.61
600.924	6.6
601.114	6.58
601.303	6.47
601.493	6.55
601.683	6.47
601.873	6.52
602.063	6.44
602.252	6.59
602.442	6.36
602.632	6.43
602.821	6.43
603.011	6.42
603.201	6.46
603.39	6.39
603.58	6.26
603.77	6.36
603.959	6.45
604.149	6.33
604.339	6.36
604.528	6.44
604.718	6.36
604.907	6.28
605.097	6.21
605.286	6.27
605.476	6.23
605.665	6.26
605.855	6.2
606.044	6.3
606.234	6.19
606.423	6.2
606.612	6.19
606.802	6.16
606.991	6.14
607.181	6.15
607.37	6.13
607.559	5.91
607.749	6.09
607.938	5.98
608.127	6.04
608.316	6.05
608.506	5.98
608.695	6.07
608.884	5.97
609.073	5.96
609.263	6.12
609.452	6
609.641	5.86
609.83	5.77
610.019	5.9
610.208	5.84
610.397	5.81
610.586	5.87
610.775	5.83
610.965	5.76
611.154	5.71
611.343	5.76
611.532	5.73
611.721	5.8
611.91	5.68
612.099	5.69
612.287	5.63
612.476	5.57
612.665	5.69
612.854	5.59
613.043	5.63
613.232	5.59
613.421	5.5
613.61	5.56
613.798	5.54
613.987	5.57
614.176	5.5
614.365	5.52
614.554	5.57
614.742	5.55
614.931	5.4
615.12	5.51
615.309	5.48
615.497	5.35
615.686	5.3
615.875	5.41
616.063	5.31
616.252	5.34
616.44	5.34
616.629	5.32
616.818	5.28
617.006	5.23
617.195	5.18
617.383	5.3
617.572	5.18
617.76	5.18
617.949	5.17
618.137	5.21
618.326	5.21
618.514	5.04
618.703	5.03
618.891	5.15
619.079	5.1
619.268	5.13
619.456	5.02
619.644	5.09
619.833	4.98
620.021	5.01
620.209	4.96
620.398	5.01
620.586	4.89
620.774	4.96
620.962	4.93
621.151	5.02
621.339	4.88
621.527	4.89
621.715	4.82
621.903	4.87
622.092	4.75
622.28	4.93
622.468	4.67
622.656	4.77
622.844	4.79
623.032	4.83
623.22	4.64
623.408	4.83
623.596	4.72
623.784	4.76
623.972	4.62
624.16	4.68
624.348	4.7
624.536	4.68
624.724	4.54
624.912	4.61
625.1	4.59
625.288	4.59
625.476	4.5
625.664	4.61
625.851	4.57
626.039	4.5
626.227	4.49
626.415	4.46
626.603	4.42
626.79	4.48
626.978	4.43
627.166	4.42
627.354	4.35
627.541	4.36
627.729	4.24
627.917	4.44
628.104	4.45
628.292	4.28
628.48	4.33
628.667	4.26
628.855	4.34
629.042	4.35
629.23	4.26
629.418	4.27
629.605	4.29
629.793	4.12
629.98	4.2
630.168	4.14
630.355	4.16
630.543	4.16
630.73	4.09
630.917	4.1
631.105	4.22
631.292	4.14
631.48	4.04
631.667	4.13
631.854	4.04
632.042	3.99
632.229	3.94
632.416	4
632.604	3.93
632.791	3.89
632.978	3.97
633.165	3.93
633.353	3.97
633.54	4.02
633.727	3.82
633.914	3.82
634.101	3.79
634.289	3.92
634.476	3.77
634.663	3.8
634.85	3.85
635.037	3.75
635.224	3.73
635.411	3.81
635.598	3.76
635.785	3.74
635.972	3.7
636.159	3.72
636.346	3.68
636.533	3.62
636.72	3.69
636.907	3.68
637.094	3.59
637.281	3.52
637.468	3.62
637.655	3.68
637.842	3.62
638.029	3.54
638.215	3.52
638.402	3.58
638.589	3.5
638.776	3.49
638.963	3.42
639.149	3.57
639.336	3.56
639.523	3.47
639.709	3.46
639.896	3.5
640.083	3.39
640.27	3.5
640.456	3.4
640.643	3.38
640.829	3.29
641.016	3.3
641.203	3.27
641.389	3.39
641.576	3.31
641.762	3.23
641.949	3.29
642.135	3.31
642.322	3.28
642.508	3.15
642.695	3.22
642.881	3.16
643.068	3.14
643.254	3.19
643.441	3.17
643.627	3.17
643.813	3.08
644	3.19
644.186	3.11
644.372	3.19
644.559	3.14
644.745	3.06
644.931	3.02
645.118	3.1
645.304	3.08
645.49	3.02
645.676	2.99
645.862	3
646.049	3.08
646.235	2.97
646.421	3.07
646.607	3.11
646.793	2.92
646.979	2.9
647.165	2.98
647.352	2.92
647.538	2.96
647.724	2.88
647.91	2.84
648.096	2.93
648.282	2.93
648.468	2.9
648.654	2.88
648.84	2.85
649.026	2.8
649.212	2.8
649.397	2.8
649.583	2.84
649.769	2.79
649.955	2.75
650.141	2.8
650.327	2.79
650.513	2.75
650.698	2.74
650.884	2.63
651.07	2.73
651.256	2.71
651.442	2.69
651.627	2.58
651.813	2.64
651.999	2.61
652.184	2.66
652.37	2.65
652.556	2.64
652.741	2.69
652.927	2.49
653.113	2.61
653.298	2.62
653.484	2.57
653.669	2.52
653.855	2.55
654.04	2.63
654.226	2.56
654.412	2.49
654.597	2.44
654.782	2.53
654.968	2.52
655.153	2.56
655.339	2.5
655.524	2.44
655.71	2.52
655.895	2.5
656.08	2.45
656.266	2.55
656.451	2.45
656.636	2.4
656.822	2.42
657.007	2.43
657.192	2.39
657.378	2.36
657.563	2.39
657.748	2.41
657.933	2.41
658.118	2.27
658.304	2.34
658.489	2.37
658.674	2.36
658.859	2.26
659.044	2.32
659.229	2.33
659.414	2.27
659.599	2.24
659.785	2.25
659.97	2.29
660.155	2.3
660.34	2.3
660.525	2.19
660.71	2.21
660.895	2.26
661.08	2.23
661.264	2.18
661.449	2.23
661.634	2.16
661.819	2.2
662.004	2.14
662.189	2.06
662.374	2.14
662.559	2.09
662.743	2.01
662.928	2.04
663.113	1.98
663.298	2
663.483	2.04
663.667	2.05
663.852	1.97
664.037	2.06
664.221	1.94
664.406	2.01
664.591	1.97
664.775	1.95
664.96	1.96
665.145	1.91
665.329	2.01
665.514	1.91
665.698	1.89
665.883	1.93
666.068	1.94
666.252	1.83
666.437	1.83
666.621	1.88
666.806	1.88
666.99	1.84
667.174	1.82
667.359	1.91
667.543	1.79
667.728	1.84
667.912	1.74
668.096	1.77
668.281	1.74
668.465	1.83
668.649	1.73
668.834	1.67
669.018	1.74
669.202	1.7
669.387	1.69
669.571	1.76
669.755	1.66
669.939	1.71
670.124	1.67
670.308	1.7
670.492	1.69
670.676	1.68
670.86	1.61
671.044	1.58
671.228	1.69
671.413	1.56
671.597	1.57
671.781	1.63
671.965	1.6
672.149	1.6
672.333	1.6
672.517	1.58
672.701	1.59
672.885	1.59
673.069	1.55
673.253	1.64
673.437	1.58
673.621	1.5
673.804	1.52
673.988	1.55
674.172	1.51
674.356	1.46
674.54	1.5
674.724	1.61
674.908	1.46
675.091	1.56
675.275	1.51
675.459	1.52
675.643	1.56
675.826	1.51
676.01	1.41
676.194	1.49
676.377	1.54
676.561	1.48
676.745	1.5
676.928	1.4
677.112	1.47
677.296	1.37
677.479	1.37
677.663	1.36
677.846	1.4
678.03	1.38
678.213	1.35
678.397	1.45
678.58	1.32
678.764	1.37
678.947	1.32
679.131	1.36
679.314	1.38
679.498	1.34
679.681	1.36
679.865	1.37
680.048	1.33
680.231	1.28
680.415	1.26
680.598	1.35
680.781	1.27
680.965	1.27
681.148	1.28
681.331	1.23
681.514	1.28
681.698	1.25
681.881	1.27
682.064	1.32
682.247	1.3
682.43	1.19
682.614	1.3
682.797	1.28
682.98	1.29
683.163	1.12
683.346	1.23
683.529	1.19
683.712	1.14
683.895	1.22
684.078	1.09
684.261	1.15
684.444	1.23
684.627	1.22
684.81	1.12
684.993	1.1
685.176	1.17
685.359	1.16
685.542	1.14
685.725	1.22
685.908	1.08
686.091	1.12
686.274	1.19
686.457	1.08
686.639	1.13
686.822	1.12
687.005	1.14
687.188	1.08
687.371	1.19
687.553	1.18
687.736	1.15
687.919	1.13
688.102	1.13
688.284	1.05
688.467	1.06
688.65	1.1
688.832	1.02
689.015	1.02
689.197	1.01
689.38	1.12
689.563	1.14
689.745	1.04
689.928	1.02
690.11	0.99
690.293	1.05
690.475	0.91
690.658	1.02
690.84	1.01
691.023	0.99
691.205	0.97
691.388	0.97
691.57	1.01
691.752	1.03
691.935	0.95
692.117	0.94
692.3	1.03
692.482	0.93
692.664	0.92
692.847	0.99
693.029	0.96
693.211	1
693.393	0.96
693.576	0.91
693.758	0.91
693.94	0.95
694.122	0.95
694.304	0.87
694.487	0.88
694.669	0.95
694.851	0.89
695.033	0.92
695.215	0.9
695.397	0.86
695.579	0.88
695.761	0.82
695.943	0.78
696.125	0.96
696.308	0.91
696.49	0.74
696.671	0.97
696.853	0.93
697.035	1.1
697.217	0.84
697.399	0.98
697.581	0.74
697.763	0.87
697.945	0.81
698.127	0.91
698.309	0.96
698.491	0.9
698.672	0.91
698.854	0.89
699.036	0.91
699.218	0.87
699.399	0.93
699.581	0.87
699.763	0.79
699.945	0.78
700.126	0.78
700.308	0.87
700.49	0.85
700.671	0.73
700.853	0.77
701.035	0.76
701.216	0.81
701.398	0.77
701.579	0.85
701.761	0.81
701.943	0.77
702.124	0.81
702.306	0.8
702.487	0.88
702.669	0.79
702.85	0.78
703.031	0.72
703.213	0.94
703.394	0.84
703.576	0.77
703.757	0.9
703.938	0.88
704.12	0.99
704.301	0.77
704.483	0.79
704.664	0.74
704.845	0.87
705.026	0.86
705.208	0.7
705.389	0.81
705.57	0.76
705.751	0.74
705.933	0.76
706.114	0.79
706.295	0.73
706.476	0.71
706.657	0.84
706.838	0.72
707.02	0.82
707.201	0.76
707.382	0.69
707.563	0.7
707.744	0.66
707.925	0.7
708.106	0.62
708.287	0.71
708.468	0.75
708.649	0.7
708.83	0.83
709.011	0.74
709.192	0.73
709.373	0.58
709.554	0.67
709.734	0.78
709.915	0.74
710.096	0.59
710.277	0.62
710.458	0.69
710.639	0.74
710.819	0.57
711	0.69
711.181	0.72
711.362	0.74
711.542	0.65
711.723	0.68
711.904	0.73
712.085	0.72
712.265	0.73
712.446	0.61
712.627	0.59
712.807	0.65
712.988	0.67
713.168	0.55
713.349	0.64
713.53	0.54
713.71	0.64
713.891	0.59
714.071	0.65
714.252	0.67
714.432	0.58
714.613	0.5
714.793	0.63
714.974	0.72
715.154	0.72
715.334	0.67
715.515	0.69
715.695	0.54
715.876	0.66
716.056	0.58
716.236	0.68
716.417	0.61
716.597	0.57
716.777	0.79
716.957	0.64
717.138	0.67
717.318	0.63
717.498	0.52
717.678	0.63
717.859	0.66
718.039	0.58
718.219	0.53
718.399	0.66
718.579	0.61
718.759	0.52
718.939	0.58
719.12	0.64
719.3	0.64
719.48	0.41
719.66	0.5
719.84	0.61
720.02	0.57
720.2	0.49
720.38	0.55
720.56	0.71
720.74	0.53
720.92	0.61
721.1	0.76
721.279	0.69
721.459	0.64
721.639	0.46
721.819	0.59
721.999	0.57
722.179	0.7
722.359	0.48
722.538	0.58
722.718	0.57
722.898	0.53
723.078	0.61
723.257	0.56
723.437	0.59
723.617	0.56
723.797	0.65
723.976	0.55
724.156	0.63
724.336	0.58
724.515	0.75
724.695	0.45
724.874	0.56
725.054	0.65
725.234	0.49
725.413	0.58
725.593	0.55
725.772	0.52
725.952	0.56
726.131	0.52
726.311	0.61
726.49	0.53
726.67	0.53
726.849	0.56
727.028	0.62
727.208	0.52
727.387	0.63
727.567	0.51
727.746	0.54
727.925	0.46
728.105	0.49
728.284	0.58
728.463	0.51
728.643	0.57
728.822	0.49
729.001	0.57
729.18	0.61
729.359	0.62
729.539	0.54
729.718	0.55
729.897	0.62
730.076	0.57
730.255	0.41
730.434	0.59
730.614	0.59
730.793	0.66
730.972	0.54
731.151	0.48
731.33	0.73
731.509	0.64
731.688	0.68
731.867	0.63
732.046	0.47
732.225	0.78
732.404	0.48
732.583	0.46
732.762	0.59
732.941	0.66
733.12	0.59
733.298	0.54
733.477	0.65
733.656	0.56
733.835	0.53
734.014	0.6
734.193	0.58
734.371	0.66
734.55	0.59
734.729	0.55
734.908	0.55
735.086	0.61
735.265	0.65
735.444	0.49
735.623	0.61
735.801	0.53
735.98	0.54
736.159	0.62
736.337	0.56
736.516	0.61
736.694	0.62
736.873	0.54
737.052	0.72
737.23	0.7
737.409	0.53
737.587	0.83
737.766	0.43
737.944	0.55
738.123	0.71
738.301	0.65
738.479	0.57
738.658	0.56
738.836	0.34
739.015	0.7
739.193	0.67
739.371	0.49
739.55	0.61
739.728	0.37
739.906	0.77
740.085	0.72
740.263	0.5
740.441	0.39
740.62	0.81
740.798	0.53
740.976	0.45
741.154	0.5
741.332	0.67
741.511	0.48
741.689	0.62
741.867	0.62
742.045	0.51
742.223	0.52
742.401	0.43
742.579	0.43
742.757	0.51
742.935	0.31
743.114	0.5
743.292	0.5
743.47	0.47
743.648	0.5
743.826	0.48
744.004	0.49
744.181	0.52
744.359	0.48
744.537	0.54
744.715	0.46
744.893	0.45
745.071	0.42
745.249	0.54
745.427	0.45
745.605	0.58
745.782	0.55
745.96	0.45
746.138	0.58
746.316	0.54
746.493	0.41
746.671	0.46
746.849	0.48
747.027	0.55
747.204	0.4
747.382	0.48
747.56	0.39
747.737	0.42
747.915	0.37
748.093	0.5
748.27	0.26
748.448	0.41
748.625	0.27
748.803	0.34
748.98	0.33
749.158	0.51
749.335	0.48
749.513	0.42
749.69	0.4
749.868	0.45
750.045	0.54
750.223	0.38
750.4	0.23
750.578	0.56
750.755	0.41
750.932	0.29
751.11	0.47
751.287	0.22
751.464	0.53
751.642	0.27
751.819	0.47
751.996	0.44
752.173	0.42
752.351	0.36
752.528	0.47
752.705	0.45
752.882	0.35
753.06	0.37
753.237	0.39
753.414	0.62
753.591	0.56
753.768	0.45
753.945	0.33
754.122	0.31
754.299	0.52
754.476	0.36
754.654	0.44
754.831	0.49
755.008	0.4
755.185	0.25
755.362	0.34
755.539	0.39
755.716	0.37
755.892	0.43
756.069	0.4
756.246	0.5
756.423	0.3
756.6	0.54
756.777	0.32
756.954	0.6
757.131	0.37
757.307	0.24
757.484	0.22
757.661	0.36
757.838	0.48
758.015	0.18
758.191	0.41
758.368	0.51
758.545	0.52
758.721	0.34
758.898	0.16
759.075	0.34
759.251	0.5
759.428	0.53
759.605	0.31
759.781	0.35
759.958	0.4
760.134	0.37
760.311	0.26
760.488	0.49
760.664	0.64
760.841	0.36
761.017	0.25
761.194	0.48
761.37	0.51
761.547	0.38
761.723	0.31
761.899	0.46
762.076	0.36
762.252	0.14
762.429	0.28
762.605	0.38
762.781	0.3
762.958	0.51
763.134	0.36
763.31	0.26
763.486	0.51
763.663	0.17
763.839	0.37
764.015	0.19
764.191	0.3
764.368	0.27
764.544	0.24
764.72	0.31
764.896	0.48
765.072	0.48
765.248	0.44
765.425	0.35
765.601	0.31
765.777	0.28
765.953	0.26
766.129	0.25
766.305	0.19
766.481	0.31
766.657	0.38
766.833	0.56
767.009	0.21
767.185	0.3
767.361	0.42
767.537	0.23
767.713	0.51
767.889	0.23
768.065	0.38
768.24	0.46
768.416	0.45
768.592	0.29
768.768	0.28
768.944	0.53
769.12	0.23
769.295	0.25
769.471	0.33
769.647	0.27
769.823	0.35
769.998	0.27
770.174	0.22
770.35	0.68
770.525	0.61
770.701	0.38
770.877	0.37
771.052	0.28
771.228	0.38
771.403	0.38
771.579	0.29
771.755	0.65
771.93	0.15
772.106	0.27
772.281	0.18
772.457	0.3
772.632	0.5
772.808	0.1
772.983	0.28
773.159	0.25
773.334	0.48
773.509	0.39
773.685	0.26
773.86	0.67
774.036	0.54
774.211	0.37
774.386	0.29
774.562	0.4
774.737	0.62
774.912	0.18
775.087	0.44
775.263	0.25
775.438	0.33
775.613	0.31
775.788	0.4
775.964	0.44
776.139	0.81
776.314	0.08
776.489	0.46
776.664	0.31
776.839	0.37
777.014	0.49
777.19	0.47
777.365	0.68
777.54	0.54
777.715	0.36
777.89	0.4
778.065	0.18
778.24	0.39
778.415	0.46
778.59	0.18
778.765	0.38
778.94	0.67
779.115	0.33
779.289	0.18
779.464	0.51
779.639	0.26
779.814	0.16
779.989	0.11
780.164	0.52
780.339	0.39
780.513	0.38
780.688	0.11
780.863	0.3
781.038	0.56
781.212	0.32
781.387	0.34
781.562	0.54
781.737	0.48
781.911	0.65
782.086	0.28
782.261	0.37
782.435	0.55
782.61	0.19
782.784	0.46
782.959	0.55
783.134	0.37
783.308	0.19
783.483	0.33
783.657	0.73
783.832	0.48
784.006	0.14
784.181	0.23
784.355	0.64
784.53	0.36
784.704	0.34
784.878	0.69
785.053	0.46
785.227	0.49
785.402	0.87
785.576	0.17
785.75	0.22
785.925	0.47
786.099	0.37
786.273	0.66
786.448	0.55
786.622	0.5
786.796	0.42
786.97	0.31
787.145	0.85
787.319	0.08
787.493	0.38
787.667	0.25
787.841	0.37
788.015	0.67
788.19	0.27
788.364	0.4
788.538	0.47
788.712	0.64
788.886	0.44
789.06	0.58
789.234	0.42
789.408	0.29
789.582	0.53
789.756	0.58
789.93	0.21
790.104	0.4
790.278	0.53
790.452	0.38
790.626	0.5
790.8	0.31
790.973	0.49
791.147	0.58
791.321	0.63
791.495	0.51
791.669	0.55
791.843	0.41
792.016	0.63
792.19	0.6
792.364	0.16
792.538	0.92
792.711	0.68
792.885	0.28
793.059	0.14
793.233	-0.09
793.406	0.67
793.58	0.41
793.754	0.36
793.927	0.39
794.101	0.61
794.274	0.84
794.448	0.64
794.622	0.34
794.795	0.78
794.969	0.39
795.142	0.79
795.316	0.45
795.489	0.34
795.663	0.91
795.836	0.68
796.009	-0.02
796.183	0.59
796.356	0.54
796.53	0.52
796.703	0.72
796.876	1.04
797.05	0.56
797.223	0.51
797.396	0.7
797.57	0.16
797.743	0.72
797.916	0.6
798.09	0.5
798.263	0.65
798.436	0.37
798.609	0.36
798.782	0.53
798.956	0.34
799.129	0.46
799.302	0.49
799.475	0.15
799.648	0.32
799.821	0.19
799.994	0.26
800.167	-0.05
800.34	0.38
800.514	0.53
800.687	0.38
800.86	0.22
801.033	0.3
801.206	0.66
801.379	0.15
801.551	0.71
801.724	0.8
801.897	0.85
802.07	0.31
802.243	0.13
802.416	0.34
802.589	0.49
802.762	0.82
802.935	0.81
803.107	0.79
803.28	0.58
803.453	0.58
803.626	0.38
803.798	0.37
803.971	0.63
804.144	0.54
804.317	0.61
804.489	0.76
804.662	0.56
804.835	0.64
805.007	0.31
805.18	0.95
805.353	0.4
805.525	0.21
805.698	0.41
805.87	0.81
806.043	0.91
806.215	0.44
806.388	0.46
806.56	0.66
806.733	0.97
806.905	0.47
807.078	0.49
807.25	0.4
807.423	0.64
807.595	0.52
807.768	0.59
807.94	0.83
808.112	0.87
808.285	0.51
808.457	0.54
808.629	0.61
808.802	0.45
808.974	0.35
809.146	0.45
809.318	0.02
809.491	0.55
809.663	0.62
809.835	0.47
810.007	0.61
810.18	0.59
810.352	0.25
810.524	0.35
810.696	0.62
810.868	0.68
811.04	0.71
811.212	0.48
811.384	0.77
811.556	0.58
811.728	0.6
811.901	1.1
812.073	0.48
812.245	1.01
812.417	0.66
812.589	-0.08
812.76	0.65
812.932	0.67
813.104	1
813.276	0.71
813.448	0.82
813.62	0.46
813.792	0.75
813.964	0.45
814.136	0.53
814.307	0.41
814.479	0.46
814.651	0.5
814.823	1.17
814.995	0.4
815.166	0.93
815.338	0.31
815.51	-0.04
815.681	1.65
815.853	0.45
816.025	0.63
816.196	1.46
816.368	0.59
816.54	0.2
816.711	0.4
816.883	0.92
817.054	1.36
817.226	-0.22
817.398	0.67
817.569	0.4
817.741	0.66
817.912	0.57
818.084	0.17
818.255	0.54
818.426	0.58
818.598	0.49
818.769	0.25
818.941	0.85
819.112	1.47
819.283	0.93
819.455	0.44
819.626	0.18
819.798	0.77
819.969	0.86
820.14	0.36
820.311	0.06
820.483	0.58
820.654	0.84
820.825	0.51
820.996	0.64
821.168	0.09
821.339	0.51
821.51	0.07
821.681	0.13
821.852	0.74
822.023	0.07
822.195	0.41
822.366	0.87
822.537	0.64
822.708	1.09
822.879	0.75
823.05	1.09
823.221	0.9
823.392	1.13
823.563	0.78
823.734	0.99
823.905	0.44
824.076	0.56
824.247	0.46
824.418	0.52
824.589	1.16
824.759	0.45
824.93	0.95
825.101	0.19
825.272	1.08
825.443	1.02
825.614	1.28
825.784	0.37
825.955	1.74
826.126	1.81
826.297	0.91
826.467	1.66
826.638	1.28
826.809	0.11
826.98	0.54
827.15	1.09
827.321	0.81
827.492	1.53
827.662	0.6
827.833	1.2
828.003	1.23
828.174	0.55
828.345	0.25
828.515	1.39
828.686	0.98
828.856	0.87
829.027	0.57
829.197	1.11
829.368	1.04
829.538	0.49
829.709	0.61
829.879	1.13
830.049	0.56
830.22	1.12
830.39	0.9
830.56	1.29
830.731	0.52
830.901	0.41
831.072	0.88
831.242	0.86
831.412	1
831.582	0.8
831.753	0.06
831.923	1.09
832.093	0.73
832.263	0.37
832.434	0.1
832.604	0.57
832.774	0.94
832.944	0.6
833.114	0.44
833.284	0.98
833.454	0.27
833.624	0.69
833.795	0.9
833.965	1.55
834.135	1.75
834.305	-0.12
834.475	0.51
834.645	1.03
834.815	0.76
834.985	0.34
835.155	0.76
835.325	1.33
835.494	1.21
835.664	0.66
835.834	0.62
836.004	0.5
836.174	1.32
836.344	1.27
836.514	0.19
836.684	0.8
836.853	1.4
837.023	1.01
837.193	1.1
837.363	1.56
837.532	1.85
837.702	0.89
837.872	0.6
838.041	1.49
838.211	2.02
838.381	0.57
838.55	1.11
838.72	2.64
838.89	2.23
839.059	1.04
839.229	0.6
839.398	2.39
839.568	1.11
839.738	0.38
839.907	1.54
840.077	1.42
840.246	0.46
840.416	0.4
840.585	-0.17
840.755	1.69
840.924	1.81
841.093	0.23
841.263	0.23
841.432	1.12
841.602	-0.01
841.771	0.83
841.94	0.28
842.11	2.85
842.279	2.25
842.448	1.06
842.617	0.46
842.787	2.06
842.956	0
843.125	1.56
843.294	1.14
843.464	1.86
843.633	1.01
843.802	-0.16
843.971	0.79
844.14	1.58
844.309	1.77
844.479	0.24
844.648	0.3
844.817	1.42
844.986	0.95
845.155	0.78
845.324	0.6
845.493	0.3
845.662	1.75
845.831	1.98
846	1.18
846.169	0.87
846.338	2.26
846.507	1.19
846.676	1.32
846.844	0.19
847.013	0.79
847.182	0.51
847.351	0.73
847.52	0.51
847.689	1.3
847.858	0.68
848.026	0.03
848.195	1.43
848.364	1.02
848.533	0.82
848.701	0.59
848.87	1.77
849.039	1.92
849.207	1.41
849.376	1.62
849.545	1.62
849.713	0.53
849.882	0.69
850.051	0.59
850.219	1.14
850.388	1.52
850.556	-0.26
850.725	0.61
850.893	1.54
851.062	0.75
851.23	1.01
851.399	0.45
851.567	0.7
851.736	0.59
851.904	0.17
852.073	0.89
852.241	2.5
852.41	2.11
852.578	1.75
852.746	1.49
852.915	1.63
853.083	-0.1
853.251	0.38
853.42	1.05
853.588	1.34
853.756	2.52
853.924	0.69
854.093	0.87
854.261	1.34
854.429	0.05
854.597	2.04
854.765	0.51
854.934	3.06
855.102	2.41
855.27	1.77
855.438	1.17
855.606	2.9
855.774	3.35
855.942	-0.52
856.11	-0.47
856.278	1.16
856.446	2.44
856.614	0.71
856.782	0.35
856.95	2.65
857.118	2.33
857.286	0.8
857.454	-0.02
857.622	3.42
857.79	1.52
857.958	0.18
858.126	0.27
858.294	0.64
858.462	1.65
858.629	1.48
858.797	0.31
858.965	1.55
859.133	1.79
859.301	0.71
859.468	2.91
859.636	0.23
859.804	3.28
859.971	1.51
860.139	0.71
860.307	1.98
860.474	2.09
860.642	-0.27
860.81	1.72
860.977	1.3
861.145	2.73
861.313	0.54
861.48	1.88
861.648	2.57
861.815	1.63
861.983	0.3
862.15	0.34
862.318	2.83
862.485	2.02
862.653	1.16
862.82	0.57
862.988	4.48
863.155	2.69
863.322	-0.4
863.49	-0.37
863.657	1.16
863.824	2.73
863.992	2.21
864.159	1.62
864.326	1.76
864.494	1
864.661	4.18
864.828	0.84
864.996	3.07
865.163	3.02
865.33	1.27
865.497	-1.07
865.664	0.75
865.832	-0.49
865.999	1.5
866.166	0.23
866.333	1.42
866.5	2.4
866.667	1.19
866.834	1.86
867.001	4.12
867.168	-1.9
867.335	1.27
867.502	-1.31
867.669	2.57
867.836	3.61
868.003	2.61
868.17	2.73
868.337	0.66
868.504	4.13
868.671	-0.18
868.838	-0.13
869.005	2.51
869.172	2.76
869.339	0.62
869.505	1.64
869.672	2.82
869.839	3.15
870.006	2.08
870.173	-1.3
870.339	1.98
870.506	3.57
870.673	-0.04
870.84	2.56
871.006	1.91
871.173	2.01
871.34	1.7
871.506	0.5
871.673	2.28
871.839	0.15
872.006	1.51
872.173	0.25
872.339	2.45
872.506	3.05
872.672	1.88
872.839	-1.39
873.005	3.09
873.172	5.56
873.338	3.61
873.505	2.55
873.671	0.8
873.838	2.51
874.004	-0.23
874.171	-1
874.337	3.28
874.503	3.99
874.67	1.57
874.836	1.97
875.002	3.31
875.169	2.09
875.335	4
875.501	1.65
875.668	3.25
875.834	1.32
876	2.14
876.166	2.46
876.332	2.39
876.499	4.03
876.665	0.08
876.831	2
876.997	2.99
877.163	1.7
877.329	0.46
877.495	2.77
877.662	2.19
877.828	3.58
877.994	2.11
878.16	-2.01
878.326	0.58
878.492	1.97
878.658	1.56
878.824	1.94
878.99	4.25
879.156	3.1
879.322	4.95
879.487	2.47
879.653	2.34
879.819	1.27
879.985	0.38
880.151	2.66
880.317	2.06
880.483	2.38
880.648	3.8
880.814	-1.62
880.98	2.39
881.146	-1.4
881.312	0.79
881.477	0.96
881.643	0.83
881.809	2.44
881.974	2.96
882.14	-0.05
882.306	1.63
882.471	4.6
882.637	1.42
882.803	1.6
882.968	3.93
883.134	6.5
883.299	2.21
883.465	1.84
883.63	4.87
883.796	4.26
883.961	3.6
884.127	3.06
884.292	-2.11
884.458	-0.81
884.623	-0.81
