Data from Apollo_Calib_20240827__AbsoluteIrradiance__14__23-23-01-842.txt Node

Date: Tue Aug 27 23:23:01 BST 2024
User: biology
Spectrometer: FLMT08252
Trigger mode: 0
Integration Time (sec): 5.000000E-1
Scans to average: 5
Electric dark correction enabled: true
Nonlinearity correction enabled: false
Boxcar width: 0
XAxis mode: Wavelengths
Number of Pixels in Spectrum: 3648
>>>>>Begin Spectral Data<<<<<
179.588	-0
179.809	-0
180.03	-0
180.251	-0
180.473	-0
180.694	0
180.915	0
181.136	-0
181.357	-0
181.578	0
181.799	0
182.02	-0
182.241	0
182.462	-0
182.683	0
182.904	-0
183.125	-0
183.346	0
183.567	0
183.788	0
184.009	0
184.23	0
184.451	0
184.672	0
184.892	0
185.113	0
185.334	0
185.555	0
185.776	0
185.996	0
186.217	0
186.438	0
186.659	0
186.879	0
187.1	0
187.321	0
187.541	0
187.762	0
187.983	0
188.203	0
188.424	0
188.644	0
188.865	0
189.086	0
189.306	0
189.527	0
189.747	0
189.968	0
190.188	0
190.409	0
190.629	0
190.849	0
191.07	0
191.29	0
191.511	0
191.731	0
191.951	0
192.172	0
192.392	0
192.612	0
192.833	0
193.053	0
193.273	0
193.493	0
193.714	0
193.934	0
194.154	0
194.374	0
194.594	0
194.815	0
195.035	0
195.255	0
195.475	0
195.695	0
195.915	0
196.135	0
196.355	0
196.575	0
196.795	0
197.015	0
197.235	0
197.455	0
197.675	0
197.895	0
198.115	0
198.335	0
198.555	0
198.775	0
198.995	0
199.214	0
199.434	0
199.654	0
199.874	0
200.094	4.03
200.313	2.94
200.533	2.68
200.753	1.87
200.973	3.1
201.192	3.14
201.412	1.33
201.632	2.54
201.851	2.91
202.071	1.28
202.291	2.05
202.51	1.27
202.73	2.68
202.95	2.08
203.169	1.62
203.389	2.26
203.608	1.94
203.828	1.69
204.047	2.36
204.267	2.12
204.486	2.08
204.706	2.3
204.925	1.71
205.145	1.94
205.364	1.99
205.583	2.43
205.803	1.52
206.022	1.06
206.242	1.76
206.461	1.74
206.68	1.65
206.9	1.74
207.119	1.87
207.338	2.15
207.557	1.15
207.777	1.64
207.996	1.17
208.215	2.03
208.434	1.4
208.654	1.22
208.873	1.4
209.092	1.89
209.311	1.36
209.53	1.38
209.749	1.4
209.968	1.11
210.187	1.19
210.407	0.83
210.626	1.28
210.845	1.48
211.064	1.01
211.283	0.97
211.502	1.41
211.721	1.22
211.94	1.18
212.159	1.25
212.377	1.4
212.596	1.5
212.815	1.29
213.034	1.05
213.253	1.23
213.472	1.31
213.691	0.69
213.91	0.86
214.128	0.86
214.347	1.49
214.566	0.68
214.785	0.85
215.003	0.98
215.222	1.15
215.441	0.84
215.66	0.67
215.878	0.77
216.097	1.16
216.316	0.76
216.534	0.93
216.753	0.92
216.972	0.88
217.19	0.95
217.409	0.9
217.627	0.74
217.846	0.73
218.064	1.1
218.283	0.91
218.501	1.14
218.72	0.95
218.938	0.62
219.157	0.69
219.375	1.07
219.594	0.91
219.812	0.73
220.031	0.61
220.249	1.11
220.467	1.16
220.686	0.99
220.904	0.61
221.122	0.78
221.341	1.06
221.559	1.02
221.777	0.56
221.995	0.72
222.214	0.73
222.432	0.49
222.65	0.89
222.868	0.81
223.086	0.91
223.305	0.85
223.523	0.62
223.741	1.16
223.959	0.53
224.177	0.49
224.395	0.72
224.613	0.89
224.831	0.91
225.049	0.63
225.267	0.61
225.485	0.8
225.703	0.74
225.921	0.66
226.139	0.6
226.357	0.81
226.575	0.73
226.793	0.51
227.011	1.25
227.229	0.75
227.447	0.79
227.665	0.65
227.883	0.33
228.1	0.61
228.318	0.55
228.536	0.54
228.754	0.48
228.972	0.66
229.189	0.8
229.407	0.5
229.625	0.64
229.843	0.84
230.06	0.64
230.278	0.51
230.496	0.61
230.713	0.67
230.931	0.82
231.149	0.53
231.366	0.45
231.584	0.56
231.801	0.91
232.019	0.51
232.236	0.52
232.454	0.51
232.671	0.73
232.889	0.56
233.106	0.42
233.324	0.54
233.541	0.6
233.759	0.49
233.976	0.43
234.194	0.52
234.411	0.47
234.628	0.45
234.846	0.46
235.063	0.54
235.28	0.45
235.498	0.51
235.715	0.37
235.932	0.54
236.149	0.45
236.367	0.47
236.584	0.65
236.801	0.48
237.018	0.54
237.236	0.54
237.453	0.42
237.67	0.67
237.887	0.36
238.104	0.46
238.321	0.44
238.538	0.49
238.755	0.6
238.973	0.33
239.19	0.59
239.407	0.51
239.624	0.54
239.841	0.41
240.058	0.41
240.275	0.57
240.492	0.47
240.709	0.49
240.925	0.53
241.142	0.48
241.359	0.4
241.576	0.45
241.793	0.46
242.01	0.5
242.227	0.59
242.444	0.62
242.66	0.72
242.877	0.49
243.094	0.47
243.311	0.48
243.527	0.39
243.744	0.48
243.961	0.59
244.178	0.38
244.394	0.45
244.611	0.53
244.828	0.7
245.044	0.39
245.261	0.5
245.477	0.54
245.694	0.57
245.911	0.34
246.127	0.48
246.344	0.6
246.56	0.46
246.777	0.48
246.993	0.51
247.21	0.49
247.426	0.52
247.643	0.37
247.859	0.33
248.076	0.38
248.292	0.54
248.508	0.39
248.725	0.51
248.941	0.49
249.157	0.49
249.374	0.38
249.59	0.48
249.806	0.49
250.023	0.4
250.239	0.39
250.455	0.36
250.671	0.47
250.888	0.47
251.104	0.53
251.32	0.38
251.536	0.41
251.752	0.36
251.969	0.46
252.185	0.53
252.401	0.54
252.617	0.39
252.833	0.33
253.049	0.46
253.265	0.4
253.481	0.5
253.697	0.37
253.913	0.34
254.129	0.42
254.345	0.35
254.561	0.3
254.777	0.45
254.993	0.54
255.209	0.36
255.425	0.36
255.641	0.36
255.857	0.47
256.073	0.47
256.288	0.28
256.504	0.37
256.72	0.35
256.936	0.5
257.152	0.44
257.367	0.36
257.583	0.36
257.799	0.44
258.015	0.38
258.23	0.28
258.446	0.56
258.662	0.38
258.877	0.37
259.093	0.29
259.309	0.44
259.524	0.41
259.74	0.33
259.955	0.3
260.171	0.42
260.387	0.37
260.602	0.48
260.818	0.49
261.033	0.27
261.249	0.38
261.464	0.37
261.68	0.24
261.895	0.37
262.11	0.44
262.326	0.36
262.541	0.28
262.757	0.42
262.972	0.44
263.187	0.35
263.403	0.4
263.618	0.41
263.833	0.42
264.049	0.35
264.264	0.33
264.479	0.46
264.694	0.52
264.91	0.27
265.125	0.35
265.34	0.45
265.555	0.52
265.77	0.35
265.986	0.33
266.201	0.4
266.416	0.42
266.631	0.31
266.846	0.33
267.061	0.32
267.276	0.42
267.491	0.25
267.706	0.46
267.921	0.35
268.136	0.37
268.351	0.36
268.566	0.3
268.781	0.44
268.996	0.41
269.211	0.34
269.426	0.31
269.641	0.32
269.856	0.39
270.071	0.31
270.285	0.31
270.5	0.35
270.715	0.33
270.93	0.37
271.145	0.35
271.359	0.42
271.574	0.29
271.789	0.39
272.004	0.35
272.218	0.35
272.433	0.44
272.648	0.33
272.862	0.41
273.077	0.34
273.292	0.33
273.506	0.29
273.721	0.31
273.936	0.36
274.15	0.4
274.365	0.31
274.579	0.41
274.794	0.34
275.008	0.44
275.223	0.24
275.437	0.29
275.652	0.48
275.866	0.34
276.081	0.32
276.295	0.41
276.509	0.38
276.724	0.31
276.938	0.36
277.153	0.36
277.367	0.38
277.581	0.36
277.796	0.26
278.01	0.3
278.224	0.42
278.438	0.4
278.653	0.22
278.867	0.31
279.081	0.16
279.295	0.34
279.51	0.33
279.724	0.25
279.938	0.34
280.152	0.34
280.366	0.29
280.58	0.27
280.794	0.34
281.008	0.32
281.222	0.36
281.437	0.39
281.651	0.35
281.865	0.36
282.079	0.32
282.293	0.2
282.507	0.28
282.721	0.31
282.935	0.31
283.148	0.24
283.362	0.23
283.576	0.26
283.79	0.34
284.004	0.23
284.218	0.33
284.432	0.22
284.646	0.31
284.859	0.26
285.073	0.28
285.287	0.32
285.501	0.32
285.714	0.28
285.928	0.32
286.142	0.22
286.356	0.26
286.569	0.33
286.783	0.31
286.997	0.33
287.21	0.34
287.424	0.3
287.637	0.27
287.851	0.26
288.065	0.32
288.278	0.29
288.492	0.32
288.705	0.33
288.919	0.29
289.132	0.2
289.346	0.36
289.559	0.22
289.773	0.26
289.986	0.32
290.2	0.28
290.413	0.34
290.626	0.24
290.84	0.23
291.053	0.28
291.267	0.38
291.48	0.25
291.693	0.29
291.906	0.27
292.12	0.26
292.333	0.21
292.546	0.29
292.76	0.32
292.973	0.3
293.186	0.3
293.399	0.25
293.612	0.3
293.826	0.27
294.039	0.27
294.252	0.26
294.465	0.34
294.678	0.35
294.891	0.27
295.104	0.25
295.317	0.3
295.53	0.28
295.743	0.26
295.956	0.25
296.169	0.31
296.382	0.3
296.595	0.27
296.808	0.28
297.021	0.29
297.234	0.32
297.447	0.28
297.66	0.27
297.873	0.31
298.086	0.33
298.299	0.24
298.511	0.24
298.724	0.28
298.937	0.21
299.15	0.26
299.363	0.29
299.575	0.29
299.788	0.26
300.001	0.22
300.213	0.23
300.426	0.21
300.639	0.21
300.852	0.25
301.064	0.35
301.277	0.36
301.489	0.29
301.702	0.27
301.915	0.24
302.127	0.24
302.34	0.27
302.552	0.33
302.765	0.21
302.977	0.33
303.19	0.25
303.402	0.24
303.615	0.26
303.827	0.27
304.04	0.25
304.252	0.28
304.464	0.27
304.677	0.31
304.889	0.27
305.102	0.24
305.314	0.22
305.526	0.26
305.739	0.3
305.951	0.26
306.163	0.27
306.375	0.35
306.588	0.19
306.8	0.2
307.012	0.23
307.224	0.29
307.436	0.34
307.649	0.18
307.861	0.29
308.073	0.27
308.285	0.25
308.497	0.22
308.709	0.23
308.921	0.3
309.133	0.31
309.346	0.29
309.558	0.27
309.77	0.29
309.982	0.32
310.194	0.31
310.406	0.2
310.617	0.35
310.829	0.24
311.041	0.29
311.253	0.24
311.465	0.25
311.677	0.25
311.889	0.24
312.101	0.27
312.313	0.31
312.524	0.29
312.736	0.2
312.948	0.21
313.16	0.3
313.372	0.27
313.583	0.26
313.795	0.25
314.007	0.18
314.218	0.27
314.43	0.26
314.642	0.25
314.853	0.21
315.065	0.27
315.277	0.23
315.488	0.27
315.7	0.3
315.912	0.25
316.123	0.28
316.335	0.21
316.546	0.37
316.758	0.24
316.969	0.19
317.181	0.25
317.392	0.27
317.604	0.26
317.815	0.2
318.026	0.19
318.238	0.24
318.449	0.24
318.661	0.23
318.872	0.21
319.083	0.21
319.295	0.29
319.506	0.2
319.717	0.26
319.929	0.27
320.14	0.27
320.351	0.28
320.562	0.23
320.774	0.25
320.985	0.26
321.196	0.19
321.407	0.21
321.618	0.27
321.829	0.22
322.041	0.26
322.252	0.21
322.463	0.26
322.674	0.28
322.885	0.24
323.096	0.23
323.307	0.26
323.518	0.26
323.729	0.24
323.94	0.24
324.151	0.24
324.362	0.28
324.573	0.28
324.784	0.22
324.995	0.27
325.206	0.3
325.417	0.25
325.628	0.23
325.838	0.23
326.049	0.26
326.26	0.29
326.471	0.21
326.682	0.27
326.892	0.25
327.103	0.25
327.314	0.25
327.525	0.32
327.735	0.28
327.946	0.28
328.157	0.23
328.368	0.3
328.578	0.22
328.789	0.27
328.999	0.26
329.21	0.22
329.421	0.28
329.631	0.23
329.842	0.23
330.052	0.21
330.263	0.25
330.473	0.32
330.684	0.26
330.894	0.22
331.105	0.23
331.315	0.24
331.526	0.21
331.736	0.32
331.947	0.25
332.157	0.25
332.367	0.19
332.578	0.29
332.788	0.26
332.999	0.33
333.209	0.23
333.419	0.2
333.629	0.3
333.84	0.32
334.05	0.27
334.26	0.29
334.47	0.34
334.681	0.31
334.891	0.23
335.101	0.24
335.311	0.33
335.521	0.29
335.732	0.25
335.942	0.27
336.152	0.26
336.362	0.27
336.572	0.3
336.782	0.27
336.992	0.25
337.202	0.27
337.412	0.21
337.622	0.24
337.832	0.28
338.042	0.27
338.252	0.25
338.462	0.21
338.672	0.24
338.882	0.2
339.092	0.22
339.302	0.34
339.511	0.27
339.721	0.24
339.931	0.22
340.141	0.28
340.351	0.28
340.561	0.23
340.77	0.24
340.98	0.25
341.19	0.27
341.4	0.17
341.609	0.24
341.819	0.21
342.029	0.26
342.238	0.27
342.448	0.21
342.658	0.31
342.867	0.28
343.077	0.27
343.286	0.28
343.496	0.29
343.706	0.29
343.915	0.23
344.125	0.25
344.334	0.26
344.544	0.15
344.753	0.24
344.963	0.24
345.172	0.24
345.381	0.25
345.591	0.27
345.8	0.27
346.01	0.35
346.219	0.31
346.428	0.1
346.638	0.24
346.847	0.3
347.056	0.34
347.266	0.26
347.475	0.28
347.684	0.29
347.893	0.32
348.103	0.24
348.312	0.24
348.521	0.23
348.73	0.28
348.94	0.26
349.149	0.23
349.358	0.25
349.567	0.24
349.776	0.22
349.985	0.24
350.194	0.26
350.403	0.29
350.612	0.21
350.821	0.23
351.03	0.26
351.239	0.19
351.448	0.26
351.657	0.2
351.866	0.31
352.075	0.22
352.284	0.28
352.493	0.15
352.702	0.31
352.911	0.32
353.12	0.25
353.329	0.25
353.538	0.29
353.746	0.23
353.955	0.23
354.164	0.28
354.373	0.25
354.582	0.28
354.79	0.23
354.999	0.3
355.208	0.23
355.416	0.26
355.625	0.24
355.834	0.24
356.042	0.22
356.251	0.25
356.46	0.19
356.668	0.29
356.877	0.33
357.085	0.29
357.294	0.21
357.503	0.29
357.711	0.25
357.92	0.37
358.128	0.24
358.337	0.29
358.545	0.27
358.754	0.2
358.962	0.29
359.17	0.23
359.379	0.24
359.587	0.24
359.796	0.22
360.004	0.29
360.212	0.28
360.421	0.29
360.629	0.24
360.837	0.25
361.046	0.26
361.254	0.31
361.462	0.26
361.67	0.27
361.879	0.28
362.087	0.3
362.295	0.26
362.503	0.21
362.711	0.2
362.92	0.25
363.128	0.22
363.336	0.21
363.544	0.2
363.752	0.22
363.96	0.25
364.168	0.19
364.376	0.23
364.584	0.28
364.792	0.29
365	0.27
365.208	0.25
365.416	0.25
365.624	0.28
365.832	0.24
366.04	0.28
366.248	0.26
366.456	0.24
366.664	0.3
366.872	0.26
367.079	0.26
367.287	0.24
367.495	0.25
367.703	0.2
367.911	0.19
368.118	0.21
368.326	0.26
368.534	0.2
368.742	0.27
368.949	0.22
369.157	0.25
369.365	0.32
369.572	0.22
369.78	0.24
369.988	0.32
370.195	0.29
370.403	0.26
370.61	0.24
370.818	0.27
371.026	0.35
371.233	0.2
371.441	0.28
371.648	0.23
371.856	0.29
372.063	0.26
372.271	0.25
372.478	0.25
372.685	0.25
372.893	0.3
373.1	0.25
373.308	0.27
373.515	0.31
373.722	0.28
373.93	0.24
374.137	0.26
374.344	0.32
374.552	0.32
374.759	0.28
374.966	0.25
375.173	0.24
375.381	0.32
375.588	0.25
375.795	0.2
376.002	0.24
376.209	0.22
376.417	0.26
376.624	0.3
376.831	0.31
377.038	0.27
377.245	0.2
377.452	0.24
377.659	0.24
377.866	0.27
378.073	0.24
378.28	0.27
378.487	0.31
378.694	0.28
378.901	0.28
379.108	0.27
379.315	0.32
379.522	0.38
379.729	0.28
379.936	0.22
380.143	0.2
380.35	0.28
380.557	0.23
380.763	0.28
380.97	0.27
381.177	0.29
381.384	0.25
381.591	0.25
381.797	0.26
382.004	0.25
382.211	0.33
382.418	0.26
382.624	0.25
382.831	0.32
383.038	0.23
383.244	0.26
383.451	0.27
383.658	0.32
383.864	0.25
384.071	0.24
384.277	0.33
384.484	0.27
384.69	0.33
384.897	0.29
385.103	0.29
385.31	0.26
385.516	0.27
385.723	0.27
385.929	0.22
386.136	0.26
386.342	0.28
386.549	0.26
386.755	0.34
386.961	0.3
387.168	0.26
387.374	0.27
387.58	0.27
387.787	0.27
387.993	0.31
388.199	0.26
388.406	0.24
388.612	0.25
388.818	0.31
389.024	0.25
389.231	0.29
389.437	0.35
389.643	0.32
389.849	0.3
390.055	0.29
390.261	0.32
390.467	0.29
390.674	0.3
390.88	0.31
391.086	0.31
391.292	0.26
391.498	0.29
391.704	0.27
391.91	0.29
392.116	0.27
392.322	0.25
392.528	0.32
392.734	0.28
392.94	0.29
393.146	0.31
393.352	0.29
393.557	0.28
393.763	0.28
393.969	0.35
394.175	0.28
394.381	0.33
394.587	0.27
394.792	0.27
394.998	0.35
395.204	0.33
395.41	0.26
395.615	0.32
395.821	0.36
396.027	0.35
396.233	0.26
396.438	0.31
396.644	0.41
396.85	0.39
397.055	0.28
397.261	0.36
397.466	0.44
397.672	0.35
397.878	0.38
398.083	0.37
398.289	0.3
398.494	0.39
398.7	0.36
398.905	0.25
399.111	0.4
399.316	0.29
399.522	0.34
399.727	0.31
399.932	0.34
400.138	0.34
400.343	0.35
400.549	0.37
400.754	0.39
400.959	0.36
401.165	0.34
401.37	0.39
401.575	0.44
401.78	0.37
401.986	0.38
402.191	0.35
402.396	0.37
402.601	0.39
402.807	0.38
403.012	0.38
403.217	0.43
403.422	0.4
403.627	0.39
403.832	0.39
404.037	0.42
404.243	0.45
404.448	0.41
404.653	0.39
404.858	0.48
405.063	0.38
405.268	0.41
405.473	0.43
405.678	0.42
405.883	0.6
406.088	0.49
406.293	0.42
406.498	0.45
406.703	0.49
406.907	0.51
407.112	0.43
407.317	0.5
407.522	0.55
407.727	0.48
407.932	0.52
408.136	0.62
408.341	0.58
408.546	0.54
408.751	0.6
408.956	0.56
409.16	0.63
409.365	0.57
409.57	0.63
409.774	0.6
409.979	0.65
410.184	0.67
410.388	0.59
410.593	0.77
410.798	0.75
411.002	0.71
411.207	0.82
411.411	0.85
411.616	0.77
411.82	0.83
412.025	0.85
412.229	0.85
412.434	0.93
412.638	0.9
412.843	0.92
413.047	0.97
413.252	0.87
413.456	0.99
413.66	1.05
413.865	1.02
414.069	1.1
414.273	1.15
414.478	1.12
414.682	1.17
414.886	1.2
415.091	1.22
415.295	1.26
415.499	1.35
415.703	1.3
415.908	1.46
416.112	1.38
416.316	1.56
416.52	1.55
416.724	1.49
416.929	1.64
417.133	1.82
417.337	1.69
417.541	1.75
417.745	1.84
417.949	1.98
418.153	1.93
418.357	2.01
418.561	2.3
418.765	2.2
418.969	2.29
419.173	2.37
419.377	2.38
419.581	2.55
419.785	2.58
419.989	2.61
420.193	2.79
420.397	2.89
420.601	2.91
420.804	3.07
421.008	3.04
421.212	3.25
421.416	3.23
421.62	3.26
421.823	3.36
422.027	3.44
422.231	3.43
422.435	3.51
422.638	3.51
422.842	3.63
423.046	3.68
423.249	3.88
423.453	3.9
423.657	4.01
423.86	4.07
424.064	4.24
424.268	4.41
424.471	4.43
424.675	4.58
424.878	4.71
425.082	4.91
425.285	5.22
425.489	4.99
425.692	5.17
425.896	5.15
426.099	5.39
426.303	5.51
426.506	5.73
426.71	5.88
426.913	6.1
427.116	6.23
427.32	6.4
427.523	6.39
427.726	6.61
427.93	6.78
428.133	7.1
428.336	7.25
428.54	7.31
428.743	7.58
428.946	7.83
429.149	7.77
429.353	7.92
429.556	7.99
429.759	7.97
429.962	8.1
430.165	8.28
430.368	7.95
430.571	8.05
430.775	8
430.978	8.13
431.181	8.02
431.384	8.16
431.587	8.22
431.79	8.65
431.993	8.55
432.196	8.92
432.399	9.21
432.602	9.37
432.805	9.39
433.008	10.02
433.211	9.89
433.414	10.14
433.616	10.23
433.819	10.19
434.022	10.47
434.225	10.56
434.428	10.55
434.631	10.94
434.833	10.76
435.036	11.02
435.239	11.18
435.442	11.35
435.645	11.51
435.847	11.51
436.05	11.81
436.253	12.01
436.455	12.11
436.658	11.85
436.861	12.22
437.063	12.38
437.266	12.37
437.468	12.68
437.671	12.98
437.874	13.06
438.076	13.04
438.279	13.53
438.481	13.36
438.684	14.12
438.886	13.75
439.089	14.14
439.291	14.17
439.494	14.54
439.696	14.68
439.899	15.13
440.101	15.62
440.303	15.74
440.506	16.51
440.708	16.18
440.91	16.43
441.113	16.7
441.315	16.74
441.517	16.64
441.72	17.16
441.922	16.76
442.124	16.76
442.326	17.17
442.529	17.36
442.731	17.35
442.933	17.7
443.135	17.45
443.337	17.3
443.539	17.9
443.742	17.7
443.944	18.38
444.146	18.07
444.348	18.04
444.55	17.9
444.752	18.14
444.954	18.14
445.156	17.94
445.358	18.44
445.56	18.63
445.762	18.39
445.964	18.73
446.166	18.6
446.368	18.67
446.57	18.58
446.772	18.2
446.974	17.93
447.175	18.25
447.377	17.92
447.579	18.5
447.781	18.06
447.983	17.81
448.184	17.4
448.386	17.88
448.588	17.45
448.79	17.23
448.991	17.63
449.193	17.67
449.395	16.86
449.597	16.52
449.798	16.4
450	15.98
450.202	15.9
450.403	15.96
450.605	15.82
450.806	15.45
451.008	15.37
451.21	15.09
451.411	14.68
451.613	13.95
451.814	14.19
452.016	14.18
452.217	13.43
452.419	13.52
452.62	13.08
452.821	12.99
453.023	12.7
453.224	12.28
453.426	11.94
453.627	11.1
453.828	11.32
454.03	11.43
454.231	11.3
454.432	11.23
454.634	10.9
454.835	10.57
455.036	10.54
455.238	10.14
455.439	9.92
455.64	9.66
455.841	9.47
456.042	9.66
456.244	9.23
456.445	8.91
456.646	8.72
456.847	8.66
457.048	8.58
457.249	8.65
457.45	8.23
457.651	7.87
457.852	7.66
458.054	7.3
458.255	7.3
458.456	7.33
458.657	7.28
458.858	6.76
459.058	6.68
459.259	6.79
459.46	6.5
459.661	6.44
459.862	6.58
460.063	6.41
460.264	6.28
460.465	6.07
460.666	6.09
460.866	5.81
461.067	5.54
461.268	5.6
461.469	5.51
461.67	5.44
461.87	5.34
462.071	5.29
462.272	5.19
462.473	5.14
462.673	5.35
462.874	5.23
463.075	5.18
463.275	5.1
463.476	5.2
463.676	5.15
463.877	4.95
464.078	4.95
464.278	5.09
464.479	4.92
464.679	4.77
464.88	4.78
465.08	4.73
465.281	4.53
465.481	4.32
465.682	4.13
465.882	4.15
466.083	4.22
466.283	4.03
466.483	4.01
466.684	3.76
466.884	3.75
467.085	3.71
467.285	3.77
467.485	3.66
467.686	3.52
467.886	3.44
468.086	3.4
468.286	3.37
468.487	3.49
468.687	3.3
468.887	3.22
469.087	3.37
469.287	3.25
469.488	3.06
469.688	3.23
469.888	3.2
470.088	3.12
470.288	3.08
470.488	2.98
470.688	2.87
470.888	2.86
471.088	2.71
471.288	2.76
471.488	2.82
471.688	2.74
471.888	2.67
472.088	2.85
472.288	2.7
472.488	2.62
472.688	2.53
472.888	2.6
473.088	2.62
473.288	2.48
473.488	2.48
473.688	2.58
473.887	2.47
474.087	2.48
474.287	2.49
474.487	2.39
474.687	2.41
474.886	2.4
475.086	2.33
475.286	2.35
475.486	2.29
475.685	2.22
475.885	2.22
476.085	2.22
476.284	2.24
476.484	2.29
476.684	2.29
476.883	2.31
477.083	2.17
477.282	2.13
477.482	2.21
477.681	2.18
477.881	2.1
478.08	2.09
478.28	2.05
478.479	2.09
478.679	2.12
478.878	2.01
479.078	2.04
479.277	2.04
479.477	2.03
479.676	2
479.875	2.06
480.075	2.01
480.274	1.98
480.473	2.08
480.673	2.03
480.872	2.11
481.071	2.02
481.271	2.09
481.47	2.03
481.669	1.99
481.868	1.93
482.067	2.04
482.267	1.92
482.466	1.99
482.665	1.96
482.864	1.97
483.063	1.96
483.262	2
483.461	2.01
483.661	2.05
483.86	2
484.059	2.06
484.258	2.03
484.457	2
484.656	2.02
484.855	2.08
485.054	1.91
485.253	1.99
485.452	1.95
485.651	2.01
485.849	1.97
486.048	2.01
486.247	2.01
486.446	2.03
486.645	2.07
486.844	2.04
487.043	2.04
487.241	2.08
487.44	2.06
487.639	2.19
487.838	2.13
488.037	2.15
488.235	2.19
488.434	2.15
488.633	2.08
488.831	2.2
489.03	2.22
489.229	2.17
489.427	2.19
489.626	2.26
489.825	2.23
490.023	2.31
490.222	2.32
490.42	2.3
490.619	2.33
490.817	2.39
491.016	2.33
491.214	2.4
491.413	2.44
491.611	2.37
491.81	2.41
492.008	2.41
492.207	2.53
492.405	2.55
492.604	2.43
492.802	2.52
493	2.55
493.199	2.6
493.397	2.64
493.595	2.7
493.794	2.62
493.992	2.76
494.19	2.74
494.388	2.8
494.587	2.76
494.785	2.75
494.983	2.71
495.181	2.8
495.379	2.89
495.578	2.94
495.776	2.91
495.974	2.9
496.172	3
496.37	3.06
496.568	3.08
496.766	3.06
496.964	3.2
497.162	3.21
497.36	3.19
497.558	3.24
497.756	3.29
497.954	3.27
498.152	3.36
498.35	3.48
498.548	3.34
498.746	3.38
498.944	3.38
499.142	3.46
499.34	3.48
499.538	3.62
499.736	3.46
499.933	3.59
500.131	3.61
500.329	3.82
500.527	3.75
500.725	3.84
500.922	3.86
501.12	3.84
501.318	3.93
501.516	3.95
501.713	4
501.911	3.95
502.109	3.97
502.306	4.05
502.504	3.99
502.701	4.03
502.899	4.13
503.097	4.3
503.294	4.18
503.492	4.33
503.689	4.38
503.887	4.32
504.084	4.42
504.282	4.38
504.479	4.34
504.677	4.55
504.874	4.54
505.072	4.47
505.269	4.65
505.466	4.67
505.664	4.69
505.861	4.68
506.059	4.8
506.256	4.78
506.453	4.81
506.651	4.94
506.848	4.95
507.045	4.94
507.242	4.93
507.44	5.02
507.637	5.09
507.834	5.01
508.031	5.18
508.229	5.11
508.426	5.06
508.623	5.23
508.82	5.28
509.017	5.23
509.214	5.24
509.411	5.37
509.608	5.32
509.805	5.43
510.003	5.44
510.2	5.48
510.397	5.66
510.594	5.56
510.791	5.62
510.988	5.64
511.184	5.58
511.381	5.44
511.578	5.71
511.775	5.76
511.972	5.71
512.169	5.78
512.366	5.81
512.563	5.96
512.76	5.96
512.956	6
513.153	5.91
513.35	5.9
513.547	5.88
513.744	6.06
513.94	6.03
514.137	6.15
514.334	6.06
514.53	6.16
514.727	6.3
514.924	6.26
515.12	6.22
515.317	6.28
515.514	6.24
515.71	6.18
515.907	6.44
516.103	6.4
516.3	6.3
516.497	6.42
516.693	6.39
516.89	6.44
517.086	6.51
517.283	6.44
517.479	6.42
517.676	6.58
517.872	6.61
518.068	6.61
518.265	6.67
518.461	6.53
518.658	6.71
518.854	6.67
519.05	6.81
519.247	6.8
519.443	6.74
519.639	6.89
519.836	6.73
520.032	6.77
520.228	6.89
520.424	6.85
520.621	6.91
520.817	6.94
521.013	6.87
521.209	7.12
521.405	7.04
521.601	6.93
521.798	7.04
521.994	7
522.19	6.95
522.386	7.07
522.582	7.06
522.778	7.2
522.974	7.02
523.17	7.13
523.366	7.07
523.562	7.19
523.758	7.14
523.954	7.01
524.15	7.22
524.346	7.2
524.542	7.26
524.738	7.21
524.934	7.34
525.129	7.3
525.325	7.24
525.521	7.22
525.717	7.42
525.913	7.28
526.109	7.32
526.304	7.44
526.5	7.39
526.696	7.42
526.892	7.34
527.087	7.58
527.283	7.47
527.479	7.43
527.674	7.33
527.87	7.52
528.066	7.49
528.261	7.48
528.457	7.45
528.653	7.64
528.848	7.6
529.044	7.66
529.239	7.48
529.435	7.53
529.63	7.52
529.826	7.47
530.021	7.51
530.217	7.58
530.412	7.6
530.608	7.64
530.803	7.6
530.999	7.5
531.194	7.64
531.389	7.67
531.585	7.74
531.78	7.79
531.975	7.69
532.171	7.75
532.366	7.66
532.561	7.76
532.757	7.65
532.952	7.9
533.147	7.64
533.342	7.77
533.538	7.7
533.733	7.92
533.928	7.51
534.123	7.76
534.318	7.77
534.513	7.69
534.709	7.89
534.904	7.8
535.099	7.92
535.294	7.86
535.489	7.91
535.684	7.84
535.879	7.82
536.074	7.88
536.269	7.96
536.464	7.96
536.659	7.79
536.854	7.86
537.049	7.94
537.244	7.94
537.439	7.93
537.634	7.9
537.828	8.01
538.023	7.9
538.218	7.9
538.413	7.84
538.608	7.87
538.803	7.88
538.997	7.84
539.192	7.91
539.387	7.88
539.582	7.94
539.776	7.81
539.971	7.93
540.166	8.02
540.36	7.93
540.555	8.06
540.75	7.91
540.944	7.98
541.139	8.05
541.334	7.96
541.528	7.99
541.723	8.02
541.917	8.05
542.112	7.95
542.306	7.83
542.501	7.91
542.695	7.95
542.89	7.89
543.084	7.97
543.279	8
543.473	8.04
543.668	8.07
543.862	7.89
544.056	7.86
544.251	8.06
544.445	8.11
544.64	8.1
544.834	7.77
545.028	7.67
545.222	8.07
545.417	8.21
545.611	8.06
545.805	8.03
546	7.84
546.194	8.03
546.388	8.06
546.582	7.93
546.776	8.01
546.97	8.07
547.165	8.02
547.359	8.03
547.553	7.96
547.747	7.99
547.941	8.2
548.135	7.97
548.329	8.07
548.523	8.09
548.717	8.01
548.911	8.02
549.105	8
549.299	8.13
549.493	8.13
549.687	7.93
549.881	8.12
550.075	8.09
550.269	7.97
550.463	8.08
550.657	8.08
550.85	8.06
551.044	8
551.238	8.15
551.432	8.01
551.626	8.11
551.82	8.13
552.013	7.95
552.207	8.18
552.401	8.14
552.594	8.13
552.788	8
552.982	8.01
553.176	7.96
553.369	8.23
553.563	8.09
553.756	8.08
553.95	8.12
554.144	8.1
554.337	8.14
554.531	7.89
554.724	8.13
554.918	8.13
555.111	8.04
555.305	8.08
555.498	8.01
555.692	8.15
555.885	8.17
556.079	8.05
556.272	8.13
556.466	8.07
556.659	8.07
556.852	8.15
557.046	8.01
557.239	7.92
557.432	8.02
557.626	8.14
557.819	8.17
558.012	8.18
558.206	8.21
558.399	8.12
558.592	8.03
558.785	8.02
558.979	8.1
559.172	8.11
559.365	8.12
559.558	8
559.751	8.04
559.944	8.13
560.138	8.02
560.331	8.1
560.524	8.19
560.717	8.08
560.91	8.07
561.103	8.14
561.296	7.95
561.489	8.15
561.682	8.15
561.875	8.09
562.068	8.17
562.261	8.03
562.454	8.22
562.647	8.07
562.84	8.08
563.032	8.09
563.225	8.02
563.418	8.02
563.611	8.09
563.804	8.19
563.997	7.96
564.19	7.87
564.382	8.25
564.575	8.1
564.768	8.09
564.961	8.15
565.153	8.06
565.346	7.95
565.539	8.12
565.731	8.08
565.924	8.15
566.117	8.23
566.309	8.08
566.502	8.04
566.695	8.01
566.887	8.17
567.08	8.04
567.272	8.12
567.465	7.95
567.657	8.17
567.85	7.91
568.042	8.06
568.235	8.1
568.427	7.92
568.62	8.01
568.812	8.04
569.005	8.06
569.197	7.95
569.389	7.97
569.582	7.97
569.774	8.04
569.966	7.93
570.159	7.92
570.351	7.94
570.543	8.01
570.736	8.09
570.928	7.85
571.12	8.04
571.312	7.93
571.505	7.77
571.697	7.96
571.889	7.94
572.081	7.97
572.273	7.87
572.465	7.96
572.658	7.98
572.85	8.07
573.042	7.99
573.234	7.83
573.426	7.92
573.618	7.91
573.81	7.96
574.002	7.91
574.194	7.94
574.386	7.9
574.578	7.78
574.77	7.88
574.962	7.96
575.154	7.79
575.346	7.81
575.538	7.76
575.729	7.8
575.921	7.96
576.113	8.03
576.305	7.89
576.497	8.02
576.689	7.8
576.88	7.78
577.072	7.97
577.264	7.82
577.456	7.84
577.647	7.83
577.839	7.93
578.031	7.83
578.223	7.78
578.414	7.69
578.606	7.84
578.798	7.83
578.989	7.81
579.181	7.87
579.372	7.79
579.564	7.84
579.755	7.82
579.947	7.71
580.139	7.78
580.33	7.69
580.522	7.79
580.713	7.68
580.905	7.71
581.096	7.84
581.287	7.71
581.479	7.72
581.67	7.79
581.862	7.69
582.053	7.71
582.244	7.59
582.436	7.85
582.627	7.63
582.818	7.63
583.01	7.62
583.201	7.7
583.392	7.54
583.583	7.54
583.775	7.44
583.966	7.57
584.157	7.62
584.348	7.73
584.54	7.57
584.731	7.63
584.922	7.51
585.113	7.5
585.304	7.6
585.495	7.58
585.686	7.6
585.877	7.59
586.068	7.71
586.259	7.51
586.45	7.48
586.641	7.51
586.832	7.63
587.023	7.47
587.214	7.44
587.405	7.48
587.596	7.41
587.787	7.39
587.978	7.43
588.169	7.39
588.36	7.34
588.551	7.44
588.742	7.41
588.932	7.42
589.123	7.25
589.314	7.47
589.505	7.33
589.696	7.32
589.886	7.35
590.077	7.29
590.268	7.23
590.458	7.21
590.649	7.12
590.84	7.27
591.03	7.25
591.221	7.32
591.412	7.2
591.602	7.3
591.793	7.2
591.984	7.23
592.174	7.18
592.365	7.3
592.555	7.16
592.746	7.12
592.936	7.13
593.127	7.18
593.317	7.12
593.508	7.18
593.698	7.02
593.889	7.13
594.079	7.04
594.269	7
594.46	7.01
594.65	7.07
594.84	7.07
595.031	6.94
595.221	7
595.411	6.98
595.602	7.03
595.792	6.94
595.982	6.86
596.172	6.98
596.363	6.91
596.553	6.91
596.743	6.92
596.933	6.89
597.123	6.87
597.314	6.76
597.504	6.8
597.694	6.85
597.884	6.75
598.074	6.85
598.264	6.79
598.454	6.75
598.644	6.77
598.834	6.78
599.024	6.68
599.214	6.71
599.404	6.74
599.594	6.72
599.784	6.63
599.974	6.66
600.164	6.7
600.354	6.58
600.544	6.59
600.734	6.62
600.924	6.56
601.114	6.52
601.303	6.58
601.493	6.62
601.683	6.54
601.873	6.58
602.063	6.47
602.252	6.5
602.442	6.38
602.632	6.4
602.821	6.41
603.011	6.42
603.201	6.43
603.39	6.35
603.58	6.31
603.77	6.35
603.959	6.43
604.149	6.35
604.339	6.35
604.528	6.38
604.718	6.28
604.907	6.25
605.097	6.22
605.286	6.2
605.476	6.2
605.665	6.26
605.855	6.2
606.044	6.25
606.234	6.18
606.423	6.16
606.612	6.22
606.802	6.03
606.991	6.23
607.181	6.12
607.37	6.19
607.559	5.88
607.749	6.08
607.938	5.98
608.127	6.02
608.316	6.04
608.506	5.95
608.695	6.09
608.884	5.97
609.073	5.94
609.263	6
609.452	6.03
609.641	5.89
609.83	5.82
610.019	5.91
610.208	5.92
610.397	5.81
610.586	5.85
610.775	5.7
610.965	5.81
611.154	5.66
611.343	5.74
611.532	5.68
611.721	5.83
611.91	5.7
612.099	5.66
612.287	5.56
612.476	5.61
612.665	5.75
612.854	5.58
613.043	5.63
613.232	5.63
613.421	5.52
613.61	5.57
613.798	5.51
613.987	5.55
614.176	5.53
614.365	5.47
614.554	5.53
614.742	5.54
614.931	5.44
615.12	5.48
615.309	5.45
615.497	5.34
615.686	5.28
615.875	5.4
616.063	5.34
616.252	5.31
616.44	5.35
616.629	5.28
616.818	5.25
617.006	5.24
617.195	5.25
617.383	5.19
617.572	5.13
617.76	5.14
617.949	5.2
618.137	5.27
618.326	5.19
618.514	5.06
618.703	4.98
618.891	5.12
619.079	5.08
619.268	5.13
619.456	5.04
619.644	5.04
619.833	5.03
620.021	5.02
620.209	4.93
620.398	5.01
620.586	4.86
620.774	4.95
620.962	4.97
621.151	5.01
621.339	4.86
621.527	4.84
621.715	4.86
621.903	4.88
622.092	4.77
622.28	4.9
622.468	4.68
622.656	4.85
622.844	4.72
623.032	4.79
623.22	4.62
623.408	4.73
623.596	4.67
623.784	4.75
623.972	4.71
624.16	4.68
624.348	4.64
624.536	4.69
624.724	4.51
624.912	4.61
625.1	4.64
625.288	4.62
625.476	4.51
625.664	4.64
625.851	4.52
626.039	4.53
626.227	4.42
626.415	4.5
626.603	4.43
626.79	4.48
626.978	4.38
627.166	4.5
627.354	4.39
627.541	4.34
627.729	4.27
627.917	4.47
628.104	4.38
628.292	4.31
628.48	4.38
628.667	4.32
628.855	4.31
629.042	4.35
629.23	4.31
629.418	4.2
629.605	4.25
629.793	4.16
629.98	4.19
630.168	4.11
630.355	4.17
630.543	4.16
630.73	4.13
630.917	4.12
631.105	4.22
631.292	4.1
631.48	4.08
631.667	4.15
631.854	4
632.042	4.06
632.229	3.98
632.416	4.03
632.604	4.02
632.791	3.85
632.978	4.04
633.165	3.99
633.353	4
633.54	4.05
633.727	3.83
633.914	3.87
634.101	3.76
634.289	3.9
634.476	3.78
634.663	3.79
634.85	3.79
635.037	3.82
635.224	3.83
635.411	3.83
635.598	3.75
635.785	3.72
635.972	3.71
636.159	3.69
636.346	3.71
636.533	3.68
636.72	3.67
636.907	3.71
637.094	3.59
637.281	3.52
637.468	3.61
637.655	3.61
637.842	3.53
638.029	3.53
638.215	3.58
638.402	3.56
638.589	3.47
638.776	3.5
638.963	3.49
639.149	3.54
639.336	3.53
639.523	3.48
639.709	3.43
639.896	3.39
640.083	3.41
640.27	3.47
640.456	3.37
640.643	3.35
640.829	3.28
641.016	3.24
641.203	3.31
641.389	3.25
641.576	3.25
641.762	3.28
641.949	3.23
642.135	3.31
642.322	3.23
642.508	3.18
642.695	3.26
642.881	3.16
643.068	3.13
643.254	3.16
643.441	3.16
643.627	3.23
643.813	3.12
644	3.2
644.186	3.08
644.372	3.16
644.559	3.16
644.745	3.12
644.931	3.03
645.118	3.1
645.304	3.06
645.49	2.99
645.676	2.99
645.862	3.01
646.049	3.07
646.235	3.03
646.421	3.1
646.607	3.02
646.793	3
646.979	2.87
647.165	2.97
647.352	2.95
647.538	2.93
647.724	2.91
647.91	2.94
648.096	2.85
648.282	2.92
648.468	2.91
648.654	2.85
648.84	2.87
649.026	2.81
649.212	2.8
649.397	2.8
649.583	2.76
649.769	2.75
649.955	2.74
650.141	2.73
650.327	2.77
650.513	2.7
650.698	2.77
650.884	2.6
651.07	2.74
651.256	2.73
651.442	2.71
651.627	2.62
651.813	2.7
651.999	2.61
652.184	2.65
652.37	2.64
652.556	2.65
652.741	2.64
652.927	2.52
653.113	2.6
653.298	2.58
653.484	2.5
653.669	2.55
653.855	2.52
654.04	2.54
654.226	2.55
654.412	2.53
654.597	2.45
654.782	2.54
654.968	2.5
655.153	2.49
655.339	2.46
655.524	2.48
655.71	2.49
655.895	2.42
656.08	2.41
656.266	2.51
656.451	2.48
656.636	2.43
656.822	2.42
657.007	2.43
657.192	2.42
657.378	2.34
657.563	2.32
657.748	2.34
657.933	2.38
658.118	2.26
658.304	2.32
658.489	2.38
658.674	2.33
658.859	2.24
659.044	2.34
659.229	2.34
659.414	2.32
659.599	2.24
659.785	2.22
659.97	2.31
660.155	2.24
660.34	2.26
660.525	2.22
660.71	2.2
660.895	2.26
661.08	2.18
661.264	2.15
661.449	2.25
661.634	2.17
661.819	2.25
662.004	2.17
662.189	2.11
662.374	2.09
662.559	2.12
662.743	2.05
662.928	2.08
663.113	2.04
663.298	2
663.483	2.03
663.667	2.03
663.852	1.99
664.037	2.07
664.221	2
664.406	2.01
664.591	2.02
664.775	2
664.96	1.93
665.145	1.95
665.329	1.95
665.514	1.96
665.698	1.9
665.883	1.89
666.068	1.95
666.252	1.91
666.437	1.83
666.621	1.86
666.806	1.85
666.99	1.81
667.174	1.8
667.359	1.88
667.543	1.77
667.728	1.87
667.912	1.7
668.096	1.81
668.281	1.77
668.465	1.76
668.649	1.76
668.834	1.72
669.018	1.77
669.202	1.78
669.387	1.69
669.571	1.78
669.755	1.66
669.939	1.73
670.124	1.72
670.308	1.73
670.492	1.7
670.676	1.67
670.86	1.63
671.044	1.56
671.228	1.74
671.413	1.65
671.597	1.58
671.781	1.54
671.965	1.64
672.149	1.62
672.333	1.56
672.517	1.57
672.701	1.62
672.885	1.58
673.069	1.53
673.253	1.59
673.437	1.54
673.621	1.56
673.804	1.54
673.988	1.55
674.172	1.52
674.356	1.48
674.54	1.52
674.724	1.57
674.908	1.54
675.091	1.53
675.275	1.45
675.459	1.51
675.643	1.48
675.826	1.53
676.01	1.46
676.194	1.42
676.377	1.49
676.561	1.43
676.745	1.47
676.928	1.42
677.112	1.48
677.296	1.43
677.479	1.41
677.663	1.39
677.846	1.42
678.03	1.46
678.213	1.36
678.397	1.35
678.58	1.39
678.764	1.38
678.947	1.36
679.131	1.35
679.314	1.37
679.498	1.37
679.681	1.41
679.865	1.43
680.048	1.35
680.231	1.28
680.415	1.28
680.598	1.28
680.781	1.24
680.965	1.27
681.148	1.29
681.331	1.25
681.514	1.29
681.698	1.23
681.881	1.27
682.064	1.26
682.247	1.26
682.43	1.21
682.614	1.28
682.797	1.28
682.98	1.24
683.163	1.17
683.346	1.26
683.529	1.2
683.712	1.16
683.895	1.21
684.078	1.15
684.261	1.18
684.444	1.21
684.627	1.24
684.81	1.15
684.993	1.16
685.176	1.19
685.359	1.14
685.542	1.13
685.725	1.18
685.908	1.12
686.091	1.1
686.274	1.25
686.457	1.2
686.639	1.12
686.822	1.15
687.005	1.19
687.188	1.18
687.371	1.18
687.553	1.12
687.736	1.13
687.919	1.21
688.102	1.17
688.284	1.09
688.467	1.08
688.65	1.04
688.832	0.98
689.015	1.04
689.197	1
689.38	1.17
689.563	1.09
689.745	1.08
689.928	0.98
690.11	0.97
690.293	1.04
690.475	0.99
690.658	1.02
690.84	1
691.023	0.99
691.205	1.03
691.388	1.01
691.57	1.04
691.752	1.01
691.935	0.92
692.117	0.92
692.3	1
692.482	0.91
692.664	0.98
692.847	0.98
693.029	1.01
693.211	0.99
693.393	0.93
693.576	0.9
693.758	0.96
693.94	0.98
694.122	0.95
694.304	0.97
694.487	0.85
694.669	0.95
694.851	0.92
695.033	0.95
695.215	0.87
695.397	0.84
695.579	0.98
695.761	0.85
695.943	0.86
696.125	0.98
696.308	0.93
696.49	0.82
696.671	0.99
696.853	0.9
697.035	1.03
697.217	0.85
697.399	0.95
697.581	0.82
697.763	0.92
697.945	0.83
698.127	0.86
698.309	0.86
698.491	0.93
698.672	0.95
698.854	0.95
699.036	0.92
699.218	0.87
699.399	0.94
699.581	0.83
699.763	0.8
699.945	0.77
700.126	0.78
700.308	0.82
700.49	0.76
700.671	0.75
700.853	0.76
701.035	0.8
701.216	0.8
701.398	0.83
701.579	0.8
701.761	0.82
701.943	0.75
702.124	0.74
702.306	0.75
702.487	0.94
702.669	0.82
702.85	0.73
703.031	0.73
703.213	0.81
703.394	0.88
703.576	0.75
703.757	0.84
703.938	0.83
704.12	0.87
704.301	0.77
704.483	0.7
704.664	0.84
704.845	0.8
705.026	0.82
705.208	0.77
705.389	0.83
705.57	0.73
705.751	0.74
705.933	0.78
706.114	0.8
706.295	0.77
706.476	0.66
706.657	0.86
706.838	0.76
707.02	0.78
707.201	0.72
707.382	0.79
707.563	0.76
707.744	0.72
707.925	0.73
708.106	0.67
708.287	0.68
708.468	0.78
708.649	0.73
708.83	0.81
709.011	0.63
709.192	0.8
709.373	0.67
709.554	0.67
709.734	0.74
709.915	0.73
710.096	0.66
710.277	0.67
710.458	0.75
710.639	0.71
710.819	0.55
711	0.7
711.181	0.82
711.362	0.73
711.542	0.65
711.723	0.73
711.904	0.75
712.085	0.69
712.265	0.68
712.446	0.54
712.627	0.67
712.807	0.71
712.988	0.6
713.168	0.66
713.349	0.7
713.53	0.54
713.71	0.59
713.891	0.54
714.071	0.64
714.252	0.59
714.432	0.59
714.613	0.59
714.793	0.65
714.974	0.74
715.154	0.71
715.334	0.58
715.515	0.75
715.695	0.57
715.876	0.6
716.056	0.61
716.236	0.63
716.417	0.66
716.597	0.6
716.777	0.76
716.957	0.6
717.138	0.61
717.318	0.64
717.498	0.64
717.678	0.58
717.859	0.68
718.039	0.46
718.219	0.64
718.399	0.61
718.579	0.58
718.759	0.55
718.939	0.63
719.12	0.58
719.3	0.61
719.48	0.46
719.66	0.51
719.84	0.72
720.02	0.55
720.2	0.54
720.38	0.6
720.56	0.72
720.74	0.59
720.92	0.59
721.1	0.74
721.279	0.63
721.459	0.63
721.639	0.52
721.819	0.59
721.999	0.59
722.179	0.62
722.359	0.45
722.538	0.58
722.718	0.56
722.898	0.63
723.078	0.62
723.257	0.6
723.437	0.63
723.617	0.69
723.797	0.62
723.976	0.57
724.156	0.65
724.336	0.67
724.515	0.71
724.695	0.47
724.874	0.49
725.054	0.57
725.234	0.59
725.413	0.64
725.593	0.6
725.772	0.56
725.952	0.56
726.131	0.55
726.311	0.57
726.49	0.55
726.67	0.55
726.849	0.62
727.028	0.52
727.208	0.57
727.387	0.57
727.567	0.51
727.746	0.58
727.925	0.55
728.105	0.43
728.284	0.54
728.463	0.54
728.643	0.6
728.822	0.5
729.001	0.63
729.18	0.51
729.359	0.62
729.539	0.48
729.718	0.62
729.897	0.63
730.076	0.52
730.255	0.5
730.434	0.57
730.614	0.62
730.793	0.57
730.972	0.47
731.151	0.57
731.33	0.68
731.509	0.61
731.688	0.52
731.867	0.46
732.046	0.41
732.225	0.74
732.404	0.43
732.583	0.47
732.762	0.59
732.941	0.62
733.12	0.56
733.298	0.59
733.477	0.75
733.656	0.6
733.835	0.48
734.014	0.66
734.193	0.52
734.371	0.66
734.55	0.61
734.729	0.54
734.908	0.57
735.086	0.58
735.265	0.64
735.444	0.52
735.623	0.45
735.801	0.56
735.98	0.59
736.159	0.66
736.337	0.74
736.516	0.63
736.694	0.68
736.873	0.58
737.052	0.64
737.23	0.7
737.409	0.57
737.587	0.78
737.766	0.44
737.944	0.42
738.123	0.59
738.301	0.7
738.479	0.53
738.658	0.59
738.836	0.5
739.015	0.64
739.193	0.59
739.371	0.5
739.55	0.47
739.728	0.48
739.906	0.7
740.085	0.69
740.263	0.66
740.441	0.44
740.62	0.72
740.798	0.63
740.976	0.4
741.154	0.53
741.332	0.6
741.511	0.49
741.689	0.59
741.867	0.59
742.045	0.51
742.223	0.54
742.401	0.49
742.579	0.51
742.757	0.48
742.935	0.38
743.114	0.47
743.292	0.51
743.47	0.54
743.648	0.53
743.826	0.55
744.004	0.61
744.181	0.54
744.359	0.38
744.537	0.59
744.715	0.55
744.893	0.46
745.071	0.46
745.249	0.47
745.427	0.45
745.605	0.53
745.782	0.48
745.96	0.56
746.138	0.45
746.316	0.59
746.493	0.43
746.671	0.48
746.849	0.56
747.027	0.61
747.204	0.37
747.382	0.6
747.56	0.31
747.737	0.58
747.915	0.4
748.093	0.51
748.27	0.44
748.448	0.51
748.625	0.39
748.803	0.45
748.98	0.37
749.158	0.44
749.335	0.49
749.513	0.37
749.69	0.42
749.868	0.37
750.045	0.47
750.223	0.41
750.4	0.3
750.578	0.55
750.755	0.42
750.932	0.36
751.11	0.54
751.287	0.27
751.464	0.51
751.642	0.32
751.819	0.37
751.996	0.42
752.173	0.46
752.351	0.25
752.528	0.44
752.705	0.35
752.882	0.38
753.06	0.5
753.237	0.36
753.414	0.54
753.591	0.42
753.768	0.34
753.945	0.32
754.122	0.39
754.299	0.5
754.476	0.4
754.654	0.39
754.831	0.39
755.008	0.39
755.185	0.35
755.362	0.34
755.539	0.4
755.716	0.54
755.892	0.38
756.069	0.42
756.246	0.49
756.423	0.31
756.6	0.48
756.777	0.28
756.954	0.57
757.131	0.36
757.307	0.36
757.484	0.32
757.661	0.51
757.838	0.51
758.015	0.2
758.191	0.39
758.368	0.36
758.545	0.51
758.721	0.47
758.898	0.32
759.075	0.55
759.251	0.59
759.428	0.48
759.605	0.28
759.781	0.4
759.958	0.48
760.134	0.42
760.311	0.33
760.488	0.45
760.664	0.55
760.841	0.39
761.017	0.28
761.194	0.41
761.37	0.43
761.547	0.41
761.723	0.39
761.899	0.52
762.076	0.35
762.252	0.27
762.429	0.3
762.605	0.49
762.781	0.36
762.958	0.48
763.134	0.28
763.31	0.31
763.486	0.47
763.663	0.1
763.839	0.38
764.015	0.19
764.191	0.29
764.368	0.38
764.544	0.21
764.72	0.43
764.896	0.38
765.072	0.48
765.248	0.47
765.425	0.31
765.601	0.24
765.777	0.25
765.953	0.18
766.129	0.32
766.305	0.31
766.481	0.4
766.657	0.4
766.833	0.53
767.009	0.16
767.185	0.36
767.361	0.34
767.537	0.18
767.713	0.56
767.889	0.38
768.065	0.35
768.24	0.4
768.416	0.49
768.592	0.23
768.768	0.36
768.944	0.42
769.12	0.27
769.295	0.38
769.471	0.3
769.647	0.42
769.823	0.6
769.998	0.34
770.174	0.2
770.35	0.62
770.525	0.59
770.701	0.57
770.877	0.29
771.052	0.27
771.228	0.48
771.403	0.51
771.579	0.36
771.755	0.56
771.93	0.3
772.106	0.21
772.281	0.19
772.457	0.32
772.632	0.42
772.808	0.26
772.983	0.2
773.159	0.24
773.334	0.55
773.509	0.47
773.685	0.32
773.86	0.81
774.036	0.53
774.211	0.41
774.386	0.26
774.562	0.33
774.737	0.44
774.912	0.25
775.087	0.59
775.263	0.44
775.438	0.31
775.613	0.37
775.788	0.32
775.964	0.56
776.139	0.78
776.314	0.19
776.489	0.53
776.664	0.45
776.839	0.19
777.014	0.4
777.19	0.6
777.365	0.5
777.54	0.51
777.715	0.39
777.89	0.41
778.065	0.3
778.24	0.41
778.415	0.47
778.59	0.21
778.765	0.23
778.94	0.41
779.115	0.39
779.289	0.2
779.464	0.45
779.639	0.35
779.814	0.23
779.989	0.25
780.164	0.56
780.339	0.58
780.513	0.29
780.688	0.23
780.863	0.28
781.038	0.6
781.212	0.28
781.387	0.42
781.562	0.65
781.737	0.59
781.911	0.52
782.086	0.42
782.261	0.46
782.435	0.62
782.61	0.34
782.784	0.25
782.959	0.57
783.134	0.33
783.308	0.44
783.483	0.44
783.657	0.74
783.832	0.47
784.006	0.07
784.181	0.58
784.355	0.61
784.53	0.52
784.704	0.47
784.878	0.72
785.053	0.66
785.227	0.41
785.402	0.76
785.576	0.13
785.75	0.41
785.925	0.33
786.099	0.46
786.273	0.45
786.448	0.44
786.622	0.56
786.796	0.52
786.97	0.53
787.145	0.87
787.319	0.43
787.493	0.38
787.667	0.29
787.841	0.39
788.015	0.51
788.19	0.18
788.364	0.45
788.538	0.54
788.712	0.59
788.886	0.38
789.06	0.48
789.234	0.63
789.408	0.23
789.582	0.51
789.756	0.19
789.93	0.04
790.104	0.18
790.278	0.33
790.452	0.16
790.626	0.51
790.8	0.21
790.973	0.56
791.147	0.74
791.321	0.82
791.495	0.42
791.669	0.66
791.843	0.51
792.016	0.37
792.19	0.79
792.364	0.21
792.538	0.99
792.711	0.64
792.885	0.48
793.059	0.25
793.233	0.02
793.406	0.55
793.58	0.32
793.754	0.5
793.927	0.48
794.101	0.84
794.274	0.61
794.448	0.65
794.622	0.25
794.795	0.57
794.969	0.27
795.142	0.81
795.316	0.52
795.489	0.28
795.663	0.71
795.836	0.32
796.009	0.33
796.183	0.7
796.356	0.45
796.53	0.28
796.703	0.49
796.876	0.82
797.05	0.5
797.223	0.36
797.396	0.62
797.57	0.47
797.743	0.65
797.916	0.62
798.09	0.61
798.263	0.83
798.436	0.67
798.609	0.43
798.782	0.33
798.956	0.6
799.129	0.52
799.302	0.34
799.475	0.41
799.648	0.17
799.821	0.34
799.994	0.46
800.167	0.24
800.34	0.53
800.514	0.52
800.687	0.4
800.86	0.04
801.033	0.37
801.206	0.5
801.379	0.35
801.551	0.78
801.724	0.7
801.897	1.03
802.07	0.68
802.243	0.15
802.416	0.46
802.589	0.66
802.762	0.74
802.935	0.72
803.107	0.62
803.28	0.69
803.453	0.65
803.626	0.58
803.798	0.68
803.971	0.28
804.144	0.51
804.317	0.85
804.489	0.67
804.662	0.3
804.835	0.63
805.007	0.37
805.18	1.18
805.353	0.51
805.525	0.64
805.698	0.5
805.87	0.88
806.043	0.98
806.215	0.11
806.388	0.39
806.56	0.59
806.733	0.77
806.905	1.04
807.078	0.69
807.25	0.51
807.423	0.8
807.595	0.17
807.768	0.55
807.94	0.72
808.112	0.95
808.285	0.54
808.457	0.6
808.629	0.87
808.802	0.72
808.974	0.59
809.146	0.57
809.318	0.14
809.491	0.79
809.663	0.65
809.835	0.31
810.007	0.74
810.18	0.5
810.352	0.08
810.524	0.56
810.696	0.7
810.868	0.86
811.04	0.69
811.212	0.37
811.384	0.65
811.556	0.13
811.728	0.78
811.901	1.11
812.073	0.61
812.245	1.1
812.417	0.47
812.589	0.23
812.76	0.63
812.932	0.73
813.104	0.9
813.276	0.72
813.448	1.07
813.62	0.41
813.792	0.88
813.964	0.78
814.136	0.62
814.307	0.79
814.479	0.36
814.651	0.64
814.823	1.26
814.995	0.67
815.166	0.88
815.338	0.44
815.51	0.01
815.681	0.97
815.853	0.69
816.025	0.74
816.196	1.5
816.368	0.69
816.54	-0.06
816.711	0.3
816.883	0.83
817.054	1.3
817.226	0.11
817.398	0.92
817.569	0.23
817.741	1.07
817.912	0.71
818.084	0.47
818.255	1.07
818.426	0.46
818.598	0.46
818.769	0.49
818.941	0.93
819.112	1.28
819.283	0.87
819.455	0.48
819.626	0.74
819.798	0.84
819.969	0.8
820.14	0.39
820.311	0.28
820.483	0.68
820.654	1.01
820.825	0.78
820.996	0.74
821.168	0.59
821.339	0.54
821.51	0.38
821.681	0.54
821.852	0.57
822.023	0.13
822.195	0.11
822.366	0.91
822.537	0.85
822.708	0.79
822.879	0.28
823.05	1.36
823.221	0.82
823.392	1.14
823.563	0.7
823.734	0.7
823.905	1.45
824.076	0.8
824.247	0.36
824.418	0.25
824.589	1.52
824.759	0.86
824.93	0.19
825.101	0.29
825.272	1.46
825.443	1.79
825.614	0.81
825.784	0.12
825.955	2.3
826.126	1.38
826.297	0.75
826.467	1.41
826.638	1.75
826.809	0.68
826.98	1.34
827.15	1.19
827.321	0.56
827.492	2.45
827.662	1.36
827.833	1.4
828.003	0.92
828.174	-0.04
828.345	0.14
828.515	1.65
828.686	1.2
828.856	0.52
829.027	0.49
829.197	0.79
829.368	0.59
829.538	0.69
829.709	0.74
829.879	1.51
830.049	0.6
830.22	0.59
830.39	0.71
830.56	0.92
830.731	0.97
830.901	0.69
831.072	1.11
831.242	1.23
831.412	0.45
831.582	1.32
831.753	0.49
831.923	1.46
832.093	1.28
832.263	0.63
832.434	0.5
832.604	0.78
832.774	1.46
832.944	0.37
833.114	0.49
833.284	0.76
833.454	0.26
833.624	0.38
833.795	0.87
833.965	1.46
834.135	1.08
834.305	0.41
834.475	-0.18
834.645	0.94
834.815	0.45
834.985	0.18
835.155	0.28
835.325	1.77
835.494	0.22
835.664	0.86
835.834	0.06
836.004	0.79
836.174	1.1
836.344	0.5
836.514	0.15
836.684	1.1
836.853	0.87
837.023	1.18
837.193	1.01
837.363	1.86
837.532	1.13
837.702	0.66
837.872	0.68
838.041	1.4
838.211	2.13
838.381	0.48
838.55	1.29
838.72	2.28
838.89	1.68
839.059	0.47
839.229	0.18
839.398	2.11
839.568	0.85
839.738	0.62
839.907	1.45
840.077	1.51
840.246	0.54
840.416	1.12
840.585	0.37
840.755	1.98
840.924	2.42
841.093	0.52
841.263	0.75
841.432	1.21
841.602	0.86
841.771	0.62
841.94	1.29
842.11	3.03
842.279	2.33
842.448	1.55
842.617	1.36
842.787	2.37
842.956	0.46
843.125	0.91
843.294	1.26
843.464	1.84
843.633	1.3
843.802	0.61
843.971	0.33
844.14	1.82
844.309	2.2
844.479	0.96
844.648	0.83
844.817	-0.02
844.986	1.43
845.155	0.54
845.324	1.28
845.493	0.84
845.662	0.57
845.831	1.38
846	1.53
846.169	0.78
846.338	2.3
846.507	1.24
846.676	1.66
846.844	1.44
847.013	2.01
847.182	0.7
847.351	1.26
847.52	1.73
847.689	1.34
847.858	1.63
848.026	0.84
848.195	0.8
848.364	1.29
848.533	0.84
848.701	1.53
848.87	1.07
849.039	1.94
849.207	1.86
849.376	1.59
849.545	1.95
849.713	0.29
849.882	1.41
850.051	1.32
850.219	1.1
850.388	1.54
850.556	1.25
850.725	0.45
850.893	1.66
851.062	1.13
851.23	1.65
851.399	-0.34
851.567	0.08
851.736	2.22
851.904	1.07
852.073	0.57
852.241	1.41
852.41	0.88
852.578	1.37
852.746	0.89
852.915	1.67
853.083	0.89
853.251	-0.01
853.42	0.66
853.588	0.79
853.756	1.7
853.924	1.83
854.093	1.76
854.261	1.39
854.429	-0.13
854.597	1.33
854.765	0.38
854.934	2.73
855.102	2.04
855.27	0.74
855.438	1.09
855.606	2.35
855.774	2.01
855.942	-0.32
856.11	1.61
856.278	2.5
856.446	2.45
856.614	1.59
856.782	1.67
856.95	2.44
857.118	2.45
857.286	2.25
857.454	0.74
857.622	2.26
857.79	1.42
857.958	-0.1
858.126	1.27
858.294	1.06
858.462	2.29
858.629	1.07
858.797	1.28
858.965	2.09
859.133	2.33
859.301	0.54
859.468	2.2
859.636	1.16
859.804	3.26
859.971	2.29
860.139	0.85
860.307	2.55
860.474	1.72
860.642	-0.09
860.81	0.78
860.977	0.77
861.145	3.64
861.313	1.72
861.48	1.3
861.648	2.62
861.815	2.57
861.983	0.6
862.15	0.82
862.318	3.25
862.485	3.99
862.653	0.84
862.82	2.49
862.988	3.43
863.155	1.85
863.322	0.74
863.49	-0.16
863.657	1.69
863.824	2.19
863.992	2.52
864.159	2.5
864.326	4
864.494	1.6
864.661	3.68
864.828	-1.44
864.996	2.06
865.163	3.41
865.33	-0.03
865.497	-0.17
865.664	1.82
865.832	-0.97
865.999	0.92
866.166	1
866.333	1.34
866.5	1.86
866.667	1.43
866.834	0.54
867.001	3.07
867.168	0.18
867.335	2.82
867.502	1.33
867.669	1.38
867.836	4.11
868.003	0.21
868.17	4.03
868.337	5.37
868.504	4.35
868.671	0.23
868.838	0.18
869.005	2.6
869.172	2.1
869.339	2.18
869.505	1.34
869.672	0.24
869.839	3.29
870.006	3.1
870.173	1.06
870.339	3.3
870.506	4.52
870.673	-0.51
870.84	3.46
871.006	1.9
871.173	2.52
871.34	1.29
871.506	0.5
871.673	2.96
871.839	1.18
872.006	3.24
872.173	2.65
872.339	1.78
872.506	3.76
872.672	3.47
872.839	1.23
873.005	2.35
873.172	5.78
873.338	2.64
873.505	1.98
873.671	2.19
873.838	2.71
874.004	1.29
874.171	2.44
874.337	1.94
874.503	3.57
874.67	1.45
874.836	2.28
875.002	4.49
875.169	3.67
875.335	2.44
875.501	1.81
875.668	2.38
875.834	3.21
876	2.7
876.166	3.84
876.332	1.26
876.499	3.61
876.665	-0.62
876.831	2.3
876.997	5.71
877.163	2.96
877.329	1.48
877.495	3.59
877.662	3.15
877.828	2.36
877.994	1.86
878.16	-0.55
878.326	1.72
878.492	1.02
878.658	1.26
878.824	1.8
878.99	3.72
879.156	0.95
879.322	5.12
879.487	2.07
879.653	2.22
879.819	2.53
879.985	1.1
880.151	1.53
880.317	1.51
880.483	1.16
880.648	2.05
880.814	-1.14
880.98	3.28
881.146	1.31
881.312	-0.02
881.477	1.61
881.643	1.67
881.809	3.58
881.974	1.8
882.14	1.58
882.306	-0.11
882.471	4.33
882.637	1.26
882.803	3.54
882.968	4.66
883.134	4.06
883.299	3.25
883.465	2.35
883.63	3.88
883.796	3.15
883.961	3.93
884.127	2.25
884.292	-1.78
884.458	-0.15
884.623	-0.15
