Data from Apollo_Calib_20240827__AbsoluteIrradiance__783__12-12-01-376.txt Node

Date: Wed Aug 28 12:12:01 BST 2024
User: biology
Spectrometer: FLMT08252
Trigger mode: 0
Integration Time (sec): 5.000000E-1
Scans to average: 5
Electric dark correction enabled: true
Nonlinearity correction enabled: false
Boxcar width: 0
XAxis mode: Wavelengths
Number of Pixels in Spectrum: 3648
>>>>>Begin Spectral Data<<<<<
179.588	-0
179.809	-0
180.03	-0
180.251	-0
180.473	-0
180.694	0
180.915	0
181.136	-0
181.357	0
181.578	-0
181.799	0
182.02	-0
182.241	-0
182.462	-0
182.683	0
182.904	-0
183.125	-0
183.346	0
183.567	0
183.788	0
184.009	0
184.23	0
184.451	0
184.672	0
184.892	0
185.113	0
185.334	0
185.555	0
185.776	0
185.996	0
186.217	0
186.438	0
186.659	0
186.879	0
187.1	0
187.321	0
187.541	0
187.762	0
187.983	0
188.203	0
188.424	0
188.644	0
188.865	0
189.086	0
189.306	0
189.527	0
189.747	0
189.968	0
190.188	0
190.409	0
190.629	0
190.849	0
191.07	0
191.29	0
191.511	0
191.731	0
191.951	0
192.172	0
192.392	0
192.612	0
192.833	0
193.053	0
193.273	0
193.493	0
193.714	0
193.934	0
194.154	0
194.374	0
194.594	0
194.815	0
195.035	0
195.255	0
195.475	0
195.695	0
195.915	0
196.135	0
196.355	0
196.575	0
196.795	0
197.015	0
197.235	0
197.455	0
197.675	0
197.895	0
198.115	0
198.335	0
198.555	0
198.775	0
198.995	0
199.214	0
199.434	0
199.654	0
199.874	0
200.094	4.01
200.313	2.6
200.533	1.6
200.753	1.94
200.973	3.76
201.192	3.05
201.412	0.98
201.632	2.08
201.851	3.74
202.071	1.75
202.291	1.64
202.51	1.77
202.73	3.05
202.95	1.45
203.169	1.58
203.389	2.18
203.608	2.1
203.828	1.55
204.047	1.28
204.267	2.12
204.486	2.42
204.706	2.19
204.925	1.6
205.145	1.59
205.364	2.22
205.583	2.61
205.803	1.18
206.022	1.02
206.242	1.5
206.461	1.47
206.68	1.49
206.9	1.58
207.119	2.39
207.338	2.63
207.557	1.13
207.777	1.33
207.996	1.42
208.215	2.14
208.434	0.93
208.654	1.01
208.873	1.42
209.092	2.19
209.311	1.15
209.53	1.15
209.749	1.26
209.968	1.16
210.187	1.12
210.407	0.8
210.626	1.17
210.845	1.56
211.064	1.22
211.283	0.69
211.502	1.68
211.721	1.16
211.94	1.07
212.159	1.24
212.377	1.45
212.596	1.46
212.815	1.01
213.034	1.36
213.253	1.35
213.472	1.24
213.691	1.05
213.91	0.61
214.128	1.01
214.347	1.72
214.566	0.6
214.785	0.59
215.003	1.16
215.222	1.27
215.441	1
215.66	0.55
215.878	0.91
216.097	1.29
216.316	0.6
216.534	0.71
216.753	1.21
216.972	0.92
217.19	0.98
217.409	0.66
217.627	0.72
217.846	0.95
218.064	0.91
218.283	0.56
218.501	1.59
218.72	1.32
218.938	0.58
219.157	0.7
219.375	1.01
219.594	0.85
219.812	0.58
220.031	0.48
220.249	1.2
220.467	1.15
220.686	0.66
220.904	0.59
221.122	0.71
221.341	1.1
221.559	0.9
221.777	0.31
221.995	0.85
222.214	1.04
222.432	0.59
222.65	0.76
222.868	0.82
223.086	0.79
223.305	0.76
223.523	0.65
223.741	1.05
223.959	0.78
224.177	0.37
224.395	0.58
224.613	0.86
224.831	1
225.049	0.47
225.267	0.68
225.485	0.87
225.703	0.72
225.921	0.58
226.139	0.46
226.357	0.91
226.575	0.76
226.793	0.58
227.011	1.44
227.229	0.66
227.447	0.87
227.665	0.49
227.883	0.3
228.1	0.62
228.318	0.85
228.536	0.31
228.754	0.53
228.972	0.78
229.189	0.87
229.407	0.65
229.625	0.62
229.843	0.81
230.06	0.82
230.278	0.52
230.496	0.54
230.713	0.74
230.931	0.76
231.149	0.4
231.366	0.33
231.584	0.67
231.801	1
232.019	0.62
232.236	0.43
232.454	0.55
232.671	0.73
232.889	0.55
233.106	0.47
233.324	0.53
233.541	0.5
233.759	0.54
233.976	0.41
234.194	0.54
234.411	0.54
234.628	0.37
234.846	0.43
235.063	0.47
235.28	0.61
235.498	0.53
235.715	0.39
235.932	0.75
236.149	0.57
236.367	0.29
236.584	0.53
236.801	0.56
237.018	0.72
237.236	0.5
237.453	0.34
237.67	0.81
237.887	0.54
238.104	0.4
238.321	0.39
238.538	0.38
238.755	0.7
238.973	0.35
239.19	0.53
239.407	0.58
239.624	0.53
239.841	0.36
240.058	0.38
240.275	0.48
240.492	0.47
240.709	0.58
240.925	0.45
241.142	0.41
241.359	0.4
241.576	0.46
241.793	0.39
242.01	0.43
242.227	0.7
242.444	0.56
242.66	0.68
242.877	0.57
243.094	0.39
243.311	0.52
243.527	0.47
243.744	0.57
243.961	0.49
244.178	0.39
244.394	0.39
244.611	0.64
244.828	0.61
245.044	0.42
245.261	0.4
245.477	0.49
245.694	0.57
245.911	0.39
246.127	0.48
246.344	0.68
246.56	0.59
246.777	0.46
246.993	0.38
247.21	0.49
247.426	0.53
247.643	0.34
247.859	0.36
248.076	0.37
248.292	0.69
248.508	0.38
248.725	0.45
248.941	0.54
249.157	0.64
249.374	0.38
249.59	0.34
249.806	0.42
250.023	0.64
250.239	0.37
250.455	0.27
250.671	0.42
250.888	0.5
251.104	0.43
251.32	0.35
251.536	0.45
251.752	0.38
251.969	0.4
252.185	0.38
252.401	0.62
252.617	0.61
252.833	0.4
253.049	0.49
253.265	0.43
253.481	0.52
253.697	0.36
253.913	0.3
254.129	0.51
254.345	0.42
254.561	0.3
254.777	0.31
254.993	0.49
255.209	0.45
255.425	0.31
255.641	0.31
255.857	0.57
256.073	0.49
256.288	0.25
256.504	0.37
256.72	0.48
256.936	0.58
257.152	0.39
257.367	0.32
257.583	0.44
257.799	0.5
258.015	0.34
258.23	0.35
258.446	0.62
258.662	0.34
258.877	0.28
259.093	0.27
259.309	0.44
259.524	0.39
259.74	0.27
259.955	0.32
260.171	0.37
260.387	0.38
260.602	0.44
260.818	0.43
261.033	0.3
261.249	0.35
261.464	0.3
261.68	0.22
261.895	0.43
262.11	0.48
262.326	0.31
262.541	0.21
262.757	0.47
262.972	0.48
263.187	0.47
263.403	0.35
263.618	0.51
263.833	0.35
264.049	0.23
264.264	0.36
264.479	0.39
264.694	0.49
264.91	0.23
265.125	0.36
265.34	0.45
265.555	0.61
265.77	0.34
265.986	0.35
266.201	0.48
266.416	0.46
266.631	0.3
266.846	0.25
267.061	0.41
267.276	0.45
267.491	0.2
267.706	0.39
267.921	0.36
268.136	0.41
268.351	0.24
268.566	0.32
268.781	0.47
268.996	0.43
269.211	0.35
269.426	0.24
269.641	0.35
269.856	0.51
270.071	0.28
270.285	0.21
270.5	0.42
270.715	0.4
270.93	0.29
271.145	0.35
271.359	0.45
271.574	0.29
271.789	0.32
272.004	0.28
272.218	0.29
272.433	0.46
272.648	0.27
272.862	0.4
273.077	0.39
273.292	0.41
273.506	0.29
273.721	0.29
273.936	0.39
274.15	0.51
274.365	0.26
274.579	0.42
274.794	0.38
275.008	0.42
275.223	0.24
275.437	0.33
275.652	0.42
275.866	0.44
276.081	0.32
276.295	0.38
276.509	0.33
276.724	0.36
276.938	0.33
277.153	0.32
277.367	0.44
277.581	0.31
277.796	0.28
278.01	0.24
278.224	0.36
278.438	0.52
278.653	0.29
278.867	0.19
279.081	0.3
279.295	0.32
279.51	0.28
279.724	0.15
279.938	0.41
280.152	0.39
280.366	0.26
280.58	0.34
280.794	0.43
281.008	0.44
281.222	0.35
281.437	0.45
281.651	0.4
281.865	0.41
282.079	0.26
282.293	0.21
282.507	0.25
282.721	0.26
282.935	0.28
283.148	0.19
283.362	0.27
283.576	0.26
283.79	0.3
284.004	0.26
284.218	0.4
284.432	0.26
284.646	0.28
284.859	0.27
285.073	0.24
285.287	0.32
285.501	0.28
285.714	0.3
285.928	0.31
286.142	0.33
286.356	0.3
286.569	0.19
286.783	0.39
286.997	0.35
287.21	0.28
287.424	0.24
287.637	0.27
287.851	0.23
288.065	0.34
288.278	0.27
288.492	0.3
288.705	0.31
288.919	0.32
289.132	0.19
289.346	0.35
289.559	0.24
289.773	0.25
289.986	0.26
290.2	0.3
290.413	0.42
290.626	0.26
290.84	0.24
291.053	0.3
291.267	0.38
291.48	0.29
291.693	0.28
291.906	0.23
292.12	0.26
292.333	0.24
292.546	0.27
292.76	0.38
292.973	0.31
293.186	0.31
293.399	0.24
293.612	0.36
293.826	0.27
294.039	0.3
294.252	0.27
294.465	0.36
294.678	0.27
294.891	0.31
295.104	0.22
295.317	0.27
295.53	0.32
295.743	0.26
295.956	0.28
296.169	0.37
296.382	0.28
296.595	0.28
296.808	0.23
297.021	0.38
297.234	0.34
297.447	0.29
297.66	0.3
297.873	0.33
298.086	0.35
298.299	0.24
298.511	0.14
298.724	0.29
298.937	0.18
299.15	0.24
299.363	0.24
299.575	0.31
299.788	0.28
300.001	0.3
300.213	0.23
300.426	0.22
300.639	0.24
300.852	0.19
301.064	0.31
301.277	0.34
301.489	0.33
301.702	0.29
301.915	0.26
302.127	0.29
302.34	0.27
302.552	0.3
302.765	0.23
302.977	0.3
303.19	0.23
303.402	0.23
303.615	0.26
303.827	0.22
304.04	0.27
304.252	0.32
304.464	0.24
304.677	0.45
304.889	0.28
305.102	0.24
305.314	0.24
305.526	0.34
305.739	0.3
305.951	0.2
306.163	0.25
306.375	0.34
306.588	0.26
306.8	0.2
307.012	0.22
307.224	0.31
307.436	0.33
307.649	0.18
307.861	0.21
308.073	0.27
308.285	0.23
308.497	0.22
308.709	0.2
308.921	0.28
309.133	0.34
309.346	0.21
309.558	0.25
309.77	0.29
309.982	0.33
310.194	0.33
310.406	0.23
310.617	0.36
310.829	0.3
311.041	0.31
311.253	0.19
311.465	0.27
311.677	0.29
311.889	0.26
312.101	0.19
312.313	0.33
312.524	0.35
312.736	0.21
312.948	0.23
313.16	0.38
313.372	0.35
313.583	0.27
313.795	0.25
314.007	0.24
314.218	0.32
314.43	0.22
314.642	0.23
314.853	0.18
315.065	0.32
315.277	0.27
315.488	0.28
315.7	0.35
315.912	0.3
316.123	0.26
316.335	0.23
316.546	0.38
316.758	0.25
316.969	0.22
317.181	0.29
317.392	0.27
317.604	0.34
317.815	0.22
318.026	0.21
318.238	0.23
318.449	0.31
318.661	0.19
318.872	0.17
319.083	0.21
319.295	0.37
319.506	0.22
319.717	0.28
319.929	0.27
320.14	0.25
320.351	0.28
320.562	0.2
320.774	0.29
320.985	0.28
321.196	0.2
321.407	0.21
321.618	0.3
321.829	0.28
322.041	0.26
322.252	0.25
322.463	0.3
322.674	0.29
322.885	0.18
323.096	0.27
323.307	0.25
323.518	0.27
323.729	0.2
323.94	0.28
324.151	0.3
324.362	0.29
324.573	0.29
324.784	0.23
324.995	0.33
325.206	0.28
325.417	0.24
325.628	0.18
325.838	0.26
326.049	0.31
326.26	0.3
326.471	0.24
326.682	0.32
326.892	0.29
327.103	0.18
327.314	0.21
327.525	0.28
327.735	0.28
327.946	0.26
328.157	0.25
328.368	0.34
328.578	0.29
328.789	0.29
328.999	0.26
329.21	0.26
329.421	0.31
329.631	0.23
329.842	0.2
330.052	0.28
330.263	0.27
330.473	0.29
330.684	0.23
330.894	0.25
331.105	0.3
331.315	0.3
331.526	0.21
331.736	0.34
331.947	0.29
332.157	0.28
332.367	0.16
332.578	0.29
332.788	0.33
332.999	0.31
333.209	0.25
333.419	0.2
333.629	0.29
333.84	0.27
334.05	0.24
334.26	0.35
334.47	0.24
334.681	0.31
334.891	0.24
335.101	0.35
335.311	0.33
335.521	0.3
335.732	0.21
335.942	0.31
336.152	0.25
336.362	0.25
336.572	0.28
336.782	0.3
336.992	0.27
337.202	0.26
337.412	0.24
337.622	0.32
337.832	0.26
338.042	0.26
338.252	0.21
338.462	0.26
338.672	0.25
338.882	0.19
339.092	0.2
339.302	0.38
339.511	0.35
339.721	0.27
339.931	0.2
340.141	0.33
340.351	0.32
340.561	0.27
340.77	0.27
340.98	0.29
341.19	0.28
341.4	0.23
341.609	0.17
341.819	0.25
342.029	0.2
342.238	0.27
342.448	0.24
342.658	0.28
342.867	0.29
343.077	0.24
343.286	0.26
343.496	0.28
343.706	0.33
343.915	0.21
344.125	0.27
344.334	0.28
344.544	0.18
344.753	0.23
344.963	0.23
345.172	0.23
345.381	0.21
345.591	0.22
345.8	0.24
346.01	0.4
346.219	0.34
346.428	0.12
346.638	0.25
346.847	0.25
347.056	0.33
347.266	0.21
347.475	0.24
347.684	0.31
347.893	0.27
348.103	0.3
348.312	0.23
348.521	0.27
348.73	0.27
348.94	0.27
349.149	0.24
349.358	0.22
349.567	0.22
349.776	0.16
349.985	0.22
350.194	0.3
350.403	0.31
350.612	0.15
350.821	0.23
351.03	0.23
351.239	0.22
351.448	0.23
351.657	0.22
351.866	0.32
352.075	0.32
352.284	0.27
352.493	0.21
352.702	0.32
352.911	0.24
353.12	0.27
353.329	0.21
353.538	0.29
353.746	0.24
353.955	0.17
354.164	0.29
354.373	0.28
354.582	0.29
354.79	0.25
354.999	0.32
355.208	0.23
355.416	0.36
355.625	0.16
355.834	0.26
356.042	0.32
356.251	0.21
356.46	0.18
356.668	0.25
356.877	0.34
357.085	0.31
357.294	0.13
357.503	0.28
357.711	0.25
357.92	0.43
358.128	0.25
358.337	0.22
358.545	0.26
358.754	0.22
358.962	0.26
359.17	0.24
359.379	0.28
359.587	0.27
359.796	0.25
360.004	0.29
360.212	0.28
360.421	0.31
360.629	0.24
360.837	0.28
361.046	0.31
361.254	0.38
361.462	0.23
361.67	0.2
361.879	0.29
362.087	0.29
362.295	0.24
362.503	0.21
362.711	0.18
362.92	0.2
363.128	0.22
363.336	0.19
363.544	0.18
363.752	0.24
363.96	0.21
364.168	0.22
364.376	0.25
364.584	0.25
364.792	0.32
365	0.27
365.208	0.26
365.416	0.27
365.624	0.31
365.832	0.2
366.04	0.3
366.248	0.3
366.456	0.23
366.664	0.24
366.872	0.26
367.079	0.24
367.287	0.26
367.495	0.24
367.703	0.26
367.911	0.26
368.118	0.25
368.326	0.23
368.534	0.22
368.742	0.34
368.949	0.21
369.157	0.21
369.365	0.26
369.572	0.23
369.78	0.17
369.988	0.26
370.195	0.31
370.403	0.31
370.61	0.22
370.818	0.22
371.026	0.36
371.233	0.21
371.441	0.27
371.648	0.24
371.856	0.28
372.063	0.29
372.271	0.24
372.478	0.24
372.685	0.25
372.893	0.32
373.1	0.26
373.308	0.23
373.515	0.35
373.722	0.32
373.93	0.2
374.137	0.3
374.344	0.35
374.552	0.29
374.759	0.32
374.966	0.25
375.173	0.22
375.381	0.29
375.588	0.26
375.795	0.18
376.002	0.26
376.209	0.24
376.417	0.24
376.624	0.3
376.831	0.31
377.038	0.28
377.245	0.17
377.452	0.25
377.659	0.28
377.866	0.22
378.073	0.27
378.28	0.24
378.487	0.34
378.694	0.3
378.901	0.27
379.108	0.3
379.315	0.35
379.522	0.37
379.729	0.22
379.936	0.3
380.143	0.32
380.35	0.28
380.557	0.23
380.763	0.24
380.97	0.29
381.177	0.23
381.384	0.27
381.591	0.27
381.797	0.32
382.004	0.33
382.211	0.3
382.418	0.23
382.624	0.31
382.831	0.31
383.038	0.25
383.244	0.28
383.451	0.28
383.658	0.35
383.864	0.25
384.071	0.26
384.277	0.35
384.484	0.28
384.69	0.32
384.897	0.26
385.103	0.28
385.31	0.24
385.516	0.24
385.723	0.25
385.929	0.32
386.136	0.32
386.342	0.32
386.549	0.25
386.755	0.34
386.961	0.32
387.168	0.26
387.374	0.3
387.58	0.31
387.787	0.28
387.993	0.28
388.199	0.27
388.406	0.28
388.612	0.29
388.818	0.25
389.024	0.27
389.231	0.26
389.437	0.4
389.643	0.3
389.849	0.26
390.055	0.32
390.261	0.32
390.467	0.35
390.674	0.22
390.88	0.3
391.086	0.35
391.292	0.28
391.498	0.37
391.704	0.35
391.91	0.31
392.116	0.33
392.322	0.18
392.528	0.33
392.734	0.31
392.94	0.31
393.146	0.31
393.352	0.33
393.557	0.31
393.763	0.31
393.969	0.33
394.175	0.31
394.381	0.35
394.587	0.3
394.792	0.3
394.998	0.37
395.204	0.39
395.41	0.27
395.615	0.36
395.821	0.33
396.027	0.36
396.233	0.27
396.438	0.36
396.644	0.38
396.85	0.29
397.055	0.36
397.261	0.35
397.466	0.34
397.672	0.35
397.878	0.34
398.083	0.37
398.289	0.34
398.494	0.4
398.7	0.36
398.905	0.27
399.111	0.41
399.316	0.29
399.522	0.35
399.727	0.33
399.932	0.32
400.138	0.29
400.343	0.41
400.549	0.3
400.754	0.4
400.959	0.36
401.165	0.3
401.37	0.41
401.575	0.35
401.78	0.39
401.986	0.36
402.191	0.37
402.396	0.41
402.601	0.4
402.807	0.4
403.012	0.36
403.217	0.45
403.422	0.44
403.627	0.43
403.832	0.38
404.037	0.47
404.243	0.48
404.448	0.39
404.653	0.47
404.858	0.51
405.063	0.51
405.268	0.42
405.473	0.4
405.678	0.47
405.883	0.68
406.088	0.55
406.293	0.43
406.498	0.46
406.703	0.53
406.907	0.52
407.112	0.43
407.317	0.51
407.522	0.59
407.727	0.51
407.932	0.56
408.136	0.67
408.341	0.58
408.546	0.55
408.751	0.6
408.956	0.6
409.16	0.68
409.365	0.56
409.57	0.61
409.774	0.63
409.979	0.7
410.184	0.69
410.388	0.62
410.593	0.76
410.798	0.73
411.002	0.77
411.207	0.82
411.411	0.82
411.616	0.77
411.82	0.91
412.025	0.86
412.229	0.84
412.434	1.02
412.638	0.99
412.843	0.93
413.047	1.01
413.252	0.96
413.456	1.03
413.66	1.1
413.865	1.04
414.069	1.19
414.273	1.14
414.478	1.16
414.682	1.18
414.886	1.23
415.091	1.25
415.295	1.29
415.499	1.45
415.703	1.39
415.908	1.47
416.112	1.41
416.316	1.59
416.52	1.61
416.724	1.55
416.929	1.64
417.133	1.89
417.337	1.79
417.541	1.87
417.745	1.89
417.949	2.02
418.153	2.05
418.357	2.1
418.561	2.32
418.765	2.32
418.969	2.36
419.173	2.46
419.377	2.45
419.581	2.72
419.785	2.65
419.989	2.71
420.193	2.88
420.397	2.97
420.601	3.08
420.804	3.21
421.008	3.16
421.212	3.34
421.416	3.37
421.62	3.37
421.823	3.46
422.027	3.63
422.231	3.55
422.435	3.63
422.638	3.66
422.842	3.85
423.046	3.9
423.249	4.03
423.453	4.04
423.657	4.22
423.86	4.29
424.064	4.44
424.268	4.6
424.471	4.53
424.675	4.8
424.878	4.82
425.082	4.96
425.285	5.28
425.489	5.21
425.692	5.34
425.896	5.31
426.099	5.55
426.303	5.75
426.506	5.85
426.71	6.05
426.913	6.35
427.116	6.47
427.32	6.42
427.523	6.55
427.726	6.87
427.93	6.9
428.133	7.22
428.336	7.36
428.54	7.44
428.743	7.8
428.946	7.96
429.149	8.03
429.353	8.01
429.556	8.08
429.759	8.18
429.962	8.3
430.165	8.47
430.368	8.05
430.571	8.22
430.775	8.18
430.978	8.11
431.181	8.22
431.384	8.26
431.587	8.45
431.79	8.81
431.993	8.84
432.196	9
432.399	9.45
432.602	9.52
432.805	9.63
433.008	10.24
433.211	10.09
433.414	10.48
433.616	10.38
433.819	10.43
434.022	10.5
434.225	10.67
434.428	10.6
434.631	11.17
434.833	10.92
435.036	11.24
435.239	11.43
435.442	11.4
435.645	11.58
435.847	11.8
436.05	12.02
436.253	12.18
436.455	12.23
436.658	12.24
436.861	12.42
437.063	12.6
437.266	12.52
437.468	12.9
437.671	13.19
437.874	13.24
438.076	13.08
438.279	13.56
438.481	13.54
438.684	14.26
438.886	14.02
439.089	14.26
439.291	14.2
439.494	14.65
439.696	14.88
439.899	15.33
440.101	15.72
440.303	15.96
440.506	16.6
440.708	16.47
440.91	16.61
441.113	16.77
441.315	17.09
441.517	16.88
441.72	17.3
441.922	17.08
442.124	16.95
442.326	17.3
442.529	17.53
442.731	17.47
442.933	17.76
443.135	17.49
443.337	17.55
443.539	18.07
443.742	17.79
443.944	18.5
444.146	18.24
444.348	18.24
444.55	18
444.752	18.17
444.954	18.08
445.156	18.15
445.358	18.37
445.56	18.68
445.762	18.51
445.964	19
446.166	18.62
446.368	18.67
446.57	18.53
446.772	18.22
446.974	18.06
447.175	18.21
447.377	17.88
447.579	18.33
447.781	18.07
447.983	17.94
448.184	17.37
448.386	17.69
448.588	17.2
448.79	17.16
448.991	17.37
449.193	17.34
449.395	16.88
449.597	16.4
449.798	16.26
450	15.86
450.202	15.82
450.403	15.75
450.605	15.61
450.806	15.19
451.008	15.12
451.21	14.75
451.411	14.42
451.613	13.66
451.814	13.93
452.016	13.81
452.217	13.21
452.419	13.23
452.62	12.79
452.821	12.64
453.023	12.47
453.224	12.14
453.426	11.64
453.627	10.96
453.828	11.15
454.03	11.03
454.231	11.1
454.432	10.86
454.634	10.68
454.835	10.27
455.036	10.26
455.238	9.9
455.439	9.63
455.64	9.37
455.841	9.2
456.042	9.43
456.244	8.96
456.445	8.75
456.646	8.55
456.847	8.44
457.048	8.35
457.249	8.3
457.45	8.11
457.651	7.69
457.852	7.49
458.054	7.15
458.255	7.17
458.456	7.26
458.657	6.97
458.858	6.69
459.058	6.46
459.259	6.69
459.46	6.24
459.661	6.34
459.862	6.43
460.063	6.26
460.264	6.14
460.465	5.9
460.666	6.02
460.866	5.7
461.067	5.4
461.268	5.45
461.469	5.4
461.67	5.29
461.87	5.16
462.071	5.25
462.272	5.02
462.473	5.06
462.673	5.18
462.874	5.03
463.075	5.02
463.275	5.04
463.476	5.05
463.676	4.99
463.877	4.9
464.078	4.88
464.278	4.9
464.479	4.74
464.679	4.74
464.88	4.59
465.08	4.65
465.281	4.4
465.481	4.19
465.682	4.06
465.882	4.06
466.083	4.02
466.283	3.94
466.483	3.87
466.684	3.73
466.884	3.56
467.085	3.62
467.285	3.7
467.485	3.59
467.686	3.44
467.886	3.38
468.086	3.33
468.286	3.27
468.487	3.41
468.687	3.21
468.887	3.14
469.087	3.3
469.287	3.22
469.488	3.03
469.688	3.17
469.888	3.19
470.088	3.06
470.288	3.01
470.488	2.93
470.688	2.87
470.888	2.83
471.088	2.65
471.288	2.81
471.488	2.74
471.688	2.76
471.888	2.64
472.088	2.81
472.288	2.72
472.488	2.56
472.688	2.5
472.888	2.6
473.088	2.57
473.288	2.49
473.488	2.41
473.688	2.61
473.887	2.44
474.087	2.39
474.287	2.43
474.487	2.38
474.687	2.4
474.886	2.35
475.086	2.29
475.286	2.32
475.486	2.26
475.685	2.2
475.885	2.19
476.085	2.28
476.284	2.27
476.484	2.23
476.684	2.17
476.883	2.27
477.083	2.12
477.282	2.12
477.482	2.21
477.681	2.13
477.881	2.05
478.08	2.08
478.28	2.01
478.479	2.1
478.679	2.15
478.878	2.05
479.078	2.01
479.277	2.09
479.477	2
479.676	1.98
479.875	1.98
480.075	1.91
480.274	1.99
480.473	2.05
480.673	2.01
480.872	2.09
481.071	2.03
481.271	2.03
481.47	1.98
481.669	1.97
481.868	1.96
482.067	1.96
482.267	1.89
482.466	1.91
482.665	1.95
482.864	1.96
483.063	1.89
483.262	2
483.461	2.02
483.661	2.05
483.86	1.93
484.059	2.01
484.258	2.02
484.457	1.97
484.656	1.95
484.855	2.09
485.054	1.93
485.253	1.95
485.452	1.94
485.651	2.03
485.849	2.03
486.048	2.01
486.247	2.02
486.446	2.04
486.645	2
486.844	2.07
487.043	2.02
487.241	2.08
487.44	2.05
487.639	2.13
487.838	2.12
488.037	2.1
488.235	2.24
488.434	2.17
488.633	2.03
488.831	2.2
489.03	2.22
489.229	2.2
489.427	2.17
489.626	2.31
489.825	2.29
490.023	2.3
490.222	2.25
490.42	2.31
490.619	2.32
490.817	2.35
491.016	2.35
491.214	2.42
491.413	2.43
491.611	2.36
491.81	2.38
492.008	2.46
492.207	2.53
492.405	2.54
492.604	2.47
492.802	2.54
493	2.59
493.199	2.58
493.397	2.65
493.595	2.7
493.794	2.65
493.992	2.8
494.19	2.73
494.388	2.84
494.587	2.77
494.785	2.78
494.983	2.73
495.181	2.83
495.379	2.87
495.578	2.88
495.776	2.93
495.974	2.91
496.172	3
496.37	3.09
496.568	3.06
496.766	3.06
496.964	3.2
497.162	3.17
497.36	3.25
497.558	3.23
497.756	3.26
497.954	3.29
498.152	3.36
498.35	3.48
498.548	3.39
498.746	3.38
498.944	3.44
499.142	3.44
499.34	3.51
499.538	3.58
499.736	3.48
499.933	3.68
500.131	3.63
500.329	3.82
500.527	3.78
500.725	3.89
500.922	3.87
501.12	3.85
501.318	3.91
501.516	3.94
501.713	4.03
501.911	4.01
502.109	4
502.306	4.07
502.504	4
502.701	4.09
502.899	4.16
503.097	4.36
503.294	4.22
503.492	4.36
503.689	4.33
503.887	4.39
504.084	4.44
504.282	4.44
504.479	4.4
504.677	4.58
504.874	4.54
505.072	4.48
505.269	4.64
505.466	4.67
505.664	4.75
505.861	4.68
506.059	4.78
506.256	4.8
506.453	4.85
506.651	4.93
506.848	4.98
507.045	5
507.242	5
507.44	5.03
507.637	5.07
507.834	5.07
508.031	5.21
508.229	5.16
508.426	5.1
508.623	5.32
508.82	5.35
509.017	5.25
509.214	5.22
509.411	5.48
509.608	5.34
509.805	5.55
510.003	5.44
510.2	5.54
510.397	5.64
510.594	5.52
510.791	5.67
510.988	5.69
511.184	5.65
511.381	5.55
511.578	5.7
511.775	5.88
511.972	5.8
512.169	5.86
512.366	5.86
512.563	5.95
512.76	6.04
512.956	5.99
513.153	5.96
513.35	5.87
513.547	5.93
513.744	6.08
513.94	5.99
514.137	6.12
514.334	6.13
514.53	6.17
514.727	6.37
514.924	6.25
515.12	6.21
515.317	6.3
515.514	6.19
515.71	6.16
515.907	6.4
516.103	6.43
516.3	6.31
516.497	6.51
516.693	6.5
516.89	6.44
517.086	6.48
517.283	6.54
517.479	6.45
517.676	6.66
517.872	6.71
518.068	6.67
518.265	6.68
518.461	6.58
518.658	6.65
518.854	6.75
519.05	6.79
519.247	6.84
519.443	6.8
519.639	6.92
519.836	6.77
520.032	6.78
520.228	6.86
520.424	6.91
520.621	6.94
520.817	7.04
521.013	6.93
521.209	7.08
521.405	7.05
521.601	7.04
521.798	6.97
521.994	7.03
522.19	6.99
522.386	7.02
522.582	7.11
522.778	7.26
522.974	7.09
523.17	7.16
523.366	7.09
523.562	7.18
523.758	7.2
523.954	7.05
524.15	7.25
524.346	7.3
524.542	7.28
524.738	7.23
524.934	7.34
525.129	7.29
525.325	7.25
525.521	7.25
525.717	7.46
525.913	7.31
526.109	7.36
526.304	7.49
526.5	7.47
526.696	7.44
526.892	7.33
527.087	7.64
527.283	7.56
527.479	7.49
527.674	7.34
527.87	7.51
528.066	7.45
528.261	7.57
528.457	7.42
528.653	7.63
528.848	7.54
529.044	7.75
529.239	7.56
529.435	7.56
529.63	7.56
529.826	7.59
530.021	7.55
530.217	7.65
530.412	7.6
530.608	7.63
530.803	7.65
530.999	7.54
531.194	7.64
531.389	7.73
531.585	7.68
531.78	7.82
531.975	7.63
532.171	7.8
532.366	7.73
532.561	7.64
532.757	7.7
532.952	7.89
533.147	7.71
533.342	7.79
533.538	7.7
533.733	7.96
533.928	7.61
534.123	7.78
534.318	7.82
534.513	7.71
534.709	7.93
534.904	7.89
535.099	7.93
535.294	7.91
535.489	7.9
535.684	7.82
535.879	7.82
536.074	7.96
536.269	7.93
536.464	7.93
536.659	7.87
536.854	7.86
537.049	7.92
537.244	7.92
537.439	7.87
537.634	7.98
537.828	7.98
538.023	7.95
538.218	7.91
538.413	7.87
538.608	7.92
538.803	7.91
538.997	7.93
539.192	7.96
539.387	7.89
539.582	7.88
539.776	7.8
539.971	7.94
540.166	8.04
540.36	7.97
540.555	8.05
540.75	8.05
540.944	7.96
541.139	8.01
541.334	7.96
541.528	7.99
541.723	8.11
541.917	8.03
542.112	7.93
542.306	7.84
542.501	7.9
542.695	8.01
542.89	7.95
543.084	7.96
543.279	8.02
543.473	8.06
543.668	8.08
543.862	7.93
544.056	7.88
544.251	8.09
544.445	8.12
544.64	8.11
544.834	7.8
545.028	7.7
545.222	8.07
545.417	8.18
545.611	8.11
545.805	7.99
546	7.91
546.194	8.13
546.388	8.13
546.582	7.98
546.776	8.02
546.97	8.05
547.165	8.09
547.359	8.04
547.553	8.01
547.747	8.03
547.941	8.2
548.135	8.05
548.329	8.11
548.523	8.1
548.717	7.97
548.911	8.02
549.105	7.98
549.299	8.11
549.493	8.07
549.687	7.98
549.881	8.21
550.075	8.12
550.269	7.96
550.463	8.18
550.657	8.15
550.85	8.04
551.044	8.04
551.238	8.1
551.432	8.09
551.626	8.16
551.82	8.14
552.013	7.94
552.207	8.18
552.401	8.12
552.594	8.13
552.788	8.07
552.982	8.04
553.176	8.02
553.369	8.22
553.563	8.15
553.756	8.1
553.95	8.11
554.144	8.13
554.337	8.12
554.531	7.89
554.724	8.14
554.918	8.2
555.111	8.1
555.305	8.09
555.498	8.01
555.692	8.24
555.885	8.16
556.079	8.08
556.272	8.07
556.466	8.07
556.659	8.08
556.852	8.12
557.046	8.06
557.239	8.01
557.432	8.04
557.626	8.09
557.819	8.21
558.012	8.18
558.206	8.2
558.399	8.17
558.592	8.09
558.785	8.1
558.979	8.08
559.172	8.06
559.365	8.11
559.558	8.1
559.751	8.03
559.944	8.26
560.138	8.03
560.331	8.13
560.524	8.1
560.717	8.08
560.91	8.09
561.103	8.14
561.296	7.97
561.489	8.12
561.682	8.19
561.875	8.14
562.068	8.23
562.261	8.03
562.454	8.23
562.647	8.08
562.84	8.12
563.032	8.14
563.225	8.03
563.418	8.1
563.611	8.15
563.804	8.18
563.997	7.96
564.19	7.83
564.382	8.23
564.575	8.12
564.768	8.04
564.961	8.12
565.153	8.01
565.346	8.06
565.539	8.14
565.731	8.01
565.924	8.12
566.117	8.26
566.309	8.16
566.502	8.08
566.695	8.02
566.887	8.09
567.08	8.04
567.272	8.09
567.465	8
567.657	8.15
567.85	8.07
568.042	8.09
568.235	8.11
568.427	7.93
568.62	8.04
568.812	8.06
569.005	8.11
569.197	7.92
569.389	8.06
569.582	8.07
569.774	8.06
569.966	7.99
570.159	8.01
570.351	7.98
570.543	8.02
570.736	8.02
570.928	7.88
571.12	8.07
571.312	7.93
571.505	7.79
571.697	8.09
571.889	8.04
572.081	8.01
572.273	7.9
572.465	8.04
572.658	8.01
572.85	8.04
573.042	8.03
573.234	7.96
573.426	8.01
573.618	7.93
573.81	7.99
574.002	7.93
574.194	8
574.386	7.91
574.578	7.77
574.77	7.88
574.962	7.95
575.154	7.79
575.346	7.89
575.538	7.88
575.729	7.8
575.921	7.96
576.113	7.95
576.305	7.99
576.497	8
576.689	7.79
576.88	7.79
577.072	7.97
577.264	7.86
577.456	7.89
577.647	7.87
577.839	8.04
578.031	7.87
578.223	7.78
578.414	7.71
578.606	7.8
578.798	7.91
578.989	7.87
579.181	7.91
579.372	7.8
579.564	7.85
579.755	7.77
579.947	7.76
580.139	7.78
580.33	7.59
580.522	7.77
580.713	7.73
580.905	7.69
581.096	7.78
581.287	7.69
581.479	7.73
581.67	7.75
581.862	7.71
582.053	7.77
582.244	7.57
582.436	7.78
582.627	7.72
582.818	7.58
583.01	7.64
583.201	7.7
583.392	7.68
583.583	7.6
583.775	7.44
583.966	7.61
584.157	7.65
584.348	7.78
584.54	7.59
584.731	7.62
584.922	7.51
585.113	7.48
585.304	7.55
585.495	7.58
585.686	7.64
585.877	7.58
586.068	7.67
586.259	7.58
586.45	7.5
586.641	7.53
586.832	7.58
587.023	7.51
587.214	7.51
587.405	7.52
587.596	7.42
587.787	7.31
587.978	7.49
588.169	7.34
588.36	7.34
588.551	7.44
588.742	7.4
588.932	7.5
589.123	7.27
589.314	7.46
589.505	7.37
589.696	7.42
589.886	7.36
590.077	7.31
590.268	7.26
590.458	7.21
590.649	7.15
590.84	7.29
591.03	7.24
591.221	7.34
591.412	7.15
591.602	7.34
591.793	7.22
591.984	7.23
592.174	7.24
592.365	7.35
592.555	7.08
592.746	7.07
592.936	7.18
593.127	7.15
593.317	7.23
593.508	7.15
593.698	7.05
593.889	7.04
594.079	7.07
594.269	6.99
594.46	7.04
594.65	7.12
594.84	7.07
595.031	6.93
595.221	6.94
595.411	7.03
595.602	7.04
595.792	6.94
595.982	6.93
596.172	7.1
596.363	6.91
596.553	6.88
596.743	6.96
596.933	6.94
597.123	6.93
597.314	6.75
597.504	6.82
597.694	6.89
597.884	6.84
598.074	6.82
598.264	6.83
598.454	6.76
598.644	6.77
598.834	6.73
599.024	6.64
599.214	6.69
599.404	6.84
599.594	6.7
599.784	6.64
599.974	6.79
600.164	6.65
600.354	6.63
600.544	6.54
600.734	6.68
600.924	6.59
601.114	6.51
601.303	6.5
601.493	6.53
601.683	6.59
601.873	6.52
602.063	6.46
602.252	6.56
602.442	6.4
602.632	6.38
602.821	6.39
603.011	6.49
603.201	6.44
603.39	6.46
603.58	6.28
603.77	6.37
603.959	6.42
604.149	6.33
604.339	6.29
604.528	6.49
604.718	6.33
604.907	6.33
605.097	6.24
605.286	6.26
605.476	6.29
605.665	6.34
605.855	6.23
606.044	6.34
606.234	6.3
606.423	6.23
606.612	6.14
606.802	6.05
606.991	6.19
607.181	6.15
607.37	6.18
607.559	5.9
607.749	6.17
607.938	5.95
608.127	6.01
608.316	6.07
608.506	5.95
608.695	6.13
608.884	5.98
609.073	6.01
609.263	6.16
609.452	5.99
609.641	5.85
609.83	5.9
610.019	5.98
610.208	5.86
610.397	5.81
610.586	5.91
610.775	5.86
610.965	5.79
611.154	5.72
611.343	5.81
611.532	5.72
611.721	5.8
611.91	5.73
612.099	5.72
612.287	5.59
612.476	5.59
612.665	5.8
612.854	5.61
613.043	5.67
613.232	5.58
613.421	5.56
613.61	5.57
613.798	5.55
613.987	5.58
614.176	5.54
614.365	5.53
614.554	5.53
614.742	5.53
614.931	5.36
615.12	5.57
615.309	5.49
615.497	5.41
615.686	5.31
615.875	5.4
616.063	5.41
616.252	5.29
616.44	5.38
616.629	5.34
616.818	5.28
617.006	5.26
617.195	5.22
617.383	5.2
617.572	5.16
617.76	5.2
617.949	5.13
618.137	5.25
618.326	5.22
618.514	5.02
618.703	5.02
618.891	5.16
619.079	5.04
619.268	5.14
619.456	5.02
619.644	5.13
619.833	5.02
620.021	5.02
620.209	4.92
620.398	5.04
620.586	4.87
620.774	4.94
620.962	4.91
621.151	5.02
621.339	4.88
621.527	4.81
621.715	4.75
621.903	4.9
622.092	4.78
622.28	4.89
622.468	4.72
622.656	4.86
622.844	4.72
623.032	4.82
623.22	4.71
623.408	4.84
623.596	4.76
623.784	4.83
623.972	4.64
624.16	4.63
624.348	4.75
624.536	4.79
624.724	4.58
624.912	4.59
625.1	4.67
625.288	4.6
625.476	4.49
625.664	4.61
625.851	4.56
626.039	4.53
626.227	4.4
626.415	4.5
626.603	4.43
626.79	4.52
626.978	4.47
627.166	4.42
627.354	4.34
627.541	4.41
627.729	4.17
627.917	4.53
628.104	4.44
628.292	4.32
628.48	4.34
628.667	4.33
628.855	4.35
629.042	4.35
629.23	4.26
629.418	4.28
629.605	4.26
629.793	4.19
629.98	4.22
630.168	4.15
630.355	4.23
630.543	4.09
630.73	4.1
630.917	4.12
631.105	4.26
631.292	4.11
631.48	4.14
631.667	4.25
631.854	4.03
632.042	4.02
632.229	3.95
632.416	4.02
632.604	3.98
632.791	3.9
632.978	4.01
633.165	3.95
633.353	4.01
633.54	3.97
633.727	3.81
633.914	3.9
634.101	3.88
634.289	3.96
634.476	3.81
634.663	3.76
634.85	3.83
635.037	3.74
635.224	3.71
635.411	3.84
635.598	3.76
635.785	3.7
635.972	3.65
636.159	3.72
636.346	3.65
636.533	3.63
636.72	3.66
636.907	3.64
637.094	3.61
637.281	3.55
637.468	3.61
637.655	3.6
637.842	3.59
638.029	3.53
638.215	3.59
638.402	3.52
638.589	3.45
638.776	3.45
638.963	3.41
639.149	3.51
639.336	3.53
639.523	3.46
639.709	3.48
639.896	3.37
640.083	3.41
640.27	3.47
640.456	3.33
640.643	3.35
640.829	3.21
641.016	3.35
641.203	3.24
641.389	3.26
641.576	3.32
641.762	3.26
641.949	3.23
642.135	3.25
642.322	3.2
642.508	3.13
642.695	3.25
642.881	3.18
643.068	3.15
643.254	3.15
643.441	3.15
643.627	3.2
643.813	3.04
644	3.18
644.186	3.02
644.372	3.1
644.559	3.12
644.745	3.04
644.931	2.99
645.118	3.01
645.304	3.04
645.49	3.02
645.676	2.97
645.862	3
646.049	2.97
646.235	3.01
646.421	3.08
646.607	3.02
646.793	2.89
646.979	2.81
647.165	2.92
647.352	2.93
647.538	2.9
647.724	2.9
647.91	2.85
648.096	2.89
648.282	2.86
648.468	2.74
648.654	2.77
648.84	2.85
649.026	2.79
649.212	2.71
649.397	2.64
649.583	2.74
649.769	2.72
649.955	2.69
650.141	2.68
650.327	2.74
650.513	2.69
650.698	2.6
650.884	2.56
651.07	2.7
651.256	2.65
651.442	2.62
651.627	2.55
651.813	2.63
651.999	2.61
652.184	2.55
652.37	2.58
652.556	2.5
652.741	2.58
652.927	2.41
653.113	2.52
653.298	2.5
653.484	2.52
653.669	2.41
653.855	2.48
654.04	2.51
654.226	2.47
654.412	2.43
654.597	2.33
654.782	2.41
654.968	2.43
655.153	2.39
655.339	2.37
655.524	2.29
655.71	2.44
655.895	2.34
656.08	2.37
656.266	2.42
656.451	2.28
656.636	2.3
656.822	2.31
657.007	2.29
657.192	2.27
657.378	2.23
657.563	2.24
657.748	2.31
657.933	2.28
658.118	2.19
658.304	2.23
658.489	2.29
658.674	2.25
658.859	2.14
659.044	2.18
659.229	2.18
659.414	2.16
659.599	2.15
659.785	2.07
659.97	2.12
660.155	2.18
660.34	2.12
660.525	2.07
660.71	2.09
660.895	2.14
661.08	2.03
661.264	2
661.449	2.12
661.634	2.07
661.819	2.12
662.004	2.01
662.189	1.93
662.374	1.99
662.559	1.96
662.743	1.93
662.928	1.99
663.113	2.01
663.298	1.9
663.483	1.95
663.667	1.96
663.852	1.91
664.037	1.94
664.221	1.89
664.406	2.02
664.591	1.97
664.775	1.94
664.96	1.81
665.145	1.92
665.329	1.89
665.514	1.91
665.698	1.82
665.883	1.75
666.068	1.89
666.252	1.82
666.437	1.77
666.621	1.79
666.806	1.8
666.99	1.79
667.174	1.83
667.359	1.88
667.543	1.74
667.728	1.79
667.912	1.62
668.096	1.74
668.281	1.72
668.465	1.77
668.649	1.7
668.834	1.66
669.018	1.73
669.202	1.7
669.387	1.69
669.571	1.81
669.755	1.67
669.939	1.71
670.124	1.73
670.308	1.73
670.492	1.67
670.676	1.68
670.86	1.61
671.044	1.62
671.228	1.68
671.413	1.57
671.597	1.55
671.781	1.6
671.965	1.67
672.149	1.63
672.333	1.58
672.517	1.57
672.701	1.62
672.885	1.55
673.069	1.47
673.253	1.64
673.437	1.51
673.621	1.52
673.804	1.54
673.988	1.53
674.172	1.49
674.356	1.41
674.54	1.52
674.724	1.62
674.908	1.47
675.091	1.57
675.275	1.47
675.459	1.51
675.643	1.47
675.826	1.48
676.01	1.45
676.194	1.46
676.377	1.56
676.561	1.44
676.745	1.44
676.928	1.47
677.112	1.47
677.296	1.39
677.479	1.38
677.663	1.38
677.846	1.43
678.03	1.39
678.213	1.29
678.397	1.42
678.58	1.36
678.764	1.38
678.947	1.36
679.131	1.31
679.314	1.36
679.498	1.37
679.681	1.32
679.865	1.38
680.048	1.29
680.231	1.28
680.415	1.27
680.598	1.25
680.781	1.26
680.965	1.31
681.148	1.35
681.331	1.25
681.514	1.27
681.698	1.26
681.881	1.31
682.064	1.32
682.247	1.3
682.43	1.19
682.614	1.23
682.797	1.31
682.98	1.26
683.163	1.14
683.346	1.25
683.529	1.19
683.712	1.16
683.895	1.25
684.078	1.09
684.261	1.18
684.444	1.28
684.627	1.19
684.81	1.16
684.993	1.18
685.176	1.21
685.359	1.16
685.542	1.17
685.725	1.26
685.908	1.16
686.091	1.08
686.274	1.17
686.457	1.19
686.639	1.18
686.822	1.18
687.005	1.14
687.188	1.18
687.371	1.23
687.553	1.14
687.736	1.21
687.919	1.26
688.102	1.18
688.284	1.08
688.467	1.13
688.65	1.07
688.832	1.03
689.015	1.1
689.197	0.96
689.38	1.13
689.563	1.16
689.745	0.99
689.928	1.02
690.11	0.99
690.293	1.05
690.475	0.96
690.658	1.03
690.84	0.99
691.023	0.98
691.205	0.95
691.388	1.05
691.57	1.11
691.752	1.08
691.935	0.88
692.117	0.96
692.3	1.01
692.482	0.99
692.664	0.9
692.847	0.95
693.029	1.1
693.211	1.01
693.393	0.94
693.576	0.91
693.758	0.94
693.94	1.01
694.122	0.94
694.304	0.9
694.487	0.9
694.669	1.06
694.851	0.84
695.033	0.89
695.215	0.92
695.397	0.82
695.579	0.92
695.761	0.86
695.943	0.84
696.125	0.98
696.308	0.89
696.49	0.79
696.671	1
696.853	0.88
697.035	1.06
697.217	0.88
697.399	0.95
697.581	0.85
697.763	0.84
697.945	0.82
698.127	0.9
698.309	0.99
698.491	0.91
698.672	0.92
698.854	0.94
699.036	0.99
699.218	0.87
699.399	0.87
699.581	0.91
699.763	0.81
699.945	0.78
700.126	0.77
700.308	0.8
700.49	0.87
700.671	0.74
700.853	0.76
701.035	0.77
701.216	0.81
701.398	0.78
701.579	0.83
701.761	0.95
701.943	0.77
702.124	0.77
702.306	0.75
702.487	0.94
702.669	0.81
702.85	0.65
703.031	0.68
703.213	0.9
703.394	0.81
703.576	0.71
703.757	0.94
703.938	0.92
704.12	0.97
704.301	0.81
704.483	0.61
704.664	0.79
704.845	0.87
705.026	0.79
705.208	0.7
705.389	0.8
705.57	0.75
705.751	0.77
705.933	0.75
706.114	0.8
706.295	0.78
706.476	0.7
706.657	0.81
706.838	0.79
707.02	0.82
707.201	0.75
707.382	0.71
707.563	0.79
707.744	0.73
707.925	0.66
708.106	0.66
708.287	0.79
708.468	0.8
708.649	0.67
708.83	0.76
709.011	0.66
709.192	0.76
709.373	0.6
709.554	0.65
709.734	0.81
709.915	0.74
710.096	0.69
710.277	0.52
710.458	0.73
710.639	0.71
710.819	0.46
711	0.61
711.181	0.78
711.362	0.74
711.542	0.67
711.723	0.63
711.904	0.77
712.085	0.71
712.265	0.69
712.446	0.6
712.627	0.59
712.807	0.71
712.988	0.6
713.168	0.53
713.349	0.76
713.53	0.48
713.71	0.59
713.891	0.53
714.071	0.62
714.252	0.61
714.432	0.58
714.613	0.44
714.793	0.68
714.974	0.81
715.154	0.65
715.334	0.74
715.515	0.77
715.695	0.51
715.876	0.61
716.056	0.62
716.236	0.6
716.417	0.62
716.597	0.47
716.777	0.76
716.957	0.64
717.138	0.65
717.318	0.54
717.498	0.43
717.678	0.61
717.859	0.62
718.039	0.5
718.219	0.64
718.399	0.58
718.579	0.51
718.759	0.48
718.939	0.58
719.12	0.59
719.3	0.55
719.48	0.38
719.66	0.49
719.84	0.74
720.02	0.57
720.2	0.47
720.38	0.61
720.56	0.7
720.74	0.44
720.92	0.52
721.1	0.67
721.279	0.63
721.459	0.6
721.639	0.45
721.819	0.57
721.999	0.5
722.179	0.6
722.359	0.4
722.538	0.53
722.718	0.56
722.898	0.54
723.078	0.49
723.257	0.49
723.437	0.65
723.617	0.57
723.797	0.51
723.976	0.5
724.156	0.53
724.336	0.64
724.515	0.79
724.695	0.43
724.874	0.56
725.054	0.59
725.234	0.58
725.413	0.48
725.593	0.59
725.772	0.46
725.952	0.49
726.131	0.5
726.311	0.52
726.49	0.47
726.67	0.34
726.849	0.45
727.028	0.5
727.208	0.43
727.387	0.52
727.567	0.45
727.746	0.46
727.925	0.52
728.105	0.42
728.284	0.52
728.463	0.54
728.643	0.55
728.822	0.44
729.001	0.52
729.18	0.51
729.359	0.65
729.539	0.36
729.718	0.52
729.897	0.58
730.076	0.41
730.255	0.42
730.434	0.52
730.614	0.61
730.793	0.62
730.972	0.47
731.151	0.45
731.33	0.55
731.509	0.52
731.688	0.49
731.867	0.52
732.046	0.36
732.225	0.7
732.404	0.46
732.583	0.31
732.762	0.42
732.941	0.6
733.12	0.49
733.298	0.47
733.477	0.56
733.656	0.41
733.835	0.39
734.014	0.55
734.193	0.5
734.371	0.49
734.55	0.53
734.729	0.39
734.908	0.56
735.086	0.58
735.265	0.62
735.444	0.37
735.623	0.46
735.801	0.37
735.98	0.46
736.159	0.51
736.337	0.57
736.516	0.52
736.694	0.54
736.873	0.33
737.052	0.69
737.23	0.65
737.409	0.45
737.587	0.66
737.766	0.45
737.944	0.48
738.123	0.58
738.301	0.62
738.479	0.4
738.658	0.41
738.836	0.24
739.015	0.47
739.193	0.58
739.371	0.26
739.55	0.43
739.728	0.49
739.906	0.68
740.085	0.79
740.263	0.56
740.441	0.28
740.62	0.75
740.798	0.54
740.976	0.44
741.154	0.3
741.332	0.55
741.511	0.49
741.689	0.45
741.867	0.48
742.045	0.57
742.223	0.5
742.401	0.3
742.579	0.35
742.757	0.58
742.935	0.33
743.114	0.45
743.292	0.32
743.47	0.44
743.648	0.52
743.826	0.42
744.004	0.48
744.181	0.62
744.359	0.44
744.537	0.51
744.715	0.43
744.893	0.43
745.071	0.53
745.249	0.39
745.427	0.48
745.605	0.5
745.782	0.47
745.96	0.5
746.138	0.55
746.316	0.51
746.493	0.39
746.671	0.44
746.849	0.44
747.027	0.65
747.204	0.36
747.382	0.49
747.56	0.23
747.737	0.51
747.915	0.35
748.093	0.43
748.27	0.25
748.448	0.38
748.625	0.32
748.803	0.33
748.98	0.34
749.158	0.58
749.335	0.48
749.513	0.42
749.69	0.42
749.868	0.52
750.045	0.47
750.223	0.36
750.4	0.11
750.578	0.69
750.755	0.44
750.932	0.27
751.11	0.55
751.287	0.41
751.464	0.57
751.642	0.27
751.819	0.54
751.996	0.49
752.173	0.37
752.351	0.25
752.528	0.41
752.705	0.42
752.882	0.29
753.06	0.34
753.237	0.38
753.414	0.64
753.591	0.63
753.768	0.46
753.945	0.25
754.122	0.48
754.299	0.5
754.476	0.32
754.654	0.36
754.831	0.42
755.008	0.53
755.185	0.32
755.362	0.29
755.539	0.4
755.716	0.23
755.892	0.34
756.069	0.38
756.246	0.38
756.423	0.36
756.6	0.56
756.777	0.37
756.954	0.54
757.131	0.35
757.307	0.29
757.484	0.27
757.661	0.38
757.838	0.42
758.015	0.21
758.191	0.37
758.368	0.6
758.545	0.56
758.721	0.51
758.898	0.3
759.075	0.52
759.251	0.41
759.428	0.53
759.605	0.24
759.781	0.4
759.958	0.44
760.134	0.38
760.311	0.33
760.488	0.62
760.664	0.48
760.841	0.35
761.017	0.27
761.194	0.35
761.37	0.55
761.547	0.38
761.723	0.33
761.899	0.6
762.076	0.2
762.252	0.19
762.429	0.27
762.605	0.61
762.781	0.39
762.958	0.47
763.134	0.41
763.31	0.27
763.486	0.49
763.663	0.05
763.839	0.48
764.015	0.2
764.191	0.22
764.368	0.4
764.544	0.32
764.72	0.47
764.896	0.57
765.072	0.4
765.248	0.4
765.425	0.43
765.601	0.51
765.777	0.38
765.953	0.15
766.129	0.27
766.305	0.34
766.481	0.47
766.657	0.43
766.833	0.62
767.009	0.27
767.185	0.35
767.361	0.28
767.537	0.15
767.713	0.63
767.889	0.24
768.065	0.32
768.24	0.53
768.416	0.59
768.592	0.4
768.768	0.3
768.944	0.4
769.12	0.38
769.295	0.36
769.471	0.37
769.647	0.32
769.823	0.63
769.998	0.36
770.174	0.2
770.35	0.84
770.525	0.76
770.701	0.46
770.877	0.26
771.052	0.25
771.228	0.49
771.403	0.39
771.579	0.47
771.755	0.69
771.93	0.17
772.106	0.2
772.281	0.17
772.457	0.34
772.632	0.34
772.808	0.22
772.983	0.29
773.159	0.25
773.334	0.59
773.509	0.47
773.685	0.29
773.86	0.87
774.036	0.72
774.211	0.35
774.386	0.26
774.562	0.51
774.737	0.68
774.912	0.27
775.087	0.47
775.263	0.39
775.438	0.39
775.613	0.37
775.788	0.26
775.964	0.53
776.139	1.04
776.314	0.09
776.489	0.49
776.664	0.4
776.839	0.28
777.014	0.55
777.19	0.43
777.365	0.72
777.54	0.92
777.715	0.47
777.89	0.33
778.065	0.32
778.24	0.37
778.415	0.52
778.59	0.25
778.765	0.55
778.94	0.5
779.115	0.36
779.289	0.33
779.464	0.35
779.639	0.28
779.814	0.06
779.989	0.11
780.164	0.59
780.339	0.48
780.513	0.34
780.688	0.08
780.863	0.54
781.038	0.64
781.212	0.25
781.387	0.42
781.562	0.79
781.737	0.18
781.911	0.66
782.086	0.11
782.261	0.38
782.435	0.72
782.61	0.39
782.784	0.4
782.959	0.57
783.134	0.37
783.308	0.18
783.483	0.16
783.657	1.13
783.832	0.77
784.006	0.22
784.181	0.28
784.355	0.64
784.53	0.23
784.704	0.19
784.878	0.67
785.053	0.49
785.227	0.8
785.402	0.9
785.576	0.25
785.75	0.57
785.925	0.3
786.099	0.41
786.273	0.53
786.448	0.75
786.622	0.78
786.796	0.5
786.97	0.63
787.145	1.08
787.319	0.27
787.493	0.3
787.667	0.11
787.841	0.23
788.015	0.94
788.19	0.33
788.364	0.3
788.538	0.72
788.712	0.63
788.886	0.52
789.06	0.78
789.234	0.67
789.408	0.42
789.582	0.3
789.756	0.31
789.93	0.28
790.104	0.46
790.278	0.36
790.452	0.27
790.626	0.58
790.8	0.22
790.973	0.6
791.147	0.88
791.321	0.85
791.495	0.84
791.669	0.68
791.843	0.55
792.016	0.54
792.19	0.92
792.364	0.28
792.538	1.3
792.711	0.8
792.885	0.43
793.059	0.15
793.233	-0.14
793.406	0.8
793.58	0.51
793.754	0.65
793.927	0.28
794.101	0.78
794.274	0.53
794.448	0.73
794.622	0.43
794.795	0.74
794.969	0.51
795.142	0.7
795.316	0.28
795.489	0.28
795.663	1.12
795.836	0.55
796.009	0.32
796.183	1.01
796.356	0.82
796.53	0.6
796.703	0.35
796.876	1.07
797.05	0.25
797.223	0.4
797.396	0.49
797.57	0.65
797.743	1
797.916	0.58
798.09	0.6
798.263	1.15
798.436	0.5
798.609	0.43
798.782	0.45
798.956	0.79
799.129	0.44
799.302	0.29
799.475	0.27
799.648	0.33
799.821	0.36
799.994	0.51
800.167	0.12
800.34	0.61
800.514	0.46
800.687	0.52
800.86	0.11
801.033	0.8
801.206	0.67
801.379	0.2
801.551	0.92
801.724	0.47
801.897	1.23
802.07	0.78
802.243	0.03
802.416	0.49
802.589	0.38
802.762	0.74
802.935	0.44
803.107	1.03
803.28	1.16
803.453	0.73
803.626	0.33
803.798	0.74
803.971	0.47
804.144	0.72
804.317	0.79
804.489	0.86
804.662	0.58
804.835	0.52
805.007	0.01
805.18	1.16
805.353	0.76
805.525	0.32
805.698	0.24
805.87	0.86
806.043	1.06
806.215	-0.12
806.388	0.19
806.56	0.91
806.733	0.96
806.905	0.7
807.078	0.14
807.25	0.1
807.423	1.14
807.595	0.86
807.768	0.52
807.94	0.81
808.112	0.73
808.285	1.05
808.457	-0.04
808.629	0.59
808.802	0.91
808.974	0.73
809.146	0.58
809.318	0.35
809.491	0.63
809.663	0.9
809.835	0.13
810.007	0.83
810.18	0.71
810.352	-0.1
810.524	0.56
810.696	0.76
810.868	1.25
811.04	0.49
811.212	0.52
811.384	0.88
811.556	0.88
811.728	0.63
811.901	1.39
812.073	0.56
812.245	0.83
812.417	1.07
812.589	0.38
812.76	0.79
812.932	0.9
813.104	1.17
813.276	0.71
813.448	1.08
813.62	0.51
813.792	0.79
813.964	0.46
814.136	0.83
814.307	0.28
814.479	0.22
814.651	0.35
814.823	1.69
814.995	0.71
815.166	0.8
815.338	0.22
815.51	-0.05
815.681	1.99
815.853	0.58
816.025	0.41
816.196	1.71
816.368	1.38
816.54	0.23
816.711	0.53
816.883	1.23
817.054	1.81
817.226	0.34
817.398	0.83
817.569	0.54
817.741	1.38
817.912	0.5
818.084	0.88
818.255	1.32
818.426	0.62
818.598	0.48
818.769	0.42
818.941	1.03
819.112	1.39
819.283	0.41
819.455	0.68
819.626	0.48
819.798	1.21
819.969	0.79
820.14	0.68
820.311	0.7
820.483	0.82
820.654	1.06
820.825	0.77
820.996	0.62
821.168	0.5
821.339	0.69
821.51	0.11
821.681	0.54
821.852	1.08
822.023	0.25
822.195	0.65
822.366	1.21
822.537	0.79
822.708	0.14
822.879	0.12
823.05	1.32
823.221	0.92
823.392	0.39
823.563	1.01
823.734	1.1
823.905	0.6
824.076	0.57
824.247	0.07
824.418	0.74
824.589	1.86
824.759	0.17
824.93	0.71
825.101	0.31
825.272	1.35
825.443	1.91
825.614	1.36
825.784	0.39
825.955	1.95
826.126	1.38
826.297	0.49
826.467	1.46
826.638	1.87
826.809	-0.05
826.98	1.46
827.15	1.38
827.321	1.78
827.492	1.45
827.662	0.85
827.833	1.97
828.003	1.49
828.174	0.36
828.345	-0.02
828.515	1.73
828.686	0.72
828.856	0.54
829.027	1
829.197	1.59
829.368	1.77
829.538	0.47
829.709	0.41
829.879	0.98
830.049	0.65
830.22	0.28
830.39	0.69
830.56	1.91
830.731	0.68
830.901	0.19
831.072	0.99
831.242	1.65
831.412	1.84
831.582	0.76
831.753	-0.38
831.923	1.58
832.093	1.39
832.263	1.47
832.434	0.21
832.604	0.86
832.774	1.51
832.944	1.37
833.114	0.59
833.284	1.51
833.454	0.89
833.624	1.12
833.795	1.08
833.965	1.28
834.135	2.2
834.305	-0.14
834.475	0.01
834.645	1.15
834.815	0.44
834.985	0.15
835.155	0.48
835.325	1.23
835.494	1.66
835.664	0.58
835.834	0.05
836.004	0.51
836.174	1.08
836.344	0.87
836.514	0.06
836.684	0.68
836.853	0.62
837.023	1.28
837.193	0.3
837.363	1.66
837.532	1.74
837.702	0.67
837.872	0.29
838.041	1.64
838.211	2.96
838.381	-0.24
838.55	1.47
838.72	3.39
838.89	3.09
839.059	0.57
839.229	0.26
839.398	3.54
839.568	1.24
839.738	1.06
839.907	2.09
840.077	1.25
840.246	0.33
840.416	0.86
840.585	0.39
840.755	2.94
840.924	1.62
841.093	0.65
841.263	0.35
841.432	1.46
841.602	0.52
841.771	0.7
841.94	0.89
842.11	3.03
842.279	2.86
842.448	0.49
842.617	-0.09
842.787	2.37
842.956	0.54
843.125	1.4
843.294	0.51
843.464	2.22
843.633	1.45
843.802	-0.04
843.971	1.28
844.14	1.36
844.309	1.87
844.479	-0.57
844.648	0.03
844.817	0.9
844.986	1.46
845.155	0.3
845.324	1.08
845.493	1.45
845.662	0.7
845.831	1.47
846	1.33
846.169	1.12
846.338	3.27
846.507	0.85
846.676	0.62
846.844	0.23
847.013	2.28
847.182	0.99
847.351	0.93
847.52	1.5
847.689	2.07
847.858	1.66
848.026	0.83
848.195	1.37
848.364	0.58
848.533	0.58
848.701	0.65
848.87	2.18
849.039	2.51
849.207	1.26
849.376	2.3
849.545	2.85
849.713	0.69
849.882	0.31
850.051	0.63
850.219	1.82
850.388	1.79
850.556	0.56
850.725	0.7
850.893	1.74
851.062	0.74
851.23	2.36
851.399	-0.72
851.567	1.79
851.736	1.13
851.904	0.09
852.073	1.73
852.241	2.34
852.41	1.56
852.578	1.51
852.746	0.69
852.915	2.25
853.083	1.65
853.251	0.29
853.42	1.12
853.588	1.19
853.756	3.14
853.924	1.41
854.093	2.01
854.261	1.41
854.429	0.12
854.597	2.73
854.765	0.63
854.934	2.68
855.102	3.1
855.27	0.88
855.438	1.75
855.606	2.94
855.774	3.28
855.942	0.19
856.11	-0.43
856.278	1.9
856.446	2.55
856.614	2.3
856.782	0.7
856.95	2.59
857.118	2.84
857.286	2.14
857.454	0.24
857.622	2.03
857.79	2.69
857.958	0.6
858.126	1.64
858.294	-1.07
858.462	1.62
858.629	0.69
858.797	0.66
858.965	3.18
859.133	0.93
859.301	2.16
859.468	1.65
859.636	1.37
859.804	3.57
859.971	2.14
860.139	-0.48
860.307	2.8
860.474	1.99
860.642	0.9
860.81	0.54
860.977	2.23
861.145	2.82
861.313	2.21
861.48	1.15
861.648	3.52
861.815	1.12
861.983	-0.77
862.15	0.29
862.318	2.12
862.485	2.91
862.653	0.86
862.82	-0.34
862.988	3.31
863.155	2.27
863.322	0.75
863.49	0.09
863.657	1.78
863.824	3.85
863.992	1.34
864.159	2.32
864.326	3.58
864.494	1.79
864.661	4.16
864.828	-1.21
864.996	4.74
865.163	5.01
865.33	1.26
865.497	-2.32
865.664	1.41
865.832	-0.91
865.999	1.36
866.166	1
866.333	1.16
866.5	1.11
866.667	1.95
866.834	2.68
867.001	3.71
867.168	-0.16
867.335	2.73
867.502	-1.35
867.669	2.42
867.836	5.93
868.003	0.44
868.17	3.09
868.337	4.6
868.504	6.75
868.671	-0.3
868.838	2.18
869.005	4.09
869.172	3.21
869.339	2.66
869.505	0.33
869.672	1.42
869.839	4.89
870.006	2.08
870.173	0.82
870.339	4.02
870.506	5.43
870.673	1.74
870.84	3.38
871.006	1.36
871.173	1
871.34	2.51
871.506	0.43
871.673	2.37
871.839	1.08
872.006	1.39
872.173	1.15
872.339	3.35
872.506	4.24
872.672	1.68
872.839	-0.78
873.005	3.93
873.172	5.38
873.338	4.22
873.505	2.18
873.671	1.75
873.838	4.12
874.004	-0.49
874.171	0.19
874.337	3.37
874.503	4.02
874.67	1.6
874.836	1.24
875.002	5.32
875.169	4.34
875.335	1.67
875.501	3.61
875.668	5.76
875.834	1.08
876	0.43
876.166	2.43
876.332	2.94
876.499	5.72
876.665	1.03
876.831	2.03
876.997	5.87
877.163	3.76
877.329	1.1
877.495	1.99
877.662	2.71
877.828	3.73
877.994	0.27
878.16	-1.7
878.326	2.23
878.492	3.59
878.658	1.35
878.824	4.75
878.99	4.78
879.156	-0.43
879.322	5.56
879.487	2.69
879.653	2.6
879.819	3.54
879.985	-0.19
880.151	1.68
880.317	3.48
880.483	3.73
880.648	3.15
880.814	-1.18
880.98	3.86
881.146	-1.56
881.312	-0.04
881.477	0.73
881.643	1.63
881.809	4.69
881.974	5.23
882.14	-0.04
882.306	1.73
882.471	6.97
882.637	1.73
882.803	1.25
882.968	6.45
883.134	6.13
883.299	1.63
883.465	2.18
883.63	4.38
883.796	4.88
883.961	3.37
884.127	2.92
884.292	-3.23
884.458	-0.44
884.623	-0.44
