Data from Apollo_Calib_20240827__AbsoluteIrradiance__844__13-13-02-038.txt Node

Date: Wed Aug 28 13:13:02 BST 2024
User: biology
Spectrometer: FLMT08252
Trigger mode: 0
Integration Time (sec): 5.000000E-1
Scans to average: 5
Electric dark correction enabled: true
Nonlinearity correction enabled: false
Boxcar width: 0
XAxis mode: Wavelengths
Number of Pixels in Spectrum: 3648
>>>>>Begin Spectral Data<<<<<
179.588	-0
179.809	-0
180.03	-0
180.251	-0
180.473	-0
180.694	0
180.915	0
181.136	-0
181.357	0
181.578	0
181.799	0
182.02	-0
182.241	-0
182.462	-0
182.683	0
182.904	-0
183.125	-0
183.346	0
183.567	0
183.788	0
184.009	0
184.23	0
184.451	0
184.672	0
184.892	0
185.113	0
185.334	0
185.555	0
185.776	0
185.996	0
186.217	0
186.438	0
186.659	0
186.879	0
187.1	0
187.321	0
187.541	0
187.762	0
187.983	0
188.203	0
188.424	0
188.644	0
188.865	0
189.086	0
189.306	0
189.527	0
189.747	0
189.968	0
190.188	0
190.409	0
190.629	0
190.849	0
191.07	0
191.29	0
191.511	0
191.731	0
191.951	0
192.172	0
192.392	0
192.612	0
192.833	0
193.053	0
193.273	0
193.493	0
193.714	0
193.934	0
194.154	0
194.374	0
194.594	0
194.815	0
195.035	0
195.255	0
195.475	0
195.695	0
195.915	0
196.135	0
196.355	0
196.575	0
196.795	0
197.015	0
197.235	0
197.455	0
197.675	0
197.895	0
198.115	0
198.335	0
198.555	0
198.775	0
198.995	0
199.214	0
199.434	0
199.654	0
199.874	0
200.094	4.47
200.313	3.22
200.533	1.91
200.753	1.84
200.973	3.67
201.192	3.47
201.412	1.25
201.632	1.31
201.851	3.3
202.071	2.16
202.291	1.85
202.51	1.59
202.73	2.49
202.95	1.71
203.169	1.33
203.389	1.82
203.608	2.2
203.828	1.93
204.047	1.8
204.267	2.58
204.486	2.38
204.706	2.17
204.925	1.84
205.145	1.4
205.364	2.61
205.583	2.62
205.803	1.16
206.022	0.88
206.242	1.5
206.461	1.59
206.68	1.54
206.9	1.73
207.119	2.78
207.338	2.26
207.557	1.18
207.777	0.82
207.996	1.4
208.215	2.42
208.434	1.26
208.654	1.05
208.873	1.71
209.092	1.94
209.311	1.16
209.53	1.18
209.749	1.48
209.968	1.06
210.187	1.01
210.407	0.73
210.626	1.02
210.845	1.72
211.064	0.95
211.283	0.7
211.502	1.52
211.721	1.24
211.94	0.86
212.159	1.3
212.377	1.33
212.596	1.48
212.815	1.03
213.034	1.26
213.253	1.36
213.472	1.22
213.691	1.01
213.91	0.73
214.128	0.88
214.347	1.56
214.566	0.49
214.785	0.54
215.003	1.28
215.222	1.49
215.441	0.96
215.66	0.5
215.878	1.09
216.097	1.41
216.316	0.66
216.534	0.95
216.753	1.18
216.972	0.78
217.19	0.85
217.409	0.49
217.627	1.04
217.846	0.83
218.064	0.79
218.283	0.62
218.501	1.47
218.72	1.37
218.938	0.67
219.157	0.68
219.375	1.22
219.594	1.17
219.812	0.46
220.031	0.41
220.249	1.4
220.467	1.25
220.686	0.65
220.904	0.56
221.122	0.66
221.341	1.28
221.559	0.94
221.777	0.56
221.995	0.82
222.214	1.03
222.432	0.62
222.65	0.92
222.868	0.68
223.086	0.9
223.305	0.97
223.523	0.69
223.741	1.24
223.959	0.65
224.177	0.38
224.395	0.62
224.613	0.8
224.831	1.05
225.049	0.55
225.267	0.64
225.485	0.76
225.703	0.8
225.921	0.68
226.139	0.6
226.357	0.99
226.575	0.68
226.793	0.54
227.011	1.57
227.229	0.81
227.447	0.98
227.665	0.49
227.883	0.4
228.1	0.75
228.318	0.66
228.536	0.3
228.754	0.43
228.972	0.89
229.189	0.73
229.407	0.58
229.625	0.5
229.843	1.01
230.06	0.74
230.278	0.48
230.496	0.61
230.713	0.76
230.931	0.82
231.149	0.5
231.366	0.33
231.584	0.48
231.801	1.15
232.019	0.52
232.236	0.35
232.454	0.39
232.671	0.8
232.889	0.48
233.106	0.46
233.324	0.7
233.541	0.41
233.759	0.54
233.976	0.4
234.194	0.65
234.411	0.52
234.628	0.42
234.846	0.39
235.063	0.61
235.28	0.51
235.498	0.46
235.715	0.43
235.932	0.81
236.149	0.54
236.367	0.36
236.584	0.64
236.801	0.55
237.018	0.76
237.236	0.53
237.453	0.33
237.67	0.65
237.887	0.43
238.104	0.48
238.321	0.32
238.538	0.37
238.755	0.76
238.973	0.32
239.19	0.53
239.407	0.6
239.624	0.53
239.841	0.29
240.058	0.36
240.275	0.62
240.492	0.53
240.709	0.5
240.925	0.51
241.142	0.57
241.359	0.37
241.576	0.27
241.793	0.31
242.01	0.44
242.227	0.76
242.444	0.53
242.66	0.59
242.877	0.53
243.094	0.41
243.311	0.39
243.527	0.38
243.744	0.62
243.961	0.48
244.178	0.3
244.394	0.42
244.611	0.56
244.828	0.77
245.044	0.4
245.261	0.44
245.477	0.4
245.694	0.6
245.911	0.34
246.127	0.46
246.344	0.71
246.56	0.58
246.777	0.31
246.993	0.42
247.21	0.49
247.426	0.41
247.643	0.39
247.859	0.34
248.076	0.38
248.292	0.72
248.508	0.3
248.725	0.45
248.941	0.57
249.157	0.55
249.374	0.33
249.59	0.46
249.806	0.42
250.023	0.49
250.239	0.33
250.455	0.36
250.671	0.44
250.888	0.48
251.104	0.52
251.32	0.37
251.536	0.45
251.752	0.46
251.969	0.42
252.185	0.41
252.401	0.69
252.617	0.47
252.833	0.39
253.049	0.46
253.265	0.37
253.481	0.48
253.697	0.33
253.913	0.26
254.129	0.43
254.345	0.41
254.561	0.41
254.777	0.31
254.993	0.48
255.209	0.37
255.425	0.36
255.641	0.35
255.857	0.51
256.073	0.46
256.288	0.32
256.504	0.29
256.72	0.52
256.936	0.51
257.152	0.31
257.367	0.31
257.583	0.37
257.799	0.52
258.015	0.41
258.23	0.32
258.446	0.66
258.662	0.43
258.877	0.37
259.093	0.3
259.309	0.41
259.524	0.38
259.74	0.38
259.955	0.22
260.171	0.35
260.387	0.42
260.602	0.52
260.818	0.39
261.033	0.27
261.249	0.42
261.464	0.37
261.68	0.31
261.895	0.46
262.11	0.5
262.326	0.34
262.541	0.2
262.757	0.53
262.972	0.39
263.187	0.45
263.403	0.41
263.618	0.49
263.833	0.35
264.049	0.26
264.264	0.37
264.479	0.41
264.694	0.57
264.91	0.28
265.125	0.34
265.34	0.45
265.555	0.59
265.77	0.4
265.986	0.29
266.201	0.43
266.416	0.47
266.631	0.33
266.846	0.31
267.061	0.49
267.276	0.48
267.491	0.26
267.706	0.38
267.921	0.38
268.136	0.45
268.351	0.39
268.566	0.27
268.781	0.47
268.996	0.47
269.211	0.33
269.426	0.2
269.641	0.33
269.856	0.48
270.071	0.3
270.285	0.29
270.5	0.47
270.715	0.45
270.93	0.3
271.145	0.37
271.359	0.44
271.574	0.31
271.789	0.35
272.004	0.3
272.218	0.33
272.433	0.48
272.648	0.28
272.862	0.46
273.077	0.39
273.292	0.34
273.506	0.3
273.721	0.27
273.936	0.4
274.15	0.38
274.365	0.3
274.579	0.34
274.794	0.42
275.008	0.37
275.223	0.28
275.437	0.33
275.652	0.31
275.866	0.43
276.081	0.33
276.295	0.36
276.509	0.35
276.724	0.35
276.938	0.31
277.153	0.36
277.367	0.41
277.581	0.34
277.796	0.3
278.01	0.25
278.224	0.37
278.438	0.47
278.653	0.27
278.867	0.26
279.081	0.12
279.295	0.31
279.51	0.33
279.724	0.19
279.938	0.36
280.152	0.37
280.366	0.31
280.58	0.32
280.794	0.44
281.008	0.37
281.222	0.39
281.437	0.46
281.651	0.33
281.865	0.41
282.079	0.28
282.293	0.2
282.507	0.26
282.721	0.28
282.935	0.29
283.148	0.23
283.362	0.28
283.576	0.22
283.79	0.23
284.004	0.21
284.218	0.4
284.432	0.31
284.646	0.32
284.859	0.24
285.073	0.26
285.287	0.34
285.501	0.31
285.714	0.23
285.928	0.32
286.142	0.32
286.356	0.27
286.569	0.28
286.783	0.43
286.997	0.39
287.21	0.3
287.424	0.26
287.637	0.27
287.851	0.31
288.065	0.33
288.278	0.28
288.492	0.32
288.705	0.27
288.919	0.3
289.132	0.18
289.346	0.34
289.559	0.23
289.773	0.25
289.986	0.3
290.2	0.29
290.413	0.35
290.626	0.2
290.84	0.25
291.053	0.25
291.267	0.38
291.48	0.3
291.693	0.23
291.906	0.25
292.12	0.27
292.333	0.25
292.546	0.23
292.76	0.35
292.973	0.31
293.186	0.32
293.399	0.24
293.612	0.35
293.826	0.25
294.039	0.23
294.252	0.21
294.465	0.33
294.678	0.28
294.891	0.25
295.104	0.25
295.317	0.26
295.53	0.28
295.743	0.29
295.956	0.23
296.169	0.45
296.382	0.35
296.595	0.26
296.808	0.2
297.021	0.36
297.234	0.37
297.447	0.25
297.66	0.35
297.873	0.35
298.086	0.33
298.299	0.23
298.511	0.18
298.724	0.27
298.937	0.22
299.15	0.19
299.363	0.27
299.575	0.34
299.788	0.31
300.001	0.24
300.213	0.23
300.426	0.25
300.639	0.26
300.852	0.23
301.064	0.3
301.277	0.35
301.489	0.3
301.702	0.28
301.915	0.25
302.127	0.23
302.34	0.29
302.552	0.24
302.765	0.24
302.977	0.36
303.19	0.24
303.402	0.21
303.615	0.26
303.827	0.27
304.04	0.22
304.252	0.33
304.464	0.24
304.677	0.39
304.889	0.3
305.102	0.23
305.314	0.24
305.526	0.28
305.739	0.33
305.951	0.24
306.163	0.29
306.375	0.33
306.588	0.26
306.8	0.25
307.012	0.19
307.224	0.32
307.436	0.34
307.649	0.18
307.861	0.24
308.073	0.3
308.285	0.26
308.497	0.22
308.709	0.25
308.921	0.26
309.133	0.34
309.346	0.26
309.558	0.23
309.77	0.27
309.982	0.35
310.194	0.29
310.406	0.2
310.617	0.38
310.829	0.28
311.041	0.26
311.253	0.2
311.465	0.24
311.677	0.25
311.889	0.25
312.101	0.23
312.313	0.32
312.524	0.37
312.736	0.17
312.948	0.22
313.16	0.35
313.372	0.29
313.583	0.32
313.795	0.25
314.007	0.27
314.218	0.32
314.43	0.2
314.642	0.21
314.853	0.24
315.065	0.32
315.277	0.25
315.488	0.28
315.7	0.34
315.912	0.31
316.123	0.23
316.335	0.21
316.546	0.36
316.758	0.3
316.969	0.22
317.181	0.24
317.392	0.27
317.604	0.35
317.815	0.19
318.026	0.23
318.238	0.27
318.449	0.35
318.661	0.16
318.872	0.25
319.083	0.21
319.295	0.31
319.506	0.21
319.717	0.27
319.929	0.31
320.14	0.28
320.351	0.27
320.562	0.26
320.774	0.27
320.985	0.27
321.196	0.22
321.407	0.2
321.618	0.34
321.829	0.3
322.041	0.28
322.252	0.25
322.463	0.32
322.674	0.35
322.885	0.21
323.096	0.28
323.307	0.26
323.518	0.33
323.729	0.19
323.94	0.24
324.151	0.25
324.362	0.28
324.573	0.29
324.784	0.24
324.995	0.34
325.206	0.3
325.417	0.26
325.628	0.2
325.838	0.3
326.049	0.24
326.26	0.33
326.471	0.23
326.682	0.3
326.892	0.29
327.103	0.17
327.314	0.22
327.525	0.38
327.735	0.31
327.946	0.2
328.157	0.21
328.368	0.32
328.578	0.27
328.789	0.29
328.999	0.3
329.21	0.25
329.421	0.32
329.631	0.24
329.842	0.19
330.052	0.28
330.263	0.31
330.473	0.32
330.684	0.25
330.894	0.27
331.105	0.28
331.315	0.28
331.526	0.21
331.736	0.4
331.947	0.33
332.157	0.24
332.367	0.13
332.578	0.33
332.788	0.39
332.999	0.3
333.209	0.24
333.419	0.21
333.629	0.3
333.84	0.25
334.05	0.27
334.26	0.34
334.47	0.31
334.681	0.32
334.891	0.25
335.101	0.33
335.311	0.4
335.521	0.27
335.732	0.22
335.942	0.36
336.152	0.29
336.362	0.25
336.572	0.28
336.782	0.35
336.992	0.27
337.202	0.2
337.412	0.21
337.622	0.28
337.832	0.28
338.042	0.25
338.252	0.24
338.462	0.27
338.672	0.27
338.882	0.23
339.092	0.22
339.302	0.35
339.511	0.29
339.721	0.27
339.931	0.16
340.141	0.32
340.351	0.34
340.561	0.28
340.77	0.25
340.98	0.29
341.19	0.27
341.4	0.21
341.609	0.22
341.819	0.26
342.029	0.18
342.238	0.24
342.448	0.19
342.658	0.33
342.867	0.3
343.077	0.26
343.286	0.23
343.496	0.25
343.706	0.35
343.915	0.17
344.125	0.24
344.334	0.3
344.544	0.2
344.753	0.26
344.963	0.21
345.172	0.23
345.381	0.24
345.591	0.19
345.8	0.26
346.01	0.32
346.219	0.36
346.428	0.17
346.638	0.26
346.847	0.28
347.056	0.3
347.266	0.22
347.475	0.21
347.684	0.32
347.893	0.27
348.103	0.27
348.312	0.22
348.521	0.26
348.73	0.28
348.94	0.25
349.149	0.18
349.358	0.29
349.567	0.23
349.776	0.22
349.985	0.19
350.194	0.29
350.403	0.34
350.612	0.23
350.821	0.2
351.03	0.28
351.239	0.17
351.448	0.25
351.657	0.22
351.866	0.35
352.075	0.28
352.284	0.31
352.493	0.17
352.702	0.34
352.911	0.32
353.12	0.28
353.329	0.24
353.538	0.28
353.746	0.27
353.955	0.24
354.164	0.26
354.373	0.27
354.582	0.31
354.79	0.25
354.999	0.32
355.208	0.23
355.416	0.35
355.625	0.23
355.834	0.24
356.042	0.29
356.251	0.23
356.46	0.18
356.668	0.28
356.877	0.35
357.085	0.32
357.294	0.16
357.503	0.29
357.711	0.27
357.92	0.44
358.128	0.25
358.337	0.21
358.545	0.26
358.754	0.24
358.962	0.26
359.17	0.24
359.379	0.29
359.587	0.26
359.796	0.24
360.004	0.3
360.212	0.31
360.421	0.35
360.629	0.21
360.837	0.26
361.046	0.3
361.254	0.38
361.462	0.29
361.67	0.17
361.879	0.31
362.087	0.36
362.295	0.26
362.503	0.22
362.711	0.2
362.92	0.24
363.128	0.2
363.336	0.21
363.544	0.18
363.752	0.22
363.96	0.24
364.168	0.23
364.376	0.27
364.584	0.26
364.792	0.3
365	0.27
365.208	0.28
365.416	0.31
365.624	0.29
365.832	0.2
366.04	0.3
366.248	0.26
366.456	0.25
366.664	0.26
366.872	0.28
367.079	0.22
367.287	0.26
367.495	0.27
367.703	0.25
367.911	0.25
368.118	0.27
368.326	0.25
368.534	0.18
368.742	0.32
368.949	0.18
369.157	0.25
369.365	0.28
369.572	0.24
369.78	0.23
369.988	0.27
370.195	0.3
370.403	0.31
370.61	0.23
370.818	0.26
371.026	0.36
371.233	0.26
371.441	0.26
371.648	0.24
371.856	0.26
372.063	0.27
372.271	0.22
372.478	0.24
372.685	0.23
372.893	0.28
373.1	0.23
373.308	0.19
373.515	0.38
373.722	0.32
373.93	0.27
374.137	0.27
374.344	0.35
374.552	0.33
374.759	0.26
374.966	0.3
375.173	0.2
375.381	0.33
375.588	0.23
375.795	0.19
376.002	0.26
376.209	0.25
376.417	0.25
376.624	0.24
376.831	0.32
377.038	0.2
377.245	0.19
377.452	0.25
377.659	0.3
377.866	0.24
378.073	0.23
378.28	0.27
378.487	0.3
378.694	0.31
378.901	0.23
379.108	0.26
379.315	0.3
379.522	0.39
379.729	0.27
379.936	0.26
380.143	0.27
380.35	0.31
380.557	0.26
380.763	0.27
380.97	0.28
381.177	0.28
381.384	0.31
381.591	0.25
381.797	0.31
382.004	0.28
382.211	0.32
382.418	0.2
382.624	0.29
382.831	0.36
383.038	0.25
383.244	0.32
383.451	0.26
383.658	0.3
383.864	0.27
384.071	0.21
384.277	0.4
384.484	0.25
384.69	0.34
384.897	0.3
385.103	0.26
385.31	0.26
385.516	0.25
385.723	0.24
385.929	0.31
386.136	0.26
386.342	0.3
386.549	0.27
386.755	0.32
386.961	0.31
387.168	0.29
387.374	0.29
387.58	0.32
387.787	0.31
387.993	0.33
388.199	0.29
388.406	0.25
388.612	0.3
388.818	0.29
389.024	0.25
389.231	0.27
389.437	0.35
389.643	0.31
389.849	0.25
390.055	0.27
390.261	0.29
390.467	0.32
390.674	0.26
390.88	0.32
391.086	0.36
391.292	0.27
391.498	0.35
391.704	0.39
391.91	0.27
392.116	0.28
392.322	0.21
392.528	0.3
392.734	0.28
392.94	0.35
393.146	0.26
393.352	0.37
393.557	0.28
393.763	0.28
393.969	0.33
394.175	0.31
394.381	0.34
394.587	0.25
394.792	0.32
394.998	0.36
395.204	0.37
395.41	0.24
395.615	0.32
395.821	0.31
396.027	0.41
396.233	0.3
396.438	0.36
396.644	0.36
396.85	0.37
397.055	0.36
397.261	0.37
397.466	0.42
397.672	0.41
397.878	0.37
398.083	0.41
398.289	0.33
398.494	0.4
398.7	0.37
398.905	0.29
399.111	0.42
399.316	0.24
399.522	0.39
399.727	0.34
399.932	0.35
400.138	0.27
400.343	0.4
400.549	0.37
400.754	0.36
400.959	0.36
401.165	0.32
401.37	0.4
401.575	0.52
401.78	0.36
401.986	0.37
402.191	0.38
402.396	0.39
402.601	0.39
402.807	0.45
403.012	0.4
403.217	0.44
403.422	0.46
403.627	0.43
403.832	0.43
404.037	0.47
404.243	0.45
404.448	0.42
404.653	0.42
404.858	0.48
405.063	0.46
405.268	0.44
405.473	0.37
405.678	0.42
405.883	0.69
406.088	0.5
406.293	0.42
406.498	0.49
406.703	0.46
406.907	0.51
407.112	0.4
407.317	0.52
407.522	0.56
407.727	0.51
407.932	0.53
408.136	0.68
408.341	0.57
408.546	0.56
408.751	0.56
408.956	0.62
409.16	0.69
409.365	0.62
409.57	0.65
409.774	0.65
409.979	0.72
410.184	0.69
410.388	0.61
410.593	0.81
410.798	0.72
411.002	0.73
411.207	0.8
411.411	0.81
411.616	0.75
411.82	0.84
412.025	0.88
412.229	0.86
412.434	0.96
412.638	0.87
412.843	0.9
413.047	1.02
413.252	0.98
413.456	0.98
413.66	1.09
413.865	1.1
414.069	1.18
414.273	1.13
414.478	1.09
414.682	1.22
414.886	1.25
415.091	1.21
415.295	1.23
415.499	1.43
415.703	1.37
415.908	1.47
416.112	1.39
416.316	1.64
416.52	1.57
416.724	1.57
416.929	1.59
417.133	1.91
417.337	1.75
417.541	1.81
417.745	1.92
417.949	1.96
418.153	2.02
418.357	2.03
418.561	2.24
418.765	2.22
418.969	2.32
419.173	2.44
419.377	2.47
419.581	2.7
419.785	2.66
419.989	2.63
420.193	2.84
420.397	2.93
420.601	3.07
420.804	3.17
421.008	3.09
421.212	3.29
421.416	3.29
421.62	3.32
421.823	3.41
422.027	3.51
422.231	3.54
422.435	3.57
422.638	3.57
422.842	3.64
423.046	3.72
423.249	3.97
423.453	3.91
423.657	4.11
423.86	4.27
424.064	4.34
424.268	4.4
424.471	4.55
424.675	4.78
424.878	4.88
425.082	4.84
425.285	5.16
425.489	5.16
425.692	5.34
425.896	5.3
426.099	5.52
426.303	5.64
426.506	5.7
426.71	5.88
426.913	6.26
427.116	6.36
427.32	6.35
427.523	6.45
427.726	6.74
427.93	6.79
428.133	7.19
428.336	7.25
428.54	7.38
428.743	7.74
428.946	7.93
429.149	8.01
429.353	7.89
429.556	8
429.759	8.02
429.962	8.26
430.165	8.41
430.368	8.09
430.571	8.08
430.775	8.08
430.978	8.15
431.181	8.21
431.384	8.21
431.587	8.33
431.79	8.77
431.993	8.71
432.196	9.01
432.399	9.31
432.602	9.55
432.805	9.59
433.008	10.12
433.211	9.89
433.414	10.27
433.616	10.36
433.819	10.27
434.022	10.43
434.225	10.74
434.428	10.7
434.631	11.07
434.833	10.88
435.036	11.1
435.239	11.26
435.442	11.38
435.645	11.43
435.847	11.59
436.05	12.04
436.253	12.17
436.455	12.22
436.658	11.96
436.861	12.37
437.063	12.47
437.266	12.46
437.468	12.79
437.671	13.06
437.874	13.16
438.076	12.97
438.279	13.53
438.481	13.66
438.684	14.31
438.886	13.81
439.089	14.17
439.291	14.22
439.494	14.48
439.696	14.73
439.899	15.2
440.101	15.64
440.303	15.84
440.506	16.49
440.708	16.27
440.91	16.48
441.113	16.85
441.315	17
441.517	16.64
441.72	17.34
441.922	16.86
442.124	16.88
442.326	17.19
442.529	17.39
442.731	17.45
442.933	17.72
443.135	17.48
443.337	17.64
443.539	17.94
443.742	17.74
443.944	18.42
444.146	18.21
444.348	18.02
444.55	17.99
444.752	18.13
444.954	18.23
445.156	18.07
445.358	18.38
445.56	18.79
445.762	18.48
445.964	18.92
446.166	18.61
446.368	18.62
446.57	18.43
446.772	18.15
446.974	17.93
447.175	18.17
447.377	17.91
447.579	18.24
447.781	18
447.983	17.86
448.184	17.36
448.386	17.79
448.588	17.18
448.79	17.18
448.991	17.51
449.193	17.44
449.395	16.77
449.597	16.45
449.798	16.3
450	15.91
450.202	15.73
450.403	15.83
450.605	15.77
450.806	15.22
451.008	15.15
451.21	14.98
451.411	14.41
451.613	13.65
451.814	14.02
452.016	13.95
452.217	13.15
452.419	13.27
452.62	12.91
452.821	12.64
453.023	12.44
453.224	12.16
453.426	11.76
453.627	11.05
453.828	11.05
454.03	11.2
454.231	11.23
454.432	10.92
454.634	10.66
454.835	10.41
455.036	10.35
455.238	9.99
455.439	9.79
455.64	9.36
455.841	9.33
456.042	9.49
456.244	9.13
456.445	8.91
456.646	8.56
456.847	8.45
457.048	8.42
457.249	8.26
457.45	8.18
457.651	7.63
457.852	7.65
458.054	7.2
458.255	7.03
458.456	7.21
458.657	7.02
458.858	6.71
459.058	6.63
459.259	6.72
459.46	6.33
459.661	6.44
459.862	6.5
460.063	6.32
460.264	6.12
460.465	6.02
460.666	6.04
460.866	5.73
461.067	5.42
461.268	5.46
461.469	5.47
461.67	5.32
461.87	5.18
462.071	5.2
462.272	5.13
462.473	5.11
462.673	5.16
462.874	5.21
463.075	5.01
463.275	5.08
463.476	5.07
463.676	5.1
463.877	4.92
464.078	4.91
464.278	5
464.479	4.86
464.679	4.71
464.88	4.72
465.08	4.68
465.281	4.46
465.481	4.3
465.682	4.17
465.882	4.27
466.083	4.11
466.283	3.99
466.483	3.88
466.684	3.74
466.884	3.63
467.085	3.62
467.285	3.75
467.485	3.55
467.686	3.51
467.886	3.43
468.086	3.33
468.286	3.31
468.487	3.44
468.687	3.23
468.887	3.16
469.087	3.34
469.287	3.22
469.488	3.03
469.688	3.18
469.888	3.15
470.088	3.14
470.288	3.05
470.488	3.06
470.688	2.83
470.888	2.83
471.088	2.67
471.288	2.81
471.488	2.71
471.688	2.75
471.888	2.72
472.088	2.79
472.288	2.76
472.488	2.59
472.688	2.54
472.888	2.59
473.088	2.61
473.288	2.5
473.488	2.43
473.688	2.59
473.887	2.47
474.087	2.38
474.287	2.39
474.487	2.41
474.687	2.44
474.886	2.33
475.086	2.3
475.286	2.26
475.486	2.27
475.685	2.31
475.885	2.16
476.085	2.26
476.284	2.23
476.484	2.2
476.684	2.21
476.883	2.31
477.083	2.18
477.282	2.13
477.482	2.21
477.681	2.15
477.881	2.06
478.08	2.11
478.28	1.99
478.479	2.11
478.679	2.17
478.878	2.02
479.078	2.06
479.277	2.05
479.477	2.03
479.676	2.02
479.875	2.03
480.075	1.95
480.274	2.02
480.473	2.08
480.673	2.03
480.872	2.09
481.071	2.03
481.271	2.05
481.47	1.93
481.669	2
481.868	1.98
482.067	2
482.267	1.94
482.466	1.89
482.665	1.95
482.864	1.97
483.063	1.91
483.262	1.99
483.461	2.04
483.661	2.05
483.86	1.93
484.059	2.01
484.258	2.03
484.457	1.99
484.656	2.03
484.855	2.09
485.054	1.93
485.253	1.98
485.452	1.92
485.651	2.04
485.849	2.05
486.048	1.99
486.247	2.02
486.446	2.09
486.645	2.01
486.844	2.09
487.043	2.07
487.241	2.12
487.44	2.03
487.639	2.13
487.838	2.14
488.037	2.1
488.235	2.18
488.434	2.16
488.633	2.06
488.831	2.23
489.03	2.2
489.229	2.15
489.427	2.21
489.626	2.31
489.825	2.29
490.023	2.31
490.222	2.24
490.42	2.33
490.619	2.36
490.817	2.4
491.016	2.33
491.214	2.46
491.413	2.4
491.611	2.35
491.81	2.39
492.008	2.47
492.207	2.56
492.405	2.52
492.604	2.48
492.802	2.54
493	2.61
493.199	2.56
493.397	2.63
493.595	2.69
493.794	2.65
493.992	2.76
494.19	2.72
494.388	2.82
494.587	2.71
494.785	2.79
494.983	2.72
495.181	2.91
495.379	2.87
495.578	2.94
495.776	2.9
495.974	2.9
496.172	2.95
496.37	3.07
496.568	3.08
496.766	3.06
496.964	3.2
497.162	3.22
497.36	3.23
497.558	3.24
497.756	3.3
497.954	3.23
498.152	3.32
498.35	3.46
498.548	3.39
498.746	3.41
498.944	3.42
499.142	3.41
499.34	3.57
499.538	3.64
499.736	3.47
499.933	3.7
500.131	3.67
500.329	3.8
500.527	3.73
500.725	3.85
500.922	3.84
501.12	3.85
501.318	3.94
501.516	3.99
501.713	3.97
501.911	3.99
502.109	3.96
502.306	4.11
502.504	3.99
502.701	4.13
502.899	4.16
503.097	4.34
503.294	4.23
503.492	4.39
503.689	4.36
503.887	4.33
504.084	4.45
504.282	4.44
504.479	4.36
504.677	4.6
504.874	4.52
505.072	4.42
505.269	4.65
505.466	4.72
505.664	4.75
505.861	4.64
506.059	4.76
506.256	4.77
506.453	4.85
506.651	4.99
506.848	4.96
507.045	5.02
507.242	5
507.44	5.08
507.637	5.08
507.834	5.08
508.031	5.2
508.229	5.15
508.426	5.14
508.623	5.25
508.82	5.29
509.017	5.23
509.214	5.26
509.411	5.33
509.608	5.35
509.805	5.5
510.003	5.46
510.2	5.52
510.397	5.68
510.594	5.58
510.791	5.67
510.988	5.6
511.184	5.63
511.381	5.54
511.578	5.67
511.775	5.8
511.972	5.76
512.169	5.8
512.366	5.74
512.563	5.94
512.76	5.95
512.956	5.95
513.153	5.95
513.35	5.94
513.547	5.89
513.744	6.05
513.94	6.05
514.137	6.15
514.334	6.09
514.53	6.11
514.727	6.32
514.924	6.25
515.12	6.26
515.317	6.28
515.514	6.22
515.71	6.19
515.907	6.44
516.103	6.43
516.3	6.3
516.497	6.5
516.693	6.5
516.89	6.47
517.086	6.55
517.283	6.56
517.479	6.45
517.676	6.61
517.872	6.68
518.068	6.62
518.265	6.61
518.461	6.54
518.658	6.7
518.854	6.69
519.05	6.77
519.247	6.84
519.443	6.79
519.639	6.93
519.836	6.79
520.032	6.72
520.228	6.89
520.424	6.89
520.621	6.9
520.817	6.99
521.013	6.84
521.209	7.06
521.405	7.06
521.601	7.03
521.798	6.92
521.994	6.98
522.19	6.95
522.386	7
522.582	7.14
522.778	7.24
522.974	7.06
523.17	7.16
523.366	7.06
523.562	7.17
523.758	7.12
523.954	7.01
524.15	7.21
524.346	7.3
524.542	7.29
524.738	7.23
524.934	7.37
525.129	7.32
525.325	7.25
525.521	7.32
525.717	7.48
525.913	7.32
526.109	7.35
526.304	7.45
526.5	7.4
526.696	7.48
526.892	7.42
527.087	7.64
527.283	7.54
527.479	7.44
527.674	7.24
527.87	7.48
528.066	7.47
528.261	7.48
528.457	7.38
528.653	7.61
528.848	7.62
529.044	7.68
529.239	7.52
529.435	7.53
529.63	7.54
529.826	7.58
530.021	7.56
530.217	7.6
530.412	7.6
530.608	7.57
530.803	7.64
530.999	7.51
531.194	7.64
531.389	7.71
531.585	7.68
531.78	7.8
531.975	7.72
532.171	7.74
532.366	7.73
532.561	7.8
532.757	7.68
532.952	7.88
533.147	7.65
533.342	7.81
533.538	7.72
533.733	7.9
533.928	7.58
534.123	7.76
534.318	7.87
534.513	7.74
534.709	7.91
534.904	7.8
535.099	7.88
535.294	7.9
535.489	7.88
535.684	7.84
535.879	7.81
536.074	7.93
536.269	7.95
536.464	7.9
536.659	7.95
536.854	7.9
537.049	7.99
537.244	7.9
537.439	7.93
537.634	7.93
537.828	7.98
538.023	7.94
538.218	7.91
538.413	7.83
538.608	7.9
538.803	7.94
538.997	7.88
539.192	7.95
539.387	7.88
539.582	7.89
539.776	7.91
539.971	8.01
540.166	8.06
540.36	7.93
540.555	8.11
540.75	7.97
540.944	8.06
541.139	8
541.334	7.97
541.528	8.01
541.723	8.06
541.917	8.09
542.112	7.93
542.306	7.85
542.501	7.93
542.695	8.03
542.89	7.98
543.084	7.98
543.279	8.11
543.473	8.07
543.668	8.07
543.862	7.94
544.056	7.94
544.251	8.07
544.445	8.13
544.64	8.11
544.834	7.81
545.028	7.68
545.222	8.01
545.417	8.29
545.611	8.09
545.805	8.02
546	7.9
546.194	8.02
546.388	8.04
546.582	8.01
546.776	8.05
546.97	8
547.165	8.04
547.359	8.08
547.553	7.97
547.747	8
547.941	8.21
548.135	8.01
548.329	8.09
548.523	8.12
548.717	7.94
548.911	8.04
549.105	7.93
549.299	8.11
549.493	8.11
549.687	8.04
549.881	8.16
550.075	8.11
550.269	7.97
550.463	8.12
550.657	8.09
550.85	8.08
551.044	8.05
551.238	8.14
551.432	8.08
551.626	8.08
551.82	8.12
552.013	8.01
552.207	8.16
552.401	8.2
552.594	8.09
552.788	8.03
552.982	8
553.176	8.05
553.369	8.23
553.563	8.15
553.756	8.04
553.95	8.17
554.144	8.18
554.337	8.15
554.531	7.93
554.724	8.09
554.918	8.19
555.111	8.12
555.305	8.13
555.498	8.01
555.692	8.22
555.885	8.15
556.079	8.07
556.272	8.08
556.466	8.11
556.659	8.07
556.852	8.16
557.046	8.05
557.239	7.92
557.432	8.02
557.626	8.15
557.819	8.17
558.012	8.16
558.206	8.22
558.399	8.12
558.592	8.09
558.785	8.02
558.979	8.03
559.172	8.09
559.365	8.06
559.558	8.03
559.751	8
559.944	8.21
560.138	8.11
560.331	8.11
560.524	8.13
560.717	8.01
560.91	8.02
561.103	8.1
561.296	7.93
561.489	8.12
561.682	8.18
561.875	8.1
562.068	8.18
562.261	8.01
562.454	8.27
562.647	8.09
562.84	8.18
563.032	8.12
563.225	8
563.418	8.04
563.611	8.22
563.804	8.13
563.997	7.94
564.19	7.95
564.382	8.17
564.575	8.07
564.768	8.07
564.961	8.12
565.153	8.02
565.346	7.97
565.539	8.17
565.731	8.14
565.924	8.17
566.117	8.2
566.309	8.1
566.502	8.06
566.695	8.04
566.887	8.08
567.08	8.09
567.272	8.14
567.465	8.02
567.657	8.13
567.85	7.98
568.042	8.05
568.235	8.11
568.427	7.93
568.62	8.03
568.812	8.05
569.005	8.13
569.197	7.96
569.389	8.05
569.582	8.08
569.774	8.07
569.966	7.99
570.159	7.93
570.351	7.96
570.543	8.02
570.736	8.06
570.928	7.93
571.12	8.03
571.312	7.95
571.505	7.81
571.697	7.98
571.889	8.02
572.081	8
572.273	7.87
572.465	7.98
572.658	7.99
572.85	8.03
573.042	8
573.234	7.9
573.426	7.98
573.618	7.92
573.81	8.03
574.002	7.93
574.194	7.95
574.386	7.85
574.578	7.77
574.77	7.89
574.962	7.92
575.154	7.79
575.346	7.81
575.538	7.88
575.729	7.83
575.921	7.9
576.113	7.93
576.305	7.92
576.497	7.98
576.689	7.76
576.88	7.76
577.072	7.92
577.264	7.86
577.456	7.89
577.647	7.76
577.839	7.95
578.031	7.88
578.223	7.88
578.414	7.74
578.606	7.84
578.798	7.91
578.989	7.8
579.181	7.88
579.372	7.82
579.564	7.81
579.755	7.79
579.947	7.75
580.139	7.85
580.33	7.66
580.522	7.79
580.713	7.72
580.905	7.8
581.096	7.84
581.287	7.75
581.479	7.69
581.67	7.76
581.862	7.71
582.053	7.76
582.244	7.58
582.436	7.84
582.627	7.57
582.818	7.6
583.01	7.62
583.201	7.74
583.392	7.65
583.583	7.63
583.775	7.48
583.966	7.52
584.157	7.6
584.348	7.72
584.54	7.55
584.731	7.6
584.922	7.52
585.113	7.46
585.304	7.53
585.495	7.57
585.686	7.61
585.877	7.53
586.068	7.64
586.259	7.55
586.45	7.5
586.641	7.47
586.832	7.6
587.023	7.43
587.214	7.46
587.405	7.55
587.596	7.35
587.787	7.4
587.978	7.5
588.169	7.38
588.36	7.31
588.551	7.38
588.742	7.43
588.932	7.44
589.123	7.22
589.314	7.52
589.505	7.38
589.696	7.36
589.886	7.33
590.077	7.34
590.268	7.29
590.458	7.17
590.649	7.14
590.84	7.21
591.03	7.27
591.221	7.18
591.412	7.12
591.602	7.36
591.793	7.26
591.984	7.2
592.174	7.21
592.365	7.41
592.555	7.03
592.746	7.11
592.936	7.17
593.127	7.19
593.317	7.19
593.508	7.16
593.698	7.07
593.889	7.1
594.079	7.09
594.269	7
594.46	7.09
594.65	7.13
594.84	7.01
595.031	6.94
595.221	6.96
595.411	6.94
595.602	6.96
595.792	6.93
595.982	6.89
596.172	7.09
596.363	6.89
596.553	6.89
596.743	6.92
596.933	6.84
597.123	6.84
597.314	6.78
597.504	6.75
597.694	6.87
597.884	6.84
598.074	6.8
598.264	6.75
598.454	6.8
598.644	6.81
598.834	6.74
599.024	6.69
599.214	6.69
599.404	6.75
599.594	6.69
599.784	6.6
599.974	6.73
600.164	6.72
600.354	6.65
600.544	6.57
600.734	6.65
600.924	6.65
601.114	6.56
601.303	6.55
601.493	6.51
601.683	6.57
601.873	6.51
602.063	6.42
602.252	6.55
602.442	6.43
602.632	6.42
602.821	6.36
603.011	6.44
603.201	6.41
603.39	6.36
603.58	6.32
603.77	6.4
603.959	6.45
604.149	6.31
604.339	6.35
604.528	6.44
604.718	6.37
604.907	6.34
605.097	6.27
605.286	6.29
605.476	6.33
605.665	6.22
605.855	6.1
606.044	6.29
606.234	6.22
606.423	6.17
606.612	6.12
606.802	6.14
606.991	6.2
607.181	6.2
607.37	6.17
607.559	5.87
607.749	6.12
607.938	5.96
608.127	6.01
608.316	5.99
608.506	5.97
608.695	6.08
608.884	5.97
609.073	6.01
609.263	6.08
609.452	5.96
609.641	5.98
609.83	5.86
610.019	6.01
610.208	5.73
610.397	5.85
610.586	5.83
610.775	5.79
610.965	5.82
611.154	5.72
611.343	5.84
611.532	5.69
611.721	5.78
611.91	5.7
612.099	5.64
612.287	5.65
612.476	5.58
612.665	5.73
612.854	5.6
613.043	5.66
613.232	5.62
613.421	5.49
613.61	5.57
613.798	5.54
613.987	5.54
614.176	5.5
614.365	5.52
614.554	5.51
614.742	5.53
614.931	5.34
615.12	5.53
615.309	5.45
615.497	5.41
615.686	5.26
615.875	5.44
616.063	5.42
616.252	5.34
616.44	5.32
616.629	5.36
616.818	5.32
617.006	5.27
617.195	5.19
617.383	5.22
617.572	5.2
617.76	5.14
617.949	5.16
618.137	5.21
618.326	5.15
618.514	5.04
618.703	5.03
618.891	5.19
619.079	5.07
619.268	5.15
619.456	5.05
619.644	5.14
619.833	4.96
620.021	5.01
620.209	4.94
620.398	5.05
620.586	4.9
620.774	4.92
620.962	4.9
621.151	5.02
621.339	4.94
621.527	4.79
621.715	4.8
621.903	4.82
622.092	4.71
622.28	4.95
622.468	4.65
622.656	4.78
622.844	4.76
623.032	4.74
623.22	4.69
623.408	4.84
623.596	4.72
623.784	4.77
623.972	4.63
624.16	4.66
624.348	4.64
624.536	4.74
624.724	4.55
624.912	4.63
625.1	4.61
625.288	4.54
625.476	4.51
625.664	4.6
625.851	4.57
626.039	4.6
626.227	4.48
626.415	4.52
626.603	4.45
626.79	4.49
626.978	4.5
627.166	4.5
627.354	4.36
627.541	4.36
627.729	4.24
627.917	4.48
628.104	4.48
628.292	4.31
628.48	4.28
628.667	4.23
628.855	4.34
629.042	4.28
629.23	4.2
629.418	4.25
629.605	4.25
629.793	4.14
629.98	4.2
630.168	4.13
630.355	4.26
630.543	4.13
630.73	4.05
630.917	4.13
631.105	4.21
631.292	4.1
631.48	4.01
631.667	4.19
631.854	4.01
632.042	4.01
632.229	3.89
632.416	4.04
632.604	3.98
632.791	3.89
632.978	4
633.165	3.93
633.353	3.99
633.54	3.98
633.727	3.77
633.914	3.8
634.101	3.77
634.289	3.88
634.476	3.8
634.663	3.77
634.85	3.79
635.037	3.74
635.224	3.71
635.411	3.85
635.598	3.69
635.785	3.72
635.972	3.68
636.159	3.8
636.346	3.65
636.533	3.65
636.72	3.68
636.907	3.59
637.094	3.64
637.281	3.53
637.468	3.6
637.655	3.66
637.842	3.56
638.029	3.52
638.215	3.48
638.402	3.55
638.589	3.46
638.776	3.44
638.963	3.4
639.149	3.52
639.336	3.51
639.523	3.4
639.709	3.4
639.896	3.4
640.083	3.41
640.27	3.42
640.456	3.32
640.643	3.31
640.829	3.24
641.016	3.29
641.203	3.26
641.389	3.31
641.576	3.31
641.762	3.26
641.949	3.25
642.135	3.25
642.322	3.23
642.508	3.11
642.695	3.2
642.881	3.11
643.068	3.11
643.254	3.14
643.441	3.14
643.627	3.14
643.813	3.07
644	3.17
644.186	3.01
644.372	3.05
644.559	3.07
644.745	3.02
644.931	2.94
645.118	3.05
645.304	3
645.49	2.96
645.676	3
645.862	2.97
646.049	3.05
646.235	2.95
646.421	3.07
646.607	2.98
646.793	2.92
646.979	2.86
647.165	2.9
647.352	2.91
647.538	2.9
647.724	2.87
647.91	2.82
648.096	2.85
648.282	2.85
648.468	2.77
648.654	2.8
648.84	2.83
649.026	2.75
649.212	2.72
649.397	2.72
649.583	2.71
649.769	2.74
649.955	2.71
650.141	2.73
650.327	2.75
650.513	2.69
650.698	2.68
650.884	2.57
651.07	2.67
651.256	2.68
651.442	2.57
651.627	2.54
651.813	2.62
651.999	2.55
652.184	2.57
652.37	2.53
652.556	2.55
652.741	2.57
652.927	2.4
653.113	2.53
653.298	2.5
653.484	2.45
653.669	2.4
653.855	2.4
654.04	2.51
654.226	2.45
654.412	2.44
654.597	2.33
654.782	2.45
654.968	2.42
655.153	2.42
655.339	2.35
655.524	2.34
655.71	2.37
655.895	2.32
656.08	2.31
656.266	2.4
656.451	2.33
656.636	2.28
656.822	2.31
657.007	2.31
657.192	2.29
657.378	2.22
657.563	2.24
657.748	2.27
657.933	2.24
658.118	2.18
658.304	2.18
658.489	2.24
658.674	2.23
658.859	2.17
659.044	2.17
659.229	2.24
659.414	2.14
659.599	2.1
659.785	2.09
659.97	2.17
660.155	2.18
660.34	2.14
660.525	2.02
660.71	2.05
660.895	2.12
661.08	2.01
661.264	2.06
661.449	2.11
661.634	2.06
661.819	2.08
662.004	2.08
662.189	1.97
662.374	2.06
662.559	1.92
662.743	1.92
662.928	1.98
663.113	1.92
663.298	1.95
663.483	1.89
663.667	1.99
663.852	1.92
664.037	1.93
664.221	1.91
664.406	1.95
664.591	1.94
664.775	1.9
664.96	1.92
665.145	1.81
665.329	1.95
665.514	1.88
665.698	1.77
665.883	1.78
666.068	1.92
666.252	1.84
666.437	1.72
666.621	1.8
666.806	1.84
666.99	1.78
667.174	1.74
667.359	1.89
667.543	1.77
667.728	1.79
667.912	1.63
668.096	1.75
668.281	1.73
668.465	1.78
668.649	1.7
668.834	1.61
669.018	1.68
669.202	1.68
669.387	1.64
669.571	1.7
669.755	1.65
669.939	1.67
670.124	1.64
670.308	1.67
670.492	1.66
670.676	1.62
670.86	1.65
671.044	1.51
671.228	1.64
671.413	1.56
671.597	1.52
671.781	1.62
671.965	1.64
672.149	1.57
672.333	1.57
672.517	1.62
672.701	1.6
672.885	1.59
673.069	1.43
673.253	1.63
673.437	1.54
673.621	1.51
673.804	1.58
673.988	1.54
674.172	1.52
674.356	1.44
674.54	1.54
674.724	1.65
674.908	1.44
675.091	1.56
675.275	1.47
675.459	1.53
675.643	1.53
675.826	1.47
676.01	1.43
676.194	1.47
676.377	1.49
676.561	1.51
676.745	1.43
676.928	1.51
677.112	1.48
677.296	1.38
677.479	1.34
677.663	1.38
677.846	1.44
678.03	1.4
678.213	1.35
678.397	1.43
678.58	1.39
678.764	1.39
678.947	1.29
679.131	1.33
679.314	1.39
679.498	1.36
679.681	1.36
679.865	1.41
680.048	1.32
680.231	1.3
680.415	1.31
680.598	1.29
680.781	1.31
680.965	1.25
681.148	1.29
681.331	1.21
681.514	1.34
681.698	1.27
681.881	1.27
682.064	1.3
682.247	1.29
682.43	1.15
682.614	1.27
682.797	1.3
682.98	1.29
683.163	1.18
683.346	1.21
683.529	1.19
683.712	1.22
683.895	1.26
684.078	1.12
684.261	1.21
684.444	1.2
684.627	1.22
684.81	1.16
684.993	1.22
685.176	1.19
685.359	1.15
685.542	1.03
685.725	1.28
685.908	1.22
686.091	1.09
686.274	1.2
686.457	1.17
686.639	1.17
686.822	1.18
687.005	1.11
687.188	1.18
687.371	1.29
687.553	1.17
687.736	1.18
687.919	1.23
688.102	1.18
688.284	1.09
688.467	1
688.65	1.09
688.832	0.97
689.015	1.05
689.197	0.92
689.38	1.23
689.563	1.2
689.745	1.01
689.928	1.04
690.11	1.02
690.293	1.1
690.475	0.98
690.658	1.11
690.84	1.02
691.023	0.99
691.205	0.97
691.388	1.06
691.57	1.05
691.752	1.07
691.935	0.93
692.117	0.95
692.3	1.04
692.482	0.97
692.664	0.95
692.847	1.01
693.029	1.03
693.211	1.08
693.393	0.93
693.576	0.92
693.758	0.93
693.94	0.94
694.122	0.86
694.304	0.92
694.487	0.87
694.669	0.91
694.851	0.88
695.033	0.88
695.215	0.92
695.397	0.9
695.579	0.94
695.761	0.85
695.943	0.87
696.125	1.04
696.308	0.89
696.49	0.81
696.671	1.08
696.853	0.9
697.035	1.13
697.217	0.88
697.399	1.01
697.581	0.81
697.763	0.88
697.945	0.81
698.127	0.9
698.309	0.99
698.491	0.87
698.672	0.91
698.854	0.92
699.036	0.89
699.218	0.87
699.399	0.9
699.581	0.88
699.763	0.83
699.945	0.81
700.126	0.71
700.308	0.83
700.49	0.85
700.671	0.79
700.853	0.75
701.035	0.74
701.216	0.81
701.398	0.8
701.579	0.77
701.761	0.84
701.943	0.8
702.124	0.77
702.306	0.8
702.487	0.95
702.669	0.81
702.85	0.68
703.031	0.66
703.213	0.96
703.394	0.82
703.576	0.73
703.757	0.9
703.938	0.86
704.12	0.92
704.301	0.79
704.483	0.66
704.664	0.82
704.845	0.83
705.026	0.83
705.208	0.71
705.389	0.78
705.57	0.76
705.751	0.8
705.933	0.77
706.114	0.78
706.295	0.75
706.476	0.66
706.657	0.79
706.838	0.76
707.02	0.85
707.201	0.66
707.382	0.72
707.563	0.74
707.744	0.71
707.925	0.7
708.106	0.61
708.287	0.75
708.468	0.79
708.649	0.78
708.83	0.78
709.011	0.76
709.192	0.76
709.373	0.62
709.554	0.73
709.734	0.79
709.915	0.73
710.096	0.66
710.277	0.55
710.458	0.68
710.639	0.74
710.819	0.56
711	0.58
711.181	0.75
711.362	0.77
711.542	0.69
711.723	0.65
711.904	0.75
712.085	0.71
712.265	0.7
712.446	0.5
712.627	0.64
712.807	0.67
712.988	0.64
713.168	0.53
713.349	0.71
713.53	0.48
713.71	0.56
713.891	0.51
714.071	0.67
714.252	0.58
714.432	0.58
714.613	0.46
714.793	0.63
714.974	0.82
715.154	0.63
715.334	0.73
715.515	0.74
715.695	0.55
715.876	0.62
716.056	0.56
716.236	0.57
716.417	0.55
716.597	0.52
716.777	0.85
716.957	0.64
717.138	0.61
717.318	0.49
717.498	0.5
717.678	0.66
717.859	0.64
718.039	0.42
718.219	0.56
718.399	0.62
718.579	0.58
718.759	0.51
718.939	0.58
719.12	0.55
719.3	0.55
719.48	0.38
719.66	0.45
719.84	0.69
720.02	0.52
720.2	0.5
720.38	0.5
720.56	0.7
720.74	0.35
720.92	0.54
721.1	0.68
721.279	0.62
721.459	0.57
721.639	0.4
721.819	0.52
721.999	0.56
722.179	0.64
722.359	0.42
722.538	0.56
722.718	0.6
722.898	0.51
723.078	0.51
723.257	0.49
723.437	0.57
723.617	0.59
723.797	0.58
723.976	0.54
724.156	0.66
724.336	0.65
724.515	0.7
724.695	0.39
724.874	0.56
725.054	0.58
725.234	0.52
725.413	0.49
725.593	0.54
725.772	0.56
725.952	0.47
726.131	0.44
726.311	0.59
726.49	0.52
726.67	0.47
726.849	0.49
727.028	0.52
727.208	0.48
727.387	0.61
727.567	0.36
727.746	0.48
727.925	0.52
728.105	0.42
728.284	0.45
728.463	0.52
728.643	0.58
728.822	0.45
729.001	0.43
729.18	0.56
729.359	0.65
729.539	0.48
729.718	0.59
729.897	0.6
730.076	0.59
730.255	0.39
730.434	0.5
730.614	0.6
730.793	0.71
730.972	0.48
731.151	0.47
731.33	0.61
731.509	0.6
731.688	0.42
731.867	0.42
732.046	0.31
732.225	0.7
732.404	0.41
732.583	0.34
732.762	0.49
732.941	0.62
733.12	0.49
733.298	0.37
733.477	0.63
733.656	0.53
733.835	0.45
734.014	0.65
734.193	0.5
734.371	0.53
734.55	0.59
734.729	0.3
734.908	0.51
735.086	0.65
735.265	0.57
735.444	0.23
735.623	0.37
735.801	0.42
735.98	0.43
736.159	0.48
736.337	0.56
736.516	0.63
736.694	0.41
736.873	0.49
737.052	0.75
737.23	0.71
737.409	0.4
737.587	0.7
737.766	0.29
737.944	0.5
738.123	0.52
738.301	0.62
738.479	0.56
738.658	0.51
738.836	0.27
739.015	0.56
739.193	0.72
739.371	0.26
739.55	0.4
739.728	0.41
739.906	0.78
740.085	0.67
740.263	0.53
740.441	0.26
740.62	0.71
740.798	0.6
740.976	0.35
741.154	0.39
741.332	0.73
741.511	0.47
741.689	0.55
741.867	0.58
742.045	0.61
742.223	0.44
742.401	0.39
742.579	0.43
742.757	0.51
742.935	0.33
743.114	0.41
743.292	0.51
743.47	0.49
743.648	0.48
743.826	0.46
744.004	0.46
744.181	0.56
744.359	0.38
744.537	0.48
744.715	0.49
744.893	0.55
745.071	0.52
745.249	0.36
745.427	0.37
745.605	0.55
745.782	0.58
745.96	0.54
746.138	0.7
746.316	0.7
746.493	0.41
746.671	0.44
746.849	0.36
747.027	0.64
747.204	0.27
747.382	0.5
747.56	0.3
747.737	0.55
747.915	0.48
748.093	0.46
748.27	0.39
748.448	0.43
748.625	0.26
748.803	0.34
748.98	0.38
749.158	0.46
749.335	0.53
749.513	0.38
749.69	0.42
749.868	0.35
750.045	0.36
750.223	0.27
750.4	0.23
750.578	0.7
750.755	0.45
750.932	0.26
751.11	0.62
751.287	0.36
751.464	0.55
751.642	0.27
751.819	0.42
751.996	0.39
752.173	0.43
752.351	0.24
752.528	0.36
752.705	0.43
752.882	0.2
753.06	0.48
753.237	0.42
753.414	0.63
753.591	0.51
753.768	0.37
753.945	0.33
754.122	0.39
754.299	0.5
754.476	0.27
754.654	0.39
754.831	0.52
755.008	0.44
755.185	0.42
755.362	0.19
755.539	0.39
755.716	0.32
755.892	0.33
756.069	0.4
756.246	0.45
756.423	0.34
756.6	0.46
756.777	0.2
756.954	0.57
757.131	0.27
757.307	0.31
757.484	0.25
757.661	0.43
757.838	0.54
758.015	0.17
758.191	0.37
758.368	0.46
758.545	0.59
758.721	0.42
758.898	0.15
759.075	0.38
759.251	0.45
759.428	0.5
759.605	0.19
759.781	0.38
759.958	0.54
760.134	0.42
760.311	0.25
760.488	0.6
760.664	0.56
760.841	0.4
761.017	0.29
761.194	0.49
761.37	0.52
761.547	0.33
761.723	0.28
761.899	0.51
762.076	0.3
762.252	0.19
762.429	0.22
762.605	0.59
762.781	0.37
762.958	0.47
763.134	0.24
763.31	0.25
763.486	0.52
763.663	0.23
763.839	0.29
764.015	0.2
764.191	0.35
764.368	0.37
764.544	0.24
764.72	0.38
764.896	0.47
765.072	0.5
765.248	0.26
765.425	0.33
765.601	0.5
765.777	0.48
765.953	0.16
766.129	0.32
766.305	0.28
766.481	0.42
766.657	0.32
766.833	0.54
767.009	0.23
767.185	0.39
767.361	0.28
767.537	0.26
767.713	0.57
767.889	0.32
768.065	0.33
768.24	0.24
768.416	0.41
768.592	0.29
768.768	0.4
768.944	0.51
769.12	0.36
769.295	0.28
769.471	0.3
769.647	0.36
769.823	0.47
769.998	0.36
770.174	0.24
770.35	0.83
770.525	0.64
770.701	0.45
770.877	0.28
771.052	0.11
771.228	0.62
771.403	0.42
771.579	0.39
771.755	0.7
771.93	0.33
772.106	0.11
772.281	0.1
772.457	0.55
772.632	0.38
772.808	0.24
772.983	0.29
773.159	0.06
773.334	0.47
773.509	0.3
773.685	0.35
773.86	0.83
774.036	0.62
774.211	0.48
774.386	0.32
774.562	0.31
774.737	0.54
774.912	0.28
775.087	0.28
775.263	0.38
775.438	0.44
775.613	0.15
775.788	0.38
775.964	0.68
776.139	1
776.314	0.17
776.489	0.48
776.664	0.42
776.839	0.19
777.014	0.52
777.19	0.6
777.365	0.73
777.54	0.72
777.715	0.31
777.89	0.3
778.065	0.36
778.24	0.36
778.415	0.54
778.59	0.13
778.765	0.41
778.94	0.68
779.115	0.39
779.289	0.35
779.464	0.31
779.639	0.37
779.814	0.34
779.989	0.28
780.164	0.82
780.339	0.65
780.513	0.2
780.688	0.2
780.863	0.51
781.038	0.65
781.212	0.32
781.387	0.5
781.562	0.7
781.737	0.18
781.911	0.6
782.086	0.33
782.261	0.36
782.435	0.81
782.61	0.33
782.784	0.49
782.959	0.81
783.134	0.28
783.308	0.35
783.483	0.17
783.657	0.86
783.832	0.65
784.006	-0
784.181	0.57
784.355	0.52
784.53	0.29
784.704	0.09
784.878	0.57
785.053	0.51
785.227	0.89
785.402	0.83
785.576	0.38
785.75	0.52
785.925	0.29
786.099	0.49
786.273	0.44
786.448	0.74
786.622	0.69
786.796	0.35
786.97	0.27
787.145	1.14
787.319	-0.08
787.493	0.33
787.667	-0.04
787.841	0.2
788.015	0.84
788.19	0.38
788.364	0.37
788.538	0.91
788.712	0.65
788.886	0.41
789.06	0.72
789.234	0.68
789.408	0.28
789.582	0.28
789.756	0.46
789.93	0.38
790.104	0.54
790.278	0.34
790.452	0.31
790.626	0.6
790.8	0.46
790.973	0.63
791.147	0.83
791.321	0.99
791.495	0.76
791.669	0.53
791.843	0.67
792.016	0.36
792.19	1.03
792.364	0.31
792.538	1.2
792.711	0.96
792.885	0.29
793.059	0.07
793.233	-0.18
793.406	0.98
793.58	0.39
793.754	0.49
793.927	0.28
794.101	0.84
794.274	0.65
794.448	0.92
794.622	0.23
794.795	0.97
794.969	0.37
795.142	0.76
795.316	0.36
795.489	0.44
795.663	1.03
795.836	0.55
796.009	0.2
796.183	0.94
796.356	0.55
796.53	0.32
796.703	0.5
796.876	1.15
797.05	0.3
797.223	0.5
797.396	0.58
797.57	0.59
797.743	1.04
797.916	0.69
798.09	0.38
798.263	1.09
798.436	0.81
798.609	0.25
798.782	0.52
798.956	0.64
799.129	0.48
799.302	0.29
799.475	0.28
799.648	0.53
799.821	0.29
799.994	0.28
800.167	0.1
800.34	0.44
800.514	0.38
800.687	0.37
800.86	0.2
801.033	0.75
801.206	0.84
801.379	0.12
801.551	0.81
801.724	0.95
801.897	1.17
802.07	0.62
802.243	0.07
802.416	0.7
802.589	0.65
802.762	0.98
802.935	0.56
803.107	0.95
803.28	0.83
803.453	0.97
803.626	0.4
803.798	0.62
803.971	0.45
804.144	0.84
804.317	0.75
804.489	0.72
804.662	0.79
804.835	0.44
805.007	0.08
805.18	1.14
805.353	0.78
805.525	0.31
805.698	0.4
805.87	0.82
806.043	0.87
806.215	0.37
806.388	0.37
806.56	1.1
806.733	1.11
806.905	0.82
807.078	0.66
807.25	0.36
807.423	0.87
807.595	0.46
807.768	0.42
807.94	0.87
808.112	1.01
808.285	0.83
808.457	0.24
808.629	0.5
808.802	1.01
808.974	0.48
809.146	-0.13
809.318	0.38
809.491	1.03
809.663	0.83
809.835	0.52
810.007	1.12
810.18	0.77
810.352	-0.15
810.524	0.72
810.696	0.88
810.868	1.24
811.04	0.37
811.212	0.4
811.384	1.17
811.556	0.86
811.728	0.69
811.901	1.46
812.073	0.46
812.245	0.94
812.417	0.54
812.589	-0.26
812.76	0.48
812.932	1.15
813.104	0.9
813.276	0.83
813.448	0.67
813.62	0.78
813.792	0.56
813.964	0.74
814.136	0.82
814.307	0.84
814.479	0.23
814.651	0.35
814.823	1.56
814.995	0.62
815.166	0.91
815.338	0.84
815.51	0.21
815.681	1.5
815.853	0.6
816.025	0.61
816.196	1.53
816.368	1.24
816.54	0.18
816.711	0.25
816.883	1.07
817.054	2.28
817.226	-0.02
817.398	1.04
817.569	0.3
817.741	1.07
817.912	0.47
818.084	0.29
818.255	1.52
818.426	0.06
818.598	0.62
818.769	0.12
818.941	1.39
819.112	1.09
819.283	0.95
819.455	-0.12
819.626	0.85
819.798	1.15
819.969	1.16
820.14	0.06
820.311	0.84
820.483	1.1
820.654	0.69
820.825	0.63
820.996	0.79
821.168	-0.21
821.339	0.37
821.51	0.23
821.681	0.51
821.852	0.7
822.023	0.2
822.195	-0.15
822.366	1.77
822.537	0.91
822.708	0.97
822.879	0.22
823.05	1.83
823.221	0.57
823.392	0.94
823.563	0.9
823.734	0.91
823.905	0.61
824.076	0.48
824.247	0.39
824.418	0.66
824.589	1.4
824.759	0.67
824.93	0.44
825.101	0.47
825.272	1.61
825.443	1.62
825.614	1.42
825.784	0.77
825.955	2.64
826.126	1.12
826.297	0.96
826.467	1.86
826.638	2.44
826.809	-0.09
826.98	0.65
827.15	1.4
827.321	0.97
827.492	1.72
827.662	0.76
827.833	1.93
828.003	1.49
828.174	0.54
828.345	0.81
828.515	2.07
828.686	0.49
828.856	0.85
829.027	0.69
829.197	0.95
829.368	1.68
829.538	0.18
829.709	0.7
829.879	1.24
830.049	0.74
830.22	0.12
830.39	0.35
830.56	1.46
830.731	0.9
830.901	0.17
831.072	0.64
831.242	0.89
831.412	1.29
831.582	0.49
831.753	-0.17
831.923	1.2
832.093	1.55
832.263	1.08
832.434	0.26
832.604	0.19
832.774	2.06
832.944	1.01
833.114	0.06
833.284	1.19
833.454	0.38
833.624	0.31
833.795	0.85
833.965	2.12
834.135	1.75
834.305	-0.22
834.475	0.15
834.645	0.75
834.815	1.33
834.985	-0.18
835.155	0.4
835.325	2.12
835.494	1.53
835.664	0.7
835.834	0.33
836.004	0.95
836.174	1.6
836.344	0.96
836.514	0.09
836.684	1.03
836.853	0.87
837.023	1.57
837.193	0.33
837.363	2.29
837.532	1.37
837.702	0.61
837.872	0.25
838.041	1.61
838.211	2.75
838.381	-0.4
838.55	0.68
838.72	3.02
838.89	2.31
839.059	1.12
839.229	0.17
839.398	3.07
839.568	1.48
839.738	0.91
839.907	1.86
840.077	1.16
840.246	0.95
840.416	0.77
840.585	0.49
840.755	2.52
840.924	2.43
841.093	0.43
841.263	0.64
841.432	1.37
841.602	0.62
841.771	0.19
841.94	1.38
842.11	3.21
842.279	2.46
842.448	0.3
842.617	0.13
842.787	3.13
842.956	-0.06
843.125	0.18
843.294	0.66
843.464	2.86
843.633	1.46
843.802	0.58
843.971	0.96
844.14	1.93
844.309	2.02
844.479	-0.15
844.648	-0.45
844.817	0.81
844.986	1.64
845.155	0.71
845.324	1.33
845.493	0.52
845.662	0.13
845.831	1.93
846	1.91
846.169	1.02
846.338	2.58
846.507	1.59
846.676	1.18
846.844	0.19
847.013	2.54
847.182	1.03
847.351	0.56
847.52	1.63
847.689	1.67
847.858	0.12
848.026	0.19
848.195	1.19
848.364	0.94
848.533	0.66
848.701	0.18
848.87	2.55
849.039	2.28
849.207	2.12
849.376	2.49
849.545	3.6
849.713	1.05
849.882	1.33
850.051	0.84
850.219	1.17
850.388	2.51
850.556	0.99
850.725	0.37
850.893	1.86
851.062	1.35
851.23	2.01
851.399	0.38
851.567	1.31
851.736	1.21
851.904	0.39
852.073	1.18
852.241	2.1
852.41	0.92
852.578	1.07
852.746	0.1
852.915	3.22
853.083	0.93
853.251	0.39
853.42	1.33
853.588	1.39
853.756	2.46
853.924	1.3
854.093	1.04
854.261	1.59
854.429	0.24
854.597	2.38
854.765	0.38
854.934	3.71
855.102	3.47
855.27	1.39
855.438	0.46
855.606	2.94
855.774	4.44
855.942	0.15
856.11	0.4
856.278	1.48
856.446	2.58
856.614	1.75
856.782	0.53
856.95	3.09
857.118	2.84
857.286	2.31
857.454	0.29
857.622	3.58
857.79	2.71
857.958	1.48
858.126	1.19
858.294	-1.17
858.462	0.61
858.629	0.89
858.797	0.78
858.965	2.2
859.133	2.33
859.301	0.51
859.468	1.79
859.636	1.67
859.804	4.73
859.971	1.8
860.139	0.31
860.307	3.32
860.474	1.97
860.642	1.32
860.81	0.48
860.977	1.72
861.145	3.55
861.313	1.21
861.48	1.27
861.648	3.11
861.815	2.1
861.983	-0.57
862.15	1.33
862.318	3.32
862.485	3.5
862.653	0.97
862.82	0.51
862.988	3.34
863.155	2.35
863.322	0.49
863.49	0.51
863.657	1.93
863.824	4.2
863.992	3.05
864.159	0.99
864.326	4.75
864.494	1.9
864.661	4.68
864.828	0.3
864.996	5.09
865.163	4.31
865.33	0.15
865.497	-1.43
865.664	0.51
865.832	-0.07
865.999	2.21
866.166	0.61
866.333	1.57
866.5	2.12
866.667	1.19
866.834	2.13
867.001	4.58
867.168	0.11
867.335	1.56
867.502	-0.14
867.669	1.56
867.836	5.68
868.003	1.26
868.17	3.29
868.337	2.73
868.504	7.06
868.671	-0.71
868.838	-0.51
869.005	3.47
869.172	2.44
869.339	0.9
869.505	1.61
869.672	3.55
869.839	4.87
870.006	2.1
870.173	0.12
870.339	4.34
870.506	6.1
870.673	0.31
870.84	2.96
871.006	2.51
871.173	2.49
871.34	1.97
871.506	-0.49
871.673	3.09
871.839	0.41
872.006	0.99
872.173	-0.54
872.339	3.02
872.506	4.26
872.672	2.5
872.839	-1.09
873.005	2.57
873.172	5.89
873.338	3.83
873.505	2.3
873.671	2.66
873.838	3.39
874.004	-0.76
874.171	1.17
874.337	2.66
874.503	3.22
874.67	1.64
874.836	0.8
875.002	7.63
875.169	4.8
875.335	2.08
875.501	1.71
875.668	5.18
875.834	2.1
876	1.52
876.166	3.98
876.332	4.53
876.499	8.02
876.665	1.53
876.831	3.15
876.997	5.64
877.163	3.2
877.329	1.98
877.495	3.19
877.662	4.68
877.828	4.05
877.994	1.22
878.16	-0.83
878.326	1.93
878.492	3.67
878.658	2.21
878.824	2.87
878.99	3.91
879.156	2.37
879.322	4.43
879.487	1.84
879.653	3.39
879.819	2.48
879.985	0.28
880.151	1.72
880.317	3.58
880.483	2.9
880.648	1.82
880.814	-0.65
880.98	1.9
881.146	-1.63
881.312	0.83
881.477	2.56
881.643	2.81
881.809	4.81
881.974	6.02
882.14	0.18
882.306	3.15
882.471	8.39
882.637	0.93
882.803	3.02
882.968	4.98
883.134	7.09
883.299	2.23
883.465	2.9
883.63	3.4
883.796	5.11
883.961	3.71
884.127	3.11
884.292	-2.37
884.458	-0.31
884.623	-0.31
