Data from Apollo_Calib_20240827__AbsoluteIrradiance__804__12-33-02-129.txt Node

Date: Wed Aug 28 12:33:02 BST 2024
User: biology
Spectrometer: FLMT08252
Trigger mode: 0
Integration Time (sec): 5.000000E-1
Scans to average: 5
Electric dark correction enabled: true
Nonlinearity correction enabled: false
Boxcar width: 0
XAxis mode: Wavelengths
Number of Pixels in Spectrum: 3648
>>>>>Begin Spectral Data<<<<<
179.588	-0
179.809	-0
180.03	-0
180.251	-0
180.473	-0
180.694	0
180.915	0
181.136	-0
181.357	0
181.578	-0
181.799	-0
182.02	-0
182.241	-0
182.462	-0
182.683	0
182.904	0
183.125	-0
183.346	0
183.567	0
183.788	0
184.009	0
184.23	0
184.451	0
184.672	0
184.892	0
185.113	0
185.334	0
185.555	0
185.776	0
185.996	0
186.217	0
186.438	0
186.659	0
186.879	0
187.1	0
187.321	0
187.541	0
187.762	0
187.983	0
188.203	0
188.424	0
188.644	0
188.865	0
189.086	0
189.306	0
189.527	0
189.747	0
189.968	0
190.188	0
190.409	0
190.629	0
190.849	0
191.07	0
191.29	0
191.511	0
191.731	0
191.951	0
192.172	0
192.392	0
192.612	0
192.833	0
193.053	0
193.273	0
193.493	0
193.714	0
193.934	0
194.154	0
194.374	0
194.594	0
194.815	0
195.035	0
195.255	0
195.475	0
195.695	0
195.915	0
196.135	0
196.355	0
196.575	0
196.795	0
197.015	0
197.235	0
197.455	0
197.675	0
197.895	0
198.115	0
198.335	0
198.555	0
198.775	0
198.995	0
199.214	0
199.434	0
199.654	0
199.874	0
200.094	4.2
200.313	2.16
200.533	2.65
200.753	1.57
200.973	3.65
201.192	3.67
201.412	1.61
201.632	2.05
201.851	3.36
202.071	1.98
202.291	1.34
202.51	1.49
202.73	2.61
202.95	1.36
203.169	1.22
203.389	1.9
203.608	1.88
203.828	1.97
204.047	1.85
204.267	2.63
204.486	2.46
204.706	2.4
204.925	1.67
205.145	1.61
205.364	2.08
205.583	2.7
205.803	1.61
206.022	1.21
206.242	1.73
206.461	1.74
206.68	1.3
206.9	1.61
207.119	2.64
207.338	2.31
207.557	1.09
207.777	1.26
207.996	1.64
208.215	2.1
208.434	1.13
208.654	1.07
208.873	1.7
209.092	1.88
209.311	1.45
209.53	1.32
209.749	1.33
209.968	1.06
210.187	1.13
210.407	0.75
210.626	1.57
210.845	1.6
211.064	1.14
211.283	0.9
211.502	1.59
211.721	1.16
211.94	1.1
212.159	1.41
212.377	1.51
212.596	1.77
212.815	1.07
213.034	1.28
213.253	1.6
213.472	1.42
213.691	0.81
213.91	0.95
214.128	0.69
214.347	1.37
214.566	0.88
214.785	0.53
215.003	1.13
215.222	1.31
215.441	0.97
215.66	0.7
215.878	1.13
216.097	1.13
216.316	0.73
216.534	0.95
216.753	1.1
216.972	0.88
217.19	0.86
217.409	0.59
217.627	0.68
217.846	0.9
218.064	0.96
218.283	0.7
218.501	1.17
218.72	1.29
218.938	0.56
219.157	0.71
219.375	1.32
219.594	1.1
219.812	0.57
220.031	0.53
220.249	1.36
220.467	1.2
220.686	0.62
220.904	0.7
221.122	0.89
221.341	1.06
221.559	0.79
221.777	0.54
221.995	0.66
222.214	1.08
222.432	0.66
222.65	0.87
222.868	0.73
223.086	0.91
223.305	0.9
223.523	0.66
223.741	1.08
223.959	0.7
224.177	0.24
224.395	0.61
224.613	0.95
224.831	0.99
225.049	0.43
225.267	0.65
225.485	0.81
225.703	0.75
225.921	0.6
226.139	0.52
226.357	0.74
226.575	0.83
226.793	0.53
227.011	1.64
227.229	0.72
227.447	0.77
227.665	0.5
227.883	0.36
228.1	0.66
228.318	0.69
228.536	0.41
228.754	0.5
228.972	0.83
229.189	0.77
229.407	0.6
229.625	0.57
229.843	0.81
230.06	0.79
230.278	0.53
230.496	0.65
230.713	0.72
230.931	0.79
231.149	0.49
231.366	0.47
231.584	0.55
231.801	1.01
232.019	0.54
232.236	0.41
232.454	0.36
232.671	0.72
232.889	0.54
233.106	0.32
233.324	0.65
233.541	0.49
233.759	0.55
233.976	0.42
234.194	0.54
234.411	0.6
234.628	0.38
234.846	0.52
235.063	0.57
235.28	0.65
235.498	0.58
235.715	0.36
235.932	0.73
236.149	0.63
236.367	0.42
236.584	0.61
236.801	0.48
237.018	0.71
237.236	0.5
237.453	0.26
237.67	0.71
237.887	0.66
238.104	0.53
238.321	0.32
238.538	0.36
238.755	0.63
238.973	0.34
239.19	0.51
239.407	0.57
239.624	0.62
239.841	0.45
240.058	0.29
240.275	0.52
240.492	0.39
240.709	0.42
240.925	0.39
241.142	0.47
241.359	0.38
241.576	0.3
241.793	0.44
242.01	0.43
242.227	0.64
242.444	0.5
242.66	0.58
242.877	0.61
243.094	0.32
243.311	0.54
243.527	0.43
243.744	0.58
243.961	0.56
244.178	0.39
244.394	0.38
244.611	0.59
244.828	0.7
245.044	0.31
245.261	0.4
245.477	0.61
245.694	0.69
245.911	0.37
246.127	0.52
246.344	0.66
246.56	0.57
246.777	0.48
246.993	0.42
247.21	0.5
247.426	0.46
247.643	0.39
247.859	0.43
248.076	0.41
248.292	0.74
248.508	0.28
248.725	0.5
248.941	0.44
249.157	0.62
249.374	0.4
249.59	0.43
249.806	0.48
250.023	0.48
250.239	0.31
250.455	0.29
250.671	0.44
250.888	0.53
251.104	0.52
251.32	0.34
251.536	0.41
251.752	0.44
251.969	0.46
252.185	0.38
252.401	0.61
252.617	0.52
252.833	0.38
253.049	0.41
253.265	0.46
253.481	0.44
253.697	0.29
253.913	0.31
254.129	0.45
254.345	0.46
254.561	0.33
254.777	0.39
254.993	0.48
255.209	0.4
255.425	0.39
255.641	0.37
255.857	0.58
256.073	0.46
256.288	0.22
256.504	0.29
256.72	0.44
256.936	0.47
257.152	0.42
257.367	0.3
257.583	0.35
257.799	0.51
258.015	0.34
258.23	0.39
258.446	0.63
258.662	0.45
258.877	0.29
259.093	0.32
259.309	0.4
259.524	0.45
259.74	0.33
259.955	0.19
260.171	0.4
260.387	0.42
260.602	0.47
260.818	0.42
261.033	0.29
261.249	0.51
261.464	0.25
261.68	0.29
261.895	0.38
262.11	0.48
262.326	0.26
262.541	0.32
262.757	0.51
262.972	0.42
263.187	0.35
263.403	0.38
263.618	0.44
263.833	0.4
264.049	0.27
264.264	0.39
264.479	0.42
264.694	0.59
264.91	0.29
265.125	0.32
265.34	0.42
265.555	0.56
265.77	0.39
265.986	0.26
266.201	0.49
266.416	0.49
266.631	0.33
266.846	0.32
267.061	0.44
267.276	0.44
267.491	0.17
267.706	0.34
267.921	0.37
268.136	0.47
268.351	0.35
268.566	0.21
268.781	0.48
268.996	0.47
269.211	0.39
269.426	0.23
269.641	0.31
269.856	0.46
270.071	0.3
270.285	0.27
270.5	0.49
270.715	0.45
270.93	0.32
271.145	0.42
271.359	0.38
271.574	0.31
271.789	0.32
272.004	0.28
272.218	0.3
272.433	0.33
272.648	0.27
272.862	0.41
273.077	0.43
273.292	0.38
273.506	0.24
273.721	0.28
273.936	0.41
274.15	0.46
274.365	0.27
274.579	0.4
274.794	0.39
275.008	0.41
275.223	0.22
275.437	0.3
275.652	0.44
275.866	0.41
276.081	0.29
276.295	0.37
276.509	0.37
276.724	0.36
276.938	0.31
277.153	0.38
277.367	0.41
277.581	0.34
277.796	0.33
278.01	0.26
278.224	0.43
278.438	0.47
278.653	0.24
278.867	0.19
279.081	0.2
279.295	0.3
279.51	0.32
279.724	0.2
279.938	0.42
280.152	0.43
280.366	0.31
280.58	0.28
280.794	0.42
281.008	0.36
281.222	0.37
281.437	0.47
281.651	0.37
281.865	0.42
282.079	0.32
282.293	0.17
282.507	0.24
282.721	0.3
282.935	0.33
283.148	0.25
283.362	0.26
283.576	0.25
283.79	0.31
284.004	0.22
284.218	0.38
284.432	0.32
284.646	0.31
284.859	0.27
285.073	0.27
285.287	0.37
285.501	0.25
285.714	0.25
285.928	0.36
286.142	0.34
286.356	0.29
286.569	0.25
286.783	0.4
286.997	0.37
287.21	0.31
287.424	0.27
287.637	0.25
287.851	0.28
288.065	0.31
288.278	0.31
288.492	0.32
288.705	0.28
288.919	0.36
289.132	0.2
289.346	0.42
289.559	0.19
289.773	0.19
289.986	0.23
290.2	0.29
290.413	0.37
290.626	0.26
290.84	0.25
291.053	0.3
291.267	0.42
291.48	0.26
291.693	0.28
291.906	0.27
292.12	0.27
292.333	0.27
292.546	0.28
292.76	0.42
292.973	0.31
293.186	0.33
293.399	0.22
293.612	0.33
293.826	0.3
294.039	0.29
294.252	0.2
294.465	0.36
294.678	0.33
294.891	0.31
295.104	0.21
295.317	0.25
295.53	0.26
295.743	0.34
295.956	0.29
296.169	0.39
296.382	0.32
296.595	0.31
296.808	0.21
297.021	0.38
297.234	0.34
297.447	0.29
297.66	0.29
297.873	0.36
298.086	0.36
298.299	0.25
298.511	0.16
298.724	0.26
298.937	0.25
299.15	0.23
299.363	0.23
299.575	0.36
299.788	0.3
300.001	0.24
300.213	0.19
300.426	0.25
300.639	0.19
300.852	0.23
301.064	0.26
301.277	0.36
301.489	0.33
301.702	0.33
301.915	0.3
302.127	0.23
302.34	0.27
302.552	0.3
302.765	0.23
302.977	0.3
303.19	0.28
303.402	0.18
303.615	0.23
303.827	0.24
304.04	0.25
304.252	0.3
304.464	0.23
304.677	0.39
304.889	0.27
305.102	0.21
305.314	0.23
305.526	0.31
305.739	0.3
305.951	0.18
306.163	0.19
306.375	0.39
306.588	0.22
306.8	0.25
307.012	0.19
307.224	0.33
307.436	0.37
307.649	0.15
307.861	0.24
308.073	0.3
308.285	0.27
308.497	0.19
308.709	0.2
308.921	0.25
309.133	0.33
309.346	0.23
309.558	0.23
309.77	0.32
309.982	0.38
310.194	0.3
310.406	0.22
310.617	0.33
310.829	0.29
311.041	0.3
311.253	0.23
311.465	0.3
311.677	0.29
311.889	0.28
312.101	0.26
312.313	0.32
312.524	0.37
312.736	0.14
312.948	0.22
313.16	0.35
313.372	0.34
313.583	0.3
313.795	0.2
314.007	0.21
314.218	0.28
314.43	0.25
314.642	0.26
314.853	0.21
315.065	0.34
315.277	0.3
315.488	0.27
315.7	0.34
315.912	0.31
316.123	0.2
316.335	0.23
316.546	0.34
316.758	0.25
316.969	0.25
317.181	0.26
317.392	0.28
317.604	0.34
317.815	0.21
318.026	0.22
318.238	0.24
318.449	0.36
318.661	0.19
318.872	0.19
319.083	0.19
319.295	0.32
319.506	0.18
319.717	0.28
319.929	0.28
320.14	0.29
320.351	0.26
320.562	0.26
320.774	0.32
320.985	0.3
321.196	0.2
321.407	0.19
321.618	0.33
321.829	0.28
322.041	0.27
322.252	0.27
322.463	0.28
322.674	0.32
322.885	0.15
323.096	0.26
323.307	0.3
323.518	0.32
323.729	0.23
323.94	0.19
324.151	0.21
324.362	0.33
324.573	0.27
324.784	0.24
324.995	0.32
325.206	0.29
325.417	0.22
325.628	0.22
325.838	0.25
326.049	0.3
326.26	0.31
326.471	0.21
326.682	0.26
326.892	0.26
327.103	0.17
327.314	0.16
327.525	0.35
327.735	0.29
327.946	0.26
328.157	0.19
328.368	0.31
328.578	0.25
328.789	0.28
328.999	0.25
329.21	0.29
329.421	0.35
329.631	0.21
329.842	0.18
330.052	0.27
330.263	0.29
330.473	0.25
330.684	0.21
330.894	0.26
331.105	0.31
331.315	0.29
331.526	0.18
331.736	0.42
331.947	0.26
332.157	0.3
332.367	0.22
332.578	0.33
332.788	0.36
332.999	0.33
333.209	0.21
333.419	0.21
333.629	0.35
333.84	0.28
334.05	0.28
334.26	0.38
334.47	0.27
334.681	0.31
334.891	0.28
335.101	0.32
335.311	0.33
335.521	0.27
335.732	0.22
335.942	0.32
336.152	0.29
336.362	0.24
336.572	0.28
336.782	0.3
336.992	0.21
337.202	0.22
337.412	0.25
337.622	0.3
337.832	0.26
338.042	0.25
338.252	0.26
338.462	0.23
338.672	0.27
338.882	0.29
339.092	0.27
339.302	0.36
339.511	0.32
339.721	0.26
339.931	0.16
340.141	0.36
340.351	0.35
340.561	0.29
340.77	0.3
340.98	0.32
341.19	0.25
341.4	0.21
341.609	0.18
341.819	0.25
342.029	0.22
342.238	0.26
342.448	0.22
342.658	0.29
342.867	0.26
343.077	0.23
343.286	0.23
343.496	0.28
343.706	0.29
343.915	0.22
344.125	0.26
344.334	0.3
344.544	0.21
344.753	0.23
344.963	0.2
345.172	0.17
345.381	0.24
345.591	0.21
345.8	0.29
346.01	0.3
346.219	0.32
346.428	0.11
346.638	0.2
346.847	0.25
347.056	0.32
347.266	0.22
347.475	0.26
347.684	0.28
347.893	0.28
348.103	0.26
348.312	0.22
348.521	0.3
348.73	0.28
348.94	0.24
349.149	0.24
349.358	0.26
349.567	0.2
349.776	0.21
349.985	0.2
350.194	0.3
350.403	0.34
350.612	0.13
350.821	0.18
351.03	0.33
351.239	0.19
351.448	0.28
351.657	0.23
351.866	0.35
352.075	0.28
352.284	0.31
352.493	0.21
352.702	0.27
352.911	0.27
353.12	0.26
353.329	0.24
353.538	0.27
353.746	0.24
353.955	0.2
354.164	0.28
354.373	0.21
354.582	0.31
354.79	0.22
354.999	0.28
355.208	0.2
355.416	0.32
355.625	0.18
355.834	0.27
356.042	0.31
356.251	0.24
356.46	0.22
356.668	0.24
356.877	0.34
357.085	0.32
357.294	0.11
357.503	0.28
357.711	0.27
357.92	0.46
358.128	0.23
358.337	0.23
358.545	0.3
358.754	0.23
358.962	0.28
359.17	0.24
359.379	0.29
359.587	0.24
359.796	0.24
360.004	0.31
360.212	0.28
360.421	0.29
360.629	0.22
360.837	0.24
361.046	0.28
361.254	0.36
361.462	0.25
361.67	0.25
361.879	0.29
362.087	0.36
362.295	0.24
362.503	0.21
362.711	0.22
362.92	0.22
363.128	0.21
363.336	0.18
363.544	0.21
363.752	0.3
363.96	0.26
364.168	0.2
364.376	0.28
364.584	0.29
364.792	0.31
365	0.28
365.208	0.25
365.416	0.27
365.624	0.28
365.832	0.16
366.04	0.32
366.248	0.3
366.456	0.28
366.664	0.25
366.872	0.22
367.079	0.24
367.287	0.29
367.495	0.23
367.703	0.24
367.911	0.24
368.118	0.24
368.326	0.24
368.534	0.2
368.742	0.32
368.949	0.21
369.157	0.19
369.365	0.28
369.572	0.26
369.78	0.22
369.988	0.29
370.195	0.26
370.403	0.32
370.61	0.2
370.818	0.26
371.026	0.37
371.233	0.22
371.441	0.23
371.648	0.25
371.856	0.28
372.063	0.29
372.271	0.19
372.478	0.23
372.685	0.24
372.893	0.34
373.1	0.25
373.308	0.23
373.515	0.39
373.722	0.28
373.93	0.28
374.137	0.3
374.344	0.34
374.552	0.33
374.759	0.26
374.966	0.25
375.173	0.25
375.381	0.31
375.588	0.26
375.795	0.16
376.002	0.22
376.209	0.24
376.417	0.23
376.624	0.27
376.831	0.31
377.038	0.27
377.245	0.18
377.452	0.24
377.659	0.29
377.866	0.22
378.073	0.23
378.28	0.29
378.487	0.29
378.694	0.33
378.901	0.24
379.108	0.26
379.315	0.3
379.522	0.36
379.729	0.29
379.936	0.24
380.143	0.3
380.35	0.27
380.557	0.24
380.763	0.28
380.97	0.31
381.177	0.27
381.384	0.27
381.591	0.24
381.797	0.29
382.004	0.33
382.211	0.32
382.418	0.25
382.624	0.35
382.831	0.33
383.038	0.25
383.244	0.3
383.451	0.29
383.658	0.3
383.864	0.26
384.071	0.22
384.277	0.39
384.484	0.25
384.69	0.4
384.897	0.3
385.103	0.28
385.31	0.27
385.516	0.27
385.723	0.2
385.929	0.29
386.136	0.25
386.342	0.34
386.549	0.3
386.755	0.38
386.961	0.33
387.168	0.25
387.374	0.28
387.58	0.29
387.787	0.3
387.993	0.28
388.199	0.27
388.406	0.25
388.612	0.29
388.818	0.27
389.024	0.23
389.231	0.29
389.437	0.43
389.643	0.29
389.849	0.31
390.055	0.32
390.261	0.3
390.467	0.35
390.674	0.25
390.88	0.29
391.086	0.3
391.292	0.25
391.498	0.34
391.704	0.39
391.91	0.31
392.116	0.29
392.322	0.21
392.528	0.34
392.734	0.29
392.94	0.3
393.146	0.28
393.352	0.36
393.557	0.3
393.763	0.32
393.969	0.37
394.175	0.33
394.381	0.32
394.587	0.23
394.792	0.28
394.998	0.4
395.204	0.4
395.41	0.26
395.615	0.31
395.821	0.34
396.027	0.38
396.233	0.31
396.438	0.35
396.644	0.43
396.85	0.32
397.055	0.34
397.261	0.34
397.466	0.3
397.672	0.33
397.878	0.37
398.083	0.39
398.289	0.29
398.494	0.4
398.7	0.38
398.905	0.25
399.111	0.49
399.316	0.28
399.522	0.32
399.727	0.37
399.932	0.35
400.138	0.35
400.343	0.38
400.549	0.36
400.754	0.39
400.959	0.39
401.165	0.31
401.37	0.36
401.575	0.48
401.78	0.37
401.986	0.37
402.191	0.37
402.396	0.38
402.601	0.42
402.807	0.45
403.012	0.41
403.217	0.45
403.422	0.45
403.627	0.4
403.832	0.4
404.037	0.47
404.243	0.48
404.448	0.41
404.653	0.37
404.858	0.45
405.063	0.46
405.268	0.41
405.473	0.37
405.678	0.4
405.883	0.68
406.088	0.52
406.293	0.44
406.498	0.46
406.703	0.55
406.907	0.5
407.112	0.44
407.317	0.53
407.522	0.55
407.727	0.48
407.932	0.54
408.136	0.65
408.341	0.52
408.546	0.61
408.751	0.6
408.956	0.58
409.16	0.61
409.365	0.6
409.57	0.63
409.774	0.64
409.979	0.68
410.184	0.74
410.388	0.63
410.593	0.8
410.798	0.76
411.002	0.76
411.207	0.8
411.411	0.8
411.616	0.81
411.82	0.82
412.025	0.88
412.229	0.86
412.434	0.97
412.638	0.91
412.843	0.91
413.047	0.98
413.252	0.95
413.456	1
413.66	1.05
413.865	1.06
414.069	1.18
414.273	1.1
414.478	1.13
414.682	1.15
414.886	1.22
415.091	1.22
415.295	1.23
415.499	1.4
415.703	1.4
415.908	1.5
416.112	1.39
416.316	1.61
416.52	1.56
416.724	1.56
416.929	1.61
417.133	1.88
417.337	1.78
417.541	1.78
417.745	1.87
417.949	2.02
418.153	2
418.357	2.04
418.561	2.33
418.765	2.24
418.969	2.38
419.173	2.46
419.377	2.38
419.581	2.73
419.785	2.64
419.989	2.64
420.193	2.88
420.397	2.92
420.601	3.11
420.804	3.18
421.008	3.15
421.212	3.35
421.416	3.29
421.62	3.29
421.823	3.35
422.027	3.55
422.231	3.56
422.435	3.5
422.638	3.59
422.842	3.67
423.046	3.75
423.249	3.97
423.453	3.97
423.657	4.21
423.86	4.15
424.064	4.33
424.268	4.54
424.471	4.52
424.675	4.71
424.878	4.86
425.082	4.91
425.285	5.22
425.489	5.16
425.692	5.27
425.896	5.3
426.099	5.48
426.303	5.72
426.506	5.76
426.71	6
426.913	6.28
427.116	6.43
427.32	6.38
427.523	6.46
427.726	6.73
427.93	6.9
428.133	7.15
428.336	7.37
428.54	7.51
428.743	7.74
428.946	7.9
429.149	8.1
429.353	7.96
429.556	8.07
429.759	8.16
429.962	8.21
430.165	8.51
430.368	8.09
430.571	8.13
430.775	8.17
430.978	8.11
431.181	8.23
431.384	8.33
431.587	8.39
431.79	8.77
431.993	8.74
432.196	8.91
432.399	9.31
432.602	9.55
432.805	9.7
433.008	10.16
433.211	10.13
433.414	10.34
433.616	10.49
433.819	10.3
434.022	10.57
434.225	10.62
434.428	10.68
434.631	11.12
434.833	10.89
435.036	11.18
435.239	11.46
435.442	11.46
435.645	11.56
435.847	11.59
436.05	11.95
436.253	12.26
436.455	12.16
436.658	12.12
436.861	12.51
437.063	12.5
437.266	12.42
437.468	12.83
437.671	13.18
437.874	13.22
438.076	13.01
438.279	13.45
438.481	13.59
438.684	14.29
438.886	13.87
439.089	14.21
439.291	14.14
439.494	14.6
439.696	14.88
439.899	15.34
440.101	15.71
440.303	15.97
440.506	16.58
440.708	16.31
440.91	16.62
441.113	16.79
441.315	17.08
441.517	16.73
441.72	17.36
441.922	16.98
442.124	16.93
442.326	17.27
442.529	17.51
442.731	17.44
442.933	17.89
443.135	17.5
443.337	17.44
443.539	18.11
443.742	17.67
443.944	18.4
444.146	18.17
444.348	18.12
444.55	18.03
444.752	18.12
444.954	18.15
445.156	18
445.358	18.57
445.56	18.67
445.762	18.49
445.964	18.92
446.166	18.57
446.368	18.63
446.57	18.5
446.772	18.22
446.974	17.87
447.175	18.26
447.377	18.01
447.579	18.29
447.781	18
447.983	17.66
448.184	17.4
448.386	17.78
448.588	17.37
448.79	17.26
448.991	17.49
449.193	17.53
449.395	16.72
449.597	16.46
449.798	16.41
450	15.91
450.202	15.76
450.403	15.77
450.605	15.75
450.806	15.31
451.008	15.14
451.21	15.01
451.411	14.49
451.613	13.77
451.814	14.03
452.016	14.09
452.217	13.24
452.419	13.3
452.62	13.04
452.821	12.73
453.023	12.68
453.224	12.12
453.426	11.77
453.627	11.11
453.828	11.19
454.03	11.19
454.231	11.19
454.432	10.99
454.634	10.75
454.835	10.54
455.036	10.31
455.238	9.88
455.439	9.74
455.64	9.44
455.841	9.35
456.042	9.46
456.244	9.13
456.445	8.84
456.646	8.55
456.847	8.53
457.048	8.46
457.249	8.39
457.45	8.32
457.651	7.69
457.852	7.65
458.054	7.16
458.255	7.19
458.456	7.28
458.657	7.15
458.858	6.74
459.058	6.55
459.259	6.72
459.46	6.49
459.661	6.45
459.862	6.41
460.063	6.36
460.264	6.2
460.465	5.9
460.666	6.1
460.866	5.74
461.067	5.45
461.268	5.54
461.469	5.43
461.67	5.32
461.87	5.25
462.071	5.22
462.272	5.14
462.473	5.05
462.673	5.23
462.874	5.15
463.075	5.17
463.275	5.12
463.476	5.16
463.676	5.13
463.877	4.82
464.078	4.88
464.278	4.99
464.479	4.81
464.679	4.72
464.88	4.73
465.08	4.64
465.281	4.42
465.481	4.33
465.682	4.1
465.882	4.19
466.083	4.08
466.283	4.04
466.483	3.9
466.684	3.81
466.884	3.61
467.085	3.64
467.285	3.73
467.485	3.59
467.686	3.49
467.886	3.39
468.086	3.37
468.286	3.31
468.487	3.42
468.687	3.25
468.887	3.23
469.087	3.39
469.287	3.27
469.488	3.04
469.688	3.22
469.888	3.17
470.088	3.13
470.288	3.06
470.488	3.06
470.688	2.86
470.888	2.81
471.088	2.7
471.288	2.84
471.488	2.79
471.688	2.74
471.888	2.66
472.088	2.78
472.288	2.67
472.488	2.6
472.688	2.55
472.888	2.6
473.088	2.62
473.288	2.47
473.488	2.46
473.688	2.6
473.887	2.46
474.087	2.46
474.287	2.42
474.487	2.39
474.687	2.46
474.886	2.29
475.086	2.28
475.286	2.34
475.486	2.28
475.685	2.18
475.885	2.25
476.085	2.28
476.284	2.28
476.484	2.24
476.684	2.21
476.883	2.28
477.083	2.2
477.282	2.14
477.482	2.18
477.681	2.16
477.881	2.03
478.08	2.12
478.28	2.06
478.479	2.08
478.679	2.19
478.878	2.03
479.078	2.04
479.277	2.1
479.477	2.05
479.676	1.99
479.875	2.01
480.075	1.98
480.274	2.02
480.473	2.03
480.673	2.04
480.872	2.09
481.071	2.01
481.271	2.06
481.47	1.99
481.669	2.04
481.868	1.98
482.067	1.97
482.267	1.93
482.466	1.92
482.665	1.91
482.864	1.93
483.063	1.92
483.262	2.04
483.461	2.07
483.661	2.04
483.86	2
484.059	2.01
484.258	2
484.457	2.04
484.656	2.03
484.855	2.09
485.054	1.95
485.253	1.97
485.452	1.99
485.651	2.09
485.849	2
486.048	1.97
486.247	2.04
486.446	2.06
486.645	1.98
486.844	2.02
487.043	2.05
487.241	2.15
487.44	2.07
487.639	2.13
487.838	2.16
488.037	2.1
488.235	2.19
488.434	2.2
488.633	2.06
488.831	2.21
489.03	2.24
489.229	2.2
489.427	2.19
489.626	2.27
489.825	2.29
490.023	2.28
490.222	2.27
490.42	2.33
490.619	2.37
490.817	2.36
491.016	2.36
491.214	2.4
491.413	2.44
491.611	2.37
491.81	2.39
492.008	2.45
492.207	2.55
492.405	2.5
492.604	2.46
492.802	2.56
493	2.64
493.199	2.62
493.397	2.65
493.595	2.67
493.794	2.67
493.992	2.76
494.19	2.68
494.388	2.84
494.587	2.76
494.785	2.78
494.983	2.71
495.181	2.88
495.379	2.86
495.578	2.92
495.776	2.95
495.974	2.95
496.172	2.95
496.37	3.12
496.568	3.12
496.766	3.06
496.964	3.19
497.162	3.16
497.36	3.19
497.558	3.24
497.756	3.27
497.954	3.3
498.152	3.35
498.35	3.46
498.548	3.36
498.746	3.41
498.944	3.41
499.142	3.44
499.34	3.51
499.538	3.63
499.736	3.53
499.933	3.67
500.131	3.68
500.329	3.78
500.527	3.72
500.725	3.88
500.922	3.88
501.12	3.87
501.318	3.96
501.516	3.96
501.713	3.99
501.911	3.99
502.109	3.96
502.306	4.11
502.504	4.02
502.701	4.12
502.899	4.18
503.097	4.4
503.294	4.26
503.492	4.32
503.689	4.38
503.887	4.43
504.084	4.47
504.282	4.42
504.479	4.41
504.677	4.65
504.874	4.57
505.072	4.46
505.269	4.66
505.466	4.72
505.664	4.76
505.861	4.67
506.059	4.74
506.256	4.83
506.453	4.9
506.651	5.03
506.848	5
507.045	4.97
507.242	4.99
507.44	5.02
507.637	5.05
507.834	5.04
508.031	5.19
508.229	5.21
508.426	5.09
508.623	5.26
508.82	5.35
509.017	5.26
509.214	5.27
509.411	5.38
509.608	5.32
509.805	5.48
510.003	5.5
510.2	5.53
510.397	5.67
510.594	5.56
510.791	5.67
510.988	5.66
511.184	5.62
511.381	5.56
511.578	5.69
511.775	5.86
511.972	5.71
512.169	5.84
512.366	5.87
512.563	6
512.76	5.97
512.956	6.05
513.153	5.94
513.35	5.92
513.547	5.99
513.744	6.13
513.94	6.08
514.137	6.17
514.334	6.15
514.53	6.19
514.727	6.4
514.924	6.29
515.12	6.24
515.317	6.31
515.514	6.23
515.71	6.25
515.907	6.46
516.103	6.41
516.3	6.34
516.497	6.47
516.693	6.54
516.89	6.54
517.086	6.52
517.283	6.5
517.479	6.45
517.676	6.64
517.872	6.62
518.068	6.68
518.265	6.66
518.461	6.56
518.658	6.7
518.854	6.73
519.05	6.87
519.247	6.84
519.443	6.77
519.639	6.95
519.836	6.85
520.032	6.74
520.228	6.89
520.424	6.91
520.621	6.97
520.817	7.03
521.013	6.94
521.209	7.11
521.405	7.13
521.601	7.01
521.798	7
521.994	7.04
522.19	6.97
522.386	7.07
522.582	7.16
522.778	7.22
522.974	7.15
523.17	7.14
523.366	7.1
523.562	7.21
523.758	7.24
523.954	7.06
524.15	7.27
524.346	7.31
524.542	7.3
524.738	7.23
524.934	7.34
525.129	7.31
525.325	7.25
525.521	7.27
525.717	7.48
525.913	7.36
526.109	7.32
526.304	7.45
526.5	7.44
526.696	7.43
526.892	7.44
527.087	7.58
527.283	7.55
527.479	7.53
527.674	7.35
527.87	7.49
528.066	7.56
528.261	7.54
528.457	7.42
528.653	7.66
528.848	7.53
529.044	7.67
529.239	7.53
529.435	7.56
529.63	7.54
529.826	7.56
530.021	7.61
530.217	7.67
530.412	7.61
530.608	7.65
530.803	7.71
530.999	7.57
531.194	7.63
531.389	7.72
531.585	7.66
531.78	7.85
531.975	7.68
532.171	7.76
532.366	7.76
532.561	7.75
532.757	7.67
532.952	7.87
533.147	7.72
533.342	7.82
533.538	7.7
533.733	7.92
533.928	7.6
534.123	7.78
534.318	7.82
534.513	7.74
534.709	7.93
534.904	7.83
535.099	7.88
535.294	7.91
535.489	7.9
535.684	7.91
535.879	7.88
536.074	7.94
536.269	7.94
536.464	8
536.659	7.9
536.854	7.88
537.049	7.99
537.244	7.95
537.439	7.91
537.634	7.93
537.828	7.99
538.023	7.92
538.218	7.98
538.413	7.86
538.608	7.93
538.803	7.94
538.997	7.92
539.192	7.98
539.387	7.92
539.582	7.93
539.776	7.85
539.971	8.07
540.166	8.09
540.36	7.97
540.555	8.1
540.75	8
540.944	8.14
541.139	8.06
541.334	8.02
541.528	8.08
541.723	8.12
541.917	8.07
542.112	7.95
542.306	7.9
542.501	7.94
542.695	7.94
542.89	8
543.084	8.02
543.279	8.04
543.473	8.11
543.668	8.09
543.862	7.94
544.056	7.98
544.251	8.09
544.445	8.17
544.64	8.1
544.834	7.79
545.028	7.74
545.222	8
545.417	8.27
545.611	8.07
545.805	8.03
546	7.91
546.194	8.14
546.388	8.14
546.582	8.05
546.776	8.03
546.97	8.05
547.165	8.07
547.359	8.08
547.553	8.04
547.747	8.08
547.941	8.21
548.135	8.01
548.329	8.09
548.523	8.07
548.717	8.03
548.911	8.05
549.105	7.98
549.299	8.1
549.493	8.08
549.687	8.03
549.881	8.15
550.075	8.11
550.269	8.02
550.463	8.16
550.657	8.1
550.85	8.09
551.044	8.04
551.238	8.15
551.432	8.12
551.626	8.17
551.82	8.16
552.013	8.02
552.207	8.21
552.401	8.16
552.594	8.1
552.788	8.09
552.982	8.08
553.176	8.07
553.369	8.24
553.563	8.17
553.756	8.05
553.95	8.15
554.144	8.17
554.337	8.2
554.531	7.94
554.724	8.12
554.918	8.21
555.111	8.1
555.305	8.14
555.498	8.07
555.692	8.23
555.885	8.16
556.079	8.08
556.272	8.07
556.466	8.13
556.659	8.09
556.852	8.21
557.046	8.02
557.239	7.98
557.432	8.06
557.626	8.2
557.819	8.14
558.012	8.11
558.206	8.18
558.399	8.14
558.592	8.07
558.785	8.07
558.979	8.11
559.172	8.09
559.365	8.11
559.558	8.12
559.751	8.03
559.944	8.25
560.138	8.02
560.331	8.16
560.524	8.13
560.717	8.1
560.91	8.1
561.103	8.15
561.296	8.01
561.489	8.15
561.682	8.25
561.875	8.17
562.068	8.21
562.261	8.01
562.454	8.26
562.647	8.1
562.84	8.22
563.032	8.14
563.225	8.07
563.418	8.07
563.611	8.18
563.804	8.2
563.997	7.91
564.19	7.9
564.382	8.18
564.575	8.06
564.768	8.09
564.961	8.18
565.153	8.05
565.346	8.02
565.539	8.16
565.731	8.09
565.924	8.22
566.117	8.33
566.309	8.13
566.502	8.01
566.695	8.01
566.887	8.13
567.08	8.03
567.272	8.16
567.465	8
567.657	8.19
567.85	7.98
568.042	8.11
568.235	8.12
568.427	7.97
568.62	7.99
568.812	8.08
569.005	8.13
569.197	8
569.389	8.02
569.582	8.09
569.774	8.06
569.966	7.96
570.159	7.96
570.351	7.98
570.543	8.03
570.736	8.07
570.928	7.96
571.12	8.02
571.312	7.92
571.505	7.76
571.697	8.06
571.889	8.03
572.081	8.07
572.273	7.94
572.465	8.03
572.658	7.99
572.85	8.04
573.042	7.97
573.234	7.94
573.426	8
573.618	7.93
573.81	7.98
574.002	7.97
574.194	8.1
574.386	7.95
574.578	7.89
574.77	7.87
574.962	7.93
575.154	7.81
575.346	7.84
575.538	7.86
575.729	7.84
575.921	7.93
576.113	7.97
576.305	7.95
576.497	8.01
576.689	7.79
576.88	7.75
577.072	7.96
577.264	7.94
577.456	7.84
577.647	7.82
577.839	7.98
578.031	7.89
578.223	7.8
578.414	7.74
578.606	7.87
578.798	7.91
578.989	7.87
579.181	7.9
579.372	7.87
579.564	7.81
579.755	7.83
579.947	7.75
580.139	7.83
580.33	7.64
580.522	7.86
580.713	7.71
580.905	7.77
581.096	7.82
581.287	7.75
581.479	7.7
581.67	7.84
581.862	7.7
582.053	7.78
582.244	7.6
582.436	7.82
582.627	7.63
582.818	7.68
583.01	7.64
583.201	7.73
583.392	7.68
583.583	7.6
583.775	7.53
583.966	7.66
584.157	7.6
584.348	7.78
584.54	7.56
584.731	7.62
584.922	7.57
585.113	7.47
585.304	7.63
585.495	7.59
585.686	7.65
585.877	7.58
586.068	7.67
586.259	7.62
586.45	7.53
586.641	7.59
586.832	7.61
587.023	7.49
587.214	7.44
587.405	7.6
587.596	7.43
587.787	7.45
587.978	7.46
588.169	7.44
588.36	7.43
588.551	7.43
588.742	7.5
588.932	7.51
589.123	7.3
589.314	7.54
589.505	7.39
589.696	7.41
589.886	7.39
590.077	7.36
590.268	7.27
590.458	7.24
590.649	7.12
590.84	7.35
591.03	7.22
591.221	7.2
591.412	7.16
591.602	7.34
591.793	7.27
591.984	7.25
592.174	7.22
592.365	7.39
592.555	7.08
592.746	7.07
592.936	7.23
593.127	7.21
593.317	7.26
593.508	7.19
593.698	7.16
593.889	7.19
594.079	7.1
594.269	7.06
594.46	7
594.65	7.13
594.84	7.09
595.031	6.96
595.221	6.96
595.411	7
595.602	7.06
595.792	7.02
595.982	6.9
596.172	7.08
596.363	6.97
596.553	6.9
596.743	7.04
596.933	6.89
597.123	6.9
597.314	6.82
597.504	6.8
597.694	6.98
597.884	6.83
598.074	6.88
598.264	6.78
598.454	6.84
598.644	6.77
598.834	6.83
599.024	6.71
599.214	6.77
599.404	6.8
599.594	6.75
599.784	6.63
599.974	6.78
600.164	6.73
600.354	6.61
600.544	6.52
600.734	6.64
600.924	6.56
601.114	6.5
601.303	6.58
601.493	6.59
601.683	6.59
601.873	6.56
602.063	6.48
602.252	6.53
602.442	6.47
602.632	6.41
602.821	6.39
603.011	6.48
603.201	6.54
603.39	6.38
603.58	6.26
603.77	6.45
603.959	6.5
604.149	6.29
604.339	6.32
604.528	6.46
604.718	6.42
604.907	6.34
605.097	6.3
605.286	6.24
605.476	6.28
605.665	6.28
605.855	6.24
606.044	6.34
606.234	6.31
606.423	6.23
606.612	6.14
606.802	6.1
606.991	6.23
607.181	6.25
607.37	6.18
607.559	5.93
607.749	6.16
607.938	5.98
608.127	6.09
608.316	6.02
608.506	6.06
608.695	6.09
608.884	6.08
609.073	5.99
609.263	6.04
609.452	6.02
609.641	5.85
609.83	5.88
610.019	5.96
610.208	5.86
610.397	5.87
610.586	5.89
610.775	5.84
610.965	5.81
611.154	5.72
611.343	5.81
611.532	5.74
611.721	5.87
611.91	5.74
612.099	5.68
612.287	5.61
612.476	5.61
612.665	5.77
612.854	5.6
613.043	5.67
613.232	5.61
613.421	5.52
613.61	5.59
613.798	5.59
613.987	5.62
614.176	5.52
614.365	5.55
614.554	5.53
614.742	5.56
614.931	5.38
615.12	5.59
615.309	5.47
615.497	5.39
615.686	5.33
615.875	5.46
616.063	5.31
616.252	5.37
616.44	5.38
616.629	5.36
616.818	5.34
617.006	5.26
617.195	5.32
617.383	5.28
617.572	5.13
617.76	5.26
617.949	5.22
618.137	5.34
618.326	5.19
618.514	5.02
618.703	5
618.891	5.18
619.079	5.06
619.268	5.19
619.456	4.99
619.644	5.18
619.833	5.01
620.021	5.03
620.209	4.88
620.398	5.04
620.586	4.89
620.774	5
620.962	4.94
621.151	5.06
621.339	4.91
621.527	4.79
621.715	4.76
621.903	4.89
622.092	4.79
622.28	4.89
622.468	4.72
622.656	4.79
622.844	4.73
623.032	4.82
623.22	4.68
623.408	4.85
623.596	4.7
623.784	4.79
623.972	4.63
624.16	4.68
624.348	4.71
624.536	4.71
624.724	4.52
624.912	4.66
625.1	4.66
625.288	4.59
625.476	4.52
625.664	4.66
625.851	4.55
626.039	4.58
626.227	4.49
626.415	4.49
626.603	4.37
626.79	4.48
626.978	4.46
627.166	4.45
627.354	4.3
627.541	4.37
627.729	4.26
627.917	4.47
628.104	4.43
628.292	4.29
628.48	4.32
628.667	4.31
628.855	4.32
629.042	4.42
629.23	4.25
629.418	4.3
629.605	4.3
629.793	4.16
629.98	4.19
630.168	4.13
630.355	4.23
630.543	4.19
630.73	4.11
630.917	4.17
631.105	4.21
631.292	4.12
631.48	4.11
631.667	4.22
631.854	4.06
632.042	4.03
632.229	4
632.416	4.04
632.604	3.98
632.791	3.91
632.978	4
633.165	3.97
633.353	4.02
633.54	4
633.727	3.85
633.914	3.89
634.101	3.81
634.289	3.95
634.476	3.82
634.663	3.77
634.85	3.84
635.037	3.78
635.224	3.73
635.411	3.8
635.598	3.72
635.785	3.71
635.972	3.69
636.159	3.75
636.346	3.62
636.533	3.61
636.72	3.69
636.907	3.63
637.094	3.64
637.281	3.54
637.468	3.6
637.655	3.57
637.842	3.6
638.029	3.53
638.215	3.53
638.402	3.54
638.589	3.5
638.776	3.41
638.963	3.46
639.149	3.51
639.336	3.59
639.523	3.42
639.709	3.41
639.896	3.42
640.083	3.43
640.27	3.42
640.456	3.39
640.643	3.37
640.829	3.24
641.016	3.3
641.203	3.26
641.389	3.3
641.576	3.3
641.762	3.27
641.949	3.21
642.135	3.3
642.322	3.21
642.508	3.14
642.695	3.23
642.881	3.18
643.068	3.14
643.254	3.14
643.441	3.19
643.627	3.16
643.813	3.05
644	3.16
644.186	3.08
644.372	3.11
644.559	3.11
644.745	2.99
644.931	2.97
645.118	3.01
645.304	3.03
645.49	2.96
645.676	2.97
645.862	2.99
646.049	3.02
646.235	2.96
646.421	3.06
646.607	3.06
646.793	2.89
646.979	2.89
647.165	2.92
647.352	2.95
647.538	2.88
647.724	2.87
647.91	2.79
648.096	2.87
648.282	2.97
648.468	2.78
648.654	2.8
648.84	2.84
649.026	2.83
649.212	2.77
649.397	2.72
649.583	2.75
649.769	2.79
649.955	2.74
650.141	2.73
650.327	2.75
650.513	2.61
650.698	2.71
650.884	2.55
651.07	2.7
651.256	2.63
651.442	2.65
651.627	2.53
651.813	2.68
651.999	2.59
652.184	2.61
652.37	2.58
652.556	2.53
652.741	2.61
652.927	2.41
653.113	2.48
653.298	2.52
653.484	2.45
653.669	2.47
653.855	2.47
654.04	2.53
654.226	2.44
654.412	2.4
654.597	2.36
654.782	2.49
654.968	2.48
655.153	2.41
655.339	2.34
655.524	2.36
655.71	2.47
655.895	2.4
656.08	2.33
656.266	2.42
656.451	2.36
656.636	2.23
656.822	2.32
657.007	2.32
657.192	2.26
657.378	2.23
657.563	2.24
657.748	2.29
657.933	2.28
658.118	2.16
658.304	2.19
658.489	2.28
658.674	2.19
658.859	2.14
659.044	2.13
659.229	2.27
659.414	2.13
659.599	2.18
659.785	2.03
659.97	2.11
660.155	2.14
660.34	2.19
660.525	2.11
660.71	2.05
660.895	2.14
661.08	2.07
661.264	2.08
661.449	2.17
661.634	2.04
661.819	2.04
662.004	2.05
662.189	1.98
662.374	1.99
662.559	1.97
662.743	1.96
662.928	2
663.113	1.95
663.298	1.89
663.483	1.93
663.667	1.96
663.852	1.95
664.037	1.99
664.221	1.86
664.406	1.94
664.591	1.94
664.775	1.92
664.96	1.87
665.145	1.9
665.329	1.94
665.514	1.81
665.698	1.83
665.883	1.78
666.068	1.93
666.252	1.82
666.437	1.8
666.621	1.8
666.806	1.85
666.99	1.81
667.174	1.78
667.359	1.89
667.543	1.8
667.728	1.74
667.912	1.65
668.096	1.77
668.281	1.68
668.465	1.78
668.649	1.72
668.834	1.69
669.018	1.74
669.202	1.67
669.387	1.67
669.571	1.81
669.755	1.63
669.939	1.68
670.124	1.68
670.308	1.74
670.492	1.71
670.676	1.65
670.86	1.65
671.044	1.56
671.228	1.67
671.413	1.61
671.597	1.59
671.781	1.63
671.965	1.61
672.149	1.6
672.333	1.58
672.517	1.55
672.701	1.58
672.885	1.58
673.069	1.44
673.253	1.62
673.437	1.54
673.621	1.5
673.804	1.55
673.988	1.55
674.172	1.48
674.356	1.49
674.54	1.53
674.724	1.59
674.908	1.48
675.091	1.52
675.275	1.47
675.459	1.56
675.643	1.46
675.826	1.48
676.01	1.46
676.194	1.51
676.377	1.5
676.561	1.52
676.745	1.44
676.928	1.48
677.112	1.53
677.296	1.39
677.479	1.38
677.663	1.38
677.846	1.44
678.03	1.35
678.213	1.32
678.397	1.41
678.58	1.41
678.764	1.37
678.947	1.36
679.131	1.32
679.314	1.37
679.498	1.3
679.681	1.37
679.865	1.42
680.048	1.3
680.231	1.3
680.415	1.33
680.598	1.29
680.781	1.29
680.965	1.25
681.148	1.33
681.331	1.25
681.514	1.31
681.698	1.25
681.881	1.32
682.064	1.33
682.247	1.31
682.43	1.21
682.614	1.25
682.797	1.3
682.98	1.26
683.163	1.18
683.346	1.26
683.529	1.2
683.712	1.19
683.895	1.22
684.078	1.12
684.261	1.18
684.444	1.2
684.627	1.25
684.81	1.14
684.993	1.21
685.176	1.23
685.359	1.09
685.542	1.11
685.725	1.21
685.908	1.16
686.091	1.15
686.274	1.21
686.457	1.2
686.639	1.17
686.822	1.16
687.005	1.09
687.188	1.19
687.371	1.26
687.553	1.13
687.736	1.12
687.919	1.2
688.102	1.23
688.284	1.1
688.467	1.06
688.65	1.11
688.832	1.03
689.015	1.02
689.197	0.95
689.38	1.16
689.563	1.21
689.745	0.98
689.928	1.01
690.11	1.09
690.293	1.06
690.475	1
690.658	1.04
690.84	1.05
691.023	0.99
691.205	1.02
691.388	1.04
691.57	1.09
691.752	1.08
691.935	0.92
692.117	0.94
692.3	1
692.482	0.97
692.664	0.9
692.847	0.94
693.029	1.08
693.211	1.03
693.393	0.93
693.576	0.9
693.758	1.01
693.94	0.9
694.122	0.9
694.304	0.94
694.487	0.9
694.669	1.07
694.851	0.84
695.033	0.93
695.215	0.85
695.397	0.85
695.579	0.88
695.761	0.85
695.943	0.87
696.125	1
696.308	0.92
696.49	0.78
696.671	1.07
696.853	0.93
697.035	1.12
697.217	0.84
697.399	0.95
697.581	0.87
697.763	0.92
697.945	0.81
698.127	0.88
698.309	0.97
698.491	0.83
698.672	0.96
698.854	0.99
699.036	1.02
699.218	0.85
699.399	0.92
699.581	0.9
699.763	0.81
699.945	0.81
700.126	0.78
700.308	0.89
700.49	0.87
700.671	0.74
700.853	0.76
701.035	0.8
701.216	0.83
701.398	0.78
701.579	0.76
701.761	0.86
701.943	0.78
702.124	0.74
702.306	0.78
702.487	0.95
702.669	0.87
702.85	0.77
703.031	0.74
703.213	0.94
703.394	0.85
703.576	0.74
703.757	0.94
703.938	0.81
704.12	0.96
704.301	0.73
704.483	0.72
704.664	0.76
704.845	0.87
705.026	0.84
705.208	0.68
705.389	0.81
705.57	0.76
705.751	0.72
705.933	0.78
706.114	0.8
706.295	0.71
706.476	0.64
706.657	0.91
706.838	0.81
707.02	0.84
707.201	0.71
707.382	0.74
707.563	0.77
707.744	0.71
707.925	0.66
708.106	0.72
708.287	0.73
708.468	0.8
708.649	0.7
708.83	0.74
709.011	0.64
709.192	0.81
709.373	0.62
709.554	0.68
709.734	0.82
709.915	0.76
710.096	0.7
710.277	0.47
710.458	0.7
710.639	0.71
710.819	0.62
711	0.64
711.181	0.79
711.362	0.8
711.542	0.76
711.723	0.63
711.904	0.73
712.085	0.68
712.265	0.68
712.446	0.57
712.627	0.69
712.807	0.69
712.988	0.66
713.168	0.53
713.349	0.66
713.53	0.6
713.71	0.52
713.891	0.6
714.071	0.62
714.252	0.59
714.432	0.53
714.613	0.54
714.793	0.64
714.974	0.76
715.154	0.74
715.334	0.7
715.515	0.7
715.695	0.55
715.876	0.6
716.056	0.62
716.236	0.6
716.417	0.58
716.597	0.53
716.777	0.85
716.957	0.67
717.138	0.66
717.318	0.52
717.498	0.48
717.678	0.65
717.859	0.6
718.039	0.48
718.219	0.64
718.399	0.65
718.579	0.54
718.759	0.53
718.939	0.58
719.12	0.67
719.3	0.56
719.48	0.4
719.66	0.43
719.84	0.62
720.02	0.49
720.2	0.55
720.38	0.63
720.56	0.66
720.74	0.45
720.92	0.56
721.1	0.73
721.279	0.71
721.459	0.52
721.639	0.45
721.819	0.57
721.999	0.45
722.179	0.58
722.359	0.46
722.538	0.54
722.718	0.5
722.898	0.56
723.078	0.54
723.257	0.56
723.437	0.54
723.617	0.6
723.797	0.52
723.976	0.56
724.156	0.75
724.336	0.7
724.515	0.72
724.695	0.42
724.874	0.53
725.054	0.65
725.234	0.55
725.413	0.61
725.593	0.59
725.772	0.53
725.952	0.57
726.131	0.53
726.311	0.52
726.49	0.43
726.67	0.42
726.849	0.41
727.028	0.53
727.208	0.45
727.387	0.57
727.567	0.43
727.746	0.55
727.925	0.5
728.105	0.41
728.284	0.45
728.463	0.51
728.643	0.6
728.822	0.5
729.001	0.54
729.18	0.58
729.359	0.57
729.539	0.48
729.718	0.51
729.897	0.56
730.076	0.49
730.255	0.36
730.434	0.52
730.614	0.48
730.793	0.6
730.972	0.43
731.151	0.43
731.33	0.6
731.509	0.49
731.688	0.54
731.867	0.5
732.046	0.33
732.225	0.71
732.404	0.45
732.583	0.41
732.762	0.47
732.941	0.55
733.12	0.53
733.298	0.45
733.477	0.6
733.656	0.5
733.835	0.34
734.014	0.6
734.193	0.48
734.371	0.55
734.55	0.63
734.729	0.27
734.908	0.56
735.086	0.54
735.265	0.68
735.444	0.32
735.623	0.4
735.801	0.47
735.98	0.53
736.159	0.38
736.337	0.53
736.516	0.61
736.694	0.57
736.873	0.42
737.052	0.79
737.23	0.65
737.409	0.48
737.587	0.74
737.766	0.49
737.944	0.55
738.123	0.6
738.301	0.57
738.479	0.52
738.658	0.62
738.836	0.27
739.015	0.52
739.193	0.66
739.371	0.27
739.55	0.45
739.728	0.37
739.906	0.67
740.085	0.68
740.263	0.48
740.441	0.19
740.62	0.72
740.798	0.57
740.976	0.3
741.154	0.3
741.332	0.65
741.511	0.46
741.689	0.55
741.867	0.62
742.045	0.53
742.223	0.48
742.401	0.39
742.579	0.36
742.757	0.63
742.935	0.34
743.114	0.37
743.292	0.48
743.47	0.4
743.648	0.54
743.826	0.43
744.004	0.5
744.181	0.69
744.359	0.35
744.537	0.47
744.715	0.38
744.893	0.45
745.071	0.53
745.249	0.44
745.427	0.47
745.605	0.51
745.782	0.39
745.96	0.44
746.138	0.59
746.316	0.55
746.493	0.36
746.671	0.47
746.849	0.41
747.027	0.64
747.204	0.34
747.382	0.6
747.56	0.33
747.737	0.36
747.915	0.39
748.093	0.44
748.27	0.35
748.448	0.39
748.625	0.26
748.803	0.35
748.98	0.41
749.158	0.42
749.335	0.47
749.513	0.41
749.69	0.42
749.868	0.4
750.045	0.43
750.223	0.41
750.4	0.18
750.578	0.65
750.755	0.33
750.932	0.15
751.11	0.56
751.287	0.38
751.464	0.63
751.642	0.29
751.819	0.43
751.996	0.43
752.173	0.41
752.351	0.29
752.528	0.4
752.705	0.45
752.882	0.37
753.06	0.5
753.237	0.55
753.414	0.55
753.591	0.65
753.768	0.47
753.945	0.33
754.122	0.38
754.299	0.5
754.476	0.3
754.654	0.41
754.831	0.52
755.008	0.51
755.185	0.29
755.362	0.27
755.539	0.43
755.716	0.27
755.892	0.34
756.069	0.33
756.246	0.38
756.423	0.37
756.6	0.51
756.777	0.28
756.954	0.55
757.131	0.3
757.307	0.4
757.484	0.27
757.661	0.38
757.838	0.48
758.015	0.3
758.191	0.43
758.368	0.55
758.545	0.67
758.721	0.38
758.898	0.25
759.075	0.41
759.251	0.56
759.428	0.46
759.605	0.23
759.781	0.4
759.958	0.43
760.134	0.35
760.311	0.24
760.488	0.48
760.664	0.68
760.841	0.4
761.017	0.25
761.194	0.52
761.37	0.46
761.547	0.33
761.723	0.33
761.899	0.61
762.076	0.35
762.252	0.35
762.429	0.29
762.605	0.62
762.781	0.41
762.958	0.57
763.134	0.28
763.31	0.31
763.486	0.62
763.663	0.21
763.839	0.39
764.015	0.11
764.191	0.42
764.368	0.32
764.544	0.33
764.72	0.41
764.896	0.45
765.072	0.46
765.248	0.38
765.425	0.32
765.601	0.39
765.777	0.39
765.953	0.07
766.129	0.35
766.305	0.26
766.481	0.57
766.657	0.3
766.833	0.52
767.009	0.27
767.185	0.38
767.361	0.27
767.537	0.19
767.713	0.54
767.889	0.38
768.065	0.41
768.24	0.58
768.416	0.45
768.592	0.4
768.768	0.33
768.944	0.51
769.12	0.25
769.295	0.25
769.471	0.35
769.647	0.26
769.823	0.58
769.998	0.03
770.174	0.25
770.35	0.71
770.525	0.76
770.701	0.35
770.877	0.46
771.052	0.3
771.228	0.64
771.403	0.5
771.579	0.37
771.755	0.77
771.93	0.3
772.106	0.24
772.281	0.19
772.457	0.43
772.632	0.4
772.808	0.19
772.983	0.33
773.159	0.16
773.334	0.68
773.509	0.47
773.685	0.31
773.86	0.79
774.036	0.68
774.211	0.47
774.386	0.41
774.562	0.49
774.737	0.55
774.912	0.33
775.087	0.44
775.263	0.44
775.438	0.3
775.613	0.31
775.788	0.36
775.964	0.55
776.139	1.11
776.314	0.13
776.489	0.52
776.664	0.53
776.839	0.22
777.014	0.46
777.19	0.6
777.365	0.7
777.54	0.62
777.715	0.25
777.89	0.28
778.065	0.26
778.24	0.48
778.415	0.62
778.59	0.16
778.765	0.43
778.94	0.53
779.115	0.38
779.289	0.46
779.464	0.41
779.639	0.33
779.814	0.17
779.989	0.14
780.164	0.48
780.339	0.67
780.513	0.32
780.688	0.12
780.863	0.58
781.038	0.62
781.212	0.23
781.387	0.36
781.562	0.88
781.737	0.36
781.911	0.8
782.086	0.31
782.261	0.43
782.435	0.68
782.61	0.21
782.784	0.21
782.959	0.62
783.134	0.37
783.308	0.23
783.483	0.3
783.657	0.98
783.832	0.88
784.006	0.2
784.181	0.52
784.355	0.59
784.53	0.4
784.704	0.18
784.878	0.79
785.053	0.65
785.227	0.6
785.402	0.85
785.576	0.22
785.75	0.37
785.925	0.54
786.099	0.52
786.273	0.48
786.448	0.6
786.622	0.59
786.796	0.41
786.97	0.52
787.145	1.12
787.319	0.2
787.493	0.28
787.667	0.07
787.841	0.55
788.015	0.83
788.19	0.26
788.364	0.34
788.538	0.86
788.712	0.6
788.886	0.23
789.06	0.78
789.234	0.85
789.408	0.19
789.582	0.36
789.756	0.32
789.93	0.23
790.104	0.37
790.278	0.41
790.452	0.14
790.626	0.66
790.8	0.63
790.973	0.61
791.147	0.99
791.321	0.95
791.495	0.58
791.669	0.47
791.843	0.51
792.016	0.38
792.19	0.89
792.364	0.29
792.538	1.25
792.711	0.57
792.885	0.29
793.059	0.26
793.233	-0.19
793.406	0.7
793.58	0.61
793.754	0.63
793.927	0.48
794.101	0.7
794.274	0.42
794.448	0.87
794.622	0.23
794.795	1.03
794.969	0.33
795.142	0.87
795.316	0.51
795.489	0.35
795.663	0.83
795.836	0.46
796.009	0.42
796.183	1.04
796.356	0.63
796.53	0.39
796.703	0.44
796.876	1.17
797.05	0.32
797.223	0.49
797.396	0.48
797.57	0.59
797.743	1.15
797.916	0.72
798.09	0.43
798.263	0.93
798.436	0.79
798.609	0.57
798.782	0.35
798.956	0.75
799.129	0.8
799.302	0.51
799.475	0.49
799.648	0.52
799.821	0.26
799.994	0.53
800.167	-0.27
800.34	0.38
800.514	0.4
800.687	0.3
800.86	0.2
801.033	0.42
801.206	0.53
801.379	0.26
801.551	0.56
801.724	0.9
801.897	1.27
802.07	0.25
802.243	-0.02
802.416	0.48
802.589	0.41
802.762	0.81
802.935	0.5
803.107	0.73
803.28	0.83
803.453	1
803.626	0.44
803.798	0.71
803.971	0.28
804.144	0.82
804.317	0.95
804.489	1.01
804.662	0.72
804.835	0.4
805.007	0.4
805.18	1.19
805.353	0.42
805.525	0.28
805.698	0.17
805.87	0.8
806.043	0.94
806.215	0.01
806.388	0.42
806.56	0.58
806.733	0.83
806.905	0.65
807.078	0.32
807.25	0.82
807.423	1.14
807.595	0.46
807.768	0.5
807.94	1.08
808.112	0.59
808.285	0.53
808.457	0.36
808.629	0.98
808.802	0.93
808.974	0.89
809.146	0.46
809.318	0.76
809.491	0.88
809.663	0.78
809.835	0.23
810.007	0.67
810.18	0.58
810.352	0.39
810.524	0.47
810.696	0.9
810.868	1.1
811.04	0.67
811.212	0.44
811.384	0.75
811.556	0.59
811.728	0.43
811.901	1.36
812.073	0.49
812.245	1.09
812.417	0.39
812.589	-0.24
812.76	0.88
812.932	1.17
813.104	0.99
813.276	0.33
813.448	0.69
813.62	0.81
813.792	0.76
813.964	0.81
814.136	0.61
814.307	0.83
814.479	0.33
814.651	0.26
814.823	1.67
814.995	1.01
815.166	0.51
815.338	0.58
815.51	-0.01
815.681	1.72
815.853	0.83
816.025	0.78
816.196	1.57
816.368	1.34
816.54	0.61
816.711	0.38
816.883	1.2
817.054	1.48
817.226	0.29
817.398	1.26
817.569	0.56
817.741	0.76
817.912	0.68
818.084	0.58
818.255	1.25
818.426	0.28
818.598	0.72
818.769	0.3
818.941	0.75
819.112	1.43
819.283	0.72
819.455	0.1
819.626	0.97
819.798	0.91
819.969	1
820.14	0.71
820.311	0.42
820.483	0.74
820.654	1.06
820.825	0.77
820.996	0.9
821.168	0.44
821.339	0.46
821.51	0.2
821.681	0.59
821.852	0.64
822.023	0.37
822.195	0.18
822.366	1.27
822.537	0.88
822.708	0.83
822.879	0.34
823.05	1.54
823.221	0.61
823.392	1.29
823.563	0.67
823.734	1.21
823.905	0.78
824.076	0.25
824.247	0.16
824.418	0.54
824.589	1.36
824.759	0.94
824.93	0.75
825.101	-0.09
825.272	1.57
825.443	1.13
825.614	1.7
825.784	-0.1
825.955	2.35
826.126	1.89
826.297	1.01
826.467	1.84
826.638	2.14
826.809	-0.41
826.98	0.86
827.15	1.23
827.321	0.97
827.492	1.25
827.662	0.77
827.833	2.35
828.003	1.69
828.174	0.13
828.345	-0.32
828.515	1.53
828.686	1.47
828.856	0.99
829.027	1
829.197	1.09
829.368	1.22
829.538	0.05
829.709	0.71
829.879	1.08
830.049	0.93
830.22	0.76
830.39	0.89
830.56	1.34
830.731	1.2
830.901	0.19
831.072	1.06
831.242	1.36
831.412	1.23
831.582	0.28
831.753	-0.45
831.923	1.55
832.093	0.64
832.263	1.2
832.434	-0.09
832.604	1.05
832.774	1.35
832.944	1.29
833.114	0.02
833.284	0.73
833.454	0.57
833.624	0.6
833.795	0.62
833.965	1.89
834.135	2.27
834.305	0.15
834.475	0.71
834.645	1.69
834.815	0.4
834.985	0.44
835.155	-0.11
835.325	1.11
835.494	1.88
835.664	0.99
835.834	0.62
836.004	0.79
836.174	1.39
836.344	0.91
836.514	0.17
836.684	0.74
836.853	1.26
837.023	1.44
837.193	0.31
837.363	2.54
837.532	1.72
837.702	0.98
837.872	0.46
838.041	2.69
838.211	2.51
838.381	0.05
838.55	0.9
838.72	3.63
838.89	3.13
839.059	0.61
839.229	0.38
839.398	3.13
839.568	1.71
839.738	0.93
839.907	2.62
840.077	2.34
840.246	0.09
840.416	-0.23
840.585	0.14
840.755	2.74
840.924	1.96
841.093	0.02
841.263	0.54
841.432	1.23
841.602	1.36
841.771	0.46
841.94	1.04
842.11	3.61
842.279	3.05
842.448	0.37
842.617	0.88
842.787	2.29
842.956	0.09
843.125	1.04
843.294	0.6
843.464	2.83
843.633	1.24
843.802	0.07
843.971	0.98
844.14	1.99
844.309	2.59
844.479	-0.27
844.648	0.31
844.817	1.37
844.986	1.89
845.155	0.8
845.324	0.77
845.493	1.37
845.662	0.82
845.831	1.38
846	0.85
846.169	1.01
846.338	2.46
846.507	1.56
846.676	1.87
846.844	1.14
847.013	2.71
847.182	1.2
847.351	0.67
847.52	1.51
847.689	1.55
847.858	1.48
848.026	1.02
848.195	1.72
848.364	0.71
848.533	0.93
848.701	1.14
848.87	1.45
849.039	3.12
849.207	2.03
849.376	1.94
849.545	3.06
849.713	0.69
849.882	1.04
850.051	1.37
850.219	2.54
850.388	3.07
850.556	0.5
850.725	1.27
850.893	2
851.062	0.62
851.23	1.94
851.399	0.25
851.567	0.99
851.736	1.76
851.904	0.6
852.073	0.57
852.241	2.8
852.41	1.17
852.578	1.7
852.746	0.78
852.915	2.27
853.083	0.89
853.251	0.34
853.42	1.14
853.588	2.13
853.756	2.4
853.924	1.75
854.093	1.96
854.261	1.45
854.429	-0.13
854.597	1.55
854.765	1.41
854.934	1.76
855.102	2.46
855.27	0.88
855.438	2.81
855.606	2.95
855.774	3.28
855.942	0.76
856.11	0.21
856.278	2.38
856.446	1.92
856.614	1.6
856.782	0.29
856.95	2.99
857.118	1.67
857.286	1.31
857.454	0.23
857.622	3.01
857.79	2.69
857.958	-0.21
858.126	1.13
858.294	-0.3
858.462	1.57
858.629	1.47
858.797	0.65
858.965	3.48
859.133	1.83
859.301	2.05
859.468	2.27
859.636	1.12
859.804	4.8
859.971	2.76
860.139	1.19
860.307	3.81
860.474	2
860.642	1.54
860.81	-0.57
860.977	2.25
861.145	4.14
861.313	2
861.48	1.35
861.648	2.95
861.815	1.61
861.983	0.34
862.15	0.48
862.318	3.63
862.485	3.13
862.653	0.81
862.82	-0.2
862.988	5.06
863.155	2.91
863.322	0.28
863.49	0.57
863.657	1
863.824	4.93
863.992	2.73
864.159	1.08
864.326	3.97
864.494	0.53
864.661	5.06
864.828	-0.14
864.996	3.72
865.163	3.34
865.33	0.73
865.497	-2.58
865.664	1.81
865.832	0.13
865.999	1.34
866.166	1.49
866.333	1.44
866.5	2.14
866.667	1.15
866.834	1.33
867.001	4.99
867.168	0.29
867.335	0.87
867.502	0.1
867.669	2.56
867.836	5.55
868.003	2.26
868.17	4.79
868.337	1.69
868.504	5.77
868.671	-1.94
868.838	-0.74
869.005	5.33
869.172	2.16
869.339	1.5
869.505	0.82
869.672	2.26
869.839	6.1
870.006	0.99
870.173	0.06
870.339	3.58
870.506	4.59
870.673	0.39
870.84	3.34
871.006	2.1
871.173	3.68
871.34	1.66
871.506	-0.21
871.673	3.81
871.839	-0.92
872.006	1.94
872.173	0.88
872.339	3.28
872.506	6.02
872.672	1.03
872.839	1.19
873.005	1.81
873.172	5.73
873.338	2.18
873.505	2.33
873.671	3.43
873.838	3.42
874.004	-0.07
874.171	1.69
874.337	4.72
874.503	5.74
874.67	1.39
874.836	0.88
875.002	6.44
875.169	4.81
875.335	2.35
875.501	2.08
875.668	2.94
875.834	1.55
876	1.52
876.166	3.89
876.332	4.47
876.499	6.06
876.665	2.5
876.831	1.47
876.997	6
877.163	3.36
877.329	1.29
877.495	2.78
877.662	3.11
877.828	4.83
877.994	2.22
878.16	0.2
878.326	3.19
878.492	2.88
878.658	1.18
878.824	4.8
878.99	3.7
879.156	2.06
879.322	6.32
879.487	3.13
879.653	3.02
879.819	3.28
879.985	1.48
880.151	3.63
880.317	3.34
880.483	2.26
880.648	3.67
880.814	-1.46
880.98	4.51
881.146	-2.2
881.312	1.38
881.477	1.72
881.643	2.29
881.809	4.4
881.974	4.02
882.14	1.35
882.306	1.05
882.471	6.19
882.637	0.11
882.803	3.4
882.968	6.37
883.134	6.32
883.299	2.16
883.465	1.71
883.63	4.6
883.796	2.61
883.961	4.06
884.127	3.27
884.292	-3.59
884.458	-0.63
884.623	-0.63
