Data from Apollo_Calib_20240827__AbsoluteIrradiance__748__11-37-02-256.txt Node

Date: Wed Aug 28 11:37:02 BST 2024
User: biology
Spectrometer: FLMT08252
Trigger mode: 0
Integration Time (sec): 5.000000E-1
Scans to average: 5
Electric dark correction enabled: true
Nonlinearity correction enabled: false
Boxcar width: 0
XAxis mode: Wavelengths
Number of Pixels in Spectrum: 3648
>>>>>Begin Spectral Data<<<<<
179.588	-0
179.809	-0
180.03	-0
180.251	-0
180.473	-0
180.694	0
180.915	0
181.136	-0
181.357	0
181.578	0
181.799	-0
182.02	-0
182.241	-0
182.462	-0
182.683	0
182.904	-0
183.125	-0
183.346	0
183.567	0
183.788	0
184.009	-0
184.23	0
184.451	0
184.672	0
184.892	0
185.113	0
185.334	0
185.555	0
185.776	0
185.996	0
186.217	0
186.438	0
186.659	0
186.879	0
187.1	0
187.321	0
187.541	0
187.762	0
187.983	0
188.203	0
188.424	0
188.644	0
188.865	0
189.086	0
189.306	0
189.527	0
189.747	0
189.968	0
190.188	0
190.409	0
190.629	0
190.849	0
191.07	0
191.29	0
191.511	0
191.731	0
191.951	0
192.172	0
192.392	0
192.612	0
192.833	0
193.053	0
193.273	0
193.493	0
193.714	0
193.934	0
194.154	0
194.374	0
194.594	0
194.815	0
195.035	0
195.255	0
195.475	0
195.695	0
195.915	0
196.135	0
196.355	0
196.575	0
196.795	0
197.015	0
197.235	0
197.455	0
197.675	0
197.895	0
198.115	0
198.335	0
198.555	0
198.775	0
198.995	0
199.214	0
199.434	0
199.654	0
199.874	0
200.094	2.99
200.313	1.37
200.533	1.13
200.753	0.77
200.973	2.15
201.192	2.11
201.412	0.95
201.632	1.23
201.851	2.38
202.071	1.17
202.291	0.86
202.51	0.57
202.73	2.42
202.95	1.09
203.169	0.84
203.389	1.41
203.608	1.32
203.828	0.69
204.047	1.02
204.267	1.32
204.486	1.35
204.706	1.5
204.925	1.16
205.145	0.99
205.364	1.54
205.583	1.88
205.803	0.89
206.022	0.94
206.242	1.01
206.461	1.22
206.68	0.75
206.9	1.41
207.119	1.78
207.338	1.55
207.557	0.95
207.777	0.92
207.996	1.11
208.215	1.55
208.434	0.65
208.654	0.37
208.873	1.13
209.092	1.67
209.311	0.55
209.53	0.69
209.749	0.76
209.968	0.61
210.187	0.86
210.407	0.26
210.626	1
210.845	1.12
211.064	0.91
211.283	0.39
211.502	1.11
211.721	0.93
211.94	0.52
212.159	0.96
212.377	1.04
212.596	1.03
212.815	0.75
213.034	0.77
213.253	0.98
213.472	0.83
213.691	0.64
213.91	0.33
214.128	0.46
214.347	1.11
214.566	0.27
214.785	0.15
215.003	0.92
215.222	0.9
215.441	0.6
215.66	0.28
215.878	0.65
216.097	0.84
216.316	0.39
216.534	0.54
216.753	0.65
216.972	0.25
217.19	0.63
217.409	0.29
217.627	0.32
217.846	0.53
218.064	0.55
218.283	0.42
218.501	1.09
218.72	0.96
218.938	0.35
219.157	0.48
219.375	0.92
219.594	0.64
219.812	0.16
220.031	0.32
220.249	0.91
220.467	0.85
220.686	0.54
220.904	0.26
221.122	0.6
221.341	0.88
221.559	0.72
221.777	0.26
221.995	0.43
222.214	0.58
222.432	0.37
222.65	0.68
222.868	0.31
223.086	0.67
223.305	0.6
223.523	0.42
223.741	0.88
223.959	0.42
224.177	0.32
224.395	0.31
224.613	0.48
224.831	0.63
225.049	0.24
225.267	0.37
225.485	0.62
225.703	0.39
225.921	0.45
226.139	0.43
226.357	0.53
226.575	0.33
226.793	0.3
227.011	1.12
227.229	0.48
227.447	0.6
227.665	0.32
227.883	0.06
228.1	0.42
228.318	0.54
228.536	0.12
228.754	0.3
228.972	0.66
229.189	0.66
229.407	0.4
229.625	0.3
229.843	0.56
230.06	0.45
230.278	0.3
230.496	0.34
230.713	0.42
230.931	0.63
231.149	0.31
231.366	0.2
231.584	0.33
231.801	0.71
232.019	0.27
232.236	0.19
232.454	0.26
232.671	0.48
232.889	0.26
233.106	0.31
233.324	0.47
233.541	0.4
233.759	0.55
233.976	0.2
234.194	0.43
234.411	0.29
234.628	0.36
234.846	0.26
235.063	0.31
235.28	0.33
235.498	0.29
235.715	0.19
235.932	0.49
236.149	0.39
236.367	0.2
236.584	0.47
236.801	0.36
237.018	0.44
237.236	0.33
237.453	0.13
237.67	0.55
237.887	0.37
238.104	0.36
238.321	0.23
238.538	0.21
238.755	0.46
238.973	0.1
239.19	0.35
239.407	0.46
239.624	0.36
239.841	0.18
240.058	0.24
240.275	0.36
240.492	0.4
240.709	0.3
240.925	0.31
241.142	0.3
241.359	0.18
241.576	0.21
241.793	0.26
242.01	0.3
242.227	0.41
242.444	0.3
242.66	0.45
242.877	0.28
243.094	0.24
243.311	0.29
243.527	0.21
243.744	0.34
243.961	0.43
244.178	0.2
244.394	0.27
244.611	0.45
244.828	0.5
245.044	0.22
245.261	0.28
245.477	0.26
245.694	0.42
245.911	0.31
246.127	0.33
246.344	0.55
246.56	0.33
246.777	0.15
246.993	0.26
247.21	0.33
247.426	0.38
247.643	0.23
247.859	0.13
248.076	0.36
248.292	0.5
248.508	0.24
248.725	0.33
248.941	0.38
249.157	0.47
249.374	0.22
249.59	0.25
249.806	0.23
250.023	0.45
250.239	0.18
250.455	0.23
250.671	0.26
250.888	0.43
251.104	0.33
251.32	0.22
251.536	0.24
251.752	0.31
251.969	0.29
252.185	0.26
252.401	0.42
252.617	0.45
252.833	0.2
253.049	0.24
253.265	0.26
253.481	0.26
253.697	0.24
253.913	0.17
254.129	0.34
254.345	0.22
254.561	0.22
254.777	0.19
254.993	0.35
255.209	0.32
255.425	0.27
255.641	0.18
255.857	0.36
256.073	0.31
256.288	0.2
256.504	0.19
256.72	0.3
256.936	0.4
257.152	0.26
257.367	0.18
257.583	0.32
257.799	0.34
258.015	0.18
258.23	0.24
258.446	0.45
258.662	0.26
258.877	0.15
259.093	0.16
259.309	0.31
259.524	0.27
259.74	0.24
259.955	0.14
260.171	0.35
260.387	0.2
260.602	0.29
260.818	0.31
261.033	0.14
261.249	0.2
261.464	0.19
261.68	0.15
261.895	0.21
262.11	0.34
262.326	0.16
262.541	0.11
262.757	0.31
262.972	0.25
263.187	0.21
263.403	0.26
263.618	0.4
263.833	0.26
264.049	0.15
264.264	0.23
264.479	0.24
264.694	0.35
264.91	0.2
265.125	0.24
265.34	0.29
265.555	0.39
265.77	0.28
265.986	0.16
266.201	0.24
266.416	0.36
266.631	0.24
266.846	0.22
267.061	0.31
267.276	0.29
267.491	0.09
267.706	0.25
267.921	0.27
268.136	0.27
268.351	0.22
268.566	0.13
268.781	0.37
268.996	0.32
269.211	0.27
269.426	0.17
269.641	0.2
269.856	0.29
270.071	0.15
270.285	0.13
270.5	0.27
270.715	0.27
270.93	0.23
271.145	0.22
271.359	0.31
271.574	0.16
271.789	0.25
272.004	0.18
272.218	0.18
272.433	0.25
272.648	0.15
272.862	0.29
273.077	0.23
273.292	0.18
273.506	0.12
273.721	0.19
273.936	0.3
274.15	0.28
274.365	0.18
274.579	0.28
274.794	0.26
275.008	0.28
275.223	0.1
275.437	0.22
275.652	0.32
275.866	0.24
276.081	0.27
276.295	0.27
276.509	0.24
276.724	0.26
276.938	0.16
277.153	0.23
277.367	0.26
277.581	0.18
277.796	0.19
278.01	0.17
278.224	0.32
278.438	0.32
278.653	0.23
278.867	0.13
279.081	0.08
279.295	0.14
279.51	0.21
279.724	0.11
279.938	0.25
280.152	0.23
280.366	0.2
280.58	0.23
280.794	0.27
281.008	0.24
281.222	0.3
281.437	0.34
281.651	0.15
281.865	0.33
282.079	0.19
282.293	0.09
282.507	0.11
282.721	0.21
282.935	0.17
283.148	0.09
283.362	0.17
283.576	0.15
283.79	0.15
284.004	0.15
284.218	0.34
284.432	0.17
284.646	0.23
284.859	0.18
285.073	0.21
285.287	0.25
285.501	0.24
285.714	0.17
285.928	0.25
286.142	0.23
286.356	0.14
286.569	0.2
286.783	0.3
286.997	0.27
287.21	0.21
287.424	0.18
287.637	0.17
287.851	0.17
288.065	0.27
288.278	0.19
288.492	0.2
288.705	0.19
288.919	0.21
289.132	0.15
289.346	0.25
289.559	0.12
289.773	0.16
289.986	0.19
290.2	0.21
290.413	0.28
290.626	0.16
290.84	0.14
291.053	0.23
291.267	0.29
291.48	0.22
291.693	0.18
291.906	0.18
292.12	0.19
292.333	0.17
292.546	0.17
292.76	0.27
292.973	0.22
293.186	0.24
293.399	0.14
293.612	0.24
293.826	0.21
294.039	0.14
294.252	0.19
294.465	0.15
294.678	0.2
294.891	0.21
295.104	0.14
295.317	0.15
295.53	0.24
295.743	0.18
295.956	0.16
296.169	0.25
296.382	0.25
296.595	0.17
296.808	0.13
297.021	0.29
297.234	0.28
297.447	0.19
297.66	0.18
297.873	0.22
298.086	0.24
298.299	0.08
298.511	0.13
298.724	0.16
298.937	0.13
299.15	0.16
299.363	0.15
299.575	0.27
299.788	0.21
300.001	0.21
300.213	0.19
300.426	0.17
300.639	0.15
300.852	0.18
301.064	0.18
301.277	0.27
301.489	0.23
301.702	0.2
301.915	0.17
302.127	0.18
302.34	0.19
302.552	0.17
302.765	0.13
302.977	0.22
303.19	0.12
303.402	0.14
303.615	0.13
303.827	0.15
304.04	0.17
304.252	0.17
304.464	0.16
304.677	0.29
304.889	0.22
305.102	0.14
305.314	0.13
305.526	0.22
305.739	0.22
305.951	0.11
306.163	0.18
306.375	0.27
306.588	0.15
306.8	0.15
307.012	0.13
307.224	0.17
307.436	0.26
307.649	0.12
307.861	0.15
308.073	0.19
308.285	0.16
308.497	0.12
308.709	0.14
308.921	0.21
309.133	0.23
309.346	0.18
309.558	0.15
309.77	0.2
309.982	0.25
310.194	0.25
310.406	0.18
310.617	0.23
310.829	0.19
311.041	0.16
311.253	0.13
311.465	0.18
311.677	0.18
311.889	0.16
312.101	0.16
312.313	0.24
312.524	0.23
312.736	0.13
312.948	0.19
313.16	0.3
313.372	0.22
313.583	0.18
313.795	0.16
314.007	0.17
314.218	0.24
314.43	0.15
314.642	0.13
314.853	0.11
315.065	0.2
315.277	0.17
315.488	0.17
315.7	0.26
315.912	0.22
316.123	0.15
316.335	0.19
316.546	0.28
316.758	0.19
316.969	0.11
317.181	0.16
317.392	0.19
317.604	0.29
317.815	0.14
318.026	0.14
318.238	0.13
318.449	0.19
318.661	0.1
318.872	0.14
319.083	0.13
319.295	0.22
319.506	0.15
319.717	0.19
319.929	0.19
320.14	0.19
320.351	0.15
320.562	0.11
320.774	0.19
320.985	0.19
321.196	0.1
321.407	0.11
321.618	0.19
321.829	0.19
322.041	0.19
322.252	0.17
322.463	0.22
322.674	0.24
322.885	0.13
323.096	0.13
323.307	0.18
323.518	0.17
323.729	0.17
323.94	0.11
324.151	0.15
324.362	0.2
324.573	0.2
324.784	0.15
324.995	0.23
325.206	0.19
325.417	0.13
325.628	0.15
325.838	0.2
326.049	0.18
326.26	0.26
326.471	0.14
326.682	0.17
326.892	0.17
327.103	0.13
327.314	0.13
327.525	0.24
327.735	0.15
327.946	0.17
328.157	0.09
328.368	0.2
328.578	0.17
328.789	0.22
328.999	0.18
329.21	0.16
329.421	0.26
329.631	0.11
329.842	0.12
330.052	0.14
330.263	0.25
330.473	0.22
330.684	0.17
330.894	0.17
331.105	0.23
331.315	0.18
331.526	0.11
331.736	0.27
331.947	0.23
332.157	0.15
332.367	0.14
332.578	0.19
332.788	0.24
332.999	0.26
333.209	0.19
333.419	0.13
333.629	0.19
333.84	0.2
334.05	0.18
334.26	0.21
334.47	0.14
334.681	0.24
334.891	0.13
335.101	0.17
335.311	0.28
335.521	0.18
335.732	0.13
335.942	0.21
336.152	0.23
336.362	0.2
336.572	0.21
336.782	0.22
336.992	0.17
337.202	0.15
337.412	0.14
337.622	0.19
337.832	0.13
338.042	0.19
338.252	0.16
338.462	0.18
338.672	0.19
338.882	0.13
339.092	0.14
339.302	0.28
339.511	0.2
339.721	0.16
339.931	0.11
340.141	0.24
340.351	0.25
340.561	0.18
340.77	0.2
340.98	0.16
341.19	0.19
341.4	0.23
341.609	0.11
341.819	0.16
342.029	0.13
342.238	0.18
342.448	0.17
342.658	0.21
342.867	0.17
343.077	0.18
343.286	0.2
343.496	0.19
343.706	0.23
343.915	0.09
344.125	0.18
344.334	0.18
344.544	0.12
344.753	0.16
344.963	0.12
345.172	0.15
345.381	0.18
345.591	0.16
345.8	0.2
346.01	0.26
346.219	0.19
346.428	0.03
346.638	0.17
346.847	0.18
347.056	0.25
347.266	0.15
347.475	0.14
347.684	0.22
347.893	0.19
348.103	0.21
348.312	0.18
348.521	0.17
348.73	0.17
348.94	0.2
349.149	0.15
349.358	0.16
349.567	0.17
349.776	0.11
349.985	0.15
350.194	0.22
350.403	0.21
350.612	0.15
350.821	0.14
351.03	0.18
351.239	0.12
351.448	0.13
351.657	0.11
351.866	0.25
352.075	0.17
352.284	0.23
352.493	0.1
352.702	0.21
352.911	0.19
353.12	0.18
353.329	0.14
353.538	0.19
353.746	0.12
353.955	0.11
354.164	0.21
354.373	0.13
354.582	0.23
354.79	0.19
354.999	0.18
355.208	0.18
355.416	0.24
355.625	0.14
355.834	0.11
356.042	0.2
356.251	0.16
356.46	0.14
356.668	0.17
356.877	0.24
357.085	0.19
357.294	0.09
357.503	0.16
357.711	0.13
357.92	0.27
358.128	0.19
358.337	0.14
358.545	0.2
358.754	0.16
358.962	0.22
359.17	0.15
359.379	0.19
359.587	0.19
359.796	0.16
360.004	0.21
360.212	0.21
360.421	0.24
360.629	0.17
360.837	0.12
361.046	0.21
361.254	0.24
361.462	0.15
361.67	0.13
361.879	0.21
362.087	0.23
362.295	0.22
362.503	0.17
362.711	0.1
362.92	0.15
363.128	0.1
363.336	0.11
363.544	0.08
363.752	0.17
363.96	0.15
364.168	0.12
364.376	0.19
364.584	0.19
364.792	0.22
365	0.2
365.208	0.16
365.416	0.19
365.624	0.23
365.832	0.13
366.04	0.25
366.248	0.19
366.456	0.19
366.664	0.17
366.872	0.19
367.079	0.18
367.287	0.19
367.495	0.17
367.703	0.18
367.911	0.12
368.118	0.17
368.326	0.16
368.534	0.12
368.742	0.23
368.949	0.12
369.157	0.12
369.365	0.21
369.572	0.15
369.78	0.1
369.988	0.22
370.195	0.2
370.403	0.21
370.61	0.14
370.818	0.15
371.026	0.23
371.233	0.09
371.441	0.17
371.648	0.13
371.856	0.19
372.063	0.17
372.271	0.18
372.478	0.13
372.685	0.15
372.893	0.18
373.1	0.18
373.308	0.14
373.515	0.25
373.722	0.2
373.93	0.18
374.137	0.2
374.344	0.24
374.552	0.21
374.759	0.2
374.966	0.17
375.173	0.12
375.381	0.25
375.588	0.19
375.795	0.09
376.002	0.17
376.209	0.12
376.417	0.19
376.624	0.16
376.831	0.21
377.038	0.18
377.245	0.09
377.452	0.14
377.659	0.22
377.866	0.18
378.073	0.18
378.28	0.2
378.487	0.24
378.694	0.18
378.901	0.18
379.108	0.15
379.315	0.22
379.522	0.27
379.729	0.18
379.936	0.21
380.143	0.2
380.35	0.2
380.557	0.21
380.763	0.2
380.97	0.21
381.177	0.2
381.384	0.18
381.591	0.15
381.797	0.22
382.004	0.2
382.211	0.2
382.418	0.15
382.624	0.22
382.831	0.22
383.038	0.17
383.244	0.21
383.451	0.2
383.658	0.21
383.864	0.18
384.071	0.14
384.277	0.26
384.484	0.15
384.69	0.27
384.897	0.11
385.103	0.16
385.31	0.15
385.516	0.15
385.723	0.1
385.929	0.18
386.136	0.18
386.342	0.26
386.549	0.17
386.755	0.25
386.961	0.22
387.168	0.18
387.374	0.18
387.58	0.23
387.787	0.15
387.993	0.17
388.199	0.17
388.406	0.23
388.612	0.16
388.818	0.17
389.024	0.16
389.231	0.18
389.437	0.28
389.643	0.23
389.849	0.19
390.055	0.19
390.261	0.21
390.467	0.23
390.674	0.17
390.88	0.21
391.086	0.25
391.292	0.18
391.498	0.21
391.704	0.25
391.91	0.22
392.116	0.19
392.322	0.11
392.528	0.22
392.734	0.17
392.94	0.22
393.146	0.2
393.352	0.24
393.557	0.19
393.763	0.21
393.969	0.27
394.175	0.2
394.381	0.23
394.587	0.14
394.792	0.18
394.998	0.26
395.204	0.25
395.41	0.23
395.615	0.19
395.821	0.23
396.027	0.28
396.233	0.18
396.438	0.25
396.644	0.24
396.85	0.23
397.055	0.17
397.261	0.26
397.466	0.37
397.672	0.24
397.878	0.23
398.083	0.26
398.289	0.2
398.494	0.27
398.7	0.27
398.905	0.18
399.111	0.33
399.316	0.18
399.522	0.22
399.727	0.23
399.932	0.2
400.138	0.24
400.343	0.26
400.549	0.21
400.754	0.25
400.959	0.24
401.165	0.21
401.37	0.22
401.575	0.29
401.78	0.25
401.986	0.25
402.191	0.23
402.396	0.24
402.601	0.23
402.807	0.28
403.012	0.3
403.217	0.32
403.422	0.26
403.627	0.27
403.832	0.25
404.037	0.3
404.243	0.31
404.448	0.27
404.653	0.26
404.858	0.3
405.063	0.29
405.268	0.27
405.473	0.23
405.678	0.25
405.883	0.44
406.088	0.35
406.293	0.25
406.498	0.29
406.703	0.36
406.907	0.3
407.112	0.3
407.317	0.34
407.522	0.38
407.727	0.31
407.932	0.34
408.136	0.49
408.341	0.37
408.546	0.32
408.751	0.39
408.956	0.36
409.16	0.45
409.365	0.37
409.57	0.37
409.774	0.38
409.979	0.47
410.184	0.43
410.388	0.39
410.593	0.46
410.798	0.47
411.002	0.46
411.207	0.54
411.411	0.56
411.616	0.49
411.82	0.58
412.025	0.55
412.229	0.55
412.434	0.64
412.638	0.62
412.843	0.54
413.047	0.64
413.252	0.6
413.456	0.64
413.66	0.7
413.865	0.68
414.069	0.8
414.273	0.75
414.478	0.73
414.682	0.74
414.886	0.8
415.091	0.81
415.295	0.8
415.499	0.88
415.703	0.89
415.908	0.97
416.112	0.91
416.316	1.05
416.52	1.03
416.724	1.03
416.929	1.1
417.133	1.24
417.337	1.12
417.541	1.2
417.745	1.18
417.949	1.31
418.153	1.36
418.357	1.38
418.561	1.58
418.765	1.5
418.969	1.64
419.173	1.61
419.377	1.56
419.581	1.84
419.785	1.75
419.989	1.77
420.193	1.95
420.397	1.96
420.601	2.09
420.804	2.14
421.008	2.12
421.212	2.24
421.416	2.22
421.62	2.15
421.823	2.32
422.027	2.47
422.231	2.38
422.435	2.37
422.638	2.42
422.842	2.5
423.046	2.56
423.249	2.67
423.453	2.77
423.657	2.84
423.86	2.89
424.064	2.93
424.268	3.09
424.471	3.09
424.675	3.26
424.878	3.29
425.082	3.36
425.285	3.56
425.489	3.55
425.692	3.69
425.896	3.61
426.099	3.78
426.303	3.86
426.506	3.9
426.71	4.11
426.913	4.31
427.116	4.4
427.32	4.34
427.523	4.4
427.726	4.57
427.93	4.72
428.133	4.89
428.336	4.98
428.54	5.11
428.743	5.27
428.946	5.45
429.149	5.41
429.353	5.4
429.556	5.55
429.759	5.52
429.962	5.61
430.165	5.74
430.368	5.43
430.571	5.5
430.775	5.56
430.978	5.48
431.181	5.58
431.384	5.61
431.587	5.62
431.79	5.91
431.993	5.77
432.196	6.07
432.399	6.25
432.602	6.45
432.805	6.43
433.008	6.88
433.211	6.68
433.414	7.12
433.616	7.07
433.819	6.91
434.022	7.1
434.225	7.17
434.428	7.27
434.631	7.53
434.833	7.39
435.036	7.52
435.239	7.73
435.442	7.59
435.645	7.77
435.847	7.83
436.05	8.04
436.253	8.25
436.455	8.13
436.658	8.27
436.861	8.44
437.063	8.39
437.266	8.49
437.468	8.65
437.671	9
437.874	8.91
438.076	8.87
438.279	9.19
438.481	9.28
438.684	9.81
438.886	9.41
439.089	9.66
439.291	9.66
439.494	9.98
439.696	10.09
439.899	10.51
440.101	10.83
440.303	10.93
440.506	11.38
440.708	11.3
440.91	11.54
441.113	11.64
441.315	11.78
441.517	11.63
441.72	12.03
441.922	11.73
442.124	11.75
442.326	12.15
442.529	12.24
442.731	12.17
442.933	12.45
443.135	12.22
443.337	12.35
443.539	12.74
443.742	12.62
443.944	12.94
444.146	12.8
444.348	12.7
444.55	12.72
444.752	12.91
444.954	12.85
445.156	12.82
445.358	13.08
445.56	13.32
445.762	13.13
445.964	13.59
446.166	13.27
446.368	13.31
446.57	13.28
446.772	12.91
446.974	12.89
447.175	13.17
447.377	12.71
447.579	13.12
447.781	12.88
447.983	12.83
448.184	12.31
448.386	12.73
448.588	12.32
448.79	12.34
448.991	12.61
449.193	12.55
449.395	12.01
449.597	11.82
449.798	11.63
450	11.28
450.202	11.41
450.403	11.24
450.605	11.23
450.806	11.04
451.008	10.78
451.21	10.67
451.411	10.33
451.613	9.84
451.814	10.03
452.016	9.95
452.217	9.29
452.419	9.47
452.62	9.17
452.821	9.02
453.023	8.9
453.224	8.61
453.426	8.33
453.627	7.87
453.828	7.98
454.03	7.82
454.231	7.87
454.432	7.74
454.634	7.55
454.835	7.34
455.036	7.21
455.238	7.01
455.439	6.79
455.64	6.61
455.841	6.5
456.042	6.6
456.244	6.33
456.445	6.11
456.646	5.97
456.847	5.89
457.048	5.84
457.249	5.87
457.45	5.68
457.651	5.41
457.852	5.2
458.054	4.94
458.255	4.98
458.456	5.02
458.657	4.9
458.858	4.69
459.058	4.6
459.259	4.61
459.46	4.42
459.661	4.41
459.862	4.47
460.063	4.29
460.264	4.36
460.465	4.07
460.666	4.16
460.866	3.95
461.067	3.73
461.268	3.81
461.469	3.83
461.67	3.69
461.87	3.54
462.071	3.55
462.272	3.57
462.473	3.49
462.673	3.65
462.874	3.49
463.075	3.52
463.275	3.46
463.476	3.51
463.676	3.45
463.877	3.46
464.078	3.36
464.278	3.48
464.479	3.26
464.679	3.31
464.88	3.19
465.08	3.2
465.281	3.07
465.481	2.91
465.682	2.8
465.882	2.85
466.083	2.8
466.283	2.73
466.483	2.65
466.684	2.53
466.884	2.42
467.085	2.46
467.285	2.56
467.485	2.46
467.686	2.41
467.886	2.32
468.086	2.33
468.286	2.27
468.487	2.38
468.687	2.19
468.887	2.23
469.087	2.27
469.287	2.22
469.488	2.01
469.688	2.19
469.888	2.14
470.088	2.1
470.288	2.03
470.488	2.02
470.688	1.89
470.888	1.96
471.088	1.76
471.288	1.92
471.488	1.9
471.688	1.89
471.888	1.77
472.088	1.94
472.288	1.78
472.488	1.74
472.688	1.67
472.888	1.77
473.088	1.75
473.288	1.7
473.488	1.63
473.688	1.84
473.887	1.69
474.087	1.64
474.287	1.64
474.487	1.57
474.687	1.68
474.886	1.56
475.086	1.54
475.286	1.6
475.486	1.55
475.685	1.48
475.885	1.46
476.085	1.5
476.284	1.53
476.484	1.52
476.684	1.48
476.883	1.56
477.083	1.49
477.282	1.43
477.482	1.54
477.681	1.47
477.881	1.37
478.08	1.38
478.28	1.32
478.479	1.37
478.679	1.47
478.878	1.39
479.078	1.35
479.277	1.39
479.477	1.39
479.676	1.41
479.875	1.34
480.075	1.29
480.274	1.4
480.473	1.41
480.673	1.36
480.872	1.42
481.071	1.39
481.271	1.42
481.47	1.33
481.669	1.38
481.868	1.3
482.067	1.35
482.267	1.28
482.466	1.29
482.665	1.3
482.864	1.29
483.063	1.29
483.262	1.37
483.461	1.37
483.661	1.42
483.86	1.38
484.059	1.42
484.258	1.37
484.457	1.38
484.656	1.36
484.855	1.43
485.054	1.28
485.253	1.29
485.452	1.31
485.651	1.43
485.849	1.36
486.048	1.38
486.247	1.36
486.446	1.42
486.645	1.33
486.844	1.42
487.043	1.4
487.241	1.44
487.44	1.41
487.639	1.45
487.838	1.44
488.037	1.44
488.235	1.52
488.434	1.48
488.633	1.4
488.831	1.53
489.03	1.55
489.229	1.54
489.427	1.54
489.626	1.57
489.825	1.58
490.023	1.61
490.222	1.55
490.42	1.62
490.619	1.63
490.817	1.61
491.016	1.6
491.214	1.67
491.413	1.66
491.611	1.65
491.81	1.64
492.008	1.66
492.207	1.76
492.405	1.76
492.604	1.71
492.802	1.77
493	1.8
493.199	1.81
493.397	1.83
493.595	1.86
493.794	1.84
493.992	1.93
494.19	1.89
494.388	1.94
494.587	1.87
494.785	1.95
494.983	1.89
495.181	1.98
495.379	2
495.578	2.09
495.776	2.04
495.974	2.05
496.172	2.06
496.37	2.18
496.568	2.15
496.766	2.17
496.964	2.24
497.162	2.23
497.36	2.21
497.558	2.28
497.756	2.32
497.954	2.31
498.152	2.34
498.35	2.42
498.548	2.35
498.746	2.4
498.944	2.39
499.142	2.42
499.34	2.46
499.538	2.55
499.736	2.43
499.933	2.58
500.131	2.59
500.329	2.68
500.527	2.65
500.725	2.71
500.922	2.7
501.12	2.74
501.318	2.82
501.516	2.73
501.713	2.83
501.911	2.85
502.109	2.79
502.306	2.92
502.504	2.84
502.701	2.9
502.899	2.92
503.097	3.08
503.294	2.98
503.492	3.01
503.689	3.08
503.887	3.08
504.084	3.18
504.282	3.15
504.479	3.12
504.677	3.21
504.874	3.2
505.072	3.2
505.269	3.32
505.466	3.31
505.664	3.36
505.861	3.29
506.059	3.38
506.256	3.39
506.453	3.45
506.651	3.57
506.848	3.57
507.045	3.57
507.242	3.53
507.44	3.59
507.637	3.67
507.834	3.62
508.031	3.68
508.229	3.64
508.426	3.65
508.623	3.77
508.82	3.77
509.017	3.72
509.214	3.77
509.411	3.85
509.608	3.82
509.805	3.91
510.003	3.88
510.2	3.92
510.397	4.09
510.594	3.93
510.791	4.02
510.988	3.97
511.184	4
511.381	3.97
511.578	4.04
511.775	4.19
511.972	4.07
512.169	4.14
512.366	4.19
512.563	4.26
512.76	4.28
512.956	4.33
513.153	4.22
513.35	4.23
513.547	4.23
513.744	4.31
513.94	4.27
514.137	4.38
514.334	4.37
514.53	4.41
514.727	4.54
514.924	4.51
515.12	4.48
515.317	4.49
515.514	4.46
515.71	4.41
515.907	4.6
516.103	4.55
516.3	4.54
516.497	4.63
516.693	4.61
516.89	4.64
517.086	4.65
517.283	4.71
517.479	4.58
517.676	4.72
517.872	4.75
518.068	4.74
518.265	4.75
518.461	4.67
518.658	4.76
518.854	4.82
519.05	4.78
519.247	4.85
519.443	4.82
519.639	4.97
519.836	4.81
520.032	4.85
520.228	4.93
520.424	4.92
520.621	4.93
520.817	4.97
521.013	4.97
521.209	5.07
521.405	5.09
521.601	5.01
521.798	5.01
521.994	5.02
522.19	4.94
522.386	5.01
522.582	5.1
522.778	5.16
522.974	5.07
523.17	5.11
523.366	5.09
523.562	5.18
523.758	5.15
523.954	5.06
524.15	5.16
524.346	5.2
524.542	5.16
524.738	5.14
524.934	5.23
525.129	5.27
525.325	5.17
525.521	5.2
525.717	5.33
525.913	5.25
526.109	5.22
526.304	5.3
526.5	5.33
526.696	5.33
526.892	5.25
527.087	5.44
527.283	5.35
527.479	5.34
527.674	5.24
527.87	5.38
528.066	5.28
528.261	5.42
528.457	5.34
528.653	5.43
528.848	5.4
529.044	5.47
529.239	5.38
529.435	5.38
529.63	5.35
529.826	5.34
530.021	5.41
530.217	5.46
530.412	5.41
530.608	5.42
530.803	5.42
530.999	5.35
531.194	5.43
531.389	5.49
531.585	5.49
531.78	5.55
531.975	5.49
532.171	5.54
532.366	5.57
532.561	5.54
532.757	5.47
532.952	5.63
533.147	5.49
533.342	5.56
533.538	5.45
533.733	5.65
533.928	5.38
534.123	5.55
534.318	5.57
534.513	5.53
534.709	5.63
534.904	5.61
535.099	5.66
535.294	5.62
535.489	5.68
535.684	5.56
535.879	5.56
536.074	5.67
536.269	5.65
536.464	5.69
536.659	5.62
536.854	5.62
537.049	5.69
537.244	5.59
537.439	5.61
537.634	5.63
537.828	5.7
538.023	5.69
538.218	5.65
538.413	5.55
538.608	5.64
538.803	5.62
538.997	5.66
539.192	5.67
539.387	5.61
539.582	5.61
539.776	5.57
539.971	5.68
540.166	5.73
540.36	5.63
540.555	5.74
540.75	5.66
540.944	5.65
541.139	5.67
541.334	5.67
541.528	5.68
541.723	5.76
541.917	5.79
542.112	5.62
542.306	5.53
542.501	5.57
542.695	5.69
542.89	5.59
543.084	5.71
543.279	5.68
543.473	5.74
543.668	5.74
543.862	5.64
544.056	5.63
544.251	5.73
544.445	5.78
544.64	5.76
544.834	5.56
545.028	5.47
545.222	5.69
545.417	5.79
545.611	5.75
545.805	5.76
546	5.59
546.194	5.76
546.388	5.75
546.582	5.68
546.776	5.73
546.97	5.71
547.165	5.75
547.359	5.63
547.553	5.67
547.747	5.77
547.941	5.91
548.135	5.73
548.329	5.76
548.523	5.75
548.717	5.64
548.911	5.65
549.105	5.67
549.299	5.8
549.493	5.75
549.687	5.69
549.881	5.81
550.075	5.71
550.269	5.69
550.463	5.75
550.657	5.75
550.85	5.71
551.044	5.7
551.238	5.77
551.432	5.77
551.626	5.79
551.82	5.75
552.013	5.64
552.207	5.79
552.401	5.82
552.594	5.77
552.788	5.69
552.982	5.73
553.176	5.68
553.369	5.83
553.563	5.78
553.756	5.72
553.95	5.77
554.144	5.76
554.337	5.74
554.531	5.6
554.724	5.82
554.918	5.81
555.111	5.75
555.305	5.74
555.498	5.66
555.692	5.81
555.885	5.78
556.079	5.73
556.272	5.77
556.466	5.78
556.659	5.72
556.852	5.76
557.046	5.72
557.239	5.67
557.432	5.66
557.626	5.77
557.819	5.81
558.012	5.77
558.206	5.78
558.399	5.76
558.592	5.72
558.785	5.7
558.979	5.77
559.172	5.78
559.365	5.73
559.558	5.74
559.751	5.66
559.944	5.8
560.138	5.72
560.331	5.77
560.524	5.76
560.717	5.75
560.91	5.75
561.103	5.75
561.296	5.72
561.489	5.78
561.682	5.79
561.875	5.78
562.068	5.83
562.261	5.72
562.454	5.87
562.647	5.7
562.84	5.81
563.032	5.81
563.225	5.67
563.418	5.75
563.611	5.79
563.804	5.78
563.997	5.66
564.19	5.57
564.382	5.79
564.575	5.72
564.768	5.72
564.961	5.76
565.153	5.68
565.346	5.7
565.539	5.76
565.731	5.75
565.924	5.83
566.117	5.85
566.309	5.77
566.502	5.73
566.695	5.68
566.887	5.79
567.08	5.77
567.272	5.78
567.465	5.64
567.657	5.77
567.85	5.67
568.042	5.74
568.235	5.79
568.427	5.62
568.62	5.75
568.812	5.76
569.005	5.81
569.197	5.65
569.389	5.77
569.582	5.75
569.774	5.74
569.966	5.69
570.159	5.64
570.351	5.67
570.543	5.74
570.736	5.72
570.928	5.62
571.12	5.75
571.312	5.61
571.505	5.53
571.697	5.75
571.889	5.73
572.081	5.69
572.273	5.61
572.465	5.72
572.658	5.71
572.85	5.7
573.042	5.7
573.234	5.6
573.426	5.67
573.618	5.62
573.81	5.72
574.002	5.67
574.194	5.69
574.386	5.64
574.578	5.57
574.77	5.66
574.962	5.68
575.154	5.54
575.346	5.58
575.538	5.55
575.729	5.59
575.921	5.62
576.113	5.66
576.305	5.68
576.497	5.69
576.689	5.55
576.88	5.47
577.072	5.68
577.264	5.63
577.456	5.61
577.647	5.53
577.839	5.72
578.031	5.57
578.223	5.55
578.414	5.51
578.606	5.59
578.798	5.62
578.989	5.6
579.181	5.64
579.372	5.63
579.564	5.58
579.755	5.62
579.947	5.55
580.139	5.59
580.33	5.48
580.522	5.6
580.713	5.45
580.905	5.48
581.096	5.58
581.287	5.51
581.479	5.51
581.67	5.57
581.862	5.5
582.053	5.5
582.244	5.43
582.436	5.57
582.627	5.46
582.818	5.42
583.01	5.46
583.201	5.57
583.392	5.44
583.583	5.43
583.775	5.33
583.966	5.43
584.157	5.43
584.348	5.44
584.54	5.41
584.731	5.44
584.922	5.37
585.113	5.29
585.304	5.47
585.495	5.4
585.686	5.4
585.877	5.44
586.068	5.48
586.259	5.4
586.45	5.4
586.641	5.34
586.832	5.37
587.023	5.38
587.214	5.28
587.405	5.35
587.596	5.3
587.787	5.29
587.978	5.3
588.169	5.28
588.36	5.3
588.551	5.31
588.742	5.21
588.932	5.32
589.123	5.17
589.314	5.33
589.505	5.21
589.696	5.28
589.886	5.26
590.077	5.21
590.268	5.17
590.458	5.11
590.649	5.02
590.84	5.18
591.03	5.19
591.221	5.2
591.412	5.12
591.602	5.21
591.793	5.19
591.984	5.17
592.174	5.18
592.365	5.27
592.555	5.03
592.746	5.08
592.936	5.13
593.127	5.19
593.317	5.16
593.508	5.12
593.698	5.01
593.889	5.1
594.079	5.07
594.269	5
594.46	4.99
594.65	5.06
594.84	5.01
595.031	4.97
595.221	4.98
595.411	4.98
595.602	5.02
595.792	4.96
595.982	4.91
596.172	5.05
596.363	4.97
596.553	4.94
596.743	4.98
596.933	4.89
597.123	4.91
597.314	4.84
597.504	4.85
597.694	4.89
597.884	4.9
598.074	4.9
598.264	4.8
598.454	4.87
598.644	4.76
598.834	4.81
599.024	4.77
599.214	4.78
599.404	4.8
599.594	4.8
599.784	4.8
599.974	4.81
600.164	4.79
600.354	4.75
600.544	4.69
600.734	4.76
600.924	4.7
601.114	4.63
601.303	4.68
601.493	4.72
601.683	4.67
601.873	4.7
602.063	4.6
602.252	4.69
602.442	4.59
602.632	4.6
602.821	4.52
603.011	4.64
603.201	4.63
603.39	4.59
603.58	4.51
603.77	4.54
603.959	4.6
604.149	4.56
604.339	4.49
604.528	4.59
604.718	4.51
604.907	4.55
605.097	4.44
605.286	4.42
605.476	4.42
605.665	4.5
605.855	4.41
606.044	4.51
606.234	4.45
606.423	4.41
606.612	4.37
606.802	4.34
606.991	4.42
607.181	4.42
607.37	4.32
607.559	4.24
607.749	4.41
607.938	4.24
608.127	4.24
608.316	4.32
608.506	4.24
608.695	4.33
608.884	4.26
609.073	4.28
609.263	4.34
609.452	4.28
609.641	4.15
609.83	4.19
610.019	4.24
610.208	4.16
610.397	4.15
610.586	4.18
610.775	4.1
610.965	4.14
611.154	4.08
611.343	4.13
611.532	4.06
611.721	4.13
611.91	4.05
612.099	4.09
612.287	3.99
612.476	3.99
612.665	4.13
612.854	3.99
613.043	4.01
613.232	3.98
613.421	3.95
613.61	3.98
613.798	3.93
613.987	4
614.176	3.86
614.365	3.95
614.554	3.9
614.742	4
614.931	3.84
615.12	3.93
615.309	3.89
615.497	3.89
615.686	3.84
615.875	3.82
616.063	3.82
616.252	3.79
616.44	3.81
616.629	3.77
616.818	3.79
617.006	3.76
617.195	3.77
617.383	3.74
617.572	3.68
617.76	3.62
617.949	3.7
618.137	3.72
618.326	3.72
618.514	3.54
618.703	3.6
618.891	3.69
619.079	3.61
619.268	3.64
619.456	3.55
619.644	3.69
619.833	3.51
620.021	3.57
620.209	3.48
620.398	3.56
620.586	3.48
620.774	3.56
620.962	3.57
621.151	3.67
621.339	3.52
621.527	3.4
621.715	3.41
621.903	3.44
622.092	3.41
622.28	3.46
622.468	3.33
622.656	3.47
622.844	3.37
623.032	3.42
623.22	3.31
623.408	3.47
623.596	3.34
623.784	3.36
623.972	3.35
624.16	3.3
624.348	3.36
624.536	3.35
624.724	3.2
624.912	3.3
625.1	3.26
625.288	3.29
625.476	3.23
625.664	3.33
625.851	3.21
626.039	3.25
626.227	3.23
626.415	3.22
626.603	3.14
626.79	3.2
626.978	3.17
627.166	3.2
627.354	3.11
627.541	3.13
627.729	2.98
627.917	3.18
628.104	3.11
628.292	3.1
628.48	3.03
628.667	3.07
628.855	3.11
629.042	3.1
629.23	3.02
629.418	2.96
629.605	3.01
629.793	2.96
629.98	2.99
630.168	2.92
630.355	2.95
630.543	3.03
630.73	2.86
630.917	2.93
631.105	3
631.292	2.92
631.48	2.84
631.667	3.05
631.854	2.88
632.042	2.84
632.229	2.8
632.416	2.85
632.604	2.9
632.791	2.71
632.978	2.86
633.165	2.78
633.353	2.87
633.54	2.88
633.727	2.68
633.914	2.73
634.101	2.68
634.289	2.83
634.476	2.67
634.663	2.66
634.85	2.76
635.037	2.68
635.224	2.62
635.411	2.74
635.598	2.69
635.785	2.64
635.972	2.58
636.159	2.68
636.346	2.61
636.533	2.56
636.72	2.61
636.907	2.53
637.094	2.59
637.281	2.47
637.468	2.55
637.655	2.54
637.842	2.52
638.029	2.49
638.215	2.5
638.402	2.5
638.589	2.44
638.776	2.44
638.963	2.42
639.149	2.52
639.336	2.48
639.523	2.44
639.709	2.44
639.896	2.41
640.083	2.42
640.27	2.42
640.456	2.4
640.643	2.34
640.829	2.24
641.016	2.31
641.203	2.28
641.389	2.35
641.576	2.35
641.762	2.29
641.949	2.25
642.135	2.31
642.322	2.28
642.508	2.18
642.695	2.28
642.881	2.26
643.068	2.2
643.254	2.24
643.441	2.27
643.627	2.23
643.813	2.1
644	2.26
644.186	2.11
644.372	2.15
644.559	2.18
644.745	2.14
644.931	2.09
645.118	2.16
645.304	2.1
645.49	2.12
645.676	2.11
645.862	2.08
646.049	2.18
646.235	2.07
646.421	2.16
646.607	2.2
646.793	2.04
646.979	1.91
647.165	2.03
647.352	2.04
647.538	2
647.724	2
647.91	1.95
648.096	2.02
648.282	1.96
648.468	1.92
648.654	2
648.84	2
649.026	1.96
649.212	1.92
649.397	1.91
649.583	1.9
649.769	1.92
649.955	1.87
650.141	1.95
650.327	1.93
650.513	1.86
650.698	1.88
650.884	1.75
651.07	1.89
651.256	1.85
651.442	1.84
651.627	1.78
651.813	1.84
651.999	1.77
652.184	1.8
652.37	1.81
652.556	1.75
652.741	1.78
652.927	1.65
653.113	1.76
653.298	1.71
653.484	1.73
653.669	1.69
653.855	1.68
654.04	1.77
654.226	1.71
654.412	1.69
654.597	1.61
654.782	1.75
654.968	1.71
655.153	1.68
655.339	1.63
655.524	1.58
655.71	1.71
655.895	1.64
656.08	1.64
656.266	1.68
656.451	1.61
656.636	1.56
656.822	1.58
657.007	1.58
657.192	1.58
657.378	1.5
657.563	1.6
657.748	1.56
657.933	1.56
658.118	1.51
658.304	1.52
658.489	1.61
658.674	1.58
658.859	1.45
659.044	1.48
659.229	1.55
659.414	1.48
659.599	1.46
659.785	1.49
659.97	1.45
660.155	1.52
660.34	1.54
660.525	1.47
660.71	1.49
660.895	1.44
661.08	1.45
661.264	1.39
661.449	1.49
661.634	1.47
661.819	1.47
662.004	1.42
662.189	1.35
662.374	1.41
662.559	1.34
662.743	1.3
662.928	1.37
663.113	1.24
663.298	1.3
663.483	1.37
663.667	1.4
663.852	1.27
664.037	1.36
664.221	1.29
664.406	1.39
664.591	1.36
664.775	1.38
664.96	1.31
665.145	1.32
665.329	1.34
665.514	1.27
665.698	1.27
665.883	1.21
666.068	1.33
666.252	1.25
666.437	1.21
666.621	1.18
666.806	1.3
666.99	1.25
667.174	1.19
667.359	1.25
667.543	1.21
667.728	1.25
667.912	1.17
668.096	1.2
668.281	1.14
668.465	1.25
668.649	1.17
668.834	1.14
669.018	1.15
669.202	1.15
669.387	1.17
669.571	1.2
669.755	1.1
669.939	1.14
670.124	1.13
670.308	1.22
670.492	1.18
670.676	1.15
670.86	1.14
671.044	1.12
671.228	1.18
671.413	1.09
671.597	1.05
671.781	1.04
671.965	1.14
672.149	1.11
672.333	1.1
672.517	1.07
672.701	1.12
672.885	1.07
673.069	0.96
673.253	1.16
673.437	1.07
673.621	1.02
673.804	1.05
673.988	1.08
674.172	1.05
674.356	0.95
674.54	1.04
674.724	1.12
674.908	0.98
675.091	1.08
675.275	0.97
675.459	1.07
675.643	1.12
675.826	0.98
676.01	0.97
676.194	1.01
676.377	1.03
676.561	1.01
676.745	1.01
676.928	1
677.112	1.1
677.296	0.95
677.479	0.88
677.663	0.99
677.846	1.02
678.03	0.95
678.213	0.9
678.397	1.01
678.58	0.91
678.764	0.96
678.947	0.83
679.131	0.9
679.314	0.97
679.498	0.95
679.681	0.98
679.865	0.96
680.048	0.93
680.231	0.91
680.415	0.88
680.598	0.82
680.781	0.89
680.965	0.91
681.148	0.86
681.331	0.88
681.514	0.94
681.698	0.84
681.881	0.9
682.064	0.89
682.247	0.88
682.43	0.78
682.614	0.89
682.797	0.9
682.98	0.94
683.163	0.78
683.346	0.88
683.529	0.82
683.712	0.8
683.895	0.85
684.078	0.81
684.261	0.82
684.444	0.84
684.627	0.87
684.81	0.81
684.993	0.79
685.176	0.83
685.359	0.73
685.542	0.78
685.725	0.84
685.908	0.8
686.091	0.73
686.274	0.8
686.457	0.81
686.639	0.75
686.822	0.82
687.005	0.76
687.188	0.81
687.371	0.92
687.553	0.8
687.736	0.79
687.919	0.86
688.102	0.83
688.284	0.76
688.467	0.77
688.65	0.73
688.832	0.71
689.015	0.71
689.197	0.63
689.38	0.82
689.563	0.8
689.745	0.67
689.928	0.66
690.11	0.69
690.293	0.74
690.475	0.68
690.658	0.68
690.84	0.7
691.023	0.65
691.205	0.65
691.388	0.65
691.57	0.73
691.752	0.74
691.935	0.55
692.117	0.63
692.3	0.69
692.482	0.65
692.664	0.68
692.847	0.72
693.029	0.79
693.211	0.66
693.393	0.68
693.576	0.62
693.758	0.66
693.94	0.61
694.122	0.63
694.304	0.64
694.487	0.61
694.669	0.72
694.851	0.61
695.033	0.62
695.215	0.57
695.397	0.62
695.579	0.62
695.761	0.55
695.943	0.53
696.125	0.7
696.308	0.62
696.49	0.53
696.671	0.74
696.853	0.61
697.035	0.79
697.217	0.54
697.399	0.65
697.581	0.55
697.763	0.6
697.945	0.59
698.127	0.61
698.309	0.65
698.491	0.58
698.672	0.6
698.854	0.67
699.036	0.66
699.218	0.58
699.399	0.56
699.581	0.6
699.763	0.52
699.945	0.52
700.126	0.51
700.308	0.5
700.49	0.62
700.671	0.48
700.853	0.54
701.035	0.49
701.216	0.59
701.398	0.43
701.579	0.5
701.761	0.66
701.943	0.48
702.124	0.53
702.306	0.52
702.487	0.77
702.669	0.57
702.85	0.46
703.031	0.49
703.213	0.62
703.394	0.58
703.576	0.47
703.757	0.66
703.938	0.56
704.12	0.69
704.301	0.53
704.483	0.43
704.664	0.5
704.845	0.62
705.026	0.56
705.208	0.49
705.389	0.43
705.57	0.53
705.751	0.55
705.933	0.5
706.114	0.56
706.295	0.44
706.476	0.44
706.657	0.61
706.838	0.58
707.02	0.51
707.201	0.48
707.382	0.46
707.563	0.47
707.744	0.48
707.925	0.39
708.106	0.47
708.287	0.49
708.468	0.63
708.649	0.49
708.83	0.53
709.011	0.39
709.192	0.51
709.373	0.35
709.554	0.48
709.734	0.55
709.915	0.49
710.096	0.46
710.277	0.34
710.458	0.44
710.639	0.48
710.819	0.33
711	0.46
711.181	0.47
711.362	0.5
711.542	0.45
711.723	0.53
711.904	0.52
712.085	0.48
712.265	0.49
712.446	0.32
712.627	0.42
712.807	0.52
712.988	0.49
713.168	0.27
713.349	0.45
713.53	0.32
713.71	0.36
713.891	0.34
714.071	0.49
714.252	0.47
714.432	0.39
714.613	0.35
714.793	0.46
714.974	0.45
715.154	0.49
715.334	0.49
715.515	0.52
715.695	0.34
715.876	0.41
716.056	0.37
716.236	0.35
716.417	0.42
716.597	0.37
716.777	0.61
716.957	0.41
717.138	0.38
717.318	0.42
717.498	0.34
717.678	0.41
717.859	0.43
718.039	0.25
718.219	0.4
718.399	0.4
718.579	0.36
718.759	0.29
718.939	0.35
719.12	0.42
719.3	0.42
719.48	0.23
719.66	0.28
719.84	0.49
720.02	0.34
720.2	0.24
720.38	0.4
720.56	0.55
720.74	0.24
720.92	0.32
721.1	0.51
721.279	0.45
721.459	0.42
721.639	0.26
721.819	0.4
721.999	0.35
722.179	0.41
722.359	0.29
722.538	0.33
722.718	0.41
722.898	0.35
723.078	0.34
723.257	0.31
723.437	0.4
723.617	0.39
723.797	0.3
723.976	0.38
724.156	0.41
724.336	0.54
724.515	0.55
724.695	0.25
724.874	0.39
725.054	0.42
725.234	0.31
725.413	0.3
725.593	0.39
725.772	0.41
725.952	0.39
726.131	0.29
726.311	0.39
726.49	0.4
726.67	0.26
726.849	0.24
727.028	0.44
727.208	0.35
727.387	0.31
727.567	0.24
727.746	0.35
727.925	0.28
728.105	0.22
728.284	0.31
728.463	0.31
728.643	0.44
728.822	0.28
729.001	0.23
729.18	0.39
729.359	0.35
729.539	0.31
729.718	0.43
729.897	0.35
730.076	0.25
730.255	0.23
730.434	0.31
730.614	0.44
730.793	0.36
730.972	0.38
731.151	0.42
731.33	0.38
731.509	0.3
731.688	0.33
731.867	0.29
732.046	0.2
732.225	0.49
732.404	0.25
732.583	0.21
732.762	0.37
732.941	0.38
733.12	0.4
733.298	0.3
733.477	0.41
733.656	0.32
733.835	0.19
734.014	0.44
734.193	0.32
734.371	0.25
734.55	0.37
734.729	0.17
734.908	0.42
735.086	0.32
735.265	0.39
735.444	0.16
735.623	0.2
735.801	0.29
735.98	0.37
736.159	0.25
736.337	0.4
736.516	0.38
736.694	0.27
736.873	0.31
737.052	0.53
737.23	0.42
737.409	0.35
737.587	0.62
737.766	0.25
737.944	0.32
738.123	0.34
738.301	0.35
738.479	0.34
738.658	0.38
738.836	0.05
739.015	0.23
739.193	0.41
739.371	0.18
739.55	0.25
739.728	0.23
739.906	0.41
740.085	0.51
740.263	0.3
740.441	0.16
740.62	0.51
740.798	0.43
740.976	0.2
741.154	0.23
741.332	0.41
741.511	0.38
741.689	0.37
741.867	0.39
742.045	0.3
742.223	0.31
742.401	0.26
742.579	0.2
742.757	0.38
742.935	0.2
743.114	0.3
743.292	0.32
743.47	0.29
743.648	0.31
743.826	0.22
744.004	0.33
744.181	0.43
744.359	0.16
744.537	0.36
744.715	0.23
744.893	0.23
745.071	0.23
745.249	0.3
745.427	0.21
745.605	0.34
745.782	0.26
745.96	0.29
746.138	0.34
746.316	0.36
746.493	0.27
746.671	0.3
746.849	0.25
747.027	0.44
747.204	0.22
747.382	0.24
747.56	0.23
747.737	0.31
747.915	0.25
748.093	0.41
748.27	0.25
748.448	0.34
748.625	0.18
748.803	0.27
748.98	0.34
749.158	0.24
749.335	0.35
749.513	0.26
749.69	0.25
749.868	0.25
750.045	0.36
750.223	0.26
750.4	0.04
750.578	0.47
750.755	0.28
750.932	0.04
751.11	0.4
751.287	0.2
751.464	0.42
751.642	0.01
751.819	0.25
751.996	0.33
752.173	0.23
752.351	0.14
752.528	0.26
752.705	0.23
752.882	0.12
753.06	0.15
753.237	0.42
753.414	0.46
753.591	0.43
753.768	0.28
753.945	0.2
754.122	0.23
754.299	0.4
754.476	0.16
754.654	0.25
754.831	0.29
755.008	0.4
755.185	0.21
755.362	0.22
755.539	0.34
755.716	0.18
755.892	0.25
756.069	0.19
756.246	0.21
756.423	0.15
756.6	0.32
756.777	0.13
756.954	0.41
757.131	0.26
757.307	0.2
757.484	0.16
757.661	0.22
757.838	0.28
758.015	0.12
758.191	0.31
758.368	0.31
758.545	0.39
758.721	0.34
758.898	0.11
759.075	0.29
759.251	0.38
759.428	0.29
759.605	0.12
759.781	0.25
759.958	0.21
760.134	0.2
760.311	0.23
760.488	0.46
760.664	0.39
760.841	0.19
761.017	0.15
761.194	0.32
761.37	0.4
761.547	0.19
761.723	0.28
761.899	0.42
762.076	0.24
762.252	0.07
762.429	0.21
762.605	0.33
762.781	0.18
762.958	0.33
763.134	0.2
763.31	0.2
763.486	0.44
763.663	0.04
763.839	0.22
764.015	0.04
764.191	0.18
764.368	0.26
764.544	0.12
764.72	0.2
764.896	0.35
765.072	0.24
765.248	0.26
765.425	0.09
765.601	0.17
765.777	0.25
765.953	-0.04
766.129	0.16
766.305	0.07
766.481	0.35
766.657	0.28
766.833	0.51
767.009	0.23
767.185	0.27
767.361	0.18
767.537	0.15
767.713	0.58
767.889	0.12
768.065	0.32
768.24	0.01
768.416	0.41
768.592	0.25
768.768	0.16
768.944	0.23
769.12	0.05
769.295	0.1
769.471	0.3
769.647	0.21
769.823	0.39
769.998	0.17
770.174	0.11
770.35	0.58
770.525	0.61
770.701	0.27
770.877	0.24
771.052	0.12
771.228	0.39
771.403	0.33
771.579	0.16
771.755	0.58
771.93	0.29
772.106	0.11
772.281	0.13
772.457	0.21
772.632	0.42
772.808	0.04
772.983	0.21
773.159	0.12
773.334	0.38
773.509	0.27
773.685	0.08
773.86	0.6
774.036	0.53
774.211	0.23
774.386	0.19
774.562	0.17
774.737	0.41
774.912	0.12
775.087	0.32
775.263	0.19
775.438	0.3
775.613	0.21
775.788	0.24
775.964	0.45
776.139	0.78
776.314	0.08
776.489	0.33
776.664	0.33
776.839	0.08
777.014	0.52
777.19	0.27
777.365	0.64
777.54	0.34
777.715	0.2
777.89	0.19
778.065	0.22
778.24	0.27
778.415	0.33
778.59	0.02
778.765	0.18
778.94	0.37
779.115	0.18
779.289	0.2
779.464	0.29
779.639	0.26
779.814	0.15
779.989	0.07
780.164	0.47
780.339	0.36
780.513	0.3
780.688	0.07
780.863	0.35
781.038	0.42
781.212	0.2
781.387	0.17
781.562	0.69
781.737	0.29
781.911	0.45
782.086	0.15
782.261	0.3
782.435	0.54
782.61	0.17
782.784	0.23
782.959	0.53
783.134	0.12
783.308	0.14
783.483	0.35
783.657	0.63
783.832	0.57
784.006	-0.11
784.181	0.21
784.355	0.3
784.53	0.02
784.704	0.17
784.878	0.69
785.053	0.3
785.227	0.62
785.402	0.58
785.576	0.04
785.75	0.16
785.925	0.27
786.099	0.43
786.273	0.28
786.448	0.53
786.622	0.29
786.796	0.23
786.97	0.33
787.145	0.63
787.319	-0.16
787.493	0.3
787.667	-0.19
787.841	0.21
788.015	0.62
788.19	0.16
788.364	0.22
788.538	0.3
788.712	0.32
788.886	0.23
789.06	0.49
789.234	0.52
789.408	0.16
789.582	0.18
789.756	0.32
789.93	0.08
790.104	0.18
790.278	0.19
790.452	0.04
790.626	0.22
790.8	0.29
790.973	0.48
791.147	0.52
791.321	0.58
791.495	0.48
791.669	0.38
791.843	0.47
792.016	0.29
792.19	0.81
792.364	0.08
792.538	0.69
792.711	0.49
792.885	0.22
793.059	0.2
793.233	0.27
793.406	0.31
793.58	0.31
793.754	0.51
793.927	0.19
794.101	0.69
794.274	0.14
794.448	0.49
794.622	-0.13
794.795	0.76
794.969	0.22
795.142	0.86
795.316	0.23
795.489	0.15
795.663	0.83
795.836	0.45
796.009	0.16
796.183	0.72
796.356	0.45
796.53	0.59
796.703	0.12
796.876	0.85
797.05	0.3
797.223	0.36
797.396	0.35
797.57	0.53
797.743	0.75
797.916	0.23
798.09	0.41
798.263	0.43
798.436	0.62
798.609	0.12
798.782	0.26
798.956	0.2
799.129	0.51
799.302	0.05
799.475	0.35
799.648	0.32
799.821	0.22
799.994	0.46
800.167	-0.14
800.34	0.39
800.514	0.35
800.687	0.25
800.86	0.02
801.033	0.22
801.206	0.51
801.379	0.18
801.551	0.58
801.724	0.6
801.897	0.9
802.07	0.15
802.243	0.09
802.416	0.43
802.589	0.21
802.762	0.61
802.935	0.3
803.107	0.56
803.28	0.69
803.453	0.65
803.626	0.48
803.798	0.3
803.971	0.3
804.144	0.71
804.317	0.47
804.489	0.44
804.662	0.25
804.835	0.64
805.007	0.18
805.18	0.94
805.353	0.43
805.525	0.11
805.698	0.34
805.87	0.75
806.043	0.94
806.215	0.2
806.388	0.06
806.56	0.43
806.733	0.66
806.905	0.39
807.078	0.04
807.25	0.02
807.423	0.51
807.595	0.47
807.768	0.05
807.94	0.45
808.112	0.47
808.285	0.7
808.457	0.39
808.629	0.44
808.802	0.65
808.974	0.34
809.146	0.05
809.318	-0.08
809.491	0.54
809.663	0.83
809.835	-0.03
810.007	0.3
810.18	0.04
810.352	-0.01
810.524	0.32
810.696	0.62
810.868	0.98
811.04	0.14
811.212	0.09
811.384	0.57
811.556	0.55
811.728	0.51
811.901	0.95
812.073	0.29
812.245	0.99
812.417	0.51
812.589	-0.36
812.76	0.46
812.932	0.42
813.104	0.66
813.276	0.28
813.448	0.91
813.62	0.07
813.792	0.63
813.964	0.44
814.136	0.53
814.307	0.34
814.479	0.41
814.651	0.27
814.823	1.53
814.995	0.04
815.166	0.26
815.338	0.11
815.51	-0.26
815.681	1.28
815.853	0.45
816.025	0.44
816.196	1.28
816.368	0.68
816.54	0.18
816.711	0.07
816.883	0.7
817.054	1.4
817.226	-0.84
817.398	0.66
817.569	0.16
817.741	0.19
817.912	0.34
818.084	0.23
818.255	0.69
818.426	0.01
818.598	0.48
818.769	0.18
818.941	0.67
819.112	1.03
819.283	0.4
819.455	0.17
819.626	0.56
819.798	0.96
819.969	0.73
820.14	0.57
820.311	0.4
820.483	0.95
820.654	0.51
820.825	0.16
820.996	0.68
821.168	0.16
821.339	-0.01
821.51	0.13
821.681	0.06
821.852	0.67
822.023	-0.14
822.195	0.15
822.366	0.99
822.537	0.54
822.708	0.84
822.879	-0.07
823.05	1.85
823.221	0.24
823.392	0.8
823.563	0.33
823.734	0.12
823.905	0.54
824.076	-0.26
824.247	0.38
824.418	0.01
824.589	1.13
824.759	0.05
824.93	0.35
825.101	0.12
825.272	1.27
825.443	1.35
825.614	0.94
825.784	0.1
825.955	1.46
826.126	1.09
826.297	0.29
826.467	1.23
826.638	1.67
826.809	-0.34
826.98	0.71
827.15	0.75
827.321	1.18
827.492	1.87
827.662	0.84
827.833	1.37
828.003	1
828.174	0.25
828.345	0.42
828.515	1.23
828.686	0.95
828.856	0.32
829.027	0.81
829.197	0.95
829.368	0.73
829.538	0.29
829.709	0.51
829.879	0.29
830.049	0.7
830.22	0.23
830.39	0.41
830.56	1.25
830.731	0.25
830.901	-0.04
831.072	0.53
831.242	0.36
831.412	0.79
831.582	0.21
831.753	0.39
831.923	1.23
832.093	0.46
832.263	0.36
832.434	0.1
832.604	0.28
832.774	0.6
832.944	0.26
833.114	0.21
833.284	0.56
833.454	-0.3
833.624	0.16
833.795	0.11
833.965	1.27
834.135	1.13
834.305	-0.84
834.475	-0.32
834.645	0.64
834.815	0.24
834.985	0.33
835.155	-0.21
835.325	0.96
835.494	1.43
835.664	0.25
835.834	-0.35
836.004	0.17
836.174	1.16
836.344	0.77
836.514	-0.76
836.684	0.08
836.853	0.92
837.023	0.52
837.193	0.43
837.363	1.05
837.532	1.41
837.702	0.93
837.872	0.5
838.041	1.29
838.211	2.38
838.381	0.19
838.55	0.85
838.72	2.78
838.89	1.63
839.059	0.29
839.229	0.19
839.398	1.92
839.568	0.53
839.738	0.36
839.907	1.72
840.077	0.83
840.246	0.14
840.416	0.38
840.585	-0.28
840.755	3.05
840.924	1.24
841.093	-0.05
841.263	0.23
841.432	0.92
841.602	0.5
841.771	-0.19
841.94	0.61
842.11	2.37
842.279	2.08
842.448	0.12
842.617	0.05
842.787	2.11
842.956	-0.76
843.125	0.79
843.294	0.14
843.464	1.96
843.633	1.21
843.802	-0.58
843.971	0.7
844.14	1
844.309	0.83
844.479	0.04
844.648	-0.09
844.817	0.33
844.986	0.64
845.155	0.23
845.324	0.39
845.493	1
845.662	-0.54
845.831	0.78
846	0.96
846.169	0.62
846.338	1.96
846.507	1.22
846.676	1.48
846.844	0.76
847.013	1.39
847.182	0.38
847.351	0.94
847.52	1.08
847.689	1.41
847.858	1.02
848.026	0.87
848.195	0.5
848.364	-0.15
848.533	-0.33
848.701	0.46
848.87	1.53
849.039	1.89
849.207	1.11
849.376	0.78
849.545	2.12
849.713	0.75
849.882	0.64
850.051	0.8
850.219	0.89
850.388	1.69
850.556	0.38
850.725	0.04
850.893	0.98
851.062	0.45
851.23	0.75
851.399	-0.23
851.567	0.93
851.736	-0.31
851.904	-0.08
852.073	0.18
852.241	2.08
852.41	1.1
852.578	1.49
852.746	-0.15
852.915	0.32
853.083	1.08
853.251	-0.48
853.42	-0.37
853.588	1.05
853.756	1.97
853.924	1.38
854.093	0.05
854.261	0.64
854.429	-0.08
854.597	1.29
854.765	-0.68
854.934	0.83
855.102	3.27
855.27	0.45
855.438	0.83
855.606	2.36
855.774	1.97
855.942	0.23
856.11	-0.5
856.278	1.04
856.446	2.42
856.614	1.1
856.782	0.32
856.95	1.22
857.118	1.77
857.286	1.14
857.454	0.02
857.622	1.61
857.79	0.71
857.958	-0.58
858.126	0.53
858.294	-1.96
858.462	0.71
858.629	0.57
858.797	-0.03
858.965	1.02
859.133	-0.07
859.301	0.8
859.468	0.73
859.636	1.24
859.804	2.98
859.971	1.87
860.139	0.16
860.307	1.83
860.474	1.17
860.642	0.56
860.81	-0.61
860.977	1.26
861.145	2.11
861.313	0.47
861.48	-0.01
861.648	1.67
861.815	0.61
861.983	-0.12
862.15	0.78
862.318	2.48
862.485	2.67
862.653	-0.18
862.82	-0.11
862.988	2.26
863.155	0.25
863.322	-0.9
863.49	1.13
863.657	0.56
863.824	2.29
863.992	2.37
864.159	1.6
864.326	3.68
864.494	0.24
864.661	4.26
864.828	-1.08
864.996	2.62
865.163	2.49
865.33	-0.51
865.497	-1.35
865.664	0.34
865.832	-1.61
865.999	1.4
866.166	0.2
866.333	-0.34
866.5	1
866.667	0.86
866.834	1.03
867.001	4.06
867.168	-0.54
867.335	0.94
867.502	-1.31
867.669	2.14
867.836	3.18
868.003	1.28
868.17	3.55
868.337	0.17
868.504	2.62
868.671	-1.84
868.838	0.62
869.005	1.46
869.172	1.88
869.339	1.62
869.505	0.73
869.672	1.9
869.839	3.37
870.006	0.15
870.173	-0.92
870.339	1.71
870.506	5.36
870.673	-0.44
870.84	3.23
871.006	3.35
871.173	0.44
871.34	1.65
871.506	0.7
871.673	2.23
871.839	0.17
872.006	0.68
872.173	1.03
872.339	-0.03
872.506	2.77
872.672	2.47
872.839	-0.53
873.005	1.66
873.172	3.41
873.338	1.98
873.505	1.83
873.671	1.24
873.838	0.8
874.004	-0.57
874.171	-0.54
874.337	2.73
874.503	2.89
874.67	0.76
874.836	1.09
875.002	3.34
875.169	4.94
875.335	1.82
875.501	0.55
875.668	3.81
875.834	0.77
876	0.08
876.166	4.16
876.332	3.17
876.499	5.1
876.665	-0.9
876.831	2.05
876.997	3.96
877.163	3.06
877.329	0.06
877.495	1.49
877.662	2.41
877.828	2.77
877.994	1.19
878.16	-1.66
878.326	0.08
878.492	1.97
878.658	0.69
878.824	0.38
878.99	2.03
879.156	3.36
879.322	5.65
879.487	-1.17
879.653	2.27
879.819	0.75
879.985	-1.83
880.151	1.54
880.317	4.08
880.483	3.63
880.648	1.58
880.814	-2.05
880.98	2.91
881.146	-0.31
881.312	0.06
881.477	1.1
881.643	0.74
881.809	2.59
881.974	2.7
882.14	-0.78
882.306	1.72
882.471	4.23
882.637	-0.65
882.803	2.16
882.968	4.05
883.134	5.28
883.299	2.91
883.465	1.39
883.63	3.4
883.796	2
883.961	2.04
884.127	2.3
884.292	-0.59
884.458	-1.65
884.623	-1.65
