Data from Apollo_Calib_20240827__AbsoluteIrradiance__3__23-12-02-669.txt Node

Date: Tue Aug 27 23:12:02 BST 2024
User: biology
Spectrometer: FLMT08252
Trigger mode: 0
Integration Time (sec): 5.000000E-1
Scans to average: 5
Electric dark correction enabled: true
Nonlinearity correction enabled: false
Boxcar width: 0
XAxis mode: Wavelengths
Number of Pixels in Spectrum: 3648
>>>>>Begin Spectral Data<<<<<
179.588	-0
179.809	-0
180.03	-0
180.251	-0
180.473	-0
180.694	0
180.915	0
181.136	-0
181.357	-0
181.578	0
181.799	-0
182.02	-0
182.241	-0
182.462	0
182.683	0
182.904	-0
183.125	0
183.346	0
183.567	0
183.788	0
184.009	0
184.23	0
184.451	0
184.672	0
184.892	0
185.113	0
185.334	0
185.555	0
185.776	0
185.996	0
186.217	0
186.438	0
186.659	0
186.879	0
187.1	0
187.321	0
187.541	0
187.762	0
187.983	0
188.203	0
188.424	0
188.644	0
188.865	0
189.086	0
189.306	0
189.527	0
189.747	0
189.968	0
190.188	0
190.409	0
190.629	0
190.849	0
191.07	0
191.29	0
191.511	0
191.731	0
191.951	0
192.172	0
192.392	0
192.612	0
192.833	0
193.053	0
193.273	0
193.493	0
193.714	0
193.934	0
194.154	0
194.374	0
194.594	0
194.815	0
195.035	0
195.255	0
195.475	0
195.695	0
195.915	0
196.135	0
196.355	0
196.575	0
196.795	0
197.015	0
197.235	0
197.455	0
197.675	0
197.895	0
198.115	0
198.335	0
198.555	0
198.775	0
198.995	0
199.214	0
199.434	0
199.654	0
199.874	0
200.094	3.53
200.313	3.16
200.533	2.43
200.753	2.55
200.973	2.95
201.192	2.42
201.412	1.66
201.632	2.59
201.851	3.23
202.071	2.1
202.291	1.9
202.51	1.77
202.73	2.76
202.95	2.1
203.169	1.64
203.389	1.95
203.608	2
203.828	1.47
204.047	2.12
204.267	2.39
204.486	2.24
204.706	2.14
204.925	2.18
205.145	1.98
205.364	2.46
205.583	2.21
205.803	1.48
206.022	1.46
206.242	1.62
206.461	2.02
206.68	1.31
206.9	2.11
207.119	2.06
207.338	1.46
207.557	1.27
207.777	1.55
207.996	1.64
208.215	1.93
208.434	1.44
208.654	1.27
208.873	1.57
209.092	1.77
209.311	1.27
209.53	1.17
209.749	1.36
209.968	1.09
210.187	1.42
210.407	0.85
210.626	1.2
210.845	1.22
211.064	1.31
211.283	1.21
211.502	1.68
211.721	1.4
211.94	1.12
212.159	1.49
212.377	1.21
212.596	1.52
212.815	1.28
213.034	1.39
213.253	1.24
213.472	1.2
213.691	1.22
213.91	1.02
214.128	0.97
214.347	1.39
214.566	0.97
214.785	0.61
215.003	1.26
215.222	1.08
215.441	1.1
215.66	0.89
215.878	0.99
216.097	1.24
216.316	0.81
216.534	0.86
216.753	0.83
216.972	0.83
217.19	0.96
217.409	0.68
217.627	0.83
217.846	0.97
218.064	1
218.283	0.85
218.501	1.21
218.72	1.01
218.938	0.73
219.157	0.61
219.375	1.03
219.594	0.84
219.812	0.7
220.031	0.88
220.249	1.11
220.467	1
220.686	0.67
220.904	0.67
221.122	0.67
221.341	0.97
221.559	0.86
221.777	0.77
221.995	0.76
222.214	0.71
222.432	0.76
222.65	0.93
222.868	0.82
223.086	0.94
223.305	0.87
223.523	0.63
223.741	0.93
223.959	0.47
224.177	0.52
224.395	0.69
224.613	0.8
224.831	0.79
225.049	0.64
225.267	0.78
225.485	0.82
225.703	0.59
225.921	0.8
226.139	0.83
226.357	0.75
226.575	0.69
226.793	0.67
227.011	1.04
227.229	0.71
227.447	0.69
227.665	0.69
227.883	0.5
228.1	0.66
228.318	0.67
228.536	0.45
228.754	0.6
228.972	0.65
229.189	0.68
229.407	0.65
229.625	0.66
229.843	0.8
230.06	0.61
230.278	0.53
230.496	0.83
230.713	0.66
230.931	0.49
231.149	0.67
231.366	0.55
231.584	0.61
231.801	0.77
232.019	0.64
232.236	0.57
232.454	0.58
232.671	0.68
232.889	0.53
233.106	0.45
233.324	0.61
233.541	0.64
233.759	0.62
233.976	0.63
234.194	0.56
234.411	0.41
234.628	0.51
234.846	0.61
235.063	0.63
235.28	0.55
235.498	0.76
235.715	0.45
235.932	0.65
236.149	0.56
236.367	0.6
236.584	0.6
236.801	0.55
237.018	0.74
237.236	0.55
237.453	0.47
237.67	0.61
237.887	0.5
238.104	0.51
238.321	0.42
238.538	0.45
238.755	0.59
238.973	0.47
239.19	0.55
239.407	0.61
239.624	0.49
239.841	0.47
240.058	0.45
240.275	0.53
240.492	0.49
240.709	0.61
240.925	0.53
241.142	0.51
241.359	0.4
241.576	0.4
241.793	0.35
242.01	0.57
242.227	0.6
242.444	0.56
242.66	0.66
242.877	0.48
243.094	0.45
243.311	0.56
243.527	0.44
243.744	0.49
243.961	0.47
244.178	0.49
244.394	0.52
244.611	0.57
244.828	0.61
245.044	0.41
245.261	0.42
245.477	0.42
245.694	0.5
245.911	0.36
246.127	0.53
246.344	0.51
246.56	0.47
246.777	0.43
246.993	0.58
247.21	0.44
247.426	0.45
247.643	0.53
247.859	0.37
248.076	0.41
248.292	0.57
248.508	0.41
248.725	0.5
248.941	0.44
249.157	0.58
249.374	0.44
249.59	0.46
249.806	0.47
250.023	0.46
250.239	0.45
250.455	0.38
250.671	0.43
250.888	0.46
251.104	0.49
251.32	0.42
251.536	0.37
251.752	0.32
251.969	0.47
252.185	0.48
252.401	0.57
252.617	0.48
252.833	0.38
253.049	0.44
253.265	0.4
253.481	0.48
253.697	0.51
253.913	0.39
254.129	0.43
254.345	0.36
254.561	0.34
254.777	0.4
254.993	0.45
255.209	0.4
255.425	0.38
255.641	0.38
255.857	0.55
256.073	0.44
256.288	0.3
256.504	0.39
256.72	0.41
256.936	0.51
257.152	0.41
257.367	0.33
257.583	0.45
257.799	0.44
258.015	0.33
258.23	0.36
258.446	0.48
258.662	0.42
258.877	0.36
259.093	0.37
259.309	0.36
259.524	0.41
259.74	0.38
259.955	0.27
260.171	0.37
260.387	0.38
260.602	0.46
260.818	0.46
261.033	0.33
261.249	0.37
261.464	0.38
261.68	0.31
261.895	0.44
262.11	0.49
262.326	0.31
262.541	0.34
262.757	0.42
262.972	0.35
263.187	0.37
263.403	0.37
263.618	0.4
263.833	0.35
264.049	0.33
264.264	0.42
264.479	0.4
264.694	0.44
264.91	0.26
265.125	0.34
265.34	0.37
265.555	0.44
265.77	0.38
265.986	0.36
266.201	0.43
266.416	0.48
266.631	0.37
266.846	0.39
267.061	0.36
267.276	0.38
267.491	0.26
267.706	0.37
267.921	0.39
268.136	0.35
268.351	0.38
268.566	0.37
268.781	0.45
268.996	0.33
269.211	0.36
269.426	0.36
269.641	0.3
269.856	0.36
270.071	0.33
270.285	0.27
270.5	0.42
270.715	0.37
270.93	0.33
271.145	0.36
271.359	0.37
271.574	0.24
271.789	0.37
272.004	0.4
272.218	0.31
272.433	0.44
272.648	0.23
272.862	0.37
273.077	0.29
273.292	0.37
273.506	0.33
273.721	0.36
273.936	0.41
274.15	0.4
274.365	0.32
274.579	0.43
274.794	0.37
275.008	0.39
275.223	0.3
275.437	0.34
275.652	0.47
275.866	0.35
276.081	0.34
276.295	0.38
276.509	0.35
276.724	0.28
276.938	0.37
277.153	0.36
277.367	0.38
277.581	0.3
277.796	0.34
278.01	0.32
278.224	0.4
278.438	0.43
278.653	0.26
278.867	0.32
279.081	0.08
279.295	0.31
279.51	0.34
279.724	0.23
279.938	0.31
280.152	0.31
280.366	0.26
280.58	0.37
280.794	0.36
281.008	0.33
281.222	0.34
281.437	0.4
281.651	0.3
281.865	0.41
282.079	0.31
282.293	0.25
282.507	0.31
282.721	0.34
282.935	0.37
283.148	0.25
283.362	0.27
283.576	0.29
283.79	0.33
284.004	0.27
284.218	0.31
284.432	0.25
284.646	0.3
284.859	0.29
285.073	0.3
285.287	0.31
285.501	0.3
285.714	0.26
285.928	0.34
286.142	0.29
286.356	0.27
286.569	0.3
286.783	0.35
286.997	0.28
287.21	0.29
287.424	0.35
287.637	0.23
287.851	0.27
288.065	0.31
288.278	0.32
288.492	0.33
288.705	0.25
288.919	0.31
289.132	0.27
289.346	0.3
289.559	0.24
289.773	0.24
289.986	0.29
290.2	0.33
290.413	0.31
290.626	0.27
290.84	0.3
291.053	0.31
291.267	0.37
291.48	0.29
291.693	0.3
291.906	0.23
292.12	0.26
292.333	0.23
292.546	0.23
292.76	0.3
292.973	0.29
293.186	0.3
293.399	0.26
293.612	0.33
293.826	0.28
294.039	0.27
294.252	0.28
294.465	0.29
294.678	0.3
294.891	0.26
295.104	0.28
295.317	0.24
295.53	0.25
295.743	0.26
295.956	0.3
296.169	0.26
296.382	0.29
296.595	0.27
296.808	0.23
297.021	0.31
297.234	0.24
297.447	0.3
297.66	0.24
297.873	0.28
298.086	0.26
298.299	0.25
298.511	0.24
298.724	0.23
298.937	0.21
299.15	0.27
299.363	0.22
299.575	0.26
299.788	0.28
300.001	0.25
300.213	0.23
300.426	0.26
300.639	0.22
300.852	0.2
301.064	0.37
301.277	0.33
301.489	0.31
301.702	0.29
301.915	0.24
302.127	0.27
302.34	0.25
302.552	0.29
302.765	0.26
302.977	0.32
303.19	0.24
303.402	0.27
303.615	0.2
303.827	0.22
304.04	0.24
304.252	0.32
304.464	0.25
304.677	0.32
304.889	0.33
305.102	0.27
305.314	0.21
305.526	0.31
305.739	0.26
305.951	0.25
306.163	0.25
306.375	0.33
306.588	0.22
306.8	0.24
307.012	0.22
307.224	0.29
307.436	0.26
307.649	0.19
307.861	0.28
308.073	0.28
308.285	0.28
308.497	0.26
308.709	0.28
308.921	0.27
309.133	0.26
309.346	0.25
309.558	0.27
309.77	0.27
309.982	0.35
310.194	0.28
310.406	0.22
310.617	0.27
310.829	0.28
311.041	0.31
311.253	0.21
311.465	0.25
311.677	0.22
311.889	0.27
312.101	0.22
312.313	0.31
312.524	0.25
312.736	0.19
312.948	0.23
313.16	0.29
313.372	0.26
313.583	0.29
313.795	0.26
314.007	0.19
314.218	0.24
314.43	0.25
314.642	0.24
314.853	0.21
315.065	0.29
315.277	0.22
315.488	0.26
315.7	0.26
315.912	0.26
316.123	0.21
316.335	0.22
316.546	0.33
316.758	0.22
316.969	0.25
317.181	0.23
317.392	0.25
317.604	0.3
317.815	0.21
318.026	0.21
318.238	0.27
318.449	0.27
318.661	0.21
318.872	0.22
319.083	0.19
319.295	0.31
319.506	0.24
319.717	0.24
319.929	0.26
320.14	0.22
320.351	0.26
320.562	0.22
320.774	0.23
320.985	0.22
321.196	0.25
321.407	0.2
321.618	0.27
321.829	0.21
322.041	0.25
322.252	0.24
322.463	0.24
322.674	0.26
322.885	0.22
323.096	0.24
323.307	0.24
323.518	0.26
323.729	0.22
323.94	0.27
324.151	0.2
324.362	0.24
324.573	0.28
324.784	0.27
324.995	0.27
325.206	0.28
325.417	0.21
325.628	0.27
325.838	0.23
326.049	0.26
326.26	0.32
326.471	0.26
326.682	0.34
326.892	0.27
327.103	0.2
327.314	0.23
327.525	0.26
327.735	0.24
327.946	0.28
328.157	0.25
328.368	0.24
328.578	0.25
328.789	0.31
328.999	0.27
329.21	0.23
329.421	0.27
329.631	0.2
329.842	0.23
330.052	0.28
330.263	0.26
330.473	0.3
330.684	0.22
330.894	0.28
331.105	0.29
331.315	0.24
331.526	0.22
331.736	0.33
331.947	0.24
332.157	0.29
332.367	0.26
332.578	0.31
332.788	0.27
332.999	0.3
333.209	0.24
333.419	0.23
333.629	0.24
333.84	0.29
334.05	0.28
334.26	0.29
334.47	0.3
334.681	0.32
334.891	0.25
335.101	0.24
335.311	0.3
335.521	0.28
335.732	0.21
335.942	0.29
336.152	0.3
336.362	0.27
336.572	0.24
336.782	0.26
336.992	0.26
337.202	0.24
337.412	0.23
337.622	0.26
337.832	0.29
338.042	0.21
338.252	0.23
338.462	0.27
338.672	0.26
338.882	0.26
339.092	0.25
339.302	0.36
339.511	0.28
339.721	0.21
339.931	0.23
340.141	0.28
340.351	0.32
340.561	0.26
340.77	0.26
340.98	0.26
341.19	0.26
341.4	0.19
341.609	0.24
341.819	0.25
342.029	0.27
342.238	0.22
342.448	0.18
342.658	0.26
342.867	0.28
343.077	0.29
343.286	0.28
343.496	0.24
343.706	0.29
343.915	0.22
344.125	0.23
344.334	0.31
344.544	0.2
344.753	0.22
344.963	0.25
345.172	0.22
345.381	0.24
345.591	0.24
345.8	0.23
346.01	0.27
346.219	0.29
346.428	0.09
346.638	0.29
346.847	0.27
347.056	0.34
347.266	0.24
347.475	0.27
347.684	0.28
347.893	0.28
348.103	0.28
348.312	0.22
348.521	0.23
348.73	0.23
348.94	0.3
349.149	0.21
349.358	0.24
349.567	0.21
349.776	0.22
349.985	0.2
350.194	0.27
350.403	0.24
350.612	0.24
350.821	0.27
351.03	0.21
351.239	0.24
351.448	0.3
351.657	0.21
351.866	0.29
352.075	0.23
352.284	0.25
352.493	0.2
352.702	0.27
352.911	0.3
353.12	0.25
353.329	0.24
353.538	0.27
353.746	0.23
353.955	0.24
354.164	0.28
354.373	0.26
354.582	0.23
354.79	0.27
354.999	0.29
355.208	0.2
355.416	0.27
355.625	0.24
355.834	0.25
356.042	0.28
356.251	0.24
356.46	0.23
356.668	0.23
356.877	0.32
357.085	0.28
357.294	0.19
357.503	0.24
357.711	0.22
357.92	0.34
358.128	0.23
358.337	0.2
358.545	0.26
358.754	0.21
358.962	0.29
359.17	0.22
359.379	0.23
359.587	0.26
359.796	0.26
360.004	0.3
360.212	0.25
360.421	0.22
360.629	0.24
360.837	0.23
361.046	0.26
361.254	0.34
361.462	0.25
361.67	0.26
361.879	0.28
362.087	0.26
362.295	0.29
362.503	0.22
362.711	0.21
362.92	0.24
363.128	0.19
363.336	0.19
363.544	0.2
363.752	0.22
363.96	0.25
364.168	0.23
364.376	0.23
364.584	0.24
364.792	0.28
365	0.27
365.208	0.29
365.416	0.27
365.624	0.29
365.832	0.22
366.04	0.26
366.248	0.23
366.456	0.24
366.664	0.29
366.872	0.23
367.079	0.26
367.287	0.26
367.495	0.25
367.703	0.25
367.911	0.21
368.118	0.26
368.326	0.19
368.534	0.22
368.742	0.28
368.949	0.19
369.157	0.24
369.365	0.22
369.572	0.25
369.78	0.21
369.988	0.29
370.195	0.29
370.403	0.27
370.61	0.23
370.818	0.26
371.026	0.29
371.233	0.22
371.441	0.23
371.648	0.24
371.856	0.25
372.063	0.2
372.271	0.27
372.478	0.26
372.685	0.23
372.893	0.27
373.1	0.23
373.308	0.27
373.515	0.29
373.722	0.24
373.93	0.25
374.137	0.28
374.344	0.31
374.552	0.28
374.759	0.27
374.966	0.26
375.173	0.26
375.381	0.34
375.588	0.25
375.795	0.17
376.002	0.26
376.209	0.22
376.417	0.26
376.624	0.3
376.831	0.3
377.038	0.25
377.245	0.18
377.452	0.28
377.659	0.31
377.866	0.24
378.073	0.24
378.28	0.25
378.487	0.27
378.694	0.3
378.901	0.25
379.108	0.24
379.315	0.29
379.522	0.33
379.729	0.21
379.936	0.27
380.143	0.29
380.35	0.28
380.557	0.25
380.763	0.27
380.97	0.24
381.177	0.28
381.384	0.3
381.591	0.29
381.797	0.22
382.004	0.31
382.211	0.31
382.418	0.3
382.624	0.35
382.831	0.29
383.038	0.26
383.244	0.3
383.451	0.28
383.658	0.31
383.864	0.3
384.071	0.23
384.277	0.36
384.484	0.26
384.69	0.28
384.897	0.31
385.103	0.27
385.31	0.22
385.516	0.22
385.723	0.27
385.929	0.27
386.136	0.25
386.342	0.28
386.549	0.27
386.755	0.34
386.961	0.31
387.168	0.29
387.374	0.29
387.58	0.37
387.787	0.27
387.993	0.34
388.199	0.26
388.406	0.25
388.612	0.3
388.818	0.28
389.024	0.3
389.231	0.3
389.437	0.35
389.643	0.34
389.849	0.27
390.055	0.31
390.261	0.31
390.467	0.26
390.674	0.25
390.88	0.28
391.086	0.32
391.292	0.27
391.498	0.34
391.704	0.31
391.91	0.29
392.116	0.28
392.322	0.22
392.528	0.3
392.734	0.31
392.94	0.29
393.146	0.26
393.352	0.28
393.557	0.3
393.763	0.31
393.969	0.32
394.175	0.28
394.381	0.35
394.587	0.25
394.792	0.27
394.998	0.34
395.204	0.34
395.41	0.29
395.615	0.32
395.821	0.32
396.027	0.31
396.233	0.29
396.438	0.3
396.644	0.4
396.85	0.38
397.055	0.34
397.261	0.33
397.466	0.34
397.672	0.34
397.878	0.34
398.083	0.35
398.289	0.33
398.494	0.38
398.7	0.33
398.905	0.26
399.111	0.39
399.316	0.32
399.522	0.34
399.727	0.33
399.932	0.35
400.138	0.34
400.343	0.4
400.549	0.34
400.754	0.37
400.959	0.33
401.165	0.36
401.37	0.38
401.575	0.47
401.78	0.4
401.986	0.38
402.191	0.37
402.396	0.39
402.601	0.39
402.807	0.4
403.012	0.35
403.217	0.43
403.422	0.35
403.627	0.42
403.832	0.38
404.037	0.41
404.243	0.46
404.448	0.44
404.653	0.39
404.858	0.47
405.063	0.45
405.268	0.39
405.473	0.4
405.678	0.4
405.883	0.52
406.088	0.48
406.293	0.46
406.498	0.43
406.703	0.51
406.907	0.52
407.112	0.44
407.317	0.44
407.522	0.59
407.727	0.48
407.932	0.53
408.136	0.62
408.341	0.59
408.546	0.59
408.751	0.57
408.956	0.59
409.16	0.6
409.365	0.62
409.57	0.55
409.774	0.59
409.979	0.66
410.184	0.65
410.388	0.64
410.593	0.74
410.798	0.73
411.002	0.72
411.207	0.72
411.411	0.8
411.616	0.72
411.82	0.84
412.025	0.8
412.229	0.79
412.434	0.88
412.638	0.91
412.843	0.91
413.047	0.94
413.252	0.94
413.456	0.97
413.66	0.99
413.865	1.04
414.069	1.1
414.273	1.09
414.478	1.1
414.682	1.15
414.886	1.1
415.091	1.15
415.295	1.22
415.499	1.34
415.703	1.3
415.908	1.4
416.112	1.29
416.316	1.53
416.52	1.48
416.724	1.53
416.929	1.66
417.133	1.78
417.337	1.69
417.541	1.7
417.745	1.76
417.949	1.84
418.153	1.94
418.357	1.96
418.561	2.13
418.765	2.11
418.969	2.25
419.173	2.35
419.377	2.34
419.581	2.54
419.785	2.46
419.989	2.61
420.193	2.74
420.397	2.83
420.601	2.88
420.804	3.01
421.008	2.97
421.212	3.2
421.416	3.05
421.62	3.17
421.823	3.23
422.027	3.43
422.231	3.38
422.435	3.35
422.638	3.46
422.842	3.57
423.046	3.67
423.249	3.86
423.453	3.79
423.657	3.93
423.86	4.06
424.064	4.24
424.268	4.29
424.471	4.3
424.675	4.65
424.878	4.62
425.082	4.73
425.285	5.01
425.489	4.91
425.692	5.07
425.896	5.11
426.099	5.26
426.303	5.39
426.506	5.65
426.71	5.84
426.913	5.93
427.116	6.08
427.32	6.06
427.523	6.18
427.726	6.54
427.93	6.66
428.133	6.94
428.336	7.12
428.54	7.23
428.743	7.43
428.946	7.74
429.149	7.66
429.353	7.74
429.556	7.76
429.759	7.9
429.962	8.01
430.165	8.18
430.368	7.84
430.571	7.87
430.775	8.02
430.978	7.96
431.181	7.91
431.384	8.09
431.587	8.2
431.79	8.55
431.993	8.51
432.196	8.77
432.399	9.15
432.602	9.21
432.805	9.41
433.008	9.91
433.211	9.74
433.414	10.06
433.616	10.06
433.819	10.07
434.022	10.31
434.225	10.34
434.428	10.44
434.631	10.88
434.833	10.64
435.036	10.87
435.239	11.02
435.442	11.24
435.645	11.33
435.847	11.36
436.05	11.67
436.253	12
436.455	11.93
436.658	11.92
436.861	12.12
437.063	12.37
437.266	12.38
437.468	12.61
437.671	12.76
437.874	12.96
438.076	12.85
438.279	13.25
438.481	13.21
438.684	14.08
438.886	13.68
439.089	14.03
439.291	13.99
439.494	14.38
439.696	14.52
439.899	15.03
440.101	15.39
440.303	15.56
440.506	16.39
440.708	16.2
440.91	16.26
441.113	16.47
441.315	16.87
441.517	16.48
441.72	17.06
441.922	16.71
442.124	16.57
442.326	16.97
442.529	17.27
442.731	17.26
442.933	17.46
443.135	17.38
443.337	17.13
443.539	17.77
443.742	17.56
443.944	18.21
444.146	17.75
444.348	17.81
444.55	17.81
444.752	18.11
444.954	18.03
445.156	18.03
445.358	18.44
445.56	18.76
445.762	18.39
445.964	18.8
446.166	18.59
446.368	18.48
446.57	18.51
446.772	18.15
446.974	17.9
447.175	18.28
447.377	18.01
447.579	18.41
447.781	17.98
447.983	17.83
448.184	17.44
448.386	17.86
448.588	17.23
448.79	17.27
448.991	17.53
449.193	17.62
449.395	17.08
449.597	16.53
449.798	16.44
450	16.17
450.202	15.96
450.403	15.91
450.605	15.91
450.806	15.57
451.008	15.58
451.21	15.22
451.411	14.9
451.613	14.04
451.814	14.31
452.016	14.11
452.217	13.54
452.419	13.59
452.62	13.31
452.821	13.1
453.023	12.9
453.224	12.53
453.426	12.1
453.627	11.37
453.828	11.51
454.03	11.52
454.231	11.51
454.432	11.4
454.634	10.94
454.835	10.83
455.036	10.92
455.238	10.37
455.439	10.02
455.64	9.78
455.841	9.68
456.042	9.7
456.244	9.43
456.445	9.21
456.646	8.81
456.847	8.83
457.048	8.57
457.249	8.71
457.45	8.24
457.651	7.85
457.852	7.68
458.054	7.53
458.255	7.53
458.456	7.47
458.657	7.41
458.858	6.85
459.058	6.76
459.259	6.92
459.46	6.55
459.661	6.6
459.862	6.53
460.063	6.47
460.264	6.35
460.465	6.14
460.666	6.22
460.866	5.86
461.067	5.66
461.268	5.71
461.469	5.62
461.67	5.53
461.87	5.4
462.071	5.45
462.272	5.29
462.473	5.26
462.673	5.37
462.874	5.23
463.075	5.27
463.275	5.22
463.476	5.26
463.676	5.23
463.877	5.09
464.078	5.01
464.278	5.06
464.479	5
464.679	4.87
464.88	4.86
465.08	4.72
465.281	4.68
465.481	4.49
465.682	4.24
465.882	4.23
466.083	4.14
466.283	4.16
466.483	4
466.684	3.87
466.884	3.74
467.085	3.81
467.285	3.82
467.485	3.7
467.686	3.54
467.886	3.57
468.086	3.45
468.286	3.45
468.487	3.52
468.687	3.35
468.887	3.24
469.087	3.42
469.287	3.29
469.488	3.09
469.688	3.18
469.888	3.2
470.088	3.23
470.288	3.16
470.488	3.07
470.688	2.89
470.888	2.96
471.088	2.8
471.288	2.88
471.488	2.84
471.688	2.76
471.888	2.77
472.088	2.87
472.288	2.77
472.488	2.68
472.688	2.59
472.888	2.67
473.088	2.63
473.288	2.51
473.488	2.54
473.688	2.66
473.887	2.51
474.087	2.53
474.287	2.49
474.487	2.41
474.687	2.41
474.886	2.41
475.086	2.37
475.286	2.39
475.486	2.25
475.685	2.31
475.885	2.24
476.085	2.29
476.284	2.3
476.484	2.3
476.684	2.27
476.883	2.35
477.083	2.22
477.282	2.19
477.482	2.21
477.681	2.18
477.881	2.13
478.08	2.16
478.28	2.05
478.479	2.1
478.679	2.17
478.878	2.06
479.078	2.08
479.277	2.19
479.477	2.06
479.676	2.03
479.875	2.11
480.075	2.04
480.274	2.02
480.473	2.05
480.673	2.04
480.872	2.11
481.071	2.04
481.271	2.1
481.47	2.01
481.669	2.02
481.868	1.98
482.067	2
482.267	1.95
482.466	1.94
482.665	1.93
482.864	2
483.063	1.99
483.262	2
483.461	2.05
483.661	2.07
483.86	2.01
484.059	2.05
484.258	2.08
484.457	2.08
484.656	2.05
484.855	2.06
485.054	1.95
485.253	2.01
485.452	2.01
485.651	2.04
485.849	2.02
486.048	2.05
486.247	2.03
486.446	2.13
486.645	2.08
486.844	2.12
487.043	2.02
487.241	2.1
487.44	2.11
487.639	2.15
487.838	2.11
488.037	2.15
488.235	2.19
488.434	2.16
488.633	2.05
488.831	2.23
489.03	2.27
489.229	2.2
489.427	2.24
489.626	2.24
489.825	2.26
490.023	2.31
490.222	2.28
490.42	2.28
490.619	2.37
490.817	2.38
491.016	2.33
491.214	2.41
491.413	2.41
491.611	2.36
491.81	2.39
492.008	2.46
492.207	2.56
492.405	2.5
492.604	2.5
492.802	2.52
493	2.58
493.199	2.6
493.397	2.63
493.595	2.69
493.794	2.66
493.992	2.76
494.19	2.77
494.388	2.75
494.587	2.72
494.785	2.76
494.983	2.73
495.181	2.82
495.379	2.85
495.578	2.94
495.776	2.95
495.974	2.91
496.172	2.96
496.37	3.09
496.568	3.07
496.766	3.07
496.964	3.18
497.162	3.18
497.36	3.23
497.558	3.25
497.756	3.28
497.954	3.28
498.152	3.36
498.35	3.39
498.548	3.37
498.746	3.39
498.944	3.41
499.142	3.46
499.34	3.46
499.538	3.63
499.736	3.45
499.933	3.58
500.131	3.61
500.329	3.76
500.527	3.76
500.725	3.81
500.922	3.8
501.12	3.82
501.318	3.91
501.516	3.88
501.713	3.98
501.911	3.96
502.109	3.95
502.306	4.05
502.504	4.01
502.701	4.08
502.899	4.13
503.097	4.28
503.294	4.2
503.492	4.31
503.689	4.41
503.887	4.32
504.084	4.37
504.282	4.38
504.479	4.39
504.677	4.5
504.874	4.52
505.072	4.43
505.269	4.7
505.466	4.65
505.664	4.67
505.861	4.61
506.059	4.79
506.256	4.77
506.453	4.76
506.651	4.91
506.848	4.96
507.045	4.89
507.242	4.89
507.44	4.99
507.637	5.08
507.834	5.09
508.031	5.16
508.229	5.09
508.426	5.09
508.623	5.27
508.82	5.3
509.017	5.23
509.214	5.22
509.411	5.39
509.608	5.32
509.805	5.49
510.003	5.44
510.2	5.5
510.397	5.58
510.594	5.53
510.791	5.6
510.988	5.65
511.184	5.58
511.381	5.52
511.578	5.61
511.775	5.76
511.972	5.73
512.169	5.74
512.366	5.8
512.563	5.89
512.76	5.99
512.956	6
513.153	5.9
513.35	5.86
513.547	5.85
513.744	6.01
513.94	6.06
514.137	6.1
514.334	6.09
514.53	6.14
514.727	6.29
514.924	6.22
515.12	6.2
515.317	6.32
515.514	6.13
515.71	6.11
515.907	6.4
516.103	6.37
516.3	6.3
516.497	6.44
516.693	6.47
516.89	6.43
517.086	6.49
517.283	6.45
517.479	6.36
517.676	6.61
517.872	6.59
518.068	6.57
518.265	6.53
518.461	6.55
518.658	6.72
518.854	6.64
519.05	6.75
519.247	6.78
519.443	6.71
519.639	6.9
519.836	6.72
520.032	6.71
520.228	6.85
520.424	6.71
520.621	6.91
520.817	6.96
521.013	6.85
521.209	7.14
521.405	7.06
521.601	7
521.798	6.98
521.994	6.98
522.19	6.94
522.386	7.01
522.582	7.12
522.778	7.22
522.974	7.07
523.17	7.13
523.366	7.1
523.562	7.1
523.758	7.11
523.954	6.96
524.15	7.24
524.346	7.21
524.542	7.21
524.738	7.19
524.934	7.29
525.129	7.31
525.325	7.13
525.521	7.18
525.717	7.43
525.913	7.29
526.109	7.28
526.304	7.42
526.5	7.39
526.696	7.48
526.892	7.31
527.087	7.59
527.283	7.52
527.479	7.45
527.674	7.3
527.87	7.48
528.066	7.48
528.261	7.49
528.457	7.42
528.653	7.57
528.848	7.55
529.044	7.64
529.239	7.49
529.435	7.47
529.63	7.48
529.826	7.52
530.021	7.5
530.217	7.59
530.412	7.55
530.608	7.6
530.803	7.6
530.999	7.49
531.194	7.62
531.389	7.66
531.585	7.68
531.78	7.77
531.975	7.62
532.171	7.71
532.366	7.71
532.561	7.69
532.757	7.64
532.952	7.84
533.147	7.57
533.342	7.7
533.538	7.71
533.733	7.89
533.928	7.56
534.123	7.74
534.318	7.8
534.513	7.69
534.709	7.85
534.904	7.82
535.099	7.89
535.294	7.84
535.489	7.9
535.684	7.76
535.879	7.81
536.074	7.88
536.269	7.86
536.464	7.97
536.659	7.84
536.854	7.84
537.049	7.84
537.244	7.9
537.439	7.91
537.634	7.87
537.828	8.01
538.023	7.89
538.218	7.89
538.413	7.82
538.608	7.93
538.803	7.89
538.997	7.9
539.192	7.92
539.387	7.9
539.582	7.84
539.776	7.86
539.971	7.94
540.166	8.01
540.36	7.89
540.555	8.05
540.75	7.97
540.944	7.97
541.139	7.99
541.334	7.96
541.528	7.9
541.723	8.01
541.917	8.03
542.112	7.92
542.306	7.83
542.501	7.9
542.695	7.96
542.89	7.89
543.084	8.04
543.279	7.91
543.473	8.04
543.668	8.09
543.862	7.87
544.056	7.91
544.251	8.02
544.445	8.05
544.64	8.1
544.834	7.8
545.028	7.66
545.222	7.98
545.417	8.14
545.611	8.03
545.805	8.04
546	7.85
546.194	7.98
546.388	8.02
546.582	7.95
546.776	8.01
546.97	7.98
547.165	8
547.359	8.02
547.553	7.94
547.747	7.93
547.941	8.21
548.135	7.99
548.329	8.05
548.523	8.06
548.717	8.02
548.911	8.02
549.105	7.93
549.299	8.1
549.493	8.08
549.687	7.94
549.881	8.13
550.075	8.04
550.269	7.96
550.463	8.14
550.657	8.1
550.85	7.99
551.044	8.03
551.238	8.13
551.432	8.01
551.626	8.11
551.82	8.09
552.013	7.97
552.207	8.15
552.401	8.12
552.594	8.05
552.788	7.96
552.982	8.05
553.176	7.97
553.369	8.24
553.563	8.11
553.756	8.06
553.95	8.19
554.144	8.11
554.337	8.1
554.531	7.9
554.724	8.07
554.918	8.13
555.111	8.03
555.305	8.12
555.498	7.99
555.692	8.15
555.885	8.11
556.079	8.04
556.272	8.06
556.466	8.05
556.659	8.07
556.852	8.17
557.046	8.02
557.239	7.92
557.432	8.01
557.626	8.08
557.819	8.21
558.012	8.06
558.206	8.18
558.399	8.15
558.592	8.01
558.785	8
558.979	8.13
559.172	8.05
559.365	8.04
559.558	8.01
559.751	8.04
559.944	8.22
560.138	8.08
560.331	8.09
560.524	8.18
560.717	8.1
560.91	8.09
561.103	8.06
561.296	7.93
561.489	8.12
561.682	8.13
561.875	8.05
562.068	8.18
562.261	7.99
562.454	8.27
562.647	8.04
562.84	8.1
563.032	8.15
563.225	7.97
563.418	8.04
563.611	8.15
563.804	8.12
563.997	7.99
564.19	7.88
564.382	8.19
564.575	8.04
564.768	8.05
564.961	8.06
565.153	8.01
565.346	7.95
565.539	8.12
565.731	8.02
565.924	8.14
566.117	8.25
566.309	8.07
566.502	8.05
566.695	7.97
566.887	8.13
567.08	8.05
567.272	8.11
567.465	7.9
567.657	8.17
567.85	7.91
568.042	8.05
568.235	8.06
568.427	7.9
568.62	8.04
568.812	8.06
569.005	8.13
569.197	7.97
569.389	8.04
569.582	8.03
569.774	8.07
569.966	7.98
570.159	7.94
570.351	7.95
570.543	8.04
570.736	8.03
570.928	7.86
571.12	8.04
571.312	7.94
571.505	7.82
571.697	7.98
571.889	7.99
572.081	7.98
572.273	7.92
572.465	7.96
572.658	7.98
572.85	7.97
573.042	8.01
573.234	7.88
573.426	7.9
573.618	7.93
573.81	7.99
574.002	7.9
574.194	7.96
574.386	7.89
574.578	7.82
574.77	7.86
574.962	7.9
575.154	7.79
575.346	7.83
575.538	7.76
575.729	7.76
575.921	7.92
576.113	7.93
576.305	7.88
576.497	7.91
576.689	7.79
576.88	7.76
577.072	7.88
577.264	7.83
577.456	7.89
577.647	7.79
577.839	7.88
578.031	7.81
578.223	7.75
578.414	7.7
578.606	7.78
578.798	7.77
578.989	7.8
579.181	7.87
579.372	7.82
579.564	7.83
579.755	7.77
579.947	7.72
580.139	7.76
580.33	7.63
580.522	7.78
580.713	7.73
580.905	7.69
581.096	7.78
581.287	7.69
581.479	7.71
581.67	7.77
581.862	7.68
582.053	7.74
582.244	7.55
582.436	7.75
582.627	7.59
582.818	7.61
583.01	7.63
583.201	7.64
583.392	7.62
583.583	7.6
583.775	7.43
583.966	7.51
584.157	7.62
584.348	7.68
584.54	7.58
584.731	7.57
584.922	7.53
585.113	7.46
585.304	7.54
585.495	7.53
585.686	7.64
585.877	7.56
586.068	7.64
586.259	7.48
586.45	7.43
586.641	7.51
586.832	7.52
587.023	7.45
587.214	7.38
587.405	7.54
587.596	7.35
587.787	7.34
587.978	7.44
588.169	7.41
588.36	7.35
588.551	7.4
588.742	7.41
588.932	7.42
589.123	7.24
589.314	7.47
589.505	7.34
589.696	7.35
589.886	7.3
590.077	7.35
590.268	7.22
590.458	7.19
590.649	7.11
590.84	7.26
591.03	7.24
591.221	7.29
591.412	7.09
591.602	7.28
591.793	7.18
591.984	7.26
592.174	7.2
592.365	7.31
592.555	7.04
592.746	7.13
592.936	7.09
593.127	7.19
593.317	7.09
593.508	7.16
593.698	7.06
593.889	7.04
594.079	7.02
594.269	7.02
594.46	7.02
594.65	7.05
594.84	6.97
595.031	6.99
595.221	6.96
595.411	6.98
595.602	6.95
595.792	6.96
595.982	6.88
596.172	7
596.363	6.92
596.553	6.86
596.743	6.95
596.933	6.88
597.123	6.83
597.314	6.75
597.504	6.72
597.694	6.82
597.884	6.78
598.074	6.87
598.264	6.8
598.454	6.72
598.644	6.72
598.834	6.78
599.024	6.61
599.214	6.68
599.404	6.74
599.594	6.7
599.784	6.61
599.974	6.69
600.164	6.67
600.354	6.57
600.544	6.55
600.734	6.64
600.924	6.52
601.114	6.49
601.303	6.51
601.493	6.48
601.683	6.56
601.873	6.52
602.063	6.42
602.252	6.46
602.442	6.38
602.632	6.46
602.821	6.39
603.011	6.46
603.201	6.4
603.39	6.37
603.58	6.29
603.77	6.39
603.959	6.41
604.149	6.32
604.339	6.37
604.528	6.38
604.718	6.35
604.907	6.29
605.097	6.21
605.286	6.12
605.476	6.16
605.665	6.22
605.855	6.23
606.044	6.2
606.234	6.24
606.423	6.23
606.612	6.23
606.802	6.03
606.991	6.14
607.181	6.15
607.37	6.12
607.559	5.92
607.749	6.13
607.938	6
608.127	6.05
608.316	6.02
608.506	5.93
608.695	6.05
608.884	5.96
609.073	6.03
609.263	5.99
609.452	6.01
609.641	5.8
609.83	5.86
610.019	5.89
610.208	5.74
610.397	5.79
610.586	5.75
610.775	5.68
610.965	5.8
611.154	5.67
611.343	5.77
611.532	5.65
611.721	5.76
611.91	5.66
612.099	5.69
612.287	5.63
612.476	5.56
612.665	5.74
612.854	5.59
613.043	5.58
613.232	5.6
613.421	5.56
613.61	5.56
613.798	5.54
613.987	5.56
614.176	5.48
614.365	5.46
614.554	5.51
614.742	5.48
614.931	5.35
615.12	5.47
615.309	5.39
615.497	5.39
615.686	5.33
615.875	5.39
616.063	5.22
616.252	5.33
616.44	5.36
616.629	5.29
616.818	5.3
617.006	5.22
617.195	5.2
617.383	5.21
617.572	5.14
617.76	5.18
617.949	5.27
618.137	5.24
618.326	5.13
618.514	5.02
618.703	5.03
618.891	5.09
619.079	5.01
619.268	5.11
619.456	5
619.644	5.12
619.833	4.96
620.021	5.02
620.209	4.9
620.398	4.93
620.586	4.91
620.774	4.96
620.962	5.01
621.151	4.95
621.339	4.85
621.527	4.83
621.715	4.85
621.903	4.81
622.092	4.77
622.28	4.88
622.468	4.66
622.656	4.71
622.844	4.73
623.032	4.84
623.22	4.71
623.408	4.79
623.596	4.71
623.784	4.73
623.972	4.62
624.16	4.63
624.348	4.66
624.536	4.73
624.724	4.53
624.912	4.61
625.1	4.59
625.288	4.61
625.476	4.51
625.664	4.6
625.851	4.5
626.039	4.55
626.227	4.49
626.415	4.48
626.603	4.4
626.79	4.47
626.978	4.46
627.166	4.48
627.354	4.35
627.541	4.4
627.729	4.24
627.917	4.42
628.104	4.33
628.292	4.31
628.48	4.37
628.667	4.29
628.855	4.32
629.042	4.32
629.23	4.27
629.418	4.21
629.605	4.22
629.793	4.15
629.98	4.1
630.168	4.15
630.355	4.18
630.543	4.18
630.73	4.08
630.917	4.08
631.105	4.2
631.292	4.11
631.48	4.04
631.667	4.18
631.854	4
632.042	4.04
632.229	3.98
632.416	3.98
632.604	4.07
632.791	3.88
632.978	4.04
633.165	3.91
633.353	3.96
633.54	3.99
633.727	3.78
633.914	3.86
634.101	3.77
634.289	3.94
634.476	3.82
634.663	3.78
634.85	3.74
635.037	3.75
635.224	3.76
635.411	3.82
635.598	3.73
635.785	3.75
635.972	3.7
636.159	3.73
636.346	3.68
636.533	3.59
636.72	3.67
636.907	3.62
637.094	3.59
637.281	3.54
637.468	3.63
637.655	3.63
637.842	3.58
638.029	3.55
638.215	3.53
638.402	3.54
638.589	3.48
638.776	3.51
638.963	3.46
639.149	3.43
639.336	3.54
639.523	3.5
639.709	3.43
639.896	3.43
640.083	3.39
640.27	3.44
640.456	3.36
640.643	3.36
640.829	3.25
641.016	3.34
641.203	3.28
641.389	3.28
641.576	3.3
641.762	3.28
641.949	3.26
642.135	3.28
642.322	3.27
642.508	3.22
642.695	3.26
642.881	3.17
643.068	3.12
643.254	3.21
643.441	3.14
643.627	3.16
643.813	3.07
644	3.15
644.186	3.1
644.372	3.15
644.559	3.08
644.745	3.1
644.931	3.02
645.118	3.07
645.304	3.13
645.49	3.02
645.676	2.97
645.862	3
646.049	3.11
646.235	2.97
646.421	3.11
646.607	3.04
646.793	2.96
646.979	2.92
647.165	2.97
647.352	2.94
647.538	2.92
647.724	2.86
647.91	2.88
648.096	2.92
648.282	2.9
648.468	2.86
648.654	2.87
648.84	2.86
649.026	2.83
649.212	2.77
649.397	2.8
649.583	2.72
649.769	2.8
649.955	2.8
650.141	2.83
650.327	2.76
650.513	2.67
650.698	2.78
650.884	2.69
651.07	2.76
651.256	2.74
651.442	2.71
651.627	2.64
651.813	2.68
651.999	2.59
652.184	2.63
652.37	2.63
652.556	2.61
652.741	2.58
652.927	2.5
653.113	2.6
653.298	2.58
653.484	2.54
653.669	2.53
653.855	2.54
654.04	2.57
654.226	2.5
654.412	2.47
654.597	2.47
654.782	2.53
654.968	2.54
655.153	2.51
655.339	2.45
655.524	2.44
655.71	2.45
655.895	2.46
656.08	2.42
656.266	2.51
656.451	2.5
656.636	2.39
656.822	2.42
657.007	2.39
657.192	2.39
657.378	2.35
657.563	2.39
657.748	2.37
657.933	2.42
658.118	2.28
658.304	2.38
658.489	2.39
658.674	2.32
658.859	2.24
659.044	2.34
659.229	2.3
659.414	2.25
659.599	2.26
659.785	2.2
659.97	2.28
660.155	2.3
660.34	2.25
660.525	2.19
660.71	2.21
660.895	2.26
661.08	2.21
661.264	2.13
661.449	2.21
661.634	2.15
661.819	2.17
662.004	2.16
662.189	2.11
662.374	2.1
662.559	2.1
662.743	2.06
662.928	2.08
663.113	2.04
663.298	2.04
663.483	2.05
663.667	2.06
663.852	2.04
664.037	2.07
664.221	2.03
664.406	2.08
664.591	1.99
664.775	2.04
664.96	1.97
665.145	1.91
665.329	2
665.514	1.91
665.698	1.91
665.883	1.9
666.068	1.91
666.252	1.92
666.437	1.81
666.621	1.89
666.806	1.82
666.99	1.83
667.174	1.82
667.359	1.87
667.543	1.73
667.728	1.83
667.912	1.78
668.096	1.75
668.281	1.74
668.465	1.76
668.649	1.74
668.834	1.75
669.018	1.71
669.202	1.77
669.387	1.64
669.571	1.75
669.755	1.66
669.939	1.71
670.124	1.71
670.308	1.71
670.492	1.7
670.676	1.7
670.86	1.66
671.044	1.61
671.228	1.67
671.413	1.58
671.597	1.59
671.781	1.59
671.965	1.6
672.149	1.63
672.333	1.61
672.517	1.58
672.701	1.54
672.885	1.61
673.069	1.48
673.253	1.63
673.437	1.6
673.621	1.53
673.804	1.57
673.988	1.56
674.172	1.49
674.356	1.52
674.54	1.55
674.724	1.58
674.908	1.49
675.091	1.49
675.275	1.47
675.459	1.57
675.643	1.44
675.826	1.5
676.01	1.44
676.194	1.45
676.377	1.45
676.561	1.48
676.745	1.45
676.928	1.43
677.112	1.46
677.296	1.39
677.479	1.37
677.663	1.38
677.846	1.38
678.03	1.44
678.213	1.37
678.397	1.33
678.58	1.33
678.764	1.36
678.947	1.35
679.131	1.32
679.314	1.37
679.498	1.38
679.681	1.41
679.865	1.4
680.048	1.35
680.231	1.3
680.415	1.29
680.598	1.34
680.781	1.32
680.965	1.32
681.148	1.32
681.331	1.26
681.514	1.27
681.698	1.24
681.881	1.26
682.064	1.22
682.247	1.24
682.43	1.2
682.614	1.26
682.797	1.29
682.98	1.21
683.163	1.22
683.346	1.26
683.529	1.22
683.712	1.18
683.895	1.21
684.078	1.17
684.261	1.16
684.444	1.21
684.627	1.24
684.81	1.14
684.993	1.15
685.176	1.21
685.359	1.17
685.542	1.13
685.725	1.16
685.908	1.11
686.091	1.13
686.274	1.16
686.457	1.14
686.639	1.09
686.822	1.17
687.005	1.15
687.188	1.11
687.371	1.12
687.553	1.13
687.736	1.16
687.919	1.13
688.102	1.16
688.284	1.06
688.467	1.06
688.65	1.06
688.832	1
689.015	1.07
689.197	1.02
689.38	1.15
689.563	1.09
689.745	1.04
689.928	1.03
690.11	1
690.293	1.03
690.475	0.99
690.658	1.05
690.84	1.02
691.023	1.03
691.205	0.99
691.388	1.02
691.57	1.03
691.752	0.98
691.935	0.89
692.117	0.93
692.3	0.93
692.482	0.91
692.664	0.9
692.847	0.99
693.029	0.99
693.211	0.99
693.393	0.98
693.576	0.9
693.758	0.94
693.94	0.98
694.122	0.94
694.304	0.89
694.487	0.89
694.669	0.98
694.851	0.92
695.033	0.95
695.215	0.92
695.397	0.89
695.579	0.9
695.761	0.82
695.943	0.85
696.125	0.96
696.308	0.92
696.49	0.85
696.671	0.93
696.853	0.83
697.035	1.02
697.217	0.91
697.399	0.9
697.581	0.83
697.763	0.91
697.945	0.82
698.127	0.88
698.309	0.86
698.491	0.87
698.672	0.88
698.854	0.85
699.036	0.93
699.218	0.84
699.399	0.9
699.581	0.84
699.763	0.8
699.945	0.81
700.126	0.81
700.308	0.83
700.49	0.82
700.671	0.77
700.853	0.81
701.035	0.85
701.216	0.81
701.398	0.82
701.579	0.76
701.761	0.82
701.943	0.72
702.124	0.75
702.306	0.77
702.487	0.85
702.669	0.82
702.85	0.8
703.031	0.74
703.213	0.79
703.394	0.8
703.576	0.78
703.757	0.86
703.938	0.91
704.12	0.8
704.301	0.8
704.483	0.72
704.664	0.8
704.845	0.84
705.026	0.82
705.208	0.78
705.389	0.75
705.57	0.77
705.751	0.72
705.933	0.77
706.114	0.79
706.295	0.79
706.476	0.69
706.657	0.86
706.838	0.77
707.02	0.78
707.201	0.69
707.382	0.74
707.563	0.79
707.744	0.72
707.925	0.72
708.106	0.67
708.287	0.68
708.468	0.77
708.649	0.74
708.83	0.84
709.011	0.7
709.192	0.67
709.373	0.7
709.554	0.69
709.734	0.72
709.915	0.67
710.096	0.7
710.277	0.62
710.458	0.75
710.639	0.7
710.819	0.62
711	0.69
711.181	0.78
711.362	0.75
711.542	0.74
711.723	0.65
711.904	0.75
712.085	0.6
712.265	0.69
712.446	0.59
712.627	0.69
712.807	0.67
712.988	0.62
713.168	0.64
713.349	0.65
713.53	0.51
713.71	0.58
713.891	0.59
714.071	0.62
714.252	0.59
714.432	0.66
714.613	0.54
714.793	0.64
714.974	0.66
715.154	0.72
715.334	0.72
715.515	0.68
715.695	0.56
715.876	0.65
716.056	0.66
716.236	0.6
716.417	0.59
716.597	0.57
716.777	0.75
716.957	0.52
717.138	0.58
717.318	0.61
717.498	0.49
717.678	0.56
717.859	0.62
718.039	0.58
718.219	0.67
718.399	0.68
718.579	0.51
718.759	0.64
718.939	0.64
719.12	0.6
719.3	0.59
719.48	0.46
719.66	0.5
719.84	0.68
720.02	0.65
720.2	0.55
720.38	0.61
720.56	0.66
720.74	0.54
720.92	0.6
721.1	0.77
721.279	0.66
721.459	0.55
721.639	0.46
721.819	0.64
721.999	0.59
722.179	0.61
722.359	0.54
722.538	0.67
722.718	0.62
722.898	0.63
723.078	0.63
723.257	0.59
723.437	0.64
723.617	0.59
723.797	0.61
723.976	0.63
724.156	0.66
724.336	0.68
724.515	0.71
724.695	0.47
724.874	0.57
725.054	0.6
725.234	0.54
725.413	0.67
725.593	0.52
725.772	0.64
725.952	0.63
726.131	0.57
726.311	0.57
726.49	0.6
726.67	0.61
726.849	0.54
727.028	0.68
727.208	0.55
727.387	0.52
727.567	0.56
727.746	0.54
727.925	0.49
728.105	0.58
728.284	0.55
728.463	0.54
728.643	0.6
728.822	0.51
729.001	0.63
729.18	0.57
729.359	0.63
729.539	0.54
729.718	0.56
729.897	0.67
730.076	0.6
730.255	0.49
730.434	0.62
730.614	0.54
730.793	0.57
730.972	0.6
731.151	0.67
731.33	0.66
731.509	0.56
731.688	0.63
731.867	0.61
732.046	0.5
732.225	0.64
732.404	0.45
732.583	0.46
732.762	0.64
732.941	0.59
733.12	0.6
733.298	0.6
733.477	0.56
733.656	0.57
733.835	0.47
734.014	0.73
734.193	0.5
734.371	0.69
734.55	0.73
734.729	0.47
734.908	0.66
735.086	0.69
735.265	0.76
735.444	0.48
735.623	0.52
735.801	0.57
735.98	0.7
736.159	0.56
736.337	0.66
736.516	0.57
736.694	0.59
736.873	0.59
737.052	0.73
737.23	0.64
737.409	0.61
737.587	0.82
737.766	0.5
737.944	0.55
738.123	0.67
738.301	0.64
738.479	0.62
738.658	0.57
738.836	0.47
739.015	0.61
739.193	0.69
739.371	0.48
739.55	0.58
739.728	0.55
739.906	0.67
740.085	0.73
740.263	0.72
740.441	0.36
740.62	0.71
740.798	0.64
740.976	0.58
741.154	0.63
741.332	0.67
741.511	0.54
741.689	0.55
741.867	0.73
742.045	0.53
742.223	0.52
742.401	0.51
742.579	0.37
742.757	0.51
742.935	0.41
743.114	0.49
743.292	0.48
743.47	0.5
743.648	0.51
743.826	0.51
744.004	0.65
744.181	0.49
744.359	0.41
744.537	0.48
744.715	0.59
744.893	0.53
745.071	0.41
745.249	0.5
745.427	0.45
745.605	0.5
745.782	0.45
745.96	0.53
746.138	0.52
746.316	0.38
746.493	0.53
746.671	0.56
746.849	0.51
747.027	0.49
747.204	0.39
747.382	0.51
747.56	0.43
747.737	0.38
747.915	0.39
748.093	0.45
748.27	0.4
748.448	0.5
748.625	0.42
748.803	0.33
748.98	0.42
749.158	0.45
749.335	0.42
749.513	0.47
749.69	0.57
749.868	0.48
750.045	0.54
750.223	0.23
750.4	0.22
750.578	0.49
750.755	0.39
750.932	0.39
751.11	0.58
751.287	0.38
751.464	0.56
751.642	0.33
751.819	0.48
751.996	0.35
752.173	0.46
752.351	0.42
752.528	0.44
752.705	0.4
752.882	0.33
753.06	0.46
753.237	0.44
753.414	0.65
753.591	0.45
753.768	0.47
753.945	0.33
754.122	0.28
754.299	0.39
754.476	0.36
754.654	0.42
754.831	0.5
755.008	0.46
755.185	0.38
755.362	0.41
755.539	0.45
755.716	0.49
755.892	0.29
756.069	0.42
756.246	0.39
756.423	0.36
756.6	0.48
756.777	0.45
756.954	0.51
757.131	0.4
757.307	0.23
757.484	0.26
757.661	0.43
757.838	0.45
758.015	0.35
758.191	0.51
758.368	0.45
758.545	0.44
758.721	0.36
758.898	0.25
759.075	0.45
759.251	0.44
759.428	0.39
759.605	0.33
759.781	0.35
759.958	0.45
760.134	0.5
760.311	0.44
760.488	0.54
760.664	0.36
760.841	0.34
761.017	0.32
761.194	0.46
761.37	0.49
761.547	0.36
761.723	0.36
761.899	0.49
762.076	0.28
762.252	0.25
762.429	0.28
762.605	0.3
762.781	0.47
762.958	0.43
763.134	0.42
763.31	0.3
763.486	0.4
763.663	0.21
763.839	0.45
764.015	0.26
764.191	0.17
764.368	0.32
764.544	0.36
764.72	0.32
764.896	0.42
765.072	0.44
765.248	0.34
765.425	0.3
765.601	0.34
765.777	0.39
765.953	0.25
766.129	0.39
766.305	0.25
766.481	0.49
766.657	0.42
766.833	0.5
767.009	0.36
767.185	0.38
767.361	0.3
767.537	0.13
767.713	0.34
767.889	0.36
768.065	0.47
768.24	0.41
768.416	0.41
768.592	0.39
768.768	0.37
768.944	0.38
769.12	0.31
769.295	0.17
769.471	0.41
769.647	0.28
769.823	0.41
769.998	0.36
770.174	0.29
770.35	0.59
770.525	0.63
770.701	0.39
770.877	0.35
771.052	0.36
771.228	0.34
771.403	0.45
771.579	0.42
771.755	0.57
771.93	0.26
772.106	0.24
772.281	0.2
772.457	0.44
772.632	0.47
772.808	0.14
772.983	0.36
773.159	0.28
773.334	0.39
773.509	0.33
773.685	0.33
773.86	0.6
774.036	0.56
774.211	0.43
774.386	0.3
774.562	0.35
774.737	0.51
774.912	0.4
775.087	0.44
775.263	0.39
775.438	0.43
775.613	0.33
775.788	0.46
775.964	0.51
776.139	0.56
776.314	0.36
776.489	0.39
776.664	0.41
776.839	0.39
777.014	0.61
777.19	0.54
777.365	0.36
777.54	0.63
777.715	0.29
777.89	0.46
778.065	0.15
778.24	0.38
778.415	0.54
778.59	0.22
778.765	0.21
778.94	0.39
779.115	0.34
779.289	0.49
779.464	0.47
779.639	0.55
779.814	0.23
779.989	0.41
780.164	0.46
780.339	0.55
780.513	0.37
780.688	0.48
780.863	0.52
781.038	0.53
781.212	0.22
781.387	0.37
781.562	0.49
781.737	0.51
781.911	0.32
782.086	0.3
782.261	0.48
782.435	0.65
782.61	0.42
782.784	0.31
782.959	0.59
783.134	0.2
783.308	0.36
783.483	0.41
783.657	0.6
783.832	0.53
784.006	0.29
784.181	0.71
784.355	0.57
784.53	0.63
784.704	0.33
784.878	0.75
785.053	0.5
785.227	0.36
785.402	0.77
785.576	0.38
785.75	0.46
785.925	0.6
786.099	0.42
786.273	0.29
786.448	0.53
786.622	0.71
786.796	0.52
786.97	0.42
787.145	0.62
787.319	0.22
787.493	0.54
787.667	0.32
787.841	0.5
788.015	0.46
788.19	0.37
788.364	0.46
788.538	0.31
788.712	0.56
788.886	0.59
789.06	0.64
789.234	0.79
789.408	0.4
789.582	0.22
789.756	0.61
789.93	0.3
790.104	0.37
790.278	0.34
790.452	0.26
790.626	0.54
790.8	0.37
790.973	0.42
791.147	0.55
791.321	0.55
791.495	0.55
791.669	0.58
791.843	0.47
792.016	0.56
792.19	0.64
792.364	0.18
792.538	0.58
792.711	0.71
792.885	0.47
793.059	0.3
793.233	0.28
793.406	0.43
793.58	0.35
793.754	0.59
793.927	0.48
794.101	0.7
794.274	0.47
794.448	0.37
794.622	0.55
794.795	0.55
794.969	0.22
795.142	0.71
795.316	0.44
795.489	0.31
795.663	0.7
795.836	0.55
796.009	0.44
796.183	0.83
796.356	0.51
796.53	0.33
796.703	0.64
796.876	1.03
797.05	0.52
797.223	0.75
797.396	0.8
797.57	0.52
797.743	0.48
797.916	0.67
798.09	0.51
798.263	0.53
798.436	0.54
798.609	0.38
798.782	0.57
798.956	0.2
799.129	0.61
799.302	0.22
799.475	0.53
799.648	0.37
799.821	0.39
799.994	0.68
800.167	0.07
800.34	0.58
800.514	0.77
800.687	0.62
800.86	0.63
801.033	0.39
801.206	0.61
801.379	0.34
801.551	0.79
801.724	0.94
801.897	0.69
802.07	0.31
802.243	0.07
802.416	0.53
802.589	0.28
802.762	0.78
802.935	0.78
803.107	0.59
803.28	0.59
803.453	0.77
803.626	0.32
803.798	0.24
803.971	0.51
804.144	0.6
804.317	0.61
804.489	0.54
804.662	0.47
804.835	0.31
805.007	0.32
805.18	1.24
805.353	0.92
805.525	0.35
805.698	0.34
805.87	1.12
806.043	0.76
806.215	0.45
806.388	0.43
806.56	0.55
806.733	0.88
806.905	0.69
807.078	0.58
807.25	0.34
807.423	0.64
807.595	0.22
807.768	0.83
807.94	1.08
808.112	0.86
808.285	0.78
808.457	0.69
808.629	0.61
808.802	0.4
808.974	0.74
809.146	0.51
809.318	0.41
809.491	0.56
809.663	0.55
809.835	0.45
810.007	1.14
810.18	0.66
810.352	0.53
810.524	0.7
810.696	0.51
810.868	0.76
811.04	0.61
811.212	0.49
811.384	0.74
811.556	0.84
811.728	0.72
811.901	1.25
812.073	0.67
812.245	0.55
812.417	0.76
812.589	0.34
812.76	0.43
812.932	0.56
813.104	0.89
813.276	0.28
813.448	0.66
813.62	0.53
813.792	0.71
813.964	0.86
814.136	0.85
814.307	0.65
814.479	0.35
814.651	0.75
814.823	1.27
814.995	0.76
815.166	0.96
815.338	0.49
815.51	0.26
815.681	1.28
815.853	0.38
816.025	0.59
816.196	1.04
816.368	0.5
816.54	0.3
816.711	0.19
816.883	0.66
817.054	1.34
817.226	0.41
817.398	0.82
817.569	0.36
817.741	1.2
817.912	0.89
818.084	0.7
818.255	1.03
818.426	0.31
818.598	0.71
818.769	0.52
818.941	0.39
819.112	1.23
819.283	1.45
819.455	0.48
819.626	0.49
819.798	0.76
819.969	0.82
820.14	0.8
820.311	0.84
820.483	0.72
820.654	0.81
820.825	0.54
820.996	0.28
821.168	0.52
821.339	0.83
821.51	0.35
821.681	0.62
821.852	0.2
822.023	0.27
822.195	0.47
822.366	1.28
822.537	0.72
822.708	1.08
822.879	0.91
823.05	1.03
823.221	0.77
823.392	1.31
823.563	1.2
823.734	0.67
823.905	0.37
824.076	0.53
824.247	0.23
824.418	0.16
824.589	1.13
824.759	0.79
824.93	0.44
825.101	0.4
825.272	0.69
825.443	1.5
825.614	1.12
825.784	-0.31
825.955	1.59
826.126	1.19
826.297	1.53
826.467	1.67
826.638	1.23
826.809	0.35
826.98	0.85
827.15	0.68
827.321	0.61
827.492	1.27
827.662	1.21
827.833	1.41
828.003	0.81
828.174	0.31
828.345	0.4
828.515	0.77
828.686	0.62
828.856	0.5
829.027	1.12
829.197	0.73
829.368	1.07
829.538	0.8
829.709	0.38
829.879	0.73
830.049	0.68
830.22	0.49
830.39	1.07
830.56	1.15
830.731	0.81
830.901	1.03
831.072	0.78
831.242	0.87
831.412	0.47
831.582	1.02
831.753	0.86
831.923	1.05
832.093	0.31
832.263	0.58
832.434	0.1
832.604	0.84
832.774	1.94
832.944	0.49
833.114	1.06
833.284	0.67
833.454	0.15
833.624	0.67
833.795	1.14
833.965	1.12
834.135	0.61
834.305	0.57
834.475	0.88
834.645	0.48
834.815	0.34
834.985	0.69
835.155	0.48
835.325	1.72
835.494	0.69
835.664	1.01
835.834	0.58
836.004	1.43
836.174	0.7
836.344	0.66
836.514	0.09
836.684	0.99
836.853	0.73
837.023	1.73
837.193	1
837.363	1.45
837.532	1.55
837.702	0.83
837.872	0.59
838.041	1.64
838.211	1.28
838.381	0.74
838.55	0.68
838.72	2.13
838.89	1.49
839.059	1.03
839.229	0.86
839.398	1.53
839.568	0.96
839.738	1.4
839.907	1.88
840.077	1.77
840.246	1.02
840.416	0.71
840.585	0.38
840.755	1.92
840.924	1.72
841.093	0.9
841.263	0.7
841.432	1.36
841.602	0.51
841.771	0.74
841.94	0.88
842.11	2.69
842.279	2.19
842.448	0.04
842.617	1.32
842.787	2.01
842.956	1.16
843.125	2.04
843.294	1.61
843.464	1.75
843.633	1.71
843.802	0.41
843.971	1.01
844.14	1.25
844.309	0.75
844.479	0.79
844.648	0.8
844.817	0.82
844.986	1.67
845.155	1.58
845.324	1.38
845.493	1.3
845.662	1.2
845.831	1.41
846	2.02
846.169	1.02
846.338	2.15
846.507	1.12
846.676	1.8
846.844	0.89
847.013	1.61
847.182	1.29
847.351	1.06
847.52	1.1
847.689	2.11
847.858	1.37
848.026	1.47
848.195	0.65
848.364	1.14
848.533	0.52
848.701	0.68
848.87	1.58
849.039	2.05
849.207	2.08
849.376	2.08
849.545	1.33
849.713	0.78
849.882	1.04
850.051	1.68
850.219	0.98
850.388	2.55
850.556	0.56
850.725	1.06
850.893	0.66
851.062	0.65
851.23	2.48
851.399	0.76
851.567	0.97
851.736	1.42
851.904	0.92
852.073	1.26
852.241	2.17
852.41	1.67
852.578	1.04
852.746	1.23
852.915	2.09
853.083	1.28
853.251	1.25
853.42	1.91
853.588	1.53
853.756	2.75
853.924	1.02
854.093	2.14
854.261	1.57
854.429	1.04
854.597	2.07
854.765	0.04
854.934	0.69
855.102	0.88
855.27	1.95
855.438	2.01
855.606	2.34
855.774	2.39
855.942	0.25
856.11	0.25
856.278	0.8
856.446	0.6
856.614	0.92
856.782	0.95
856.95	2.48
857.118	1.56
857.286	2.14
857.454	1.77
857.622	2.03
857.79	1.44
857.958	2.22
858.126	1.59
858.294	0.32
858.462	1.8
858.629	2.15
858.797	0.52
858.965	2.61
859.133	1.43
859.301	2.02
859.468	1.9
859.636	0.7
859.804	2.28
859.971	3.17
860.139	1.25
860.307	1.88
860.474	0.59
860.642	1.25
860.81	1.81
860.977	0.81
861.145	1.07
861.313	0.66
861.48	1.13
861.648	2.41
861.815	2.01
861.983	1.95
862.15	2.54
862.318	1.73
862.485	1.57
862.653	1.18
862.82	0.96
862.988	3
863.155	2.1
863.322	0.36
863.49	0.19
863.657	1.8
863.824	3.41
863.992	2.99
864.159	2.07
864.326	2.78
864.494	1.69
864.661	4.92
864.828	1.02
864.996	2.6
865.163	4.3
865.33	0.21
865.497	1.1
865.664	1.73
865.832	0.29
865.999	2.47
866.166	2.17
866.333	0.37
866.5	2.72
866.667	1.72
866.834	0.73
867.001	4.02
867.168	1.9
867.335	2.41
867.502	-0.49
867.669	2.06
867.836	3.43
868.003	1.52
868.17	2.85
868.337	-0.12
868.504	2.66
868.671	0.19
868.838	2.24
869.005	0.23
869.172	2.47
869.339	1.25
869.505	2.28
869.672	1.58
869.839	0.53
870.006	3.03
870.173	0.64
870.339	2.71
870.506	2.36
870.673	0.69
870.84	3.1
871.006	3.71
871.173	0.9
871.34	2.02
871.506	1.42
871.673	3.63
871.839	1.35
872.006	1.5
872.173	2.27
872.339	0.77
872.506	2.13
872.672	-0.24
872.839	0.2
873.005	2.11
873.172	5.53
873.338	2.75
873.505	3.42
873.671	1.31
873.838	2.96
874.004	1.39
874.171	0.9
874.337	1.59
874.503	2.08
874.67	1.51
874.836	1.84
875.002	3.42
875.169	2.03
875.335	4.76
875.501	1.01
875.668	3.71
875.834	1.94
876	2.17
876.166	2.66
876.332	2.04
876.499	4.31
876.665	1.12
876.831	2.88
876.997	4.7
877.163	3.06
877.329	1.57
877.495	2.63
877.662	2.96
877.828	3.24
877.994	2.28
878.16	0.72
878.326	0.68
878.492	2.37
878.658	1.75
878.824	3.65
878.99	2.97
879.156	1.75
879.322	4.03
879.487	0.91
879.653	1.68
879.819	1.82
879.985	1.67
880.151	1.28
880.317	3.6
880.483	2.65
880.648	3.77
880.814	-1.14
880.98	2.84
881.146	0.46
881.312	1.7
881.477	3.09
881.643	2.14
881.809	4.91
881.974	3.76
882.14	0.63
882.306	2.97
882.471	2.59
882.637	1.27
882.803	3.91
882.968	4.24
883.134	4.39
883.299	2.46
883.465	2.76
883.63	3.52
883.796	3.78
883.961	3.1
884.127	2.56
884.292	-0.13
884.458	-0.23
884.623	-0.23
