Data from Apollo_Calib_20240827__AbsoluteIrradiance__808__12-37-02-119.txt Node

Date: Wed Aug 28 12:37:02 BST 2024
User: biology
Spectrometer: FLMT08252
Trigger mode: 0
Integration Time (sec): 5.000000E-1
Scans to average: 5
Electric dark correction enabled: true
Nonlinearity correction enabled: false
Boxcar width: 0
XAxis mode: Wavelengths
Number of Pixels in Spectrum: 3648
>>>>>Begin Spectral Data<<<<<
179.588	-0
179.809	-0
180.03	-0
180.251	-0
180.473	-0
180.694	0
180.915	0
181.136	-0
181.357	0
181.578	0
181.799	-0
182.02	-0
182.241	-0
182.462	-0
182.683	0
182.904	-0
183.125	-0
183.346	0
183.567	0
183.788	0
184.009	0
184.23	0
184.451	0
184.672	0
184.892	0
185.113	0
185.334	0
185.555	0
185.776	0
185.996	0
186.217	0
186.438	0
186.659	0
186.879	0
187.1	0
187.321	0
187.541	0
187.762	0
187.983	0
188.203	0
188.424	0
188.644	0
188.865	0
189.086	0
189.306	0
189.527	0
189.747	0
189.968	0
190.188	0
190.409	0
190.629	0
190.849	0
191.07	0
191.29	0
191.511	0
191.731	0
191.951	0
192.172	0
192.392	0
192.612	0
192.833	0
193.053	0
193.273	0
193.493	0
193.714	0
193.934	0
194.154	0
194.374	0
194.594	0
194.815	0
195.035	0
195.255	0
195.475	0
195.695	0
195.915	0
196.135	0
196.355	0
196.575	0
196.795	0
197.015	0
197.235	0
197.455	0
197.675	0
197.895	0
198.115	0
198.335	0
198.555	0
198.775	0
198.995	0
199.214	0
199.434	0
199.654	0
199.874	0
200.094	3.51
200.313	2.52
200.533	2.05
200.753	1.64
200.973	3.93
201.192	3.3
201.412	1.12
201.632	1.7
201.851	3.55
202.071	2.46
202.291	1.93
202.51	1.57
202.73	3.01
202.95	1.74
203.169	1.48
203.389	1.55
203.608	1.87
203.828	1.65
204.047	1.38
204.267	2.04
204.486	2.43
204.706	2.32
204.925	1.91
205.145	1.42
205.364	2.25
205.583	2.59
205.803	1.29
206.022	1.66
206.242	1.68
206.461	1.77
206.68	1.22
206.9	1.77
207.119	2.5
207.338	2.54
207.557	1.12
207.777	1.22
207.996	1.39
208.215	2.32
208.434	0.85
208.654	0.6
208.873	1.25
209.092	2.02
209.311	1.22
209.53	1.24
209.749	1.19
209.968	1.05
210.187	0.98
210.407	0.89
210.626	1.31
210.845	1.45
211.064	1.34
211.283	0.8
211.502	1.58
211.721	1.32
211.94	1.17
212.159	1.47
212.377	1.42
212.596	1.64
212.815	1.4
213.034	1.22
213.253	1.44
213.472	1.54
213.691	0.97
213.91	0.8
214.128	0.58
214.347	1.59
214.566	0.44
214.785	0.48
215.003	1.22
215.222	1.26
215.441	1.01
215.66	0.62
215.878	0.9
216.097	1.26
216.316	0.73
216.534	0.76
216.753	0.97
216.972	0.88
217.19	0.79
217.409	0.62
217.627	0.82
217.846	0.83
218.064	0.9
218.283	0.72
218.501	1.41
218.72	1.33
218.938	0.46
219.157	0.53
219.375	1.11
219.594	1.23
219.812	0.65
220.031	0.57
220.249	1.22
220.467	1.19
220.686	0.6
220.904	0.62
221.122	0.58
221.341	1.44
221.559	0.75
221.777	0.65
221.995	0.84
222.214	0.91
222.432	0.67
222.65	0.82
222.868	0.58
223.086	0.86
223.305	0.8
223.523	0.63
223.741	1.06
223.959	0.59
224.177	0.34
224.395	0.51
224.613	0.8
224.831	0.96
225.049	0.44
225.267	0.56
225.485	0.98
225.703	0.42
225.921	0.52
226.139	0.5
226.357	0.76
226.575	0.78
226.793	0.51
227.011	1.63
227.229	0.76
227.447	0.94
227.665	0.65
227.883	0.41
228.1	0.61
228.318	0.67
228.536	0.3
228.754	0.39
228.972	0.7
229.189	0.93
229.407	0.67
229.625	0.66
229.843	0.85
230.06	0.85
230.278	0.44
230.496	0.62
230.713	0.56
230.931	0.9
231.149	0.55
231.366	0.4
231.584	0.57
231.801	0.99
232.019	0.53
232.236	0.42
232.454	0.49
232.671	0.74
232.889	0.55
233.106	0.37
233.324	0.6
233.541	0.57
233.759	0.53
233.976	0.44
234.194	0.55
234.411	0.54
234.628	0.42
234.846	0.43
235.063	0.59
235.28	0.59
235.498	0.43
235.715	0.29
235.932	0.75
236.149	0.53
236.367	0.4
236.584	0.6
236.801	0.48
237.018	0.62
237.236	0.54
237.453	0.28
237.67	0.67
237.887	0.61
238.104	0.44
238.321	0.36
238.538	0.42
238.755	0.73
238.973	0.34
239.19	0.49
239.407	0.62
239.624	0.59
239.841	0.38
240.058	0.41
240.275	0.49
240.492	0.57
240.709	0.48
240.925	0.4
241.142	0.54
241.359	0.34
241.576	0.32
241.793	0.39
242.01	0.48
242.227	0.59
242.444	0.53
242.66	0.67
242.877	0.5
243.094	0.43
243.311	0.46
243.527	0.29
243.744	0.56
243.961	0.56
244.178	0.44
244.394	0.33
244.611	0.68
244.828	0.72
245.044	0.31
245.261	0.35
245.477	0.47
245.694	0.72
245.911	0.48
246.127	0.52
246.344	0.61
246.56	0.48
246.777	0.33
246.993	0.42
247.21	0.49
247.426	0.6
247.643	0.36
247.859	0.37
248.076	0.36
248.292	0.69
248.508	0.37
248.725	0.43
248.941	0.53
249.157	0.58
249.374	0.37
249.59	0.53
249.806	0.43
250.023	0.5
250.239	0.38
250.455	0.29
250.671	0.41
250.888	0.54
251.104	0.54
251.32	0.33
251.536	0.4
251.752	0.42
251.969	0.39
252.185	0.38
252.401	0.62
252.617	0.49
252.833	0.31
253.049	0.33
253.265	0.51
253.481	0.36
253.697	0.3
253.913	0.36
254.129	0.46
254.345	0.44
254.561	0.38
254.777	0.28
254.993	0.54
255.209	0.47
255.425	0.36
255.641	0.35
255.857	0.44
256.073	0.43
256.288	0.28
256.504	0.3
256.72	0.46
256.936	0.55
257.152	0.35
257.367	0.32
257.583	0.36
257.799	0.48
258.015	0.37
258.23	0.4
258.446	0.58
258.662	0.43
258.877	0.31
259.093	0.31
259.309	0.47
259.524	0.4
259.74	0.3
259.955	0.28
260.171	0.47
260.387	0.42
260.602	0.46
260.818	0.32
261.033	0.34
261.249	0.39
261.464	0.34
261.68	0.29
261.895	0.39
262.11	0.43
262.326	0.33
262.541	0.24
262.757	0.38
262.972	0.41
263.187	0.41
263.403	0.4
263.618	0.55
263.833	0.43
264.049	0.26
264.264	0.34
264.479	0.36
264.694	0.5
264.91	0.27
265.125	0.33
265.34	0.43
265.555	0.54
265.77	0.38
265.986	0.33
266.201	0.42
266.416	0.46
266.631	0.3
266.846	0.27
267.061	0.42
267.276	0.44
267.491	0.21
267.706	0.42
267.921	0.35
268.136	0.41
268.351	0.36
268.566	0.23
268.781	0.47
268.996	0.46
269.211	0.31
269.426	0.27
269.641	0.33
269.856	0.5
270.071	0.27
270.285	0.17
270.5	0.43
270.715	0.41
270.93	0.31
271.145	0.36
271.359	0.51
271.574	0.37
271.789	0.26
272.004	0.29
272.218	0.31
272.433	0.39
272.648	0.3
272.862	0.36
273.077	0.33
273.292	0.34
273.506	0.27
273.721	0.26
273.936	0.4
274.15	0.43
274.365	0.24
274.579	0.43
274.794	0.39
275.008	0.38
275.223	0.25
275.437	0.31
275.652	0.45
275.866	0.38
276.081	0.35
276.295	0.39
276.509	0.32
276.724	0.34
276.938	0.35
277.153	0.34
277.367	0.38
277.581	0.29
277.796	0.31
278.01	0.24
278.224	0.44
278.438	0.47
278.653	0.19
278.867	0.29
279.081	0.44
279.295	0.35
279.51	0.33
279.724	0.24
279.938	0.45
280.152	0.32
280.366	0.29
280.58	0.27
280.794	0.47
281.008	0.39
281.222	0.35
281.437	0.48
281.651	0.35
281.865	0.4
282.079	0.24
282.293	0.23
282.507	0.25
282.721	0.32
282.935	0.27
283.148	0.21
283.362	0.26
283.576	0.2
283.79	0.29
284.004	0.24
284.218	0.42
284.432	0.26
284.646	0.3
284.859	0.27
285.073	0.32
285.287	0.34
285.501	0.33
285.714	0.29
285.928	0.32
286.142	0.34
286.356	0.22
286.569	0.24
286.783	0.38
286.997	0.38
287.21	0.27
287.424	0.32
287.637	0.31
287.851	0.27
288.065	0.35
288.278	0.28
288.492	0.31
288.705	0.31
288.919	0.33
289.132	0.24
289.346	0.35
289.559	0.23
289.773	0.18
289.986	0.26
290.2	0.27
290.413	0.36
290.626	0.27
290.84	0.24
291.053	0.32
291.267	0.43
291.48	0.3
291.693	0.27
291.906	0.24
292.12	0.32
292.333	0.24
292.546	0.22
292.76	0.41
292.973	0.32
293.186	0.35
293.399	0.25
293.612	0.31
293.826	0.34
294.039	0.29
294.252	0.29
294.465	0.34
294.678	0.33
294.891	0.26
295.104	0.22
295.317	0.26
295.53	0.3
295.743	0.27
295.956	0.28
296.169	0.38
296.382	0.35
296.595	0.27
296.808	0.25
297.021	0.39
297.234	0.37
297.447	0.26
297.66	0.28
297.873	0.34
298.086	0.34
298.299	0.19
298.511	0.17
298.724	0.31
298.937	0.21
299.15	0.2
299.363	0.25
299.575	0.35
299.788	0.33
300.001	0.24
300.213	0.17
300.426	0.29
300.639	0.23
300.852	0.22
301.064	0.28
301.277	0.39
301.489	0.27
301.702	0.26
301.915	0.26
302.127	0.26
302.34	0.32
302.552	0.29
302.765	0.21
302.977	0.33
303.19	0.22
303.402	0.23
303.615	0.23
303.827	0.26
304.04	0.25
304.252	0.27
304.464	0.25
304.677	0.4
304.889	0.33
305.102	0.21
305.314	0.22
305.526	0.27
305.739	0.31
305.951	0.19
306.163	0.22
306.375	0.36
306.588	0.25
306.8	0.23
307.012	0.22
307.224	0.27
307.436	0.35
307.649	0.18
307.861	0.27
308.073	0.3
308.285	0.29
308.497	0.23
308.709	0.23
308.921	0.28
309.133	0.3
309.346	0.25
309.558	0.19
309.77	0.33
309.982	0.35
310.194	0.3
310.406	0.21
310.617	0.35
310.829	0.25
311.041	0.26
311.253	0.23
311.465	0.2
311.677	0.25
311.889	0.21
312.101	0.24
312.313	0.32
312.524	0.38
312.736	0.21
312.948	0.28
313.16	0.35
313.372	0.29
313.583	0.28
313.795	0.24
314.007	0.25
314.218	0.27
314.43	0.26
314.642	0.24
314.853	0.22
315.065	0.31
315.277	0.23
315.488	0.27
315.7	0.31
315.912	0.31
316.123	0.23
316.335	0.21
316.546	0.35
316.758	0.27
316.969	0.24
317.181	0.25
317.392	0.27
317.604	0.29
317.815	0.22
318.026	0.25
318.238	0.25
318.449	0.29
318.661	0.16
318.872	0.19
319.083	0.2
319.295	0.29
319.506	0.24
319.717	0.24
319.929	0.32
320.14	0.29
320.351	0.29
320.562	0.19
320.774	0.27
320.985	0.3
321.196	0.22
321.407	0.18
321.618	0.33
321.829	0.32
322.041	0.3
322.252	0.22
322.463	0.3
322.674	0.3
322.885	0.23
323.096	0.24
323.307	0.25
323.518	0.28
323.729	0.23
323.94	0.18
324.151	0.25
324.362	0.28
324.573	0.26
324.784	0.22
324.995	0.35
325.206	0.28
325.417	0.22
325.628	0.22
325.838	0.26
326.049	0.26
326.26	0.31
326.471	0.24
326.682	0.32
326.892	0.3
327.103	0.17
327.314	0.23
327.525	0.35
327.735	0.29
327.946	0.27
328.157	0.26
328.368	0.31
328.578	0.29
328.789	0.31
328.999	0.25
329.21	0.23
329.421	0.32
329.631	0.23
329.842	0.18
330.052	0.27
330.263	0.28
330.473	0.32
330.684	0.25
330.894	0.25
331.105	0.29
331.315	0.25
331.526	0.21
331.736	0.4
331.947	0.28
332.157	0.3
332.367	0.18
332.578	0.31
332.788	0.38
332.999	0.3
333.209	0.23
333.419	0.22
333.629	0.26
333.84	0.25
334.05	0.22
334.26	0.34
334.47	0.29
334.681	0.33
334.891	0.24
335.101	0.32
335.311	0.37
335.521	0.22
335.732	0.25
335.942	0.34
336.152	0.32
336.362	0.27
336.572	0.28
336.782	0.25
336.992	0.28
337.202	0.23
337.412	0.21
337.622	0.25
337.832	0.22
338.042	0.25
338.252	0.18
338.462	0.24
338.672	0.25
338.882	0.25
339.092	0.28
339.302	0.3
339.511	0.29
339.721	0.24
339.931	0.17
340.141	0.32
340.351	0.36
340.561	0.27
340.77	0.29
340.98	0.28
341.19	0.26
341.4	0.27
341.609	0.21
341.819	0.24
342.029	0.16
342.238	0.3
342.448	0.19
342.658	0.3
342.867	0.25
343.077	0.24
343.286	0.22
343.496	0.27
343.706	0.34
343.915	0.22
344.125	0.28
344.334	0.28
344.544	0.18
344.753	0.25
344.963	0.21
345.172	0.23
345.381	0.24
345.591	0.23
345.8	0.24
346.01	0.33
346.219	0.3
346.428	0.14
346.638	0.18
346.847	0.27
347.056	0.36
347.266	0.26
347.475	0.21
347.684	0.3
347.893	0.33
348.103	0.25
348.312	0.22
348.521	0.25
348.73	0.29
348.94	0.23
349.149	0.24
349.358	0.23
349.567	0.22
349.776	0.17
349.985	0.19
350.194	0.32
350.403	0.32
350.612	0.12
350.821	0.22
351.03	0.22
351.239	0.15
351.448	0.28
351.657	0.22
351.866	0.31
352.075	0.24
352.284	0.29
352.493	0.19
352.702	0.32
352.911	0.25
353.12	0.27
353.329	0.22
353.538	0.28
353.746	0.24
353.955	0.19
354.164	0.25
354.373	0.23
354.582	0.33
354.79	0.25
354.999	0.22
355.208	0.24
355.416	0.35
355.625	0.2
355.834	0.22
356.042	0.3
356.251	0.23
356.46	0.22
356.668	0.23
356.877	0.33
357.085	0.28
357.294	0.12
357.503	0.28
357.711	0.26
357.92	0.38
358.128	0.25
358.337	0.2
358.545	0.3
358.754	0.26
358.962	0.24
359.17	0.19
359.379	0.26
359.587	0.25
359.796	0.23
360.004	0.29
360.212	0.28
360.421	0.29
360.629	0.22
360.837	0.22
361.046	0.34
361.254	0.4
361.462	0.23
361.67	0.24
361.879	0.29
362.087	0.3
362.295	0.3
362.503	0.23
362.711	0.18
362.92	0.19
363.128	0.25
363.336	0.2
363.544	0.21
363.752	0.26
363.96	0.23
364.168	0.24
364.376	0.26
364.584	0.26
364.792	0.32
365	0.25
365.208	0.25
365.416	0.27
365.624	0.3
365.832	0.19
366.04	0.36
366.248	0.26
366.456	0.25
366.664	0.27
366.872	0.24
367.079	0.23
367.287	0.27
367.495	0.26
367.703	0.23
367.911	0.22
368.118	0.27
368.326	0.23
368.534	0.19
368.742	0.26
368.949	0.18
369.157	0.19
369.365	0.28
369.572	0.26
369.78	0.18
369.988	0.33
370.195	0.26
370.403	0.25
370.61	0.24
370.818	0.27
371.026	0.37
371.233	0.22
371.441	0.26
371.648	0.25
371.856	0.26
372.063	0.29
372.271	0.22
372.478	0.22
372.685	0.21
372.893	0.3
373.1	0.27
373.308	0.24
373.515	0.43
373.722	0.32
373.93	0.23
374.137	0.26
374.344	0.33
374.552	0.3
374.759	0.29
374.966	0.3
375.173	0.22
375.381	0.34
375.588	0.22
375.795	0.18
376.002	0.23
376.209	0.24
376.417	0.25
376.624	0.22
376.831	0.32
377.038	0.25
377.245	0.21
377.452	0.26
377.659	0.25
377.866	0.23
378.073	0.25
378.28	0.25
378.487	0.31
378.694	0.3
378.901	0.24
379.108	0.25
379.315	0.31
379.522	0.39
379.729	0.31
379.936	0.21
380.143	0.29
380.35	0.27
380.557	0.28
380.763	0.27
380.97	0.25
381.177	0.29
381.384	0.29
381.591	0.22
381.797	0.32
382.004	0.31
382.211	0.33
382.418	0.23
382.624	0.3
382.831	0.32
383.038	0.28
383.244	0.28
383.451	0.31
383.658	0.34
383.864	0.25
384.071	0.25
384.277	0.37
384.484	0.28
384.69	0.33
384.897	0.28
385.103	0.28
385.31	0.24
385.516	0.26
385.723	0.25
385.929	0.29
386.136	0.23
386.342	0.35
386.549	0.25
386.755	0.32
386.961	0.33
387.168	0.3
387.374	0.27
387.58	0.3
387.787	0.32
387.993	0.28
388.199	0.29
388.406	0.21
388.612	0.29
388.818	0.22
389.024	0.22
389.231	0.29
389.437	0.39
389.643	0.33
389.849	0.29
390.055	0.27
390.261	0.31
390.467	0.36
390.674	0.27
390.88	0.29
391.086	0.35
391.292	0.26
391.498	0.36
391.704	0.38
391.91	0.23
392.116	0.23
392.322	0.21
392.528	0.34
392.734	0.35
392.94	0.34
393.146	0.3
393.352	0.34
393.557	0.3
393.763	0.27
393.969	0.36
394.175	0.33
394.381	0.37
394.587	0.25
394.792	0.33
394.998	0.35
395.204	0.33
395.41	0.31
395.615	0.34
395.821	0.37
396.027	0.34
396.233	0.27
396.438	0.36
396.644	0.43
396.85	0.36
397.055	0.31
397.261	0.28
397.466	0.41
397.672	0.37
397.878	0.38
398.083	0.34
398.289	0.27
398.494	0.45
398.7	0.37
398.905	0.23
399.111	0.44
399.316	0.27
399.522	0.33
399.727	0.35
399.932	0.35
400.138	0.29
400.343	0.38
400.549	0.37
400.754	0.36
400.959	0.38
401.165	0.37
401.37	0.38
401.575	0.31
401.78	0.37
401.986	0.37
402.191	0.39
402.396	0.35
402.601	0.43
402.807	0.37
403.012	0.37
403.217	0.48
403.422	0.41
403.627	0.41
403.832	0.39
404.037	0.43
404.243	0.43
404.448	0.4
404.653	0.39
404.858	0.49
405.063	0.45
405.268	0.43
405.473	0.39
405.678	0.43
405.883	0.65
406.088	0.5
406.293	0.4
406.498	0.45
406.703	0.55
406.907	0.49
407.112	0.42
407.317	0.53
407.522	0.57
407.727	0.46
407.932	0.55
408.136	0.65
408.341	0.51
408.546	0.53
408.751	0.57
408.956	0.56
409.16	0.66
409.365	0.59
409.57	0.65
409.774	0.61
409.979	0.62
410.184	0.69
410.388	0.59
410.593	0.77
410.798	0.76
411.002	0.76
411.207	0.86
411.411	0.83
411.616	0.71
411.82	0.84
412.025	0.87
412.229	0.88
412.434	0.97
412.638	0.95
412.843	0.9
413.047	1.02
413.252	0.98
413.456	1.04
413.66	1.07
413.865	1.01
414.069	1.17
414.273	1.14
414.478	1.13
414.682	1.21
414.886	1.23
415.091	1.17
415.295	1.23
415.499	1.42
415.703	1.36
415.908	1.48
416.112	1.37
416.316	1.57
416.52	1.57
416.724	1.58
416.929	1.66
417.133	1.86
417.337	1.81
417.541	1.79
417.745	1.92
417.949	1.96
418.153	2.09
418.357	2.08
418.561	2.31
418.765	2.28
418.969	2.45
419.173	2.44
419.377	2.46
419.581	2.72
419.785	2.66
419.989	2.69
420.193	2.86
420.397	2.98
420.601	3.11
420.804	3.24
421.008	3.13
421.212	3.35
421.416	3.35
421.62	3.35
421.823	3.42
422.027	3.66
422.231	3.59
422.435	3.56
422.638	3.61
422.842	3.77
423.046	3.78
423.249	4.1
423.453	4.09
423.657	4.16
423.86	4.3
424.064	4.4
424.268	4.59
424.471	4.56
424.675	4.81
424.878	4.86
425.082	5
425.285	5.4
425.489	5.19
425.692	5.32
425.896	5.33
426.099	5.63
426.303	5.7
426.506	5.87
426.71	6.11
426.913	6.32
427.116	6.5
427.32	6.47
427.523	6.53
427.726	6.82
427.93	6.94
428.133	7.24
428.336	7.36
428.54	7.5
428.743	7.72
428.946	8.01
429.149	8.11
429.353	8.05
429.556	8.13
429.759	8.19
429.962	8.26
430.165	8.55
430.368	8.16
430.571	8.15
430.775	8.1
430.978	8.23
431.181	8.24
431.384	8.28
431.587	8.41
431.79	8.85
431.993	8.79
432.196	9.02
432.399	9.39
432.602	9.63
432.805	9.67
433.008	10.24
433.211	9.97
433.414	10.45
433.616	10.42
433.819	10.33
434.022	10.59
434.225	10.77
434.428	10.7
434.631	11.21
434.833	10.98
435.036	11.2
435.239	11.41
435.442	11.56
435.645	11.64
435.847	11.68
436.05	12.07
436.253	12.27
436.455	12.22
436.658	12.15
436.861	12.39
437.063	12.66
437.266	12.5
437.468	12.87
437.671	13.24
437.874	13.26
438.076	13.07
438.279	13.56
438.481	13.56
438.684	14.26
438.886	14.01
439.089	14.36
439.291	14.29
439.494	14.65
439.696	14.78
439.899	15.31
440.101	15.73
440.303	16.01
440.506	16.81
440.708	16.35
440.91	16.61
441.113	16.84
441.315	17.01
441.517	16.94
441.72	17.54
441.922	17.09
442.124	16.92
442.326	17.43
442.529	17.53
442.731	17.44
442.933	17.89
443.135	17.55
443.337	17.57
443.539	18.04
443.742	17.8
443.944	18.4
444.146	18.05
444.348	18.21
444.55	18
444.752	18.4
444.954	18.24
445.156	18.08
445.358	18.48
445.56	18.67
445.762	18.36
445.964	18.94
446.166	18.56
446.368	18.64
446.57	18.69
446.772	18.23
446.974	17.94
447.175	18.39
447.377	17.89
447.579	18.41
447.781	18.09
447.983	17.81
448.184	17.3
448.386	17.74
448.588	17.24
448.79	17.19
448.991	17.44
449.193	17.61
449.395	16.77
449.597	16.36
449.798	16.36
450	15.81
450.202	15.79
450.403	15.86
450.605	15.65
450.806	15.22
451.008	15.05
451.21	14.92
451.411	14.52
451.613	13.65
451.814	13.94
452.016	13.88
452.217	13.13
452.419	13.29
452.62	13
452.821	12.61
453.023	12.6
453.224	12.12
453.426	11.85
453.627	11.07
453.828	11.11
454.03	11.25
454.231	11.14
454.432	10.99
454.634	10.7
454.835	10.4
455.036	10.25
455.238	10
455.439	9.78
455.64	9.48
455.841	9.36
456.042	9.4
456.244	9.11
456.445	8.89
456.646	8.53
456.847	8.45
457.048	8.37
457.249	8.43
457.45	8.17
457.651	7.59
457.852	7.57
458.054	7.27
458.255	7.13
458.456	7.24
458.657	7.12
458.858	6.67
459.058	6.56
459.259	6.73
459.46	6.24
459.661	6.37
459.862	6.45
460.063	6.26
460.264	6.17
460.465	5.91
460.666	6.04
460.866	5.73
461.067	5.45
461.268	5.5
461.469	5.37
461.67	5.32
461.87	5.2
462.071	5.14
462.272	5.08
462.473	5.07
462.673	5.26
462.874	5.04
463.075	5.1
463.275	5.05
463.476	5.14
463.676	5.1
463.877	4.8
464.078	4.87
464.278	4.93
464.479	4.88
464.679	4.71
464.88	4.62
465.08	4.65
465.281	4.41
465.481	4.27
465.682	4.11
465.882	4.11
466.083	4.11
466.283	3.98
466.483	3.92
466.684	3.77
466.884	3.61
467.085	3.62
467.285	3.72
467.485	3.6
467.686	3.52
467.886	3.37
468.086	3.33
468.286	3.33
468.487	3.4
468.687	3.21
468.887	3.2
469.087	3.33
469.287	3.21
469.488	2.99
469.688	3.13
469.888	3.16
470.088	3.11
470.288	2.97
470.488	3.04
470.688	2.87
470.888	2.79
471.088	2.72
471.288	2.83
471.488	2.74
471.688	2.75
471.888	2.65
472.088	2.86
472.288	2.74
472.488	2.53
472.688	2.53
472.888	2.56
473.088	2.62
473.288	2.5
473.488	2.46
473.688	2.64
473.887	2.46
474.087	2.35
474.287	2.45
474.487	2.33
474.687	2.38
474.886	2.31
475.086	2.3
475.286	2.37
475.486	2.32
475.685	2.26
475.885	2.17
476.085	2.29
476.284	2.23
476.484	2.23
476.684	2.24
476.883	2.3
477.083	2.2
477.282	2.13
477.482	2.19
477.681	2.13
477.881	2.11
478.08	2.04
478.28	2.09
478.479	2.12
478.679	2.13
478.878	2
479.078	1.99
479.277	2.07
479.477	2.08
479.676	2
479.875	2.01
480.075	1.97
480.274	2.02
480.473	2.04
480.673	1.98
480.872	2.07
481.071	2.01
481.271	2.02
481.47	1.96
481.669	1.98
481.868	1.98
482.067	2.01
482.267	1.85
482.466	1.92
482.665	1.95
482.864	1.94
483.063	1.9
483.262	1.99
483.461	2.05
483.661	2.03
483.86	2
484.059	2.02
484.258	2.08
484.457	2.04
484.656	1.99
484.855	2.09
485.054	1.94
485.253	1.93
485.452	1.93
485.651	2.04
485.849	2.03
486.048	2.04
486.247	2.03
486.446	2.09
486.645	2.04
486.844	2.05
487.043	2.05
487.241	2.1
487.44	2.04
487.639	2.16
487.838	2.11
488.037	2.12
488.235	2.24
488.434	2.18
488.633	2.03
488.831	2.2
489.03	2.22
489.229	2.19
489.427	2.21
489.626	2.28
489.825	2.26
490.023	2.27
490.222	2.26
490.42	2.32
490.619	2.34
490.817	2.36
491.016	2.35
491.214	2.41
491.413	2.42
491.611	2.38
491.81	2.39
492.008	2.44
492.207	2.56
492.405	2.54
492.604	2.48
492.802	2.55
493	2.62
493.199	2.62
493.397	2.66
493.595	2.72
493.794	2.64
493.992	2.78
494.19	2.76
494.388	2.8
494.587	2.73
494.785	2.75
494.983	2.74
495.181	2.89
495.379	2.96
495.578	2.98
495.776	2.95
495.974	2.94
496.172	2.98
496.37	3.07
496.568	3.13
496.766	3.11
496.964	3.19
497.162	3.19
497.36	3.22
497.558	3.23
497.756	3.36
497.954	3.3
498.152	3.35
498.35	3.45
498.548	3.36
498.746	3.38
498.944	3.39
499.142	3.44
499.34	3.56
499.538	3.62
499.736	3.55
499.933	3.64
500.131	3.64
500.329	3.81
500.527	3.75
500.725	3.87
500.922	3.88
501.12	3.89
501.318	3.91
501.516	3.93
501.713	4.02
501.911	4.05
502.109	3.98
502.306	4.09
502.504	4.02
502.701	4.11
502.899	4.18
503.097	4.39
503.294	4.19
503.492	4.34
503.689	4.34
503.887	4.39
504.084	4.44
504.282	4.4
504.479	4.43
504.677	4.63
504.874	4.56
505.072	4.51
505.269	4.69
505.466	4.69
505.664	4.8
505.861	4.64
506.059	4.75
506.256	4.8
506.453	4.82
506.651	5
506.848	5.04
507.045	4.97
507.242	4.99
507.44	5.04
507.637	5.07
507.834	5.03
508.031	5.25
508.229	5.13
508.426	5.09
508.623	5.3
508.82	5.31
509.017	5.28
509.214	5.28
509.411	5.42
509.608	5.35
509.805	5.52
510.003	5.52
510.2	5.54
510.397	5.7
510.594	5.54
510.791	5.68
510.988	5.66
511.184	5.66
511.381	5.54
511.578	5.7
511.775	5.83
511.972	5.75
512.169	5.83
512.366	5.83
512.563	5.98
512.76	5.97
512.956	6.01
513.153	5.94
513.35	5.94
513.547	5.96
513.744	6.07
513.94	6.06
514.137	6.18
514.334	6.15
514.53	6.2
514.727	6.43
514.924	6.31
515.12	6.26
515.317	6.32
515.514	6.26
515.71	6.18
515.907	6.46
516.103	6.44
516.3	6.33
516.497	6.46
516.693	6.51
516.89	6.53
517.086	6.52
517.283	6.57
517.479	6.42
517.676	6.63
517.872	6.67
518.068	6.7
518.265	6.62
518.461	6.6
518.658	6.79
518.854	6.75
519.05	6.83
519.247	6.83
519.443	6.78
519.639	6.94
519.836	6.79
520.032	6.76
520.228	6.97
520.424	6.94
520.621	6.93
520.817	7.03
521.013	6.91
521.209	7.15
521.405	7.1
521.601	7.09
521.798	6.99
521.994	7
522.19	6.98
522.386	7.06
522.582	7.15
522.778	7.26
522.974	7.12
523.17	7.15
523.366	7.16
523.562	7.24
523.758	7.21
523.954	7.06
524.15	7.29
524.346	7.3
524.542	7.29
524.738	7.26
524.934	7.32
525.129	7.23
525.325	7.3
525.521	7.25
525.717	7.49
525.913	7.37
526.109	7.45
526.304	7.48
526.5	7.46
526.696	7.49
526.892	7.41
527.087	7.63
527.283	7.56
527.479	7.56
527.674	7.38
527.87	7.6
528.066	7.51
528.261	7.62
528.457	7.49
528.653	7.7
528.848	7.56
529.044	7.7
529.239	7.56
529.435	7.55
529.63	7.57
529.826	7.57
530.021	7.61
530.217	7.67
530.412	7.63
530.608	7.64
530.803	7.65
530.999	7.58
531.194	7.65
531.389	7.77
531.585	7.66
531.78	7.88
531.975	7.74
532.171	7.77
532.366	7.75
532.561	7.79
532.757	7.72
532.952	7.93
533.147	7.68
533.342	7.85
533.538	7.74
533.733	7.92
533.928	7.58
534.123	7.76
534.318	7.83
534.513	7.77
534.709	7.94
534.904	7.9
535.099	7.98
535.294	7.95
535.489	7.96
535.684	7.8
535.879	7.83
536.074	7.98
536.269	7.93
536.464	7.96
536.659	7.87
536.854	7.92
537.049	8.06
537.244	7.94
537.439	7.94
537.634	7.91
537.828	7.99
538.023	7.98
538.218	7.93
538.413	7.86
538.608	7.98
538.803	7.92
538.997	7.94
539.192	8.03
539.387	7.91
539.582	7.92
539.776	7.87
539.971	8.04
540.166	8.1
540.36	7.98
540.555	8.07
540.75	8.01
540.944	8.03
541.139	8.04
541.334	7.98
541.528	7.97
541.723	8.09
541.917	8.13
542.112	7.96
542.306	7.91
542.501	7.97
542.695	8.03
542.89	7.95
543.084	8.05
543.279	8.09
543.473	8.04
543.668	8.12
543.862	7.95
544.056	7.95
544.251	8.14
544.445	8.12
544.64	8.11
544.834	7.86
545.028	7.68
545.222	8.04
545.417	8.28
545.611	8.09
545.805	8.07
546	7.87
546.194	8.08
546.388	8.09
546.582	8
546.776	8.03
546.97	8.05
547.165	8.09
547.359	8.01
547.553	7.99
547.747	8.04
547.941	8.29
548.135	8.03
548.329	8.08
548.523	8.1
548.717	8.02
548.911	7.98
549.105	7.98
549.299	8.16
549.493	8.12
549.687	8.03
549.881	8.14
550.075	8.04
550.269	7.96
550.463	8.16
550.657	8.06
550.85	8.04
551.044	8.09
551.238	8.15
551.432	8.17
551.626	8.19
551.82	8.13
552.013	8.01
552.207	8.22
552.401	8.23
552.594	8.11
552.788	8.07
552.982	8.06
553.176	8.06
553.369	8.28
553.563	8.16
553.756	8.06
553.95	8.14
554.144	8.18
554.337	8.14
554.531	7.96
554.724	8.1
554.918	8.2
555.111	8.1
555.305	8.13
555.498	8.05
555.692	8.2
555.885	8.12
556.079	8.09
556.272	8.11
556.466	8.14
556.659	8.09
556.852	8.19
557.046	8
557.239	7.94
557.432	8.09
557.626	8.21
557.819	8.23
558.012	8.21
558.206	8.26
558.399	8.17
558.592	8.05
558.785	8.05
558.979	8.16
559.172	8.11
559.365	8.1
559.558	8.07
559.751	8.02
559.944	8.17
560.138	8.12
560.331	8.11
560.524	8.14
560.717	8.15
560.91	8.05
561.103	8.21
561.296	7.98
561.489	8.17
561.682	8.19
561.875	8.12
562.068	8.25
562.261	8.09
562.454	8.29
562.647	8.09
562.84	8.15
563.032	8.16
563.225	8.07
563.418	8.14
563.611	8.22
563.804	8.07
563.997	7.97
564.19	7.87
564.382	8.19
564.575	8.12
564.768	8.11
564.961	8.21
565.153	8.01
565.346	8.01
565.539	8.2
565.731	8.06
565.924	8.2
566.117	8.27
566.309	8.16
566.502	8.05
566.695	8.01
566.887	8.12
567.08	8.04
567.272	8.18
567.465	8.01
567.657	8.13
567.85	7.99
568.042	8.09
568.235	8.2
568.427	7.91
568.62	8.1
568.812	8.09
569.005	8.14
569.197	7.95
569.389	8.09
569.582	8.09
569.774	8.06
569.966	8
570.159	7.94
570.351	7.95
570.543	8.03
570.736	8.05
570.928	7.92
571.12	8.12
571.312	7.96
571.505	7.8
571.697	8.06
571.889	8.02
572.081	7.99
572.273	7.94
572.465	8.05
572.658	8.05
572.85	7.99
573.042	8.04
573.234	7.94
573.426	7.97
573.618	7.99
573.81	8.02
574.002	7.96
574.194	8
574.386	7.94
574.578	7.86
574.77	7.95
574.962	7.92
575.154	7.84
575.346	7.86
575.538	7.81
575.729	7.89
575.921	7.98
576.113	8
576.305	8.01
576.497	8.01
576.689	7.84
576.88	7.78
577.072	7.97
577.264	7.92
577.456	7.88
577.647	7.85
577.839	7.98
578.031	7.81
578.223	7.86
578.414	7.76
578.606	7.86
578.798	7.94
578.989	7.87
579.181	7.9
579.372	7.86
579.564	7.82
579.755	7.81
579.947	7.7
580.139	7.89
580.33	7.7
580.522	7.82
580.713	7.77
580.905	7.74
581.096	7.83
581.287	7.71
581.479	7.76
581.67	7.82
581.862	7.74
582.053	7.76
582.244	7.61
582.436	7.8
582.627	7.65
582.818	7.6
583.01	7.7
583.201	7.76
583.392	7.64
583.583	7.67
583.775	7.51
583.966	7.57
584.157	7.65
584.348	7.76
584.54	7.55
584.731	7.66
584.922	7.61
585.113	7.48
585.304	7.66
585.495	7.58
585.686	7.72
585.877	7.67
586.068	7.71
586.259	7.58
586.45	7.52
586.641	7.48
586.832	7.59
587.023	7.5
587.214	7.5
587.405	7.58
587.596	7.45
587.787	7.39
587.978	7.5
588.169	7.41
588.36	7.4
588.551	7.42
588.742	7.54
588.932	7.52
589.123	7.27
589.314	7.5
589.505	7.37
589.696	7.4
589.886	7.39
590.077	7.31
590.268	7.27
590.458	7.31
590.649	7.12
590.84	7.37
591.03	7.3
591.221	7.25
591.412	7.17
591.602	7.37
591.793	7.28
591.984	7.31
592.174	7.26
592.365	7.4
592.555	7.13
592.746	7.18
592.936	7.12
593.127	7.23
593.317	7.26
593.508	7.23
593.698	7.12
593.889	7.17
594.079	7.13
594.269	7.01
594.46	7.02
594.65	7.12
594.84	7.06
595.031	6.97
595.221	7.02
595.411	7
595.602	7.06
595.792	6.96
595.982	6.88
596.172	7.1
596.363	6.96
596.553	6.93
596.743	6.92
596.933	6.96
597.123	6.91
597.314	6.81
597.504	6.76
597.694	6.94
597.884	6.85
598.074	6.84
598.264	6.81
598.454	6.76
598.644	6.77
598.834	6.77
599.024	6.74
599.214	6.67
599.404	6.81
599.594	6.77
599.784	6.65
599.974	6.78
600.164	6.7
600.354	6.63
600.544	6.56
600.734	6.69
600.924	6.66
601.114	6.56
601.303	6.54
601.493	6.55
601.683	6.69
601.873	6.63
602.063	6.43
602.252	6.56
602.442	6.42
602.632	6.44
602.821	6.43
603.011	6.45
603.201	6.46
603.39	6.34
603.58	6.31
603.77	6.41
603.959	6.47
604.149	6.38
604.339	6.42
604.528	6.51
604.718	6.45
604.907	6.36
605.097	6.23
605.286	6.2
605.476	6.27
605.665	6.32
605.855	6.24
606.044	6.31
606.234	6.27
606.423	6.23
606.612	6.19
606.802	6.13
606.991	6.22
607.181	6.21
607.37	6.23
607.559	5.88
607.749	6.11
607.938	6.01
608.127	6.04
608.316	6.07
608.506	6.05
608.695	6.07
608.884	6.01
609.073	5.96
609.263	6.08
609.452	6
609.641	5.86
609.83	5.83
610.019	5.94
610.208	5.89
610.397	5.84
610.586	5.95
610.775	5.84
610.965	5.85
611.154	5.68
611.343	5.84
611.532	5.7
611.721	5.83
611.91	5.7
612.099	5.7
612.287	5.67
612.476	5.6
612.665	5.74
612.854	5.56
613.043	5.67
613.232	5.7
613.421	5.54
613.61	5.56
613.798	5.56
613.987	5.63
614.176	5.59
614.365	5.57
614.554	5.5
614.742	5.56
614.931	5.36
615.12	5.53
615.309	5.49
615.497	5.4
615.686	5.34
615.875	5.42
616.063	5.42
616.252	5.3
616.44	5.35
616.629	5.36
616.818	5.34
617.006	5.28
617.195	5.28
617.383	5.3
617.572	5.18
617.76	5.21
617.949	5.21
618.137	5.27
618.326	5.29
618.514	5.07
618.703	5
618.891	5.19
619.079	5.07
619.268	5.17
619.456	5.04
619.644	5.17
619.833	5.04
620.021	5.01
620.209	4.94
620.398	5.02
620.586	4.94
620.774	4.97
620.962	4.96
621.151	5.01
621.339	4.92
621.527	4.8
621.715	4.79
621.903	4.92
622.092	4.8
622.28	4.93
622.468	4.73
622.656	4.78
622.844	4.79
623.032	4.81
623.22	4.73
623.408	4.82
623.596	4.73
623.784	4.8
623.972	4.65
624.16	4.68
624.348	4.79
624.536	4.71
624.724	4.6
624.912	4.75
625.1	4.63
625.288	4.67
625.476	4.47
625.664	4.64
625.851	4.53
626.039	4.54
626.227	4.46
626.415	4.49
626.603	4.44
626.79	4.49
626.978	4.4
627.166	4.45
627.354	4.38
627.541	4.37
627.729	4.34
627.917	4.49
628.104	4.49
628.292	4.31
628.48	4.33
628.667	4.3
628.855	4.39
629.042	4.39
629.23	4.27
629.418	4.3
629.605	4.26
629.793	4.16
629.98	4.22
630.168	4.18
630.355	4.18
630.543	4.22
630.73	4.1
630.917	4.12
631.105	4.2
631.292	4.16
631.48	4.08
631.667	4.25
631.854	4.06
632.042	4.05
632.229	3.92
632.416	4.09
632.604	4
632.791	3.87
632.978	4.02
633.165	3.95
633.353	3.98
633.54	3.96
633.727	3.85
633.914	3.87
634.101	3.78
634.289	3.96
634.476	3.79
634.663	3.77
634.85	3.85
635.037	3.7
635.224	3.69
635.411	3.83
635.598	3.74
635.785	3.76
635.972	3.66
636.159	3.8
636.346	3.68
636.533	3.66
636.72	3.64
636.907	3.64
637.094	3.69
637.281	3.54
637.468	3.6
637.655	3.58
637.842	3.6
638.029	3.53
638.215	3.52
638.402	3.52
638.589	3.51
638.776	3.45
638.963	3.44
639.149	3.55
639.336	3.53
639.523	3.47
639.709	3.4
639.896	3.42
640.083	3.43
640.27	3.43
640.456	3.32
640.643	3.38
640.829	3.26
641.016	3.32
641.203	3.24
641.389	3.32
641.576	3.32
641.762	3.25
641.949	3.3
642.135	3.27
642.322	3.21
642.508	3.14
642.695	3.22
642.881	3.17
643.068	3.1
643.254	3.17
643.441	3.19
643.627	3.17
643.813	3.04
644	3.17
644.186	3.01
644.372	3.1
644.559	3.1
644.745	3.06
644.931	3
645.118	3.03
645.304	3.04
645.49	3.03
645.676	2.96
645.862	2.98
646.049	3.05
646.235	2.97
646.421	3.06
646.607	3.12
646.793	2.88
646.979	2.9
647.165	2.9
647.352	2.9
647.538	2.94
647.724	2.84
647.91	2.79
648.096	2.85
648.282	2.87
648.468	2.75
648.654	2.83
648.84	2.85
649.026	2.78
649.212	2.73
649.397	2.68
649.583	2.7
649.769	2.7
649.955	2.73
650.141	2.72
650.327	2.69
650.513	2.65
650.698	2.66
650.884	2.54
651.07	2.68
651.256	2.62
651.442	2.61
651.627	2.53
651.813	2.64
651.999	2.54
652.184	2.55
652.37	2.55
652.556	2.53
652.741	2.57
652.927	2.43
653.113	2.55
653.298	2.5
653.484	2.48
653.669	2.44
653.855	2.45
654.04	2.55
654.226	2.48
654.412	2.43
654.597	2.34
654.782	2.48
654.968	2.47
655.153	2.45
655.339	2.34
655.524	2.36
655.71	2.37
655.895	2.33
656.08	2.36
656.266	2.42
656.451	2.36
656.636	2.26
656.822	2.34
657.007	2.25
657.192	2.28
657.378	2.21
657.563	2.26
657.748	2.33
657.933	2.26
658.118	2.18
658.304	2.21
658.489	2.23
658.674	2.22
658.859	2.18
659.044	2.15
659.229	2.2
659.414	2.17
659.599	2.14
659.785	2.08
659.97	2.14
660.155	2.15
660.34	2.15
660.525	2.16
660.71	2.07
660.895	2.13
661.08	2.06
661.264	2.05
661.449	2.17
661.634	2.1
661.819	2.1
662.004	2.03
662.189	1.97
662.374	2.04
662.559	2
662.743	1.93
662.928	2.04
663.113	1.93
663.298	1.91
663.483	1.91
663.667	1.99
663.852	1.9
664.037	1.99
664.221	1.9
664.406	1.97
664.591	1.98
664.775	1.94
664.96	1.88
665.145	1.88
665.329	1.94
665.514	1.88
665.698	1.86
665.883	1.77
666.068	1.89
666.252	1.89
666.437	1.74
666.621	1.78
666.806	1.83
666.99	1.76
667.174	1.69
667.359	1.84
667.543	1.77
667.728	1.79
667.912	1.66
668.096	1.77
668.281	1.76
668.465	1.71
668.649	1.69
668.834	1.7
669.018	1.73
669.202	1.67
669.387	1.67
669.571	1.75
669.755	1.66
669.939	1.7
670.124	1.69
670.308	1.74
670.492	1.69
670.676	1.63
670.86	1.62
671.044	1.57
671.228	1.67
671.413	1.56
671.597	1.54
671.781	1.65
671.965	1.61
672.149	1.58
672.333	1.59
672.517	1.56
672.701	1.54
672.885	1.57
673.069	1.46
673.253	1.64
673.437	1.56
673.621	1.47
673.804	1.57
673.988	1.58
674.172	1.49
674.356	1.43
674.54	1.5
674.724	1.62
674.908	1.51
675.091	1.53
675.275	1.5
675.459	1.52
675.643	1.42
675.826	1.51
676.01	1.49
676.194	1.47
676.377	1.5
676.561	1.53
676.745	1.46
676.928	1.44
677.112	1.47
677.296	1.39
677.479	1.44
677.663	1.34
677.846	1.42
678.03	1.44
678.213	1.3
678.397	1.39
678.58	1.39
678.764	1.36
678.947	1.3
679.131	1.37
679.314	1.42
679.498	1.32
679.681	1.33
679.865	1.4
680.048	1.35
680.231	1.29
680.415	1.24
680.598	1.32
680.781	1.27
680.965	1.26
681.148	1.29
681.331	1.23
681.514	1.31
681.698	1.19
681.881	1.25
682.064	1.23
682.247	1.26
682.43	1.18
682.614	1.26
682.797	1.31
682.98	1.28
683.163	1.16
683.346	1.26
683.529	1.22
683.712	1.17
683.895	1.2
684.078	1.14
684.261	1.18
684.444	1.26
684.627	1.2
684.81	1.18
684.993	1.19
685.176	1.17
685.359	1.13
685.542	1.16
685.725	1.2
685.908	1.22
686.091	1.14
686.274	1.19
686.457	1.18
686.639	1.15
686.822	1.2
687.005	1.11
687.188	1.12
687.371	1.23
687.553	1.19
687.736	1.12
687.919	1.26
688.102	1.18
688.284	1.09
688.467	1.04
688.65	1.05
688.832	1.03
689.015	1.1
689.197	0.97
689.38	1.19
689.563	1.19
689.745	1
689.928	0.99
690.11	1.01
690.293	1.03
690.475	0.96
690.658	1.05
690.84	1.01
691.023	1.07
691.205	0.92
691.388	1.06
691.57	1.05
691.752	1.07
691.935	0.89
692.117	0.94
692.3	1.04
692.482	0.97
692.664	0.95
692.847	0.98
693.029	1.06
693.211	1.03
693.393	0.95
693.576	0.93
693.758	1.1
693.94	0.93
694.122	0.92
694.304	0.97
694.487	0.92
694.669	1
694.851	0.83
695.033	0.9
695.215	0.92
695.397	0.87
695.579	0.89
695.761	0.85
695.943	0.81
696.125	1.07
696.308	0.93
696.49	0.78
696.671	0.99
696.853	0.9
697.035	1.1
697.217	0.84
697.399	0.97
697.581	0.88
697.763	0.93
697.945	0.77
698.127	0.91
698.309	0.95
698.491	0.88
698.672	0.96
698.854	0.94
699.036	0.97
699.218	0.77
699.399	0.86
699.581	0.88
699.763	0.93
699.945	0.82
700.126	0.81
700.308	0.86
700.49	0.82
700.671	0.74
700.853	0.81
701.035	0.78
701.216	0.82
701.398	0.76
701.579	0.8
701.761	0.87
701.943	0.73
702.124	0.71
702.306	0.73
702.487	0.88
702.669	0.78
702.85	0.72
703.031	0.72
703.213	0.92
703.394	0.87
703.576	0.81
703.757	0.93
703.938	0.84
704.12	0.96
704.301	0.78
704.483	0.7
704.664	0.81
704.845	0.85
705.026	0.87
705.208	0.7
705.389	0.73
705.57	0.81
705.751	0.77
705.933	0.75
706.114	0.85
706.295	0.74
706.476	0.65
706.657	0.8
706.838	0.82
707.02	0.8
707.201	0.68
707.382	0.68
707.563	0.79
707.744	0.66
707.925	0.66
708.106	0.66
708.287	0.69
708.468	0.85
708.649	0.75
708.83	0.73
709.011	0.72
709.192	0.83
709.373	0.59
709.554	0.74
709.734	0.79
709.915	0.74
710.096	0.74
710.277	0.58
710.458	0.7
710.639	0.77
710.819	0.57
711	0.63
711.181	0.73
711.362	0.8
711.542	0.69
711.723	0.62
711.904	0.73
712.085	0.73
712.265	0.69
712.446	0.55
712.627	0.66
712.807	0.58
712.988	0.63
713.168	0.53
713.349	0.71
713.53	0.53
713.71	0.59
713.891	0.58
714.071	0.65
714.252	0.62
714.432	0.56
714.613	0.51
714.793	0.58
714.974	0.75
715.154	0.66
715.334	0.7
715.515	0.74
715.695	0.59
715.876	0.62
716.056	0.54
716.236	0.6
716.417	0.57
716.597	0.54
716.777	0.81
716.957	0.59
717.138	0.64
717.318	0.63
717.498	0.55
717.678	0.67
717.859	0.6
718.039	0.48
718.219	0.6
718.399	0.56
718.579	0.52
718.759	0.49
718.939	0.62
719.12	0.63
719.3	0.59
719.48	0.41
719.66	0.43
719.84	0.71
720.02	0.58
720.2	0.55
720.38	0.56
720.56	0.73
720.74	0.5
720.92	0.55
721.1	0.7
721.279	0.69
721.459	0.54
721.639	0.45
721.819	0.56
721.999	0.53
722.179	0.55
722.359	0.47
722.538	0.48
722.718	0.63
722.898	0.45
723.078	0.48
723.257	0.5
723.437	0.57
723.617	0.57
723.797	0.49
723.976	0.52
724.156	0.58
724.336	0.65
724.515	0.77
724.695	0.39
724.874	0.5
725.054	0.61
725.234	0.45
725.413	0.51
725.593	0.5
725.772	0.56
725.952	0.55
726.131	0.48
726.311	0.52
726.49	0.54
726.67	0.38
726.849	0.43
727.028	0.59
727.208	0.47
727.387	0.51
727.567	0.45
727.746	0.5
727.925	0.47
728.105	0.37
728.284	0.39
728.463	0.52
728.643	0.59
728.822	0.41
729.001	0.48
729.18	0.55
729.359	0.62
729.539	0.49
729.718	0.53
729.897	0.58
730.076	0.52
730.255	0.39
730.434	0.43
730.614	0.61
730.793	0.56
730.972	0.44
731.151	0.48
731.33	0.66
731.509	0.52
731.688	0.47
731.867	0.47
732.046	0.3
732.225	0.67
732.404	0.35
732.583	0.36
732.762	0.5
732.941	0.51
733.12	0.55
733.298	0.42
733.477	0.65
733.656	0.37
733.835	0.46
734.014	0.56
734.193	0.47
734.371	0.6
734.55	0.58
734.729	0.28
734.908	0.5
735.086	0.59
735.265	0.57
735.444	0.38
735.623	0.3
735.801	0.43
735.98	0.5
736.159	0.5
736.337	0.56
736.516	0.52
736.694	0.44
736.873	0.47
737.052	0.73
737.23	0.75
737.409	0.54
737.587	0.79
737.766	0.45
737.944	0.49
738.123	0.5
738.301	0.58
738.479	0.5
738.658	0.45
738.836	0.27
739.015	0.42
739.193	0.69
739.371	0.36
739.55	0.47
739.728	0.43
739.906	0.67
740.085	0.72
740.263	0.58
740.441	0.2
740.62	0.78
740.798	0.59
740.976	0.37
741.154	0.36
741.332	0.7
741.511	0.58
741.689	0.59
741.867	0.46
742.045	0.48
742.223	0.47
742.401	0.36
742.579	0.34
742.757	0.57
742.935	0.29
743.114	0.27
743.292	0.51
743.47	0.44
743.648	0.57
743.826	0.26
744.004	0.45
744.181	0.57
744.359	0.43
744.537	0.54
744.715	0.45
744.893	0.48
745.071	0.46
745.249	0.34
745.427	0.35
745.605	0.54
745.782	0.43
745.96	0.51
746.138	0.48
746.316	0.59
746.493	0.4
746.671	0.39
746.849	0.34
747.027	0.57
747.204	0.4
747.382	0.47
747.56	0.35
747.737	0.37
747.915	0.46
748.093	0.53
748.27	0.28
748.448	0.36
748.625	0.32
748.803	0.36
748.98	0.33
749.158	0.54
749.335	0.5
749.513	0.4
749.69	0.38
749.868	0.46
750.045	0.47
750.223	0.38
750.4	0.23
750.578	0.56
750.755	0.41
750.932	0.19
751.11	0.55
751.287	0.33
751.464	0.58
751.642	0.22
751.819	0.45
751.996	0.34
752.173	0.3
752.351	0.23
752.528	0.3
752.705	0.36
752.882	0.27
753.06	0.39
753.237	0.42
753.414	0.7
753.591	0.62
753.768	0.45
753.945	0.51
754.122	0.39
754.299	0.5
754.476	0.25
754.654	0.37
754.831	0.47
755.008	0.53
755.185	0.39
755.362	0.25
755.539	0.44
755.716	0.33
755.892	0.4
756.069	0.43
756.246	0.44
756.423	0.45
756.6	0.58
756.777	0.25
756.954	0.54
757.131	0.43
757.307	0.37
757.484	0.25
757.661	0.42
757.838	0.55
758.015	0.32
758.191	0.36
758.368	0.48
758.545	0.52
758.721	0.4
758.898	0.22
759.075	0.28
759.251	0.49
759.428	0.42
759.605	0.21
759.781	0.4
759.958	0.43
760.134	0.48
760.311	0.29
760.488	0.62
760.664	0.57
760.841	0.35
761.017	0.4
761.194	0.44
761.37	0.58
761.547	0.37
761.723	0.28
761.899	0.6
762.076	0.29
762.252	0.29
762.429	0.24
762.605	0.58
762.781	0.39
762.958	0.49
763.134	0.25
763.31	0.14
763.486	0.56
763.663	0.03
763.839	0.38
764.015	0.13
764.191	0.34
764.368	0.34
764.544	0.19
764.72	0.41
764.896	0.37
765.072	0.42
765.248	0.3
765.425	0.24
765.601	0.46
765.777	0.37
765.953	0.02
766.129	0.26
766.305	0.26
766.481	0.54
766.657	0.38
766.833	0.52
767.009	0.15
767.185	0.44
767.361	0.34
767.537	0.29
767.713	0.66
767.889	0.37
768.065	0.32
768.24	0.45
768.416	0.45
768.592	0.45
768.768	0.31
768.944	0.39
769.12	0.29
769.295	0.38
769.471	0.42
769.647	0.26
769.823	0.6
769.998	0.23
770.174	0.23
770.35	0.68
770.525	0.71
770.701	0.33
770.877	0.38
771.052	0.42
771.228	0.55
771.403	0.42
771.579	0.34
771.755	0.79
771.93	0.35
772.106	0.3
772.281	-0.01
772.457	0.38
772.632	0.47
772.808	0.28
772.983	0.27
773.159	0.07
773.334	0.61
773.509	0.56
773.685	0.21
773.86	0.84
774.036	0.65
774.211	0.45
774.386	0.44
774.562	0.27
774.737	0.71
774.912	0.22
775.087	0.49
775.263	0.35
775.438	0.37
775.613	0.38
775.788	0.4
775.964	0.68
776.139	0.91
776.314	0.14
776.489	0.53
776.664	0.44
776.839	0.29
777.014	0.48
777.19	0.69
777.365	0.78
777.54	0.67
777.715	0.41
777.89	0.4
778.065	0.23
778.24	0.41
778.415	0.57
778.59	0.2
778.765	0.41
778.94	0.42
779.115	0.18
779.289	0.32
779.464	0.47
779.639	0.23
779.814	0.13
779.989	0.23
780.164	0.7
780.339	0.55
780.513	0.12
780.688	0.32
780.863	0.36
781.038	0.6
781.212	0.25
781.387	0.32
781.562	0.8
781.737	0.24
781.911	0.68
782.086	0.2
782.261	0.44
782.435	0.96
782.61	0.32
782.784	0.3
782.959	0.58
783.134	0.4
783.308	0.24
783.483	0.33
783.657	1.05
783.832	0.61
784.006	0.06
784.181	0.44
784.355	0.44
784.53	0.24
784.704	0.18
784.878	0.92
785.053	0.76
785.227	0.99
785.402	0.61
785.576	0.31
785.75	0.61
785.925	0.61
786.099	0.52
786.273	0.58
786.448	0.72
786.622	0.77
786.796	0.32
786.97	0.46
787.145	1.16
787.319	0.18
787.493	0.38
787.667	0.09
787.841	0.31
788.015	0.66
788.19	0.37
788.364	0.25
788.538	0.71
788.712	0.58
788.886	0.46
789.06	0.79
789.234	0.59
789.408	-0.06
789.582	0.19
789.756	0.35
789.93	0.33
790.104	0.31
790.278	0.37
790.452	0.07
790.626	0.4
790.8	0.29
790.973	0.72
791.147	0.77
791.321	0.91
791.495	0.97
791.669	0.78
791.843	0.6
792.016	0.72
792.19	1.01
792.364	0.19
792.538	1.15
792.711	0.84
792.885	0.26
793.059	0.16
793.233	-0.11
793.406	0.67
793.58	0.55
793.754	0.74
793.927	0.35
794.101	0.96
794.274	0.44
794.448	0.51
794.622	0.31
794.795	0.78
794.969	0.29
795.142	0.89
795.316	0.4
795.489	0.47
795.663	0.93
795.836	0.45
796.009	0.16
796.183	0.92
796.356	0.52
796.53	0.51
796.703	0.55
796.876	1.24
797.05	0.51
797.223	0.27
797.396	0.57
797.57	0.56
797.743	0.93
797.916	0.43
798.09	0.39
798.263	0.83
798.436	0.69
798.609	0.28
798.782	0.32
798.956	0.79
799.129	0.47
799.302	0.13
799.475	0.21
799.648	0.27
799.821	0.17
799.994	0.42
800.167	-0.06
800.34	0.36
800.514	0.41
800.687	0.27
800.86	0.23
801.033	0.71
801.206	0.83
801.379	0.56
801.551	0.96
801.724	0.75
801.897	0.92
802.07	0.39
802.243	0.19
802.416	0.75
802.589	0.67
802.762	0.87
802.935	0.69
803.107	1.11
803.28	0.93
803.453	0.94
803.626	0.37
803.798	0.7
803.971	0.57
804.144	0.73
804.317	0.44
804.489	1.1
804.662	0.34
804.835	0.64
805.007	0.37
805.18	1.19
805.353	0.33
805.525	0.45
805.698	0.46
805.87	1.09
806.043	0.98
806.215	-0.35
806.388	0.04
806.56	0.67
806.733	0.88
806.905	0.76
807.078	0.35
807.25	0.61
807.423	0.79
807.595	0.59
807.768	0.38
807.94	0.91
808.112	0.93
808.285	0.62
808.457	0.23
808.629	0.93
808.802	0.92
808.974	0.43
809.146	0.38
809.318	0.13
809.491	0.64
809.663	1.19
809.835	0.24
810.007	0.62
810.18	0.62
810.352	0.17
810.524	0.2
810.696	0.93
810.868	1.09
811.04	0.43
811.212	0.51
811.384	0.8
811.556	0.85
811.728	0.7
811.901	1.43
812.073	0.69
812.245	0.85
812.417	0.66
812.589	0.12
812.76	0.67
812.932	1.14
813.104	0.89
813.276	0.36
813.448	0.82
813.62	0.84
813.792	0.72
813.964	0.72
814.136	1.11
814.307	0.57
814.479	0.3
814.651	0.53
814.823	1.34
814.995	0.28
815.166	1.1
815.338	0.32
815.51	0.31
815.681	1.86
815.853	0.75
816.025	0.57
816.196	1.28
816.368	1.31
816.54	-0.1
816.711	0.68
816.883	1.01
817.054	1.9
817.226	-0.16
817.398	1.13
817.569	0.26
817.741	0.83
817.912	0.32
818.084	0.6
818.255	1.54
818.426	0.18
818.598	0.5
818.769	0.27
818.941	1.45
819.112	1.61
819.283	0.77
819.455	0.29
819.626	0.92
819.798	1.16
819.969	1.04
820.14	0.58
820.311	0.71
820.483	0.57
820.654	1.11
820.825	0.62
820.996	0.31
821.168	0.38
821.339	0.83
821.51	-0.04
821.681	0.39
821.852	0.5
822.023	0.2
822.195	0.12
822.366	1.22
822.537	0.55
822.708	0.72
822.879	0.36
823.05	1.63
823.221	0.65
823.392	1.18
823.563	0.82
823.734	0.84
823.905	0.75
824.076	0.37
824.247	0.02
824.418	0.95
824.589	1.82
824.759	0.92
824.93	0.1
825.101	-0.13
825.272	1.65
825.443	1.23
825.614	1.31
825.784	0.02
825.955	2.39
826.126	1.72
826.297	0.95
826.467	1.66
826.638	1.95
826.809	-0.08
826.98	0.84
827.15	1.24
827.321	1.36
827.492	1.36
827.662	0.93
827.833	2.41
828.003	1.28
828.174	0.22
828.345	-0.16
828.515	1.62
828.686	1.04
828.856	0.67
829.027	0.84
829.197	1.41
829.368	1.39
829.538	0.34
829.709	0.66
829.879	1.69
830.049	0.94
830.22	0.76
830.39	0.5
830.56	1.23
830.731	1.38
830.901	0.18
831.072	1.3
831.242	1.21
831.412	1.02
831.582	0.75
831.753	-0.12
831.923	1.8
832.093	1.06
832.263	0.39
832.434	0.37
832.604	0.61
832.774	1.33
832.944	0.82
833.114	0.5
833.284	1.18
833.454	0.55
833.624	0.36
833.795	0.67
833.965	1.68
834.135	1.77
834.305	-0.44
834.475	0.51
834.645	1.71
834.815	1.37
834.985	0.13
835.155	0.09
835.325	1.47
835.494	1.87
835.664	0.79
835.834	0.31
836.004	1.26
836.174	2.27
836.344	0.56
836.514	-0.68
836.684	1.31
836.853	1.32
837.023	1.37
837.193	0.62
837.363	1.99
837.532	1.89
837.702	1.01
837.872	0.15
838.041	1.74
838.211	2.63
838.381	0.4
838.55	1.02
838.72	3.69
838.89	2.67
839.059	0.89
839.229	-0.06
839.398	3.09
839.568	1.01
839.738	0.48
839.907	2.04
840.077	1.4
840.246	0.35
840.416	0.33
840.585	0.64
840.755	2.28
840.924	2.5
841.093	0.16
841.263	1.14
841.432	1.23
841.602	0.22
841.771	0.06
841.94	0.57
842.11	3.53
842.279	1.77
842.448	-0.62
842.617	-0.04
842.787	2.88
842.956	0.07
843.125	0.33
843.294	0.98
843.464	2.67
843.633	1.85
843.802	0.49
843.971	0.86
844.14	1.96
844.309	2.54
844.479	-0.31
844.648	0.45
844.817	1.01
844.986	1.49
845.155	1.53
845.324	0.53
845.493	0.47
845.662	0.14
845.831	2.2
846	1.94
846.169	0.54
846.338	3.04
846.507	0.81
846.676	1.66
846.844	0.56
847.013	2.15
847.182	0.73
847.351	0.76
847.52	0.43
847.689	1.37
847.858	1.32
848.026	1.39
848.195	1.65
848.364	0.32
848.533	0.17
848.701	1.05
848.87	1.59
849.039	2.45
849.207	1.51
849.376	1.9
849.545	3.04
849.713	0.77
849.882	1.17
850.051	0.97
850.219	1.4
850.388	1.59
850.556	-0.26
850.725	-0.55
850.893	1.78
851.062	1.26
851.23	2.18
851.399	0.03
851.567	1.93
851.736	1.95
851.904	0.1
852.073	0.71
852.241	2.53
852.41	1.89
852.578	0.93
852.746	0.35
852.915	1.58
853.083	0.96
853.251	0.15
853.42	1.22
853.588	0.63
853.756	3.6
853.924	1.46
854.093	1.75
854.261	1.51
854.429	-0.45
854.597	1.82
854.765	0.19
854.934	2.28
855.102	3.42
855.27	0.27
855.438	3.21
855.606	3.65
855.774	3.56
855.942	0.04
856.11	-0.16
856.278	2.08
856.446	2.61
856.614	1.41
856.782	-0.22
856.95	2.21
857.118	1.6
857.286	1.22
857.454	0.57
857.622	2.26
857.79	2.58
857.958	0.2
858.126	1.66
858.294	-0.66
858.462	1.38
858.629	0.31
858.797	0.81
858.965	2.38
859.133	1.7
859.301	1.14
859.468	2.42
859.636	1.01
859.804	4.13
859.971	2.23
860.139	0.94
860.307	1.71
860.474	2.08
860.642	0.3
860.81	0.53
860.977	2.68
861.145	2.89
861.313	1.97
861.48	1.26
861.648	2.55
861.815	0.98
861.983	0.36
862.15	0.58
862.318	2.18
862.485	2.75
862.653	-0.45
862.82	-0.28
862.988	3.9
863.155	3.51
863.322	1.81
863.49	-0.87
863.657	1.28
863.824	5.66
863.992	3.02
864.159	0.93
864.326	4.39
864.494	0.3
864.661	4.09
864.828	-0.13
864.996	3.98
865.163	3.56
865.33	0.39
865.497	-1.64
865.664	1.1
865.832	0.27
865.999	1.91
866.166	-0.12
866.333	0.72
866.5	2.3
866.667	1.81
866.834	1.7
867.001	5.2
867.168	-0.35
867.335	1.8
867.502	0.41
867.669	3.08
867.836	6.71
868.003	0.81
868.17	2.08
868.337	2.13
868.504	6.46
868.671	-1.4
868.838	1.09
869.005	4.57
869.172	4.2
869.339	2.14
869.505	1.47
869.672	2.62
869.839	4.93
870.006	-0.02
870.173	0.15
870.339	3.43
870.506	7.35
870.673	-0.7
870.84	3.13
871.006	2.51
871.173	1.59
871.34	3.09
871.506	-0.01
871.673	3.92
871.839	-1.39
872.006	3.35
872.173	1.6
872.339	0.14
872.506	3.93
872.672	0.28
872.839	0.51
873.005	1.36
873.172	5.91
873.338	2.01
873.505	0.9
873.671	4.47
873.838	4.41
874.004	-1.72
874.171	0.61
874.337	4.19
874.503	3.6
874.67	0.89
874.836	1.6
875.002	6.6
875.169	4.51
875.335	1.89
875.501	1.5
875.668	3.55
875.834	1.99
876	2
876.166	2.93
876.332	3.73
876.499	5.5
876.665	1.21
876.831	2.24
876.997	6.53
877.163	4.57
877.329	0.76
877.495	1.55
877.662	3.44
877.828	2.43
877.994	2.4
878.16	-0.67
878.326	1.01
878.492	3.16
878.658	2.27
878.824	3.39
878.99	2.43
879.156	0.42
879.322	4.49
879.487	1.73
879.653	1.97
879.819	1.8
879.985	1
880.151	2.59
880.317	3.36
880.483	3.8
880.648	3.56
880.814	-0.55
880.98	4.04
881.146	-1.42
881.312	2.95
881.477	2.02
881.643	2.64
881.809	5.28
881.974	5.13
882.14	-0.93
882.306	2.66
882.471	6.83
882.637	1.93
882.803	2.15
882.968	5.51
883.134	6.26
883.299	0.93
883.465	1.21
883.63	4.77
883.796	2.86
883.961	4.25
884.127	2.69
884.292	-3.29
884.458	0.95
884.623	0.95
