Data from Apollo_Calib_20240827__AbsoluteIrradiance__836__13-05-02-057.txt Node

Date: Wed Aug 28 13:05:02 BST 2024
User: biology
Spectrometer: FLMT08252
Trigger mode: 0
Integration Time (sec): 5.000000E-1
Scans to average: 5
Electric dark correction enabled: true
Nonlinearity correction enabled: false
Boxcar width: 0
XAxis mode: Wavelengths
Number of Pixels in Spectrum: 3648
>>>>>Begin Spectral Data<<<<<
179.588	-0
179.809	-0
180.03	-0
180.251	-0
180.473	-0
180.694	0
180.915	0
181.136	-0
181.357	0
181.578	0
181.799	-0
182.02	-0
182.241	0
182.462	-0
182.683	0
182.904	-0
183.125	-0
183.346	0
183.567	0
183.788	0
184.009	0
184.23	0
184.451	0
184.672	0
184.892	0
185.113	0
185.334	0
185.555	0
185.776	0
185.996	0
186.217	0
186.438	0
186.659	0
186.879	0
187.1	0
187.321	0
187.541	0
187.762	0
187.983	0
188.203	0
188.424	0
188.644	0
188.865	0
189.086	0
189.306	0
189.527	0
189.747	0
189.968	0
190.188	0
190.409	0
190.629	0
190.849	0
191.07	0
191.29	0
191.511	0
191.731	0
191.951	0
192.172	0
192.392	0
192.612	0
192.833	0
193.053	0
193.273	0
193.493	0
193.714	0
193.934	0
194.154	0
194.374	0
194.594	0
194.815	0
195.035	0
195.255	0
195.475	0
195.695	0
195.915	0
196.135	0
196.355	0
196.575	0
196.795	0
197.015	0
197.235	0
197.455	0
197.675	0
197.895	0
198.115	0
198.335	0
198.555	0
198.775	0
198.995	0
199.214	0
199.434	0
199.654	0
199.874	0
200.094	4.08
200.313	2.29
200.533	1.69
200.753	1.56
200.973	4.06
201.192	2.59
201.412	1.41
201.632	1.92
201.851	3.52
202.071	2.12
202.291	1.61
202.51	1.33
202.73	2.69
202.95	2.15
203.169	1.39
203.389	2.04
203.608	2.19
203.828	1.89
204.047	1.6
204.267	1.89
204.486	2.36
204.706	2.02
204.925	1.78
205.145	1.28
205.364	2.1
205.583	2.38
205.803	1.35
206.022	1.47
206.242	1.63
206.461	2.14
206.68	1.35
206.9	1.39
207.119	2.28
207.338	2.09
207.557	0.95
207.777	1.28
207.996	1.05
208.215	2.24
208.434	0.97
208.654	0.81
208.873	1.55
209.092	2.36
209.311	1.05
209.53	0.9
209.749	1.23
209.968	1.19
210.187	1.04
210.407	0.6
210.626	0.99
210.845	1.77
211.064	1.1
211.283	0.65
211.502	1.45
211.721	1.01
211.94	1.02
212.159	1.42
212.377	1.31
212.596	1.43
212.815	0.92
213.034	1.1
213.253	1.59
213.472	1.37
213.691	1.12
213.91	0.51
214.128	0.68
214.347	1.55
214.566	0.56
214.785	0.44
215.003	1.33
215.222	1.29
215.441	0.69
215.66	0.65
215.878	1.01
216.097	1.21
216.316	0.7
216.534	0.65
216.753	1.15
216.972	0.87
217.19	0.82
217.409	0.66
217.627	0.72
217.846	0.73
218.064	0.93
218.283	0.52
218.501	1.34
218.72	1.08
218.938	0.66
219.157	0.72
219.375	1.06
219.594	0.85
219.812	0.54
220.031	0.57
220.249	1.18
220.467	1.26
220.686	0.51
220.904	0.55
221.122	0.79
221.341	1.14
221.559	0.76
221.777	0.46
221.995	0.81
222.214	0.88
222.432	0.69
222.65	0.76
222.868	0.77
223.086	0.84
223.305	1.02
223.523	0.74
223.741	1.11
223.959	0.65
224.177	0.24
224.395	0.54
224.613	0.84
224.831	1
225.049	0.42
225.267	0.57
225.485	0.81
225.703	0.65
225.921	0.57
226.139	0.41
226.357	0.75
226.575	0.79
226.793	0.54
227.011	1.54
227.229	0.69
227.447	0.96
227.665	0.54
227.883	0.4
228.1	0.69
228.318	0.72
228.536	0.18
228.754	0.38
228.972	0.66
229.189	0.79
229.407	0.52
229.625	0.45
229.843	0.86
230.06	0.78
230.278	0.48
230.496	0.61
230.713	0.69
230.931	0.81
231.149	0.45
231.366	0.33
231.584	0.55
231.801	0.95
232.019	0.35
232.236	0.33
232.454	0.47
232.671	0.62
232.889	0.46
233.106	0.4
233.324	0.51
233.541	0.58
233.759	0.58
233.976	0.5
234.194	0.6
234.411	0.49
234.628	0.45
234.846	0.34
235.063	0.48
235.28	0.57
235.498	0.42
235.715	0.42
235.932	0.7
236.149	0.5
236.367	0.39
236.584	0.51
236.801	0.55
237.018	0.75
237.236	0.48
237.453	0.27
237.67	0.65
237.887	0.54
238.104	0.42
238.321	0.39
238.538	0.36
238.755	0.69
238.973	0.35
239.19	0.54
239.407	0.59
239.624	0.56
239.841	0.35
240.058	0.33
240.275	0.54
240.492	0.55
240.709	0.41
240.925	0.37
241.142	0.57
241.359	0.34
241.576	0.34
241.793	0.32
242.01	0.42
242.227	0.6
242.444	0.47
242.66	0.54
242.877	0.55
243.094	0.41
243.311	0.4
243.527	0.35
243.744	0.45
243.961	0.5
244.178	0.3
244.394	0.45
244.611	0.58
244.828	0.73
245.044	0.41
245.261	0.34
245.477	0.47
245.694	0.57
245.911	0.36
246.127	0.42
246.344	0.71
246.56	0.61
246.777	0.31
246.993	0.41
247.21	0.46
247.426	0.56
247.643	0.28
247.859	0.36
248.076	0.35
248.292	0.61
248.508	0.29
248.725	0.4
248.941	0.52
249.157	0.57
249.374	0.36
249.59	0.37
249.806	0.42
250.023	0.46
250.239	0.41
250.455	0.35
250.671	0.41
250.888	0.47
251.104	0.46
251.32	0.34
251.536	0.45
251.752	0.4
251.969	0.32
252.185	0.41
252.401	0.66
252.617	0.44
252.833	0.32
253.049	0.33
253.265	0.38
253.481	0.44
253.697	0.35
253.913	0.3
254.129	0.47
254.345	0.48
254.561	0.35
254.777	0.33
254.993	0.53
255.209	0.47
255.425	0.36
255.641	0.35
255.857	0.54
256.073	0.41
256.288	0.25
256.504	0.21
256.72	0.4
256.936	0.53
257.152	0.36
257.367	0.35
257.583	0.39
257.799	0.5
258.015	0.36
258.23	0.33
258.446	0.59
258.662	0.37
258.877	0.3
259.093	0.25
259.309	0.42
259.524	0.43
259.74	0.29
259.955	0.18
260.171	0.42
260.387	0.41
260.602	0.46
260.818	0.43
261.033	0.28
261.249	0.35
261.464	0.3
261.68	0.31
261.895	0.44
262.11	0.46
262.326	0.31
262.541	0.19
262.757	0.48
262.972	0.49
263.187	0.37
263.403	0.47
263.618	0.52
263.833	0.39
264.049	0.25
264.264	0.29
264.479	0.39
264.694	0.53
264.91	0.22
265.125	0.27
265.34	0.4
265.555	0.53
265.77	0.38
265.986	0.32
266.201	0.37
266.416	0.46
266.631	0.28
266.846	0.3
267.061	0.5
267.276	0.42
267.491	0.19
267.706	0.4
267.921	0.42
268.136	0.38
268.351	0.37
268.566	0.23
268.781	0.44
268.996	0.49
269.211	0.32
269.426	0.26
269.641	0.32
269.856	0.39
270.071	0.25
270.285	0.19
270.5	0.43
270.715	0.39
270.93	0.27
271.145	0.39
271.359	0.46
271.574	0.35
271.789	0.31
272.004	0.29
272.218	0.32
272.433	0.4
272.648	0.29
272.862	0.38
273.077	0.29
273.292	0.28
273.506	0.25
273.721	0.26
273.936	0.43
274.15	0.44
274.365	0.26
274.579	0.42
274.794	0.35
275.008	0.41
275.223	0.26
275.437	0.33
275.652	0.42
275.866	0.44
276.081	0.28
276.295	0.31
276.509	0.33
276.724	0.36
276.938	0.26
277.153	0.34
277.367	0.42
277.581	0.27
277.796	0.27
278.01	0.21
278.224	0.32
278.438	0.48
278.653	0.22
278.867	0.26
279.081	0.13
279.295	0.32
279.51	0.33
279.724	0.15
279.938	0.39
280.152	0.37
280.366	0.29
280.58	0.33
280.794	0.39
281.008	0.35
281.222	0.35
281.437	0.49
281.651	0.33
281.865	0.43
282.079	0.26
282.293	0.17
282.507	0.26
282.721	0.3
282.935	0.35
283.148	0.15
283.362	0.29
283.576	0.22
283.79	0.27
284.004	0.16
284.218	0.37
284.432	0.23
284.646	0.29
284.859	0.25
285.073	0.27
285.287	0.34
285.501	0.3
285.714	0.24
285.928	0.26
286.142	0.3
286.356	0.17
286.569	0.27
286.783	0.38
286.997	0.34
287.21	0.31
287.424	0.26
287.637	0.27
287.851	0.28
288.065	0.33
288.278	0.28
288.492	0.3
288.705	0.25
288.919	0.32
289.132	0.2
289.346	0.35
289.559	0.22
289.773	0.24
289.986	0.32
290.2	0.29
290.413	0.36
290.626	0.22
290.84	0.25
291.053	0.32
291.267	0.37
291.48	0.24
291.693	0.24
291.906	0.24
292.12	0.26
292.333	0.21
292.546	0.22
292.76	0.4
292.973	0.29
293.186	0.3
293.399	0.24
293.612	0.3
293.826	0.28
294.039	0.26
294.252	0.24
294.465	0.35
294.678	0.26
294.891	0.21
295.104	0.2
295.317	0.27
295.53	0.26
295.743	0.23
295.956	0.25
296.169	0.36
296.382	0.33
296.595	0.25
296.808	0.19
297.021	0.36
297.234	0.34
297.447	0.25
297.66	0.22
297.873	0.36
298.086	0.33
298.299	0.2
298.511	0.18
298.724	0.27
298.937	0.17
299.15	0.16
299.363	0.24
299.575	0.35
299.788	0.3
300.001	0.25
300.213	0.27
300.426	0.29
300.639	0.23
300.852	0.17
301.064	0.28
301.277	0.35
301.489	0.32
301.702	0.26
301.915	0.25
302.127	0.18
302.34	0.29
302.552	0.27
302.765	0.18
302.977	0.3
303.19	0.23
303.402	0.26
303.615	0.19
303.827	0.25
304.04	0.22
304.252	0.31
304.464	0.22
304.677	0.4
304.889	0.28
305.102	0.22
305.314	0.25
305.526	0.27
305.739	0.29
305.951	0.17
306.163	0.23
306.375	0.38
306.588	0.28
306.8	0.2
307.012	0.18
307.224	0.27
307.436	0.39
307.649	0.15
307.861	0.28
308.073	0.31
308.285	0.23
308.497	0.22
308.709	0.21
308.921	0.21
309.133	0.3
309.346	0.25
309.558	0.24
309.77	0.32
309.982	0.36
310.194	0.28
310.406	0.23
310.617	0.35
310.829	0.27
311.041	0.24
311.253	0.2
311.465	0.26
311.677	0.27
311.889	0.26
312.101	0.19
312.313	0.34
312.524	0.33
312.736	0.22
312.948	0.23
313.16	0.35
313.372	0.32
313.583	0.3
313.795	0.2
314.007	0.25
314.218	0.3
314.43	0.24
314.642	0.19
314.853	0.15
315.065	0.29
315.277	0.22
315.488	0.28
315.7	0.31
315.912	0.32
316.123	0.24
316.335	0.2
316.546	0.39
316.758	0.32
316.969	0.22
317.181	0.24
317.392	0.22
317.604	0.31
317.815	0.25
318.026	0.23
318.238	0.21
318.449	0.26
318.661	0.13
318.872	0.19
319.083	0.2
319.295	0.29
319.506	0.24
319.717	0.25
319.929	0.3
320.14	0.26
320.351	0.28
320.562	0.22
320.774	0.27
320.985	0.26
321.196	0.19
321.407	0.16
321.618	0.3
321.829	0.26
322.041	0.27
322.252	0.21
322.463	0.26
322.674	0.31
322.885	0.17
323.096	0.23
323.307	0.26
323.518	0.25
323.729	0.21
323.94	0.22
324.151	0.23
324.362	0.3
324.573	0.27
324.784	0.23
324.995	0.31
325.206	0.31
325.417	0.22
325.628	0.18
325.838	0.29
326.049	0.29
326.26	0.32
326.471	0.22
326.682	0.32
326.892	0.24
327.103	0.18
327.314	0.18
327.525	0.36
327.735	0.28
327.946	0.23
328.157	0.2
328.368	0.33
328.578	0.23
328.789	0.32
328.999	0.3
329.21	0.22
329.421	0.33
329.631	0.2
329.842	0.22
330.052	0.3
330.263	0.27
330.473	0.26
330.684	0.23
330.894	0.27
331.105	0.29
331.315	0.29
331.526	0.22
331.736	0.38
331.947	0.31
332.157	0.25
332.367	0.17
332.578	0.26
332.788	0.28
332.999	0.27
333.209	0.26
333.419	0.18
333.629	0.3
333.84	0.28
334.05	0.19
334.26	0.34
334.47	0.29
334.681	0.32
334.891	0.24
335.101	0.31
335.311	0.36
335.521	0.24
335.732	0.2
335.942	0.27
336.152	0.31
336.362	0.26
336.572	0.27
336.782	0.29
336.992	0.23
337.202	0.2
337.412	0.23
337.622	0.27
337.832	0.26
338.042	0.23
338.252	0.22
338.462	0.22
338.672	0.27
338.882	0.23
339.092	0.26
339.302	0.36
339.511	0.26
339.721	0.21
339.931	0.21
340.141	0.3
340.351	0.31
340.561	0.22
340.77	0.25
340.98	0.3
341.19	0.29
341.4	0.22
341.609	0.18
341.819	0.21
342.029	0.2
342.238	0.3
342.448	0.23
342.658	0.27
342.867	0.29
343.077	0.24
343.286	0.24
343.496	0.29
343.706	0.36
343.915	0.17
344.125	0.24
344.334	0.26
344.544	0.19
344.753	0.25
344.963	0.23
345.172	0.21
345.381	0.22
345.591	0.2
345.8	0.23
346.01	0.3
346.219	0.31
346.428	0.12
346.638	0.22
346.847	0.24
347.056	0.36
347.266	0.22
347.475	0.21
347.684	0.3
347.893	0.3
348.103	0.28
348.312	0.2
348.521	0.24
348.73	0.25
348.94	0.17
349.149	0.18
349.358	0.24
349.567	0.25
349.776	0.18
349.985	0.22
350.194	0.34
350.403	0.32
350.612	0.14
350.821	0.23
351.03	0.23
351.239	0.2
351.448	0.25
351.657	0.2
351.866	0.35
352.075	0.19
352.284	0.28
352.493	0.22
352.702	0.3
352.911	0.25
353.12	0.26
353.329	0.23
353.538	0.24
353.746	0.25
353.955	0.17
354.164	0.23
354.373	0.21
354.582	0.25
354.79	0.26
354.999	0.29
355.208	0.19
355.416	0.35
355.625	0.21
355.834	0.22
356.042	0.29
356.251	0.23
356.46	0.22
356.668	0.31
356.877	0.32
357.085	0.31
357.294	0.15
357.503	0.28
357.711	0.23
357.92	0.41
358.128	0.25
358.337	0.25
358.545	0.24
358.754	0.22
358.962	0.27
359.17	0.22
359.379	0.27
359.587	0.27
359.796	0.23
360.004	0.29
360.212	0.29
360.421	0.33
360.629	0.2
360.837	0.21
361.046	0.31
361.254	0.41
361.462	0.23
361.67	0.21
361.879	0.28
362.087	0.31
362.295	0.24
362.503	0.24
362.711	0.2
362.92	0.2
363.128	0.21
363.336	0.16
363.544	0.21
363.752	0.22
363.96	0.22
364.168	0.19
364.376	0.28
364.584	0.26
364.792	0.34
365	0.26
365.208	0.23
365.416	0.26
365.624	0.3
365.832	0.22
366.04	0.34
366.248	0.26
366.456	0.25
366.664	0.22
366.872	0.24
367.079	0.24
367.287	0.25
367.495	0.28
367.703	0.22
367.911	0.22
368.118	0.23
368.326	0.24
368.534	0.19
368.742	0.32
368.949	0.17
369.157	0.23
369.365	0.28
369.572	0.25
369.78	0.19
369.988	0.3
370.195	0.3
370.403	0.33
370.61	0.25
370.818	0.24
371.026	0.34
371.233	0.21
371.441	0.26
371.648	0.2
371.856	0.26
372.063	0.29
372.271	0.21
372.478	0.19
372.685	0.2
372.893	0.3
373.1	0.24
373.308	0.2
373.515	0.4
373.722	0.3
373.93	0.25
374.137	0.29
374.344	0.34
374.552	0.31
374.759	0.28
374.966	0.22
375.173	0.26
375.381	0.32
375.588	0.25
375.795	0.17
376.002	0.26
376.209	0.23
376.417	0.24
376.624	0.21
376.831	0.28
377.038	0.23
377.245	0.17
377.452	0.23
377.659	0.29
377.866	0.24
378.073	0.24
378.28	0.27
378.487	0.31
378.694	0.32
378.901	0.23
379.108	0.25
379.315	0.32
379.522	0.38
379.729	0.28
379.936	0.27
380.143	0.25
380.35	0.28
380.557	0.24
380.763	0.24
380.97	0.26
381.177	0.29
381.384	0.29
381.591	0.21
381.797	0.29
382.004	0.32
382.211	0.32
382.418	0.23
382.624	0.34
382.831	0.31
383.038	0.26
383.244	0.27
383.451	0.25
383.658	0.32
383.864	0.25
384.071	0.2
384.277	0.35
384.484	0.27
384.69	0.32
384.897	0.24
385.103	0.27
385.31	0.28
385.516	0.31
385.723	0.22
385.929	0.32
386.136	0.27
386.342	0.33
386.549	0.24
386.755	0.36
386.961	0.28
387.168	0.3
387.374	0.27
387.58	0.29
387.787	0.32
387.993	0.29
388.199	0.28
388.406	0.22
388.612	0.27
388.818	0.25
389.024	0.25
389.231	0.32
389.437	0.37
389.643	0.32
389.849	0.3
390.055	0.3
390.261	0.27
390.467	0.3
390.674	0.25
390.88	0.31
391.086	0.33
391.292	0.22
391.498	0.3
391.704	0.32
391.91	0.27
392.116	0.31
392.322	0.16
392.528	0.39
392.734	0.28
392.94	0.3
393.146	0.3
393.352	0.3
393.557	0.27
393.763	0.31
393.969	0.34
394.175	0.33
394.381	0.34
394.587	0.31
394.792	0.29
394.998	0.39
395.204	0.37
395.41	0.28
395.615	0.28
395.821	0.31
396.027	0.36
396.233	0.29
396.438	0.34
396.644	0.37
396.85	0.32
397.055	0.33
397.261	0.37
397.466	0.36
397.672	0.33
397.878	0.37
398.083	0.37
398.289	0.33
398.494	0.37
398.7	0.32
398.905	0.24
399.111	0.45
399.316	0.29
399.522	0.33
399.727	0.36
399.932	0.36
400.138	0.36
400.343	0.38
400.549	0.34
400.754	0.38
400.959	0.37
401.165	0.34
401.37	0.37
401.575	0.34
401.78	0.42
401.986	0.34
402.191	0.35
402.396	0.38
402.601	0.43
402.807	0.4
403.012	0.42
403.217	0.45
403.422	0.41
403.627	0.45
403.832	0.38
404.037	0.45
404.243	0.45
404.448	0.38
404.653	0.38
404.858	0.46
405.063	0.47
405.268	0.39
405.473	0.4
405.678	0.42
405.883	0.64
406.088	0.49
406.293	0.4
406.498	0.51
406.703	0.5
406.907	0.48
407.112	0.45
407.317	0.51
407.522	0.55
407.727	0.45
407.932	0.48
408.136	0.64
408.341	0.46
408.546	0.54
408.751	0.62
408.956	0.59
409.16	0.69
409.365	0.57
409.57	0.62
409.774	0.62
409.979	0.71
410.184	0.65
410.388	0.62
410.593	0.75
410.798	0.71
411.002	0.75
411.207	0.81
411.411	0.77
411.616	0.77
411.82	0.79
412.025	0.86
412.229	0.87
412.434	0.97
412.638	0.93
412.843	0.91
413.047	0.99
413.252	0.94
413.456	1.02
413.66	1.07
413.865	1.02
414.069	1.17
414.273	1.05
414.478	1.11
414.682	1.18
414.886	1.21
415.091	1.19
415.295	1.22
415.499	1.43
415.703	1.36
415.908	1.43
416.112	1.4
416.316	1.61
416.52	1.62
416.724	1.56
416.929	1.64
417.133	1.89
417.337	1.73
417.541	1.83
417.745	1.85
417.949	2.05
418.153	2.04
418.357	1.97
418.561	2.34
418.765	2.24
418.969	2.39
419.173	2.47
419.377	2.42
419.581	2.64
419.785	2.7
419.989	2.64
420.193	2.89
420.397	2.89
420.601	3.09
420.804	3.13
421.008	3.13
421.212	3.23
421.416	3.39
421.62	3.33
421.823	3.43
422.027	3.59
422.231	3.53
422.435	3.6
422.638	3.6
422.842	3.74
423.046	3.89
423.249	4.06
423.453	4.01
423.657	4.21
423.86	4.27
424.064	4.42
424.268	4.57
424.471	4.53
424.675	4.76
424.878	4.8
425.082	5
425.285	5.28
425.489	5.29
425.692	5.39
425.896	5.32
426.099	5.58
426.303	5.6
426.506	5.82
426.71	6.03
426.913	6.35
427.116	6.44
427.32	6.36
427.523	6.52
427.726	6.82
427.93	6.87
428.133	7.25
428.336	7.37
428.54	7.52
428.743	7.77
428.946	8.04
429.149	8.05
429.353	8.03
429.556	8.2
429.759	8.08
429.962	8.28
430.165	8.4
430.368	8.07
430.571	8.16
430.775	8.18
430.978	8.17
431.181	8.18
431.384	8.36
431.587	8.43
431.79	8.77
431.993	8.83
432.196	9.03
432.399	9.45
432.602	9.53
432.805	9.61
433.008	10.11
433.211	9.89
433.414	10.31
433.616	10.4
433.819	10.34
434.022	10.47
434.225	10.6
434.428	10.71
434.631	11.18
434.833	10.99
435.036	11.17
435.239	11.4
435.442	11.43
435.645	11.65
435.847	11.73
436.05	12
436.253	12.17
436.455	12.18
436.658	12.14
436.861	12.5
437.063	12.55
437.266	12.47
437.468	12.86
437.671	13.08
437.874	13.21
438.076	13.07
438.279	13.39
438.481	13.53
438.684	14.35
438.886	13.88
439.089	14.26
439.291	14.39
439.494	14.6
439.696	14.77
439.899	15.24
440.101	15.76
440.303	15.89
440.506	16.6
440.708	16.42
440.91	16.66
441.113	16.91
441.315	17.08
441.517	16.69
441.72	17.35
441.922	17.02
442.124	16.86
442.326	17.32
442.529	17.67
442.731	17.38
442.933	17.74
443.135	17.77
443.337	17.64
443.539	18.08
443.742	17.76
443.944	18.36
444.146	18.28
444.348	18.09
444.55	18.06
444.752	18.31
444.954	18.29
445.156	18.13
445.358	18.48
445.56	18.87
445.762	18.55
445.964	18.86
446.166	18.55
446.368	18.76
446.57	18.59
446.772	18.23
446.974	18.07
447.175	18.24
447.377	18.07
447.579	18.36
447.781	18.06
447.983	17.92
448.184	17.45
448.386	17.76
448.588	17.29
448.79	17.12
448.991	17.4
449.193	17.53
449.395	16.98
449.597	16.42
449.798	16.33
450	15.93
450.202	15.86
450.403	15.89
450.605	15.74
450.806	15.27
451.008	15.15
451.21	15.02
451.411	14.41
451.613	13.81
451.814	13.97
452.016	13.99
452.217	13.24
452.419	13.21
452.62	12.75
452.821	12.63
453.023	12.49
453.224	12.19
453.426	11.68
453.627	11.03
453.828	11.18
454.03	11.2
454.231	11.16
454.432	11.05
454.634	10.67
454.835	10.43
455.036	10.35
455.238	10.01
455.439	9.71
455.64	9.51
455.841	9.36
456.042	9.47
456.244	9.08
456.445	8.75
456.646	8.44
456.847	8.51
457.048	8.36
457.249	8.34
457.45	8.23
457.651	7.65
457.852	7.59
458.054	7.31
458.255	7.16
458.456	7.2
458.657	7.19
458.858	6.61
459.058	6.69
459.259	6.71
459.46	6.37
459.661	6.34
459.862	6.3
460.063	6.3
460.264	6.19
460.465	5.92
460.666	6.08
460.866	5.74
461.067	5.51
461.268	5.56
461.469	5.39
461.67	5.34
461.87	5.21
462.071	5.13
462.272	5.12
462.473	5.07
462.673	5.29
462.874	5.13
463.075	5.16
463.275	5.05
463.476	5.16
463.676	5.03
463.877	4.86
464.078	4.89
464.278	4.92
464.479	4.76
464.679	4.75
464.88	4.61
465.08	4.71
465.281	4.47
465.481	4.3
465.682	4.22
465.882	4.17
466.083	4.08
466.283	4.04
466.483	3.84
466.684	3.76
466.884	3.58
467.085	3.7
467.285	3.74
467.485	3.58
467.686	3.45
467.886	3.39
468.086	3.39
468.286	3.26
468.487	3.38
468.687	3.22
468.887	3.2
469.087	3.37
469.287	3.2
469.488	3.03
469.688	3.2
469.888	3.13
470.088	3.08
470.288	3
470.488	3.01
470.688	2.85
470.888	2.89
471.088	2.67
471.288	2.78
471.488	2.74
471.688	2.77
471.888	2.64
472.088	2.78
472.288	2.67
472.488	2.58
472.688	2.57
472.888	2.55
473.088	2.55
473.288	2.45
473.488	2.42
473.688	2.65
473.887	2.47
474.087	2.39
474.287	2.4
474.487	2.36
474.687	2.44
474.886	2.35
475.086	2.32
475.286	2.32
475.486	2.27
475.685	2.22
475.885	2.2
476.085	2.3
476.284	2.23
476.484	2.24
476.684	2.17
476.883	2.33
477.083	2.19
477.282	2.13
477.482	2.16
477.681	2.11
477.881	2.1
478.08	2.08
478.28	2.02
478.479	2.08
478.679	2.15
478.878	2.05
479.078	1.98
479.277	2.09
479.477	2.03
479.676	2.01
479.875	1.99
480.075	1.94
480.274	2
480.473	2.04
480.673	2
480.872	2.11
481.071	2.02
481.271	2.05
481.47	1.96
481.669	1.99
481.868	1.95
482.067	1.98
482.267	1.87
482.466	1.93
482.665	1.92
482.864	1.95
483.063	1.93
483.262	2.03
483.461	2.04
483.661	2.07
483.86	1.95
484.059	2
484.258	2.04
484.457	2.01
484.656	1.99
484.855	2.06
485.054	1.89
485.253	1.98
485.452	1.97
485.651	2.07
485.849	2.03
486.048	2.03
486.247	2.03
486.446	2.09
486.645	2.01
486.844	2.07
487.043	2.05
487.241	2.04
487.44	2.06
487.639	2.15
487.838	2.1
488.037	2.12
488.235	2.24
488.434	2.15
488.633	2.02
488.831	2.23
489.03	2.19
489.229	2.25
489.427	2.22
489.626	2.29
489.825	2.28
490.023	2.33
490.222	2.22
490.42	2.31
490.619	2.33
490.817	2.35
491.016	2.32
491.214	2.43
491.413	2.38
491.611	2.4
491.81	2.42
492.008	2.44
492.207	2.55
492.405	2.53
492.604	2.4
492.802	2.55
493	2.63
493.199	2.59
493.397	2.63
493.595	2.64
493.794	2.67
493.992	2.76
494.19	2.74
494.388	2.8
494.587	2.75
494.785	2.77
494.983	2.71
495.181	2.91
495.379	2.9
495.578	2.96
495.776	2.94
495.974	2.91
496.172	2.94
496.37	3.11
496.568	3.14
496.766	3.11
496.964	3.17
497.162	3.16
497.36	3.23
497.558	3.26
497.756	3.31
497.954	3.26
498.152	3.4
498.35	3.45
498.548	3.36
498.746	3.42
498.944	3.42
499.142	3.45
499.34	3.55
499.538	3.61
499.736	3.52
499.933	3.66
500.131	3.67
500.329	3.79
500.527	3.76
500.725	3.89
500.922	3.87
501.12	3.85
501.318	3.96
501.516	3.9
501.713	4.01
501.911	3.96
502.109	3.96
502.306	4.09
502.504	4.03
502.701	4.05
502.899	4.16
503.097	4.37
503.294	4.22
503.492	4.35
503.689	4.4
503.887	4.39
504.084	4.46
504.282	4.43
504.479	4.39
504.677	4.63
504.874	4.57
505.072	4.43
505.269	4.7
505.466	4.7
505.664	4.75
505.861	4.65
506.059	4.8
506.256	4.83
506.453	4.86
506.651	5
506.848	5
507.045	4.97
507.242	4.97
507.44	5.01
507.637	5.1
507.834	5.08
508.031	5.25
508.229	5.15
508.426	5.06
508.623	5.3
508.82	5.31
509.017	5.24
509.214	5.27
509.411	5.41
509.608	5.34
509.805	5.53
510.003	5.46
510.2	5.51
510.397	5.68
510.594	5.55
510.791	5.68
510.988	5.72
511.184	5.62
511.381	5.58
511.578	5.72
511.775	5.89
511.972	5.8
512.169	5.8
512.366	5.86
512.563	5.94
512.76	6.04
512.956	5.99
513.153	5.98
513.35	5.92
513.547	5.87
513.744	6.04
513.94	6.03
514.137	6.11
514.334	6.07
514.53	6.17
514.727	6.35
514.924	6.32
515.12	6.27
515.317	6.28
515.514	6.23
515.71	6.22
515.907	6.45
516.103	6.53
516.3	6.34
516.497	6.48
516.693	6.54
516.89	6.47
517.086	6.5
517.283	6.55
517.479	6.42
517.676	6.63
517.872	6.7
518.068	6.67
518.265	6.64
518.461	6.57
518.658	6.72
518.854	6.75
519.05	6.87
519.247	6.87
519.443	6.75
519.639	6.92
519.836	6.8
520.032	6.75
520.228	6.96
520.424	6.86
520.621	6.96
520.817	6.98
521.013	6.88
521.209	7.17
521.405	7.13
521.601	7.06
521.798	7.01
521.994	7.05
522.19	6.95
522.386	6.98
522.582	7.19
522.778	7.26
522.974	7.17
523.17	7.13
523.366	7.11
523.562	7.18
523.758	7.18
523.954	7.03
524.15	7.29
524.346	7.32
524.542	7.3
524.738	7.23
524.934	7.46
525.129	7.33
525.325	7.32
525.521	7.28
525.717	7.46
525.913	7.29
526.109	7.35
526.304	7.51
526.5	7.41
526.696	7.47
526.892	7.38
527.087	7.64
527.283	7.5
527.479	7.57
527.674	7.33
527.87	7.53
528.066	7.53
528.261	7.53
528.457	7.47
528.653	7.61
528.848	7.6
529.044	7.68
529.239	7.53
529.435	7.64
529.63	7.51
529.826	7.56
530.021	7.59
530.217	7.68
530.412	7.62
530.608	7.68
530.803	7.67
530.999	7.52
531.194	7.68
531.389	7.69
531.585	7.71
531.78	7.82
531.975	7.72
532.171	7.82
532.366	7.74
532.561	7.76
532.757	7.69
532.952	7.85
533.147	7.64
533.342	7.72
533.538	7.75
533.733	7.99
533.928	7.59
534.123	7.78
534.318	7.79
534.513	7.76
534.709	7.95
534.904	7.85
535.099	7.89
535.294	7.92
535.489	7.97
535.684	7.87
535.879	7.86
536.074	7.94
536.269	7.87
536.464	7.97
536.659	7.94
536.854	7.94
537.049	7.95
537.244	7.93
537.439	7.9
537.634	7.94
537.828	8.04
538.023	7.97
538.218	7.95
538.413	7.89
538.608	7.94
538.803	7.98
538.997	7.93
539.192	7.98
539.387	7.94
539.582	7.94
539.776	7.89
539.971	8
540.166	8.06
540.36	7.94
540.555	8.11
540.75	8.08
540.944	8.04
541.139	8.04
541.334	8
541.528	8.04
541.723	8.06
541.917	8.08
542.112	7.95
542.306	7.9
542.501	7.97
542.695	7.98
542.89	7.99
543.084	8.04
543.279	7.97
543.473	8.09
543.668	8.16
543.862	7.91
544.056	7.94
544.251	8.04
544.445	8.14
544.64	8.06
544.834	7.82
545.028	7.75
545.222	8.04
545.417	8.22
545.611	8.18
545.805	8.06
546	7.87
546.194	8.11
546.388	8.05
546.582	7.99
546.776	8.06
546.97	8.11
547.165	8.11
547.359	8.08
547.553	7.98
547.747	8.05
547.941	8.27
548.135	8.09
548.329	8.12
548.523	8.08
548.717	7.99
548.911	7.99
549.105	8.06
549.299	8.14
549.493	8.16
549.687	7.97
549.881	8.19
550.075	8.12
550.269	7.96
550.463	8.17
550.657	8.08
550.85	8.1
551.044	8.06
551.238	8.12
551.432	8.1
551.626	8.11
551.82	8.17
552.013	8
552.207	8.24
552.401	8.23
552.594	8.16
552.788	8.05
552.982	8.06
553.176	8.01
553.369	8.24
553.563	8.11
553.756	8.07
553.95	8.16
554.144	8.14
554.337	8.14
554.531	7.97
554.724	8.13
554.918	8.16
555.111	8.11
555.305	8.1
555.498	8.09
555.692	8.23
555.885	8.16
556.079	8.07
556.272	8.12
556.466	8.06
556.659	8.09
556.852	8.12
557.046	8.01
557.239	7.94
557.432	8.06
557.626	8.14
557.819	8.15
558.012	8.09
558.206	8.24
558.399	8.16
558.592	8.06
558.785	8.06
558.979	8.07
559.172	8.08
559.365	8.13
559.558	8.09
559.751	8.05
559.944	8.22
560.138	8.09
560.331	8.16
560.524	8.12
560.717	8.12
560.91	8.13
561.103	8.15
561.296	8.02
561.489	8.15
561.682	8.25
561.875	8.19
562.068	8.25
562.261	7.99
562.454	8.26
562.647	8.12
562.84	8.13
563.032	8.19
563.225	8.09
563.418	8.12
563.611	8.14
563.804	8.12
563.997	7.98
564.19	7.94
564.382	8.23
564.575	8.11
564.768	8.1
564.961	8.18
565.153	8.09
565.346	8.05
565.539	8.19
565.731	8.14
565.924	8.18
566.117	8.21
566.309	8.16
566.502	8.11
566.695	7.92
566.887	8.17
567.08	8.1
567.272	8.15
567.465	8.07
567.657	8.19
567.85	8.05
568.042	8.13
568.235	8.16
568.427	8
568.62	8.14
568.812	8.03
569.005	8.14
569.197	8
569.389	8.08
569.582	8.08
569.774	8.07
569.966	8.04
570.159	7.97
570.351	7.94
570.543	8.04
570.736	8.03
570.928	7.94
571.12	8.07
571.312	8.02
571.505	7.75
571.697	8.07
571.889	8.02
572.081	8.06
572.273	7.94
572.465	8
572.658	8.07
572.85	8.02
573.042	8.04
573.234	7.89
573.426	8.01
573.618	7.92
573.81	8.05
574.002	8.03
574.194	8.03
574.386	7.93
574.578	7.84
574.77	7.92
574.962	7.98
575.154	7.85
575.346	7.83
575.538	7.91
575.729	7.83
575.921	7.93
576.113	8.01
576.305	7.93
576.497	8.04
576.689	7.79
576.88	7.77
577.072	7.97
577.264	7.88
577.456	7.91
577.647	7.79
577.839	8.05
578.031	7.88
578.223	7.77
578.414	7.79
578.606	7.85
578.798	7.89
578.989	7.89
579.181	7.94
579.372	7.87
579.564	7.88
579.755	7.74
579.947	7.73
580.139	7.89
580.33	7.66
580.522	7.84
580.713	7.73
580.905	7.71
581.096	7.87
581.287	7.74
581.479	7.73
581.67	7.83
581.862	7.67
582.053	7.76
582.244	7.58
582.436	7.78
582.627	7.65
582.818	7.6
583.01	7.64
583.201	7.74
583.392	7.63
583.583	7.64
583.775	7.51
583.966	7.65
584.157	7.68
584.348	7.71
584.54	7.62
584.731	7.66
584.922	7.52
585.113	7.42
585.304	7.59
585.495	7.55
585.686	7.67
585.877	7.58
586.068	7.7
586.259	7.61
586.45	7.5
586.641	7.55
586.832	7.54
587.023	7.52
587.214	7.47
587.405	7.57
587.596	7.38
587.787	7.44
587.978	7.44
588.169	7.44
588.36	7.42
588.551	7.44
588.742	7.42
588.932	7.45
589.123	7.27
589.314	7.52
589.505	7.29
589.696	7.35
589.886	7.38
590.077	7.38
590.268	7.33
590.458	7.23
590.649	7.17
590.84	7.3
591.03	7.28
591.221	7.27
591.412	7.13
591.602	7.37
591.793	7.26
591.984	7.23
592.174	7.22
592.365	7.4
592.555	7.1
592.746	7.12
592.936	7.18
593.127	7.2
593.317	7.23
593.508	7.16
593.698	7.08
593.889	7.12
594.079	7.15
594.269	7.07
594.46	7.07
594.65	7.13
594.84	7.07
595.031	6.97
595.221	6.98
595.411	6.97
595.602	7.03
595.792	6.92
595.982	6.95
596.172	7.01
596.363	6.91
596.553	6.88
596.743	6.92
596.933	6.91
597.123	6.88
597.314	6.78
597.504	6.79
597.694	6.96
597.884	6.82
598.074	6.88
598.264	6.79
598.454	6.86
598.644	6.78
598.834	6.76
599.024	6.67
599.214	6.71
599.404	6.83
599.594	6.7
599.784	6.63
599.974	6.75
600.164	6.73
600.354	6.64
600.544	6.61
600.734	6.75
600.924	6.62
601.114	6.6
601.303	6.58
601.493	6.56
601.683	6.6
601.873	6.53
602.063	6.45
602.252	6.56
602.442	6.42
602.632	6.45
602.821	6.39
603.011	6.43
603.201	6.4
603.39	6.44
603.58	6.26
603.77	6.38
603.959	6.47
604.149	6.35
604.339	6.44
604.528	6.44
604.718	6.4
604.907	6.32
605.097	6.27
605.286	6.28
605.476	6.27
605.665	6.34
605.855	6.22
606.044	6.3
606.234	6.29
606.423	6.19
606.612	6.16
606.802	6.12
606.991	6.18
607.181	6.23
607.37	6.18
607.559	5.98
607.749	6.12
607.938	6.01
608.127	6.09
608.316	6.05
608.506	5.99
608.695	6.02
608.884	6
609.073	6.03
609.263	6.06
609.452	6.07
609.641	5.87
609.83	5.78
610.019	5.99
610.208	5.87
610.397	5.83
610.586	5.93
610.775	5.83
610.965	5.88
611.154	5.75
611.343	5.83
611.532	5.73
611.721	5.78
611.91	5.72
612.099	5.73
612.287	5.69
612.476	5.55
612.665	5.76
612.854	5.54
613.043	5.58
613.232	5.63
613.421	5.57
613.61	5.6
613.798	5.61
613.987	5.58
614.176	5.5
614.365	5.55
614.554	5.5
614.742	5.51
614.931	5.42
615.12	5.55
615.309	5.5
615.497	5.35
615.686	5.33
615.875	5.44
616.063	5.36
616.252	5.34
616.44	5.39
616.629	5.3
616.818	5.35
617.006	5.31
617.195	5.24
617.383	5.22
617.572	5.23
617.76	5.2
617.949	5.2
618.137	5.24
618.326	5.25
618.514	5.09
618.703	5.01
618.891	5.13
619.079	5.1
619.268	5.1
619.456	5
619.644	5.16
619.833	5.05
620.021	4.97
620.209	4.9
620.398	5.02
620.586	4.92
620.774	4.97
620.962	4.89
621.151	5.06
621.339	4.95
621.527	4.86
621.715	4.83
621.903	4.85
622.092	4.77
622.28	4.91
622.468	4.66
622.656	4.8
622.844	4.78
623.032	4.8
623.22	4.69
623.408	4.82
623.596	4.72
623.784	4.78
623.972	4.63
624.16	4.68
624.348	4.76
624.536	4.69
624.724	4.52
624.912	4.66
625.1	4.63
625.288	4.62
625.476	4.51
625.664	4.67
625.851	4.51
626.039	4.52
626.227	4.45
626.415	4.5
626.603	4.43
626.79	4.55
626.978	4.41
627.166	4.53
627.354	4.4
627.541	4.4
627.729	4.25
627.917	4.48
628.104	4.47
628.292	4.28
628.48	4.37
628.667	4.3
628.855	4.43
629.042	4.36
629.23	4.24
629.418	4.26
629.605	4.26
629.793	4.14
629.98	4.2
630.168	4.16
630.355	4.21
630.543	4.14
630.73	4.09
630.917	4.13
631.105	4.23
631.292	4.19
631.48	4.05
631.667	4.2
631.854	4.05
632.042	4.05
632.229	3.93
632.416	4.03
632.604	3.99
632.791	3.86
632.978	4
633.165	3.95
633.353	4.03
633.54	3.96
633.727	3.76
633.914	3.87
634.101	3.82
634.289	3.92
634.476	3.78
634.663	3.78
634.85	3.8
635.037	3.73
635.224	3.69
635.411	3.8
635.598	3.74
635.785	3.69
635.972	3.69
636.159	3.78
636.346	3.67
636.533	3.65
636.72	3.66
636.907	3.65
637.094	3.67
637.281	3.49
637.468	3.6
637.655	3.58
637.842	3.56
638.029	3.44
638.215	3.53
638.402	3.52
638.589	3.44
638.776	3.47
638.963	3.46
639.149	3.55
639.336	3.54
639.523	3.39
639.709	3.45
639.896	3.45
640.083	3.41
640.27	3.47
640.456	3.39
640.643	3.35
640.829	3.24
641.016	3.28
641.203	3.26
641.389	3.35
641.576	3.27
641.762	3.17
641.949	3.25
642.135	3.27
642.322	3.19
642.508	3.11
642.695	3.23
642.881	3.17
643.068	3.1
643.254	3.17
643.441	3.18
643.627	3.21
643.813	3.04
644	3.13
644.186	3.02
644.372	2.99
644.559	3.15
644.745	3.03
644.931	2.98
645.118	3.05
645.304	3.02
645.49	2.99
645.676	2.96
645.862	2.99
646.049	3.03
646.235	2.9
646.421	3.08
646.607	3.02
646.793	2.94
646.979	2.86
647.165	2.91
647.352	2.91
647.538	2.91
647.724	2.87
647.91	2.82
648.096	2.88
648.282	2.87
648.468	2.8
648.654	2.87
648.84	2.79
649.026	2.76
649.212	2.72
649.397	2.68
649.583	2.76
649.769	2.78
649.955	2.71
650.141	2.73
650.327	2.76
650.513	2.62
650.698	2.66
650.884	2.53
651.07	2.72
651.256	2.62
651.442	2.55
651.627	2.53
651.813	2.67
651.999	2.56
652.184	2.58
652.37	2.6
652.556	2.54
652.741	2.59
652.927	2.45
653.113	2.47
653.298	2.52
653.484	2.45
653.669	2.41
653.855	2.44
654.04	2.51
654.226	2.45
654.412	2.43
654.597	2.32
654.782	2.49
654.968	2.47
655.153	2.36
655.339	2.32
655.524	2.35
655.71	2.44
655.895	2.37
656.08	2.34
656.266	2.45
656.451	2.32
656.636	2.26
656.822	2.27
657.007	2.27
657.192	2.31
657.378	2.19
657.563	2.24
657.748	2.3
657.933	2.26
658.118	2.18
658.304	2.27
658.489	2.23
658.674	2.23
658.859	2.14
659.044	2.16
659.229	2.21
659.414	2.15
659.599	2.16
659.785	2.06
659.97	2.21
660.155	2.17
660.34	2.13
660.525	2.04
660.71	2.06
660.895	2.08
661.08	2.04
661.264	2.02
661.449	2.08
661.634	2.07
661.819	2.07
662.004	2
662.189	1.95
662.374	2
662.559	1.9
662.743	1.95
662.928	2
663.113	1.98
663.298	1.96
663.483	1.87
663.667	1.99
663.852	1.87
664.037	1.96
664.221	1.9
664.406	1.95
664.591	1.91
664.775	1.89
664.96	1.85
665.145	1.86
665.329	1.93
665.514	1.85
665.698	1.81
665.883	1.76
666.068	1.9
666.252	1.84
666.437	1.75
666.621	1.79
666.806	1.88
666.99	1.74
667.174	1.76
667.359	1.85
667.543	1.75
667.728	1.76
667.912	1.64
668.096	1.73
668.281	1.73
668.465	1.78
668.649	1.74
668.834	1.67
669.018	1.69
669.202	1.71
669.387	1.65
669.571	1.76
669.755	1.66
669.939	1.72
670.124	1.62
670.308	1.71
670.492	1.64
670.676	1.65
670.86	1.58
671.044	1.53
671.228	1.64
671.413	1.6
671.597	1.57
671.781	1.63
671.965	1.63
672.149	1.61
672.333	1.55
672.517	1.53
672.701	1.55
672.885	1.58
673.069	1.43
673.253	1.7
673.437	1.54
673.621	1.51
673.804	1.55
673.988	1.53
674.172	1.47
674.356	1.41
674.54	1.52
674.724	1.57
674.908	1.51
675.091	1.48
675.275	1.44
675.459	1.5
675.643	1.43
675.826	1.41
676.01	1.4
676.194	1.43
676.377	1.51
676.561	1.51
676.745	1.46
676.928	1.43
677.112	1.52
677.296	1.42
677.479	1.4
677.663	1.38
677.846	1.4
678.03	1.37
678.213	1.34
678.397	1.39
678.58	1.4
678.764	1.36
678.947	1.28
679.131	1.39
679.314	1.41
679.498	1.35
679.681	1.38
679.865	1.48
680.048	1.29
680.231	1.31
680.415	1.25
680.598	1.23
680.781	1.33
680.965	1.27
681.148	1.32
681.331	1.25
681.514	1.3
681.698	1.21
681.881	1.26
682.064	1.28
682.247	1.28
682.43	1.12
682.614	1.25
682.797	1.27
682.98	1.3
683.163	1.17
683.346	1.2
683.529	1.15
683.712	1.16
683.895	1.22
684.078	1.12
684.261	1.18
684.444	1.22
684.627	1.21
684.81	1.13
684.993	1.18
685.176	1.22
685.359	1.11
685.542	1.09
685.725	1.22
685.908	1.17
686.091	1.1
686.274	1.15
686.457	1.18
686.639	1.13
686.822	1.19
687.005	1.1
687.188	1.21
687.371	1.25
687.553	1.13
687.736	1.14
687.919	1.24
688.102	1.21
688.284	1.08
688.467	1.07
688.65	1.05
688.832	0.98
689.015	1.07
689.197	0.97
689.38	1.15
689.563	1.15
689.745	0.99
689.928	1.01
690.11	1.07
690.293	1.12
690.475	0.98
690.658	1.05
690.84	0.98
691.023	0.99
691.205	0.96
691.388	1.04
691.57	1.09
691.752	1.02
691.935	0.86
692.117	0.96
692.3	1
692.482	0.99
692.664	0.93
692.847	0.98
693.029	1.08
693.211	0.96
693.393	0.89
693.576	0.92
693.758	0.97
693.94	0.93
694.122	0.95
694.304	0.9
694.487	0.94
694.669	0.97
694.851	0.84
695.033	0.93
695.215	0.91
695.397	0.91
695.579	0.9
695.761	0.84
695.943	0.83
696.125	0.99
696.308	0.93
696.49	0.74
696.671	1.06
696.853	0.91
697.035	1.16
697.217	0.88
697.399	0.95
697.581	0.86
697.763	0.9
697.945	0.73
698.127	0.92
698.309	0.8
698.491	0.9
698.672	0.92
698.854	0.87
699.036	0.97
699.218	0.86
699.399	0.95
699.581	0.97
699.763	0.83
699.945	0.8
700.126	0.71
700.308	0.87
700.49	0.84
700.671	0.74
700.853	0.76
701.035	0.8
701.216	0.82
701.398	0.75
701.579	0.82
701.761	0.91
701.943	0.74
702.124	0.73
702.306	0.76
702.487	0.95
702.669	0.8
702.85	0.67
703.031	0.74
703.213	0.91
703.394	0.82
703.576	0.74
703.757	0.94
703.938	0.86
704.12	0.96
704.301	0.73
704.483	0.7
704.664	0.76
704.845	0.88
705.026	0.79
705.208	0.71
705.389	0.79
705.57	0.76
705.751	0.68
705.933	0.75
706.114	0.86
706.295	0.74
706.476	0.65
706.657	0.83
706.838	0.77
707.02	0.86
707.201	0.64
707.382	0.6
707.563	0.72
707.744	0.68
707.925	0.64
708.106	0.67
708.287	0.71
708.468	0.79
708.649	0.68
708.83	0.75
709.011	0.65
709.192	0.83
709.373	0.6
709.554	0.62
709.734	0.79
709.915	0.74
710.096	0.72
710.277	0.55
710.458	0.63
710.639	0.69
710.819	0.54
711	0.59
711.181	0.79
711.362	0.73
711.542	0.69
711.723	0.64
711.904	0.74
712.085	0.72
712.265	0.65
712.446	0.53
712.627	0.61
712.807	0.67
712.988	0.66
713.168	0.51
713.349	0.69
713.53	0.56
713.71	0.6
713.891	0.58
714.071	0.59
714.252	0.56
714.432	0.56
714.613	0.5
714.793	0.62
714.974	0.72
715.154	0.75
715.334	0.66
715.515	0.75
715.695	0.56
715.876	0.56
716.056	0.58
716.236	0.58
716.417	0.58
716.597	0.56
716.777	0.75
716.957	0.62
717.138	0.63
717.318	0.54
717.498	0.48
717.678	0.68
717.859	0.55
718.039	0.45
718.219	0.53
718.399	0.55
718.579	0.53
718.759	0.52
718.939	0.63
719.12	0.59
719.3	0.57
719.48	0.37
719.66	0.39
719.84	0.72
720.02	0.5
720.2	0.53
720.38	0.55
720.56	0.81
720.74	0.42
720.92	0.54
721.1	0.71
721.279	0.65
721.459	0.5
721.639	0.42
721.819	0.5
721.999	0.48
722.179	0.6
722.359	0.46
722.538	0.47
722.718	0.54
722.898	0.55
723.078	0.48
723.257	0.48
723.437	0.56
723.617	0.51
723.797	0.48
723.976	0.52
724.156	0.67
724.336	0.69
724.515	0.73
724.695	0.45
724.874	0.63
725.054	0.67
725.234	0.45
725.413	0.54
725.593	0.56
725.772	0.46
725.952	0.51
726.131	0.47
726.311	0.54
726.49	0.49
726.67	0.43
726.849	0.47
727.028	0.62
727.208	0.53
727.387	0.51
727.567	0.42
727.746	0.55
727.925	0.43
728.105	0.32
728.284	0.44
728.463	0.46
728.643	0.54
728.822	0.39
729.001	0.55
729.18	0.51
729.359	0.65
729.539	0.45
729.718	0.53
729.897	0.52
730.076	0.47
730.255	0.41
730.434	0.5
730.614	0.53
730.793	0.6
730.972	0.44
731.151	0.43
731.33	0.59
731.509	0.49
731.688	0.44
731.867	0.46
732.046	0.38
732.225	0.79
732.404	0.35
732.583	0.33
732.762	0.48
732.941	0.52
733.12	0.59
733.298	0.36
733.477	0.65
733.656	0.48
733.835	0.42
734.014	0.53
734.193	0.55
734.371	0.55
734.55	0.64
734.729	0.37
734.908	0.5
735.086	0.51
735.265	0.46
735.444	0.39
735.623	0.38
735.801	0.35
735.98	0.55
736.159	0.46
736.337	0.56
736.516	0.41
736.694	0.53
736.873	0.42
737.052	0.89
737.23	0.7
737.409	0.46
737.587	0.68
737.766	0.3
737.944	0.54
738.123	0.58
738.301	0.6
738.479	0.37
738.658	0.6
738.836	0.27
739.015	0.5
739.193	0.63
739.371	0.34
739.55	0.41
739.728	0.32
739.906	0.6
740.085	0.67
740.263	0.44
740.441	0.26
740.62	0.78
740.798	0.53
740.976	0.33
741.154	0.38
741.332	0.66
741.511	0.42
741.689	0.42
741.867	0.61
742.045	0.61
742.223	0.45
742.401	0.39
742.579	0.37
742.757	0.58
742.935	0.34
743.114	0.29
743.292	0.55
743.47	0.59
743.648	0.48
743.826	0.35
744.004	0.49
744.181	0.47
744.359	0.31
744.537	0.58
744.715	0.39
744.893	0.43
745.071	0.42
745.249	0.41
745.427	0.37
745.605	0.53
745.782	0.36
745.96	0.47
746.138	0.62
746.316	0.52
746.493	0.39
746.671	0.35
746.849	0.33
747.027	0.57
747.204	0.34
747.382	0.36
747.56	0.29
747.737	0.3
747.915	0.35
748.093	0.47
748.27	0.32
748.448	0.41
748.625	0.22
748.803	0.35
748.98	0.32
749.158	0.5
749.335	0.48
749.513	0.39
749.69	0.4
749.868	0.42
750.045	0.43
750.223	0.34
750.4	0.19
750.578	0.57
750.755	0.42
750.932	0.24
751.11	0.45
751.287	0.22
751.464	0.6
751.642	0.32
751.819	0.43
751.996	0.42
752.173	0.38
752.351	0.34
752.528	0.32
752.705	0.39
752.882	0.39
753.06	0.28
753.237	0.45
753.414	0.53
753.591	0.62
753.768	0.43
753.945	0.29
754.122	0.46
754.299	0.45
754.476	0.3
754.654	0.39
754.831	0.58
755.008	0.39
755.185	0.31
755.362	0.19
755.539	0.44
755.716	0.19
755.892	0.33
756.069	0.31
756.246	0.39
756.423	0.34
756.6	0.47
756.777	0.24
756.954	0.49
757.131	0.31
757.307	0.27
757.484	0.09
757.661	0.45
757.838	0.39
758.015	0.18
758.191	0.4
758.368	0.47
758.545	0.46
758.721	0.45
758.898	0.08
759.075	0.39
759.251	0.4
759.428	0.46
759.605	0.25
759.781	0.28
759.958	0.44
760.134	0.41
760.311	0.36
760.488	0.57
760.664	0.48
760.841	0.43
761.017	0.35
761.194	0.37
761.37	0.48
761.547	0.4
761.723	0.3
761.899	0.63
762.076	0.28
762.252	0.18
762.429	0.21
762.605	0.5
762.781	0.38
762.958	0.49
763.134	0.36
763.31	0.17
763.486	0.55
763.663	0.06
763.839	0.37
764.015	0.14
764.191	0.31
764.368	0.3
764.544	0.38
764.72	0.45
764.896	0.53
765.072	0.45
765.248	0.41
765.425	0.45
765.601	0.46
765.777	0.33
765.953	0.03
766.129	0.17
766.305	0.2
766.481	0.47
766.657	0.36
766.833	0.57
767.009	0.22
767.185	0.26
767.361	0.32
767.537	0.28
767.713	0.43
767.889	0.26
768.065	0.33
768.24	0.18
768.416	0.49
768.592	0.37
768.768	0.47
768.944	0.36
769.12	0.24
769.295	0.25
769.471	0.28
769.647	0.36
769.823	0.62
769.998	0.31
770.174	0.13
770.35	0.86
770.525	0.69
770.701	0.49
770.877	0.29
771.052	0.34
771.228	0.5
771.403	0.44
771.579	0.4
771.755	0.87
771.93	0.33
772.106	0.2
772.281	-0.05
772.457	0.44
772.632	0.31
772.808	0.08
772.983	0.11
773.159	0.27
773.334	0.56
773.509	0.41
773.685	0.24
773.86	0.86
774.036	0.59
774.211	0.26
774.386	0.34
774.562	0.56
774.737	0.66
774.912	0.12
775.087	0.37
775.263	0.34
775.438	0.43
775.613	0.18
775.788	0.24
775.964	0.68
776.139	0.9
776.314	0.16
776.489	0.48
776.664	0.32
776.839	0.11
777.014	0.59
777.19	0.45
777.365	0.52
777.54	0.79
777.715	0.24
777.89	0.31
778.065	0.29
778.24	0.41
778.415	0.54
778.59	0.2
778.765	0.38
778.94	0.55
779.115	0.28
779.289	0.17
779.464	0.4
779.639	0.38
779.814	-0.01
779.989	0.21
780.164	0.6
780.339	0.51
780.513	0.26
780.688	0.15
780.863	0.52
781.038	0.45
781.212	0.18
781.387	0.17
781.562	0.72
781.737	0.31
781.911	0.69
782.086	0.2
782.261	0.34
782.435	0.62
782.61	0.1
782.784	0.31
782.959	0.7
783.134	0.22
783.308	0.08
783.483	0.16
783.657	0.91
783.832	0.68
784.006	-0.13
784.181	0.35
784.355	0.54
784.53	0.38
784.704	0.1
784.878	0.8
785.053	0.56
785.227	0.8
785.402	0.75
785.576	0.15
785.75	0.35
785.925	0.34
786.099	0.52
786.273	0.59
786.448	0.69
786.622	0.7
786.796	0.47
786.97	0.66
787.145	1.02
787.319	-0.02
787.493	0.35
787.667	0.03
787.841	0.64
788.015	0.8
788.19	0.35
788.364	0.4
788.538	0.56
788.712	0.54
788.886	0.41
789.06	0.69
789.234	0.78
789.408	0.09
789.582	0.4
789.756	0.26
789.93	0.37
790.104	0.25
790.278	0.46
790.452	0.18
790.626	0.55
790.8	0.37
790.973	0.72
791.147	0.69
791.321	0.71
791.495	0.86
791.669	0.54
791.843	0.7
792.016	0.67
792.19	0.93
792.364	0.18
792.538	1.22
792.711	0.73
792.885	0.5
793.059	0.12
793.233	-0.26
793.406	0.67
793.58	0.41
793.754	0.68
793.927	0.31
794.101	0.78
794.274	0.61
794.448	0.66
794.622	0.17
794.795	0.9
794.969	0.28
795.142	0.8
795.316	0.39
795.489	0.16
795.663	0.72
795.836	0.49
796.009	0.13
796.183	0.86
796.356	0.49
796.53	0.69
796.703	0.59
796.876	1.27
797.05	0.26
797.223	0.25
797.396	0.6
797.57	0.57
797.743	1.04
797.916	0.33
798.09	0.49
798.263	0.8
798.436	0.74
798.609	0.44
798.782	0.21
798.956	0.77
799.129	0.59
799.302	0.29
799.475	0.41
799.648	0.48
799.821	0.18
799.994	0.54
800.167	-0.23
800.34	0.71
800.514	0.62
800.687	0.29
800.86	0.43
801.033	0.62
801.206	0.82
801.379	0.12
801.551	0.9
801.724	1.05
801.897	1.07
802.07	0.33
802.243	-0.19
802.416	0.55
802.589	0.66
802.762	0.6
802.935	0.61
803.107	0.82
803.28	1.17
803.453	0.6
803.626	0.29
803.798	0.37
803.971	0.25
804.144	0.45
804.317	0.59
804.489	0.66
804.662	0.74
804.835	0.46
805.007	0.23
805.18	1.01
805.353	0.54
805.525	0.46
805.698	0.33
805.87	0.82
806.043	0.9
806.215	0.28
806.388	0.28
806.56	0.57
806.733	0.81
806.905	0.86
807.078	0.32
807.25	0.22
807.423	0.78
807.595	0.44
807.768	0.53
807.94	0.81
808.112	0.68
808.285	0.49
808.457	0.6
808.629	0.85
808.802	1.03
808.974	0.55
809.146	0.31
809.318	0.69
809.491	1.01
809.663	0.88
809.835	0.31
810.007	0.82
810.18	0.22
810.352	0.02
810.524	0.37
810.696	0.88
810.868	1.07
811.04	0.37
811.212	0.47
811.384	0.51
811.556	0.65
811.728	0.28
811.901	1.53
812.073	1.04
812.245	0.88
812.417	0.41
812.589	-0.38
812.76	0.47
812.932	0.62
813.104	0.89
813.276	0.36
813.448	1.1
813.62	0.68
813.792	0.81
813.964	0.24
814.136	0.78
814.307	0.55
814.479	0.01
814.651	0.22
814.823	1.69
814.995	0.72
815.166	0.64
815.338	0.39
815.51	-0
815.681	1.61
815.853	0.45
816.025	0.31
816.196	1.12
816.368	1.58
816.54	0.27
816.711	0.33
816.883	0.88
817.054	1.43
817.226	0.18
817.398	0.98
817.569	0.4
817.741	0.59
817.912	0.99
818.084	0.39
818.255	1.56
818.426	0.25
818.598	0.75
818.769	-0.09
818.941	0.97
819.112	1.34
819.283	0.94
819.455	0.22
819.626	0.53
819.798	0.89
819.969	0.75
820.14	0.42
820.311	0.55
820.483	1.03
820.654	0.89
820.825	0.67
820.996	0.79
821.168	-0.14
821.339	0.37
821.51	-0.51
821.681	0.33
821.852	1.29
822.023	-0.12
822.195	-0.3
822.366	1.01
822.537	0.62
822.708	0.4
822.879	0.32
823.05	1.49
823.221	0.72
823.392	0.84
823.563	0.79
823.734	0.8
823.905	0.68
824.076	0.37
824.247	0.8
824.418	0.83
824.589	1.54
824.759	0.91
824.93	0.3
825.101	-0.01
825.272	1.69
825.443	0.97
825.614	1.1
825.784	-0.44
825.955	1.98
826.126	1.28
826.297	0.76
826.467	1.79
826.638	2.35
826.809	0.46
826.98	0.5
827.15	1.09
827.321	0.83
827.492	1.37
827.662	0.25
827.833	1.97
828.003	1.24
828.174	0.19
828.345	0.48
828.515	1.91
828.686	1.1
828.856	0.6
829.027	0.41
829.197	1.6
829.368	0.9
829.538	0.65
829.709	0.51
829.879	0.62
830.049	0.83
830.22	0.48
830.39	0.64
830.56	1.59
830.731	0.94
830.901	0.4
831.072	0.66
831.242	1.1
831.412	1
831.582	0.51
831.753	-0.29
831.923	2.13
832.093	1.52
832.263	0.55
832.434	0.96
832.604	0.68
832.774	1.07
832.944	0.63
833.114	0.3
833.284	1.22
833.454	0.3
833.624	0.36
833.795	0.47
833.965	1.7
834.135	2.04
834.305	-0.72
834.475	-0.19
834.645	1.41
834.815	0.84
834.985	0.32
835.155	0.45
835.325	1.74
835.494	1.92
835.664	0.16
835.834	0.22
836.004	0.74
836.174	1.23
836.344	1.22
836.514	-0.23
836.684	0.64
836.853	0.49
837.023	1.55
837.193	0.11
837.363	1.25
837.532	1.87
837.702	0.39
837.872	0.1
838.041	1
838.211	2.61
838.381	-0.51
838.55	0.88
838.72	3.89
838.89	2.41
839.059	0.11
839.229	-0.2
839.398	3.74
839.568	1.74
839.738	0.16
839.907	1.61
840.077	1.86
840.246	1.08
840.416	0.12
840.585	0.19
840.755	2.72
840.924	1.81
841.093	0.49
841.263	0.33
841.432	1.64
841.602	1.08
841.771	0.42
841.94	0.92
842.11	2.95
842.279	2.42
842.448	0.36
842.617	-0.1
842.787	2.19
842.956	0.27
843.125	0.44
843.294	0.49
843.464	2.07
843.633	1.6
843.802	-0.31
843.971	0.89
844.14	1.31
844.309	1.9
844.479	-0.47
844.648	0.55
844.817	0.41
844.986	1.52
845.155	0.45
845.324	0.57
845.493	1.4
845.662	0.9
845.831	1.89
846	1.78
846.169	0.43
846.338	2.8
846.507	1.64
846.676	0.93
846.844	1.18
847.013	1.47
847.182	1.16
847.351	0.34
847.52	1.08
847.689	1.98
847.858	1.07
848.026	0.33
848.195	2.01
848.364	0.36
848.533	0.61
848.701	-0.45
848.87	1.8
849.039	2.85
849.207	1.79
849.376	3.09
849.545	2.95
849.713	0.41
849.882	0.44
850.051	-0.04
850.219	1.79
850.388	1.84
850.556	0.87
850.725	0.11
850.893	1.64
851.062	1.15
851.23	1.5
851.399	-0.79
851.567	1.18
851.736	0.77
851.904	0.14
852.073	1.42
852.241	1.36
852.41	1.36
852.578	0.86
852.746	0.38
852.915	2
853.083	1.74
853.251	-0.48
853.42	1.31
853.588	1.36
853.756	3.6
853.924	1.29
854.093	1.47
854.261	1.13
854.429	0.23
854.597	1.88
854.765	0.14
854.934	2.16
855.102	2.95
855.27	1.83
855.438	2.73
855.606	3.7
855.774	2.05
855.942	0.13
856.11	0.57
856.278	1.96
856.446	3.1
856.614	0.1
856.782	-0.02
856.95	2.95
857.118	1.39
857.286	1.74
857.454	0.58
857.622	3.08
857.79	2.88
857.958	0.61
858.126	-0.26
858.294	-0.19
858.462	1.85
858.629	-0.28
858.797	0.46
858.965	2.34
859.133	1.75
859.301	1.45
859.468	1.48
859.636	-0.32
859.804	3.9
859.971	2.45
860.139	0.35
860.307	1.84
860.474	1.67
860.642	0.36
860.81	-0.08
860.977	1.42
861.145	3.1
861.313	1.65
861.48	0.28
861.648	2.46
861.815	0.99
861.983	0.4
862.15	1.49
862.318	3.27
862.485	3.72
862.653	-1.08
862.82	0.94
862.988	5.23
863.155	2.66
863.322	-0.65
863.49	0.25
863.657	0.8
863.824	4.75
863.992	1.22
864.159	1.58
864.326	3.2
864.494	1.46
864.661	3.66
864.828	-0.27
864.996	3.13
865.163	4.04
865.33	0.42
865.497	-0.97
865.664	0.39
865.832	-0.63
865.999	1.44
866.166	-0.66
866.333	0.59
866.5	0.35
866.667	0.86
866.834	0.56
867.001	4.75
867.168	0.17
867.335	1.19
867.502	-1.47
867.669	0.69
867.836	5.2
868.003	0.13
868.17	2.73
868.337	4.22
868.504	4.69
868.671	-1.23
868.838	1.96
869.005	2.99
869.172	3.42
869.339	1.43
869.505	0.84
869.672	1.37
869.839	5.14
870.006	1.57
870.173	0.24
870.339	2.85
870.506	5.82
870.673	0.59
870.84	2.09
871.006	3.54
871.173	2.84
871.34	1.27
871.506	0.46
871.673	3.22
871.839	0.48
872.006	2.37
872.173	0.58
872.339	2.17
872.506	3.39
872.672	1.27
872.839	-0.61
873.005	1.79
873.172	6.54
873.338	3.63
873.505	2.57
873.671	2.94
873.838	3.48
874.004	-1.69
874.171	0.47
874.337	2.85
874.503	3.07
874.67	2.26
874.836	1.44
875.002	2.83
875.169	2.81
875.335	2.24
875.501	2.04
875.668	3.46
875.834	0.77
876	0.12
876.166	3.51
876.332	3.44
876.499	5.78
876.665	1.48
876.831	2.57
876.997	3.41
877.163	4.2
877.329	1.07
877.495	0.92
877.662	5.01
877.828	2.08
877.994	1.8
878.16	-2.69
878.326	3.7
878.492	3.25
878.658	2.88
878.824	1.35
878.99	3.56
879.156	0.47
879.322	4.4
879.487	1.64
879.653	2.59
879.819	3.07
879.985	0.16
880.151	2.1
880.317	2.94
880.483	3.69
880.648	3.26
880.814	-1.13
880.98	3.12
881.146	0.31
881.312	-1.28
881.477	2.39
881.643	1.95
881.809	2.59
881.974	2.13
882.14	-0.97
882.306	1.2
882.471	6.19
882.637	2.53
882.803	2.18
882.968	5.56
883.134	6.67
883.299	2.57
883.465	0.07
883.63	4.69
883.796	3.25
883.961	2.48
884.127	1.59
884.292	-3.07
884.458	-0.62
884.623	-0.62
