Data from Apollo_Calib_20240827__AbsoluteIrradiance__0__23-09-00-279.txt Node

Date: Tue Aug 27 23:09:00 BST 2024
User: biology
Spectrometer: FLMT08252
Trigger mode: 0
Integration Time (sec): 5.000000E-1
Scans to average: 5
Electric dark correction enabled: true
Nonlinearity correction enabled: false
Boxcar width: 0
XAxis mode: Wavelengths
Number of Pixels in Spectrum: 3648
>>>>>Begin Spectral Data<<<<<
179.588	-0
179.809	-0
180.03	-0
180.251	-0
180.473	-0
180.694	0
180.915	0
181.136	-0
181.357	-0
181.578	-0
181.799	-0
182.02	-0
182.241	-0
182.462	-0
182.683	0
182.904	0
183.125	0
183.346	-0
183.567	0
183.788	0
184.009	0
184.23	0
184.451	0
184.672	0
184.892	0
185.113	0
185.334	0
185.555	0
185.776	0
185.996	0
186.217	0
186.438	0
186.659	0
186.879	0
187.1	0
187.321	0
187.541	0
187.762	0
187.983	0
188.203	0
188.424	0
188.644	0
188.865	0
189.086	0
189.306	0
189.527	0
189.747	0
189.968	0
190.188	0
190.409	0
190.629	0
190.849	0
191.07	0
191.29	0
191.511	0
191.731	0
191.951	0
192.172	0
192.392	0
192.612	0
192.833	0
193.053	0
193.273	0
193.493	0
193.714	0
193.934	0
194.154	0
194.374	0
194.594	0
194.815	0
195.035	0
195.255	0
195.475	0
195.695	0
195.915	0
196.135	0
196.355	0
196.575	0
196.795	0
197.015	0
197.235	0
197.455	0
197.675	0
197.895	0
198.115	0
198.335	0
198.555	0
198.775	0
198.995	0
199.214	0
199.434	0
199.654	0
199.874	0
200.094	3.42
200.313	2.87
200.533	2.99
200.753	1.93
200.973	3.14
201.192	2.58
201.412	2.08
201.632	2.48
201.851	3.04
202.071	1.82
202.291	1.66
202.51	1.88
202.73	3.07
202.95	2.13
203.169	1.73
203.389	2.27
203.608	1.95
203.828	1.76
204.047	2.16
204.267	1.99
204.486	1.92
204.706	1.86
204.925	1.87
205.145	1.92
205.364	1.7
205.583	2.36
205.803	1.56
206.022	1.52
206.242	1.57
206.461	1.65
206.68	1.38
206.9	1.78
207.119	1.8
207.338	1.72
207.557	1.44
207.777	1.18
207.996	1.27
208.215	1.96
208.434	1.33
208.654	1.26
208.873	1.44
209.092	1.85
209.311	1.43
209.53	1.47
209.749	1.19
209.968	1.24
210.187	1.52
210.407	1.04
210.626	1.29
210.845	1.4
211.064	1.36
211.283	1.15
211.502	1.49
211.721	1.05
211.94	1.6
212.159	1.3
212.377	0.98
212.596	1.23
212.815	1.35
213.034	1.21
213.253	1.25
213.472	1.21
213.691	0.92
213.91	1.16
214.128	1.08
214.347	0.98
214.566	0.94
214.785	0.75
215.003	1.07
215.222	0.95
215.441	0.99
215.66	0.97
215.878	0.88
216.097	1.11
216.316	1.04
216.534	1.01
216.753	0.87
216.972	0.87
217.19	1.04
217.409	0.74
217.627	0.79
217.846	0.9
218.064	0.71
218.283	0.8
218.501	1.2
218.72	1.11
218.938	0.74
219.157	0.83
219.375	1.05
219.594	0.87
219.812	0.69
220.031	0.69
220.249	1.12
220.467	1.06
220.686	0.71
220.904	0.87
221.122	0.62
221.341	1.03
221.559	1.07
221.777	0.72
221.995	0.77
222.214	0.9
222.432	0.65
222.65	1.01
222.868	0.88
223.086	0.72
223.305	0.66
223.523	0.71
223.741	0.85
223.959	0.54
224.177	0.58
224.395	0.57
224.613	0.65
224.831	0.74
225.049	0.57
225.267	0.63
225.485	0.7
225.703	0.71
225.921	0.68
226.139	0.95
226.357	0.66
226.575	0.7
226.793	0.57
227.011	1.06
227.229	0.69
227.447	0.7
227.665	0.64
227.883	0.63
228.1	0.65
228.318	0.62
228.536	0.47
228.754	0.61
228.972	0.57
229.189	0.83
229.407	0.53
229.625	0.6
229.843	0.71
230.06	0.54
230.278	0.65
230.496	0.63
230.713	0.66
230.931	0.53
231.149	0.6
231.366	0.49
231.584	0.69
231.801	0.8
232.019	0.57
232.236	0.52
232.454	0.56
232.671	0.56
232.889	0.65
233.106	0.51
233.324	0.49
233.541	0.61
233.759	0.55
233.976	0.54
234.194	0.5
234.411	0.48
234.628	0.62
234.846	0.55
235.063	0.6
235.28	0.47
235.498	0.54
235.715	0.53
235.932	0.51
236.149	0.61
236.367	0.51
236.584	0.58
236.801	0.52
237.018	0.53
237.236	0.67
237.453	0.42
237.67	0.51
237.887	0.53
238.104	0.47
238.321	0.45
238.538	0.55
238.755	0.6
238.973	0.38
239.19	0.59
239.407	0.51
239.624	0.51
239.841	0.43
240.058	0.47
240.275	0.38
240.492	0.32
240.709	0.49
240.925	0.42
241.142	0.52
241.359	0.27
241.576	0.51
241.793	0.47
242.01	0.47
242.227	0.36
242.444	0.63
242.66	0.51
242.877	0.53
243.094	0.42
243.311	0.55
243.527	0.54
243.744	0.39
243.961	0.5
244.178	0.35
244.394	0.46
244.611	0.59
244.828	0.51
245.044	0.37
245.261	0.53
245.477	0.41
245.694	0.49
245.911	0.43
246.127	0.47
246.344	0.48
246.56	0.57
246.777	0.42
246.993	0.57
247.21	0.5
247.426	0.46
247.643	0.51
247.859	0.4
248.076	0.42
248.292	0.59
248.508	0.47
248.725	0.44
248.941	0.47
249.157	0.55
249.374	0.44
249.59	0.38
249.806	0.47
250.023	0.47
250.239	0.35
250.455	0.43
250.671	0.55
250.888	0.46
251.104	0.54
251.32	0.42
251.536	0.38
251.752	0.43
251.969	0.5
252.185	0.53
252.401	0.59
252.617	0.33
252.833	0.43
253.049	0.43
253.265	0.44
253.481	0.51
253.697	0.47
253.913	0.41
254.129	0.34
254.345	0.47
254.561	0.38
254.777	0.45
254.993	0.52
255.209	0.45
255.425	0.42
255.641	0.42
255.857	0.52
256.073	0.42
256.288	0.3
256.504	0.32
256.72	0.33
256.936	0.48
257.152	0.43
257.367	0.39
257.583	0.38
257.799	0.36
258.015	0.31
258.23	0.37
258.446	0.48
258.662	0.39
258.877	0.4
259.093	0.37
259.309	0.36
259.524	0.34
259.74	0.38
259.955	0.28
260.171	0.37
260.387	0.31
260.602	0.49
260.818	0.43
261.033	0.32
261.249	0.34
261.464	0.36
261.68	0.28
261.895	0.36
262.11	0.44
262.326	0.39
262.541	0.34
262.757	0.47
262.972	0.36
263.187	0.38
263.403	0.42
263.618	0.32
263.833	0.36
264.049	0.37
264.264	0.29
264.479	0.47
264.694	0.4
264.91	0.36
265.125	0.37
265.34	0.39
265.555	0.47
265.77	0.36
265.986	0.39
266.201	0.42
266.416	0.44
266.631	0.33
266.846	0.43
267.061	0.39
267.276	0.39
267.491	0.26
267.706	0.42
267.921	0.38
268.136	0.36
268.351	0.38
268.566	0.27
268.781	0.47
268.996	0.38
269.211	0.39
269.426	0.3
269.641	0.31
269.856	0.34
270.071	0.32
270.285	0.3
270.5	0.39
270.715	0.33
270.93	0.37
271.145	0.37
271.359	0.41
271.574	0.3
271.789	0.35
272.004	0.38
272.218	0.34
272.433	0.37
272.648	0.25
272.862	0.46
273.077	0.29
273.292	0.39
273.506	0.34
273.721	0.3
273.936	0.39
274.15	0.42
274.365	0.36
274.579	0.38
274.794	0.34
275.008	0.42
275.223	0.36
275.437	0.36
275.652	0.45
275.866	0.35
276.081	0.31
276.295	0.41
276.509	0.3
276.724	0.28
276.938	0.36
277.153	0.4
277.367	0.35
277.581	0.28
277.796	0.34
278.01	0.27
278.224	0.37
278.438	0.43
278.653	0.31
278.867	0.37
279.081	0.17
279.295	0.28
279.51	0.34
279.724	0.23
279.938	0.35
280.152	0.3
280.366	0.27
280.58	0.34
280.794	0.37
281.008	0.28
281.222	0.38
281.437	0.38
281.651	0.33
281.865	0.34
282.079	0.26
282.293	0.24
282.507	0.28
282.721	0.3
282.935	0.3
283.148	0.21
283.362	0.29
283.576	0.26
283.79	0.27
284.004	0.27
284.218	0.28
284.432	0.25
284.646	0.27
284.859	0.27
285.073	0.31
285.287	0.33
285.501	0.31
285.714	0.3
285.928	0.3
286.142	0.3
286.356	0.31
286.569	0.26
286.783	0.25
286.997	0.31
287.21	0.32
287.424	0.3
287.637	0.29
287.851	0.28
288.065	0.33
288.278	0.33
288.492	0.34
288.705	0.29
288.919	0.38
289.132	0.2
289.346	0.37
289.559	0.24
289.773	0.2
289.986	0.33
290.2	0.3
290.413	0.34
290.626	0.23
290.84	0.27
291.053	0.31
291.267	0.31
291.48	0.34
291.693	0.32
291.906	0.26
292.12	0.22
292.333	0.25
292.546	0.29
292.76	0.32
292.973	0.32
293.186	0.25
293.399	0.25
293.612	0.33
293.826	0.25
294.039	0.26
294.252	0.24
294.465	0.27
294.678	0.3
294.891	0.26
295.104	0.23
295.317	0.25
295.53	0.33
295.743	0.31
295.956	0.28
296.169	0.34
296.382	0.3
296.595	0.27
296.808	0.25
297.021	0.32
297.234	0.24
297.447	0.28
297.66	0.29
297.873	0.31
298.086	0.26
298.299	0.23
298.511	0.25
298.724	0.28
298.937	0.25
299.15	0.23
299.363	0.32
299.575	0.27
299.788	0.26
300.001	0.26
300.213	0.23
300.426	0.24
300.639	0.21
300.852	0.24
301.064	0.32
301.277	0.31
301.489	0.26
301.702	0.29
301.915	0.3
302.127	0.27
302.34	0.29
302.552	0.27
302.765	0.25
302.977	0.33
303.19	0.21
303.402	0.24
303.615	0.31
303.827	0.21
304.04	0.24
304.252	0.3
304.464	0.29
304.677	0.28
304.889	0.29
305.102	0.25
305.314	0.24
305.526	0.31
305.739	0.25
305.951	0.27
306.163	0.27
306.375	0.28
306.588	0.22
306.8	0.2
307.012	0.19
307.224	0.26
307.436	0.26
307.649	0.21
307.861	0.26
308.073	0.31
308.285	0.3
308.497	0.25
308.709	0.28
308.921	0.29
309.133	0.29
309.346	0.27
309.558	0.23
309.77	0.29
309.982	0.28
310.194	0.3
310.406	0.24
310.617	0.27
310.829	0.27
311.041	0.23
311.253	0.24
311.465	0.24
311.677	0.26
311.889	0.27
312.101	0.27
312.313	0.31
312.524	0.26
312.736	0.26
312.948	0.25
313.16	0.35
313.372	0.28
313.583	0.27
313.795	0.27
314.007	0.23
314.218	0.24
314.43	0.27
314.642	0.27
314.853	0.26
315.065	0.29
315.277	0.25
315.488	0.3
315.7	0.34
315.912	0.28
316.123	0.24
316.335	0.27
316.546	0.3
316.758	0.22
316.969	0.23
317.181	0.26
317.392	0.28
317.604	0.22
317.815	0.22
318.026	0.23
318.238	0.21
318.449	0.28
318.661	0.21
318.872	0.25
319.083	0.25
319.295	0.3
319.506	0.27
319.717	0.27
319.929	0.28
320.14	0.29
320.351	0.32
320.562	0.25
320.774	0.22
320.985	0.23
321.196	0.25
321.407	0.21
321.618	0.28
321.829	0.27
322.041	0.25
322.252	0.3
322.463	0.28
322.674	0.29
322.885	0.22
323.096	0.21
323.307	0.24
323.518	0.23
323.729	0.24
323.94	0.25
324.151	0.21
324.362	0.26
324.573	0.26
324.784	0.25
324.995	0.29
325.206	0.29
325.417	0.26
325.628	0.28
325.838	0.25
326.049	0.22
326.26	0.26
326.471	0.27
326.682	0.23
326.892	0.29
327.103	0.22
327.314	0.21
327.525	0.31
327.735	0.2
327.946	0.28
328.157	0.22
328.368	0.23
328.578	0.24
328.789	0.29
328.999	0.28
329.21	0.29
329.421	0.27
329.631	0.22
329.842	0.23
330.052	0.28
330.263	0.32
330.473	0.32
330.684	0.28
330.894	0.2
331.105	0.27
331.315	0.24
331.526	0.2
331.736	0.31
331.947	0.27
332.157	0.28
332.367	0.26
332.578	0.25
332.788	0.24
332.999	0.3
333.209	0.28
333.419	0.21
333.629	0.24
333.84	0.27
334.05	0.26
334.26	0.26
334.47	0.28
334.681	0.29
334.891	0.24
335.101	0.26
335.311	0.28
335.521	0.28
335.732	0.23
335.942	0.29
336.152	0.26
336.362	0.28
336.572	0.21
336.782	0.33
336.992	0.24
337.202	0.23
337.412	0.21
337.622	0.23
337.832	0.28
338.042	0.24
338.252	0.25
338.462	0.23
338.672	0.26
338.882	0.3
339.092	0.26
339.302	0.3
339.511	0.26
339.721	0.24
339.931	0.23
340.141	0.29
340.351	0.31
340.561	0.25
340.77	0.25
340.98	0.25
341.19	0.25
341.4	0.25
341.609	0.23
341.819	0.2
342.029	0.23
342.238	0.24
342.448	0.19
342.658	0.26
342.867	0.28
343.077	0.27
343.286	0.22
343.496	0.23
343.706	0.3
343.915	0.21
344.125	0.22
344.334	0.3
344.544	0.16
344.753	0.24
344.963	0.25
345.172	0.26
345.381	0.25
345.591	0.25
345.8	0.27
346.01	0.3
346.219	0.27
346.428	0.13
346.638	0.27
346.847	0.28
347.056	0.31
347.266	0.24
347.475	0.28
347.684	0.28
347.893	0.28
348.103	0.27
348.312	0.21
348.521	0.23
348.73	0.27
348.94	0.27
349.149	0.27
349.358	0.22
349.567	0.22
349.776	0.23
349.985	0.25
350.194	0.28
350.403	0.25
350.612	0.27
350.821	0.27
351.03	0.24
351.239	0.21
351.448	0.24
351.657	0.24
351.866	0.28
352.075	0.18
352.284	0.3
352.493	0.24
352.702	0.28
352.911	0.29
353.12	0.25
353.329	0.22
353.538	0.22
353.746	0.22
353.955	0.23
354.164	0.27
354.373	0.27
354.582	0.21
354.79	0.27
354.999	0.3
355.208	0.22
355.416	0.33
355.625	0.2
355.834	0.25
356.042	0.27
356.251	0.17
356.46	0.21
356.668	0.25
356.877	0.31
357.085	0.25
357.294	0.21
357.503	0.24
357.711	0.2
357.92	0.35
358.128	0.24
358.337	0.25
358.545	0.27
358.754	0.2
358.962	0.28
359.17	0.24
359.379	0.22
359.587	0.24
359.796	0.25
360.004	0.28
360.212	0.25
360.421	0.26
360.629	0.24
360.837	0.29
361.046	0.25
361.254	0.28
361.462	0.26
361.67	0.24
361.879	0.23
362.087	0.26
362.295	0.3
362.503	0.2
362.711	0.19
362.92	0.26
363.128	0.21
363.336	0.22
363.544	0.2
363.752	0.2
363.96	0.24
364.168	0.24
364.376	0.25
364.584	0.25
364.792	0.29
365	0.3
365.208	0.26
365.416	0.22
365.624	0.3
365.832	0.21
366.04	0.31
366.248	0.28
366.456	0.21
366.664	0.28
366.872	0.23
367.079	0.25
367.287	0.24
367.495	0.25
367.703	0.24
367.911	0.24
368.118	0.22
368.326	0.22
368.534	0.19
368.742	0.26
368.949	0.22
369.157	0.19
369.365	0.26
369.572	0.22
369.78	0.18
369.988	0.28
370.195	0.26
370.403	0.25
370.61	0.24
370.818	0.26
371.026	0.27
371.233	0.22
371.441	0.24
371.648	0.22
371.856	0.27
372.063	0.23
372.271	0.24
372.478	0.23
372.685	0.25
372.893	0.3
373.1	0.24
373.308	0.24
373.515	0.28
373.722	0.25
373.93	0.24
374.137	0.31
374.344	0.3
374.552	0.29
374.759	0.24
374.966	0.23
375.173	0.26
375.381	0.24
375.588	0.25
375.795	0.24
376.002	0.23
376.209	0.24
376.417	0.26
376.624	0.28
376.831	0.27
377.038	0.26
377.245	0.24
377.452	0.26
377.659	0.22
377.866	0.28
378.073	0.28
378.28	0.29
378.487	0.28
378.694	0.25
378.901	0.25
379.108	0.23
379.315	0.28
379.522	0.3
379.729	0.29
379.936	0.27
380.143	0.27
380.35	0.27
380.557	0.3
380.763	0.28
380.97	0.25
381.177	0.25
381.384	0.31
381.591	0.29
381.797	0.26
382.004	0.26
382.211	0.31
382.418	0.27
382.624	0.29
382.831	0.28
383.038	0.28
383.244	0.3
383.451	0.23
383.658	0.26
383.864	0.28
384.071	0.22
384.277	0.3
384.484	0.22
384.69	0.32
384.897	0.22
385.103	0.24
385.31	0.23
385.516	0.28
385.723	0.26
385.929	0.26
386.136	0.25
386.342	0.3
386.549	0.22
386.755	0.31
386.961	0.26
387.168	0.24
387.374	0.28
387.58	0.3
387.787	0.3
387.993	0.35
388.199	0.29
388.406	0.26
388.612	0.28
388.818	0.22
389.024	0.29
389.231	0.34
389.437	0.33
389.643	0.3
389.849	0.28
390.055	0.29
390.261	0.32
390.467	0.3
390.674	0.25
390.88	0.26
391.086	0.34
391.292	0.27
391.498	0.33
391.704	0.3
391.91	0.27
392.116	0.28
392.322	0.21
392.528	0.28
392.734	0.28
392.94	0.3
393.146	0.29
393.352	0.26
393.557	0.28
393.763	0.28
393.969	0.26
394.175	0.32
394.381	0.34
394.587	0.26
394.792	0.28
394.998	0.34
395.204	0.35
395.41	0.26
395.615	0.3
395.821	0.34
396.027	0.31
396.233	0.3
396.438	0.3
396.644	0.36
396.85	0.39
397.055	0.34
397.261	0.36
397.466	0.32
397.672	0.34
397.878	0.36
398.083	0.33
398.289	0.3
398.494	0.34
398.7	0.36
398.905	0.27
399.111	0.34
399.316	0.29
399.522	0.34
399.727	0.35
399.932	0.33
400.138	0.28
400.343	0.39
400.549	0.37
400.754	0.39
400.959	0.36
401.165	0.37
401.37	0.35
401.575	0.41
401.78	0.35
401.986	0.33
402.191	0.38
402.396	0.37
402.601	0.4
402.807	0.38
403.012	0.41
403.217	0.44
403.422	0.38
403.627	0.39
403.832	0.42
404.037	0.38
404.243	0.44
404.448	0.38
404.653	0.44
404.858	0.5
405.063	0.44
405.268	0.44
405.473	0.35
405.678	0.4
405.883	0.53
406.088	0.46
406.293	0.46
406.498	0.46
406.703	0.49
406.907	0.46
407.112	0.46
407.317	0.51
407.522	0.56
407.727	0.51
407.932	0.52
408.136	0.61
408.341	0.57
408.546	0.59
408.751	0.61
408.956	0.54
409.16	0.63
409.365	0.67
409.57	0.56
409.774	0.59
409.979	0.65
410.184	0.62
410.388	0.67
410.593	0.73
410.798	0.71
411.002	0.77
411.207	0.74
411.411	0.8
411.616	0.72
411.82	0.83
412.025	0.86
412.229	0.79
412.434	0.91
412.638	0.84
412.843	0.87
413.047	0.93
413.252	0.92
413.456	1.01
413.66	1.03
413.865	1.06
414.069	1.07
414.273	1.08
414.478	1.08
414.682	1.17
414.886	1.13
415.091	1.19
415.295	1.18
415.499	1.3
415.703	1.26
415.908	1.37
416.112	1.32
416.316	1.5
416.52	1.53
416.724	1.49
416.929	1.53
417.133	1.7
417.337	1.66
417.541	1.77
417.745	1.76
417.949	1.85
418.153	1.92
418.357	1.94
418.561	2.17
418.765	2.16
418.969	2.21
419.173	2.32
419.377	2.36
419.581	2.44
419.785	2.45
419.989	2.55
420.193	2.71
420.397	2.72
420.601	2.86
420.804	2.98
421.008	2.99
421.212	3.05
421.416	3.09
421.62	3.18
421.823	3.22
422.027	3.34
422.231	3.24
422.435	3.4
422.638	3.43
422.842	3.52
423.046	3.67
423.249	3.82
423.453	3.78
423.657	3.95
423.86	3.96
424.064	4.17
424.268	4.27
424.471	4.29
424.675	4.53
424.878	4.61
425.082	4.7
425.285	4.97
425.489	4.85
425.692	5.03
425.896	5.12
426.099	5.24
426.303	5.41
426.506	5.63
426.71	5.69
426.913	5.84
427.116	6.09
427.32	6.09
427.523	6.2
427.726	6.42
427.93	6.52
428.133	6.81
428.336	7.04
428.54	7.08
428.743	7.36
428.946	7.47
429.149	7.67
429.353	7.62
429.556	7.76
429.759	7.91
429.962	8.02
430.165	8.11
430.368	7.73
430.571	7.82
430.775	7.89
430.978	7.94
431.181	7.87
431.384	7.98
431.587	8.15
431.79	8.55
431.993	8.37
432.196	8.64
432.399	9.02
432.602	9.17
432.805	9.36
433.008	9.78
433.211	9.58
433.414	10.1
433.616	10.04
433.819	9.92
434.022	10.26
434.225	10.39
434.428	10.44
434.631	10.83
434.833	10.67
435.036	10.91
435.239	11.06
435.442	11.22
435.645	11.32
435.847	11.36
436.05	11.67
436.253	11.95
436.455	11.97
436.658	11.79
436.861	11.97
437.063	12.19
437.266	12.21
437.468	12.38
437.671	12.82
437.874	12.93
438.076	12.81
438.279	13.21
438.481	13.23
438.684	14.03
438.886	13.59
439.089	13.93
439.291	13.84
439.494	14.22
439.696	14.49
439.899	15
440.101	15.32
440.303	15.59
440.506	16.29
440.708	16.1
440.91	16.08
441.113	16.55
441.315	16.72
441.517	16.57
441.72	16.96
441.922	16.76
442.124	16.62
442.326	16.87
442.529	17.06
442.731	17.24
442.933	17.51
443.135	17.27
443.337	17.2
443.539	17.83
443.742	17.53
443.944	18.1
444.146	18.04
444.348	17.77
444.55	17.75
444.752	17.99
444.954	17.87
445.156	17.96
445.358	18.45
445.56	18.5
445.762	18.38
445.964	18.74
446.166	18.48
446.368	18.5
446.57	18.55
446.772	18.16
446.974	18.03
447.175	18.18
447.377	17.9
447.579	18.49
447.781	18.06
447.983	17.87
448.184	17.43
448.386	17.79
448.588	17.42
448.79	17.23
448.991	17.68
449.193	17.75
449.395	17.03
449.597	16.57
449.798	16.58
450	16.12
450.202	16.09
450.403	16.22
450.605	15.84
450.806	15.72
451.008	15.53
451.21	15.29
451.411	14.85
451.613	14.05
451.814	14.32
452.016	14.29
452.217	13.6
452.419	13.61
452.62	13.22
452.821	13.11
453.023	12.92
453.224	12.52
453.426	12.13
453.627	11.33
453.828	11.58
454.03	11.68
454.231	11.68
454.432	11.46
454.634	11.11
454.835	10.88
455.036	10.81
455.238	10.36
455.439	10.15
455.64	9.83
455.841	9.69
456.042	9.77
456.244	9.56
456.445	9.27
456.646	8.88
456.847	8.86
457.048	8.69
457.249	8.78
457.45	8.36
457.651	7.98
457.852	7.68
458.054	7.45
458.255	7.4
458.456	7.53
458.657	7.36
458.858	6.97
459.058	6.9
459.259	6.94
459.46	6.6
459.661	6.59
459.862	6.61
460.063	6.59
460.264	6.37
460.465	6.11
460.666	6.25
460.866	5.94
461.067	5.66
461.268	5.68
461.469	5.66
461.67	5.56
461.87	5.34
462.071	5.39
462.272	5.28
462.473	5.18
462.673	5.36
462.874	5.33
463.075	5.27
463.275	5.24
463.476	5.24
463.676	5.29
463.877	5.13
464.078	5.07
464.278	5.08
464.479	5.05
464.679	4.89
464.88	4.81
465.08	4.79
465.281	4.64
465.481	4.42
465.682	4.2
465.882	4.25
466.083	4.17
466.283	4.16
466.483	3.97
466.684	3.9
466.884	3.82
467.085	3.86
467.285	3.77
467.485	3.74
467.686	3.62
467.886	3.54
468.086	3.45
468.286	3.45
468.487	3.51
468.687	3.37
468.887	3.33
469.087	3.39
469.287	3.37
469.488	3.14
469.688	3.24
469.888	3.25
470.088	3.16
470.288	3.18
470.488	3.05
470.688	2.89
470.888	2.95
471.088	2.83
471.288	2.85
471.488	2.87
471.688	2.8
471.888	2.79
472.088	2.87
472.288	2.78
472.488	2.65
472.688	2.65
472.888	2.62
473.088	2.69
473.288	2.51
473.488	2.53
473.688	2.68
473.887	2.56
474.087	2.5
474.287	2.55
474.487	2.45
474.687	2.54
474.886	2.39
475.086	2.35
475.286	2.43
475.486	2.33
475.685	2.27
475.885	2.25
476.085	2.31
476.284	2.28
476.484	2.32
476.684	2.22
476.883	2.33
477.083	2.26
477.282	2.13
477.482	2.23
477.681	2.22
477.881	2.11
478.08	2.12
478.28	2.07
478.479	2.09
478.679	2.1
478.878	2.13
479.078	2.08
479.277	2.09
479.477	2.05
479.676	2.09
479.875	2.06
480.075	2.03
480.274	2.04
480.473	2.08
480.673	2.06
480.872	2.11
481.071	2.05
481.271	2.02
481.47	2.04
481.669	2.04
481.868	1.95
482.067	2.03
482.267	1.92
482.466	1.94
482.665	1.94
482.864	2.02
483.063	2
483.262	2.01
483.461	2.03
483.661	2.1
483.86	2.03
484.059	2.1
484.258	2.07
484.457	2.04
484.656	2.02
484.855	2.06
485.054	1.97
485.253	2.02
485.452	2
485.651	2.08
485.849	2.02
486.048	2.05
486.247	2.05
486.446	2.06
486.645	2.09
486.844	2.12
487.043	2.07
487.241	2.11
487.44	2.09
487.639	2.17
487.838	2.12
488.037	2.13
488.235	2.17
488.434	2.18
488.633	2.09
488.831	2.26
489.03	2.23
489.229	2.24
489.427	2.24
489.626	2.25
489.825	2.25
490.023	2.3
490.222	2.28
490.42	2.26
490.619	2.34
490.817	2.39
491.016	2.38
491.214	2.39
491.413	2.43
491.611	2.35
491.81	2.43
492.008	2.46
492.207	2.5
492.405	2.53
492.604	2.46
492.802	2.52
493	2.6
493.199	2.64
493.397	2.65
493.595	2.63
493.794	2.63
493.992	2.76
494.19	2.74
494.388	2.81
494.587	2.75
494.785	2.78
494.983	2.72
495.181	2.83
495.379	2.93
495.578	2.91
495.776	2.92
495.974	2.9
496.172	2.95
496.37	3.05
496.568	3.12
496.766	3.12
496.964	3.14
497.162	3.14
497.36	3.2
497.558	3.24
497.756	3.27
497.954	3.28
498.152	3.37
498.35	3.41
498.548	3.33
498.746	3.38
498.944	3.39
499.142	3.44
499.34	3.46
499.538	3.59
499.736	3.52
499.933	3.59
500.131	3.57
500.329	3.75
500.527	3.75
500.725	3.83
500.922	3.81
501.12	3.89
501.318	3.9
501.516	3.94
501.713	3.95
501.911	3.97
502.109	3.95
502.306	4.09
502.504	3.98
502.701	4.04
502.899	4.14
503.097	4.28
503.294	4.18
503.492	4.35
503.689	4.33
503.887	4.29
504.084	4.38
504.282	4.41
504.479	4.39
504.677	4.55
504.874	4.56
505.072	4.49
505.269	4.66
505.466	4.63
505.664	4.67
505.861	4.59
506.059	4.77
506.256	4.75
506.453	4.8
506.651	4.91
506.848	4.95
507.045	4.91
507.242	4.88
507.44	4.98
507.637	5.07
507.834	4.99
508.031	5.18
508.229	5.13
508.426	5.07
508.623	5.2
508.82	5.29
509.017	5.25
509.214	5.25
509.411	5.38
509.608	5.35
509.805	5.41
510.003	5.39
510.2	5.44
510.397	5.64
510.594	5.54
510.791	5.63
510.988	5.58
511.184	5.58
511.381	5.5
511.578	5.69
511.775	5.75
511.972	5.68
512.169	5.77
512.366	5.77
512.563	5.97
512.76	5.97
512.956	6.03
513.153	5.89
513.35	5.89
513.547	5.94
513.744	6.04
513.94	5.94
514.137	6.07
514.334	6.02
514.53	6.11
514.727	6.3
514.924	6.16
515.12	6.21
515.317	6.27
515.514	6.22
515.71	6.18
515.907	6.39
516.103	6.37
516.3	6.3
516.497	6.45
516.693	6.41
516.89	6.37
517.086	6.48
517.283	6.53
517.479	6.35
517.676	6.59
517.872	6.64
518.068	6.6
518.265	6.57
518.461	6.5
518.658	6.69
518.854	6.62
519.05	6.76
519.247	6.81
519.443	6.7
519.639	6.86
519.836	6.75
520.032	6.69
520.228	6.87
520.424	6.79
520.621	6.85
520.817	6.93
521.013	6.81
521.209	7.07
521.405	7.03
521.601	6.93
521.798	7
521.994	6.91
522.19	6.86
522.386	6.93
522.582	7.1
522.778	7.2
522.974	7.01
523.17	7.11
523.366	7.11
523.562	7.13
523.758	7.09
523.954	6.97
524.15	7.19
524.346	7.17
524.542	7.23
524.738	7.2
524.934	7.38
525.129	7.29
525.325	7.27
525.521	7.18
525.717	7.41
525.913	7.24
526.109	7.24
526.304	7.44
526.5	7.4
526.696	7.38
526.892	7.31
527.087	7.51
527.283	7.52
527.479	7.41
527.674	7.23
527.87	7.48
528.066	7.44
528.261	7.46
528.457	7.37
528.653	7.55
528.848	7.54
529.044	7.6
529.239	7.44
529.435	7.48
529.63	7.47
529.826	7.5
530.021	7.49
530.217	7.6
530.412	7.52
530.608	7.58
530.803	7.58
530.999	7.53
531.194	7.6
531.389	7.66
531.585	7.71
531.78	7.81
531.975	7.62
532.171	7.69
532.366	7.7
532.561	7.72
532.757	7.66
532.952	7.8
533.147	7.57
533.342	7.67
533.538	7.67
533.733	7.81
533.928	7.56
534.123	7.74
534.318	7.74
534.513	7.69
534.709	7.86
534.904	7.82
535.099	7.91
535.294	7.87
535.489	7.85
535.684	7.76
535.879	7.83
536.074	7.86
536.269	7.85
536.464	7.9
536.659	7.81
536.854	7.88
537.049	7.93
537.244	7.9
537.439	7.89
537.634	7.83
537.828	7.92
538.023	7.9
538.218	7.93
538.413	7.79
538.608	7.93
538.803	7.85
538.997	7.93
539.192	7.89
539.387	7.82
539.582	7.88
539.776	7.84
539.971	7.96
540.166	7.98
540.36	7.94
540.555	8.07
540.75	7.94
540.944	7.89
541.139	7.96
541.334	7.97
541.528	7.96
541.723	7.98
541.917	8
542.112	7.9
542.306	7.81
542.501	7.83
542.695	7.99
542.89	7.89
543.084	7.95
543.279	7.99
543.473	8.03
543.668	8.06
543.862	7.89
544.056	7.87
544.251	8.1
544.445	8.06
544.64	8.11
544.834	7.82
545.028	7.64
545.222	8.07
545.417	8.16
545.611	8.06
545.805	7.96
546	7.88
546.194	8.1
546.388	7.99
546.582	7.92
546.776	7.93
546.97	7.99
547.165	8.04
547.359	8.01
547.553	7.92
547.747	7.97
547.941	8.15
548.135	8.01
548.329	8.04
548.523	8.08
548.717	7.9
548.911	7.96
549.105	7.94
549.299	8.06
549.493	8.08
549.687	7.93
549.881	8.14
550.075	8.01
550.269	7.96
550.463	8.06
550.657	8.09
550.85	8.03
551.044	8.04
551.238	8.11
551.432	8.02
551.626	8.14
551.82	8.1
552.013	7.97
552.207	8.13
552.401	8.14
552.594	7.94
552.788	8.01
552.982	8.03
553.176	7.96
553.369	8.24
553.563	8.07
553.756	8.06
553.95	8.18
554.144	8.1
554.337	8.16
554.531	7.89
554.724	8.12
554.918	8.12
555.111	7.99
555.305	8.02
555.498	8
555.692	8.16
555.885	8.11
556.079	8.04
556.272	8.04
556.466	8.09
556.659	8
556.852	8.1
557.046	8.02
557.239	7.89
557.432	8.04
557.626	8.15
557.819	8.11
558.012	8.05
558.206	8.16
558.399	8.06
558.592	8.06
558.785	7.97
558.979	8.05
559.172	8.09
559.365	8.01
559.558	8.04
559.751	7.96
559.944	8.13
560.138	8.05
560.331	8.13
560.524	8.14
560.717	8.04
560.91	8.01
561.103	8.04
561.296	7.93
561.489	8.13
561.682	8.12
561.875	8.11
562.068	8.12
562.261	7.95
562.454	8.21
562.647	8
562.84	8.09
563.032	8.14
563.225	7.9
563.418	7.99
563.611	8.12
563.804	8.08
563.997	7.96
564.19	7.88
564.382	8.21
564.575	8.12
564.768	8.01
564.961	8.09
565.153	8.06
565.346	7.96
565.539	8.18
565.731	7.97
565.924	8.12
566.117	8.19
566.309	8.1
566.502	8.08
566.695	8.01
566.887	8.06
567.08	8.07
567.272	8.04
567.465	7.97
567.657	8.13
567.85	7.94
568.042	8.07
568.235	8.09
568.427	7.93
568.62	8
568.812	7.99
569.005	8.03
569.197	7.97
569.389	8
569.582	7.97
569.774	8.02
569.966	7.96
570.159	7.92
570.351	7.97
570.543	7.96
570.736	7.98
570.928	7.88
571.12	7.98
571.312	7.92
571.505	7.77
571.697	8
571.889	7.94
572.081	8
572.273	7.92
572.465	7.98
572.658	7.9
572.85	8.01
573.042	8.04
573.234	7.89
573.426	7.92
573.618	7.91
573.81	7.99
574.002	7.88
574.194	7.92
574.386	7.91
574.578	7.81
574.77	7.91
574.962	7.91
575.154	7.77
575.346	7.83
575.538	7.79
575.729	7.8
575.921	7.94
576.113	7.92
576.305	7.88
576.497	7.95
576.689	7.7
576.88	7.76
577.072	7.92
577.264	7.84
577.456	7.84
577.647	7.78
577.839	7.91
578.031	7.83
578.223	7.72
578.414	7.65
578.606	7.8
578.798	7.87
578.989	7.77
579.181	7.9
579.372	7.81
579.564	7.82
579.755	7.68
579.947	7.69
580.139	7.74
580.33	7.59
580.522	7.7
580.713	7.73
580.905	7.67
581.096	7.8
581.287	7.61
581.479	7.71
581.67	7.67
581.862	7.64
582.053	7.73
582.244	7.55
582.436	7.8
582.627	7.57
582.818	7.59
583.01	7.58
583.201	7.66
583.392	7.62
583.583	7.65
583.775	7.43
583.966	7.56
584.157	7.62
584.348	7.69
584.54	7.59
584.731	7.54
584.922	7.45
585.113	7.44
585.304	7.63
585.495	7.54
585.686	7.62
585.877	7.59
586.068	7.65
586.259	7.52
586.45	7.46
586.641	7.43
586.832	7.63
587.023	7.46
587.214	7.43
587.405	7.49
587.596	7.38
587.787	7.28
587.978	7.42
588.169	7.36
588.36	7.34
588.551	7.41
588.742	7.4
588.932	7.41
589.123	7.18
589.314	7.43
589.505	7.3
589.696	7.34
589.886	7.28
590.077	7.3
590.268	7.23
590.458	7.24
590.649	7.06
590.84	7.23
591.03	7.27
591.221	7.27
591.412	7.1
591.602	7.28
591.793	7.09
591.984	7.22
592.174	7.2
592.365	7.3
592.555	7.08
592.746	7.16
592.936	7.12
593.127	7.16
593.317	7.15
593.508	7.18
593.698	7.04
593.889	7.11
594.079	7.02
594.269	6.98
594.46	7.04
594.65	7.05
594.84	7.04
595.031	6.94
595.221	7.03
595.411	6.95
595.602	6.95
595.792	6.96
595.982	6.9
596.172	6.93
596.363	6.83
596.553	6.9
596.743	6.87
596.933	6.88
597.123	6.81
597.314	6.7
597.504	6.72
597.694	6.84
597.884	6.76
598.074	6.84
598.264	6.81
598.454	6.74
598.644	6.74
598.834	6.76
599.024	6.72
599.214	6.69
599.404	6.73
599.594	6.73
599.784	6.63
599.974	6.64
600.164	6.66
600.354	6.63
600.544	6.5
600.734	6.59
600.924	6.5
601.114	6.48
601.303	6.49
601.493	6.53
601.683	6.6
601.873	6.46
602.063	6.45
602.252	6.44
602.442	6.38
602.632	6.45
602.821	6.4
603.011	6.42
603.201	6.4
603.39	6.32
603.58	6.29
603.77	6.33
603.959	6.41
604.149	6.27
604.339	6.32
604.528	6.37
604.718	6.38
604.907	6.31
605.097	6.13
605.286	6.26
605.476	6.13
605.665	6.28
605.855	6.19
606.044	6.26
606.234	6.18
606.423	6.15
606.612	6.13
606.802	6.05
606.991	6.16
607.181	6.15
607.37	6.14
607.559	5.85
607.749	6.06
607.938	5.95
608.127	6.02
608.316	5.99
608.506	5.92
608.695	6.04
608.884	5.92
609.073	5.95
609.263	5.99
609.452	5.95
609.641	5.83
609.83	5.81
610.019	5.97
610.208	5.82
610.397	5.82
610.586	5.81
610.775	5.82
610.965	5.83
611.154	5.67
611.343	5.74
611.532	5.62
611.721	5.79
611.91	5.67
612.099	5.66
612.287	5.64
612.476	5.55
612.665	5.71
612.854	5.53
613.043	5.59
613.232	5.6
613.421	5.54
613.61	5.62
613.798	5.58
613.987	5.56
614.176	5.49
614.365	5.51
614.554	5.48
614.742	5.51
614.931	5.42
615.12	5.48
615.309	5.42
615.497	5.33
615.686	5.3
615.875	5.35
616.063	5.26
616.252	5.27
616.44	5.35
616.629	5.24
616.818	5.25
617.006	5.28
617.195	5.25
617.383	5.18
617.572	5.14
617.76	5.15
617.949	5.14
618.137	5.28
618.326	5.12
618.514	5.05
618.703	5.02
618.891	5.09
619.079	5.07
619.268	5.1
619.456	5.01
619.644	5.06
619.833	5
620.021	4.97
620.209	4.88
620.398	4.89
620.586	4.91
620.774	5.01
620.962	4.98
621.151	4.99
621.339	4.87
621.527	4.77
621.715	4.83
621.903	4.84
622.092	4.76
622.28	4.85
622.468	4.7
622.656	4.79
622.844	4.69
623.032	4.76
623.22	4.63
623.408	4.75
623.596	4.74
623.784	4.73
623.972	4.62
624.16	4.66
624.348	4.65
624.536	4.71
624.724	4.56
624.912	4.64
625.1	4.6
625.288	4.57
625.476	4.48
625.664	4.57
625.851	4.53
626.039	4.51
626.227	4.46
626.415	4.46
626.603	4.42
626.79	4.47
626.978	4.41
627.166	4.48
627.354	4.32
627.541	4.31
627.729	4.28
627.917	4.47
628.104	4.39
628.292	4.34
628.48	4.31
628.667	4.28
628.855	4.37
629.042	4.36
629.23	4.23
629.418	4.26
629.605	4.31
629.793	4.14
629.98	4.18
630.168	4.09
630.355	4.18
630.543	4.14
630.73	4.08
630.917	4.01
631.105	4.22
631.292	4.05
631.48	4.1
631.667	4.11
631.854	4.05
632.042	3.99
632.229	3.99
632.416	4
632.604	3.99
632.791	3.87
632.978	3.97
633.165	3.9
633.353	3.88
633.54	3.89
633.727	3.85
633.914	3.83
634.101	3.76
634.289	3.94
634.476	3.87
634.663	3.78
634.85	3.8
635.037	3.73
635.224	3.75
635.411	3.84
635.598	3.7
635.785	3.73
635.972	3.77
636.159	3.73
636.346	3.67
636.533	3.65
636.72	3.65
636.907	3.65
637.094	3.64
637.281	3.52
637.468	3.63
637.655	3.64
637.842	3.64
638.029	3.54
638.215	3.53
638.402	3.54
638.589	3.52
638.776	3.47
638.963	3.5
639.149	3.53
639.336	3.52
639.523	3.42
639.709	3.44
639.896	3.41
640.083	3.42
640.27	3.45
640.456	3.33
640.643	3.36
640.829	3.34
641.016	3.27
641.203	3.24
641.389	3.33
641.576	3.26
641.762	3.27
641.949	3.23
642.135	3.24
642.322	3.28
642.508	3.16
642.695	3.19
642.881	3.15
643.068	3.15
643.254	3.19
643.441	3.19
643.627	3.13
643.813	3.07
644	3.17
644.186	3.04
644.372	3.11
644.559	3.15
644.745	3.08
644.931	3.04
645.118	3.1
645.304	3.08
645.49	3.03
645.676	2.97
645.862	3.01
646.049	3.03
646.235	2.96
646.421	3.09
646.607	3.05
646.793	2.94
646.979	2.9
647.165	3
647.352	2.88
647.538	2.94
647.724	2.85
647.91	2.9
648.096	2.88
648.282	2.88
648.468	2.85
648.654	2.85
648.84	2.87
649.026	2.83
649.212	2.83
649.397	2.78
649.583	2.79
649.769	2.75
649.955	2.79
650.141	2.85
650.327	2.74
650.513	2.7
650.698	2.73
650.884	2.67
651.07	2.76
651.256	2.71
651.442	2.71
651.627	2.65
651.813	2.69
651.999	2.61
652.184	2.68
652.37	2.64
652.556	2.65
652.741	2.57
652.927	2.55
653.113	2.6
653.298	2.57
653.484	2.59
653.669	2.51
653.855	2.53
654.04	2.58
654.226	2.53
654.412	2.54
654.597	2.41
654.782	2.53
654.968	2.51
655.153	2.55
655.339	2.47
655.524	2.47
655.71	2.46
655.895	2.46
656.08	2.44
656.266	2.49
656.451	2.44
656.636	2.39
656.822	2.43
657.007	2.39
657.192	2.4
657.378	2.36
657.563	2.36
657.748	2.34
657.933	2.37
658.118	2.3
658.304	2.35
658.489	2.42
658.674	2.32
658.859	2.3
659.044	2.3
659.229	2.3
659.414	2.26
659.599	2.29
659.785	2.23
659.97	2.26
660.155	2.23
660.34	2.33
660.525	2.27
660.71	2.23
660.895	2.28
661.08	2.18
661.264	2.17
661.449	2.18
661.634	2.16
661.819	2.21
662.004	2.14
662.189	2.13
662.374	2.15
662.559	2.02
662.743	2.02
662.928	2.08
663.113	2.03
663.298	2.07
663.483	2.01
663.667	2.07
663.852	1.98
664.037	2.05
664.221	2
664.406	2
664.591	1.99
664.775	1.94
664.96	1.93
665.145	1.96
665.329	1.92
665.514	1.91
665.698	1.89
665.883	1.86
666.068	1.92
666.252	1.88
666.437	1.84
666.621	1.86
666.806	1.81
666.99	1.83
667.174	1.83
667.359	1.82
667.543	1.78
667.728	1.77
667.912	1.79
668.096	1.8
668.281	1.74
668.465	1.78
668.649	1.76
668.834	1.68
669.018	1.77
669.202	1.72
669.387	1.71
669.571	1.74
669.755	1.61
669.939	1.64
670.124	1.71
670.308	1.65
670.492	1.72
670.676	1.71
670.86	1.67
671.044	1.58
671.228	1.65
671.413	1.55
671.597	1.61
671.781	1.58
671.965	1.66
672.149	1.64
672.333	1.58
672.517	1.61
672.701	1.56
672.885	1.58
673.069	1.51
673.253	1.54
673.437	1.57
673.621	1.55
673.804	1.53
673.988	1.53
674.172	1.49
674.356	1.45
674.54	1.53
674.724	1.56
674.908	1.45
675.091	1.57
675.275	1.46
675.459	1.53
675.643	1.5
675.826	1.44
676.01	1.47
676.194	1.45
676.377	1.46
676.561	1.41
676.745	1.42
676.928	1.44
677.112	1.48
677.296	1.39
677.479	1.36
677.663	1.36
677.846	1.46
678.03	1.46
678.213	1.34
678.397	1.37
678.58	1.37
678.764	1.36
678.947	1.32
679.131	1.3
679.314	1.4
679.498	1.38
679.681	1.39
679.865	1.34
680.048	1.34
680.231	1.37
680.415	1.29
680.598	1.27
680.781	1.31
680.965	1.28
681.148	1.35
681.331	1.21
681.514	1.35
681.698	1.24
681.881	1.27
682.064	1.25
682.247	1.16
682.43	1.18
682.614	1.27
682.797	1.32
682.98	1.2
683.163	1.18
683.346	1.26
683.529	1.19
683.712	1.17
683.895	1.22
684.078	1.15
684.261	1.21
684.444	1.22
684.627	1.16
684.81	1.16
684.993	1.16
685.176	1.2
685.359	1.2
685.542	1.17
685.725	1.19
685.908	1.16
686.091	1.11
686.274	1.15
686.457	1.15
686.639	1.17
686.822	1.17
687.005	1.14
687.188	1.12
687.371	1.12
687.553	1.17
687.736	1.13
687.919	1.17
688.102	1.1
688.284	1.13
688.467	1.05
688.65	1.09
688.832	0.99
689.015	1.12
689.197	1.01
689.38	1.16
689.563	1.11
689.745	1.02
689.928	1.01
690.11	1.02
690.293	1.07
690.475	1.01
690.658	1.07
690.84	1.03
691.023	1.01
691.205	0.99
691.388	1.06
691.57	1.03
691.752	0.95
691.935	0.94
692.117	0.98
692.3	1.05
692.482	0.96
692.664	0.93
692.847	0.99
693.029	1.02
693.211	0.99
693.393	0.92
693.576	0.91
693.758	0.92
693.94	0.93
694.122	0.91
694.304	0.93
694.487	0.9
694.669	0.97
694.851	0.94
695.033	0.94
695.215	0.82
695.397	0.82
695.579	0.98
695.761	0.88
695.943	0.85
696.125	0.95
696.308	0.94
696.49	0.82
696.671	0.97
696.853	0.82
697.035	0.97
697.217	0.9
697.399	0.9
697.581	0.79
697.763	0.88
697.945	0.78
698.127	0.93
698.309	0.92
698.491	0.87
698.672	0.93
698.854	0.82
699.036	0.88
699.218	0.85
699.399	0.89
699.581	0.86
699.763	0.74
699.945	0.83
700.126	0.81
700.308	0.8
700.49	0.73
700.671	0.77
700.853	0.82
701.035	0.85
701.216	0.79
701.398	0.74
701.579	0.78
701.761	0.84
701.943	0.72
702.124	0.74
702.306	0.82
702.487	0.85
702.669	0.78
702.85	0.81
703.031	0.73
703.213	0.73
703.394	0.78
703.576	0.77
703.757	0.86
703.938	0.79
704.12	0.79
704.301	0.71
704.483	0.74
704.664	0.77
704.845	0.82
705.026	0.77
705.208	0.77
705.389	0.74
705.57	0.75
705.751	0.75
705.933	0.73
706.114	0.8
706.295	0.76
706.476	0.71
706.657	0.85
706.838	0.7
707.02	0.78
707.201	0.68
707.382	0.66
707.563	0.7
707.744	0.69
707.925	0.7
708.106	0.67
708.287	0.74
708.468	0.77
708.649	0.71
708.83	0.77
709.011	0.77
709.192	0.75
709.373	0.66
709.554	0.77
709.734	0.73
709.915	0.74
710.096	0.65
710.277	0.63
710.458	0.68
710.639	0.67
710.819	0.55
711	0.64
711.181	0.73
711.362	0.64
711.542	0.63
711.723	0.64
711.904	0.66
712.085	0.64
712.265	0.68
712.446	0.58
712.627	0.67
712.807	0.67
712.988	0.66
713.168	0.61
713.349	0.7
713.53	0.55
713.71	0.59
713.891	0.61
714.071	0.63
714.252	0.57
714.432	0.58
714.613	0.54
714.793	0.7
714.974	0.69
715.154	0.69
715.334	0.66
715.515	0.66
715.695	0.51
715.876	0.66
716.056	0.67
716.236	0.59
716.417	0.63
716.597	0.59
716.777	0.76
716.957	0.55
717.138	0.68
717.318	0.63
717.498	0.62
717.678	0.59
717.859	0.59
718.039	0.56
718.219	0.72
718.399	0.57
718.579	0.54
718.759	0.66
718.939	0.65
719.12	0.55
719.3	0.65
719.48	0.51
719.66	0.57
719.84	0.67
720.02	0.62
720.2	0.56
720.38	0.61
720.56	0.69
720.74	0.63
720.92	0.67
721.1	0.64
721.279	0.61
721.459	0.6
721.639	0.47
721.819	0.58
721.999	0.63
722.179	0.63
722.359	0.56
722.538	0.65
722.718	0.56
722.898	0.62
723.078	0.49
723.257	0.56
723.437	0.68
723.617	0.62
723.797	0.67
723.976	0.63
724.156	0.66
724.336	0.61
724.515	0.83
724.695	0.48
724.874	0.55
725.054	0.57
725.234	0.57
725.413	0.68
725.593	0.61
725.772	0.65
725.952	0.53
726.131	0.62
726.311	0.64
726.49	0.62
726.67	0.58
726.849	0.55
727.028	0.61
727.208	0.56
727.387	0.7
727.567	0.54
727.746	0.63
727.925	0.47
728.105	0.52
728.284	0.55
728.463	0.58
728.643	0.62
728.822	0.52
729.001	0.58
729.18	0.58
729.359	0.62
729.539	0.7
729.718	0.64
729.897	0.63
730.076	0.59
730.255	0.49
730.434	0.58
730.614	0.6
730.793	0.58
730.972	0.55
731.151	0.64
731.33	0.68
731.509	0.63
731.688	0.53
731.867	0.49
732.046	0.56
732.225	0.71
732.404	0.5
732.583	0.5
732.762	0.57
732.941	0.63
733.12	0.51
733.298	0.54
733.477	0.63
733.656	0.65
733.835	0.51
734.014	0.6
734.193	0.51
734.371	0.63
734.55	0.59
734.729	0.53
734.908	0.59
735.086	0.56
735.265	0.68
735.444	0.59
735.623	0.52
735.801	0.56
735.98	0.66
736.159	0.69
736.337	0.66
736.516	0.58
736.694	0.61
736.873	0.66
737.052	0.68
737.23	0.65
737.409	0.52
737.587	0.74
737.766	0.39
737.944	0.56
738.123	0.62
738.301	0.64
738.479	0.58
738.658	0.59
738.836	0.42
739.015	0.69
739.193	0.59
739.371	0.49
739.55	0.51
739.728	0.45
739.906	0.75
740.085	0.65
740.263	0.6
740.441	0.41
740.62	0.67
740.798	0.54
740.976	0.58
741.154	0.56
741.332	0.72
741.511	0.63
741.689	0.6
741.867	0.53
742.045	0.43
742.223	0.56
742.401	0.57
742.579	0.49
742.757	0.4
742.935	0.38
743.114	0.54
743.292	0.43
743.47	0.65
743.648	0.6
743.826	0.57
744.004	0.66
744.181	0.52
744.359	0.46
744.537	0.48
744.715	0.43
744.893	0.52
745.071	0.49
745.249	0.46
745.427	0.47
745.605	0.46
745.782	0.47
745.96	0.47
746.138	0.53
746.316	0.51
746.493	0.39
746.671	0.47
746.849	0.47
747.027	0.52
747.204	0.4
747.382	0.5
747.56	0.37
747.737	0.42
747.915	0.37
748.093	0.57
748.27	0.53
748.448	0.54
748.625	0.36
748.803	0.45
748.98	0.44
749.158	0.43
749.335	0.44
749.513	0.42
749.69	0.43
749.868	0.49
750.045	0.49
750.223	0.31
750.4	0.27
750.578	0.55
750.755	0.39
750.932	0.37
751.11	0.62
751.287	0.2
751.464	0.48
751.642	0.32
751.819	0.46
751.996	0.41
752.173	0.43
752.351	0.33
752.528	0.46
752.705	0.4
752.882	0.28
753.06	0.48
753.237	0.49
753.414	0.52
753.591	0.53
753.768	0.44
753.945	0.35
754.122	0.28
754.299	0.37
754.476	0.44
754.654	0.4
754.831	0.35
755.008	0.3
755.185	0.38
755.362	0.22
755.539	0.34
755.716	0.48
755.892	0.38
756.069	0.33
756.246	0.31
756.423	0.46
756.6	0.53
756.777	0.39
756.954	0.48
757.131	0.4
757.307	0.24
757.484	0.39
757.661	0.53
757.838	0.47
758.015	0.36
758.191	0.49
758.368	0.42
758.545	0.5
758.721	0.43
758.898	0.41
759.075	0.55
759.251	0.54
759.428	0.45
759.605	0.26
759.781	0.49
759.958	0.35
760.134	0.37
760.311	0.5
760.488	0.47
760.664	0.42
760.841	0.41
761.017	0.28
761.194	0.54
761.37	0.31
761.547	0.35
761.723	0.34
761.899	0.5
762.076	0.26
762.252	0.33
762.429	0.46
762.605	0.44
762.781	0.34
762.958	0.42
763.134	0.4
763.31	0.35
763.486	0.55
763.663	0.21
763.839	0.47
764.015	0.22
764.191	0.25
764.368	0.34
764.544	0.29
764.72	0.31
764.896	0.53
765.072	0.37
765.248	0.36
765.425	0.48
765.601	0.28
765.777	0.43
765.953	0.21
766.129	0.43
766.305	0.29
766.481	0.4
766.657	0.4
766.833	0.51
767.009	0.39
767.185	0.4
767.361	0.44
767.537	0.23
767.713	0.38
767.889	0.24
768.065	0.4
768.24	0.41
768.416	0.43
768.592	0.35
768.768	0.32
768.944	0.31
769.12	0.23
769.295	0.29
769.471	0.42
769.647	0.31
769.823	0.39
769.998	0.34
770.174	0.34
770.35	0.58
770.525	0.6
770.701	0.48
770.877	0.39
771.052	0.28
771.228	0.32
771.403	0.43
771.579	0.53
771.755	0.52
771.93	0.22
772.106	0.3
772.281	0.29
772.457	0.45
772.632	0.48
772.808	0.23
772.983	0.39
773.159	0.16
773.334	0.35
773.509	0.35
773.685	0.31
773.86	0.59
774.036	0.54
774.211	0.39
774.386	0.31
774.562	0.43
774.737	0.51
774.912	0.35
775.087	0.39
775.263	0.51
775.438	0.49
775.613	0.37
775.788	0.44
775.964	0.47
776.139	0.51
776.314	0.28
776.489	0.36
776.664	0.35
776.839	0.4
777.014	0.44
777.19	0.47
777.365	0.37
777.54	0.52
777.715	0.4
777.89	0.33
778.065	0.42
778.24	0.21
778.415	0.56
778.59	0.28
778.765	0.16
778.94	0.26
779.115	0.29
779.289	0.41
779.464	0.51
779.639	0.47
779.814	0.28
779.989	0.37
780.164	0.5
780.339	0.47
780.513	0.32
780.688	0.41
780.863	0.3
781.038	0.54
781.212	0.29
781.387	0.34
781.562	0.59
781.737	0.5
781.911	0.6
782.086	0.31
782.261	0.26
782.435	0.4
782.61	0.44
782.784	0.41
782.959	0.4
783.134	0.28
783.308	0.34
783.483	0.44
783.657	0.58
783.832	0.49
784.006	0.39
784.181	0.57
784.355	0.52
784.53	0.41
784.704	0.19
784.878	0.62
785.053	0.47
785.227	0.44
785.402	0.75
785.576	0.4
785.75	0.23
785.925	0.46
786.099	0.4
786.273	0.56
786.448	0.51
786.622	0.62
786.796	0.23
786.97	0.08
787.145	0.81
787.319	0.34
787.493	0.6
787.667	0.27
787.841	0.49
788.015	0.45
788.19	0.25
788.364	0.55
788.538	0.46
788.712	0.56
788.886	0.46
789.06	0.49
789.234	0.38
789.408	0.1
789.582	0.49
789.756	0.46
789.93	0.32
790.104	0.27
790.278	0.26
790.452	0.51
790.626	0.59
790.8	0.34
790.973	0.57
791.147	0.42
791.321	0.38
791.495	0.49
791.669	0.45
791.843	0.76
792.016	0.46
792.19	0.66
792.364	0.44
792.538	0.6
792.711	0.58
792.885	0.5
793.059	0.25
793.233	0.34
793.406	0.59
793.58	0.37
793.754	0.61
793.927	0.31
794.101	0.66
794.274	0.54
794.448	0.68
794.622	0.4
794.795	0.5
794.969	0.37
795.142	0.68
795.316	0.41
795.489	0.31
795.663	0.93
795.836	0.39
796.009	0.46
796.183	0.88
796.356	0.63
796.53	0.46
796.703	0.53
796.876	0.95
797.05	0.29
797.223	0.57
797.396	0.65
797.57	0.53
797.743	0.51
797.916	0.37
798.09	0.47
798.263	0.49
798.436	0.55
798.609	0.32
798.782	0.49
798.956	0.4
799.129	0.51
799.302	0.65
799.475	0.28
799.648	0.14
799.821	0.35
799.994	0.5
800.167	0.4
800.34	0.58
800.514	0.52
800.687	0.34
800.86	0.51
801.033	0.06
801.206	0.34
801.379	0.4
801.551	0.42
801.724	0.74
801.897	0.87
802.07	0.58
802.243	0.3
802.416	0.57
802.589	0.26
802.762	0.76
802.935	0.69
803.107	0.57
803.28	0.8
803.453	1.11
803.626	0.37
803.798	0.43
803.971	0.25
804.144	0.69
804.317	0.9
804.489	0.77
804.662	0.45
804.835	0.83
805.007	0.66
805.18	0.72
805.353	0.73
805.525	0.36
805.698	0.47
805.87	0.78
806.043	0.87
806.215	0.51
806.388	0.3
806.56	0.45
806.733	0.96
806.905	0.77
807.078	0.29
807.25	0.39
807.423	0.57
807.595	0.08
807.768	0.69
807.94	0.92
808.112	1
808.285	0.68
808.457	0.85
808.629	0.59
808.802	0.71
808.974	0.85
809.146	0.48
809.318	0.64
809.491	0.36
809.663	0.36
809.835	0.67
810.007	1.02
810.18	0.89
810.352	0.27
810.524	0.47
810.696	0.65
810.868	0.98
811.04	0.7
811.212	0.66
811.384	0.52
811.556	0.64
811.728	0.74
811.901	0.97
812.073	0.57
812.245	0.81
812.417	0.77
812.589	0.14
812.76	0.5
812.932	0.42
813.104	0.7
813.276	0.55
813.448	1.14
813.62	0.71
813.792	0.74
813.964	1.27
814.136	0.79
814.307	0.25
814.479	0.77
814.651	0.7
814.823	0.99
814.995	0.27
815.166	0.93
815.338	0.35
815.51	0.17
815.681	1.37
815.853	0.58
816.025	0.49
816.196	1.11
816.368	0.93
816.54	0.49
816.711	0.64
816.883	0.92
817.054	1.2
817.226	0.05
817.398	0.69
817.569	0.54
817.741	1.14
817.912	1.08
818.084	0.67
818.255	0.94
818.426	0.61
818.598	0.39
818.769	0.62
818.941	0.97
819.112	1.2
819.283	1.27
819.455	0.46
819.626	0.86
819.798	0.75
819.969	1.02
820.14	0.82
820.311	0.31
820.483	0.87
820.654	0.73
820.825	0.78
820.996	0.43
821.168	0.11
821.339	0.97
821.51	0.77
821.681	0.47
821.852	0.63
822.023	0.32
822.195	0.21
822.366	0.93
822.537	0.72
822.708	1.12
822.879	0.56
823.05	0.93
823.221	0.96
823.392	1.33
823.563	0.38
823.734	0.84
823.905	0.79
824.076	0.76
824.247	0.69
824.418	0.22
824.589	1.33
824.759	0.82
824.93	0.86
825.101	0.51
825.272	1.25
825.443	0.91
825.614	1.01
825.784	0.06
825.955	0.91
826.126	1.94
826.297	1.29
826.467	1.67
826.638	1.04
826.809	1.12
826.98	1.1
827.15	1.11
827.321	0.44
827.492	1.74
827.662	0.93
827.833	0.77
828.003	0.41
828.174	0.77
828.345	0.58
828.515	1.19
828.686	1.05
828.856	0.93
829.027	0.93
829.197	0.82
829.368	0.94
829.538	0.45
829.709	0.51
829.879	0.67
830.049	0.94
830.22	0.56
830.39	1.28
830.56	0.75
830.731	0.74
830.901	1.04
831.072	0.91
831.242	0.87
831.412	0.33
831.582	0.54
831.753	0.55
831.923	1.14
832.093	0.23
832.263	1.57
832.434	0.31
832.604	0.31
832.774	0.81
832.944	0.79
833.114	0.94
833.284	1.29
833.454	0.05
833.624	0.76
833.795	1.19
833.965	0.94
834.135	0.62
834.305	0.55
834.475	0.56
834.645	-0.17
834.815	0.98
834.985	1.09
835.155	0.63
835.325	1.4
835.494	0.42
835.664	0.89
835.834	0.93
836.004	0.64
836.174	0.43
836.344	1.65
836.514	0.74
836.684	0.99
836.853	1.5
837.023	0.9
837.193	0.36
837.363	1.05
837.532	1.09
837.702	0.9
837.872	0.85
838.041	1.82
838.211	1.66
838.381	0.31
838.55	1.05
838.72	1.29
838.89	1.45
839.059	0.9
839.229	0.96
839.398	1.22
839.568	0.9
839.738	0.86
839.907	2.2
840.077	0.88
840.246	0.78
840.416	0.94
840.585	0.87
840.755	0.81
840.924	1.57
841.093	0.92
841.263	0.85
841.432	1.84
841.602	0.4
841.771	0.84
841.94	1.32
842.11	2.13
842.279	2.13
842.448	0.25
842.617	0.28
842.787	1.97
842.956	0.48
843.125	1.45
843.294	1.23
843.464	1.68
843.633	0.93
843.802	1.24
843.971	1.55
844.14	1.58
844.309	0.87
844.479	0.3
844.648	0.64
844.817	0.45
844.986	1.06
845.155	1.22
845.324	1.37
845.493	1.49
845.662	0.32
845.831	1.19
846	1.82
846.169	0.79
846.338	1.29
846.507	1.79
846.676	1.63
846.844	0.68
847.013	1.51
847.182	1.42
847.351	1.15
847.52	1.25
847.689	1.91
847.858	0.41
848.026	2.01
848.195	0.68
848.364	1.01
848.533	1.09
848.701	0.86
848.87	2.39
849.039	1.17
849.207	2.18
849.376	2.71
849.545	1.53
849.713	1.21
849.882	1.62
850.051	1.1
850.219	2.04
850.388	2
850.556	1
850.725	1.11
850.893	1.9
851.062	0.56
851.23	1.8
851.399	-0.08
851.567	0.84
851.736	1.58
851.904	-0.26
852.073	0.86
852.241	2.84
852.41	1.58
852.578	1.76
852.746	1.88
852.915	2.73
853.083	1.6
853.251	0.73
853.42	1.4
853.588	1.72
853.756	1.32
853.924	1.36
854.093	1.2
854.261	1.75
854.429	0.74
854.597	2.34
854.765	0.99
854.934	2.51
855.102	1.66
855.27	2.02
855.438	1.94
855.606	0.79
855.774	2.02
855.942	-0.03
856.11	1.08
856.278	1.68
856.446	0.94
856.614	2.69
856.782	1.07
856.95	2.43
857.118	1.57
857.286	1.41
857.454	0.72
857.622	1.7
857.79	2.06
857.958	2.02
858.126	0.71
858.294	-0.33
858.462	2.67
858.629	1.05
858.797	1.83
858.965	1.76
859.133	1.34
859.301	0.94
859.468	1.96
859.636	0.03
859.804	1.68
859.971	2.15
860.139	1.61
860.307	2.42
860.474	1.21
860.642	1.37
860.81	2.6
860.977	1.67
861.145	1.5
861.313	1.75
861.48	1.65
861.648	2.31
861.815	0.96
861.983	0.64
862.15	1.81
862.318	1.28
862.485	2.37
862.653	2.3
862.82	0.54
862.988	2.33
863.155	2.57
863.322	0.63
863.49	1.34
863.657	0.8
863.824	3.3
863.992	2.36
864.159	1.75
864.326	1.7
864.494	1.22
864.661	3.95
864.828	1.12
864.996	2.38
865.163	2.63
865.33	1.87
865.497	0.33
865.664	0.07
865.832	-0.08
865.999	0.99
866.166	0.85
866.333	0.89
866.5	1.12
866.667	1.93
866.834	0.09
867.001	3.1
867.168	0.25
867.335	3.04
867.502	0.84
867.669	3.05
867.836	3.2
868.003	1.61
868.17	1.54
868.337	-1.45
868.504	3.01
868.671	1.22
868.838	2.21
869.005	1.06
869.172	1.76
869.339	1.16
869.505	2.38
869.672	0.55
869.839	2.06
870.006	2.97
870.173	0.11
870.339	1.56
870.506	2.52
870.673	-1.06
870.84	2.24
871.006	1.91
871.173	1.86
871.34	1.83
871.506	0.37
871.673	3.31
871.839	0.91
872.006	2.37
872.173	3.4
872.339	0.41
872.506	2.18
872.672	1.94
872.839	1.46
873.005	1.71
873.172	4.26
873.338	3.97
873.505	3.73
873.671	-0.54
873.838	0.64
874.004	2.07
874.171	0.94
874.337	1.02
874.503	1.18
874.67	1.25
874.836	1.51
875.002	4.06
875.169	3.23
875.335	4.09
875.501	0.15
875.668	2.43
875.834	1.57
876	3.32
876.166	2.3
876.332	2.29
876.499	2.97
876.665	1.5
876.831	2.31
876.997	4.57
877.163	2.6
877.329	1.5
877.495	4.83
877.662	2.47
877.828	0.71
877.994	2.13
878.16	1.97
878.326	0.99
878.492	1.25
878.658	1.96
878.824	3.69
878.99	3.03
879.156	0.81
879.322	3.65
879.487	1
879.653	2.54
879.819	2.73
879.985	2.39
880.151	3.88
880.317	1
880.483	1.96
880.648	2.78
880.814	-0.28
880.98	2.75
881.146	0.67
881.312	2.04
881.477	-0.02
881.643	2.78
881.809	5.08
881.974	5.17
882.14	0.52
882.306	4.19
882.471	3.18
882.637	1.74
882.803	2.21
882.968	3.31
883.134	3.04
883.299	0.93
883.465	2.59
883.63	3.15
883.796	2.61
883.961	3.29
884.127	2.86
884.292	0.68
884.458	-0.72
884.623	-0.72
