Data from Apollo_Calib_20240827__AbsoluteIrradiance__775__12-04-01-395.txt Node

Date: Wed Aug 28 12:04:01 BST 2024
User: biology
Spectrometer: FLMT08252
Trigger mode: 0
Integration Time (sec): 5.000000E-1
Scans to average: 5
Electric dark correction enabled: true
Nonlinearity correction enabled: false
Boxcar width: 0
XAxis mode: Wavelengths
Number of Pixels in Spectrum: 3648
>>>>>Begin Spectral Data<<<<<
179.588	-0
179.809	-0
180.03	-0
180.251	-0
180.473	-0
180.694	0
180.915	0
181.136	-0
181.357	0
181.578	0
181.799	0
182.02	-0
182.241	0
182.462	-0
182.683	0
182.904	-0
183.125	-0
183.346	0
183.567	0
183.788	0
184.009	0
184.23	0
184.451	0
184.672	0
184.892	0
185.113	0
185.334	0
185.555	0
185.776	0
185.996	0
186.217	0
186.438	0
186.659	0
186.879	0
187.1	0
187.321	0
187.541	0
187.762	0
187.983	0
188.203	0
188.424	0
188.644	0
188.865	0
189.086	0
189.306	0
189.527	0
189.747	0
189.968	0
190.188	0
190.409	0
190.629	0
190.849	0
191.07	0
191.29	0
191.511	0
191.731	0
191.951	0
192.172	0
192.392	0
192.612	0
192.833	0
193.053	0
193.273	0
193.493	0
193.714	0
193.934	0
194.154	0
194.374	0
194.594	0
194.815	0
195.035	0
195.255	0
195.475	0
195.695	0
195.915	0
196.135	0
196.355	0
196.575	0
196.795	0
197.015	0
197.235	0
197.455	0
197.675	0
197.895	0
198.115	0
198.335	0
198.555	0
198.775	0
198.995	0
199.214	0
199.434	0
199.654	0
199.874	0
200.094	4.57
200.313	2.63
200.533	1.97
200.753	1.43
200.973	3.78
201.192	3.42
201.412	1.73
201.632	1.72
201.851	3.55
202.071	2.19
202.291	1.96
202.51	1.46
202.73	2.22
202.95	1.8
203.169	1.33
203.389	1.88
203.608	2.02
203.828	1.56
204.047	1.53
204.267	2.21
204.486	1.8
204.706	2.25
204.925	1.78
205.145	1.52
205.364	2.38
205.583	2.1
205.803	1.27
206.022	1.35
206.242	1.83
206.461	1.69
206.68	1.23
206.9	1.6
207.119	2.42
207.338	2.27
207.557	1.3
207.777	1.08
207.996	1.38
208.215	2.04
208.434	1.08
208.654	0.99
208.873	1.53
209.092	2.51
209.311	1.24
209.53	1.27
209.749	1.28
209.968	0.91
210.187	0.9
210.407	0.58
210.626	1.37
210.845	1.49
211.064	1.22
211.283	0.8
211.502	1.64
211.721	1.25
211.94	0.9
212.159	1.13
212.377	1.36
212.596	1.54
212.815	1.45
213.034	1.04
213.253	1.5
213.472	1.23
213.691	1.1
213.91	0.73
214.128	0.72
214.347	1.24
214.566	0.49
214.785	0.56
215.003	1.38
215.222	0.99
215.441	0.94
215.66	0.39
215.878	0.93
216.097	1.2
216.316	0.73
216.534	0.8
216.753	1.12
216.972	1.01
217.19	0.68
217.409	0.5
217.627	0.77
217.846	0.91
218.064	0.94
218.283	0.68
218.501	1.54
218.72	1.21
218.938	0.53
219.157	0.76
219.375	1.07
219.594	1.18
219.812	0.65
220.031	0.63
220.249	1.17
220.467	1.07
220.686	0.64
220.904	0.61
221.122	0.7
221.341	1.32
221.559	0.82
221.777	0.48
221.995	0.96
222.214	0.95
222.432	0.68
222.65	0.82
222.868	0.64
223.086	0.8
223.305	0.81
223.523	0.74
223.741	1.04
223.959	0.66
224.177	0.44
224.395	0.56
224.613	0.76
224.831	1.02
225.049	0.48
225.267	0.63
225.485	0.8
225.703	0.62
225.921	0.54
226.139	0.47
226.357	0.65
226.575	0.7
226.793	0.51
227.011	1.46
227.229	0.78
227.447	0.82
227.665	0.46
227.883	0.41
228.1	0.68
228.318	0.62
228.536	0.3
228.754	0.46
228.972	0.69
229.189	0.92
229.407	0.48
229.625	0.49
229.843	0.9
230.06	0.66
230.278	0.49
230.496	0.59
230.713	0.65
230.931	0.73
231.149	0.57
231.366	0.27
231.584	0.59
231.801	1.04
232.019	0.45
232.236	0.38
232.454	0.4
232.671	0.66
232.889	0.54
233.106	0.4
233.324	0.63
233.541	0.53
233.759	0.62
233.976	0.38
234.194	0.55
234.411	0.56
234.628	0.38
234.846	0.42
235.063	0.58
235.28	0.55
235.498	0.4
235.715	0.32
235.932	0.64
236.149	0.54
236.367	0.43
236.584	0.7
236.801	0.53
237.018	0.63
237.236	0.45
237.453	0.24
237.67	0.62
237.887	0.52
238.104	0.42
238.321	0.31
238.538	0.37
238.755	0.63
238.973	0.34
239.19	0.42
239.407	0.54
239.624	0.57
239.841	0.34
240.058	0.37
240.275	0.57
240.492	0.51
240.709	0.39
240.925	0.36
241.142	0.43
241.359	0.26
241.576	0.28
241.793	0.34
242.01	0.49
242.227	0.71
242.444	0.6
242.66	0.65
242.877	0.58
243.094	0.49
243.311	0.51
243.527	0.42
243.744	0.52
243.961	0.55
244.178	0.36
244.394	0.35
244.611	0.65
244.828	0.73
245.044	0.38
245.261	0.44
245.477	0.51
245.694	0.63
245.911	0.34
246.127	0.5
246.344	0.64
246.56	0.56
246.777	0.4
246.993	0.42
247.21	0.42
247.426	0.46
247.643	0.33
247.859	0.25
248.076	0.4
248.292	0.63
248.508	0.39
248.725	0.44
248.941	0.5
249.157	0.62
249.374	0.41
249.59	0.36
249.806	0.53
250.023	0.66
250.239	0.33
250.455	0.37
250.671	0.41
250.888	0.49
251.104	0.5
251.32	0.35
251.536	0.42
251.752	0.36
251.969	0.34
252.185	0.38
252.401	0.57
252.617	0.42
252.833	0.38
253.049	0.39
253.265	0.4
253.481	0.4
253.697	0.34
253.913	0.3
254.129	0.45
254.345	0.4
254.561	0.29
254.777	0.43
254.993	0.48
255.209	0.37
255.425	0.38
255.641	0.28
255.857	0.47
256.073	0.53
256.288	0.24
256.504	0.3
256.72	0.5
256.936	0.54
257.152	0.33
257.367	0.32
257.583	0.47
257.799	0.41
258.015	0.37
258.23	0.27
258.446	0.61
258.662	0.37
258.877	0.34
259.093	0.28
259.309	0.4
259.524	0.44
259.74	0.34
259.955	0.18
260.171	0.34
260.387	0.43
260.602	0.38
260.818	0.44
261.033	0.28
261.249	0.35
261.464	0.28
261.68	0.28
261.895	0.44
262.11	0.43
262.326	0.3
262.541	0.2
262.757	0.46
262.972	0.5
263.187	0.34
263.403	0.37
263.618	0.47
263.833	0.39
264.049	0.29
264.264	0.41
264.479	0.36
264.694	0.46
264.91	0.31
265.125	0.31
265.34	0.5
265.555	0.54
265.77	0.37
265.986	0.28
266.201	0.44
266.416	0.48
266.631	0.35
266.846	0.32
267.061	0.44
267.276	0.38
267.491	0.21
267.706	0.39
267.921	0.4
268.136	0.39
268.351	0.3
268.566	0.18
268.781	0.44
268.996	0.45
269.211	0.36
269.426	0.19
269.641	0.3
269.856	0.41
270.071	0.27
270.285	0.2
270.5	0.44
270.715	0.42
270.93	0.33
271.145	0.4
271.359	0.44
271.574	0.28
271.789	0.35
272.004	0.23
272.218	0.29
272.433	0.4
272.648	0.29
272.862	0.39
273.077	0.37
273.292	0.32
273.506	0.28
273.721	0.3
273.936	0.34
274.15	0.44
274.365	0.31
274.579	0.39
274.794	0.42
275.008	0.42
275.223	0.24
275.437	0.27
275.652	0.48
275.866	0.41
276.081	0.28
276.295	0.4
276.509	0.35
276.724	0.33
276.938	0.28
277.153	0.33
277.367	0.38
277.581	0.32
277.796	0.32
278.01	0.23
278.224	0.44
278.438	0.48
278.653	0.27
278.867	0.26
279.081	0.38
279.295	0.32
279.51	0.32
279.724	0.27
279.938	0.38
280.152	0.36
280.366	0.35
280.58	0.32
280.794	0.42
281.008	0.36
281.222	0.34
281.437	0.46
281.651	0.31
281.865	0.36
282.079	0.29
282.293	0.15
282.507	0.27
282.721	0.3
282.935	0.3
283.148	0.21
283.362	0.2
283.576	0.26
283.79	0.27
284.004	0.21
284.218	0.36
284.432	0.25
284.646	0.27
284.859	0.25
285.073	0.24
285.287	0.31
285.501	0.31
285.714	0.29
285.928	0.33
286.142	0.35
286.356	0.25
286.569	0.26
286.783	0.38
286.997	0.4
287.21	0.31
287.424	0.26
287.637	0.29
287.851	0.28
288.065	0.36
288.278	0.26
288.492	0.3
288.705	0.34
288.919	0.38
289.132	0.17
289.346	0.35
289.559	0.19
289.773	0.18
289.986	0.31
290.2	0.28
290.413	0.31
290.626	0.21
290.84	0.25
291.053	0.28
291.267	0.38
291.48	0.3
291.693	0.23
291.906	0.28
292.12	0.28
292.333	0.27
292.546	0.23
292.76	0.35
292.973	0.35
293.186	0.3
293.399	0.23
293.612	0.37
293.826	0.27
294.039	0.26
294.252	0.26
294.465	0.29
294.678	0.29
294.891	0.26
295.104	0.2
295.317	0.25
295.53	0.27
295.743	0.31
295.956	0.22
296.169	0.4
296.382	0.32
296.595	0.24
296.808	0.2
297.021	0.36
297.234	0.35
297.447	0.26
297.66	0.29
297.873	0.38
298.086	0.29
298.299	0.17
298.511	0.17
298.724	0.24
298.937	0.21
299.15	0.22
299.363	0.22
299.575	0.3
299.788	0.29
300.001	0.24
300.213	0.24
300.426	0.25
300.639	0.19
300.852	0.18
301.064	0.27
301.277	0.35
301.489	0.27
301.702	0.26
301.915	0.25
302.127	0.27
302.34	0.3
302.552	0.25
302.765	0.19
302.977	0.27
303.19	0.21
303.402	0.23
303.615	0.24
303.827	0.25
304.04	0.23
304.252	0.3
304.464	0.26
304.677	0.43
304.889	0.32
305.102	0.21
305.314	0.19
305.526	0.28
305.739	0.29
305.951	0.23
306.163	0.23
306.375	0.34
306.588	0.22
306.8	0.25
307.012	0.17
307.224	0.29
307.436	0.39
307.649	0.18
307.861	0.24
308.073	0.35
308.285	0.23
308.497	0.24
308.709	0.23
308.921	0.31
309.133	0.34
309.346	0.22
309.558	0.25
309.77	0.28
309.982	0.17
310.194	0.28
310.406	0.18
310.617	0.36
310.829	0.22
311.041	0.32
311.253	0.24
311.465	0.24
311.677	0.25
311.889	0.27
312.101	0.17
312.313	0.32
312.524	0.35
312.736	0.16
312.948	0.2
313.16	0.35
313.372	0.27
313.583	0.23
313.795	0.21
314.007	0.25
314.218	0.31
314.43	0.25
314.642	0.25
314.853	0.16
315.065	0.3
315.277	0.24
315.488	0.27
315.7	0.3
315.912	0.31
316.123	0.25
316.335	0.28
316.546	0.38
316.758	0.25
316.969	0.22
317.181	0.24
317.392	0.24
317.604	0.32
317.815	0.22
318.026	0.25
318.238	0.25
318.449	0.28
318.661	0.19
318.872	0.18
319.083	0.21
319.295	0.3
319.506	0.21
319.717	0.25
319.929	0.29
320.14	0.28
320.351	0.21
320.562	0.21
320.774	0.26
320.985	0.28
321.196	0.21
321.407	0.17
321.618	0.32
321.829	0.26
322.041	0.29
322.252	0.28
322.463	0.29
322.674	0.31
322.885	0.19
323.096	0.21
323.307	0.27
323.518	0.31
323.729	0.24
323.94	0.23
324.151	0.23
324.362	0.26
324.573	0.33
324.784	0.21
324.995	0.34
325.206	0.27
325.417	0.22
325.628	0.22
325.838	0.25
326.049	0.29
326.26	0.32
326.471	0.24
326.682	0.34
326.892	0.26
327.103	0.17
327.314	0.17
327.525	0.29
327.735	0.26
327.946	0.22
328.157	0.18
328.368	0.3
328.578	0.23
328.789	0.32
328.999	0.23
329.21	0.24
329.421	0.3
329.631	0.24
329.842	0.22
330.052	0.25
330.263	0.28
330.473	0.3
330.684	0.26
330.894	0.29
331.105	0.25
331.315	0.28
331.526	0.19
331.736	0.34
331.947	0.27
332.157	0.34
332.367	0.23
332.578	0.28
332.788	0.38
332.999	0.33
333.209	0.24
333.419	0.17
333.629	0.34
333.84	0.31
334.05	0.22
334.26	0.34
334.47	0.28
334.681	0.32
334.891	0.22
335.101	0.25
335.311	0.33
335.521	0.22
335.732	0.19
335.942	0.36
336.152	0.31
336.362	0.25
336.572	0.31
336.782	0.32
336.992	0.19
337.202	0.2
337.412	0.24
337.622	0.28
337.832	0.22
338.042	0.28
338.252	0.2
338.462	0.22
338.672	0.29
338.882	0.22
339.092	0.22
339.302	0.36
339.511	0.3
339.721	0.24
339.931	0.18
340.141	0.31
340.351	0.37
340.561	0.29
340.77	0.27
340.98	0.27
341.19	0.29
341.4	0.27
341.609	0.23
341.819	0.27
342.029	0.17
342.238	0.32
342.448	0.21
342.658	0.31
342.867	0.25
343.077	0.26
343.286	0.25
343.496	0.23
343.706	0.29
343.915	0.21
344.125	0.25
344.334	0.27
344.544	0.19
344.753	0.25
344.963	0.2
345.172	0.24
345.381	0.2
345.591	0.16
345.8	0.25
346.01	0.32
346.219	0.3
346.428	0.12
346.638	0.27
346.847	0.26
347.056	0.31
347.266	0.2
347.475	0.26
347.684	0.3
347.893	0.27
348.103	0.26
348.312	0.22
348.521	0.24
348.73	0.25
348.94	0.24
349.149	0.22
349.358	0.24
349.567	0.27
349.776	0.18
349.985	0.22
350.194	0.29
350.403	0.3
350.612	0.18
350.821	0.24
351.03	0.28
351.239	0.18
351.448	0.24
351.657	0.26
351.866	0.36
352.075	0.23
352.284	0.24
352.493	0.17
352.702	0.35
352.911	0.27
353.12	0.25
353.329	0.26
353.538	0.24
353.746	0.24
353.955	0.18
354.164	0.27
354.373	0.2
354.582	0.3
354.79	0.24
354.999	0.29
355.208	0.23
355.416	0.33
355.625	0.22
355.834	0.21
356.042	0.27
356.251	0.23
356.46	0.2
356.668	0.27
356.877	0.31
357.085	0.28
357.294	0.14
357.503	0.27
357.711	0.26
357.92	0.41
358.128	0.23
358.337	0.23
358.545	0.26
358.754	0.2
358.962	0.32
359.17	0.22
359.379	0.26
359.587	0.23
359.796	0.25
360.004	0.31
360.212	0.29
360.421	0.33
360.629	0.22
360.837	0.21
361.046	0.33
361.254	0.4
361.462	0.21
361.67	0.2
361.879	0.29
362.087	0.29
362.295	0.24
362.503	0.21
362.711	0.19
362.92	0.21
363.128	0.22
363.336	0.19
363.544	0.2
363.752	0.24
363.96	0.23
364.168	0.19
364.376	0.27
364.584	0.27
364.792	0.33
365	0.23
365.208	0.23
365.416	0.28
365.624	0.29
365.832	0.17
366.04	0.35
366.248	0.25
366.456	0.28
366.664	0.24
366.872	0.25
367.079	0.23
367.287	0.25
367.495	0.25
367.703	0.24
367.911	0.21
368.118	0.26
368.326	0.24
368.534	0.22
368.742	0.34
368.949	0.21
369.157	0.21
369.365	0.27
369.572	0.21
369.78	0.18
369.988	0.3
370.195	0.28
370.403	0.3
370.61	0.22
370.818	0.25
371.026	0.35
371.233	0.19
371.441	0.2
371.648	0.24
371.856	0.26
372.063	0.24
372.271	0.2
372.478	0.2
372.685	0.22
372.893	0.32
373.1	0.23
373.308	0.23
373.515	0.35
373.722	0.3
373.93	0.24
374.137	0.33
374.344	0.34
374.552	0.32
374.759	0.28
374.966	0.22
375.173	0.23
375.381	0.33
375.588	0.29
375.795	0.19
376.002	0.24
376.209	0.24
376.417	0.22
376.624	0.28
376.831	0.31
377.038	0.27
377.245	0.18
377.452	0.25
377.659	0.27
377.866	0.26
378.073	0.26
378.28	0.22
378.487	0.31
378.694	0.35
378.901	0.24
379.108	0.27
379.315	0.31
379.522	0.37
379.729	0.24
379.936	0.27
380.143	0.25
380.35	0.31
380.557	0.23
380.763	0.3
380.97	0.27
381.177	0.29
381.384	0.27
381.591	0.22
381.797	0.27
382.004	0.33
382.211	0.33
382.418	0.26
382.624	0.34
382.831	0.31
383.038	0.26
383.244	0.27
383.451	0.28
383.658	0.3
383.864	0.21
384.071	0.22
384.277	0.38
384.484	0.24
384.69	0.39
384.897	0.24
385.103	0.25
385.31	0.24
385.516	0.29
385.723	0.23
385.929	0.27
386.136	0.23
386.342	0.32
386.549	0.24
386.755	0.37
386.961	0.3
387.168	0.27
387.374	0.27
387.58	0.33
387.787	0.26
387.993	0.3
388.199	0.25
388.406	0.24
388.612	0.25
388.818	0.23
389.024	0.24
389.231	0.3
389.437	0.38
389.643	0.36
389.849	0.3
390.055	0.32
390.261	0.29
390.467	0.36
390.674	0.3
390.88	0.28
391.086	0.31
391.292	0.26
391.498	0.3
391.704	0.33
391.91	0.34
392.116	0.29
392.322	0.18
392.528	0.34
392.734	0.26
392.94	0.29
393.146	0.32
393.352	0.31
393.557	0.28
393.763	0.27
393.969	0.34
394.175	0.29
394.381	0.3
394.587	0.23
394.792	0.29
394.998	0.38
395.204	0.34
395.41	0.25
395.615	0.33
395.821	0.35
396.027	0.34
396.233	0.27
396.438	0.33
396.644	0.35
396.85	0.34
397.055	0.34
397.261	0.29
397.466	0.36
397.672	0.35
397.878	0.34
398.083	0.34
398.289	0.31
398.494	0.42
398.7	0.33
398.905	0.24
399.111	0.39
399.316	0.29
399.522	0.33
399.727	0.32
399.932	0.33
400.138	0.32
400.343	0.39
400.549	0.33
400.754	0.36
400.959	0.35
401.165	0.34
401.37	0.42
401.575	0.49
401.78	0.36
401.986	0.36
402.191	0.32
402.396	0.38
402.601	0.38
402.807	0.41
403.012	0.39
403.217	0.46
403.422	0.41
403.627	0.41
403.832	0.37
404.037	0.46
404.243	0.44
404.448	0.35
404.653	0.44
404.858	0.43
405.063	0.45
405.268	0.39
405.473	0.39
405.678	0.42
405.883	0.63
406.088	0.48
406.293	0.41
406.498	0.4
406.703	0.55
406.907	0.46
407.112	0.45
407.317	0.55
407.522	0.6
407.727	0.51
407.932	0.5
408.136	0.63
408.341	0.49
408.546	0.6
408.751	0.57
408.956	0.61
409.16	0.68
409.365	0.59
409.57	0.64
409.774	0.59
409.979	0.72
410.184	0.68
410.388	0.68
410.593	0.75
410.798	0.73
411.002	0.73
411.207	0.81
411.411	0.79
411.616	0.71
411.82	0.84
412.025	0.83
412.229	0.8
412.434	1.01
412.638	0.9
412.843	0.93
413.047	1.01
413.252	0.93
413.456	1.04
413.66	1.08
413.865	1.03
414.069	1.16
414.273	1.09
414.478	1.12
414.682	1.16
414.886	1.23
415.091	1.22
415.295	1.27
415.499	1.46
415.703	1.36
415.908	1.46
416.112	1.38
416.316	1.64
416.52	1.54
416.724	1.53
416.929	1.65
417.133	1.82
417.337	1.72
417.541	1.82
417.745	1.85
417.949	2.03
418.153	2
418.357	1.96
418.561	2.27
418.765	2.21
418.969	2.43
419.173	2.43
419.377	2.33
419.581	2.69
419.785	2.63
419.989	2.6
420.193	2.82
420.397	2.85
420.601	3.02
420.804	3.09
421.008	3.15
421.212	3.25
421.416	3.3
421.62	3.27
421.823	3.38
422.027	3.51
422.231	3.52
422.435	3.46
422.638	3.52
422.842	3.67
423.046	3.73
423.249	3.97
423.453	3.93
423.657	4.09
423.86	4.18
424.064	4.32
424.268	4.52
424.471	4.46
424.675	4.65
424.878	4.82
425.082	4.88
425.285	5.18
425.489	5.12
425.692	5.24
425.896	5.24
426.099	5.51
426.303	5.61
426.506	5.76
426.71	5.99
426.913	6.24
427.116	6.38
427.32	6.33
427.523	6.43
427.726	6.7
427.93	6.96
428.133	7.19
428.336	7.33
428.54	7.41
428.743	7.61
428.946	7.95
429.149	7.95
429.353	8.01
429.556	8.1
429.759	8.11
429.962	8.14
430.165	8.35
430.368	8.09
430.571	8.07
430.775	8.18
430.978	8.09
431.181	8.24
431.384	8.2
431.587	8.39
431.79	8.72
431.993	8.7
432.196	8.92
432.399	9.29
432.602	9.47
432.805	9.58
433.008	10.14
433.211	9.97
433.414	10.26
433.616	10.35
433.819	10.39
434.022	10.52
434.225	10.61
434.428	10.65
434.631	11.05
434.833	10.78
435.036	11.07
435.239	11.29
435.442	11.4
435.645	11.59
435.847	11.55
436.05	11.87
436.253	12.23
436.455	12.12
436.658	12.07
436.861	12.29
437.063	12.63
437.266	12.49
437.468	12.77
437.671	13.13
437.874	13.18
438.076	12.99
438.279	13.45
438.481	13.63
438.684	14.29
438.886	13.85
439.089	14.19
439.291	14.17
439.494	14.58
439.696	14.7
439.899	15.39
440.101	15.73
440.303	15.96
440.506	16.51
440.708	16.35
440.91	16.65
441.113	16.66
441.315	16.88
441.517	16.76
441.72	17.38
441.922	16.88
442.124	16.69
442.326	17.19
442.529	17.43
442.731	17.39
442.933	17.82
443.135	17.47
443.337	17.45
443.539	17.99
443.742	17.66
443.944	18.39
444.146	18.1
444.348	18.14
444.55	18.03
444.752	18.02
444.954	18.09
445.156	18.06
445.358	18.45
445.56	18.77
445.762	18.54
445.964	18.93
446.166	18.69
446.368	18.43
446.57	18.58
446.772	18.17
446.974	17.91
447.175	18.29
447.377	18.01
447.579	18.47
447.781	18.08
447.983	17.93
448.184	17.41
448.386	17.84
448.588	17.22
448.79	17.27
448.991	17.47
449.193	17.45
449.395	16.78
449.597	16.39
449.798	16.28
450	15.97
450.202	15.86
450.403	15.89
450.605	15.81
450.806	15.4
451.008	15.26
451.21	14.97
451.411	14.51
451.613	13.79
451.814	14.06
452.016	13.88
452.217	13.2
452.419	13.26
452.62	12.94
452.821	12.76
453.023	12.62
453.224	12.19
453.426	11.71
453.627	11.16
453.828	11.07
454.03	11.22
454.231	11.27
454.432	11
454.634	10.86
454.835	10.48
455.036	10.37
455.238	10.01
455.439	9.74
455.64	9.46
455.841	9.36
456.042	9.53
456.244	9.04
456.445	8.92
456.646	8.55
456.847	8.62
457.048	8.44
457.249	8.45
457.45	8.26
457.651	7.65
457.852	7.59
458.054	7.2
458.255	7.25
458.456	7.21
458.657	7.11
458.858	6.69
459.058	6.58
459.259	6.75
459.46	6.45
459.661	6.37
459.862	6.41
460.063	6.31
460.264	6.14
460.465	5.91
460.666	6.13
460.866	5.76
461.067	5.5
461.268	5.54
461.469	5.45
461.67	5.33
461.87	5.26
462.071	5.18
462.272	5.23
462.473	5.06
462.673	5.32
462.874	5.08
463.075	5.16
463.275	5.1
463.476	5.14
463.676	5.12
463.877	4.87
464.078	4.89
464.278	5.02
464.479	4.77
464.679	4.71
464.88	4.7
465.08	4.64
465.281	4.46
465.481	4.35
465.682	4.16
465.882	4.15
466.083	4.15
466.283	4.04
466.483	3.9
466.684	3.75
466.884	3.59
467.085	3.66
467.285	3.76
467.485	3.61
467.686	3.56
467.886	3.33
468.086	3.36
468.286	3.34
468.487	3.41
468.687	3.19
468.887	3.26
469.087	3.37
469.287	3.32
469.488	3.02
469.688	3.22
469.888	3.12
470.088	3.13
470.288	3.04
470.488	3.01
470.688	2.9
470.888	2.85
471.088	2.69
471.288	2.83
471.488	2.8
471.688	2.73
471.888	2.68
472.088	2.8
472.288	2.73
472.488	2.59
472.688	2.54
472.888	2.63
473.088	2.6
473.288	2.43
473.488	2.42
473.688	2.59
473.887	2.49
474.087	2.42
474.287	2.43
474.487	2.37
474.687	2.42
474.886	2.33
475.086	2.3
475.286	2.29
475.486	2.28
475.685	2.24
475.885	2.22
476.085	2.31
476.284	2.27
476.484	2.25
476.684	2.2
476.883	2.34
477.083	2.17
477.282	2.04
477.482	2.17
477.681	2.14
477.881	2.1
478.08	2.1
478.28	2.04
478.479	2.13
478.679	2.17
478.878	2.05
479.078	2
479.277	2.11
479.477	2.04
479.676	2
479.875	2
480.075	1.97
480.274	2.03
480.473	2.04
480.673	2
480.872	2.08
481.071	2
481.271	2.05
481.47	2
481.669	2.01
481.868	2
482.067	1.97
482.267	1.93
482.466	1.99
482.665	1.95
482.864	1.95
483.063	1.92
483.262	2.03
483.461	2.06
483.661	2.08
483.86	1.98
484.059	2.1
484.258	2.04
484.457	2
484.656	2
484.855	2.06
485.054	1.93
485.253	2.02
485.452	1.97
485.651	2.02
485.849	2.02
486.048	2.01
486.247	2.05
486.446	2.09
486.645	2
486.844	2.07
487.043	2.03
487.241	2.07
487.44	2.06
487.639	2.14
487.838	2.14
488.037	2.1
488.235	2.19
488.434	2.15
488.633	2.05
488.831	2.21
489.03	2.24
489.229	2.23
489.427	2.23
489.626	2.3
489.825	2.28
490.023	2.33
490.222	2.27
490.42	2.34
490.619	2.35
490.817	2.37
491.016	2.36
491.214	2.38
491.413	2.41
491.611	2.36
491.81	2.4
492.008	2.45
492.207	2.56
492.405	2.54
492.604	2.46
492.802	2.56
493	2.56
493.199	2.62
493.397	2.6
493.595	2.7
493.794	2.65
493.992	2.76
494.19	2.74
494.388	2.79
494.587	2.77
494.785	2.77
494.983	2.74
495.181	2.86
495.379	2.89
495.578	2.94
495.776	2.95
495.974	2.92
496.172	3
496.37	3.06
496.568	3.15
496.766	3.07
496.964	3.19
497.162	3.21
497.36	3.21
497.558	3.23
497.756	3.31
497.954	3.3
498.152	3.37
498.35	3.44
498.548	3.39
498.746	3.43
498.944	3.4
499.142	3.44
499.34	3.5
499.538	3.67
499.736	3.52
499.933	3.64
500.131	3.64
500.329	3.82
500.527	3.78
500.725	3.89
500.922	3.87
501.12	3.9
501.318	3.94
501.516	3.97
501.713	4.03
501.911	3.98
502.109	3.97
502.306	4.09
502.504	4.04
502.701	4.14
502.899	4.19
503.097	4.38
503.294	4.26
503.492	4.35
503.689	4.37
503.887	4.38
504.084	4.46
504.282	4.41
504.479	4.4
504.677	4.57
504.874	4.59
505.072	4.42
505.269	4.66
505.466	4.67
505.664	4.72
505.861	4.66
506.059	4.75
506.256	4.82
506.453	4.83
506.651	4.98
506.848	5.01
507.045	5
507.242	4.98
507.44	5.06
507.637	5.1
507.834	5.02
508.031	5.24
508.229	5.13
508.426	5.13
508.623	5.26
508.82	5.3
509.017	5.3
509.214	5.31
509.411	5.46
509.608	5.37
509.805	5.51
510.003	5.46
510.2	5.55
510.397	5.65
510.594	5.56
510.791	5.6
510.988	5.61
511.184	5.69
511.381	5.54
511.578	5.68
511.775	5.83
511.972	5.73
512.169	5.82
512.366	5.84
512.563	5.96
512.76	6.03
512.956	6.02
513.153	5.95
513.35	5.87
513.547	5.95
513.744	6.04
513.94	6.03
514.137	6.16
514.334	6.13
514.53	6.18
514.727	6.37
514.924	6.3
515.12	6.27
515.317	6.28
515.514	6.24
515.71	6.16
515.907	6.4
516.103	6.45
516.3	6.35
516.497	6.54
516.693	6.51
516.89	6.52
517.086	6.53
517.283	6.56
517.479	6.41
517.676	6.62
517.872	6.67
518.068	6.63
518.265	6.61
518.461	6.62
518.658	6.72
518.854	6.75
519.05	6.76
519.247	6.82
519.443	6.85
519.639	6.92
519.836	6.82
520.032	6.74
520.228	6.95
520.424	6.86
520.621	6.96
520.817	7
521.013	6.87
521.209	7.11
521.405	7.12
521.601	7.05
521.798	6.94
521.994	7.09
522.19	6.98
522.386	7.08
522.582	7.13
522.778	7.21
522.974	7.09
523.17	7.16
523.366	7.17
523.562	7.21
523.758	7.23
523.954	7.05
524.15	7.23
524.346	7.25
524.542	7.3
524.738	7.24
524.934	7.34
525.129	7.28
525.325	7.24
525.521	7.21
525.717	7.53
525.913	7.31
526.109	7.34
526.304	7.49
526.5	7.48
526.696	7.47
526.892	7.41
527.087	7.62
527.283	7.55
527.479	7.5
527.674	7.3
527.87	7.58
528.066	7.47
528.261	7.53
528.457	7.47
528.653	7.64
528.848	7.62
529.044	7.69
529.239	7.58
529.435	7.57
529.63	7.51
529.826	7.55
530.021	7.57
530.217	7.64
530.412	7.57
530.608	7.63
530.803	7.58
530.999	7.53
531.194	7.65
531.389	7.72
531.585	7.68
531.78	7.83
531.975	7.75
532.171	7.79
532.366	7.71
532.561	7.72
532.757	7.75
532.952	7.94
533.147	7.66
533.342	7.78
533.538	7.69
533.733	7.93
533.928	7.62
534.123	7.79
534.318	7.83
534.513	7.77
534.709	7.89
534.904	7.89
535.099	7.93
535.294	7.9
535.489	7.89
535.684	7.82
535.879	7.86
536.074	7.9
536.269	7.92
536.464	7.97
536.659	7.9
536.854	7.94
537.049	7.96
537.244	7.91
537.439	7.95
537.634	7.91
537.828	7.98
538.023	7.97
538.218	7.96
538.413	7.81
538.608	7.93
538.803	7.98
538.997	7.96
539.192	8
539.387	7.96
539.582	7.91
539.776	7.92
539.971	8.03
540.166	8.08
540.36	7.93
540.555	8.09
540.75	8
540.944	8.01
541.139	7.98
541.334	8.03
541.528	8.03
541.723	8.04
541.917	8.08
542.112	7.98
542.306	7.86
542.501	7.96
542.695	7.99
542.89	7.93
543.084	8.01
543.279	8.07
543.473	8.02
543.668	8.13
543.862	7.96
544.056	7.92
544.251	8.06
544.445	8.12
544.64	8.12
544.834	7.84
545.028	7.72
545.222	8.08
545.417	8.23
545.611	8.15
545.805	8.02
546	7.9
546.194	8.08
546.388	8.14
546.582	8.01
546.776	8.01
546.97	8.01
547.165	8.07
547.359	8.02
547.553	8.02
547.747	8.05
547.941	8.29
548.135	8.02
548.329	8.1
548.523	8.12
548.717	8.02
548.911	8.03
549.105	8.01
549.299	8.14
549.493	8.11
549.687	7.96
549.881	8.16
550.075	8.08
550.269	7.97
550.463	8.11
550.657	8.1
550.85	8.05
551.044	8
551.238	8.13
551.432	8.13
551.626	8.17
551.82	8.15
552.013	8
552.207	8.18
552.401	8.2
552.594	8.11
552.788	8.08
552.982	8.07
553.176	8.01
553.369	8.3
553.563	8.16
553.756	8.06
553.95	8.19
554.144	8.14
554.337	8.16
554.531	7.99
554.724	8.17
554.918	8.18
555.111	8.13
555.305	8.11
555.498	8.04
555.692	8.24
555.885	8.15
556.079	8.11
556.272	8.15
556.466	8.05
556.659	8.11
556.852	8.23
557.046	8.07
557.239	8.03
557.432	8.05
557.626	8.23
557.819	8.23
558.012	8.18
558.206	8.25
558.399	8.17
558.592	8.11
558.785	8.07
558.979	8.07
559.172	8.16
559.365	8.08
559.558	8.02
559.751	8.06
559.944	8.15
560.138	8.06
560.331	8.16
560.524	8.16
560.717	8.09
560.91	8.07
561.103	8.14
561.296	8.05
561.489	8.13
561.682	8.19
561.875	8.17
562.068	8.19
562.261	8.03
562.454	8.22
562.647	8.06
562.84	8.18
563.032	8.17
563.225	8.12
563.418	8.06
563.611	8.19
563.804	8.16
563.997	7.94
564.19	7.9
564.382	8.22
564.575	8.12
564.768	8.07
564.961	8.19
565.153	8.02
565.346	8.04
565.539	8.22
565.731	8.1
565.924	8.17
566.117	8.22
566.309	8.15
566.502	8.05
566.695	8.02
566.887	8.19
567.08	8.09
567.272	8.19
567.465	8.01
567.657	8.18
567.85	8
568.042	8.11
568.235	8.19
568.427	7.95
568.62	8.1
568.812	8.03
569.005	8.15
569.197	8.03
569.389	8.15
569.582	8.06
569.774	8.06
569.966	7.96
570.159	7.96
570.351	7.92
570.543	8.03
570.736	8.04
570.928	7.89
571.12	8.06
571.312	7.96
571.505	7.79
571.697	8.03
571.889	8.04
572.081	8.03
572.273	7.93
572.465	8.03
572.658	8.08
572.85	8
573.042	8.03
573.234	7.92
573.426	7.98
573.618	7.98
573.81	8.03
574.002	7.98
574.194	8.02
574.386	7.92
574.578	7.82
574.77	7.96
574.962	7.96
575.154	7.91
575.346	7.84
575.538	7.9
575.729	7.88
575.921	7.91
576.113	8.02
576.305	7.86
576.497	8.01
576.689	7.8
576.88	7.79
577.072	7.95
577.264	7.95
577.456	7.89
577.647	7.81
577.839	7.99
578.031	7.86
578.223	7.82
578.414	7.74
578.606	7.91
578.798	7.91
578.989	7.88
579.181	7.97
579.372	7.91
579.564	7.89
579.755	7.72
579.947	7.77
580.139	7.87
580.33	7.66
580.522	7.76
580.713	7.73
580.905	7.77
581.096	7.84
581.287	7.74
581.479	7.73
581.67	7.82
581.862	7.63
582.053	7.7
582.244	7.6
582.436	7.82
582.627	7.72
582.818	7.66
583.01	7.68
583.201	7.7
583.392	7.67
583.583	7.64
583.775	7.5
583.966	7.59
584.157	7.72
584.348	7.73
584.54	7.52
584.731	7.6
584.922	7.55
585.113	7.43
585.304	7.57
585.495	7.57
585.686	7.72
585.877	7.6
586.068	7.68
586.259	7.61
586.45	7.58
586.641	7.52
586.832	7.58
587.023	7.53
587.214	7.42
587.405	7.56
587.596	7.42
587.787	7.39
587.978	7.44
588.169	7.42
588.36	7.4
588.551	7.43
588.742	7.43
588.932	7.45
589.123	7.25
589.314	7.49
589.505	7.34
589.696	7.4
589.886	7.37
590.077	7.3
590.268	7.3
590.458	7.23
590.649	7.14
590.84	7.28
591.03	7.22
591.221	7.31
591.412	7.14
591.602	7.36
591.793	7.26
591.984	7.26
592.174	7.25
592.365	7.42
592.555	7.1
592.746	7.14
592.936	7.17
593.127	7.23
593.317	7.2
593.508	7.25
593.698	7.07
593.889	7.14
594.079	7.11
594.269	7.02
594.46	7.05
594.65	7.11
594.84	7.11
595.031	6.93
595.221	6.95
595.411	7.03
595.602	7.02
595.792	6.93
595.982	6.9
596.172	7.09
596.363	6.88
596.553	6.94
596.743	6.94
596.933	6.89
597.123	6.87
597.314	6.72
597.504	6.76
597.694	7
597.884	6.87
598.074	6.9
598.264	6.79
598.454	6.84
598.644	6.78
598.834	6.74
599.024	6.74
599.214	6.68
599.404	6.79
599.594	6.71
599.784	6.68
599.974	6.76
600.164	6.72
600.354	6.65
600.544	6.55
600.734	6.74
600.924	6.66
601.114	6.56
601.303	6.57
601.493	6.57
601.683	6.64
601.873	6.58
602.063	6.49
602.252	6.54
602.442	6.47
602.632	6.44
602.821	6.46
603.011	6.51
603.201	6.45
603.39	6.4
603.58	6.31
603.77	6.43
603.959	6.51
604.149	6.36
604.339	6.43
604.528	6.48
604.718	6.4
604.907	6.33
605.097	6.21
605.286	6.2
605.476	6.23
605.665	6.32
605.855	6.22
606.044	6.26
606.234	6.26
606.423	6.2
606.612	6.18
606.802	6.18
606.991	6.27
607.181	6.2
607.37	6.16
607.559	5.9
607.749	6.09
607.938	6.02
608.127	6.03
608.316	6.11
608.506	5.96
608.695	6.09
608.884	6.01
609.073	6.03
609.263	6.03
609.452	6.04
609.641	5.85
609.83	5.83
610.019	5.92
610.208	5.84
610.397	5.86
610.586	5.87
610.775	5.84
610.965	5.85
611.154	5.72
611.343	5.76
611.532	5.69
611.721	5.79
611.91	5.72
612.099	5.68
612.287	5.66
612.476	5.55
612.665	5.75
612.854	5.64
613.043	5.65
613.232	5.65
613.421	5.57
613.61	5.61
613.798	5.57
613.987	5.65
614.176	5.58
614.365	5.59
614.554	5.58
614.742	5.59
614.931	5.37
615.12	5.53
615.309	5.47
615.497	5.35
615.686	5.32
615.875	5.39
616.063	5.37
616.252	5.34
616.44	5.4
616.629	5.33
616.818	5.32
617.006	5.25
617.195	5.21
617.383	5.26
617.572	5.18
617.76	5.19
617.949	5.15
618.137	5.22
618.326	5.2
618.514	5.02
618.703	5.02
618.891	5.11
619.079	5.12
619.268	5.14
619.456	5.04
619.644	5.11
619.833	5.01
620.021	4.99
620.209	4.9
620.398	5.01
620.586	4.9
620.774	4.93
620.962	4.97
621.151	5.07
621.339	4.96
621.527	4.85
621.715	4.88
621.903	4.88
622.092	4.75
622.28	4.94
622.468	4.66
622.656	4.78
622.844	4.77
623.032	4.86
623.22	4.62
623.408	4.85
623.596	4.73
623.784	4.78
623.972	4.65
624.16	4.64
624.348	4.72
624.536	4.76
624.724	4.56
624.912	4.62
625.1	4.63
625.288	4.65
625.476	4.52
625.664	4.61
625.851	4.5
626.039	4.55
626.227	4.49
626.415	4.51
626.603	4.42
626.79	4.48
626.978	4.46
627.166	4.49
627.354	4.38
627.541	4.38
627.729	4.28
627.917	4.48
628.104	4.46
628.292	4.28
628.48	4.3
628.667	4.27
628.855	4.42
629.042	4.37
629.23	4.28
629.418	4.23
629.605	4.3
629.793	4.19
629.98	4.23
630.168	4.2
630.355	4.14
630.543	4.13
630.73	4.08
630.917	4.09
631.105	4.2
631.292	4.14
631.48	4.03
631.667	4.2
631.854	4.06
632.042	4.07
632.229	4.04
632.416	4.03
632.604	3.96
632.791	3.9
632.978	3.98
633.165	3.97
633.353	4
633.54	3.97
633.727	3.82
633.914	3.86
634.101	3.79
634.289	3.97
634.476	3.82
634.663	3.85
634.85	3.82
635.037	3.77
635.224	3.66
635.411	3.79
635.598	3.75
635.785	3.7
635.972	3.71
636.159	3.73
636.346	3.63
636.533	3.68
636.72	3.67
636.907	3.63
637.094	3.65
637.281	3.52
637.468	3.59
637.655	3.59
637.842	3.58
638.029	3.52
638.215	3.57
638.402	3.55
638.589	3.51
638.776	3.43
638.963	3.45
639.149	3.48
639.336	3.51
639.523	3.46
639.709	3.46
639.896	3.43
640.083	3.42
640.27	3.41
640.456	3.33
640.643	3.31
640.829	3.28
641.016	3.34
641.203	3.23
641.389	3.34
641.576	3.31
641.762	3.21
641.949	3.24
642.135	3.26
642.322	3.17
642.508	3.15
642.695	3.2
642.881	3.09
643.068	3.16
643.254	3.17
643.441	3.17
643.627	3.16
643.813	3.07
644	3.11
644.186	3.04
644.372	3.08
644.559	3.11
644.745	3
644.931	3.01
645.118	3.02
645.304	3.02
645.49	2.93
645.676	2.97
645.862	3
646.049	3.02
646.235	2.98
646.421	3.07
646.607	2.97
646.793	2.91
646.979	2.87
647.165	2.9
647.352	2.91
647.538	2.9
647.724	2.87
647.91	2.77
648.096	2.86
648.282	2.87
648.468	2.82
648.654	2.81
648.84	2.77
649.026	2.8
649.212	2.75
649.397	2.71
649.583	2.74
649.769	2.78
649.955	2.72
650.141	2.75
650.327	2.72
650.513	2.72
650.698	2.66
650.884	2.57
651.07	2.66
651.256	2.56
651.442	2.58
651.627	2.5
651.813	2.62
651.999	2.55
652.184	2.58
652.37	2.55
652.556	2.53
652.741	2.58
652.927	2.42
653.113	2.51
653.298	2.51
653.484	2.54
653.669	2.42
653.855	2.43
654.04	2.54
654.226	2.49
654.412	2.42
654.597	2.34
654.782	2.45
654.968	2.43
655.153	2.43
655.339	2.37
655.524	2.33
655.71	2.42
655.895	2.29
656.08	2.36
656.266	2.4
656.451	2.35
656.636	2.3
656.822	2.32
657.007	2.33
657.192	2.25
657.378	2.24
657.563	2.27
657.748	2.27
657.933	2.24
658.118	2.2
658.304	2.18
658.489	2.28
658.674	2.23
658.859	2.17
659.044	2.22
659.229	2.2
659.414	2.17
659.599	2.14
659.785	2.06
659.97	2.14
660.155	2.14
660.34	2.16
660.525	2.11
660.71	2.01
660.895	2.08
661.08	2.08
661.264	2
661.449	2.1
661.634	2.1
661.819	2.07
662.004	2
662.189	1.97
662.374	2
662.559	1.92
662.743	1.97
662.928	1.97
663.113	1.95
663.298	1.93
663.483	1.88
663.667	1.98
663.852	1.93
664.037	1.93
664.221	1.93
664.406	1.99
664.591	1.94
664.775	1.9
664.96	1.94
665.145	1.88
665.329	1.92
665.514	1.88
665.698	1.81
665.883	1.77
666.068	1.93
666.252	1.84
666.437	1.8
666.621	1.81
666.806	1.81
666.99	1.79
667.174	1.76
667.359	1.91
667.543	1.74
667.728	1.75
667.912	1.66
668.096	1.76
668.281	1.72
668.465	1.73
668.649	1.73
668.834	1.64
669.018	1.72
669.202	1.69
669.387	1.7
669.571	1.72
669.755	1.67
669.939	1.67
670.124	1.66
670.308	1.69
670.492	1.71
670.676	1.57
670.86	1.63
671.044	1.58
671.228	1.69
671.413	1.53
671.597	1.52
671.781	1.59
671.965	1.59
672.149	1.56
672.333	1.58
672.517	1.53
672.701	1.65
672.885	1.54
673.069	1.48
673.253	1.57
673.437	1.54
673.621	1.45
673.804	1.56
673.988	1.49
674.172	1.5
674.356	1.42
674.54	1.51
674.724	1.58
674.908	1.5
675.091	1.51
675.275	1.51
675.459	1.56
675.643	1.46
675.826	1.49
676.01	1.43
676.194	1.45
676.377	1.51
676.561	1.51
676.745	1.49
676.928	1.41
677.112	1.45
677.296	1.42
677.479	1.39
677.663	1.34
677.846	1.41
678.03	1.42
678.213	1.3
678.397	1.4
678.58	1.3
678.764	1.37
678.947	1.28
679.131	1.31
679.314	1.46
679.498	1.33
679.681	1.39
679.865	1.45
680.048	1.3
680.231	1.34
680.415	1.28
680.598	1.3
680.781	1.27
680.965	1.28
681.148	1.34
681.331	1.21
681.514	1.33
681.698	1.2
681.881	1.31
682.064	1.31
682.247	1.33
682.43	1.14
682.614	1.25
682.797	1.27
682.98	1.28
683.163	1.17
683.346	1.25
683.529	1.16
683.712	1.22
683.895	1.28
684.078	1.07
684.261	1.14
684.444	1.28
684.627	1.22
684.81	1.11
684.993	1.19
685.176	1.14
685.359	1.15
685.542	1.05
685.725	1.26
685.908	1.16
686.091	1.13
686.274	1.22
686.457	1.13
686.639	1.09
686.822	1.14
687.005	1.1
687.188	1.17
687.371	1.24
687.553	1.19
687.736	1.15
687.919	1.24
688.102	1.16
688.284	1.1
688.467	1.15
688.65	1.03
688.832	1.04
689.015	1.03
689.197	0.97
689.38	1.19
689.563	1.19
689.745	0.96
689.928	1.03
690.11	0.98
690.293	1.07
690.475	0.92
690.658	1.03
690.84	0.99
691.023	1.01
691.205	1.01
691.388	1
691.57	1.08
691.752	1.11
691.935	0.82
692.117	0.98
692.3	1.02
692.482	0.94
692.664	0.92
692.847	0.93
693.029	1.05
693.211	1.04
693.393	0.91
693.576	0.89
693.758	0.9
693.94	1
694.122	0.93
694.304	0.89
694.487	0.88
694.669	1.01
694.851	0.87
695.033	0.92
695.215	0.88
695.397	0.83
695.579	0.95
695.761	0.91
695.943	0.85
696.125	1
696.308	0.94
696.49	0.77
696.671	1
696.853	0.92
697.035	1.12
697.217	0.85
697.399	0.98
697.581	0.84
697.763	0.94
697.945	0.81
698.127	0.91
698.309	0.93
698.491	0.86
698.672	0.92
698.854	0.93
699.036	0.97
699.218	0.81
699.399	0.92
699.581	0.86
699.763	0.86
699.945	0.75
700.126	0.76
700.308	0.81
700.49	0.83
700.671	0.73
700.853	0.75
701.035	0.77
701.216	0.81
701.398	0.74
701.579	0.77
701.761	0.86
701.943	0.8
702.124	0.73
702.306	0.75
702.487	0.9
702.669	0.82
702.85	0.74
703.031	0.69
703.213	0.89
703.394	0.87
703.576	0.77
703.757	0.88
703.938	0.85
704.12	0.94
704.301	0.78
704.483	0.66
704.664	0.78
704.845	0.83
705.026	0.79
705.208	0.75
705.389	0.79
705.57	0.75
705.751	0.73
705.933	0.76
706.114	0.78
706.295	0.69
706.476	0.61
706.657	0.79
706.838	0.78
707.02	0.79
707.201	0.67
707.382	0.72
707.563	0.76
707.744	0.71
707.925	0.61
708.106	0.7
708.287	0.71
708.468	0.82
708.649	0.76
708.83	0.74
709.011	0.71
709.192	0.76
709.373	0.55
709.554	0.71
709.734	0.72
709.915	0.66
710.096	0.69
710.277	0.53
710.458	0.66
710.639	0.78
710.819	0.61
711	0.62
711.181	0.7
711.362	0.74
711.542	0.7
711.723	0.65
711.904	0.71
712.085	0.65
712.265	0.67
712.446	0.52
712.627	0.63
712.807	0.63
712.988	0.68
713.168	0.54
713.349	0.79
713.53	0.51
713.71	0.59
713.891	0.54
714.071	0.58
714.252	0.56
714.432	0.58
714.613	0.49
714.793	0.59
714.974	0.7
715.154	0.69
715.334	0.7
715.515	0.74
715.695	0.55
715.876	0.6
716.056	0.6
716.236	0.52
716.417	0.56
716.597	0.58
716.777	0.85
716.957	0.62
717.138	0.62
717.318	0.57
717.498	0.52
717.678	0.56
717.859	0.57
718.039	0.5
718.219	0.55
718.399	0.54
718.579	0.52
718.759	0.43
718.939	0.62
719.12	0.59
719.3	0.56
719.48	0.36
719.66	0.43
719.84	0.68
720.02	0.59
720.2	0.43
720.38	0.56
720.56	0.72
720.74	0.45
720.92	0.53
721.1	0.68
721.279	0.65
721.459	0.56
721.639	0.44
721.819	0.55
721.999	0.6
722.179	0.67
722.359	0.48
722.538	0.51
722.718	0.51
722.898	0.53
723.078	0.51
723.257	0.47
723.437	0.57
723.617	0.59
723.797	0.43
723.976	0.51
724.156	0.53
724.336	0.66
724.515	0.73
724.695	0.4
724.874	0.5
725.054	0.64
725.234	0.4
725.413	0.5
725.593	0.48
725.772	0.51
725.952	0.49
726.131	0.51
726.311	0.48
726.49	0.51
726.67	0.39
726.849	0.5
727.028	0.58
727.208	0.51
727.387	0.52
727.567	0.4
727.746	0.52
727.925	0.53
728.105	0.43
728.284	0.39
728.463	0.4
728.643	0.55
728.822	0.39
729.001	0.39
729.18	0.54
729.359	0.62
729.539	0.45
729.718	0.43
729.897	0.63
730.076	0.51
730.255	0.39
730.434	0.44
730.614	0.54
730.793	0.61
730.972	0.45
731.151	0.44
731.33	0.57
731.509	0.61
731.688	0.46
731.867	0.56
732.046	0.37
732.225	0.76
732.404	0.36
732.583	0.34
732.762	0.52
732.941	0.54
733.12	0.52
733.298	0.41
733.477	0.62
733.656	0.47
733.835	0.36
734.014	0.48
734.193	0.45
734.371	0.54
734.55	0.52
734.729	0.39
734.908	0.53
735.086	0.5
735.265	0.64
735.444	0.27
735.623	0.48
735.801	0.44
735.98	0.53
736.159	0.43
736.337	0.6
736.516	0.5
736.694	0.4
736.873	0.49
737.052	0.75
737.23	0.72
737.409	0.47
737.587	0.65
737.766	0.35
737.944	0.53
738.123	0.58
738.301	0.5
738.479	0.52
738.658	0.5
738.836	0.36
739.015	0.41
739.193	0.53
739.371	0.33
739.55	0.54
739.728	0.36
739.906	0.63
740.085	0.66
740.263	0.57
740.441	0.19
740.62	0.75
740.798	0.66
740.976	0.34
741.154	0.35
741.332	0.59
741.511	0.41
741.689	0.52
741.867	0.52
742.045	0.58
742.223	0.45
742.401	0.35
742.579	0.48
742.757	0.53
742.935	0.32
743.114	0.45
743.292	0.39
743.47	0.51
743.648	0.48
743.826	0.34
744.004	0.6
744.181	0.61
744.359	0.49
744.537	0.47
744.715	0.42
744.893	0.52
745.071	0.48
745.249	0.47
745.427	0.43
745.605	0.55
745.782	0.4
745.96	0.49
746.138	0.58
746.316	0.57
746.493	0.43
746.671	0.44
746.849	0.3
747.027	0.62
747.204	0.39
747.382	0.47
747.56	0.31
747.737	0.41
747.915	0.38
748.093	0.47
748.27	0.39
748.448	0.53
748.625	0.33
748.803	0.21
748.98	0.29
749.158	0.45
749.335	0.51
749.513	0.41
749.69	0.36
749.868	0.35
750.045	0.39
750.223	0.41
750.4	0.3
750.578	0.63
750.755	0.42
750.932	0.31
751.11	0.45
751.287	0.23
751.464	0.51
751.642	0.28
751.819	0.38
751.996	0.44
752.173	0.34
752.351	0.25
752.528	0.35
752.705	0.39
752.882	0.4
753.06	0.35
753.237	0.39
753.414	0.55
753.591	0.69
753.768	0.38
753.945	0.33
754.122	0.32
754.299	0.48
754.476	0.37
754.654	0.44
754.831	0.51
755.008	0.41
755.185	0.3
755.362	0.3
755.539	0.52
755.716	0.29
755.892	0.41
756.069	0.4
756.246	0.37
756.423	0.42
756.6	0.56
756.777	0.29
756.954	0.42
757.131	0.38
757.307	0.23
757.484	0.22
757.661	0.41
757.838	0.38
758.015	0.21
758.191	0.41
758.368	0.51
758.545	0.53
758.721	0.45
758.898	0.25
759.075	0.41
759.251	0.55
759.428	0.31
759.605	0.14
759.781	0.28
759.958	0.48
760.134	0.38
760.311	0.16
760.488	0.58
760.664	0.63
760.841	0.34
761.017	0.19
761.194	0.51
761.37	0.58
761.547	0.36
761.723	0.32
761.899	0.6
762.076	0.28
762.252	0.37
762.429	0.31
762.605	0.44
762.781	0.33
762.958	0.43
763.134	0.25
763.31	0.34
763.486	0.51
763.663	0.18
763.839	0.35
764.015	0.21
764.191	0.35
764.368	0.39
764.544	0.31
764.72	0.44
764.896	0.53
765.072	0.4
765.248	0.35
765.425	0.36
765.601	0.45
765.777	0.31
765.953	0.03
766.129	0.34
766.305	0.36
766.481	0.52
766.657	0.45
766.833	0.65
767.009	0.21
767.185	0.29
767.361	0.25
767.537	0.19
767.713	0.63
767.889	0.41
768.065	0.34
768.24	0.2
768.416	0.49
768.592	0.32
768.768	0.36
768.944	0.53
769.12	0.2
769.295	0.4
769.471	0.38
769.647	0.39
769.823	0.5
769.998	0.26
770.174	0.34
770.35	0.65
770.525	0.66
770.701	0.38
770.877	0.39
771.052	0.29
771.228	0.57
771.403	0.49
771.579	0.25
771.755	0.69
771.93	0.34
772.106	0.2
772.281	0.08
772.457	0.34
772.632	0.43
772.808	0.23
772.983	0.33
773.159	0.15
773.334	0.57
773.509	0.37
773.685	0.2
773.86	0.75
774.036	0.64
774.211	0.47
774.386	0.18
774.562	0.41
774.737	0.67
774.912	0.41
775.087	0.47
775.263	0.39
775.438	0.45
775.613	0.34
775.788	0.4
775.964	0.39
776.139	0.99
776.314	0.14
776.489	0.45
776.664	0.53
776.839	0.25
777.014	0.53
777.19	0.36
777.365	0.57
777.54	0.73
777.715	0.08
777.89	0.36
778.065	0.19
778.24	0.47
778.415	0.39
778.59	0.27
778.765	0.34
778.94	0.41
779.115	0.35
779.289	0.36
779.464	0.47
779.639	0.4
779.814	0.19
779.989	0.31
780.164	0.48
780.339	0.4
780.513	0.38
780.688	0.19
780.863	0.38
781.038	0.62
781.212	0.08
781.387	0.31
781.562	0.79
781.737	0.21
781.911	0.6
782.086	0.26
782.261	0.29
782.435	0.6
782.61	0.08
782.784	0.42
782.959	0.63
783.134	0.25
783.308	0.14
783.483	0.16
783.657	0.92
783.832	0.74
784.006	0.15
784.181	0.55
784.355	0.48
784.53	0.34
784.704	0.29
784.878	0.53
785.053	0.54
785.227	0.42
785.402	0.82
785.576	0.14
785.75	0.53
785.925	0.58
786.099	0.47
786.273	0.52
786.448	0.65
786.622	0.69
786.796	0.43
786.97	0.24
787.145	1.04
787.319	0.19
787.493	0.46
787.667	-0.1
787.841	0.28
788.015	0.78
788.19	0.2
788.364	0.39
788.538	0.66
788.712	0.65
788.886	0.32
789.06	0.44
789.234	0.81
789.408	0.32
789.582	0.12
789.756	0.37
789.93	0.37
790.104	0.45
790.278	0.28
790.452	0.39
790.626	0.44
790.8	0.32
790.973	0.7
791.147	0.79
791.321	0.75
791.495	0.75
791.669	0.49
791.843	0.56
792.016	0.54
792.19	1.09
792.364	0.26
792.538	1.2
792.711	0.7
792.885	0.27
793.059	0.09
793.233	-0.2
793.406	0.75
793.58	0.63
793.754	0.64
793.927	0.49
794.101	0.67
794.274	0.49
794.448	0.51
794.622	0.14
794.795	1.07
794.969	0.29
795.142	0.82
795.316	0.34
795.489	0.4
795.663	0.82
795.836	0.26
796.009	0.03
796.183	0.75
796.356	0.7
796.53	0.63
796.703	0.34
796.876	1.23
797.05	0.37
797.223	0.38
797.396	0.42
797.57	0.3
797.743	0.88
797.916	0.73
798.09	0.69
798.263	0.97
798.436	0.54
798.609	0.33
798.782	0.5
798.956	0.74
799.129	0.5
799.302	0.23
799.475	0.26
799.648	0.2
799.821	0.1
799.994	0.53
800.167	0.14
800.34	0.53
800.514	0.54
800.687	0.32
800.86	0.39
801.033	0.74
801.206	0.58
801.379	0.37
801.551	0.86
801.724	0.57
801.897	0.92
802.07	0.37
802.243	0.02
802.416	0.61
802.589	0.24
802.762	0.74
802.935	0.45
803.107	0.56
803.28	0.99
803.453	0.6
803.626	0.34
803.798	0.52
803.971	0.16
804.144	0.67
804.317	0.58
804.489	1.05
804.662	0.89
804.835	0.7
805.007	0.16
805.18	0.93
805.353	0.51
805.525	0.12
805.698	0.3
805.87	0.9
806.043	1.01
806.215	0.24
806.388	0.55
806.56	0.7
806.733	0.94
806.905	0.55
807.078	0.53
807.25	0.23
807.423	0.56
807.595	0.73
807.768	0.67
807.94	0.59
808.112	0.77
808.285	0.31
808.457	0.49
808.629	0.3
808.802	0.35
808.974	1.04
809.146	0.01
809.318	0.4
809.491	1.11
809.663	0.83
809.835	0.18
810.007	0.86
810.18	0.31
810.352	0.1
810.524	0.49
810.696	0.57
810.868	0.8
811.04	0.33
811.212	0.34
811.384	0.93
811.556	0.95
811.728	0.31
811.901	1.27
812.073	0.1
812.245	1.13
812.417	1.09
812.589	-0.23
812.76	0.76
812.932	1.22
813.104	0.82
813.276	0.68
813.448	1.06
813.62	0.51
813.792	0.52
813.964	0.66
814.136	0.77
814.307	0.54
814.479	0.42
814.651	0.45
814.823	2.19
814.995	0.33
815.166	0.76
815.338	0.59
815.51	0.05
815.681	1.7
815.853	1.11
816.025	0.71
816.196	1.55
816.368	1.2
816.54	0.04
816.711	0.41
816.883	1.11
817.054	1.91
817.226	0.28
817.398	0.88
817.569	0.73
817.741	1.02
817.912	0.84
818.084	0.71
818.255	1.3
818.426	0.71
818.598	0.53
818.769	0.46
818.941	1.1
819.112	1.35
819.283	0.76
819.455	0
819.626	0.69
819.798	1.33
819.969	0.95
820.14	0.17
820.311	0.71
820.483	0.62
820.654	0.88
820.825	0.44
820.996	0.34
821.168	0.04
821.339	0.69
821.51	-0.26
821.681	0.82
821.852	0.76
822.023	0.24
822.195	0.4
822.366	1.37
822.537	0.82
822.708	1.07
822.879	-0.05
823.05	1.38
823.221	1.02
823.392	0.87
823.563	0.52
823.734	0.59
823.905	0.22
824.076	0.74
824.247	0.38
824.418	0.33
824.589	1.83
824.759	0.8
824.93	1.27
825.101	-0.01
825.272	1.3
825.443	1.52
825.614	1.28
825.784	0.07
825.955	1.98
826.126	1.65
826.297	0.76
826.467	1.58
826.638	2.3
826.809	0.26
826.98	1.35
827.15	1.44
827.321	0.81
827.492	2.01
827.662	0.63
827.833	2.3
828.003	1.32
828.174	-0.09
828.345	0.16
828.515	1.91
828.686	0.63
828.856	0.64
829.027	1.21
829.197	1.19
829.368	1.14
829.538	0.43
829.709	0.65
829.879	1.03
830.049	0.67
830.22	0.53
830.39	0.76
830.56	1.69
830.731	1.25
830.901	-0.08
831.072	0.41
831.242	0.79
831.412	1.4
831.582	0.37
831.753	-0.36
831.923	1.18
832.093	1.29
832.263	0.32
832.434	-0.15
832.604	0.33
832.774	0.77
832.944	0.59
833.114	0.65
833.284	1.5
833.454	0.19
833.624	-0.06
833.795	0.28
833.965	2
834.135	1.94
834.305	-0.4
834.475	0.36
834.645	1.04
834.815	0.1
834.985	0.59
835.155	0.64
835.325	1.51
835.494	1.96
835.664	0.53
835.834	0.3
836.004	0.66
836.174	1
836.344	0.56
836.514	0.13
836.684	1.01
836.853	1.02
837.023	0.77
837.193	0.21
837.363	1.74
837.532	1.63
837.702	0.87
837.872	0.47
838.041	2.03
838.211	2.96
838.381	-0.08
838.55	0.23
838.72	3.09
838.89	2.56
839.059	0.88
839.229	0.43
839.398	3.11
839.568	0.93
839.738	0.52
839.907	1.88
840.077	1.12
840.246	0.6
840.416	0.71
840.585	0.61
840.755	3.05
840.924	2.29
841.093	0.56
841.263	0.56
841.432	1.1
841.602	0.9
841.771	0.22
841.94	0.94
842.11	3.18
842.279	2.64
842.448	-0.01
842.617	0.02
842.787	2.86
842.956	0.3
843.125	1.05
843.294	0.99
843.464	2.61
843.633	1.76
843.802	0.95
843.971	1.12
844.14	2.86
844.309	1.37
844.479	-0.38
844.648	0.12
844.817	0.76
844.986	1.41
845.155	0.56
845.324	0.18
845.493	1.25
845.662	0.82
845.831	1.91
846	1.83
846.169	0.83
846.338	2.34
846.507	1.37
846.676	1.57
846.844	0.24
847.013	3.26
847.182	1.52
847.351	0.75
847.52	1.28
847.689	2.31
847.858	0.17
848.026	0.7
848.195	1.23
848.364	0.94
848.533	-0.28
848.701	0.47
848.87	1.57
849.039	2.41
849.207	2.57
849.376	3.25
849.545	2.96
849.713	1.11
849.882	0.9
850.051	0.44
850.219	1.56
850.388	1.63
850.556	0.4
850.725	1.35
850.893	0.83
851.062	1.19
851.23	1.91
851.399	0.43
851.567	1.89
851.736	1.47
851.904	0.5
852.073	1.1
852.241	2.54
852.41	1.53
852.578	1.68
852.746	0.76
852.915	1.62
853.083	2.25
853.251	-0.52
853.42	0.57
853.588	2.3
853.756	2.75
853.924	0.26
854.093	-0.33
854.261	1.66
854.429	-0.75
854.597	1.17
854.765	0.2
854.934	2.34
855.102	2.3
855.27	2.49
855.438	2.57
855.606	1.5
855.774	3.69
855.942	0.07
856.11	-1.08
856.278	1.73
856.446	2.69
856.614	0.95
856.782	-0.22
856.95	2.61
857.118	2.38
857.286	1.5
857.454	0.89
857.622	2.98
857.79	2.66
857.958	-0.38
858.126	0.87
858.294	-1.15
858.462	-0.04
858.629	0.72
858.797	0.58
858.965	2.63
859.133	1.99
859.301	1.81
859.468	1.84
859.636	0.87
859.804	4.25
859.971	1.64
860.139	1.04
860.307	2.56
860.474	1.62
860.642	-1.07
860.81	0.05
860.977	1.75
861.145	2
861.313	0.67
861.48	1.6
861.648	3.57
861.815	-0.05
861.983	-0.15
862.15	0.59
862.318	2.24
862.485	2.4
862.653	0.07
862.82	1.18
862.988	4.08
863.155	2.99
863.322	-0.15
863.49	0.19
863.657	1.6
863.824	5.43
863.992	1.63
864.159	1.9
864.326	3.43
864.494	0.93
864.661	4.47
864.828	-0.39
864.996	3.87
865.163	5.26
865.33	-0.31
865.497	-1.6
865.664	0.66
865.832	-0.04
865.999	0.21
866.166	-0.34
866.333	-0.61
866.5	1.67
866.667	1.35
866.834	1.74
867.001	3.4
867.168	0.23
867.335	2.14
867.502	-1.12
867.669	1.81
867.836	4.69
868.003	1.08
868.17	2.61
868.337	1.17
868.504	4.94
868.671	-0.04
868.838	1.87
869.005	4.73
869.172	1.72
869.339	3.9
869.505	1.47
869.672	3.48
869.839	4.93
870.006	0.6
870.173	0.71
870.339	4.37
870.506	6.05
870.673	0.37
870.84	3.14
871.006	1.68
871.173	1.66
871.34	2.19
871.506	-0.25
871.673	3.85
871.839	-0.5
872.006	1.54
872.173	0.87
872.339	2.77
872.506	4.84
872.672	1.8
872.839	-0.38
873.005	3.58
873.172	5.59
873.338	4.01
873.505	4.06
873.671	3.86
873.838	3.58
874.004	-1.73
874.171	0.26
874.337	3.32
874.503	3.23
874.67	0.98
874.836	1.43
875.002	5.91
875.169	4.52
875.335	0.96
875.501	3.37
875.668	2.54
875.834	2.48
876	1.48
876.166	2.4
876.332	3
876.499	5.69
876.665	1.36
876.831	1.37
876.997	4.49
877.163	3.07
877.329	1.94
877.495	2.22
877.662	2.86
877.828	3.52
877.994	0.98
878.16	-0.22
878.326	1.48
878.492	2.73
878.658	0.74
878.824	3.03
878.99	3.68
879.156	0.38
879.322	5.12
879.487	2.94
879.653	3.76
879.819	2.87
879.985	-0.61
880.151	2.91
880.317	3.91
880.483	4.34
880.648	3.55
880.814	-1.08
880.98	3.17
881.146	-2.06
881.312	0.92
881.477	2.41
881.643	2.41
881.809	3.51
881.974	3.88
882.14	-1.24
882.306	2.94
882.471	5.37
882.637	2.01
882.803	3.9
882.968	4.66
883.134	7.32
883.299	2.42
883.465	1.42
883.63	3.92
883.796	2.86
883.961	2.92
884.127	2.29
884.292	-2.67
884.458	-0.38
884.623	-0.38
