Data from Apollo_Calib_20240827__AbsoluteIrradiance__765__11-54-03-017.txt Node

Date: Wed Aug 28 11:54:03 BST 2024
User: biology
Spectrometer: FLMT08252
Trigger mode: 0
Integration Time (sec): 5.000000E-1
Scans to average: 5
Electric dark correction enabled: true
Nonlinearity correction enabled: false
Boxcar width: 0
XAxis mode: Wavelengths
Number of Pixels in Spectrum: 3648
>>>>>Begin Spectral Data<<<<<
179.588	-0
179.809	-0
180.03	-0
180.251	-0
180.473	-0
180.694	0
180.915	0
181.136	-0
181.357	0
181.578	0
181.799	-0
182.02	-0
182.241	-0
182.462	-0
182.683	0
182.904	-0
183.125	-0
183.346	0
183.567	0
183.788	0
184.009	0
184.23	0
184.451	0
184.672	0
184.892	0
185.113	0
185.334	0
185.555	0
185.776	0
185.996	0
186.217	0
186.438	0
186.659	0
186.879	0
187.1	0
187.321	0
187.541	0
187.762	0
187.983	0
188.203	0
188.424	0
188.644	0
188.865	0
189.086	0
189.306	0
189.527	0
189.747	0
189.968	0
190.188	0
190.409	0
190.629	0
190.849	0
191.07	0
191.29	0
191.511	0
191.731	0
191.951	0
192.172	0
192.392	0
192.612	0
192.833	0
193.053	0
193.273	0
193.493	0
193.714	0
193.934	0
194.154	0
194.374	0
194.594	0
194.815	0
195.035	0
195.255	0
195.475	0
195.695	0
195.915	0
196.135	0
196.355	0
196.575	0
196.795	0
197.015	0
197.235	0
197.455	0
197.675	0
197.895	0
198.115	0
198.335	0
198.555	0
198.775	0
198.995	0
199.214	0
199.434	0
199.654	0
199.874	0
200.094	3.63
200.313	2.57
200.533	1.81
200.753	1.23
200.973	2.98
201.192	2.83
201.412	1.17
201.632	1.73
201.851	3.35
202.071	1.59
202.291	1.38
202.51	1.11
202.73	2.34
202.95	1.66
203.169	1.31
203.389	2.03
203.608	1.75
203.828	1.49
204.047	2.04
204.267	2.27
204.486	1.86
204.706	2.34
204.925	1.36
205.145	1.64
205.364	2.21
205.583	2.25
205.803	1.22
206.022	1.17
206.242	1.44
206.461	1.21
206.68	1.2
206.9	1.46
207.119	2.19
207.338	2.13
207.557	0.94
207.777	1.07
207.996	1.43
208.215	2.03
208.434	1.11
208.654	0.86
208.873	1.51
209.092	2.01
209.311	1.04
209.53	1.23
209.749	0.88
209.968	1.04
210.187	1.07
210.407	0.56
210.626	1.23
210.845	1.69
211.064	1.24
211.283	0.84
211.502	1.38
211.721	1.31
211.94	1.17
212.159	1.24
212.377	1.2
212.596	1.64
212.815	1.13
213.034	0.88
213.253	1.27
213.472	1.18
213.691	0.82
213.91	0.86
214.128	0.88
214.347	1.59
214.566	0.48
214.785	0.61
215.003	1.12
215.222	1.19
215.441	1.07
215.66	0.33
215.878	0.98
216.097	1.29
216.316	0.58
216.534	0.89
216.753	0.99
216.972	0.82
217.19	0.92
217.409	0.65
217.627	0.76
217.846	0.73
218.064	0.88
218.283	0.6
218.501	1.32
218.72	1.07
218.938	0.41
219.157	0.79
219.375	1
219.594	0.87
219.812	0.52
220.031	0.53
220.249	1.14
220.467	1.13
220.686	0.56
220.904	0.5
221.122	0.54
221.341	1.08
221.559	0.78
221.777	0.54
221.995	0.59
222.214	0.76
222.432	0.66
222.65	0.75
222.868	0.73
223.086	0.88
223.305	0.84
223.523	0.7
223.741	1.11
223.959	0.7
224.177	0.52
224.395	0.5
224.613	0.75
224.831	0.95
225.049	0.46
225.267	0.53
225.485	0.8
225.703	0.71
225.921	0.45
226.139	0.46
226.357	0.74
226.575	0.71
226.793	0.62
227.011	1.36
227.229	0.69
227.447	0.83
227.665	0.62
227.883	0.45
228.1	0.61
228.318	0.74
228.536	0.16
228.754	0.42
228.972	0.65
229.189	0.71
229.407	0.61
229.625	0.43
229.843	0.74
230.06	0.85
230.278	0.54
230.496	0.55
230.713	0.66
230.931	0.79
231.149	0.44
231.366	0.37
231.584	0.66
231.801	0.98
232.019	0.41
232.236	0.37
232.454	0.42
232.671	0.6
232.889	0.58
233.106	0.4
233.324	0.64
233.541	0.47
233.759	0.5
233.976	0.45
234.194	0.59
234.411	0.56
234.628	0.38
234.846	0.43
235.063	0.44
235.28	0.43
235.498	0.45
235.715	0.32
235.932	0.7
236.149	0.49
236.367	0.35
236.584	0.52
236.801	0.48
237.018	0.68
237.236	0.49
237.453	0.28
237.67	0.7
237.887	0.47
238.104	0.38
238.321	0.39
238.538	0.39
238.755	0.59
238.973	0.29
239.19	0.45
239.407	0.58
239.624	0.49
239.841	0.37
240.058	0.31
240.275	0.54
240.492	0.48
240.709	0.38
240.925	0.36
241.142	0.46
241.359	0.44
241.576	0.33
241.793	0.43
242.01	0.32
242.227	0.58
242.444	0.51
242.66	0.57
242.877	0.48
243.094	0.4
243.311	0.48
243.527	0.32
243.744	0.56
243.961	0.49
244.178	0.26
244.394	0.4
244.611	0.55
244.828	0.63
245.044	0.27
245.261	0.39
245.477	0.49
245.694	0.6
245.911	0.38
246.127	0.43
246.344	0.55
246.56	0.52
246.777	0.44
246.993	0.32
247.21	0.47
247.426	0.55
247.643	0.33
247.859	0.34
248.076	0.33
248.292	0.63
248.508	0.28
248.725	0.38
248.941	0.42
249.157	0.53
249.374	0.32
249.59	0.4
249.806	0.45
250.023	0.61
250.239	0.34
250.455	0.27
250.671	0.45
250.888	0.42
251.104	0.42
251.32	0.37
251.536	0.4
251.752	0.33
251.969	0.43
252.185	0.44
252.401	0.55
252.617	0.4
252.833	0.36
253.049	0.34
253.265	0.35
253.481	0.49
253.697	0.31
253.913	0.28
254.129	0.38
254.345	0.42
254.561	0.31
254.777	0.31
254.993	0.45
255.209	0.39
255.425	0.34
255.641	0.31
255.857	0.47
256.073	0.39
256.288	0.24
256.504	0.25
256.72	0.4
256.936	0.51
257.152	0.33
257.367	0.3
257.583	0.37
257.799	0.5
258.015	0.35
258.23	0.31
258.446	0.56
258.662	0.33
258.877	0.28
259.093	0.2
259.309	0.41
259.524	0.41
259.74	0.3
259.955	0.2
260.171	0.38
260.387	0.4
260.602	0.39
260.818	0.41
261.033	0.25
261.249	0.41
261.464	0.34
261.68	0.25
261.895	0.39
262.11	0.43
262.326	0.32
262.541	0.2
262.757	0.44
262.972	0.43
263.187	0.4
263.403	0.36
263.618	0.38
263.833	0.39
264.049	0.23
264.264	0.3
264.479	0.33
264.694	0.46
264.91	0.2
265.125	0.34
265.34	0.43
265.555	0.55
265.77	0.33
265.986	0.3
266.201	0.31
266.416	0.46
266.631	0.26
266.846	0.3
267.061	0.46
267.276	0.38
267.491	0.15
267.706	0.36
267.921	0.36
268.136	0.32
268.351	0.33
268.566	0.21
268.781	0.42
268.996	0.37
269.211	0.31
269.426	0.23
269.641	0.26
269.856	0.44
270.071	0.3
270.285	0.22
270.5	0.34
270.715	0.37
270.93	0.29
271.145	0.32
271.359	0.35
271.574	0.33
271.789	0.3
272.004	0.29
272.218	0.27
272.433	0.4
272.648	0.21
272.862	0.34
273.077	0.35
273.292	0.26
273.506	0.27
273.721	0.24
273.936	0.34
274.15	0.44
274.365	0.29
274.579	0.38
274.794	0.34
275.008	0.44
275.223	0.17
275.437	0.26
275.652	0.4
275.866	0.33
276.081	0.26
276.295	0.35
276.509	0.34
276.724	0.31
276.938	0.27
277.153	0.39
277.367	0.36
277.581	0.27
277.796	0.25
278.01	0.18
278.224	0.4
278.438	0.46
278.653	0.25
278.867	0.25
279.081	0.37
279.295	0.33
279.51	0.35
279.724	0.19
279.938	0.39
280.152	0.39
280.366	0.23
280.58	0.26
280.794	0.38
281.008	0.37
281.222	0.34
281.437	0.44
281.651	0.38
281.865	0.35
282.079	0.25
282.293	0.13
282.507	0.18
282.721	0.28
282.935	0.25
283.148	0.17
283.362	0.23
283.576	0.23
283.79	0.32
284.004	0.3
284.218	0.34
284.432	0.26
284.646	0.3
284.859	0.28
285.073	0.27
285.287	0.29
285.501	0.22
285.714	0.23
285.928	0.32
286.142	0.3
286.356	0.23
286.569	0.24
286.783	0.42
286.997	0.37
287.21	0.31
287.424	0.24
287.637	0.28
287.851	0.29
288.065	0.35
288.278	0.21
288.492	0.31
288.705	0.28
288.919	0.26
289.132	0.18
289.346	0.32
289.559	0.22
289.773	0.18
289.986	0.27
290.2	0.28
290.413	0.34
290.626	0.24
290.84	0.25
291.053	0.31
291.267	0.36
291.48	0.23
291.693	0.23
291.906	0.18
292.12	0.27
292.333	0.25
292.546	0.24
292.76	0.33
292.973	0.29
293.186	0.31
293.399	0.23
293.612	0.25
293.826	0.24
294.039	0.24
294.252	0.21
294.465	0.29
294.678	0.28
294.891	0.24
295.104	0.18
295.317	0.21
295.53	0.24
295.743	0.27
295.956	0.2
296.169	0.27
296.382	0.31
296.595	0.25
296.808	0.23
297.021	0.33
297.234	0.32
297.447	0.22
297.66	0.26
297.873	0.37
298.086	0.31
298.299	0.2
298.511	0.17
298.724	0.31
298.937	0.2
299.15	0.21
299.363	0.24
299.575	0.33
299.788	0.26
300.001	0.21
300.213	0.2
300.426	0.22
300.639	0.22
300.852	0.21
301.064	0.29
301.277	0.31
301.489	0.26
301.702	0.25
301.915	0.26
302.127	0.25
302.34	0.24
302.552	0.24
302.765	0.17
302.977	0.27
303.19	0.19
303.402	0.23
303.615	0.2
303.827	0.26
304.04	0.24
304.252	0.25
304.464	0.22
304.677	0.36
304.889	0.26
305.102	0.21
305.314	0.21
305.526	0.27
305.739	0.3
305.951	0.19
306.163	0.2
306.375	0.3
306.588	0.21
306.8	0.22
307.012	0.18
307.224	0.3
307.436	0.32
307.649	0.14
307.861	0.26
308.073	0.29
308.285	0.24
308.497	0.19
308.709	0.22
308.921	0.26
309.133	0.29
309.346	0.23
309.558	0.27
309.77	0.32
309.982	0.31
310.194	0.26
310.406	0.21
310.617	0.36
310.829	0.26
311.041	0.26
311.253	0.21
311.465	0.22
311.677	0.25
311.889	0.25
312.101	0.19
312.313	0.31
312.524	0.29
312.736	0.17
312.948	0.19
313.16	0.32
313.372	0.28
313.583	0.26
313.795	0.25
314.007	0.25
314.218	0.33
314.43	0.21
314.642	0.19
314.853	0.22
315.065	0.31
315.277	0.27
315.488	0.25
315.7	0.26
315.912	0.25
316.123	0.23
316.335	0.24
316.546	0.37
316.758	0.24
316.969	0.2
317.181	0.24
317.392	0.24
317.604	0.32
317.815	0.19
318.026	0.26
318.238	0.21
318.449	0.26
318.661	0.13
318.872	0.17
319.083	0.19
319.295	0.29
319.506	0.23
319.717	0.22
319.929	0.25
320.14	0.28
320.351	0.24
320.562	0.2
320.774	0.3
320.985	0.23
321.196	0.18
321.407	0.17
321.618	0.29
321.829	0.26
322.041	0.27
322.252	0.26
322.463	0.26
322.674	0.28
322.885	0.2
323.096	0.26
323.307	0.27
323.518	0.22
323.729	0.19
323.94	0.22
324.151	0.2
324.362	0.27
324.573	0.24
324.784	0.21
324.995	0.28
325.206	0.29
325.417	0.22
325.628	0.23
325.838	0.24
326.049	0.25
326.26	0.27
326.471	0.23
326.682	0.23
326.892	0.26
327.103	0.18
327.314	0.19
327.525	0.35
327.735	0.23
327.946	0.22
328.157	0.21
328.368	0.3
328.578	0.23
328.789	0.25
328.999	0.23
329.21	0.21
329.421	0.31
329.631	0.19
329.842	0.17
330.052	0.26
330.263	0.29
330.473	0.25
330.684	0.2
330.894	0.26
331.105	0.26
331.315	0.25
331.526	0.19
331.736	0.37
331.947	0.24
332.157	0.25
332.367	0.18
332.578	0.3
332.788	0.27
332.999	0.28
333.209	0.22
333.419	0.19
333.629	0.29
333.84	0.28
334.05	0.25
334.26	0.34
334.47	0.22
334.681	0.28
334.891	0.22
335.101	0.32
335.311	0.34
335.521	0.27
335.732	0.16
335.942	0.3
336.152	0.24
336.362	0.27
336.572	0.26
336.782	0.28
336.992	0.22
337.202	0.26
337.412	0.25
337.622	0.24
337.832	0.25
338.042	0.25
338.252	0.21
338.462	0.26
338.672	0.26
338.882	0.31
339.092	0.22
339.302	0.28
339.511	0.28
339.721	0.26
339.931	0.18
340.141	0.32
340.351	0.3
340.561	0.22
340.77	0.22
340.98	0.24
341.19	0.23
341.4	0.22
341.609	0.16
341.819	0.22
342.029	0.2
342.238	0.27
342.448	0.26
342.658	0.3
342.867	0.24
343.077	0.24
343.286	0.22
343.496	0.22
343.706	0.36
343.915	0.2
344.125	0.24
344.334	0.26
344.544	0.19
344.753	0.23
344.963	0.23
345.172	0.24
345.381	0.21
345.591	0.17
345.8	0.24
346.01	0.28
346.219	0.28
346.428	0.08
346.638	0.24
346.847	0.26
347.056	0.3
347.266	0.18
347.475	0.2
347.684	0.28
347.893	0.27
348.103	0.22
348.312	0.19
348.521	0.23
348.73	0.23
348.94	0.21
349.149	0.16
349.358	0.24
349.567	0.24
349.776	0.2
349.985	0.2
350.194	0.25
350.403	0.3
350.612	0.12
350.821	0.2
351.03	0.28
351.239	0.19
351.448	0.23
351.657	0.13
351.866	0.32
352.075	0.2
352.284	0.25
352.493	0.14
352.702	0.31
352.911	0.25
353.12	0.26
353.329	0.2
353.538	0.26
353.746	0.22
353.955	0.2
354.164	0.24
354.373	0.21
354.582	0.3
354.79	0.23
354.999	0.21
355.208	0.24
355.416	0.32
355.625	0.2
355.834	0.22
356.042	0.27
356.251	0.18
356.46	0.21
356.668	0.24
356.877	0.3
357.085	0.26
357.294	0.14
357.503	0.19
357.711	0.2
357.92	0.4
358.128	0.25
358.337	0.24
358.545	0.25
358.754	0.23
358.962	0.25
359.17	0.2
359.379	0.22
359.587	0.25
359.796	0.2
360.004	0.28
360.212	0.29
360.421	0.31
360.629	0.21
360.837	0.23
361.046	0.29
361.254	0.35
361.462	0.23
361.67	0.2
361.879	0.22
362.087	0.28
362.295	0.23
362.503	0.2
362.711	0.18
362.92	0.22
363.128	0.22
363.336	0.2
363.544	0.15
363.752	0.21
363.96	0.18
364.168	0.22
364.376	0.29
364.584	0.21
364.792	0.26
365	0.29
365.208	0.22
365.416	0.27
365.624	0.31
365.832	0.2
366.04	0.3
366.248	0.22
366.456	0.23
366.664	0.2
366.872	0.26
367.079	0.24
367.287	0.21
367.495	0.28
367.703	0.21
367.911	0.19
368.118	0.18
368.326	0.22
368.534	0.2
368.742	0.31
368.949	0.15
369.157	0.21
369.365	0.25
369.572	0.19
369.78	0.22
369.988	0.27
370.195	0.26
370.403	0.32
370.61	0.21
370.818	0.25
371.026	0.32
371.233	0.21
371.441	0.24
371.648	0.21
371.856	0.27
372.063	0.19
372.271	0.21
372.478	0.21
372.685	0.19
372.893	0.3
373.1	0.23
373.308	0.2
373.515	0.36
373.722	0.26
373.93	0.2
374.137	0.26
374.344	0.3
374.552	0.31
374.759	0.25
374.966	0.23
375.173	0.18
375.381	0.3
375.588	0.24
375.795	0.16
376.002	0.21
376.209	0.22
376.417	0.22
376.624	0.22
376.831	0.24
377.038	0.19
377.245	0.16
377.452	0.22
377.659	0.23
377.866	0.13
378.073	0.28
378.28	0.24
378.487	0.3
378.694	0.28
378.901	0.21
379.108	0.25
379.315	0.27
379.522	0.36
379.729	0.28
379.936	0.23
380.143	0.26
380.35	0.29
380.557	0.27
380.763	0.22
380.97	0.24
381.177	0.25
381.384	0.27
381.591	0.27
381.797	0.28
382.004	0.27
382.211	0.3
382.418	0.21
382.624	0.3
382.831	0.31
383.038	0.21
383.244	0.21
383.451	0.25
383.658	0.29
383.864	0.24
384.071	0.21
384.277	0.35
384.484	0.24
384.69	0.3
384.897	0.22
385.103	0.27
385.31	0.23
385.516	0.22
385.723	0.23
385.929	0.25
386.136	0.25
386.342	0.31
386.549	0.23
386.755	0.31
386.961	0.29
387.168	0.23
387.374	0.22
387.58	0.29
387.787	0.27
387.993	0.24
388.199	0.26
388.406	0.25
388.612	0.26
388.818	0.21
389.024	0.24
389.231	0.26
389.437	0.35
389.643	0.3
389.849	0.28
390.055	0.32
390.261	0.27
390.467	0.32
390.674	0.22
390.88	0.24
391.086	0.29
391.292	0.21
391.498	0.28
391.704	0.27
391.91	0.28
392.116	0.28
392.322	0.16
392.528	0.35
392.734	0.31
392.94	0.26
393.146	0.27
393.352	0.31
393.557	0.24
393.763	0.28
393.969	0.32
394.175	0.25
394.381	0.28
394.587	0.24
394.792	0.3
394.998	0.33
395.204	0.35
395.41	0.27
395.615	0.33
395.821	0.32
396.027	0.33
396.233	0.24
396.438	0.32
396.644	0.37
396.85	0.34
397.055	0.32
397.261	0.29
397.466	0.29
397.672	0.33
397.878	0.31
398.083	0.38
398.289	0.25
398.494	0.38
398.7	0.31
398.905	0.18
399.111	0.38
399.316	0.23
399.522	0.29
399.727	0.34
399.932	0.35
400.138	0.29
400.343	0.33
400.549	0.34
400.754	0.34
400.959	0.4
401.165	0.33
401.37	0.36
401.575	0.39
401.78	0.37
401.986	0.31
402.191	0.36
402.396	0.37
402.601	0.36
402.807	0.37
403.012	0.37
403.217	0.42
403.422	0.37
403.627	0.37
403.832	0.37
404.037	0.41
404.243	0.41
404.448	0.34
404.653	0.39
404.858	0.41
405.063	0.43
405.268	0.38
405.473	0.31
405.678	0.33
405.883	0.6
406.088	0.42
406.293	0.4
406.498	0.44
406.703	0.47
406.907	0.43
407.112	0.4
407.317	0.49
407.522	0.57
407.727	0.41
407.932	0.44
408.136	0.63
408.341	0.45
408.546	0.55
408.751	0.52
408.956	0.53
409.16	0.59
409.365	0.54
409.57	0.58
409.774	0.56
409.979	0.61
410.184	0.62
410.388	0.55
410.593	0.68
410.798	0.65
411.002	0.66
411.207	0.71
411.411	0.72
411.616	0.61
411.82	0.71
412.025	0.73
412.229	0.7
412.434	0.85
412.638	0.81
412.843	0.8
413.047	0.85
413.252	0.85
413.456	0.93
413.66	0.92
413.865	0.92
414.069	1.04
414.273	0.95
414.478	1
414.682	1.01
414.886	1.11
415.091	1.02
415.295	1.02
415.499	1.27
415.703	1.12
415.908	1.27
416.112	1.18
416.316	1.38
416.52	1.37
416.724	1.37
416.929	1.37
417.133	1.63
417.337	1.48
417.541	1.6
417.745	1.58
417.949	1.74
418.153	1.75
418.357	1.73
418.561	1.89
418.765	1.91
418.969	2.08
419.173	2.13
419.377	2.05
419.581	2.33
419.785	2.23
419.989	2.31
420.193	2.35
420.397	2.48
420.601	2.63
420.804	2.75
421.008	2.66
421.212	2.77
421.416	2.76
421.62	2.83
421.823	2.88
422.027	3.05
422.231	3.05
422.435	3.03
422.638	3.07
422.842	3.2
423.046	3.2
423.249	3.4
423.453	3.37
423.657	3.62
423.86	3.58
424.064	3.75
424.268	3.88
424.471	3.81
424.675	4.06
424.878	4.08
425.082	4.19
425.285	4.43
425.489	4.36
425.692	4.49
425.896	4.46
426.099	4.75
426.303	4.89
426.506	4.92
426.71	5.21
426.913	5.33
427.116	5.45
427.32	5.42
427.523	5.49
427.726	5.86
427.93	5.94
428.133	6.16
428.336	6.31
428.54	6.39
428.743	6.74
428.946	6.86
429.149	6.91
429.353	6.99
429.556	6.97
429.759	7.03
429.962	7.14
430.165	7.29
430.368	6.92
430.571	7.08
430.775	7.09
430.978	7.08
431.181	7.16
431.384	7.19
431.587	7.28
431.79	7.75
431.993	7.55
432.196	7.88
432.399	8.19
432.602	8.28
432.805	8.35
433.008	8.85
433.211	8.79
433.414	9.2
433.616	9.22
433.819	9.02
434.022	9.24
434.225	9.35
434.428	9.42
434.631	9.77
434.833	9.62
435.036	9.8
435.239	10.01
435.442	10.19
435.645	10.23
435.847	10.37
436.05	10.63
436.253	10.82
436.455	10.82
436.658	10.75
436.861	10.98
437.063	11.18
437.266	11.04
437.468	11.44
437.671	11.64
437.874	11.73
438.076	11.57
438.279	11.95
438.481	11.94
438.684	12.7
438.886	12.34
439.089	12.64
439.291	12.68
439.494	12.88
439.696	13.08
439.899	13.54
440.101	13.92
440.303	14.19
440.506	14.76
440.708	14.47
440.91	14.87
441.113	14.98
441.315	15.43
441.517	15
441.72	15.51
441.922	15.12
442.124	15.05
442.326	15.42
442.529	15.72
442.731	15.66
442.933	15.92
443.135	15.65
443.337	15.74
443.539	16.22
443.742	15.95
443.944	16.55
444.146	16.27
444.348	16.26
444.55	16.22
444.752	16.36
444.954	16.46
445.156	16.36
445.358	16.72
445.56	17.02
445.762	16.79
445.964	17.26
446.166	17.03
446.368	16.86
446.57	17.01
446.772	16.76
446.974	16.52
447.175	16.93
447.377	16.48
447.579	16.85
447.781	16.54
447.983	16.31
448.184	15.94
448.386	16.36
448.588	15.83
448.79	15.81
448.991	16.21
449.193	16.45
449.395	15.73
449.597	15.34
449.798	15.28
450	14.8
450.202	14.85
450.403	14.92
450.605	14.82
450.806	14.37
451.008	14.14
451.21	14.12
451.411	13.64
451.613	13.06
451.814	13.31
452.016	13.21
452.217	12.58
452.419	12.66
452.62	12.31
452.821	12.18
453.023	12.1
453.224	11.7
453.426	11.22
453.627	10.58
453.828	10.63
454.03	10.71
454.231	10.77
454.432	10.55
454.634	10.44
454.835	10.07
455.036	9.88
455.238	9.59
455.439	9.38
455.64	9.12
455.841	8.98
456.042	9.17
456.244	8.79
456.445	8.54
456.646	8.24
456.847	8.16
457.048	8.1
457.249	8.17
457.45	7.98
457.651	7.4
457.852	7.29
458.054	6.89
458.255	6.88
458.456	6.93
458.657	6.81
458.858	6.36
459.058	6.43
459.259	6.46
459.46	6.16
459.661	6.21
459.862	6.23
460.063	6.08
460.264	6.04
460.465	5.78
460.666	5.76
460.866	5.58
461.067	5.32
461.268	5.29
461.469	5.22
461.67	5.11
461.87	5.01
462.071	5
462.272	4.93
462.473	4.86
462.673	5.06
462.874	4.92
463.075	4.88
463.275	4.87
463.476	4.93
463.676	4.87
463.877	4.69
464.078	4.7
464.278	4.77
464.479	4.66
464.679	4.56
464.88	4.48
465.08	4.49
465.281	4.31
465.481	4.16
465.682	3.87
465.882	3.96
466.083	3.94
466.283	3.9
466.483	3.74
466.684	3.57
466.884	3.49
467.085	3.56
467.285	3.6
467.485	3.49
467.686	3.43
467.886	3.28
468.086	3.25
468.286	3.21
468.487	3.23
468.687	3.15
468.887	3.03
469.087	3.2
469.287	3.15
469.488	2.98
469.688	3.11
469.888	3.02
470.088	3.03
470.288	3
470.488	2.89
470.688	2.8
470.888	2.72
471.088	2.54
471.288	2.68
471.488	2.68
471.688	2.64
471.888	2.58
472.088	2.71
472.288	2.61
472.488	2.44
472.688	2.49
472.888	2.53
473.088	2.47
473.288	2.37
473.488	2.36
473.688	2.57
473.887	2.37
474.087	2.33
474.287	2.35
474.487	2.3
474.687	2.34
474.886	2.27
475.086	2.22
475.286	2.18
475.486	2.18
475.685	2.14
475.885	2.1
476.085	2.14
476.284	2.11
476.484	2.13
476.684	2.08
476.883	2.18
477.083	2.07
477.282	1.99
477.482	2.09
477.681	2.06
477.881	1.99
478.08	1.98
478.28	1.93
478.479	1.97
478.679	2.06
478.878	1.94
479.078	1.9
479.277	2.01
479.477	1.97
479.676	1.96
479.875	1.92
480.075	1.84
480.274	1.94
480.473	1.92
480.673	1.91
480.872	1.94
481.071	1.92
481.271	1.97
481.47	1.89
481.669	1.89
481.868	1.85
482.067	1.87
482.267	1.84
482.466	1.84
482.665	1.81
482.864	1.82
483.063	1.79
483.262	1.91
483.461	1.92
483.661	1.94
483.86	1.88
484.059	1.96
484.258	1.9
484.457	1.91
484.656	1.91
484.855	2.02
485.054	1.85
485.253	1.86
485.452	1.84
485.651	1.97
485.849	1.92
486.048	1.88
486.247	1.88
486.446	1.95
486.645	1.92
486.844	1.96
487.043	1.93
487.241	1.96
487.44	1.93
487.639	2.02
487.838	2.04
488.037	1.96
488.235	2.08
488.434	1.99
488.633	1.91
488.831	2.09
489.03	2.1
489.229	2.06
489.427	2.07
489.626	2.11
489.825	2.13
490.023	2.16
490.222	2.14
490.42	2.17
490.619	2.2
490.817	2.18
491.016	2.21
491.214	2.25
491.413	2.28
491.611	2.19
491.81	2.27
492.008	2.33
492.207	2.37
492.405	2.36
492.604	2.3
492.802	2.38
493	2.43
493.199	2.48
493.397	2.43
493.595	2.54
493.794	2.47
493.992	2.61
494.19	2.58
494.388	2.64
494.587	2.55
494.785	2.57
494.983	2.55
495.181	2.66
495.379	2.7
495.578	2.73
495.776	2.79
495.974	2.74
496.172	2.71
496.37	2.88
496.568	2.87
496.766	2.85
496.964	2.95
497.162	2.91
497.36	2.98
497.558	2.99
497.756	3.02
497.954	3.04
498.152	3.1
498.35	3.19
498.548	3.12
498.746	3.15
498.944	3.16
499.142	3.18
499.34	3.23
499.538	3.35
499.736	3.25
499.933	3.35
500.131	3.4
500.329	3.47
500.527	3.46
500.725	3.6
500.922	3.58
501.12	3.59
501.318	3.62
501.516	3.62
501.713	3.69
501.911	3.7
502.109	3.66
502.306	3.79
502.504	3.7
502.701	3.76
502.899	3.87
503.097	4.03
503.294	3.89
503.492	4
503.689	4.06
503.887	4.01
504.084	4.1
504.282	4.08
504.479	4.06
504.677	4.26
504.874	4.2
505.072	4.12
505.269	4.35
505.466	4.31
505.664	4.39
505.861	4.28
506.059	4.39
506.256	4.42
506.453	4.53
506.651	4.59
506.848	4.62
507.045	4.57
507.242	4.58
507.44	4.67
507.637	4.66
507.834	4.67
508.031	4.79
508.229	4.73
508.426	4.73
508.623	4.87
508.82	4.87
509.017	4.85
509.214	4.87
509.411	4.97
509.608	4.96
509.805	5.08
510.003	5.06
510.2	5.12
510.397	5.22
510.594	5.07
510.791	5.19
510.988	5.25
511.184	5.14
511.381	5.04
511.578	5.23
511.775	5.34
511.972	5.27
512.169	5.34
512.366	5.36
512.563	5.48
512.76	5.49
512.956	5.54
513.153	5.45
513.35	5.43
513.547	5.46
513.744	5.58
513.94	5.54
514.137	5.68
514.334	5.66
514.53	5.68
514.727	5.81
514.924	5.84
515.12	5.79
515.317	5.82
515.514	5.72
515.71	5.69
515.907	5.89
516.103	5.93
516.3	5.83
516.497	5.94
516.693	6.01
516.89	5.98
517.086	5.97
517.283	6.09
517.479	5.91
517.676	6.1
517.872	6.16
518.068	6.16
518.265	6.09
518.461	6.05
518.658	6.22
518.854	6.23
519.05	6.28
519.247	6.23
519.443	6.24
519.639	6.38
519.836	6.23
520.032	6.26
520.228	6.39
520.424	6.4
520.621	6.4
520.817	6.48
521.013	6.4
521.209	6.55
521.405	6.52
521.601	6.52
521.798	6.45
521.994	6.48
522.19	6.42
522.386	6.48
522.582	6.56
522.778	6.69
522.974	6.5
523.17	6.56
523.366	6.58
523.562	6.61
523.758	6.6
523.954	6.48
524.15	6.64
524.346	6.73
524.542	6.71
524.738	6.7
524.934	6.84
525.129	6.78
525.325	6.69
525.521	6.7
525.717	6.93
525.913	6.74
526.109	6.73
526.304	6.86
526.5	6.85
526.696	6.93
526.892	6.86
527.087	7
527.283	6.89
527.479	6.89
527.674	6.76
527.87	6.95
528.066	6.92
528.261	6.97
528.457	6.9
528.653	7.06
528.848	7.02
529.044	7.06
529.239	6.91
529.435	6.94
529.63	6.93
529.826	6.99
530.021	6.98
530.217	7.04
530.412	7.02
530.608	7.05
530.803	7.03
530.999	6.97
531.194	7.01
531.389	7.03
531.585	7.08
531.78	7.24
531.975	7.08
532.171	7.21
532.366	7.17
532.561	7.19
532.757	7.19
532.952	7.32
533.147	7.04
533.342	7.19
533.538	7.14
533.733	7.33
533.928	7.01
534.123	7.22
534.318	7.26
534.513	7.16
534.709	7.31
534.904	7.21
535.099	7.33
535.294	7.28
535.489	7.33
535.684	7.2
535.879	7.22
536.074	7.3
536.269	7.32
536.464	7.35
536.659	7.29
536.854	7.31
537.049	7.37
537.244	7.28
537.439	7.27
537.634	7.29
537.828	7.38
538.023	7.3
538.218	7.3
538.413	7.23
538.608	7.32
538.803	7.31
538.997	7.3
539.192	7.34
539.387	7.34
539.582	7.3
539.776	7.22
539.971	7.35
540.166	7.45
540.36	7.32
540.555	7.48
540.75	7.39
540.944	7.41
541.139	7.52
541.334	7.4
541.528	7.4
541.723	7.45
541.917	7.44
542.112	7.34
542.306	7.31
542.501	7.3
542.695	7.37
542.89	7.33
543.084	7.43
543.279	7.4
543.473	7.46
543.668	7.46
543.862	7.29
544.056	7.32
544.251	7.44
544.445	7.49
544.64	7.49
544.834	7.23
545.028	7.12
545.222	7.43
545.417	7.61
545.611	7.49
545.805	7.39
546	7.31
546.194	7.42
546.388	7.47
546.582	7.41
546.776	7.43
546.97	7.49
547.165	7.43
547.359	7.42
547.553	7.34
547.747	7.4
547.941	7.56
548.135	7.4
548.329	7.47
548.523	7.47
548.717	7.4
548.911	7.44
549.105	7.4
549.299	7.52
549.493	7.51
549.687	7.39
549.881	7.52
550.075	7.49
550.269	7.38
550.463	7.56
550.657	7.45
550.85	7.48
551.044	7.37
551.238	7.52
551.432	7.52
551.626	7.55
551.82	7.55
552.013	7.34
552.207	7.62
552.401	7.57
552.594	7.46
552.788	7.46
552.982	7.47
553.176	7.37
553.369	7.61
553.563	7.52
553.756	7.41
553.95	7.53
554.144	7.53
554.337	7.55
554.531	7.33
554.724	7.48
554.918	7.6
555.111	7.48
555.305	7.53
555.498	7.42
555.692	7.62
555.885	7.55
556.079	7.45
556.272	7.52
556.466	7.54
556.659	7.48
556.852	7.52
557.046	7.41
557.239	7.34
557.432	7.49
557.626	7.47
557.819	7.62
558.012	7.5
558.206	7.6
558.399	7.56
558.592	7.41
558.785	7.42
558.979	7.51
559.172	7.49
559.365	7.55
559.558	7.44
559.751	7.43
559.944	7.59
560.138	7.51
560.331	7.53
560.524	7.59
560.717	7.48
560.91	7.45
561.103	7.48
561.296	7.36
561.489	7.44
561.682	7.54
561.875	7.57
562.068	7.59
562.261	7.43
562.454	7.6
562.647	7.41
562.84	7.53
563.032	7.54
563.225	7.46
563.418	7.51
563.611	7.53
563.804	7.49
563.997	7.37
564.19	7.3
564.382	7.6
564.575	7.48
564.768	7.4
564.961	7.59
565.153	7.41
565.346	7.41
565.539	7.53
565.731	7.46
565.924	7.53
566.117	7.58
566.309	7.53
566.502	7.48
566.695	7.4
566.887	7.52
567.08	7.47
567.272	7.55
567.465	7.4
567.657	7.5
567.85	7.36
568.042	7.49
568.235	7.53
568.427	7.36
568.62	7.42
568.812	7.42
569.005	7.53
569.197	7.38
569.389	7.55
569.582	7.47
569.774	7.44
569.966	7.32
570.159	7.35
570.351	7.29
570.543	7.39
570.736	7.42
570.928	7.25
571.12	7.43
571.312	7.44
571.505	7.19
571.697	7.36
571.889	7.38
572.081	7.4
572.273	7.3
572.465	7.37
572.658	7.41
572.85	7.38
573.042	7.42
573.234	7.36
573.426	7.34
573.618	7.3
573.81	7.39
574.002	7.39
574.194	7.44
574.386	7.34
574.578	7.25
574.77	7.33
574.962	7.33
575.154	7.2
575.346	7.27
575.538	7.2
575.729	7.29
575.921	7.35
576.113	7.44
576.305	7.29
576.497	7.36
576.689	7.2
576.88	7.17
577.072	7.4
577.264	7.34
577.456	7.33
577.647	7.16
577.839	7.36
578.031	7.31
578.223	7.21
578.414	7.14
578.606	7.25
578.798	7.29
578.989	7.26
579.181	7.26
579.372	7.18
579.564	7.32
579.755	7.15
579.947	7.17
580.139	7.22
580.33	7.05
580.522	7.19
580.713	7.11
580.905	7.17
581.096	7.23
581.287	7.19
581.479	7.15
581.67	7.18
581.862	7.08
582.053	7.14
582.244	7.01
582.436	7.22
582.627	7.01
582.818	7.07
583.01	7.02
583.201	7.11
583.392	7.05
583.583	7.02
583.775	6.89
583.966	7.03
584.157	7.02
584.348	7.15
584.54	6.99
584.731	7.06
584.922	6.96
585.113	6.92
585.304	7.02
585.495	6.99
585.686	7.08
585.877	7
586.068	7.04
586.259	7
586.45	6.97
586.641	6.93
586.832	6.92
587.023	6.91
587.214	6.89
587.405	6.97
587.596	6.76
587.787	6.86
587.978	6.9
588.169	6.83
588.36	6.8
588.551	6.87
588.742	6.81
588.932	6.93
589.123	6.7
589.314	6.92
589.505	6.75
589.696	6.79
589.886	6.73
590.077	6.74
590.268	6.67
590.458	6.64
590.649	6.63
590.84	6.74
591.03	6.74
591.221	6.75
591.412	6.62
591.602	6.8
591.793	6.67
591.984	6.68
592.174	6.65
592.365	6.84
592.555	6.52
592.746	6.66
592.936	6.62
593.127	6.68
593.317	6.6
593.508	6.67
593.698	6.58
593.889	6.6
594.079	6.54
594.269	6.52
594.46	6.45
594.65	6.54
594.84	6.53
595.031	6.39
595.221	6.5
595.411	6.44
595.602	6.49
595.792	6.46
595.982	6.35
596.172	6.49
596.363	6.38
596.553	6.43
596.743	6.37
596.933	6.36
597.123	6.38
597.314	6.25
597.504	6.28
597.694	6.41
597.884	6.32
598.074	6.33
598.264	6.33
598.454	6.35
598.644	6.23
598.834	6.22
599.024	6.18
599.214	6.22
599.404	6.21
599.594	6.14
599.784	6.13
599.974	6.18
600.164	6.15
600.354	6.12
600.544	5.98
600.734	6.16
600.924	6.08
601.114	6
601.303	6.01
601.493	6.04
601.683	6.1
601.873	6.05
602.063	5.91
602.252	6.02
602.442	5.91
602.632	5.93
602.821	5.88
603.011	5.99
603.201	5.91
603.39	5.92
603.58	5.76
603.77	5.94
603.959	5.96
604.149	5.88
604.339	5.85
604.528	5.94
604.718	5.85
604.907	5.8
605.097	5.72
605.286	5.78
605.476	5.8
605.665	5.79
605.855	5.73
606.044	5.81
606.234	5.75
606.423	5.69
606.612	5.7
606.802	5.64
606.991	5.72
607.181	5.7
607.37	5.63
607.559	5.49
607.749	5.59
607.938	5.51
608.127	5.56
608.316	5.55
608.506	5.5
608.695	5.63
608.884	5.49
609.073	5.55
609.263	5.6
609.452	5.59
609.641	5.42
609.83	5.37
610.019	5.52
610.208	5.43
610.397	5.31
610.586	5.42
610.775	5.35
610.965	5.39
611.154	5.21
611.343	5.35
611.532	5.25
611.721	5.35
611.91	5.24
612.099	5.3
612.287	5.12
612.476	5.13
612.665	5.37
612.854	5.12
613.043	5.19
613.232	5.19
613.421	5.08
613.61	5.22
613.798	5.11
613.987	5.13
614.176	5.11
614.365	5.1
614.554	5.1
614.742	5.2
614.931	4.97
615.12	5.16
615.309	5.09
615.497	4.98
615.686	4.86
615.875	4.97
616.063	4.94
616.252	4.92
616.44	4.98
616.629	4.91
616.818	4.94
617.006	4.84
617.195	4.8
617.383	4.8
617.572	4.79
617.76	4.75
617.949	4.76
618.137	4.85
618.326	4.79
618.514	4.66
618.703	4.58
618.891	4.77
619.079	4.69
619.268	4.74
619.456	4.58
619.644	4.73
619.833	4.59
620.021	4.64
620.209	4.55
620.398	4.63
620.586	4.59
620.774	4.59
620.962	4.54
621.151	4.66
621.339	4.54
621.527	4.46
621.715	4.44
621.903	4.46
622.092	4.42
622.28	4.54
622.468	4.35
622.656	4.4
622.844	4.4
623.032	4.39
623.22	4.35
623.408	4.44
623.596	4.38
623.784	4.38
623.972	4.29
624.16	4.28
624.348	4.36
624.536	4.3
624.724	4.2
624.912	4.27
625.1	4.25
625.288	4.27
625.476	4.17
625.664	4.31
625.851	4.14
626.039	4.16
626.227	4.17
626.415	4.2
626.603	4.03
626.79	4.14
626.978	4.1
627.166	4.17
627.354	4.05
627.541	4.02
627.729	3.89
627.917	4.18
628.104	4.1
628.292	3.98
628.48	4.03
628.667	3.95
628.855	4
629.042	4.03
629.23	3.88
629.418	3.92
629.605	3.9
629.793	3.83
629.98	3.85
630.168	3.82
630.355	3.88
630.543	3.76
630.73	3.74
630.917	3.78
631.105	3.89
631.292	3.8
631.48	3.77
631.667	3.88
631.854	3.75
632.042	3.73
632.229	3.63
632.416	3.76
632.604	3.72
632.791	3.59
632.978	3.7
633.165	3.68
633.353	3.71
633.54	3.61
633.727	3.54
633.914	3.55
634.101	3.44
634.289	3.64
634.476	3.47
634.663	3.47
634.85	3.54
635.037	3.45
635.224	3.43
635.411	3.55
635.598	3.44
635.785	3.46
635.972	3.34
636.159	3.49
636.346	3.4
636.533	3.37
636.72	3.37
636.907	3.38
637.094	3.34
637.281	3.25
637.468	3.3
637.655	3.27
637.842	3.29
638.029	3.29
638.215	3.27
638.402	3.26
638.589	3.18
638.776	3.2
638.963	3.14
639.149	3.2
639.336	3.32
639.523	3.15
639.709	3.2
639.896	3.14
640.083	3.15
640.27	3.16
640.456	3.11
640.643	3.14
640.829	3.01
641.016	3.06
641.203	3.02
641.389	3.07
641.576	3.1
641.762	3
641.949	2.95
642.135	3.01
642.322	2.96
642.508	2.9
642.695	3
642.881	2.89
643.068	2.89
643.254	2.89
643.441	2.89
643.627	2.95
643.813	2.77
644	2.89
644.186	2.77
644.372	2.86
644.559	2.83
644.745	2.81
644.931	2.78
645.118	2.85
645.304	2.76
645.49	2.77
645.676	2.75
645.862	2.75
646.049	2.77
646.235	2.78
646.421	2.86
646.607	2.79
646.793	2.7
646.979	2.64
647.165	2.68
647.352	2.69
647.538	2.68
647.724	2.65
647.91	2.6
648.096	2.64
648.282	2.58
648.468	2.58
648.654	2.64
648.84	2.6
649.026	2.58
649.212	2.53
649.397	2.46
649.583	2.49
649.769	2.52
649.955	2.49
650.141	2.54
650.327	2.56
650.513	2.43
650.698	2.47
650.884	2.34
651.07	2.45
651.256	2.42
651.442	2.42
651.627	2.31
651.813	2.39
651.999	2.37
652.184	2.41
652.37	2.32
652.556	2.38
652.741	2.44
652.927	2.25
653.113	2.31
653.298	2.31
653.484	2.31
653.669	2.28
653.855	2.27
654.04	2.35
654.226	2.25
654.412	2.25
654.597	2.16
654.782	2.27
654.968	2.24
655.153	2.2
655.339	2.14
655.524	2.16
655.71	2.25
655.895	2.2
656.08	2.19
656.266	2.18
656.451	2.14
656.636	2.09
656.822	2.11
657.007	2.1
657.192	2.1
657.378	2.03
657.563	2.07
657.748	2.06
657.933	2.06
658.118	1.99
658.304	1.97
658.489	2.08
658.674	2.07
658.859	1.99
659.044	2.03
659.229	2.06
659.414	1.97
659.599	1.99
659.785	1.88
659.97	1.94
660.155	1.98
660.34	2.01
660.525	1.93
660.71	1.9
660.895	1.96
661.08	1.86
661.264	1.87
661.449	2
661.634	1.91
661.819	1.93
662.004	1.92
662.189	1.76
662.374	1.82
662.559	1.81
662.743	1.79
662.928	1.83
663.113	1.82
663.298	1.73
663.483	1.77
663.667	1.81
663.852	1.75
664.037	1.82
664.221	1.75
664.406	1.81
664.591	1.8
664.775	1.79
664.96	1.67
665.145	1.73
665.329	1.77
665.514	1.7
665.698	1.7
665.883	1.62
666.068	1.7
666.252	1.7
666.437	1.64
666.621	1.7
666.806	1.71
666.99	1.63
667.174	1.61
667.359	1.73
667.543	1.57
667.728	1.6
667.912	1.58
668.096	1.65
668.281	1.6
668.465	1.65
668.649	1.61
668.834	1.58
669.018	1.57
669.202	1.56
669.387	1.53
669.571	1.62
669.755	1.57
669.939	1.57
670.124	1.51
670.308	1.54
670.492	1.61
670.676	1.52
670.86	1.55
671.044	1.45
671.228	1.58
671.413	1.45
671.597	1.46
671.781	1.46
671.965	1.47
672.149	1.47
672.333	1.47
672.517	1.48
672.701	1.47
672.885	1.43
673.069	1.35
673.253	1.49
673.437	1.38
673.621	1.32
673.804	1.42
673.988	1.39
674.172	1.35
674.356	1.33
674.54	1.37
674.724	1.56
674.908	1.33
675.091	1.42
675.275	1.39
675.459	1.45
675.643	1.36
675.826	1.41
676.01	1.36
676.194	1.38
676.377	1.34
676.561	1.37
676.745	1.34
676.928	1.29
677.112	1.38
677.296	1.3
677.479	1.29
677.663	1.26
677.846	1.32
678.03	1.31
678.213	1.26
678.397	1.3
678.58	1.26
678.764	1.27
678.947	1.19
679.131	1.24
679.314	1.33
679.498	1.22
679.681	1.26
679.865	1.28
680.048	1.23
680.231	1.17
680.415	1.22
680.598	1.14
680.781	1.22
680.965	1.2
681.148	1.19
681.331	1.2
681.514	1.22
681.698	1.14
681.881	1.18
682.064	1.21
682.247	1.16
682.43	1.11
682.614	1.2
682.797	1.2
682.98	1.19
683.163	1.02
683.346	1.14
683.529	1.06
683.712	1.08
683.895	1.15
684.078	1.02
684.261	1.09
684.444	1.11
684.627	1.12
684.81	1.04
684.993	1.11
685.176	1.13
685.359	1.06
685.542	1.02
685.725	1.16
685.908	1.11
686.091	1.06
686.274	1.09
686.457	1.08
686.639	1.05
686.822	1.11
687.005	1.03
687.188	1.08
687.371	1.16
687.553	1.08
687.736	1.06
687.919	1.1
688.102	1.07
688.284	1.06
688.467	1
688.65	1
688.832	0.94
689.015	1.01
689.197	0.92
689.38	1.06
689.563	1.05
689.745	0.92
689.928	0.91
690.11	0.94
690.293	0.92
690.475	0.89
690.658	0.93
690.84	0.9
691.023	1
691.205	0.95
691.388	0.93
691.57	0.98
691.752	0.97
691.935	0.82
692.117	0.88
692.3	0.93
692.482	0.91
692.664	0.91
692.847	0.93
693.029	0.95
693.211	0.96
693.393	0.9
693.576	0.87
693.758	0.87
693.94	0.85
694.122	0.82
694.304	0.86
694.487	0.86
694.669	0.91
694.851	0.83
695.033	0.89
695.215	0.83
695.397	0.8
695.579	0.89
695.761	0.78
695.943	0.78
696.125	0.91
696.308	0.87
696.49	0.69
696.671	0.94
696.853	0.83
697.035	1.06
697.217	0.77
697.399	0.89
697.581	0.74
697.763	0.75
697.945	0.78
698.127	0.82
698.309	0.78
698.491	0.75
698.672	0.87
698.854	0.92
699.036	0.85
699.218	0.75
699.399	0.79
699.581	0.84
699.763	0.74
699.945	0.71
700.126	0.72
700.308	0.79
700.49	0.77
700.671	0.71
700.853	0.7
701.035	0.75
701.216	0.74
701.398	0.68
701.579	0.74
701.761	0.76
701.943	0.72
702.124	0.7
702.306	0.69
702.487	0.91
702.669	0.74
702.85	0.67
703.031	0.63
703.213	0.81
703.394	0.81
703.576	0.67
703.757	0.83
703.938	0.84
704.12	0.9
704.301	0.67
704.483	0.71
704.664	0.71
704.845	0.81
705.026	0.8
705.208	0.63
705.389	0.66
705.57	0.73
705.751	0.74
705.933	0.66
706.114	0.82
706.295	0.64
706.476	0.63
706.657	0.82
706.838	0.71
707.02	0.72
707.201	0.71
707.382	0.64
707.563	0.67
707.744	0.66
707.925	0.54
708.106	0.62
708.287	0.77
708.468	0.72
708.649	0.62
708.83	0.69
709.011	0.61
709.192	0.64
709.373	0.55
709.554	0.65
709.734	0.68
709.915	0.7
710.096	0.68
710.277	0.52
710.458	0.62
710.639	0.62
710.819	0.57
711	0.54
711.181	0.71
711.362	0.74
711.542	0.67
711.723	0.57
711.904	0.68
712.085	0.64
712.265	0.64
712.446	0.51
712.627	0.56
712.807	0.56
712.988	0.6
713.168	0.47
713.349	0.61
713.53	0.44
713.71	0.53
713.891	0.49
714.071	0.65
714.252	0.59
714.432	0.52
714.613	0.51
714.793	0.64
714.974	0.67
715.154	0.58
715.334	0.59
715.515	0.62
715.695	0.5
715.876	0.51
716.056	0.44
716.236	0.5
716.417	0.53
716.597	0.46
716.777	0.77
716.957	0.52
717.138	0.55
717.318	0.57
717.498	0.51
717.678	0.48
717.859	0.56
718.039	0.47
718.219	0.56
718.399	0.58
718.579	0.51
718.759	0.46
718.939	0.55
719.12	0.57
719.3	0.57
719.48	0.44
719.66	0.43
719.84	0.72
720.02	0.49
720.2	0.42
720.38	0.56
720.56	0.66
720.74	0.42
720.92	0.56
721.1	0.7
721.279	0.62
721.459	0.53
721.639	0.43
721.819	0.51
721.999	0.46
722.179	0.57
722.359	0.4
722.538	0.43
722.718	0.5
722.898	0.52
723.078	0.46
723.257	0.48
723.437	0.53
723.617	0.52
723.797	0.48
723.976	0.45
724.156	0.6
724.336	0.57
724.515	0.65
724.695	0.35
724.874	0.48
725.054	0.51
725.234	0.4
725.413	0.5
725.593	0.5
725.772	0.52
725.952	0.46
726.131	0.48
726.311	0.51
726.49	0.45
726.67	0.46
726.849	0.47
727.028	0.56
727.208	0.44
727.387	0.53
727.567	0.41
727.746	0.5
727.925	0.41
728.105	0.37
728.284	0.41
728.463	0.41
728.643	0.52
728.822	0.36
729.001	0.34
729.18	0.45
729.359	0.63
729.539	0.45
729.718	0.43
729.897	0.58
730.076	0.45
730.255	0.31
730.434	0.43
730.614	0.54
730.793	0.57
730.972	0.54
731.151	0.46
731.33	0.6
731.509	0.59
731.688	0.46
731.867	0.44
732.046	0.33
732.225	0.69
732.404	0.5
732.583	0.4
732.762	0.51
732.941	0.52
733.12	0.49
733.298	0.43
733.477	0.65
733.656	0.35
733.835	0.32
734.014	0.53
734.193	0.47
734.371	0.48
734.55	0.48
734.729	0.32
734.908	0.48
735.086	0.55
735.265	0.55
735.444	0.37
735.623	0.29
735.801	0.43
735.98	0.46
736.159	0.42
736.337	0.6
736.516	0.55
736.694	0.54
736.873	0.43
737.052	0.71
737.23	0.61
737.409	0.36
737.587	0.69
737.766	0.25
737.944	0.52
738.123	0.62
738.301	0.43
738.479	0.48
738.658	0.61
738.836	0.32
739.015	0.53
739.193	0.47
739.371	0.36
739.55	0.5
739.728	0.28
739.906	0.6
740.085	0.63
740.263	0.41
740.441	0.26
740.62	0.78
740.798	0.63
740.976	0.33
741.154	0.29
741.332	0.72
741.511	0.58
741.689	0.48
741.867	0.47
742.045	0.53
742.223	0.47
742.401	0.3
742.579	0.33
742.757	0.45
742.935	0.33
743.114	0.41
743.292	0.42
743.47	0.34
743.648	0.47
743.826	0.47
744.004	0.5
744.181	0.47
744.359	0.4
744.537	0.51
744.715	0.42
744.893	0.51
745.071	0.45
745.249	0.44
745.427	0.43
745.605	0.53
745.782	0.47
745.96	0.48
746.138	0.46
746.316	0.51
746.493	0.45
746.671	0.4
746.849	0.39
747.027	0.6
747.204	0.34
747.382	0.44
747.56	0.35
747.737	0.37
747.915	0.27
748.093	0.36
748.27	0.31
748.448	0.37
748.625	0.32
748.803	0.38
748.98	0.3
749.158	0.49
749.335	0.46
749.513	0.4
749.69	0.33
749.868	0.33
750.045	0.43
750.223	0.29
750.4	0.21
750.578	0.6
750.755	0.36
750.932	0.14
751.11	0.5
751.287	0.33
751.464	0.51
751.642	0.31
751.819	0.44
751.996	0.47
752.173	0.24
752.351	0.14
752.528	0.32
752.705	0.35
752.882	0.28
753.06	0.38
753.237	0.4
753.414	0.52
753.591	0.65
753.768	0.4
753.945	0.22
754.122	0.37
754.299	0.53
754.476	0.24
754.654	0.34
754.831	0.51
755.008	0.41
755.185	0.3
755.362	0.27
755.539	0.36
755.716	0.3
755.892	0.3
756.069	0.25
756.246	0.34
756.423	0.36
756.6	0.51
756.777	0.29
756.954	0.43
757.131	0.33
757.307	0.23
757.484	0.18
757.661	0.35
757.838	0.51
758.015	0.21
758.191	0.36
758.368	0.44
758.545	0.58
758.721	0.4
758.898	0.14
759.075	0.39
759.251	0.36
759.428	0.46
759.605	0.24
759.781	0.36
759.958	0.42
760.134	0.34
760.311	0.31
760.488	0.59
760.664	0.52
760.841	0.34
761.017	0.3
761.194	0.46
761.37	0.46
761.547	0.34
761.723	0.32
761.899	0.53
762.076	0.34
762.252	0.25
762.429	0.16
762.605	0.44
762.781	0.39
762.958	0.41
763.134	0.34
763.31	0.26
763.486	0.48
763.663	0.15
763.839	0.27
764.015	0.16
764.191	0.31
764.368	0.26
764.544	0.22
764.72	0.38
764.896	0.5
765.072	0.36
765.248	0.34
765.425	0.28
765.601	0.26
765.777	0.36
765.953	0.17
766.129	0.24
766.305	0.18
766.481	0.41
766.657	0.33
766.833	0.54
767.009	0.26
767.185	0.3
767.361	0.25
767.537	0.14
767.713	0.39
767.889	0.38
768.065	0.42
768.24	0.22
768.416	0.48
768.592	0.29
768.768	0.44
768.944	0.47
769.12	0.19
769.295	0.36
769.471	0.27
769.647	0.28
769.823	0.57
769.998	0.36
770.174	0.13
770.35	0.63
770.525	0.63
770.701	0.41
770.877	0.23
771.052	0.27
771.228	0.55
771.403	0.38
771.579	0.49
771.755	0.76
771.93	0.36
772.106	0.11
772.281	0.01
772.457	0.31
772.632	0.47
772.808	0.08
772.983	0.21
773.159	0.14
773.334	0.57
773.509	0.38
773.685	0.22
773.86	0.66
774.036	0.66
774.211	0.43
774.386	0.31
774.562	0.3
774.737	0.38
774.912	0.18
775.087	0.47
775.263	0.45
775.438	0.52
775.613	0.21
775.788	0.43
775.964	0.46
776.139	0.84
776.314	0.17
776.489	0.41
776.664	0.27
776.839	0.2
777.014	0.3
777.19	0.36
777.365	0.54
777.54	0.66
777.715	0.25
777.89	0.33
778.065	0.28
778.24	0.36
778.415	0.52
778.59	0.14
778.765	0.31
778.94	0.51
779.115	0.4
779.289	0.44
779.464	0.24
779.639	0.3
779.814	0.13
779.989	0.06
780.164	0.51
780.339	0.52
780.513	0.27
780.688	0.19
780.863	0.35
781.038	0.55
781.212	0.19
781.387	0.37
781.562	0.85
781.737	0.36
781.911	0.48
782.086	0.29
782.261	0.42
782.435	0.73
782.61	0.28
782.784	0.28
782.959	0.57
783.134	0.36
783.308	-0.04
783.483	0.45
783.657	0.86
783.832	0.63
784.006	0.11
784.181	0.26
784.355	0.39
784.53	0.37
784.704	0.33
784.878	0.61
785.053	0.53
785.227	0.71
785.402	0.92
785.576	0.25
785.75	0.21
785.925	0.45
786.099	0.27
786.273	0.42
786.448	0.33
786.622	0.56
786.796	0.34
786.97	0.39
787.145	1.04
787.319	0.13
787.493	0.27
787.667	0.04
787.841	0.41
788.015	0.72
788.19	0.27
788.364	0.4
788.538	0.56
788.712	0.5
788.886	0.47
789.06	0.66
789.234	0.59
789.408	0.24
789.582	0.29
789.756	0.25
789.93	0.19
790.104	0.58
790.278	0.31
790.452	0.17
790.626	0.68
790.8	0.25
790.973	0.65
791.147	0.75
791.321	0.72
791.495	0.77
791.669	0.53
791.843	0.55
792.016	0.57
792.19	1.01
792.364	0.2
792.538	1.04
792.711	0.81
792.885	0.23
793.059	0.29
793.233	0.08
793.406	0.57
793.58	0.55
793.754	0.46
793.927	0.54
794.101	0.72
794.274	0.3
794.448	0.72
794.622	0.2
794.795	1.12
794.969	0.04
795.142	0.67
795.316	0.22
795.489	0.24
795.663	0.75
795.836	0.28
796.009	0.3
796.183	0.81
796.356	0.58
796.53	0.69
796.703	0.39
796.876	1.3
797.05	0.6
797.223	0.41
797.396	0.39
797.57	0.74
797.743	0.85
797.916	0.59
798.09	0.56
798.263	0.68
798.436	0.47
798.609	0.25
798.782	0.4
798.956	0.74
799.129	0.65
799.302	0.32
799.475	0.22
799.648	0.34
799.821	0.52
799.994	0.31
800.167	-0.11
800.34	0.49
800.514	0.69
800.687	0.3
800.86	0.3
801.033	0.61
801.206	0.72
801.379	0.06
801.551	0.75
801.724	0.48
801.897	0.93
802.07	0.52
802.243	0.05
802.416	0.31
802.589	0.5
802.762	0.75
802.935	0.33
803.107	0.93
803.28	0.77
803.453	0.74
803.626	0.33
803.798	0.68
803.971	0.56
804.144	0.55
804.317	0.48
804.489	0.93
804.662	0.65
804.835	0.62
805.007	0.15
805.18	0.82
805.353	0.47
805.525	0.2
805.698	0.45
805.87	0.83
806.043	0.78
806.215	0.01
806.388	0.26
806.56	0.75
806.733	1.05
806.905	0.51
807.078	0.55
807.25	0.27
807.423	0.59
807.595	0.83
807.768	0.53
807.94	1.31
808.112	0.71
808.285	0.66
808.457	0.27
808.629	0.57
808.802	0.94
808.974	0.74
809.146	0.27
809.318	0.45
809.491	0.62
809.663	0.61
809.835	0.3
810.007	0.46
810.18	0.63
810.352	0.13
810.524	0.5
810.696	0.71
810.868	1.13
811.04	0.27
811.212	0.16
811.384	0.96
811.556	0.73
811.728	0.5
811.901	1.46
812.073	0.64
812.245	0.73
812.417	0.8
812.589	0.11
812.76	0.59
812.932	0.58
813.104	0.79
813.276	0.51
813.448	1.02
813.62	0.59
813.792	0.68
813.964	0.47
814.136	0.91
814.307	0.36
814.479	0.45
814.651	0.64
814.823	1.75
814.995	0.42
815.166	0.76
815.338	0.32
815.51	-0.03
815.681	1.59
815.853	0.66
816.025	0.9
816.196	1.34
816.368	1.22
816.54	-0.08
816.711	0.14
816.883	1.04
817.054	1.71
817.226	0.05
817.398	0.74
817.569	0.45
817.741	0.66
817.912	0.31
818.084	0.86
818.255	1.28
818.426	0.35
818.598	0.5
818.769	0.13
818.941	0.79
819.112	1.59
819.283	0.82
819.455	0.28
819.626	0.85
819.798	1.14
819.969	0.8
820.14	0.2
820.311	0.63
820.483	1.04
820.654	0.93
820.825	0.42
820.996	0.36
821.168	0.26
821.339	0.53
821.51	0
821.681	0.47
821.852	1.05
822.023	0.2
822.195	0.38
822.366	0.95
822.537	0.54
822.708	0.72
822.879	0.68
823.05	1.16
823.221	0.53
823.392	1.11
823.563	0.43
823.734	0.94
823.905	0.58
824.076	0.8
824.247	0.6
824.418	1.38
824.589	2.15
824.759	0.88
824.93	0.67
825.101	0.19
825.272	1.45
825.443	1.49
825.614	1.35
825.784	0.13
825.955	2.07
826.126	1.76
826.297	1.07
826.467	2.07
826.638	1.62
826.809	-0.22
826.98	0.55
827.15	1.01
827.321	1.01
827.492	1.52
827.662	0.55
827.833	2.05
828.003	1.26
828.174	0.06
828.345	0.26
828.515	2.29
828.686	0.6
828.856	0.42
829.027	0.56
829.197	1.44
829.368	1.28
829.538	0.71
829.709	0.52
829.879	0.71
830.049	0.96
830.22	0.54
830.39	0.91
830.56	1.69
830.731	0.63
830.901	0.62
831.072	1
831.242	1.3
831.412	1.28
831.582	0.82
831.753	-0.42
831.923	1.61
832.093	1.22
832.263	0.51
832.434	0.5
832.604	0.58
832.774	1.58
832.944	0.74
833.114	0.29
833.284	1.23
833.454	0.02
833.624	0.04
833.795	0.81
833.965	2.19
834.135	1.95
834.305	-0.05
834.475	0.11
834.645	1.1
834.815	0.62
834.985	0.4
835.155	-0.01
835.325	1.34
835.494	1.56
835.664	0.6
835.834	0.42
836.004	1.22
836.174	1.76
836.344	1
836.514	0.28
836.684	0.42
836.853	1.2
837.023	2.03
837.193	0.58
837.363	1.82
837.532	2.48
837.702	1.12
837.872	0.3
838.041	1.93
838.211	2.59
838.381	0.03
838.55	1.14
838.72	3.18
838.89	2.13
839.059	0.97
839.229	-0.52
839.398	2.33
839.568	1.41
839.738	-0.15
839.907	1.97
840.077	1.25
840.246	0.82
840.416	0.25
840.585	0.04
840.755	3.12
840.924	1.72
841.093	0.62
841.263	0.81
841.432	1.68
841.602	1.26
841.771	0.02
841.94	1.41
842.11	3.28
842.279	2.6
842.448	0.09
842.617	0.59
842.787	2.16
842.956	0.5
843.125	1.24
843.294	1.73
843.464	1.93
843.633	1.52
843.802	-0.25
843.971	0.73
844.14	1.83
844.309	2.91
844.479	-0.67
844.648	-0.49
844.817	0.48
844.986	1.31
845.155	0.44
845.324	0.58
845.493	1.25
845.662	0.11
845.831	1.41
846	1.2
846.169	1.14
846.338	3.15
846.507	1.25
846.676	1.56
846.844	0.59
847.013	2.39
847.182	1
847.351	1.45
847.52	1
847.689	1.53
847.858	0.64
848.026	0.29
848.195	1.21
848.364	1.45
848.533	0.35
848.701	0.63
848.87	1.51
849.039	3.12
849.207	2.09
849.376	2.64
849.545	2.65
849.713	0.58
849.882	1.36
850.051	0.26
850.219	0.98
850.388	1.35
850.556	0.46
850.725	0.82
850.893	1.55
851.062	2.15
851.23	2.15
851.399	-0.65
851.567	1.32
851.736	1.67
851.904	0.93
852.073	1.14
852.241	2.16
852.41	2.2
852.578	0.4
852.746	0.66
852.915	1.34
853.083	1.39
853.251	-0.73
853.42	0.83
853.588	1.12
853.756	2.57
853.924	1.37
854.093	0.67
854.261	0.7
854.429	-1.04
854.597	1.41
854.765	0.08
854.934	1.79
855.102	2.45
855.27	1.73
855.438	1.72
855.606	2.34
855.774	2.29
855.942	0.25
856.11	-0.64
856.278	0.84
856.446	1.88
856.614	2.08
856.782	1.51
856.95	1.81
857.118	2.8
857.286	1.51
857.454	0.62
857.622	1.63
857.79	1.43
857.958	1.13
858.126	0.99
858.294	0.23
858.462	1.06
858.629	0.23
858.797	0.55
858.965	2.77
859.133	2.32
859.301	0.77
859.468	2.1
859.636	1.2
859.804	4.79
859.971	2.51
860.139	0.33
860.307	2.95
860.474	1.36
860.642	1.35
860.81	2.24
860.977	0.56
861.145	3.27
861.313	1.22
861.48	2.29
861.648	2.56
861.815	1.51
861.983	0.22
862.15	1.01
862.318	1.95
862.485	2.49
862.653	0.76
862.82	1.85
862.988	3.65
863.155	3.43
863.322	1.1
863.49	0.73
863.657	1.72
863.824	3.99
863.992	2.13
864.159	1.45
864.326	0.8
864.494	1.46
864.661	4.08
864.828	-0.03
864.996	2.17
865.163	4.19
865.33	1.11
865.497	-1.01
865.664	0.99
865.832	-0.09
865.999	1.71
866.166	0.59
866.333	2.24
866.5	0.59
866.667	1.17
866.834	1.15
867.001	4.76
867.168	-0.65
867.335	2.18
867.502	-0.75
867.669	3.04
867.836	5.1
868.003	2.27
868.17	3.02
868.337	0.52
868.504	5.46
868.671	-0.54
868.838	0.02
869.005	2.46
869.172	1.33
869.339	1.05
869.505	0.62
869.672	1.79
869.839	4.69
870.006	1.31
870.173	-0.8
870.339	2.82
870.506	4.93
870.673	1.15
870.84	2.23
871.006	2.74
871.173	1.55
871.34	1.06
871.506	-0.58
871.673	2.84
871.839	-0.41
872.006	2.72
872.173	0.77
872.339	1.49
872.506	3.86
872.672	2.51
872.839	-0.33
873.005	2.78
873.172	6.39
873.338	2.99
873.505	1.54
873.671	1.87
873.838	2.42
874.004	0.92
874.171	0.62
874.337	3.82
874.503	2.29
874.67	2.03
874.836	2.23
875.002	2.97
875.169	2.64
875.335	2.25
875.501	2.18
875.668	2.55
875.834	1.29
876	1.1
876.166	2.61
876.332	2.96
876.499	7.56
876.665	1.54
876.831	2.28
876.997	6.74
877.163	3.97
877.329	2.22
877.495	2.22
877.662	3.65
877.828	2.05
877.994	2.27
878.16	-1.4
878.326	1.35
878.492	2.8
878.658	1.41
878.824	1.21
878.99	4.11
879.156	0.8
879.322	5.83
879.487	1.48
879.653	2.97
879.819	1.75
879.985	0.21
880.151	1.05
880.317	1.61
880.483	2.52
880.648	2.69
880.814	-0.22
880.98	3.96
881.146	-0.52
881.312	1.61
881.477	1.47
881.643	2.46
881.809	3.28
881.974	5.57
882.14	0.85
882.306	1.53
882.471	4.96
882.637	0.92
882.803	2.77
882.968	6.51
883.134	6.45
883.299	0.69
883.465	2.19
883.63	4.16
883.796	2.01
883.961	1.87
884.127	1.99
884.292	-1.95
884.458	-0.09
884.623	-0.09
