Data from Apollo_Calib_20240827__AbsoluteIrradiance__854__13-23-00-417.txt Node

Date: Wed Aug 28 13:23:00 BST 2024
User: biology
Spectrometer: FLMT08252
Trigger mode: 0
Integration Time (sec): 5.000000E-1
Scans to average: 5
Electric dark correction enabled: true
Nonlinearity correction enabled: false
Boxcar width: 0
XAxis mode: Wavelengths
Number of Pixels in Spectrum: 3648
>>>>>Begin Spectral Data<<<<<
179.588	-0
179.809	-0
180.03	-0
180.251	-0
180.473	-0
180.694	0
180.915	0
181.136	-0
181.357	0
181.578	-0
181.799	0
182.02	-0
182.241	-0
182.462	-0
182.683	0
182.904	-0
183.125	-0
183.346	0
183.567	0
183.788	0
184.009	0
184.23	0
184.451	0
184.672	0
184.892	0
185.113	0
185.334	0
185.555	0
185.776	0
185.996	0
186.217	0
186.438	0
186.659	0
186.879	0
187.1	0
187.321	0
187.541	0
187.762	0
187.983	0
188.203	0
188.424	0
188.644	0
188.865	0
189.086	0
189.306	0
189.527	0
189.747	0
189.968	0
190.188	0
190.409	0
190.629	0
190.849	0
191.07	0
191.29	0
191.511	0
191.731	0
191.951	0
192.172	0
192.392	0
192.612	0
192.833	0
193.053	0
193.273	0
193.493	0
193.714	0
193.934	0
194.154	0
194.374	0
194.594	0
194.815	0
195.035	0
195.255	0
195.475	0
195.695	0
195.915	0
196.135	0
196.355	0
196.575	0
196.795	0
197.015	0
197.235	0
197.455	0
197.675	0
197.895	0
198.115	0
198.335	0
198.555	0
198.775	0
198.995	0
199.214	0
199.434	0
199.654	0
199.874	0
200.094	4.38
200.313	2.14
200.533	1.66
200.753	1.46
200.973	4.16
201.192	4.06
201.412	1.42
201.632	2.23
201.851	3.7
202.071	2.11
202.291	1.81
202.51	1.89
202.73	2.94
202.95	1.94
203.169	1.28
203.389	1.72
203.608	2.23
203.828	1.56
204.047	1.43
204.267	2.26
204.486	2.32
204.706	2.25
204.925	1.82
205.145	1.4
205.364	2.4
205.583	2.87
205.803	1.27
206.022	1.37
206.242	1.94
206.461	1.62
206.68	1.1
206.9	1.75
207.119	2.75
207.338	2.26
207.557	1.34
207.777	1.56
207.996	1.36
208.215	2.14
208.434	0.93
208.654	0.94
208.873	1.46
209.092	2.26
209.311	1.28
209.53	1.21
209.749	1.48
209.968	1.03
210.187	1.08
210.407	0.65
210.626	1.36
210.845	1.58
211.064	1.19
211.283	0.97
211.502	1.39
211.721	1.12
211.94	1.14
212.159	1.19
212.377	1.55
212.596	1.67
212.815	1.17
213.034	1.41
213.253	1.52
213.472	1.25
213.691	1.28
213.91	0.72
214.128	0.72
214.347	1.51
214.566	0.42
214.785	0.55
215.003	1.33
215.222	1.45
215.441	0.9
215.66	0.46
215.878	1.25
216.097	1.24
216.316	0.79
216.534	0.81
216.753	1.18
216.972	0.82
217.19	0.96
217.409	0.67
217.627	0.91
217.846	0.95
218.064	1.03
218.283	0.68
218.501	1.66
218.72	1.24
218.938	0.6
219.157	0.77
219.375	1.18
219.594	1.21
219.812	0.57
220.031	0.57
220.249	1.52
220.467	1.23
220.686	0.56
220.904	0.66
221.122	0.7
221.341	1.37
221.559	0.87
221.777	0.51
221.995	0.83
222.214	1.09
222.432	0.59
222.65	0.9
222.868	0.75
223.086	0.78
223.305	0.88
223.523	0.68
223.741	1.25
223.959	0.76
224.177	0.29
224.395	0.6
224.613	0.89
224.831	1.17
225.049	0.59
225.267	0.57
225.485	0.82
225.703	0.67
225.921	0.65
226.139	0.62
226.357	0.87
226.575	0.84
226.793	0.65
227.011	1.64
227.229	0.82
227.447	0.85
227.665	0.61
227.883	0.33
228.1	0.65
228.318	0.77
228.536	0.26
228.754	0.35
228.972	0.83
229.189	0.88
229.407	0.56
229.625	0.54
229.843	1.01
230.06	0.81
230.278	0.5
230.496	0.66
230.713	0.59
230.931	0.84
231.149	0.4
231.366	0.25
231.584	0.54
231.801	1.05
232.019	0.52
232.236	0.47
232.454	0.41
232.671	0.69
232.889	0.5
233.106	0.4
233.324	0.65
233.541	0.69
233.759	0.59
233.976	0.4
234.194	0.58
234.411	0.61
234.628	0.39
234.846	0.34
235.063	0.6
235.28	0.56
235.498	0.48
235.715	0.33
235.932	0.87
236.149	0.54
236.367	0.44
236.584	0.5
236.801	0.53
237.018	0.71
237.236	0.58
237.453	0.33
237.67	0.76
237.887	0.47
238.104	0.53
238.321	0.32
238.538	0.41
238.755	0.77
238.973	0.27
239.19	0.42
239.407	0.6
239.624	0.64
239.841	0.43
240.058	0.26
240.275	0.53
240.492	0.53
240.709	0.52
240.925	0.42
241.142	0.54
241.359	0.46
241.576	0.33
241.793	0.34
242.01	0.45
242.227	0.79
242.444	0.46
242.66	0.63
242.877	0.41
243.094	0.46
243.311	0.46
243.527	0.42
243.744	0.58
243.961	0.6
244.178	0.35
244.394	0.42
244.611	0.56
244.828	0.82
245.044	0.29
245.261	0.38
245.477	0.53
245.694	0.61
245.911	0.4
246.127	0.44
246.344	0.66
246.56	0.6
246.777	0.37
246.993	0.48
247.21	0.54
247.426	0.52
247.643	0.4
247.859	0.33
248.076	0.37
248.292	0.76
248.508	0.41
248.725	0.51
248.941	0.47
249.157	0.57
249.374	0.32
249.59	0.43
249.806	0.45
250.023	0.66
250.239	0.37
250.455	0.27
250.671	0.32
250.888	0.55
251.104	0.47
251.32	0.41
251.536	0.45
251.752	0.49
251.969	0.4
252.185	0.31
252.401	0.61
252.617	0.47
252.833	0.32
253.049	0.46
253.265	0.47
253.481	0.38
253.697	0.27
253.913	0.39
254.129	0.5
254.345	0.44
254.561	0.38
254.777	0.39
254.993	0.54
255.209	0.41
255.425	0.37
255.641	0.33
255.857	0.55
256.073	0.4
256.288	0.22
256.504	0.31
256.72	0.39
256.936	0.63
257.152	0.34
257.367	0.26
257.583	0.49
257.799	0.54
258.015	0.35
258.23	0.33
258.446	0.56
258.662	0.31
258.877	0.3
259.093	0.31
259.309	0.4
259.524	0.52
259.74	0.35
259.955	0.34
260.171	0.41
260.387	0.41
260.602	0.39
260.818	0.46
261.033	0.27
261.249	0.4
261.464	0.34
261.68	0.25
261.895	0.45
262.11	0.46
262.326	0.32
262.541	0.29
262.757	0.54
262.972	0.39
263.187	0.34
263.403	0.4
263.618	0.49
263.833	0.4
264.049	0.26
264.264	0.32
264.479	0.41
264.694	0.52
264.91	0.27
265.125	0.34
265.34	0.45
265.555	0.58
265.77	0.34
265.986	0.34
266.201	0.52
266.416	0.56
266.631	0.37
266.846	0.34
267.061	0.49
267.276	0.39
267.491	0.24
267.706	0.43
267.921	0.41
268.136	0.38
268.351	0.4
268.566	0.24
268.781	0.43
268.996	0.44
269.211	0.36
269.426	0.27
269.641	0.27
269.856	0.49
270.071	0.29
270.285	0.3
270.5	0.45
270.715	0.45
270.93	0.32
271.145	0.38
271.359	0.48
271.574	0.33
271.789	0.33
272.004	0.35
272.218	0.34
272.433	0.38
272.648	0.25
272.862	0.39
273.077	0.38
273.292	0.33
273.506	0.34
273.721	0.33
273.936	0.45
274.15	0.34
274.365	0.24
274.579	0.39
274.794	0.41
275.008	0.49
275.223	0.21
275.437	0.3
275.652	0.35
275.866	0.39
276.081	0.29
276.295	0.42
276.509	0.29
276.724	0.32
276.938	0.35
277.153	0.38
277.367	0.43
277.581	0.31
277.796	0.27
278.01	0.27
278.224	0.42
278.438	0.48
278.653	0.27
278.867	0.27
279.081	0.25
279.295	0.32
279.51	0.32
279.724	0.2
279.938	0.36
280.152	0.4
280.366	0.28
280.58	0.3
280.794	0.54
281.008	0.4
281.222	0.34
281.437	0.44
281.651	0.35
281.865	0.38
282.079	0.3
282.293	0.17
282.507	0.29
282.721	0.3
282.935	0.27
283.148	0.19
283.362	0.26
283.576	0.21
283.79	0.29
284.004	0.23
284.218	0.44
284.432	0.32
284.646	0.31
284.859	0.28
285.073	0.28
285.287	0.33
285.501	0.29
285.714	0.31
285.928	0.37
286.142	0.3
286.356	0.24
286.569	0.23
286.783	0.45
286.997	0.35
287.21	0.34
287.424	0.3
287.637	0.23
287.851	0.28
288.065	0.35
288.278	0.28
288.492	0.32
288.705	0.32
288.919	0.29
289.132	0.2
289.346	0.36
289.559	0.28
289.773	0.25
289.986	0.32
290.2	0.31
290.413	0.39
290.626	0.27
290.84	0.26
291.053	0.27
291.267	0.34
291.48	0.34
291.693	0.31
291.906	0.24
292.12	0.32
292.333	0.24
292.546	0.29
292.76	0.39
292.973	0.34
293.186	0.36
293.399	0.28
293.612	0.44
293.826	0.26
294.039	0.27
294.252	0.2
294.465	0.38
294.678	0.33
294.891	0.29
295.104	0.26
295.317	0.25
295.53	0.32
295.743	0.3
295.956	0.23
296.169	0.42
296.382	0.33
296.595	0.24
296.808	0.21
297.021	0.42
297.234	0.33
297.447	0.28
297.66	0.31
297.873	0.36
298.086	0.33
298.299	0.24
298.511	0.17
298.724	0.26
298.937	0.24
299.15	0.23
299.363	0.21
299.575	0.34
299.788	0.29
300.001	0.21
300.213	0.26
300.426	0.24
300.639	0.23
300.852	0.28
301.064	0.33
301.277	0.39
301.489	0.3
301.702	0.31
301.915	0.26
302.127	0.33
302.34	0.28
302.552	0.32
302.765	0.21
302.977	0.31
303.19	0.27
303.402	0.28
303.615	0.23
303.827	0.26
304.04	0.31
304.252	0.34
304.464	0.23
304.677	0.4
304.889	0.27
305.102	0.25
305.314	0.23
305.526	0.25
305.739	0.32
305.951	0.19
306.163	0.21
306.375	0.32
306.588	0.24
306.8	0.26
307.012	0.2
307.224	0.31
307.436	0.32
307.649	0.18
307.861	0.26
308.073	0.31
308.285	0.26
308.497	0.19
308.709	0.18
308.921	0.31
309.133	0.35
309.346	0.22
309.558	0.28
309.77	0.31
309.982	0.37
310.194	0.32
310.406	0.24
310.617	0.38
310.829	0.27
311.041	0.31
311.253	0.27
311.465	0.28
311.677	0.3
311.889	0.25
312.101	0.19
312.313	0.37
312.524	0.35
312.736	0.22
312.948	0.26
313.16	0.39
313.372	0.34
313.583	0.29
313.795	0.23
314.007	0.28
314.218	0.29
314.43	0.25
314.642	0.2
314.853	0.18
315.065	0.32
315.277	0.26
315.488	0.25
315.7	0.28
315.912	0.33
316.123	0.22
316.335	0.21
316.546	0.36
316.758	0.26
316.969	0.27
317.181	0.3
317.392	0.24
317.604	0.33
317.815	0.24
318.026	0.22
318.238	0.21
318.449	0.31
318.661	0.17
318.872	0.19
319.083	0.27
319.295	0.32
319.506	0.24
319.717	0.28
319.929	0.33
320.14	0.22
320.351	0.26
320.562	0.22
320.774	0.29
320.985	0.32
321.196	0.22
321.407	0.17
321.618	0.31
321.829	0.31
322.041	0.3
322.252	0.27
322.463	0.35
322.674	0.33
322.885	0.18
323.096	0.21
323.307	0.26
323.518	0.28
323.729	0.25
323.94	0.26
324.151	0.27
324.362	0.34
324.573	0.29
324.784	0.26
324.995	0.35
325.206	0.29
325.417	0.27
325.628	0.24
325.838	0.25
326.049	0.32
326.26	0.3
326.471	0.21
326.682	0.32
326.892	0.28
327.103	0.21
327.314	0.24
327.525	0.36
327.735	0.28
327.946	0.24
328.157	0.19
328.368	0.33
328.578	0.26
328.789	0.34
328.999	0.21
329.21	0.27
329.421	0.31
329.631	0.23
329.842	0.21
330.052	0.27
330.263	0.32
330.473	0.29
330.684	0.2
330.894	0.25
331.105	0.28
331.315	0.29
331.526	0.21
331.736	0.37
331.947	0.28
332.157	0.29
332.367	0.21
332.578	0.34
332.788	0.36
332.999	0.33
333.209	0.23
333.419	0.21
333.629	0.33
333.84	0.29
334.05	0.23
334.26	0.39
334.47	0.27
334.681	0.31
334.891	0.24
335.101	0.32
335.311	0.36
335.521	0.27
335.732	0.19
335.942	0.34
336.152	0.3
336.362	0.31
336.572	0.27
336.782	0.35
336.992	0.22
337.202	0.2
337.412	0.23
337.622	0.29
337.832	0.25
338.042	0.32
338.252	0.2
338.462	0.26
338.672	0.34
338.882	0.27
339.092	0.22
339.302	0.34
339.511	0.28
339.721	0.24
339.931	0.22
340.141	0.31
340.351	0.29
340.561	0.27
340.77	0.26
340.98	0.29
341.19	0.31
341.4	0.26
341.609	0.19
341.819	0.25
342.029	0.21
342.238	0.32
342.448	0.23
342.658	0.34
342.867	0.2
343.077	0.27
343.286	0.27
343.496	0.27
343.706	0.41
343.915	0.24
344.125	0.27
344.334	0.23
344.544	0.22
344.753	0.2
344.963	0.2
345.172	0.23
345.381	0.25
345.591	0.18
345.8	0.25
346.01	0.32
346.219	0.34
346.428	0.12
346.638	0.24
346.847	0.25
347.056	0.37
347.266	0.23
347.475	0.21
347.684	0.29
347.893	0.34
348.103	0.26
348.312	0.24
348.521	0.24
348.73	0.29
348.94	0.21
349.149	0.26
349.358	0.27
349.567	0.22
349.776	0.17
349.985	0.27
350.194	0.3
350.403	0.26
350.612	0.18
350.821	0.21
351.03	0.3
351.239	0.2
351.448	0.28
351.657	0.2
351.866	0.37
352.075	0.29
352.284	0.31
352.493	0.22
352.702	0.35
352.911	0.27
353.12	0.25
353.329	0.21
353.538	0.26
353.746	0.25
353.955	0.2
354.164	0.28
354.373	0.25
354.582	0.34
354.79	0.25
354.999	0.3
355.208	0.26
355.416	0.35
355.625	0.18
355.834	0.23
356.042	0.23
356.251	0.25
356.46	0.21
356.668	0.27
356.877	0.38
357.085	0.33
357.294	0.15
357.503	0.24
357.711	0.25
357.92	0.43
358.128	0.25
358.337	0.22
358.545	0.28
358.754	0.23
358.962	0.28
359.17	0.25
359.379	0.26
359.587	0.29
359.796	0.3
360.004	0.36
360.212	0.31
360.421	0.32
360.629	0.26
360.837	0.23
361.046	0.29
361.254	0.39
361.462	0.25
361.67	0.24
361.879	0.26
362.087	0.37
362.295	0.24
362.503	0.22
362.711	0.2
362.92	0.22
363.128	0.24
363.336	0.19
363.544	0.18
363.752	0.25
363.96	0.21
364.168	0.21
364.376	0.29
364.584	0.28
364.792	0.33
365	0.27
365.208	0.22
365.416	0.28
365.624	0.3
365.832	0.19
366.04	0.35
366.248	0.29
366.456	0.26
366.664	0.27
366.872	0.26
367.079	0.24
367.287	0.23
367.495	0.25
367.703	0.24
367.911	0.27
368.118	0.25
368.326	0.24
368.534	0.23
368.742	0.36
368.949	0.21
369.157	0.24
369.365	0.33
369.572	0.26
369.78	0.19
369.988	0.29
370.195	0.25
370.403	0.35
370.61	0.23
370.818	0.27
371.026	0.37
371.233	0.24
371.441	0.25
371.648	0.23
371.856	0.25
372.063	0.3
372.271	0.26
372.478	0.27
372.685	0.23
372.893	0.35
373.1	0.27
373.308	0.23
373.515	0.4
373.722	0.36
373.93	0.27
374.137	0.3
374.344	0.37
374.552	0.32
374.759	0.29
374.966	0.25
375.173	0.23
375.381	0.31
375.588	0.26
375.795	0.15
376.002	0.24
376.209	0.25
376.417	0.24
376.624	0.32
376.831	0.28
377.038	0.25
377.245	0.18
377.452	0.24
377.659	0.29
377.866	0.26
378.073	0.31
378.28	0.25
378.487	0.3
378.694	0.35
378.901	0.29
379.108	0.25
379.315	0.34
379.522	0.39
379.729	0.28
379.936	0.2
380.143	0.28
380.35	0.26
380.557	0.27
380.763	0.28
380.97	0.27
381.177	0.28
381.384	0.32
381.591	0.19
381.797	0.29
382.004	0.34
382.211	0.32
382.418	0.23
382.624	0.31
382.831	0.3
383.038	0.27
383.244	0.3
383.451	0.28
383.658	0.3
383.864	0.25
384.071	0.23
384.277	0.36
384.484	0.24
384.69	0.39
384.897	0.25
385.103	0.27
385.31	0.26
385.516	0.26
385.723	0.18
385.929	0.31
386.136	0.28
386.342	0.32
386.549	0.26
386.755	0.36
386.961	0.33
387.168	0.27
387.374	0.27
387.58	0.36
387.787	0.31
387.993	0.32
388.199	0.29
388.406	0.28
388.612	0.25
388.818	0.27
389.024	0.23
389.231	0.3
389.437	0.44
389.643	0.28
389.849	0.29
390.055	0.31
390.261	0.3
390.467	0.31
390.674	0.28
390.88	0.28
391.086	0.33
391.292	0.25
391.498	0.33
391.704	0.36
391.91	0.29
392.116	0.27
392.322	0.22
392.528	0.35
392.734	0.3
392.94	0.33
393.146	0.25
393.352	0.32
393.557	0.33
393.763	0.29
393.969	0.33
394.175	0.28
394.381	0.34
394.587	0.25
394.792	0.28
394.998	0.4
395.204	0.37
395.41	0.32
395.615	0.37
395.821	0.35
396.027	0.38
396.233	0.33
396.438	0.32
396.644	0.4
396.85	0.35
397.055	0.31
397.261	0.32
397.466	0.47
397.672	0.32
397.878	0.41
398.083	0.37
398.289	0.31
398.494	0.4
398.7	0.4
398.905	0.24
399.111	0.45
399.316	0.31
399.522	0.36
399.727	0.36
399.932	0.37
400.138	0.32
400.343	0.33
400.549	0.37
400.754	0.41
400.959	0.37
401.165	0.35
401.37	0.39
401.575	0.35
401.78	0.43
401.986	0.37
402.191	0.36
402.396	0.38
402.601	0.4
402.807	0.44
403.012	0.36
403.217	0.46
403.422	0.44
403.627	0.44
403.832	0.34
404.037	0.46
404.243	0.43
404.448	0.39
404.653	0.37
404.858	0.47
405.063	0.45
405.268	0.38
405.473	0.41
405.678	0.43
405.883	0.62
406.088	0.47
406.293	0.41
406.498	0.47
406.703	0.5
406.907	0.49
407.112	0.41
407.317	0.52
407.522	0.59
407.727	0.52
407.932	0.51
408.136	0.64
408.341	0.53
408.546	0.6
408.751	0.56
408.956	0.57
409.16	0.64
409.365	0.65
409.57	0.57
409.774	0.57
409.979	0.69
410.184	0.69
410.388	0.6
410.593	0.79
410.798	0.69
411.002	0.72
411.207	0.79
411.411	0.82
411.616	0.75
411.82	0.78
412.025	0.86
412.229	0.84
412.434	0.98
412.638	0.83
412.843	0.84
413.047	0.94
413.252	0.92
413.456	0.95
413.66	1.02
413.865	1.02
414.069	1.14
414.273	1.07
414.478	1.04
414.682	1.08
414.886	1.19
415.091	1.14
415.295	1.16
415.499	1.29
415.703	1.3
415.908	1.38
416.112	1.32
416.316	1.47
416.52	1.48
416.724	1.38
416.929	1.48
417.133	1.77
417.337	1.63
417.541	1.68
417.745	1.73
417.949	1.86
418.153	1.88
418.357	1.89
418.561	2.12
418.765	2.08
418.969	2.18
419.173	2.22
419.377	2.24
419.581	2.49
419.785	2.46
419.989	2.45
420.193	2.56
420.397	2.69
420.601	2.81
420.804	2.84
421.008	2.84
421.212	2.98
421.416	2.96
421.62	3.03
421.823	3.11
422.027	3.29
422.231	3.26
422.435	3.18
422.638	3.29
422.842	3.41
423.046	3.41
423.249	3.68
423.453	3.55
423.657	3.75
423.86	3.89
424.064	4.02
424.268	4.18
424.471	4.13
424.675	4.39
424.878	4.39
425.082	4.45
425.285	4.75
425.489	4.7
425.692	4.75
425.896	4.87
426.099	5.07
426.303	5.17
426.506	5.27
426.71	5.55
426.913	5.63
427.116	5.94
427.32	5.83
427.523	5.92
427.726	6.19
427.93	6.31
428.133	6.52
428.336	6.68
428.54	6.83
428.743	7.07
428.946	7.42
429.149	7.27
429.353	7.39
429.556	7.46
429.759	7.45
429.962	7.55
430.165	7.83
430.368	7.45
430.571	7.55
430.775	7.65
430.978	7.52
431.181	7.66
431.384	7.75
431.587	7.91
431.79	8.29
431.993	8.19
432.196	8.52
432.399	8.76
432.602	9.01
432.805	8.99
433.008	9.59
433.211	9.48
433.414	9.81
433.616	9.87
433.819	9.75
434.022	9.94
434.225	10.08
434.428	10.1
434.631	10.56
434.833	10.2
435.036	10.58
435.239	10.78
435.442	10.91
435.645	11.06
435.847	11.18
436.05	11.45
436.253	11.62
436.455	11.59
436.658	11.55
436.861	11.78
437.063	12
437.266	11.78
437.468	12.32
437.671	12.52
437.874	12.64
438.076	12.45
438.279	12.85
438.481	12.95
438.684	13.61
438.886	13.22
439.089	13.46
439.291	13.5
439.494	13.98
439.696	14.18
439.899	14.46
440.101	15
440.303	15.14
440.506	15.89
440.708	15.65
440.91	15.84
441.113	16.07
441.315	16.38
441.517	16.02
441.72	16.51
441.922	16.22
442.124	16.14
442.326	16.61
442.529	16.71
442.731	16.77
442.933	16.99
443.135	16.82
443.337	16.77
443.539	17.24
443.742	16.91
443.944	17.62
444.146	17.4
444.348	17.42
444.55	17.25
444.752	17.52
444.954	17.49
445.156	17.45
445.358	17.86
445.56	18.13
445.762	17.89
445.964	18.22
446.166	18.08
446.368	17.96
446.57	18.06
446.772	17.69
446.974	17.66
447.175	17.92
447.377	17.52
447.579	17.98
447.781	17.56
447.983	17.58
448.184	17.08
448.386	17.54
448.588	17.12
448.79	17.13
448.991	17.43
449.193	17.36
449.395	16.73
449.597	16.41
449.798	16.34
450	15.97
450.202	15.9
450.403	15.91
450.605	15.81
450.806	15.47
451.008	15.36
451.21	15.27
451.411	14.79
451.613	14.04
451.814	14.3
452.016	14.26
452.217	13.58
452.419	13.67
452.62	13.33
452.821	12.97
453.023	12.9
453.224	12.49
453.426	12.17
453.627	11.5
453.828	11.63
454.03	11.72
454.231	11.66
454.432	11.48
454.634	11.26
454.835	10.92
455.036	10.86
455.238	10.37
455.439	10.25
455.64	9.85
455.841	9.83
456.042	10.04
456.244	9.53
456.445	9.26
456.646	9.09
456.847	9
457.048	8.87
457.249	8.85
457.45	8.66
457.651	8.02
457.852	7.95
458.054	7.55
458.255	7.49
458.456	7.61
458.657	7.49
458.858	7.05
459.058	7.03
459.259	7.09
459.46	6.79
459.661	6.69
459.862	6.76
460.063	6.64
460.264	6.56
460.465	6.27
460.666	6.37
460.866	6.01
461.067	5.78
461.268	5.81
461.469	5.77
461.67	5.64
461.87	5.42
462.071	5.5
462.272	5.48
462.473	5.32
462.673	5.49
462.874	5.45
463.075	5.4
463.275	5.33
463.476	5.38
463.676	5.27
463.877	5.1
464.078	5.14
464.278	5.21
464.479	5.03
464.679	4.94
464.88	4.99
465.08	4.87
465.281	4.66
465.481	4.48
465.682	4.25
465.882	4.43
466.083	4.29
466.283	4.2
466.483	4.08
466.684	3.87
466.884	3.81
467.085	3.83
467.285	3.94
467.485	3.77
467.686	3.7
467.886	3.54
468.086	3.58
468.286	3.5
468.487	3.66
468.687	3.49
468.887	3.39
469.087	3.6
469.287	3.43
469.488	3.2
469.688	3.39
469.888	3.36
470.088	3.28
470.288	3.22
470.488	3.2
470.688	3.08
470.888	3.03
471.088	2.83
471.288	2.97
471.488	2.97
471.688	2.93
471.888	2.82
472.088	3.02
472.288	2.94
472.488	2.77
472.688	2.65
472.888	2.8
473.088	2.74
473.288	2.65
473.488	2.61
473.688	2.76
473.887	2.63
474.087	2.57
474.287	2.6
474.487	2.52
474.687	2.54
474.886	2.5
475.086	2.46
475.286	2.43
475.486	2.44
475.685	2.37
475.885	2.28
476.085	2.39
476.284	2.4
476.484	2.35
476.684	2.29
476.883	2.47
477.083	2.29
477.282	2.24
477.482	2.31
477.681	2.26
477.881	2.15
478.08	2.2
478.28	2.11
478.479	2.16
478.679	2.24
478.878	2.16
479.078	2.14
479.277	2.16
479.477	2.15
479.676	2.13
479.875	2.12
480.075	2.03
480.274	2.1
480.473	2.16
480.673	2.13
480.872	2.19
481.071	2.11
481.271	2.13
481.47	2.07
481.669	2.1
481.868	2.04
482.067	2.04
482.267	1.99
482.466	2.02
482.665	1.98
482.864	2.04
483.063	1.98
483.262	2.09
483.461	2.12
483.661	2.17
483.86	2.08
484.059	2.11
484.258	2.16
484.457	2.04
484.656	2.08
484.855	2.19
485.054	1.97
485.253	2.02
485.452	2.02
485.651	2.13
485.849	2.13
486.048	2.05
486.247	2.1
486.446	2.17
486.645	2.08
486.844	2.14
487.043	2.08
487.241	2.16
487.44	2.14
487.639	2.19
487.838	2.17
488.037	2.14
488.235	2.27
488.434	2.23
488.633	2.1
488.831	2.28
489.03	2.31
489.229	2.22
489.427	2.28
489.626	2.33
489.825	2.32
490.023	2.37
490.222	2.3
490.42	2.38
490.619	2.4
490.817	2.39
491.016	2.4
491.214	2.48
491.413	2.46
491.611	2.42
491.81	2.41
492.008	2.49
492.207	2.59
492.405	2.55
492.604	2.46
492.802	2.56
493	2.62
493.199	2.69
493.397	2.64
493.595	2.7
493.794	2.68
493.992	2.76
494.19	2.76
494.388	2.82
494.587	2.78
494.785	2.81
494.983	2.72
495.181	2.91
495.379	2.94
495.578	2.92
495.776	2.97
495.974	2.93
496.172	2.97
496.37	3.12
496.568	3.09
496.766	3.05
496.964	3.18
497.162	3.21
497.36	3.2
497.558	3.25
497.756	3.31
497.954	3.33
498.152	3.34
498.35	3.41
498.548	3.37
498.746	3.36
498.944	3.39
499.142	3.42
499.34	3.53
499.538	3.6
499.736	3.49
499.933	3.65
500.131	3.64
500.329	3.77
500.527	3.67
500.725	3.84
500.922	3.89
501.12	3.81
501.318	3.93
501.516	3.92
501.713	3.96
501.911	3.97
502.109	3.99
502.306	4.02
502.504	3.95
502.701	4.1
502.899	4.13
503.097	4.31
503.294	4.18
503.492	4.27
503.689	4.34
503.887	4.34
504.084	4.48
504.282	4.38
504.479	4.37
504.677	4.52
504.874	4.49
505.072	4.44
505.269	4.58
505.466	4.67
505.664	4.7
505.861	4.57
506.059	4.74
506.256	4.75
506.453	4.84
506.651	4.9
506.848	4.95
507.045	4.92
507.242	4.89
507.44	4.93
507.637	5.03
507.834	5.01
508.031	5.18
508.229	5.07
508.426	5.02
508.623	5.24
508.82	5.21
509.017	5.22
509.214	5.23
509.411	5.33
509.608	5.24
509.805	5.45
510.003	5.38
510.2	5.39
510.397	5.6
510.594	5.51
510.791	5.55
510.988	5.62
511.184	5.55
511.381	5.46
511.578	5.6
511.775	5.75
511.972	5.64
512.169	5.77
512.366	5.76
512.563	5.86
512.76	5.92
512.956	5.85
513.153	5.87
513.35	5.83
513.547	5.82
513.744	5.98
513.94	5.92
514.137	6.14
514.334	6
514.53	6.1
514.727	6.33
514.924	6.26
515.12	6.2
515.317	6.21
515.514	6.08
515.71	6.09
515.907	6.32
516.103	6.33
516.3	6.25
516.497	6.42
516.693	6.35
516.89	6.4
517.086	6.43
517.283	6.46
517.479	6.33
517.676	6.53
517.872	6.52
518.068	6.55
518.265	6.57
518.461	6.53
518.658	6.63
518.854	6.67
519.05	6.7
519.247	6.74
519.443	6.7
519.639	6.83
519.836	6.69
520.032	6.63
520.228	6.86
520.424	6.81
520.621	6.86
520.817	6.92
521.013	6.82
521.209	7
521.405	6.98
521.601	6.97
521.798	6.92
521.994	6.91
522.19	6.89
522.386	6.89
522.582	7.1
522.778	7.1
522.974	7.12
523.17	7.11
523.366	7
523.562	7.11
523.758	7.12
523.954	6.94
524.15	7.22
524.346	7.18
524.542	7.18
524.738	7.09
524.934	7.32
525.129	7.24
525.325	7.17
525.521	7.14
525.717	7.47
525.913	7.26
526.109	7.26
526.304	7.33
526.5	7.35
526.696	7.37
526.892	7.3
527.087	7.55
527.283	7.48
527.479	7.43
527.674	7.24
527.87	7.42
528.066	7.43
528.261	7.43
528.457	7.36
528.653	7.55
528.848	7.48
529.044	7.6
529.239	7.43
529.435	7.46
529.63	7.44
529.826	7.44
530.021	7.49
530.217	7.55
530.412	7.48
530.608	7.56
530.803	7.51
530.999	7.39
531.194	7.52
531.389	7.58
531.585	7.54
531.78	7.71
531.975	7.64
532.171	7.7
532.366	7.61
532.561	7.73
532.757	7.65
532.952	7.8
533.147	7.57
533.342	7.69
533.538	7.58
533.733	7.81
533.928	7.45
534.123	7.74
534.318	7.67
534.513	7.6
534.709	7.82
534.904	7.83
535.099	7.85
535.294	7.78
535.489	7.86
535.684	7.72
535.879	7.75
536.074	7.84
536.269	7.79
536.464	7.85
536.659	7.77
536.854	7.78
537.049	7.86
537.244	7.82
537.439	7.81
537.634	7.9
537.828	7.91
538.023	7.85
538.218	7.79
538.413	7.78
538.608	7.88
538.803	7.84
538.997	7.9
539.192	7.87
539.387	7.83
539.582	7.8
539.776	7.79
539.971	7.94
540.166	8.02
540.36	7.81
540.555	8
540.75	7.86
540.944	7.99
541.139	7.94
541.334	7.96
541.528	7.91
541.723	8.03
541.917	7.97
542.112	7.84
542.306	7.86
542.501	7.89
542.695	7.92
542.89	7.82
543.084	7.99
543.279	7.98
543.473	7.98
543.668	7.98
543.862	7.86
544.056	7.88
544.251	8
544.445	8.03
544.64	8.07
544.834	7.76
545.028	7.62
545.222	8.02
545.417	8.2
545.611	8
545.805	8
546	7.82
546.194	8.06
546.388	8.02
546.582	7.93
546.776	7.94
546.97	8.04
547.165	7.96
547.359	7.94
547.553	7.92
547.747	7.97
547.941	8.18
548.135	7.93
548.329	8.05
548.523	8.09
548.717	7.93
548.911	7.89
549.105	7.89
549.299	8.07
549.493	8
549.687	7.95
549.881	8.11
550.075	8.05
550.269	7.9
550.463	8.09
550.657	8
550.85	8
551.044	7.98
551.238	8.04
551.432	8.05
551.626	8.13
551.82	8.08
552.013	7.94
552.207	8.06
552.401	8.09
552.594	7.96
552.788	8
552.982	7.99
553.176	7.92
553.369	8.11
553.563	8.12
553.756	8
553.95	8.1
554.144	8.06
554.337	8.11
554.531	7.91
554.724	8.06
554.918	8.13
555.111	8.1
555.305	8.05
555.498	8.01
555.692	8.17
555.885	8.11
556.079	8.02
556.272	8.02
556.466	8.07
556.659	7.98
556.852	8.12
557.046	7.97
557.239	7.87
557.432	8
557.626	8.08
557.819	8.13
558.012	8.06
558.206	8.18
558.399	8.09
558.592	7.97
558.785	7.96
558.979	8.04
559.172	8
559.365	8.09
559.558	8.04
559.751	7.96
559.944	8.07
560.138	8
560.331	8.07
560.524	8.07
560.717	8.03
560.91	8.02
561.103	8.11
561.296	7.96
561.489	8.04
561.682	8.12
561.875	8.07
562.068	8.1
562.261	8.01
562.454	8.2
562.647	8.03
562.84	8.05
563.032	8.01
563.225	7.99
563.418	8
563.611	8.09
563.804	8.09
563.997	7.91
564.19	7.82
564.382	8.08
564.575	8.03
564.768	7.95
564.961	8.12
565.153	7.96
565.346	7.88
565.539	8.07
565.731	8.03
565.924	8.12
566.117	8.13
566.309	8.02
566.502	8.02
566.695	7.9
566.887	8.03
567.08	8.03
567.272	8.09
567.465	7.93
567.657	8.09
567.85	7.94
568.042	8.04
568.235	8.06
568.427	7.9
568.62	7.96
568.812	7.94
569.005	8.07
569.197	7.9
569.389	8.04
569.582	8.05
569.774	8.04
569.966	7.94
570.159	7.9
570.351	7.9
570.543	7.92
570.736	7.92
570.928	7.78
571.12	7.98
571.312	7.85
571.505	7.68
571.697	7.95
571.889	7.98
572.081	7.92
572.273	7.8
572.465	7.93
572.658	7.92
572.85	7.94
573.042	7.94
573.234	7.85
573.426	7.94
573.618	7.83
573.81	7.95
574.002	7.85
574.194	7.89
574.386	7.83
574.578	7.74
574.77	7.8
574.962	7.89
575.154	7.78
575.346	7.73
575.538	7.79
575.729	7.84
575.921	7.87
576.113	7.85
576.305	7.86
576.497	7.9
576.689	7.7
576.88	7.66
577.072	7.89
577.264	7.8
577.456	7.82
577.647	7.72
577.839	7.88
578.031	7.76
578.223	7.68
578.414	7.6
578.606	7.81
578.798	7.75
578.989	7.78
579.181	7.78
579.372	7.83
579.564	7.79
579.755	7.68
579.947	7.67
580.139	7.81
580.33	7.58
580.522	7.69
580.713	7.63
580.905	7.6
581.096	7.78
581.287	7.66
581.479	7.65
581.67	7.68
581.862	7.62
582.053	7.63
582.244	7.51
582.436	7.76
582.627	7.62
582.818	7.51
583.01	7.58
583.201	7.65
583.392	7.6
583.583	7.53
583.775	7.4
583.966	7.52
584.157	7.55
584.348	7.59
584.54	7.5
584.731	7.52
584.922	7.4
585.113	7.43
585.304	7.53
585.495	7.48
585.686	7.54
585.877	7.48
586.068	7.57
586.259	7.51
586.45	7.37
586.641	7.48
586.832	7.51
587.023	7.42
587.214	7.41
587.405	7.44
587.596	7.33
587.787	7.37
587.978	7.36
588.169	7.34
588.36	7.27
588.551	7.36
588.742	7.29
588.932	7.38
589.123	7.15
589.314	7.44
589.505	7.3
589.696	7.25
589.886	7.21
590.077	7.26
590.268	7.18
590.458	7.07
590.649	7.04
590.84	7.2
591.03	7.24
591.221	7.22
591.412	6.98
591.602	7.28
591.793	7.18
591.984	7.19
592.174	7.19
592.365	7.42
592.555	7.04
592.746	7.01
592.936	7.11
593.127	7.17
593.317	7.16
593.508	7.13
593.698	7.02
593.889	7.02
594.079	7.01
594.269	6.91
594.46	6.93
594.65	7
594.84	7.01
595.031	6.86
595.221	6.86
595.411	6.92
595.602	6.96
595.792	6.9
595.982	6.79
596.172	6.95
596.363	6.83
596.553	6.81
596.743	6.93
596.933	6.86
597.123	6.85
597.314	6.68
597.504	6.65
597.694	6.82
597.884	6.72
598.074	6.78
598.264	6.72
598.454	6.73
598.644	6.73
598.834	6.69
599.024	6.62
599.214	6.64
599.404	6.69
599.594	6.61
599.784	6.54
599.974	6.64
600.164	6.58
600.354	6.48
600.544	6.46
600.734	6.63
600.924	6.47
601.114	6.49
601.303	6.43
601.493	6.47
601.683	6.55
601.873	6.47
602.063	6.44
602.252	6.47
602.442	6.34
602.632	6.39
602.821	6.27
603.011	6.31
603.201	6.31
603.39	6.29
603.58	6.18
603.77	6.3
603.959	6.38
604.149	6.3
604.339	6.22
604.528	6.35
604.718	6.33
604.907	6.17
605.097	6.16
605.286	6.19
605.476	6.15
605.665	6.21
605.855	6.14
606.044	6.22
606.234	6.2
606.423	6.12
606.612	6.07
606.802	6.02
606.991	6.07
607.181	6.17
607.37	6.05
607.559	5.84
607.749	6.04
607.938	5.94
608.127	5.95
608.316	5.98
608.506	5.92
608.695	6.01
608.884	5.85
609.073	5.98
609.263	5.98
609.452	5.93
609.641	5.82
609.83	5.82
610.019	5.93
610.208	5.73
610.397	5.82
610.586	5.82
610.775	5.75
610.965	5.75
611.154	5.65
611.343	5.76
611.532	5.66
611.721	5.71
611.91	5.65
612.099	5.63
612.287	5.6
612.476	5.52
612.665	5.65
612.854	5.46
613.043	5.56
613.232	5.59
613.421	5.53
613.61	5.54
613.798	5.47
613.987	5.52
614.176	5.47
614.365	5.53
614.554	5.47
614.742	5.55
614.931	5.26
615.12	5.49
615.309	5.36
615.497	5.32
615.686	5.24
615.875	5.36
616.063	5.3
616.252	5.27
616.44	5.28
616.629	5.28
616.818	5.25
617.006	5.2
617.195	5.16
617.383	5.23
617.572	5.11
617.76	5.15
617.949	5.09
618.137	5.17
618.326	5.15
618.514	4.97
618.703	4.93
618.891	5.2
619.079	5.04
619.268	5.07
619.456	4.92
619.644	5.1
619.833	4.97
620.021	4.97
620.209	4.81
620.398	4.95
620.586	4.88
620.774	4.95
620.962	4.87
621.151	4.97
621.339	4.83
621.527	4.78
621.715	4.71
621.903	4.8
622.092	4.77
622.28	4.83
622.468	4.6
622.656	4.75
622.844	4.71
623.032	4.81
623.22	4.64
623.408	4.77
623.596	4.67
623.784	4.78
623.972	4.58
624.16	4.6
624.348	4.68
624.536	4.69
624.724	4.5
624.912	4.66
625.1	4.62
625.288	4.55
625.476	4.47
625.664	4.58
625.851	4.46
626.039	4.51
626.227	4.46
626.415	4.49
626.603	4.31
626.79	4.43
626.978	4.41
627.166	4.4
627.354	4.3
627.541	4.31
627.729	4.22
627.917	4.41
628.104	4.4
628.292	4.27
628.48	4.32
628.667	4.24
628.855	4.36
629.042	4.26
629.23	4.2
629.418	4.21
629.605	4.21
629.793	4.11
629.98	4.14
630.168	4.09
630.355	4.13
630.543	4.12
630.73	4.01
630.917	4.05
631.105	4.18
631.292	4.08
631.48	4.03
631.667	4.18
631.854	4
632.042	4.02
632.229	3.9
632.416	3.99
632.604	3.96
632.791	3.84
632.978	3.9
633.165	3.89
633.353	3.96
633.54	3.89
633.727	3.82
633.914	3.76
634.101	3.76
634.289	3.91
634.476	3.77
634.663	3.73
634.85	3.75
635.037	3.72
635.224	3.66
635.411	3.75
635.598	3.69
635.785	3.62
635.972	3.68
636.159	3.69
636.346	3.58
636.533	3.57
636.72	3.59
636.907	3.58
637.094	3.6
637.281	3.48
637.468	3.57
637.655	3.55
637.842	3.54
638.029	3.55
638.215	3.52
638.402	3.51
638.589	3.44
638.776	3.42
638.963	3.44
639.149	3.51
639.336	3.48
639.523	3.37
639.709	3.41
639.896	3.32
640.083	3.35
640.27	3.39
640.456	3.28
640.643	3.34
640.829	3.22
641.016	3.25
641.203	3.2
641.389	3.29
641.576	3.3
641.762	3.26
641.949	3.14
642.135	3.27
642.322	3.23
642.508	3.09
642.695	3.18
642.881	3.12
643.068	3.09
643.254	3.12
643.441	3.07
643.627	3.17
643.813	2.99
644	3.14
644.186	3.04
644.372	3.08
644.559	3.06
644.745	3.07
644.931	2.96
645.118	2.98
645.304	2.98
645.49	2.95
645.676	2.95
645.862	2.95
646.049	3.03
646.235	2.93
646.421	3.04
646.607	2.98
646.793	2.93
646.979	2.84
647.165	2.83
647.352	2.86
647.538	2.92
647.724	2.79
647.91	2.74
648.096	2.87
648.282	2.86
648.468	2.8
648.654	2.82
648.84	2.81
649.026	2.78
649.212	2.73
649.397	2.66
649.583	2.71
649.769	2.74
649.955	2.66
650.141	2.71
650.327	2.72
650.513	2.63
650.698	2.65
650.884	2.54
651.07	2.72
651.256	2.61
651.442	2.62
651.627	2.55
651.813	2.62
651.999	2.54
652.184	2.57
652.37	2.54
652.556	2.51
652.741	2.53
652.927	2.39
653.113	2.46
653.298	2.46
653.484	2.51
653.669	2.44
653.855	2.45
654.04	2.52
654.226	2.44
654.412	2.37
654.597	2.32
654.782	2.44
654.968	2.45
655.153	2.36
655.339	2.34
655.524	2.32
655.71	2.42
655.895	2.36
656.08	2.36
656.266	2.46
656.451	2.32
656.636	2.29
656.822	2.33
657.007	2.27
657.192	2.34
657.378	2.17
657.563	2.22
657.748	2.26
657.933	2.26
658.118	2.15
658.304	2.2
658.489	2.23
658.674	2.23
658.859	2.15
659.044	2.15
659.229	2.23
659.414	2.17
659.599	2.15
659.785	2.09
659.97	2.14
660.155	2.16
660.34	2.12
660.525	2.02
660.71	2.08
660.895	2.12
661.08	2.01
661.264	2.02
661.449	2.13
661.634	2.09
661.819	2.03
662.004	2.02
662.189	1.94
662.374	1.97
662.559	1.92
662.743	1.88
662.928	1.96
663.113	1.93
663.298	1.86
663.483	1.94
663.667	1.92
663.852	1.9
664.037	2.02
664.221	1.91
664.406	1.98
664.591	1.94
664.775	1.91
664.96	1.83
665.145	1.83
665.329	1.92
665.514	1.8
665.698	1.83
665.883	1.82
666.068	1.91
666.252	1.85
666.437	1.75
666.621	1.81
666.806	1.85
666.99	1.74
667.174	1.75
667.359	1.83
667.543	1.73
667.728	1.72
667.912	1.64
668.096	1.82
668.281	1.72
668.465	1.8
668.649	1.75
668.834	1.69
669.018	1.71
669.202	1.69
669.387	1.69
669.571	1.74
669.755	1.65
669.939	1.67
670.124	1.65
670.308	1.71
670.492	1.75
670.676	1.68
670.86	1.63
671.044	1.61
671.228	1.67
671.413	1.57
671.597	1.52
671.781	1.6
671.965	1.65
672.149	1.55
672.333	1.59
672.517	1.56
672.701	1.62
672.885	1.53
673.069	1.48
673.253	1.68
673.437	1.55
673.621	1.51
673.804	1.54
673.988	1.56
674.172	1.51
674.356	1.43
674.54	1.53
674.724	1.66
674.908	1.53
675.091	1.53
675.275	1.49
675.459	1.57
675.643	1.47
675.826	1.49
676.01	1.43
676.194	1.46
676.377	1.48
676.561	1.47
676.745	1.4
676.928	1.5
677.112	1.53
677.296	1.4
677.479	1.31
677.663	1.4
677.846	1.45
678.03	1.39
678.213	1.32
678.397	1.4
678.58	1.33
678.764	1.38
678.947	1.29
679.131	1.34
679.314	1.42
679.498	1.32
679.681	1.32
679.865	1.41
680.048	1.32
680.231	1.32
680.415	1.29
680.598	1.28
680.781	1.27
680.965	1.26
681.148	1.26
681.331	1.28
681.514	1.29
681.698	1.26
681.881	1.25
682.064	1.28
682.247	1.26
682.43	1.17
682.614	1.25
682.797	1.32
682.98	1.33
683.163	1.11
683.346	1.21
683.529	1.15
683.712	1.2
683.895	1.24
684.078	1.14
684.261	1.16
684.444	1.27
684.627	1.19
684.81	1.14
684.993	1.21
685.176	1.23
685.359	1.15
685.542	1.09
685.725	1.24
685.908	1.14
686.091	1.13
686.274	1.16
686.457	1.13
686.639	1.16
686.822	1.17
687.005	1.12
687.188	1.2
687.371	1.24
687.553	1.18
687.736	1.17
687.919	1.29
688.102	1.25
688.284	1.1
688.467	1.08
688.65	1.08
688.832	1.07
689.015	1.08
689.197	0.96
689.38	1.18
689.563	1.21
689.745	0.95
689.928	0.95
690.11	1.1
690.293	1.1
690.475	0.94
690.658	1.06
690.84	0.98
691.023	1.02
691.205	0.98
691.388	0.98
691.57	1.09
691.752	1.1
691.935	0.94
692.117	0.93
692.3	1.03
692.482	1
692.664	0.94
692.847	0.95
693.029	1.11
693.211	1.04
693.393	0.94
693.576	0.94
693.758	0.98
693.94	0.98
694.122	0.96
694.304	0.97
694.487	0.94
694.669	1.05
694.851	0.87
695.033	0.88
695.215	0.91
695.397	0.91
695.579	0.9
695.761	0.89
695.943	0.82
696.125	1
696.308	0.94
696.49	0.77
696.671	1.07
696.853	0.87
697.035	1.11
697.217	0.88
697.399	1.02
697.581	0.86
697.763	0.89
697.945	0.85
698.127	0.93
698.309	0.95
698.491	0.89
698.672	0.87
698.854	0.93
699.036	1
699.218	0.89
699.399	0.91
699.581	0.92
699.763	0.82
699.945	0.74
700.126	0.77
700.308	0.86
700.49	0.85
700.671	0.76
700.853	0.72
701.035	0.84
701.216	0.84
701.398	0.78
701.579	0.81
701.761	0.91
701.943	0.84
702.124	0.74
702.306	0.74
702.487	1
702.669	0.71
702.85	0.77
703.031	0.71
703.213	1.01
703.394	0.88
703.576	0.77
703.757	0.9
703.938	0.83
704.12	0.98
704.301	0.72
704.483	0.76
704.664	0.82
704.845	0.93
705.026	0.9
705.208	0.73
705.389	0.78
705.57	0.83
705.751	0.77
705.933	0.77
706.114	0.87
706.295	0.86
706.476	0.64
706.657	0.84
706.838	0.82
707.02	0.87
707.201	0.68
707.382	0.71
707.563	0.81
707.744	0.68
707.925	0.63
708.106	0.66
708.287	0.79
708.468	0.83
708.649	0.77
708.83	0.77
709.011	0.63
709.192	0.81
709.373	0.64
709.554	0.7
709.734	0.77
709.915	0.76
710.096	0.68
710.277	0.6
710.458	0.76
710.639	0.74
710.819	0.56
711	0.62
711.181	0.76
711.362	0.72
711.542	0.69
711.723	0.66
711.904	0.79
712.085	0.76
712.265	0.67
712.446	0.55
712.627	0.66
712.807	0.65
712.988	0.68
713.168	0.56
713.349	0.71
713.53	0.48
713.71	0.56
713.891	0.5
714.071	0.69
714.252	0.65
714.432	0.62
714.613	0.49
714.793	0.62
714.974	0.82
715.154	0.65
715.334	0.72
715.515	0.79
715.695	0.56
715.876	0.55
716.056	0.53
716.236	0.59
716.417	0.57
716.597	0.59
716.777	0.83
716.957	0.57
717.138	0.66
717.318	0.56
717.498	0.53
717.678	0.62
717.859	0.63
718.039	0.51
718.219	0.62
718.399	0.55
718.579	0.49
718.759	0.55
718.939	0.65
719.12	0.59
719.3	0.63
719.48	0.48
719.66	0.45
719.84	0.71
720.02	0.6
720.2	0.58
720.38	0.54
720.56	0.72
720.74	0.5
720.92	0.63
721.1	0.64
721.279	0.69
721.459	0.57
721.639	0.46
721.819	0.5
721.999	0.55
722.179	0.69
722.359	0.5
722.538	0.51
722.718	0.53
722.898	0.51
723.078	0.54
723.257	0.49
723.437	0.66
723.617	0.66
723.797	0.53
723.976	0.56
724.156	0.61
724.336	0.65
724.515	0.71
724.695	0.46
724.874	0.52
725.054	0.59
725.234	0.45
725.413	0.5
725.593	0.55
725.772	0.59
725.952	0.5
726.131	0.48
726.311	0.59
726.49	0.57
726.67	0.47
726.849	0.5
727.028	0.63
727.208	0.54
727.387	0.49
727.567	0.39
727.746	0.44
727.925	0.54
728.105	0.37
728.284	0.45
728.463	0.47
728.643	0.59
728.822	0.41
729.001	0.58
729.18	0.57
729.359	0.67
729.539	0.51
729.718	0.56
729.897	0.58
730.076	0.47
730.255	0.39
730.434	0.57
730.614	0.56
730.793	0.7
730.972	0.43
731.151	0.48
731.33	0.59
731.509	0.6
731.688	0.47
731.867	0.51
732.046	0.31
732.225	0.75
732.404	0.43
732.583	0.38
732.762	0.51
732.941	0.57
733.12	0.6
733.298	0.46
733.477	0.62
733.656	0.42
733.835	0.37
734.014	0.52
734.193	0.52
734.371	0.49
734.55	0.56
734.729	0.34
734.908	0.55
735.086	0.58
735.265	0.64
735.444	0.31
735.623	0.4
735.801	0.45
735.98	0.36
736.159	0.53
736.337	0.6
736.516	0.56
736.694	0.56
736.873	0.36
737.052	0.84
737.23	0.72
737.409	0.5
737.587	0.74
737.766	0.46
737.944	0.43
738.123	0.51
738.301	0.7
738.479	0.58
738.658	0.52
738.836	0.29
739.015	0.54
739.193	0.66
739.371	0.34
739.55	0.56
739.728	0.4
739.906	0.6
740.085	0.86
740.263	0.58
740.441	0.29
740.62	0.79
740.798	0.65
740.976	0.48
741.154	0.37
741.332	0.76
741.511	0.41
741.689	0.52
741.867	0.53
742.045	0.62
742.223	0.57
742.401	0.35
742.579	0.44
742.757	0.66
742.935	0.46
743.114	0.49
743.292	0.46
743.47	0.44
743.648	0.58
743.826	0.52
744.004	0.42
744.181	0.62
744.359	0.4
744.537	0.51
744.715	0.43
744.893	0.52
745.071	0.63
745.249	0.49
745.427	0.41
745.605	0.55
745.782	0.45
745.96	0.6
746.138	0.52
746.316	0.57
746.493	0.52
746.671	0.41
746.849	0.42
747.027	0.65
747.204	0.48
747.382	0.47
747.56	0.42
747.737	0.46
747.915	0.43
748.093	0.46
748.27	0.37
748.448	0.43
748.625	0.32
748.803	0.41
748.98	0.29
749.158	0.61
749.335	0.69
749.513	0.38
749.69	0.36
749.868	0.52
750.045	0.49
750.223	0.3
750.4	0.28
750.578	0.62
750.755	0.4
750.932	0.27
751.11	0.61
751.287	0.31
751.464	0.58
751.642	0.36
751.819	0.5
751.996	0.49
752.173	0.36
752.351	0.28
752.528	0.46
752.705	0.49
752.882	0.43
753.06	0.45
753.237	0.45
753.414	0.66
753.591	0.76
753.768	0.54
753.945	0.35
754.122	0.46
754.299	0.52
754.476	0.29
754.654	0.42
754.831	0.56
755.008	0.59
755.185	0.3
755.362	0.29
755.539	0.5
755.716	0.42
755.892	0.41
756.069	0.4
756.246	0.43
756.423	0.53
756.6	0.6
756.777	0.33
756.954	0.55
757.131	0.39
757.307	0.28
757.484	0.33
757.661	0.51
757.838	0.62
758.015	0.27
758.191	0.54
758.368	0.38
758.545	0.82
758.721	0.48
758.898	0.19
759.075	0.45
759.251	0.49
759.428	0.54
759.605	0.35
759.781	0.35
759.958	0.5
760.134	0.45
760.311	0.4
760.488	0.57
760.664	0.66
760.841	0.37
761.017	0.35
761.194	0.42
761.37	0.63
761.547	0.44
761.723	0.27
761.899	0.53
762.076	0.34
762.252	0.41
762.429	0.33
762.605	0.59
762.781	0.44
762.958	0.44
763.134	0.34
763.31	0.21
763.486	0.68
763.663	0.19
763.839	0.4
764.015	0.05
764.191	0.31
764.368	0.39
764.544	0.37
764.72	0.45
764.896	0.55
765.072	0.31
765.248	0.41
765.425	0.44
765.601	0.52
765.777	0.47
765.953	0.1
766.129	0.31
766.305	0.49
766.481	0.54
766.657	0.47
766.833	0.7
767.009	0.23
767.185	0.29
767.361	0.39
767.537	0.22
767.713	0.57
767.889	0.36
768.065	0.43
768.24	0.55
768.416	0.72
768.592	0.33
768.768	0.44
768.944	0.53
769.12	0.21
769.295	0.43
769.471	0.44
769.647	0.28
769.823	0.6
769.998	0.25
770.174	0.22
770.35	0.89
770.525	0.77
770.701	0.44
770.877	0.39
771.052	0.32
771.228	0.65
771.403	0.32
771.579	0.47
771.755	0.84
771.93	0.34
772.106	0.26
772.281	-0.03
772.457	0.53
772.632	0.44
772.808	0.09
772.983	0.35
773.159	0.09
773.334	0.64
773.509	0.46
773.685	0.34
773.86	0.75
774.036	0.64
774.211	0.48
774.386	0.34
774.562	0.54
774.737	0.72
774.912	0.28
775.087	0.48
775.263	0.37
775.438	0.54
775.613	0.37
775.788	0.45
775.964	0.61
776.139	1.1
776.314	0.15
776.489	0.48
776.664	0.43
776.839	0.08
777.014	0.65
777.19	0.66
777.365	0.87
777.54	0.79
777.715	0.23
777.89	0.34
778.065	0.35
778.24	0.47
778.415	0.59
778.59	0.16
778.765	0.43
778.94	0.65
779.115	0.39
779.289	0.44
779.464	0.43
779.639	0.38
779.814	0.22
779.989	0.17
780.164	0.55
780.339	0.56
780.513	0.3
780.688	0.29
780.863	0.4
781.038	0.64
781.212	0.25
781.387	0.26
781.562	0.69
781.737	0.32
781.911	0.72
782.086	0.25
782.261	0.42
782.435	0.72
782.61	0.37
782.784	0.51
782.959	0.79
783.134	0.39
783.308	0.2
783.483	0.41
783.657	0.93
783.832	0.85
784.006	0.24
784.181	0.51
784.355	0.71
784.53	0.42
784.704	0.28
784.878	0.84
785.053	0.65
785.227	1
785.402	0.9
785.576	0.2
785.75	0.45
785.925	0.52
786.099	0.5
786.273	0.58
786.448	0.86
786.622	0.65
786.796	0.36
786.97	0.38
787.145	1.11
787.319	0.29
787.493	0.34
787.667	0.09
787.841	0.43
788.015	0.84
788.19	0.36
788.364	0.54
788.538	0.82
788.712	0.85
788.886	0.39
789.06	0.59
789.234	0.6
789.408	0.24
789.582	0.36
789.756	0.25
789.93	0.4
790.104	0.49
790.278	0.32
790.452	0.35
790.626	0.66
790.8	0.37
790.973	0.64
791.147	0.98
791.321	1.07
791.495	0.68
791.669	0.74
791.843	0.74
792.016	0.6
792.19	1.14
792.364	0.27
792.538	0.95
792.711	0.89
792.885	0.51
793.059	0.2
793.233	-0.16
793.406	0.7
793.58	0.48
793.754	0.52
793.927	0.57
794.101	0.76
794.274	0.45
794.448	0.64
794.622	0.38
794.795	1.19
794.969	0.58
795.142	0.97
795.316	0.57
795.489	0.36
795.663	0.91
795.836	0.61
796.009	0.17
796.183	0.92
796.356	0.64
796.53	0.54
796.703	0.43
796.876	1.23
797.05	0.57
797.223	0.3
797.396	0.38
797.57	0.73
797.743	0.85
797.916	0.31
798.09	0.49
798.263	1.14
798.436	0.75
798.609	0.59
798.782	0.42
798.956	0.43
799.129	0.36
799.302	0.21
799.475	0.31
799.648	0.38
799.821	0.72
799.994	0.49
800.167	-0.01
800.34	0.53
800.514	0.4
800.687	0.57
800.86	0.16
801.033	0.96
801.206	1.11
801.379	0.16
801.551	0.72
801.724	1.05
801.897	1.43
802.07	0.62
802.243	0.17
802.416	0.95
802.589	0.76
802.762	1.02
802.935	0.59
803.107	1.14
803.28	1.27
803.453	0.68
803.626	0.41
803.798	0.27
803.971	0.6
804.144	0.67
804.317	1.01
804.489	0.91
804.662	0.63
804.835	0.3
805.007	0.15
805.18	1.35
805.353	0.72
805.525	0.39
805.698	0.53
805.87	1.19
806.043	1.13
806.215	0.19
806.388	0.39
806.56	0.75
806.733	1.34
806.905	0.85
807.078	0.32
807.25	0.35
807.423	0.91
807.595	1.01
807.768	0.76
807.94	0.92
808.112	0.45
808.285	0.67
808.457	0.16
808.629	0.5
808.802	0.97
808.974	0.82
809.146	0.44
809.318	0.34
809.491	0.87
809.663	0.73
809.835	0.52
810.007	0.68
810.18	0.58
810.352	0.28
810.524	0.37
810.696	1.09
810.868	1.15
811.04	0.54
811.212	0.75
811.384	1.37
811.556	0.8
811.728	0.58
811.901	1.57
812.073	0.4
812.245	1.03
812.417	0.88
812.589	-0
812.76	0.92
812.932	1.21
813.104	0.93
813.276	0.5
813.448	1.31
813.62	0.9
813.792	0.79
813.964	0.55
814.136	0.99
814.307	0.52
814.479	0.41
814.651	0.5
814.823	1.56
814.995	0.89
815.166	0.89
815.338	0.98
815.51	0.27
815.681	1.97
815.853	1.11
816.025	0.34
816.196	1.6
816.368	1.68
816.54	0.19
816.711	0.21
816.883	1.58
817.054	1.94
817.226	-0.38
817.398	0.73
817.569	0.12
817.741	0.96
817.912	0.65
818.084	1.15
818.255	1.42
818.426	0.75
818.598	0.79
818.769	0.47
818.941	1.4
819.112	1.44
819.283	0.48
819.455	0.19
819.626	0.66
819.798	1.32
819.969	1.4
820.14	0.74
820.311	0.63
820.483	1.11
820.654	0.75
820.825	0.53
820.996	0.53
821.168	0.16
821.339	0.73
821.51	0.1
821.681	0.62
821.852	0.9
822.023	0.44
822.195	1.03
822.366	1.19
822.537	1.12
822.708	0.42
822.879	0.37
823.05	1.98
823.221	0.67
823.392	1.33
823.563	1.13
823.734	1.45
823.905	1.45
824.076	0.73
824.247	0.5
824.418	0.81
824.589	1.17
824.759	1.25
824.93	0.17
825.101	0.26
825.272	2.19
825.443	1.67
825.614	1.71
825.784	0.13
825.955	2.35
826.126	1.69
826.297	1.43
826.467	2.13
826.638	2.26
826.809	0.23
826.98	0.86
827.15	1.16
827.321	1.32
827.492	1.97
827.662	0.96
827.833	2.4
828.003	1.83
828.174	0.54
828.345	-0.29
828.515	2.31
828.686	0.98
828.856	0.48
829.027	1
829.197	1.41
829.368	1.38
829.538	0.13
829.709	1.09
829.879	1.36
830.049	1.23
830.22	0.77
830.39	1.14
830.56	1.42
830.731	1.36
830.901	0.54
831.072	1.2
831.242	0.89
831.412	1.23
831.582	1.61
831.753	0.22
831.923	1.83
832.093	1.86
832.263	0.63
832.434	0.12
832.604	0.83
832.774	1.28
832.944	1.01
833.114	0.52
833.284	1.76
833.454	1.03
833.624	0.51
833.795	0.47
833.965	2.04
834.135	2.08
834.305	-0.47
834.475	0.22
834.645	0.9
834.815	1.08
834.985	0.51
835.155	0
835.325	1.32
835.494	1.97
835.664	0.25
835.834	0.33
836.004	1.57
836.174	1.66
836.344	0.26
836.514	-0.45
836.684	0.68
836.853	1.48
837.023	1.52
837.193	0.39
837.363	1.54
837.532	2.12
837.702	0.78
837.872	0.69
838.041	1.71
838.211	2.52
838.381	0.26
838.55	1.06
838.72	3.65
838.89	2.52
839.059	0.49
839.229	1.19
839.398	3.86
839.568	1.58
839.738	0.69
839.907	1.87
840.077	1.57
840.246	0.65
840.416	0.58
840.585	0.69
840.755	3.05
840.924	2.37
841.093	0.23
841.263	0.32
841.432	0.83
841.602	0.59
841.771	1.12
841.94	1.5
842.11	4.21
842.279	2.84
842.448	-0.01
842.617	-0.07
842.787	2.93
842.956	1.07
843.125	1.32
843.294	1.05
843.464	2.52
843.633	1.03
843.802	-0.02
843.971	1.49
844.14	2.04
844.309	3.38
844.479	-0.26
844.648	0.84
844.817	0.84
844.986	1.52
845.155	-0.17
845.324	1.02
845.493	0.78
845.662	1.06
845.831	0.85
846	1.43
846.169	1.84
846.338	3.22
846.507	1.25
846.676	1.71
846.844	1.13
847.013	2.68
847.182	2.07
847.351	0.28
847.52	1.13
847.689	2.62
847.858	1.36
848.026	0.87
848.195	1.74
848.364	0.83
848.533	0.4
848.701	0.63
848.87	0.92
849.039	2.95
849.207	1.45
849.376	2.98
849.545	3.36
849.713	0.4
849.882	0.93
850.051	0.92
850.219	1.56
850.388	2.38
850.556	0.7
850.725	0.86
850.893	2.18
851.062	2.16
851.23	3.11
851.399	0.65
851.567	1.3
851.736	1.06
851.904	-0.44
852.073	2.57
852.241	3.29
852.41	1.89
852.578	0.54
852.746	0.97
852.915	2.75
853.083	2.29
853.251	0.64
853.42	1.24
853.588	1.74
853.756	2.33
853.924	1.04
854.093	2.08
854.261	1.83
854.429	-0.38
854.597	1.63
854.765	0.68
854.934	2.05
855.102	1.38
855.27	-0.31
855.438	1.42
855.606	3.63
855.774	3.09
855.942	-0.38
856.11	0.77
856.278	1.67
856.446	3.04
856.614	1.39
856.782	-0.09
856.95	3.08
857.118	3.04
857.286	2.03
857.454	0.66
857.622	4.37
857.79	2.66
857.958	0.08
858.126	1.27
858.294	-1.15
858.462	1.43
858.629	0.27
858.797	0.56
858.965	1.4
859.133	1.76
859.301	1.2
859.468	2.4
859.636	2.15
859.804	5.45
859.971	2.45
860.139	-0.1
860.307	3.41
860.474	2.26
860.642	1.05
860.81	1.68
860.977	1.78
861.145	3.65
861.313	0.85
861.48	1.2
861.648	2.89
861.815	2.84
861.983	-0.11
862.15	-0.12
862.318	2.71
862.485	3.95
862.653	0.11
862.82	0.18
862.988	5.11
863.155	3.69
863.322	0.18
863.49	0.76
863.657	1.89
863.824	4.83
863.992	2.35
864.159	2.26
864.326	5.19
864.494	0.92
864.661	3.99
864.828	0.55
864.996	4.47
865.163	6.01
865.33	0.97
865.497	-0.85
865.664	1.5
865.832	-1.11
865.999	1.13
866.166	0.09
866.333	1.27
866.5	2.63
866.667	2.24
866.834	1.83
867.001	4.97
867.168	0.17
867.335	0.84
867.502	0.02
867.669	3.4
867.836	5.25
868.003	2.42
868.17	4.99
868.337	2.67
868.504	6.58
868.671	-0.87
868.838	1.12
869.005	3.81
869.172	2.09
869.339	3.56
869.505	1.52
869.672	2.63
869.839	4.84
870.006	3.05
870.173	1.44
870.339	3.44
870.506	5.56
870.673	-0.2
870.84	2.17
871.006	1.99
871.173	2.22
871.34	1.78
871.506	0.63
871.673	3.95
871.839	-0.24
872.006	1.43
872.173	0.94
872.339	2.22
872.506	5.64
872.672	1.27
872.839	-1.04
873.005	3.75
873.172	5.96
873.338	3.23
873.505	2.37
873.671	5.33
873.838	4.72
874.004	-0.84
874.171	0.28
874.337	2.39
874.503	3.62
874.67	2.31
874.836	1.27
875.002	5.8
875.169	4.37
875.335	2.82
875.501	3.08
875.668	3.51
875.834	2.61
876	2.18
876.166	4.01
876.332	4.32
876.499	6.97
876.665	1.68
876.831	2.82
876.997	6.14
877.163	3.3
877.329	1.47
877.495	1.87
877.662	4.62
877.828	3.43
877.994	2.62
878.16	-1.3
878.326	1.84
878.492	3.84
878.658	2.19
878.824	2.9
878.99	3.34
879.156	4.31
879.322	4.84
879.487	2.04
879.653	3.45
879.819	3.55
879.985	-0.03
880.151	3.24
880.317	3.8
880.483	3.43
880.648	3.22
880.814	0.75
880.98	2.58
881.146	-1.01
881.312	0.57
881.477	2.07
881.643	2.62
881.809	3.36
881.974	5.18
882.14	-0.48
882.306	2.27
882.471	6.98
882.637	1.72
882.803	3.27
882.968	6.03
883.134	7.58
883.299	2.1
883.465	0.94
883.63	4.15
883.796	3.48
883.961	4.86
884.127	3.24
884.292	-2.15
884.458	0.78
884.623	0.78
