Data from Apollo_Calib_20240827__AbsoluteIrradiance__894__14-03-00-324.txt Node

Date: Wed Aug 28 14:03:00 BST 2024
User: biology
Spectrometer: FLMT08252
Trigger mode: 0
Integration Time (sec): 5.000000E-1
Scans to average: 5
Electric dark correction enabled: true
Nonlinearity correction enabled: false
Boxcar width: 0
XAxis mode: Wavelengths
Number of Pixels in Spectrum: 3648
>>>>>Begin Spectral Data<<<<<
179.588	-0
179.809	-0
180.03	-0
180.251	-0
180.473	-0
180.694	0
180.915	0
181.136	-0
181.357	0
181.578	-0
181.799	0
182.02	-0
182.241	-0
182.462	-0
182.683	0
182.904	-0
183.125	-0
183.346	0
183.567	0
183.788	0
184.009	0
184.23	0
184.451	0
184.672	0
184.892	0
185.113	0
185.334	0
185.555	0
185.776	0
185.996	0
186.217	0
186.438	0
186.659	0
186.879	0
187.1	0
187.321	0
187.541	0
187.762	0
187.983	0
188.203	0
188.424	0
188.644	0
188.865	0
189.086	0
189.306	0
189.527	0
189.747	0
189.968	0
190.188	0
190.409	0
190.629	0
190.849	0
191.07	0
191.29	0
191.511	0
191.731	0
191.951	0
192.172	0
192.392	0
192.612	0
192.833	0
193.053	0
193.273	0
193.493	0
193.714	0
193.934	0
194.154	0
194.374	0
194.594	0
194.815	0
195.035	0
195.255	0
195.475	0
195.695	0
195.915	0
196.135	0
196.355	0
196.575	0
196.795	0
197.015	0
197.235	0
197.455	0
197.675	0
197.895	0
198.115	0
198.335	0
198.555	0
198.775	0
198.995	0
199.214	0
199.434	0
199.654	0
199.874	0
200.094	4.84
200.313	2.53
200.533	1.97
200.753	2.03
200.973	3.75
201.192	3.55
201.412	1.39
201.632	1.6
201.851	3.64
202.071	2.09
202.291	1.84
202.51	1.35
202.73	3.31
202.95	1.93
203.169	1.32
203.389	1.93
203.608	2.03
203.828	1.43
204.047	1.75
204.267	2.32
204.486	2.19
204.706	2.4
204.925	1.52
205.145	1.54
205.364	2.13
205.583	2.75
205.803	1.28
206.022	1.39
206.242	1.69
206.461	2.02
206.68	1.03
206.9	1.72
207.119	2.72
207.338	2.28
207.557	1.47
207.777	1.23
207.996	1.45
208.215	2.22
208.434	1.23
208.654	1.02
208.873	1.65
209.092	2.17
209.311	0.94
209.53	1.14
209.749	1.35
209.968	0.95
210.187	1.05
210.407	0.72
210.626	1.21
210.845	1.74
211.064	1.06
211.283	0.74
211.502	1.58
211.721	1.37
211.94	1.01
212.159	1.13
212.377	1.53
212.596	1.67
212.815	0.97
213.034	1.21
213.253	1.38
213.472	1.38
213.691	1.04
213.91	0.69
214.128	1.03
214.347	1.55
214.566	0.28
214.785	0.45
215.003	1.39
215.222	1.07
215.441	0.73
215.66	0.43
215.878	1.06
216.097	1.19
216.316	0.64
216.534	0.87
216.753	1.16
216.972	0.84
217.19	0.71
217.409	0.71
217.627	0.63
217.846	0.64
218.064	1.09
218.283	0.6
218.501	1.53
218.72	1.12
218.938	0.61
219.157	0.69
219.375	1.08
219.594	1.08
219.812	0.51
220.031	0.47
220.249	1.24
220.467	1.25
220.686	0.6
220.904	0.47
221.122	0.64
221.341	1.38
221.559	0.86
221.777	0.55
221.995	0.86
222.214	0.99
222.432	0.6
222.65	0.7
222.868	0.64
223.086	0.97
223.305	0.88
223.523	0.65
223.741	1.27
223.959	0.81
224.177	0.36
224.395	0.4
224.613	0.91
224.831	0.88
225.049	0.43
225.267	0.51
225.485	0.75
225.703	0.53
225.921	0.58
226.139	0.54
226.357	0.88
226.575	0.72
226.793	0.45
227.011	1.55
227.229	0.74
227.447	0.78
227.665	0.45
227.883	0.38
228.1	0.71
228.318	0.78
228.536	0.1
228.754	0.46
228.972	0.78
229.189	0.93
229.407	0.58
229.625	0.5
229.843	0.99
230.06	0.78
230.278	0.51
230.496	0.63
230.713	0.62
230.931	0.89
231.149	0.4
231.366	0.24
231.584	0.53
231.801	1.06
232.019	0.49
232.236	0.29
232.454	0.44
232.671	0.71
232.889	0.49
233.106	0.41
233.324	0.64
233.541	0.56
233.759	0.51
233.976	0.39
234.194	0.47
234.411	0.47
234.628	0.41
234.846	0.42
235.063	0.53
235.28	0.58
235.498	0.47
235.715	0.33
235.932	0.72
236.149	0.47
236.367	0.44
236.584	0.44
236.801	0.43
237.018	0.67
237.236	0.6
237.453	0.26
237.67	0.63
237.887	0.5
238.104	0.46
238.321	0.43
238.538	0.44
238.755	0.65
238.973	0.23
239.19	0.5
239.407	0.66
239.624	0.66
239.841	0.36
240.058	0.33
240.275	0.57
240.492	0.45
240.709	0.46
240.925	0.4
241.142	0.47
241.359	0.35
241.576	0.25
241.793	0.29
242.01	0.38
242.227	0.75
242.444	0.51
242.66	0.71
242.877	0.52
243.094	0.37
243.311	0.42
243.527	0.43
243.744	0.52
243.961	0.51
244.178	0.33
244.394	0.34
244.611	0.68
244.828	0.73
245.044	0.32
245.261	0.37
245.477	0.51
245.694	0.48
245.911	0.35
246.127	0.51
246.344	0.68
246.56	0.56
246.777	0.38
246.993	0.44
247.21	0.49
247.426	0.57
247.643	0.33
247.859	0.26
248.076	0.36
248.292	0.69
248.508	0.41
248.725	0.5
248.941	0.5
249.157	0.54
249.374	0.36
249.59	0.41
249.806	0.49
250.023	0.45
250.239	0.3
250.455	0.31
250.671	0.44
250.888	0.49
251.104	0.57
251.32	0.36
251.536	0.37
251.752	0.46
251.969	0.34
252.185	0.4
252.401	0.73
252.617	0.51
252.833	0.38
253.049	0.39
253.265	0.41
253.481	0.44
253.697	0.31
253.913	0.3
254.129	0.51
254.345	0.51
254.561	0.38
254.777	0.4
254.993	0.49
255.209	0.39
255.425	0.35
255.641	0.37
255.857	0.5
256.073	0.46
256.288	0.27
256.504	0.3
256.72	0.46
256.936	0.63
257.152	0.29
257.367	0.25
257.583	0.49
257.799	0.46
258.015	0.34
258.23	0.24
258.446	0.59
258.662	0.38
258.877	0.28
259.093	0.32
259.309	0.37
259.524	0.48
259.74	0.26
259.955	0.21
260.171	0.46
260.387	0.38
260.602	0.46
260.818	0.43
261.033	0.27
261.249	0.45
261.464	0.3
261.68	0.23
261.895	0.5
262.11	0.39
262.326	0.33
262.541	0.28
262.757	0.47
262.972	0.46
263.187	0.36
263.403	0.42
263.618	0.53
263.833	0.29
264.049	0.2
264.264	0.34
264.479	0.34
264.694	0.53
264.91	0.2
265.125	0.3
265.34	0.39
265.555	0.62
265.77	0.37
265.986	0.31
266.201	0.44
266.416	0.39
266.631	0.36
266.846	0.33
267.061	0.42
267.276	0.41
267.491	0.21
267.706	0.41
267.921	0.39
268.136	0.34
268.351	0.41
268.566	0.26
268.781	0.48
268.996	0.5
269.211	0.37
269.426	0.2
269.641	0.31
269.856	0.47
270.071	0.22
270.285	0.2
270.5	0.45
270.715	0.5
270.93	0.31
271.145	0.3
271.359	0.44
271.574	0.31
271.789	0.3
272.004	0.23
272.218	0.34
272.433	0.38
272.648	0.25
272.862	0.36
273.077	0.35
273.292	0.36
273.506	0.22
273.721	0.3
273.936	0.41
274.15	0.46
274.365	0.29
274.579	0.38
274.794	0.39
275.008	0.36
275.223	0.2
275.437	0.29
275.652	0.41
275.866	0.38
276.081	0.3
276.295	0.39
276.509	0.36
276.724	0.42
276.938	0.37
277.153	0.32
277.367	0.37
277.581	0.26
277.796	0.31
278.01	0.29
278.224	0.39
278.438	0.5
278.653	0.24
278.867	0.27
279.081	0.23
279.295	0.38
279.51	0.32
279.724	0.18
279.938	0.38
280.152	0.38
280.366	0.25
280.58	0.38
280.794	0.49
281.008	0.33
281.222	0.37
281.437	0.48
281.651	0.35
281.865	0.46
282.079	0.26
282.293	0.19
282.507	0.28
282.721	0.32
282.935	0.31
283.148	0.2
283.362	0.29
283.576	0.19
283.79	0.28
284.004	0.24
284.218	0.44
284.432	0.22
284.646	0.32
284.859	0.24
285.073	0.24
285.287	0.31
285.501	0.31
285.714	0.28
285.928	0.33
286.142	0.37
286.356	0.26
286.569	0.26
286.783	0.43
286.997	0.31
287.21	0.27
287.424	0.31
287.637	0.32
287.851	0.3
288.065	0.38
288.278	0.27
288.492	0.33
288.705	0.26
288.919	0.29
289.132	0.23
289.346	0.39
289.559	0.21
289.773	0.23
289.986	0.26
290.2	0.26
290.413	0.39
290.626	0.2
290.84	0.22
291.053	0.3
291.267	0.38
291.48	0.3
291.693	0.28
291.906	0.22
292.12	0.26
292.333	0.21
292.546	0.21
292.76	0.39
292.973	0.3
293.186	0.38
293.399	0.2
293.612	0.38
293.826	0.3
294.039	0.27
294.252	0.25
294.465	0.33
294.678	0.31
294.891	0.29
295.104	0.23
295.317	0.24
295.53	0.27
295.743	0.3
295.956	0.28
296.169	0.4
296.382	0.38
296.595	0.27
296.808	0.21
297.021	0.39
297.234	0.34
297.447	0.27
297.66	0.26
297.873	0.35
298.086	0.35
298.299	0.25
298.511	0.19
298.724	0.29
298.937	0.21
299.15	0.22
299.363	0.28
299.575	0.33
299.788	0.31
300.001	0.26
300.213	0.2
300.426	0.19
300.639	0.27
300.852	0.2
301.064	0.28
301.277	0.35
301.489	0.31
301.702	0.27
301.915	0.24
302.127	0.24
302.34	0.27
302.552	0.26
302.765	0.21
302.977	0.31
303.19	0.21
303.402	0.24
303.615	0.22
303.827	0.26
304.04	0.26
304.252	0.31
304.464	0.21
304.677	0.42
304.889	0.37
305.102	0.18
305.314	0.21
305.526	0.31
305.739	0.33
305.951	0.19
306.163	0.21
306.375	0.34
306.588	0.25
306.8	0.23
307.012	0.14
307.224	0.28
307.436	0.36
307.649	0.14
307.861	0.24
308.073	0.32
308.285	0.2
308.497	0.19
308.709	0.21
308.921	0.32
309.133	0.34
309.346	0.25
309.558	0.22
309.77	0.28
309.982	0.33
310.194	0.27
310.406	0.24
310.617	0.4
310.829	0.27
311.041	0.32
311.253	0.19
311.465	0.25
311.677	0.27
311.889	0.27
312.101	0.2
312.313	0.33
312.524	0.37
312.736	0.15
312.948	0.27
313.16	0.33
313.372	0.31
313.583	0.29
313.795	0.23
314.007	0.26
314.218	0.32
314.43	0.28
314.642	0.18
314.853	0.17
315.065	0.3
315.277	0.3
315.488	0.26
315.7	0.35
315.912	0.32
316.123	0.27
316.335	0.2
316.546	0.36
316.758	0.25
316.969	0.19
317.181	0.24
317.392	0.31
317.604	0.29
317.815	0.26
318.026	0.2
318.238	0.28
318.449	0.27
318.661	0.17
318.872	0.16
319.083	0.19
319.295	0.29
319.506	0.22
319.717	0.24
319.929	0.25
320.14	0.26
320.351	0.22
320.562	0.18
320.774	0.26
320.985	0.29
321.196	0.21
321.407	0.16
321.618	0.29
321.829	0.3
322.041	0.23
322.252	0.25
322.463	0.31
322.674	0.3
322.885	0.15
323.096	0.22
323.307	0.27
323.518	0.26
323.729	0.24
323.94	0.22
324.151	0.26
324.362	0.3
324.573	0.26
324.784	0.24
324.995	0.34
325.206	0.3
325.417	0.24
325.628	0.2
325.838	0.29
326.049	0.25
326.26	0.27
326.471	0.25
326.682	0.27
326.892	0.26
327.103	0.18
327.314	0.2
327.525	0.34
327.735	0.28
327.946	0.23
328.157	0.19
328.368	0.3
328.578	0.26
328.789	0.28
328.999	0.24
329.21	0.24
329.421	0.35
329.631	0.21
329.842	0.24
330.052	0.25
330.263	0.3
330.473	0.3
330.684	0.24
330.894	0.32
331.105	0.3
331.315	0.24
331.526	0.22
331.736	0.35
331.947	0.24
332.157	0.26
332.367	0.17
332.578	0.31
332.788	0.34
332.999	0.29
333.209	0.23
333.419	0.2
333.629	0.28
333.84	0.27
334.05	0.31
334.26	0.38
334.47	0.27
334.681	0.28
334.891	0.22
335.101	0.31
335.311	0.34
335.521	0.26
335.732	0.18
335.942	0.36
336.152	0.3
336.362	0.28
336.572	0.28
336.782	0.35
336.992	0.25
337.202	0.28
337.412	0.22
337.622	0.3
337.832	0.28
338.042	0.25
338.252	0.22
338.462	0.24
338.672	0.27
338.882	0.2
339.092	0.26
339.302	0.37
339.511	0.34
339.721	0.26
339.931	0.23
340.141	0.32
340.351	0.31
340.561	0.26
340.77	0.31
340.98	0.24
341.19	0.26
341.4	0.23
341.609	0.21
341.819	0.24
342.029	0.19
342.238	0.3
342.448	0.25
342.658	0.31
342.867	0.24
343.077	0.22
343.286	0.26
343.496	0.3
343.706	0.37
343.915	0.17
344.125	0.26
344.334	0.33
344.544	0.2
344.753	0.23
344.963	0.23
345.172	0.25
345.381	0.28
345.591	0.17
345.8	0.21
346.01	0.38
346.219	0.31
346.428	0.11
346.638	0.22
346.847	0.25
347.056	0.32
347.266	0.23
347.475	0.21
347.684	0.29
347.893	0.26
348.103	0.26
348.312	0.21
348.521	0.24
348.73	0.25
348.94	0.24
349.149	0.22
349.358	0.28
349.567	0.23
349.776	0.19
349.985	0.21
350.194	0.29
350.403	0.28
350.612	0.15
350.821	0.19
351.03	0.24
351.239	0.22
351.448	0.21
351.657	0.22
351.866	0.34
352.075	0.3
352.284	0.35
352.493	0.16
352.702	0.37
352.911	0.28
353.12	0.23
353.329	0.22
353.538	0.27
353.746	0.27
353.955	0.19
354.164	0.24
354.373	0.25
354.582	0.3
354.79	0.2
354.999	0.29
355.208	0.2
355.416	0.31
355.625	0.2
355.834	0.18
356.042	0.26
356.251	0.21
356.46	0.19
356.668	0.25
356.877	0.39
357.085	0.3
357.294	0.16
357.503	0.28
357.711	0.27
357.92	0.43
358.128	0.24
358.337	0.23
358.545	0.26
358.754	0.26
358.962	0.32
359.17	0.2
359.379	0.27
359.587	0.28
359.796	0.22
360.004	0.33
360.212	0.29
360.421	0.33
360.629	0.22
360.837	0.24
361.046	0.31
361.254	0.41
361.462	0.25
361.67	0.19
361.879	0.31
362.087	0.28
362.295	0.27
362.503	0.24
362.711	0.18
362.92	0.23
363.128	0.23
363.336	0.21
363.544	0.2
363.752	0.21
363.96	0.24
364.168	0.22
364.376	0.26
364.584	0.23
364.792	0.3
365	0.3
365.208	0.28
365.416	0.29
365.624	0.31
365.832	0.23
366.04	0.34
366.248	0.25
366.456	0.29
366.664	0.26
366.872	0.26
367.079	0.24
367.287	0.25
367.495	0.25
367.703	0.22
367.911	0.26
368.118	0.25
368.326	0.22
368.534	0.21
368.742	0.31
368.949	0.19
369.157	0.2
369.365	0.29
369.572	0.23
369.78	0.18
369.988	0.3
370.195	0.25
370.403	0.36
370.61	0.21
370.818	0.24
371.026	0.38
371.233	0.19
371.441	0.25
371.648	0.26
371.856	0.27
372.063	0.28
372.271	0.21
372.478	0.18
372.685	0.22
372.893	0.32
373.1	0.22
373.308	0.24
373.515	0.36
373.722	0.31
373.93	0.28
374.137	0.27
374.344	0.4
374.552	0.31
374.759	0.27
374.966	0.27
375.173	0.24
375.381	0.36
375.588	0.26
375.795	0.18
376.002	0.21
376.209	0.21
376.417	0.26
376.624	0.28
376.831	0.29
377.038	0.23
377.245	0.15
377.452	0.24
377.659	0.3
377.866	0.24
378.073	0.26
378.28	0.25
378.487	0.35
378.694	0.32
378.901	0.23
379.108	0.28
379.315	0.33
379.522	0.37
379.729	0.28
379.936	0.21
380.143	0.24
380.35	0.32
380.557	0.29
380.763	0.25
380.97	0.27
381.177	0.29
381.384	0.27
381.591	0.24
381.797	0.33
382.004	0.32
382.211	0.3
382.418	0.26
382.624	0.25
382.831	0.36
383.038	0.27
383.244	0.33
383.451	0.3
383.658	0.33
383.864	0.28
384.071	0.24
384.277	0.38
384.484	0.26
384.69	0.32
384.897	0.26
385.103	0.29
385.31	0.28
385.516	0.2
385.723	0.2
385.929	0.25
386.136	0.24
386.342	0.29
386.549	0.23
386.755	0.37
386.961	0.32
387.168	0.26
387.374	0.25
387.58	0.34
387.787	0.29
387.993	0.28
388.199	0.27
388.406	0.29
388.612	0.31
388.818	0.24
389.024	0.24
389.231	0.31
389.437	0.39
389.643	0.29
389.849	0.27
390.055	0.29
390.261	0.29
390.467	0.3
390.674	0.27
390.88	0.33
391.086	0.32
391.292	0.21
391.498	0.34
391.704	0.33
391.91	0.31
392.116	0.28
392.322	0.19
392.528	0.3
392.734	0.29
392.94	0.33
393.146	0.29
393.352	0.36
393.557	0.29
393.763	0.3
393.969	0.39
394.175	0.33
394.381	0.32
394.587	0.3
394.792	0.29
394.998	0.37
395.204	0.35
395.41	0.28
395.615	0.3
395.821	0.35
396.027	0.42
396.233	0.26
396.438	0.29
396.644	0.39
396.85	0.3
397.055	0.31
397.261	0.38
397.466	0.34
397.672	0.33
397.878	0.36
398.083	0.39
398.289	0.3
398.494	0.46
398.7	0.37
398.905	0.22
399.111	0.46
399.316	0.27
399.522	0.36
399.727	0.35
399.932	0.35
400.138	0.35
400.343	0.38
400.549	0.33
400.754	0.38
400.959	0.4
401.165	0.34
401.37	0.41
401.575	0.51
401.78	0.38
401.986	0.32
402.191	0.34
402.396	0.38
402.601	0.44
402.807	0.4
403.012	0.39
403.217	0.47
403.422	0.42
403.627	0.43
403.832	0.44
404.037	0.46
404.243	0.47
404.448	0.41
404.653	0.39
404.858	0.44
405.063	0.49
405.268	0.41
405.473	0.39
405.678	0.37
405.883	0.66
406.088	0.5
406.293	0.43
406.498	0.53
406.703	0.53
406.907	0.48
407.112	0.41
407.317	0.53
407.522	0.59
407.727	0.5
407.932	0.53
408.136	0.68
408.341	0.58
408.546	0.56
408.751	0.6
408.956	0.6
409.16	0.64
409.365	0.65
409.57	0.58
409.774	0.66
409.979	0.7
410.184	0.69
410.388	0.63
410.593	0.76
410.798	0.8
411.002	0.75
411.207	0.79
411.411	0.78
411.616	0.73
411.82	0.82
412.025	0.87
412.229	0.88
412.434	1.02
412.638	0.94
412.843	0.91
413.047	0.98
413.252	0.95
413.456	1.03
413.66	1.08
413.865	1.01
414.069	1.15
414.273	1.15
414.478	1.12
414.682	1.23
414.886	1.25
415.091	1.18
415.295	1.23
415.499	1.43
415.703	1.4
415.908	1.47
416.112	1.37
416.316	1.54
416.52	1.64
416.724	1.55
416.929	1.62
417.133	1.89
417.337	1.78
417.541	1.82
417.745	1.84
417.949	2
418.153	2.06
418.357	2.02
418.561	2.32
418.765	2.22
418.969	2.42
419.173	2.46
419.377	2.37
419.581	2.71
419.785	2.64
419.989	2.64
420.193	2.86
420.397	2.98
420.601	3.11
420.804	3.14
421.008	3.11
421.212	3.29
421.416	3.26
421.62	3.34
421.823	3.35
422.027	3.56
422.231	3.52
422.435	3.55
422.638	3.55
422.842	3.73
423.046	3.71
423.249	4.03
423.453	4
423.657	4.18
423.86	4.29
424.064	4.4
424.268	4.54
424.471	4.51
424.675	4.69
424.878	4.83
425.082	4.88
425.285	5.23
425.489	5.13
425.692	5.27
425.896	5.31
426.099	5.51
426.303	5.69
426.506	5.75
426.71	6.04
426.913	6.15
427.116	6.45
427.32	6.32
427.523	6.44
427.726	6.8
427.93	6.87
428.133	7.22
428.336	7.23
428.54	7.34
428.743	7.71
428.946	7.94
429.149	8.05
429.353	8.03
429.556	8.04
429.759	8.05
429.962	8.21
430.165	8.29
430.368	8.01
430.571	8.13
430.775	8.15
430.978	8.23
431.181	8.21
431.384	8.22
431.587	8.34
431.79	8.71
431.993	8.59
432.196	8.93
432.399	9.42
432.602	9.53
432.805	9.63
433.008	9.99
433.211	10.02
433.414	10.32
433.616	10.46
433.819	10.3
434.022	10.43
434.225	10.73
434.428	10.7
434.631	11.1
434.833	10.82
435.036	11.14
435.239	11.39
435.442	11.37
435.645	11.48
435.847	11.66
436.05	11.95
436.253	12.2
436.455	12.02
436.658	12.11
436.861	12.38
437.063	12.43
437.266	12.55
437.468	12.79
437.671	13.19
437.874	13.14
438.076	12.99
438.279	13.54
438.481	13.47
438.684	14.23
438.886	13.93
439.089	14.28
439.291	14.2
439.494	14.45
439.696	14.6
439.899	15.4
440.101	15.51
440.303	15.85
440.506	16.67
440.708	16.2
440.91	16.52
441.113	16.68
441.315	16.91
441.517	16.72
441.72	17.43
441.922	16.86
442.124	16.72
442.326	17.23
442.529	17.45
442.731	17.52
442.933	17.88
443.135	17.45
443.337	17.58
443.539	18.03
443.742	17.49
443.944	18.48
444.146	18.1
444.348	18.12
444.55	18
444.752	18.06
444.954	18.17
445.156	18.01
445.358	18.46
445.56	18.66
445.762	18.51
445.964	18.88
446.166	18.53
446.368	18.58
446.57	18.49
446.772	18.22
446.974	17.92
447.175	18.38
447.377	17.98
447.579	18.55
447.781	18.11
447.983	17.82
448.184	17.53
448.386	17.87
448.588	17.23
448.79	17.1
448.991	17.52
449.193	17.5
449.395	16.74
449.597	16.47
449.798	16.3
450	15.85
450.202	15.78
450.403	15.85
450.605	15.79
450.806	15.31
451.008	15.03
451.21	14.93
451.411	14.45
451.613	13.8
451.814	14.07
452.016	13.9
452.217	13.22
452.419	13.34
452.62	13.04
452.821	12.62
453.023	12.59
453.224	12.17
453.426	11.73
453.627	11.13
453.828	11.18
454.03	11.15
454.231	11.25
454.432	11.06
454.634	10.79
454.835	10.42
455.036	10.4
455.238	9.97
455.439	9.78
455.64	9.5
455.841	9.21
456.042	9.4
456.244	9.1
456.445	8.91
456.646	8.62
456.847	8.51
457.048	8.41
457.249	8.38
457.45	8.23
457.651	7.72
457.852	7.59
458.054	7.26
458.255	7.26
458.456	7.33
458.657	7.18
458.858	6.69
459.058	6.72
459.259	6.7
459.46	6.46
459.661	6.4
459.862	6.52
460.063	6.28
460.264	6.18
460.465	5.96
460.666	6.07
460.866	5.69
461.067	5.52
461.268	5.48
461.469	5.46
461.67	5.38
461.87	5.22
462.071	5.22
462.272	5.22
462.473	5.09
462.673	5.31
462.874	5.11
463.075	5.16
463.275	5.09
463.476	5.14
463.676	5.07
463.877	4.89
464.078	4.91
464.278	4.88
464.479	4.81
464.679	4.71
464.88	4.75
465.08	4.64
465.281	4.43
465.481	4.25
465.682	4.11
465.882	4.2
466.083	4.08
466.283	3.96
466.483	3.85
466.684	3.71
466.884	3.59
467.085	3.65
467.285	3.76
467.485	3.63
467.686	3.46
467.886	3.41
468.086	3.37
468.286	3.4
468.487	3.45
468.687	3.27
468.887	3.16
469.087	3.3
469.287	3.26
469.488	3.03
469.688	3.23
469.888	3.25
470.088	3.14
470.288	3.05
470.488	3.03
470.688	2.84
470.888	2.83
471.088	2.73
471.288	2.81
471.488	2.77
471.688	2.74
471.888	2.64
472.088	2.86
472.288	2.7
472.488	2.56
472.688	2.55
472.888	2.62
473.088	2.57
473.288	2.44
473.488	2.47
473.688	2.63
473.887	2.44
474.087	2.41
474.287	2.42
474.487	2.34
474.687	2.39
474.886	2.37
475.086	2.33
475.286	2.34
475.486	2.28
475.685	2.23
475.885	2.17
476.085	2.29
476.284	2.24
476.484	2.28
476.684	2.23
476.883	2.25
477.083	2.16
477.282	2.09
477.482	2.15
477.681	2.18
477.881	2.06
478.08	2.06
478.28	2.06
478.479	2.1
478.679	2.16
478.878	2.04
479.078	2.01
479.277	2.09
479.477	2.07
479.676	2
479.875	1.98
480.075	1.93
480.274	2.02
480.473	2.12
480.673	2.04
480.872	2.07
481.071	2.06
481.271	2.01
481.47	2.03
481.669	2.03
481.868	1.91
482.067	1.97
482.267	1.91
482.466	1.95
482.665	1.94
482.864	1.95
483.063	1.93
483.262	2.02
483.461	2.06
483.661	2.05
483.86	2.02
484.059	2.09
484.258	2.04
484.457	1.99
484.656	2.03
484.855	2.09
485.054	1.93
485.253	1.98
485.452	1.95
485.651	2
485.849	2.03
486.048	1.97
486.247	2.03
486.446	2.11
486.645	2.05
486.844	2.07
487.043	2.05
487.241	2.1
487.44	2.12
487.639	2.1
487.838	2.09
488.037	2.13
488.235	2.18
488.434	2.16
488.633	2.05
488.831	2.18
489.03	2.23
489.229	2.24
489.427	2.2
489.626	2.27
489.825	2.29
490.023	2.3
490.222	2.28
490.42	2.32
490.619	2.38
490.817	2.35
491.016	2.37
491.214	2.45
491.413	2.43
491.611	2.37
491.81	2.39
492.008	2.49
492.207	2.49
492.405	2.51
492.604	2.47
492.802	2.51
493	2.6
493.199	2.61
493.397	2.63
493.595	2.71
493.794	2.67
493.992	2.81
494.19	2.75
494.388	2.81
494.587	2.76
494.785	2.78
494.983	2.74
495.181	2.9
495.379	2.91
495.578	2.95
495.776	2.94
495.974	2.95
496.172	2.96
496.37	3.1
496.568	3.14
496.766	3.1
496.964	3.2
497.162	3.15
497.36	3.22
497.558	3.24
497.756	3.3
497.954	3.28
498.152	3.35
498.35	3.45
498.548	3.39
498.746	3.41
498.944	3.41
499.142	3.43
499.34	3.5
499.538	3.63
499.736	3.51
499.933	3.66
500.131	3.63
500.329	3.77
500.527	3.75
500.725	3.86
500.922	3.86
501.12	3.89
501.318	3.97
501.516	3.95
501.713	4.06
501.911	3.98
502.109	4.01
502.306	4.11
502.504	3.98
502.701	4.14
502.899	4.21
503.097	4.34
503.294	4.24
503.492	4.34
503.689	4.36
503.887	4.35
504.084	4.46
504.282	4.39
504.479	4.4
504.677	4.59
504.874	4.53
505.072	4.5
505.269	4.68
505.466	4.7
505.664	4.76
505.861	4.68
506.059	4.77
506.256	4.85
506.453	4.92
506.651	4.97
506.848	4.95
507.045	4.99
507.242	4.99
507.44	5.01
507.637	5.07
507.834	5.05
508.031	5.21
508.229	5.17
508.426	5.12
508.623	5.28
508.82	5.28
509.017	5.31
509.214	5.32
509.411	5.39
509.608	5.35
509.805	5.46
510.003	5.46
510.2	5.54
510.397	5.69
510.594	5.54
510.791	5.62
510.988	5.69
511.184	5.65
511.381	5.53
511.578	5.62
511.775	5.84
511.972	5.73
512.169	5.83
512.366	5.78
512.563	5.93
512.76	6
512.956	6.01
513.153	5.97
513.35	5.89
513.547	5.99
513.744	5.99
513.94	6.03
514.137	6.19
514.334	6.13
514.53	6.16
514.727	6.37
514.924	6.28
515.12	6.26
515.317	6.28
515.514	6.23
515.71	6.18
515.907	6.46
516.103	6.45
516.3	6.39
516.497	6.5
516.693	6.49
516.89	6.49
517.086	6.54
517.283	6.54
517.479	6.45
517.676	6.65
517.872	6.64
518.068	6.63
518.265	6.64
518.461	6.6
518.658	6.7
518.854	6.68
519.05	6.81
519.247	6.84
519.443	6.81
519.639	6.87
519.836	6.81
520.032	6.8
520.228	6.94
520.424	6.86
520.621	6.95
520.817	7
521.013	6.89
521.209	7.17
521.405	7.1
521.601	7.06
521.798	6.99
521.994	7.05
522.19	6.98
522.386	7.04
522.582	7.1
522.778	7.25
522.974	7.07
523.17	7.1
523.366	7.09
523.562	7.14
523.758	7.19
523.954	7.08
524.15	7.25
524.346	7.29
524.542	7.26
524.738	7.23
524.934	7.37
525.129	7.37
525.325	7.23
525.521	7.21
525.717	7.44
525.913	7.36
526.109	7.31
526.304	7.47
526.5	7.48
526.696	7.53
526.892	7.41
527.087	7.56
527.283	7.53
527.479	7.57
527.674	7.29
527.87	7.54
528.066	7.51
528.261	7.56
528.457	7.48
528.653	7.6
528.848	7.56
529.044	7.68
529.239	7.57
529.435	7.49
529.63	7.46
529.826	7.6
530.021	7.6
530.217	7.66
530.412	7.64
530.608	7.66
530.803	7.63
530.999	7.55
531.194	7.68
531.389	7.72
531.585	7.68
531.78	7.8
531.975	7.7
532.171	7.81
532.366	7.74
532.561	7.82
532.757	7.72
532.952	7.89
533.147	7.64
533.342	7.78
533.538	7.72
533.733	7.95
533.928	7.68
534.123	7.82
534.318	7.86
534.513	7.79
534.709	7.88
534.904	7.87
535.099	7.96
535.294	7.89
535.489	7.9
535.684	7.84
535.879	7.86
536.074	7.93
536.269	7.92
536.464	7.95
536.659	7.9
536.854	7.91
537.049	8.03
537.244	7.9
537.439	7.91
537.634	7.91
537.828	8.06
538.023	7.98
538.218	7.9
538.413	7.86
538.608	7.93
538.803	7.93
538.997	7.92
539.192	7.99
539.387	7.94
539.582	7.91
539.776	7.84
539.971	7.97
540.166	8.07
540.36	7.91
540.555	8.09
540.75	7.98
540.944	7.98
541.139	8.04
541.334	7.97
541.528	8.04
541.723	8.07
541.917	8.04
542.112	7.92
542.306	7.87
542.501	7.93
542.695	8.06
542.89	7.94
543.084	8.03
543.279	8.05
543.473	8.08
543.668	8.09
543.862	7.9
544.056	7.91
544.251	8.12
544.445	8.11
544.64	8.17
544.834	7.84
545.028	7.72
545.222	7.99
545.417	8.25
545.611	8.13
545.805	8
546	7.9
546.194	8.11
546.388	8.12
546.582	8.02
546.776	8.03
546.97	8.08
547.165	8.08
547.359	8.09
547.553	8.02
547.747	8.05
547.941	8.27
548.135	8
548.329	8.1
548.523	8.09
548.717	8
548.911	7.97
549.105	7.97
549.299	8.16
549.493	8.15
549.687	8.03
549.881	8.16
550.075	8.16
550.269	8.02
550.463	8.12
550.657	8.09
550.85	8.07
551.044	8.08
551.238	8.14
551.432	8.1
551.626	8.13
551.82	8.18
552.013	8.02
552.207	8.22
552.401	8.2
552.594	8.13
552.788	8.03
552.982	8.11
553.176	8.02
553.369	8.27
553.563	8.16
553.756	8.09
553.95	8.19
554.144	8.16
554.337	8.21
554.531	7.94
554.724	8.1
554.918	8.14
555.111	8.05
555.305	8.08
555.498	8.04
555.692	8.19
555.885	8.14
556.079	8.14
556.272	8.09
556.466	8.11
556.659	8.05
556.852	8.21
557.046	8.04
557.239	7.99
557.432	8.06
557.626	8.14
557.819	8.16
558.012	8.11
558.206	8.15
558.399	8.17
558.592	8.14
558.785	8.08
558.979	8.08
559.172	8.11
559.365	8.21
559.558	8.09
559.751	8.04
559.944	8.24
560.138	8.09
560.331	8.17
560.524	8.18
560.717	8.12
560.91	8.12
561.103	8.11
561.296	7.98
561.489	8.2
561.682	8.2
561.875	8.14
562.068	8.16
562.261	8.01
562.454	8.34
562.647	8.06
562.84	8.15
563.032	8.11
563.225	8.05
563.418	8.08
563.611	8.15
563.804	8.22
563.997	7.97
564.19	7.86
564.382	8.19
564.575	8.13
564.768	8.08
564.961	8.21
565.153	8.03
565.346	7.99
565.539	8.11
565.731	8.13
565.924	8.17
566.117	8.26
566.309	8.16
566.502	8.05
566.695	8.06
566.887	8.13
567.08	8.05
567.272	8.1
567.465	8.03
567.657	8.19
567.85	7.98
568.042	8.11
568.235	8.18
568.427	7.9
568.62	8.06
568.812	8
569.005	8.19
569.197	7.98
569.389	8.09
569.582	8.08
569.774	8.09
569.966	8
570.159	7.96
570.351	8.05
570.543	8.04
570.736	8.05
570.928	7.9
571.12	8.05
571.312	8.03
571.505	7.74
571.697	8.14
571.889	7.98
572.081	8.01
572.273	7.92
572.465	8.04
572.658	8.02
572.85	7.99
573.042	8.03
573.234	7.93
573.426	7.94
573.618	7.98
573.81	8.04
574.002	7.91
574.194	8.05
574.386	7.9
574.578	7.78
574.77	7.92
574.962	7.94
575.154	7.83
575.346	7.87
575.538	7.85
575.729	7.81
575.921	7.92
576.113	7.94
576.305	7.9
576.497	8
576.689	7.83
576.88	7.71
577.072	7.95
577.264	7.91
577.456	7.88
577.647	7.87
577.839	8.07
578.031	7.92
578.223	7.84
578.414	7.7
578.606	7.9
578.798	7.9
578.989	7.86
579.181	7.85
579.372	7.85
579.564	7.83
579.755	7.68
579.947	7.77
580.139	7.89
580.33	7.68
580.522	7.8
580.713	7.68
580.905	7.79
581.096	7.9
581.287	7.73
581.479	7.74
581.67	7.84
581.862	7.69
582.053	7.76
582.244	7.59
582.436	7.85
582.627	7.66
582.818	7.58
583.01	7.62
583.201	7.76
583.392	7.62
583.583	7.56
583.775	7.52
583.966	7.55
584.157	7.64
584.348	7.74
584.54	7.57
584.731	7.68
584.922	7.48
585.113	7.43
585.304	7.56
585.495	7.65
585.686	7.68
585.877	7.64
586.068	7.7
586.259	7.56
586.45	7.52
586.641	7.45
586.832	7.57
587.023	7.53
587.214	7.48
587.405	7.52
587.596	7.37
587.787	7.4
587.978	7.49
588.169	7.4
588.36	7.33
588.551	7.43
588.742	7.43
588.932	7.54
589.123	7.3
589.314	7.5
589.505	7.41
589.696	7.37
589.886	7.35
590.077	7.37
590.268	7.26
590.458	7.25
590.649	7.15
590.84	7.29
591.03	7.3
591.221	7.32
591.412	7.16
591.602	7.41
591.793	7.3
591.984	7.32
592.174	7.23
592.365	7.42
592.555	7.07
592.746	7.11
592.936	7.19
593.127	7.23
593.317	7.21
593.508	7.21
593.698	7.12
593.889	7.1
594.079	7.1
594.269	6.99
594.46	7.09
594.65	7.12
594.84	7.09
595.031	6.96
595.221	7.06
595.411	7.01
595.602	7.03
595.792	6.95
595.982	6.97
596.172	7.03
596.363	6.95
596.553	6.9
596.743	6.96
596.933	6.95
597.123	6.85
597.314	6.77
597.504	6.78
597.694	6.95
597.884	6.87
598.074	6.87
598.264	6.82
598.454	6.8
598.644	6.72
598.834	6.78
599.024	6.7
599.214	6.72
599.404	6.81
599.594	6.75
599.784	6.67
599.974	6.79
600.164	6.72
600.354	6.58
600.544	6.55
600.734	6.68
600.924	6.6
601.114	6.49
601.303	6.51
601.493	6.6
601.683	6.55
601.873	6.49
602.063	6.51
602.252	6.63
602.442	6.44
602.632	6.42
602.821	6.42
603.011	6.48
603.201	6.45
603.39	6.4
603.58	6.29
603.77	6.37
603.959	6.49
604.149	6.35
604.339	6.29
604.528	6.43
604.718	6.43
604.907	6.25
605.097	6.24
605.286	6.32
605.476	6.27
605.665	6.32
605.855	6.21
606.044	6.31
606.234	6.26
606.423	6.15
606.612	6.13
606.802	6.1
606.991	6.19
607.181	6.27
607.37	6.17
607.559	5.88
607.749	6.12
607.938	6.02
608.127	6.05
608.316	6.05
608.506	6.03
608.695	6.02
608.884	6.03
609.073	6.04
609.263	6.08
609.452	6.03
609.641	5.87
609.83	5.87
610.019	5.97
610.208	5.86
610.397	5.87
610.586	5.89
610.775	5.75
610.965	5.81
611.154	5.67
611.343	5.82
611.532	5.72
611.721	5.83
611.91	5.68
612.099	5.72
612.287	5.62
612.476	5.58
612.665	5.79
612.854	5.61
613.043	5.65
613.232	5.65
613.421	5.54
613.61	5.58
613.798	5.59
613.987	5.59
614.176	5.56
614.365	5.6
614.554	5.53
614.742	5.58
614.931	5.36
615.12	5.6
615.309	5.47
615.497	5.41
615.686	5.32
615.875	5.42
616.063	5.33
616.252	5.32
616.44	5.43
616.629	5.31
616.818	5.23
617.006	5.19
617.195	5.26
617.383	5.29
617.572	5.2
617.76	5.19
617.949	5.17
618.137	5.21
618.326	5.29
618.514	5.09
618.703	4.98
618.891	5.19
619.079	5.04
619.268	5.16
619.456	4.97
619.644	5.14
619.833	5.1
620.021	5.02
620.209	4.91
620.398	5
620.586	4.96
620.774	4.97
620.962	5.01
621.151	5.02
621.339	4.9
621.527	4.88
621.715	4.8
621.903	4.87
622.092	4.8
622.28	4.89
622.468	4.63
622.656	4.83
622.844	4.78
623.032	4.76
623.22	4.64
623.408	4.82
623.596	4.74
623.784	4.76
623.972	4.65
624.16	4.65
624.348	4.73
624.536	4.72
624.724	4.51
624.912	4.64
625.1	4.67
625.288	4.6
625.476	4.53
625.664	4.58
625.851	4.52
626.039	4.56
626.227	4.47
626.415	4.53
626.603	4.44
626.79	4.45
626.978	4.47
627.166	4.48
627.354	4.42
627.541	4.34
627.729	4.27
627.917	4.43
628.104	4.4
628.292	4.33
628.48	4.32
628.667	4.25
628.855	4.36
629.042	4.37
629.23	4.28
629.418	4.23
629.605	4.28
629.793	4.19
629.98	4.17
630.168	4.15
630.355	4.23
630.543	4.14
630.73	4.07
630.917	4.13
631.105	4.26
631.292	4.09
631.48	4.09
631.667	4.21
631.854	4.07
632.042	4.01
632.229	3.9
632.416	4.04
632.604	4
632.791	3.91
632.978	3.98
633.165	3.96
633.353	4.11
633.54	3.99
633.727	3.84
633.914	3.84
634.101	3.87
634.289	3.94
634.476	3.78
634.663	3.78
634.85	3.82
635.037	3.76
635.224	3.68
635.411	3.85
635.598	3.71
635.785	3.77
635.972	3.7
636.159	3.7
636.346	3.68
636.533	3.61
636.72	3.59
636.907	3.63
637.094	3.65
637.281	3.49
637.468	3.57
637.655	3.61
637.842	3.63
638.029	3.49
638.215	3.48
638.402	3.55
638.589	3.5
638.776	3.43
638.963	3.5
639.149	3.51
639.336	3.57
639.523	3.48
639.709	3.45
639.896	3.39
640.083	3.36
640.27	3.43
640.456	3.31
640.643	3.36
640.829	3.26
641.016	3.32
641.203	3.23
641.389	3.33
641.576	3.33
641.762	3.22
641.949	3.24
642.135	3.26
642.322	3.16
642.508	3.05
642.695	3.22
642.881	3.17
643.068	3.08
643.254	3.15
643.441	3.18
643.627	3.21
643.813	3.09
644	3.16
644.186	3.06
644.372	3.07
644.559	3.11
644.745	3.04
644.931	3
645.118	3.02
645.304	3.07
645.49	3
645.676	2.95
645.862	2.97
646.049	3.06
646.235	2.94
646.421	3.04
646.607	3.08
646.793	2.91
646.979	2.83
647.165	2.94
647.352	2.94
647.538	2.87
647.724	2.85
647.91	2.82
648.096	2.85
648.282	2.87
648.468	2.79
648.654	2.86
648.84	2.82
649.026	2.8
649.212	2.74
649.397	2.68
649.583	2.68
649.769	2.83
649.955	2.71
650.141	2.74
650.327	2.76
650.513	2.68
650.698	2.7
650.884	2.55
651.07	2.7
651.256	2.65
651.442	2.63
651.627	2.57
651.813	2.69
651.999	2.52
652.184	2.58
652.37	2.51
652.556	2.54
652.741	2.62
652.927	2.41
653.113	2.49
653.298	2.56
653.484	2.48
653.669	2.45
653.855	2.51
654.04	2.48
654.226	2.47
654.412	2.38
654.597	2.31
654.782	2.45
654.968	2.48
655.153	2.4
655.339	2.36
655.524	2.33
655.71	2.38
655.895	2.31
656.08	2.34
656.266	2.42
656.451	2.33
656.636	2.25
656.822	2.35
657.007	2.26
657.192	2.27
657.378	2.24
657.563	2.25
657.748	2.31
657.933	2.31
658.118	2.17
658.304	2.2
658.489	2.23
658.674	2.19
658.859	2.16
659.044	2.18
659.229	2.23
659.414	2.13
659.599	2.14
659.785	2.1
659.97	2.14
660.155	2.16
660.34	2.17
660.525	2.1
660.71	2.03
660.895	2.13
661.08	2.08
661.264	2.01
661.449	2.17
661.634	2.07
661.819	2.1
662.004	2.01
662.189	1.9
662.374	1.99
662.559	1.93
662.743	1.91
662.928	2.01
663.113	1.96
663.298	1.9
663.483	1.93
663.667	1.95
663.852	1.88
664.037	1.95
664.221	1.91
664.406	2.01
664.591	2
664.775	1.93
664.96	1.9
665.145	1.85
665.329	1.92
665.514	1.83
665.698	1.83
665.883	1.79
666.068	1.92
666.252	1.85
666.437	1.78
666.621	1.82
666.806	1.83
666.99	1.78
667.174	1.76
667.359	1.85
667.543	1.76
667.728	1.74
667.912	1.69
668.096	1.8
668.281	1.73
668.465	1.78
668.649	1.78
668.834	1.65
669.018	1.76
669.202	1.67
669.387	1.66
669.571	1.77
669.755	1.65
669.939	1.68
670.124	1.66
670.308	1.65
670.492	1.67
670.676	1.64
670.86	1.64
671.044	1.61
671.228	1.66
671.413	1.58
671.597	1.56
671.781	1.55
671.965	1.63
672.149	1.57
672.333	1.55
672.517	1.56
672.701	1.58
672.885	1.57
673.069	1.47
673.253	1.64
673.437	1.51
673.621	1.54
673.804	1.47
673.988	1.54
674.172	1.46
674.356	1.41
674.54	1.51
674.724	1.66
674.908	1.51
675.091	1.48
675.275	1.48
675.459	1.52
675.643	1.46
675.826	1.46
676.01	1.38
676.194	1.47
676.377	1.51
676.561	1.46
676.745	1.42
676.928	1.46
677.112	1.49
677.296	1.39
677.479	1.33
677.663	1.42
677.846	1.43
678.03	1.4
678.213	1.34
678.397	1.43
678.58	1.36
678.764	1.4
678.947	1.27
679.131	1.38
679.314	1.43
679.498	1.4
679.681	1.35
679.865	1.37
680.048	1.3
680.231	1.29
680.415	1.23
680.598	1.29
680.781	1.28
680.965	1.26
681.148	1.28
681.331	1.24
681.514	1.35
681.698	1.22
681.881	1.19
682.064	1.29
682.247	1.31
682.43	1.2
682.614	1.26
682.797	1.3
682.98	1.29
683.163	1.17
683.346	1.22
683.529	1.15
683.712	1.14
683.895	1.23
684.078	1.14
684.261	1.14
684.444	1.27
684.627	1.29
684.81	1.21
684.993	1.15
685.176	1.17
685.359	1.11
685.542	1.15
685.725	1.26
685.908	1.15
686.091	1.1
686.274	1.17
686.457	1.16
686.639	1.17
686.822	1.23
687.005	1.13
687.188	1.21
687.371	1.31
687.553	1.14
687.736	1.17
687.919	1.26
688.102	1.21
688.284	1.13
688.467	1.03
688.65	1.1
688.832	1
689.015	1.09
689.197	0.92
689.38	1.21
689.563	1.23
689.745	0.96
689.928	1.01
690.11	1.06
690.293	1.07
690.475	0.97
690.658	1.04
690.84	1.07
691.023	0.93
691.205	0.92
691.388	1.03
691.57	1.06
691.752	1.05
691.935	0.88
692.117	0.95
692.3	1
692.482	0.98
692.664	0.95
692.847	1.01
693.029	1.07
693.211	1
693.393	0.97
693.576	0.9
693.758	0.99
693.94	0.97
694.122	0.93
694.304	0.93
694.487	0.93
694.669	1.04
694.851	0.89
695.033	0.87
695.215	0.89
695.397	0.9
695.579	0.88
695.761	0.85
695.943	0.84
696.125	0.99
696.308	0.97
696.49	0.77
696.671	1.05
696.853	0.85
697.035	1.07
697.217	0.83
697.399	0.99
697.581	0.87
697.763	0.87
697.945	0.78
698.127	0.9
698.309	0.95
698.491	0.85
698.672	0.93
698.854	0.94
699.036	0.96
699.218	0.78
699.399	0.86
699.581	0.9
699.763	0.89
699.945	0.81
700.126	0.72
700.308	0.88
700.49	0.89
700.671	0.74
700.853	0.76
701.035	0.8
701.216	0.82
701.398	0.72
701.579	0.79
701.761	0.87
701.943	0.86
702.124	0.75
702.306	0.76
702.487	1.02
702.669	0.83
702.85	0.71
703.031	0.71
703.213	0.9
703.394	0.89
703.576	0.75
703.757	0.96
703.938	0.96
704.12	1.01
704.301	0.82
704.483	0.69
704.664	0.77
704.845	0.87
705.026	0.8
705.208	0.73
705.389	0.79
705.57	0.75
705.751	0.71
705.933	0.77
706.114	0.82
706.295	0.73
706.476	0.63
706.657	0.85
706.838	0.81
707.02	0.8
707.201	0.71
707.382	0.73
707.563	0.83
707.744	0.69
707.925	0.65
708.106	0.63
708.287	0.68
708.468	0.83
708.649	0.75
708.83	0.71
709.011	0.65
709.192	0.79
709.373	0.6
709.554	0.63
709.734	0.8
709.915	0.72
710.096	0.71
710.277	0.53
710.458	0.67
710.639	0.76
710.819	0.55
711	0.61
711.181	0.75
711.362	0.78
711.542	0.71
711.723	0.69
711.904	0.84
712.085	0.71
712.265	0.68
712.446	0.54
712.627	0.64
712.807	0.68
712.988	0.68
713.168	0.53
713.349	0.67
713.53	0.52
713.71	0.56
713.891	0.58
714.071	0.65
714.252	0.61
714.432	0.6
714.613	0.54
714.793	0.62
714.974	0.75
715.154	0.73
715.334	0.68
715.515	0.74
715.695	0.48
715.876	0.6
716.056	0.57
716.236	0.6
716.417	0.59
716.597	0.57
716.777	0.85
716.957	0.67
717.138	0.58
717.318	0.59
717.498	0.49
717.678	0.57
717.859	0.62
718.039	0.48
718.219	0.58
718.399	0.57
718.579	0.53
718.759	0.41
718.939	0.5
719.12	0.58
719.3	0.6
719.48	0.39
719.66	0.38
719.84	0.72
720.02	0.61
720.2	0.51
720.38	0.54
720.56	0.71
720.74	0.44
720.92	0.63
721.1	0.72
721.279	0.61
721.459	0.6
721.639	0.41
721.819	0.58
721.999	0.45
722.179	0.7
722.359	0.46
722.538	0.54
722.718	0.65
722.898	0.59
723.078	0.48
723.257	0.54
723.437	0.65
723.617	0.5
723.797	0.51
723.976	0.47
724.156	0.61
724.336	0.71
724.515	0.79
724.695	0.39
724.874	0.56
725.054	0.6
725.234	0.52
725.413	0.51
725.593	0.53
725.772	0.53
725.952	0.46
726.131	0.45
726.311	0.58
726.49	0.64
726.67	0.45
726.849	0.45
727.028	0.57
727.208	0.5
727.387	0.5
727.567	0.43
727.746	0.49
727.925	0.53
728.105	0.41
728.284	0.4
728.463	0.52
728.643	0.63
728.822	0.42
729.001	0.35
729.18	0.52
729.359	0.61
729.539	0.49
729.718	0.55
729.897	0.53
730.076	0.4
730.255	0.46
730.434	0.49
730.614	0.65
730.793	0.55
730.972	0.49
731.151	0.48
731.33	0.74
731.509	0.55
731.688	0.44
731.867	0.51
732.046	0.3
732.225	0.77
732.404	0.43
732.583	0.33
732.762	0.38
732.941	0.59
733.12	0.54
733.298	0.49
733.477	0.67
733.656	0.44
733.835	0.39
734.014	0.56
734.193	0.52
734.371	0.58
734.55	0.56
734.729	0.32
734.908	0.53
735.086	0.56
735.265	0.61
735.444	0.3
735.623	0.42
735.801	0.47
735.98	0.37
736.159	0.46
736.337	0.49
736.516	0.59
736.694	0.6
736.873	0.42
737.052	0.69
737.23	0.73
737.409	0.39
737.587	0.82
737.766	0.39
737.944	0.51
738.123	0.48
738.301	0.55
738.479	0.46
738.658	0.53
738.836	0.34
739.015	0.51
739.193	0.66
739.371	0.38
739.55	0.4
739.728	0.45
739.906	0.69
740.085	0.72
740.263	0.47
740.441	0.3
740.62	0.74
740.798	0.56
740.976	0.36
741.154	0.26
741.332	0.64
741.511	0.46
741.689	0.55
741.867	0.51
742.045	0.55
742.223	0.49
742.401	0.43
742.579	0.33
742.757	0.6
742.935	0.34
743.114	0.41
743.292	0.37
743.47	0.36
743.648	0.52
743.826	0.3
744.004	0.52
744.181	0.66
744.359	0.46
744.537	0.51
744.715	0.4
744.893	0.42
745.071	0.45
745.249	0.44
745.427	0.38
745.605	0.56
745.782	0.47
745.96	0.6
746.138	0.63
746.316	0.58
746.493	0.37
746.671	0.44
746.849	0.3
747.027	0.73
747.204	0.27
747.382	0.49
747.56	0.34
747.737	0.41
747.915	0.42
748.093	0.51
748.27	0.3
748.448	0.44
748.625	0.32
748.803	0.38
748.98	0.27
749.158	0.45
749.335	0.6
749.513	0.38
749.69	0.28
749.868	0.48
750.045	0.37
750.223	0.3
750.4	0.17
750.578	0.63
750.755	0.35
750.932	0.13
751.11	0.54
751.287	0.35
751.464	0.56
751.642	0.27
751.819	0.51
751.996	0.4
752.173	0.25
752.351	0.29
752.528	0.36
752.705	0.43
752.882	0.33
753.06	0.44
753.237	0.38
753.414	0.75
753.591	0.69
753.768	0.37
753.945	0.36
754.122	0.43
754.299	0.54
754.476	0.23
754.654	0.45
754.831	0.5
755.008	0.54
755.185	0.32
755.362	0.25
755.539	0.45
755.716	0.33
755.892	0.39
756.069	0.4
756.246	0.55
756.423	0.41
756.6	0.47
756.777	0.3
756.954	0.51
757.131	0.37
757.307	0.24
757.484	0.25
757.661	0.39
757.838	0.52
758.015	0.19
758.191	0.44
758.368	0.57
758.545	0.57
758.721	0.51
758.898	0.12
759.075	0.48
759.251	0.44
759.428	0.48
759.605	0.24
759.781	0.4
759.958	0.55
760.134	0.53
760.311	0.22
760.488	0.68
760.664	0.61
760.841	0.39
761.017	0.25
761.194	0.42
761.37	0.46
761.547	0.45
761.723	0.26
761.899	0.54
762.076	0.37
762.252	0.21
762.429	0.28
762.605	0.48
762.781	0.35
762.958	0.35
763.134	0.36
763.31	0.29
763.486	0.68
763.663	0.05
763.839	0.3
764.015	0.14
764.191	0.41
764.368	0.36
764.544	0.27
764.72	0.44
764.896	0.45
765.072	0.39
765.248	0.36
765.425	0.32
765.601	0.48
765.777	0.28
765.953	-0
766.129	0.22
766.305	0.26
766.481	0.48
766.657	0.44
766.833	0.63
767.009	0.1
767.185	0.31
767.361	0.36
767.537	0.36
767.713	0.53
767.889	0.28
768.065	0.27
768.24	0.16
768.416	0.58
768.592	0.36
768.768	0.43
768.944	0.6
769.12	0.3
769.295	0.46
769.471	0.5
769.647	0.37
769.823	0.52
769.998	0.3
770.174	0.3
770.35	0.74
770.525	0.8
770.701	0.41
770.877	0.38
771.052	0.29
771.228	0.58
771.403	0.42
771.579	0.31
771.755	0.94
771.93	0.36
772.106	0.15
772.281	0.04
772.457	0.3
772.632	0.61
772.808	0.03
772.983	0.42
773.159	0.3
773.334	0.55
773.509	0.44
773.685	0.33
773.86	0.76
774.036	0.6
774.211	0.46
774.386	0.37
774.562	0.46
774.737	0.4
774.912	0.14
775.087	0.54
775.263	0.31
775.438	0.53
775.613	0.26
775.788	0.41
775.964	0.64
776.139	0.92
776.314	0.16
776.489	0.62
776.664	0.49
776.839	0.17
777.014	0.63
777.19	0.43
777.365	0.72
777.54	0.71
777.715	0.24
777.89	0.49
778.065	0.23
778.24	0.33
778.415	0.61
778.59	0.19
778.765	0.34
778.94	0.56
779.115	0.37
779.289	0.36
779.464	0.4
779.639	0.27
779.814	0.28
779.989	0.1
780.164	0.65
780.339	0.56
780.513	0.32
780.688	0.16
780.863	0.45
781.038	0.7
781.212	0.33
781.387	0.31
781.562	0.76
781.737	0.42
781.911	0.73
782.086	0.13
782.261	0.29
782.435	0.7
782.61	0.31
782.784	0.5
782.959	0.73
783.134	0.42
783.308	0.27
783.483	0.38
783.657	1.09
783.832	0.73
784.006	0.05
784.181	0.49
784.355	0.81
784.53	0.1
784.704	0.22
784.878	0.78
785.053	0.65
785.227	0.75
785.402	0.82
785.576	0.4
785.75	0.51
785.925	0.22
786.099	0.62
786.273	0.38
786.448	0.61
786.622	0.7
786.796	0.44
786.97	0.39
787.145	1.13
787.319	0.09
787.493	0.33
787.667	-0.1
787.841	0.48
788.015	0.88
788.19	0.26
788.364	0.25
788.538	0.82
788.712	0.79
788.886	0.26
789.06	0.62
789.234	0.77
789.408	0.31
789.582	0.47
789.756	0.46
789.93	0.11
790.104	0.42
790.278	0.64
790.452	0.15
790.626	0.63
790.8	0.32
790.973	0.7
791.147	0.79
791.321	0.95
791.495	0.71
791.669	0.51
791.843	0.6
792.016	0.4
792.19	1.05
792.364	0.19
792.538	1.07
792.711	0.75
792.885	0.29
793.059	0.28
793.233	-0.09
793.406	0.74
793.58	0.67
793.754	0.49
793.927	0.29
794.101	0.81
794.274	0.35
794.448	0.91
794.622	0.32
794.795	1
794.969	0.32
795.142	0.79
795.316	0.17
795.489	0.58
795.663	0.97
795.836	0.46
796.009	0.24
796.183	0.93
796.356	0.63
796.53	0.43
796.703	0.41
796.876	1.29
797.05	0.45
797.223	0.43
797.396	0.62
797.57	0.46
797.743	1.13
797.916	0.35
798.09	0.56
798.263	0.89
798.436	0.54
798.609	0.47
798.782	0.47
798.956	0.73
799.129	0.53
799.302	0.4
799.475	0.34
799.648	0.28
799.821	0.58
799.994	0.4
800.167	0.13
800.34	0.48
800.514	0.82
800.687	0.31
800.86	0.11
801.033	0.79
801.206	0.93
801.379	0.24
801.551	0.69
801.724	0.74
801.897	1.23
802.07	0.41
802.243	-0.01
802.416	0.84
802.589	0.86
802.762	0.49
802.935	0.61
803.107	1.07
803.28	0.96
803.453	0.76
803.626	0.37
803.798	0.64
803.971	0.53
804.144	0.71
804.317	0.81
804.489	0.99
804.662	0.7
804.835	0.7
805.007	0.45
805.18	1.01
805.353	0.66
805.525	0.2
805.698	0.08
805.87	1.25
806.043	0.88
806.215	-0.33
806.388	0.32
806.56	0.88
806.733	1.46
806.905	0.52
807.078	0.24
807.25	0.76
807.423	0.88
807.595	0.83
807.768	0.39
807.94	1.06
808.112	0.88
808.285	0.58
808.457	0.47
808.629	0.73
808.802	0.7
808.974	0.72
809.146	0.46
809.318	-0.17
809.491	0.96
809.663	1.15
809.835	0.43
810.007	0.65
810.18	0.86
810.352	0.09
810.524	0.22
810.696	1.15
810.868	1.09
811.04	0.46
811.212	0.96
811.384	1.35
811.556	0.84
811.728	0.43
811.901	1.99
812.073	0.49
812.245	0.82
812.417	0.64
812.589	-0.02
812.76	0.7
812.932	1.27
813.104	0.97
813.276	0.41
813.448	0.99
813.62	0.84
813.792	0.73
813.964	0.63
814.136	1
814.307	0.64
814.479	0.07
814.651	0.31
814.823	1.81
814.995	0.92
815.166	1.08
815.338	0.69
815.51	-0.04
815.681	1.65
815.853	0.83
816.025	0.35
816.196	1.59
816.368	1.32
816.54	0.44
816.711	0.41
816.883	1.48
817.054	2.18
817.226	0.14
817.398	0.73
817.569	0.24
817.741	0.69
817.912	0.89
818.084	0.41
818.255	1.35
818.426	0.38
818.598	0.81
818.769	0.13
818.941	1.54
819.112	1.17
819.283	0.47
819.455	-0.1
819.626	1.11
819.798	0.84
819.969	0.82
820.14	0.22
820.311	0.83
820.483	1
820.654	0.91
820.825	0.78
820.996	0.72
821.168	0.33
821.339	0.72
821.51	0.05
821.681	0.73
821.852	0.95
822.023	-0.3
822.195	-0.11
822.366	1.08
822.537	1
822.708	0.49
822.879	0.32
823.05	1.55
823.221	0.63
823.392	1.04
823.563	0.89
823.734	1.3
823.905	1
824.076	0.45
824.247	0.48
824.418	1.03
824.589	1.89
824.759	0.67
824.93	0.9
825.101	-0.32
825.272	1.2
825.443	1.2
825.614	1.53
825.784	0.28
825.955	2.08
826.126	1.57
826.297	0.85
826.467	1.95
826.638	2.88
826.809	0.11
826.98	0.67
827.15	1.04
827.321	0.9
827.492	1.31
827.662	0.92
827.833	2.75
828.003	1.22
828.174	0.29
828.345	0.17
828.515	2.01
828.686	1.28
828.856	0.7
829.027	0.93
829.197	1.66
829.368	1.43
829.538	0.7
829.709	0.54
829.879	1.45
830.049	0.87
830.22	0.58
830.39	0.71
830.56	1.75
830.731	0.4
830.901	-0.12
831.072	0.79
831.242	1.17
831.412	1.29
831.582	0.72
831.753	0.4
831.923	1.73
832.093	1.79
832.263	1.13
832.434	0.15
832.604	0.43
832.774	1.47
832.944	0.52
833.114	0.78
833.284	1.27
833.454	0.7
833.624	0.64
833.795	1.08
833.965	2.08
834.135	1.72
834.305	-0.66
834.475	0.35
834.645	1.71
834.815	1.46
834.985	0.06
835.155	-0.04
835.325	1.54
835.494	1.38
835.664	0.32
835.834	0.33
836.004	0.41
836.174	1.04
836.344	0.55
836.514	0.26
836.684	0.68
836.853	1.55
837.023	0.86
837.193	0.83
837.363	1.66
837.532	1.96
837.702	0.54
837.872	0.64
838.041	1.7
838.211	2.47
838.381	-0.01
838.55	0.71
838.72	3.98
838.89	2.94
839.059	0.57
839.229	0.07
839.398	3.05
839.568	1.53
839.738	0.18
839.907	2.46
840.077	1.14
840.246	0.94
840.416	0.13
840.585	0.46
840.755	3.24
840.924	2.4
841.093	-0.24
841.263	0.24
841.432	0.51
841.602	0.71
841.771	0.61
841.94	1.01
842.11	3.59
842.279	2.88
842.448	0.65
842.617	0.28
842.787	2.61
842.956	-0.26
843.125	0.53
843.294	0.02
843.464	1.74
843.633	2.1
843.802	-0.55
843.971	0.77
844.14	2.44
844.309	2.39
844.479	-0.01
844.648	1.02
844.817	1.25
844.986	1.4
845.155	0.32
845.324	1.51
845.493	1.23
845.662	-0.28
845.831	1.51
846	1.01
846.169	0.56
846.338	3.04
846.507	0.88
846.676	1.56
846.844	1.3
847.013	1.98
847.182	1.01
847.351	0.45
847.52	1.14
847.689	1.79
847.858	0.41
848.026	0.14
848.195	2.31
848.364	0.94
848.533	0.85
848.701	-0.19
848.87	2.22
849.039	2.66
849.207	1.39
849.376	3.18
849.545	3
849.713	0.16
849.882	0.9
850.051	0.97
850.219	0.79
850.388	2.71
850.556	0.6
850.725	0.25
850.893	1.56
851.062	1.56
851.23	0.9
851.399	-0.21
851.567	0.82
851.736	1.1
851.904	0.75
852.073	1.5
852.241	2.42
852.41	1.35
852.578	1.47
852.746	1.23
852.915	2.46
853.083	2.03
853.251	-0.58
853.42	1.63
853.588	1.62
853.756	3.44
853.924	1.25
854.093	1.9
854.261	0.43
854.429	0.35
854.597	0.82
854.765	-0.51
854.934	2.97
855.102	3.13
855.27	0.26
855.438	2.63
855.606	4.2
855.774	4.16
855.942	0.2
856.11	-0.2
856.278	2.06
856.446	3.23
856.614	1.58
856.782	-0.56
856.95	2.79
857.118	2.95
857.286	2.2
857.454	1.11
857.622	2.53
857.79	2.09
857.958	0.66
858.126	0.79
858.294	-1.48
858.462	0.81
858.629	1.16
858.797	0.37
858.965	2.36
859.133	1.47
859.301	0.67
859.468	1.4
859.636	1
859.804	4.1
859.971	2.48
860.139	0.66
860.307	3.89
860.474	2
860.642	1.14
860.81	1.03
860.977	0
861.145	3.63
861.313	2
861.48	2.19
861.648	2.98
861.815	1.96
861.983	0.52
862.15	1.02
862.318	2.71
862.485	4.29
862.653	-0.47
862.82	-0.09
862.988	4.05
863.155	3.33
863.322	1.51
863.49	0.3
863.657	0.25
863.824	4.55
863.992	3.11
864.159	0.94
864.326	3.67
864.494	0.79
864.661	4.66
864.828	0.16
864.996	2.55
865.163	2.55
865.33	1.34
865.497	-2.66
865.664	0.58
865.832	0.49
865.999	0.47
866.166	0.25
866.333	2
866.5	0.75
866.667	1.79
866.834	2
867.001	5.06
867.168	-0.67
867.335	1.94
867.502	0.25
867.669	2.21
867.836	4.98
868.003	0.33
868.17	4.58
868.337	1.75
868.504	6.8
868.671	-1.65
868.838	1.19
869.005	4.1
869.172	2.21
869.339	2.37
869.505	1.11
869.672	2.69
869.839	5.21
870.006	0
870.173	-0.79
870.339	2.49
870.506	5.42
870.673	0.87
870.84	3.06
871.006	3.59
871.173	1.05
871.34	1.66
871.506	-0.01
871.673	0.9
871.839	1.39
872.006	2.31
872.173	1.71
872.339	2.92
872.506	4.03
872.672	2.51
872.839	-0.15
873.005	1.95
873.172	5.29
873.338	2.3
873.505	1.18
873.671	1.55
873.838	2.78
874.004	-2.19
874.171	2.1
874.337	3.58
874.503	4.33
874.67	0.98
874.836	0.64
875.002	5.08
875.169	4.57
875.335	2.11
875.501	1.88
875.668	5.67
875.834	1.76
876	1.82
876.166	2.04
876.332	3.61
876.499	7.29
876.665	1.16
876.831	0.33
876.997	5.48
877.163	2.41
877.329	0.97
877.495	1.91
877.662	2.66
877.828	2.7
877.994	1.97
878.16	-2.53
878.326	0
878.492	3.97
878.658	1.74
878.824	1.79
878.99	5.21
879.156	0.95
879.322	5.03
879.487	1.24
879.653	3.05
879.819	1.87
879.985	1.12
880.151	2.47
880.317	3.33
880.483	2.64
880.648	3.98
880.814	-1.47
880.98	2.65
881.146	-2.12
881.312	-0.26
881.477	1.09
881.643	-0.09
881.809	4.03
881.974	3.86
882.14	-1.93
882.306	2.58
882.471	6.37
882.637	0.08
882.803	3.02
882.968	5.67
883.134	7.93
883.299	2.17
883.465	2.67
883.63	4.89
883.796	3.38
883.961	3.99
884.127	3.22
884.292	-1.8
884.458	0.72
884.623	0.72
