Data from Apollo_Calib_20240827__AbsoluteIrradiance__13__23-22-01-045.txt Node

Date: Tue Aug 27 23:22:01 BST 2024
User: biology
Spectrometer: FLMT08252
Trigger mode: 0
Integration Time (sec): 5.000000E-1
Scans to average: 5
Electric dark correction enabled: true
Nonlinearity correction enabled: false
Boxcar width: 0
XAxis mode: Wavelengths
Number of Pixels in Spectrum: 3648
>>>>>Begin Spectral Data<<<<<
179.588	-0
179.809	-0
180.03	-0
180.251	-0
180.473	-0
180.694	0
180.915	0
181.136	0
181.357	-0
181.578	-0
181.799	-0
182.02	-0
182.241	0
182.462	-0
182.683	0
182.904	-0
183.125	0
183.346	0
183.567	0
183.788	0
184.009	0
184.23	0
184.451	0
184.672	0
184.892	0
185.113	0
185.334	0
185.555	0
185.776	0
185.996	0
186.217	0
186.438	0
186.659	0
186.879	0
187.1	0
187.321	0
187.541	0
187.762	0
187.983	0
188.203	0
188.424	0
188.644	0
188.865	0
189.086	0
189.306	0
189.527	0
189.747	0
189.968	0
190.188	0
190.409	0
190.629	0
190.849	0
191.07	0
191.29	0
191.511	0
191.731	0
191.951	0
192.172	0
192.392	0
192.612	0
192.833	0
193.053	0
193.273	0
193.493	0
193.714	0
193.934	0
194.154	0
194.374	0
194.594	0
194.815	0
195.035	0
195.255	0
195.475	0
195.695	0
195.915	0
196.135	0
196.355	0
196.575	0
196.795	0
197.015	0
197.235	0
197.455	0
197.675	0
197.895	0
198.115	0
198.335	0
198.555	0
198.775	0
198.995	0
199.214	0
199.434	0
199.654	0
199.874	0
200.094	3.93
200.313	2.26
200.533	2.02
200.753	1.95
200.973	3.29
201.192	3.16
201.412	1.78
201.632	2.55
201.851	3.12
202.071	2.19
202.291	2
202.51	1.72
202.73	2.42
202.95	2.1
203.169	1.46
203.389	2.22
203.608	2.02
203.828	1.71
204.047	1.95
204.267	2.23
204.486	2.12
204.706	2.27
204.925	1.85
205.145	1.75
205.364	2.09
205.583	2.19
205.803	1.53
206.022	1.32
206.242	1.59
206.461	1.38
206.68	1.2
206.9	1.8
207.119	2.31
207.338	1.85
207.557	1.37
207.777	1.32
207.996	1.73
208.215	2.01
208.434	1.34
208.654	1.35
208.873	1.31
209.092	2.04
209.311	1.31
209.53	1.24
209.749	1.28
209.968	1.13
210.187	1.09
210.407	1.01
210.626	1.12
210.845	1.49
211.064	1.4
211.283	1.23
211.502	1.44
211.721	1.27
211.94	1.18
212.159	1.26
212.377	1.17
212.596	1.51
212.815	1.15
213.034	1.26
213.253	1.53
213.472	1.34
213.691	0.92
213.91	1.05
214.128	0.93
214.347	1.43
214.566	0.75
214.785	0.75
215.003	1.13
215.222	1.02
215.441	0.96
215.66	0.67
215.878	0.94
216.097	1.13
216.316	0.91
216.534	0.84
216.753	1
216.972	0.94
217.19	0.91
217.409	0.77
217.627	0.72
217.846	0.76
218.064	0.86
218.283	0.73
218.501	1.19
218.72	1.15
218.938	0.83
219.157	0.73
219.375	1.17
219.594	0.86
219.812	0.55
220.031	0.81
220.249	1.34
220.467	1.14
220.686	0.87
220.904	0.77
221.122	0.77
221.341	0.99
221.559	0.97
221.777	0.7
221.995	0.8
222.214	0.72
222.432	0.67
222.65	1.03
222.868	0.84
223.086	0.82
223.305	0.8
223.523	0.72
223.741	1.09
223.959	0.4
224.177	0.56
224.395	0.65
224.613	0.9
224.831	0.9
225.049	0.67
225.267	0.79
225.485	0.75
225.703	0.77
225.921	0.6
226.139	0.69
226.357	0.93
226.575	0.64
226.793	0.64
227.011	1.06
227.229	0.75
227.447	0.73
227.665	0.68
227.883	0.51
228.1	0.7
228.318	0.67
228.536	0.47
228.754	0.62
228.972	0.64
229.189	0.89
229.407	0.65
229.625	0.54
229.843	0.89
230.06	0.74
230.278	0.63
230.496	0.66
230.713	0.75
230.931	0.73
231.149	0.5
231.366	0.45
231.584	0.56
231.801	0.94
232.019	0.56
232.236	0.38
232.454	0.49
232.671	0.57
232.889	0.61
233.106	0.44
233.324	0.54
233.541	0.47
233.759	0.66
233.976	0.5
234.194	0.54
234.411	0.55
234.628	0.59
234.846	0.43
235.063	0.54
235.28	0.57
235.498	0.53
235.715	0.52
235.932	0.66
236.149	0.5
236.367	0.44
236.584	0.68
236.801	0.53
237.018	0.65
237.236	0.53
237.453	0.47
237.67	0.58
237.887	0.45
238.104	0.42
238.321	0.49
238.538	0.5
238.755	0.57
238.973	0.35
239.19	0.51
239.407	0.52
239.624	0.6
239.841	0.38
240.058	0.51
240.275	0.51
240.492	0.56
240.709	0.49
240.925	0.53
241.142	0.51
241.359	0.46
241.576	0.37
241.793	0.53
242.01	0.53
242.227	0.57
242.444	0.55
242.66	0.57
242.877	0.52
243.094	0.46
243.311	0.45
243.527	0.36
243.744	0.5
243.961	0.62
244.178	0.44
244.394	0.46
244.611	0.64
244.828	0.67
245.044	0.31
245.261	0.47
245.477	0.48
245.694	0.46
245.911	0.42
246.127	0.51
246.344	0.62
246.56	0.4
246.777	0.48
246.993	0.47
247.21	0.42
247.426	0.45
247.643	0.44
247.859	0.41
248.076	0.41
248.292	0.64
248.508	0.42
248.725	0.52
248.941	0.47
249.157	0.51
249.374	0.44
249.59	0.55
249.806	0.4
250.023	0.47
250.239	0.47
250.455	0.47
250.671	0.47
250.888	0.52
251.104	0.52
251.32	0.43
251.536	0.37
251.752	0.47
251.969	0.43
252.185	0.48
252.401	0.6
252.617	0.48
252.833	0.42
253.049	0.48
253.265	0.37
253.481	0.42
253.697	0.42
253.913	0.35
254.129	0.44
254.345	0.45
254.561	0.37
254.777	0.42
254.993	0.61
255.209	0.45
255.425	0.38
255.641	0.42
255.857	0.53
256.073	0.44
256.288	0.39
256.504	0.36
256.72	0.4
256.936	0.5
257.152	0.39
257.367	0.41
257.583	0.39
257.799	0.48
258.015	0.3
258.23	0.43
258.446	0.59
258.662	0.46
258.877	0.37
259.093	0.35
259.309	0.4
259.524	0.43
259.74	0.36
259.955	0.22
260.171	0.44
260.387	0.39
260.602	0.53
260.818	0.4
261.033	0.28
261.249	0.34
261.464	0.4
261.68	0.38
261.895	0.31
262.11	0.4
262.326	0.39
262.541	0.25
262.757	0.39
262.972	0.46
263.187	0.4
263.403	0.36
263.618	0.47
263.833	0.44
264.049	0.3
264.264	0.35
264.479	0.43
264.694	0.4
264.91	0.34
265.125	0.35
265.34	0.42
265.555	0.47
265.77	0.37
265.986	0.34
266.201	0.42
266.416	0.52
266.631	0.44
266.846	0.43
267.061	0.48
267.276	0.4
267.491	0.24
267.706	0.37
267.921	0.44
268.136	0.37
268.351	0.34
268.566	0.27
268.781	0.42
268.996	0.43
269.211	0.35
269.426	0.29
269.641	0.36
269.856	0.29
270.071	0.36
270.285	0.3
270.5	0.43
270.715	0.42
270.93	0.32
271.145	0.38
271.359	0.39
271.574	0.27
271.789	0.34
272.004	0.34
272.218	0.29
272.433	0.35
272.648	0.29
272.862	0.45
273.077	0.36
273.292	0.32
273.506	0.25
273.721	0.34
273.936	0.38
274.15	0.39
274.365	0.34
274.579	0.37
274.794	0.32
275.008	0.41
275.223	0.18
275.437	0.34
275.652	0.49
275.866	0.38
276.081	0.27
276.295	0.36
276.509	0.31
276.724	0.33
276.938	0.33
277.153	0.31
277.367	0.43
277.581	0.3
277.796	0.25
278.01	0.29
278.224	0.35
278.438	0.43
278.653	0.27
278.867	0.38
279.081	0.38
279.295	0.32
279.51	0.34
279.724	0.27
279.938	0.4
280.152	0.36
280.366	0.26
280.58	0.3
280.794	0.42
281.008	0.34
281.222	0.37
281.437	0.44
281.651	0.32
281.865	0.4
282.079	0.33
282.293	0.17
282.507	0.2
282.721	0.3
282.935	0.32
283.148	0.19
283.362	0.26
283.576	0.27
283.79	0.35
284.004	0.28
284.218	0.35
284.432	0.29
284.646	0.38
284.859	0.27
285.073	0.28
285.287	0.3
285.501	0.27
285.714	0.27
285.928	0.31
286.142	0.29
286.356	0.27
286.569	0.3
286.783	0.34
286.997	0.35
287.21	0.34
287.424	0.27
287.637	0.29
287.851	0.28
288.065	0.35
288.278	0.29
288.492	0.32
288.705	0.35
288.919	0.35
289.132	0.24
289.346	0.33
289.559	0.21
289.773	0.2
289.986	0.25
290.2	0.28
290.413	0.31
290.626	0.24
290.84	0.29
291.053	0.24
291.267	0.36
291.48	0.3
291.693	0.28
291.906	0.23
292.12	0.3
292.333	0.26
292.546	0.27
292.76	0.37
292.973	0.29
293.186	0.29
293.399	0.28
293.612	0.33
293.826	0.3
294.039	0.22
294.252	0.28
294.465	0.31
294.678	0.27
294.891	0.26
295.104	0.19
295.317	0.29
295.53	0.29
295.743	0.32
295.956	0.26
296.169	0.32
296.382	0.32
296.595	0.28
296.808	0.25
297.021	0.31
297.234	0.34
297.447	0.27
297.66	0.27
297.873	0.3
298.086	0.29
298.299	0.24
298.511	0.23
298.724	0.28
298.937	0.21
299.15	0.23
299.363	0.26
299.575	0.3
299.788	0.27
300.001	0.23
300.213	0.2
300.426	0.25
300.639	0.23
300.852	0.25
301.064	0.31
301.277	0.31
301.489	0.24
301.702	0.28
301.915	0.3
302.127	0.24
302.34	0.27
302.552	0.31
302.765	0.23
302.977	0.29
303.19	0.23
303.402	0.24
303.615	0.27
303.827	0.26
304.04	0.24
304.252	0.32
304.464	0.24
304.677	0.3
304.889	0.27
305.102	0.25
305.314	0.26
305.526	0.32
305.739	0.31
305.951	0.25
306.163	0.28
306.375	0.32
306.588	0.24
306.8	0.25
307.012	0.18
307.224	0.23
307.436	0.32
307.649	0.2
307.861	0.31
308.073	0.25
308.285	0.25
308.497	0.23
308.709	0.25
308.921	0.24
309.133	0.28
309.346	0.32
309.558	0.28
309.77	0.29
309.982	0.34
310.194	0.32
310.406	0.24
310.617	0.32
310.829	0.25
311.041	0.28
311.253	0.2
311.465	0.31
311.677	0.27
311.889	0.26
312.101	0.25
312.313	0.26
312.524	0.31
312.736	0.21
312.948	0.28
313.16	0.31
313.372	0.26
313.583	0.25
313.795	0.26
314.007	0.24
314.218	0.26
314.43	0.24
314.642	0.22
314.853	0.23
315.065	0.29
315.277	0.27
315.488	0.28
315.7	0.29
315.912	0.29
316.123	0.3
316.335	0.26
316.546	0.34
316.758	0.24
316.969	0.27
317.181	0.27
317.392	0.27
317.604	0.28
317.815	0.22
318.026	0.22
318.238	0.23
318.449	0.24
318.661	0.2
318.872	0.26
319.083	0.23
319.295	0.28
319.506	0.23
319.717	0.26
319.929	0.35
320.14	0.3
320.351	0.33
320.562	0.22
320.774	0.24
320.985	0.27
321.196	0.22
321.407	0.24
321.618	0.32
321.829	0.3
322.041	0.27
322.252	0.22
322.463	0.27
322.674	0.24
322.885	0.22
323.096	0.22
323.307	0.22
323.518	0.22
323.729	0.23
323.94	0.27
324.151	0.23
324.362	0.26
324.573	0.29
324.784	0.23
324.995	0.29
325.206	0.35
325.417	0.24
325.628	0.25
325.838	0.29
326.049	0.24
326.26	0.27
326.471	0.28
326.682	0.27
326.892	0.24
327.103	0.17
327.314	0.18
327.525	0.31
327.735	0.3
327.946	0.22
328.157	0.25
328.368	0.21
328.578	0.21
328.789	0.3
328.999	0.26
329.21	0.29
329.421	0.27
329.631	0.24
329.842	0.29
330.052	0.31
330.263	0.28
330.473	0.27
330.684	0.24
330.894	0.23
331.105	0.24
331.315	0.27
331.526	0.2
331.736	0.3
331.947	0.27
332.157	0.31
332.367	0.23
332.578	0.28
332.788	0.32
332.999	0.29
333.209	0.29
333.419	0.24
333.629	0.24
333.84	0.29
334.05	0.28
334.26	0.35
334.47	0.31
334.681	0.29
334.891	0.24
335.101	0.28
335.311	0.33
335.521	0.27
335.732	0.27
335.942	0.31
336.152	0.28
336.362	0.31
336.572	0.28
336.782	0.29
336.992	0.25
337.202	0.29
337.412	0.22
337.622	0.31
337.832	0.25
338.042	0.3
338.252	0.21
338.462	0.22
338.672	0.29
338.882	0.25
339.092	0.25
339.302	0.3
339.511	0.25
339.721	0.23
339.931	0.22
340.141	0.3
340.351	0.29
340.561	0.27
340.77	0.25
340.98	0.22
341.19	0.24
341.4	0.24
341.609	0.23
341.819	0.21
342.029	0.29
342.238	0.27
342.448	0.24
342.658	0.28
342.867	0.29
343.077	0.27
343.286	0.24
343.496	0.26
343.706	0.28
343.915	0.18
344.125	0.25
344.334	0.29
344.544	0.17
344.753	0.29
344.963	0.23
345.172	0.21
345.381	0.25
345.591	0.22
345.8	0.26
346.01	0.3
346.219	0.27
346.428	0.14
346.638	0.23
346.847	0.25
347.056	0.3
347.266	0.22
347.475	0.25
347.684	0.28
347.893	0.3
348.103	0.29
348.312	0.24
348.521	0.23
348.73	0.28
348.94	0.26
349.149	0.21
349.358	0.29
349.567	0.24
349.776	0.2
349.985	0.26
350.194	0.29
350.403	0.27
350.612	0.2
350.821	0.25
351.03	0.26
351.239	0.22
351.448	0.28
351.657	0.2
351.866	0.32
352.075	0.25
352.284	0.28
352.493	0.22
352.702	0.28
352.911	0.29
353.12	0.26
353.329	0.29
353.538	0.29
353.746	0.22
353.955	0.25
354.164	0.28
354.373	0.27
354.582	0.27
354.79	0.29
354.999	0.27
355.208	0.21
355.416	0.26
355.625	0.21
355.834	0.24
356.042	0.29
356.251	0.25
356.46	0.19
356.668	0.29
356.877	0.34
357.085	0.26
357.294	0.23
357.503	0.27
357.711	0.24
357.92	0.35
358.128	0.26
358.337	0.23
358.545	0.25
358.754	0.24
358.962	0.27
359.17	0.24
359.379	0.28
359.587	0.26
359.796	0.25
360.004	0.32
360.212	0.25
360.421	0.31
360.629	0.22
360.837	0.21
361.046	0.3
361.254	0.32
361.462	0.25
361.67	0.2
361.879	0.28
362.087	0.26
362.295	0.25
362.503	0.23
362.711	0.2
362.92	0.25
363.128	0.22
363.336	0.23
363.544	0.24
363.752	0.24
363.96	0.22
364.168	0.26
364.376	0.22
364.584	0.27
364.792	0.28
365	0.29
365.208	0.29
365.416	0.25
365.624	0.29
365.832	0.24
366.04	0.29
366.248	0.26
366.456	0.29
366.664	0.28
366.872	0.23
367.079	0.21
367.287	0.25
367.495	0.26
367.703	0.27
367.911	0.23
368.118	0.25
368.326	0.23
368.534	0.22
368.742	0.32
368.949	0.17
369.157	0.26
369.365	0.32
369.572	0.25
369.78	0.24
369.988	0.28
370.195	0.27
370.403	0.29
370.61	0.25
370.818	0.27
371.026	0.25
371.233	0.22
371.441	0.28
371.648	0.21
371.856	0.29
372.063	0.26
372.271	0.26
372.478	0.25
372.685	0.22
372.893	0.33
373.1	0.26
373.308	0.26
373.515	0.36
373.722	0.32
373.93	0.22
374.137	0.32
374.344	0.39
374.552	0.27
374.759	0.31
374.966	0.29
375.173	0.23
375.381	0.33
375.588	0.28
375.795	0.18
376.002	0.24
376.209	0.17
376.417	0.29
376.624	0.3
376.831	0.27
377.038	0.26
377.245	0.22
377.452	0.24
377.659	0.29
377.866	0.22
378.073	0.26
378.28	0.3
378.487	0.28
378.694	0.3
378.901	0.27
379.108	0.29
379.315	0.28
379.522	0.32
379.729	0.26
379.936	0.26
380.143	0.27
380.35	0.3
380.557	0.25
380.763	0.26
380.97	0.27
381.177	0.28
381.384	0.27
381.591	0.28
381.797	0.28
382.004	0.29
382.211	0.31
382.418	0.28
382.624	0.35
382.831	0.3
383.038	0.27
383.244	0.27
383.451	0.25
383.658	0.27
383.864	0.27
384.071	0.24
384.277	0.31
384.484	0.24
384.69	0.34
384.897	0.21
385.103	0.25
385.31	0.27
385.516	0.26
385.723	0.24
385.929	0.25
386.136	0.28
386.342	0.31
386.549	0.27
386.755	0.33
386.961	0.3
387.168	0.26
387.374	0.27
387.58	0.32
387.787	0.31
387.993	0.34
388.199	0.31
388.406	0.28
388.612	0.32
388.818	0.24
389.024	0.26
389.231	0.28
389.437	0.36
389.643	0.3
389.849	0.25
390.055	0.32
390.261	0.31
390.467	0.27
390.674	0.29
390.88	0.28
391.086	0.3
391.292	0.26
391.498	0.36
391.704	0.34
391.91	0.33
392.116	0.29
392.322	0.18
392.528	0.32
392.734	0.28
392.94	0.35
393.146	0.31
393.352	0.3
393.557	0.3
393.763	0.29
393.969	0.36
394.175	0.32
394.381	0.35
394.587	0.29
394.792	0.31
394.998	0.35
395.204	0.31
395.41	0.3
395.615	0.39
395.821	0.34
396.027	0.39
396.233	0.34
396.438	0.34
396.644	0.41
396.85	0.35
397.055	0.3
397.261	0.35
397.466	0.45
397.672	0.38
397.878	0.34
398.083	0.38
398.289	0.33
398.494	0.35
398.7	0.37
398.905	0.28
399.111	0.4
399.316	0.32
399.522	0.4
399.727	0.33
399.932	0.36
400.138	0.36
400.343	0.37
400.549	0.29
400.754	0.35
400.959	0.37
401.165	0.37
401.37	0.37
401.575	0.32
401.78	0.38
401.986	0.33
402.191	0.36
402.396	0.4
402.601	0.44
402.807	0.41
403.012	0.41
403.217	0.45
403.422	0.44
403.627	0.4
403.832	0.37
404.037	0.44
404.243	0.43
404.448	0.4
404.653	0.44
404.858	0.43
405.063	0.44
405.268	0.41
405.473	0.38
405.678	0.44
405.883	0.56
406.088	0.52
406.293	0.39
406.498	0.44
406.703	0.46
406.907	0.45
407.112	0.49
407.317	0.48
407.522	0.57
407.727	0.47
407.932	0.5
408.136	0.6
408.341	0.54
408.546	0.6
408.751	0.59
408.956	0.54
409.16	0.65
409.365	0.65
409.57	0.59
409.774	0.57
409.979	0.68
410.184	0.66
410.388	0.66
410.593	0.69
410.798	0.75
411.002	0.75
411.207	0.81
411.411	0.8
411.616	0.74
411.82	0.81
412.025	0.87
412.229	0.81
412.434	1.01
412.638	0.96
412.843	0.89
413.047	1.01
413.252	0.93
413.456	0.98
413.66	1.04
413.865	1.04
414.069	1.08
414.273	1.11
414.478	1.09
414.682	1.17
414.886	1.19
415.091	1.19
415.295	1.25
415.499	1.35
415.703	1.28
415.908	1.47
416.112	1.39
416.316	1.58
416.52	1.51
416.724	1.57
416.929	1.61
417.133	1.79
417.337	1.72
417.541	1.75
417.745	1.89
417.949	1.92
418.153	1.99
418.357	2.03
418.561	2.24
418.765	2.19
418.969	2.23
419.173	2.34
419.377	2.39
419.581	2.58
419.785	2.59
419.989	2.58
420.193	2.79
420.397	2.87
420.601	2.96
420.804	3.05
421.008	3.07
421.212	3.18
421.416	3.24
421.62	3.18
421.823	3.29
422.027	3.45
422.231	3.46
422.435	3.44
422.638	3.52
422.842	3.67
423.046	3.7
423.249	3.89
423.453	3.93
423.657	4.01
423.86	4.12
424.064	4.25
424.268	4.46
424.471	4.42
424.675	4.71
424.878	4.66
425.082	4.88
425.285	5.06
425.489	5.02
425.692	5.2
425.896	5.17
426.099	5.41
426.303	5.56
426.506	5.7
426.71	5.87
426.913	6.08
427.116	6.21
427.32	6.29
427.523	6.38
427.726	6.6
427.93	6.75
428.133	7.09
428.336	7.17
428.54	7.31
428.743	7.51
428.946	7.79
429.149	7.87
429.353	7.88
429.556	8
429.759	7.99
429.962	8.18
430.165	8.33
430.368	7.87
430.571	7.89
430.775	8.11
430.978	7.97
431.181	8.03
431.384	8.18
431.587	8.23
431.79	8.64
431.993	8.48
432.196	8.88
432.399	9.16
432.602	9.37
432.805	9.54
433.008	9.94
433.211	9.96
433.414	10.3
433.616	10.28
433.819	10.18
434.022	10.36
434.225	10.46
434.428	10.58
434.631	10.92
434.833	10.74
435.036	11.04
435.239	11.26
435.442	11.32
435.645	11.52
435.847	11.49
436.05	11.76
436.253	12.15
436.455	11.99
436.658	12.03
436.861	12.13
437.063	12.45
437.266	12.42
437.468	12.71
437.671	12.96
437.874	12.95
438.076	12.84
438.279	13.47
438.481	13.44
438.684	14.21
438.886	13.82
439.089	14.04
439.291	14.19
439.494	14.53
439.696	14.67
439.899	15.15
440.101	15.54
440.303	15.77
440.506	16.68
440.708	16.03
440.91	16.46
441.113	16.46
441.315	17.04
441.517	16.6
441.72	17.07
441.922	16.81
442.124	16.8
442.326	17.04
442.529	17.28
442.731	17.5
442.933	17.78
443.135	17.39
443.337	17.53
443.539	18.02
443.742	17.78
443.944	18.19
444.146	17.97
444.348	18.18
444.55	17.92
444.752	18.14
444.954	18.11
445.156	18.01
445.358	18.53
445.56	18.72
445.762	18.42
445.964	18.93
446.166	18.62
446.368	18.59
446.57	18.65
446.772	18.22
446.974	18.01
447.175	18.41
447.377	18.09
447.579	18.57
447.781	18.08
447.983	17.92
448.184	17.5
448.386	17.82
448.588	17.37
448.79	17.37
448.991	17.68
449.193	17.57
449.395	16.87
449.597	16.61
449.798	16.36
450	16.21
450.202	15.93
450.403	15.97
450.605	15.76
450.806	15.45
451.008	15.35
451.21	15.19
451.411	14.66
451.613	13.97
451.814	14.27
452.016	14.21
452.217	13.38
452.419	13.44
452.62	13.17
452.821	12.91
453.023	12.69
453.224	12.37
453.426	12.09
453.627	11.15
453.828	11.36
454.03	11.5
454.231	11.41
454.432	11.34
454.634	10.96
454.835	10.65
455.036	10.58
455.238	10.25
455.439	9.91
455.64	9.73
455.841	9.48
456.042	9.64
456.244	9.37
456.445	9.07
456.646	8.75
456.847	8.65
457.048	8.54
457.249	8.63
457.45	8.27
457.651	7.88
457.852	7.74
458.054	7.34
458.255	7.17
458.456	7.36
458.657	7.26
458.858	6.83
459.058	6.77
459.259	6.78
459.46	6.52
459.661	6.51
459.862	6.51
460.063	6.36
460.264	6.35
460.465	6.04
460.666	6.11
460.866	5.82
461.067	5.53
461.268	5.71
461.469	5.54
461.67	5.5
461.87	5.28
462.071	5.36
462.272	5.16
462.473	5.1
462.673	5.26
462.874	5.24
463.075	5.15
463.275	5.17
463.476	5.21
463.676	5.14
463.877	5.05
464.078	4.95
464.278	5.02
464.479	5.02
464.679	4.84
464.88	4.73
465.08	4.64
465.281	4.56
465.481	4.32
465.682	4.16
465.882	4.2
466.083	4.17
466.283	4.06
466.483	3.96
466.684	3.76
466.884	3.68
467.085	3.74
467.285	3.78
467.485	3.63
467.686	3.59
467.886	3.56
468.086	3.42
468.286	3.43
468.487	3.45
468.687	3.29
468.887	3.26
469.087	3.38
469.287	3.3
469.488	3.13
469.688	3.14
469.888	3.19
470.088	3.14
470.288	3.11
470.488	3.03
470.688	2.9
470.888	2.9
471.088	2.74
471.288	2.78
471.488	2.8
471.688	2.71
471.888	2.71
472.088	2.87
472.288	2.7
472.488	2.59
472.688	2.6
472.888	2.64
473.088	2.6
473.288	2.5
473.488	2.49
473.688	2.63
473.887	2.49
474.087	2.47
474.287	2.51
474.487	2.38
474.687	2.45
474.886	2.38
475.086	2.34
475.286	2.39
475.486	2.26
475.685	2.29
475.885	2.22
476.085	2.23
476.284	2.27
476.484	2.25
476.684	2.25
476.883	2.3
477.083	2.22
477.282	2.11
477.482	2.22
477.681	2.17
477.881	2.04
478.08	2.12
478.28	2.07
478.479	2.12
478.679	2.18
478.878	2.06
479.078	2.08
479.277	2.07
479.477	2.12
479.676	2.02
479.875	2.07
480.075	2.02
480.274	2.09
480.473	2.06
480.673	2.03
480.872	2.08
481.071	2.05
481.271	2.08
481.47	2
481.669	2.01
481.868	1.97
482.067	1.99
482.267	1.95
482.466	1.96
482.665	1.97
482.864	2
483.063	1.95
483.262	1.99
483.461	2.04
483.661	2.07
483.86	1.99
484.059	2.05
484.258	2.04
484.457	2.03
484.656	2.07
484.855	2.08
485.054	1.96
485.253	2.01
485.452	1.99
485.651	2.1
485.849	2.02
486.048	2.02
486.247	2.01
486.446	2.1
486.645	2.06
486.844	2.08
487.043	2.06
487.241	2.09
487.44	2.1
487.639	2.13
487.838	2.12
488.037	2.14
488.235	2.16
488.434	2.17
488.633	2.05
488.831	2.22
489.03	2.22
489.229	2.21
489.427	2.21
489.626	2.27
489.825	2.27
490.023	2.31
490.222	2.27
490.42	2.3
490.619	2.33
490.817	2.35
491.016	2.35
491.214	2.38
491.413	2.41
491.611	2.37
491.81	2.39
492.008	2.44
492.207	2.52
492.405	2.5
492.604	2.49
492.802	2.56
493	2.57
493.199	2.59
493.397	2.62
493.595	2.7
493.794	2.64
493.992	2.75
494.19	2.75
494.388	2.86
494.587	2.74
494.785	2.76
494.983	2.71
495.181	2.84
495.379	2.88
495.578	2.93
495.776	3.01
495.974	2.91
496.172	2.94
496.37	3.06
496.568	3.11
496.766	3.1
496.964	3.14
497.162	3.14
497.36	3.22
497.558	3.19
497.756	3.28
497.954	3.3
498.152	3.32
498.35	3.42
498.548	3.36
498.746	3.36
498.944	3.35
499.142	3.45
499.34	3.52
499.538	3.64
499.736	3.53
499.933	3.6
500.131	3.62
500.329	3.78
500.527	3.77
500.725	3.81
500.922	3.85
501.12	3.85
501.318	3.94
501.516	3.87
501.713	4.01
501.911	3.99
502.109	3.97
502.306	4.15
502.504	3.99
502.701	4.1
502.899	4.19
503.097	4.34
503.294	4.16
503.492	4.35
503.689	4.36
503.887	4.36
504.084	4.4
504.282	4.46
504.479	4.42
504.677	4.57
504.874	4.5
505.072	4.44
505.269	4.65
505.466	4.73
505.664	4.69
505.861	4.64
506.059	4.78
506.256	4.73
506.453	4.83
506.651	4.9
506.848	4.97
507.045	4.94
507.242	4.96
507.44	5.04
507.637	5.08
507.834	5
508.031	5.19
508.229	5.1
508.426	5.07
508.623	5.28
508.82	5.29
509.017	5.19
509.214	5.22
509.411	5.34
509.608	5.29
509.805	5.46
510.003	5.44
510.2	5.48
510.397	5.63
510.594	5.55
510.791	5.65
510.988	5.65
511.184	5.58
511.381	5.54
511.578	5.71
511.775	5.79
511.972	5.68
512.169	5.8
512.366	5.76
512.563	5.89
512.76	5.94
512.956	5.99
513.153	5.95
513.35	5.87
513.547	5.95
513.744	6
513.94	6
514.137	6.12
514.334	6.14
514.53	6.11
514.727	6.4
514.924	6.19
515.12	6.24
515.317	6.23
515.514	6.22
515.71	6.15
515.907	6.41
516.103	6.44
516.3	6.32
516.497	6.44
516.693	6.38
516.89	6.48
517.086	6.52
517.283	6.56
517.479	6.44
517.676	6.63
517.872	6.62
518.068	6.63
518.265	6.58
518.461	6.53
518.658	6.71
518.854	6.66
519.05	6.76
519.247	6.83
519.443	6.75
519.639	6.86
519.836	6.71
520.032	6.75
520.228	6.9
520.424	6.82
520.621	6.87
520.817	6.95
521.013	6.93
521.209	7.07
521.405	7.02
521.601	7.01
521.798	7.02
521.994	6.98
522.19	6.89
522.386	6.98
522.582	7.12
522.778	7.19
522.974	7.05
523.17	7.12
523.366	7.1
523.562	7.13
523.758	7.15
523.954	7.05
524.15	7.21
524.346	7.25
524.542	7.24
524.738	7.19
524.934	7.29
525.129	7.33
525.325	7.23
525.521	7.21
525.717	7.41
525.913	7.28
526.109	7.34
526.304	7.47
526.5	7.39
526.696	7.43
526.892	7.35
527.087	7.56
527.283	7.53
527.479	7.53
527.674	7.29
527.87	7.49
528.066	7.45
528.261	7.52
528.457	7.35
528.653	7.61
528.848	7.57
529.044	7.63
529.239	7.48
529.435	7.52
529.63	7.49
529.826	7.46
530.021	7.54
530.217	7.6
530.412	7.53
530.608	7.59
530.803	7.62
530.999	7.44
531.194	7.6
531.389	7.7
531.585	7.69
531.78	7.87
531.975	7.69
532.171	7.77
532.366	7.7
532.561	7.75
532.757	7.73
532.952	7.86
533.147	7.57
533.342	7.76
533.538	7.67
533.733	7.92
533.928	7.58
534.123	7.77
534.318	7.81
534.513	7.71
534.709	7.86
534.904	7.83
535.099	7.94
535.294	7.85
535.489	7.88
535.684	7.79
535.879	7.82
536.074	7.84
536.269	7.86
536.464	7.93
536.659	7.83
536.854	7.88
537.049	7.93
537.244	7.89
537.439	7.92
537.634	7.88
537.828	7.93
538.023	7.92
538.218	7.88
538.413	7.79
538.608	7.91
538.803	7.95
538.997	7.88
539.192	7.9
539.387	7.85
539.582	7.87
539.776	7.87
539.971	8.02
540.166	8.04
540.36	7.93
540.555	8.06
540.75	7.99
540.944	8.02
541.139	7.99
541.334	7.96
541.528	7.98
541.723	8.04
541.917	7.99
542.112	7.96
542.306	7.85
542.501	7.94
542.695	7.93
542.89	7.94
543.084	8.02
543.279	7.97
543.473	8.03
543.668	8.11
543.862	7.91
544.056	7.92
544.251	8.08
544.445	8.06
544.64	8.14
544.834	7.82
545.028	7.69
545.222	8.04
545.417	8.2
545.611	8.09
545.805	8.03
546	7.82
546.194	8.04
546.388	8.09
546.582	8
546.776	7.99
546.97	7.99
547.165	7.98
547.359	7.96
547.553	8.02
547.747	7.99
547.941	8.23
548.135	7.97
548.329	8.02
548.523	8.06
548.717	7.99
548.911	8
549.105	8.03
549.299	8.11
549.493	8.09
549.687	7.98
549.881	8.16
550.075	8.08
550.269	7.98
550.463	8.12
550.657	8.13
550.85	8.08
551.044	8.05
551.238	8.08
551.432	8.08
551.626	8.16
551.82	8.08
552.013	8
552.207	8.12
552.401	8.1
552.594	8.09
552.788	7.98
552.982	8.04
553.176	8.06
553.369	8.16
553.563	8.17
553.756	8.05
553.95	8.08
554.144	8.12
554.337	8.12
554.531	7.9
554.724	8.13
554.918	8.18
555.111	8.03
555.305	8.08
555.498	8.02
555.692	8.19
555.885	8.13
556.079	7.99
556.272	8.16
556.466	8.06
556.659	8.11
556.852	8.18
557.046	8.06
557.239	7.94
557.432	8.03
557.626	8.15
557.819	8.14
558.012	8.18
558.206	8.18
558.399	8.14
558.592	8.1
558.785	8.03
558.979	8.06
559.172	8.09
559.365	8.04
559.558	8.04
559.751	8
559.944	8.18
560.138	8.06
560.331	8.04
560.524	8.16
560.717	8.05
560.91	8.03
561.103	8.1
561.296	7.91
561.489	8.08
561.682	8.17
561.875	8.12
562.068	8.21
562.261	7.94
562.454	8.28
562.647	8.05
562.84	8.12
563.032	8.12
563.225	8.04
563.418	7.99
563.611	8.11
563.804	8.14
563.997	8.01
564.19	7.87
564.382	8.22
564.575	8.07
564.768	8.01
564.961	8.13
565.153	8.07
565.346	7.97
565.539	8.11
565.731	8.1
565.924	8.17
566.117	8.23
566.309	8.13
566.502	8.04
566.695	8
566.887	8.13
567.08	8.03
567.272	8.12
567.465	8.02
567.657	8.11
567.85	7.99
568.042	8.03
568.235	8.08
568.427	7.9
568.62	8.02
568.812	7.97
569.005	8.12
569.197	7.98
569.389	8.02
569.582	8.06
569.774	8.06
569.966	7.96
570.159	7.96
570.351	7.91
570.543	7.99
570.736	8.02
570.928	7.81
571.12	8.03
571.312	7.93
571.505	7.78
571.697	7.99
571.889	7.97
572.081	7.98
572.273	7.92
572.465	7.94
572.658	8
572.85	7.94
573.042	7.97
573.234	7.92
573.426	7.86
573.618	7.92
573.81	7.99
574.002	7.89
574.194	7.97
574.386	7.88
574.578	7.84
574.77	7.87
574.962	7.94
575.154	7.77
575.346	7.82
575.538	7.8
575.729	7.82
575.921	7.88
576.113	7.98
576.305	7.91
576.497	7.97
576.689	7.77
576.88	7.77
577.072	7.95
577.264	7.83
577.456	7.91
577.647	7.78
577.839	8.01
578.031	7.78
578.223	7.72
578.414	7.75
578.606	7.8
578.798	7.85
578.989	7.83
579.181	7.92
579.372	7.84
579.564	7.88
579.755	7.69
579.947	7.74
580.139	7.8
580.33	7.66
580.522	7.74
580.713	7.69
580.905	7.67
581.096	7.78
581.287	7.69
581.479	7.77
581.67	7.73
581.862	7.65
582.053	7.73
582.244	7.64
582.436	7.81
582.627	7.57
582.818	7.59
583.01	7.66
583.201	7.71
583.392	7.59
583.583	7.55
583.775	7.44
583.966	7.56
584.157	7.6
584.348	7.73
584.54	7.59
584.731	7.63
584.922	7.55
585.113	7.43
585.304	7.61
585.495	7.56
585.686	7.64
585.877	7.48
586.068	7.72
586.259	7.48
586.45	7.5
586.641	7.47
586.832	7.59
587.023	7.43
587.214	7.46
587.405	7.53
587.596	7.45
587.787	7.3
587.978	7.41
588.169	7.38
588.36	7.38
588.551	7.41
588.742	7.35
588.932	7.46
589.123	7.29
589.314	7.51
589.505	7.38
589.696	7.38
589.886	7.3
590.077	7.36
590.268	7.18
590.458	7.23
590.649	7.1
590.84	7.26
591.03	7.26
591.221	7.29
591.412	7.14
591.602	7.29
591.793	7.23
591.984	7.26
592.174	7.21
592.365	7.29
592.555	7.07
592.746	7.16
592.936	7.11
593.127	7.13
593.317	7.15
593.508	7.16
593.698	7.07
593.889	7.06
594.079	7.04
594.269	7.01
594.46	7.01
594.65	7.06
594.84	7.06
595.031	6.97
595.221	7
595.411	7.01
595.602	6.99
595.792	6.92
595.982	6.87
596.172	7.05
596.363	6.91
596.553	6.95
596.743	6.9
596.933	6.85
597.123	6.87
597.314	6.72
597.504	6.75
597.694	6.9
597.884	6.81
598.074	6.84
598.264	6.83
598.454	6.8
598.644	6.74
598.834	6.77
599.024	6.68
599.214	6.7
599.404	6.76
599.594	6.69
599.784	6.61
599.974	6.73
600.164	6.65
600.354	6.63
600.544	6.62
600.734	6.65
600.924	6.63
601.114	6.45
601.303	6.52
601.493	6.57
601.683	6.58
601.873	6.54
602.063	6.45
602.252	6.52
602.442	6.39
602.632	6.48
602.821	6.44
603.011	6.46
603.201	6.38
603.39	6.38
603.58	6.29
603.77	6.39
603.959	6.44
604.149	6.35
604.339	6.35
604.528	6.38
604.718	6.37
604.907	6.27
605.097	6.24
605.286	6.24
605.476	6.2
605.665	6.23
605.855	6.19
606.044	6.28
606.234	6.22
606.423	6.16
606.612	6.13
606.802	6.1
606.991	6.19
607.181	6.18
607.37	6.14
607.559	5.89
607.749	6.06
607.938	5.92
608.127	6.03
608.316	6
608.506	5.99
608.695	6.07
608.884	5.98
609.073	5.95
609.263	6.06
609.452	6
609.641	5.85
609.83	5.79
610.019	5.94
610.208	5.83
610.397	5.81
610.586	5.84
610.775	5.75
610.965	5.78
611.154	5.69
611.343	5.79
611.532	5.7
611.721	5.79
611.91	5.65
612.099	5.7
612.287	5.63
612.476	5.56
612.665	5.81
612.854	5.58
613.043	5.64
613.232	5.63
613.421	5.58
613.61	5.57
613.798	5.52
613.987	5.54
614.176	5.48
614.365	5.54
614.554	5.47
614.742	5.54
614.931	5.35
615.12	5.5
615.309	5.45
615.497	5.35
615.686	5.3
615.875	5.42
616.063	5.31
616.252	5.3
616.44	5.34
616.629	5.28
616.818	5.29
617.006	5.28
617.195	5.22
617.383	5.24
617.572	5.18
617.76	5.2
617.949	5.16
618.137	5.22
618.326	5.21
618.514	5.03
618.703	5
618.891	5.13
619.079	5.06
619.268	5.16
619.456	4.97
619.644	5.07
619.833	4.98
620.021	5
620.209	4.94
620.398	4.94
620.586	4.85
620.774	5
620.962	4.92
621.151	4.98
621.339	4.87
621.527	4.86
621.715	4.84
621.903	4.9
622.092	4.78
622.28	4.88
622.468	4.65
622.656	4.86
622.844	4.82
623.032	4.84
623.22	4.64
623.408	4.79
623.596	4.72
623.784	4.81
623.972	4.59
624.16	4.68
624.348	4.7
624.536	4.79
624.724	4.58
624.912	4.65
625.1	4.6
625.288	4.63
625.476	4.48
625.664	4.56
625.851	4.54
626.039	4.52
626.227	4.51
626.415	4.49
626.603	4.42
626.79	4.44
626.978	4.45
627.166	4.49
627.354	4.36
627.541	4.39
627.729	4.24
627.917	4.48
628.104	4.35
628.292	4.32
628.48	4.34
628.667	4.26
628.855	4.39
629.042	4.34
629.23	4.26
629.418	4.29
629.605	4.32
629.793	4.12
629.98	4.22
630.168	4.16
630.355	4.15
630.543	4.15
630.73	4.08
630.917	4.12
631.105	4.22
631.292	4.13
631.48	4.11
631.667	4.17
631.854	4.01
632.042	4.08
632.229	3.98
632.416	4.07
632.604	4.05
632.791	3.89
632.978	4.01
633.165	3.92
633.353	3.95
633.54	4.06
633.727	3.82
633.914	3.81
634.101	3.83
634.289	3.89
634.476	3.81
634.663	3.83
634.85	3.8
635.037	3.77
635.224	3.72
635.411	3.84
635.598	3.71
635.785	3.73
635.972	3.7
636.159	3.73
636.346	3.64
636.533	3.65
636.72	3.65
636.907	3.65
637.094	3.58
637.281	3.55
637.468	3.64
637.655	3.62
637.842	3.63
638.029	3.51
638.215	3.59
638.402	3.56
638.589	3.46
638.776	3.54
638.963	3.52
639.149	3.53
639.336	3.55
639.523	3.51
639.709	3.43
639.896	3.41
640.083	3.41
640.27	3.46
640.456	3.4
640.643	3.41
640.829	3.23
641.016	3.31
641.203	3.26
641.389	3.32
641.576	3.27
641.762	3.25
641.949	3.22
642.135	3.28
642.322	3.29
642.508	3.18
642.695	3.29
642.881	3.17
643.068	3.14
643.254	3.24
643.441	3.18
643.627	3.2
643.813	3.09
644	3.23
644.186	3.1
644.372	3.18
644.559	3.11
644.745	3.1
644.931	3.05
645.118	3.06
645.304	3.05
645.49	3.04
645.676	3.05
645.862	3.02
646.049	3.07
646.235	3.02
646.421	3.12
646.607	3.06
646.793	2.93
646.979	2.87
647.165	2.94
647.352	2.98
647.538	2.95
647.724	2.91
647.91	2.83
648.096	2.9
648.282	2.91
648.468	2.85
648.654	2.86
648.84	2.83
649.026	2.85
649.212	2.8
649.397	2.81
649.583	2.77
649.769	2.77
649.955	2.83
650.141	2.78
650.327	2.79
650.513	2.73
650.698	2.79
650.884	2.69
651.07	2.76
651.256	2.68
651.442	2.65
651.627	2.63
651.813	2.7
651.999	2.61
652.184	2.63
652.37	2.64
652.556	2.57
652.741	2.68
652.927	2.51
653.113	2.62
653.298	2.61
653.484	2.58
653.669	2.58
653.855	2.55
654.04	2.57
654.226	2.52
654.412	2.58
654.597	2.46
654.782	2.57
654.968	2.47
655.153	2.48
655.339	2.5
655.524	2.44
655.71	2.47
655.895	2.47
656.08	2.45
656.266	2.46
656.451	2.42
656.636	2.39
656.822	2.41
657.007	2.44
657.192	2.43
657.378	2.34
657.563	2.33
657.748	2.4
657.933	2.39
658.118	2.33
658.304	2.32
658.489	2.42
658.674	2.33
658.859	2.34
659.044	2.33
659.229	2.38
659.414	2.31
659.599	2.26
659.785	2.28
659.97	2.29
660.155	2.25
660.34	2.32
660.525	2.25
660.71	2.25
660.895	2.22
661.08	2.2
661.264	2.2
661.449	2.22
661.634	2.19
661.819	2.21
662.004	2.13
662.189	2.09
662.374	2.09
662.559	2.11
662.743	2.08
662.928	2.11
663.113	2.05
663.298	2.02
663.483	2.06
663.667	2
663.852	2.06
664.037	2.02
664.221	2.04
664.406	2.04
664.591	2.01
664.775	2.01
664.96	1.96
665.145	1.89
665.329	1.95
665.514	1.9
665.698	1.9
665.883	1.84
666.068	1.97
666.252	1.91
666.437	1.86
666.621	1.85
666.806	1.88
666.99	1.88
667.174	1.8
667.359	1.88
667.543	1.8
667.728	1.81
667.912	1.72
668.096	1.81
668.281	1.74
668.465	1.79
668.649	1.7
668.834	1.67
669.018	1.77
669.202	1.76
669.387	1.74
669.571	1.74
669.755	1.67
669.939	1.69
670.124	1.68
670.308	1.72
670.492	1.71
670.676	1.66
670.86	1.7
671.044	1.64
671.228	1.71
671.413	1.57
671.597	1.6
671.781	1.57
671.965	1.63
672.149	1.65
672.333	1.64
672.517	1.56
672.701	1.58
672.885	1.6
673.069	1.53
673.253	1.62
673.437	1.56
673.621	1.54
673.804	1.54
673.988	1.51
674.172	1.51
674.356	1.47
674.54	1.51
674.724	1.61
674.908	1.51
675.091	1.55
675.275	1.54
675.459	1.55
675.643	1.53
675.826	1.48
676.01	1.47
676.194	1.42
676.377	1.45
676.561	1.48
676.745	1.43
676.928	1.46
677.112	1.49
677.296	1.38
677.479	1.34
677.663	1.33
677.846	1.42
678.03	1.43
678.213	1.33
678.397	1.41
678.58	1.36
678.764	1.41
678.947	1.3
679.131	1.35
679.314	1.41
679.498	1.37
679.681	1.35
679.865	1.39
680.048	1.3
680.231	1.31
680.415	1.28
680.598	1.31
680.781	1.26
680.965	1.34
681.148	1.32
681.331	1.25
681.514	1.28
681.698	1.25
681.881	1.28
682.064	1.27
682.247	1.27
682.43	1.2
682.614	1.21
682.797	1.27
682.98	1.29
683.163	1.18
683.346	1.28
683.529	1.19
683.712	1.15
683.895	1.21
684.078	1.15
684.261	1.16
684.444	1.2
684.627	1.25
684.81	1.06
684.993	1.18
685.176	1.18
685.359	1.15
685.542	1.14
685.725	1.23
685.908	1.1
686.091	1.14
686.274	1.15
686.457	1.16
686.639	1.12
686.822	1.19
687.005	1.12
687.188	1.14
687.371	1.21
687.553	1.16
687.736	1.09
687.919	1.19
688.102	1.18
688.284	1.09
688.467	1.06
688.65	1.09
688.832	1.03
689.015	1.1
689.197	1
689.38	1.15
689.563	1.07
689.745	0.98
689.928	1.06
690.11	1.03
690.293	1.05
690.475	0.98
690.658	1.05
690.84	1.06
691.023	0.97
691.205	1.03
691.388	1.06
691.57	1.11
691.752	1.03
691.935	0.9
692.117	0.95
692.3	1.05
692.482	0.97
692.664	0.92
692.847	0.97
693.029	1
693.211	0.98
693.393	0.97
693.576	0.91
693.758	0.94
693.94	1.01
694.122	0.94
694.304	0.9
694.487	0.92
694.669	1
694.851	0.92
695.033	0.94
695.215	0.91
695.397	0.89
695.579	0.93
695.761	0.86
695.943	0.84
696.125	0.94
696.308	0.98
696.49	0.75
696.671	0.98
696.853	0.9
697.035	1.09
697.217	0.88
697.399	0.9
697.581	0.78
697.763	0.9
697.945	0.84
698.127	0.89
698.309	0.94
698.491	0.89
698.672	0.86
698.854	0.84
699.036	0.9
699.218	0.87
699.399	0.87
699.581	0.89
699.763	0.73
699.945	0.79
700.126	0.8
700.308	0.85
700.49	0.75
700.671	0.81
700.853	0.77
701.035	0.8
701.216	0.77
701.398	0.79
701.579	0.74
701.761	0.86
701.943	0.76
702.124	0.79
702.306	0.77
702.487	0.99
702.669	0.77
702.85	0.75
703.031	0.74
703.213	0.88
703.394	0.78
703.576	0.81
703.757	0.86
703.938	0.87
704.12	0.93
704.301	0.72
704.483	0.74
704.664	0.82
704.845	0.83
705.026	0.82
705.208	0.7
705.389	0.78
705.57	0.79
705.751	0.83
705.933	0.71
706.114	0.82
706.295	0.75
706.476	0.66
706.657	0.87
706.838	0.7
707.02	0.77
707.201	0.72
707.382	0.76
707.563	0.77
707.744	0.72
707.925	0.69
708.106	0.7
708.287	0.76
708.468	0.77
708.649	0.68
708.83	0.75
709.011	0.67
709.192	0.72
709.373	0.59
709.554	0.69
709.734	0.72
709.915	0.74
710.096	0.69
710.277	0.58
710.458	0.74
710.639	0.68
710.819	0.56
711	0.67
711.181	0.76
711.362	0.8
711.542	0.65
711.723	0.65
711.904	0.76
712.085	0.64
712.265	0.69
712.446	0.61
712.627	0.68
712.807	0.72
712.988	0.66
713.168	0.62
713.349	0.7
713.53	0.54
713.71	0.61
713.891	0.59
714.071	0.63
714.252	0.58
714.432	0.63
714.613	0.54
714.793	0.66
714.974	0.77
715.154	0.66
715.334	0.68
715.515	0.7
715.695	0.53
715.876	0.55
716.056	0.65
716.236	0.63
716.417	0.53
716.597	0.6
716.777	0.79
716.957	0.59
717.138	0.68
717.318	0.65
717.498	0.57
717.678	0.66
717.859	0.62
718.039	0.53
718.219	0.63
718.399	0.65
718.579	0.53
718.759	0.61
718.939	0.59
719.12	0.65
719.3	0.62
719.48	0.47
719.66	0.46
719.84	0.59
720.02	0.58
720.2	0.58
720.38	0.6
720.56	0.67
720.74	0.58
720.92	0.64
721.1	0.67
721.279	0.64
721.459	0.57
721.639	0.56
721.819	0.57
721.999	0.57
722.179	0.63
722.359	0.49
722.538	0.63
722.718	0.67
722.898	0.59
723.078	0.53
723.257	0.49
723.437	0.61
723.617	0.65
723.797	0.6
723.976	0.51
724.156	0.6
724.336	0.7
724.515	0.75
724.695	0.47
724.874	0.63
725.054	0.64
725.234	0.54
725.413	0.57
725.593	0.53
725.772	0.6
725.952	0.6
726.131	0.62
726.311	0.5
726.49	0.63
726.67	0.57
726.849	0.61
727.028	0.63
727.208	0.6
727.387	0.56
727.567	0.49
727.746	0.59
727.925	0.51
728.105	0.51
728.284	0.6
728.463	0.47
728.643	0.58
728.822	0.49
729.001	0.59
729.18	0.6
729.359	0.52
729.539	0.56
729.718	0.58
729.897	0.64
730.076	0.57
730.255	0.38
730.434	0.61
730.614	0.6
730.793	0.69
730.972	0.56
731.151	0.58
731.33	0.69
731.509	0.58
731.688	0.53
731.867	0.48
732.046	0.39
732.225	0.81
732.404	0.54
732.583	0.49
732.762	0.63
732.941	0.67
733.12	0.62
733.298	0.65
733.477	0.66
733.656	0.61
733.835	0.51
734.014	0.73
734.193	0.57
734.371	0.57
734.55	0.62
734.729	0.44
734.908	0.66
735.086	0.69
735.265	0.6
735.444	0.43
735.623	0.51
735.801	0.53
735.98	0.68
736.159	0.54
736.337	0.7
736.516	0.58
736.694	0.64
736.873	0.55
737.052	0.81
737.23	0.69
737.409	0.52
737.587	0.83
737.766	0.45
737.944	0.46
738.123	0.75
738.301	0.64
738.479	0.59
738.658	0.62
738.836	0.36
739.015	0.69
739.193	0.72
739.371	0.58
739.55	0.53
739.728	0.49
739.906	0.72
740.085	0.8
740.263	0.72
740.441	0.45
740.62	0.78
740.798	0.61
740.976	0.44
741.154	0.48
741.332	0.67
741.511	0.52
741.689	0.56
741.867	0.62
742.045	0.5
742.223	0.59
742.401	0.4
742.579	0.57
742.757	0.56
742.935	0.46
743.114	0.43
743.292	0.51
743.47	0.46
743.648	0.44
743.826	0.55
744.004	0.67
744.181	0.48
744.359	0.47
744.537	0.49
744.715	0.51
744.893	0.54
745.071	0.58
745.249	0.57
745.427	0.49
745.605	0.47
745.782	0.59
745.96	0.42
746.138	0.62
746.316	0.58
746.493	0.42
746.671	0.54
746.849	0.5
747.027	0.55
747.204	0.37
747.382	0.51
747.56	0.26
747.737	0.31
747.915	0.39
748.093	0.55
748.27	0.44
748.448	0.48
748.625	0.33
748.803	0.41
748.98	0.43
749.158	0.42
749.335	0.46
749.513	0.44
749.69	0.45
749.868	0.41
750.045	0.46
750.223	0.42
750.4	0.22
750.578	0.56
750.755	0.45
750.932	0.34
751.11	0.49
751.287	0.29
751.464	0.47
751.642	0.31
751.819	0.44
751.996	0.37
752.173	0.38
752.351	0.38
752.528	0.43
752.705	0.46
752.882	0.34
753.06	0.56
753.237	0.45
753.414	0.47
753.591	0.5
753.768	0.4
753.945	0.34
754.122	0.31
754.299	0.5
754.476	0.4
754.654	0.5
754.831	0.44
755.008	0.3
755.185	0.42
755.362	0.33
755.539	0.42
755.716	0.58
755.892	0.36
756.069	0.48
756.246	0.42
756.423	0.4
756.6	0.5
756.777	0.31
756.954	0.65
757.131	0.44
757.307	0.22
757.484	0.32
757.661	0.46
757.838	0.39
758.015	0.35
758.191	0.47
758.368	0.38
758.545	0.52
758.721	0.43
758.898	0.34
759.075	0.46
759.251	0.45
759.428	0.44
759.605	0.3
759.781	0.38
759.958	0.46
760.134	0.46
760.311	0.37
760.488	0.54
760.664	0.52
760.841	0.34
761.017	0.3
761.194	0.4
761.37	0.45
761.547	0.39
761.723	0.41
761.899	0.42
762.076	0.29
762.252	0.21
762.429	0.37
762.605	0.42
762.781	0.28
762.958	0.51
763.134	0.31
763.31	0.32
763.486	0.44
763.663	0.29
763.839	0.36
764.015	0.31
764.191	0.25
764.368	0.39
764.544	0.3
764.72	0.34
764.896	0.49
765.072	0.41
765.248	0.34
765.425	0.34
765.601	0.32
765.777	0.34
765.953	0.2
766.129	0.34
766.305	0.23
766.481	0.44
766.657	0.32
766.833	0.48
767.009	0.3
767.185	0.33
767.361	0.3
767.537	0.24
767.713	0.59
767.889	0.23
768.065	0.33
768.24	0.43
768.416	0.55
768.592	0.29
768.768	0.48
768.944	0.32
769.12	0.37
769.295	0.32
769.471	0.35
769.647	0.31
769.823	0.51
769.998	0.33
770.174	0.31
770.35	0.65
770.525	0.62
770.701	0.41
770.877	0.5
771.052	0.34
771.228	0.48
771.403	0.46
771.579	0.53
771.755	0.61
771.93	0.28
772.106	0.3
772.281	0.26
772.457	0.35
772.632	0.61
772.808	0.28
772.983	0.33
773.159	0.22
773.334	0.4
773.509	0.43
773.685	0.38
773.86	0.64
774.036	0.68
774.211	0.36
774.386	0.13
774.562	0.36
774.737	0.5
774.912	0.33
775.087	0.38
775.263	0.35
775.438	0.49
775.613	0.38
775.788	0.37
775.964	0.45
776.139	0.74
776.314	0.14
776.489	0.49
776.664	0.47
776.839	0.41
777.014	0.51
777.19	0.42
777.365	0.44
777.54	0.59
777.715	0.31
777.89	0.47
778.065	0.2
778.24	0.43
778.415	0.59
778.59	0.29
778.765	0.25
778.94	0.47
779.115	0.38
779.289	0.37
779.464	0.31
779.639	0.48
779.814	0.22
779.989	0.35
780.164	0.6
780.339	0.52
780.513	0.41
780.688	0.4
780.863	0.4
781.038	0.31
781.212	0.24
781.387	0.54
781.562	0.56
781.737	0.48
781.911	0.64
782.086	0.33
782.261	0.32
782.435	0.56
782.61	0.46
782.784	0.36
782.959	0.65
783.134	0.19
783.308	0.29
783.483	0.53
783.657	0.47
783.832	0.51
784.006	0.15
784.181	0.57
784.355	0.54
784.53	0.57
784.704	0.34
784.878	0.7
785.053	0.47
785.227	0.69
785.402	0.8
785.576	0.24
785.75	0.34
785.925	0.38
786.099	0.53
786.273	0.52
786.448	0.63
786.622	0.82
786.796	0.43
786.97	0.46
787.145	1.04
787.319	0.1
787.493	0.55
787.667	0.34
787.841	0.45
788.015	0.75
788.19	0.29
788.364	0.64
788.538	0.52
788.712	0.47
788.886	0.54
789.06	0.78
789.234	0.58
789.408	0.36
789.582	0.46
789.756	0.31
789.93	0.31
790.104	0.65
790.278	0.26
790.452	0.25
790.626	0.65
790.8	0.3
790.973	0.52
791.147	0.71
791.321	0.79
791.495	0.69
791.669	0.59
791.843	0.44
792.016	0.43
792.19	0.98
792.364	0.03
792.538	0.94
792.711	0.66
792.885	0.52
793.059	0.17
793.233	0.13
793.406	0.7
793.58	0.21
793.754	0.47
793.927	0.41
794.101	0.75
794.274	0.65
794.448	0.5
794.622	0.12
794.795	0.75
794.969	0.15
795.142	0.7
795.316	0.52
795.489	0.55
795.663	0.81
795.836	0.52
796.009	0.24
796.183	0.64
796.356	0.58
796.53	0.61
796.703	0.4
796.876	0.97
797.05	0.48
797.223	0.64
797.396	0.83
797.57	0.49
797.743	0.69
797.916	0.67
798.09	0.59
798.263	0.51
798.436	0.93
798.609	0.54
798.782	0.31
798.956	0.7
799.129	0.32
799.302	0.32
799.475	0.32
799.648	0.3
799.821	0.43
799.994	0.46
800.167	0.46
800.34	0.49
800.514	0.45
800.687	0.45
800.86	0.29
801.033	0.36
801.206	0.47
801.379	0.44
801.551	0.73
801.724	0.64
801.897	0.63
802.07	0.56
802.243	0.05
802.416	0.4
802.589	0.17
802.762	0.68
802.935	0.64
803.107	0.8
803.28	0.86
803.453	0.84
803.626	0.33
803.798	0.34
803.971	0.42
804.144	0.6
804.317	0.88
804.489	0.94
804.662	0.91
804.835	0.59
805.007	0.27
805.18	0.97
805.353	0.88
805.525	0.41
805.698	0.41
805.87	0.88
806.043	0.7
806.215	0.53
806.388	0.5
806.56	0.87
806.733	0.76
806.905	0.75
807.078	0.51
807.25	0.29
807.423	0.67
807.595	0.38
807.768	0.59
807.94	0.78
808.112	0.96
808.285	0.79
808.457	0.76
808.629	0.92
808.802	0.74
808.974	0.65
809.146	0.67
809.318	0.47
809.491	0.72
809.663	0.63
809.835	0.65
810.007	0.99
810.18	0.46
810.352	0.16
810.524	0.54
810.696	0.79
810.868	0.75
811.04	0.77
811.212	0.67
811.384	0.83
811.556	0.58
811.728	0.67
811.901	1.35
812.073	0.51
812.245	0.95
812.417	0.87
812.589	-0.08
812.76	0.51
812.932	0.57
813.104	1.31
813.276	0.37
813.448	1.2
813.62	0.68
813.792	0.51
813.964	1.02
814.136	0.86
814.307	0.39
814.479	0.68
814.651	0.61
814.823	1.39
814.995	0.45
815.166	0.91
815.338	0.57
815.51	0.12
815.681	1.52
815.853	0.44
816.025	0.52
816.196	1.15
816.368	0.91
816.54	0.61
816.711	0.36
816.883	0.79
817.054	1.68
817.226	0.3
817.398	0.96
817.569	0.26
817.741	0.86
817.912	0.63
818.084	0.43
818.255	1.18
818.426	0.58
818.598	0.42
818.769	0.52
818.941	1.01
819.112	1.32
819.283	1.09
819.455	0.89
819.626	0.66
819.798	0.84
819.969	1.06
820.14	0.55
820.311	0.26
820.483	0.84
820.654	1.12
820.825	0.76
820.996	0.69
821.168	0.34
821.339	0.52
821.51	0.22
821.681	0.71
821.852	0.7
822.023	0.16
822.195	0.65
822.366	0.76
822.537	1.33
822.708	0.92
822.879	0.74
823.05	1.47
823.221	0.67
823.392	1.06
823.563	0.7
823.734	0.81
823.905	0.81
824.076	0.54
824.247	0.99
824.418	0.23
824.589	1.49
824.759	0.83
824.93	0.76
825.101	0.48
825.272	1.15
825.443	1.39
825.614	1.44
825.784	0.51
825.955	1.72
826.126	1.28
826.297	1.43
826.467	1.41
826.638	1.94
826.809	0.45
826.98	1.15
827.15	0.97
827.321	0.79
827.492	1.74
827.662	0.87
827.833	1.74
828.003	1.23
828.174	0.47
828.345	0.65
828.515	1.26
828.686	1.11
828.856	0.65
829.027	1.01
829.197	0.75
829.368	0.72
829.538	0.4
829.709	0.55
829.879	0.99
830.049	1.21
830.22	0.63
830.39	1.11
830.56	1.09
830.731	1.3
830.901	0.9
831.072	1.35
831.242	1.26
831.412	0.88
831.582	1.25
831.753	0.44
831.923	1.35
832.093	0.93
832.263	1.11
832.434	0.79
832.604	0.76
832.774	1
832.944	1.06
833.114	0.51
833.284	1.44
833.454	-0.43
833.624	0.93
833.795	0.53
833.965	1.56
834.135	1.28
834.305	-0.26
834.475	0.41
834.645	0.53
834.815	0.84
834.985	1.19
835.155	0.65
835.325	0.84
835.494	0.92
835.664	0.94
835.834	-0.14
836.004	1.27
836.174	0.93
836.344	1.25
836.514	0.55
836.684	1.29
836.853	0.95
837.023	1.73
837.193	0.97
837.363	1.59
837.532	1.54
837.702	0.95
837.872	0.24
838.041	1.1
838.211	2.12
838.381	0.48
838.55	0.89
838.72	2.58
838.89	1.71
839.059	0.85
839.229	0.92
839.398	1.99
839.568	0.86
839.738	0.95
839.907	1.86
840.077	0.93
840.246	0.84
840.416	0.39
840.585	0.03
840.755	1.69
840.924	1.74
841.093	0.73
841.263	1.15
841.432	1.62
841.602	0.31
841.771	1
841.94	0.92
842.11	2.82
842.279	1.95
842.448	0.05
842.617	0.84
842.787	2.51
842.956	0.23
843.125	1.15
843.294	1.2
843.464	2.36
843.633	1.84
843.802	0.7
843.971	1.17
844.14	1.08
844.309	2.33
844.479	0.27
844.648	0.9
844.817	0.57
844.986	0.71
845.155	0.33
845.324	1.68
845.493	1.6
845.662	0.72
845.831	1.53
846	1.27
846.169	1.17
846.338	1.66
846.507	1.44
846.676	1.49
846.844	0.79
847.013	2.57
847.182	0.67
847.351	1.11
847.52	1.23
847.689	1.01
847.858	1.22
848.026	0.32
848.195	1.65
848.364	1.07
848.533	1
848.701	0.54
848.87	0.64
849.039	2.11
849.207	2.35
849.376	2.1
849.545	1.6
849.713	0.64
849.882	1.39
850.051	2.49
850.219	2.57
850.388	2.21
850.556	0.8
850.725	0.83
850.893	1.87
851.062	1.15
851.23	2.31
851.399	0.59
851.567	-0.65
851.736	0.62
851.904	0.36
852.073	2.23
852.241	1.85
852.41	2.28
852.578	1.01
852.746	1.68
852.915	2.8
853.083	0.44
853.251	0.15
853.42	0.68
853.588	1.3
853.756	3
853.924	1.01
854.093	0.99
854.261	1.79
854.429	1.07
854.597	2.12
854.765	1.03
854.934	1.51
855.102	3.23
855.27	1.36
855.438	2.98
855.606	2.52
855.774	2.82
855.942	0.65
856.11	0.43
856.278	1.51
856.446	2.01
856.614	1.52
856.782	1.25
856.95	1.58
857.118	2.97
857.286	2
857.454	1.96
857.622	2.81
857.79	1.87
857.958	0.21
858.126	1.34
858.294	2.18
858.462	1.87
858.629	1.49
858.797	-0
858.965	-0.06
859.133	1
859.301	0.29
859.468	2.46
859.636	1.22
859.804	4.39
859.971	2.22
860.139	0.64
860.307	1.6
860.474	2.77
860.642	0.77
860.81	1.97
860.977	1.99
861.145	3.39
861.313	1.49
861.48	2.02
861.648	2.19
861.815	1.19
861.983	1.28
862.15	2.09
862.318	1.32
862.485	2.87
862.653	0.78
862.82	0.81
862.988	2.8
863.155	2.24
863.322	1.73
863.49	1.49
863.657	0.42
863.824	4.27
863.992	3.09
864.159	2.62
864.326	3.37
864.494	1.61
864.661	3.8
864.828	1.36
864.996	3.44
865.163	2.35
865.33	0.14
865.497	-0.28
865.664	1.3
865.832	-1.03
865.999	1.46
866.166	0.44
866.333	1.16
866.5	3.1
866.667	3.03
866.834	0.6
867.001	3.62
867.168	0.1
867.335	1.94
867.502	0.62
867.669	3.08
867.836	4.01
868.003	2.23
868.17	3.16
868.337	1
868.504	4.57
868.671	1.77
868.838	1.07
869.005	2.38
869.172	1.69
869.339	3.69
869.505	2.15
869.672	2.16
869.839	2.81
870.006	3.16
870.173	0.42
870.339	3.5
870.506	3.69
870.673	0.38
870.84	2.57
871.006	2.96
871.173	0.49
871.34	2.18
871.506	2.5
871.673	2.64
871.839	1.71
872.006	2.19
872.173	1.43
872.339	3.69
872.506	2.99
872.672	2.29
872.839	0.53
873.005	3.36
873.172	4.48
873.338	2.96
873.505	3.36
873.671	1.54
873.838	2.74
874.004	-0.16
874.171	0.97
874.337	3.03
874.503	3.93
874.67	2.87
874.836	1.88
875.002	4.63
875.169	1.99
875.335	1.57
875.501	2.77
875.668	2.95
875.834	3.82
876	1.4
876.166	3.84
876.332	1.84
876.499	2.95
876.665	1.79
876.831	3.99
876.997	5.38
877.163	2.62
877.329	2.58
877.495	1.93
877.662	2.93
877.828	2.32
877.994	2.67
878.16	1.07
878.326	-0
878.492	2.96
878.658	1.9
878.824	1.3
878.99	3.73
879.156	-0.23
879.322	5.2
879.487	1.3
879.653	2.07
879.819	2.66
879.985	0.13
880.151	3.26
880.317	0.48
880.483	3.58
880.648	2.8
880.814	0.37
880.98	3.03
881.146	0.9
881.312	2.38
881.477	2.7
881.643	4.15
881.809	4.44
881.974	4.75
882.14	1.03
882.306	4.68
882.471	4.18
882.637	2.27
882.803	4.43
882.968	2.52
883.134	5.21
883.299	1.88
883.465	2.35
883.63	3
883.796	3.84
883.961	3.55
884.127	3.29
884.292	-1.55
884.458	0.03
884.623	0.03
