Data from Apollo_Calib_20240827__AbsoluteIrradiance__878__13-47-00-362.txt Node

Date: Wed Aug 28 13:47:00 BST 2024
User: biology
Spectrometer: FLMT08252
Trigger mode: 0
Integration Time (sec): 5.000000E-1
Scans to average: 5
Electric dark correction enabled: true
Nonlinearity correction enabled: false
Boxcar width: 0
XAxis mode: Wavelengths
Number of Pixels in Spectrum: 3648
>>>>>Begin Spectral Data<<<<<
179.588	-0
179.809	-0
180.03	-0
180.251	-0
180.473	-0
180.694	0
180.915	0
181.136	-0
181.357	0
181.578	-0
181.799	-0
182.02	-0
182.241	-0
182.462	-0
182.683	0
182.904	-0
183.125	-0
183.346	0
183.567	0
183.788	0
184.009	0
184.23	0
184.451	0
184.672	0
184.892	0
185.113	0
185.334	0
185.555	0
185.776	0
185.996	0
186.217	0
186.438	0
186.659	0
186.879	0
187.1	0
187.321	0
187.541	0
187.762	0
187.983	0
188.203	0
188.424	0
188.644	0
188.865	0
189.086	0
189.306	0
189.527	0
189.747	0
189.968	0
190.188	0
190.409	0
190.629	0
190.849	0
191.07	0
191.29	0
191.511	0
191.731	0
191.951	0
192.172	0
192.392	0
192.612	0
192.833	0
193.053	0
193.273	0
193.493	0
193.714	0
193.934	0
194.154	0
194.374	0
194.594	0
194.815	0
195.035	0
195.255	0
195.475	0
195.695	0
195.915	0
196.135	0
196.355	0
196.575	0
196.795	0
197.015	0
197.235	0
197.455	0
197.675	0
197.895	0
198.115	0
198.335	0
198.555	0
198.775	0
198.995	0
199.214	0
199.434	0
199.654	0
199.874	0
200.094	3.74
200.313	1.98
200.533	1.69
200.753	1.07
200.973	4.1
201.192	3.1
201.412	1.36
201.632	1.44
201.851	3.36
202.071	1.72
202.291	1.81
202.51	1.19
202.73	2.72
202.95	1.64
203.169	1.23
203.389	2.26
203.608	2.3
203.828	1.77
204.047	1.71
204.267	1.81
204.486	1.92
204.706	2.63
204.925	1.46
205.145	1.21
205.364	2.34
205.583	3
205.803	1.3
206.022	0.88
206.242	1.64
206.461	1.85
206.68	1.25
206.9	1.54
207.119	2.39
207.338	2.1
207.557	1.38
207.777	1.17
207.996	1.34
208.215	2.12
208.434	1.17
208.654	1.01
208.873	1.65
209.092	2.14
209.311	1.18
209.53	1.28
209.749	1.39
209.968	0.95
210.187	1.06
210.407	0.62
210.626	1.28
210.845	1.49
211.064	1.08
211.283	0.75
211.502	1.61
211.721	1.24
211.94	0.8
212.159	1.07
212.377	1.39
212.596	1.64
212.815	1.19
213.034	1.23
213.253	1.4
213.472	1.23
213.691	0.87
213.91	0.76
214.128	0.77
214.347	1.43
214.566	0.56
214.785	0.43
215.003	1.2
215.222	1.07
215.441	0.87
215.66	0.58
215.878	1.05
216.097	1.32
216.316	0.67
216.534	0.65
216.753	0.94
216.972	0.97
217.19	0.89
217.409	0.57
217.627	0.82
217.846	0.76
218.064	0.88
218.283	0.75
218.501	1.48
218.72	1.31
218.938	0.52
219.157	0.58
219.375	1.13
219.594	1.09
219.812	0.37
220.031	0.54
220.249	1.3
220.467	1.11
220.686	0.51
220.904	0.43
221.122	0.7
221.341	1.17
221.559	0.73
221.777	0.49
221.995	0.62
222.214	0.8
222.432	0.63
222.65	0.94
222.868	0.7
223.086	0.82
223.305	0.93
223.523	0.6
223.741	1.17
223.959	0.56
224.177	0.29
224.395	0.49
224.613	0.82
224.831	0.85
225.049	0.46
225.267	0.64
225.485	0.66
225.703	0.61
225.921	0.57
226.139	0.44
226.357	0.84
226.575	0.68
226.793	0.54
227.011	1.41
227.229	0.81
227.447	0.99
227.665	0.53
227.883	0.29
228.1	0.74
228.318	0.71
228.536	0.27
228.754	0.5
228.972	0.77
229.189	0.84
229.407	0.49
229.625	0.58
229.843	0.87
230.06	0.83
230.278	0.49
230.496	0.61
230.713	0.68
230.931	0.86
231.149	0.44
231.366	0.27
231.584	0.7
231.801	0.93
232.019	0.46
232.236	0.3
232.454	0.34
232.671	0.63
232.889	0.43
233.106	0.38
233.324	0.54
233.541	0.6
233.759	0.44
233.976	0.39
234.194	0.58
234.411	0.6
234.628	0.41
234.846	0.29
235.063	0.51
235.28	0.57
235.498	0.44
235.715	0.35
235.932	0.72
236.149	0.58
236.367	0.4
236.584	0.55
236.801	0.5
237.018	0.67
237.236	0.56
237.453	0.22
237.67	0.56
237.887	0.56
238.104	0.48
238.321	0.3
238.538	0.32
238.755	0.68
238.973	0.3
239.19	0.51
239.407	0.59
239.624	0.67
239.841	0.35
240.058	0.39
240.275	0.5
240.492	0.56
240.709	0.41
240.925	0.43
241.142	0.49
241.359	0.27
241.576	0.33
241.793	0.25
242.01	0.43
242.227	0.61
242.444	0.52
242.66	0.6
242.877	0.41
243.094	0.4
243.311	0.44
243.527	0.37
243.744	0.49
243.961	0.59
244.178	0.27
244.394	0.39
244.611	0.64
244.828	0.79
245.044	0.31
245.261	0.37
245.477	0.43
245.694	0.48
245.911	0.42
246.127	0.42
246.344	0.73
246.56	0.56
246.777	0.38
246.993	0.43
247.21	0.46
247.426	0.62
247.643	0.29
247.859	0.3
248.076	0.34
248.292	0.74
248.508	0.28
248.725	0.47
248.941	0.49
249.157	0.55
249.374	0.35
249.59	0.3
249.806	0.34
250.023	0.45
250.239	0.35
250.455	0.29
250.671	0.4
250.888	0.51
251.104	0.53
251.32	0.3
251.536	0.45
251.752	0.35
251.969	0.47
252.185	0.43
252.401	0.68
252.617	0.56
252.833	0.31
253.049	0.4
253.265	0.38
253.481	0.43
253.697	0.35
253.913	0.29
254.129	0.51
254.345	0.51
254.561	0.31
254.777	0.27
254.993	0.49
255.209	0.39
255.425	0.39
255.641	0.27
255.857	0.56
256.073	0.47
256.288	0.25
256.504	0.37
256.72	0.5
256.936	0.66
257.152	0.4
257.367	0.29
257.583	0.41
257.799	0.46
258.015	0.24
258.23	0.36
258.446	0.58
258.662	0.42
258.877	0.35
259.093	0.18
259.309	0.47
259.524	0.5
259.74	0.28
259.955	0.28
260.171	0.38
260.387	0.41
260.602	0.4
260.818	0.44
261.033	0.26
261.249	0.44
261.464	0.26
261.68	0.24
261.895	0.42
262.11	0.37
262.326	0.35
262.541	0.21
262.757	0.47
262.972	0.51
263.187	0.37
263.403	0.38
263.618	0.44
263.833	0.39
264.049	0.27
264.264	0.32
264.479	0.29
264.694	0.59
264.91	0.24
265.125	0.3
265.34	0.44
265.555	0.59
265.77	0.3
265.986	0.32
266.201	0.43
266.416	0.47
266.631	0.28
266.846	0.26
267.061	0.4
267.276	0.44
267.491	0.14
267.706	0.39
267.921	0.42
268.136	0.4
268.351	0.35
268.566	0.24
268.781	0.48
268.996	0.41
269.211	0.34
269.426	0.23
269.641	0.4
269.856	0.49
270.071	0.22
270.285	0.24
270.5	0.39
270.715	0.44
270.93	0.34
271.145	0.31
271.359	0.43
271.574	0.33
271.789	0.3
272.004	0.28
272.218	0.29
272.433	0.43
272.648	0.32
272.862	0.39
273.077	0.36
273.292	0.33
273.506	0.29
273.721	0.25
273.936	0.41
274.15	0.45
274.365	0.24
274.579	0.35
274.794	0.42
275.008	0.46
275.223	0.22
275.437	0.27
275.652	0.39
275.866	0.38
276.081	0.3
276.295	0.38
276.509	0.34
276.724	0.38
276.938	0.32
277.153	0.34
277.367	0.31
277.581	0.3
277.796	0.29
278.01	0.24
278.224	0.4
278.438	0.46
278.653	0.19
278.867	0.23
279.081	0.37
279.295	0.33
279.51	0.27
279.724	0.17
279.938	0.37
280.152	0.35
280.366	0.23
280.58	0.27
280.794	0.48
281.008	0.37
281.222	0.34
281.437	0.52
281.651	0.32
281.865	0.38
282.079	0.3
282.293	0.14
282.507	0.23
282.721	0.27
282.935	0.33
283.148	0.21
283.362	0.26
283.576	0.25
283.79	0.26
284.004	0.24
284.218	0.39
284.432	0.25
284.646	0.32
284.859	0.22
285.073	0.28
285.287	0.31
285.501	0.28
285.714	0.22
285.928	0.33
286.142	0.33
286.356	0.28
286.569	0.21
286.783	0.43
286.997	0.34
287.21	0.28
287.424	0.24
287.637	0.32
287.851	0.23
288.065	0.38
288.278	0.25
288.492	0.28
288.705	0.31
288.919	0.36
289.132	0.17
289.346	0.37
289.559	0.24
289.773	0.18
289.986	0.31
290.2	0.31
290.413	0.39
290.626	0.27
290.84	0.24
291.053	0.3
291.267	0.35
291.48	0.32
291.693	0.23
291.906	0.27
292.12	0.29
292.333	0.22
292.546	0.25
292.76	0.37
292.973	0.29
293.186	0.35
293.399	0.23
293.612	0.3
293.826	0.26
294.039	0.3
294.252	0.25
294.465	0.29
294.678	0.26
294.891	0.25
295.104	0.2
295.317	0.21
295.53	0.3
295.743	0.26
295.956	0.23
296.169	0.31
296.382	0.29
296.595	0.28
296.808	0.14
297.021	0.35
297.234	0.34
297.447	0.21
297.66	0.28
297.873	0.39
298.086	0.36
298.299	0.22
298.511	0.15
298.724	0.26
298.937	0.18
299.15	0.21
299.363	0.22
299.575	0.32
299.788	0.3
300.001	0.25
300.213	0.25
300.426	0.24
300.639	0.2
300.852	0.22
301.064	0.29
301.277	0.35
301.489	0.34
301.702	0.28
301.915	0.23
302.127	0.29
302.34	0.26
302.552	0.27
302.765	0.19
302.977	0.34
303.19	0.22
303.402	0.2
303.615	0.2
303.827	0.23
304.04	0.26
304.252	0.27
304.464	0.22
304.677	0.42
304.889	0.32
305.102	0.2
305.314	0.18
305.526	0.32
305.739	0.32
305.951	0.22
306.163	0.24
306.375	0.33
306.588	0.27
306.8	0.23
307.012	0.17
307.224	0.29
307.436	0.38
307.649	0.16
307.861	0.25
308.073	0.34
308.285	0.23
308.497	0.17
308.709	0.24
308.921	0.3
309.133	0.35
309.346	0.19
309.558	0.22
309.77	0.31
309.982	0.32
310.194	0.28
310.406	0.23
310.617	0.37
310.829	0.28
311.041	0.25
311.253	0.23
311.465	0.24
311.677	0.26
311.889	0.23
312.101	0.18
312.313	0.33
312.524	0.41
312.736	0.22
312.948	0.21
313.16	0.32
313.372	0.3
313.583	0.24
313.795	0.22
314.007	0.22
314.218	0.3
314.43	0.23
314.642	0.25
314.853	0.16
315.065	0.29
315.277	0.25
315.488	0.26
315.7	0.32
315.912	0.27
316.123	0.23
316.335	0.22
316.546	0.41
316.758	0.26
316.969	0.23
317.181	0.22
317.392	0.3
317.604	0.37
317.815	0.22
318.026	0.21
318.238	0.25
318.449	0.28
318.661	0.18
318.872	0.23
319.083	0.21
319.295	0.32
319.506	0.21
319.717	0.26
319.929	0.35
320.14	0.29
320.351	0.27
320.562	0.18
320.774	0.32
320.985	0.28
321.196	0.26
321.407	0.14
321.618	0.33
321.829	0.3
322.041	0.24
322.252	0.24
322.463	0.34
322.674	0.31
322.885	0.22
323.096	0.25
323.307	0.25
323.518	0.28
323.729	0.25
323.94	0.22
324.151	0.21
324.362	0.31
324.573	0.28
324.784	0.25
324.995	0.31
325.206	0.26
325.417	0.2
325.628	0.24
325.838	0.24
326.049	0.27
326.26	0.28
326.471	0.24
326.682	0.26
326.892	0.27
327.103	0.2
327.314	0.22
327.525	0.35
327.735	0.28
327.946	0.19
328.157	0.2
328.368	0.31
328.578	0.27
328.789	0.29
328.999	0.18
329.21	0.21
329.421	0.3
329.631	0.2
329.842	0.2
330.052	0.3
330.263	0.31
330.473	0.32
330.684	0.18
330.894	0.28
331.105	0.27
331.315	0.28
331.526	0.19
331.736	0.34
331.947	0.29
332.157	0.27
332.367	0.2
332.578	0.34
332.788	0.38
332.999	0.29
333.209	0.26
333.419	0.2
333.629	0.34
333.84	0.28
334.05	0.23
334.26	0.29
334.47	0.28
334.681	0.27
334.891	0.26
335.101	0.29
335.311	0.36
335.521	0.26
335.732	0.21
335.942	0.34
336.152	0.3
336.362	0.27
336.572	0.25
336.782	0.32
336.992	0.2
337.202	0.25
337.412	0.23
337.622	0.3
337.832	0.26
338.042	0.23
338.252	0.22
338.462	0.24
338.672	0.26
338.882	0.21
339.092	0.29
339.302	0.35
339.511	0.29
339.721	0.22
339.931	0.21
340.141	0.32
340.351	0.31
340.561	0.27
340.77	0.26
340.98	0.29
341.19	0.3
341.4	0.22
341.609	0.17
341.819	0.26
342.029	0.18
342.238	0.22
342.448	0.22
342.658	0.31
342.867	0.24
343.077	0.23
343.286	0.25
343.496	0.24
343.706	0.34
343.915	0.16
344.125	0.26
344.334	0.27
344.544	0.19
344.753	0.24
344.963	0.18
345.172	0.26
345.381	0.21
345.591	0.15
345.8	0.25
346.01	0.32
346.219	0.32
346.428	0.13
346.638	0.24
346.847	0.28
347.056	0.37
347.266	0.23
347.475	0.2
347.684	0.33
347.893	0.29
348.103	0.28
348.312	0.23
348.521	0.25
348.73	0.24
348.94	0.27
349.149	0.2
349.358	0.2
349.567	0.16
349.776	0.16
349.985	0.21
350.194	0.28
350.403	0.32
350.612	0.13
350.821	0.16
351.03	0.25
351.239	0.25
351.448	0.25
351.657	0.19
351.866	0.38
352.075	0.28
352.284	0.31
352.493	0.18
352.702	0.31
352.911	0.24
353.12	0.24
353.329	0.22
353.538	0.3
353.746	0.21
353.955	0.21
354.164	0.23
354.373	0.23
354.582	0.26
354.79	0.25
354.999	0.3
355.208	0.27
355.416	0.36
355.625	0.2
355.834	0.25
356.042	0.31
356.251	0.25
356.46	0.2
356.668	0.29
356.877	0.39
357.085	0.28
357.294	0.16
357.503	0.25
357.711	0.19
357.92	0.43
358.128	0.3
358.337	0.25
358.545	0.29
358.754	0.22
358.962	0.26
359.17	0.19
359.379	0.29
359.587	0.27
359.796	0.26
360.004	0.33
360.212	0.33
360.421	0.32
360.629	0.18
360.837	0.23
361.046	0.37
361.254	0.38
361.462	0.23
361.67	0.19
361.879	0.3
362.087	0.33
362.295	0.27
362.503	0.18
362.711	0.2
362.92	0.24
363.128	0.15
363.336	0.17
363.544	0.21
363.752	0.23
363.96	0.23
364.168	0.22
364.376	0.23
364.584	0.28
364.792	0.28
365	0.31
365.208	0.26
365.416	0.28
365.624	0.28
365.832	0.2
366.04	0.35
366.248	0.28
366.456	0.3
366.664	0.26
366.872	0.23
367.079	0.26
367.287	0.22
367.495	0.28
367.703	0.29
367.911	0.21
368.118	0.25
368.326	0.22
368.534	0.21
368.742	0.29
368.949	0.17
369.157	0.2
369.365	0.27
369.572	0.2
369.78	0.21
369.988	0.26
370.195	0.26
370.403	0.28
370.61	0.2
370.818	0.26
371.026	0.34
371.233	0.23
371.441	0.23
371.648	0.27
371.856	0.28
372.063	0.26
372.271	0.2
372.478	0.19
372.685	0.25
372.893	0.38
373.1	0.25
373.308	0.25
373.515	0.34
373.722	0.33
373.93	0.26
374.137	0.28
374.344	0.35
374.552	0.31
374.759	0.28
374.966	0.3
375.173	0.27
375.381	0.3
375.588	0.25
375.795	0.14
376.002	0.27
376.209	0.27
376.417	0.23
376.624	0.24
376.831	0.31
377.038	0.26
377.245	0.2
377.452	0.28
377.659	0.29
377.866	0.22
378.073	0.21
378.28	0.25
378.487	0.34
378.694	0.28
378.901	0.25
379.108	0.2
379.315	0.28
379.522	0.36
379.729	0.28
379.936	0.23
380.143	0.28
380.35	0.34
380.557	0.25
380.763	0.27
380.97	0.3
381.177	0.31
381.384	0.31
381.591	0.28
381.797	0.3
382.004	0.34
382.211	0.31
382.418	0.21
382.624	0.32
382.831	0.33
383.038	0.29
383.244	0.29
383.451	0.27
383.658	0.28
383.864	0.25
384.071	0.21
384.277	0.36
384.484	0.28
384.69	0.36
384.897	0.26
385.103	0.23
385.31	0.24
385.516	0.21
385.723	0.22
385.929	0.31
386.136	0.3
386.342	0.33
386.549	0.27
386.755	0.36
386.961	0.32
387.168	0.29
387.374	0.29
387.58	0.31
387.787	0.3
387.993	0.3
388.199	0.27
388.406	0.24
388.612	0.27
388.818	0.27
389.024	0.24
389.231	0.3
389.437	0.41
389.643	0.27
389.849	0.33
390.055	0.3
390.261	0.28
390.467	0.38
390.674	0.24
390.88	0.3
391.086	0.34
391.292	0.26
391.498	0.28
391.704	0.32
391.91	0.27
392.116	0.3
392.322	0.18
392.528	0.33
392.734	0.31
392.94	0.32
393.146	0.3
393.352	0.36
393.557	0.3
393.763	0.27
393.969	0.32
394.175	0.29
394.381	0.31
394.587	0.22
394.792	0.33
394.998	0.39
395.204	0.39
395.41	0.29
395.615	0.33
395.821	0.31
396.027	0.36
396.233	0.31
396.438	0.35
396.644	0.38
396.85	0.35
397.055	0.34
397.261	0.38
397.466	0.45
397.672	0.35
397.878	0.35
398.083	0.4
398.289	0.3
398.494	0.4
398.7	0.38
398.905	0.24
399.111	0.47
399.316	0.33
399.522	0.34
399.727	0.29
399.932	0.35
400.138	0.35
400.343	0.37
400.549	0.34
400.754	0.37
400.959	0.38
401.165	0.3
401.37	0.38
401.575	0.5
401.78	0.38
401.986	0.4
402.191	0.35
402.396	0.41
402.601	0.43
402.807	0.37
403.012	0.37
403.217	0.47
403.422	0.37
403.627	0.41
403.832	0.39
404.037	0.46
404.243	0.45
404.448	0.37
404.653	0.41
404.858	0.45
405.063	0.48
405.268	0.38
405.473	0.34
405.678	0.38
405.883	0.69
406.088	0.46
406.293	0.37
406.498	0.47
406.703	0.51
406.907	0.47
407.112	0.4
407.317	0.52
407.522	0.59
407.727	0.46
407.932	0.55
408.136	0.68
408.341	0.55
408.546	0.56
408.751	0.55
408.956	0.58
409.16	0.67
409.365	0.57
409.57	0.59
409.774	0.65
409.979	0.68
410.184	0.69
410.388	0.6
410.593	0.8
410.798	0.73
411.002	0.7
411.207	0.81
411.411	0.81
411.616	0.75
411.82	0.74
412.025	0.81
412.229	0.77
412.434	0.99
412.638	0.93
412.843	0.83
413.047	0.94
413.252	0.93
413.456	1.02
413.66	1.07
413.865	1.03
414.069	1.14
414.273	1.05
414.478	1.1
414.682	1.16
414.886	1.25
415.091	1.14
415.295	1.17
415.499	1.38
415.703	1.3
415.908	1.47
416.112	1.37
416.316	1.57
416.52	1.49
416.724	1.51
416.929	1.62
417.133	1.84
417.337	1.74
417.541	1.74
417.745	1.73
417.949	1.95
418.153	1.97
418.357	1.96
418.561	2.21
418.765	2.17
418.969	2.23
419.173	2.38
419.377	2.31
419.581	2.57
419.785	2.6
419.989	2.57
420.193	2.64
420.397	2.76
420.601	2.91
420.804	3.03
421.008	3
421.212	3.14
421.416	3.23
421.62	3.14
421.823	3.29
422.027	3.47
422.231	3.4
422.435	3.33
422.638	3.45
422.842	3.61
423.046	3.61
423.249	3.87
423.453	3.82
423.657	4.01
423.86	4.02
424.064	4.14
424.268	4.4
424.471	4.34
424.675	4.61
424.878	4.61
425.082	4.73
425.285	5.1
425.489	4.94
425.692	5.12
425.896	5.11
426.099	5.35
426.303	5.43
426.506	5.54
426.71	5.77
426.913	5.94
427.116	6.25
427.32	6.18
427.523	6.2
427.726	6.57
427.93	6.66
428.133	6.92
428.336	7.02
428.54	7.14
428.743	7.43
428.946	7.66
429.149	7.62
429.353	7.74
429.556	7.81
429.759	7.91
429.962	7.93
430.165	8.16
430.368	7.78
430.571	7.94
430.775	7.96
430.978	7.89
431.181	7.97
431.384	8.11
431.587	8.18
431.79	8.56
431.993	8.42
432.196	8.77
432.399	9.2
432.602	9.29
432.805	9.33
433.008	9.81
433.211	9.74
433.414	10.17
433.616	10.09
433.819	10.01
434.022	10.23
434.225	10.38
434.428	10.41
434.631	10.89
434.833	10.71
435.036	10.88
435.239	11.19
435.442	11.16
435.645	11.3
435.847	11.35
436.05	11.69
436.253	11.86
436.455	11.95
436.658	11.91
436.861	12.18
437.063	12.2
437.266	12.25
437.468	12.57
437.671	12.95
437.874	12.96
438.076	12.73
438.279	13.23
438.481	13.29
438.684	14.02
438.886	13.64
439.089	13.99
439.291	13.97
439.494	14.32
439.696	14.41
439.899	14.94
440.101	15.54
440.303	15.63
440.506	16.25
440.708	15.97
440.91	16.21
441.113	16.49
441.315	16.77
441.517	16.52
441.72	16.93
441.922	16.57
442.124	16.56
442.326	16.9
442.529	17.14
442.731	17.11
442.933	17.41
443.135	17.18
443.337	17.2
443.539	17.78
443.742	17.37
443.944	18.12
444.146	17.8
444.348	17.82
444.55	17.62
444.752	17.79
444.954	17.93
445.156	17.9
445.358	18.16
445.56	18.53
445.762	18.26
445.964	18.45
446.166	18.29
446.368	18.31
446.57	18.32
446.772	17.96
446.974	17.72
447.175	18.05
447.377	17.81
447.579	18.17
447.781	17.94
447.983	17.69
448.184	17.18
448.386	17.61
448.588	17.12
448.79	17.17
448.991	17.45
449.193	17.35
449.395	16.76
449.597	16.32
449.798	16.39
450	15.89
450.202	15.9
450.403	15.95
450.605	15.64
450.806	15.41
451.008	15.2
451.21	14.94
451.411	14.59
451.613	13.82
451.814	14.1
452.016	14.11
452.217	13.35
452.419	13.4
452.62	13.04
452.821	12.77
453.023	12.7
453.224	12.29
453.426	11.93
453.627	11.06
453.828	11.36
454.03	11.35
454.231	11.33
454.432	11.17
454.634	10.85
454.835	10.61
455.036	10.53
455.238	10.15
455.439	9.92
455.64	9.63
455.841	9.56
456.042	9.64
456.244	9.29
456.445	9.06
456.646	8.73
456.847	8.76
457.048	8.56
457.249	8.56
457.45	8.47
457.651	7.89
457.852	7.64
458.054	7.29
458.255	7.26
458.456	7.43
458.657	7.3
458.858	6.82
459.058	6.8
459.259	6.76
459.46	6.45
459.661	6.44
459.862	6.55
460.063	6.34
460.264	6.36
460.465	6.02
460.666	6.12
460.866	5.89
461.067	5.6
461.268	5.65
461.469	5.53
461.67	5.46
461.87	5.28
462.071	5.32
462.272	5.14
462.473	5.22
462.673	5.34
462.874	5.13
463.075	5.14
463.275	5.13
463.476	5.19
463.676	5.16
463.877	4.95
464.078	4.99
464.278	4.99
464.479	4.9
464.679	4.78
464.88	4.84
465.08	4.84
465.281	4.52
465.481	4.33
465.682	4.2
465.882	4.28
466.083	4.13
466.283	4.07
466.483	4
466.684	3.79
466.884	3.69
467.085	3.71
467.285	3.76
467.485	3.69
467.686	3.58
467.886	3.5
468.086	3.45
468.286	3.36
468.487	3.47
468.687	3.25
468.887	3.31
469.087	3.42
469.287	3.31
469.488	3.13
469.688	3.23
469.888	3.28
470.088	3.17
470.288	3.08
470.488	3.13
470.688	2.93
470.888	2.85
471.088	2.7
471.288	2.8
471.488	2.83
471.688	2.78
471.888	2.78
472.088	2.84
472.288	2.74
472.488	2.63
472.688	2.6
472.888	2.68
473.088	2.64
473.288	2.56
473.488	2.47
473.688	2.7
473.887	2.54
474.087	2.44
474.287	2.42
474.487	2.42
474.687	2.45
474.886	2.39
475.086	2.33
475.286	2.38
475.486	2.29
475.685	2.27
475.885	2.26
476.085	2.33
476.284	2.31
476.484	2.3
476.684	2.3
476.883	2.34
477.083	2.2
477.282	2.12
477.482	2.26
477.681	2.22
477.881	2.1
478.08	2.11
478.28	2.06
478.479	2.13
478.679	2.17
478.878	2.04
479.078	2.08
479.277	2.14
479.477	2.1
479.676	2.07
479.875	1.99
480.075	1.97
480.274	2.03
480.473	2.09
480.673	2.01
480.872	2.1
481.071	2.07
481.271	2.11
481.47	2.01
481.669	2.01
481.868	1.98
482.067	2.02
482.267	1.94
482.466	1.97
482.665	1.96
482.864	1.96
483.063	1.97
483.262	2.02
483.461	2.08
483.661	2.1
483.86	2.06
484.059	2.1
484.258	2.05
484.457	2.01
484.656	2.01
484.855	2.13
485.054	1.92
485.253	2.01
485.452	1.96
485.651	2.05
485.849	2.05
486.048	1.97
486.247	2.05
486.446	2.07
486.645	2.03
486.844	2.09
487.043	2.03
487.241	2.13
487.44	2.1
487.639	2.19
487.838	2.12
488.037	2.13
488.235	2.26
488.434	2.2
488.633	2.09
488.831	2.25
489.03	2.24
489.229	2.24
489.427	2.21
489.626	2.32
489.825	2.32
490.023	2.28
490.222	2.29
490.42	2.34
490.619	2.36
490.817	2.34
491.016	2.36
491.214	2.38
491.413	2.4
491.611	2.37
491.81	2.38
492.008	2.46
492.207	2.54
492.405	2.52
492.604	2.45
492.802	2.57
493	2.59
493.199	2.61
493.397	2.63
493.595	2.7
493.794	2.67
493.992	2.81
494.19	2.76
494.388	2.82
494.587	2.75
494.785	2.79
494.983	2.7
495.181	2.89
495.379	2.92
495.578	2.93
495.776	2.95
495.974	2.9
496.172	2.95
496.37	3.07
496.568	3.06
496.766	3.09
496.964	3.16
497.162	3.18
497.36	3.18
497.558	3.2
497.756	3.31
497.954	3.3
498.152	3.32
498.35	3.44
498.548	3.38
498.746	3.4
498.944	3.38
499.142	3.41
499.34	3.55
499.538	3.62
499.736	3.52
499.933	3.66
500.131	3.6
500.329	3.74
500.527	3.75
500.725	3.88
500.922	3.8
501.12	3.89
501.318	3.92
501.516	3.92
501.713	4
501.911	3.96
502.109	3.89
502.306	4.07
502.504	3.98
502.701	4.06
502.899	4.15
503.097	4.34
503.294	4.22
503.492	4.29
503.689	4.36
503.887	4.35
504.084	4.48
504.282	4.42
504.479	4.38
504.677	4.59
504.874	4.56
505.072	4.44
505.269	4.64
505.466	4.64
505.664	4.68
505.861	4.63
506.059	4.67
506.256	4.75
506.453	4.86
506.651	4.95
506.848	4.96
507.045	4.95
507.242	4.99
507.44	5.02
507.637	5.06
507.834	5.03
508.031	5.18
508.229	5.11
508.426	5.09
508.623	5.27
508.82	5.33
509.017	5.28
509.214	5.23
509.411	5.4
509.608	5.32
509.805	5.49
510.003	5.38
510.2	5.46
510.397	5.6
510.594	5.52
510.791	5.62
510.988	5.58
511.184	5.63
511.381	5.48
511.578	5.65
511.775	5.82
511.972	5.74
512.169	5.82
512.366	5.81
512.563	5.95
512.76	5.89
512.956	6.05
513.153	5.9
513.35	5.86
513.547	5.89
513.744	6.03
513.94	5.98
514.137	6.17
514.334	6.07
514.53	6.16
514.727	6.32
514.924	6.25
515.12	6.24
515.317	6.21
515.514	6.16
515.71	6.15
515.907	6.4
516.103	6.41
516.3	6.3
516.497	6.46
516.693	6.47
516.89	6.43
517.086	6.46
517.283	6.5
517.479	6.41
517.676	6.57
517.872	6.58
518.068	6.58
518.265	6.56
518.461	6.49
518.658	6.65
518.854	6.69
519.05	6.77
519.247	6.79
519.443	6.76
519.639	6.83
519.836	6.69
520.032	6.7
520.228	6.85
520.424	6.83
520.621	6.91
520.817	6.92
521.013	6.85
521.209	7.04
521.405	7.02
521.601	7
521.798	6.99
521.994	7.04
522.19	6.93
522.386	6.99
522.582	7.08
522.778	7.19
522.974	7.06
523.17	7.12
523.366	7.06
523.562	7.12
523.758	7.17
523.954	7.04
524.15	7.18
524.346	7.28
524.542	7.26
524.738	7.18
524.934	7.29
525.129	7.3
525.325	7.2
525.521	7.21
525.717	7.44
525.913	7.29
526.109	7.31
526.304	7.36
526.5	7.35
526.696	7.44
526.892	7.37
527.087	7.59
527.283	7.49
527.479	7.45
527.674	7.27
527.87	7.5
528.066	7.49
528.261	7.53
528.457	7.38
528.653	7.53
528.848	7.53
529.044	7.64
529.239	7.53
529.435	7.48
529.63	7.41
529.826	7.54
530.021	7.5
530.217	7.59
530.412	7.53
530.608	7.53
530.803	7.57
530.999	7.44
531.194	7.6
531.389	7.68
531.585	7.71
531.78	7.76
531.975	7.65
532.171	7.74
532.366	7.72
532.561	7.72
532.757	7.66
532.952	7.8
533.147	7.61
533.342	7.76
533.538	7.7
533.733	7.92
533.928	7.55
534.123	7.71
534.318	7.82
534.513	7.71
534.709	7.98
534.904	7.82
535.099	7.85
535.294	7.81
535.489	7.85
535.684	7.82
535.879	7.81
536.074	7.86
536.269	7.92
536.464	7.88
536.659	7.87
536.854	7.87
537.049	7.94
537.244	7.85
537.439	7.78
537.634	7.9
537.828	7.94
538.023	7.92
538.218	7.89
538.413	7.8
538.608	7.91
538.803	7.89
538.997	7.91
539.192	7.95
539.387	7.88
539.582	7.89
539.776	7.84
539.971	7.98
540.166	7.99
540.36	7.9
540.555	8.05
540.75	7.96
540.944	8
541.139	8.01
541.334	7.99
541.528	7.96
541.723	8.1
541.917	8.05
542.112	7.91
542.306	7.85
542.501	7.93
542.695	7.92
542.89	7.89
543.084	8
543.279	7.95
543.473	7.99
543.668	8.08
543.862	7.9
544.056	7.91
544.251	8.09
544.445	8.07
544.64	8.07
544.834	7.76
545.028	7.67
545.222	8
545.417	8.18
545.611	8.07
545.805	8.01
546	7.87
546.194	8.05
546.388	8.02
546.582	7.99
546.776	8.01
546.97	7.99
547.165	7.95
547.359	8
547.553	7.93
547.747	8.02
547.941	8.22
548.135	8.03
548.329	8.07
548.523	8.09
548.717	8.02
548.911	8.01
549.105	7.91
549.299	8.07
549.493	8.03
549.687	7.99
549.881	8.13
550.075	8.1
550.269	7.95
550.463	8.11
550.657	8.07
550.85	8
551.044	7.98
551.238	8.04
551.432	7.99
551.626	8.07
551.82	8.16
552.013	7.92
552.207	8.14
552.401	8.16
552.594	8.08
552.788	8.02
552.982	8.02
553.176	8
553.369	8.29
553.563	8.08
553.756	8
553.95	8.13
554.144	8.13
554.337	8.16
554.531	7.9
554.724	8.11
554.918	8.13
555.111	8.07
555.305	8.06
555.498	8.02
555.692	8.16
555.885	8.11
556.079	7.98
556.272	8.12
556.466	8.02
556.659	8.07
556.852	8.14
557.046	8.03
557.239	7.88
557.432	8.02
557.626	8.17
557.819	8.15
558.012	8.1
558.206	8.24
558.399	8.06
558.592	8.04
558.785	8.04
558.979	8.07
559.172	8.08
559.365	8.11
559.558	8
559.751	8.01
559.944	8.21
560.138	8.04
560.331	8.1
560.524	8.16
560.717	8.07
560.91	8.06
561.103	8.06
561.296	7.95
561.489	8.06
561.682	8.22
561.875	8.07
562.068	8.15
562.261	7.94
562.454	8.23
562.647	8.05
562.84	8.12
563.032	8.07
563.225	7.99
563.418	7.95
563.611	8.21
563.804	8.14
563.997	7.95
564.19	7.8
564.382	8.16
564.575	8.06
564.768	7.95
564.961	8.12
565.153	8.03
565.346	7.97
565.539	8.15
565.731	8.06
565.924	8.13
566.117	8.18
566.309	8.08
566.502	7.97
566.695	7.95
566.887	8.13
567.08	8.05
567.272	8.13
567.465	7.98
567.657	8.13
567.85	7.98
568.042	8.06
568.235	8.11
568.427	7.93
568.62	8.03
568.812	8.01
569.005	8.13
569.197	8
569.389	8.03
569.582	8.03
569.774	7.98
569.966	7.93
570.159	7.94
570.351	7.92
570.543	7.94
570.736	7.97
570.928	7.82
571.12	8
571.312	7.93
571.505	7.78
571.697	8
571.889	7.98
572.081	7.94
572.273	7.86
572.465	8.03
572.658	8.04
572.85	7.97
573.042	7.97
573.234	7.91
573.426	7.96
573.618	7.95
573.81	7.99
574.002	7.94
574.194	7.97
574.386	7.91
574.578	7.78
574.77	7.9
574.962	7.92
575.154	7.76
575.346	7.84
575.538	7.85
575.729	7.82
575.921	7.9
576.113	7.89
576.305	7.86
576.497	7.95
576.689	7.8
576.88	7.74
577.072	7.9
577.264	7.84
577.456	7.84
577.647	7.79
577.839	7.93
578.031	7.84
578.223	7.75
578.414	7.67
578.606	7.82
578.798	7.87
578.989	7.82
579.181	7.87
579.372	7.84
579.564	7.81
579.755	7.75
579.947	7.72
580.139	7.83
580.33	7.58
580.522	7.76
580.713	7.63
580.905	7.77
581.096	7.77
581.287	7.69
581.479	7.65
581.67	7.8
581.862	7.65
582.053	7.62
582.244	7.58
582.436	7.75
582.627	7.6
582.818	7.64
583.01	7.62
583.201	7.71
583.392	7.64
583.583	7.54
583.775	7.41
583.966	7.57
584.157	7.55
584.348	7.68
584.54	7.54
584.731	7.61
584.922	7.53
585.113	7.49
585.304	7.55
585.495	7.6
585.686	7.65
585.877	7.53
586.068	7.59
586.259	7.5
586.45	7.54
586.641	7.47
586.832	7.61
587.023	7.46
587.214	7.43
587.405	7.47
587.596	7.39
587.787	7.39
587.978	7.49
588.169	7.36
588.36	7.33
588.551	7.42
588.742	7.41
588.932	7.49
589.123	7.23
589.314	7.43
589.505	7.38
589.696	7.36
589.886	7.26
590.077	7.28
590.268	7.26
590.458	7.14
590.649	7.02
590.84	7.27
591.03	7.22
591.221	7.19
591.412	7.09
591.602	7.33
591.793	7.23
591.984	7.19
592.174	7.18
592.365	7.35
592.555	7.07
592.746	7.08
592.936	7.13
593.127	7.2
593.317	7.11
593.508	7.1
593.698	7.07
593.889	7.12
594.079	7.05
594.269	6.99
594.46	6.99
594.65	7.03
594.84	7.06
595.031	6.94
595.221	6.93
595.411	6.9
595.602	6.99
595.792	6.99
595.982	6.91
596.172	7.06
596.363	6.89
596.553	6.87
596.743	6.96
596.933	6.83
597.123	6.81
597.314	6.72
597.504	6.78
597.694	6.93
597.884	6.79
598.074	6.8
598.264	6.69
598.454	6.8
598.644	6.73
598.834	6.75
599.024	6.63
599.214	6.71
599.404	6.69
599.594	6.67
599.784	6.57
599.974	6.72
600.164	6.66
600.354	6.56
600.544	6.54
600.734	6.67
600.924	6.6
601.114	6.53
601.303	6.46
601.493	6.58
601.683	6.5
601.873	6.47
602.063	6.42
602.252	6.48
602.442	6.46
602.632	6.38
602.821	6.32
603.011	6.44
603.201	6.39
603.39	6.37
603.58	6.25
603.77	6.35
603.959	6.43
604.149	6.31
604.339	6.32
604.528	6.44
604.718	6.31
604.907	6.23
605.097	6.24
605.286	6.17
605.476	6.21
605.665	6.22
605.855	6.19
606.044	6.25
606.234	6.16
606.423	6.13
606.612	6.07
606.802	6.07
606.991	6.17
607.181	6.18
607.37	6.12
607.559	5.91
607.749	6.05
607.938	5.98
608.127	6
608.316	6.04
608.506	5.97
608.695	6.05
608.884	5.95
609.073	5.97
609.263	6.04
609.452	5.98
609.641	5.79
609.83	5.81
610.019	5.91
610.208	5.8
610.397	5.78
610.586	5.86
610.775	5.72
610.965	5.8
611.154	5.64
611.343	5.84
611.532	5.71
611.721	5.74
611.91	5.69
612.099	5.72
612.287	5.61
612.476	5.53
612.665	5.67
612.854	5.56
613.043	5.58
613.232	5.62
613.421	5.53
613.61	5.61
613.798	5.59
613.987	5.59
614.176	5.49
614.365	5.51
614.554	5.52
614.742	5.51
614.931	5.35
615.12	5.45
615.309	5.45
615.497	5.36
615.686	5.28
615.875	5.36
616.063	5.36
616.252	5.35
616.44	5.37
616.629	5.3
616.818	5.27
617.006	5.19
617.195	5.2
617.383	5.2
617.572	5.14
617.76	5.1
617.949	5.11
618.137	5.19
618.326	5.18
618.514	4.99
618.703	4.96
618.891	5.17
619.079	4.98
619.268	5.14
619.456	5.04
619.644	5.07
619.833	4.99
620.021	5
620.209	4.89
620.398	5.02
620.586	4.91
620.774	4.9
620.962	4.87
621.151	5.01
621.339	4.87
621.527	4.81
621.715	4.76
621.903	4.81
622.092	4.7
622.28	4.84
622.468	4.69
622.656	4.72
622.844	4.73
623.032	4.76
623.22	4.57
623.408	4.82
623.596	4.72
623.784	4.81
623.972	4.57
624.16	4.64
624.348	4.69
624.536	4.7
624.724	4.57
624.912	4.64
625.1	4.6
625.288	4.6
625.476	4.48
625.664	4.53
625.851	4.47
626.039	4.52
626.227	4.5
626.415	4.51
626.603	4.4
626.79	4.48
626.978	4.46
627.166	4.4
627.354	4.33
627.541	4.35
627.729	4.25
627.917	4.47
628.104	4.44
628.292	4.25
628.48	4.29
628.667	4.23
628.855	4.39
629.042	4.37
629.23	4.23
629.418	4.2
629.605	4.19
629.793	4.12
629.98	4.18
630.168	4.14
630.355	4.2
630.543	4.11
630.73	4.08
630.917	4.07
631.105	4.22
631.292	4.1
631.48	4.02
631.667	4.22
631.854	4.03
632.042	3.99
632.229	3.93
632.416	4.02
632.604	3.96
632.791	3.82
632.978	3.94
633.165	3.91
633.353	3.93
633.54	3.98
633.727	3.78
633.914	3.84
634.101	3.83
634.289	3.92
634.476	3.71
634.663	3.74
634.85	3.81
635.037	3.78
635.224	3.66
635.411	3.85
635.598	3.75
635.785	3.68
635.972	3.66
636.159	3.72
636.346	3.62
636.533	3.64
636.72	3.63
636.907	3.61
637.094	3.56
637.281	3.48
637.468	3.57
637.655	3.59
637.842	3.55
638.029	3.51
638.215	3.51
638.402	3.55
638.589	3.42
638.776	3.43
638.963	3.42
639.149	3.54
639.336	3.54
639.523	3.4
639.709	3.34
639.896	3.39
640.083	3.41
640.27	3.44
640.456	3.35
640.643	3.37
640.829	3.24
641.016	3.25
641.203	3.25
641.389	3.31
641.576	3.23
641.762	3.2
641.949	3.22
642.135	3.27
642.322	3.2
642.508	3.1
642.695	3.22
642.881	3.14
643.068	3.1
643.254	3.12
643.441	3.16
643.627	3.26
643.813	3.07
644	3.06
644.186	2.97
644.372	3.09
644.559	3.02
644.745	2.99
644.931	2.95
645.118	2.96
645.304	3.03
645.49	3.01
645.676	2.96
645.862	2.96
646.049	3.02
646.235	2.89
646.421	3.06
646.607	3.03
646.793	2.86
646.979	2.83
647.165	2.84
647.352	2.92
647.538	2.9
647.724	2.82
647.91	2.8
648.096	2.85
648.282	2.81
648.468	2.75
648.654	2.81
648.84	2.78
649.026	2.79
649.212	2.68
649.397	2.69
649.583	2.72
649.769	2.69
649.955	2.68
650.141	2.68
650.327	2.72
650.513	2.66
650.698	2.68
650.884	2.5
651.07	2.69
651.256	2.61
651.442	2.59
651.627	2.5
651.813	2.63
651.999	2.59
652.184	2.56
652.37	2.53
652.556	2.56
652.741	2.59
652.927	2.37
653.113	2.5
653.298	2.51
653.484	2.48
653.669	2.39
653.855	2.42
654.04	2.5
654.226	2.45
654.412	2.43
654.597	2.36
654.782	2.45
654.968	2.47
655.153	2.31
655.339	2.36
655.524	2.33
655.71	2.36
655.895	2.35
656.08	2.34
656.266	2.41
656.451	2.34
656.636	2.23
656.822	2.3
657.007	2.28
657.192	2.3
657.378	2.2
657.563	2.23
657.748	2.25
657.933	2.26
658.118	2.16
658.304	2.2
658.489	2.27
658.674	2.26
658.859	2.14
659.044	2.17
659.229	2.22
659.414	2.11
659.599	2.16
659.785	2.08
659.97	2.09
660.155	2.15
660.34	2.17
660.525	2.06
660.71	2.01
660.895	2.12
661.08	2.08
661.264	2
661.449	2.12
661.634	2.06
661.819	2.06
662.004	2.02
662.189	1.95
662.374	2.03
662.559	1.94
662.743	1.88
662.928	2.02
663.113	1.96
663.298	1.9
663.483	1.94
663.667	1.93
663.852	1.9
664.037	1.92
664.221	1.92
664.406	1.96
664.591	1.95
664.775	1.92
664.96	1.9
665.145	1.86
665.329	1.89
665.514	1.83
665.698	1.84
665.883	1.7
666.068	1.91
666.252	1.78
666.437	1.78
666.621	1.79
666.806	1.79
666.99	1.77
667.174	1.71
667.359	1.86
667.543	1.73
667.728	1.68
667.912	1.67
668.096	1.79
668.281	1.68
668.465	1.75
668.649	1.76
668.834	1.67
669.018	1.68
669.202	1.66
669.387	1.68
669.571	1.75
669.755	1.64
669.939	1.63
670.124	1.65
670.308	1.67
670.492	1.66
670.676	1.62
670.86	1.59
671.044	1.57
671.228	1.64
671.413	1.6
671.597	1.53
671.781	1.6
671.965	1.58
672.149	1.54
672.333	1.59
672.517	1.56
672.701	1.59
672.885	1.52
673.069	1.45
673.253	1.6
673.437	1.56
673.621	1.49
673.804	1.55
673.988	1.55
674.172	1.5
674.356	1.37
674.54	1.5
674.724	1.62
674.908	1.47
675.091	1.51
675.275	1.46
675.459	1.55
675.643	1.51
675.826	1.46
676.01	1.41
676.194	1.46
676.377	1.45
676.561	1.45
676.745	1.43
676.928	1.42
677.112	1.55
677.296	1.38
677.479	1.36
677.663	1.39
677.846	1.47
678.03	1.4
678.213	1.33
678.397	1.42
678.58	1.37
678.764	1.35
678.947	1.31
679.131	1.36
679.314	1.41
679.498	1.32
679.681	1.37
679.865	1.43
680.048	1.35
680.231	1.28
680.415	1.3
680.598	1.32
680.781	1.26
680.965	1.26
681.148	1.32
681.331	1.29
681.514	1.3
681.698	1.23
681.881	1.24
682.064	1.29
682.247	1.29
682.43	1.18
682.614	1.29
682.797	1.33
682.98	1.27
683.163	1.15
683.346	1.24
683.529	1.18
683.712	1.16
683.895	1.23
684.078	1.1
684.261	1.19
684.444	1.19
684.627	1.29
684.81	1.18
684.993	1.15
685.176	1.21
685.359	1.07
685.542	1.12
685.725	1.25
685.908	1.15
686.091	1.13
686.274	1.16
686.457	1.15
686.639	1.15
686.822	1.17
687.005	1.06
687.188	1.18
687.371	1.31
687.553	1.15
687.736	1.14
687.919	1.21
688.102	1.21
688.284	1.05
688.467	1.13
688.65	1.09
688.832	1.07
689.015	1.06
689.197	0.95
689.38	1.16
689.563	1.19
689.745	1.01
689.928	1
690.11	1.02
690.293	1.03
690.475	1.03
690.658	1.06
690.84	0.99
691.023	1.02
691.205	0.97
691.388	1.01
691.57	1.11
691.752	1.06
691.935	0.93
692.117	0.94
692.3	1
692.482	1
692.664	0.93
692.847	1
693.029	1.08
693.211	1.04
693.393	0.98
693.576	0.9
693.758	1
693.94	0.96
694.122	0.87
694.304	0.94
694.487	0.88
694.669	0.94
694.851	0.85
695.033	0.88
695.215	0.88
695.397	0.89
695.579	0.93
695.761	0.87
695.943	0.77
696.125	1.01
696.308	0.92
696.49	0.73
696.671	1.02
696.853	0.88
697.035	1.17
697.217	0.88
697.399	1.03
697.581	0.79
697.763	0.84
697.945	0.81
698.127	0.79
698.309	0.74
698.491	0.87
698.672	0.96
698.854	0.99
699.036	0.97
699.218	0.81
699.399	0.9
699.581	0.82
699.763	0.85
699.945	0.76
700.126	0.72
700.308	0.84
700.49	0.84
700.671	0.71
700.853	0.77
701.035	0.8
701.216	0.83
701.398	0.74
701.579	0.72
701.761	0.85
701.943	0.76
702.124	0.7
702.306	0.78
702.487	0.91
702.669	0.76
702.85	0.76
703.031	0.66
703.213	0.93
703.394	0.85
703.576	0.72
703.757	0.91
703.938	0.82
704.12	0.99
704.301	0.78
704.483	0.65
704.664	0.83
704.845	0.92
705.026	0.81
705.208	0.73
705.389	0.75
705.57	0.73
705.751	0.67
705.933	0.7
706.114	0.85
706.295	0.73
706.476	0.65
706.657	0.9
706.838	0.75
707.02	0.82
707.201	0.7
707.382	0.63
707.563	0.75
707.744	0.67
707.925	0.65
708.106	0.62
708.287	0.7
708.468	0.85
708.649	0.7
708.83	0.74
709.011	0.56
709.192	0.81
709.373	0.57
709.554	0.64
709.734	0.82
709.915	0.78
710.096	0.74
710.277	0.56
710.458	0.62
710.639	0.72
710.819	0.58
711	0.61
711.181	0.79
711.362	0.81
711.542	0.68
711.723	0.63
711.904	0.79
712.085	0.72
712.265	0.64
712.446	0.58
712.627	0.64
712.807	0.67
712.988	0.67
713.168	0.53
713.349	0.69
713.53	0.46
713.71	0.49
713.891	0.56
714.071	0.59
714.252	0.64
714.432	0.57
714.613	0.5
714.793	0.65
714.974	0.75
715.154	0.63
715.334	0.66
715.515	0.71
715.695	0.56
715.876	0.6
716.056	0.51
716.236	0.54
716.417	0.53
716.597	0.56
716.777	0.73
716.957	0.62
717.138	0.61
717.318	0.62
717.498	0.46
717.678	0.61
717.859	0.64
718.039	0.51
718.219	0.57
718.399	0.57
718.579	0.47
718.759	0.45
718.939	0.59
719.12	0.65
719.3	0.6
719.48	0.43
719.66	0.52
719.84	0.61
720.02	0.58
720.2	0.48
720.38	0.53
720.56	0.68
720.74	0.44
720.92	0.57
721.1	0.67
721.279	0.64
721.459	0.62
721.639	0.45
721.819	0.53
721.999	0.55
722.179	0.65
722.359	0.5
722.538	0.55
722.718	0.56
722.898	0.5
723.078	0.57
723.257	0.42
723.437	0.59
723.617	0.55
723.797	0.5
723.976	0.62
724.156	0.6
724.336	0.6
724.515	0.79
724.695	0.42
724.874	0.53
725.054	0.59
725.234	0.47
725.413	0.56
725.593	0.53
725.772	0.53
725.952	0.52
726.131	0.44
726.311	0.54
726.49	0.52
726.67	0.42
726.849	0.54
727.028	0.54
727.208	0.46
727.387	0.54
727.567	0.4
727.746	0.46
727.925	0.51
728.105	0.45
728.284	0.45
728.463	0.48
728.643	0.51
728.822	0.43
729.001	0.46
729.18	0.59
729.359	0.57
729.539	0.55
729.718	0.49
729.897	0.58
730.076	0.53
730.255	0.4
730.434	0.45
730.614	0.54
730.793	0.64
730.972	0.42
731.151	0.5
731.33	0.55
731.509	0.54
731.688	0.57
731.867	0.52
732.046	0.4
732.225	0.71
732.404	0.43
732.583	0.36
732.762	0.59
732.941	0.59
733.12	0.46
733.298	0.45
733.477	0.75
733.656	0.53
733.835	0.33
734.014	0.51
734.193	0.46
734.371	0.65
734.55	0.53
734.729	0.3
734.908	0.57
735.086	0.51
735.265	0.51
735.444	0.25
735.623	0.38
735.801	0.47
735.98	0.35
736.159	0.48
736.337	0.57
736.516	0.58
736.694	0.59
736.873	0.37
737.052	0.76
737.23	0.73
737.409	0.41
737.587	0.69
737.766	0.33
737.944	0.51
738.123	0.47
738.301	0.49
738.479	0.54
738.658	0.62
738.836	0.27
739.015	0.43
739.193	0.62
739.371	0.36
739.55	0.39
739.728	0.29
739.906	0.67
740.085	0.7
740.263	0.53
740.441	0.21
740.62	0.78
740.798	0.65
740.976	0.4
741.154	0.36
741.332	0.69
741.511	0.43
741.689	0.42
741.867	0.55
742.045	0.55
742.223	0.49
742.401	0.39
742.579	0.39
742.757	0.58
742.935	0.37
743.114	0.44
743.292	0.4
743.47	0.51
743.648	0.56
743.826	0.44
744.004	0.48
744.181	0.58
744.359	0.34
744.537	0.55
744.715	0.5
744.893	0.55
745.071	0.58
745.249	0.37
745.427	0.44
745.605	0.51
745.782	0.5
745.96	0.43
746.138	0.54
746.316	0.5
746.493	0.34
746.671	0.53
746.849	0.43
747.027	0.62
747.204	0.32
747.382	0.35
747.56	0.32
747.737	0.45
747.915	0.45
748.093	0.45
748.27	0.33
748.448	0.47
748.625	0.27
748.803	0.36
748.98	0.28
749.158	0.53
749.335	0.48
749.513	0.32
749.69	0.42
749.868	0.42
750.045	0.39
750.223	0.3
750.4	0.14
750.578	0.68
750.755	0.37
750.932	0.12
751.11	0.46
751.287	0.33
751.464	0.54
751.642	0.24
751.819	0.49
751.996	0.5
752.173	0.44
752.351	0.29
752.528	0.38
752.705	0.29
752.882	0.33
753.06	0.33
753.237	0.49
753.414	0.59
753.591	0.7
753.768	0.5
753.945	0.35
754.122	0.37
754.299	0.6
754.476	0.26
754.654	0.26
754.831	0.57
755.008	0.48
755.185	0.4
755.362	0.27
755.539	0.44
755.716	0.38
755.892	0.31
756.069	0.38
756.246	0.36
756.423	0.41
756.6	0.47
756.777	0.34
756.954	0.58
757.131	0.41
757.307	0.29
757.484	0.28
757.661	0.34
757.838	0.42
758.015	0.18
758.191	0.46
758.368	0.39
758.545	0.64
758.721	0.45
758.898	0.27
759.075	0.31
759.251	0.42
759.428	0.39
759.605	0.12
759.781	0.38
759.958	0.53
760.134	0.45
760.311	0.3
760.488	0.59
760.664	0.5
760.841	0.31
761.017	0.22
761.194	0.47
761.37	0.69
761.547	0.36
761.723	0.32
761.899	0.5
762.076	0.22
762.252	0.13
762.429	0.32
762.605	0.52
762.781	0.32
762.958	0.42
763.134	0.29
763.31	0.26
763.486	0.49
763.663	0.22
763.839	0.37
764.015	0.21
764.191	0.3
764.368	0.36
764.544	0.35
764.72	0.3
764.896	0.48
765.072	0.44
765.248	0.31
765.425	0.29
765.601	0.25
765.777	0.36
765.953	0.06
766.129	0.29
766.305	0.27
766.481	0.31
766.657	0.4
766.833	0.51
767.009	0.33
767.185	0.4
767.361	0.41
767.537	0.29
767.713	0.55
767.889	0.25
768.065	0.28
768.24	0.19
768.416	0.61
768.592	0.26
768.768	0.37
768.944	0.49
769.12	0.24
769.295	0.38
769.471	0.38
769.647	0.42
769.823	0.78
769.998	0.11
770.174	0.26
770.35	0.79
770.525	0.64
770.701	0.49
770.877	0.29
771.052	0.22
771.228	0.53
771.403	0.28
771.579	0.44
771.755	0.74
771.93	0.39
772.106	0.33
772.281	0.02
772.457	0.41
772.632	0.5
772.808	0.06
772.983	0.4
773.159	0.22
773.334	0.59
773.509	0.43
773.685	0.22
773.86	0.9
774.036	0.56
774.211	0.44
774.386	0.33
774.562	0.26
774.737	0.64
774.912	0.25
775.087	0.39
775.263	0.4
775.438	0.4
775.613	0.27
775.788	0.36
775.964	0.61
776.139	1.08
776.314	0.19
776.489	0.45
776.664	0.37
776.839	0.22
777.014	0.51
777.19	0.61
777.365	0.64
777.54	0.59
777.715	0.2
777.89	0.21
778.065	0.25
778.24	0.49
778.415	0.66
778.59	0.28
778.765	0.27
778.94	0.55
779.115	0.28
779.289	0.45
779.464	0.44
779.639	0.29
779.814	0.13
779.989	0.06
780.164	0.7
780.339	0.56
780.513	0.33
780.688	0.3
780.863	0.51
781.038	0.62
781.212	0.3
781.387	0.2
781.562	0.76
781.737	0.25
781.911	0.63
782.086	0.1
782.261	0.44
782.435	0.64
782.61	0.21
782.784	0.38
782.959	0.62
783.134	0.29
783.308	0.05
783.483	0.4
783.657	0.96
783.832	0.61
784.006	-0.03
784.181	0.39
784.355	0.61
784.53	0.1
784.704	0.18
784.878	0.65
785.053	0.57
785.227	0.8
785.402	0.7
785.576	0.25
785.75	0.46
785.925	0.32
786.099	0.67
786.273	0.45
786.448	0.55
786.622	0.84
786.796	0.41
786.97	0.37
787.145	1.16
787.319	0.16
787.493	0.32
787.667	-0
787.841	0.5
788.015	0.85
788.19	0.22
788.364	0.49
788.538	0.65
788.712	0.71
788.886	0.26
789.06	0.53
789.234	0.65
789.408	0.25
789.582	0.07
789.756	0.32
789.93	0.26
790.104	0.29
790.278	0.56
790.452	0.27
790.626	0.59
790.8	0.38
790.973	0.6
791.147	0.8
791.321	0.88
791.495	0.89
791.669	0.47
791.843	0.66
792.016	0.46
792.19	1.28
792.364	0.33
792.538	1.18
792.711	0.76
792.885	0.45
793.059	0.11
793.233	-0.19
793.406	0.88
793.58	0.42
793.754	0.42
793.927	0.31
794.101	0.87
794.274	0.42
794.448	0.48
794.622	0.09
794.795	0.92
794.969	0.38
795.142	0.8
795.316	0.36
795.489	0.46
795.663	0.97
795.836	0.48
796.009	0.15
796.183	0.94
796.356	0.76
796.53	0.57
796.703	0.29
796.876	1.46
797.05	0.24
797.223	0.38
797.396	0.54
797.57	0.72
797.743	1.03
797.916	0.38
798.09	0.4
798.263	0.9
798.436	0.57
798.609	0.36
798.782	0.2
798.956	0.61
799.129	0.64
799.302	0.43
799.475	0.04
799.648	0.19
799.821	0.24
799.994	0.5
800.167	-0.24
800.34	0.45
800.514	0.56
800.687	0.14
800.86	0.1
801.033	0.78
801.206	0.65
801.379	0.24
801.551	0.72
801.724	0.42
801.897	1.13
802.07	0.55
802.243	-0.02
802.416	0.45
802.589	0.6
802.762	0.79
802.935	0.56
803.107	0.95
803.28	0.88
803.453	0.66
803.626	0.56
803.798	0.83
803.971	0.31
804.144	0.69
804.317	0.97
804.489	0.92
804.662	0.5
804.835	0.46
805.007	0.47
805.18	1.04
805.353	0.68
805.525	0.27
805.698	0.39
805.87	0.84
806.043	0.94
806.215	0.23
806.388	0.1
806.56	0.45
806.733	1.08
806.905	0.72
807.078	0.25
807.25	0.5
807.423	0.7
807.595	0.42
807.768	0.67
807.94	0.94
808.112	1.03
808.285	0.88
808.457	0.39
808.629	0.48
808.802	1.03
808.974	0.77
809.146	0.22
809.318	0.26
809.491	0.65
809.663	0.76
809.835	0.32
810.007	0.66
810.18	0.83
810.352	0.19
810.524	0.1
810.696	1.02
810.868	1.38
811.04	0.53
811.212	0.22
811.384	0.91
811.556	0.53
811.728	0.55
811.901	1.74
812.073	0.58
812.245	0.79
812.417	0.42
812.589	-0.29
812.76	0.94
812.932	1.03
813.104	0.78
813.276	0.83
813.448	0.5
813.62	0.77
813.792	0.65
813.964	1.04
814.136	0.98
814.307	0.73
814.479	0.32
814.651	0.05
814.823	1.55
814.995	0.23
815.166	0.4
815.338	0.14
815.51	0.14
815.681	1.57
815.853	1.12
816.025	0.33
816.196	1.54
816.368	1.12
816.54	0.33
816.711	0.1
816.883	1.42
817.054	2.31
817.226	-0.09
817.398	0.99
817.569	0.45
817.741	0.88
817.912	0.55
818.084	0.7
818.255	0.95
818.426	0.2
818.598	0.79
818.769	0.29
818.941	0.78
819.112	1.53
819.283	0.78
819.455	0.4
819.626	0.64
819.798	0.91
819.969	0.96
820.14	0.53
820.311	0.69
820.483	0.82
820.654	0.71
820.825	0.75
820.996	0.59
821.168	0.55
821.339	0.62
821.51	0.11
821.681	0.88
821.852	0.71
822.023	0.5
822.195	-0.37
822.366	0.9
822.537	0.8
822.708	0.69
822.879	0.41
823.05	1.6
823.221	0.33
823.392	1.19
823.563	0.68
823.734	1.09
823.905	0.83
824.076	0.05
824.247	0.09
824.418	0.32
824.589	1.53
824.759	0.69
824.93	0.7
825.101	0.05
825.272	1.02
825.443	1.64
825.614	1.62
825.784	-0.35
825.955	2.71
826.126	1.61
826.297	0.54
826.467	1.84
826.638	1.9
826.809	-0.32
826.98	0.62
827.15	0.82
827.321	1.16
827.492	1.09
827.662	0.18
827.833	2.02
828.003	0.7
828.174	-0.09
828.345	0.52
828.515	1.99
828.686	1.07
828.856	0.37
829.027	0.67
829.197	1.16
829.368	1.08
829.538	0.59
829.709	0.41
829.879	1.14
830.049	0.77
830.22	0.84
830.39	0.6
830.56	1.52
830.731	0.53
830.901	0.29
831.072	1.1
831.242	1.15
831.412	1.12
831.582	0.91
831.753	-0.05
831.923	1.24
832.093	1.03
832.263	1.08
832.434	0.1
832.604	0.78
832.774	1.26
832.944	0.89
833.114	0.81
833.284	1.07
833.454	0.75
833.624	0.56
833.795	0.81
833.965	1.9
834.135	2.54
834.305	0.11
834.475	-0.17
834.645	1.26
834.815	0.78
834.985	0.18
835.155	0.47
835.325	1.24
835.494	1.75
835.664	0.83
835.834	-0.14
836.004	1.17
836.174	1.57
836.344	0.7
836.514	-0.16
836.684	0.72
836.853	1.13
837.023	1.32
837.193	-0.38
837.363	1.81
837.532	1.08
837.702	0.85
837.872	0.11
838.041	1.67
838.211	2.63
838.381	-0.21
838.55	0.39
838.72	4.42
838.89	3.35
839.059	0.47
839.229	0.26
839.398	4.2
839.568	0.89
839.738	0.15
839.907	2.67
840.077	0.72
840.246	0.73
840.416	0.27
840.585	0.24
840.755	2.74
840.924	2.14
841.093	-0.19
841.263	0.53
841.432	1.5
841.602	0.8
841.771	0.06
841.94	1.58
842.11	2.9
842.279	3.21
842.448	0.06
842.617	0.81
842.787	3.38
842.956	0.15
843.125	0.6
843.294	0.52
843.464	2.33
843.633	1.86
843.802	0.43
843.971	0.48
844.14	2.6
844.309	2.55
844.479	-0.66
844.648	-0.53
844.817	0.83
844.986	1.27
845.155	0.61
845.324	1.64
845.493	0.49
845.662	-0.17
845.831	1.68
846	2.47
846.169	0.84
846.338	2.78
846.507	0.96
846.676	0.56
846.844	1.44
847.013	2.86
847.182	1.12
847.351	0.85
847.52	0.9
847.689	1.75
847.858	1.69
848.026	0.18
848.195	1.49
848.364	1.3
848.533	-0.01
848.701	0.36
848.87	1.48
849.039	3.01
849.207	2.06
849.376	2.73
849.545	2.71
849.713	0.11
849.882	0.55
850.051	0.53
850.219	1.06
850.388	1.21
850.556	0.26
850.725	0.75
850.893	1.21
851.062	0.45
851.23	1.84
851.399	-0.03
851.567	0.53
851.736	0.68
851.904	0.28
852.073	1.26
852.241	2.71
852.41	0.46
852.578	1.83
852.746	0.08
852.915	1.49
853.083	2.09
853.251	0.33
853.42	1.04
853.588	1.26
853.756	2.1
853.924	0.8
854.093	1.34
854.261	1.02
854.429	-0.57
854.597	1.82
854.765	-0.83
854.934	3.27
855.102	2.36
855.27	0.33
855.438	2.26
855.606	2.51
855.774	3.5
855.942	0.44
856.11	-0.01
856.278	1.93
856.446	3.35
856.614	1.3
856.782	-0.13
856.95	2.55
857.118	2.47
857.286	2.17
857.454	-0.37
857.622	3.14
857.79	2.23
857.958	0.18
858.126	1.17
858.294	-1.99
858.462	1.28
858.629	0.46
858.797	-0.09
858.965	2.61
859.133	2.25
859.301	1.74
859.468	1.38
859.636	0.71
859.804	3.24
859.971	1.57
860.139	-0.66
860.307	2.43
860.474	2.97
860.642	0.12
860.81	0.15
860.977	1.87
861.145	2.99
861.313	1.84
861.48	0.11
861.648	2.73
861.815	0.82
861.983	0.66
862.15	1.08
862.318	3.28
862.485	3.1
862.653	0.6
862.82	1.01
862.988	4.47
863.155	3.08
863.322	0.8
863.49	0.44
863.657	0.77
863.824	4.92
863.992	1.98
864.159	1.2
864.326	5.54
864.494	1.02
864.661	4.23
864.828	-0.75
864.996	3.71
865.163	5.2
865.33	-0.29
865.497	-2
865.664	0.8
865.832	-1.07
865.999	1.72
866.166	0.47
866.333	1.13
866.5	1.47
866.667	0.79
866.834	1.9
867.001	5.28
867.168	-1.62
867.335	2.64
867.502	-0.85
867.669	2.52
867.836	4.78
868.003	1.74
868.17	4.5
868.337	0.6
868.504	4.45
868.671	-0.37
868.838	1.49
869.005	3.41
869.172	2.18
869.339	2.13
869.505	0.08
869.672	3.11
869.839	2.91
870.006	1.75
870.173	0.52
870.339	3.25
870.506	5.3
870.673	-0.78
870.84	2
871.006	1.77
871.173	3.28
871.34	1.79
871.506	-0.93
871.673	4.03
871.839	0.06
872.006	1.77
872.173	0.18
872.339	3.56
872.506	3.89
872.672	0.73
872.839	-0.98
873.005	3.11
873.172	5.55
873.338	3.57
873.505	2.38
873.671	1.43
873.838	1.88
874.004	-0.85
874.171	-0.07
874.337	4.09
874.503	4.4
874.67	1.87
874.836	0.82
875.002	5.15
875.169	4.6
875.335	3.05
875.501	2.36
875.668	3.11
875.834	1.17
876	1.26
876.166	3.68
876.332	2.8
876.499	6.42
876.665	1.65
876.831	0.33
876.997	4.72
877.163	3.27
877.329	1.85
877.495	2.92
877.662	2.65
877.828	3.77
877.994	1.16
878.16	-1.91
878.326	1.36
878.492	3.26
878.658	1.79
878.824	1.72
878.99	4.79
879.156	2.75
879.322	4.94
879.487	2.5
879.653	2.11
879.819	3.24
879.985	-0.99
880.151	2.57
880.317	3.47
880.483	4.95
880.648	2.85
880.814	0.74
880.98	3.45
881.146	-1.49
881.312	-0.19
881.477	-0.38
881.643	2.25
881.809	3.59
881.974	5.02
882.14	-0.83
882.306	1.56
882.471	6.85
882.637	1.56
882.803	2.92
882.968	5.14
883.134	6.52
883.299	2.65
883.465	2.5
883.63	5.44
883.796	3.39
883.961	2.43
884.127	3.07
884.292	-1.27
884.458	0.13
884.623	0.13
