Data from Apollo_Calib_20240827__AbsoluteIrradiance__865__13-34-02-791.txt Node

Date: Wed Aug 28 13:34:02 BST 2024
User: biology
Spectrometer: FLMT08252
Trigger mode: 0
Integration Time (sec): 5.000000E-1
Scans to average: 5
Electric dark correction enabled: true
Nonlinearity correction enabled: false
Boxcar width: 0
XAxis mode: Wavelengths
Number of Pixels in Spectrum: 3648
>>>>>Begin Spectral Data<<<<<
179.588	-0
179.809	-0
180.03	-0
180.251	-0
180.473	-0
180.694	0
180.915	0
181.136	-0
181.357	0
181.578	-0
181.799	-0
182.02	-0
182.241	-0
182.462	-0
182.683	0
182.904	-0
183.125	-0
183.346	0
183.567	0
183.788	0
184.009	0
184.23	0
184.451	0
184.672	0
184.892	0
185.113	0
185.334	0
185.555	0
185.776	0
185.996	0
186.217	0
186.438	0
186.659	0
186.879	0
187.1	0
187.321	0
187.541	0
187.762	0
187.983	0
188.203	0
188.424	0
188.644	0
188.865	0
189.086	0
189.306	0
189.527	0
189.747	0
189.968	0
190.188	0
190.409	0
190.629	0
190.849	0
191.07	0
191.29	0
191.511	0
191.731	0
191.951	0
192.172	0
192.392	0
192.612	0
192.833	0
193.053	0
193.273	0
193.493	0
193.714	0
193.934	0
194.154	0
194.374	0
194.594	0
194.815	0
195.035	0
195.255	0
195.475	0
195.695	0
195.915	0
196.135	0
196.355	0
196.575	0
196.795	0
197.015	0
197.235	0
197.455	0
197.675	0
197.895	0
198.115	0
198.335	0
198.555	0
198.775	0
198.995	0
199.214	0
199.434	0
199.654	0
199.874	0
200.094	3.56
200.313	2.61
200.533	2.19
200.753	1.79
200.973	3.86
201.192	3.35
201.412	0.91
201.632	1.57
201.851	3.35
202.071	1.74
202.291	1.66
202.51	1.24
202.73	2.67
202.95	1.92
203.169	0.76
203.389	1.46
203.608	1.86
203.828	1.62
204.047	1.55
204.267	1.83
204.486	1.77
204.706	1.8
204.925	1.6
205.145	0.99
205.364	1.99
205.583	2.29
205.803	0.99
206.022	1
206.242	2.18
206.461	1.34
206.68	1.08
206.9	1.46
207.119	2.62
207.338	2.16
207.557	0.92
207.777	1.17
207.996	1.18
208.215	2.1
208.434	0.9
208.654	0.79
208.873	1.12
209.092	2.34
209.311	1.07
209.53	0.97
209.749	1.06
209.968	0.81
210.187	1.05
210.407	0.78
210.626	1.06
210.845	1.52
211.064	0.92
211.283	0.53
211.502	1.53
211.721	1.06
211.94	0.96
212.159	1.22
212.377	1.38
212.596	1.25
212.815	1.16
213.034	1.17
213.253	1.11
213.472	1.33
213.691	0.86
213.91	0.7
214.128	0.58
214.347	1.49
214.566	0.49
214.785	0.36
215.003	1.3
215.222	1.06
215.441	0.68
215.66	0.51
215.878	1
216.097	1.35
216.316	0.58
216.534	0.74
216.753	1.16
216.972	0.77
217.19	0.78
217.409	0.48
217.627	0.93
217.846	0.86
218.064	0.81
218.283	0.53
218.501	1.39
218.72	1.14
218.938	0.6
219.157	0.6
219.375	1.04
219.594	0.93
219.812	0.52
220.031	0.4
220.249	1.12
220.467	1.23
220.686	0.59
220.904	0.37
221.122	0.74
221.341	1.06
221.559	0.93
221.777	0.44
221.995	0.81
222.214	0.94
222.432	0.46
222.65	0.81
222.868	0.77
223.086	0.75
223.305	0.91
223.523	0.6
223.741	1.33
223.959	0.69
224.177	0.22
224.395	0.43
224.613	0.63
224.831	0.89
225.049	0.37
225.267	0.62
225.485	0.74
225.703	0.6
225.921	0.66
226.139	0.36
226.357	0.84
226.575	0.89
226.793	0.48
227.011	1.68
227.229	0.67
227.447	0.84
227.665	0.54
227.883	0.38
228.1	0.61
228.318	0.75
228.536	0.3
228.754	0.34
228.972	0.73
229.189	0.7
229.407	0.56
229.625	0.5
229.843	0.84
230.06	0.73
230.278	0.48
230.496	0.55
230.713	0.63
230.931	0.73
231.149	0.49
231.366	0.18
231.584	0.62
231.801	0.92
232.019	0.36
232.236	0.38
232.454	0.46
232.671	0.7
232.889	0.46
233.106	0.32
233.324	0.51
233.541	0.47
233.759	0.45
233.976	0.37
234.194	0.49
234.411	0.52
234.628	0.44
234.846	0.41
235.063	0.51
235.28	0.5
235.498	0.45
235.715	0.26
235.932	0.73
236.149	0.56
236.367	0.31
236.584	0.58
236.801	0.48
237.018	0.56
237.236	0.37
237.453	0.28
237.67	0.62
237.887	0.44
238.104	0.47
238.321	0.28
238.538	0.35
238.755	0.75
238.973	0.19
239.19	0.46
239.407	0.58
239.624	0.53
239.841	0.33
240.058	0.29
240.275	0.56
240.492	0.46
240.709	0.43
240.925	0.36
241.142	0.52
241.359	0.29
241.576	0.16
241.793	0.28
242.01	0.46
242.227	0.62
242.444	0.49
242.66	0.57
242.877	0.46
243.094	0.32
243.311	0.48
243.527	0.34
243.744	0.58
243.961	0.59
244.178	0.35
244.394	0.36
244.611	0.62
244.828	0.61
245.044	0.24
245.261	0.34
245.477	0.46
245.694	0.5
245.911	0.23
246.127	0.46
246.344	0.6
246.56	0.51
246.777	0.32
246.993	0.35
247.21	0.49
247.426	0.46
247.643	0.33
247.859	0.28
248.076	0.33
248.292	0.66
248.508	0.4
248.725	0.5
248.941	0.51
249.157	0.48
249.374	0.29
249.59	0.46
249.806	0.37
250.023	0.6
250.239	0.33
250.455	0.31
250.671	0.41
250.888	0.43
251.104	0.45
251.32	0.34
251.536	0.34
251.752	0.35
251.969	0.33
252.185	0.36
252.401	0.71
252.617	0.43
252.833	0.33
253.049	0.42
253.265	0.43
253.481	0.36
253.697	0.34
253.913	0.32
254.129	0.44
254.345	0.46
254.561	0.23
254.777	0.3
254.993	0.47
255.209	0.46
255.425	0.3
255.641	0.24
255.857	0.5
256.073	0.4
256.288	0.31
256.504	0.28
256.72	0.45
256.936	0.52
257.152	0.35
257.367	0.34
257.583	0.36
257.799	0.43
258.015	0.24
258.23	0.23
258.446	0.59
258.662	0.38
258.877	0.21
259.093	0.26
259.309	0.39
259.524	0.46
259.74	0.32
259.955	0.24
260.171	0.31
260.387	0.38
260.602	0.37
260.818	0.34
261.033	0.3
261.249	0.42
261.464	0.31
261.68	0.23
261.895	0.45
262.11	0.38
262.326	0.28
262.541	0.22
262.757	0.44
262.972	0.44
263.187	0.37
263.403	0.3
263.618	0.44
263.833	0.29
264.049	0.22
264.264	0.29
264.479	0.41
264.694	0.43
264.91	0.26
265.125	0.29
265.34	0.42
265.555	0.56
265.77	0.37
265.986	0.27
266.201	0.47
266.416	0.36
266.631	0.28
266.846	0.26
267.061	0.46
267.276	0.41
267.491	0.16
267.706	0.38
267.921	0.36
268.136	0.36
268.351	0.28
268.566	0.19
268.781	0.47
268.996	0.38
269.211	0.27
269.426	0.16
269.641	0.27
269.856	0.47
270.071	0.3
270.285	0.2
270.5	0.39
270.715	0.44
270.93	0.27
271.145	0.29
271.359	0.47
271.574	0.23
271.789	0.33
272.004	0.18
272.218	0.33
272.433	0.41
272.648	0.28
272.862	0.34
273.077	0.35
273.292	0.32
273.506	0.25
273.721	0.3
273.936	0.41
274.15	0.4
274.365	0.26
274.579	0.35
274.794	0.44
275.008	0.41
275.223	0.22
275.437	0.31
275.652	0.32
275.866	0.38
276.081	0.32
276.295	0.39
276.509	0.34
276.724	0.29
276.938	0.32
277.153	0.35
277.367	0.36
277.581	0.31
277.796	0.23
278.01	0.26
278.224	0.41
278.438	0.49
278.653	0.27
278.867	0.23
279.081	0.16
279.295	0.32
279.51	0.35
279.724	0.2
279.938	0.39
280.152	0.32
280.366	0.26
280.58	0.3
280.794	0.43
281.008	0.31
281.222	0.38
281.437	0.46
281.651	0.34
281.865	0.33
282.079	0.25
282.293	0.1
282.507	0.23
282.721	0.3
282.935	0.23
283.148	0.18
283.362	0.27
283.576	0.19
283.79	0.25
284.004	0.22
284.218	0.37
284.432	0.2
284.646	0.26
284.859	0.23
285.073	0.27
285.287	0.33
285.501	0.3
285.714	0.28
285.928	0.29
286.142	0.31
286.356	0.2
286.569	0.23
286.783	0.38
286.997	0.3
287.21	0.25
287.424	0.26
287.637	0.23
287.851	0.27
288.065	0.31
288.278	0.27
288.492	0.27
288.705	0.26
288.919	0.31
289.132	0.21
289.346	0.37
289.559	0.21
289.773	0.16
289.986	0.27
290.2	0.29
290.413	0.35
290.626	0.16
290.84	0.26
291.053	0.3
291.267	0.38
291.48	0.22
291.693	0.2
291.906	0.24
292.12	0.25
292.333	0.17
292.546	0.21
292.76	0.36
292.973	0.32
293.186	0.24
293.399	0.2
293.612	0.31
293.826	0.26
294.039	0.26
294.252	0.22
294.465	0.32
294.678	0.29
294.891	0.26
295.104	0.19
295.317	0.22
295.53	0.28
295.743	0.23
295.956	0.25
296.169	0.37
296.382	0.32
296.595	0.24
296.808	0.2
297.021	0.37
297.234	0.35
297.447	0.2
297.66	0.24
297.873	0.33
298.086	0.36
298.299	0.21
298.511	0.16
298.724	0.26
298.937	0.15
299.15	0.2
299.363	0.24
299.575	0.31
299.788	0.31
300.001	0.22
300.213	0.18
300.426	0.23
300.639	0.19
300.852	0.19
301.064	0.28
301.277	0.37
301.489	0.32
301.702	0.29
301.915	0.2
302.127	0.26
302.34	0.26
302.552	0.27
302.765	0.18
302.977	0.31
303.19	0.22
303.402	0.24
303.615	0.22
303.827	0.21
304.04	0.28
304.252	0.28
304.464	0.22
304.677	0.4
304.889	0.3
305.102	0.21
305.314	0.2
305.526	0.29
305.739	0.3
305.951	0.17
306.163	0.17
306.375	0.34
306.588	0.2
306.8	0.23
307.012	0.2
307.224	0.26
307.436	0.41
307.649	0.14
307.861	0.25
308.073	0.28
308.285	0.21
308.497	0.16
308.709	0.23
308.921	0.26
309.133	0.34
309.346	0.26
309.558	0.22
309.77	0.32
309.982	0.36
310.194	0.28
310.406	0.19
310.617	0.36
310.829	0.22
311.041	0.27
311.253	0.17
311.465	0.23
311.677	0.24
311.889	0.25
312.101	0.19
312.313	0.32
312.524	0.38
312.736	0.15
312.948	0.19
313.16	0.35
313.372	0.32
313.583	0.26
313.795	0.2
314.007	0.27
314.218	0.31
314.43	0.26
314.642	0.19
314.853	0.16
315.065	0.31
315.277	0.23
315.488	0.26
315.7	0.31
315.912	0.3
316.123	0.25
316.335	0.2
316.546	0.37
316.758	0.23
316.969	0.21
317.181	0.25
317.392	0.23
317.604	0.32
317.815	0.18
318.026	0.21
318.238	0.2
318.449	0.28
318.661	0.13
318.872	0.2
319.083	0.17
319.295	0.29
319.506	0.21
319.717	0.23
319.929	0.29
320.14	0.21
320.351	0.25
320.562	0.22
320.774	0.25
320.985	0.25
321.196	0.2
321.407	0.17
321.618	0.33
321.829	0.28
322.041	0.24
322.252	0.22
322.463	0.27
322.674	0.28
322.885	0.22
323.096	0.25
323.307	0.24
323.518	0.27
323.729	0.2
323.94	0.24
324.151	0.21
324.362	0.28
324.573	0.26
324.784	0.24
324.995	0.3
325.206	0.25
325.417	0.18
325.628	0.21
325.838	0.24
326.049	0.26
326.26	0.26
326.471	0.21
326.682	0.27
326.892	0.24
327.103	0.21
327.314	0.24
327.525	0.29
327.735	0.23
327.946	0.17
328.157	0.2
328.368	0.28
328.578	0.24
328.789	0.28
328.999	0.25
329.21	0.2
329.421	0.32
329.631	0.2
329.842	0.22
330.052	0.24
330.263	0.26
330.473	0.31
330.684	0.17
330.894	0.27
331.105	0.22
331.315	0.24
331.526	0.18
331.736	0.38
331.947	0.24
332.157	0.29
332.367	0.15
332.578	0.28
332.788	0.31
332.999	0.27
333.209	0.19
333.419	0.15
333.629	0.29
333.84	0.24
334.05	0.22
334.26	0.33
334.47	0.24
334.681	0.27
334.891	0.25
335.101	0.27
335.311	0.35
335.521	0.25
335.732	0.18
335.942	0.28
336.152	0.28
336.362	0.25
336.572	0.22
336.782	0.24
336.992	0.22
337.202	0.21
337.412	0.21
337.622	0.31
337.832	0.21
338.042	0.24
338.252	0.23
338.462	0.22
338.672	0.2
338.882	0.29
339.092	0.18
339.302	0.33
339.511	0.27
339.721	0.21
339.931	0.19
340.141	0.32
340.351	0.31
340.561	0.23
340.77	0.24
340.98	0.24
341.19	0.25
341.4	0.25
341.609	0.18
341.819	0.21
342.029	0.19
342.238	0.26
342.448	0.18
342.658	0.27
342.867	0.25
343.077	0.23
343.286	0.23
343.496	0.26
343.706	0.35
343.915	0.16
344.125	0.22
344.334	0.27
344.544	0.22
344.753	0.19
344.963	0.18
345.172	0.23
345.381	0.21
345.591	0.2
345.8	0.23
346.01	0.29
346.219	0.27
346.428	0.13
346.638	0.23
346.847	0.22
347.056	0.31
347.266	0.19
347.475	0.25
347.684	0.24
347.893	0.28
348.103	0.29
348.312	0.19
348.521	0.22
348.73	0.25
348.94	0.23
349.149	0.22
349.358	0.27
349.567	0.22
349.776	0.16
349.985	0.18
350.194	0.28
350.403	0.31
350.612	0.14
350.821	0.19
351.03	0.26
351.239	0.18
351.448	0.18
351.657	0.23
351.866	0.37
352.075	0.26
352.284	0.31
352.493	0.2
352.702	0.3
352.911	0.24
353.12	0.26
353.329	0.27
353.538	0.27
353.746	0.22
353.955	0.2
354.164	0.27
354.373	0.25
354.582	0.33
354.79	0.21
354.999	0.2
355.208	0.22
355.416	0.38
355.625	0.23
355.834	0.21
356.042	0.3
356.251	0.18
356.46	0.19
356.668	0.25
356.877	0.34
357.085	0.28
357.294	0.15
357.503	0.22
357.711	0.28
357.92	0.4
358.128	0.26
358.337	0.23
358.545	0.21
358.754	0.24
358.962	0.26
359.17	0.21
359.379	0.24
359.587	0.23
359.796	0.21
360.004	0.3
360.212	0.26
360.421	0.29
360.629	0.19
360.837	0.21
361.046	0.3
361.254	0.38
361.462	0.24
361.67	0.16
361.879	0.25
362.087	0.29
362.295	0.21
362.503	0.2
362.711	0.19
362.92	0.19
363.128	0.19
363.336	0.2
363.544	0.15
363.752	0.26
363.96	0.21
364.168	0.21
364.376	0.25
364.584	0.26
364.792	0.32
365	0.25
365.208	0.25
365.416	0.28
365.624	0.26
365.832	0.17
366.04	0.32
366.248	0.26
366.456	0.23
366.664	0.24
366.872	0.25
367.079	0.24
367.287	0.21
367.495	0.25
367.703	0.25
367.911	0.24
368.118	0.18
368.326	0.23
368.534	0.21
368.742	0.31
368.949	0.15
369.157	0.22
369.365	0.26
369.572	0.26
369.78	0.2
369.988	0.26
370.195	0.26
370.403	0.3
370.61	0.21
370.818	0.25
371.026	0.33
371.233	0.24
371.441	0.2
371.648	0.25
371.856	0.26
372.063	0.21
372.271	0.18
372.478	0.16
372.685	0.21
372.893	0.3
373.1	0.24
373.308	0.22
373.515	0.33
373.722	0.31
373.93	0.24
374.137	0.24
374.344	0.39
374.552	0.31
374.759	0.26
374.966	0.25
375.173	0.24
375.381	0.34
375.588	0.21
375.795	0.18
376.002	0.27
376.209	0.24
376.417	0.22
376.624	0.27
376.831	0.31
377.038	0.21
377.245	0.16
377.452	0.24
377.659	0.28
377.866	0.23
378.073	0.26
378.28	0.24
378.487	0.33
378.694	0.29
378.901	0.21
379.108	0.22
379.315	0.32
379.522	0.36
379.729	0.27
379.936	0.23
380.143	0.28
380.35	0.3
380.557	0.23
380.763	0.21
380.97	0.25
381.177	0.27
381.384	0.28
381.591	0.22
381.797	0.28
382.004	0.34
382.211	0.32
382.418	0.19
382.624	0.3
382.831	0.33
383.038	0.24
383.244	0.28
383.451	0.31
383.658	0.33
383.864	0.25
384.071	0.19
384.277	0.38
384.484	0.22
384.69	0.31
384.897	0.22
385.103	0.26
385.31	0.2
385.516	0.23
385.723	0.23
385.929	0.25
386.136	0.27
386.342	0.29
386.549	0.25
386.755	0.35
386.961	0.31
387.168	0.25
387.374	0.24
387.58	0.31
387.787	0.29
387.993	0.22
388.199	0.26
388.406	0.26
388.612	0.26
388.818	0.24
389.024	0.25
389.231	0.29
389.437	0.38
389.643	0.29
389.849	0.26
390.055	0.28
390.261	0.32
390.467	0.3
390.674	0.25
390.88	0.28
391.086	0.33
391.292	0.22
391.498	0.29
391.704	0.36
391.91	0.25
392.116	0.25
392.322	0.2
392.528	0.34
392.734	0.29
392.94	0.26
393.146	0.3
393.352	0.31
393.557	0.23
393.763	0.33
393.969	0.35
394.175	0.28
394.381	0.31
394.587	0.24
394.792	0.24
394.998	0.39
395.204	0.34
395.41	0.26
395.615	0.33
395.821	0.36
396.027	0.34
396.233	0.27
396.438	0.32
396.644	0.41
396.85	0.35
397.055	0.29
397.261	0.36
397.466	0.41
397.672	0.33
397.878	0.36
398.083	0.32
398.289	0.29
398.494	0.36
398.7	0.36
398.905	0.21
399.111	0.44
399.316	0.29
399.522	0.33
399.727	0.29
399.932	0.35
400.138	0.32
400.343	0.35
400.549	0.31
400.754	0.35
400.959	0.4
401.165	0.32
401.37	0.35
401.575	0.26
401.78	0.38
401.986	0.35
402.191	0.34
402.396	0.36
402.601	0.4
402.807	0.4
403.012	0.39
403.217	0.45
403.422	0.4
403.627	0.43
403.832	0.39
404.037	0.48
404.243	0.43
404.448	0.34
404.653	0.39
404.858	0.45
405.063	0.41
405.268	0.4
405.473	0.35
405.678	0.36
405.883	0.64
406.088	0.48
406.293	0.4
406.498	0.46
406.703	0.53
406.907	0.46
407.112	0.37
407.317	0.54
407.522	0.57
407.727	0.46
407.932	0.52
408.136	0.66
408.341	0.5
408.546	0.56
408.751	0.55
408.956	0.6
409.16	0.67
409.365	0.58
409.57	0.55
409.774	0.63
409.979	0.67
410.184	0.69
410.388	0.61
410.593	0.74
410.798	0.75
411.002	0.69
411.207	0.72
411.411	0.78
411.616	0.71
411.82	0.83
412.025	0.81
412.229	0.85
412.434	0.95
412.638	0.9
412.843	0.87
413.047	0.96
413.252	0.89
413.456	0.94
413.66	1.08
413.865	1.04
414.069	1.18
414.273	1.1
414.478	1.09
414.682	1.19
414.886	1.21
415.091	1.15
415.295	1.22
415.499	1.38
415.703	1.36
415.908	1.46
416.112	1.28
416.316	1.54
416.52	1.54
416.724	1.56
416.929	1.62
417.133	1.84
417.337	1.67
417.541	1.79
417.745	1.84
417.949	1.96
418.153	2.04
418.357	1.94
418.561	2.24
418.765	2.23
418.969	2.39
419.173	2.43
419.377	2.44
419.581	2.68
419.785	2.65
419.989	2.61
420.193	2.75
420.397	2.96
420.601	3.06
420.804	3.13
421.008	3.13
421.212	3.27
421.416	3.27
421.62	3.22
421.823	3.4
422.027	3.5
422.231	3.54
422.435	3.53
422.638	3.63
422.842	3.74
423.046	3.73
423.249	3.99
423.453	4.01
423.657	4.19
423.86	4.28
424.064	4.37
424.268	4.58
424.471	4.47
424.675	4.75
424.878	4.82
425.082	4.9
425.285	5.19
425.489	5.14
425.692	5.31
425.896	5.29
426.099	5.52
426.303	5.64
426.506	5.83
426.71	6.03
426.913	6.18
427.116	6.46
427.32	6.35
427.523	6.5
427.726	6.82
427.93	6.85
428.133	7.18
428.336	7.31
428.54	7.46
428.743	7.73
428.946	8
429.149	7.89
429.353	7.94
429.556	8.16
429.759	8.06
429.962	8.17
430.165	8.45
430.368	8.06
430.571	8.02
430.775	8.18
430.978	8.2
431.181	8.15
431.384	8.28
431.587	8.36
431.79	8.77
431.993	8.72
432.196	8.99
432.399	9.33
432.602	9.45
432.805	9.66
433.008	10.13
433.211	9.95
433.414	10.43
433.616	10.43
433.819	10.37
434.022	10.35
434.225	10.67
434.428	10.68
434.631	11.07
434.833	10.85
435.036	11.19
435.239	11.41
435.442	11.42
435.645	11.62
435.847	11.72
436.05	11.96
436.253	12.12
436.455	12.18
436.658	12
436.861	12.34
437.063	12.6
437.266	12.55
437.468	12.83
437.671	13.24
437.874	13.17
438.076	13
438.279	13.56
438.481	13.6
438.684	14.22
438.886	13.91
439.089	14.28
439.291	14.21
439.494	14.63
439.696	14.81
439.899	15.32
440.101	15.7
440.303	16.01
440.506	16.6
440.708	16.32
440.91	16.57
441.113	16.64
441.315	17.12
441.517	16.79
441.72	17.37
441.922	16.9
442.124	16.96
442.326	17.24
442.529	17.55
442.731	17.38
442.933	17.88
443.135	17.63
443.337	17.55
443.539	18.08
443.742	17.61
443.944	18.38
444.146	18.16
444.348	18.1
444.55	18.08
444.752	18.14
444.954	18.18
445.156	17.97
445.358	18.47
445.56	18.7
445.762	18.49
445.964	18.94
446.166	18.53
446.368	18.62
446.57	18.58
446.772	18.24
446.974	18.06
447.175	18.32
447.377	17.91
447.579	18.29
447.781	18.02
447.983	17.96
448.184	17.32
448.386	17.65
448.588	17.35
448.79	17.15
448.991	17.46
449.193	17.44
449.395	16.74
449.597	16.56
449.798	16.4
450	15.97
450.202	15.82
450.403	15.85
450.605	15.77
450.806	15.28
451.008	15.12
451.21	14.84
451.411	14.48
451.613	13.73
451.814	13.98
452.016	14
452.217	13.14
452.419	13.22
452.62	12.93
452.821	12.61
453.023	12.55
453.224	12.13
453.426	11.73
453.627	11.07
453.828	11.13
454.03	11.2
454.231	11.1
454.432	11.01
454.634	10.72
454.835	10.41
455.036	10.32
455.238	9.93
455.439	9.73
455.64	9.45
455.841	9.26
456.042	9.52
456.244	9.14
456.445	8.89
456.646	8.48
456.847	8.44
457.048	8.42
457.249	8.45
457.45	8.16
457.651	7.65
457.852	7.55
458.054	7.26
458.255	7.16
458.456	7.19
458.657	7.06
458.858	6.7
459.058	6.64
459.259	6.61
459.46	6.31
459.661	6.36
459.862	6.36
460.063	6.33
460.264	6.22
460.465	5.87
460.666	6.02
460.866	5.73
461.067	5.44
461.268	5.49
461.469	5.42
461.67	5.31
461.87	5.17
462.071	5.17
462.272	5.11
462.473	5.1
462.673	5.2
462.874	5.11
463.075	5.11
463.275	5.11
463.476	5.18
463.676	5.06
463.877	4.94
464.078	4.91
464.278	4.89
464.479	4.79
464.679	4.74
464.88	4.72
465.08	4.62
465.281	4.55
465.481	4.21
465.682	4.1
465.882	4.11
466.083	4.06
466.283	4.03
466.483	3.9
466.684	3.7
466.884	3.65
467.085	3.61
467.285	3.72
467.485	3.52
467.686	3.48
467.886	3.36
468.086	3.36
468.286	3.28
468.487	3.41
468.687	3.22
468.887	3.19
469.087	3.28
469.287	3.24
469.488	3.03
469.688	3.15
469.888	3.18
470.088	3.11
470.288	3.04
470.488	3.01
470.688	2.84
470.888	2.83
471.088	2.6
471.288	2.79
471.488	2.72
471.688	2.74
471.888	2.59
472.088	2.8
472.288	2.69
472.488	2.58
472.688	2.54
472.888	2.58
473.088	2.6
473.288	2.51
473.488	2.42
473.688	2.63
473.887	2.44
474.087	2.4
474.287	2.4
474.487	2.35
474.687	2.42
474.886	2.29
475.086	2.22
475.286	2.28
475.486	2.23
475.685	2.25
475.885	2.14
476.085	2.26
476.284	2.28
476.484	2.24
476.684	2.15
476.883	2.28
477.083	2.19
477.282	2.14
477.482	2.18
477.681	2.13
477.881	2.07
478.08	2.07
478.28	2.04
478.479	2.07
478.679	2.13
478.878	2.01
479.078	1.98
479.277	2.05
479.477	2.06
479.676	2
479.875	1.99
480.075	1.89
480.274	1.99
480.473	2.03
480.673	1.98
480.872	2.09
481.071	2.06
481.271	1.99
481.47	1.93
481.669	2.02
481.868	1.95
482.067	1.98
482.267	1.91
482.466	1.95
482.665	1.91
482.864	1.93
483.063	1.89
483.262	2.03
483.461	2.01
483.661	2.06
483.86	1.97
484.059	2.04
484.258	2.04
484.457	1.99
484.656	2.04
484.855	2.07
485.054	1.9
485.253	1.95
485.452	1.94
485.651	2.07
485.849	2.03
486.048	1.99
486.247	2.03
486.446	2.1
486.645	2.01
486.844	2.04
487.043	2.04
487.241	2.14
487.44	2.04
487.639	2.12
487.838	2.1
488.037	2.11
488.235	2.2
488.434	2.13
488.633	2.02
488.831	2.21
489.03	2.21
489.229	2.19
489.427	2.21
489.626	2.27
489.825	2.29
490.023	2.29
490.222	2.23
490.42	2.34
490.619	2.36
490.817	2.32
491.016	2.33
491.214	2.39
491.413	2.42
491.611	2.36
491.81	2.39
492.008	2.44
492.207	2.52
492.405	2.53
492.604	2.43
492.802	2.54
493	2.59
493.199	2.62
493.397	2.6
493.595	2.68
493.794	2.65
493.992	2.79
494.19	2.75
494.388	2.84
494.587	2.78
494.785	2.76
494.983	2.75
495.181	2.86
495.379	2.91
495.578	2.93
495.776	2.93
495.974	2.93
496.172	2.92
496.37	3.1
496.568	3.08
496.766	3.05
496.964	3.19
497.162	3.18
497.36	3.17
497.558	3.27
497.756	3.31
497.954	3.27
498.152	3.38
498.35	3.47
498.548	3.38
498.746	3.37
498.944	3.44
499.142	3.4
499.34	3.54
499.538	3.61
499.736	3.53
499.933	3.65
500.131	3.64
500.329	3.75
500.527	3.76
500.725	3.87
500.922	3.86
501.12	3.89
501.318	3.95
501.516	3.95
501.713	4
501.911	3.95
502.109	3.99
502.306	4.09
502.504	4.02
502.701	4.08
502.899	4.14
503.097	4.37
503.294	4.2
503.492	4.33
503.689	4.35
503.887	4.39
504.084	4.44
504.282	4.39
504.479	4.38
504.677	4.57
504.874	4.54
505.072	4.48
505.269	4.66
505.466	4.67
505.664	4.74
505.861	4.63
506.059	4.78
506.256	4.78
506.453	4.85
506.651	4.99
506.848	5.04
507.045	4.95
507.242	5.03
507.44	5.03
507.637	5.09
507.834	5.04
508.031	5.23
508.229	5.18
508.426	5.11
508.623	5.27
508.82	5.35
509.017	5.32
509.214	5.29
509.411	5.37
509.608	5.35
509.805	5.51
510.003	5.48
510.2	5.49
510.397	5.67
510.594	5.58
510.791	5.6
510.988	5.63
511.184	5.66
511.381	5.46
511.578	5.66
511.775	5.86
511.972	5.71
512.169	5.83
512.366	5.81
512.563	5.91
512.76	6.01
512.956	5.98
513.153	5.97
513.35	5.93
513.547	5.88
513.744	6.07
513.94	6.04
514.137	6.13
514.334	6.13
514.53	6.14
514.727	6.41
514.924	6.26
515.12	6.2
515.317	6.3
515.514	6.2
515.71	6.18
515.907	6.44
516.103	6.38
516.3	6.38
516.497	6.46
516.693	6.44
516.89	6.42
517.086	6.51
517.283	6.58
517.479	6.4
517.676	6.61
517.872	6.64
518.068	6.66
518.265	6.63
518.461	6.57
518.658	6.7
518.854	6.71
519.05	6.83
519.247	6.83
519.443	6.77
519.639	6.93
519.836	6.85
520.032	6.73
520.228	6.94
520.424	6.9
520.621	6.95
520.817	6.95
521.013	6.9
521.209	7.11
521.405	7.08
521.601	7.06
521.798	7.02
521.994	7.05
522.19	6.94
522.386	7.08
522.582	7.08
522.778	7.25
522.974	7.13
523.17	7.09
523.366	7.14
523.562	7.2
523.758	7.19
523.954	7.02
524.15	7.24
524.346	7.3
524.542	7.29
524.738	7.17
524.934	7.39
525.129	7.35
525.325	7.23
525.521	7.26
525.717	7.52
525.913	7.29
526.109	7.36
526.304	7.41
526.5	7.48
526.696	7.53
526.892	7.4
527.087	7.6
527.283	7.56
527.479	7.46
527.674	7.31
527.87	7.48
528.066	7.55
528.261	7.62
528.457	7.39
528.653	7.62
528.848	7.62
529.044	7.7
529.239	7.52
529.435	7.54
529.63	7.49
529.826	7.57
530.021	7.55
530.217	7.67
530.412	7.61
530.608	7.65
530.803	7.67
530.999	7.52
531.194	7.68
531.389	7.7
531.585	7.68
531.78	7.81
531.975	7.66
532.171	7.81
532.366	7.77
532.561	7.74
532.757	7.71
532.952	7.89
533.147	7.67
533.342	7.83
533.538	7.76
533.733	7.93
533.928	7.56
534.123	7.77
534.318	7.85
534.513	7.74
534.709	7.91
534.904	7.9
535.099	7.9
535.294	7.87
535.489	7.9
535.684	7.84
535.879	7.9
536.074	7.95
536.269	7.9
536.464	7.96
536.659	7.87
536.854	7.84
537.049	7.97
537.244	7.89
537.439	7.88
537.634	7.93
537.828	7.97
538.023	7.95
538.218	7.91
538.413	7.8
538.608	7.95
538.803	7.99
538.997	7.92
539.192	7.89
539.387	7.94
539.582	7.95
539.776	7.87
539.971	7.98
540.166	8.06
540.36	7.91
540.555	8.07
540.75	7.99
540.944	7.99
541.139	8.03
541.334	8.02
541.528	7.97
541.723	8.08
541.917	8.11
542.112	7.98
542.306	7.92
542.501	7.95
542.695	8
542.89	8.01
543.084	7.99
543.279	8.02
543.473	8.08
543.668	8.12
543.862	7.95
544.056	7.89
544.251	8.07
544.445	8.12
544.64	8.17
544.834	7.84
545.028	7.72
545.222	7.99
545.417	8.27
545.611	8.09
545.805	8.07
546	7.88
546.194	8.09
546.388	8.11
546.582	7.98
546.776	8.06
546.97	8.05
547.165	8.04
547.359	7.99
547.553	8.04
547.747	8.03
547.941	8.26
548.135	8.04
548.329	8.1
548.523	8.04
548.717	7.99
548.911	8.02
549.105	8.01
549.299	8.1
549.493	8.14
549.687	7.94
549.881	8.12
550.075	8.08
550.269	7.97
550.463	8.14
550.657	8.1
550.85	8.12
551.044	8.09
551.238	8.15
551.432	8.09
551.626	8.13
551.82	8.2
552.013	8
552.207	8.16
552.401	8.22
552.594	8.09
552.788	8.03
552.982	8.08
553.176	8.05
553.369	8.21
553.563	8.16
553.756	8.05
553.95	8.15
554.144	8.12
554.337	8.16
554.531	7.97
554.724	8.18
554.918	8.17
555.111	8.08
555.305	8.13
555.498	8.09
555.692	8.23
555.885	8.15
556.079	8.09
556.272	8.09
556.466	8.13
556.659	8.07
556.852	8.17
557.046	8.01
557.239	8
557.432	8.09
557.626	8.16
557.819	8.19
558.012	8.14
558.206	8.27
558.399	8.1
558.592	8.08
558.785	8.09
558.979	8.09
559.172	8.09
559.365	8.15
559.558	8.02
559.751	8.07
559.944	8.16
560.138	8.13
560.331	8.09
560.524	8.18
560.717	8.07
560.91	8.1
561.103	8.15
561.296	7.94
561.489	8.18
561.682	8.26
561.875	8.17
562.068	8.19
562.261	8.03
562.454	8.25
562.647	8.05
562.84	8.18
563.032	8.15
563.225	8.04
563.418	8.06
563.611	8.12
563.804	8.14
563.997	8.01
564.19	7.93
564.382	8.23
564.575	8.13
564.768	8.11
564.961	8.14
565.153	8.07
565.346	8.03
565.539	8.15
565.731	8.12
565.924	8.15
566.117	8.25
566.309	8.08
566.502	8.08
566.695	8.01
566.887	8.19
567.08	8.08
567.272	8.14
567.465	8
567.657	8.07
567.85	8.01
568.042	8.05
568.235	8.1
568.427	7.88
568.62	8.01
568.812	8.04
569.005	8.1
569.197	8
569.389	8.05
569.582	8.09
569.774	8.08
569.966	7.96
570.159	7.98
570.351	7.96
570.543	8.03
570.736	8.03
570.928	7.88
571.12	8.09
571.312	7.94
571.505	7.79
571.697	8.12
571.889	7.95
572.081	7.98
572.273	7.93
572.465	7.99
572.658	8.01
572.85	8
573.042	7.99
573.234	7.96
573.426	7.89
573.618	7.93
573.81	8.05
574.002	7.96
574.194	7.98
574.386	7.94
574.578	7.8
574.77	7.89
574.962	8.01
575.154	7.79
575.346	7.82
575.538	7.86
575.729	7.85
575.921	7.94
576.113	7.97
576.305	7.94
576.497	8.05
576.689	7.79
576.88	7.73
577.072	7.93
577.264	7.93
577.456	7.89
577.647	7.83
577.839	7.94
578.031	7.87
578.223	7.8
578.414	7.71
578.606	7.88
578.798	7.94
578.989	7.83
579.181	7.89
579.372	7.83
579.564	7.93
579.755	7.79
579.947	7.77
580.139	7.85
580.33	7.66
580.522	7.82
580.713	7.77
580.905	7.75
581.096	7.85
581.287	7.77
581.479	7.68
581.67	7.86
581.862	7.73
582.053	7.71
582.244	7.56
582.436	7.82
582.627	7.67
582.818	7.57
583.01	7.66
583.201	7.71
583.392	7.59
583.583	7.62
583.775	7.48
583.966	7.63
584.157	7.64
584.348	7.64
584.54	7.58
584.731	7.62
584.922	7.53
585.113	7.45
585.304	7.55
585.495	7.57
585.686	7.61
585.877	7.62
586.068	7.63
586.259	7.58
586.45	7.57
586.641	7.55
586.832	7.61
587.023	7.48
587.214	7.52
587.405	7.51
587.596	7.34
587.787	7.41
587.978	7.49
588.169	7.43
588.36	7.4
588.551	7.39
588.742	7.44
588.932	7.44
589.123	7.26
589.314	7.5
589.505	7.34
589.696	7.42
589.886	7.34
590.077	7.38
590.268	7.31
590.458	7.23
590.649	7.13
590.84	7.32
591.03	7.31
591.221	7.3
591.412	7.16
591.602	7.37
591.793	7.26
591.984	7.27
592.174	7.21
592.365	7.3
592.555	7.12
592.746	7.16
592.936	7.11
593.127	7.2
593.317	7.24
593.508	7.18
593.698	7.03
593.889	7.09
594.079	7.17
594.269	7
594.46	7.02
594.65	7.11
594.84	7.04
595.031	6.97
595.221	6.96
595.411	7
595.602	7.07
595.792	6.98
595.982	6.87
596.172	7.04
596.363	6.94
596.553	6.91
596.743	6.93
596.933	6.92
597.123	6.85
597.314	6.76
597.504	6.72
597.694	7.01
597.884	6.87
598.074	6.79
598.264	6.82
598.454	6.77
598.644	6.81
598.834	6.78
599.024	6.67
599.214	6.76
599.404	6.8
599.594	6.76
599.784	6.68
599.974	6.75
600.164	6.66
600.354	6.62
600.544	6.56
600.734	6.61
600.924	6.61
601.114	6.53
601.303	6.5
601.493	6.55
601.683	6.65
601.873	6.53
602.063	6.45
602.252	6.54
602.442	6.37
602.632	6.45
602.821	6.38
603.011	6.48
603.201	6.49
603.39	6.41
603.58	6.35
603.77	6.4
603.959	6.47
604.149	6.32
604.339	6.31
604.528	6.45
604.718	6.39
604.907	6.33
605.097	6.27
605.286	6.29
605.476	6.26
605.665	6.3
605.855	6.13
606.044	6.3
606.234	6.2
606.423	6.15
606.612	6.13
606.802	6.15
606.991	6.27
607.181	6.2
607.37	6.12
607.559	5.94
607.749	6.03
607.938	6.01
608.127	6.06
608.316	6.08
608.506	6.05
608.695	6.08
608.884	5.96
609.073	5.96
609.263	6.09
609.452	6.04
609.641	5.91
609.83	5.83
610.019	5.92
610.208	5.85
610.397	5.86
610.586	5.92
610.775	5.83
610.965	5.83
611.154	5.72
611.343	5.82
611.532	5.71
611.721	5.8
611.91	5.68
612.099	5.69
612.287	5.6
612.476	5.53
612.665	5.8
612.854	5.65
613.043	5.61
613.232	5.64
613.421	5.53
613.61	5.56
613.798	5.56
613.987	5.57
614.176	5.51
614.365	5.54
614.554	5.48
614.742	5.6
614.931	5.33
615.12	5.53
615.309	5.5
615.497	5.4
615.686	5.31
615.875	5.38
616.063	5.44
616.252	5.3
616.44	5.36
616.629	5.27
616.818	5.34
617.006	5.3
617.195	5.18
617.383	5.36
617.572	5.21
617.76	5.18
617.949	5.21
618.137	5.23
618.326	5.28
618.514	4.98
618.703	5.06
618.891	5.21
619.079	5.07
619.268	5.15
619.456	4.98
619.644	5.15
619.833	5.01
620.021	5.02
620.209	4.89
620.398	5.03
620.586	4.91
620.774	4.94
620.962	4.92
621.151	5.03
621.339	4.86
621.527	4.8
621.715	4.88
621.903	4.83
622.092	4.84
622.28	4.89
622.468	4.64
622.656	4.81
622.844	4.74
623.032	4.79
623.22	4.63
623.408	4.78
623.596	4.7
623.784	4.75
623.972	4.62
624.16	4.63
624.348	4.7
624.536	4.73
624.724	4.56
624.912	4.57
625.1	4.66
625.288	4.62
625.476	4.49
625.664	4.66
625.851	4.51
626.039	4.56
626.227	4.51
626.415	4.44
626.603	4.42
626.79	4.49
626.978	4.47
627.166	4.5
627.354	4.33
627.541	4.37
627.729	4.26
627.917	4.46
628.104	4.45
628.292	4.31
628.48	4.37
628.667	4.27
628.855	4.4
629.042	4.45
629.23	4.28
629.418	4.27
629.605	4.24
629.793	4.17
629.98	4.18
630.168	4.16
630.355	4.2
630.543	4.19
630.73	4.05
630.917	4.09
631.105	4.24
631.292	4.11
631.48	4.08
631.667	4.16
631.854	4.02
632.042	4.06
632.229	3.91
632.416	4.03
632.604	3.98
632.791	3.88
632.978	3.96
633.165	3.91
633.353	4
633.54	3.97
633.727	3.81
633.914	3.77
634.101	3.87
634.289	3.91
634.476	3.73
634.663	3.78
634.85	3.76
635.037	3.76
635.224	3.69
635.411	3.89
635.598	3.68
635.785	3.74
635.972	3.69
636.159	3.71
636.346	3.65
636.533	3.65
636.72	3.66
636.907	3.71
637.094	3.62
637.281	3.51
637.468	3.55
637.655	3.54
637.842	3.59
638.029	3.54
638.215	3.54
638.402	3.53
638.589	3.49
638.776	3.48
638.963	3.48
639.149	3.49
639.336	3.57
639.523	3.38
639.709	3.39
639.896	3.38
640.083	3.41
640.27	3.43
640.456	3.32
640.643	3.35
640.829	3.25
641.016	3.3
641.203	3.17
641.389	3.31
641.576	3.33
641.762	3.19
641.949	3.21
642.135	3.25
642.322	3.2
642.508	3.18
642.695	3.21
642.881	3.12
643.068	3.11
643.254	3.13
643.441	3.15
643.627	3.15
643.813	3.06
644	3.2
644.186	3.03
644.372	3.08
644.559	3.1
644.745	3.02
644.931	2.97
645.118	3.02
645.304	3.04
645.49	2.97
645.676	2.95
645.862	2.97
646.049	3
646.235	2.88
646.421	3.06
646.607	3.02
646.793	2.94
646.979	2.81
647.165	2.93
647.352	2.85
647.538	2.9
647.724	2.81
647.91	2.86
648.096	2.88
648.282	2.85
648.468	2.77
648.654	2.86
648.84	2.83
649.026	2.79
649.212	2.65
649.397	2.68
649.583	2.72
649.769	2.74
649.955	2.69
650.141	2.7
650.327	2.75
650.513	2.61
650.698	2.7
650.884	2.54
651.07	2.65
651.256	2.62
651.442	2.57
651.627	2.51
651.813	2.64
651.999	2.56
652.184	2.53
652.37	2.53
652.556	2.54
652.741	2.62
652.927	2.42
653.113	2.46
653.298	2.51
653.484	2.44
653.669	2.44
653.855	2.47
654.04	2.53
654.226	2.47
654.412	2.39
654.597	2.32
654.782	2.42
654.968	2.43
655.153	2.42
655.339	2.4
655.524	2.34
655.71	2.35
655.895	2.28
656.08	2.34
656.266	2.41
656.451	2.35
656.636	2.24
656.822	2.27
657.007	2.3
657.192	2.24
657.378	2.22
657.563	2.22
657.748	2.29
657.933	2.23
658.118	2.16
658.304	2.17
658.489	2.24
658.674	2.19
658.859	2.15
659.044	2.16
659.229	2.18
659.414	2.2
659.599	2.09
659.785	2.07
659.97	2.12
660.155	2.18
660.34	2.16
660.525	2.1
660.71	2.08
660.895	2.13
661.08	2.07
661.264	2.03
661.449	2.11
661.634	2.06
661.819	2.05
662.004	2.08
662.189	1.95
662.374	1.97
662.559	1.95
662.743	1.88
662.928	1.97
663.113	1.93
663.298	1.87
663.483	1.9
663.667	1.96
663.852	1.9
664.037	1.96
664.221	1.85
664.406	1.97
664.591	1.97
664.775	1.92
664.96	1.81
665.145	1.88
665.329	1.93
665.514	1.81
665.698	1.82
665.883	1.71
666.068	1.87
666.252	1.8
666.437	1.77
666.621	1.83
666.806	1.87
666.99	1.79
667.174	1.75
667.359	1.9
667.543	1.67
667.728	1.71
667.912	1.65
668.096	1.73
668.281	1.72
668.465	1.68
668.649	1.7
668.834	1.64
669.018	1.71
669.202	1.66
669.387	1.66
669.571	1.72
669.755	1.66
669.939	1.64
670.124	1.67
670.308	1.7
670.492	1.65
670.676	1.67
670.86	1.6
671.044	1.57
671.228	1.65
671.413	1.56
671.597	1.53
671.781	1.53
671.965	1.6
672.149	1.64
672.333	1.61
672.517	1.55
672.701	1.59
672.885	1.54
673.069	1.44
673.253	1.64
673.437	1.49
673.621	1.45
673.804	1.51
673.988	1.55
674.172	1.44
674.356	1.39
674.54	1.46
674.724	1.61
674.908	1.48
675.091	1.51
675.275	1.46
675.459	1.55
675.643	1.44
675.826	1.45
676.01	1.4
676.194	1.46
676.377	1.48
676.561	1.48
676.745	1.39
676.928	1.42
677.112	1.51
677.296	1.36
677.479	1.38
677.663	1.37
677.846	1.43
678.03	1.38
678.213	1.31
678.397	1.4
678.58	1.36
678.764	1.35
678.947	1.28
679.131	1.36
679.314	1.36
679.498	1.29
679.681	1.4
679.865	1.41
680.048	1.28
680.231	1.31
680.415	1.27
680.598	1.27
680.781	1.29
680.965	1.26
681.148	1.29
681.331	1.23
681.514	1.29
681.698	1.21
681.881	1.24
682.064	1.24
682.247	1.3
682.43	1.16
682.614	1.25
682.797	1.29
682.98	1.25
683.163	1.13
683.346	1.22
683.529	1.17
683.712	1.17
683.895	1.22
684.078	1.08
684.261	1.14
684.444	1.21
684.627	1.23
684.81	1.15
684.993	1.18
685.176	1.24
685.359	1.05
685.542	1.14
685.725	1.16
685.908	1.19
686.091	1.08
686.274	1.17
686.457	1.23
686.639	1.11
686.822	1.13
687.005	1.07
687.188	1.18
687.371	1.23
687.553	1.11
687.736	1.08
687.919	1.23
688.102	1.22
688.284	1.05
688.467	1.03
688.65	1.14
688.832	0.97
689.015	1.03
689.197	0.92
689.38	1.13
689.563	1.17
689.745	0.99
689.928	1
690.11	0.97
690.293	1.04
690.475	0.92
690.658	1
690.84	1.03
691.023	1.01
691.205	0.97
691.388	1.01
691.57	1.08
691.752	1.05
691.935	0.87
692.117	0.94
692.3	1
692.482	1
692.664	0.95
692.847	0.98
693.029	1.04
693.211	1
693.393	0.9
693.576	0.85
693.758	0.96
693.94	0.96
694.122	0.95
694.304	0.95
694.487	0.88
694.669	1.02
694.851	0.84
695.033	0.92
695.215	0.91
695.397	0.88
695.579	0.92
695.761	0.85
695.943	0.86
696.125	0.95
696.308	0.94
696.49	0.77
696.671	1.01
696.853	0.87
697.035	1.12
697.217	0.83
697.399	0.97
697.581	0.79
697.763	0.8
697.945	0.76
698.127	0.87
698.309	0.91
698.491	0.86
698.672	0.89
698.854	0.84
699.036	0.95
699.218	0.85
699.399	0.88
699.581	0.88
699.763	0.85
699.945	0.73
700.126	0.71
700.308	0.76
700.49	0.77
700.671	0.69
700.853	0.77
701.035	0.8
701.216	0.76
701.398	0.75
701.579	0.71
701.761	0.88
701.943	0.78
702.124	0.68
702.306	0.75
702.487	1
702.669	0.79
702.85	0.72
703.031	0.68
703.213	0.93
703.394	0.83
703.576	0.7
703.757	0.88
703.938	0.86
704.12	0.97
704.301	0.76
704.483	0.7
704.664	0.75
704.845	0.83
705.026	0.85
705.208	0.66
705.389	0.78
705.57	0.74
705.751	0.76
705.933	0.73
706.114	0.88
706.295	0.68
706.476	0.64
706.657	0.86
706.838	0.83
707.02	0.85
707.201	0.62
707.382	0.69
707.563	0.77
707.744	0.7
707.925	0.62
708.106	0.64
708.287	0.71
708.468	0.84
708.649	0.72
708.83	0.68
709.011	0.63
709.192	0.72
709.373	0.62
709.554	0.62
709.734	0.72
709.915	0.76
710.096	0.73
710.277	0.46
710.458	0.68
710.639	0.7
710.819	0.53
711	0.56
711.181	0.74
711.362	0.69
711.542	0.66
711.723	0.59
711.904	0.73
712.085	0.64
712.265	0.65
712.446	0.48
712.627	0.63
712.807	0.61
712.988	0.59
713.168	0.44
713.349	0.71
713.53	0.45
713.71	0.51
713.891	0.41
714.071	0.61
714.252	0.54
714.432	0.54
714.613	0.42
714.793	0.66
714.974	0.69
715.154	0.72
715.334	0.61
715.515	0.77
715.695	0.5
715.876	0.55
716.056	0.56
716.236	0.56
716.417	0.48
716.597	0.53
716.777	0.81
716.957	0.59
717.138	0.63
717.318	0.53
717.498	0.47
717.678	0.58
717.859	0.54
718.039	0.43
718.219	0.62
718.399	0.55
718.579	0.44
718.759	0.44
718.939	0.62
719.12	0.62
719.3	0.54
719.48	0.33
719.66	0.37
719.84	0.7
720.02	0.47
720.2	0.47
720.38	0.57
720.56	0.75
720.74	0.35
720.92	0.53
721.1	0.75
721.279	0.65
721.459	0.55
721.639	0.44
721.819	0.54
721.999	0.54
722.179	0.63
722.359	0.43
722.538	0.47
722.718	0.47
722.898	0.46
723.078	0.48
723.257	0.53
723.437	0.61
723.617	0.61
723.797	0.46
723.976	0.45
724.156	0.65
724.336	0.69
724.515	0.7
724.695	0.4
724.874	0.57
725.054	0.62
725.234	0.52
725.413	0.47
725.593	0.51
725.772	0.51
725.952	0.41
726.131	0.45
726.311	0.52
726.49	0.48
726.67	0.44
726.849	0.38
727.028	0.48
727.208	0.51
727.387	0.54
727.567	0.37
727.746	0.57
727.925	0.38
728.105	0.31
728.284	0.41
728.463	0.43
728.643	0.5
728.822	0.4
729.001	0.47
729.18	0.49
729.359	0.57
729.539	0.43
729.718	0.47
729.897	0.58
730.076	0.4
730.255	0.4
730.434	0.43
730.614	0.47
730.793	0.6
730.972	0.47
731.151	0.46
731.33	0.48
731.509	0.52
731.688	0.46
731.867	0.47
732.046	0.34
732.225	0.7
732.404	0.4
732.583	0.29
732.762	0.41
732.941	0.48
733.12	0.45
733.298	0.41
733.477	0.62
733.656	0.39
733.835	0.36
734.014	0.49
734.193	0.59
734.371	0.58
734.55	0.42
734.729	0.35
734.908	0.43
735.086	0.6
735.265	0.54
735.444	0.25
735.623	0.3
735.801	0.36
735.98	0.46
736.159	0.43
736.337	0.5
736.516	0.58
736.694	0.51
736.873	0.39
737.052	0.69
737.23	0.57
737.409	0.38
737.587	0.76
737.766	0.36
737.944	0.36
738.123	0.56
738.301	0.53
738.479	0.55
738.658	0.43
738.836	0.28
739.015	0.42
739.193	0.6
739.371	0.36
739.55	0.5
739.728	0.35
739.906	0.71
740.085	0.65
740.263	0.44
740.441	0.17
740.62	0.7
740.798	0.55
740.976	0.34
741.154	0.31
741.332	0.71
741.511	0.44
741.689	0.54
741.867	0.5
742.045	0.56
742.223	0.34
742.401	0.35
742.579	0.26
742.757	0.52
742.935	0.16
743.114	0.31
743.292	0.35
743.47	0.43
743.648	0.47
743.826	0.43
744.004	0.51
744.181	0.47
744.359	0.39
744.537	0.44
744.715	0.4
744.893	0.45
745.071	0.43
745.249	0.31
745.427	0.35
745.605	0.46
745.782	0.42
745.96	0.44
746.138	0.47
746.316	0.46
746.493	0.35
746.671	0.36
746.849	0.3
747.027	0.57
747.204	0.24
747.382	0.41
747.56	0.12
747.737	0.42
747.915	0.5
748.093	0.42
748.27	0.4
748.448	0.33
748.625	0.27
748.803	0.24
748.98	0.31
749.158	0.49
749.335	0.44
749.513	0.35
749.69	0.29
749.868	0.35
750.045	0.42
750.223	0.27
750.4	0.15
750.578	0.58
750.755	0.36
750.932	0.14
751.11	0.55
751.287	0.39
751.464	0.64
751.642	0.22
751.819	0.42
751.996	0.45
752.173	0.19
752.351	0.37
752.528	0.35
752.705	0.37
752.882	0.33
753.06	0.35
753.237	0.38
753.414	0.49
753.591	0.62
753.768	0.35
753.945	0.3
754.122	0.37
754.299	0.53
754.476	0.34
754.654	0.31
754.831	0.42
755.008	0.37
755.185	0.26
755.362	0.27
755.539	0.4
755.716	0.29
755.892	0.26
756.069	0.37
756.246	0.35
756.423	0.36
756.6	0.49
756.777	0.2
756.954	0.52
757.131	0.45
757.307	0.31
757.484	0.19
757.661	0.33
757.838	0.47
758.015	0.21
758.191	0.38
758.368	0.27
758.545	0.57
758.721	0.36
758.898	0.27
759.075	0.34
759.251	0.47
759.428	0.37
759.605	0.16
759.781	0.29
759.958	0.47
760.134	0.36
760.311	0.22
760.488	0.5
760.664	0.55
760.841	0.39
761.017	0.12
761.194	0.36
761.37	0.54
761.547	0.39
761.723	0.24
761.899	0.54
762.076	0.37
762.252	0.34
762.429	0.21
762.605	0.55
762.781	0.19
762.958	0.41
763.134	0.24
763.31	0.23
763.486	0.65
763.663	0.18
763.839	0.34
764.015	0.19
764.191	0.25
764.368	0.4
764.544	0.19
764.72	0.46
764.896	0.36
765.072	0.4
765.248	0.29
765.425	0.35
765.601	0.46
765.777	0.4
765.953	-0.01
766.129	0.22
766.305	0.11
766.481	0.36
766.657	0.33
766.833	0.62
767.009	0.15
767.185	0.23
767.361	0.28
767.537	0.13
767.713	0.46
767.889	0.26
768.065	0.22
768.24	0.49
768.416	0.42
768.592	0.22
768.768	0.32
768.944	0.45
769.12	0.19
769.295	0.25
769.471	0.2
769.647	0.28
769.823	0.56
769.998	0.29
770.174	0.23
770.35	0.6
770.525	0.71
770.701	0.35
770.877	0.31
771.052	0.25
771.228	0.52
771.403	0.4
771.579	0.35
771.755	0.76
771.93	0.26
772.106	0.18
772.281	0.1
772.457	0.39
772.632	0.4
772.808	0.21
772.983	0.28
773.159	0.15
773.334	0.55
773.509	0.4
773.685	0.08
773.86	0.92
774.036	0.56
774.211	0.43
774.386	0.24
774.562	0.44
774.737	0.51
774.912	0.2
775.087	0.37
775.263	0.3
775.438	0.33
775.613	0.09
775.788	0.31
775.964	0.59
776.139	0.92
776.314	0.14
776.489	0.42
776.664	0.33
776.839	0.11
777.014	0.53
777.19	0.5
777.365	0.64
777.54	0.68
777.715	0.1
777.89	0.2
778.065	0.29
778.24	0.34
778.415	0.46
778.59	0.17
778.765	0.36
778.94	0.4
779.115	0.3
779.289	0.25
779.464	0.32
779.639	0.3
779.814	0.17
779.989	0.15
780.164	0.53
780.339	0.4
780.513	0.3
780.688	0.2
780.863	0.4
781.038	0.74
781.212	0.17
781.387	0.2
781.562	0.71
781.737	0.25
781.911	0.61
782.086	0.19
782.261	0.2
782.435	0.78
782.61	0.34
782.784	0.52
782.959	0.48
783.134	0.3
783.308	0.06
783.483	0.2
783.657	0.77
783.832	0.54
784.006	0.08
784.181	0.4
784.355	0.43
784.53	0.11
784.704	0.18
784.878	0.56
785.053	0.61
785.227	0.71
785.402	0.57
785.576	-0.03
785.75	0.37
785.925	0.39
786.099	0.48
786.273	0.44
786.448	0.56
786.622	0.45
786.796	0.29
786.97	0.48
787.145	1.02
787.319	-0.18
787.493	0.29
787.667	-0.08
787.841	0.43
788.015	0.8
788.19	0.35
788.364	0.14
788.538	0.7
788.712	0.69
788.886	0.27
789.06	0.61
789.234	0.67
789.408	0.22
789.582	0.01
789.756	0.4
789.93	0.37
790.104	0.42
790.278	0.16
790.452	0.01
790.626	0.52
790.8	0.23
790.973	0.4
791.147	0.67
791.321	0.89
791.495	0.7
791.669	0.56
791.843	0.59
792.016	0.36
792.19	0.73
792.364	0.23
792.538	1.19
792.711	0.72
792.885	0.39
793.059	0.04
793.233	-0.17
793.406	0.6
793.58	0.56
793.754	0.62
793.927	0.4
794.101	0.63
794.274	0.6
794.448	0.51
794.622	-0.01
794.795	0.84
794.969	0.2
795.142	0.78
795.316	0.16
795.489	0.28
795.663	0.88
795.836	0.3
796.009	0.07
796.183	0.91
796.356	0.58
796.53	0.44
796.703	0.27
796.876	1.07
797.05	0.29
797.223	0.23
797.396	0.36
797.57	0.31
797.743	1.05
797.916	0.37
798.09	0.45
798.263	0.64
798.436	0.59
798.609	0.31
798.782	0.4
798.956	0.57
799.129	0.56
799.302	0.31
799.475	0.25
799.648	0.31
799.821	0.22
799.994	0.42
800.167	-0.03
800.34	0.27
800.514	0.5
800.687	0.44
800.86	0.02
801.033	0.7
801.206	0.83
801.379	-0.01
801.551	0.73
801.724	0.53
801.897	1.2
802.07	0.31
802.243	0.01
802.416	0.18
802.589	0.14
802.762	0.64
802.935	0.28
803.107	0.9
803.28	0.95
803.453	0.7
803.626	0.2
803.798	0.38
803.971	0.58
804.144	0.38
804.317	0.43
804.489	0.67
804.662	0.54
804.835	0.28
805.007	0.18
805.18	1.16
805.353	0.23
805.525	0.09
805.698	0.2
805.87	0.88
806.043	0.75
806.215	-0.06
806.388	0.25
806.56	0.86
806.733	0.79
806.905	0.68
807.078	0.26
807.25	0.2
807.423	0.84
807.595	0.61
807.768	0.78
807.94	0.88
808.112	0.83
808.285	0.38
808.457	0.15
808.629	0.43
808.802	0.81
808.974	0.49
809.146	0.03
809.318	0.32
809.491	1.19
809.663	0.69
809.835	0.23
810.007	0.95
810.18	0.6
810.352	0.26
810.524	0.38
810.696	0.76
810.868	1.09
811.04	0.21
811.212	0.48
811.384	0.68
811.556	0.59
811.728	0.34
811.901	1.36
812.073	0.64
812.245	0.73
812.417	0.27
812.589	-0.18
812.76	0.73
812.932	0.85
813.104	0.87
813.276	0.02
813.448	0.92
813.62	0.25
813.792	0.31
813.964	0.56
814.136	0.98
814.307	0.46
814.479	0.24
814.651	0.19
814.823	1.5
814.995	0.43
815.166	0.64
815.338	0.21
815.51	0.06
815.681	1.77
815.853	0.68
816.025	0.43
816.196	1.36
816.368	1.24
816.54	0.04
816.711	0.66
816.883	1.35
817.054	1.69
817.226	-0.08
817.398	0.67
817.569	0.28
817.741	0.59
817.912	0.46
818.084	0.16
818.255	1.16
818.426	0.56
818.598	0.5
818.769	-0.22
818.941	1.53
819.112	1.22
819.283	0.94
819.455	-0.12
819.626	0.6
819.798	1.12
819.969	0.39
820.14	0.36
820.311	0.3
820.483	0.7
820.654	0.82
820.825	0.46
820.996	0.66
821.168	0.1
821.339	0.54
821.51	-0.46
821.681	0.65
821.852	1.12
822.023	-0.33
822.195	0.18
822.366	1.15
822.537	0.76
822.708	0.66
822.879	0.04
823.05	1.36
823.221	0.54
823.392	0.95
823.563	0.73
823.734	0.89
823.905	0.49
824.076	0.04
824.247	-0.03
824.418	0.53
824.589	1.37
824.759	0.36
824.93	0.58
825.101	-0.25
825.272	0.99
825.443	1.06
825.614	1.22
825.784	0.02
825.955	1.48
826.126	1.49
826.297	1.27
826.467	1.38
826.638	1.73
826.809	-0.26
826.98	0.3
827.15	0.45
827.321	0.75
827.492	1.12
827.662	0.92
827.833	1.49
828.003	0.83
828.174	-0.45
828.345	-0.08
828.515	1.89
828.686	0.56
828.856	0.15
829.027	0.56
829.197	0.77
829.368	1.55
829.538	0.45
829.709	-0.13
829.879	0.94
830.049	0.91
830.22	0.32
830.39	0.48
830.56	1.6
830.731	0.78
830.901	0.38
831.072	0.6
831.242	0.68
831.412	1.12
831.582	0.69
831.753	-0.33
831.923	1.06
832.093	1.35
832.263	0.67
832.434	-0.07
832.604	0.79
832.774	1.59
832.944	0.44
833.114	0.29
833.284	1.12
833.454	0.5
833.624	0.08
833.795	0.43
833.965	1.43
834.135	1.59
834.305	-0.5
834.475	-0.19
834.645	0.85
834.815	0.12
834.985	0.17
835.155	-0.32
835.325	1.76
835.494	0.62
835.664	0.11
835.834	0.52
836.004	0.57
836.174	1.82
836.344	-0
836.514	-0.57
836.684	0.13
836.853	1.08
837.023	0.46
837.193	-0.31
837.363	2.12
837.532	1.32
837.702	0.46
837.872	0.19
838.041	1.41
838.211	2.25
838.381	-0.84
838.55	0.86
838.72	3.72
838.89	2.72
839.059	0.53
839.229	-0.09
839.398	2.64
839.568	0.79
839.738	0.23
839.907	1.64
840.077	1.08
840.246	0.86
840.416	0.45
840.585	0.39
840.755	2.61
840.924	2.36
841.093	-0.09
841.263	0.26
841.432	0.58
841.602	0.72
841.771	-0.25
841.94	0.37
842.11	2.98
842.279	2.19
842.448	-0.24
842.617	0.63
842.787	2.57
842.956	0.07
843.125	-0.55
843.294	0.65
843.464	1.75
843.633	0.74
843.802	-0.12
843.971	0.24
844.14	1.95
844.309	2.13
844.479	-0.8
844.648	-0.7
844.817	1.08
844.986	1
845.155	-0.35
845.324	0.13
845.493	0.35
845.662	0.58
845.831	1.42
846	0.8
846.169	-0.14
846.338	2.54
846.507	0.86
846.676	0.54
846.844	0.86
847.013	1.37
847.182	0.1
847.351	-0.28
847.52	1.38
847.689	1.74
847.858	0.77
848.026	0.57
848.195	1.42
848.364	-0.22
848.533	-0.08
848.701	-0.24
848.87	1.54
849.039	2.84
849.207	1.04
849.376	2.62
849.545	3.22
849.713	0.42
849.882	-0.33
850.051	-0.07
850.219	1.15
850.388	1.76
850.556	0
850.725	-0.4
850.893	2.13
851.062	0.27
851.23	1.25
851.399	-0.6
851.567	0.53
851.736	1.3
851.904	0.37
852.073	1.04
852.241	2.94
852.41	1.84
852.578	0.39
852.746	0.28
852.915	1.78
853.083	1.55
853.251	0.29
853.42	1.66
853.588	0.96
853.756	2.31
853.924	1.23
854.093	1.39
854.261	0.33
854.429	-1.13
854.597	1.54
854.765	-0.07
854.934	1.46
855.102	2.56
855.27	0.8
855.438	2.27
855.606	2.77
855.774	3.62
855.942	-0.89
856.11	-0.38
856.278	1.51
856.446	0.65
856.614	1.3
856.782	-0.18
856.95	1.53
857.118	2.63
857.286	1.09
857.454	-0.02
857.622	2.28
857.79	2.32
857.958	0.74
858.126	0.6
858.294	-1.4
858.462	0.98
858.629	0.34
858.797	-0.59
858.965	2.22
859.133	1.76
859.301	0.41
859.468	0.95
859.636	0.3
859.804	3.86
859.971	3.41
860.139	-0.25
860.307	2.52
860.474	2.19
860.642	-1
860.81	0.38
860.977	1.64
861.145	3.52
861.313	0.32
861.48	1.47
861.648	3.06
861.815	2.34
861.983	-1.17
862.15	0.48
862.318	2.42
862.485	3.97
862.653	0.1
862.82	-0.69
862.988	3.64
863.155	2.88
863.322	-0.03
863.49	0.74
863.657	1.63
863.824	3.84
863.992	1.94
864.159	1.2
864.326	2.88
864.494	0.16
864.661	4.28
864.828	-1.19
864.996	4.37
865.163	2.83
865.33	-0.65
865.497	-2.9
865.664	-0.35
865.832	-0.92
865.999	0.97
866.166	-0.27
866.333	0.08
866.5	1.54
866.667	0.01
866.834	0.95
867.001	3
867.168	-1.14
867.335	0.94
867.502	-1.02
867.669	2.6
867.836	5.34
868.003	0.69
868.17	2.83
868.337	1.83
868.504	5.56
868.671	-1.63
868.838	0.83
869.005	2.68
869.172	1.13
869.339	1.64
869.505	0.87
869.672	2.54
869.839	2.79
870.006	1.71
870.173	-0.61
870.339	2.34
870.506	4.03
870.673	0.58
870.84	2.88
871.006	0.62
871.173	1.81
871.34	0.12
871.506	-0.67
871.673	1.37
871.839	-1.1
872.006	3
872.173	0.89
872.339	3.39
872.506	4.36
872.672	2.05
872.839	0.46
873.005	1.82
873.172	4.72
873.338	3.49
873.505	1.72
873.671	3.14
873.838	2.89
874.004	-2.44
874.171	-0.23
874.337	3.88
874.503	3.15
874.67	2.26
874.836	0.83
875.002	3.88
875.169	4.77
875.335	-0.1
875.501	0.78
875.668	2.44
875.834	0.41
876	0.36
876.166	2.64
876.332	2.41
876.499	4.72
876.665	-0.55
876.831	0.1
876.997	6.98
877.163	3.46
877.329	1.65
877.495	2.24
877.662	3.18
877.828	1.56
877.994	1.28
878.16	-2.84
878.326	0.97
878.492	2.03
878.658	1.53
878.824	1.38
878.99	2.96
879.156	1.18
879.322	5.1
879.487	-0.78
879.653	4.18
879.819	1.27
879.985	-0.25
880.151	2.58
880.317	2.34
880.483	2.96
880.648	2.49
880.814	-2.01
880.98	3.08
881.146	-0.25
881.312	0.31
881.477	0.95
881.643	1.77
881.809	4.41
881.974	2.15
882.14	-1.36
882.306	3.23
882.471	5.49
882.637	0.29
882.803	0.61
882.968	5.54
883.134	5.62
883.299	0.36
883.465	2.17
883.63	5.62
883.796	3.74
883.961	4.11
884.127	3.26
884.292	-1.85
884.458	-0.69
884.623	-0.69
