Data from Apollo_Calib_20240827__AbsoluteIrradiance__864__13-33-01-993.txt Node

Date: Wed Aug 28 13:33:01 BST 2024
User: biology
Spectrometer: FLMT08252
Trigger mode: 0
Integration Time (sec): 5.000000E-1
Scans to average: 5
Electric dark correction enabled: true
Nonlinearity correction enabled: false
Boxcar width: 0
XAxis mode: Wavelengths
Number of Pixels in Spectrum: 3648
>>>>>Begin Spectral Data<<<<<
179.588	-0
179.809	-0
180.03	-0
180.251	-0
180.473	-0
180.694	0
180.915	0
181.136	-0
181.357	0
181.578	-0
181.799	0
182.02	-0
182.241	0
182.462	-0
182.683	0
182.904	-0
183.125	-0
183.346	0
183.567	0
183.788	0
184.009	0
184.23	0
184.451	0
184.672	0
184.892	0
185.113	0
185.334	0
185.555	0
185.776	0
185.996	0
186.217	0
186.438	0
186.659	0
186.879	0
187.1	0
187.321	0
187.541	0
187.762	0
187.983	0
188.203	0
188.424	0
188.644	0
188.865	0
189.086	0
189.306	0
189.527	0
189.747	0
189.968	0
190.188	0
190.409	0
190.629	0
190.849	0
191.07	0
191.29	0
191.511	0
191.731	0
191.951	0
192.172	0
192.392	0
192.612	0
192.833	0
193.053	0
193.273	0
193.493	0
193.714	0
193.934	0
194.154	0
194.374	0
194.594	0
194.815	0
195.035	0
195.255	0
195.475	0
195.695	0
195.915	0
196.135	0
196.355	0
196.575	0
196.795	0
197.015	0
197.235	0
197.455	0
197.675	0
197.895	0
198.115	0
198.335	0
198.555	0
198.775	0
198.995	0
199.214	0
199.434	0
199.654	0
199.874	0
200.094	4.13
200.313	2.13
200.533	2.18
200.753	1.41
200.973	4.01
201.192	3.17
201.412	1.64
201.632	1.57
201.851	3.53
202.071	2.2
202.291	1.81
202.51	1.43
202.73	2.3
202.95	1.56
203.169	1.18
203.389	1.95
203.608	2.34
203.828	1.1
204.047	1.41
204.267	2.1
204.486	1.8
204.706	2.46
204.925	1.65
205.145	1.23
205.364	2.38
205.583	2.61
205.803	1.26
206.022	0.95
206.242	1.67
206.461	1.98
206.68	1.27
206.9	1.58
207.119	2.48
207.338	2.25
207.557	1.12
207.777	0.95
207.996	1.43
208.215	2.39
208.434	1.05
208.654	0.83
208.873	1.82
209.092	2.1
209.311	1.03
209.53	1.31
209.749	1.34
209.968	1.07
210.187	1.06
210.407	0.98
210.626	1.19
210.845	1.51
211.064	1.13
211.283	0.57
211.502	1.58
211.721	1.23
211.94	1.06
212.159	1.32
212.377	1.42
212.596	1.7
212.815	1.09
213.034	1.19
213.253	1.38
213.472	1.39
213.691	1.05
213.91	0.58
214.128	0.6
214.347	1.63
214.566	0.45
214.785	0.61
215.003	1.31
215.222	0.97
215.441	0.87
215.66	0.53
215.878	1.05
216.097	1.27
216.316	0.62
216.534	0.96
216.753	1.08
216.972	0.82
217.19	0.92
217.409	0.6
217.627	0.7
217.846	0.85
218.064	0.85
218.283	0.64
218.501	1.41
218.72	1.15
218.938	0.51
219.157	0.65
219.375	1.03
219.594	1.06
219.812	0.56
220.031	0.49
220.249	1.16
220.467	1.25
220.686	0.67
220.904	0.54
221.122	0.76
221.341	1.09
221.559	0.74
221.777	0.41
221.995	0.67
222.214	0.93
222.432	0.61
222.65	0.86
222.868	0.76
223.086	0.76
223.305	0.81
223.523	0.66
223.741	1.18
223.959	0.7
224.177	0.27
224.395	0.49
224.613	0.78
224.831	1.05
225.049	0.46
225.267	0.65
225.485	0.86
225.703	0.76
225.921	0.61
226.139	0.59
226.357	0.81
226.575	0.85
226.793	0.49
227.011	1.65
227.229	0.64
227.447	1.07
227.665	0.53
227.883	0.33
228.1	0.63
228.318	0.83
228.536	0.3
228.754	0.39
228.972	0.67
229.189	0.83
229.407	0.56
229.625	0.54
229.843	0.87
230.06	0.67
230.278	0.57
230.496	0.6
230.713	0.73
230.931	0.78
231.149	0.5
231.366	0.29
231.584	0.57
231.801	1.06
232.019	0.59
232.236	0.26
232.454	0.47
232.671	0.68
232.889	0.55
233.106	0.46
233.324	0.59
233.541	0.61
233.759	0.53
233.976	0.33
234.194	0.63
234.411	0.59
234.628	0.41
234.846	0.55
235.063	0.64
235.28	0.67
235.498	0.47
235.715	0.34
235.932	0.79
236.149	0.43
236.367	0.29
236.584	0.57
236.801	0.48
237.018	0.67
237.236	0.54
237.453	0.33
237.67	0.68
237.887	0.44
238.104	0.45
238.321	0.37
238.538	0.41
238.755	0.72
238.973	0.32
239.19	0.49
239.407	0.55
239.624	0.6
239.841	0.37
240.058	0.35
240.275	0.53
240.492	0.55
240.709	0.44
240.925	0.36
241.142	0.46
241.359	0.31
241.576	0.37
241.793	0.32
242.01	0.53
242.227	0.7
242.444	0.46
242.66	0.64
242.877	0.5
243.094	0.45
243.311	0.44
243.527	0.45
243.744	0.51
243.961	0.48
244.178	0.32
244.394	0.37
244.611	0.6
244.828	0.68
245.044	0.36
245.261	0.39
245.477	0.5
245.694	0.5
245.911	0.27
246.127	0.45
246.344	0.68
246.56	0.61
246.777	0.38
246.993	0.41
247.21	0.47
247.426	0.47
247.643	0.28
247.859	0.35
248.076	0.34
248.292	0.7
248.508	0.33
248.725	0.5
248.941	0.54
249.157	0.68
249.374	0.25
249.59	0.37
249.806	0.36
250.023	0.6
250.239	0.33
250.455	0.28
250.671	0.47
250.888	0.49
251.104	0.47
251.32	0.39
251.536	0.41
251.752	0.41
251.969	0.45
252.185	0.43
252.401	0.7
252.617	0.49
252.833	0.35
253.049	0.37
253.265	0.45
253.481	0.43
253.697	0.33
253.913	0.3
254.129	0.44
254.345	0.44
254.561	0.35
254.777	0.34
254.993	0.47
255.209	0.47
255.425	0.36
255.641	0.32
255.857	0.56
256.073	0.43
256.288	0.28
256.504	0.37
256.72	0.45
256.936	0.55
257.152	0.35
257.367	0.25
257.583	0.43
257.799	0.49
258.015	0.32
258.23	0.32
258.446	0.59
258.662	0.36
258.877	0.27
259.093	0.27
259.309	0.45
259.524	0.47
259.74	0.3
259.955	0.22
260.171	0.36
260.387	0.33
260.602	0.42
260.818	0.43
261.033	0.32
261.249	0.44
261.464	0.3
261.68	0.23
261.895	0.54
262.11	0.45
262.326	0.32
262.541	0.21
262.757	0.55
262.972	0.51
263.187	0.38
263.403	0.4
263.618	0.49
263.833	0.35
264.049	0.25
264.264	0.47
264.479	0.35
264.694	0.58
264.91	0.22
265.125	0.32
265.34	0.42
265.555	0.53
265.77	0.33
265.986	0.38
266.201	0.37
266.416	0.46
266.631	0.3
266.846	0.31
267.061	0.46
267.276	0.45
267.491	0.16
267.706	0.36
267.921	0.37
268.136	0.43
268.351	0.3
268.566	0.22
268.781	0.41
268.996	0.49
269.211	0.33
269.426	0.27
269.641	0.31
269.856	0.51
270.071	0.3
270.285	0.21
270.5	0.46
270.715	0.45
270.93	0.32
271.145	0.36
271.359	0.5
271.574	0.33
271.789	0.35
272.004	0.32
272.218	0.31
272.433	0.36
272.648	0.28
272.862	0.4
273.077	0.36
273.292	0.33
273.506	0.25
273.721	0.25
273.936	0.34
274.15	0.46
274.365	0.28
274.579	0.39
274.794	0.43
275.008	0.45
275.223	0.18
275.437	0.32
275.652	0.4
275.866	0.41
276.081	0.31
276.295	0.33
276.509	0.32
276.724	0.32
276.938	0.33
277.153	0.31
277.367	0.39
277.581	0.31
277.796	0.32
278.01	0.24
278.224	0.39
278.438	0.45
278.653	0.21
278.867	0.25
279.081	0.24
279.295	0.28
279.51	0.35
279.724	0.22
279.938	0.4
280.152	0.36
280.366	0.26
280.58	0.28
280.794	0.43
281.008	0.35
281.222	0.36
281.437	0.48
281.651	0.34
281.865	0.43
282.079	0.26
282.293	0.21
282.507	0.23
282.721	0.29
282.935	0.27
283.148	0.26
283.362	0.25
283.576	0.23
283.79	0.29
284.004	0.21
284.218	0.39
284.432	0.26
284.646	0.29
284.859	0.24
285.073	0.27
285.287	0.34
285.501	0.29
285.714	0.24
285.928	0.31
286.142	0.31
286.356	0.24
286.569	0.29
286.783	0.37
286.997	0.42
287.21	0.26
287.424	0.25
287.637	0.28
287.851	0.27
288.065	0.33
288.278	0.32
288.492	0.29
288.705	0.22
288.919	0.3
289.132	0.13
289.346	0.34
289.559	0.21
289.773	0.2
289.986	0.29
290.2	0.22
290.413	0.39
290.626	0.23
290.84	0.29
291.053	0.3
291.267	0.4
291.48	0.26
291.693	0.27
291.906	0.24
292.12	0.26
292.333	0.24
292.546	0.22
292.76	0.41
292.973	0.35
293.186	0.28
293.399	0.22
293.612	0.34
293.826	0.26
294.039	0.25
294.252	0.2
294.465	0.34
294.678	0.29
294.891	0.28
295.104	0.24
295.317	0.28
295.53	0.32
295.743	0.27
295.956	0.23
296.169	0.39
296.382	0.33
296.595	0.3
296.808	0.21
297.021	0.32
297.234	0.34
297.447	0.25
297.66	0.31
297.873	0.38
298.086	0.35
298.299	0.21
298.511	0.18
298.724	0.28
298.937	0.23
299.15	0.21
299.363	0.29
299.575	0.36
299.788	0.31
300.001	0.23
300.213	0.26
300.426	0.26
300.639	0.21
300.852	0.21
301.064	0.29
301.277	0.34
301.489	0.33
301.702	0.26
301.915	0.29
302.127	0.31
302.34	0.27
302.552	0.29
302.765	0.18
302.977	0.34
303.19	0.23
303.402	0.23
303.615	0.2
303.827	0.26
304.04	0.25
304.252	0.29
304.464	0.24
304.677	0.38
304.889	0.32
305.102	0.2
305.314	0.25
305.526	0.3
305.739	0.32
305.951	0.19
306.163	0.23
306.375	0.36
306.588	0.24
306.8	0.22
307.012	0.19
307.224	0.31
307.436	0.37
307.649	0.18
307.861	0.27
308.073	0.32
308.285	0.25
308.497	0.14
308.709	0.24
308.921	0.29
309.133	0.33
309.346	0.22
309.558	0.23
309.77	0.34
309.982	0.35
310.194	0.29
310.406	0.21
310.617	0.38
310.829	0.28
311.041	0.3
311.253	0.23
311.465	0.28
311.677	0.26
311.889	0.24
312.101	0.22
312.313	0.25
312.524	0.36
312.736	0.18
312.948	0.22
313.16	0.35
313.372	0.31
313.583	0.28
313.795	0.23
314.007	0.23
314.218	0.31
314.43	0.23
314.642	0.21
314.853	0.24
315.065	0.37
315.277	0.22
315.488	0.23
315.7	0.32
315.912	0.28
316.123	0.26
316.335	0.23
316.546	0.41
316.758	0.24
316.969	0.25
317.181	0.26
317.392	0.27
317.604	0.32
317.815	0.17
318.026	0.21
318.238	0.26
318.449	0.32
318.661	0.14
318.872	0.17
319.083	0.2
319.295	0.28
319.506	0.24
319.717	0.25
319.929	0.32
320.14	0.27
320.351	0.24
320.562	0.2
320.774	0.3
320.985	0.27
321.196	0.21
321.407	0.16
321.618	0.29
321.829	0.29
322.041	0.26
322.252	0.26
322.463	0.32
322.674	0.28
322.885	0.2
323.096	0.21
323.307	0.25
323.518	0.32
323.729	0.26
323.94	0.24
324.151	0.25
324.362	0.29
324.573	0.3
324.784	0.21
324.995	0.3
325.206	0.3
325.417	0.21
325.628	0.16
325.838	0.27
326.049	0.28
326.26	0.27
326.471	0.21
326.682	0.3
326.892	0.28
327.103	0.19
327.314	0.23
327.525	0.31
327.735	0.29
327.946	0.23
328.157	0.19
328.368	0.34
328.578	0.3
328.789	0.31
328.999	0.23
329.21	0.25
329.421	0.34
329.631	0.24
329.842	0.19
330.052	0.26
330.263	0.28
330.473	0.3
330.684	0.23
330.894	0.27
331.105	0.31
331.315	0.27
331.526	0.18
331.736	0.36
331.947	0.29
332.157	0.28
332.367	0.2
332.578	0.31
332.788	0.36
332.999	0.3
333.209	0.26
333.419	0.2
333.629	0.32
333.84	0.29
334.05	0.23
334.26	0.34
334.47	0.27
334.681	0.3
334.891	0.18
335.101	0.3
335.311	0.33
335.521	0.29
335.732	0.25
335.942	0.35
336.152	0.31
336.362	0.28
336.572	0.28
336.782	0.29
336.992	0.23
337.202	0.29
337.412	0.23
337.622	0.27
337.832	0.25
338.042	0.23
338.252	0.21
338.462	0.2
338.672	0.25
338.882	0.29
339.092	0.27
339.302	0.38
339.511	0.29
339.721	0.22
339.931	0.19
340.141	0.32
340.351	0.32
340.561	0.25
340.77	0.26
340.98	0.29
341.19	0.27
341.4	0.23
341.609	0.21
341.819	0.24
342.029	0.17
342.238	0.25
342.448	0.17
342.658	0.32
342.867	0.23
343.077	0.22
343.286	0.26
343.496	0.24
343.706	0.32
343.915	0.21
344.125	0.28
344.334	0.3
344.544	0.2
344.753	0.18
344.963	0.23
345.172	0.24
345.381	0.25
345.591	0.19
345.8	0.22
346.01	0.29
346.219	0.3
346.428	0.11
346.638	0.24
346.847	0.27
347.056	0.34
347.266	0.2
347.475	0.23
347.684	0.31
347.893	0.27
348.103	0.28
348.312	0.2
348.521	0.25
348.73	0.29
348.94	0.26
349.149	0.2
349.358	0.2
349.567	0.26
349.776	0.19
349.985	0.21
350.194	0.32
350.403	0.33
350.612	0.15
350.821	0.2
351.03	0.28
351.239	0.23
351.448	0.22
351.657	0.18
351.866	0.31
352.075	0.25
352.284	0.33
352.493	0.17
352.702	0.34
352.911	0.27
353.12	0.25
353.329	0.24
353.538	0.28
353.746	0.22
353.955	0.2
354.164	0.27
354.373	0.25
354.582	0.32
354.79	0.25
354.999	0.27
355.208	0.21
355.416	0.34
355.625	0.2
355.834	0.23
356.042	0.28
356.251	0.23
356.46	0.2
356.668	0.24
356.877	0.35
357.085	0.27
357.294	0.14
357.503	0.24
357.711	0.26
357.92	0.45
358.128	0.24
358.337	0.2
358.545	0.25
358.754	0.23
358.962	0.24
359.17	0.22
359.379	0.26
359.587	0.25
359.796	0.24
360.004	0.32
360.212	0.25
360.421	0.32
360.629	0.23
360.837	0.23
361.046	0.3
361.254	0.45
361.462	0.27
361.67	0.21
361.879	0.27
362.087	0.34
362.295	0.23
362.503	0.23
362.711	0.22
362.92	0.24
363.128	0.23
363.336	0.18
363.544	0.21
363.752	0.24
363.96	0.22
364.168	0.22
364.376	0.23
364.584	0.27
364.792	0.32
365	0.26
365.208	0.28
365.416	0.33
365.624	0.32
365.832	0.22
366.04	0.34
366.248	0.27
366.456	0.28
366.664	0.27
366.872	0.26
367.079	0.23
367.287	0.25
367.495	0.25
367.703	0.25
367.911	0.26
368.118	0.27
368.326	0.24
368.534	0.19
368.742	0.32
368.949	0.2
369.157	0.21
369.365	0.32
369.572	0.23
369.78	0.21
369.988	0.26
370.195	0.26
370.403	0.33
370.61	0.23
370.818	0.27
371.026	0.33
371.233	0.21
371.441	0.22
371.648	0.22
371.856	0.28
372.063	0.25
372.271	0.23
372.478	0.23
372.685	0.19
372.893	0.34
373.1	0.29
373.308	0.21
373.515	0.37
373.722	0.34
373.93	0.26
374.137	0.32
374.344	0.32
374.552	0.31
374.759	0.28
374.966	0.23
375.173	0.3
375.381	0.31
375.588	0.25
375.795	0.18
376.002	0.23
376.209	0.24
376.417	0.26
376.624	0.28
376.831	0.28
377.038	0.28
377.245	0.2
377.452	0.23
377.659	0.29
377.866	0.24
378.073	0.28
378.28	0.27
378.487	0.34
378.694	0.34
378.901	0.24
379.108	0.27
379.315	0.33
379.522	0.38
379.729	0.27
379.936	0.25
380.143	0.29
380.35	0.26
380.557	0.25
380.763	0.24
380.97	0.27
381.177	0.23
381.384	0.3
381.591	0.18
381.797	0.28
382.004	0.29
382.211	0.32
382.418	0.23
382.624	0.33
382.831	0.36
383.038	0.23
383.244	0.28
383.451	0.3
383.658	0.31
383.864	0.25
384.071	0.22
384.277	0.37
384.484	0.22
384.69	0.32
384.897	0.25
385.103	0.27
385.31	0.26
385.516	0.24
385.723	0.19
385.929	0.27
386.136	0.27
386.342	0.32
386.549	0.26
386.755	0.32
386.961	0.33
387.168	0.26
387.374	0.28
387.58	0.36
387.787	0.28
387.993	0.29
388.199	0.3
388.406	0.27
388.612	0.23
388.818	0.24
389.024	0.24
389.231	0.28
389.437	0.38
389.643	0.31
389.849	0.29
390.055	0.32
390.261	0.3
390.467	0.33
390.674	0.24
390.88	0.31
391.086	0.39
391.292	0.22
391.498	0.3
391.704	0.33
391.91	0.29
392.116	0.29
392.322	0.19
392.528	0.37
392.734	0.31
392.94	0.34
393.146	0.33
393.352	0.34
393.557	0.31
393.763	0.3
393.969	0.35
394.175	0.37
394.381	0.31
394.587	0.24
394.792	0.31
394.998	0.38
395.204	0.38
395.41	0.3
395.615	0.3
395.821	0.38
396.027	0.33
396.233	0.28
396.438	0.37
396.644	0.41
396.85	0.28
397.055	0.31
397.261	0.28
397.466	0.34
397.672	0.41
397.878	0.43
398.083	0.33
398.289	0.31
398.494	0.38
398.7	0.37
398.905	0.25
399.111	0.48
399.316	0.29
399.522	0.34
399.727	0.33
399.932	0.33
400.138	0.35
400.343	0.39
400.549	0.32
400.754	0.37
400.959	0.4
401.165	0.34
401.37	0.37
401.575	0.37
401.78	0.41
401.986	0.36
402.191	0.32
402.396	0.42
402.601	0.4
402.807	0.38
403.012	0.4
403.217	0.45
403.422	0.43
403.627	0.38
403.832	0.39
404.037	0.5
404.243	0.44
404.448	0.38
404.653	0.41
404.858	0.47
405.063	0.45
405.268	0.38
405.473	0.39
405.678	0.44
405.883	0.68
406.088	0.53
406.293	0.38
406.498	0.44
406.703	0.55
406.907	0.45
407.112	0.45
407.317	0.48
407.522	0.58
407.727	0.46
407.932	0.55
408.136	0.7
408.341	0.55
408.546	0.53
408.751	0.58
408.956	0.6
409.16	0.69
409.365	0.59
409.57	0.63
409.774	0.64
409.979	0.73
410.184	0.67
410.388	0.66
410.593	0.77
410.798	0.74
411.002	0.75
411.207	0.83
411.411	0.81
411.616	0.75
411.82	0.8
412.025	0.86
412.229	0.82
412.434	1
412.638	0.86
412.843	0.95
413.047	0.98
413.252	0.99
413.456	1
413.66	1.06
413.865	1.09
414.069	1.19
414.273	1.12
414.478	1.08
414.682	1.16
414.886	1.26
415.091	1.18
415.295	1.27
415.499	1.43
415.703	1.37
415.908	1.46
416.112	1.36
416.316	1.61
416.52	1.6
416.724	1.58
416.929	1.59
417.133	1.9
417.337	1.7
417.541	1.85
417.745	1.86
417.949	1.96
418.153	2.01
418.357	2
418.561	2.29
418.765	2.23
418.969	2.41
419.173	2.47
419.377	2.35
419.581	2.73
419.785	2.63
419.989	2.65
420.193	2.8
420.397	2.95
420.601	3.02
420.804	3.19
421.008	3.05
421.212	3.23
421.416	3.32
421.62	3.34
421.823	3.42
422.027	3.6
422.231	3.57
422.435	3.53
422.638	3.54
422.842	3.68
423.046	3.69
423.249	4
423.453	3.98
423.657	4.16
423.86	4.27
424.064	4.34
424.268	4.45
424.471	4.53
424.675	4.76
424.878	4.76
425.082	4.97
425.285	5.26
425.489	5.2
425.692	5.34
425.896	5.23
426.099	5.52
426.303	5.7
426.506	5.75
426.71	5.99
426.913	6.32
427.116	6.4
427.32	6.36
427.523	6.41
427.726	6.8
427.93	6.94
428.133	7.22
428.336	7.25
428.54	7.45
428.743	7.71
428.946	7.95
429.149	7.94
429.353	7.95
429.556	8.08
429.759	8.13
429.962	8.22
430.165	8.36
430.368	7.98
430.571	8.05
430.775	8.08
430.978	8.1
431.181	8.19
431.384	8.25
431.587	8.36
431.79	8.8
431.993	8.76
432.196	9.03
432.399	9.32
432.602	9.58
432.805	9.55
433.008	10.14
433.211	10.03
433.414	10.26
433.616	10.37
433.819	10.34
434.022	10.46
434.225	10.65
434.428	10.66
434.631	11.15
434.833	10.96
435.036	11.28
435.239	11.35
435.442	11.44
435.645	11.5
435.847	11.66
436.05	12.01
436.253	12.14
436.455	12.27
436.658	12.08
436.861	12.35
437.063	12.49
437.266	12.39
437.468	12.81
437.671	13.17
437.874	13.15
438.076	13.07
438.279	13.55
438.481	13.53
438.684	14.34
438.886	13.84
439.089	14.14
439.291	14.21
439.494	14.6
439.696	14.83
439.899	15.34
440.101	15.76
440.303	15.76
440.506	16.51
440.708	16.28
440.91	16.64
441.113	16.81
441.315	16.98
441.517	16.75
441.72	17.34
441.922	16.96
442.124	16.86
442.326	17.28
442.529	17.48
442.731	17.4
442.933	17.81
443.135	17.48
443.337	17.59
443.539	18.16
443.742	17.77
443.944	18.44
444.146	18.1
444.348	18.22
444.55	17.99
444.752	18.2
444.954	18.16
445.156	18.06
445.358	18.45
445.56	18.7
445.762	18.5
445.964	18.8
446.166	18.67
446.368	18.66
446.57	18.59
446.772	18.16
446.974	17.93
447.175	18.39
447.377	17.9
447.579	18.33
447.781	18.04
447.983	17.7
448.184	17.32
448.386	17.88
448.588	17.22
448.79	17.11
448.991	17.52
449.193	17.54
449.395	16.75
449.597	16.37
449.798	16.34
450	15.94
450.202	15.77
450.403	15.83
450.605	15.75
450.806	15.31
451.008	15.11
451.21	14.91
451.411	14.45
451.613	13.7
451.814	14.08
452.016	14.07
452.217	13.21
452.419	13.34
452.62	12.84
452.821	12.57
453.023	12.64
453.224	12.23
453.426	11.85
453.627	11.06
453.828	11.21
454.03	11.19
454.231	11.15
454.432	10.96
454.634	10.73
454.835	10.54
455.036	10.36
455.238	10
455.439	9.79
455.64	9.47
455.841	9.3
456.042	9.5
456.244	9.09
456.445	8.83
456.646	8.52
456.847	8.55
457.048	8.44
457.249	8.37
457.45	8.31
457.651	7.68
457.852	7.53
458.054	7.26
458.255	7.15
458.456	7.28
458.657	7.09
458.858	6.73
459.058	6.6
459.259	6.76
459.46	6.34
459.661	6.36
459.862	6.43
460.063	6.32
460.264	6.13
460.465	5.89
460.666	6.05
460.866	5.83
461.067	5.47
461.268	5.59
461.469	5.4
461.67	5.35
461.87	5.25
462.071	5.22
462.272	5.08
462.473	5.02
462.673	5.29
462.874	5.14
463.075	5.11
463.275	5.18
463.476	5.22
463.676	5.02
463.877	4.89
464.078	4.86
464.278	5
464.479	4.83
464.679	4.72
464.88	4.6
465.08	4.68
465.281	4.53
465.481	4.27
465.682	4.1
465.882	4.17
466.083	4.15
466.283	3.94
466.483	3.87
466.684	3.71
466.884	3.65
467.085	3.67
467.285	3.72
467.485	3.55
467.686	3.54
467.886	3.38
468.086	3.34
468.286	3.33
468.487	3.42
468.687	3.28
468.887	3.18
469.087	3.3
469.287	3.23
469.488	3.03
469.688	3.2
469.888	3.24
470.088	3.14
470.288	3.09
470.488	3.05
470.688	2.83
470.888	2.81
471.088	2.65
471.288	2.81
471.488	2.85
471.688	2.76
471.888	2.63
472.088	2.89
472.288	2.69
472.488	2.6
472.688	2.57
472.888	2.61
473.088	2.56
473.288	2.47
473.488	2.42
473.688	2.59
473.887	2.49
474.087	2.39
474.287	2.42
474.487	2.34
474.687	2.45
474.886	2.35
475.086	2.26
475.286	2.3
475.486	2.23
475.685	2.23
475.885	2.23
476.085	2.28
476.284	2.27
476.484	2.25
476.684	2.24
476.883	2.28
477.083	2.24
477.282	2.1
477.482	2.2
477.681	2.14
477.881	2.07
478.08	2.09
478.28	1.98
478.479	2.08
478.679	2.17
478.878	2.03
479.078	2.01
479.277	2.1
479.477	2.04
479.676	2.03
479.875	2
480.075	1.94
480.274	2.02
480.473	2.06
480.673	1.99
480.872	2.05
481.071	2.03
481.271	2.04
481.47	2.02
481.669	2.04
481.868	2
482.067	2
482.267	1.93
482.466	1.92
482.665	1.92
482.864	1.94
483.063	1.93
483.262	2.02
483.461	2.06
483.661	2.1
483.86	1.98
484.059	2.04
484.258	2.01
484.457	2.01
484.656	2.01
484.855	2.11
485.054	1.91
485.253	2
485.452	1.98
485.651	2.05
485.849	2.03
486.048	2
486.247	2.03
486.446	2.09
486.645	2.05
486.844	2.02
487.043	2.02
487.241	2.07
487.44	2.06
487.639	2.14
487.838	2.12
488.037	2.12
488.235	2.22
488.434	2.17
488.633	2.05
488.831	2.22
489.03	2.24
489.229	2.21
489.427	2.28
489.626	2.31
489.825	2.26
490.023	2.32
490.222	2.28
490.42	2.31
490.619	2.38
490.817	2.38
491.016	2.36
491.214	2.4
491.413	2.43
491.611	2.38
491.81	2.41
492.008	2.44
492.207	2.55
492.405	2.52
492.604	2.42
492.802	2.55
493	2.6
493.199	2.63
493.397	2.62
493.595	2.72
493.794	2.66
493.992	2.81
494.19	2.75
494.388	2.81
494.587	2.73
494.785	2.81
494.983	2.74
495.181	2.86
495.379	2.92
495.578	2.99
495.776	2.92
495.974	2.95
496.172	3
496.37	3.09
496.568	3.08
496.766	3.1
496.964	3.19
497.162	3.18
497.36	3.22
497.558	3.24
497.756	3.32
497.954	3.26
498.152	3.37
498.35	3.43
498.548	3.39
498.746	3.39
498.944	3.4
499.142	3.43
499.34	3.51
499.538	3.62
499.736	3.49
499.933	3.6
500.131	3.62
500.329	3.76
500.527	3.72
500.725	3.87
500.922	3.84
501.12	3.89
501.318	3.96
501.516	3.97
501.713	4.03
501.911	4.02
502.109	3.96
502.306	4.1
502.504	3.99
502.701	4.09
502.899	4.17
503.097	4.36
503.294	4.24
503.492	4.38
503.689	4.38
503.887	4.4
504.084	4.46
504.282	4.37
504.479	4.44
504.677	4.58
504.874	4.56
505.072	4.47
505.269	4.65
505.466	4.7
505.664	4.8
505.861	4.63
506.059	4.75
506.256	4.79
506.453	4.86
506.651	4.97
506.848	4.98
507.045	4.98
507.242	4.98
507.44	5.03
507.637	5.11
507.834	5.07
508.031	5.25
508.229	5.12
508.426	5.07
508.623	5.31
508.82	5.29
509.017	5.23
509.214	5.25
509.411	5.37
509.608	5.39
509.805	5.53
510.003	5.43
510.2	5.52
510.397	5.66
510.594	5.54
510.791	5.61
510.988	5.68
511.184	5.6
511.381	5.56
511.578	5.69
511.775	5.84
511.972	5.74
512.169	5.8
512.366	5.82
512.563	5.94
512.76	5.95
512.956	6.04
513.153	5.95
513.35	5.9
513.547	5.94
513.744	6.05
513.94	6.04
514.137	6.17
514.334	6.13
514.53	6.2
514.727	6.4
514.924	6.26
515.12	6.29
515.317	6.29
515.514	6.25
515.71	6.19
515.907	6.5
516.103	6.45
516.3	6.35
516.497	6.46
516.693	6.46
516.89	6.49
517.086	6.47
517.283	6.51
517.479	6.51
517.676	6.6
517.872	6.63
518.068	6.65
518.265	6.66
518.461	6.6
518.658	6.72
518.854	6.7
519.05	6.83
519.247	6.91
519.443	6.81
519.639	6.89
519.836	6.81
520.032	6.73
520.228	6.93
520.424	6.94
520.621	6.94
520.817	6.99
521.013	6.89
521.209	7.12
521.405	7.09
521.601	7.05
521.798	7.03
521.994	7.1
522.19	6.98
522.386	7.01
522.582	7.12
522.778	7.27
522.974	7.11
523.17	7.22
523.366	7.1
523.562	7.23
523.758	7.23
523.954	7.07
524.15	7.27
524.346	7.29
524.542	7.24
524.738	7.22
524.934	7.39
525.129	7.4
525.325	7.29
525.521	7.25
525.717	7.48
525.913	7.3
526.109	7.37
526.304	7.51
526.5	7.41
526.696	7.49
526.892	7.41
527.087	7.63
527.283	7.54
527.479	7.55
527.674	7.33
527.87	7.52
528.066	7.5
528.261	7.54
528.457	7.45
528.653	7.63
528.848	7.59
529.044	7.66
529.239	7.53
529.435	7.62
529.63	7.52
529.826	7.57
530.021	7.58
530.217	7.63
530.412	7.57
530.608	7.64
530.803	7.7
530.999	7.54
531.194	7.66
531.389	7.79
531.585	7.7
531.78	7.83
531.975	7.71
532.171	7.81
532.366	7.71
532.561	7.75
532.757	7.72
532.952	7.88
533.147	7.62
533.342	7.81
533.538	7.73
533.733	7.95
533.928	7.57
534.123	7.79
534.318	7.86
534.513	7.76
534.709	7.96
534.904	7.85
535.099	7.85
535.294	7.88
535.489	7.92
535.684	7.85
535.879	7.88
536.074	7.89
536.269	7.93
536.464	7.97
536.659	7.89
536.854	7.89
537.049	8.03
537.244	7.9
537.439	7.9
537.634	7.92
537.828	7.97
538.023	7.91
538.218	7.96
538.413	7.82
538.608	7.95
538.803	7.93
538.997	7.91
539.192	8.02
539.387	7.91
539.582	7.96
539.776	7.93
539.971	8
540.166	8.11
540.36	7.95
540.555	8.13
540.75	8.04
540.944	8.01
541.139	8.11
541.334	8.04
541.528	7.99
541.723	8.09
541.917	8.15
542.112	7.98
542.306	7.88
542.501	7.98
542.695	8.01
542.89	7.97
543.084	8.03
543.279	7.99
543.473	8.06
543.668	8.1
543.862	7.94
544.056	7.92
544.251	8.07
544.445	8.08
544.64	8.15
544.834	7.84
545.028	7.68
545.222	8.03
545.417	8.25
545.611	8.17
545.805	8
546	7.84
546.194	8.12
546.388	8.21
546.582	8
546.776	8.02
546.97	8.11
547.165	8.09
547.359	8.09
547.553	7.98
547.747	8.05
547.941	8.28
548.135	8.01
548.329	8.15
548.523	8.11
548.717	8.01
548.911	8.03
549.105	8.01
549.299	8.1
549.493	8.12
549.687	8.04
549.881	8.2
550.075	8.14
550.269	8.04
550.463	8.14
550.657	8.09
550.85	8.14
551.044	8.02
551.238	8.13
551.432	8.08
551.626	8.17
551.82	8.2
552.013	7.91
552.207	8.2
552.401	8.24
552.594	8.12
552.788	8.07
552.982	8
553.176	8.07
553.369	8.28
553.563	8.14
553.756	8.07
553.95	8.11
554.144	8.16
554.337	8.17
554.531	7.95
554.724	8.07
554.918	8.21
555.111	8.11
555.305	8.12
555.498	8.08
555.692	8.18
555.885	8.12
556.079	8.05
556.272	8.18
556.466	8.15
556.659	8.07
556.852	8.22
557.046	8.06
557.239	7.97
557.432	8.04
557.626	8.13
557.819	8.18
558.012	8.14
558.206	8.21
558.399	8.14
558.592	8.09
558.785	8.09
558.979	8.12
559.172	8.12
559.365	8.21
559.558	8.06
559.751	8.01
559.944	8.22
560.138	8.14
560.331	8.18
560.524	8.2
560.717	8.06
560.91	8.18
561.103	8.17
561.296	8.01
561.489	8.14
561.682	8.19
561.875	8.17
562.068	8.23
562.261	8.04
562.454	8.29
562.647	8.13
562.84	8.12
563.032	8.16
563.225	8.04
563.418	8.07
563.611	8.16
563.804	8.13
563.997	7.96
564.19	7.9
564.382	8.2
564.575	8.12
564.768	8.09
564.961	8.18
565.153	8
565.346	8.07
565.539	8.18
565.731	8.09
565.924	8.16
566.117	8.21
566.309	8.13
566.502	8.1
566.695	8.06
566.887	8.17
567.08	8.14
567.272	8.19
567.465	8.01
567.657	8.14
567.85	7.99
568.042	8.08
568.235	8.12
568.427	7.93
568.62	8.1
568.812	8.05
569.005	8.18
569.197	7.99
569.389	8.07
569.582	8.13
569.774	8.05
569.966	7.94
570.159	7.99
570.351	7.99
570.543	8
570.736	8.03
570.928	7.85
571.12	8.07
571.312	7.95
571.505	7.81
571.697	8.05
571.889	8.08
572.081	8.04
572.273	7.96
572.465	8.04
572.658	8.01
572.85	8.04
573.042	8.07
573.234	7.91
573.426	7.97
573.618	7.96
573.81	7.94
574.002	7.98
574.194	7.99
574.386	7.89
574.578	7.78
574.77	7.93
574.962	7.97
575.154	7.83
575.346	7.89
575.538	7.86
575.729	7.81
575.921	7.93
576.113	8
576.305	7.94
576.497	8.01
576.689	7.8
576.88	7.72
577.072	8.02
577.264	7.88
577.456	7.91
577.647	7.81
577.839	8
578.031	7.9
578.223	7.84
578.414	7.7
578.606	7.84
578.798	7.93
578.989	7.88
579.181	7.89
579.372	7.87
579.564	7.84
579.755	7.78
579.947	7.76
580.139	7.86
580.33	7.64
580.522	7.77
580.713	7.66
580.905	7.71
581.096	7.84
581.287	7.75
581.479	7.72
581.67	7.83
581.862	7.66
582.053	7.72
582.244	7.58
582.436	7.84
582.627	7.64
582.818	7.64
583.01	7.64
583.201	7.68
583.392	7.6
583.583	7.6
583.775	7.5
583.966	7.63
584.157	7.69
584.348	7.72
584.54	7.62
584.731	7.63
584.922	7.49
585.113	7.44
585.304	7.64
585.495	7.55
585.686	7.66
585.877	7.62
586.068	7.72
586.259	7.61
586.45	7.51
586.641	7.49
586.832	7.58
587.023	7.52
587.214	7.47
587.405	7.52
587.596	7.41
587.787	7.41
587.978	7.48
588.169	7.44
588.36	7.32
588.551	7.49
588.742	7.41
588.932	7.44
589.123	7.22
589.314	7.5
589.505	7.29
589.696	7.4
589.886	7.32
590.077	7.35
590.268	7.33
590.458	7.29
590.649	7.13
590.84	7.35
591.03	7.33
591.221	7.33
591.412	7.11
591.602	7.37
591.793	7.25
591.984	7.26
592.174	7.23
592.365	7.41
592.555	7.09
592.746	7.08
592.936	7.16
593.127	7.23
593.317	7.24
593.508	7.15
593.698	7.14
593.889	7.16
594.079	7.16
594.269	7.05
594.46	7
594.65	7.14
594.84	7.11
595.031	6.95
595.221	7.03
595.411	7.05
595.602	7.11
595.792	6.99
595.982	6.9
596.172	7.08
596.363	6.88
596.553	6.87
596.743	6.98
596.933	6.94
597.123	6.94
597.314	6.84
597.504	6.76
597.694	6.91
597.884	6.88
598.074	6.83
598.264	6.79
598.454	6.79
598.644	6.82
598.834	6.81
599.024	6.68
599.214	6.69
599.404	6.87
599.594	6.73
599.784	6.66
599.974	6.75
600.164	6.75
600.354	6.62
600.544	6.57
600.734	6.71
600.924	6.61
601.114	6.54
601.303	6.59
601.493	6.6
601.683	6.6
601.873	6.54
602.063	6.51
602.252	6.51
602.442	6.4
602.632	6.44
602.821	6.38
603.011	6.51
603.201	6.41
603.39	6.4
603.58	6.35
603.77	6.43
603.959	6.47
604.149	6.36
604.339	6.37
604.528	6.44
604.718	6.38
604.907	6.34
605.097	6.26
605.286	6.25
605.476	6.24
605.665	6.26
605.855	6.21
606.044	6.32
606.234	6.25
606.423	6.15
606.612	6.11
606.802	6.13
606.991	6.26
607.181	6.25
607.37	6.17
607.559	5.96
607.749	6.16
607.938	6.07
608.127	6.01
608.316	6.03
608.506	6.05
608.695	6.11
608.884	5.98
609.073	6.03
609.263	6.1
609.452	6.07
609.641	5.9
609.83	5.83
610.019	5.93
610.208	5.84
610.397	5.85
610.586	5.88
610.775	5.78
610.965	5.81
611.154	5.72
611.343	5.81
611.532	5.73
611.721	5.81
611.91	5.71
612.099	5.74
612.287	5.63
612.476	5.59
612.665	5.76
612.854	5.62
613.043	5.65
613.232	5.66
613.421	5.58
613.61	5.57
613.798	5.59
613.987	5.63
614.176	5.6
614.365	5.57
614.554	5.54
614.742	5.52
614.931	5.43
615.12	5.51
615.309	5.5
615.497	5.4
615.686	5.28
615.875	5.41
616.063	5.36
616.252	5.32
616.44	5.32
616.629	5.29
616.818	5.38
617.006	5.25
617.195	5.21
617.383	5.21
617.572	5.18
617.76	5.19
617.949	5.16
618.137	5.31
618.326	5.28
618.514	5.02
618.703	5.09
618.891	5.13
619.079	5.08
619.268	5.12
619.456	5
619.644	5.18
619.833	5.06
620.021	4.99
620.209	4.94
620.398	5.05
620.586	4.95
620.774	5.02
620.962	4.96
621.151	5.06
621.339	4.9
621.527	4.8
621.715	4.87
621.903	4.86
622.092	4.72
622.28	4.9
622.468	4.67
622.656	4.81
622.844	4.78
623.032	4.85
623.22	4.65
623.408	4.83
623.596	4.75
623.784	4.74
623.972	4.63
624.16	4.66
624.348	4.78
624.536	4.69
624.724	4.56
624.912	4.64
625.1	4.67
625.288	4.6
625.476	4.56
625.664	4.57
625.851	4.53
626.039	4.57
626.227	4.45
626.415	4.53
626.603	4.42
626.79	4.51
626.978	4.46
627.166	4.48
627.354	4.39
627.541	4.37
627.729	4.29
627.917	4.49
628.104	4.46
628.292	4.42
628.48	4.3
628.667	4.28
628.855	4.38
629.042	4.41
629.23	4.25
629.418	4.23
629.605	4.22
629.793	4.13
629.98	4.18
630.168	4.15
630.355	4.21
630.543	4.15
630.73	4.05
630.917	4.13
631.105	4.26
631.292	4.07
631.48	4.08
631.667	4.21
631.854	4.05
632.042	4.05
632.229	3.97
632.416	4.04
632.604	3.97
632.791	3.92
632.978	4.01
633.165	3.96
633.353	4.05
633.54	3.96
633.727	3.83
633.914	3.82
634.101	3.8
634.289	3.94
634.476	3.79
634.663	3.79
634.85	3.79
635.037	3.7
635.224	3.73
635.411	3.82
635.598	3.81
635.785	3.73
635.972	3.68
636.159	3.73
636.346	3.67
636.533	3.65
636.72	3.64
636.907	3.67
637.094	3.65
637.281	3.57
637.468	3.53
637.655	3.55
637.842	3.61
638.029	3.59
638.215	3.54
638.402	3.49
638.589	3.49
638.776	3.48
638.963	3.42
639.149	3.53
639.336	3.57
639.523	3.47
639.709	3.42
639.896	3.41
640.083	3.42
640.27	3.47
640.456	3.39
640.643	3.35
640.829	3.24
641.016	3.3
641.203	3.27
641.389	3.28
641.576	3.3
641.762	3.27
641.949	3.23
642.135	3.22
642.322	3.21
642.508	3.16
642.695	3.22
642.881	3.19
643.068	3.16
643.254	3.18
643.441	3.16
643.627	3.22
643.813	3.1
644	3.14
644.186	3.04
644.372	3.11
644.559	3.11
644.745	3.04
644.931	3
645.118	2.99
645.304	3.01
645.49	2.95
645.676	2.93
645.862	2.99
646.049	3.01
646.235	2.95
646.421	3.08
646.607	3.08
646.793	2.91
646.979	2.83
647.165	2.89
647.352	2.88
647.538	2.94
647.724	2.87
647.91	2.79
648.096	2.85
648.282	2.88
648.468	2.78
648.654	2.81
648.84	2.81
649.026	2.8
649.212	2.72
649.397	2.73
649.583	2.73
649.769	2.77
649.955	2.71
650.141	2.72
650.327	2.78
650.513	2.66
650.698	2.67
650.884	2.54
651.07	2.7
651.256	2.64
651.442	2.59
651.627	2.56
651.813	2.65
651.999	2.56
652.184	2.55
652.37	2.58
652.556	2.51
652.741	2.6
652.927	2.38
653.113	2.49
653.298	2.55
653.484	2.47
653.669	2.42
653.855	2.5
654.04	2.51
654.226	2.5
654.412	2.42
654.597	2.39
654.782	2.46
654.968	2.45
655.153	2.38
655.339	2.38
655.524	2.32
655.71	2.4
655.895	2.31
656.08	2.31
656.266	2.42
656.451	2.36
656.636	2.27
656.822	2.32
657.007	2.31
657.192	2.26
657.378	2.19
657.563	2.3
657.748	2.26
657.933	2.26
658.118	2.19
658.304	2.2
658.489	2.3
658.674	2.23
658.859	2.12
659.044	2.21
659.229	2.24
659.414	2.14
659.599	2.16
659.785	2.08
659.97	2.15
660.155	2.19
660.34	2.16
660.525	2.08
660.71	2.06
660.895	2.13
661.08	2.02
661.264	2.02
661.449	2.14
661.634	2.02
661.819	2.09
662.004	2.05
662.189	1.92
662.374	1.96
662.559	1.96
662.743	1.88
662.928	1.96
663.113	1.94
663.298	1.89
663.483	1.94
663.667	1.93
663.852	1.92
664.037	1.98
664.221	1.84
664.406	1.99
664.591	1.99
664.775	1.92
664.96	1.88
665.145	1.9
665.329	1.93
665.514	1.86
665.698	1.8
665.883	1.78
666.068	1.92
666.252	1.86
666.437	1.77
666.621	1.83
666.806	1.8
666.99	1.76
667.174	1.79
667.359	1.86
667.543	1.81
667.728	1.74
667.912	1.66
668.096	1.77
668.281	1.72
668.465	1.74
668.649	1.73
668.834	1.7
669.018	1.77
669.202	1.69
669.387	1.64
669.571	1.78
669.755	1.61
669.939	1.6
670.124	1.62
670.308	1.7
670.492	1.71
670.676	1.68
670.86	1.64
671.044	1.56
671.228	1.64
671.413	1.65
671.597	1.6
671.781	1.6
671.965	1.66
672.149	1.54
672.333	1.58
672.517	1.53
672.701	1.59
672.885	1.6
673.069	1.46
673.253	1.65
673.437	1.54
673.621	1.52
673.804	1.58
673.988	1.61
674.172	1.54
674.356	1.46
674.54	1.49
674.724	1.59
674.908	1.44
675.091	1.5
675.275	1.51
675.459	1.56
675.643	1.45
675.826	1.44
676.01	1.45
676.194	1.45
676.377	1.47
676.561	1.45
676.745	1.47
676.928	1.48
677.112	1.48
677.296	1.3
677.479	1.41
677.663	1.39
677.846	1.45
678.03	1.35
678.213	1.29
678.397	1.42
678.58	1.39
678.764	1.36
678.947	1.35
679.131	1.31
679.314	1.44
679.498	1.37
679.681	1.32
679.865	1.43
680.048	1.33
680.231	1.32
680.415	1.28
680.598	1.21
680.781	1.22
680.965	1.29
681.148	1.3
681.331	1.29
681.514	1.36
681.698	1.19
681.881	1.27
682.064	1.28
682.247	1.3
682.43	1.12
682.614	1.32
682.797	1.29
682.98	1.27
683.163	1.12
683.346	1.23
683.529	1.19
683.712	1.19
683.895	1.25
684.078	1.16
684.261	1.21
684.444	1.23
684.627	1.21
684.81	1.18
684.993	1.16
685.176	1.23
685.359	1.14
685.542	1.14
685.725	1.27
685.908	1.19
686.091	1.16
686.274	1.14
686.457	1.24
686.639	1.16
686.822	1.16
687.005	1.15
687.188	1.13
687.371	1.28
687.553	1.15
687.736	1.17
687.919	1.27
688.102	1.23
688.284	1.06
688.467	1.1
688.65	1.16
688.832	1.05
689.015	1.05
689.197	0.99
689.38	1.17
689.563	1.14
689.745	1
689.928	1.01
690.11	1.03
690.293	1.05
690.475	0.94
690.658	1.09
690.84	0.98
691.023	1
691.205	0.96
691.388	0.99
691.57	1.07
691.752	0.99
691.935	0.84
692.117	0.95
692.3	1.04
692.482	0.97
692.664	0.87
692.847	0.94
693.029	1.11
693.211	1.03
693.393	0.98
693.576	0.89
693.758	0.96
693.94	1.02
694.122	0.88
694.304	0.9
694.487	0.9
694.669	1.01
694.851	0.82
695.033	0.92
695.215	0.93
695.397	0.91
695.579	0.91
695.761	0.87
695.943	0.86
696.125	1.01
696.308	0.95
696.49	0.79
696.671	1.06
696.853	0.94
697.035	1.06
697.217	0.91
697.399	0.97
697.581	0.81
697.763	0.9
697.945	0.79
698.127	0.89
698.309	0.97
698.491	0.82
698.672	0.87
698.854	0.91
699.036	0.92
699.218	0.81
699.399	0.89
699.581	0.87
699.763	0.86
699.945	0.72
700.126	0.75
700.308	0.89
700.49	0.87
700.671	0.71
700.853	0.77
701.035	0.79
701.216	0.8
701.398	0.73
701.579	0.77
701.761	0.86
701.943	0.73
702.124	0.7
702.306	0.75
702.487	0.96
702.669	0.8
702.85	0.75
703.031	0.72
703.213	0.91
703.394	0.86
703.576	0.67
703.757	1
703.938	0.84
704.12	0.98
704.301	0.76
704.483	0.72
704.664	0.77
704.845	0.85
705.026	0.82
705.208	0.72
705.389	0.84
705.57	0.75
705.751	0.74
705.933	0.8
706.114	0.85
706.295	0.78
706.476	0.64
706.657	0.83
706.838	0.74
707.02	0.83
707.201	0.65
707.382	0.68
707.563	0.82
707.744	0.67
707.925	0.69
708.106	0.69
708.287	0.68
708.468	0.79
708.649	0.73
708.83	0.74
709.011	0.62
709.192	0.77
709.373	0.64
709.554	0.64
709.734	0.78
709.915	0.72
710.096	0.72
710.277	0.55
710.458	0.69
710.639	0.82
710.819	0.54
711	0.62
711.181	0.76
711.362	0.75
711.542	0.66
711.723	0.65
711.904	0.81
712.085	0.72
712.265	0.64
712.446	0.57
712.627	0.71
712.807	0.61
712.988	0.68
713.168	0.54
713.349	0.71
713.53	0.49
713.71	0.51
713.891	0.49
714.071	0.64
714.252	0.6
714.432	0.61
714.613	0.53
714.793	0.62
714.974	0.74
715.154	0.64
715.334	0.65
715.515	0.8
715.695	0.63
715.876	0.59
716.056	0.54
716.236	0.58
716.417	0.6
716.597	0.56
716.777	0.78
716.957	0.62
717.138	0.64
717.318	0.62
717.498	0.48
717.678	0.69
717.859	0.55
718.039	0.56
718.219	0.59
718.399	0.65
718.579	0.58
718.759	0.52
718.939	0.54
719.12	0.64
719.3	0.51
719.48	0.46
719.66	0.41
719.84	0.7
720.02	0.58
720.2	0.51
720.38	0.55
720.56	0.7
720.74	0.54
720.92	0.58
721.1	0.68
721.279	0.69
721.459	0.52
721.639	0.49
721.819	0.57
721.999	0.44
722.179	0.59
722.359	0.46
722.538	0.52
722.718	0.55
722.898	0.52
723.078	0.54
723.257	0.51
723.437	0.61
723.617	0.52
723.797	0.49
723.976	0.54
724.156	0.66
724.336	0.73
724.515	0.73
724.695	0.33
724.874	0.52
725.054	0.65
725.234	0.45
725.413	0.53
725.593	0.54
725.772	0.56
725.952	0.48
726.131	0.44
726.311	0.49
726.49	0.56
726.67	0.49
726.849	0.45
727.028	0.49
727.208	0.44
727.387	0.56
727.567	0.36
727.746	0.49
727.925	0.46
728.105	0.42
728.284	0.42
728.463	0.49
728.643	0.55
728.822	0.37
729.001	0.47
729.18	0.53
729.359	0.64
729.539	0.51
729.718	0.52
729.897	0.63
730.076	0.42
730.255	0.4
730.434	0.53
730.614	0.55
730.793	0.67
730.972	0.4
731.151	0.54
731.33	0.63
731.509	0.64
731.688	0.44
731.867	0.52
732.046	0.31
732.225	0.69
732.404	0.4
732.583	0.37
732.762	0.5
732.941	0.57
733.12	0.54
733.298	0.39
733.477	0.63
733.656	0.54
733.835	0.41
734.014	0.55
734.193	0.4
734.371	0.48
734.55	0.62
734.729	0.35
734.908	0.43
735.086	0.52
735.265	0.57
735.444	0.31
735.623	0.38
735.801	0.34
735.98	0.37
736.159	0.41
736.337	0.53
736.516	0.53
736.694	0.43
736.873	0.34
737.052	0.79
737.23	0.66
737.409	0.49
737.587	0.74
737.766	0.31
737.944	0.55
738.123	0.55
738.301	0.62
738.479	0.56
738.658	0.49
738.836	0.23
739.015	0.42
739.193	0.57
739.371	0.25
739.55	0.4
739.728	0.41
739.906	0.62
740.085	0.75
740.263	0.57
740.441	0.23
740.62	0.83
740.798	0.56
740.976	0.43
741.154	0.34
741.332	0.58
741.511	0.51
741.689	0.46
741.867	0.56
742.045	0.55
742.223	0.47
742.401	0.44
742.579	0.41
742.757	0.59
742.935	0.44
743.114	0.53
743.292	0.43
743.47	0.52
743.648	0.49
743.826	0.27
744.004	0.54
744.181	0.72
744.359	0.5
744.537	0.54
744.715	0.43
744.893	0.55
745.071	0.46
745.249	0.42
745.427	0.38
745.605	0.45
745.782	0.43
745.96	0.46
746.138	0.55
746.316	0.58
746.493	0.4
746.671	0.52
746.849	0.22
747.027	0.56
747.204	0.35
747.382	0.51
747.56	0.26
747.737	0.57
747.915	0.39
748.093	0.45
748.27	0.39
748.448	0.44
748.625	0.32
748.803	0.32
748.98	0.29
749.158	0.46
749.335	0.58
749.513	0.32
749.69	0.34
749.868	0.33
750.045	0.6
750.223	0.37
750.4	0.27
750.578	0.6
750.755	0.4
750.932	0.24
751.11	0.51
751.287	0.39
751.464	0.58
751.642	0.16
751.819	0.47
751.996	0.37
752.173	0.22
752.351	0.19
752.528	0.34
752.705	0.4
752.882	0.23
753.06	0.4
753.237	0.42
753.414	0.65
753.591	0.63
753.768	0.4
753.945	0.38
754.122	0.39
754.299	0.57
754.476	0.35
754.654	0.39
754.831	0.58
755.008	0.5
755.185	0.24
755.362	0.3
755.539	0.54
755.716	0.33
755.892	0.41
756.069	0.29
756.246	0.4
756.423	0.44
756.6	0.58
756.777	0.25
756.954	0.48
757.131	0.38
757.307	0.32
757.484	0.21
757.661	0.39
757.838	0.51
758.015	0.15
758.191	0.48
758.368	0.41
758.545	0.55
758.721	0.42
758.898	0.16
759.075	0.4
759.251	0.59
759.428	0.4
759.605	0.23
759.781	0.35
759.958	0.41
760.134	0.38
760.311	0.29
760.488	0.59
760.664	0.65
760.841	0.43
761.017	0.27
761.194	0.38
761.37	0.45
761.547	0.37
761.723	0.32
761.899	0.64
762.076	0.29
762.252	0.21
762.429	0.25
762.605	0.51
762.781	0.37
762.958	0.43
763.134	0.29
763.31	0.31
763.486	0.57
763.663	0.21
763.839	0.31
764.015	0.15
764.191	0.37
764.368	0.23
764.544	0.21
764.72	0.5
764.896	0.46
765.072	0.47
765.248	0.31
765.425	0.3
765.601	0.47
765.777	0.34
765.953	0.02
766.129	0.32
766.305	0.29
766.481	0.46
766.657	0.41
766.833	0.68
767.009	0.31
767.185	0.35
767.361	0.26
767.537	0.32
767.713	0.61
767.889	0.34
768.065	0.24
768.24	0.56
768.416	0.59
768.592	0.27
768.768	0.37
768.944	0.44
769.12	0.27
769.295	0.38
769.471	0.41
769.647	0.28
769.823	0.53
769.998	0.17
770.174	0.26
770.35	0.76
770.525	0.79
770.701	0.41
770.877	0.39
771.052	0.18
771.228	0.48
771.403	0.44
771.579	0.59
771.755	0.78
771.93	0.21
772.106	0.15
772.281	-0.01
772.457	0.31
772.632	0.46
772.808	0.14
772.983	0.31
773.159	0.13
773.334	0.56
773.509	0.37
773.685	0.12
773.86	0.78
774.036	0.58
774.211	0.36
774.386	0.21
774.562	0.48
774.737	0.59
774.912	0.38
775.087	0.38
775.263	0.39
775.438	0.25
775.613	0.27
775.788	0.31
775.964	0.52
776.139	0.97
776.314	0.15
776.489	0.34
776.664	0.48
776.839	0.25
777.014	0.58
777.19	0.62
777.365	0.56
777.54	0.68
777.715	0.28
777.89	0.31
778.065	0.28
778.24	0.32
778.415	0.43
778.59	0.08
778.765	0.37
778.94	0.58
779.115	0.33
779.289	0.36
779.464	0.33
779.639	0.41
779.814	0.21
779.989	0.21
780.164	0.72
780.339	0.56
780.513	0.32
780.688	0.3
780.863	0.52
781.038	0.62
781.212	0.03
781.387	0.27
781.562	0.86
781.737	0.27
781.911	0.62
782.086	0.07
782.261	0.4
782.435	0.72
782.61	0.09
782.784	0.44
782.959	0.68
783.134	0.35
783.308	0.23
783.483	0.29
783.657	0.96
783.832	0.59
784.006	0.03
784.181	0.47
784.355	0.68
784.53	0.22
784.704	0.13
784.878	0.8
785.053	0.57
785.227	0.66
785.402	0.88
785.576	0.42
785.75	0.35
785.925	0.46
786.099	0.28
786.273	0.46
786.448	0.56
786.622	0.68
786.796	0.32
786.97	0.25
787.145	1.1
787.319	0.29
787.493	0.27
787.667	-0.02
787.841	0.33
788.015	0.69
788.19	0.24
788.364	0.38
788.538	0.8
788.712	0.73
788.886	0.23
789.06	0.65
789.234	0.69
789.408	0
789.582	0.44
789.756	0.38
789.93	0.24
790.104	0.49
790.278	0.42
790.452	0.21
790.626	0.59
790.8	0.16
790.973	0.58
791.147	0.75
791.321	0.79
791.495	0.92
791.669	0.49
791.843	0.59
792.016	0.51
792.19	0.82
792.364	0.25
792.538	1.1
792.711	0.86
792.885	0.31
793.059	0.33
793.233	-0.03
793.406	0.91
793.58	0.59
793.754	0.6
793.927	0.23
794.101	0.83
794.274	0.46
794.448	0.6
794.622	0.03
794.795	1.13
794.969	0.31
795.142	0.7
795.316	0.21
795.489	0.21
795.663	0.92
795.836	0.46
796.009	0.31
796.183	0.71
796.356	0.47
796.53	0.42
796.703	0.28
796.876	1.28
797.05	0.24
797.223	0.21
797.396	0.55
797.57	0.6
797.743	1.08
797.916	0.65
798.09	0.38
798.263	0.8
798.436	0.68
798.609	0.17
798.782	0.33
798.956	0.64
799.129	0.26
799.302	0.23
799.475	0.12
799.648	0.34
799.821	0.63
799.994	0.48
800.167	-0.27
800.34	0.33
800.514	0.43
800.687	0.4
800.86	0.22
801.033	0.63
801.206	0.92
801.379	0.1
801.551	0.74
801.724	0.82
801.897	1.33
802.07	0.18
802.243	0.05
802.416	0.81
802.589	0.25
802.762	0.87
802.935	0.37
803.107	1.06
803.28	0.87
803.453	0.74
803.626	0.33
803.798	0.3
803.971	0.45
804.144	0.21
804.317	0.85
804.489	1
804.662	0.37
804.835	0.32
805.007	0.16
805.18	1.28
805.353	0.58
805.525	0.16
805.698	0.27
805.87	0.94
806.043	0.93
806.215	0.04
806.388	0.42
806.56	0.75
806.733	1.23
806.905	0.8
807.078	0.47
807.25	0.71
807.423	0.8
807.595	0.47
807.768	0.89
807.94	0.83
808.112	0.98
808.285	0.34
808.457	0.34
808.629	0.53
808.802	0.89
808.974	0.72
809.146	0.32
809.318	0.46
809.491	0.72
809.663	0.98
809.835	0.16
810.007	0.93
810.18	0.54
810.352	0.24
810.524	0.28
810.696	0.95
810.868	1.18
811.04	0.4
811.212	0.65
811.384	0.83
811.556	0.87
811.728	0.67
811.901	1.53
812.073	0.74
812.245	1.14
812.417	0.56
812.589	-0.39
812.76	0.92
812.932	0.78
813.104	1.13
813.276	0.4
813.448	1
813.62	0.65
813.792	0.93
813.964	0.43
814.136	0.96
814.307	0.39
814.479	0.32
814.651	0.48
814.823	1.29
814.995	0.34
815.166	0.59
815.338	0.29
815.51	0.11
815.681	1.64
815.853	0.63
816.025	0.45
816.196	1.49
816.368	1.46
816.54	0.43
816.711	0.08
816.883	1.28
817.054	1.77
817.226	-0.25
817.398	1.01
817.569	0.14
817.741	0.9
817.912	0.57
818.084	0.75
818.255	1.14
818.426	0.26
818.598	0.53
818.769	0.04
818.941	1.29
819.112	1.81
819.283	0.87
819.455	0.48
819.626	0.65
819.798	1.15
819.969	0.71
820.14	0.49
820.311	0.53
820.483	1.27
820.654	0.92
820.825	0.6
820.996	0.37
821.168	0.2
821.339	0.52
821.51	0.28
821.681	0.66
821.852	1.21
822.023	0.15
822.195	0.43
822.366	1.69
822.537	0.57
822.708	1.02
822.879	0.22
823.05	1.89
823.221	0.35
823.392	1.13
823.563	0.59
823.734	1.24
823.905	0.57
824.076	0.44
824.247	-0
824.418	0.6
824.589	1.61
824.759	0.4
824.93	0.81
825.101	0.01
825.272	1.57
825.443	0.99
825.614	1.22
825.784	0.18
825.955	1.93
826.126	1.82
826.297	1
826.467	2.03
826.638	2.15
826.809	0.12
826.98	0.78
827.15	1.41
827.321	1.15
827.492	1.96
827.662	1.3
827.833	2.53
828.003	1.58
828.174	0.22
828.345	0.07
828.515	1.49
828.686	1.2
828.856	0.85
829.027	1.19
829.197	0.41
829.368	1.62
829.538	0.31
829.709	-0.04
829.879	0.73
830.049	0.62
830.22	0.89
830.39	0.55
830.56	1.43
830.731	0.88
830.901	0.26
831.072	0.05
831.242	1.11
831.412	1.22
831.582	0.6
831.753	-0.46
831.923	1.69
832.093	0.77
832.263	1.06
832.434	0.42
832.604	0.36
832.774	1.1
832.944	0.66
833.114	0.75
833.284	1.06
833.454	0.94
833.624	-0.3
833.795	1.22
833.965	1.65
834.135	2.21
834.305	-0.51
834.475	-0.04
834.645	1.65
834.815	0.94
834.985	0.84
835.155	0.19
835.325	1.31
835.494	1.48
835.664	0.91
835.834	-0.28
836.004	1.63
836.174	1.08
836.344	0.29
836.514	-0.09
836.684	0.79
836.853	1.43
837.023	1.85
837.193	0.89
837.363	1.29
837.532	2.06
837.702	0.87
837.872	0.36
838.041	1.33
838.211	3
838.381	-0.11
838.55	0.86
838.72	4.02
838.89	2.21
839.059	0.29
839.229	0.39
839.398	4.01
839.568	1.41
839.738	0.92
839.907	1.94
840.077	1.4
840.246	1.11
840.416	0.32
840.585	0
840.755	2.77
840.924	2.33
841.093	0.86
841.263	1.17
841.432	0.94
841.602	0.46
841.771	0.56
841.94	1.12
842.11	3.5
842.279	2.5
842.448	0.09
842.617	-0.31
842.787	2.81
842.956	0.17
843.125	0.71
843.294	1.24
843.464	2.29
843.633	0.91
843.802	0.39
843.971	1.32
844.14	2.19
844.309	2.54
844.479	-0.39
844.648	0.31
844.817	1.11
844.986	0.76
845.155	0.95
845.324	0.2
845.493	0.7
845.662	0.78
845.831	1.71
846	1.83
846.169	1.06
846.338	2.9
846.507	1.15
846.676	1.29
846.844	0.36
847.013	2.65
847.182	0.47
847.351	0.56
847.52	1.38
847.689	1.53
847.858	0.08
848.026	-0.24
848.195	2.16
848.364	0.02
848.533	0.23
848.701	-0.19
848.87	1.84
849.039	3.05
849.207	1.54
849.376	2.04
849.545	3.13
849.713	1.49
849.882	0.58
850.051	1.01
850.219	0.85
850.388	1.99
850.556	0.1
850.725	0.38
850.893	2.53
851.062	1.11
851.23	1.04
851.399	-0.81
851.567	0.71
851.736	0.59
851.904	0.36
852.073	1.22
852.241	2.81
852.41	1.51
852.578	1.16
852.746	-0.17
852.915	2.67
853.083	1.76
853.251	0.1
853.42	0.78
853.588	1.19
853.756	3.72
853.924	0.99
854.093	2.29
854.261	0.97
854.429	0.04
854.597	1.25
854.765	0.26
854.934	3.04
855.102	2.48
855.27	1.48
855.438	1.68
855.606	2.76
855.774	3.6
855.942	-0.68
856.11	0.55
856.278	1.31
856.446	3.82
856.614	1.11
856.782	0.42
856.95	2.54
857.118	2.41
857.286	1.56
857.454	0.85
857.622	2.78
857.79	1.29
857.958	-0.15
858.126	0.64
858.294	-1.57
858.462	0.84
858.629	0.55
858.797	0.01
858.965	2.06
859.133	2.15
859.301	0.93
859.468	2.3
859.636	1.18
859.804	3.93
859.971	3.06
860.139	-0.44
860.307	2.53
860.474	1.41
860.642	-0.1
860.81	0.15
860.977	1.18
861.145	2.91
861.313	1.22
861.48	0.9
861.648	1.47
861.815	1.63
861.983	0.06
862.15	-0.65
862.318	4.2
862.485	3.43
862.653	-0.71
862.82	0.5
862.988	3.65
863.155	3.8
863.322	0.24
863.49	-0.23
863.657	1.79
863.824	3.7
863.992	1.64
864.159	1.59
864.326	3.94
864.494	1.52
864.661	4.82
864.828	-0.46
864.996	4.33
865.163	2.77
865.33	1.59
865.497	-2.26
865.664	0
865.832	-1.58
865.999	-0.28
866.166	0.3
866.333	2.12
866.5	0.6
866.667	2.25
866.834	1.63
867.001	4.73
867.168	-0.49
867.335	2.4
867.502	-1.07
867.669	2.66
867.836	6.51
868.003	1.82
868.17	3.57
868.337	1.15
868.504	6.97
868.671	-1.24
868.838	2.05
869.005	4.3
869.172	3.12
869.339	2.12
869.505	1.17
869.672	2.44
869.839	4.77
870.006	1.86
870.173	-0.5
870.339	3.61
870.506	6.38
870.673	-0.25
870.84	2.27
871.006	3.11
871.173	0.8
871.34	1.74
871.506	0.26
871.673	2.7
871.839	0.3
872.006	1.36
872.173	1.4
872.339	3.52
872.506	3.11
872.672	1.17
872.839	0.18
873.005	2.9
873.172	4.45
873.338	3.52
873.505	0.49
873.671	2.51
873.838	3.24
874.004	-1.48
874.171	-0.05
874.337	2.38
874.503	3.95
874.67	1.02
874.836	1.02
875.002	4.94
875.169	6.9
875.335	1.27
875.501	1.75
875.668	5.43
875.834	0.67
876	0.29
876.166	2.29
876.332	3.52
876.499	5.54
876.665	2.12
876.831	2.19
876.997	7.41
877.163	4.26
877.329	2.14
877.495	3.17
877.662	4.01
877.828	2.25
877.994	1.57
878.16	-2.44
878.326	0.54
878.492	3.39
878.658	0.17
878.824	4.03
878.99	3.44
879.156	2.14
879.322	4.33
879.487	1.94
879.653	2.38
879.819	2.93
879.985	-0.13
880.151	2.2
880.317	3.63
880.483	4.2
880.648	3.94
880.814	-0.45
880.98	2.59
881.146	-1.22
881.312	0.86
881.477	2.35
881.643	0.73
881.809	4.56
881.974	2.62
882.14	-0.17
882.306	3.58
882.471	7.44
882.637	0.73
882.803	1.78
882.968	7
883.134	7.67
883.299	0.88
883.465	0.71
883.63	4.18
883.796	3.43
883.961	3.13
884.127	3.29
884.292	-3.08
884.458	-1.01
884.623	-1.01
