Data from Apollo_Calib_20240827__AbsoluteIrradiance__786__12-15-00-568.txt Node

Date: Wed Aug 28 12:15:00 BST 2024
User: biology
Spectrometer: FLMT08252
Trigger mode: 0
Integration Time (sec): 5.000000E-1
Scans to average: 5
Electric dark correction enabled: true
Nonlinearity correction enabled: false
Boxcar width: 0
XAxis mode: Wavelengths
Number of Pixels in Spectrum: 3648
>>>>>Begin Spectral Data<<<<<
179.588	-0
179.809	-0
180.03	-0
180.251	-0
180.473	-0
180.694	0
180.915	0
181.136	-0
181.357	0
181.578	-0
181.799	0
182.02	-0
182.241	0
182.462	-0
182.683	0
182.904	-0
183.125	-0
183.346	0
183.567	0
183.788	0
184.009	0
184.23	0
184.451	0
184.672	0
184.892	0
185.113	0
185.334	0
185.555	0
185.776	0
185.996	0
186.217	0
186.438	0
186.659	0
186.879	0
187.1	0
187.321	0
187.541	0
187.762	0
187.983	0
188.203	0
188.424	0
188.644	0
188.865	0
189.086	0
189.306	0
189.527	0
189.747	0
189.968	0
190.188	0
190.409	0
190.629	0
190.849	0
191.07	0
191.29	0
191.511	0
191.731	0
191.951	0
192.172	0
192.392	0
192.612	0
192.833	0
193.053	0
193.273	0
193.493	0
193.714	0
193.934	0
194.154	0
194.374	0
194.594	0
194.815	0
195.035	0
195.255	0
195.475	0
195.695	0
195.915	0
196.135	0
196.355	0
196.575	0
196.795	0
197.015	0
197.235	0
197.455	0
197.675	0
197.895	0
198.115	0
198.335	0
198.555	0
198.775	0
198.995	0
199.214	0
199.434	0
199.654	0
199.874	0
200.094	4.27
200.313	3.01
200.533	1.76
200.753	1.81
200.973	3.93
201.192	3.77
201.412	1.52
201.632	2.07
201.851	3.44
202.071	1.81
202.291	1.86
202.51	1.81
202.73	2.52
202.95	1.91
203.169	1.06
203.389	1.9
203.608	2.62
203.828	1.95
204.047	1.58
204.267	2.39
204.486	2.03
204.706	2.22
204.925	1.7
205.145	1.63
205.364	2.23
205.583	2.84
205.803	1.7
206.022	1.25
206.242	1.4
206.461	1.7
206.68	1.41
206.9	1.74
207.119	2.81
207.338	2.49
207.557	0.99
207.777	1.36
207.996	1.4
208.215	2.48
208.434	1.06
208.654	1.13
208.873	1.6
209.092	2.21
209.311	1.13
209.53	1.34
209.749	0.98
209.968	1.1
210.187	1.03
210.407	0.83
210.626	1.32
210.845	1.7
211.064	0.86
211.283	0.86
211.502	1.64
211.721	1.11
211.94	0.95
212.159	1.49
212.377	1.24
212.596	1.58
212.815	1.18
213.034	1.14
213.253	1.52
213.472	1.45
213.691	1.02
213.91	0.76
214.128	0.98
214.347	1.38
214.566	0.67
214.785	0.52
215.003	1.23
215.222	1.18
215.441	1.05
215.66	0.69
215.878	1.03
216.097	1.15
216.316	0.83
216.534	0.95
216.753	1.38
216.972	0.87
217.19	0.9
217.409	0.8
217.627	0.72
217.846	0.82
218.064	0.93
218.283	0.62
218.501	1.44
218.72	1.23
218.938	0.67
219.157	0.71
219.375	1.11
219.594	1.08
219.812	0.45
220.031	0.48
220.249	1.27
220.467	1.2
220.686	0.58
220.904	0.64
221.122	0.91
221.341	1.16
221.559	0.92
221.777	0.59
221.995	0.95
222.214	1.08
222.432	0.59
222.65	0.89
222.868	0.87
223.086	0.85
223.305	0.96
223.523	0.7
223.741	1.21
223.959	0.64
224.177	0.27
224.395	0.55
224.613	0.85
224.831	0.85
225.049	0.41
225.267	0.6
225.485	0.73
225.703	0.72
225.921	0.64
226.139	0.48
226.357	0.78
226.575	0.82
226.793	0.6
227.011	1.61
227.229	0.72
227.447	0.89
227.665	0.58
227.883	0.41
228.1	0.63
228.318	0.66
228.536	0.29
228.754	0.53
228.972	0.79
229.189	0.84
229.407	0.6
229.625	0.68
229.843	0.83
230.06	0.83
230.278	0.53
230.496	0.58
230.713	0.72
230.931	0.84
231.149	0.46
231.366	0.49
231.584	0.58
231.801	1.06
232.019	0.54
232.236	0.34
232.454	0.54
232.671	0.63
232.889	0.46
233.106	0.39
233.324	0.76
233.541	0.55
233.759	0.5
233.976	0.42
234.194	0.64
234.411	0.63
234.628	0.39
234.846	0.48
235.063	0.52
235.28	0.56
235.498	0.49
235.715	0.33
235.932	0.88
236.149	0.61
236.367	0.39
236.584	0.58
236.801	0.45
237.018	0.71
237.236	0.48
237.453	0.4
237.67	0.67
237.887	0.58
238.104	0.46
238.321	0.35
238.538	0.39
238.755	0.72
238.973	0.33
239.19	0.54
239.407	0.66
239.624	0.59
239.841	0.39
240.058	0.4
240.275	0.54
240.492	0.59
240.709	0.57
240.925	0.49
241.142	0.53
241.359	0.43
241.576	0.41
241.793	0.44
242.01	0.47
242.227	0.66
242.444	0.48
242.66	0.66
242.877	0.52
243.094	0.47
243.311	0.42
243.527	0.5
243.744	0.51
243.961	0.47
244.178	0.36
244.394	0.39
244.611	0.64
244.828	0.74
245.044	0.41
245.261	0.38
245.477	0.48
245.694	0.64
245.911	0.43
246.127	0.45
246.344	0.72
246.56	0.55
246.777	0.37
246.993	0.41
247.21	0.51
247.426	0.47
247.643	0.4
247.859	0.31
248.076	0.37
248.292	0.68
248.508	0.36
248.725	0.4
248.941	0.44
249.157	0.61
249.374	0.33
249.59	0.41
249.806	0.42
250.023	0.49
250.239	0.34
250.455	0.32
250.671	0.47
250.888	0.41
251.104	0.45
251.32	0.36
251.536	0.44
251.752	0.39
251.969	0.4
252.185	0.38
252.401	0.71
252.617	0.5
252.833	0.3
253.049	0.36
253.265	0.47
253.481	0.43
253.697	0.39
253.913	0.26
254.129	0.49
254.345	0.41
254.561	0.42
254.777	0.38
254.993	0.51
255.209	0.47
255.425	0.39
255.641	0.32
255.857	0.5
256.073	0.49
256.288	0.28
256.504	0.33
256.72	0.47
256.936	0.58
257.152	0.34
257.367	0.31
257.583	0.45
257.799	0.47
258.015	0.41
258.23	0.41
258.446	0.6
258.662	0.4
258.877	0.36
259.093	0.26
259.309	0.47
259.524	0.45
259.74	0.28
259.955	0.24
260.171	0.43
260.387	0.44
260.602	0.44
260.818	0.41
261.033	0.3
261.249	0.4
261.464	0.35
261.68	0.24
261.895	0.47
262.11	0.47
262.326	0.29
262.541	0.27
262.757	0.47
262.972	0.46
263.187	0.4
263.403	0.41
263.618	0.55
263.833	0.42
264.049	0.32
264.264	0.36
264.479	0.42
264.694	0.55
264.91	0.29
265.125	0.38
265.34	0.43
265.555	0.56
265.77	0.37
265.986	0.31
266.201	0.49
266.416	0.43
266.631	0.32
266.846	0.35
267.061	0.43
267.276	0.43
267.491	0.19
267.706	0.39
267.921	0.43
268.136	0.39
268.351	0.28
268.566	0.28
268.781	0.45
268.996	0.47
269.211	0.32
269.426	0.28
269.641	0.38
269.856	0.45
270.071	0.31
270.285	0.25
270.5	0.44
270.715	0.42
270.93	0.32
271.145	0.33
271.359	0.4
271.574	0.3
271.789	0.27
272.004	0.29
272.218	0.29
272.433	0.36
272.648	0.23
272.862	0.41
273.077	0.35
273.292	0.37
273.506	0.31
273.721	0.29
273.936	0.44
274.15	0.44
274.365	0.34
274.579	0.38
274.794	0.41
275.008	0.44
275.223	0.27
275.437	0.33
275.652	0.41
275.866	0.39
276.081	0.36
276.295	0.38
276.509	0.39
276.724	0.38
276.938	0.34
277.153	0.36
277.367	0.39
277.581	0.28
277.796	0.3
278.01	0.19
278.224	0.45
278.438	0.45
278.653	0.28
278.867	0.32
279.081	0.2
279.295	0.37
279.51	0.39
279.724	0.2
279.938	0.37
280.152	0.44
280.366	0.22
280.58	0.33
280.794	0.49
281.008	0.41
281.222	0.37
281.437	0.51
281.651	0.37
281.865	0.39
282.079	0.28
282.293	0.16
282.507	0.31
282.721	0.31
282.935	0.32
283.148	0.23
283.362	0.28
283.576	0.25
283.79	0.28
284.004	0.26
284.218	0.41
284.432	0.24
284.646	0.3
284.859	0.26
285.073	0.29
285.287	0.27
285.501	0.3
285.714	0.25
285.928	0.34
286.142	0.31
286.356	0.2
286.569	0.24
286.783	0.46
286.997	0.37
287.21	0.3
287.424	0.33
287.637	0.27
287.851	0.27
288.065	0.35
288.278	0.24
288.492	0.28
288.705	0.28
288.919	0.29
289.132	0.19
289.346	0.35
289.559	0.21
289.773	0.2
289.986	0.29
290.2	0.34
290.413	0.36
290.626	0.23
290.84	0.26
291.053	0.31
291.267	0.41
291.48	0.27
291.693	0.27
291.906	0.24
292.12	0.27
292.333	0.25
292.546	0.25
292.76	0.39
292.973	0.3
293.186	0.36
293.399	0.26
293.612	0.33
293.826	0.29
294.039	0.27
294.252	0.25
294.465	0.41
294.678	0.28
294.891	0.27
295.104	0.22
295.317	0.31
295.53	0.27
295.743	0.27
295.956	0.25
296.169	0.35
296.382	0.35
296.595	0.31
296.808	0.2
297.021	0.37
297.234	0.37
297.447	0.27
297.66	0.31
297.873	0.33
298.086	0.32
298.299	0.22
298.511	0.19
298.724	0.3
298.937	0.21
299.15	0.25
299.363	0.24
299.575	0.32
299.788	0.31
300.001	0.25
300.213	0.25
300.426	0.26
300.639	0.24
300.852	0.21
301.064	0.3
301.277	0.36
301.489	0.31
301.702	0.28
301.915	0.28
302.127	0.27
302.34	0.28
302.552	0.31
302.765	0.24
302.977	0.35
303.19	0.22
303.402	0.25
303.615	0.26
303.827	0.24
304.04	0.22
304.252	0.29
304.464	0.21
304.677	0.45
304.889	0.26
305.102	0.21
305.314	0.22
305.526	0.34
305.739	0.31
305.951	0.27
306.163	0.26
306.375	0.34
306.588	0.26
306.8	0.2
307.012	0.2
307.224	0.24
307.436	0.36
307.649	0.21
307.861	0.26
308.073	0.32
308.285	0.23
308.497	0.19
308.709	0.2
308.921	0.28
309.133	0.3
309.346	0.26
309.558	0.25
309.77	0.33
309.982	0.35
310.194	0.3
310.406	0.25
310.617	0.38
310.829	0.26
311.041	0.3
311.253	0.24
311.465	0.23
311.677	0.3
311.889	0.3
312.101	0.22
312.313	0.33
312.524	0.37
312.736	0.22
312.948	0.26
313.16	0.36
313.372	0.34
313.583	0.29
313.795	0.25
314.007	0.23
314.218	0.31
314.43	0.27
314.642	0.21
314.853	0.2
315.065	0.35
315.277	0.27
315.488	0.27
315.7	0.31
315.912	0.31
316.123	0.29
316.335	0.31
316.546	0.42
316.758	0.28
316.969	0.25
317.181	0.31
317.392	0.28
317.604	0.28
317.815	0.24
318.026	0.26
318.238	0.25
318.449	0.3
318.661	0.18
318.872	0.18
319.083	0.2
319.295	0.31
319.506	0.21
319.717	0.24
319.929	0.32
320.14	0.27
320.351	0.28
320.562	0.23
320.774	0.28
320.985	0.27
321.196	0.23
321.407	0.19
321.618	0.29
321.829	0.28
322.041	0.28
322.252	0.25
322.463	0.32
322.674	0.32
322.885	0.17
323.096	0.24
323.307	0.25
323.518	0.29
323.729	0.2
323.94	0.25
324.151	0.24
324.362	0.28
324.573	0.26
324.784	0.23
324.995	0.26
325.206	0.31
325.417	0.25
325.628	0.2
325.838	0.28
326.049	0.26
326.26	0.31
326.471	0.25
326.682	0.33
326.892	0.29
327.103	0.22
327.314	0.21
327.525	0.32
327.735	0.29
327.946	0.19
328.157	0.22
328.368	0.32
328.578	0.24
328.789	0.31
328.999	0.25
329.21	0.22
329.421	0.33
329.631	0.22
329.842	0.23
330.052	0.3
330.263	0.27
330.473	0.23
330.684	0.25
330.894	0.28
331.105	0.3
331.315	0.29
331.526	0.17
331.736	0.42
331.947	0.32
332.157	0.3
332.367	0.18
332.578	0.3
332.788	0.33
332.999	0.27
333.209	0.25
333.419	0.21
333.629	0.32
333.84	0.25
334.05	0.26
334.26	0.36
334.47	0.31
334.681	0.26
334.891	0.26
335.101	0.3
335.311	0.35
335.521	0.25
335.732	0.24
335.942	0.33
336.152	0.3
336.362	0.3
336.572	0.28
336.782	0.3
336.992	0.24
337.202	0.22
337.412	0.21
337.622	0.37
337.832	0.26
338.042	0.27
338.252	0.22
338.462	0.27
338.672	0.29
338.882	0.29
339.092	0.28
339.302	0.33
339.511	0.31
339.721	0.24
339.931	0.17
340.141	0.3
340.351	0.34
340.561	0.28
340.77	0.22
340.98	0.3
341.19	0.31
341.4	0.27
341.609	0.18
341.819	0.26
342.029	0.19
342.238	0.3
342.448	0.26
342.658	0.29
342.867	0.24
343.077	0.26
343.286	0.23
343.496	0.27
343.706	0.35
343.915	0.21
344.125	0.25
344.334	0.28
344.544	0.18
344.753	0.23
344.963	0.22
345.172	0.24
345.381	0.26
345.591	0.19
345.8	0.22
346.01	0.33
346.219	0.31
346.428	0.14
346.638	0.25
346.847	0.23
347.056	0.33
347.266	0.25
347.475	0.24
347.684	0.28
347.893	0.3
348.103	0.22
348.312	0.22
348.521	0.26
348.73	0.28
348.94	0.27
349.149	0.26
349.358	0.24
349.567	0.2
349.776	0.2
349.985	0.25
350.194	0.31
350.403	0.3
350.612	0.22
350.821	0.24
351.03	0.25
351.239	0.19
351.448	0.22
351.657	0.23
351.866	0.33
352.075	0.26
352.284	0.23
352.493	0.23
352.702	0.31
352.911	0.28
353.12	0.26
353.329	0.23
353.538	0.28
353.746	0.27
353.955	0.25
354.164	0.26
354.373	0.25
354.582	0.3
354.79	0.24
354.999	0.27
355.208	0.26
355.416	0.31
355.625	0.19
355.834	0.25
356.042	0.27
356.251	0.25
356.46	0.21
356.668	0.27
356.877	0.39
357.085	0.32
357.294	0.2
357.503	0.29
357.711	0.26
357.92	0.47
358.128	0.24
358.337	0.23
358.545	0.27
358.754	0.24
358.962	0.28
359.17	0.27
359.379	0.24
359.587	0.3
359.796	0.25
360.004	0.32
360.212	0.28
360.421	0.37
360.629	0.23
360.837	0.24
361.046	0.31
361.254	0.39
361.462	0.25
361.67	0.21
361.879	0.26
362.087	0.33
362.295	0.27
362.503	0.24
362.711	0.19
362.92	0.25
363.128	0.23
363.336	0.21
363.544	0.18
363.752	0.22
363.96	0.24
364.168	0.22
364.376	0.27
364.584	0.28
364.792	0.31
365	0.3
365.208	0.27
365.416	0.28
365.624	0.3
365.832	0.21
366.04	0.32
366.248	0.28
366.456	0.29
366.664	0.27
366.872	0.26
367.079	0.26
367.287	0.23
367.495	0.28
367.703	0.24
367.911	0.28
368.118	0.28
368.326	0.27
368.534	0.2
368.742	0.28
368.949	0.21
369.157	0.23
369.365	0.29
369.572	0.21
369.78	0.22
369.988	0.28
370.195	0.23
370.403	0.3
370.61	0.24
370.818	0.24
371.026	0.37
371.233	0.2
371.441	0.27
371.648	0.23
371.856	0.24
372.063	0.28
372.271	0.23
372.478	0.25
372.685	0.26
372.893	0.28
373.1	0.24
373.308	0.21
373.515	0.39
373.722	0.31
373.93	0.24
374.137	0.28
374.344	0.37
374.552	0.31
374.759	0.3
374.966	0.26
375.173	0.23
375.381	0.35
375.588	0.26
375.795	0.17
376.002	0.26
376.209	0.22
376.417	0.26
376.624	0.29
376.831	0.3
377.038	0.27
377.245	0.15
377.452	0.23
377.659	0.29
377.866	0.28
378.073	0.24
378.28	0.22
378.487	0.35
378.694	0.26
378.901	0.28
379.108	0.29
379.315	0.32
379.522	0.38
379.729	0.29
379.936	0.24
380.143	0.29
380.35	0.29
380.557	0.24
380.763	0.26
380.97	0.33
381.177	0.31
381.384	0.29
381.591	0.23
381.797	0.27
382.004	0.3
382.211	0.29
382.418	0.23
382.624	0.3
382.831	0.3
383.038	0.25
383.244	0.28
383.451	0.29
383.658	0.34
383.864	0.28
384.071	0.26
384.277	0.34
384.484	0.26
384.69	0.34
384.897	0.24
385.103	0.27
385.31	0.22
385.516	0.25
385.723	0.24
385.929	0.28
386.136	0.29
386.342	0.28
386.549	0.29
386.755	0.35
386.961	0.32
387.168	0.26
387.374	0.29
387.58	0.32
387.787	0.31
387.993	0.29
388.199	0.27
388.406	0.19
388.612	0.23
388.818	0.23
389.024	0.25
389.231	0.33
389.437	0.41
389.643	0.3
389.849	0.32
390.055	0.29
390.261	0.26
390.467	0.33
390.674	0.26
390.88	0.3
391.086	0.35
391.292	0.24
391.498	0.41
391.704	0.31
391.91	0.32
392.116	0.28
392.322	0.18
392.528	0.38
392.734	0.26
392.94	0.28
393.146	0.31
393.352	0.35
393.557	0.31
393.763	0.26
393.969	0.35
394.175	0.28
394.381	0.32
394.587	0.26
394.792	0.32
394.998	0.4
395.204	0.37
395.41	0.29
395.615	0.33
395.821	0.36
396.027	0.34
396.233	0.26
396.438	0.34
396.644	0.37
396.85	0.39
397.055	0.31
397.261	0.33
397.466	0.32
397.672	0.37
397.878	0.36
398.083	0.36
398.289	0.32
398.494	0.44
398.7	0.36
398.905	0.29
399.111	0.41
399.316	0.31
399.522	0.37
399.727	0.3
399.932	0.35
400.138	0.27
400.343	0.36
400.549	0.36
400.754	0.36
400.959	0.36
401.165	0.37
401.37	0.38
401.575	0.54
401.78	0.42
401.986	0.36
402.191	0.35
402.396	0.41
402.601	0.44
402.807	0.42
403.012	0.41
403.217	0.43
403.422	0.42
403.627	0.39
403.832	0.39
404.037	0.49
404.243	0.49
404.448	0.45
404.653	0.45
404.858	0.5
405.063	0.43
405.268	0.41
405.473	0.4
405.678	0.41
405.883	0.67
406.088	0.53
406.293	0.44
406.498	0.47
406.703	0.54
406.907	0.49
407.112	0.41
407.317	0.54
407.522	0.58
407.727	0.46
407.932	0.56
408.136	0.68
408.341	0.57
408.546	0.54
408.751	0.61
408.956	0.57
409.16	0.7
409.365	0.64
409.57	0.63
409.774	0.62
409.979	0.67
410.184	0.71
410.388	0.6
410.593	0.77
410.798	0.73
411.002	0.73
411.207	0.82
411.411	0.8
411.616	0.76
411.82	0.84
412.025	0.9
412.229	0.86
412.434	0.98
412.638	0.93
412.843	0.97
413.047	0.98
413.252	1.01
413.456	1.04
413.66	1.02
413.865	1.08
414.069	1.13
414.273	1.08
414.478	1.11
414.682	1.16
414.886	1.25
415.091	1.17
415.295	1.21
415.499	1.41
415.703	1.37
415.908	1.5
416.112	1.34
416.316	1.62
416.52	1.57
416.724	1.51
416.929	1.57
417.133	1.86
417.337	1.76
417.541	1.77
417.745	1.86
417.949	1.96
418.153	1.98
418.357	2.04
418.561	2.21
418.765	2.21
418.969	2.28
419.173	2.42
419.377	2.38
419.581	2.62
419.785	2.58
419.989	2.59
420.193	2.78
420.397	2.86
420.601	3.05
420.804	3.18
421.008	3.04
421.212	3.26
421.416	3.29
421.62	3.26
421.823	3.35
422.027	3.52
422.231	3.44
422.435	3.47
422.638	3.57
422.842	3.58
423.046	3.7
423.249	3.88
423.453	3.91
423.657	4.06
423.86	4.14
424.064	4.25
424.268	4.43
424.471	4.44
424.675	4.59
424.878	4.72
425.082	4.83
425.285	5.13
425.489	5.08
425.692	5.09
425.896	5.2
426.099	5.41
426.303	5.53
426.506	5.65
426.71	5.9
426.913	6.19
427.116	6.26
427.32	6.29
427.523	6.32
427.726	6.68
427.93	6.73
428.133	7.04
428.336	7.13
428.54	7.34
428.743	7.6
428.946	7.78
429.149	7.84
429.353	7.91
429.556	7.88
429.759	8
429.962	8.03
430.165	8.32
430.368	7.88
430.571	8.04
430.775	8.02
430.978	8
431.181	8.05
431.384	8.22
431.587	8.35
431.79	8.64
431.993	8.59
432.196	8.79
432.399	9.25
432.602	9.33
432.805	9.49
433.008	9.99
433.211	9.9
433.414	10.26
433.616	10.32
433.819	10.19
434.022	10.38
434.225	10.55
434.428	10.49
434.631	11.06
434.833	10.73
435.036	11.04
435.239	11.28
435.442	11.2
435.645	11.34
435.847	11.51
436.05	11.81
436.253	12.06
436.455	12.07
436.658	11.95
436.861	12.28
437.063	12.39
437.266	12.23
437.468	12.71
437.671	12.97
437.874	13.08
438.076	12.79
438.279	13.22
438.481	13.41
438.684	14.22
438.886	13.72
439.089	14.05
439.291	14.03
439.494	14.31
439.696	14.51
439.899	15.2
440.101	15.54
440.303	15.65
440.506	16.33
440.708	15.96
440.91	16.26
441.113	16.51
441.315	16.91
441.517	16.61
441.72	17
441.922	16.69
442.124	16.65
442.326	17.02
442.529	17.37
442.731	17.24
442.933	17.49
443.135	17.3
443.337	17.28
443.539	17.92
443.742	17.58
443.944	18.15
444.146	17.94
444.348	18.03
444.55	17.84
444.752	18
444.954	18.17
445.156	17.94
445.358	18.37
445.56	18.53
445.762	18.36
445.964	18.78
446.166	18.35
446.368	18.54
446.57	18.49
446.772	18.04
446.974	18
447.175	18.36
447.377	17.99
447.579	18.33
447.781	17.89
447.983	17.88
448.184	17.36
448.386	17.63
448.588	17.23
448.79	17.1
448.991	17.39
449.193	17.4
449.395	16.76
449.597	16.43
449.798	16.41
450	15.85
450.202	15.75
450.403	15.76
450.605	15.87
450.806	15.39
451.008	15.1
451.21	14.92
451.411	14.59
451.613	13.77
451.814	14.14
452.016	14.07
452.217	13.28
452.419	13.24
452.62	13.06
452.821	12.79
453.023	12.6
453.224	12.27
453.426	11.84
453.627	11.23
453.828	11.25
454.03	11.38
454.231	11.29
454.432	11.08
454.634	10.84
454.835	10.57
455.036	10.56
455.238	10.15
455.439	9.79
455.64	9.63
455.841	9.46
456.042	9.56
456.244	9.23
456.445	8.88
456.646	8.71
456.847	8.6
457.048	8.39
457.249	8.45
457.45	8.38
457.651	7.79
457.852	7.61
458.054	7.26
458.255	7.13
458.456	7.3
458.657	7.25
458.858	6.82
459.058	6.65
459.259	6.69
459.46	6.48
459.661	6.41
459.862	6.52
460.063	6.36
460.264	6.27
460.465	6.01
460.666	6.06
460.866	5.81
461.067	5.51
461.268	5.63
461.469	5.52
461.67	5.42
461.87	5.28
462.071	5.25
462.272	5.14
462.473	5.09
462.673	5.31
462.874	5.22
463.075	5.18
463.275	5.09
463.476	5.22
463.676	5.09
463.877	4.89
464.078	5.09
464.278	4.95
464.479	4.86
464.679	4.77
464.88	4.71
465.08	4.68
465.281	4.49
465.481	4.29
465.682	4.12
465.882	4.18
466.083	4.13
466.283	4.07
466.483	3.95
466.684	3.72
466.884	3.65
467.085	3.74
467.285	3.79
467.485	3.63
467.686	3.55
467.886	3.43
468.086	3.34
468.286	3.37
468.487	3.43
468.687	3.26
468.887	3.21
469.087	3.42
469.287	3.26
469.488	3.05
469.688	3.22
469.888	3.23
470.088	3.17
470.288	3.06
470.488	3.05
470.688	2.99
470.888	2.9
471.088	2.74
471.288	2.86
471.488	2.77
471.688	2.82
471.888	2.71
472.088	2.83
472.288	2.72
472.488	2.63
472.688	2.6
472.888	2.67
473.088	2.66
473.288	2.51
473.488	2.46
473.688	2.62
473.887	2.47
474.087	2.43
474.287	2.43
474.487	2.4
474.687	2.44
474.886	2.34
475.086	2.29
475.286	2.34
475.486	2.27
475.685	2.29
475.885	2.19
476.085	2.32
476.284	2.29
476.484	2.23
476.684	2.27
476.883	2.29
477.083	2.21
477.282	2.16
477.482	2.2
477.681	2.14
477.881	2.07
478.08	2.12
478.28	2.08
478.479	2.1
478.679	2.15
478.878	2.11
479.078	2.05
479.277	2.15
479.477	2.04
479.676	2.1
479.875	2.04
480.075	1.95
480.274	2
480.473	2.08
480.673	2.08
480.872	2.14
481.071	2.02
481.271	2.06
481.47	2.02
481.669	2.01
481.868	1.99
482.067	2.03
482.267	1.92
482.466	1.96
482.665	1.95
482.864	1.96
483.063	1.93
483.262	1.99
483.461	2.06
483.661	2.06
483.86	1.98
484.059	2.08
484.258	2.06
484.457	2.03
484.656	2.02
484.855	2.1
485.054	1.96
485.253	1.98
485.452	1.95
485.651	2.08
485.849	2.05
486.048	2.01
486.247	2.03
486.446	2.07
486.645	2
486.844	2.09
487.043	2.03
487.241	2.09
487.44	2.11
487.639	2.11
487.838	2.1
488.037	2.15
488.235	2.23
488.434	2.17
488.633	2.08
488.831	2.27
489.03	2.23
489.229	2.23
489.427	2.19
489.626	2.31
489.825	2.3
490.023	2.33
490.222	2.24
490.42	2.34
490.619	2.35
490.817	2.38
491.016	2.32
491.214	2.43
491.413	2.42
491.611	2.35
491.81	2.45
492.008	2.46
492.207	2.54
492.405	2.52
492.604	2.44
492.802	2.57
493	2.61
493.199	2.61
493.397	2.65
493.595	2.73
493.794	2.68
493.992	2.76
494.19	2.72
494.388	2.81
494.587	2.72
494.785	2.79
494.983	2.73
495.181	2.88
495.379	2.91
495.578	2.95
495.776	2.97
495.974	2.92
496.172	2.96
496.37	3.09
496.568	3.1
496.766	3.07
496.964	3.17
497.162	3.16
497.36	3.22
497.558	3.25
497.756	3.31
497.954	3.3
498.152	3.36
498.35	3.45
498.548	3.37
498.746	3.4
498.944	3.38
499.142	3.41
499.34	3.54
499.538	3.67
499.736	3.53
499.933	3.67
500.131	3.64
500.329	3.78
500.527	3.73
500.725	3.86
500.922	3.87
501.12	3.87
501.318	3.89
501.516	3.91
501.713	4
501.911	3.95
502.109	3.96
502.306	4.06
502.504	3.99
502.701	4.06
502.899	4.15
503.097	4.32
503.294	4.23
503.492	4.35
503.689	4.35
503.887	4.31
504.084	4.46
504.282	4.45
504.479	4.38
504.677	4.57
504.874	4.5
505.072	4.48
505.269	4.71
505.466	4.7
505.664	4.69
505.861	4.64
506.059	4.69
506.256	4.73
506.453	4.76
506.651	4.93
506.848	5.01
507.045	4.94
507.242	4.95
507.44	4.99
507.637	5.1
507.834	5.02
508.031	5.18
508.229	5.14
508.426	5.13
508.623	5.26
508.82	5.28
509.017	5.21
509.214	5.29
509.411	5.4
509.608	5.36
509.805	5.47
510.003	5.42
510.2	5.48
510.397	5.68
510.594	5.51
510.791	5.61
510.988	5.66
511.184	5.61
511.381	5.5
511.578	5.65
511.775	5.84
511.972	5.71
512.169	5.81
512.366	5.83
512.563	5.94
512.76	5.96
512.956	6.01
513.153	5.95
513.35	5.88
513.547	5.86
513.744	6.04
513.94	5.99
514.137	6.14
514.334	6.11
514.53	6.14
514.727	6.34
514.924	6.27
515.12	6.22
515.317	6.29
515.514	6.19
515.71	6.2
515.907	6.45
516.103	6.38
516.3	6.34
516.497	6.48
516.693	6.51
516.89	6.53
517.086	6.5
517.283	6.52
517.479	6.41
517.676	6.56
517.872	6.66
518.068	6.61
518.265	6.62
518.461	6.56
518.658	6.71
518.854	6.69
519.05	6.74
519.247	6.82
519.443	6.73
519.639	6.9
519.836	6.78
520.032	6.67
520.228	6.87
520.424	6.83
520.621	6.91
520.817	6.95
521.013	6.9
521.209	7.09
521.405	7.1
521.601	7.03
521.798	6.99
521.994	7.04
522.19	6.93
522.386	7.02
522.582	7.12
522.778	7.25
522.974	7.07
523.17	7.18
523.366	7.11
523.562	7.21
523.758	7.14
523.954	7.07
524.15	7.24
524.346	7.24
524.542	7.21
524.738	7.26
524.934	7.33
525.129	7.23
525.325	7.22
525.521	7.21
525.717	7.46
525.913	7.28
526.109	7.33
526.304	7.46
526.5	7.4
526.696	7.43
526.892	7.38
527.087	7.63
527.283	7.5
527.479	7.47
527.674	7.24
527.87	7.47
528.066	7.5
528.261	7.52
528.457	7.42
528.653	7.59
528.848	7.55
529.044	7.67
529.239	7.48
529.435	7.53
529.63	7.49
529.826	7.57
530.021	7.51
530.217	7.57
530.412	7.54
530.608	7.6
530.803	7.6
530.999	7.48
531.194	7.6
531.389	7.67
531.585	7.6
531.78	7.86
531.975	7.69
532.171	7.76
532.366	7.73
532.561	7.68
532.757	7.63
532.952	7.95
533.147	7.62
533.342	7.77
533.538	7.71
533.733	7.86
533.928	7.56
534.123	7.76
534.318	7.78
534.513	7.71
534.709	7.92
534.904	7.88
535.099	7.88
535.294	7.91
535.489	7.87
535.684	7.84
535.879	7.81
536.074	7.9
536.269	7.92
536.464	7.93
536.659	7.79
536.854	7.86
537.049	7.9
537.244	7.87
537.439	7.92
537.634	7.91
537.828	7.95
538.023	7.87
538.218	7.92
538.413	7.85
538.608	7.98
538.803	7.93
538.997	7.94
539.192	7.94
539.387	7.88
539.582	7.92
539.776	7.86
539.971	7.96
540.166	8.07
540.36	7.85
540.555	8.05
540.75	7.96
540.944	8.02
541.139	7.98
541.334	7.99
541.528	7.94
541.723	8.08
541.917	8.1
542.112	7.97
542.306	7.83
542.501	7.88
542.695	8.02
542.89	7.97
543.084	8.04
543.279	8.04
543.473	8.04
543.668	8.03
543.862	7.87
544.056	7.85
544.251	8.11
544.445	8.09
544.64	8.16
544.834	7.83
545.028	7.68
545.222	8.04
545.417	8.22
545.611	8.11
545.805	8.03
546	7.83
546.194	8.06
546.388	8.04
546.582	7.92
546.776	8.06
546.97	8.07
547.165	8.04
547.359	8.06
547.553	8.01
547.747	8.01
547.941	8.23
548.135	8.02
548.329	8.06
548.523	8.07
548.717	8.08
548.911	8
549.105	7.96
549.299	8.15
549.493	8.12
549.687	8.03
549.881	8.11
550.075	8.09
550.269	7.96
550.463	8.15
550.657	8.05
550.85	8.02
551.044	8.11
551.238	8.12
551.432	8.1
551.626	8.11
551.82	8.08
552.013	7.97
552.207	8.21
552.401	8.13
552.594	8.06
552.788	8.01
552.982	8.04
553.176	7.99
553.369	8.21
553.563	8.13
553.756	8.06
553.95	8.12
554.144	8.15
554.337	8.14
554.531	7.91
554.724	8.11
554.918	8.13
555.111	8.02
555.305	8.11
555.498	8.03
555.692	8.22
555.885	8.13
556.079	8.01
556.272	8.13
556.466	8.08
556.659	8.05
556.852	8.16
557.046	7.99
557.239	7.91
557.432	8.03
557.626	8.13
557.819	8.17
558.012	8.09
558.206	8.18
558.399	8.11
558.592	7.98
558.785	8.08
558.979	8.08
559.172	8.1
559.365	8.05
559.558	8.12
559.751	8
559.944	8.18
560.138	8.12
560.331	8.14
560.524	8.12
560.717	8.09
560.91	8.05
561.103	8.18
561.296	7.99
561.489	8.09
561.682	8.21
561.875	8.16
562.068	8.21
562.261	8.03
562.454	8.2
562.647	8.06
562.84	8.17
563.032	8.11
563.225	7.98
563.418	8.01
563.611	8.14
563.804	8.13
563.997	7.99
564.19	7.91
564.382	8.16
564.575	8.06
564.768	8.06
564.961	8.11
565.153	8.06
565.346	8.01
565.539	8.1
565.731	8.03
565.924	8.12
566.117	8.23
566.309	8.13
566.502	8
566.695	8.01
566.887	8.13
567.08	8.06
567.272	8.1
567.465	8.01
567.657	8.12
567.85	7.94
568.042	8.09
568.235	8.14
568.427	7.95
568.62	8.05
568.812	8.06
569.005	8.12
569.197	7.95
569.389	8.04
569.582	8.05
569.774	8.05
569.966	7.97
570.159	7.91
570.351	7.98
570.543	8
570.736	8.06
570.928	7.82
571.12	8.06
571.312	7.95
571.505	7.73
571.697	7.99
571.889	8.01
572.081	8.04
572.273	7.92
572.465	7.99
572.658	8
572.85	8
573.042	8.01
573.234	7.88
573.426	7.94
573.618	7.94
573.81	7.98
574.002	7.88
574.194	7.97
574.386	7.87
574.578	7.8
574.77	7.87
574.962	7.94
575.154	7.8
575.346	7.85
575.538	7.83
575.729	7.81
575.921	7.94
576.113	7.95
576.305	7.87
576.497	7.96
576.689	7.83
576.88	7.77
577.072	7.93
577.264	7.85
577.456	7.83
577.647	7.78
577.839	7.9
578.031	7.83
578.223	7.81
578.414	7.69
578.606	7.85
578.798	7.85
578.989	7.88
579.181	7.86
579.372	7.82
579.564	7.84
579.755	7.73
579.947	7.73
580.139	7.78
580.33	7.63
580.522	7.79
580.713	7.72
580.905	7.71
581.096	7.82
581.287	7.76
581.479	7.68
581.67	7.69
581.862	7.62
582.053	7.72
582.244	7.56
582.436	7.83
582.627	7.64
582.818	7.57
583.01	7.6
583.201	7.67
583.392	7.65
583.583	7.55
583.775	7.45
583.966	7.55
584.157	7.6
584.348	7.68
584.54	7.55
584.731	7.61
584.922	7.51
585.113	7.44
585.304	7.54
585.495	7.52
585.686	7.66
585.877	7.56
586.068	7.58
586.259	7.52
586.45	7.45
586.641	7.47
586.832	7.58
587.023	7.5
587.214	7.48
587.405	7.52
587.596	7.43
587.787	7.32
587.978	7.5
588.169	7.37
588.36	7.38
588.551	7.37
588.742	7.4
588.932	7.51
589.123	7.19
589.314	7.48
589.505	7.35
589.696	7.34
589.886	7.34
590.077	7.35
590.268	7.3
590.458	7.17
590.649	7.11
590.84	7.34
591.03	7.26
591.221	7.32
591.412	7.13
591.602	7.42
591.793	7.24
591.984	7.29
592.174	7.15
592.365	7.39
592.555	7.08
592.746	7.14
592.936	7.16
593.127	7.15
593.317	7.19
593.508	7.11
593.698	7.12
593.889	7.15
594.079	7.08
594.269	6.97
594.46	7.01
594.65	7.08
594.84	7.02
595.031	6.94
595.221	6.97
595.411	6.98
595.602	6.99
595.792	6.97
595.982	6.87
596.172	7.07
596.363	6.88
596.553	6.92
596.743	7
596.933	6.88
597.123	6.89
597.314	6.75
597.504	6.73
597.694	6.89
597.884	6.84
598.074	6.89
598.264	6.81
598.454	6.76
598.644	6.74
598.834	6.78
599.024	6.64
599.214	6.68
599.404	6.8
599.594	6.69
599.784	6.65
599.974	6.69
600.164	6.66
600.354	6.54
600.544	6.55
600.734	6.66
600.924	6.61
601.114	6.54
601.303	6.52
601.493	6.6
601.683	6.51
601.873	6.55
602.063	6.42
602.252	6.49
602.442	6.4
602.632	6.41
602.821	6.38
603.011	6.48
603.201	6.47
603.39	6.38
603.58	6.27
603.77	6.37
603.959	6.46
604.149	6.34
604.339	6.38
604.528	6.44
604.718	6.33
604.907	6.26
605.097	6.28
605.286	6.22
605.476	6.24
605.665	6.26
605.855	6.17
606.044	6.31
606.234	6.17
606.423	6.2
606.612	6.12
606.802	6.05
606.991	6.2
607.181	6.15
607.37	6.12
607.559	5.9
607.749	6.1
607.938	6
608.127	6.06
608.316	6
608.506	5.99
608.695	6.07
608.884	5.98
609.073	5.94
609.263	6.03
609.452	5.97
609.641	5.83
609.83	5.82
610.019	5.95
610.208	5.83
610.397	5.83
610.586	5.89
610.775	5.77
610.965	5.79
611.154	5.69
611.343	5.77
611.532	5.72
611.721	5.78
611.91	5.68
612.099	5.7
612.287	5.62
612.476	5.52
612.665	5.76
612.854	5.55
613.043	5.61
613.232	5.58
613.421	5.52
613.61	5.59
613.798	5.54
613.987	5.55
614.176	5.48
614.365	5.54
614.554	5.47
614.742	5.52
614.931	5.4
615.12	5.53
615.309	5.47
615.497	5.35
615.686	5.3
615.875	5.38
616.063	5.36
616.252	5.35
616.44	5.28
616.629	5.27
616.818	5.29
617.006	5.28
617.195	5.27
617.383	5.23
617.572	5.15
617.76	5.21
617.949	5.17
618.137	5.31
618.326	5.21
618.514	4.96
618.703	5.01
618.891	5.2
619.079	5.01
619.268	5.16
619.456	5.01
619.644	5.1
619.833	5.05
620.021	5.02
620.209	4.93
620.398	4.97
620.586	4.9
620.774	4.95
620.962	4.87
621.151	5.03
621.339	4.91
621.527	4.86
621.715	4.78
621.903	4.84
622.092	4.74
622.28	4.89
622.468	4.65
622.656	4.75
622.844	4.72
623.032	4.82
623.22	4.62
623.408	4.84
623.596	4.74
623.784	4.74
623.972	4.66
624.16	4.63
624.348	4.77
624.536	4.67
624.724	4.63
624.912	4.66
625.1	4.57
625.288	4.58
625.476	4.5
625.664	4.58
625.851	4.49
626.039	4.59
626.227	4.47
626.415	4.51
626.603	4.37
626.79	4.46
626.978	4.49
627.166	4.48
627.354	4.31
627.541	4.38
627.729	4.29
627.917	4.51
628.104	4.52
628.292	4.33
628.48	4.35
628.667	4.27
628.855	4.39
629.042	4.31
629.23	4.24
629.418	4.29
629.605	4.24
629.793	4.14
629.98	4.12
630.168	4.16
630.355	4.17
630.543	4.18
630.73	4.04
630.917	4.09
631.105	4.22
631.292	4.07
631.48	4.1
631.667	4.21
631.854	4.04
632.042	4.04
632.229	3.97
632.416	4.05
632.604	3.99
632.791	3.88
632.978	3.96
633.165	3.97
633.353	3.97
633.54	3.95
633.727	3.81
633.914	3.89
634.101	3.84
634.289	3.93
634.476	3.81
634.663	3.77
634.85	3.79
635.037	3.78
635.224	3.64
635.411	3.81
635.598	3.71
635.785	3.65
635.972	3.7
636.159	3.71
636.346	3.68
636.533	3.62
636.72	3.65
636.907	3.61
637.094	3.63
637.281	3.48
637.468	3.59
637.655	3.58
637.842	3.58
638.029	3.53
638.215	3.5
638.402	3.54
638.589	3.45
638.776	3.45
638.963	3.44
639.149	3.58
639.336	3.56
639.523	3.43
639.709	3.45
639.896	3.38
640.083	3.41
640.27	3.44
640.456	3.36
640.643	3.35
640.829	3.25
641.016	3.28
641.203	3.24
641.389	3.34
641.576	3.31
641.762	3.27
641.949	3.17
642.135	3.28
642.322	3.21
642.508	3.13
642.695	3.16
642.881	3.16
643.068	3.1
643.254	3.15
643.441	3.15
643.627	3.24
643.813	3.05
644	3.11
644.186	3.03
644.372	3.11
644.559	3.09
644.745	3
644.931	2.98
645.118	3.05
645.304	3.01
645.49	3.02
645.676	2.98
645.862	3.01
646.049	3.01
646.235	2.99
646.421	3.03
646.607	3.06
646.793	2.93
646.979	2.84
647.165	2.9
647.352	2.89
647.538	2.83
647.724	2.86
647.91	2.85
648.096	2.9
648.282	2.88
648.468	2.76
648.654	2.85
648.84	2.82
649.026	2.76
649.212	2.69
649.397	2.67
649.583	2.67
649.769	2.73
649.955	2.71
650.141	2.7
650.327	2.71
650.513	2.56
650.698	2.67
650.884	2.54
651.07	2.7
651.256	2.61
651.442	2.58
651.627	2.51
651.813	2.58
651.999	2.59
652.184	2.57
652.37	2.53
652.556	2.55
652.741	2.62
652.927	2.44
653.113	2.51
653.298	2.51
653.484	2.51
653.669	2.45
653.855	2.39
654.04	2.51
654.226	2.45
654.412	2.36
654.597	2.32
654.782	2.49
654.968	2.45
655.153	2.37
655.339	2.37
655.524	2.34
655.71	2.44
655.895	2.35
656.08	2.36
656.266	2.38
656.451	2.34
656.636	2.25
656.822	2.31
657.007	2.3
657.192	2.3
657.378	2.22
657.563	2.27
657.748	2.26
657.933	2.26
658.118	2.2
658.304	2.17
658.489	2.3
658.674	2.21
658.859	2.15
659.044	2.21
659.229	2.21
659.414	2.14
659.599	2.16
659.785	2.06
659.97	2.17
660.155	2.15
660.34	2.17
660.525	2.11
660.71	2.11
660.895	2.11
661.08	2.07
661.264	2.04
661.449	2.16
661.634	2.02
661.819	2.1
662.004	2
662.189	1.95
662.374	1.98
662.559	1.96
662.743	1.93
662.928	1.99
663.113	1.93
663.298	1.89
663.483	1.93
663.667	1.94
663.852	1.94
664.037	1.97
664.221	1.92
664.406	1.94
664.591	1.96
664.775	1.9
664.96	1.84
665.145	1.87
665.329	1.99
665.514	1.9
665.698	1.8
665.883	1.75
666.068	1.9
666.252	1.86
666.437	1.77
666.621	1.82
666.806	1.85
666.99	1.79
667.174	1.72
667.359	1.82
667.543	1.68
667.728	1.77
667.912	1.67
668.096	1.76
668.281	1.7
668.465	1.77
668.649	1.75
668.834	1.66
669.018	1.72
669.202	1.68
669.387	1.63
669.571	1.76
669.755	1.65
669.939	1.64
670.124	1.64
670.308	1.73
670.492	1.74
670.676	1.64
670.86	1.64
671.044	1.59
671.228	1.63
671.413	1.59
671.597	1.58
671.781	1.57
671.965	1.63
672.149	1.6
672.333	1.59
672.517	1.58
672.701	1.58
672.885	1.6
673.069	1.45
673.253	1.63
673.437	1.5
673.621	1.53
673.804	1.49
673.988	1.55
674.172	1.55
674.356	1.44
674.54	1.54
674.724	1.67
674.908	1.49
675.091	1.53
675.275	1.47
675.459	1.52
675.643	1.52
675.826	1.5
676.01	1.43
676.194	1.41
676.377	1.47
676.561	1.53
676.745	1.42
676.928	1.38
677.112	1.44
677.296	1.38
677.479	1.39
677.663	1.36
677.846	1.46
678.03	1.38
678.213	1.33
678.397	1.44
678.58	1.4
678.764	1.41
678.947	1.38
679.131	1.38
679.314	1.42
679.498	1.34
679.681	1.41
679.865	1.44
680.048	1.35
680.231	1.34
680.415	1.3
680.598	1.3
680.781	1.27
680.965	1.25
681.148	1.33
681.331	1.25
681.514	1.32
681.698	1.27
681.881	1.32
682.064	1.23
682.247	1.33
682.43	1.17
682.614	1.26
682.797	1.36
682.98	1.26
683.163	1.16
683.346	1.17
683.529	1.18
683.712	1.14
683.895	1.27
684.078	1.1
684.261	1.18
684.444	1.25
684.627	1.24
684.81	1.19
684.993	1.16
685.176	1.18
685.359	1.14
685.542	1.11
685.725	1.21
685.908	1.16
686.091	1.1
686.274	1.18
686.457	1.2
686.639	1.11
686.822	1.21
687.005	1.11
687.188	1.14
687.371	1.28
687.553	1.22
687.736	1.15
687.919	1.25
688.102	1.22
688.284	1.07
688.467	1.05
688.65	1.08
688.832	1.04
689.015	1.1
689.197	0.96
689.38	1.17
689.563	1.22
689.745	0.96
689.928	0.99
690.11	1.04
690.293	1.15
690.475	0.98
690.658	1.05
690.84	1.01
691.023	0.97
691.205	1.03
691.388	1.01
691.57	1.1
691.752	1.06
691.935	0.91
692.117	0.95
692.3	1.01
692.482	0.95
692.664	0.95
692.847	1.02
693.029	1.08
693.211	0.97
693.393	0.98
693.576	0.92
693.758	0.95
693.94	0.9
694.122	0.95
694.304	0.91
694.487	0.93
694.669	1.02
694.851	0.87
695.033	0.87
695.215	0.91
695.397	0.95
695.579	0.85
695.761	0.81
695.943	0.86
696.125	0.98
696.308	0.95
696.49	0.79
696.671	1.04
696.853	0.93
697.035	1.14
697.217	0.89
697.399	0.94
697.581	0.87
697.763	0.93
697.945	0.76
698.127	0.87
698.309	0.96
698.491	0.9
698.672	0.99
698.854	0.96
699.036	0.94
699.218	0.88
699.399	0.84
699.581	0.92
699.763	0.86
699.945	0.79
700.126	0.78
700.308	0.88
700.49	0.88
700.671	0.75
700.853	0.74
701.035	0.77
701.216	0.83
701.398	0.77
701.579	0.81
701.761	0.88
701.943	0.75
702.124	0.77
702.306	0.81
702.487	0.97
702.669	0.77
702.85	0.81
703.031	0.75
703.213	0.96
703.394	0.81
703.576	0.71
703.757	0.89
703.938	0.8
704.12	0.97
704.301	0.8
704.483	0.65
704.664	0.77
704.845	0.91
705.026	0.8
705.208	0.74
705.389	0.79
705.57	0.81
705.751	0.74
705.933	0.71
706.114	0.86
706.295	0.74
706.476	0.72
706.657	0.85
706.838	0.81
707.02	0.86
707.201	0.68
707.382	0.62
707.563	0.85
707.744	0.75
707.925	0.67
708.106	0.69
708.287	0.74
708.468	0.79
708.649	0.75
708.83	0.73
709.011	0.69
709.192	0.76
709.373	0.63
709.554	0.61
709.734	0.78
709.915	0.76
710.096	0.64
710.277	0.61
710.458	0.63
710.639	0.74
710.819	0.61
711	0.54
711.181	0.8
711.362	0.75
711.542	0.73
711.723	0.65
711.904	0.75
712.085	0.72
712.265	0.77
712.446	0.5
712.627	0.66
712.807	0.66
712.988	0.66
713.168	0.59
713.349	0.68
713.53	0.52
713.71	0.56
713.891	0.59
714.071	0.59
714.252	0.56
714.432	0.56
714.613	0.53
714.793	0.67
714.974	0.77
715.154	0.72
715.334	0.7
715.515	0.73
715.695	0.54
715.876	0.6
716.056	0.64
716.236	0.54
716.417	0.58
716.597	0.55
716.777	0.83
716.957	0.6
717.138	0.61
717.318	0.54
717.498	0.49
717.678	0.62
717.859	0.59
718.039	0.5
718.219	0.57
718.399	0.6
718.579	0.54
718.759	0.48
718.939	0.61
719.12	0.61
719.3	0.57
719.48	0.38
719.66	0.43
719.84	0.64
720.02	0.6
720.2	0.49
720.38	0.54
720.56	0.79
720.74	0.5
720.92	0.54
721.1	0.69
721.279	0.65
721.459	0.58
721.639	0.43
721.819	0.58
721.999	0.56
722.179	0.6
722.359	0.45
722.538	0.54
722.718	0.58
722.898	0.47
723.078	0.51
723.257	0.56
723.437	0.64
723.617	0.54
723.797	0.51
723.976	0.58
724.156	0.59
724.336	0.68
724.515	0.73
724.695	0.42
724.874	0.56
725.054	0.63
725.234	0.5
725.413	0.51
725.593	0.56
725.772	0.54
725.952	0.57
726.131	0.49
726.311	0.6
726.49	0.51
726.67	0.43
726.849	0.48
727.028	0.54
727.208	0.47
727.387	0.52
727.567	0.34
727.746	0.47
727.925	0.5
728.105	0.47
728.284	0.49
728.463	0.43
728.643	0.55
728.822	0.48
729.001	0.44
729.18	0.46
729.359	0.68
729.539	0.56
729.718	0.56
729.897	0.57
730.076	0.5
730.255	0.41
730.434	0.53
730.614	0.6
730.793	0.6
730.972	0.51
731.151	0.5
731.33	0.66
731.509	0.55
731.688	0.46
731.867	0.54
732.046	0.36
732.225	0.73
732.404	0.45
732.583	0.39
732.762	0.52
732.941	0.61
733.12	0.42
733.298	0.44
733.477	0.58
733.656	0.42
733.835	0.33
734.014	0.63
734.193	0.5
734.371	0.56
734.55	0.53
734.729	0.36
734.908	0.56
735.086	0.59
735.265	0.56
735.444	0.34
735.623	0.38
735.801	0.47
735.98	0.38
736.159	0.48
736.337	0.59
736.516	0.49
736.694	0.52
736.873	0.44
737.052	0.78
737.23	0.65
737.409	0.61
737.587	0.73
737.766	0.35
737.944	0.54
738.123	0.53
738.301	0.56
738.479	0.52
738.658	0.48
738.836	0.42
739.015	0.44
739.193	0.66
739.371	0.35
739.55	0.33
739.728	0.46
739.906	0.72
740.085	0.78
740.263	0.48
740.441	0.22
740.62	0.69
740.798	0.46
740.976	0.26
741.154	0.39
741.332	0.71
741.511	0.56
741.689	0.57
741.867	0.58
742.045	0.5
742.223	0.37
742.401	0.34
742.579	0.45
742.757	0.63
742.935	0.39
743.114	0.39
743.292	0.44
743.47	0.49
743.648	0.54
743.826	0.48
744.004	0.44
744.181	0.6
744.359	0.42
744.537	0.54
744.715	0.5
744.893	0.51
745.071	0.54
745.249	0.38
745.427	0.35
745.605	0.54
745.782	0.55
745.96	0.48
746.138	0.48
746.316	0.7
746.493	0.33
746.671	0.43
746.849	0.36
747.027	0.6
747.204	0.38
747.382	0.56
747.56	0.23
747.737	0.48
747.915	0.33
748.093	0.53
748.27	0.3
748.448	0.39
748.625	0.3
748.803	0.38
748.98	0.35
749.158	0.56
749.335	0.58
749.513	0.36
749.69	0.4
749.868	0.48
750.045	0.35
750.223	0.41
750.4	0.18
750.578	0.6
750.755	0.42
750.932	0.21
751.11	0.56
751.287	0.37
751.464	0.52
751.642	0.35
751.819	0.46
751.996	0.49
752.173	0.34
752.351	0.34
752.528	0.45
752.705	0.37
752.882	0.35
753.06	0.48
753.237	0.47
753.414	0.57
753.591	0.76
753.768	0.44
753.945	0.3
754.122	0.34
754.299	0.6
754.476	0.3
754.654	0.25
754.831	0.47
755.008	0.57
755.185	0.38
755.362	0.29
755.539	0.55
755.716	0.33
755.892	0.3
756.069	0.37
756.246	0.37
756.423	0.54
756.6	0.54
756.777	0.28
756.954	0.46
757.131	0.39
757.307	0.33
757.484	0.22
757.661	0.44
757.838	0.54
758.015	0.28
758.191	0.43
758.368	0.35
758.545	0.63
758.721	0.49
758.898	0.31
759.075	0.42
759.251	0.51
759.428	0.45
759.605	0.31
759.781	0.3
759.958	0.54
760.134	0.41
760.311	0.35
760.488	0.6
760.664	0.55
760.841	0.32
761.017	0.21
761.194	0.53
761.37	0.5
761.547	0.38
761.723	0.34
761.899	0.6
762.076	0.42
762.252	0.17
762.429	0.34
762.605	0.44
762.781	0.3
762.958	0.37
763.134	0.37
763.31	0.19
763.486	0.6
763.663	0.17
763.839	0.44
764.015	0.16
764.191	0.29
764.368	0.36
764.544	0.22
764.72	0.3
764.896	0.47
765.072	0.4
765.248	0.45
765.425	0.27
765.601	0.35
765.777	0.31
765.953	0.1
766.129	0.34
766.305	0.25
766.481	0.51
766.657	0.42
766.833	0.59
767.009	0.39
767.185	0.27
767.361	0.36
767.537	0.25
767.713	0.66
767.889	0.25
768.065	0.32
768.24	0.53
768.416	0.47
768.592	0.36
768.768	0.25
768.944	0.55
769.12	0.26
769.295	0.45
769.471	0.41
769.647	0.34
769.823	0.43
769.998	0.29
770.174	0.32
770.35	0.75
770.525	0.77
770.701	0.49
770.877	0.46
771.052	0.21
771.228	0.52
771.403	0.41
771.579	0.43
771.755	0.79
771.93	0.34
772.106	0.29
772.281	0.15
772.457	0.36
772.632	0.52
772.808	0.35
772.983	0.41
773.159	0.3
773.334	0.71
773.509	0.39
773.685	0.22
773.86	0.83
774.036	0.63
774.211	0.39
774.386	0.3
774.562	0.35
774.737	0.51
774.912	0.25
775.087	0.52
775.263	0.32
775.438	0.47
775.613	0.32
775.788	0.34
775.964	0.61
776.139	0.9
776.314	0.2
776.489	0.38
776.664	0.34
776.839	0.26
777.014	0.5
777.19	0.61
777.365	0.73
777.54	0.63
777.715	0.37
777.89	0.44
778.065	0.19
778.24	0.4
778.415	0.6
778.59	0.1
778.765	0.49
778.94	0.56
779.115	0.3
779.289	0.39
779.464	0.39
779.639	0.41
779.814	0.2
779.989	0.12
780.164	0.64
780.339	0.62
780.513	0.3
780.688	0.21
780.863	0.52
781.038	0.73
781.212	0.12
781.387	0.44
781.562	0.84
781.737	0.27
781.911	0.6
782.086	0.2
782.261	0.36
782.435	0.89
782.61	0.37
782.784	0.31
782.959	0.78
783.134	0.43
783.308	0.2
783.483	0.27
783.657	1.23
783.832	0.56
784.006	0.08
784.181	0.55
784.355	0.61
784.53	0.24
784.704	0.29
784.878	0.77
785.053	0.37
785.227	0.71
785.402	0.81
785.576	0.29
785.75	0.56
785.925	0.62
786.099	0.39
786.273	0.49
786.448	0.8
786.622	0.71
786.796	0.4
786.97	0.42
787.145	1.06
787.319	0.18
787.493	0.48
787.667	0.14
787.841	0.49
788.015	0.77
788.19	0.2
788.364	0.57
788.538	0.68
788.712	0.76
788.886	0.4
789.06	0.75
789.234	0.86
789.408	0.31
789.582	0.36
789.756	0.36
789.93	0.64
790.104	0.44
790.278	0.3
790.452	0.23
790.626	0.51
790.8	0.35
790.973	0.58
791.147	1.07
791.321	0.8
791.495	0.75
791.669	0.54
791.843	0.47
792.016	0.56
792.19	1.18
792.364	0.26
792.538	1.14
792.711	0.7
792.885	0.35
793.059	0.3
793.233	-0.14
793.406	0.58
793.58	0.52
793.754	0.61
793.927	0.31
794.101	0.95
794.274	0.63
794.448	0.82
794.622	0.3
794.795	0.88
794.969	0.69
795.142	0.81
795.316	0.51
795.489	0.33
795.663	0.91
795.836	0.44
796.009	0.22
796.183	0.84
796.356	0.55
796.53	0.5
796.703	0.46
796.876	1.16
797.05	0.57
797.223	0.16
797.396	0.69
797.57	0.74
797.743	0.73
797.916	0.43
798.09	0.41
798.263	1.15
798.436	0.82
798.609	0.53
798.782	0.64
798.956	0.5
799.129	0.64
799.302	0.64
799.475	0.56
799.648	0.19
799.821	0.4
799.994	0.43
800.167	0.26
800.34	0.83
800.514	0.46
800.687	0.58
800.86	0.46
801.033	0.72
801.206	0.81
801.379	0.33
801.551	0.61
801.724	1.03
801.897	1.27
802.07	0.36
802.243	0.11
802.416	0.9
802.589	0.52
802.762	0.78
802.935	0.7
803.107	1.11
803.28	1.07
803.453	0.94
803.626	0.54
803.798	0.38
803.971	0.47
804.144	0.62
804.317	0.82
804.489	0.9
804.662	0.92
804.835	0.6
805.007	0.29
805.18	1.15
805.353	0.66
805.525	0.36
805.698	0.48
805.87	0.91
806.043	0.94
806.215	0.3
806.388	0.35
806.56	0.77
806.733	0.97
806.905	0.8
807.078	0.5
807.25	0.41
807.423	0.97
807.595	0.42
807.768	0.82
807.94	0.94
808.112	0.78
808.285	0.37
808.457	0.26
808.629	0.89
808.802	1.04
808.974	0.89
809.146	0.54
809.318	0.76
809.491	0.59
809.663	0.71
809.835	0.16
810.007	0.75
810.18	0.53
810.352	0.16
810.524	0.63
810.696	0.82
810.868	0.87
811.04	0.72
811.212	0.78
811.384	1.09
811.556	0.87
811.728	0.65
811.901	1.53
812.073	0.57
812.245	1.16
812.417	0.71
812.589	0.19
812.76	0.87
812.932	0.85
813.104	0.85
813.276	0.59
813.448	1.1
813.62	0.7
813.792	1
813.964	0.68
814.136	0.82
814.307	0.39
814.479	0.17
814.651	0.51
814.823	1.77
814.995	0.49
815.166	0.8
815.338	0.54
815.51	0.37
815.681	1.64
815.853	0.77
816.025	-0.03
816.196	1.69
816.368	1.12
816.54	0.69
816.711	0.29
816.883	0.83
817.054	2.1
817.226	0.06
817.398	1.01
817.569	0.37
817.741	0.91
817.912	0.76
818.084	0.49
818.255	1.44
818.426	0.56
818.598	0.45
818.769	0.35
818.941	0.87
819.112	1.27
819.283	0.95
819.455	0.12
819.626	0.82
819.798	1.29
819.969	1.16
820.14	1.01
820.311	0.86
820.483	0.97
820.654	0.95
820.825	0.68
820.996	0.72
821.168	0.51
821.339	0.7
821.51	0.12
821.681	0.5
821.852	0.79
822.023	0.41
822.195	0.56
822.366	1.31
822.537	0.97
822.708	1.13
822.879	0.34
823.05	1.78
823.221	0.38
823.392	1.08
823.563	0.65
823.734	0.99
823.905	0.86
824.076	0.99
824.247	0.72
824.418	1.25
824.589	1.71
824.759	0.65
824.93	0.99
825.101	0.26
825.272	1.63
825.443	1.68
825.614	2.03
825.784	0.73
825.955	2.16
826.126	2.04
826.297	0.96
826.467	2.01
826.638	2.05
826.809	0.17
826.98	0.94
827.15	1.35
827.321	1.37
827.492	1.41
827.662	0.44
827.833	2.34
828.003	1.71
828.174	0.52
828.345	0.1
828.515	1.91
828.686	1.22
828.856	0.4
829.027	0.76
829.197	0.83
829.368	0.94
829.538	0.58
829.709	0.76
829.879	0.77
830.049	0.92
830.22	0.67
830.39	0.64
830.56	2.27
830.731	0.93
830.901	0.38
831.072	0.86
831.242	1.18
831.412	1.79
831.582	1.04
831.753	-0.28
831.923	1.51
832.093	1.23
832.263	0.97
832.434	0.09
832.604	1.19
832.774	1.39
832.944	1.32
833.114	0.77
833.284	1.44
833.454	0.52
833.624	0.69
833.795	0.81
833.965	1.93
834.135	1.84
834.305	-0.37
834.475	0.07
834.645	1.83
834.815	0.69
834.985	0.7
835.155	0.23
835.325	1.64
835.494	2.09
835.664	1.32
835.834	0.37
836.004	0.76
836.174	1.31
836.344	0.94
836.514	-0.41
836.684	1.21
836.853	0.75
837.023	1.07
837.193	0.41
837.363	2.37
837.532	2.15
837.702	1.41
837.872	0.43
838.041	1.61
838.211	3.05
838.381	0.21
838.55	1.15
838.72	3.39
838.89	2.47
839.059	0.71
839.229	0.25
839.398	2.99
839.568	1.24
839.738	1.07
839.907	2.31
840.077	1.69
840.246	0.64
840.416	0.01
840.585	0.38
840.755	2.87
840.924	2.73
841.093	-0.24
841.263	0.29
841.432	1.5
841.602	0.24
841.771	0.82
841.94	1.7
842.11	3.17
842.279	3.46
842.448	0.74
842.617	0.15
842.787	2.69
842.956	-0.09
843.125	2.1
843.294	0.42
843.464	2.97
843.633	2.13
843.802	0.3
843.971	0.93
844.14	1.51
844.309	2.27
844.479	-0.55
844.648	0.57
844.817	1.42
844.986	1.55
845.155	0.83
845.324	1.04
845.493	0.86
845.662	0.7
845.831	2.2
846	1.42
846.169	0.48
846.338	2.65
846.507	1.38
846.676	1.84
846.844	0.93
847.013	2.97
847.182	1.26
847.351	1.27
847.52	1.41
847.689	1.5
847.858	0.76
848.026	1.13
848.195	1.53
848.364	1.7
848.533	0.54
848.701	1.25
848.87	1.45
849.039	2.98
849.207	1.67
849.376	2.12
849.545	3.05
849.713	1.42
849.882	1.3
850.051	0.5
850.219	1.13
850.388	1.89
850.556	0.1
850.725	0.25
850.893	1.36
851.062	0.93
851.23	2.53
851.399	-1.05
851.567	1.62
851.736	1.31
851.904	0.56
852.073	1.28
852.241	2.92
852.41	2.27
852.578	1.48
852.746	0.8
852.915	2.31
853.083	1.41
853.251	0
853.42	1.14
853.588	1.52
853.756	2.72
853.924	0.5
854.093	1.43
854.261	1.41
854.429	-0.96
854.597	2.4
854.765	0.01
854.934	2.52
855.102	3.08
855.27	0.69
855.438	2.04
855.606	3.07
855.774	3.42
855.942	0.58
856.11	0.02
856.278	2.74
856.446	3.51
856.614	1.21
856.782	1.18
856.95	3.08
857.118	2.62
857.286	3
857.454	0.9
857.622	2.55
857.79	2.67
857.958	0
858.126	0.4
858.294	-0.48
858.462	1.88
858.629	0.7
858.797	0.87
858.965	2.5
859.133	2.82
859.301	0.92
859.468	3.29
859.636	1.71
859.804	4.28
859.971	2.94
860.139	1.14
860.307	4.3
860.474	1.83
860.642	2.22
860.81	1.71
860.977	1.35
861.145	3.82
861.313	1.27
861.48	0.42
861.648	2.87
861.815	2.22
861.983	0.6
862.15	0.17
862.318	3.69
862.485	3.9
862.653	0.14
862.82	0.45
862.988	4.49
863.155	4.75
863.322	1.1
863.49	1.2
863.657	1.34
863.824	4.84
863.992	3.52
864.159	1.73
864.326	3.4
864.494	0.8
864.661	4.08
864.828	0.15
864.996	5.07
865.163	4.57
865.33	0.92
865.497	-1.96
865.664	0.03
865.832	0.97
865.999	0.85
866.166	0.27
866.333	2.16
866.5	2.28
866.667	1.82
866.834	1.6
867.001	4.22
867.168	-0.21
867.335	1.63
867.502	0.96
867.669	3.07
867.836	4.83
868.003	1.05
868.17	2.38
868.337	1.39
868.504	6.59
868.671	-1.14
868.838	2.23
869.005	2.89
869.172	3.77
869.339	1.33
869.505	2.32
869.672	3.35
869.839	4.01
870.006	2.76
870.173	0.08
870.339	3.03
870.506	6.58
870.673	0.41
870.84	3.09
871.006	4.25
871.173	2.41
871.34	2.71
871.506	-0.47
871.673	0.83
871.839	0.13
872.006	3.01
872.173	1.78
872.339	2.44
872.506	5.47
872.672	3.19
872.839	-0.13
873.005	4.13
873.172	5.75
873.338	4.22
873.505	2.2
873.671	4.36
873.838	4.17
874.004	-1.02
874.171	1.73
874.337	3.25
874.503	3.14
874.67	1.69
874.836	2.48
875.002	4.51
875.169	4.38
875.335	1.48
875.501	2.16
875.668	4.51
875.834	1.56
876	1.58
876.166	3.88
876.332	4
876.499	5.54
876.665	1.32
876.831	1.28
876.997	6.33
877.163	5.22
877.329	2.98
877.495	3.77
877.662	3.96
877.828	2.77
877.994	1.75
878.16	-0.59
878.326	3.07
878.492	3.2
878.658	0.87
878.824	5.03
878.99	4.43
879.156	2.85
879.322	7.04
879.487	1.31
879.653	4.28
879.819	3.13
879.985	1.04
880.151	0.43
880.317	3.27
880.483	3.32
880.648	2.65
880.814	0.15
880.98	3.9
881.146	-2.35
881.312	1.07
881.477	1.86
881.643	3.57
881.809	3.33
881.974	4.59
882.14	-1.78
882.306	1.66
882.471	5.5
882.637	0.56
882.803	2.83
882.968	7.01
883.134	7.01
883.299	1.07
883.465	2.61
883.63	6.02
883.796	2.33
883.961	3.31
884.127	4.59
884.292	-1.04
884.458	1.33
884.623	1.33
