Data from Apollo_Calib_20240827__AbsoluteIrradiance__814__12-43-00-506.txt Node

Date: Wed Aug 28 12:43:00 BST 2024
User: biology
Spectrometer: FLMT08252
Trigger mode: 0
Integration Time (sec): 5.000000E-1
Scans to average: 5
Electric dark correction enabled: true
Nonlinearity correction enabled: false
Boxcar width: 0
XAxis mode: Wavelengths
Number of Pixels in Spectrum: 3648
>>>>>Begin Spectral Data<<<<<
179.588	-0
179.809	-0
180.03	-0
180.251	-0
180.473	-0
180.694	0
180.915	0
181.136	-0
181.357	0
181.578	-0
181.799	0
182.02	-0
182.241	-0
182.462	-0
182.683	0
182.904	-0
183.125	-0
183.346	0
183.567	0
183.788	0
184.009	0
184.23	0
184.451	0
184.672	0
184.892	0
185.113	0
185.334	0
185.555	0
185.776	0
185.996	0
186.217	0
186.438	0
186.659	0
186.879	0
187.1	0
187.321	0
187.541	0
187.762	0
187.983	0
188.203	0
188.424	0
188.644	0
188.865	0
189.086	0
189.306	0
189.527	0
189.747	0
189.968	0
190.188	0
190.409	0
190.629	0
190.849	0
191.07	0
191.29	0
191.511	0
191.731	0
191.951	0
192.172	0
192.392	0
192.612	0
192.833	0
193.053	0
193.273	0
193.493	0
193.714	0
193.934	0
194.154	0
194.374	0
194.594	0
194.815	0
195.035	0
195.255	0
195.475	0
195.695	0
195.915	0
196.135	0
196.355	0
196.575	0
196.795	0
197.015	0
197.235	0
197.455	0
197.675	0
197.895	0
198.115	0
198.335	0
198.555	0
198.775	0
198.995	0
199.214	0
199.434	0
199.654	0
199.874	0
200.094	4.67
200.313	1.96
200.533	1.86
200.753	2.06
200.973	3.53
201.192	2.86
201.412	1.76
201.632	1.45
201.851	3.4
202.071	1.79
202.291	1.68
202.51	1.43
202.73	2.9
202.95	1.61
203.169	1.1
203.389	1.98
203.608	2.23
203.828	1.63
204.047	1.51
204.267	2.69
204.486	2.67
204.706	2.26
204.925	1.88
205.145	1.16
205.364	2.17
205.583	2.91
205.803	1.22
206.022	0.73
206.242	1.66
206.461	1.65
206.68	1.3
206.9	1.65
207.119	2.6
207.338	2.08
207.557	1.17
207.777	1.4
207.996	1.65
208.215	2.33
208.434	1.03
208.654	0.67
208.873	1.82
209.092	2.26
209.311	0.94
209.53	1.03
209.749	1.17
209.968	0.92
210.187	1.05
210.407	0.33
210.626	1.32
210.845	1.77
211.064	1.42
211.283	0.76
211.502	1.55
211.721	1.22
211.94	0.91
212.159	1
212.377	1.44
212.596	1.52
212.815	1.29
213.034	0.97
213.253	1.33
213.472	1.35
213.691	1.05
213.91	0.75
214.128	0.64
214.347	1.55
214.566	0.34
214.785	0.56
215.003	1.27
215.222	1.21
215.441	0.9
215.66	0.36
215.878	1.1
216.097	1.36
216.316	0.65
216.534	0.88
216.753	1.05
216.972	0.89
217.19	0.81
217.409	0.6
217.627	0.75
217.846	0.75
218.064	0.95
218.283	0.66
218.501	1.48
218.72	1.12
218.938	0.57
219.157	0.73
219.375	1.04
219.594	1.08
219.812	0.53
220.031	0.59
220.249	1.21
220.467	1.14
220.686	0.58
220.904	0.49
221.122	0.87
221.341	1.25
221.559	0.84
221.777	0.46
221.995	0.88
222.214	0.92
222.432	0.5
222.65	0.79
222.868	0.79
223.086	0.9
223.305	0.98
223.523	0.73
223.741	1.2
223.959	0.65
224.177	0.36
224.395	0.58
224.613	0.7
224.831	0.88
225.049	0.58
225.267	0.56
225.485	0.76
225.703	0.63
225.921	0.62
226.139	0.48
226.357	0.74
226.575	0.78
226.793	0.61
227.011	1.38
227.229	0.85
227.447	0.97
227.665	0.45
227.883	0.38
228.1	0.66
228.318	0.67
228.536	0.31
228.754	0.44
228.972	0.7
229.189	0.65
229.407	0.41
229.625	0.58
229.843	0.81
230.06	0.79
230.278	0.57
230.496	0.5
230.713	0.66
230.931	0.8
231.149	0.33
231.366	0.26
231.584	0.55
231.801	1.07
232.019	0.46
232.236	0.37
232.454	0.39
232.671	0.69
232.889	0.47
233.106	0.42
233.324	0.65
233.541	0.6
233.759	0.56
233.976	0.32
234.194	0.48
234.411	0.51
234.628	0.41
234.846	0.51
235.063	0.56
235.28	0.63
235.498	0.53
235.715	0.31
235.932	0.74
236.149	0.56
236.367	0.29
236.584	0.62
236.801	0.32
237.018	0.65
237.236	0.55
237.453	0.31
237.67	0.75
237.887	0.46
238.104	0.53
238.321	0.28
238.538	0.33
238.755	0.71
238.973	0.3
239.19	0.47
239.407	0.61
239.624	0.6
239.841	0.36
240.058	0.36
240.275	0.55
240.492	0.55
240.709	0.49
240.925	0.44
241.142	0.64
241.359	0.32
241.576	0.28
241.793	0.38
242.01	0.45
242.227	0.62
242.444	0.57
242.66	0.53
242.877	0.54
243.094	0.42
243.311	0.36
243.527	0.38
243.744	0.52
243.961	0.54
244.178	0.27
244.394	0.4
244.611	0.57
244.828	0.66
245.044	0.34
245.261	0.34
245.477	0.48
245.694	0.58
245.911	0.3
246.127	0.46
246.344	0.68
246.56	0.52
246.777	0.33
246.993	0.39
247.21	0.55
247.426	0.45
247.643	0.36
247.859	0.29
248.076	0.4
248.292	0.7
248.508	0.37
248.725	0.49
248.941	0.45
249.157	0.69
249.374	0.3
249.59	0.33
249.806	0.44
250.023	0.49
250.239	0.34
250.455	0.33
250.671	0.41
250.888	0.49
251.104	0.48
251.32	0.36
251.536	0.37
251.752	0.46
251.969	0.43
252.185	0.38
252.401	0.65
252.617	0.51
252.833	0.24
253.049	0.34
253.265	0.44
253.481	0.4
253.697	0.37
253.913	0.33
254.129	0.46
254.345	0.47
254.561	0.36
254.777	0.34
254.993	0.54
255.209	0.44
255.425	0.33
255.641	0.29
255.857	0.52
256.073	0.45
256.288	0.28
256.504	0.29
256.72	0.43
256.936	0.55
257.152	0.31
257.367	0.28
257.583	0.42
257.799	0.53
258.015	0.28
258.23	0.32
258.446	0.58
258.662	0.39
258.877	0.28
259.093	0.25
259.309	0.38
259.524	0.55
259.74	0.36
259.955	0.21
260.171	0.45
260.387	0.46
260.602	0.36
260.818	0.39
261.033	0.3
261.249	0.39
261.464	0.25
261.68	0.27
261.895	0.42
262.11	0.48
262.326	0.32
262.541	0.2
262.757	0.55
262.972	0.48
263.187	0.42
263.403	0.39
263.618	0.48
263.833	0.39
264.049	0.31
264.264	0.39
264.479	0.34
264.694	0.54
264.91	0.32
265.125	0.36
265.34	0.48
265.555	0.58
265.77	0.42
265.986	0.28
266.201	0.36
266.416	0.45
266.631	0.26
266.846	0.33
267.061	0.46
267.276	0.46
267.491	0.17
267.706	0.38
267.921	0.41
268.136	0.4
268.351	0.32
268.566	0.3
268.781	0.47
268.996	0.45
269.211	0.33
269.426	0.21
269.641	0.31
269.856	0.39
270.071	0.23
270.285	0.24
270.5	0.45
270.715	0.44
270.93	0.29
271.145	0.37
271.359	0.41
271.574	0.25
271.789	0.3
272.004	0.34
272.218	0.27
272.433	0.38
272.648	0.27
272.862	0.4
273.077	0.33
273.292	0.37
273.506	0.29
273.721	0.28
273.936	0.4
274.15	0.38
274.365	0.23
274.579	0.41
274.794	0.37
275.008	0.41
275.223	0.19
275.437	0.31
275.652	0.43
275.866	0.38
276.081	0.31
276.295	0.36
276.509	0.35
276.724	0.33
276.938	0.33
277.153	0.41
277.367	0.4
277.581	0.32
277.796	0.29
278.01	0.19
278.224	0.46
278.438	0.47
278.653	0.25
278.867	0.27
279.081	0.08
279.295	0.28
279.51	0.3
279.724	0.19
279.938	0.39
280.152	0.38
280.366	0.27
280.58	0.31
280.794	0.39
281.008	0.36
281.222	0.28
281.437	0.52
281.651	0.29
281.865	0.39
282.079	0.26
282.293	0.14
282.507	0.3
282.721	0.33
282.935	0.31
283.148	0.22
283.362	0.26
283.576	0.24
283.79	0.29
284.004	0.3
284.218	0.33
284.432	0.29
284.646	0.27
284.859	0.25
285.073	0.28
285.287	0.36
285.501	0.33
285.714	0.24
285.928	0.31
286.142	0.32
286.356	0.29
286.569	0.3
286.783	0.44
286.997	0.39
287.21	0.27
287.424	0.27
287.637	0.26
287.851	0.26
288.065	0.36
288.278	0.27
288.492	0.3
288.705	0.24
288.919	0.28
289.132	0.2
289.346	0.29
289.559	0.17
289.773	0.22
289.986	0.28
290.2	0.24
290.413	0.36
290.626	0.24
290.84	0.23
291.053	0.32
291.267	0.38
291.48	0.29
291.693	0.27
291.906	0.27
292.12	0.27
292.333	0.25
292.546	0.21
292.76	0.38
292.973	0.34
293.186	0.28
293.399	0.19
293.612	0.33
293.826	0.34
294.039	0.29
294.252	0.26
294.465	0.34
294.678	0.33
294.891	0.25
295.104	0.19
295.317	0.29
295.53	0.29
295.743	0.29
295.956	0.28
296.169	0.37
296.382	0.32
296.595	0.24
296.808	0.19
297.021	0.35
297.234	0.34
297.447	0.27
297.66	0.28
297.873	0.36
298.086	0.37
298.299	0.21
298.511	0.17
298.724	0.28
298.937	0.18
299.15	0.24
299.363	0.26
299.575	0.33
299.788	0.29
300.001	0.2
300.213	0.17
300.426	0.24
300.639	0.21
300.852	0.23
301.064	0.29
301.277	0.38
301.489	0.36
301.702	0.33
301.915	0.22
302.127	0.25
302.34	0.3
302.552	0.29
302.765	0.19
302.977	0.28
303.19	0.18
303.402	0.24
303.615	0.22
303.827	0.27
304.04	0.23
304.252	0.28
304.464	0.25
304.677	0.42
304.889	0.3
305.102	0.23
305.314	0.22
305.526	0.34
305.739	0.34
305.951	0.17
306.163	0.24
306.375	0.36
306.588	0.22
306.8	0.26
307.012	0.18
307.224	0.27
307.436	0.36
307.649	0.22
307.861	0.24
308.073	0.32
308.285	0.25
308.497	0.19
308.709	0.23
308.921	0.26
309.133	0.36
309.346	0.25
309.558	0.25
309.77	0.31
309.982	0.4
310.194	0.25
310.406	0.23
310.617	0.38
310.829	0.32
311.041	0.28
311.253	0.2
311.465	0.27
311.677	0.29
311.889	0.28
312.101	0.2
312.313	0.33
312.524	0.36
312.736	0.23
312.948	0.19
313.16	0.37
313.372	0.29
313.583	0.27
313.795	0.26
314.007	0.19
314.218	0.31
314.43	0.26
314.642	0.23
314.853	0.17
315.065	0.32
315.277	0.23
315.488	0.27
315.7	0.35
315.912	0.29
316.123	0.23
316.335	0.2
316.546	0.39
316.758	0.22
316.969	0.24
317.181	0.27
317.392	0.25
317.604	0.33
317.815	0.22
318.026	0.22
318.238	0.27
318.449	0.32
318.661	0.19
318.872	0.19
319.083	0.18
319.295	0.31
319.506	0.23
319.717	0.25
319.929	0.29
320.14	0.25
320.351	0.26
320.562	0.21
320.774	0.29
320.985	0.25
321.196	0.23
321.407	0.2
321.618	0.29
321.829	0.29
322.041	0.28
322.252	0.26
322.463	0.29
322.674	0.33
322.885	0.2
323.096	0.25
323.307	0.29
323.518	0.32
323.729	0.22
323.94	0.27
324.151	0.23
324.362	0.29
324.573	0.24
324.784	0.22
324.995	0.32
325.206	0.27
325.417	0.23
325.628	0.23
325.838	0.28
326.049	0.3
326.26	0.25
326.471	0.21
326.682	0.3
326.892	0.29
327.103	0.19
327.314	0.18
327.525	0.3
327.735	0.26
327.946	0.26
328.157	0.21
328.368	0.29
328.578	0.28
328.789	0.28
328.999	0.26
329.21	0.31
329.421	0.28
329.631	0.19
329.842	0.22
330.052	0.28
330.263	0.29
330.473	0.27
330.684	0.23
330.894	0.3
331.105	0.28
331.315	0.25
331.526	0.17
331.736	0.33
331.947	0.31
332.157	0.25
332.367	0.15
332.578	0.28
332.788	0.31
332.999	0.28
333.209	0.23
333.419	0.19
333.629	0.26
333.84	0.3
334.05	0.26
334.26	0.33
334.47	0.22
334.681	0.29
334.891	0.2
335.101	0.28
335.311	0.38
335.521	0.26
335.732	0.19
335.942	0.33
336.152	0.3
336.362	0.24
336.572	0.27
336.782	0.3
336.992	0.22
337.202	0.24
337.412	0.17
337.622	0.31
337.832	0.24
338.042	0.24
338.252	0.22
338.462	0.27
338.672	0.26
338.882	0.26
339.092	0.21
339.302	0.31
339.511	0.34
339.721	0.23
339.931	0.21
340.141	0.31
340.351	0.32
340.561	0.26
340.77	0.26
340.98	0.3
341.19	0.23
341.4	0.23
341.609	0.2
341.819	0.22
342.029	0.17
342.238	0.3
342.448	0.26
342.658	0.31
342.867	0.25
343.077	0.28
343.286	0.23
343.496	0.28
343.706	0.33
343.915	0.17
344.125	0.21
344.334	0.28
344.544	0.22
344.753	0.22
344.963	0.18
345.172	0.23
345.381	0.22
345.591	0.2
345.8	0.24
346.01	0.31
346.219	0.33
346.428	0.21
346.638	0.21
346.847	0.23
347.056	0.31
347.266	0.19
347.475	0.21
347.684	0.31
347.893	0.26
348.103	0.26
348.312	0.2
348.521	0.24
348.73	0.29
348.94	0.27
349.149	0.23
349.358	0.21
349.567	0.2
349.776	0.18
349.985	0.22
350.194	0.31
350.403	0.34
350.612	0.15
350.821	0.23
351.03	0.24
351.239	0.19
351.448	0.25
351.657	0.18
351.866	0.35
352.075	0.25
352.284	0.28
352.493	0.18
352.702	0.33
352.911	0.25
353.12	0.26
353.329	0.25
353.538	0.31
353.746	0.27
353.955	0.19
354.164	0.24
354.373	0.25
354.582	0.29
354.79	0.24
354.999	0.28
355.208	0.29
355.416	0.36
355.625	0.19
355.834	0.25
356.042	0.3
356.251	0.21
356.46	0.25
356.668	0.26
356.877	0.35
357.085	0.29
357.294	0.19
357.503	0.24
357.711	0.25
357.92	0.39
358.128	0.3
358.337	0.18
358.545	0.31
358.754	0.22
358.962	0.26
359.17	0.24
359.379	0.3
359.587	0.27
359.796	0.22
360.004	0.29
360.212	0.3
360.421	0.34
360.629	0.22
360.837	0.22
361.046	0.31
361.254	0.4
361.462	0.25
361.67	0.24
361.879	0.27
362.087	0.32
362.295	0.26
362.503	0.23
362.711	0.2
362.92	0.19
363.128	0.26
363.336	0.23
363.544	0.19
363.752	0.26
363.96	0.24
364.168	0.18
364.376	0.28
364.584	0.21
364.792	0.29
365	0.27
365.208	0.25
365.416	0.28
365.624	0.3
365.832	0.21
366.04	0.32
366.248	0.28
366.456	0.23
366.664	0.22
366.872	0.21
367.079	0.25
367.287	0.29
367.495	0.26
367.703	0.26
367.911	0.22
368.118	0.24
368.326	0.26
368.534	0.19
368.742	0.33
368.949	0.18
369.157	0.19
369.365	0.28
369.572	0.25
369.78	0.19
369.988	0.29
370.195	0.26
370.403	0.33
370.61	0.21
370.818	0.22
371.026	0.37
371.233	0.25
371.441	0.26
371.648	0.22
371.856	0.23
372.063	0.23
372.271	0.22
372.478	0.24
372.685	0.21
372.893	0.29
373.1	0.25
373.308	0.25
373.515	0.42
373.722	0.34
373.93	0.25
374.137	0.3
374.344	0.38
374.552	0.29
374.759	0.23
374.966	0.25
375.173	0.23
375.381	0.32
375.588	0.26
375.795	0.16
376.002	0.25
376.209	0.24
376.417	0.24
376.624	0.28
376.831	0.29
377.038	0.26
377.245	0.14
377.452	0.25
377.659	0.21
377.866	0.23
378.073	0.23
378.28	0.26
378.487	0.31
378.694	0.33
378.901	0.22
379.108	0.26
379.315	0.31
379.522	0.4
379.729	0.27
379.936	0.23
380.143	0.28
380.35	0.3
380.557	0.25
380.763	0.24
380.97	0.28
381.177	0.33
381.384	0.29
381.591	0.23
381.797	0.26
382.004	0.3
382.211	0.29
382.418	0.18
382.624	0.31
382.831	0.3
383.038	0.27
383.244	0.3
383.451	0.27
383.658	0.29
383.864	0.23
384.071	0.26
384.277	0.35
384.484	0.24
384.69	0.33
384.897	0.26
385.103	0.29
385.31	0.26
385.516	0.28
385.723	0.21
385.929	0.27
386.136	0.27
386.342	0.34
386.549	0.28
386.755	0.34
386.961	0.29
387.168	0.27
387.374	0.27
387.58	0.3
387.787	0.27
387.993	0.27
388.199	0.26
388.406	0.26
388.612	0.29
388.818	0.23
389.024	0.24
389.231	0.26
389.437	0.36
389.643	0.28
389.849	0.27
390.055	0.31
390.261	0.26
390.467	0.37
390.674	0.25
390.88	0.3
391.086	0.29
391.292	0.28
391.498	0.3
391.704	0.28
391.91	0.28
392.116	0.27
392.322	0.18
392.528	0.33
392.734	0.29
392.94	0.3
393.146	0.31
393.352	0.31
393.557	0.23
393.763	0.31
393.969	0.36
394.175	0.33
394.381	0.29
394.587	0.22
394.792	0.26
394.998	0.37
395.204	0.41
395.41	0.28
395.615	0.32
395.821	0.31
396.027	0.3
396.233	0.27
396.438	0.34
396.644	0.37
396.85	0.37
397.055	0.33
397.261	0.35
397.466	0.43
397.672	0.4
397.878	0.38
398.083	0.35
398.289	0.29
398.494	0.41
398.7	0.37
398.905	0.26
399.111	0.46
399.316	0.26
399.522	0.3
399.727	0.35
399.932	0.35
400.138	0.36
400.343	0.39
400.549	0.33
400.754	0.36
400.959	0.39
401.165	0.35
401.37	0.39
401.575	0.53
401.78	0.37
401.986	0.36
402.191	0.34
402.396	0.41
402.601	0.43
402.807	0.42
403.012	0.38
403.217	0.48
403.422	0.4
403.627	0.4
403.832	0.36
404.037	0.49
404.243	0.44
404.448	0.39
404.653	0.39
404.858	0.44
405.063	0.45
405.268	0.38
405.473	0.41
405.678	0.41
405.883	0.68
406.088	0.52
406.293	0.42
406.498	0.47
406.703	0.54
406.907	0.5
407.112	0.46
407.317	0.53
407.522	0.58
407.727	0.52
407.932	0.51
408.136	0.69
408.341	0.6
408.546	0.6
408.751	0.61
408.956	0.61
409.16	0.69
409.365	0.64
409.57	0.62
409.774	0.57
409.979	0.7
410.184	0.69
410.388	0.61
410.593	0.81
410.798	0.71
411.002	0.73
411.207	0.72
411.411	0.82
411.616	0.73
411.82	0.86
412.025	0.88
412.229	0.83
412.434	1.02
412.638	0.92
412.843	0.9
413.047	0.98
413.252	0.95
413.456	1
413.66	1.09
413.865	1.08
414.069	1.18
414.273	1.12
414.478	1.1
414.682	1.18
414.886	1.19
415.091	1.21
415.295	1.26
415.499	1.39
415.703	1.34
415.908	1.46
416.112	1.43
416.316	1.6
416.52	1.61
416.724	1.56
416.929	1.63
417.133	1.86
417.337	1.7
417.541	1.81
417.745	1.84
417.949	2.02
418.153	2.04
418.357	2
418.561	2.28
418.765	2.24
418.969	2.37
419.173	2.44
419.377	2.36
419.581	2.66
419.785	2.66
419.989	2.66
420.193	2.81
420.397	2.88
420.601	2.98
420.804	3.12
421.008	3.05
421.212	3.32
421.416	3.27
421.62	3.26
421.823	3.32
422.027	3.56
422.231	3.48
422.435	3.5
422.638	3.51
422.842	3.67
423.046	3.72
423.249	3.91
423.453	3.95
423.657	4.13
423.86	4.2
424.064	4.3
424.268	4.53
424.471	4.45
424.675	4.76
424.878	4.76
425.082	4.9
425.285	5.13
425.489	5.12
425.692	5.21
425.896	5.22
426.099	5.51
426.303	5.63
426.506	5.76
426.71	5.94
426.913	6.15
427.116	6.36
427.32	6.27
427.523	6.35
427.726	6.69
427.93	6.76
428.133	7.15
428.336	7.22
428.54	7.33
428.743	7.59
428.946	7.97
429.149	7.91
429.353	7.87
429.556	8.05
429.759	7.95
429.962	8.1
430.165	8.28
430.368	7.99
430.571	8.02
430.775	8.11
430.978	8.03
431.181	8.16
431.384	8.11
431.587	8.31
431.79	8.65
431.993	8.6
432.196	8.97
432.399	9.24
432.602	9.42
432.805	9.49
433.008	10.06
433.211	9.94
433.414	10.25
433.616	10.38
433.819	10.23
434.022	10.45
434.225	10.61
434.428	10.63
434.631	11.07
434.833	10.81
435.036	11.1
435.239	11.28
435.442	11.16
435.645	11.53
435.847	11.61
436.05	12.04
436.253	12.04
436.455	12.15
436.658	12.12
436.861	12.25
437.063	12.43
437.266	12.37
437.468	12.7
437.671	13.17
437.874	13.23
438.076	12.93
438.279	13.31
438.481	13.42
438.684	14.14
438.886	13.77
439.089	14.13
439.291	14.17
439.494	14.52
439.696	14.68
439.899	15.2
440.101	15.6
440.303	15.71
440.506	16.39
440.708	16.07
440.91	16.42
441.113	16.66
441.315	16.88
441.517	16.64
441.72	17.13
441.922	16.89
442.124	16.77
442.326	17.2
442.529	17.43
442.731	17.36
442.933	17.61
443.135	17.35
443.337	17.47
443.539	17.98
443.742	17.65
443.944	18.17
444.146	18.07
444.348	17.97
444.55	17.9
444.752	18.1
444.954	18.1
445.156	17.97
445.358	18.31
445.56	18.74
445.762	18.51
445.964	18.65
446.166	18.42
446.368	18.53
446.57	18.51
446.772	18.11
446.974	17.86
447.175	18.2
447.377	17.99
447.579	18.26
447.781	18.04
447.983	17.74
448.184	17.32
448.386	17.72
448.588	17.25
448.79	17.11
448.991	17.34
449.193	17.46
449.395	16.69
449.597	16.38
449.798	16.3
450	15.96
450.202	15.81
450.403	15.82
450.605	15.66
450.806	15.41
451.008	15.04
451.21	14.9
451.411	14.49
451.613	13.71
451.814	13.9
452.016	13.92
452.217	13.11
452.419	13.27
452.62	12.91
452.821	12.64
453.023	12.55
453.224	12.3
453.426	11.84
453.627	11.05
453.828	11.02
454.03	11.26
454.231	11.28
454.432	10.9
454.634	10.69
454.835	10.5
455.036	10.29
455.238	10.02
455.439	9.79
455.64	9.5
455.841	9.28
456.042	9.51
456.244	9.04
456.445	8.89
456.646	8.56
456.847	8.5
457.048	8.45
457.249	8.52
457.45	8.27
457.651	7.7
457.852	7.61
458.054	7.22
458.255	7.23
458.456	7.25
458.657	7.15
458.858	6.74
459.058	6.69
459.259	6.69
459.46	6.42
459.661	6.39
459.862	6.47
460.063	6.32
460.264	6.19
460.465	5.92
460.666	6.02
460.866	5.73
461.067	5.49
461.268	5.5
461.469	5.41
461.67	5.44
461.87	5.16
462.071	5.25
462.272	5.13
462.473	5.09
462.673	5.27
462.874	5.11
463.075	5.17
463.275	5.07
463.476	5.14
463.676	5.06
463.877	4.91
464.078	4.84
464.278	4.92
464.479	4.8
464.679	4.73
464.88	4.65
465.08	4.6
465.281	4.48
465.481	4.3
465.682	4.17
465.882	4.17
466.083	4.1
466.283	4.03
466.483	3.88
466.684	3.74
466.884	3.6
467.085	3.64
467.285	3.71
467.485	3.55
467.686	3.52
467.886	3.42
468.086	3.36
468.286	3.34
468.487	3.47
468.687	3.24
468.887	3.21
469.087	3.3
469.287	3.28
469.488	3.02
469.688	3.18
469.888	3.13
470.088	3.14
470.288	2.98
470.488	3.04
470.688	2.86
470.888	2.87
471.088	2.64
471.288	2.81
471.488	2.75
471.688	2.71
471.888	2.65
472.088	2.86
472.288	2.73
472.488	2.55
472.688	2.54
472.888	2.6
473.088	2.6
473.288	2.53
473.488	2.45
473.688	2.62
473.887	2.46
474.087	2.39
474.287	2.45
474.487	2.42
474.687	2.41
474.886	2.39
475.086	2.26
475.286	2.36
475.486	2.27
475.685	2.28
475.885	2.18
476.085	2.34
476.284	2.25
476.484	2.33
476.684	2.23
476.883	2.32
477.083	2.17
477.282	2.14
477.482	2.18
477.681	2.11
477.881	2.04
478.08	2.13
478.28	2.05
478.479	2.13
478.679	2.21
478.878	2
479.078	2
479.277	2.09
479.477	2.03
479.676	2.01
479.875	1.98
480.075	1.93
480.274	1.97
480.473	2.07
480.673	1.99
480.872	2.09
481.071	2.06
481.271	2.04
481.47	1.98
481.669	1.97
481.868	1.97
482.067	1.95
482.267	1.94
482.466	1.95
482.665	1.95
482.864	1.97
483.063	1.91
483.262	1.99
483.461	2.04
483.661	2.07
483.86	1.96
484.059	2.03
484.258	2.02
484.457	2.05
484.656	1.97
484.855	2.11
485.054	1.9
485.253	1.96
485.452	1.93
485.651	2.07
485.849	2.01
486.048	1.94
486.247	2.02
486.446	2.07
486.645	2.02
486.844	2.07
487.043	2.01
487.241	2.08
487.44	2.06
487.639	2.06
487.838	2.12
488.037	2.11
488.235	2.21
488.434	2.13
488.633	2.03
488.831	2.23
489.03	2.19
489.229	2.18
489.427	2.22
489.626	2.28
489.825	2.29
490.023	2.28
490.222	2.28
490.42	2.32
490.619	2.32
490.817	2.38
491.016	2.36
491.214	2.41
491.413	2.39
491.611	2.35
491.81	2.38
492.008	2.46
492.207	2.56
492.405	2.51
492.604	2.46
492.802	2.57
493	2.59
493.199	2.58
493.397	2.63
493.595	2.7
493.794	2.66
493.992	2.77
494.19	2.74
494.388	2.78
494.587	2.76
494.785	2.77
494.983	2.68
495.181	2.85
495.379	2.9
495.578	2.93
495.776	2.94
495.974	2.95
496.172	3
496.37	3.08
496.568	3.1
496.766	3.11
496.964	3.19
497.162	3.16
497.36	3.21
497.558	3.25
497.756	3.3
497.954	3.27
498.152	3.34
498.35	3.45
498.548	3.38
498.746	3.41
498.944	3.38
499.142	3.44
499.34	3.52
499.538	3.64
499.736	3.49
499.933	3.62
500.131	3.66
500.329	3.73
500.527	3.72
500.725	3.85
500.922	3.88
501.12	3.89
501.318	3.96
501.516	3.93
501.713	4
501.911	3.98
502.109	3.95
502.306	4.07
502.504	4.02
502.701	4.09
502.899	4.11
503.097	4.33
503.294	4.21
503.492	4.3
503.689	4.32
503.887	4.37
504.084	4.4
504.282	4.43
504.479	4.39
504.677	4.58
504.874	4.55
505.072	4.46
505.269	4.71
505.466	4.7
505.664	4.71
505.861	4.63
506.059	4.76
506.256	4.8
506.453	4.83
506.651	5
506.848	4.97
507.045	4.99
507.242	4.98
507.44	5.02
507.637	5.07
507.834	5.05
508.031	5.22
508.229	5.13
508.426	5.09
508.623	5.29
508.82	5.3
509.017	5.25
509.214	5.28
509.411	5.41
509.608	5.31
509.805	5.48
510.003	5.45
510.2	5.53
510.397	5.63
510.594	5.55
510.791	5.63
510.988	5.61
511.184	5.59
511.381	5.51
511.578	5.66
511.775	5.8
511.972	5.7
512.169	5.84
512.366	5.83
512.563	5.93
512.76	5.97
512.956	6.02
513.153	5.9
513.35	5.92
513.547	5.93
513.744	5.98
513.94	6.01
514.137	6.11
514.334	6.12
514.53	6.13
514.727	6.39
514.924	6.27
515.12	6.21
515.317	6.28
515.514	6.21
515.71	6.15
515.907	6.45
516.103	6.4
516.3	6.35
516.497	6.42
516.693	6.48
516.89	6.47
517.086	6.49
517.283	6.58
517.479	6.42
517.676	6.63
517.872	6.67
518.068	6.63
518.265	6.61
518.461	6.53
518.658	6.67
518.854	6.68
519.05	6.85
519.247	6.84
519.443	6.77
519.639	6.87
519.836	6.83
520.032	6.75
520.228	6.87
520.424	6.85
520.621	6.9
520.817	6.93
521.013	6.83
521.209	7.08
521.405	7.04
521.601	7.07
521.798	7.01
521.994	7.09
522.19	7
522.386	7.04
522.582	7.12
522.778	7.29
522.974	7.12
523.17	7.14
523.366	7.11
523.562	7.19
523.758	7.2
523.954	7.01
524.15	7.2
524.346	7.24
524.542	7.26
524.738	7.24
524.934	7.41
525.129	7.28
525.325	7.28
525.521	7.24
525.717	7.45
525.913	7.29
526.109	7.35
526.304	7.43
526.5	7.47
526.696	7.49
526.892	7.4
527.087	7.64
527.283	7.49
527.479	7.51
527.674	7.34
527.87	7.46
528.066	7.48
528.261	7.51
528.457	7.47
528.653	7.59
528.848	7.59
529.044	7.68
529.239	7.47
529.435	7.52
529.63	7.45
529.826	7.53
530.021	7.6
530.217	7.65
530.412	7.58
530.608	7.66
530.803	7.64
530.999	7.49
531.194	7.61
531.389	7.67
531.585	7.64
531.78	7.77
531.975	7.73
532.171	7.77
532.366	7.69
532.561	7.77
532.757	7.66
532.952	7.86
533.147	7.63
533.342	7.81
533.538	7.64
533.733	7.91
533.928	7.58
534.123	7.78
534.318	7.78
534.513	7.71
534.709	7.89
534.904	7.86
535.099	7.87
535.294	7.92
535.489	7.85
535.684	7.79
535.879	7.79
536.074	7.87
536.269	7.88
536.464	7.95
536.659	7.83
536.854	7.88
537.049	7.97
537.244	7.87
537.439	7.95
537.634	7.87
537.828	7.99
538.023	7.94
538.218	7.93
538.413	7.87
538.608	7.9
538.803	7.95
538.997	7.87
539.192	8
539.387	7.94
539.582	7.89
539.776	7.84
539.971	7.98
540.166	8.07
540.36	7.93
540.555	8.08
540.75	7.88
540.944	7.98
541.139	8
541.334	8
541.528	8.03
541.723	8.11
541.917	8.08
542.112	7.95
542.306	7.86
542.501	7.9
542.695	7.93
542.89	7.97
543.084	8.02
543.279	8.06
543.473	8.07
543.668	8.1
543.862	7.9
544.056	7.88
544.251	8.04
544.445	8.1
544.64	8.17
544.834	7.84
545.028	7.67
545.222	8
545.417	8.14
545.611	8.1
545.805	8.04
546	7.84
546.194	7.99
546.388	8.07
546.582	7.94
546.776	7.97
546.97	8.04
547.165	8.05
547.359	8.06
547.553	7.93
547.747	8.05
547.941	8.2
548.135	8.01
548.329	8.09
548.523	8.09
548.717	8.02
548.911	8
549.105	8
549.299	8.15
549.493	8.07
549.687	7.97
549.881	8.08
550.075	8.09
550.269	7.99
550.463	8.09
550.657	8.13
550.85	8.03
551.044	8.09
551.238	8.09
551.432	8.03
551.626	8.11
551.82	8.13
552.013	8.01
552.207	8.2
552.401	8.18
552.594	8.1
552.788	8.01
552.982	8.06
553.176	7.98
553.369	8.22
553.563	8.06
553.756	8
553.95	8.14
554.144	8.19
554.337	8.16
554.531	7.9
554.724	8.13
554.918	8.19
555.111	8.03
555.305	8.13
555.498	8.02
555.692	8.2
555.885	8.16
556.079	8.03
556.272	8.1
556.466	8.13
556.659	8.03
556.852	8.18
557.046	8.02
557.239	7.95
557.432	8
557.626	8.07
557.819	8.16
558.012	8.06
558.206	8.18
558.399	8.05
558.592	8.03
558.785	8.03
558.979	8.13
559.172	8.11
559.365	8.1
559.558	8.06
559.751	8.03
559.944	8.16
560.138	8.01
560.331	8.13
560.524	8.16
560.717	8.08
560.91	8.08
561.103	8.12
561.296	7.98
561.489	8.18
561.682	8.19
561.875	8.1
562.068	8.21
562.261	8
562.454	8.26
562.647	8.12
562.84	8.16
563.032	8.13
563.225	8.07
563.418	8.04
563.611	8.2
563.804	8.06
563.997	7.93
564.19	7.87
564.382	8.17
564.575	8.05
564.768	8.01
564.961	8.17
565.153	8.06
565.346	8.01
565.539	8.12
565.731	8.08
565.924	8.18
566.117	8.2
566.309	8.05
566.502	8
566.695	7.95
566.887	8.08
567.08	8.06
567.272	8.15
567.465	8
567.657	8.07
567.85	7.96
568.042	8.13
568.235	8.08
568.427	7.91
568.62	8.05
568.812	8
569.005	8.14
569.197	7.95
569.389	8.02
569.582	7.98
569.774	8.02
569.966	7.97
570.159	7.92
570.351	7.93
570.543	8.03
570.736	8
570.928	7.92
571.12	8.05
571.312	7.96
571.505	7.8
571.697	8
571.889	7.94
572.081	7.99
572.273	7.93
572.465	7.96
572.658	7.96
572.85	7.98
573.042	8.04
573.234	7.91
573.426	7.98
573.618	7.87
573.81	8.01
574.002	7.93
574.194	8
574.386	7.88
574.578	7.79
574.77	7.89
574.962	7.95
575.154	7.84
575.346	7.79
575.538	7.83
575.729	7.81
575.921	7.94
576.113	8.01
576.305	7.97
576.497	7.94
576.689	7.82
576.88	7.72
577.072	7.96
577.264	7.91
577.456	7.88
577.647	7.76
577.839	7.95
578.031	7.87
578.223	7.84
578.414	7.76
578.606	7.87
578.798	7.9
578.989	7.83
579.181	7.88
579.372	7.82
579.564	7.86
579.755	7.72
579.947	7.72
580.139	7.81
580.33	7.68
580.522	7.74
580.713	7.72
580.905	7.72
581.096	7.86
581.287	7.73
581.479	7.67
581.67	7.8
581.862	7.63
582.053	7.69
582.244	7.61
582.436	7.77
582.627	7.58
582.818	7.61
583.01	7.62
583.201	7.73
583.392	7.58
583.583	7.57
583.775	7.47
583.966	7.55
584.157	7.58
584.348	7.65
584.54	7.61
584.731	7.59
584.922	7.59
585.113	7.52
585.304	7.52
585.495	7.57
585.686	7.59
585.877	7.55
586.068	7.66
586.259	7.54
586.45	7.55
586.641	7.49
586.832	7.57
587.023	7.48
587.214	7.45
587.405	7.49
587.596	7.39
587.787	7.37
587.978	7.5
588.169	7.35
588.36	7.37
588.551	7.45
588.742	7.45
588.932	7.49
589.123	7.2
589.314	7.47
589.505	7.37
589.696	7.33
589.886	7.36
590.077	7.31
590.268	7.27
590.458	7.21
590.649	7.16
590.84	7.32
591.03	7.3
591.221	7.23
591.412	7.16
591.602	7.34
591.793	7.21
591.984	7.22
592.174	7.26
592.365	7.37
592.555	7.14
592.746	7.12
592.936	7.16
593.127	7.22
593.317	7.16
593.508	7.14
593.698	7.04
593.889	7.08
594.079	7.05
594.269	7.02
594.46	7.08
594.65	7.1
594.84	7
595.031	6.89
595.221	6.93
595.411	6.91
595.602	7.04
595.792	6.93
595.982	6.85
596.172	7.04
596.363	6.87
596.553	6.87
596.743	6.97
596.933	6.93
597.123	6.87
597.314	6.79
597.504	6.72
597.694	6.9
597.884	6.81
598.074	6.86
598.264	6.79
598.454	6.82
598.644	6.78
598.834	6.69
599.024	6.71
599.214	6.61
599.404	6.79
599.594	6.73
599.784	6.66
599.974	6.74
600.164	6.69
600.354	6.6
600.544	6.55
600.734	6.61
600.924	6.66
601.114	6.49
601.303	6.54
601.493	6.62
601.683	6.59
601.873	6.52
602.063	6.41
602.252	6.55
602.442	6.36
602.632	6.37
602.821	6.42
603.011	6.5
603.201	6.39
603.39	6.38
603.58	6.34
603.77	6.39
603.959	6.38
604.149	6.32
604.339	6.41
604.528	6.43
604.718	6.37
604.907	6.24
605.097	6.27
605.286	6.24
605.476	6.29
605.665	6.26
605.855	6.21
606.044	6.33
606.234	6.24
606.423	6.2
606.612	6.14
606.802	6.09
606.991	6.15
607.181	6.13
607.37	6.18
607.559	5.92
607.749	6.05
607.938	5.99
608.127	6.04
608.316	6.01
608.506	6.01
608.695	6.09
608.884	6
609.073	6.05
609.263	6.11
609.452	6
609.641	5.87
609.83	5.84
610.019	5.95
610.208	5.85
610.397	5.83
610.586	5.89
610.775	5.76
610.965	5.85
611.154	5.69
611.343	5.76
611.532	5.68
611.721	5.71
611.91	5.67
612.099	5.7
612.287	5.6
612.476	5.58
612.665	5.79
612.854	5.65
613.043	5.64
613.232	5.63
613.421	5.53
613.61	5.6
613.798	5.58
613.987	5.55
614.176	5.52
614.365	5.53
614.554	5.53
614.742	5.53
614.931	5.35
615.12	5.52
615.309	5.45
615.497	5.39
615.686	5.27
615.875	5.35
616.063	5.32
616.252	5.33
616.44	5.37
616.629	5.3
616.818	5.28
617.006	5.25
617.195	5.21
617.383	5.22
617.572	5.1
617.76	5.21
617.949	5.13
618.137	5.29
618.326	5.24
618.514	4.98
618.703	4.99
618.891	5.19
619.079	5.05
619.268	5.15
619.456	5
619.644	5.11
619.833	5.03
620.021	5.02
620.209	4.83
620.398	4.98
620.586	4.96
620.774	4.93
620.962	4.93
621.151	5.04
621.339	4.94
621.527	4.81
621.715	4.78
621.903	4.87
622.092	4.79
622.28	4.9
622.468	4.69
622.656	4.79
622.844	4.72
623.032	4.8
623.22	4.65
623.408	4.77
623.596	4.73
623.784	4.73
623.972	4.63
624.16	4.6
624.348	4.69
624.536	4.7
624.724	4.59
624.912	4.62
625.1	4.67
625.288	4.56
625.476	4.52
625.664	4.61
625.851	4.54
626.039	4.59
626.227	4.48
626.415	4.48
626.603	4.41
626.79	4.46
626.978	4.46
627.166	4.4
627.354	4.35
627.541	4.34
627.729	4.19
627.917	4.5
628.104	4.42
628.292	4.29
628.48	4.32
628.667	4.24
628.855	4.32
629.042	4.37
629.23	4.22
629.418	4.24
629.605	4.25
629.793	4.15
629.98	4.17
630.168	4.15
630.355	4.21
630.543	4.21
630.73	4.04
630.917	4.02
631.105	4.27
631.292	4.11
631.48	4.08
631.667	4.14
631.854	4.05
632.042	4
632.229	3.96
632.416	3.98
632.604	3.98
632.791	3.86
632.978	3.96
633.165	3.93
633.353	4.05
633.54	4.06
633.727	3.78
633.914	3.83
634.101	3.76
634.289	3.93
634.476	3.8
634.663	3.75
634.85	3.78
635.037	3.72
635.224	3.69
635.411	3.81
635.598	3.75
635.785	3.69
635.972	3.7
636.159	3.73
636.346	3.62
636.533	3.58
636.72	3.67
636.907	3.63
637.094	3.64
637.281	3.5
637.468	3.57
637.655	3.57
637.842	3.57
638.029	3.58
638.215	3.52
638.402	3.55
638.589	3.49
638.776	3.43
638.963	3.49
639.149	3.57
639.336	3.55
639.523	3.44
639.709	3.38
639.896	3.36
640.083	3.42
640.27	3.44
640.456	3.35
640.643	3.32
640.829	3.23
641.016	3.26
641.203	3.23
641.389	3.33
641.576	3.26
641.762	3.27
641.949	3.18
642.135	3.21
642.322	3.17
642.508	3.12
642.695	3.24
642.881	3.1
643.068	3.13
643.254	3.12
643.441	3.18
643.627	3.14
643.813	3.1
644	3.1
644.186	3.01
644.372	3.11
644.559	3.07
644.745	3.02
644.931	2.96
645.118	3.04
645.304	3.04
645.49	3
645.676	2.98
645.862	2.97
646.049	3.02
646.235	2.96
646.421	3.07
646.607	3.03
646.793	2.92
646.979	2.85
647.165	2.85
647.352	2.94
647.538	2.93
647.724	2.88
647.91	2.8
648.096	2.88
648.282	2.88
648.468	2.75
648.654	2.81
648.84	2.9
649.026	2.76
649.212	2.74
649.397	2.68
649.583	2.63
649.769	2.76
649.955	2.67
650.141	2.76
650.327	2.75
650.513	2.64
650.698	2.67
650.884	2.55
651.07	2.67
651.256	2.62
651.442	2.59
651.627	2.57
651.813	2.63
651.999	2.54
652.184	2.53
652.37	2.52
652.556	2.52
652.741	2.53
652.927	2.43
653.113	2.46
653.298	2.55
653.484	2.45
653.669	2.44
653.855	2.44
654.04	2.57
654.226	2.47
654.412	2.42
654.597	2.37
654.782	2.43
654.968	2.39
655.153	2.39
655.339	2.36
655.524	2.36
655.71	2.41
655.895	2.38
656.08	2.33
656.266	2.43
656.451	2.33
656.636	2.28
656.822	2.27
657.007	2.26
657.192	2.25
657.378	2.22
657.563	2.2
657.748	2.24
657.933	2.28
658.118	2.18
658.304	2.23
658.489	2.28
658.674	2.24
658.859	2.14
659.044	2.17
659.229	2.21
659.414	2.11
659.599	2.15
659.785	2.08
659.97	2.12
660.155	2.15
660.34	2.15
660.525	2.06
660.71	2.07
660.895	2.14
661.08	2.02
661.264	2.04
661.449	2.13
661.634	2.07
661.819	2.08
662.004	2.04
662.189	1.92
662.374	1.97
662.559	1.99
662.743	1.92
662.928	1.95
663.113	1.91
663.298	1.94
663.483	1.89
663.667	1.93
663.852	1.88
664.037	1.94
664.221	1.88
664.406	1.97
664.591	1.95
664.775	1.89
664.96	1.78
665.145	1.86
665.329	1.96
665.514	1.87
665.698	1.84
665.883	1.75
666.068	1.91
666.252	1.83
666.437	1.74
666.621	1.8
666.806	1.86
666.99	1.79
667.174	1.73
667.359	1.85
667.543	1.76
667.728	1.75
667.912	1.68
668.096	1.76
668.281	1.72
668.465	1.76
668.649	1.73
668.834	1.66
669.018	1.7
669.202	1.66
669.387	1.67
669.571	1.75
669.755	1.65
669.939	1.71
670.124	1.69
670.308	1.73
670.492	1.69
670.676	1.61
670.86	1.6
671.044	1.56
671.228	1.68
671.413	1.52
671.597	1.52
671.781	1.59
671.965	1.64
672.149	1.57
672.333	1.59
672.517	1.57
672.701	1.59
672.885	1.59
673.069	1.45
673.253	1.64
673.437	1.58
673.621	1.45
673.804	1.53
673.988	1.55
674.172	1.46
674.356	1.44
674.54	1.47
674.724	1.61
674.908	1.47
675.091	1.51
675.275	1.5
675.459	1.55
675.643	1.42
675.826	1.5
676.01	1.45
676.194	1.47
676.377	1.48
676.561	1.48
676.745	1.42
676.928	1.46
677.112	1.46
677.296	1.38
677.479	1.36
677.663	1.39
677.846	1.43
678.03	1.36
678.213	1.28
678.397	1.41
678.58	1.37
678.764	1.31
678.947	1.32
679.131	1.38
679.314	1.38
679.498	1.29
679.681	1.42
679.865	1.36
680.048	1.33
680.231	1.31
680.415	1.25
680.598	1.28
680.781	1.31
680.965	1.27
681.148	1.34
681.331	1.22
681.514	1.29
681.698	1.2
681.881	1.3
682.064	1.26
682.247	1.26
682.43	1.17
682.614	1.22
682.797	1.33
682.98	1.29
683.163	1.17
683.346	1.25
683.529	1.18
683.712	1.18
683.895	1.31
684.078	1.17
684.261	1.18
684.444	1.21
684.627	1.2
684.81	1.13
684.993	1.13
685.176	1.25
685.359	1.08
685.542	1.11
685.725	1.24
685.908	1.16
686.091	1.14
686.274	1.21
686.457	1.16
686.639	1.16
686.822	1.15
687.005	1.1
687.188	1.18
687.371	1.25
687.553	1.1
687.736	1.11
687.919	1.22
688.102	1.2
688.284	1.06
688.467	1.08
688.65	1.08
688.832	1.05
689.015	1.03
689.197	0.94
689.38	1.15
689.563	1.14
689.745	0.95
689.928	1
690.11	1.03
690.293	1.06
690.475	0.96
690.658	1.06
690.84	1.02
691.023	1
691.205	1
691.388	1.01
691.57	1.08
691.752	1.08
691.935	0.89
692.117	0.94
692.3	1.05
692.482	1
692.664	0.94
692.847	0.98
693.029	1.06
693.211	1
693.393	0.92
693.576	0.88
693.758	0.93
693.94	0.93
694.122	0.96
694.304	0.91
694.487	0.94
694.669	1.04
694.851	0.88
695.033	0.9
695.215	0.89
695.397	0.92
695.579	0.88
695.761	0.83
695.943	0.82
696.125	0.97
696.308	0.98
696.49	0.77
696.671	1.08
696.853	0.88
697.035	1.14
697.217	0.85
697.399	0.98
697.581	0.83
697.763	0.9
697.945	0.78
698.127	0.9
698.309	0.94
698.491	0.92
698.672	0.85
698.854	0.92
699.036	0.97
699.218	0.83
699.399	0.89
699.581	0.89
699.763	0.83
699.945	0.77
700.126	0.75
700.308	0.78
700.49	0.83
700.671	0.69
700.853	0.72
701.035	0.78
701.216	0.78
701.398	0.78
701.579	0.76
701.761	0.87
701.943	0.82
702.124	0.74
702.306	0.72
702.487	0.91
702.669	0.77
702.85	0.67
703.031	0.72
703.213	0.91
703.394	0.81
703.576	0.71
703.757	0.89
703.938	0.82
704.12	0.95
704.301	0.7
704.483	0.67
704.664	0.79
704.845	0.87
705.026	0.88
705.208	0.74
705.389	0.84
705.57	0.77
705.751	0.72
705.933	0.74
706.114	0.84
706.295	0.76
706.476	0.64
706.657	0.83
706.838	0.8
707.02	0.79
707.201	0.69
707.382	0.7
707.563	0.82
707.744	0.77
707.925	0.63
708.106	0.7
708.287	0.73
708.468	0.82
708.649	0.61
708.83	0.74
709.011	0.66
709.192	0.8
709.373	0.55
709.554	0.66
709.734	0.74
709.915	0.74
710.096	0.65
710.277	0.57
710.458	0.69
710.639	0.74
710.819	0.53
711	0.63
711.181	0.73
711.362	0.72
711.542	0.68
711.723	0.61
711.904	0.8
712.085	0.67
712.265	0.66
712.446	0.51
712.627	0.65
712.807	0.64
712.988	0.61
713.168	0.46
713.349	0.68
713.53	0.5
713.71	0.53
713.891	0.51
714.071	0.57
714.252	0.52
714.432	0.57
714.613	0.45
714.793	0.57
714.974	0.77
715.154	0.7
715.334	0.66
715.515	0.75
715.695	0.51
715.876	0.65
716.056	0.57
716.236	0.5
716.417	0.55
716.597	0.51
716.777	0.76
716.957	0.6
717.138	0.63
717.318	0.51
717.498	0.43
717.678	0.68
717.859	0.59
718.039	0.51
718.219	0.59
718.399	0.6
718.579	0.51
718.759	0.41
718.939	0.64
719.12	0.55
719.3	0.55
719.48	0.38
719.66	0.51
719.84	0.68
720.02	0.57
720.2	0.53
720.38	0.56
720.56	0.63
720.74	0.48
720.92	0.56
721.1	0.73
721.279	0.65
721.459	0.53
721.639	0.4
721.819	0.54
721.999	0.52
722.179	0.61
722.359	0.48
722.538	0.49
722.718	0.51
722.898	0.51
723.078	0.51
723.257	0.5
723.437	0.65
723.617	0.53
723.797	0.54
723.976	0.54
724.156	0.63
724.336	0.68
724.515	0.78
724.695	0.36
724.874	0.54
725.054	0.68
725.234	0.51
725.413	0.5
725.593	0.51
725.772	0.53
725.952	0.5
726.131	0.44
726.311	0.55
726.49	0.47
726.67	0.39
726.849	0.42
727.028	0.63
727.208	0.53
727.387	0.55
727.567	0.33
727.746	0.52
727.925	0.52
728.105	0.39
728.284	0.42
728.463	0.43
728.643	0.58
728.822	0.42
729.001	0.55
729.18	0.46
729.359	0.58
729.539	0.47
729.718	0.58
729.897	0.6
730.076	0.5
730.255	0.38
730.434	0.53
730.614	0.53
730.793	0.64
730.972	0.41
731.151	0.5
731.33	0.63
731.509	0.52
731.688	0.44
731.867	0.61
732.046	0.38
732.225	0.73
732.404	0.48
732.583	0.31
732.762	0.56
732.941	0.53
733.12	0.61
733.298	0.39
733.477	0.61
733.656	0.46
733.835	0.44
734.014	0.57
734.193	0.48
734.371	0.54
734.55	0.58
734.729	0.34
734.908	0.5
735.086	0.52
735.265	0.55
735.444	0.27
735.623	0.38
735.801	0.46
735.98	0.36
736.159	0.47
736.337	0.55
736.516	0.57
736.694	0.43
736.873	0.43
737.052	0.79
737.23	0.74
737.409	0.53
737.587	0.76
737.766	0.39
737.944	0.41
738.123	0.54
738.301	0.53
738.479	0.6
738.658	0.6
738.836	0.24
739.015	0.46
739.193	0.52
739.371	0.41
739.55	0.42
739.728	0.36
739.906	0.7
740.085	0.74
740.263	0.46
740.441	0.29
740.62	0.74
740.798	0.53
740.976	0.34
741.154	0.33
741.332	0.67
741.511	0.47
741.689	0.46
741.867	0.54
742.045	0.56
742.223	0.5
742.401	0.39
742.579	0.31
742.757	0.6
742.935	0.43
743.114	0.49
743.292	0.44
743.47	0.44
743.648	0.51
743.826	0.52
744.004	0.52
744.181	0.55
744.359	0.38
744.537	0.49
744.715	0.4
744.893	0.54
745.071	0.54
745.249	0.48
745.427	0.46
745.605	0.54
745.782	0.46
745.96	0.48
746.138	0.48
746.316	0.47
746.493	0.37
746.671	0.45
746.849	0.41
747.027	0.55
747.204	0.37
747.382	0.49
747.56	0.3
747.737	0.35
747.915	0.38
748.093	0.51
748.27	0.33
748.448	0.34
748.625	0.26
748.803	0.35
748.98	0.32
749.158	0.45
749.335	0.53
749.513	0.4
749.69	0.29
749.868	0.4
750.045	0.44
750.223	0.37
750.4	0.18
750.578	0.59
750.755	0.43
750.932	0.19
751.11	0.42
751.287	0.25
751.464	0.62
751.642	0.24
751.819	0.39
751.996	0.4
752.173	0.34
752.351	0.26
752.528	0.37
752.705	0.44
752.882	0.35
753.06	0.4
753.237	0.34
753.414	0.56
753.591	0.65
753.768	0.43
753.945	0.29
754.122	0.41
754.299	0.5
754.476	0.29
754.654	0.41
754.831	0.52
755.008	0.43
755.185	0.43
755.362	0.33
755.539	0.44
755.716	0.36
755.892	0.28
756.069	0.3
756.246	0.51
756.423	0.47
756.6	0.5
756.777	0.27
756.954	0.53
757.131	0.31
757.307	0.39
757.484	0.12
757.661	0.45
757.838	0.42
758.015	0.25
758.191	0.34
758.368	0.52
758.545	0.63
758.721	0.39
758.898	0.32
759.075	0.42
759.251	0.49
759.428	0.5
759.605	0.22
759.781	0.36
759.958	0.42
760.134	0.44
760.311	0.33
760.488	0.5
760.664	0.51
760.841	0.41
761.017	0.25
761.194	0.38
761.37	0.52
761.547	0.41
761.723	0.35
761.899	0.53
762.076	0.29
762.252	0.23
762.429	0.43
762.605	0.58
762.781	0.33
762.958	0.44
763.134	0.32
763.31	0.27
763.486	0.49
763.663	0.13
763.839	0.56
764.015	0.25
764.191	0.41
764.368	0.34
764.544	0.23
764.72	0.43
764.896	0.46
765.072	0.33
765.248	0.29
765.425	0.23
765.601	0.34
765.777	0.29
765.953	0.09
766.129	0.33
766.305	0.38
766.481	0.36
766.657	0.3
766.833	0.54
767.009	0.19
767.185	0.35
767.361	0.24
767.537	0.35
767.713	0.52
767.889	0.3
768.065	0.37
768.24	0.27
768.416	0.39
768.592	0.34
768.768	0.17
768.944	0.41
769.12	0.26
769.295	0.42
769.471	0.24
769.647	0.52
769.823	0.47
769.998	0.26
770.174	0.15
770.35	0.73
770.525	0.74
770.701	0.41
770.877	0.23
771.052	0.15
771.228	0.74
771.403	0.45
771.579	0.41
771.755	0.78
771.93	0.38
772.106	0.32
772.281	0.06
772.457	0.4
772.632	0.42
772.808	0.11
772.983	0.24
773.159	0.23
773.334	0.64
773.509	0.43
773.685	0.13
773.86	0.74
774.036	0.59
774.211	0.32
774.386	0.22
774.562	0.34
774.737	0.54
774.912	0.39
775.087	0.35
775.263	0.38
775.438	0.45
775.613	0.29
775.788	0.27
775.964	0.54
776.139	1
776.314	0.11
776.489	0.41
776.664	0.48
776.839	0.18
777.014	0.56
777.19	0.58
777.365	0.69
777.54	0.65
777.715	0.21
777.89	0.35
778.065	0.38
778.24	0.34
778.415	0.52
778.59	0.18
778.765	0.24
778.94	0.53
779.115	0.31
779.289	0.34
779.464	0.46
779.639	0.27
779.814	0.18
779.989	0.17
780.164	0.65
780.339	0.5
780.513	0.3
780.688	0.1
780.863	0.39
781.038	0.6
781.212	0.26
781.387	0.18
781.562	0.79
781.737	0.36
781.911	0.6
782.086	0.38
782.261	0.31
782.435	0.7
782.61	0.28
782.784	0.27
782.959	0.72
783.134	0.39
783.308	0.37
783.483	0.34
783.657	0.96
783.832	0.63
784.006	0.05
784.181	0.41
784.355	0.75
784.53	0.31
784.704	0.13
784.878	0.71
785.053	0.63
785.227	0.78
785.402	0.74
785.576	0.23
785.75	0.56
785.925	0.25
786.099	0.5
786.273	0.62
786.448	0.55
786.622	0.75
786.796	0.4
786.97	0.26
787.145	1.23
787.319	-0.02
787.493	0.43
787.667	0
787.841	0.36
788.015	0.58
788.19	0.34
788.364	0.25
788.538	0.7
788.712	0.78
788.886	0.41
789.06	0.5
789.234	0.55
789.408	0.26
789.582	0.14
789.756	0.32
789.93	0.22
790.104	0.26
790.278	0.3
790.452	0.2
790.626	0.58
790.8	0.34
790.973	0.65
791.147	0.62
791.321	0.85
791.495	0.73
791.669	0.49
791.843	0.59
792.016	0.33
792.19	0.9
792.364	0.16
792.538	0.99
792.711	0.7
792.885	0.11
793.059	0.27
793.233	-0.06
793.406	0.71
793.58	0.45
793.754	0.66
793.927	0.21
794.101	0.83
794.274	0.44
794.448	0.7
794.622	0.25
794.795	1.04
794.969	0.38
795.142	1.01
795.316	0.15
795.489	0.14
795.663	1
795.836	0.39
796.009	0.15
796.183	0.84
796.356	0.62
796.53	0.57
796.703	0.56
796.876	1.33
797.05	0.61
797.223	0.29
797.396	0.57
797.57	0.47
797.743	0.79
797.916	0.57
798.09	0.51
798.263	0.86
798.436	0.72
798.609	0.24
798.782	0.31
798.956	0.85
799.129	0.61
799.302	0.23
799.475	0.24
799.648	0.26
799.821	0.34
799.994	0.51
800.167	-0.08
800.34	0.38
800.514	0.68
800.687	0.42
800.86	0.25
801.033	0.69
801.206	0.58
801.379	0.04
801.551	0.64
801.724	0.89
801.897	1.16
802.07	0.29
802.243	-0.1
802.416	0.45
802.589	0.38
802.762	0.62
802.935	0.37
803.107	0.98
803.28	0.99
803.453	0.79
803.626	0.42
803.798	0.75
803.971	0.31
804.144	0.88
804.317	0.72
804.489	1.08
804.662	0.9
804.835	0.44
805.007	0.09
805.18	1.24
805.353	0.67
805.525	0.23
805.698	0.35
805.87	1.09
806.043	0.73
806.215	0.05
806.388	0.23
806.56	0.85
806.733	0.98
806.905	0.78
807.078	0.55
807.25	0.42
807.423	1.07
807.595	0.68
807.768	0.54
807.94	1.1
808.112	0.73
808.285	0.6
808.457	0.42
808.629	0.67
808.802	0.63
808.974	0.52
809.146	0.18
809.318	0.19
809.491	0.66
809.663	0.73
809.835	0.22
810.007	0.85
810.18	0.82
810.352	-0.09
810.524	0.49
810.696	0.58
810.868	1.02
811.04	0.57
811.212	0.28
811.384	0.74
811.556	0.9
811.728	0.31
811.901	1.41
812.073	0.27
812.245	0.92
812.417	0.46
812.589	-0.2
812.76	0.92
812.932	1.29
813.104	0.78
813.276	0.61
813.448	1.05
813.62	0.89
813.792	0.7
813.964	0.13
814.136	0.92
814.307	0.47
814.479	0.15
814.651	0.49
814.823	1.59
814.995	0.46
815.166	0.41
815.338	0.38
815.51	0.04
815.681	1.73
815.853	1.02
816.025	0.63
816.196	1.63
816.368	1.4
816.54	0.03
816.711	0.01
816.883	1.33
817.054	2.02
817.226	-0.01
817.398	0.72
817.569	0.42
817.741	0.48
817.912	0.51
818.084	0.64
818.255	1.39
818.426	0.31
818.598	0.68
818.769	0.23
818.941	1.15
819.112	1.29
819.283	0.81
819.455	-0.07
819.626	0.88
819.798	0.98
819.969	0.75
820.14	0.24
820.311	0.35
820.483	1.06
820.654	0.94
820.825	0.73
820.996	0.46
821.168	-0.15
821.339	0.55
821.51	0.13
821.681	0.5
821.852	0.65
822.023	-0.09
822.195	0.57
822.366	1.12
822.537	1.23
822.708	1.06
822.879	0.31
823.05	1.74
823.221	0.51
823.392	0.72
823.563	1.19
823.734	1.15
823.905	0.59
824.076	0.52
824.247	-0.1
824.418	0.89
824.589	1.64
824.759	0.49
824.93	0.62
825.101	-0.39
825.272	1.37
825.443	1.3
825.614	1.47
825.784	-0.13
825.955	2.58
826.126	1.89
826.297	1.06
826.467	1.91
826.638	2.14
826.809	0.04
826.98	1.26
827.15	1.2
827.321	0.74
827.492	1.66
827.662	0.98
827.833	2.25
828.003	0.81
828.174	-0.04
828.345	-0.16
828.515	1.34
828.686	1.04
828.856	0.83
829.027	0.76
829.197	1.19
829.368	1.57
829.538	0.97
829.709	0.72
829.879	0.85
830.049	0.57
830.22	0.81
830.39	0.64
830.56	1.5
830.731	0.41
830.901	0.39
831.072	0.6
831.242	1.58
831.412	1.27
831.582	0.99
831.753	0.21
831.923	1.89
832.093	1.01
832.263	0.72
832.434	0.76
832.604	0.41
832.774	1.63
832.944	0.85
833.114	0.51
833.284	0.99
833.454	0.6
833.624	0.21
833.795	0.9
833.965	1.91
834.135	1.29
834.305	-0.45
834.475	-0.06
834.645	0.85
834.815	0.59
834.985	0.31
835.155	-0.1
835.325	1.35
835.494	1.83
835.664	0.57
835.834	-0.15
836.004	1.32
836.174	0.53
836.344	1.22
836.514	0.49
836.684	0.47
836.853	1.07
837.023	1.54
837.193	0.46
837.363	2.06
837.532	1.99
837.702	1.04
837.872	-0.02
838.041	1.73
838.211	3.14
838.381	0.18
838.55	1.31
838.72	3.81
838.89	2.76
839.059	0.57
839.229	0.67
839.398	2.86
839.568	1.68
839.738	0.34
839.907	1.96
840.077	1.17
840.246	0.5
840.416	0.56
840.585	-0.08
840.755	2.97
840.924	2.46
841.093	-0.09
841.263	0.52
841.432	1.53
841.602	0.5
841.771	0.13
841.94	0.96
842.11	4.22
842.279	2.15
842.448	0.66
842.617	0.4
842.787	2.63
842.956	0.18
843.125	0.26
843.294	0.29
843.464	2.72
843.633	1.29
843.802	0.3
843.971	0.77
844.14	1.19
844.309	2.23
844.479	0.35
844.648	0.17
844.817	1.55
844.986	1.31
845.155	0.12
845.324	0.59
845.493	0.78
845.662	0.71
845.831	2.02
846	2.03
846.169	0.41
846.338	2.3
846.507	2
846.676	1.08
846.844	1.58
847.013	3.02
847.182	1.2
847.351	1.18
847.52	0.8
847.689	2.06
847.858	1.1
848.026	0.74
848.195	0.97
848.364	0.82
848.533	-0.14
848.701	0.53
848.87	1.1
849.039	3.46
849.207	1.32
849.376	2.59
849.545	3.47
849.713	0.65
849.882	1.15
850.051	1.16
850.219	1.51
850.388	2.04
850.556	-0.44
850.725	0.47
850.893	1.92
851.062	0.84
851.23	1.34
851.399	-0.03
851.567	1.33
851.736	0.46
851.904	0.95
852.073	1.32
852.241	2.19
852.41	1.89
852.578	0.79
852.746	1.36
852.915	1.84
853.083	1.34
853.251	-0.14
853.42	1.51
853.588	1.09
853.756	1.83
853.924	0.68
854.093	1.58
854.261	0.45
854.429	-0.07
854.597	2.29
854.765	0.59
854.934	2.75
855.102	2.97
855.27	0.99
855.438	2.22
855.606	1.68
855.774	3.49
855.942	0.11
856.11	0.14
856.278	1.25
856.446	2.58
856.614	1.05
856.782	0.4
856.95	2.41
857.118	1.69
857.286	1.69
857.454	0.22
857.622	3.63
857.79	2.04
857.958	0.04
858.126	1.03
858.294	-1.5
858.462	1.34
858.629	0.39
858.797	0.71
858.965	1.78
859.133	1.43
859.301	0.97
859.468	2.23
859.636	0.82
859.804	4.53
859.971	2.46
860.139	0.66
860.307	2.51
860.474	2.13
860.642	0.48
860.81	0.66
860.977	1.45
861.145	3.17
861.313	0.86
861.48	1
861.648	4.01
861.815	2.09
861.983	1.38
862.15	2.03
862.318	2.15
862.485	3.47
862.653	-0.2
862.82	-0.21
862.988	4.14
863.155	2.72
863.322	0.69
863.49	0.22
863.657	1.94
863.824	5.01
863.992	1.62
864.159	1.44
864.326	3.26
864.494	1.36
864.661	4.46
864.828	0.17
864.996	3.39
865.163	3.21
865.33	0.47
865.497	-0.25
865.664	0.24
865.832	-0.07
865.999	1.67
866.166	-0.87
866.333	1.57
866.5	1.55
866.667	1.87
866.834	0.5
867.001	4.67
867.168	-0.93
867.335	1.59
867.502	-0.07
867.669	2.13
867.836	7.06
868.003	1.47
868.17	4.39
868.337	2.22
868.504	6.28
868.671	-1.45
868.838	-0.07
869.005	3.61
869.172	2.5
869.339	1.46
869.505	1.65
869.672	2.32
869.839	3.96
870.006	1.49
870.173	-0.04
870.339	1.06
870.506	5.25
870.673	0.1
870.84	3.24
871.006	1.94
871.173	2.94
871.34	2.53
871.506	-0.52
871.673	2.57
871.839	0.99
872.006	3.58
872.173	1.26
872.339	2.89
872.506	4.46
872.672	1.57
872.839	-2.19
873.005	3.17
873.172	6.76
873.338	3.54
873.505	1.58
873.671	2.73
873.838	2.94
874.004	-0.37
874.171	-0.16
874.337	3.07
874.503	3.13
874.67	2.11
874.836	1.9
875.002	5.83
875.169	4.54
875.335	2.21
875.501	0.39
875.668	2.49
875.834	1.07
876	1.16
876.166	2.64
876.332	4.5
876.499	6.85
876.665	2.71
876.831	1.01
876.997	5.39
877.163	3.53
877.329	1.05
877.495	3.32
877.662	3.56
877.828	2.46
877.994	3.65
878.16	-0.58
878.326	0.75
878.492	2.03
878.658	0.32
878.824	2.59
878.99	2.87
879.156	2
879.322	5.53
879.487	1.13
879.653	3.17
879.819	3.06
879.985	1.53
880.151	4.04
880.317	3.97
880.483	1.22
880.648	2.23
880.814	0.92
880.98	2.18
881.146	-0.31
881.312	1.1
881.477	1.12
881.643	1.72
881.809	4.11
881.974	4.63
882.14	-0.16
882.306	-0.2
882.471	5.49
882.637	0.97
882.803	2.85
882.968	4.74
883.134	7.41
883.299	2.48
883.465	1.02
883.63	3.7
883.796	3.53
883.961	4.41
884.127	2
884.292	-2.91
884.458	-0.49
884.623	-0.49
