Data from Apollo_Calib_20240827__AbsoluteIrradiance__754__11-43-00-644.txt Node

Date: Wed Aug 28 11:43:00 BST 2024
User: biology
Spectrometer: FLMT08252
Trigger mode: 0
Integration Time (sec): 5.000000E-1
Scans to average: 5
Electric dark correction enabled: true
Nonlinearity correction enabled: false
Boxcar width: 0
XAxis mode: Wavelengths
Number of Pixels in Spectrum: 3648
>>>>>Begin Spectral Data<<<<<
179.588	-0
179.809	-0
180.03	-0
180.251	-0
180.473	-0
180.694	0
180.915	0
181.136	-0
181.357	0
181.578	-0
181.799	-0
182.02	-0
182.241	-0
182.462	-0
182.683	0
182.904	-0
183.125	-0
183.346	0
183.567	0
183.788	0
184.009	0
184.23	0
184.451	0
184.672	0
184.892	0
185.113	0
185.334	0
185.555	0
185.776	0
185.996	0
186.217	0
186.438	0
186.659	0
186.879	0
187.1	0
187.321	0
187.541	0
187.762	0
187.983	0
188.203	0
188.424	0
188.644	0
188.865	0
189.086	0
189.306	0
189.527	0
189.747	0
189.968	0
190.188	0
190.409	0
190.629	0
190.849	0
191.07	0
191.29	0
191.511	0
191.731	0
191.951	0
192.172	0
192.392	0
192.612	0
192.833	0
193.053	0
193.273	0
193.493	0
193.714	0
193.934	0
194.154	0
194.374	0
194.594	0
194.815	0
195.035	0
195.255	0
195.475	0
195.695	0
195.915	0
196.135	0
196.355	0
196.575	0
196.795	0
197.015	0
197.235	0
197.455	0
197.675	0
197.895	0
198.115	0
198.335	0
198.555	0
198.775	0
198.995	0
199.214	0
199.434	0
199.654	0
199.874	0
200.094	2.98
200.313	1.83
200.533	1.15
200.753	0.87
200.973	2.76
201.192	2.76
201.412	0.39
201.632	1.35
201.851	2.45
202.071	1.53
202.291	0.74
202.51	0.88
202.73	2.21
202.95	1.38
203.169	0.51
203.389	1.59
203.608	1.7
203.828	1.05
204.047	1.2
204.267	1.85
204.486	1.51
204.706	2.05
204.925	1.27
205.145	1.05
205.364	1.68
205.583	2.25
205.803	1.04
206.022	0.92
206.242	1.1
206.461	1.39
206.68	0.83
206.9	0.93
207.119	1.78
207.338	2.11
207.557	0.81
207.777	0.91
207.996	0.96
208.215	1.36
208.434	1
208.654	0.53
208.873	1.31
209.092	1.86
209.311	0.66
209.53	1.04
209.749	0.99
209.968	0.6
210.187	0.85
210.407	0.59
210.626	0.99
210.845	1.27
211.064	0.95
211.283	0.58
211.502	1.24
211.721	0.87
211.94	0.69
212.159	1.2
212.377	1.17
212.596	1.37
212.815	0.98
213.034	1
213.253	1.08
213.472	1.06
213.691	0.67
213.91	0.43
214.128	0.49
214.347	1.14
214.566	0.27
214.785	0.61
215.003	0.94
215.222	0.85
215.441	0.63
215.66	0.36
215.878	0.66
216.097	0.98
216.316	0.49
216.534	0.46
216.753	0.94
216.972	0.46
217.19	0.64
217.409	0.5
217.627	0.44
217.846	0.69
218.064	0.56
218.283	0.44
218.501	1.17
218.72	0.74
218.938	0.36
219.157	0.58
219.375	0.83
219.594	0.7
219.812	0.42
220.031	0.29
220.249	0.85
220.467	0.98
220.686	0.45
220.904	0.46
221.122	0.51
221.341	0.91
221.559	0.52
221.777	0.37
221.995	0.56
222.214	0.78
222.432	0.43
222.65	0.59
222.868	0.64
223.086	0.67
223.305	0.73
223.523	0.55
223.741	0.95
223.959	0.55
224.177	0.13
224.395	0.45
224.613	0.49
224.831	0.69
225.049	0.36
225.267	0.38
225.485	0.69
225.703	0.5
225.921	0.54
226.139	0.32
226.357	0.51
226.575	0.57
226.793	0.53
227.011	1.18
227.229	0.57
227.447	0.52
227.665	0.49
227.883	0.21
228.1	0.44
228.318	0.64
228.536	0.13
228.754	0.24
228.972	0.6
229.189	0.54
229.407	0.33
229.625	0.38
229.843	0.75
230.06	0.48
230.278	0.28
230.496	0.41
230.713	0.53
230.931	0.63
231.149	0.43
231.366	0.24
231.584	0.59
231.801	0.77
232.019	0.38
232.236	0.3
232.454	0.26
232.671	0.5
232.889	0.38
233.106	0.34
233.324	0.35
233.541	0.39
233.759	0.28
233.976	0.4
234.194	0.48
234.411	0.35
234.628	0.34
234.846	0.29
235.063	0.36
235.28	0.41
235.498	0.42
235.715	0.27
235.932	0.6
236.149	0.41
236.367	0.22
236.584	0.47
236.801	0.33
237.018	0.41
237.236	0.23
237.453	0.2
237.67	0.54
237.887	0.39
238.104	0.33
238.321	0.3
238.538	0.31
238.755	0.58
238.973	0.19
239.19	0.37
239.407	0.43
239.624	0.4
239.841	0.24
240.058	0.19
240.275	0.31
240.492	0.4
240.709	0.34
240.925	0.28
241.142	0.37
241.359	0.28
241.576	0.28
241.793	0.31
242.01	0.31
242.227	0.53
242.444	0.4
242.66	0.45
242.877	0.31
243.094	0.31
243.311	0.37
243.527	0.32
243.744	0.44
243.961	0.4
244.178	0.27
244.394	0.3
244.611	0.41
244.828	0.61
245.044	0.25
245.261	0.3
245.477	0.28
245.694	0.41
245.911	0.35
246.127	0.39
246.344	0.58
246.56	0.42
246.777	0.21
246.993	0.33
247.21	0.31
247.426	0.46
247.643	0.22
247.859	0.24
248.076	0.25
248.292	0.51
248.508	0.26
248.725	0.31
248.941	0.42
249.157	0.42
249.374	0.3
249.59	0.32
249.806	0.32
250.023	0.46
250.239	0.22
250.455	0.2
250.671	0.29
250.888	0.4
251.104	0.37
251.32	0.21
251.536	0.28
251.752	0.29
251.969	0.29
252.185	0.36
252.401	0.48
252.617	0.35
252.833	0.27
253.049	0.3
253.265	0.28
253.481	0.37
253.697	0.21
253.913	0.26
254.129	0.4
254.345	0.34
254.561	0.3
254.777	0.3
254.993	0.38
255.209	0.37
255.425	0.23
255.641	0.21
255.857	0.43
256.073	0.37
256.288	0.22
256.504	0.2
256.72	0.28
256.936	0.46
257.152	0.23
257.367	0.2
257.583	0.28
257.799	0.32
258.015	0.24
258.23	0.2
258.446	0.48
258.662	0.23
258.877	0.22
259.093	0.22
259.309	0.39
259.524	0.32
259.74	0.24
259.955	0.19
260.171	0.27
260.387	0.32
260.602	0.34
260.818	0.31
261.033	0.29
261.249	0.25
261.464	0.23
261.68	0.16
261.895	0.3
262.11	0.32
262.326	0.22
262.541	0.2
262.757	0.33
262.972	0.3
263.187	0.28
263.403	0.22
263.618	0.3
263.833	0.25
264.049	0.16
264.264	0.17
264.479	0.27
264.694	0.39
264.91	0.23
265.125	0.3
265.34	0.35
265.555	0.49
265.77	0.31
265.986	0.24
266.201	0.36
266.416	0.38
266.631	0.2
266.846	0.25
267.061	0.33
267.276	0.31
267.491	0.08
267.706	0.28
267.921	0.38
268.136	0.32
268.351	0.32
268.566	0.13
268.781	0.32
268.996	0.4
269.211	0.3
269.426	0.15
269.641	0.21
269.856	0.31
270.071	0.24
270.285	0.18
270.5	0.35
270.715	0.32
270.93	0.28
271.145	0.29
271.359	0.36
271.574	0.24
271.789	0.24
272.004	0.18
272.218	0.25
272.433	0.28
272.648	0.18
272.862	0.27
273.077	0.28
273.292	0.29
273.506	0.2
273.721	0.18
273.936	0.28
274.15	0.34
274.365	0.22
274.579	0.33
274.794	0.28
275.008	0.29
275.223	0.19
275.437	0.24
275.652	0.29
275.866	0.27
276.081	0.29
276.295	0.32
276.509	0.26
276.724	0.25
276.938	0.22
277.153	0.25
277.367	0.27
277.581	0.21
277.796	0.21
278.01	0.13
278.224	0.37
278.438	0.33
278.653	0.18
278.867	0.14
279.081	0.15
279.295	0.19
279.51	0.31
279.724	0.16
279.938	0.31
280.152	0.25
280.366	0.18
280.58	0.19
280.794	0.39
281.008	0.32
281.222	0.25
281.437	0.31
281.651	0.24
281.865	0.34
282.079	0.23
282.293	0.1
282.507	0.24
282.721	0.2
282.935	0.26
283.148	0.14
283.362	0.18
283.576	0.14
283.79	0.23
284.004	0.2
284.218	0.34
284.432	0.23
284.646	0.21
284.859	0.21
285.073	0.17
285.287	0.26
285.501	0.19
285.714	0.22
285.928	0.22
286.142	0.23
286.356	0.14
286.569	0.25
286.783	0.32
286.997	0.25
287.21	0.24
287.424	0.2
287.637	0.21
287.851	0.19
288.065	0.26
288.278	0.23
288.492	0.22
288.705	0.23
288.919	0.29
289.132	0.18
289.346	0.3
289.559	0.15
289.773	0.15
289.986	0.19
290.2	0.23
290.413	0.25
290.626	0.13
290.84	0.2
291.053	0.18
291.267	0.34
291.48	0.22
291.693	0.15
291.906	0.18
292.12	0.17
292.333	0.19
292.546	0.18
292.76	0.34
292.973	0.24
293.186	0.29
293.399	0.17
293.612	0.28
293.826	0.24
294.039	0.16
294.252	0.23
294.465	0.3
294.678	0.22
294.891	0.19
295.104	0.11
295.317	0.19
295.53	0.25
295.743	0.18
295.956	0.16
296.169	0.24
296.382	0.28
296.595	0.2
296.808	0.12
297.021	0.28
297.234	0.25
297.447	0.16
297.66	0.21
297.873	0.28
298.086	0.27
298.299	0.15
298.511	0.13
298.724	0.15
298.937	0.15
299.15	0.17
299.363	0.21
299.575	0.23
299.788	0.22
300.001	0.15
300.213	0.16
300.426	0.22
300.639	0.16
300.852	0.13
301.064	0.21
301.277	0.25
301.489	0.26
301.702	0.21
301.915	0.2
302.127	0.21
302.34	0.2
302.552	0.26
302.765	0.16
302.977	0.22
303.19	0.17
303.402	0.17
303.615	0.19
303.827	0.18
304.04	0.22
304.252	0.24
304.464	0.15
304.677	0.32
304.889	0.22
305.102	0.18
305.314	0.18
305.526	0.23
305.739	0.22
305.951	0.15
306.163	0.16
306.375	0.28
306.588	0.16
306.8	0.19
307.012	0.13
307.224	0.23
307.436	0.26
307.649	0.12
307.861	0.15
308.073	0.24
308.285	0.2
308.497	0.17
308.709	0.17
308.921	0.21
309.133	0.21
309.346	0.19
309.558	0.18
309.77	0.23
309.982	0.3
310.194	0.25
310.406	0.19
310.617	0.28
310.829	0.21
311.041	0.2
311.253	0.15
311.465	0.18
311.677	0.23
311.889	0.21
312.101	0.16
312.313	0.27
312.524	0.28
312.736	0.1
312.948	0.16
313.16	0.27
313.372	0.21
313.583	0.23
313.795	0.18
314.007	0.22
314.218	0.22
314.43	0.19
314.642	0.2
314.853	0.1
315.065	0.23
315.277	0.18
315.488	0.19
315.7	0.28
315.912	0.22
316.123	0.18
316.335	0.18
316.546	0.28
316.758	0.17
316.969	0.16
317.181	0.17
317.392	0.15
317.604	0.27
317.815	0.15
318.026	0.16
318.238	0.19
318.449	0.2
318.661	0.16
318.872	0.13
319.083	0.14
319.295	0.21
319.506	0.14
319.717	0.23
319.929	0.25
320.14	0.16
320.351	0.17
320.562	0.17
320.774	0.24
320.985	0.21
321.196	0.11
321.407	0.11
321.618	0.26
321.829	0.23
322.041	0.24
322.252	0.15
322.463	0.21
322.674	0.23
322.885	0.2
323.096	0.15
323.307	0.18
323.518	0.25
323.729	0.16
323.94	0.18
324.151	0.19
324.362	0.21
324.573	0.25
324.784	0.15
324.995	0.22
325.206	0.22
325.417	0.18
325.628	0.15
325.838	0.16
326.049	0.24
326.26	0.21
326.471	0.15
326.682	0.2
326.892	0.25
327.103	0.13
327.314	0.13
327.525	0.27
327.735	0.26
327.946	0.2
328.157	0.17
328.368	0.2
328.578	0.17
328.789	0.23
328.999	0.21
329.21	0.24
329.421	0.29
329.631	0.17
329.842	0.11
330.052	0.21
330.263	0.22
330.473	0.22
330.684	0.18
330.894	0.22
331.105	0.23
331.315	0.2
331.526	0.14
331.736	0.27
331.947	0.24
332.157	0.24
332.367	0.16
332.578	0.22
332.788	0.29
332.999	0.23
333.209	0.16
333.419	0.13
333.629	0.24
333.84	0.24
334.05	0.17
334.26	0.25
334.47	0.2
334.681	0.28
334.891	0.16
335.101	0.2
335.311	0.26
335.521	0.18
335.732	0.16
335.942	0.26
336.152	0.22
336.362	0.2
336.572	0.22
336.782	0.27
336.992	0.19
337.202	0.19
337.412	0.19
337.622	0.24
337.832	0.19
338.042	0.21
338.252	0.13
338.462	0.14
338.672	0.22
338.882	0.21
339.092	0.21
339.302	0.29
339.511	0.2
339.721	0.16
339.931	0.16
340.141	0.24
340.351	0.23
340.561	0.19
340.77	0.25
340.98	0.18
341.19	0.23
341.4	0.17
341.609	0.16
341.819	0.17
342.029	0.17
342.238	0.2
342.448	0.2
342.658	0.24
342.867	0.22
343.077	0.15
343.286	0.22
343.496	0.22
343.706	0.31
343.915	0.16
344.125	0.19
344.334	0.23
344.544	0.11
344.753	0.2
344.963	0.19
345.172	0.17
345.381	0.14
345.591	0.16
345.8	0.18
346.01	0.25
346.219	0.25
346.428	0.03
346.638	0.19
346.847	0.17
347.056	0.26
347.266	0.17
347.475	0.2
347.684	0.21
347.893	0.24
348.103	0.24
348.312	0.19
348.521	0.22
348.73	0.22
348.94	0.22
349.149	0.17
349.358	0.21
349.567	0.13
349.776	0.1
349.985	0.17
350.194	0.26
350.403	0.27
350.612	0.12
350.821	0.16
351.03	0.19
351.239	0.16
351.448	0.16
351.657	0.15
351.866	0.26
352.075	0.2
352.284	0.16
352.493	0.14
352.702	0.23
352.911	0.22
353.12	0.21
353.329	0.19
353.538	0.19
353.746	0.22
353.955	0.12
354.164	0.15
354.373	0.19
354.582	0.25
354.79	0.22
354.999	0.22
355.208	0.17
355.416	0.29
355.625	0.13
355.834	0.16
356.042	0.2
356.251	0.16
356.46	0.09
356.668	0.19
356.877	0.27
357.085	0.23
357.294	0.09
357.503	0.24
357.711	0.15
357.92	0.35
358.128	0.2
358.337	0.17
358.545	0.23
358.754	0.19
358.962	0.23
359.17	0.17
359.379	0.17
359.587	0.2
359.796	0.19
360.004	0.24
360.212	0.18
360.421	0.26
360.629	0.18
360.837	0.17
361.046	0.2
361.254	0.32
361.462	0.18
361.67	0.16
361.879	0.19
362.087	0.27
362.295	0.18
362.503	0.19
362.711	0.12
362.92	0.15
363.128	0.15
363.336	0.16
363.544	0.13
363.752	0.21
363.96	0.15
364.168	0.14
364.376	0.17
364.584	0.21
364.792	0.28
365	0.21
365.208	0.21
365.416	0.23
365.624	0.2
365.832	0.17
366.04	0.26
366.248	0.21
366.456	0.15
366.664	0.23
366.872	0.19
367.079	0.19
367.287	0.18
367.495	0.21
367.703	0.19
367.911	0.22
368.118	0.17
368.326	0.17
368.534	0.15
368.742	0.26
368.949	0.1
369.157	0.17
369.365	0.22
369.572	0.17
369.78	0.17
369.988	0.22
370.195	0.19
370.403	0.24
370.61	0.18
370.818	0.18
371.026	0.27
371.233	0.13
371.441	0.18
371.648	0.16
371.856	0.22
372.063	0.21
372.271	0.17
372.478	0.17
372.685	0.18
372.893	0.27
373.1	0.18
373.308	0.17
373.515	0.27
373.722	0.23
373.93	0.18
374.137	0.22
374.344	0.31
374.552	0.19
374.759	0.23
374.966	0.18
375.173	0.17
375.381	0.25
375.588	0.2
375.795	0.13
376.002	0.2
376.209	0.19
376.417	0.18
376.624	0.19
376.831	0.23
377.038	0.19
377.245	0.11
377.452	0.17
377.659	0.2
377.866	0.21
378.073	0.18
378.28	0.18
378.487	0.25
378.694	0.22
378.901	0.19
379.108	0.17
379.315	0.26
379.522	0.3
379.729	0.24
379.936	0.2
380.143	0.23
380.35	0.23
380.557	0.21
380.763	0.16
380.97	0.21
381.177	0.2
381.384	0.21
381.591	0.21
381.797	0.21
382.004	0.26
382.211	0.25
382.418	0.16
382.624	0.23
382.831	0.26
383.038	0.2
383.244	0.22
383.451	0.19
383.658	0.19
383.864	0.17
384.071	0.15
384.277	0.26
384.484	0.21
384.69	0.26
384.897	0.16
385.103	0.2
385.31	0.14
385.516	0.19
385.723	0.17
385.929	0.18
386.136	0.21
386.342	0.25
386.549	0.14
386.755	0.27
386.961	0.26
387.168	0.16
387.374	0.19
387.58	0.23
387.787	0.27
387.993	0.21
388.199	0.19
388.406	0.17
388.612	0.2
388.818	0.17
389.024	0.22
389.231	0.24
389.437	0.32
389.643	0.26
389.849	0.22
390.055	0.2
390.261	0.21
390.467	0.23
390.674	0.22
390.88	0.19
391.086	0.25
391.292	0.17
391.498	0.26
391.704	0.25
391.91	0.19
392.116	0.21
392.322	0.18
392.528	0.23
392.734	0.2
392.94	0.2
393.146	0.24
393.352	0.27
393.557	0.21
393.763	0.23
393.969	0.31
394.175	0.21
394.381	0.25
394.587	0.19
394.792	0.2
394.998	0.27
395.204	0.31
395.41	0.22
395.615	0.28
395.821	0.31
396.027	0.26
396.233	0.22
396.438	0.25
396.644	0.29
396.85	0.26
397.055	0.25
397.261	0.25
397.466	0.39
397.672	0.28
397.878	0.3
398.083	0.24
398.289	0.22
398.494	0.27
398.7	0.29
398.905	0.13
399.111	0.34
399.316	0.23
399.522	0.26
399.727	0.25
399.932	0.27
400.138	0.26
400.343	0.26
400.549	0.22
400.754	0.29
400.959	0.32
401.165	0.26
401.37	0.29
401.575	0.4
401.78	0.29
401.986	0.27
402.191	0.24
402.396	0.25
402.601	0.34
402.807	0.28
403.012	0.28
403.217	0.33
403.422	0.33
403.627	0.27
403.832	0.3
404.037	0.37
404.243	0.37
404.448	0.31
404.653	0.31
404.858	0.33
405.063	0.36
405.268	0.32
405.473	0.31
405.678	0.28
405.883	0.49
406.088	0.39
406.293	0.29
406.498	0.34
406.703	0.42
406.907	0.39
407.112	0.31
407.317	0.39
407.522	0.46
407.727	0.33
407.932	0.4
408.136	0.47
408.341	0.41
408.546	0.48
408.751	0.44
408.956	0.43
409.16	0.49
409.365	0.42
409.57	0.41
409.774	0.48
409.979	0.53
410.184	0.54
410.388	0.45
410.593	0.58
410.798	0.57
411.002	0.54
411.207	0.56
411.411	0.57
411.616	0.55
411.82	0.63
412.025	0.66
412.229	0.63
412.434	0.7
412.638	0.71
412.843	0.71
413.047	0.73
413.252	0.7
413.456	0.8
413.66	0.82
413.865	0.79
414.069	0.96
414.273	0.8
414.478	0.92
414.682	0.9
414.886	0.9
415.091	0.88
415.295	0.9
415.499	1.08
415.703	1.04
415.908	1.15
416.112	1.06
416.316	1.26
416.52	1.18
416.724	1.17
416.929	1.25
417.133	1.43
417.337	1.33
417.541	1.4
417.745	1.48
417.949	1.53
418.153	1.62
418.357	1.59
418.561	1.84
418.765	1.74
418.969	1.88
419.173	1.86
419.377	1.9
419.581	2.13
419.785	1.97
419.989	2
420.193	2.17
420.397	2.24
420.601	2.42
420.804	2.49
421.008	2.39
421.212	2.58
421.416	2.58
421.62	2.56
421.823	2.65
422.027	2.81
422.231	2.73
422.435	2.72
422.638	2.85
422.842	2.92
423.046	2.91
423.249	3.12
423.453	3.15
423.657	3.26
423.86	3.27
424.064	3.44
424.268	3.61
424.471	3.55
424.675	3.75
424.878	3.83
425.082	3.82
425.285	4.14
425.489	4.01
425.692	4.09
425.896	4.1
426.099	4.31
426.303	4.45
426.506	4.51
426.71	4.69
426.913	4.81
427.116	5.03
427.32	4.91
427.523	5
427.726	5.32
427.93	5.38
428.133	5.6
428.336	5.66
428.54	5.76
428.743	5.94
428.946	6.19
429.149	6.19
429.353	6.19
429.556	6.24
429.759	6.25
429.962	6.32
430.165	6.53
430.368	6.15
430.571	6.27
430.775	6.28
430.978	6.21
431.181	6.36
431.384	6.41
431.587	6.42
431.79	6.6
431.993	6.7
432.196	6.93
432.399	7.13
432.602	7.3
432.805	7.33
433.008	7.75
433.211	7.64
433.414	7.93
433.616	7.86
433.819	7.76
434.022	7.97
434.225	8.12
434.428	8.09
434.631	8.53
434.833	8.4
435.036	8.43
435.239	8.63
435.442	8.8
435.645	8.83
435.847	8.98
436.05	9.07
436.253	9.26
436.455	9.28
436.658	9.21
436.861	9.48
437.063	9.44
437.266	9.58
437.468	9.87
437.671	10.16
437.874	10.13
438.076	9.91
438.279	10.34
438.481	10.36
438.684	11.04
438.886	10.67
439.089	10.77
439.291	11.07
439.494	11.27
439.696	11.42
439.899	11.82
440.101	12.17
440.303	12.33
440.506	13.02
440.708	12.66
440.91	12.91
441.113	12.91
441.315	13.32
441.517	13.1
441.72	13.52
441.922	13.19
442.124	13.22
442.326	13.43
442.529	13.8
442.731	13.56
442.933	13.92
443.135	13.64
443.337	13.69
443.539	14.19
443.742	13.98
443.944	14.51
444.146	14.14
444.348	14.24
444.55	14.18
444.752	14.4
444.954	14.22
445.156	14.2
445.358	14.53
445.56	14.68
445.762	14.63
445.964	14.88
446.166	14.53
446.368	14.61
446.57	14.67
446.772	14.3
446.974	14.2
447.175	14.46
447.377	14.18
447.579	14.42
447.781	14.18
447.983	14.09
448.184	13.65
448.386	13.94
448.588	13.54
448.79	13.62
448.991	13.69
449.193	13.76
449.395	13.21
449.597	12.8
449.798	12.79
450	12.54
450.202	12.28
450.403	12.38
450.605	12.33
450.806	12
451.008	11.87
451.21	11.67
451.411	11.21
451.613	10.72
451.814	10.86
452.016	10.91
452.217	10.38
452.419	10.49
452.62	9.97
452.821	9.87
453.023	9.71
453.224	9.45
453.426	9.1
453.627	8.51
453.828	8.57
454.03	8.47
454.231	8.56
454.432	8.38
454.634	8.17
454.835	7.96
455.036	7.85
455.238	7.6
455.439	7.47
455.64	7.25
455.841	7.15
456.042	7.19
456.244	6.99
456.445	6.74
456.646	6.46
456.847	6.43
457.048	6.39
457.249	6.41
457.45	6.34
457.651	5.8
457.852	5.69
458.054	5.48
458.255	5.45
458.456	5.47
458.657	5.36
458.858	5.12
459.058	4.99
459.259	5.05
459.46	4.9
459.661	4.84
459.862	4.86
460.063	4.8
460.264	4.69
460.465	4.54
460.666	4.64
460.866	4.36
461.067	4.07
461.268	4.19
461.469	4.08
461.67	4.07
461.87	3.93
462.071	3.95
462.272	3.83
462.473	3.87
462.673	3.99
462.874	3.88
463.075	3.88
463.275	3.73
463.476	3.84
463.676	3.84
463.877	3.68
464.078	3.71
464.278	3.77
464.479	3.64
464.679	3.54
464.88	3.52
465.08	3.53
465.281	3.35
465.481	3.23
465.682	3.14
465.882	3.11
466.083	3.1
466.283	3.04
466.483	2.99
466.684	2.84
466.884	2.79
467.085	2.77
467.285	2.81
467.485	2.68
467.686	2.61
467.886	2.54
468.086	2.5
468.286	2.5
468.487	2.56
468.687	2.4
468.887	2.39
469.087	2.52
469.287	2.43
469.488	2.31
469.688	2.4
469.888	2.38
470.088	2.37
470.288	2.3
470.488	2.21
470.688	2.11
470.888	2.06
471.088	1.98
471.288	2.11
471.488	2.03
471.688	2.03
471.888	1.98
472.088	2.1
472.288	2.01
472.488	1.93
472.688	1.84
472.888	1.95
473.088	1.88
473.288	1.83
473.488	1.85
473.688	1.97
473.887	1.85
474.087	1.8
474.287	1.81
474.487	1.76
474.687	1.81
474.886	1.68
475.086	1.69
475.286	1.72
475.486	1.69
475.685	1.65
475.885	1.68
476.085	1.72
476.284	1.69
476.484	1.67
476.684	1.64
476.883	1.71
477.083	1.6
477.282	1.59
477.482	1.62
477.681	1.58
477.881	1.5
478.08	1.53
478.28	1.51
478.479	1.56
478.679	1.6
478.878	1.51
479.078	1.51
479.277	1.57
479.477	1.52
479.676	1.49
479.875	1.54
480.075	1.46
480.274	1.53
480.473	1.53
480.673	1.51
480.872	1.55
481.071	1.53
481.271	1.49
481.47	1.45
481.669	1.52
481.868	1.51
482.067	1.49
482.267	1.43
482.466	1.44
482.665	1.44
482.864	1.44
483.063	1.42
483.262	1.51
483.461	1.56
483.661	1.56
483.86	1.5
484.059	1.53
484.258	1.52
484.457	1.48
484.656	1.51
484.855	1.58
485.054	1.41
485.253	1.48
485.452	1.48
485.651	1.57
485.849	1.53
486.048	1.48
486.247	1.49
486.446	1.55
486.645	1.51
486.844	1.51
487.043	1.56
487.241	1.59
487.44	1.54
487.639	1.61
487.838	1.6
488.037	1.59
488.235	1.69
488.434	1.65
488.633	1.52
488.831	1.73
489.03	1.68
489.229	1.68
489.427	1.68
489.626	1.73
489.825	1.76
490.023	1.79
490.222	1.72
490.42	1.76
490.619	1.81
490.817	1.81
491.016	1.78
491.214	1.87
491.413	1.87
491.611	1.79
491.81	1.82
492.008	1.84
492.207	1.94
492.405	1.92
492.604	1.87
492.802	1.96
493	1.97
493.199	2.02
493.397	1.98
493.595	2.1
493.794	2.03
493.992	2.14
494.19	2.1
494.388	2.15
494.587	2.1
494.785	2.14
494.983	2.09
495.181	2.22
495.379	2.25
495.578	2.25
495.776	2.27
495.974	2.28
496.172	2.3
496.37	2.43
496.568	2.38
496.766	2.36
496.964	2.48
497.162	2.49
497.36	2.47
497.558	2.49
497.756	2.56
497.954	2.56
498.152	2.61
498.35	2.66
498.548	2.59
498.746	2.63
498.944	2.61
499.142	2.68
499.34	2.71
499.538	2.77
499.736	2.73
499.933	2.85
500.131	2.84
500.329	2.94
500.527	2.95
500.725	3.01
500.922	3.05
501.12	3.01
501.318	3.09
501.516	3.06
501.713	3.18
501.911	3.09
502.109	3.09
502.306	3.2
502.504	3.13
502.701	3.18
502.899	3.23
503.097	3.38
503.294	3.31
503.492	3.39
503.689	3.46
503.887	3.44
504.084	3.49
504.282	3.48
504.479	3.41
504.677	3.59
504.874	3.55
505.072	3.52
505.269	3.67
505.466	3.66
505.664	3.73
505.861	3.63
506.059	3.74
506.256	3.79
506.453	3.81
506.651	3.93
506.848	3.91
507.045	3.89
507.242	3.87
507.44	3.96
507.637	4.01
507.834	3.95
508.031	4.15
508.229	4.01
508.426	4.04
508.623	4.17
508.82	4.15
509.017	4.11
509.214	4.14
509.411	4.21
509.608	4.21
509.805	4.32
510.003	4.24
510.2	4.36
510.397	4.46
510.594	4.39
510.791	4.41
510.988	4.38
511.184	4.43
511.381	4.32
511.578	4.52
511.775	4.61
511.972	4.53
512.169	4.58
512.366	4.59
512.563	4.73
512.76	4.71
512.956	4.74
513.153	4.68
513.35	4.67
513.547	4.71
513.744	4.77
513.94	4.78
514.137	4.89
514.334	4.78
514.53	4.9
514.727	5.01
514.924	4.93
515.12	4.89
515.317	4.91
515.514	4.88
515.71	4.9
515.907	5.08
516.103	5.08
516.3	5.04
516.497	5.11
516.693	5.13
516.89	5.11
517.086	5.15
517.283	5.16
517.479	5
517.676	5.23
517.872	5.2
518.068	5.27
518.265	5.22
518.461	5.18
518.658	5.26
518.854	5.29
519.05	5.36
519.247	5.37
519.443	5.36
519.639	5.46
519.836	5.34
520.032	5.31
520.228	5.45
520.424	5.45
520.621	5.48
520.817	5.43
521.013	5.46
521.209	5.59
521.405	5.56
521.601	5.53
521.798	5.54
521.994	5.57
522.19	5.45
522.386	5.49
522.582	5.63
522.778	5.71
522.974	5.6
523.17	5.63
523.366	5.6
523.562	5.65
523.758	5.66
523.954	5.55
524.15	5.69
524.346	5.72
524.542	5.75
524.738	5.68
524.934	5.79
525.129	5.77
525.325	5.73
525.521	5.75
525.717	5.87
525.913	5.76
526.109	5.81
526.304	5.92
526.5	5.87
526.696	5.84
526.892	5.82
527.087	6
527.283	5.87
527.479	5.91
527.674	5.77
527.87	5.89
528.066	5.88
528.261	5.91
528.457	5.87
528.653	6
528.848	6.01
529.044	6.06
529.239	5.91
529.435	5.94
529.63	5.89
529.826	5.94
530.021	5.96
530.217	6
530.412	6.03
530.608	5.96
530.803	6.03
530.999	5.93
531.194	5.96
531.389	6.05
531.585	6.02
531.78	6.17
531.975	6.04
532.171	6.12
532.366	6.1
532.561	6.08
532.757	6.07
532.952	6.19
533.147	6.04
533.342	6.11
533.538	6.05
533.733	6.22
533.928	5.96
534.123	6.12
534.318	6.15
534.513	6.04
534.709	6.19
534.904	6.14
535.099	6.16
535.294	6.17
535.489	6.21
535.684	6.18
535.879	6.13
536.074	6.18
536.269	6.23
536.464	6.23
536.659	6.14
536.854	6.21
537.049	6.29
537.244	6.21
537.439	6.2
537.634	6.21
537.828	6.25
538.023	6.23
538.218	6.2
538.413	6.16
538.608	6.26
538.803	6.27
538.997	6.19
539.192	6.28
539.387	6.18
539.582	6.22
539.776	6.16
539.971	6.28
540.166	6.31
540.36	6.2
540.555	6.31
540.75	6.23
540.944	6.31
541.139	6.27
541.334	6.21
541.528	6.29
541.723	6.31
541.917	6.35
542.112	6.23
542.306	6.17
542.501	6.2
542.695	6.29
542.89	6.2
543.084	6.29
543.279	6.3
543.473	6.31
543.668	6.32
543.862	6.15
544.056	6.19
544.251	6.34
544.445	6.32
544.64	6.33
544.834	6.1
545.028	6
545.222	6.29
545.417	6.42
545.611	6.33
545.805	6.31
546	6.15
546.194	6.31
546.388	6.35
546.582	6.23
546.776	6.34
546.97	6.35
547.165	6.34
547.359	6.31
547.553	6.29
547.747	6.26
547.941	6.46
548.135	6.28
548.329	6.36
548.523	6.33
548.717	6.28
548.911	6.24
549.105	6.29
549.299	6.37
549.493	6.35
549.687	6.25
549.881	6.37
550.075	6.36
550.269	6.23
550.463	6.3
550.657	6.36
550.85	6.3
551.044	6.33
551.238	6.35
551.432	6.3
551.626	6.37
551.82	6.43
552.013	6.25
552.207	6.37
552.401	6.39
552.594	6.34
552.788	6.3
552.982	6.35
553.176	6.35
553.369	6.41
553.563	6.41
553.756	6.31
553.95	6.42
554.144	6.36
554.337	6.4
554.531	6.29
554.724	6.32
554.918	6.44
555.111	6.31
555.305	6.34
555.498	6.28
555.692	6.42
555.885	6.4
556.079	6.3
556.272	6.38
556.466	6.39
556.659	6.32
556.852	6.41
557.046	6.3
557.239	6.22
557.432	6.32
557.626	6.35
557.819	6.45
558.012	6.37
558.206	6.42
558.399	6.36
558.592	6.32
558.785	6.32
558.979	6.37
559.172	6.32
559.365	6.37
559.558	6.31
559.751	6.28
559.944	6.41
560.138	6.33
560.331	6.36
560.524	6.41
560.717	6.29
560.91	6.34
561.103	6.4
561.296	6.26
561.489	6.36
561.682	6.47
561.875	6.34
562.068	6.41
562.261	6.29
562.454	6.45
562.647	6.36
562.84	6.37
563.032	6.35
563.225	6.33
563.418	6.33
563.611	6.38
563.804	6.41
563.997	6.26
564.19	6.21
564.382	6.43
564.575	6.39
564.768	6.3
564.961	6.4
565.153	6.26
565.346	6.25
565.539	6.39
565.731	6.32
565.924	6.42
566.117	6.4
566.309	6.36
566.502	6.31
566.695	6.31
566.887	6.37
567.08	6.31
567.272	6.35
567.465	6.28
567.657	6.42
567.85	6.27
568.042	6.3
568.235	6.38
568.427	6.24
568.62	6.3
568.812	6.28
569.005	6.39
569.197	6.23
569.389	6.31
569.582	6.33
569.774	6.36
569.966	6.22
570.159	6.19
570.351	6.28
570.543	6.29
570.736	6.32
570.928	6.19
571.12	6.32
571.312	6.26
571.505	6.12
571.697	6.31
571.889	6.28
572.081	6.28
572.273	6.2
572.465	6.24
572.658	6.31
572.85	6.22
573.042	6.27
573.234	6.21
573.426	6.29
573.618	6.22
573.81	6.29
574.002	6.28
574.194	6.27
574.386	6.2
574.578	6.12
574.77	6.18
574.962	6.27
575.154	6.12
575.346	6.11
575.538	6.15
575.729	6.17
575.921	6.23
576.113	6.21
576.305	6.28
576.497	6.31
576.689	6.11
576.88	6.1
577.072	6.24
577.264	6.2
577.456	6.2
577.647	6.13
577.839	6.23
578.031	6.15
578.223	6.12
578.414	6.06
578.606	6.12
578.798	6.16
578.989	6.16
579.181	6.19
579.372	6.13
579.564	6.13
579.755	6.09
579.947	6.02
580.139	6.17
580.33	6.03
580.522	6.15
580.713	6.07
580.905	6.06
581.096	6.2
581.287	6.12
581.479	6.05
581.67	6.1
581.862	5.99
582.053	6.09
582.244	5.93
582.436	6.13
582.627	6.02
582.818	5.98
583.01	5.96
583.201	6.03
583.392	6
583.583	5.99
583.775	5.91
583.966	5.96
584.157	5.95
584.348	6.06
584.54	5.92
584.731	5.98
584.922	5.92
585.113	5.85
585.304	5.98
585.495	5.95
585.686	6.02
585.877	5.95
586.068	6.05
586.259	5.91
586.45	5.92
586.641	5.94
586.832	5.99
587.023	5.87
587.214	5.88
587.405	5.99
587.596	5.85
587.787	5.83
587.978	5.9
588.169	5.83
588.36	5.78
588.551	5.83
588.742	5.86
588.932	5.89
589.123	5.71
589.314	5.93
589.505	5.79
589.696	5.79
589.886	5.79
590.077	5.77
590.268	5.72
590.458	5.64
590.649	5.61
590.84	5.75
591.03	5.7
591.221	5.68
591.412	5.64
591.602	5.79
591.793	5.73
591.984	5.73
592.174	5.66
592.365	5.77
592.555	5.6
592.746	5.61
592.936	5.61
593.127	5.71
593.317	5.67
593.508	5.64
593.698	5.56
593.889	5.55
594.079	5.59
594.269	5.54
594.46	5.55
594.65	5.59
594.84	5.56
595.031	5.49
595.221	5.56
595.411	5.5
595.602	5.54
595.792	5.44
595.982	5.36
596.172	5.53
596.363	5.45
596.553	5.4
596.743	5.4
596.933	5.41
597.123	5.41
597.314	5.31
597.504	5.32
597.694	5.46
597.884	5.4
598.074	5.4
598.264	5.42
598.454	5.37
598.644	5.3
598.834	5.39
599.024	5.18
599.214	5.29
599.404	5.36
599.594	5.26
599.784	5.23
599.974	5.25
600.164	5.24
600.354	5.21
600.544	5.18
600.734	5.23
600.924	5.22
601.114	5.14
601.303	5.12
601.493	5.19
601.683	5.2
601.873	5.18
602.063	5.14
602.252	5.05
602.442	5.04
602.632	5.05
602.821	5.02
603.011	5.1
603.201	5.08
603.39	5.04
603.58	4.9
603.77	5.05
603.959	5.1
604.149	5.01
604.339	5
604.528	5.06
604.718	5.03
604.907	4.98
605.097	4.87
605.286	4.86
605.476	4.92
605.665	4.95
605.855	4.85
606.044	4.92
606.234	4.89
606.423	4.85
606.612	4.84
606.802	4.81
606.991	4.87
607.181	4.78
607.37	4.76
607.559	4.65
607.749	4.79
607.938	4.75
608.127	4.77
608.316	4.82
608.506	4.73
608.695	4.78
608.884	4.68
609.073	4.77
609.263	4.75
609.452	4.77
609.641	4.6
609.83	4.58
610.019	4.69
610.208	4.57
610.397	4.62
610.586	4.65
610.775	4.55
610.965	4.59
611.154	4.49
611.343	4.58
611.532	4.48
611.721	4.56
611.91	4.41
612.099	4.47
612.287	4.4
612.476	4.41
612.665	4.52
612.854	4.42
613.043	4.47
613.232	4.38
613.421	4.36
613.61	4.4
613.798	4.39
613.987	4.42
614.176	4.34
614.365	4.35
614.554	4.33
614.742	4.37
614.931	4.22
615.12	4.36
615.309	4.25
615.497	4.23
615.686	4.16
615.875	4.22
616.063	4.22
616.252	4.22
616.44	4.22
616.629	4.21
616.818	4.16
617.006	4.18
617.195	4.16
617.383	4.16
617.572	4.04
617.76	4.06
617.949	4.08
618.137	4.16
618.326	4.12
618.514	3.94
618.703	3.94
618.891	4.06
619.079	3.95
619.268	4.09
619.456	3.97
619.644	4.02
619.833	3.96
620.021	3.9
620.209	3.86
620.398	3.89
620.586	3.89
620.774	3.93
620.962	3.91
621.151	3.95
621.339	3.87
621.527	3.83
621.715	3.77
621.903	3.77
622.092	3.72
622.28	3.93
622.468	3.69
622.656	3.72
622.844	3.69
623.032	3.76
623.22	3.62
623.408	3.77
623.596	3.73
623.784	3.7
623.972	3.59
624.16	3.67
624.348	3.71
624.536	3.7
624.724	3.57
624.912	3.66
625.1	3.67
625.288	3.61
625.476	3.49
625.664	3.68
625.851	3.51
626.039	3.57
626.227	3.53
626.415	3.5
626.603	3.41
626.79	3.53
626.978	3.5
627.166	3.53
627.354	3.44
627.541	3.47
627.729	3.29
627.917	3.53
628.104	3.49
628.292	3.39
628.48	3.34
628.667	3.39
628.855	3.4
629.042	3.39
629.23	3.3
629.418	3.32
629.605	3.3
629.793	3.24
629.98	3.28
630.168	3.21
630.355	3.29
630.543	3.29
630.73	3.22
630.917	3.21
631.105	3.31
631.292	3.24
631.48	3.19
631.667	3.27
631.854	3.17
632.042	3.14
632.229	3.13
632.416	3.14
632.604	3.15
632.791	3.03
632.978	3.12
633.165	3.15
633.353	3.16
633.54	3.16
633.727	2.98
633.914	3.07
634.101	2.95
634.289	3.1
634.476	3.01
634.663	2.94
634.85	2.99
635.037	2.89
635.224	2.84
635.411	2.98
635.598	2.94
635.785	2.93
635.972	2.88
636.159	2.93
636.346	2.9
636.533	2.87
636.72	2.81
636.907	2.89
637.094	2.85
637.281	2.68
637.468	2.79
637.655	2.81
637.842	2.8
638.029	2.77
638.215	2.73
638.402	2.73
638.589	2.68
638.776	2.71
638.963	2.69
639.149	2.75
639.336	2.87
639.523	2.67
639.709	2.68
639.896	2.64
640.083	2.64
640.27	2.71
640.456	2.57
640.643	2.63
640.829	2.49
641.016	2.53
641.203	2.53
641.389	2.64
641.576	2.57
641.762	2.55
641.949	2.53
642.135	2.58
642.322	2.49
642.508	2.42
642.695	2.5
642.881	2.43
643.068	2.42
643.254	2.47
643.441	2.46
643.627	2.48
643.813	2.37
644	2.47
644.186	2.38
644.372	2.39
644.559	2.39
644.745	2.34
644.931	2.3
645.118	2.39
645.304	2.33
645.49	2.3
645.676	2.27
645.862	2.34
646.049	2.41
646.235	2.29
646.421	2.42
646.607	2.38
646.793	2.28
646.979	2.19
647.165	2.26
647.352	2.24
647.538	2.24
647.724	2.22
647.91	2.17
648.096	2.19
648.282	2.2
648.468	2.16
648.654	2.18
648.84	2.2
649.026	2.19
649.212	2.14
649.397	2.1
649.583	2.11
649.769	2.13
649.955	2.14
650.141	2.11
650.327	2.11
650.513	2.06
650.698	2.1
650.884	1.95
651.07	2.03
651.256	2.07
651.442	2.04
651.627	1.96
651.813	2.03
651.999	2
652.184	2.04
652.37	2.04
652.556	1.95
652.741	2.04
652.927	1.87
653.113	1.96
653.298	1.99
653.484	1.95
653.669	1.9
653.855	1.89
654.04	1.9
654.226	1.88
654.412	1.88
654.597	1.83
654.782	1.91
654.968	1.91
655.153	1.86
655.339	1.83
655.524	1.83
655.71	1.83
655.895	1.81
656.08	1.8
656.266	1.87
656.451	1.79
656.636	1.79
656.822	1.75
657.007	1.79
657.192	1.72
657.378	1.73
657.563	1.72
657.748	1.78
657.933	1.74
658.118	1.65
658.304	1.71
658.489	1.81
658.674	1.69
658.859	1.69
659.044	1.67
659.229	1.72
659.414	1.68
659.599	1.68
659.785	1.63
659.97	1.7
660.155	1.62
660.34	1.7
660.525	1.59
660.71	1.61
660.895	1.63
661.08	1.63
661.264	1.53
661.449	1.66
661.634	1.59
661.819	1.59
662.004	1.59
662.189	1.5
662.374	1.55
662.559	1.52
662.743	1.46
662.928	1.49
663.113	1.48
663.298	1.44
663.483	1.52
663.667	1.51
663.852	1.43
664.037	1.57
664.221	1.48
664.406	1.55
664.591	1.49
664.775	1.49
664.96	1.44
665.145	1.44
665.329	1.54
665.514	1.44
665.698	1.36
665.883	1.37
666.068	1.46
666.252	1.41
666.437	1.39
666.621	1.42
666.806	1.4
666.99	1.37
667.174	1.33
667.359	1.45
667.543	1.38
667.728	1.4
667.912	1.25
668.096	1.3
668.281	1.33
668.465	1.39
668.649	1.31
668.834	1.25
669.018	1.34
669.202	1.26
669.387	1.26
669.571	1.37
669.755	1.24
669.939	1.26
670.124	1.28
670.308	1.34
670.492	1.31
670.676	1.34
670.86	1.21
671.044	1.19
671.228	1.31
671.413	1.21
671.597	1.2
671.781	1.24
671.965	1.29
672.149	1.2
672.333	1.2
672.517	1.15
672.701	1.24
672.885	1.21
673.069	1.11
673.253	1.25
673.437	1.16
673.621	1.19
673.804	1.21
673.988	1.13
674.172	1.14
674.356	1.09
674.54	1.16
674.724	1.28
674.908	1.09
675.091	1.2
675.275	1.14
675.459	1.21
675.643	1.22
675.826	1.13
676.01	1.14
676.194	1.13
676.377	1.19
676.561	1.13
676.745	1.14
676.928	1.1
677.112	1.14
677.296	1.08
677.479	1.07
677.663	1.06
677.846	1.07
678.03	1.05
678.213	1.01
678.397	1.09
678.58	1
678.764	1.04
678.947	0.98
679.131	1.04
679.314	1.03
679.498	1.04
679.681	1
679.865	1.09
680.048	0.98
680.231	1
680.415	0.97
680.598	0.94
680.781	1.01
680.965	0.94
681.148	1.02
681.331	0.99
681.514	1.01
681.698	0.92
681.881	0.96
682.064	0.98
682.247	0.99
682.43	0.81
682.614	0.93
682.797	1
682.98	0.93
683.163	0.92
683.346	0.94
683.529	0.91
683.712	0.89
683.895	0.94
684.078	0.86
684.261	0.87
684.444	0.93
684.627	0.91
684.81	0.83
684.993	0.87
685.176	0.98
685.359	0.84
685.542	0.85
685.725	0.96
685.908	0.87
686.091	0.85
686.274	0.9
686.457	0.88
686.639	0.89
686.822	0.89
687.005	0.92
687.188	0.9
687.371	0.95
687.553	0.89
687.736	0.87
687.919	0.94
688.102	0.93
688.284	0.79
688.467	0.76
688.65	0.86
688.832	0.77
689.015	0.77
689.197	0.74
689.38	0.92
689.563	0.87
689.745	0.75
689.928	0.75
690.11	0.8
690.293	0.79
690.475	0.67
690.658	0.82
690.84	0.77
691.023	0.76
691.205	0.74
691.388	0.76
691.57	0.79
691.752	0.8
691.935	0.66
692.117	0.69
692.3	0.74
692.482	0.73
692.664	0.72
692.847	0.78
693.029	0.83
693.211	0.78
693.393	0.73
693.576	0.65
693.758	0.72
693.94	0.74
694.122	0.72
694.304	0.69
694.487	0.69
694.669	0.76
694.851	0.62
695.033	0.66
695.215	0.66
695.397	0.63
695.579	0.67
695.761	0.63
695.943	0.63
696.125	0.74
696.308	0.73
696.49	0.58
696.671	0.8
696.853	0.65
697.035	0.87
697.217	0.6
697.399	0.69
697.581	0.59
697.763	0.61
697.945	0.57
698.127	0.66
698.309	0.79
698.491	0.74
698.672	0.69
698.854	0.73
699.036	0.7
699.218	0.61
699.399	0.75
699.581	0.66
699.763	0.68
699.945	0.62
700.126	0.59
700.308	0.6
700.49	0.63
700.671	0.54
700.853	0.63
701.035	0.5
701.216	0.63
701.398	0.54
701.579	0.55
701.761	0.67
701.943	0.59
702.124	0.56
702.306	0.56
702.487	0.77
702.669	0.59
702.85	0.52
703.031	0.55
703.213	0.74
703.394	0.67
703.576	0.58
703.757	0.7
703.938	0.62
704.12	0.78
704.301	0.53
704.483	0.54
704.664	0.57
704.845	0.66
705.026	0.59
705.208	0.56
705.389	0.56
705.57	0.6
705.751	0.51
705.933	0.61
706.114	0.61
706.295	0.54
706.476	0.47
706.657	0.65
706.838	0.64
707.02	0.62
707.201	0.55
707.382	0.43
707.563	0.66
707.744	0.49
707.925	0.48
708.106	0.51
708.287	0.55
708.468	0.63
708.649	0.58
708.83	0.54
709.011	0.5
709.192	0.58
709.373	0.51
709.554	0.49
709.734	0.59
709.915	0.62
710.096	0.49
710.277	0.35
710.458	0.47
710.639	0.56
710.819	0.4
711	0.43
711.181	0.64
711.362	0.6
711.542	0.47
711.723	0.47
711.904	0.55
712.085	0.53
712.265	0.48
712.446	0.44
712.627	0.49
712.807	0.5
712.988	0.45
713.168	0.47
713.349	0.52
713.53	0.39
713.71	0.47
713.891	0.41
714.071	0.49
714.252	0.41
714.432	0.45
714.613	0.32
714.793	0.44
714.974	0.62
715.154	0.53
715.334	0.58
715.515	0.57
715.695	0.35
715.876	0.43
716.056	0.42
716.236	0.41
716.417	0.46
716.597	0.37
716.777	0.69
716.957	0.51
717.138	0.51
717.318	0.5
717.498	0.28
717.678	0.52
717.859	0.44
718.039	0.39
718.219	0.43
718.399	0.48
718.579	0.39
718.759	0.35
718.939	0.52
719.12	0.46
719.3	0.41
719.48	0.32
719.66	0.27
719.84	0.54
720.02	0.4
720.2	0.3
720.38	0.38
720.56	0.57
720.74	0.32
720.92	0.46
721.1	0.59
721.279	0.47
721.459	0.41
721.639	0.29
721.819	0.47
721.999	0.42
722.179	0.48
722.359	0.23
722.538	0.4
722.718	0.34
722.898	0.41
723.078	0.4
723.257	0.36
723.437	0.41
723.617	0.4
723.797	0.4
723.976	0.4
724.156	0.48
724.336	0.47
724.515	0.59
724.695	0.28
724.874	0.5
725.054	0.46
725.234	0.33
725.413	0.42
725.593	0.32
725.772	0.36
725.952	0.43
726.131	0.34
726.311	0.44
726.49	0.45
726.67	0.29
726.849	0.28
727.028	0.4
727.208	0.37
727.387	0.46
727.567	0.25
727.746	0.34
727.925	0.29
728.105	0.24
728.284	0.34
728.463	0.31
728.643	0.41
728.822	0.24
729.001	0.32
729.18	0.39
729.359	0.48
729.539	0.33
729.718	0.43
729.897	0.39
730.076	0.35
730.255	0.28
730.434	0.36
730.614	0.45
730.793	0.46
730.972	0.34
731.151	0.41
731.33	0.56
731.509	0.37
731.688	0.38
731.867	0.33
732.046	0.24
732.225	0.55
732.404	0.26
732.583	0.3
732.762	0.28
732.941	0.48
733.12	0.43
733.298	0.3
733.477	0.51
733.656	0.32
733.835	0.32
734.014	0.37
734.193	0.41
734.371	0.43
734.55	0.44
734.729	0.31
734.908	0.35
735.086	0.31
735.265	0.49
735.444	0.19
735.623	0.35
735.801	0.33
735.98	0.29
736.159	0.24
736.337	0.51
736.516	0.41
736.694	0.37
736.873	0.33
737.052	0.53
737.23	0.54
737.409	0.33
737.587	0.5
737.766	0.23
737.944	0.28
738.123	0.33
738.301	0.46
738.479	0.24
738.658	0.45
738.836	0.14
739.015	0.43
739.193	0.45
739.371	0.35
739.55	0.4
739.728	0.24
739.906	0.46
740.085	0.59
740.263	0.37
740.441	0.14
740.62	0.6
740.798	0.44
740.976	0.28
741.154	0.34
741.332	0.56
741.511	0.32
741.689	0.35
741.867	0.49
742.045	0.42
742.223	0.37
742.401	0.19
742.579	0.29
742.757	0.42
742.935	0.17
743.114	0.31
743.292	0.22
743.47	0.35
743.648	0.42
743.826	0.13
744.004	0.51
744.181	0.4
744.359	0.39
744.537	0.44
744.715	0.32
744.893	0.35
745.071	0.34
745.249	0.3
745.427	0.27
745.605	0.35
745.782	0.32
745.96	0.36
746.138	0.47
746.316	0.38
746.493	0.35
746.671	0.4
746.849	0.3
747.027	0.49
747.204	0.25
747.382	0.29
747.56	0.16
747.737	0.47
747.915	0.21
748.093	0.35
748.27	0.26
748.448	0.32
748.625	0.14
748.803	0.2
748.98	0.22
749.158	0.38
749.335	0.39
749.513	0.3
749.69	0.32
749.868	0.39
750.045	0.45
750.223	0.36
750.4	0.09
750.578	0.49
750.755	0.31
750.932	0.16
751.11	0.41
751.287	0.17
751.464	0.45
751.642	0.16
751.819	0.5
751.996	0.33
752.173	0.3
752.351	0.25
752.528	0.31
752.705	0.3
752.882	0.22
753.06	0.31
753.237	0.37
753.414	0.51
753.591	0.49
753.768	0.41
753.945	0.22
754.122	0.28
754.299	0.33
754.476	0.12
754.654	0.23
754.831	0.41
755.008	0.28
755.185	0.28
755.362	0.14
755.539	0.28
755.716	0.27
755.892	0.24
756.069	0.25
756.246	0.26
756.423	0.4
756.6	0.38
756.777	0.19
756.954	0.41
757.131	0.32
757.307	0.19
757.484	0.12
757.661	0.41
757.838	0.25
758.015	0.11
758.191	0.32
758.368	0.34
758.545	0.47
758.721	0.32
758.898	0.17
759.075	0.33
759.251	0.41
759.428	0.35
759.605	0.19
759.781	0.18
759.958	0.33
760.134	0.29
760.311	0.12
760.488	0.44
760.664	0.41
760.841	0.23
761.017	0.21
761.194	0.32
761.37	0.36
761.547	0.24
761.723	0.22
761.899	0.45
762.076	0.25
762.252	0.16
762.429	0.28
762.605	0.54
762.781	0.26
762.958	0.39
763.134	0.17
763.31	0.29
763.486	0.39
763.663	0.13
763.839	0.28
764.015	0.06
764.191	0.27
764.368	0.27
764.544	0.22
764.72	0.39
764.896	0.48
765.072	0.3
765.248	0.27
765.425	0.28
765.601	0.17
765.777	0.34
765.953	0.16
766.129	0.22
766.305	0.15
766.481	0.33
766.657	0.24
766.833	0.52
767.009	0.1
767.185	0.26
767.361	0.25
767.537	0.16
767.713	0.38
767.889	0.16
768.065	0.22
768.24	0.44
768.416	0.39
768.592	0.24
768.768	0.32
768.944	0.3
769.12	0.2
769.295	0.33
769.471	0.23
769.647	0.13
769.823	0.48
769.998	0.24
770.174	0.14
770.35	0.57
770.525	0.59
770.701	0.19
770.877	0.28
771.052	0.1
771.228	0.45
771.403	0.27
771.579	0.32
771.755	0.57
771.93	0.27
772.106	0.12
772.281	-0
772.457	0.31
772.632	0.29
772.808	0.12
772.983	0.21
773.159	0.1
773.334	0.43
773.509	0.31
773.685	0.2
773.86	0.61
774.036	0.51
774.211	0.34
774.386	0.3
774.562	0.24
774.737	0.62
774.912	0.22
775.087	0.33
775.263	0.23
775.438	0.4
775.613	0.26
775.788	0.17
775.964	0.32
776.139	0.8
776.314	0.12
776.489	0.29
776.664	0.29
776.839	0.15
777.014	0.44
777.19	0.34
777.365	0.63
777.54	0.47
777.715	0.18
777.89	0.36
778.065	0.14
778.24	0.27
778.415	0.5
778.59	0.17
778.765	0.31
778.94	0.31
779.115	0.28
779.289	0.27
779.464	0.25
779.639	0.19
779.814	-0.01
779.989	0.17
780.164	0.66
780.339	0.43
780.513	0.35
780.688	0.13
780.863	0.28
781.038	0.41
781.212	0.09
781.387	0.11
781.562	0.65
781.737	0.03
781.911	0.56
782.086	0.19
782.261	0.22
782.435	0.51
782.61	0.19
782.784	0.18
782.959	0.44
783.134	0.13
783.308	0.21
783.483	0.1
783.657	0.79
783.832	0.48
784.006	0.01
784.181	0.41
784.355	0.38
784.53	0.11
784.704	0.51
784.878	0.5
785.053	0.42
785.227	0.72
785.402	0.67
785.576	0.12
785.75	0.35
785.925	0.26
786.099	0.46
786.273	0.39
786.448	0.3
786.622	0.26
786.796	0.13
786.97	0.28
787.145	0.82
787.319	0.07
787.493	0.43
787.667	-0.01
787.841	0.34
788.015	0.67
788.19	0.18
788.364	0.41
788.538	0.68
788.712	0.43
788.886	0.36
789.06	0.56
789.234	0.46
789.408	0.11
789.582	0.25
789.756	0.3
789.93	0.23
790.104	0.41
790.278	-0.02
790.452	0.27
790.626	0.43
790.8	0.15
790.973	0.44
791.147	0.67
791.321	0.81
791.495	0.44
791.669	0.37
791.843	0.42
792.016	0.5
792.19	0.56
792.364	0.07
792.538	0.99
792.711	0.73
792.885	0.3
793.059	0.28
793.233	-0.12
793.406	0.47
793.58	0.35
793.754	0.4
793.927	0.4
794.101	0.63
794.274	0.43
794.448	0.57
794.622	0.13
794.795	0.69
794.969	0.18
795.142	0.55
795.316	0.12
795.489	0.53
795.663	0.59
795.836	0.33
796.009	0.15
796.183	0.84
796.356	0.48
796.53	0.49
796.703	0.38
796.876	0.93
797.05	0.25
797.223	0.35
797.396	0.41
797.57	0.52
797.743	0.91
797.916	0.36
798.09	0.48
798.263	0.71
798.436	0.57
798.609	0.31
798.782	0.26
798.956	0.71
799.129	0.37
799.302	0.04
799.475	0.33
799.648	0.33
799.821	0
799.994	0.36
800.167	-0.05
800.34	0.44
800.514	0.32
800.687	-0.01
800.86	0.04
801.033	0.34
801.206	0.58
801.379	0.31
801.551	0.76
801.724	0.56
801.897	1.18
802.07	0.19
802.243	0.07
802.416	0.58
802.589	0.32
802.762	0.23
802.935	0.53
803.107	0.76
803.28	0.71
803.453	0.67
803.626	0.03
803.798	0.56
803.971	0.14
804.144	0.57
804.317	0.57
804.489	0.72
804.662	0.43
804.835	0.47
805.007	0.32
805.18	1.16
805.353	0.45
805.525	0.28
805.698	0.09
805.87	0.56
806.043	0.47
806.215	0.07
806.388	0.14
806.56	0.4
806.733	0.95
806.905	0.62
807.078	0.29
807.25	0.23
807.423	0.62
807.595	0.53
807.768	0.56
807.94	0.37
808.112	0.53
808.285	0.4
808.457	-0.09
808.629	0.35
808.802	0.61
808.974	0.47
809.146	0.22
809.318	-0.05
809.491	0.37
809.663	0.95
809.835	0.5
810.007	0.69
810.18	0.51
810.352	-0.05
810.524	0.21
810.696	0.59
810.868	0.87
811.04	0.15
811.212	0.33
811.384	0.86
811.556	0.44
811.728	0.91
811.901	1.33
812.073	0.27
812.245	0.84
812.417	0.3
812.589	-0.56
812.76	0.82
812.932	0.8
813.104	0.69
813.276	0.29
813.448	0.98
813.62	0.54
813.792	0.47
813.964	0.41
814.136	0.71
814.307	0.36
814.479	0.04
814.651	0.44
814.823	1.18
814.995	0.47
815.166	0.51
815.338	0.38
815.51	-0.21
815.681	1.27
815.853	0.8
816.025	0.53
816.196	0.96
816.368	1.08
816.54	0.18
816.711	0.2
816.883	0.62
817.054	1.61
817.226	-0.05
817.398	0.92
817.569	0.29
817.741	0.44
817.912	0.19
818.084	0.15
818.255	0.88
818.426	0.2
818.598	0.61
818.769	0.12
818.941	1.2
819.112	1.16
819.283	0.69
819.455	0.13
819.626	0.63
819.798	0.56
819.969	0.57
820.14	0.2
820.311	0.2
820.483	0.6
820.654	0.4
820.825	0.68
820.996	0.2
821.168	0.26
821.339	0.43
821.51	0.2
821.681	0.27
821.852	0.43
822.023	0.2
822.195	0.54
822.366	0.91
822.537	0.64
822.708	0.11
822.879	0.14
823.05	1.14
823.221	0.14
823.392	1.21
823.563	0.68
823.734	0.98
823.905	0.53
824.076	-0.19
824.247	-0.41
824.418	0.79
824.589	0.91
824.759	0.72
824.93	0.13
825.101	-0.14
825.272	1.16
825.443	1.11
825.614	0.57
825.784	-0.11
825.955	1.73
826.126	1.42
826.297	0.6
826.467	1.15
826.638	1.6
826.809	-0.33
826.98	0.8
827.15	0.84
827.321	0.6
827.492	1.25
827.662	0.77
827.833	1.31
828.003	0.55
828.174	-0.32
828.345	-0.33
828.515	1.35
828.686	0.42
828.856	0.44
829.027	0.26
829.197	0.68
829.368	0.96
829.538	0.12
829.709	-0.1
829.879	0.51
830.049	0.27
830.22	0.54
830.39	0.02
830.56	1.49
830.731	0.72
830.901	0.25
831.072	0.7
831.242	1
831.412	1.07
831.582	0.77
831.753	-0.36
831.923	1.16
832.093	0.38
832.263	0.7
832.434	-0.12
832.604	0.27
832.774	1.33
832.944	0.65
833.114	0.59
833.284	0.67
833.454	0.83
833.624	0.34
833.795	0.59
833.965	1.72
834.135	1.59
834.305	-0.14
834.475	-0.3
834.645	0.61
834.815	-0.15
834.985	0.28
835.155	0.57
835.325	0.96
835.494	1.02
835.664	0.49
835.834	0.22
836.004	0.64
836.174	1.21
836.344	0.62
836.514	0.3
836.684	0.6
836.853	0.63
837.023	0.8
837.193	0.21
837.363	1.55
837.532	1.27
837.702	0.49
837.872	-0.05
838.041	1.46
838.211	2.14
838.381	-0.34
838.55	0.6
838.72	2.82
838.89	2.16
839.059	0.73
839.229	0.01
839.398	2.27
839.568	0.98
839.738	1.11
839.907	1.11
840.077	1.93
840.246	0.16
840.416	0.24
840.585	0.22
840.755	2.24
840.924	1.84
841.093	-0.81
841.263	0.68
841.432	0.64
841.602	-0.34
841.771	0.68
841.94	0.72
842.11	2.08
842.279	2.2
842.448	0.46
842.617	0.21
842.787	2.13
842.956	0.15
843.125	0.96
843.294	1.23
843.464	1.29
843.633	1.12
843.802	-0.47
843.971	1.31
844.14	1.72
844.309	2.24
844.479	-0.7
844.648	0.82
844.817	0.34
844.986	1.34
845.155	0.88
845.324	0.85
845.493	0.67
845.662	-0.12
845.831	1.24
846	0.95
846.169	0.36
846.338	2.68
846.507	1.12
846.676	0.36
846.844	0.58
847.013	1.73
847.182	0.91
847.351	0.57
847.52	1.13
847.689	0.94
847.858	0.32
848.026	0.51
848.195	1.4
848.364	0.82
848.533	0.33
848.701	0.19
848.87	0.16
849.039	2.31
849.207	1.92
849.376	1.28
849.545	2.41
849.713	0.63
849.882	0.11
850.051	0.25
850.219	0.3
850.388	1.08
850.556	0.07
850.725	0.41
850.893	0.95
851.062	1.26
851.23	1.3
851.399	-0.9
851.567	1.4
851.736	0.45
851.904	-0.26
852.073	0.79
852.241	1.57
852.41	1.28
852.578	1.5
852.746	0.24
852.915	1.23
853.083	1.84
853.251	0.35
853.42	0.53
853.588	0.41
853.756	1.98
853.924	0.77
854.093	0.13
854.261	0.69
854.429	-0.84
854.597	1.02
854.765	0.55
854.934	1.56
855.102	2.6
855.27	0.38
855.438	1.1
855.606	2
855.774	2.66
855.942	-1.13
856.11	-1.41
856.278	1.32
856.446	1.84
856.614	1.68
856.782	0.32
856.95	1.33
857.118	1.64
857.286	1.76
857.454	0.3
857.622	1.63
857.79	1.81
857.958	0.55
858.126	1.32
858.294	-1.45
858.462	0.76
858.629	0.18
858.797	0.4
858.965	0.98
859.133	1.21
859.301	0.58
859.468	2.36
859.636	0.36
859.804	2.46
859.971	1.06
860.139	1.37
860.307	3.15
860.474	0.93
860.642	0.67
860.81	-0
860.977	-0.16
861.145	2.64
861.313	0.17
861.48	0.85
861.648	3.79
861.815	0.25
861.983	-0.26
862.15	0.02
862.318	1.58
862.485	2.27
862.653	0.61
862.82	-0.11
862.988	3.44
863.155	1.59
863.322	-1.11
863.49	-0.54
863.657	-0.29
863.824	3.76
863.992	3.38
864.159	0.29
864.326	2.78
864.494	1.34
864.661	3.65
864.828	-0.21
864.996	3.17
865.163	3.66
865.33	0.21
865.497	-1.33
865.664	0.62
865.832	-0.52
865.999	1.2
866.166	0.65
866.333	-0.09
866.5	1.65
866.667	1.45
866.834	0.52
867.001	3.59
867.168	-0.33
867.335	1.82
867.502	0.84
867.669	1.18
867.836	3.04
868.003	1.54
868.17	2.42
868.337	0.63
868.504	4.68
868.671	-0.53
868.838	0.59
869.005	1.62
869.172	2.1
869.339	2.38
869.505	2.3
869.672	1.61
869.839	3.55
870.006	1.68
870.173	-0.24
870.339	1.61
870.506	3.79
870.673	0.53
870.84	2.71
871.006	1.79
871.173	1.64
871.34	1.8
871.506	-0.4
871.673	0.65
871.839	0.88
872.006	1.63
872.173	0.06
872.339	1.04
872.506	3.24
872.672	2.18
872.839	-1.02
873.005	2.2
873.172	5
873.338	2.07
873.505	1.46
873.671	2.69
873.838	1.42
874.004	0.15
874.171	0.65
874.337	3.01
874.503	2.66
874.67	-0.07
874.836	1.31
875.002	4.21
875.169	5.19
875.335	0.69
875.501	0.66
875.668	5.98
875.834	1.36
876	-0.29
876.166	1.12
876.332	2.9
876.499	4.96
876.665	2.37
876.831	0.76
876.997	5.82
877.163	3.01
877.329	0.38
877.495	2.39
877.662	2.43
877.828	1.81
877.994	0.97
878.16	-2.65
878.326	-0.1
878.492	2.39
878.658	0.77
878.824	2.11
878.99	3.73
879.156	0.5
879.322	4.37
879.487	1.87
879.653	2.86
879.819	1.6
879.985	0.33
880.151	3.43
880.317	1.4
880.483	1.77
880.648	2.57
880.814	-1.61
880.98	1.27
881.146	-1.73
881.312	0.3
881.477	2.38
881.643	1.93
881.809	4.61
881.974	3.02
882.14	-2.54
882.306	1.58
882.471	4.59
882.637	0.69
882.803	2.77
882.968	6.41
883.134	5.31
883.299	0.54
883.465	1.14
883.63	5.46
883.796	2.9
883.961	3.61
884.127	2.23
884.292	-1.91
884.458	-1.85
884.623	-1.85
