Data from Apollo_Calib_20240827__AbsoluteIrradiance__851__13-20-01-223.txt Node

Date: Wed Aug 28 13:20:01 BST 2024
User: biology
Spectrometer: FLMT08252
Trigger mode: 0
Integration Time (sec): 5.000000E-1
Scans to average: 5
Electric dark correction enabled: true
Nonlinearity correction enabled: false
Boxcar width: 0
XAxis mode: Wavelengths
Number of Pixels in Spectrum: 3648
>>>>>Begin Spectral Data<<<<<
179.588	-0
179.809	-0
180.03	-0
180.251	-0
180.473	-0
180.694	0
180.915	0
181.136	-0
181.357	0
181.578	-0
181.799	-0
182.02	-0
182.241	0
182.462	-0
182.683	0
182.904	-0
183.125	0
183.346	0
183.567	0
183.788	0
184.009	0
184.23	0
184.451	0
184.672	0
184.892	0
185.113	0
185.334	0
185.555	0
185.776	0
185.996	0
186.217	0
186.438	0
186.659	0
186.879	0
187.1	0
187.321	0
187.541	0
187.762	0
187.983	0
188.203	0
188.424	0
188.644	0
188.865	0
189.086	0
189.306	0
189.527	0
189.747	0
189.968	0
190.188	0
190.409	0
190.629	0
190.849	0
191.07	0
191.29	0
191.511	0
191.731	0
191.951	0
192.172	0
192.392	0
192.612	0
192.833	0
193.053	0
193.273	0
193.493	0
193.714	0
193.934	0
194.154	0
194.374	0
194.594	0
194.815	0
195.035	0
195.255	0
195.475	0
195.695	0
195.915	0
196.135	0
196.355	0
196.575	0
196.795	0
197.015	0
197.235	0
197.455	0
197.675	0
197.895	0
198.115	0
198.335	0
198.555	0
198.775	0
198.995	0
199.214	0
199.434	0
199.654	0
199.874	0
200.094	4.1
200.313	2.19
200.533	1.99
200.753	1.17
200.973	3.92
201.192	2.68
201.412	1.41
201.632	1.9
201.851	3.66
202.071	1.67
202.291	1.44
202.51	1.23
202.73	2.97
202.95	2.26
203.169	1.32
203.389	1.79
203.608	2.33
203.828	1.55
204.047	1.38
204.267	2.52
204.486	2.06
204.706	2
204.925	1.58
205.145	1.39
205.364	2.22
205.583	2.9
205.803	1.17
206.022	1.11
206.242	1.79
206.461	1.53
206.68	1.02
206.9	1.28
207.119	2.21
207.338	2
207.557	1.06
207.777	1.1
207.996	1.55
208.215	2.3
208.434	1.33
208.654	0.98
208.873	1.54
209.092	2.12
209.311	1.17
209.53	1.11
209.749	1.56
209.968	1.17
210.187	1.14
210.407	0.64
210.626	1.09
210.845	1.96
211.064	1.07
211.283	0.6
211.502	1.39
211.721	1.21
211.94	0.95
212.159	1.03
212.377	1.59
212.596	1.63
212.815	0.98
213.034	1.16
213.253	1.21
213.472	1.43
213.691	0.86
213.91	0.86
214.128	0.62
214.347	1.54
214.566	0.5
214.785	0.61
215.003	1.35
215.222	1.02
215.441	1.02
215.66	0.46
215.878	0.95
216.097	1.15
216.316	0.69
216.534	0.75
216.753	1.2
216.972	0.79
217.19	0.93
217.409	0.69
217.627	0.77
217.846	0.68
218.064	1.04
218.283	0.45
218.501	1.29
218.72	1.29
218.938	0.52
219.157	0.66
219.375	1.24
219.594	1.12
219.812	0.51
220.031	0.49
220.249	1.3
220.467	1.19
220.686	0.63
220.904	0.55
221.122	0.62
221.341	1.1
221.559	0.79
221.777	0.47
221.995	0.77
222.214	0.92
222.432	0.59
222.65	0.94
222.868	0.69
223.086	0.96
223.305	0.89
223.523	0.64
223.741	1.21
223.959	0.64
224.177	0.3
224.395	0.46
224.613	0.93
224.831	1.07
225.049	0.51
225.267	0.74
225.485	0.94
225.703	0.6
225.921	0.53
226.139	0.49
226.357	0.78
226.575	0.79
226.793	0.52
227.011	1.66
227.229	0.78
227.447	0.83
227.665	0.44
227.883	0.35
228.1	0.64
228.318	0.67
228.536	0.29
228.754	0.48
228.972	0.71
229.189	0.71
229.407	0.45
229.625	0.52
229.843	0.94
230.06	0.85
230.278	0.53
230.496	0.59
230.713	0.66
230.931	0.79
231.149	0.54
231.366	0.29
231.584	0.5
231.801	1.03
232.019	0.38
232.236	0.42
232.454	0.43
232.671	0.63
232.889	0.45
233.106	0.31
233.324	0.63
233.541	0.59
233.759	0.57
233.976	0.31
234.194	0.61
234.411	0.57
234.628	0.52
234.846	0.51
235.063	0.64
235.28	0.61
235.498	0.51
235.715	0.37
235.932	0.73
236.149	0.53
236.367	0.3
236.584	0.56
236.801	0.45
237.018	0.71
237.236	0.54
237.453	0.24
237.67	0.66
237.887	0.58
238.104	0.47
238.321	0.28
238.538	0.36
238.755	0.69
238.973	0.3
239.19	0.51
239.407	0.69
239.624	0.47
239.841	0.37
240.058	0.45
240.275	0.48
240.492	0.49
240.709	0.55
240.925	0.39
241.142	0.52
241.359	0.25
241.576	0.29
241.793	0.27
242.01	0.46
242.227	0.74
242.444	0.55
242.66	0.55
242.877	0.49
243.094	0.42
243.311	0.45
243.527	0.35
243.744	0.6
243.961	0.54
244.178	0.33
244.394	0.45
244.611	0.64
244.828	0.67
245.044	0.34
245.261	0.4
245.477	0.43
245.694	0.54
245.911	0.41
246.127	0.56
246.344	0.65
246.56	0.52
246.777	0.4
246.993	0.45
247.21	0.57
247.426	0.49
247.643	0.36
247.859	0.32
248.076	0.38
248.292	0.64
248.508	0.28
248.725	0.46
248.941	0.48
249.157	0.61
249.374	0.38
249.59	0.38
249.806	0.42
250.023	0.66
250.239	0.4
250.455	0.34
250.671	0.53
250.888	0.49
251.104	0.46
251.32	0.32
251.536	0.44
251.752	0.43
251.969	0.35
252.185	0.36
252.401	0.71
252.617	0.31
252.833	0.26
253.049	0.36
253.265	0.37
253.481	0.48
253.697	0.34
253.913	0.28
254.129	0.42
254.345	0.46
254.561	0.38
254.777	0.37
254.993	0.43
255.209	0.39
255.425	0.28
255.641	0.28
255.857	0.48
256.073	0.46
256.288	0.28
256.504	0.32
256.72	0.45
256.936	0.57
257.152	0.39
257.367	0.29
257.583	0.44
257.799	0.49
258.015	0.31
258.23	0.29
258.446	0.61
258.662	0.4
258.877	0.26
259.093	0.27
259.309	0.41
259.524	0.41
259.74	0.29
259.955	0.27
260.171	0.35
260.387	0.36
260.602	0.4
260.818	0.42
261.033	0.28
261.249	0.37
261.464	0.34
261.68	0.22
261.895	0.45
262.11	0.39
262.326	0.32
262.541	0.21
262.757	0.54
262.972	0.44
263.187	0.33
263.403	0.42
263.618	0.51
263.833	0.38
264.049	0.27
264.264	0.31
264.479	0.35
264.694	0.56
264.91	0.31
265.125	0.27
265.34	0.47
265.555	0.52
265.77	0.3
265.986	0.26
266.201	0.36
266.416	0.45
266.631	0.28
266.846	0.33
267.061	0.44
267.276	0.42
267.491	0.24
267.706	0.38
267.921	0.38
268.136	0.38
268.351	0.37
268.566	0.27
268.781	0.48
268.996	0.37
269.211	0.28
269.426	0.25
269.641	0.29
269.856	0.4
270.071	0.31
270.285	0.26
270.5	0.43
270.715	0.36
270.93	0.33
271.145	0.38
271.359	0.46
271.574	0.31
271.789	0.28
272.004	0.25
272.218	0.28
272.433	0.38
272.648	0.26
272.862	0.37
273.077	0.45
273.292	0.35
273.506	0.23
273.721	0.23
273.936	0.43
274.15	0.41
274.365	0.22
274.579	0.32
274.794	0.34
275.008	0.42
275.223	0.24
275.437	0.32
275.652	0.44
275.866	0.38
276.081	0.31
276.295	0.37
276.509	0.36
276.724	0.35
276.938	0.35
277.153	0.34
277.367	0.35
277.581	0.31
277.796	0.28
278.01	0.24
278.224	0.42
278.438	0.47
278.653	0.17
278.867	0.23
279.081	0.43
279.295	0.31
279.51	0.33
279.724	0.18
279.938	0.32
280.152	0.36
280.366	0.27
280.58	0.29
280.794	0.43
281.008	0.42
281.222	0.33
281.437	0.5
281.651	0.34
281.865	0.39
282.079	0.3
282.293	0.18
282.507	0.23
282.721	0.27
282.935	0.25
283.148	0.18
283.362	0.28
283.576	0.21
283.79	0.29
284.004	0.2
284.218	0.43
284.432	0.29
284.646	0.31
284.859	0.27
285.073	0.3
285.287	0.36
285.501	0.28
285.714	0.3
285.928	0.34
286.142	0.33
286.356	0.26
286.569	0.27
286.783	0.35
286.997	0.36
287.21	0.3
287.424	0.26
287.637	0.32
287.851	0.26
288.065	0.35
288.278	0.28
288.492	0.29
288.705	0.31
288.919	0.33
289.132	0.22
289.346	0.38
289.559	0.2
289.773	0.21
289.986	0.23
290.2	0.28
290.413	0.38
290.626	0.27
290.84	0.26
291.053	0.32
291.267	0.37
291.48	0.29
291.693	0.18
291.906	0.24
292.12	0.28
292.333	0.24
292.546	0.19
292.76	0.37
292.973	0.3
293.186	0.32
293.399	0.2
293.612	0.3
293.826	0.26
294.039	0.24
294.252	0.24
294.465	0.37
294.678	0.31
294.891	0.22
295.104	0.24
295.317	0.19
295.53	0.32
295.743	0.28
295.956	0.22
296.169	0.39
296.382	0.31
296.595	0.26
296.808	0.17
297.021	0.34
297.234	0.33
297.447	0.25
297.66	0.33
297.873	0.39
298.086	0.36
298.299	0.19
298.511	0.18
298.724	0.31
298.937	0.19
299.15	0.24
299.363	0.22
299.575	0.37
299.788	0.3
300.001	0.24
300.213	0.24
300.426	0.28
300.639	0.21
300.852	0.18
301.064	0.27
301.277	0.37
301.489	0.29
301.702	0.31
301.915	0.19
302.127	0.25
302.34	0.26
302.552	0.28
302.765	0.18
302.977	0.32
303.19	0.25
303.402	0.24
303.615	0.21
303.827	0.27
304.04	0.27
304.252	0.27
304.464	0.23
304.677	0.43
304.889	0.29
305.102	0.2
305.314	0.21
305.526	0.3
305.739	0.28
305.951	0.21
306.163	0.26
306.375	0.36
306.588	0.24
306.8	0.18
307.012	0.22
307.224	0.26
307.436	0.35
307.649	0.17
307.861	0.26
308.073	0.31
308.285	0.22
308.497	0.21
308.709	0.21
308.921	0.24
309.133	0.33
309.346	0.23
309.558	0.25
309.77	0.29
309.982	0.35
310.194	0.26
310.406	0.22
310.617	0.39
310.829	0.26
311.041	0.25
311.253	0.22
311.465	0.24
311.677	0.28
311.889	0.27
312.101	0.19
312.313	0.29
312.524	0.35
312.736	0.18
312.948	0.24
313.16	0.37
313.372	0.27
313.583	0.33
313.795	0.21
314.007	0.24
314.218	0.3
314.43	0.23
314.642	0.24
314.853	0.2
315.065	0.31
315.277	0.2
315.488	0.3
315.7	0.34
315.912	0.3
316.123	0.24
316.335	0.25
316.546	0.34
316.758	0.26
316.969	0.23
317.181	0.24
317.392	0.27
317.604	0.34
317.815	0.21
318.026	0.19
318.238	0.26
318.449	0.32
318.661	0.14
318.872	0.18
319.083	0.21
319.295	0.34
319.506	0.21
319.717	0.26
319.929	0.32
320.14	0.29
320.351	0.26
320.562	0.21
320.774	0.31
320.985	0.27
321.196	0.2
321.407	0.16
321.618	0.28
321.829	0.26
322.041	0.29
322.252	0.27
322.463	0.29
322.674	0.3
322.885	0.2
323.096	0.23
323.307	0.27
323.518	0.28
323.729	0.22
323.94	0.19
324.151	0.24
324.362	0.34
324.573	0.24
324.784	0.22
324.995	0.32
325.206	0.24
325.417	0.22
325.628	0.23
325.838	0.24
326.049	0.27
326.26	0.25
326.471	0.19
326.682	0.29
326.892	0.24
327.103	0.17
327.314	0.2
327.525	0.32
327.735	0.3
327.946	0.24
328.157	0.17
328.368	0.34
328.578	0.25
328.789	0.27
328.999	0.25
329.21	0.22
329.421	0.34
329.631	0.2
329.842	0.19
330.052	0.24
330.263	0.29
330.473	0.27
330.684	0.26
330.894	0.26
331.105	0.28
331.315	0.3
331.526	0.18
331.736	0.38
331.947	0.28
332.157	0.3
332.367	0.19
332.578	0.3
332.788	0.36
332.999	0.3
333.209	0.24
333.419	0.18
333.629	0.3
333.84	0.24
334.05	0.26
334.26	0.4
334.47	0.3
334.681	0.27
334.891	0.17
335.101	0.32
335.311	0.38
335.521	0.28
335.732	0.18
335.942	0.34
336.152	0.28
336.362	0.25
336.572	0.27
336.782	0.31
336.992	0.25
337.202	0.27
337.412	0.21
337.622	0.33
337.832	0.27
338.042	0.27
338.252	0.2
338.462	0.24
338.672	0.25
338.882	0.22
339.092	0.2
339.302	0.35
339.511	0.29
339.721	0.25
339.931	0.16
340.141	0.29
340.351	0.3
340.561	0.27
340.77	0.27
340.98	0.28
341.19	0.26
341.4	0.24
341.609	0.24
341.819	0.27
342.029	0.24
342.238	0.22
342.448	0.22
342.658	0.29
342.867	0.26
343.077	0.21
343.286	0.25
343.496	0.26
343.706	0.34
343.915	0.22
344.125	0.26
344.334	0.24
344.544	0.23
344.753	0.22
344.963	0.19
345.172	0.21
345.381	0.21
345.591	0.19
345.8	0.23
346.01	0.36
346.219	0.35
346.428	0.15
346.638	0.27
346.847	0.27
347.056	0.34
347.266	0.22
347.475	0.25
347.684	0.33
347.893	0.3
348.103	0.24
348.312	0.21
348.521	0.26
348.73	0.27
348.94	0.24
349.149	0.24
349.358	0.25
349.567	0.22
349.776	0.19
349.985	0.24
350.194	0.29
350.403	0.33
350.612	0.16
350.821	0.22
351.03	0.3
351.239	0.19
351.448	0.22
351.657	0.2
351.866	0.35
352.075	0.29
352.284	0.29
352.493	0.16
352.702	0.3
352.911	0.3
353.12	0.32
353.329	0.27
353.538	0.26
353.746	0.27
353.955	0.2
354.164	0.28
354.373	0.21
354.582	0.3
354.79	0.23
354.999	0.25
355.208	0.19
355.416	0.34
355.625	0.2
355.834	0.23
356.042	0.31
356.251	0.22
356.46	0.2
356.668	0.26
356.877	0.33
357.085	0.27
357.294	0.14
357.503	0.29
357.711	0.26
357.92	0.45
358.128	0.24
358.337	0.22
358.545	0.26
358.754	0.17
358.962	0.24
359.17	0.23
359.379	0.28
359.587	0.26
359.796	0.22
360.004	0.32
360.212	0.28
360.421	0.32
360.629	0.23
360.837	0.24
361.046	0.26
361.254	0.44
361.462	0.24
361.67	0.2
361.879	0.32
362.087	0.31
362.295	0.25
362.503	0.23
362.711	0.18
362.92	0.24
363.128	0.18
363.336	0.21
363.544	0.17
363.752	0.24
363.96	0.22
364.168	0.25
364.376	0.28
364.584	0.25
364.792	0.3
365	0.26
365.208	0.28
365.416	0.31
365.624	0.35
365.832	0.21
366.04	0.31
366.248	0.28
366.456	0.27
366.664	0.28
366.872	0.24
367.079	0.28
367.287	0.25
367.495	0.22
367.703	0.23
367.911	0.2
368.118	0.27
368.326	0.23
368.534	0.19
368.742	0.35
368.949	0.18
369.157	0.23
369.365	0.26
369.572	0.21
369.78	0.2
369.988	0.3
370.195	0.29
370.403	0.3
370.61	0.23
370.818	0.26
371.026	0.32
371.233	0.21
371.441	0.31
371.648	0.23
371.856	0.27
372.063	0.28
372.271	0.22
372.478	0.23
372.685	0.23
372.893	0.35
373.1	0.22
373.308	0.22
373.515	0.39
373.722	0.28
373.93	0.25
374.137	0.29
374.344	0.35
374.552	0.32
374.759	0.32
374.966	0.24
375.173	0.25
375.381	0.26
375.588	0.26
375.795	0.18
376.002	0.27
376.209	0.22
376.417	0.23
376.624	0.32
376.831	0.35
377.038	0.24
377.245	0.18
377.452	0.24
377.659	0.25
377.866	0.23
378.073	0.24
378.28	0.22
378.487	0.36
378.694	0.33
378.901	0.22
379.108	0.26
379.315	0.31
379.522	0.38
379.729	0.29
379.936	0.28
380.143	0.29
380.35	0.29
380.557	0.26
380.763	0.25
380.97	0.26
381.177	0.3
381.384	0.29
381.591	0.18
381.797	0.27
382.004	0.32
382.211	0.25
382.418	0.24
382.624	0.31
382.831	0.33
383.038	0.28
383.244	0.31
383.451	0.22
383.658	0.34
383.864	0.25
384.071	0.17
384.277	0.39
384.484	0.28
384.69	0.32
384.897	0.23
385.103	0.24
385.31	0.2
385.516	0.22
385.723	0.24
385.929	0.28
386.136	0.28
386.342	0.32
386.549	0.17
386.755	0.35
386.961	0.28
387.168	0.22
387.374	0.25
387.58	0.33
387.787	0.28
387.993	0.29
388.199	0.27
388.406	0.26
388.612	0.28
388.818	0.24
389.024	0.25
389.231	0.27
389.437	0.4
389.643	0.33
389.849	0.29
390.055	0.31
390.261	0.28
390.467	0.31
390.674	0.24
390.88	0.28
391.086	0.37
391.292	0.24
391.498	0.32
391.704	0.35
391.91	0.33
392.116	0.27
392.322	0.22
392.528	0.32
392.734	0.27
392.94	0.3
393.146	0.28
393.352	0.31
393.557	0.3
393.763	0.29
393.969	0.35
394.175	0.29
394.381	0.3
394.587	0.28
394.792	0.29
394.998	0.39
395.204	0.38
395.41	0.33
395.615	0.33
395.821	0.33
396.027	0.37
396.233	0.23
396.438	0.38
396.644	0.4
396.85	0.32
397.055	0.34
397.261	0.35
397.466	0.41
397.672	0.37
397.878	0.38
398.083	0.36
398.289	0.3
398.494	0.42
398.7	0.38
398.905	0.26
399.111	0.45
399.316	0.32
399.522	0.34
399.727	0.33
399.932	0.31
400.138	0.33
400.343	0.4
400.549	0.37
400.754	0.34
400.959	0.4
401.165	0.38
401.37	0.37
401.575	0.45
401.78	0.39
401.986	0.38
402.191	0.37
402.396	0.38
402.601	0.39
402.807	0.41
403.012	0.4
403.217	0.45
403.422	0.41
403.627	0.43
403.832	0.34
404.037	0.44
404.243	0.37
404.448	0.37
404.653	0.37
404.858	0.45
405.063	0.47
405.268	0.39
405.473	0.35
405.678	0.38
405.883	0.67
406.088	0.45
406.293	0.39
406.498	0.44
406.703	0.48
406.907	0.49
407.112	0.43
407.317	0.52
407.522	0.61
407.727	0.47
407.932	0.55
408.136	0.68
408.341	0.54
408.546	0.6
408.751	0.54
408.956	0.57
409.16	0.66
409.365	0.62
409.57	0.58
409.774	0.58
409.979	0.71
410.184	0.67
410.388	0.56
410.593	0.73
410.798	0.73
411.002	0.7
411.207	0.8
411.411	0.74
411.616	0.68
411.82	0.79
412.025	0.83
412.229	0.8
412.434	0.99
412.638	0.89
412.843	0.87
413.047	0.95
413.252	0.93
413.456	0.97
413.66	0.99
413.865	0.96
414.069	1.12
414.273	1.06
414.478	1.07
414.682	1.15
414.886	1.11
415.091	1.1
415.295	1.17
415.499	1.38
415.703	1.29
415.908	1.41
416.112	1.32
416.316	1.5
416.52	1.43
416.724	1.51
416.929	1.45
417.133	1.75
417.337	1.63
417.541	1.71
417.745	1.76
417.949	1.85
418.153	1.97
418.357	1.92
418.561	2.18
418.765	2.12
418.969	2.21
419.173	2.31
419.377	2.28
419.581	2.5
419.785	2.4
419.989	2.47
420.193	2.6
420.397	2.68
420.601	2.9
420.804	3.01
421.008	2.94
421.212	3.1
421.416	3.12
421.62	3.01
421.823	3.13
422.027	3.36
422.231	3.28
422.435	3.21
422.638	3.32
422.842	3.45
423.046	3.47
423.249	3.67
423.453	3.64
423.657	3.89
423.86	3.94
424.064	4.04
424.268	4.17
424.471	4.23
424.675	4.42
424.878	4.4
425.082	4.52
425.285	4.94
425.489	4.78
425.692	4.98
425.896	4.91
426.099	5.21
426.303	5.28
426.506	5.27
426.71	5.58
426.913	5.77
427.116	5.95
427.32	6.05
427.523	5.96
427.726	6.4
427.93	6.41
428.133	6.7
428.336	6.84
428.54	6.98
428.743	7.31
428.946	7.46
429.149	7.45
429.353	7.47
429.556	7.6
429.759	7.63
429.962	7.67
430.165	8.01
430.368	7.64
430.571	7.7
430.775	7.67
430.978	7.68
431.181	7.78
431.384	7.86
431.587	7.92
431.79	8.33
431.993	8.35
432.196	8.62
432.399	8.9
432.602	9.09
432.805	9.11
433.008	9.62
433.211	9.53
433.414	9.95
433.616	9.86
433.819	9.96
434.022	10.01
434.225	10.16
434.428	10.29
434.631	10.72
434.833	10.34
435.036	10.74
435.239	10.93
435.442	10.93
435.645	11.09
435.847	11.21
436.05	11.51
436.253	11.8
436.455	11.7
436.658	11.68
436.861	11.9
437.063	12.09
437.266	12.02
437.468	12.4
437.671	12.71
437.874	12.74
438.076	12.53
438.279	13.13
438.481	12.93
438.684	13.71
438.886	13.25
439.089	13.71
439.291	13.67
439.494	14.08
439.696	14.26
439.899	14.68
440.101	15.14
440.303	15.3
440.506	16
440.708	15.57
440.91	15.91
441.113	16.31
441.315	16.46
441.517	16.23
441.72	16.71
441.922	16.34
442.124	16.37
442.326	16.75
442.529	16.76
442.731	16.79
442.933	17.16
443.135	16.92
443.337	16.92
443.539	17.44
443.742	17.11
443.944	17.87
444.146	17.59
444.348	17.59
444.55	17.36
444.752	17.82
444.954	17.61
445.156	17.49
445.358	17.99
445.56	18.33
445.762	18.15
445.964	18.33
446.166	18.17
446.368	18.18
446.57	18.24
446.772	17.95
446.974	17.7
447.175	17.94
447.377	17.73
447.579	18.24
447.781	17.73
447.983	17.67
448.184	17.13
448.386	17.61
448.588	16.99
448.79	17.16
448.991	17.36
449.193	17.45
449.395	16.7
449.597	16.46
449.798	16.39
450	15.9
450.202	15.79
450.403	15.88
450.605	15.77
450.806	15.41
451.008	15.33
451.21	15.19
451.411	14.81
451.613	13.91
451.814	14.18
452.016	14.1
452.217	13.51
452.419	13.45
452.62	13.19
452.821	12.88
453.023	12.81
453.224	12.45
453.426	12.12
453.627	11.43
453.828	11.46
454.03	11.67
454.231	11.54
454.432	11.43
454.634	11.13
454.835	10.72
455.036	10.79
455.238	10.26
455.439	10.13
455.64	9.71
455.841	9.69
456.042	9.83
456.244	9.4
456.445	9.18
456.646	8.83
456.847	8.83
457.048	8.8
457.249	8.78
457.45	8.51
457.651	7.91
457.852	7.95
458.054	7.47
458.255	7.38
458.456	7.54
458.657	7.34
458.858	6.96
459.058	6.91
459.259	6.9
459.46	6.68
459.661	6.57
459.862	6.74
460.063	6.52
460.264	6.38
460.465	6.13
460.666	6.3
460.866	6.03
461.067	5.63
461.268	5.7
461.469	5.68
461.67	5.56
461.87	5.32
462.071	5.35
462.272	5.31
462.473	5.17
462.673	5.4
462.874	5.3
463.075	5.28
463.275	5.23
463.476	5.36
463.676	5.22
463.877	5.01
464.078	5.15
464.278	5.19
464.479	4.97
464.679	4.87
464.88	4.87
465.08	4.85
465.281	4.61
465.481	4.48
465.682	4.36
465.882	4.36
466.083	4.32
466.283	4.12
466.483	4.02
466.684	3.9
466.884	3.76
467.085	3.82
467.285	3.86
467.485	3.76
467.686	3.62
467.886	3.49
468.086	3.46
468.286	3.54
468.487	3.58
468.687	3.35
468.887	3.29
469.087	3.54
469.287	3.39
469.488	3.19
469.688	3.28
469.888	3.34
470.088	3.28
470.288	3.18
470.488	3.17
470.688	2.93
470.888	2.91
471.088	2.75
471.288	2.93
471.488	2.87
471.688	2.87
471.888	2.76
472.088	2.91
472.288	2.81
472.488	2.66
472.688	2.65
472.888	2.72
473.088	2.7
473.288	2.6
473.488	2.54
473.688	2.73
473.887	2.56
474.087	2.45
474.287	2.5
474.487	2.48
474.687	2.55
474.886	2.43
475.086	2.41
475.286	2.37
475.486	2.39
475.685	2.31
475.885	2.29
476.085	2.34
476.284	2.28
476.484	2.36
476.684	2.24
476.883	2.41
477.083	2.29
477.282	2.17
477.482	2.32
477.681	2.19
477.881	2.1
478.08	2.15
478.28	2.12
478.479	2.16
478.679	2.24
478.878	2.08
479.078	2.11
479.277	2.21
479.477	2.12
479.676	2.1
479.875	2.08
480.075	1.99
480.274	2.1
480.473	2.11
480.673	2.1
480.872	2.17
481.071	2.12
481.271	2.1
481.47	2
481.669	2
481.868	2.04
482.067	2.01
482.267	1.96
482.466	1.99
482.665	1.96
482.864	1.98
483.063	1.99
483.262	2.05
483.461	2.1
483.661	2.11
483.86	2.04
484.059	2.12
484.258	2.05
484.457	2.06
484.656	2.05
484.855	2.16
485.054	1.96
485.253	2.01
485.452	2.01
485.651	2.06
485.849	2.08
486.048	2.04
486.247	2.05
486.446	2.13
486.645	2.06
486.844	2.1
487.043	2.06
487.241	2.11
487.44	2.1
487.639	2.2
487.838	2.17
488.037	2.16
488.235	2.25
488.434	2.17
488.633	2.08
488.831	2.23
489.03	2.27
489.229	2.23
489.427	2.23
489.626	2.32
489.825	2.29
490.023	2.34
490.222	2.24
490.42	2.33
490.619	2.38
490.817	2.39
491.016	2.37
491.214	2.45
491.413	2.44
491.611	2.36
491.81	2.46
492.008	2.47
492.207	2.55
492.405	2.55
492.604	2.47
492.802	2.52
493	2.63
493.199	2.65
493.397	2.67
493.595	2.73
493.794	2.66
493.992	2.77
494.19	2.73
494.388	2.84
494.587	2.75
494.785	2.73
494.983	2.71
495.181	2.9
495.379	2.91
495.578	2.97
495.776	2.95
495.974	2.9
496.172	2.93
496.37	3.09
496.568	3.07
496.766	3.06
496.964	3.19
497.162	3.2
497.36	3.21
497.558	3.24
497.756	3.29
497.954	3.29
498.152	3.32
498.35	3.4
498.548	3.37
498.746	3.42
498.944	3.43
499.142	3.41
499.34	3.52
499.538	3.64
499.736	3.5
499.933	3.63
500.131	3.59
500.329	3.73
500.527	3.72
500.725	3.83
500.922	3.85
501.12	3.83
501.318	3.9
501.516	3.91
501.713	4
501.911	3.93
502.109	3.91
502.306	4.06
502.504	3.99
502.701	4.09
502.899	4.16
503.097	4.35
503.294	4.18
503.492	4.3
503.689	4.37
503.887	4.35
504.084	4.43
504.282	4.41
504.479	4.36
504.677	4.55
504.874	4.48
505.072	4.46
505.269	4.65
505.466	4.64
505.664	4.73
505.861	4.56
506.059	4.69
506.256	4.73
506.453	4.8
506.651	4.91
506.848	4.98
507.045	4.89
507.242	4.91
507.44	5.01
507.637	5.08
507.834	5.04
508.031	5.16
508.229	5.13
508.426	5.04
508.623	5.22
508.82	5.22
509.017	5.2
509.214	5.21
509.411	5.37
509.608	5.3
509.805	5.41
510.003	5.39
510.2	5.5
510.397	5.6
510.594	5.47
510.791	5.57
510.988	5.62
511.184	5.52
511.381	5.49
511.578	5.63
511.775	5.78
511.972	5.7
512.169	5.81
512.366	5.72
512.563	5.88
512.76	5.92
512.956	5.92
513.153	5.88
513.35	5.81
513.547	5.86
513.744	5.99
513.94	5.91
514.137	6.07
514.334	6.02
514.53	6.1
514.727	6.31
514.924	6.18
515.12	6.19
515.317	6.17
515.514	6.13
515.71	6.13
515.907	6.39
516.103	6.37
516.3	6.23
516.497	6.47
516.693	6.43
516.89	6.39
517.086	6.42
517.283	6.46
517.479	6.35
517.676	6.53
517.872	6.6
518.068	6.57
518.265	6.56
518.461	6.52
518.658	6.64
518.854	6.67
519.05	6.75
519.247	6.75
519.443	6.72
519.639	6.84
519.836	6.7
520.032	6.65
520.228	6.85
520.424	6.82
520.621	6.9
520.817	6.87
521.013	6.81
521.209	7.04
521.405	6.98
521.601	6.98
521.798	6.9
521.994	6.97
522.19	6.86
522.386	6.96
522.582	7.08
522.778	7.19
522.974	7.05
523.17	7.08
523.366	6.99
523.562	7.1
523.758	7.13
523.954	6.95
524.15	7.15
524.346	7.23
524.542	7.17
524.738	7.15
524.934	7.32
525.129	7.26
525.325	7.13
525.521	7.21
525.717	7.44
525.913	7.23
526.109	7.28
526.304	7.42
526.5	7.4
526.696	7.36
526.892	7.33
527.087	7.56
527.283	7.45
527.479	7.42
527.674	7.29
527.87	7.45
528.066	7.39
528.261	7.46
528.457	7.41
528.653	7.52
528.848	7.55
529.044	7.61
529.239	7.45
529.435	7.5
529.63	7.41
529.826	7.52
530.021	7.51
530.217	7.56
530.412	7.48
530.608	7.57
530.803	7.58
530.999	7.4
531.194	7.59
531.389	7.67
531.585	7.54
531.78	7.65
531.975	7.64
532.171	7.69
532.366	7.67
532.561	7.73
532.757	7.67
532.952	7.83
533.147	7.6
533.342	7.73
533.538	7.62
533.733	7.84
533.928	7.52
534.123	7.72
534.318	7.81
534.513	7.69
534.709	7.85
534.904	7.79
535.099	7.9
535.294	7.84
535.489	7.85
535.684	7.74
535.879	7.8
536.074	7.81
536.269	7.88
536.464	7.87
536.659	7.8
536.854	7.84
537.049	7.89
537.244	7.81
537.439	7.85
537.634	7.81
537.828	7.91
538.023	7.92
538.218	7.87
538.413	7.72
538.608	7.83
538.803	7.88
538.997	7.86
539.192	7.88
539.387	7.83
539.582	7.84
539.776	7.79
539.971	7.99
540.166	7.98
540.36	7.81
540.555	8.02
540.75	7.93
540.944	7.96
541.139	7.94
541.334	7.93
541.528	7.88
541.723	7.99
541.917	8.07
542.112	7.87
542.306	7.8
542.501	7.88
542.695	7.9
542.89	7.89
543.084	7.96
543.279	7.97
543.473	8.01
543.668	7.99
543.862	7.85
544.056	7.9
544.251	7.99
544.445	8.09
544.64	8.05
544.834	7.74
545.028	7.64
545.222	8.03
545.417	8.18
545.611	8.05
545.805	8.01
546	7.83
546.194	8
546.388	7.97
546.582	7.96
546.776	7.96
546.97	8.04
547.165	8.03
547.359	7.97
547.553	7.91
547.747	8.03
547.941	8.21
548.135	7.98
548.329	8.05
548.523	8.05
548.717	7.97
548.911	8.02
549.105	7.92
549.299	8.1
549.493	8.06
549.687	7.95
549.881	8.08
550.075	8.06
550.269	7.97
550.463	8.03
550.657	8.08
550.85	8.05
551.044	7.98
551.238	8.1
551.432	8.02
551.626	8.15
551.82	8.09
552.013	7.93
552.207	8.07
552.401	8.14
552.594	7.99
552.788	7.97
552.982	7.99
553.176	7.98
553.369	8.21
553.563	8.07
553.756	8.04
553.95	8.07
554.144	8.04
554.337	8.07
554.531	7.91
554.724	8.12
554.918	8.13
555.111	8.03
555.305	8.01
555.498	8.06
555.692	8.14
555.885	8.08
556.079	8.01
556.272	8.07
556.466	8.04
556.659	7.98
556.852	8.11
557.046	7.99
557.239	7.87
557.432	8.04
557.626	8.1
557.819	8.16
558.012	8.09
558.206	8.14
558.399	8.11
558.592	8.01
558.785	7.95
558.979	8.03
559.172	8
559.365	8.1
559.558	8.05
559.751	7.97
559.944	8.1
560.138	8.05
560.331	8.11
560.524	8.11
560.717	8.03
560.91	8.08
561.103	8.1
561.296	7.94
561.489	8.07
561.682	8.15
561.875	8.1
562.068	8.22
562.261	7.94
562.454	8.22
562.647	8.03
562.84	8.05
563.032	8.08
563.225	7.99
563.418	8.06
563.611	8.07
563.804	8.03
563.997	7.9
564.19	7.87
564.382	8.06
564.575	8.08
564.768	7.94
564.961	8.11
565.153	7.99
565.346	7.92
565.539	8.13
565.731	8.06
565.924	8.08
566.117	8.18
566.309	8.07
566.502	7.97
566.695	8.04
566.887	8.11
567.08	8.07
567.272	8.06
567.465	7.93
567.657	8.12
567.85	7.92
568.042	8.04
568.235	8.03
568.427	7.92
568.62	8
568.812	8.01
569.005	8.04
569.197	7.91
569.389	8.01
569.582	8
569.774	7.97
569.966	7.89
570.159	7.87
570.351	7.9
570.543	7.96
570.736	8.02
570.928	7.83
571.12	8.01
571.312	7.89
571.505	7.68
571.697	8
571.889	7.97
572.081	8.01
572.273	7.9
572.465	7.95
572.658	7.94
572.85	7.99
573.042	7.99
573.234	7.87
573.426	7.9
573.618	7.86
573.81	7.92
574.002	7.94
574.194	7.94
574.386	7.8
574.578	7.77
574.77	7.82
574.962	7.96
575.154	7.76
575.346	7.83
575.538	7.82
575.729	7.72
575.921	7.94
576.113	7.88
576.305	7.89
576.497	7.98
576.689	7.7
576.88	7.69
577.072	7.9
577.264	7.84
577.456	7.81
577.647	7.79
577.839	7.92
578.031	7.79
578.223	7.73
578.414	7.65
578.606	7.8
578.798	7.83
578.989	7.77
579.181	7.81
579.372	7.78
579.564	7.77
579.755	7.73
579.947	7.66
580.139	7.71
580.33	7.62
580.522	7.73
580.713	7.63
580.905	7.65
581.096	7.78
581.287	7.67
581.479	7.63
581.67	7.77
581.862	7.69
582.053	7.62
582.244	7.46
582.436	7.74
582.627	7.61
582.818	7.54
583.01	7.55
583.201	7.63
583.392	7.55
583.583	7.52
583.775	7.41
583.966	7.54
584.157	7.59
584.348	7.65
584.54	7.52
584.731	7.59
584.922	7.5
585.113	7.41
585.304	7.55
585.495	7.54
585.686	7.57
585.877	7.51
586.068	7.58
586.259	7.54
586.45	7.48
586.641	7.46
586.832	7.5
587.023	7.46
587.214	7.42
587.405	7.47
587.596	7.33
587.787	7.38
587.978	7.38
588.169	7.32
588.36	7.28
588.551	7.29
588.742	7.33
588.932	7.45
589.123	7.16
589.314	7.42
589.505	7.34
589.696	7.31
589.886	7.27
590.077	7.37
590.268	7.22
590.458	7.22
590.649	7.06
590.84	7.2
591.03	7.13
591.221	7.2
591.412	7.01
591.602	7.29
591.793	7.17
591.984	7.22
592.174	7.14
592.365	7.3
592.555	7.04
592.746	7.07
592.936	7.03
593.127	7.09
593.317	7.1
593.508	7.08
593.698	7.03
593.889	7.07
594.079	6.97
594.269	6.96
594.46	6.96
594.65	7
594.84	7.03
595.031	6.89
595.221	6.93
595.411	6.94
595.602	7.03
595.792	6.89
595.982	6.82
596.172	7
596.363	6.87
596.553	6.83
596.743	6.95
596.933	6.84
597.123	6.86
597.314	6.7
597.504	6.72
597.694	6.85
597.884	6.71
598.074	6.79
598.264	6.81
598.454	6.76
598.644	6.65
598.834	6.7
599.024	6.64
599.214	6.67
599.404	6.7
599.594	6.67
599.784	6.59
599.974	6.68
600.164	6.62
600.354	6.56
600.544	6.48
600.734	6.6
600.924	6.53
601.114	6.39
601.303	6.48
601.493	6.53
601.683	6.51
601.873	6.4
602.063	6.44
602.252	6.48
602.442	6.41
602.632	6.33
602.821	6.28
603.011	6.46
603.201	6.35
603.39	6.27
603.58	6.25
603.77	6.34
603.959	6.37
604.149	6.26
604.339	6.26
604.528	6.31
604.718	6.29
604.907	6.2
605.097	6.19
605.286	6.22
605.476	6.15
605.665	6.23
605.855	6.14
606.044	6.23
606.234	6.12
606.423	6.1
606.612	6.12
606.802	6.1
606.991	6.09
607.181	6.12
607.37	6.15
607.559	5.87
607.749	6.03
607.938	5.96
608.127	5.95
608.316	6
608.506	5.97
608.695	6
608.884	5.9
609.073	6
609.263	6.07
609.452	5.9
609.641	5.83
609.83	5.78
610.019	5.96
610.208	5.77
610.397	5.77
610.586	5.88
610.775	5.77
610.965	5.74
611.154	5.58
611.343	5.72
611.532	5.61
611.721	5.79
611.91	5.65
612.099	5.63
612.287	5.56
612.476	5.56
612.665	5.71
612.854	5.53
613.043	5.6
613.232	5.61
613.421	5.48
613.61	5.54
613.798	5.45
613.987	5.51
614.176	5.48
614.365	5.52
614.554	5.44
614.742	5.46
614.931	5.31
615.12	5.53
615.309	5.41
615.497	5.34
615.686	5.26
615.875	5.35
616.063	5.37
616.252	5.25
616.44	5.31
616.629	5.25
616.818	5.26
617.006	5.17
617.195	5.17
617.383	5.21
617.572	5.17
617.76	5.15
617.949	5.13
618.137	5.2
618.326	5.2
618.514	4.99
618.703	4.98
618.891	5.14
619.079	5.01
619.268	5.12
619.456	4.99
619.644	5.1
619.833	4.96
620.021	4.94
620.209	4.84
620.398	4.98
620.586	4.86
620.774	4.92
620.962	4.9
621.151	5.04
621.339	4.84
621.527	4.74
621.715	4.79
621.903	4.82
622.092	4.69
622.28	4.83
622.468	4.68
622.656	4.73
622.844	4.75
623.032	4.8
623.22	4.63
623.408	4.76
623.596	4.69
623.784	4.76
623.972	4.58
624.16	4.58
624.348	4.66
624.536	4.64
624.724	4.51
624.912	4.6
625.1	4.61
625.288	4.57
625.476	4.49
625.664	4.52
625.851	4.47
626.039	4.51
626.227	4.41
626.415	4.47
626.603	4.33
626.79	4.45
626.978	4.41
627.166	4.5
627.354	4.36
627.541	4.34
627.729	4.26
627.917	4.38
628.104	4.36
628.292	4.28
628.48	4.35
628.667	4.25
628.855	4.3
629.042	4.25
629.23	4.2
629.418	4.23
629.605	4.19
629.793	4.05
629.98	4.12
630.168	4.12
630.355	4.16
630.543	4.08
630.73	4.1
630.917	4.1
631.105	4.22
631.292	4.09
631.48	4.01
631.667	4.14
631.854	4
632.042	4.02
632.229	3.97
632.416	3.96
632.604	3.99
632.791	3.81
632.978	3.95
633.165	3.95
633.353	3.97
633.54	3.96
633.727	3.77
633.914	3.8
634.101	3.79
634.289	3.85
634.476	3.76
634.663	3.7
634.85	3.81
635.037	3.73
635.224	3.66
635.411	3.8
635.598	3.67
635.785	3.64
635.972	3.64
636.159	3.65
636.346	3.65
636.533	3.64
636.72	3.64
636.907	3.61
637.094	3.55
637.281	3.44
637.468	3.53
637.655	3.56
637.842	3.57
638.029	3.5
638.215	3.55
638.402	3.53
638.589	3.39
638.776	3.41
638.963	3.41
639.149	3.53
639.336	3.5
639.523	3.37
639.709	3.4
639.896	3.37
640.083	3.38
640.27	3.46
640.456	3.27
640.643	3.34
640.829	3.23
641.016	3.26
641.203	3.17
641.389	3.33
641.576	3.27
641.762	3.22
641.949	3.2
642.135	3.28
642.322	3.21
642.508	3.12
642.695	3.16
642.881	3.1
643.068	3.11
643.254	3.13
643.441	3.16
643.627	3.17
643.813	3.05
644	3.11
644.186	2.99
644.372	3.07
644.559	3.07
644.745	2.98
644.931	2.95
645.118	3.04
645.304	2.99
645.49	2.95
645.676	2.96
645.862	2.98
646.049	3.04
646.235	2.94
646.421	3.04
646.607	3.02
646.793	2.84
646.979	2.86
647.165	2.86
647.352	2.86
647.538	2.9
647.724	2.83
647.91	2.77
648.096	2.91
648.282	2.85
648.468	2.77
648.654	2.8
648.84	2.77
649.026	2.77
649.212	2.67
649.397	2.69
649.583	2.68
649.769	2.72
649.955	2.71
650.141	2.74
650.327	2.71
650.513	2.59
650.698	2.64
650.884	2.51
651.07	2.66
651.256	2.57
651.442	2.56
651.627	2.54
651.813	2.61
651.999	2.54
652.184	2.53
652.37	2.52
652.556	2.54
652.741	2.57
652.927	2.37
653.113	2.5
653.298	2.44
653.484	2.46
653.669	2.38
653.855	2.44
654.04	2.45
654.226	2.45
654.412	2.37
654.597	2.31
654.782	2.43
654.968	2.4
655.153	2.37
655.339	2.35
655.524	2.32
655.71	2.41
655.895	2.35
656.08	2.37
656.266	2.35
656.451	2.35
656.636	2.22
656.822	2.27
657.007	2.27
657.192	2.26
657.378	2.17
657.563	2.27
657.748	2.28
657.933	2.3
658.118	2.17
658.304	2.24
658.489	2.24
658.674	2.2
658.859	2.17
659.044	2.13
659.229	2.21
659.414	2.15
659.599	2.11
659.785	2.04
659.97	2.13
660.155	2.14
660.34	2.1
660.525	2.04
660.71	2.03
660.895	2.12
661.08	2.03
661.264	2.03
661.449	2.15
661.634	2.1
661.819	2.03
662.004	2.01
662.189	1.97
662.374	2.03
662.559	1.94
662.743	1.89
662.928	1.96
663.113	1.9
663.298	1.91
663.483	1.92
663.667	1.96
663.852	1.89
664.037	1.96
664.221	1.86
664.406	1.96
664.591	1.92
664.775	1.92
664.96	1.85
665.145	1.88
665.329	1.96
665.514	1.87
665.698	1.77
665.883	1.78
666.068	1.87
666.252	1.85
666.437	1.76
666.621	1.81
666.806	1.84
666.99	1.79
667.174	1.75
667.359	1.83
667.543	1.76
667.728	1.77
667.912	1.66
668.096	1.77
668.281	1.7
668.465	1.78
668.649	1.69
668.834	1.65
669.018	1.7
669.202	1.72
669.387	1.66
669.571	1.76
669.755	1.65
669.939	1.61
670.124	1.62
670.308	1.71
670.492	1.65
670.676	1.61
670.86	1.62
671.044	1.58
671.228	1.67
671.413	1.58
671.597	1.56
671.781	1.55
671.965	1.56
672.149	1.58
672.333	1.56
672.517	1.52
672.701	1.64
672.885	1.56
673.069	1.49
673.253	1.63
673.437	1.51
673.621	1.46
673.804	1.54
673.988	1.5
674.172	1.47
674.356	1.37
674.54	1.52
674.724	1.65
674.908	1.5
675.091	1.5
675.275	1.47
675.459	1.5
675.643	1.46
675.826	1.48
676.01	1.42
676.194	1.43
676.377	1.53
676.561	1.41
676.745	1.42
676.928	1.46
677.112	1.54
677.296	1.39
677.479	1.36
677.663	1.35
677.846	1.44
678.03	1.4
678.213	1.29
678.397	1.42
678.58	1.38
678.764	1.33
678.947	1.32
679.131	1.34
679.314	1.38
679.498	1.32
679.681	1.35
679.865	1.43
680.048	1.32
680.231	1.27
680.415	1.27
680.598	1.3
680.781	1.26
680.965	1.3
681.148	1.28
681.331	1.3
681.514	1.34
681.698	1.18
681.881	1.33
682.064	1.3
682.247	1.31
682.43	1.12
682.614	1.24
682.797	1.31
682.98	1.24
683.163	1.15
683.346	1.21
683.529	1.22
683.712	1.15
683.895	1.19
684.078	1.1
684.261	1.19
684.444	1.18
684.627	1.23
684.81	1.18
684.993	1.14
685.176	1.2
685.359	1.17
685.542	1.15
685.725	1.23
685.908	1.12
686.091	1.14
686.274	1.16
686.457	1.18
686.639	1.15
686.822	1.15
687.005	1.11
687.188	1.17
687.371	1.26
687.553	1.18
687.736	1.15
687.919	1.3
688.102	1.17
688.284	1.05
688.467	0.98
688.65	1.07
688.832	1.02
689.015	1.09
689.197	0.93
689.38	1.16
689.563	1.16
689.745	1
689.928	0.99
690.11	1.01
690.293	1.04
690.475	0.98
690.658	1.03
690.84	1.02
691.023	1.01
691.205	0.99
691.388	1.03
691.57	1.03
691.752	1.05
691.935	0.91
692.117	0.9
692.3	1.02
692.482	1.05
692.664	0.94
692.847	0.92
693.029	1.07
693.211	1.01
693.393	0.92
693.576	0.83
693.758	1.01
693.94	0.93
694.122	0.94
694.304	0.9
694.487	0.9
694.669	1.04
694.851	0.84
695.033	0.88
695.215	0.89
695.397	0.92
695.579	0.89
695.761	0.86
695.943	0.86
696.125	1.03
696.308	0.94
696.49	0.75
696.671	1.11
696.853	0.91
697.035	1.17
697.217	0.89
697.399	0.99
697.581	0.85
697.763	0.87
697.945	0.84
698.127	0.84
698.309	0.97
698.491	0.91
698.672	0.91
698.854	1
699.036	0.89
699.218	0.87
699.399	0.88
699.581	0.91
699.763	0.84
699.945	0.83
700.126	0.74
700.308	0.84
700.49	0.81
700.671	0.76
700.853	0.72
701.035	0.78
701.216	0.83
701.398	0.7
701.579	0.74
701.761	0.83
701.943	0.77
702.124	0.77
702.306	0.79
702.487	1.01
702.669	0.81
702.85	0.82
703.031	0.73
703.213	0.87
703.394	0.84
703.576	0.69
703.757	0.92
703.938	0.85
704.12	0.99
704.301	0.8
704.483	0.76
704.664	0.78
704.845	0.81
705.026	0.83
705.208	0.71
705.389	0.76
705.57	0.76
705.751	0.76
705.933	0.73
706.114	0.86
706.295	0.74
706.476	0.61
706.657	0.81
706.838	0.83
707.02	0.82
707.201	0.66
707.382	0.69
707.563	0.77
707.744	0.7
707.925	0.61
708.106	0.65
708.287	0.74
708.468	0.87
708.649	0.73
708.83	0.73
709.011	0.65
709.192	0.76
709.373	0.67
709.554	0.65
709.734	0.84
709.915	0.69
710.096	0.68
710.277	0.56
710.458	0.69
710.639	0.69
710.819	0.6
711	0.59
711.181	0.77
711.362	0.67
711.542	0.7
711.723	0.64
711.904	0.76
712.085	0.76
712.265	0.69
712.446	0.55
712.627	0.66
712.807	0.6
712.988	0.64
713.168	0.48
713.349	0.67
713.53	0.53
713.71	0.54
713.891	0.55
714.071	0.59
714.252	0.58
714.432	0.6
714.613	0.49
714.793	0.62
714.974	0.73
715.154	0.72
715.334	0.66
715.515	0.68
715.695	0.58
715.876	0.63
716.056	0.55
716.236	0.53
716.417	0.65
716.597	0.52
716.777	0.82
716.957	0.71
717.138	0.58
717.318	0.6
717.498	0.52
717.678	0.64
717.859	0.6
718.039	0.48
718.219	0.56
718.399	0.52
718.579	0.5
718.759	0.52
718.939	0.67
719.12	0.55
719.3	0.57
719.48	0.4
719.66	0.4
719.84	0.68
720.02	0.62
720.2	0.47
720.38	0.59
720.56	0.73
720.74	0.46
720.92	0.57
721.1	0.75
721.279	0.68
721.459	0.6
721.639	0.39
721.819	0.52
721.999	0.54
722.179	0.59
722.359	0.47
722.538	0.51
722.718	0.55
722.898	0.47
723.078	0.52
723.257	0.45
723.437	0.63
723.617	0.56
723.797	0.53
723.976	0.48
724.156	0.72
724.336	0.75
724.515	0.69
724.695	0.35
724.874	0.48
725.054	0.56
725.234	0.47
725.413	0.46
725.593	0.53
725.772	0.51
725.952	0.5
726.131	0.53
726.311	0.57
726.49	0.56
726.67	0.34
726.849	0.42
727.028	0.58
727.208	0.55
727.387	0.45
727.567	0.45
727.746	0.44
727.925	0.56
728.105	0.45
728.284	0.5
728.463	0.42
728.643	0.54
728.822	0.41
729.001	0.45
729.18	0.48
729.359	0.65
729.539	0.47
729.718	0.56
729.897	0.62
730.076	0.49
730.255	0.35
730.434	0.45
730.614	0.55
730.793	0.65
730.972	0.45
731.151	0.49
731.33	0.56
731.509	0.54
731.688	0.44
731.867	0.54
732.046	0.36
732.225	0.78
732.404	0.43
732.583	0.41
732.762	0.53
732.941	0.55
733.12	0.51
733.298	0.38
733.477	0.68
733.656	0.48
733.835	0.39
734.014	0.66
734.193	0.41
734.371	0.54
734.55	0.55
734.729	0.31
734.908	0.59
735.086	0.41
735.265	0.59
735.444	0.27
735.623	0.4
735.801	0.39
735.98	0.48
736.159	0.44
736.337	0.49
736.516	0.6
736.694	0.59
736.873	0.4
737.052	0.83
737.23	0.56
737.409	0.42
737.587	0.82
737.766	0.37
737.944	0.49
738.123	0.54
738.301	0.59
738.479	0.45
738.658	0.48
738.836	0.32
739.015	0.54
739.193	0.63
739.371	0.33
739.55	0.51
739.728	0.35
739.906	0.63
740.085	0.67
740.263	0.6
740.441	0.32
740.62	0.66
740.798	0.58
740.976	0.37
741.154	0.37
741.332	0.7
741.511	0.37
741.689	0.5
741.867	0.49
742.045	0.55
742.223	0.5
742.401	0.32
742.579	0.46
742.757	0.59
742.935	0.34
743.114	0.51
743.292	0.38
743.47	0.47
743.648	0.51
743.826	0.48
744.004	0.48
744.181	0.52
744.359	0.35
744.537	0.59
744.715	0.34
744.893	0.55
745.071	0.43
745.249	0.39
745.427	0.4
745.605	0.55
745.782	0.48
745.96	0.44
746.138	0.57
746.316	0.59
746.493	0.42
746.671	0.35
746.849	0.29
747.027	0.56
747.204	0.34
747.382	0.47
747.56	0.35
747.737	0.52
747.915	0.36
748.093	0.44
748.27	0.22
748.448	0.39
748.625	0.32
748.803	0.43
748.98	0.43
749.158	0.58
749.335	0.44
749.513	0.39
749.69	0.33
749.868	0.42
750.045	0.43
750.223	0.24
750.4	0.07
750.578	0.59
750.755	0.44
750.932	0.23
751.11	0.56
751.287	0.27
751.464	0.51
751.642	0.36
751.819	0.47
751.996	0.44
752.173	0.4
752.351	0.22
752.528	0.32
752.705	0.43
752.882	0.29
753.06	0.46
753.237	0.44
753.414	0.62
753.591	0.66
753.768	0.49
753.945	0.35
754.122	0.45
754.299	0.54
754.476	0.39
754.654	0.42
754.831	0.54
755.008	0.5
755.185	0.31
755.362	0.25
755.539	0.54
755.716	0.35
755.892	0.3
756.069	0.35
756.246	0.41
756.423	0.39
756.6	0.56
756.777	0.23
756.954	0.62
757.131	0.38
757.307	0.26
757.484	0.15
757.661	0.48
757.838	0.49
758.015	0.25
758.191	0.39
758.368	0.39
758.545	0.59
758.721	0.48
758.898	0.29
759.075	0.43
759.251	0.48
759.428	0.41
759.605	0.25
759.781	0.31
759.958	0.54
760.134	0.27
760.311	0.32
760.488	0.61
760.664	0.55
760.841	0.4
761.017	0.3
761.194	0.49
761.37	0.53
761.547	0.36
761.723	0.26
761.899	0.59
762.076	0.28
762.252	0.24
762.429	0.31
762.605	0.53
762.781	0.28
762.958	0.4
763.134	0.27
763.31	0.27
763.486	0.49
763.663	0.09
763.839	0.45
764.015	0.13
764.191	0.24
764.368	0.33
764.544	0.35
764.72	0.32
764.896	0.51
765.072	0.3
765.248	0.41
765.425	0.24
765.601	0.46
765.777	0.3
765.953	0.12
766.129	0.24
766.305	0.17
766.481	0.5
766.657	0.39
766.833	0.58
767.009	0.3
767.185	0.35
767.361	0.4
767.537	0.33
767.713	0.64
767.889	0.41
768.065	0.35
768.24	0.47
768.416	0.59
768.592	0.41
768.768	0.32
768.944	0.38
769.12	0.38
769.295	0.35
769.471	0.29
769.647	0.4
769.823	0.56
769.998	0.31
770.174	0.3
770.35	0.87
770.525	0.64
770.701	0.31
770.877	0.42
771.052	0.24
771.228	0.45
771.403	0.35
771.579	0.39
771.755	0.69
771.93	0.29
772.106	0.16
772.281	-0.08
772.457	0.41
772.632	0.42
772.808	0.19
772.983	0.3
773.159	0.25
773.334	0.67
773.509	0.4
773.685	0.16
773.86	0.92
774.036	0.59
774.211	0.38
774.386	0.26
774.562	0.39
774.737	0.51
774.912	0.17
775.087	0.51
775.263	0.38
775.438	0.38
775.613	0.39
775.788	0.35
775.964	0.52
776.139	0.88
776.314	0.01
776.489	0.48
776.664	0.4
776.839	0.21
777.014	0.52
777.19	0.69
777.365	0.66
777.54	0.62
777.715	0.29
777.89	0.48
778.065	0.24
778.24	0.38
778.415	0.57
778.59	0.15
778.765	0.41
778.94	0.59
779.115	0.33
779.289	0.31
779.464	0.38
779.639	0.19
779.814	0.15
779.989	0.12
780.164	0.8
780.339	0.51
780.513	0.29
780.688	0.18
780.863	0.48
781.038	0.67
781.212	0.26
781.387	0.35
781.562	0.75
781.737	0.3
781.911	0.59
782.086	0.23
782.261	0.43
782.435	0.64
782.61	0.27
782.784	0.38
782.959	0.63
783.134	0.26
783.308	0.36
783.483	0.25
783.657	0.96
783.832	0.75
784.006	0.25
784.181	0.56
784.355	0.43
784.53	0.27
784.704	0.31
784.878	0.78
785.053	0.58
785.227	0.91
785.402	0.9
785.576	0.16
785.75	0.45
785.925	0.5
786.099	0.54
786.273	0.53
786.448	0.54
786.622	0.86
786.796	0.15
786.97	0.33
787.145	1.04
787.319	0.16
787.493	0.14
787.667	0.03
787.841	0.6
788.015	0.71
788.19	0.29
788.364	0.36
788.538	0.76
788.712	0.71
788.886	0.31
789.06	0.66
789.234	0.79
789.408	0.05
789.582	0.26
789.756	0.25
789.93	0.43
790.104	0.34
790.278	0.51
790.452	0.18
790.626	0.49
790.8	0.25
790.973	0.68
791.147	0.83
791.321	0.7
791.495	0.77
791.669	0.57
791.843	0.6
792.016	0.56
792.19	1.12
792.364	0.35
792.538	1.06
792.711	0.85
792.885	0.33
793.059	0.06
793.233	-0.24
793.406	0.88
793.58	0.54
793.754	0.67
793.927	0.37
794.101	0.59
794.274	0.65
794.448	0.76
794.622	0.02
794.795	0.94
794.969	0.58
795.142	0.75
795.316	0.28
795.489	0.15
795.663	1.11
795.836	0.41
796.009	0.17
796.183	0.88
796.356	0.75
796.53	0.42
796.703	0.25
796.876	1.04
797.05	0.25
797.223	0.29
797.396	0.61
797.57	0.63
797.743	1.01
797.916	0.5
798.09	0.49
798.263	0.75
798.436	0.67
798.609	0.24
798.782	0.51
798.956	0.68
799.129	0.47
799.302	0.29
799.475	0.31
799.648	0.31
799.821	-0.03
799.994	0.28
800.167	-0.09
800.34	0.31
800.514	0.76
800.687	0.18
800.86	0.3
801.033	0.75
801.206	0.95
801.379	0.1
801.551	0.87
801.724	0.74
801.897	0.97
802.07	0.87
802.243	0.17
802.416	0.6
802.589	0.49
802.762	0.54
802.935	0.66
803.107	1.05
803.28	0.98
803.453	0.66
803.626	0.23
803.798	0.43
803.971	0.07
804.144	0.72
804.317	0.64
804.489	0.76
804.662	0.7
804.835	0.5
805.007	0.26
805.18	1.14
805.353	0.63
805.525	0.26
805.698	0.43
805.87	0.77
806.043	0.99
806.215	0.28
806.388	0.5
806.56	0.62
806.733	0.9
806.905	0.56
807.078	0.24
807.25	0.37
807.423	0.73
807.595	0.52
807.768	0.45
807.94	0.72
808.112	0.86
808.285	0.49
808.457	0.31
808.629	0.66
808.802	0.94
808.974	0.56
809.146	0.11
809.318	0.59
809.491	0.66
809.663	0.67
809.835	0.25
810.007	0.96
810.18	0.66
810.352	0.04
810.524	0.51
810.696	0.98
810.868	1.29
811.04	0.21
811.212	0.9
811.384	1.04
811.556	1.04
811.728	0.5
811.901	1.25
812.073	0.94
812.245	0.99
812.417	0.36
812.589	0.16
812.76	0.75
812.932	0.87
813.104	0.85
813.276	0.22
813.448	1.22
813.62	0.73
813.792	0.96
813.964	0.56
814.136	0.89
814.307	0.25
814.479	0.47
814.651	0.25
814.823	1.94
814.995	0.52
815.166	0.92
815.338	0.29
815.51	0.22
815.681	1.81
815.853	1.07
816.025	0.44
816.196	1.94
816.368	1.28
816.54	0.2
816.711	0.36
816.883	0.93
817.054	1.82
817.226	-0.64
817.398	0.87
817.569	0.94
817.741	1.18
817.912	0.38
818.084	0.32
818.255	1.28
818.426	0.42
818.598	0.83
818.769	0.16
818.941	0.87
819.112	1.36
819.283	0.91
819.455	-0.13
819.626	0.82
819.798	1.07
819.969	0.88
820.14	0.46
820.311	0.78
820.483	1.06
820.654	0.89
820.825	0.66
820.996	0.47
821.168	0.21
821.339	0.41
821.51	0.16
821.681	0.44
821.852	1.15
822.023	0.21
822.195	0.44
822.366	1.2
822.537	0.71
822.708	0.6
822.879	0.25
823.05	1.41
823.221	0.54
823.392	1.21
823.563	0.8
823.734	0.91
823.905	1.02
824.076	0.39
824.247	0.07
824.418	0.96
824.589	1.52
824.759	0.87
824.93	0.55
825.101	0.27
825.272	1.46
825.443	0.91
825.614	1.25
825.784	-0.26
825.955	2.77
826.126	1.75
826.297	0.39
826.467	1.64
826.638	2.27
826.809	0.25
826.98	0.38
827.15	1.75
827.321	1.52
827.492	1.08
827.662	1
827.833	2.13
828.003	1.6
828.174	-0.03
828.345	0.26
828.515	1.56
828.686	1.1
828.856	1.02
829.027	0.79
829.197	1.74
829.368	1.53
829.538	0.61
829.709	0.33
829.879	1.23
830.049	1.27
830.22	0.73
830.39	0.97
830.56	1.51
830.731	0.77
830.901	0.2
831.072	0.89
831.242	1.48
831.412	1.53
831.582	0.84
831.753	-0.19
831.923	1.9
832.093	1.52
832.263	1.08
832.434	0.34
832.604	0.31
832.774	1.52
832.944	0.43
833.114	0.73
833.284	0.93
833.454	0.56
833.624	0.6
833.795	0.65
833.965	1.47
834.135	2.6
834.305	-0.49
834.475	0.18
834.645	0.91
834.815	1.12
834.985	0.21
835.155	0.09
835.325	1.55
835.494	1.51
835.664	0.07
835.834	0.09
836.004	1.1
836.174	1.72
836.344	0.19
836.514	0.3
836.684	1.08
836.853	1.04
837.023	1.38
837.193	-0.39
837.363	1.25
837.532	1.56
837.702	0.67
837.872	0.62
838.041	1.57
838.211	2.41
838.381	-0.36
838.55	0.72
838.72	3.75
838.89	3.06
839.059	0.8
839.229	-0.01
839.398	2.57
839.568	1.45
839.738	0.75
839.907	2.46
840.077	1.46
840.246	0.67
840.416	0.25
840.585	0.04
840.755	2.44
840.924	2.21
841.093	0.31
841.263	0.91
841.432	0.87
841.602	0.37
841.771	0.33
841.94	1.24
842.11	3.29
842.279	2.95
842.448	0.56
842.617	0.31
842.787	3.15
842.956	0.17
843.125	0.05
843.294	0.82
843.464	2.49
843.633	1.37
843.802	0.31
843.971	0.92
844.14	2.51
844.309	1.94
844.479	-0.9
844.648	-0.04
844.817	0.96
844.986	1.54
845.155	0.31
845.324	-0.02
845.493	1.54
845.662	1.15
845.831	1.63
846	1.59
846.169	1.21
846.338	2.19
846.507	1.39
846.676	1.55
846.844	0.88
847.013	1.82
847.182	1.34
847.351	-0.01
847.52	1.02
847.689	2.07
847.858	0.85
848.026	0.16
848.195	1.05
848.364	0.61
848.533	0.14
848.701	1
848.87	1.16
849.039	2.79
849.207	1.77
849.376	2.3
849.545	3.35
849.713	1.03
849.882	0.53
850.051	-0.12
850.219	1.65
850.388	2.73
850.556	0.93
850.725	0.34
850.893	1.18
851.062	0.99
851.23	1.99
851.399	0.1
851.567	1.1
851.736	1.03
851.904	-0.03
852.073	1.4
852.241	1.7
852.41	2.12
852.578	1.24
852.746	1.05
852.915	2.63
853.083	1.67
853.251	-0.45
853.42	0.41
853.588	0.88
853.756	2.92
853.924	0.81
854.093	1.91
854.261	1.31
854.429	0.01
854.597	1.53
854.765	-0.43
854.934	3.27
855.102	3.36
855.27	2.08
855.438	2.18
855.606	2.78
855.774	3.35
855.942	-0.46
856.11	-0.27
856.278	2.08
856.446	2.39
856.614	1.7
856.782	0.37
856.95	2.83
857.118	2.28
857.286	1.92
857.454	0.4
857.622	3.19
857.79	2.83
857.958	0.55
858.126	1.18
858.294	-1.36
858.462	1.38
858.629	0.05
858.797	0.59
858.965	2.81
859.133	1.02
859.301	1.56
859.468	1.82
859.636	1.14
859.804	3.4
859.971	2.8
860.139	1.36
860.307	2.93
860.474	1.66
860.642	-0.17
860.81	1.19
860.977	0.16
861.145	4.21
861.313	1.01
861.48	1.82
861.648	2.7
861.815	2.02
861.983	-0.15
862.15	0.43
862.318	2.37
862.485	3.88
862.653	-0.62
862.82	1.13
862.988	4.04
863.155	3.13
863.322	0.5
863.49	-0.27
863.657	2.06
863.824	4.15
863.992	2.15
864.159	2.06
864.326	4.36
864.494	1.35
864.661	4.27
864.828	-0.7
864.996	4.46
865.163	4.14
865.33	0.4
865.497	-1.92
865.664	1.25
865.832	-0.33
865.999	2.1
866.166	0.62
866.333	2.65
866.5	0.96
866.667	0.69
866.834	2.28
867.001	4.53
867.168	-0.08
867.335	2.37
867.502	-1.25
867.669	1.32
867.836	5.38
868.003	0.68
868.17	3.14
868.337	1.54
868.504	6.5
868.671	-1.73
868.838	1.5
869.005	3.29
869.172	3.71
869.339	1.57
869.505	-0.06
869.672	1.85
869.839	4.09
870.006	2.33
870.173	0.71
870.339	2.38
870.506	5.6
870.673	-0.71
870.84	2.9
871.006	2.36
871.173	1.8
871.34	2.83
871.506	0.93
871.673	3.17
871.839	0.83
872.006	1.13
872.173	0.11
872.339	2.7
872.506	3.18
872.672	1.36
872.839	-0.28
873.005	1.75
873.172	6.53
873.338	3.23
873.505	0.85
873.671	3.15
873.838	2.73
874.004	-0.85
874.171	1.88
874.337	3.06
874.503	4.43
874.67	1.22
874.836	0.43
875.002	5.01
875.169	4.2
875.335	2.74
875.501	1.87
875.668	3.8
875.834	1.65
876	0.46
876.166	2.61
876.332	5.13
876.499	6.78
876.665	0.98
876.831	0.75
876.997	6.19
877.163	3.43
877.329	0.84
877.495	1.13
877.662	3.81
877.828	2.75
877.994	2.37
878.16	-1.05
878.326	2.73
878.492	4.13
878.658	0.91
878.824	2.04
878.99	3.22
879.156	2.35
879.322	4.31
879.487	-0.21
879.653	2.24
879.819	2.18
879.985	0.33
880.151	2.7
880.317	3.27
880.483	3.32
880.648	3.57
880.814	0.45
880.98	1.91
881.146	-0.17
881.312	0.26
881.477	1.33
881.643	2.71
881.809	4.18
881.974	4.76
882.14	-1.94
882.306	2.5
882.471	5.56
882.637	1.07
882.803	2.77
882.968	6.39
883.134	5.55
883.299	1.29
883.465	1.81
883.63	3.58
883.796	3.8
883.961	4.65
884.127	2.47
884.292	-3.77
884.458	-0.22
884.623	-0.22
