Data from Apollo_Calib_20240827__AbsoluteIrradiance__794__12-23-00-551.txt Node

Date: Wed Aug 28 12:23:00 BST 2024
User: biology
Spectrometer: FLMT08252
Trigger mode: 0
Integration Time (sec): 5.000000E-1
Scans to average: 5
Electric dark correction enabled: true
Nonlinearity correction enabled: false
Boxcar width: 0
XAxis mode: Wavelengths
Number of Pixels in Spectrum: 3648
>>>>>Begin Spectral Data<<<<<
179.588	-0
179.809	-0
180.03	-0
180.251	-0
180.473	-0
180.694	0
180.915	0
181.136	-0
181.357	0
181.578	-0
181.799	-0
182.02	-0
182.241	0
182.462	-0
182.683	0
182.904	-0
183.125	-0
183.346	0
183.567	0
183.788	0
184.009	0
184.23	0
184.451	0
184.672	0
184.892	0
185.113	0
185.334	0
185.555	0
185.776	0
185.996	0
186.217	0
186.438	0
186.659	0
186.879	0
187.1	0
187.321	0
187.541	0
187.762	0
187.983	0
188.203	0
188.424	0
188.644	0
188.865	0
189.086	0
189.306	0
189.527	0
189.747	0
189.968	0
190.188	0
190.409	0
190.629	0
190.849	0
191.07	0
191.29	0
191.511	0
191.731	0
191.951	0
192.172	0
192.392	0
192.612	0
192.833	0
193.053	0
193.273	0
193.493	0
193.714	0
193.934	0
194.154	0
194.374	0
194.594	0
194.815	0
195.035	0
195.255	0
195.475	0
195.695	0
195.915	0
196.135	0
196.355	0
196.575	0
196.795	0
197.015	0
197.235	0
197.455	0
197.675	0
197.895	0
198.115	0
198.335	0
198.555	0
198.775	0
198.995	0
199.214	0
199.434	0
199.654	0
199.874	0
200.094	3.65
200.313	2.79
200.533	1.81
200.753	2.22
200.973	3.72
201.192	3.27
201.412	1.17
201.632	2.04
201.851	3.67
202.071	2.12
202.291	1.66
202.51	1.07
202.73	2.52
202.95	1.95
203.169	1.05
203.389	1.66
203.608	1.85
203.828	1.71
204.047	1.85
204.267	2.17
204.486	1.9
204.706	2.21
204.925	1.89
205.145	1.65
205.364	2.82
205.583	2.35
205.803	1.58
206.022	0.92
206.242	1.6
206.461	1.32
206.68	1.41
206.9	1.78
207.119	2.5
207.338	2.23
207.557	1.33
207.777	1.07
207.996	1.46
208.215	2.47
208.434	0.78
208.654	0.88
208.873	1.74
209.092	2.27
209.311	1.14
209.53	1.15
209.749	0.99
209.968	0.85
210.187	1
210.407	0.71
210.626	1.13
210.845	1.62
211.064	1.43
211.283	0.78
211.502	1.58
211.721	1.37
211.94	0.86
212.159	1.5
212.377	1.63
212.596	1.65
212.815	1.34
213.034	1.01
213.253	1.34
213.472	1.52
213.691	0.7
213.91	0.79
214.128	1.02
214.347	1.4
214.566	0.75
214.785	0.56
215.003	1.31
215.222	1
215.441	0.77
215.66	0.45
215.878	1
216.097	1.15
216.316	0.77
216.534	0.93
216.753	1.15
216.972	0.94
217.19	0.63
217.409	0.59
217.627	0.69
217.846	0.91
218.064	0.78
218.283	0.44
218.501	1.43
218.72	1.15
218.938	0.39
219.157	0.62
219.375	1.12
219.594	1.12
219.812	0.64
220.031	0.55
220.249	1.29
220.467	1.2
220.686	0.72
220.904	0.46
221.122	0.72
221.341	1.12
221.559	0.69
221.777	0.43
221.995	0.83
222.214	0.9
222.432	0.56
222.65	0.85
222.868	0.72
223.086	1.05
223.305	0.84
223.523	0.59
223.741	1.03
223.959	0.78
224.177	0.36
224.395	0.51
224.613	0.59
224.831	0.77
225.049	0.49
225.267	0.66
225.485	0.78
225.703	0.68
225.921	0.59
226.139	0.51
226.357	0.91
226.575	0.81
226.793	0.56
227.011	1.48
227.229	0.81
227.447	0.86
227.665	0.45
227.883	0.27
228.1	0.69
228.318	0.78
228.536	0.25
228.754	0.46
228.972	0.75
229.189	0.74
229.407	0.57
229.625	0.59
229.843	0.92
230.06	0.73
230.278	0.43
230.496	0.61
230.713	0.65
230.931	0.79
231.149	0.43
231.366	0.29
231.584	0.61
231.801	1
232.019	0.57
232.236	0.4
232.454	0.55
232.671	0.68
232.889	0.5
233.106	0.39
233.324	0.47
233.541	0.68
233.759	0.66
233.976	0.42
234.194	0.5
234.411	0.6
234.628	0.27
234.846	0.48
235.063	0.48
235.28	0.62
235.498	0.51
235.715	0.37
235.932	0.75
236.149	0.44
236.367	0.36
236.584	0.58
236.801	0.51
237.018	0.69
237.236	0.49
237.453	0.25
237.67	0.62
237.887	0.46
238.104	0.45
238.321	0.45
238.538	0.37
238.755	0.64
238.973	0.26
239.19	0.48
239.407	0.57
239.624	0.55
239.841	0.3
240.058	0.36
240.275	0.48
240.492	0.52
240.709	0.55
240.925	0.27
241.142	0.55
241.359	0.4
241.576	0.32
241.793	0.42
242.01	0.49
242.227	0.56
242.444	0.47
242.66	0.58
242.877	0.47
243.094	0.49
243.311	0.45
243.527	0.32
243.744	0.45
243.961	0.67
244.178	0.38
244.394	0.4
244.611	0.58
244.828	0.7
245.044	0.39
245.261	0.39
245.477	0.5
245.694	0.72
245.911	0.36
246.127	0.44
246.344	0.67
246.56	0.5
246.777	0.36
246.993	0.49
247.21	0.51
247.426	0.56
247.643	0.34
247.859	0.39
248.076	0.31
248.292	0.74
248.508	0.31
248.725	0.46
248.941	0.5
249.157	0.52
249.374	0.35
249.59	0.29
249.806	0.47
250.023	0.46
250.239	0.31
250.455	0.35
250.671	0.4
250.888	0.52
251.104	0.55
251.32	0.37
251.536	0.35
251.752	0.45
251.969	0.36
252.185	0.38
252.401	0.66
252.617	0.44
252.833	0.37
253.049	0.35
253.265	0.38
253.481	0.36
253.697	0.32
253.913	0.29
254.129	0.44
254.345	0.4
254.561	0.33
254.777	0.35
254.993	0.49
255.209	0.48
255.425	0.35
255.641	0.28
255.857	0.45
256.073	0.43
256.288	0.26
256.504	0.32
256.72	0.46
256.936	0.55
257.152	0.32
257.367	0.32
257.583	0.41
257.799	0.48
258.015	0.37
258.23	0.33
258.446	0.6
258.662	0.34
258.877	0.29
259.093	0.27
259.309	0.36
259.524	0.42
259.74	0.32
259.955	0.21
260.171	0.4
260.387	0.4
260.602	0.39
260.818	0.43
261.033	0.25
261.249	0.36
261.464	0.32
261.68	0.3
261.895	0.4
262.11	0.41
262.326	0.32
262.541	0.26
262.757	0.5
262.972	0.46
263.187	0.4
263.403	0.42
263.618	0.49
263.833	0.43
264.049	0.27
264.264	0.31
264.479	0.39
264.694	0.5
264.91	0.32
265.125	0.32
265.34	0.36
265.555	0.5
265.77	0.36
265.986	0.31
266.201	0.38
266.416	0.5
266.631	0.3
266.846	0.31
267.061	0.42
267.276	0.41
267.491	0.24
267.706	0.4
267.921	0.41
268.136	0.39
268.351	0.32
268.566	0.22
268.781	0.44
268.996	0.41
269.211	0.31
269.426	0.19
269.641	0.35
269.856	0.44
270.071	0.33
270.285	0.26
270.5	0.38
270.715	0.47
270.93	0.34
271.145	0.33
271.359	0.38
271.574	0.37
271.789	0.31
272.004	0.33
272.218	0.31
272.433	0.36
272.648	0.21
272.862	0.36
273.077	0.31
273.292	0.28
273.506	0.26
273.721	0.27
273.936	0.32
274.15	0.42
274.365	0.37
274.579	0.35
274.794	0.39
275.008	0.39
275.223	0.23
275.437	0.3
275.652	0.39
275.866	0.39
276.081	0.3
276.295	0.39
276.509	0.3
276.724	0.36
276.938	0.35
277.153	0.31
277.367	0.41
277.581	0.33
277.796	0.29
278.01	0.28
278.224	0.48
278.438	0.43
278.653	0.25
278.867	0.25
279.081	0.18
279.295	0.31
279.51	0.32
279.724	0.15
279.938	0.35
280.152	0.34
280.366	0.28
280.58	0.29
280.794	0.44
281.008	0.39
281.222	0.32
281.437	0.48
281.651	0.36
281.865	0.38
282.079	0.26
282.293	0.13
282.507	0.26
282.721	0.29
282.935	0.32
283.148	0.19
283.362	0.3
283.576	0.25
283.79	0.33
284.004	0.22
284.218	0.43
284.432	0.26
284.646	0.29
284.859	0.25
285.073	0.3
285.287	0.3
285.501	0.32
285.714	0.26
285.928	0.32
286.142	0.32
286.356	0.21
286.569	0.24
286.783	0.42
286.997	0.31
287.21	0.31
287.424	0.23
287.637	0.26
287.851	0.26
288.065	0.3
288.278	0.22
288.492	0.33
288.705	0.3
288.919	0.25
289.132	0.15
289.346	0.34
289.559	0.22
289.773	0.19
289.986	0.23
290.2	0.26
290.413	0.39
290.626	0.21
290.84	0.21
291.053	0.27
291.267	0.37
291.48	0.27
291.693	0.28
291.906	0.26
292.12	0.26
292.333	0.28
292.546	0.27
292.76	0.39
292.973	0.32
293.186	0.32
293.399	0.21
293.612	0.32
293.826	0.29
294.039	0.25
294.252	0.25
294.465	0.36
294.678	0.31
294.891	0.27
295.104	0.22
295.317	0.26
295.53	0.31
295.743	0.27
295.956	0.26
296.169	0.38
296.382	0.31
296.595	0.25
296.808	0.21
297.021	0.34
297.234	0.38
297.447	0.31
297.66	0.28
297.873	0.36
298.086	0.32
298.299	0.23
298.511	0.17
298.724	0.27
298.937	0.19
299.15	0.19
299.363	0.26
299.575	0.35
299.788	0.28
300.001	0.22
300.213	0.23
300.426	0.29
300.639	0.22
300.852	0.18
301.064	0.37
301.277	0.36
301.489	0.35
301.702	0.26
301.915	0.24
302.127	0.24
302.34	0.34
302.552	0.29
302.765	0.21
302.977	0.31
303.19	0.21
303.402	0.2
303.615	0.25
303.827	0.26
304.04	0.24
304.252	0.29
304.464	0.26
304.677	0.39
304.889	0.29
305.102	0.23
305.314	0.19
305.526	0.3
305.739	0.32
305.951	0.21
306.163	0.19
306.375	0.33
306.588	0.23
306.8	0.28
307.012	0.17
307.224	0.32
307.436	0.3
307.649	0.17
307.861	0.25
308.073	0.29
308.285	0.2
308.497	0.19
308.709	0.23
308.921	0.26
309.133	0.29
309.346	0.25
309.558	0.22
309.77	0.31
309.982	0.36
310.194	0.26
310.406	0.18
310.617	0.34
310.829	0.25
311.041	0.3
311.253	0.18
311.465	0.25
311.677	0.26
311.889	0.21
312.101	0.19
312.313	0.31
312.524	0.36
312.736	0.17
312.948	0.21
313.16	0.32
313.372	0.32
313.583	0.27
313.795	0.23
314.007	0.28
314.218	0.37
314.43	0.25
314.642	0.24
314.853	0.2
315.065	0.27
315.277	0.24
315.488	0.26
315.7	0.31
315.912	0.27
316.123	0.27
316.335	0.19
316.546	0.37
316.758	0.25
316.969	0.23
317.181	0.24
317.392	0.26
317.604	0.33
317.815	0.21
318.026	0.22
318.238	0.22
318.449	0.29
318.661	0.16
318.872	0.18
319.083	0.25
319.295	0.32
319.506	0.22
319.717	0.28
319.929	0.28
320.14	0.29
320.351	0.27
320.562	0.22
320.774	0.29
320.985	0.27
321.196	0.24
321.407	0.16
321.618	0.32
321.829	0.29
322.041	0.32
322.252	0.2
322.463	0.29
322.674	0.31
322.885	0.23
323.096	0.23
323.307	0.28
323.518	0.26
323.729	0.23
323.94	0.17
324.151	0.23
324.362	0.28
324.573	0.23
324.784	0.25
324.995	0.33
325.206	0.3
325.417	0.25
325.628	0.22
325.838	0.26
326.049	0.26
326.26	0.27
326.471	0.24
326.682	0.28
326.892	0.29
327.103	0.18
327.314	0.21
327.525	0.33
327.735	0.26
327.946	0.25
328.157	0.21
328.368	0.32
328.578	0.23
328.789	0.33
328.999	0.21
329.21	0.25
329.421	0.33
329.631	0.2
329.842	0.2
330.052	0.29
330.263	0.3
330.473	0.31
330.684	0.23
330.894	0.3
331.105	0.24
331.315	0.25
331.526	0.19
331.736	0.35
331.947	0.28
332.157	0.26
332.367	0.19
332.578	0.32
332.788	0.31
332.999	0.26
333.209	0.26
333.419	0.18
333.629	0.3
333.84	0.28
334.05	0.25
334.26	0.33
334.47	0.3
334.681	0.31
334.891	0.2
335.101	0.29
335.311	0.36
335.521	0.28
335.732	0.21
335.942	0.31
336.152	0.26
336.362	0.25
336.572	0.23
336.782	0.31
336.992	0.23
337.202	0.21
337.412	0.2
337.622	0.3
337.832	0.27
338.042	0.29
338.252	0.2
338.462	0.2
338.672	0.28
338.882	0.2
339.092	0.28
339.302	0.31
339.511	0.33
339.721	0.21
339.931	0.19
340.141	0.32
340.351	0.3
340.561	0.23
340.77	0.26
340.98	0.27
341.19	0.28
341.4	0.25
341.609	0.19
341.819	0.24
342.029	0.18
342.238	0.26
342.448	0.19
342.658	0.26
342.867	0.24
343.077	0.25
343.286	0.24
343.496	0.29
343.706	0.33
343.915	0.22
344.125	0.25
344.334	0.28
344.544	0.24
344.753	0.2
344.963	0.17
345.172	0.21
345.381	0.24
345.591	0.18
345.8	0.27
346.01	0.36
346.219	0.35
346.428	0.12
346.638	0.27
346.847	0.25
347.056	0.32
347.266	0.25
347.475	0.22
347.684	0.36
347.893	0.31
348.103	0.27
348.312	0.19
348.521	0.24
348.73	0.27
348.94	0.27
349.149	0.23
349.358	0.24
349.567	0.23
349.776	0.19
349.985	0.21
350.194	0.34
350.403	0.29
350.612	0.18
350.821	0.19
351.03	0.24
351.239	0.18
351.448	0.29
351.657	0.21
351.866	0.34
352.075	0.29
352.284	0.21
352.493	0.19
352.702	0.27
352.911	0.26
353.12	0.26
353.329	0.24
353.538	0.3
353.746	0.24
353.955	0.16
354.164	0.25
354.373	0.26
354.582	0.28
354.79	0.24
354.999	0.29
355.208	0.29
355.416	0.36
355.625	0.19
355.834	0.23
356.042	0.29
356.251	0.22
356.46	0.2
356.668	0.25
356.877	0.37
357.085	0.28
357.294	0.16
357.503	0.28
357.711	0.24
357.92	0.41
358.128	0.25
358.337	0.21
358.545	0.28
358.754	0.22
358.962	0.31
359.17	0.2
359.379	0.26
359.587	0.27
359.796	0.24
360.004	0.31
360.212	0.32
360.421	0.3
360.629	0.23
360.837	0.22
361.046	0.34
361.254	0.38
361.462	0.24
361.67	0.23
361.879	0.27
362.087	0.32
362.295	0.28
362.503	0.22
362.711	0.18
362.92	0.24
363.128	0.21
363.336	0.2
363.544	0.2
363.752	0.23
363.96	0.22
364.168	0.2
364.376	0.22
364.584	0.27
364.792	0.28
365	0.27
365.208	0.23
365.416	0.31
365.624	0.28
365.832	0.23
366.04	0.31
366.248	0.27
366.456	0.31
366.664	0.26
366.872	0.27
367.079	0.23
367.287	0.21
367.495	0.26
367.703	0.25
367.911	0.26
368.118	0.25
368.326	0.24
368.534	0.19
368.742	0.31
368.949	0.2
369.157	0.17
369.365	0.26
369.572	0.25
369.78	0.21
369.988	0.31
370.195	0.25
370.403	0.34
370.61	0.21
370.818	0.26
371.026	0.38
371.233	0.24
371.441	0.27
371.648	0.23
371.856	0.25
372.063	0.25
372.271	0.23
372.478	0.24
372.685	0.23
372.893	0.29
373.1	0.22
373.308	0.26
373.515	0.37
373.722	0.33
373.93	0.29
374.137	0.24
374.344	0.32
374.552	0.32
374.759	0.28
374.966	0.22
375.173	0.28
375.381	0.33
375.588	0.24
375.795	0.15
376.002	0.29
376.209	0.24
376.417	0.26
376.624	0.28
376.831	0.3
377.038	0.25
377.245	0.18
377.452	0.26
377.659	0.25
377.866	0.2
378.073	0.26
378.28	0.26
378.487	0.32
378.694	0.35
378.901	0.26
379.108	0.24
379.315	0.33
379.522	0.35
379.729	0.29
379.936	0.29
380.143	0.27
380.35	0.3
380.557	0.26
380.763	0.23
380.97	0.3
381.177	0.27
381.384	0.3
381.591	0.19
381.797	0.29
382.004	0.29
382.211	0.28
382.418	0.26
382.624	0.31
382.831	0.39
383.038	0.26
383.244	0.26
383.451	0.29
383.658	0.33
383.864	0.25
384.071	0.22
384.277	0.36
384.484	0.25
384.69	0.35
384.897	0.24
385.103	0.28
385.31	0.27
385.516	0.25
385.723	0.24
385.929	0.27
386.136	0.26
386.342	0.29
386.549	0.26
386.755	0.36
386.961	0.26
387.168	0.33
387.374	0.25
387.58	0.27
387.787	0.29
387.993	0.3
388.199	0.26
388.406	0.2
388.612	0.28
388.818	0.24
389.024	0.22
389.231	0.35
389.437	0.37
389.643	0.32
389.849	0.27
390.055	0.31
390.261	0.27
390.467	0.34
390.674	0.26
390.88	0.3
391.086	0.32
391.292	0.25
391.498	0.3
391.704	0.31
391.91	0.28
392.116	0.25
392.322	0.19
392.528	0.34
392.734	0.31
392.94	0.27
393.146	0.33
393.352	0.31
393.557	0.24
393.763	0.28
393.969	0.33
394.175	0.28
394.381	0.35
394.587	0.32
394.792	0.3
394.998	0.41
395.204	0.37
395.41	0.29
395.615	0.35
395.821	0.32
396.027	0.35
396.233	0.27
396.438	0.33
396.644	0.34
396.85	0.34
397.055	0.35
397.261	0.31
397.466	0.41
397.672	0.34
397.878	0.31
398.083	0.35
398.289	0.27
398.494	0.42
398.7	0.36
398.905	0.25
399.111	0.45
399.316	0.27
399.522	0.36
399.727	0.31
399.932	0.34
400.138	0.29
400.343	0.4
400.549	0.35
400.754	0.35
400.959	0.39
401.165	0.34
401.37	0.34
401.575	0.37
401.78	0.38
401.986	0.34
402.191	0.31
402.396	0.41
402.601	0.42
402.807	0.38
403.012	0.36
403.217	0.48
403.422	0.4
403.627	0.39
403.832	0.42
404.037	0.48
404.243	0.45
404.448	0.39
404.653	0.45
404.858	0.49
405.063	0.49
405.268	0.35
405.473	0.38
405.678	0.39
405.883	0.68
406.088	0.5
406.293	0.39
406.498	0.43
406.703	0.51
406.907	0.46
407.112	0.43
407.317	0.47
407.522	0.6
407.727	0.46
407.932	0.54
408.136	0.64
408.341	0.5
408.546	0.51
408.751	0.52
408.956	0.54
409.16	0.68
409.365	0.62
409.57	0.59
409.774	0.62
409.979	0.7
410.184	0.64
410.388	0.59
410.593	0.71
410.798	0.71
411.002	0.7
411.207	0.76
411.411	0.81
411.616	0.72
411.82	0.79
412.025	0.84
412.229	0.86
412.434	0.89
412.638	0.88
412.843	0.9
413.047	0.92
413.252	0.87
413.456	0.96
413.66	1.03
413.865	0.93
414.069	1.1
414.273	1.02
414.478	1.06
414.682	1.11
414.886	1.15
415.091	1.17
415.295	1.15
415.499	1.33
415.703	1.26
415.908	1.33
416.112	1.23
416.316	1.46
416.52	1.46
416.724	1.44
416.929	1.47
417.133	1.75
417.337	1.62
417.541	1.62
417.745	1.76
417.949	1.82
418.153	1.87
418.357	1.92
418.561	2.1
418.765	2.03
418.969	2.19
419.173	2.32
419.377	2.17
419.581	2.45
419.785	2.39
419.989	2.44
420.193	2.57
420.397	2.63
420.601	2.74
420.804	2.88
421.008	2.86
421.212	3.01
421.416	3.02
421.62	2.99
421.823	3.13
422.027	3.28
422.231	3.22
422.435	3.2
422.638	3.24
422.842	3.37
423.046	3.37
423.249	3.6
423.453	3.66
423.657	3.75
423.86	3.9
424.064	4.02
424.268	4.14
424.471	4.13
424.675	4.38
424.878	4.43
425.082	4.52
425.285	4.82
425.489	4.73
425.692	4.78
425.896	4.77
426.099	5.04
426.303	5.2
426.506	5.26
426.71	5.5
426.913	5.76
427.116	5.88
427.32	5.86
427.523	5.98
427.726	6.25
427.93	6.22
428.133	6.65
428.336	6.82
428.54	6.88
428.743	7.17
428.946	7.29
429.149	7.36
429.353	7.37
429.556	7.47
429.759	7.53
429.962	7.64
430.165	7.78
430.368	7.48
430.571	7.56
430.775	7.58
430.978	7.58
431.181	7.7
431.384	7.75
431.587	7.85
431.79	8.2
431.993	8.23
432.196	8.4
432.399	8.87
432.602	8.97
432.805	9.14
433.008	9.56
433.211	9.34
433.414	9.8
433.616	9.85
433.819	9.72
434.022	9.99
434.225	9.95
434.428	10.13
434.631	10.5
434.833	10.34
435.036	10.55
435.239	10.82
435.442	10.85
435.645	11.01
435.847	11.05
436.05	11.4
436.253	11.69
436.455	11.67
436.658	11.46
436.861	11.69
437.063	11.98
437.266	11.84
437.468	12.29
437.671	12.62
437.874	12.66
438.076	12.42
438.279	12.92
438.481	12.91
438.684	13.74
438.886	13.28
439.089	13.51
439.291	13.54
439.494	13.87
439.696	14.02
439.899	14.56
440.101	15.01
440.303	15.23
440.506	15.82
440.708	15.58
440.91	15.71
441.113	15.99
441.315	16.3
441.517	16.04
441.72	16.61
441.922	16.16
442.124	16.08
442.326	16.48
442.529	16.71
442.731	16.78
442.933	17.07
443.135	16.74
443.337	16.85
443.539	17.3
443.742	17.08
443.944	17.72
444.146	17.49
444.348	17.51
444.55	17.36
444.752	17.56
444.954	17.63
445.156	17.42
445.358	17.72
445.56	18.24
445.762	18.1
445.964	18.4
446.166	18.02
446.368	18.24
446.57	18.13
446.772	17.66
446.974	17.58
447.175	17.93
447.377	17.42
447.579	17.93
447.781	17.69
447.983	17.45
448.184	17.1
448.386	17.48
448.588	17.06
448.79	17.07
448.991	17.38
449.193	17.58
449.395	16.72
449.597	16.38
449.798	16.34
450	15.99
450.202	15.91
450.403	15.95
450.605	15.84
450.806	15.45
451.008	15.44
451.21	15.12
451.411	14.74
451.613	14.03
451.814	14.29
452.016	14.24
452.217	13.62
452.419	13.64
452.62	13.26
452.821	13.14
453.023	12.9
453.224	12.55
453.426	12.15
453.627	11.4
453.828	11.51
454.03	11.73
454.231	11.57
454.432	11.55
454.634	11.27
454.835	10.87
455.036	10.82
455.238	10.42
455.439	10.27
455.64	9.97
455.841	9.8
456.042	9.83
456.244	9.45
456.445	9.34
456.646	9
456.847	8.93
457.048	8.95
457.249	8.8
457.45	8.64
457.651	8.19
457.852	7.87
458.054	7.66
458.255	7.59
458.456	7.56
458.657	7.5
458.858	7.04
459.058	6.91
459.259	6.96
459.46	6.74
459.661	6.68
459.862	6.74
460.063	6.57
460.264	6.56
460.465	6.25
460.666	6.39
460.866	6.04
461.067	5.75
461.268	5.86
461.469	5.8
461.67	5.71
461.87	5.4
462.071	5.5
462.272	5.31
462.473	5.37
462.673	5.5
462.874	5.44
463.075	5.3
463.275	5.35
463.476	5.34
463.676	5.3
463.877	5.16
464.078	5.28
464.278	5.23
464.479	5.06
464.679	4.91
464.88	4.95
465.08	4.93
465.281	4.66
465.481	4.47
465.682	4.33
465.882	4.41
466.083	4.3
466.283	4.23
466.483	4.04
466.684	3.92
466.884	3.77
467.085	3.92
467.285	3.97
467.485	3.78
467.686	3.73
467.886	3.58
468.086	3.51
468.286	3.57
468.487	3.59
468.687	3.45
468.887	3.41
469.087	3.52
469.287	3.42
469.488	3.26
469.688	3.36
469.888	3.33
470.088	3.23
470.288	3.21
470.488	3.17
470.688	3.12
470.888	3.08
471.088	2.82
471.288	2.91
471.488	2.89
471.688	2.92
471.888	2.81
472.088	2.98
472.288	2.85
472.488	2.73
472.688	2.69
472.888	2.79
473.088	2.73
473.288	2.65
473.488	2.61
473.688	2.76
473.887	2.59
474.087	2.55
474.287	2.57
474.487	2.47
474.687	2.55
474.886	2.47
475.086	2.44
475.286	2.46
475.486	2.36
475.685	2.33
475.885	2.28
476.085	2.33
476.284	2.39
476.484	2.37
476.684	2.29
476.883	2.35
477.083	2.29
477.282	2.24
477.482	2.28
477.681	2.27
477.881	2.14
478.08	2.19
478.28	2.14
478.479	2.22
478.679	2.2
478.878	2.15
479.078	2.09
479.277	2.17
479.477	2.12
479.676	2.09
479.875	2.09
480.075	2.03
480.274	2.1
480.473	2.13
480.673	2.08
480.872	2.15
481.071	2.07
481.271	2.11
481.47	2.05
481.669	2.07
481.868	2.02
482.067	2.06
482.267	1.98
482.466	1.96
482.665	2.02
482.864	2
483.063	2.03
483.262	2.05
483.461	2.11
483.661	2.15
483.86	2.03
484.059	2.11
484.258	2.1
484.457	2.05
484.656	2.08
484.855	2.13
485.054	1.95
485.253	2.05
485.452	1.98
485.651	2.1
485.849	2.03
486.048	2.05
486.247	2.12
486.446	2.16
486.645	2.07
486.844	2.14
487.043	2.1
487.241	2.15
487.44	2.11
487.639	2.18
487.838	2.15
488.037	2.18
488.235	2.31
488.434	2.22
488.633	2.1
488.831	2.25
489.03	2.28
489.229	2.24
489.427	2.21
489.626	2.28
489.825	2.32
490.023	2.33
490.222	2.32
490.42	2.33
490.619	2.4
490.817	2.39
491.016	2.36
491.214	2.47
491.413	2.43
491.611	2.39
491.81	2.42
492.008	2.49
492.207	2.54
492.405	2.55
492.604	2.49
492.802	2.56
493	2.63
493.199	2.62
493.397	2.66
493.595	2.72
493.794	2.66
493.992	2.82
494.19	2.73
494.388	2.83
494.587	2.74
494.785	2.81
494.983	2.69
495.181	2.88
495.379	2.92
495.578	2.95
495.776	2.96
495.974	2.93
496.172	2.95
496.37	3.07
496.568	3.07
496.766	3.07
496.964	3.16
497.162	3.19
497.36	3.21
497.558	3.22
497.756	3.3
497.954	3.3
498.152	3.33
498.35	3.44
498.548	3.34
498.746	3.39
498.944	3.41
499.142	3.43
499.34	3.54
499.538	3.59
499.736	3.47
499.933	3.63
500.131	3.64
500.329	3.73
500.527	3.76
500.725	3.87
500.922	3.83
501.12	3.85
501.318	3.86
501.516	3.88
501.713	3.98
501.911	3.94
502.109	3.97
502.306	4.04
502.504	3.97
502.701	4.06
502.899	4.14
503.097	4.31
503.294	4.17
503.492	4.28
503.689	4.32
503.887	4.33
504.084	4.38
504.282	4.37
504.479	4.34
504.677	4.55
504.874	4.48
505.072	4.37
505.269	4.62
505.466	4.63
505.664	4.7
505.861	4.62
506.059	4.72
506.256	4.74
506.453	4.77
506.651	4.97
506.848	4.92
507.045	4.93
507.242	4.91
507.44	4.91
507.637	5.03
507.834	4.96
508.031	5.17
508.229	5.08
508.426	5.05
508.623	5.23
508.82	5.22
509.017	5.22
509.214	5.23
509.411	5.34
509.608	5.23
509.805	5.46
510.003	5.41
510.2	5.47
510.397	5.58
510.594	5.46
510.791	5.54
510.988	5.58
511.184	5.55
511.381	5.45
511.578	5.6
511.775	5.74
511.972	5.69
512.169	5.74
512.366	5.73
512.563	5.9
512.76	5.94
512.956	5.94
513.153	5.83
513.35	5.87
513.547	5.83
513.744	5.94
513.94	5.91
514.137	6.08
514.334	6.04
514.53	6.08
514.727	6.25
514.924	6.2
515.12	6.2
515.317	6.18
515.514	6.14
515.71	6.12
515.907	6.38
516.103	6.33
516.3	6.21
516.497	6.39
516.693	6.34
516.89	6.42
517.086	6.44
517.283	6.47
517.479	6.31
517.676	6.56
517.872	6.58
518.068	6.57
518.265	6.45
518.461	6.46
518.658	6.62
518.854	6.62
519.05	6.71
519.247	6.7
519.443	6.65
519.639	6.84
519.836	6.74
520.032	6.71
520.228	6.85
520.424	6.81
520.621	6.8
520.817	6.88
521.013	6.83
521.209	7.01
521.405	6.99
521.601	6.93
521.798	6.96
521.994	6.93
522.19	6.87
522.386	6.89
522.582	7.01
522.778	7.17
522.974	6.97
523.17	7.06
523.366	6.97
523.562	7.11
523.758	7.1
523.954	6.95
524.15	7.11
524.346	7.17
524.542	7.22
524.738	7.12
524.934	7.34
525.129	7.18
525.325	7.16
525.521	7.14
525.717	7.36
525.913	7.22
526.109	7.27
526.304	7.32
526.5	7.33
526.696	7.38
526.892	7.29
527.087	7.49
527.283	7.41
527.479	7.38
527.674	7.23
527.87	7.42
528.066	7.35
528.261	7.43
528.457	7.27
528.653	7.53
528.848	7.47
529.044	7.53
529.239	7.45
529.435	7.47
529.63	7.4
529.826	7.51
530.021	7.47
530.217	7.57
530.412	7.48
530.608	7.56
530.803	7.5
530.999	7.46
531.194	7.58
531.389	7.62
531.585	7.57
531.78	7.7
531.975	7.67
532.171	7.68
532.366	7.65
532.561	7.68
532.757	7.66
532.952	7.79
533.147	7.61
533.342	7.73
533.538	7.59
533.733	7.84
533.928	7.56
534.123	7.65
534.318	7.78
534.513	7.67
534.709	7.83
534.904	7.74
535.099	7.87
535.294	7.78
535.489	7.82
535.684	7.72
535.879	7.73
536.074	7.86
536.269	7.82
536.464	7.86
536.659	7.74
536.854	7.83
537.049	7.84
537.244	7.84
537.439	7.82
537.634	7.86
537.828	7.91
538.023	7.86
538.218	7.83
538.413	7.79
538.608	7.84
538.803	7.87
538.997	7.89
539.192	7.89
539.387	7.85
539.582	7.81
539.776	7.75
539.971	7.95
540.166	7.96
540.36	7.89
540.555	7.99
540.75	7.87
540.944	7.92
541.139	7.97
541.334	7.89
541.528	7.97
541.723	7.96
541.917	8
542.112	7.83
542.306	7.76
542.501	7.88
542.695	7.97
542.89	7.85
543.084	7.95
543.279	7.93
543.473	8.09
543.668	7.97
543.862	7.82
544.056	7.84
544.251	8.05
544.445	8.06
544.64	8.06
544.834	7.66
545.028	7.6
545.222	7.94
545.417	8.15
545.611	8.02
545.805	7.96
546	7.78
546.194	7.98
546.388	8.03
546.582	7.91
546.776	7.93
546.97	7.97
547.165	7.95
547.359	7.92
547.553	7.94
547.747	7.93
547.941	8.11
548.135	7.98
548.329	8.02
548.523	7.98
548.717	7.95
548.911	7.99
549.105	7.99
549.299	8.08
549.493	8.06
549.687	7.94
549.881	8.07
550.075	8.03
550.269	7.93
550.463	8.09
550.657	8.04
550.85	7.93
551.044	7.94
551.238	8.08
551.432	7.99
551.626	8.09
551.82	8.09
552.013	7.94
552.207	8.16
552.401	8.09
552.594	8.03
552.788	7.98
552.982	7.95
553.176	7.96
553.369	8.12
553.563	8.12
553.756	7.98
553.95	8.07
554.144	8.04
554.337	8.11
554.531	7.84
554.724	8.05
554.918	8.1
555.111	8.03
555.305	8.01
555.498	8.06
555.692	8.14
555.885	8.14
556.079	8.05
556.272	8.04
556.466	8.02
556.659	8
556.852	8.11
557.046	7.93
557.239	7.97
557.432	7.99
557.626	8.13
557.819	8.09
558.012	8.06
558.206	8.19
558.399	8.06
558.592	7.96
558.785	8
558.979	8
559.172	8.02
559.365	8.1
559.558	8.01
559.751	8.02
559.944	8.17
560.138	8
560.331	8.05
560.524	8.1
560.717	8.01
560.91	8.05
561.103	8.07
561.296	7.88
561.489	8.08
561.682	8.13
561.875	8.12
562.068	8.1
562.261	8
562.454	8.22
562.647	8.03
562.84	8.1
563.032	8.1
563.225	7.95
563.418	8.05
563.611	8.05
563.804	8.1
563.997	7.93
564.19	7.81
564.382	8.11
564.575	8.04
564.768	7.94
564.961	8.1
565.153	8.01
565.346	7.88
565.539	8.12
565.731	7.93
565.924	8.07
566.117	8.22
566.309	8.05
566.502	7.97
566.695	7.96
566.887	8.09
567.08	7.99
567.272	8.01
567.465	7.85
567.657	8.09
567.85	7.92
568.042	8.03
568.235	8.05
568.427	7.9
568.62	7.95
568.812	7.95
569.005	8.04
569.197	7.89
569.389	7.95
569.582	7.95
569.774	7.96
569.966	7.88
570.159	7.87
570.351	7.87
570.543	7.95
570.736	7.96
570.928	7.83
571.12	7.97
571.312	7.89
571.505	7.73
571.697	8.03
571.889	7.94
572.081	7.92
572.273	7.87
572.465	7.92
572.658	7.94
572.85	7.97
573.042	7.95
573.234	7.8
573.426	7.88
573.618	7.87
573.81	7.88
574.002	7.88
574.194	7.84
574.386	7.8
574.578	7.74
574.77	7.85
574.962	7.86
575.154	7.74
575.346	7.78
575.538	7.76
575.729	7.79
575.921	7.83
576.113	7.84
576.305	7.88
576.497	7.92
576.689	7.71
576.88	7.63
577.072	7.88
577.264	7.8
577.456	7.86
577.647	7.74
577.839	7.87
578.031	7.79
578.223	7.65
578.414	7.66
578.606	7.79
578.798	7.85
578.989	7.78
579.181	7.73
579.372	7.73
579.564	7.74
579.755	7.68
579.947	7.61
580.139	7.72
580.33	7.58
580.522	7.7
580.713	7.69
580.905	7.66
581.096	7.78
581.287	7.64
581.479	7.68
581.67	7.66
581.862	7.65
582.053	7.68
582.244	7.49
582.436	7.72
582.627	7.59
582.818	7.53
583.01	7.47
583.201	7.59
583.392	7.52
583.583	7.55
583.775	7.39
583.966	7.51
584.157	7.55
584.348	7.7
584.54	7.44
584.731	7.59
584.922	7.42
585.113	7.36
585.304	7.59
585.495	7.57
585.686	7.58
585.877	7.54
586.068	7.64
586.259	7.48
586.45	7.4
586.641	7.42
586.832	7.49
587.023	7.45
587.214	7.39
587.405	7.43
587.596	7.28
587.787	7.3
587.978	7.39
588.169	7.32
588.36	7.32
588.551	7.35
588.742	7.31
588.932	7.33
589.123	7.15
589.314	7.43
589.505	7.27
589.696	7.25
589.886	7.22
590.077	7.26
590.268	7.23
590.458	7.21
590.649	6.99
590.84	7.2
591.03	7.16
591.221	7.21
591.412	7.06
591.602	7.27
591.793	7.19
591.984	7.15
592.174	7.18
592.365	7.29
592.555	6.99
592.746	7.03
592.936	7.07
593.127	7.09
593.317	7.18
593.508	7.09
593.698	7.05
593.889	7.03
594.079	6.99
594.269	6.91
594.46	6.93
594.65	7.06
594.84	6.9
595.031	6.91
595.221	6.92
595.411	6.92
595.602	6.96
595.792	6.87
595.982	6.8
596.172	6.99
596.363	6.84
596.553	6.86
596.743	6.86
596.933	6.84
597.123	6.82
597.314	6.64
597.504	6.66
597.694	6.84
597.884	6.69
598.074	6.8
598.264	6.75
598.454	6.76
598.644	6.68
598.834	6.77
599.024	6.6
599.214	6.6
599.404	6.69
599.594	6.64
599.784	6.54
599.974	6.71
600.164	6.63
600.354	6.51
600.544	6.45
600.734	6.59
600.924	6.49
601.114	6.43
601.303	6.36
601.493	6.55
601.683	6.47
601.873	6.49
602.063	6.39
602.252	6.46
602.442	6.31
602.632	6.37
602.821	6.33
603.011	6.43
603.201	6.36
603.39	6.29
603.58	6.22
603.77	6.39
603.959	6.34
604.149	6.3
604.339	6.3
604.528	6.38
604.718	6.27
604.907	6.18
605.097	6.15
605.286	6.19
605.476	6.16
605.665	6.28
605.855	6.12
606.044	6.22
606.234	6.19
606.423	6.07
606.612	6.08
606.802	6.08
606.991	6.1
607.181	6.13
607.37	6.11
607.559	5.93
607.749	6.08
607.938	5.93
608.127	6.02
608.316	5.99
608.506	5.95
608.695	5.95
608.884	5.86
609.073	5.85
609.263	6
609.452	5.98
609.641	5.78
609.83	5.81
610.019	5.86
610.208	5.74
610.397	5.75
610.586	5.76
610.775	5.7
610.965	5.73
611.154	5.57
611.343	5.74
611.532	5.67
611.721	5.72
611.91	5.63
612.099	5.68
612.287	5.54
612.476	5.52
612.665	5.63
612.854	5.49
613.043	5.58
613.232	5.56
613.421	5.49
613.61	5.45
613.798	5.43
613.987	5.54
614.176	5.45
614.365	5.49
614.554	5.5
614.742	5.45
614.931	5.27
615.12	5.47
615.309	5.42
615.497	5.28
615.686	5.27
615.875	5.32
616.063	5.26
616.252	5.27
616.44	5.35
616.629	5.29
616.818	5.22
617.006	5.16
617.195	5.18
617.383	5.21
617.572	5.08
617.76	5.1
617.949	5.12
618.137	5.2
618.326	5.24
618.514	4.9
618.703	4.9
618.891	5.13
619.079	4.98
619.268	5.13
619.456	4.94
619.644	5.09
619.833	4.97
620.021	4.95
620.209	4.86
620.398	4.92
620.586	4.88
620.774	4.91
620.962	4.87
621.151	4.95
621.339	4.79
621.527	4.77
621.715	4.78
621.903	4.77
622.092	4.7
622.28	4.79
622.468	4.6
622.656	4.72
622.844	4.74
623.032	4.75
623.22	4.63
623.408	4.71
623.596	4.69
623.784	4.68
623.972	4.54
624.16	4.64
624.348	4.69
624.536	4.67
624.724	4.54
624.912	4.52
625.1	4.59
625.288	4.5
625.476	4.44
625.664	4.55
625.851	4.47
626.039	4.48
626.227	4.42
626.415	4.44
626.603	4.39
626.79	4.43
626.978	4.37
627.166	4.4
627.354	4.35
627.541	4.29
627.729	4.21
627.917	4.4
628.104	4.35
628.292	4.25
628.48	4.24
628.667	4.2
628.855	4.35
629.042	4.32
629.23	4.18
629.418	4.18
629.605	4.26
629.793	4.1
629.98	4.17
630.168	4.11
630.355	4.13
630.543	4.16
630.73	3.97
630.917	4.06
631.105	4.16
631.292	4.08
631.48	3.99
631.667	4.14
631.854	4.03
632.042	4.01
632.229	3.91
632.416	3.97
632.604	3.97
632.791	3.79
632.978	3.97
633.165	3.96
633.353	3.99
633.54	3.93
633.727	3.79
633.914	3.79
634.101	3.8
634.289	3.89
634.476	3.79
634.663	3.73
634.85	3.76
635.037	3.74
635.224	3.62
635.411	3.78
635.598	3.71
635.785	3.66
635.972	3.64
636.159	3.73
636.346	3.63
636.533	3.59
636.72	3.62
636.907	3.6
637.094	3.63
637.281	3.42
637.468	3.55
637.655	3.53
637.842	3.57
638.029	3.48
638.215	3.53
638.402	3.51
638.589	3.43
638.776	3.44
638.963	3.41
639.149	3.5
639.336	3.49
639.523	3.39
639.709	3.42
639.896	3.4
640.083	3.33
640.27	3.38
640.456	3.3
640.643	3.3
640.829	3.24
641.016	3.27
641.203	3.25
641.389	3.26
641.576	3.26
641.762	3.22
641.949	3.12
642.135	3.23
642.322	3.22
642.508	3.08
642.695	3.2
642.881	3.09
643.068	3.1
643.254	3.16
643.441	3.13
643.627	3.15
643.813	3.04
644	3.15
644.186	3.01
644.372	3.07
644.559	3.02
644.745	3.04
644.931	2.96
645.118	3
645.304	2.98
645.49	2.98
645.676	2.94
645.862	2.95
646.049	3.01
646.235	2.9
646.421	3.04
646.607	2.98
646.793	2.84
646.979	2.82
647.165	2.82
647.352	2.84
647.538	2.89
647.724	2.78
647.91	2.81
648.096	2.84
648.282	2.83
648.468	2.82
648.654	2.77
648.84	2.82
649.026	2.69
649.212	2.66
649.397	2.65
649.583	2.7
649.769	2.73
649.955	2.69
650.141	2.71
650.327	2.72
650.513	2.62
650.698	2.68
650.884	2.53
651.07	2.66
651.256	2.58
651.442	2.61
651.627	2.51
651.813	2.6
651.999	2.61
652.184	2.58
652.37	2.49
652.556	2.52
652.741	2.57
652.927	2.34
653.113	2.45
653.298	2.47
653.484	2.44
653.669	2.38
653.855	2.4
654.04	2.49
654.226	2.42
654.412	2.41
654.597	2.29
654.782	2.41
654.968	2.44
655.153	2.35
655.339	2.33
655.524	2.31
655.71	2.4
655.895	2.36
656.08	2.32
656.266	2.39
656.451	2.27
656.636	2.24
656.822	2.27
657.007	2.29
657.192	2.26
657.378	2.24
657.563	2.25
657.748	2.28
657.933	2.22
658.118	2.16
658.304	2.18
658.489	2.3
658.674	2.23
658.859	2.16
659.044	2.15
659.229	2.22
659.414	2.1
659.599	2.18
659.785	2.03
659.97	2.12
660.155	2.16
660.34	2.13
660.525	2.09
660.71	2.07
660.895	2.14
661.08	2.05
661.264	2
661.449	2.14
661.634	2.02
661.819	2.06
662.004	2.05
662.189	1.97
662.374	2
662.559	1.94
662.743	1.88
662.928	1.95
663.113	1.96
663.298	1.88
663.483	1.94
663.667	1.92
663.852	1.91
664.037	1.91
664.221	1.82
664.406	1.93
664.591	1.94
664.775	1.91
664.96	1.86
665.145	1.86
665.329	1.85
665.514	1.86
665.698	1.81
665.883	1.75
666.068	1.89
666.252	1.8
666.437	1.77
666.621	1.86
666.806	1.77
666.99	1.8
667.174	1.76
667.359	1.86
667.543	1.73
667.728	1.78
667.912	1.7
668.096	1.76
668.281	1.67
668.465	1.72
668.649	1.66
668.834	1.68
669.018	1.69
669.202	1.68
669.387	1.66
669.571	1.75
669.755	1.68
669.939	1.7
670.124	1.69
670.308	1.7
670.492	1.68
670.676	1.64
670.86	1.61
671.044	1.58
671.228	1.62
671.413	1.55
671.597	1.52
671.781	1.59
671.965	1.62
672.149	1.57
672.333	1.56
672.517	1.53
672.701	1.61
672.885	1.57
673.069	1.44
673.253	1.61
673.437	1.56
673.621	1.49
673.804	1.52
673.988	1.55
674.172	1.52
674.356	1.4
674.54	1.49
674.724	1.62
674.908	1.48
675.091	1.54
675.275	1.47
675.459	1.52
675.643	1.56
675.826	1.48
676.01	1.43
676.194	1.41
676.377	1.48
676.561	1.49
676.745	1.48
676.928	1.4
677.112	1.5
677.296	1.38
677.479	1.38
677.663	1.34
677.846	1.41
678.03	1.41
678.213	1.32
678.397	1.38
678.58	1.39
678.764	1.35
678.947	1.31
679.131	1.34
679.314	1.36
679.498	1.31
679.681	1.32
679.865	1.36
680.048	1.3
680.231	1.31
680.415	1.28
680.598	1.28
680.781	1.24
680.965	1.28
681.148	1.31
681.331	1.24
681.514	1.32
681.698	1.18
681.881	1.28
682.064	1.25
682.247	1.24
682.43	1.13
682.614	1.3
682.797	1.26
682.98	1.23
683.163	1.18
683.346	1.23
683.529	1.15
683.712	1.1
683.895	1.25
684.078	1.1
684.261	1.2
684.444	1.2
684.627	1.27
684.81	1.12
684.993	1.14
685.176	1.19
685.359	1.08
685.542	1.1
685.725	1.26
685.908	1.19
686.091	1.13
686.274	1.19
686.457	1.14
686.639	1.16
686.822	1.19
687.005	1.13
687.188	1.09
687.371	1.26
687.553	1.17
687.736	1.17
687.919	1.23
688.102	1.18
688.284	1.05
688.467	1.05
688.65	1.07
688.832	1
689.015	1.08
689.197	0.96
689.38	1.17
689.563	1.18
689.745	0.96
689.928	1.04
690.11	1.01
690.293	0.99
690.475	0.92
690.658	1.09
690.84	1.01
691.023	1.02
691.205	0.96
691.388	1.02
691.57	1.08
691.752	1.04
691.935	0.91
692.117	0.97
692.3	1.03
692.482	0.92
692.664	0.97
692.847	0.97
693.029	1.05
693.211	1.03
693.393	0.95
693.576	0.89
693.758	0.97
693.94	0.91
694.122	0.89
694.304	0.92
694.487	0.91
694.669	0.98
694.851	0.83
695.033	0.88
695.215	0.91
695.397	0.86
695.579	0.85
695.761	0.84
695.943	0.87
696.125	0.97
696.308	0.9
696.49	0.83
696.671	0.97
696.853	0.89
697.035	1.16
697.217	0.88
697.399	1
697.581	0.83
697.763	0.91
697.945	0.75
698.127	0.93
698.309	0.93
698.491	0.86
698.672	0.92
698.854	0.9
699.036	0.97
699.218	0.87
699.399	0.91
699.581	0.93
699.763	0.8
699.945	0.73
700.126	0.75
700.308	0.78
700.49	0.78
700.671	0.7
700.853	0.77
701.035	0.77
701.216	0.82
701.398	0.79
701.579	0.78
701.761	0.89
701.943	0.78
702.124	0.73
702.306	0.78
702.487	0.95
702.669	0.77
702.85	0.76
703.031	0.71
703.213	0.94
703.394	0.91
703.576	0.79
703.757	0.93
703.938	0.83
704.12	0.96
704.301	0.74
704.483	0.71
704.664	0.71
704.845	0.96
705.026	0.8
705.208	0.68
705.389	0.86
705.57	0.76
705.751	0.8
705.933	0.75
706.114	0.87
706.295	0.72
706.476	0.68
706.657	0.78
706.838	0.79
707.02	0.84
707.201	0.73
707.382	0.67
707.563	0.74
707.744	0.7
707.925	0.56
708.106	0.66
708.287	0.74
708.468	0.88
708.649	0.68
708.83	0.75
709.011	0.62
709.192	0.83
709.373	0.64
709.554	0.62
709.734	0.76
709.915	0.71
710.096	0.64
710.277	0.55
710.458	0.66
710.639	0.78
710.819	0.65
711	0.6
711.181	0.72
711.362	0.77
711.542	0.7
711.723	0.61
711.904	0.76
712.085	0.65
712.265	0.62
712.446	0.59
712.627	0.61
712.807	0.64
712.988	0.7
713.168	0.55
713.349	0.72
713.53	0.53
713.71	0.53
713.891	0.53
714.071	0.63
714.252	0.61
714.432	0.54
714.613	0.53
714.793	0.57
714.974	0.79
715.154	0.7
715.334	0.67
715.515	0.67
715.695	0.59
715.876	0.58
716.056	0.6
716.236	0.6
716.417	0.57
716.597	0.5
716.777	0.83
716.957	0.59
717.138	0.64
717.318	0.62
717.498	0.49
717.678	0.56
717.859	0.61
718.039	0.56
718.219	0.59
718.399	0.62
718.579	0.49
718.759	0.47
718.939	0.61
719.12	0.6
719.3	0.6
719.48	0.38
719.66	0.45
719.84	0.65
720.02	0.56
720.2	0.47
720.38	0.52
720.56	0.67
720.74	0.47
720.92	0.59
721.1	0.68
721.279	0.68
721.459	0.58
721.639	0.5
721.819	0.53
721.999	0.58
722.179	0.68
722.359	0.44
722.538	0.54
722.718	0.61
722.898	0.52
723.078	0.51
723.257	0.45
723.437	0.57
723.617	0.55
723.797	0.47
723.976	0.48
724.156	0.67
724.336	0.67
724.515	0.74
724.695	0.34
724.874	0.49
725.054	0.61
725.234	0.48
725.413	0.59
725.593	0.55
725.772	0.58
725.952	0.43
726.131	0.46
726.311	0.54
726.49	0.54
726.67	0.41
726.849	0.42
727.028	0.56
727.208	0.5
727.387	0.55
727.567	0.44
727.746	0.48
727.925	0.56
728.105	0.46
728.284	0.47
728.463	0.45
728.643	0.5
728.822	0.39
729.001	0.46
729.18	0.51
729.359	0.66
729.539	0.59
729.718	0.45
729.897	0.67
730.076	0.52
730.255	0.39
730.434	0.48
730.614	0.5
730.793	0.52
730.972	0.42
731.151	0.53
731.33	0.56
731.509	0.53
731.688	0.42
731.867	0.48
732.046	0.34
732.225	0.66
732.404	0.42
732.583	0.33
732.762	0.55
732.941	0.65
733.12	0.54
733.298	0.41
733.477	0.7
733.656	0.4
733.835	0.3
734.014	0.54
734.193	0.46
734.371	0.57
734.55	0.54
734.729	0.43
734.908	0.54
735.086	0.49
735.265	0.58
735.444	0.28
735.623	0.33
735.801	0.46
735.98	0.56
736.159	0.45
736.337	0.61
736.516	0.55
736.694	0.44
736.873	0.49
737.052	0.73
737.23	0.67
737.409	0.44
737.587	0.76
737.766	0.35
737.944	0.42
738.123	0.5
738.301	0.52
738.479	0.48
738.658	0.54
738.836	0.3
739.015	0.55
739.193	0.65
739.371	0.45
739.55	0.43
739.728	0.36
739.906	0.62
740.085	0.71
740.263	0.54
740.441	0.28
740.62	0.7
740.798	0.59
740.976	0.31
741.154	0.44
741.332	0.68
741.511	0.42
741.689	0.45
741.867	0.58
742.045	0.54
742.223	0.47
742.401	0.33
742.579	0.39
742.757	0.61
742.935	0.31
743.114	0.37
743.292	0.38
743.47	0.4
743.648	0.44
743.826	0.35
744.004	0.56
744.181	0.53
744.359	0.46
744.537	0.54
744.715	0.41
744.893	0.51
745.071	0.48
745.249	0.4
745.427	0.46
745.605	0.56
745.782	0.48
745.96	0.48
746.138	0.56
746.316	0.58
746.493	0.37
746.671	0.41
746.849	0.38
747.027	0.57
747.204	0.31
747.382	0.52
747.56	0.22
747.737	0.46
747.915	0.43
748.093	0.58
748.27	0.29
748.448	0.38
748.625	0.32
748.803	0.27
748.98	0.38
749.158	0.59
749.335	0.52
749.513	0.39
749.69	0.38
749.868	0.48
750.045	0.54
750.223	0.29
750.4	0.19
750.578	0.65
750.755	0.44
750.932	0.22
751.11	0.52
751.287	0.2
751.464	0.56
751.642	0.27
751.819	0.47
751.996	0.48
752.173	0.44
752.351	0.3
752.528	0.35
752.705	0.35
752.882	0.35
753.06	0.42
753.237	0.42
753.414	0.61
753.591	0.72
753.768	0.4
753.945	0.25
754.122	0.32
754.299	0.63
754.476	0.23
754.654	0.33
754.831	0.43
755.008	0.41
755.185	0.33
755.362	0.25
755.539	0.48
755.716	0.37
755.892	0.35
756.069	0.37
756.246	0.41
756.423	0.45
756.6	0.46
756.777	0.22
756.954	0.51
757.131	0.34
757.307	0.28
757.484	0.22
757.661	0.46
757.838	0.47
758.015	0.21
758.191	0.48
758.368	0.38
758.545	0.6
758.721	0.33
758.898	0.16
759.075	0.42
759.251	0.44
759.428	0.45
759.605	0.11
759.781	0.3
759.958	0.4
760.134	0.38
760.311	0.27
760.488	0.57
760.664	0.58
760.841	0.38
761.017	0.29
761.194	0.45
761.37	0.47
761.547	0.53
761.723	0.36
761.899	0.49
762.076	0.32
762.252	0.21
762.429	0.39
762.605	0.59
762.781	0.2
762.958	0.46
763.134	0.32
763.31	0.28
763.486	0.53
763.663	0.17
763.839	0.4
764.015	0.09
764.191	0.33
764.368	0.19
764.544	0.24
764.72	0.46
764.896	0.47
765.072	0.38
765.248	0.32
765.425	0.3
765.601	0.5
765.777	0.48
765.953	0.08
766.129	0.31
766.305	0.3
766.481	0.52
766.657	0.45
766.833	0.43
767.009	0.17
767.185	0.34
767.361	0.44
767.537	0.22
767.713	0.57
767.889	0.34
768.065	0.33
768.24	0.51
768.416	0.56
768.592	0.27
768.768	0.35
768.944	0.45
769.12	0.3
769.295	0.24
769.471	0.32
769.647	0.3
769.823	0.57
769.998	0.25
770.174	0.27
770.35	0.9
770.525	0.79
770.701	0.46
770.877	0.4
771.052	0.1
771.228	0.7
771.403	0.58
771.579	0.44
771.755	0.63
771.93	0.34
772.106	0.17
772.281	0.01
772.457	0.29
772.632	0.45
772.808	0.31
772.983	0.37
773.159	0.34
773.334	0.63
773.509	0.51
773.685	0.21
773.86	1.07
774.036	0.52
774.211	0.43
774.386	0.35
774.562	0.47
774.737	0.7
774.912	0.33
775.087	0.45
775.263	0.4
775.438	0.47
775.613	0.33
775.788	0.25
775.964	0.68
776.139	1.01
776.314	0.08
776.489	0.32
776.664	0.47
776.839	0.28
777.014	0.52
777.19	0.53
777.365	0.66
777.54	0.69
777.715	0.22
777.89	0.4
778.065	0.37
778.24	0.38
778.415	0.51
778.59	0.21
778.765	0.28
778.94	0.53
779.115	0.37
779.289	0.29
779.464	0.47
779.639	0.41
779.814	0.19
779.989	0.19
780.164	0.69
780.339	0.5
780.513	0.28
780.688	0.21
780.863	0.47
781.038	0.65
781.212	0.13
781.387	0.2
781.562	0.69
781.737	0.29
781.911	0.66
782.086	0.16
782.261	0.23
782.435	0.73
782.61	0.26
782.784	0.45
782.959	0.77
783.134	0.24
783.308	0.35
783.483	0.38
783.657	1.09
783.832	0.75
784.006	0.17
784.181	0.5
784.355	0.63
784.53	0.26
784.704	0.2
784.878	0.61
785.053	0.41
785.227	0.58
785.402	0.68
785.576	0.3
785.75	0.57
785.925	0.37
786.099	0.46
786.273	0.56
786.448	0.78
786.622	0.59
786.796	0.46
786.97	0.46
787.145	1.07
787.319	0.1
787.493	0.28
787.667	0.18
787.841	0.63
788.015	0.86
788.19	0.34
788.364	0.35
788.538	0.7
788.712	0.82
788.886	0.47
789.06	0.54
789.234	0.75
789.408	0.01
789.582	0.27
789.756	0.33
789.93	0.34
790.104	0.37
790.278	0.43
790.452	-0.02
790.626	0.55
790.8	0.3
790.973	0.71
791.147	0.83
791.321	0.74
791.495	0.82
791.669	0.52
791.843	0.65
792.016	0.51
792.19	1.19
792.364	0.05
792.538	0.94
792.711	1
792.885	0.61
793.059	0.23
793.233	-0.13
793.406	0.57
793.58	0.5
793.754	0.69
793.927	0.48
794.101	0.79
794.274	0.65
794.448	0.59
794.622	0.23
794.795	0.94
794.969	0.62
795.142	0.86
795.316	0.14
795.489	0.21
795.663	0.94
795.836	0.54
796.009	0.12
796.183	0.86
796.356	0.59
796.53	0.58
796.703	0.37
796.876	1.18
797.05	0.32
797.223	0.13
797.396	0.61
797.57	0.38
797.743	0.86
797.916	0.51
798.09	0.33
798.263	1.07
798.436	0.81
798.609	0.33
798.782	0.45
798.956	0.68
799.129	0.79
799.302	0.28
799.475	0.46
799.648	0.33
799.821	0.61
799.994	0.46
800.167	0.15
800.34	0.5
800.514	0.61
800.687	0.3
800.86	0.17
801.033	0.49
801.206	0.84
801.379	0.24
801.551	0.61
801.724	0.74
801.897	1.32
802.07	0.47
802.243	0.11
802.416	0.53
802.589	0.57
802.762	0.5
802.935	0.95
803.107	0.48
803.28	0.88
803.453	1.09
803.626	0.42
803.798	0.77
803.971	0.14
804.144	0.57
804.317	0.39
804.489	1.18
804.662	0.78
804.835	0.66
805.007	-0.01
805.18	1.04
805.353	0.55
805.525	0.33
805.698	0.29
805.87	0.78
806.043	0.85
806.215	0.01
806.388	0.37
806.56	0.49
806.733	1.02
806.905	0.45
807.078	0.27
807.25	0.33
807.423	0.78
807.595	0.75
807.768	0.42
807.94	0.87
808.112	0.44
808.285	0.57
808.457	0.03
808.629	0.92
808.802	0.67
808.974	0.64
809.146	0.55
809.318	0.67
809.491	1
809.663	0.98
809.835	0.19
810.007	1.08
810.18	0.49
810.352	0.53
810.524	0.24
810.696	1.03
810.868	1.25
811.04	0.39
811.212	0.42
811.384	1.02
811.556	0.78
811.728	0.6
811.901	1.68
812.073	0.61
812.245	0.92
812.417	0.46
812.589	0.04
812.76	0.8
812.932	0.91
813.104	1.3
813.276	0.39
813.448	1.61
813.62	0.73
813.792	0.88
813.964	0.66
814.136	0.91
814.307	0.31
814.479	0.51
814.651	0.48
814.823	1.66
814.995	0.8
815.166	0.62
815.338	0.51
815.51	0.14
815.681	1.56
815.853	0.77
816.025	0.68
816.196	1.59
816.368	1.1
816.54	0.59
816.711	0.6
816.883	1.11
817.054	1.92
817.226	0.09
817.398	0.74
817.569	0.71
817.741	1.27
817.912	0.67
818.084	0.71
818.255	1.17
818.426	0.11
818.598	0.16
818.769	0.08
818.941	0.59
819.112	1.49
819.283	0.78
819.455	0.35
819.626	0.82
819.798	1.01
819.969	0.8
820.14	0.47
820.311	0.76
820.483	0.69
820.654	0.88
820.825	0.51
820.996	0.65
821.168	0.26
821.339	0.42
821.51	0.18
821.681	0.4
821.852	0.53
822.023	0.12
822.195	-0.06
822.366	1.19
822.537	0.95
822.708	0.72
822.879	0.14
823.05	1.88
823.221	0.71
823.392	0.79
823.563	0.51
823.734	1.07
823.905	1.23
824.076	0.76
824.247	0.18
824.418	0.65
824.589	1.31
824.759	1.11
824.93	0.9
825.101	0.17
825.272	1.76
825.443	1.1
825.614	1.16
825.784	-0.1
825.955	2.53
826.126	1.73
826.297	0.64
826.467	2.15
826.638	2.04
826.809	0.43
826.98	1.26
827.15	1.15
827.321	1.18
827.492	1.69
827.662	1.08
827.833	1.93
828.003	1.55
828.174	0.54
828.345	0.28
828.515	2.08
828.686	0.97
828.856	0.06
829.027	0.56
829.197	1.41
829.368	0.95
829.538	0.26
829.709	0.49
829.879	1.45
830.049	1.61
830.22	0.5
830.39	0.34
830.56	1.92
830.731	1.17
830.901	-0.28
831.072	0.82
831.242	1.41
831.412	1.54
831.582	0.91
831.753	-0.4
831.923	1.25
832.093	1.17
832.263	0.45
832.434	0.26
832.604	0.84
832.774	1.49
832.944	0.69
833.114	0.99
833.284	1.34
833.454	0.84
833.624	0.27
833.795	0.08
833.965	1.93
834.135	2.54
834.305	-0.2
834.475	-0.14
834.645	0.69
834.815	0.6
834.985	0.43
835.155	0.52
835.325	1.22
835.494	1.39
835.664	0.33
835.834	0.82
836.004	1.15
836.174	1.45
836.344	1.05
836.514	0.41
836.684	0.46
836.853	1.28
837.023	1.66
837.193	0.49
837.363	1.88
837.532	2.16
837.702	1.05
837.872	0.02
838.041	1.44
838.211	3.22
838.381	0.11
838.55	0.57
838.72	3.94
838.89	2.12
839.059	1.14
839.229	-0.01
839.398	3.25
839.568	1.48
839.738	0.68
839.907	1.37
840.077	0.47
840.246	1.12
840.416	-0.2
840.585	0.1
840.755	3.26
840.924	2.45
841.093	0.89
841.263	0.56
841.432	1.28
841.602	0.06
841.771	0.67
841.94	1.6
842.11	3.53
842.279	2
842.448	0.88
842.617	0.88
842.787	2.85
842.956	0.31
843.125	0.88
843.294	1.57
843.464	2.18
843.633	0.89
843.802	0.04
843.971	1.05
844.14	1.86
844.309	1.94
844.479	-0.56
844.648	0.17
844.817	0.6
844.986	1.33
845.155	0.37
845.324	0.88
845.493	1.58
845.662	1.28
845.831	1.45
846	1.73
846.169	1.11
846.338	3.35
846.507	0.75
846.676	1.05
846.844	0.68
847.013	1.35
847.182	1.28
847.351	0.53
847.52	1.42
847.689	1.39
847.858	1.07
848.026	-0
848.195	1.52
848.364	1.33
848.533	0.02
848.701	0.55
848.87	2.03
849.039	3.29
849.207	2.14
849.376	2.4
849.545	3.07
849.713	0.88
849.882	0.95
850.051	1.3
850.219	1.44
850.388	1.96
850.556	-0.36
850.725	0.05
850.893	1.66
851.062	1.49
851.23	1.14
851.399	-0.36
851.567	1.48
851.736	1.22
851.904	1.06
852.073	1.71
852.241	2.43
852.41	2.21
852.578	0.38
852.746	0.38
852.915	2.28
853.083	1.75
853.251	-0.57
853.42	-0.15
853.588	1.2
853.756	2.56
853.924	1.43
854.093	1.22
854.261	1.05
854.429	-0.76
854.597	1.27
854.765	0.9
854.934	2.78
855.102	3.07
855.27	1.43
855.438	2.11
855.606	4.2
855.774	4.03
855.942	-0.38
856.11	-1.01
856.278	1.84
856.446	2.69
856.614	1.04
856.782	0.87
856.95	2.84
857.118	1.27
857.286	2.36
857.454	0.46
857.622	2.49
857.79	2.14
857.958	0.37
858.126	0.93
858.294	-0.37
858.462	1.24
858.629	0.69
858.797	0.56
858.965	2.08
859.133	1.09
859.301	1.33
859.468	1.74
859.636	1.77
859.804	4.36
859.971	3.9
860.139	0.29
860.307	3.25
860.474	1.86
860.642	-0
860.81	0.39
860.977	1.53
861.145	2.5
861.313	1.05
861.48	0.9
861.648	2.79
861.815	2.02
861.983	-0.18
862.15	-0.1
862.318	2.73
862.485	2.63
862.653	0.74
862.82	1
862.988	2.92
863.155	-0.66
863.322	-0
863.49	1.34
863.657	0.72
863.824	2.93
863.992	2.15
864.159	1.48
864.326	3.22
864.494	0.92
864.661	3.99
864.828	1.58
864.996	2.94
865.163	3.9
865.33	0.89
865.497	-1.63
865.664	0.82
865.832	-1.28
865.999	2.02
866.166	0.17
866.333	1.25
866.5	1.98
866.667	0.75
866.834	3.43
867.001	5.29
867.168	0.12
867.335	1.97
867.502	-0.57
867.669	3.05
867.836	5.41
868.003	1.58
868.17	3.24
868.337	1.54
868.504	5.17
868.671	-0.91
868.838	0.9
869.005	3.67
869.172	1.13
869.339	1.39
869.505	1.13
869.672	3.08
869.839	3.99
870.006	1.93
870.173	0.2
870.339	4.14
870.506	5.46
870.673	1.51
870.84	2.54
871.006	1.79
871.173	2.74
871.34	2.15
871.506	1.07
871.673	3.25
871.839	-1.06
872.006	2.63
872.173	1.28
872.339	1.86
872.506	4.58
872.672	1.38
872.839	-0.1
873.005	3.31
873.172	6.92
873.338	4.05
873.505	2.58
873.671	2.08
873.838	3.84
874.004	-1.26
874.171	0.17
874.337	2.26
874.503	4.83
874.67	1.86
874.836	1.6
875.002	4.78
875.169	2.97
875.335	1.13
875.501	1.66
875.668	4.28
875.834	2
876	0.66
876.166	3.05
876.332	4.2
876.499	5.3
876.665	2.34
876.831	2.17
876.997	5.12
877.163	4.04
877.329	2.85
877.495	2.61
877.662	2.47
877.828	3.57
877.994	2.54
878.16	-1.19
878.326	1.64
878.492	3.44
878.658	1.94
878.824	3.19
878.99	3.44
879.156	2.7
879.322	5.43
879.487	2.48
879.653	2.37
879.819	2.85
879.985	1.07
880.151	2.98
880.317	3.64
880.483	4.52
880.648	1.85
880.814	0.56
880.98	2.32
881.146	-1.62
881.312	1.16
881.477	1.8
881.643	2.78
881.809	4.82
881.974	4
882.14	-1.07
882.306	1.2
882.471	6.44
882.637	0.41
882.803	3.13
882.968	4.86
883.134	7.31
883.299	1.36
883.465	2.59
883.63	5.44
883.796	3.2
883.961	2.12
884.127	3.88
884.292	-2.71
884.458	-0.85
884.623	-0.85
