Data from Apollo_Calib_20240827__AbsoluteIrradiance__797__12-26-02-945.txt Node

Date: Wed Aug 28 12:26:02 BST 2024
User: biology
Spectrometer: FLMT08252
Trigger mode: 0
Integration Time (sec): 5.000000E-1
Scans to average: 5
Electric dark correction enabled: true
Nonlinearity correction enabled: false
Boxcar width: 0
XAxis mode: Wavelengths
Number of Pixels in Spectrum: 3648
>>>>>Begin Spectral Data<<<<<
179.588	-0
179.809	-0
180.03	-0
180.251	-0
180.473	-0
180.694	0
180.915	0
181.136	-0
181.357	0
181.578	-0
181.799	-0
182.02	-0
182.241	-0
182.462	-0
182.683	0
182.904	-0
183.125	0
183.346	0
183.567	0
183.788	0
184.009	0
184.23	0
184.451	0
184.672	0
184.892	0
185.113	0
185.334	0
185.555	0
185.776	0
185.996	0
186.217	0
186.438	0
186.659	0
186.879	0
187.1	0
187.321	0
187.541	0
187.762	0
187.983	0
188.203	0
188.424	0
188.644	0
188.865	0
189.086	0
189.306	0
189.527	0
189.747	0
189.968	0
190.188	0
190.409	0
190.629	0
190.849	0
191.07	0
191.29	0
191.511	0
191.731	0
191.951	0
192.172	0
192.392	0
192.612	0
192.833	0
193.053	0
193.273	0
193.493	0
193.714	0
193.934	0
194.154	0
194.374	0
194.594	0
194.815	0
195.035	0
195.255	0
195.475	0
195.695	0
195.915	0
196.135	0
196.355	0
196.575	0
196.795	0
197.015	0
197.235	0
197.455	0
197.675	0
197.895	0
198.115	0
198.335	0
198.555	0
198.775	0
198.995	0
199.214	0
199.434	0
199.654	0
199.874	0
200.094	4.17
200.313	3.13
200.533	2.45
200.753	1.65
200.973	3.68
201.192	4.04
201.412	1.4
201.632	1.81
201.851	3.66
202.071	2.02
202.291	1.93
202.51	1.12
202.73	2.57
202.95	2.06
203.169	1.5
203.389	1.51
203.608	2.15
203.828	1.13
204.047	1.52
204.267	2.14
204.486	2.21
204.706	2.42
204.925	1.93
205.145	1.2
205.364	2.41
205.583	3.41
205.803	1.34
206.022	1.21
206.242	1.81
206.461	1.64
206.68	1.05
206.9	1.64
207.119	2.77
207.338	1.84
207.557	1.14
207.777	1.27
207.996	1.45
208.215	2.28
208.434	1.17
208.654	0.71
208.873	1.46
209.092	2.17
209.311	1.23
209.53	1.18
209.749	0.94
209.968	1.06
210.187	0.72
210.407	0.54
210.626	1.19
210.845	1.45
211.064	1.14
211.283	0.78
211.502	1.58
211.721	1.11
211.94	1.2
212.159	1.24
212.377	1.69
212.596	1.47
212.815	1.1
213.034	1.39
213.253	1.28
213.472	1.25
213.691	0.99
213.91	0.47
214.128	0.83
214.347	1.45
214.566	0.55
214.785	0.26
215.003	1.35
215.222	1.28
215.441	0.97
215.66	0.56
215.878	0.96
216.097	1.18
216.316	0.71
216.534	0.76
216.753	1.09
216.972	0.8
217.19	0.87
217.409	0.66
217.627	0.72
217.846	0.74
218.064	0.93
218.283	0.55
218.501	1.49
218.72	1.2
218.938	0.7
219.157	0.61
219.375	1.05
219.594	1.1
219.812	0.71
220.031	0.42
220.249	1.23
220.467	1.27
220.686	0.71
220.904	0.54
221.122	0.73
221.341	1.16
221.559	0.85
221.777	0.43
221.995	0.58
222.214	1.01
222.432	0.52
222.65	0.86
222.868	0.71
223.086	0.86
223.305	0.85
223.523	0.69
223.741	1.18
223.959	0.66
224.177	0.41
224.395	0.44
224.613	0.86
224.831	0.95
225.049	0.44
225.267	0.51
225.485	0.91
225.703	0.56
225.921	0.64
226.139	0.51
226.357	0.73
226.575	0.86
226.793	0.59
227.011	1.58
227.229	0.83
227.447	0.8
227.665	0.49
227.883	0.29
228.1	0.72
228.318	0.76
228.536	0.17
228.754	0.37
228.972	0.8
229.189	0.77
229.407	0.6
229.625	0.56
229.843	0.84
230.06	0.7
230.278	0.43
230.496	0.57
230.713	0.72
230.931	1
231.149	0.4
231.366	0.28
231.584	0.45
231.801	0.92
232.019	0.45
232.236	0.36
232.454	0.49
232.671	0.64
232.889	0.4
233.106	0.4
233.324	0.57
233.541	0.51
233.759	0.5
233.976	0.34
234.194	0.55
234.411	0.57
234.628	0.36
234.846	0.55
235.063	0.56
235.28	0.55
235.498	0.61
235.715	0.3
235.932	0.67
236.149	0.51
236.367	0.38
236.584	0.55
236.801	0.49
237.018	0.67
237.236	0.5
237.453	0.32
237.67	0.69
237.887	0.66
238.104	0.49
238.321	0.37
238.538	0.37
238.755	0.69
238.973	0.29
239.19	0.44
239.407	0.62
239.624	0.46
239.841	0.28
240.058	0.3
240.275	0.52
240.492	0.47
240.709	0.4
240.925	0.4
241.142	0.52
241.359	0.35
241.576	0.36
241.793	0.35
242.01	0.54
242.227	0.65
242.444	0.51
242.66	0.53
242.877	0.54
243.094	0.36
243.311	0.38
243.527	0.44
243.744	0.56
243.961	0.6
244.178	0.39
244.394	0.4
244.611	0.55
244.828	0.71
245.044	0.4
245.261	0.44
245.477	0.48
245.694	0.59
245.911	0.38
246.127	0.51
246.344	0.67
246.56	0.57
246.777	0.42
246.993	0.4
247.21	0.47
247.426	0.48
247.643	0.33
247.859	0.31
248.076	0.32
248.292	0.7
248.508	0.42
248.725	0.48
248.941	0.46
249.157	0.61
249.374	0.37
249.59	0.38
249.806	0.39
250.023	0.51
250.239	0.37
250.455	0.28
250.671	0.47
250.888	0.5
251.104	0.41
251.32	0.4
251.536	0.37
251.752	0.44
251.969	0.41
252.185	0.31
252.401	0.71
252.617	0.44
252.833	0.3
253.049	0.4
253.265	0.41
253.481	0.38
253.697	0.37
253.913	0.36
254.129	0.5
254.345	0.48
254.561	0.38
254.777	0.35
254.993	0.45
255.209	0.37
255.425	0.35
255.641	0.33
255.857	0.47
256.073	0.46
256.288	0.28
256.504	0.35
256.72	0.46
256.936	0.55
257.152	0.29
257.367	0.31
257.583	0.37
257.799	0.46
258.015	0.3
258.23	0.29
258.446	0.51
258.662	0.34
258.877	0.29
259.093	0.27
259.309	0.43
259.524	0.35
259.74	0.33
259.955	0.25
260.171	0.37
260.387	0.45
260.602	0.45
260.818	0.45
261.033	0.35
261.249	0.43
261.464	0.32
261.68	0.26
261.895	0.46
262.11	0.42
262.326	0.31
262.541	0.21
262.757	0.52
262.972	0.5
263.187	0.33
263.403	0.39
263.618	0.47
263.833	0.36
264.049	0.25
264.264	0.36
264.479	0.38
264.694	0.49
264.91	0.25
265.125	0.33
265.34	0.45
265.555	0.55
265.77	0.35
265.986	0.26
266.201	0.42
266.416	0.47
266.631	0.28
266.846	0.29
267.061	0.47
267.276	0.41
267.491	0.2
267.706	0.4
267.921	0.36
268.136	0.32
268.351	0.29
268.566	0.22
268.781	0.49
268.996	0.49
269.211	0.36
269.426	0.28
269.641	0.38
269.856	0.45
270.071	0.24
270.285	0.27
270.5	0.41
270.715	0.45
270.93	0.31
271.145	0.33
271.359	0.45
271.574	0.31
271.789	0.33
272.004	0.26
272.218	0.31
272.433	0.46
272.648	0.25
272.862	0.36
273.077	0.42
273.292	0.38
273.506	0.26
273.721	0.3
273.936	0.39
274.15	0.38
274.365	0.29
274.579	0.37
274.794	0.36
275.008	0.46
275.223	0.19
275.437	0.34
275.652	0.38
275.866	0.41
276.081	0.27
276.295	0.39
276.509	0.36
276.724	0.32
276.938	0.29
277.153	0.39
277.367	0.38
277.581	0.26
277.796	0.25
278.01	0.19
278.224	0.4
278.438	0.47
278.653	0.25
278.867	0.25
279.081	0.39
279.295	0.3
279.51	0.39
279.724	0.2
279.938	0.36
280.152	0.33
280.366	0.31
280.58	0.34
280.794	0.4
281.008	0.36
281.222	0.37
281.437	0.45
281.651	0.32
281.865	0.39
282.079	0.33
282.293	0.17
282.507	0.26
282.721	0.33
282.935	0.29
283.148	0.22
283.362	0.31
283.576	0.23
283.79	0.28
284.004	0.23
284.218	0.4
284.432	0.23
284.646	0.32
284.859	0.25
285.073	0.27
285.287	0.32
285.501	0.28
285.714	0.29
285.928	0.32
286.142	0.34
286.356	0.24
286.569	0.22
286.783	0.4
286.997	0.4
287.21	0.26
287.424	0.25
287.637	0.28
287.851	0.27
288.065	0.34
288.278	0.3
288.492	0.31
288.705	0.28
288.919	0.36
289.132	0.15
289.346	0.34
289.559	0.15
289.773	0.21
289.986	0.25
290.2	0.23
290.413	0.37
290.626	0.22
290.84	0.27
291.053	0.33
291.267	0.37
291.48	0.31
291.693	0.28
291.906	0.25
292.12	0.24
292.333	0.26
292.546	0.22
292.76	0.42
292.973	0.28
293.186	0.27
293.399	0.22
293.612	0.38
293.826	0.31
294.039	0.25
294.252	0.24
294.465	0.36
294.678	0.31
294.891	0.26
295.104	0.26
295.317	0.2
295.53	0.26
295.743	0.27
295.956	0.23
296.169	0.34
296.382	0.33
296.595	0.24
296.808	0.2
297.021	0.38
297.234	0.33
297.447	0.25
297.66	0.29
297.873	0.34
298.086	0.32
298.299	0.23
298.511	0.15
298.724	0.3
298.937	0.22
299.15	0.21
299.363	0.26
299.575	0.4
299.788	0.29
300.001	0.24
300.213	0.22
300.426	0.26
300.639	0.21
300.852	0.18
301.064	0.31
301.277	0.32
301.489	0.28
301.702	0.27
301.915	0.25
302.127	0.26
302.34	0.3
302.552	0.29
302.765	0.22
302.977	0.34
303.19	0.23
303.402	0.23
303.615	0.21
303.827	0.27
304.04	0.23
304.252	0.26
304.464	0.25
304.677	0.38
304.889	0.25
305.102	0.25
305.314	0.18
305.526	0.24
305.739	0.3
305.951	0.18
306.163	0.21
306.375	0.39
306.588	0.21
306.8	0.21
307.012	0.21
307.224	0.28
307.436	0.35
307.649	0.2
307.861	0.24
308.073	0.32
308.285	0.23
308.497	0.17
308.709	0.22
308.921	0.25
309.133	0.33
309.346	0.21
309.558	0.22
309.77	0.32
309.982	0.33
310.194	0.3
310.406	0.2
310.617	0.36
310.829	0.28
311.041	0.34
311.253	0.21
311.465	0.27
311.677	0.29
311.889	0.29
312.101	0.22
312.313	0.33
312.524	0.33
312.736	0.16
312.948	0.24
313.16	0.32
313.372	0.32
313.583	0.3
313.795	0.26
314.007	0.2
314.218	0.3
314.43	0.29
314.642	0.22
314.853	0.17
315.065	0.32
315.277	0.19
315.488	0.29
315.7	0.37
315.912	0.3
316.123	0.26
316.335	0.24
316.546	0.43
316.758	0.23
316.969	0.25
317.181	0.26
317.392	0.26
317.604	0.3
317.815	0.17
318.026	0.17
318.238	0.22
318.449	0.28
318.661	0.19
318.872	0.19
319.083	0.21
319.295	0.27
319.506	0.21
319.717	0.25
319.929	0.29
320.14	0.29
320.351	0.26
320.562	0.19
320.774	0.26
320.985	0.28
321.196	0.25
321.407	0.14
321.618	0.32
321.829	0.31
322.041	0.28
322.252	0.27
322.463	0.28
322.674	0.28
322.885	0.2
323.096	0.29
323.307	0.25
323.518	0.26
323.729	0.26
323.94	0.19
324.151	0.27
324.362	0.28
324.573	0.25
324.784	0.27
324.995	0.33
325.206	0.29
325.417	0.2
325.628	0.22
325.838	0.27
326.049	0.31
326.26	0.29
326.471	0.2
326.682	0.27
326.892	0.27
327.103	0.22
327.314	0.21
327.525	0.32
327.735	0.27
327.946	0.25
328.157	0.21
328.368	0.32
328.578	0.26
328.789	0.32
328.999	0.28
329.21	0.23
329.421	0.32
329.631	0.25
329.842	0.22
330.052	0.25
330.263	0.29
330.473	0.27
330.684	0.23
330.894	0.28
331.105	0.28
331.315	0.24
331.526	0.2
331.736	0.36
331.947	0.31
332.157	0.31
332.367	0.18
332.578	0.28
332.788	0.35
332.999	0.27
333.209	0.25
333.419	0.25
333.629	0.31
333.84	0.28
334.05	0.26
334.26	0.33
334.47	0.26
334.681	0.32
334.891	0.19
335.101	0.28
335.311	0.37
335.521	0.25
335.732	0.21
335.942	0.32
336.152	0.28
336.362	0.26
336.572	0.28
336.782	0.3
336.992	0.2
337.202	0.24
337.412	0.21
337.622	0.29
337.832	0.26
338.042	0.27
338.252	0.21
338.462	0.26
338.672	0.26
338.882	0.25
339.092	0.28
339.302	0.31
339.511	0.29
339.721	0.23
339.931	0.21
340.141	0.31
340.351	0.34
340.561	0.28
340.77	0.28
340.98	0.3
341.19	0.3
341.4	0.23
341.609	0.25
341.819	0.24
342.029	0.24
342.238	0.3
342.448	0.21
342.658	0.33
342.867	0.24
343.077	0.27
343.286	0.26
343.496	0.26
343.706	0.33
343.915	0.2
344.125	0.28
344.334	0.3
344.544	0.21
344.753	0.21
344.963	0.23
345.172	0.2
345.381	0.22
345.591	0.23
345.8	0.2
346.01	0.34
346.219	0.33
346.428	0.12
346.638	0.28
346.847	0.29
347.056	0.34
347.266	0.27
347.475	0.23
347.684	0.29
347.893	0.27
348.103	0.24
348.312	0.2
348.521	0.25
348.73	0.26
348.94	0.26
349.149	0.22
349.358	0.26
349.567	0.23
349.776	0.2
349.985	0.23
350.194	0.35
350.403	0.32
350.612	0.12
350.821	0.19
351.03	0.24
351.239	0.19
351.448	0.24
351.657	0.26
351.866	0.36
352.075	0.3
352.284	0.21
352.493	0.18
352.702	0.34
352.911	0.28
353.12	0.24
353.329	0.22
353.538	0.33
353.746	0.22
353.955	0.24
354.164	0.26
354.373	0.22
354.582	0.29
354.79	0.24
354.999	0.29
355.208	0.26
355.416	0.36
355.625	0.16
355.834	0.23
356.042	0.28
356.251	0.21
356.46	0.18
356.668	0.24
356.877	0.35
357.085	0.29
357.294	0.14
357.503	0.26
357.711	0.26
357.92	0.42
358.128	0.25
358.337	0.22
358.545	0.26
358.754	0.22
358.962	0.31
359.17	0.22
359.379	0.24
359.587	0.29
359.796	0.28
360.004	0.32
360.212	0.29
360.421	0.31
360.629	0.27
360.837	0.22
361.046	0.26
361.254	0.44
361.462	0.24
361.67	0.18
361.879	0.29
362.087	0.3
362.295	0.23
362.503	0.2
362.711	0.14
362.92	0.21
363.128	0.23
363.336	0.21
363.544	0.19
363.752	0.23
363.96	0.18
364.168	0.18
364.376	0.26
364.584	0.3
364.792	0.29
365	0.29
365.208	0.27
365.416	0.32
365.624	0.27
365.832	0.22
366.04	0.34
366.248	0.28
366.456	0.3
366.664	0.24
366.872	0.24
367.079	0.24
367.287	0.23
367.495	0.26
367.703	0.23
367.911	0.21
368.118	0.23
368.326	0.24
368.534	0.21
368.742	0.33
368.949	0.2
369.157	0.2
369.365	0.3
369.572	0.24
369.78	0.23
369.988	0.31
370.195	0.28
370.403	0.28
370.61	0.25
370.818	0.22
371.026	0.31
371.233	0.25
371.441	0.26
371.648	0.23
371.856	0.33
372.063	0.25
372.271	0.27
372.478	0.23
372.685	0.24
372.893	0.3
373.1	0.24
373.308	0.23
373.515	0.35
373.722	0.31
373.93	0.24
374.137	0.31
374.344	0.36
374.552	0.34
374.759	0.28
374.966	0.22
375.173	0.23
375.381	0.31
375.588	0.23
375.795	0.16
376.002	0.22
376.209	0.22
376.417	0.28
376.624	0.29
376.831	0.33
377.038	0.24
377.245	0.15
377.452	0.23
377.659	0.29
377.866	0.24
378.073	0.27
378.28	0.25
378.487	0.33
378.694	0.31
378.901	0.24
379.108	0.28
379.315	0.29
379.522	0.37
379.729	0.28
379.936	0.22
380.143	0.29
380.35	0.22
380.557	0.26
380.763	0.26
380.97	0.29
381.177	0.3
381.384	0.27
381.591	0.21
381.797	0.29
382.004	0.3
382.211	0.29
382.418	0.29
382.624	0.31
382.831	0.35
383.038	0.28
383.244	0.26
383.451	0.24
383.658	0.3
383.864	0.28
384.071	0.19
384.277	0.37
384.484	0.29
384.69	0.36
384.897	0.27
385.103	0.23
385.31	0.26
385.516	0.24
385.723	0.21
385.929	0.28
386.136	0.27
386.342	0.31
386.549	0.25
386.755	0.36
386.961	0.28
387.168	0.27
387.374	0.3
387.58	0.31
387.787	0.31
387.993	0.29
388.199	0.26
388.406	0.3
388.612	0.27
388.818	0.26
389.024	0.21
389.231	0.28
389.437	0.39
389.643	0.32
389.849	0.3
390.055	0.29
390.261	0.28
390.467	0.29
390.674	0.28
390.88	0.3
391.086	0.34
391.292	0.26
391.498	0.33
391.704	0.28
391.91	0.3
392.116	0.27
392.322	0.19
392.528	0.33
392.734	0.26
392.94	0.3
393.146	0.29
393.352	0.33
393.557	0.3
393.763	0.3
393.969	0.35
394.175	0.28
394.381	0.28
394.587	0.24
394.792	0.22
394.998	0.4
395.204	0.38
395.41	0.34
395.615	0.29
395.821	0.32
396.027	0.37
396.233	0.3
396.438	0.3
396.644	0.36
396.85	0.34
397.055	0.33
397.261	0.34
397.466	0.34
397.672	0.37
397.878	0.31
398.083	0.35
398.289	0.31
398.494	0.4
398.7	0.4
398.905	0.23
399.111	0.42
399.316	0.28
399.522	0.35
399.727	0.32
399.932	0.31
400.138	0.34
400.343	0.34
400.549	0.33
400.754	0.37
400.959	0.36
401.165	0.35
401.37	0.36
401.575	0.51
401.78	0.44
401.986	0.38
402.191	0.34
402.396	0.34
402.601	0.4
402.807	0.43
403.012	0.39
403.217	0.51
403.422	0.44
403.627	0.39
403.832	0.38
404.037	0.46
404.243	0.46
404.448	0.35
404.653	0.38
404.858	0.45
405.063	0.45
405.268	0.37
405.473	0.38
405.678	0.38
405.883	0.65
406.088	0.51
406.293	0.38
406.498	0.48
406.703	0.51
406.907	0.47
407.112	0.41
407.317	0.48
407.522	0.57
407.727	0.48
407.932	0.53
408.136	0.62
408.341	0.48
408.546	0.63
408.751	0.55
408.956	0.57
409.16	0.69
409.365	0.6
409.57	0.62
409.774	0.59
409.979	0.69
410.184	0.69
410.388	0.61
410.593	0.76
410.798	0.7
411.002	0.67
411.207	0.83
411.411	0.86
411.616	0.74
411.82	0.79
412.025	0.84
412.229	0.82
412.434	0.94
412.638	0.86
412.843	0.86
413.047	0.93
413.252	0.89
413.456	1
413.66	1.04
413.865	0.99
414.069	1.14
414.273	1.07
414.478	1.06
414.682	1.12
414.886	1.2
415.091	1.12
415.295	1.19
415.499	1.39
415.703	1.27
415.908	1.44
416.112	1.34
416.316	1.49
416.52	1.52
416.724	1.45
416.929	1.54
417.133	1.79
417.337	1.65
417.541	1.74
417.745	1.76
417.949	1.87
418.153	1.97
418.357	1.9
418.561	2.12
418.765	2.12
418.969	2.3
419.173	2.27
419.377	2.3
419.581	2.53
419.785	2.5
419.989	2.56
420.193	2.72
420.397	2.78
420.601	2.93
420.804	3.03
421.008	2.94
421.212	3.12
421.416	3.16
421.62	3.12
421.823	3.22
422.027	3.4
422.231	3.31
422.435	3.38
422.638	3.4
422.842	3.57
423.046	3.57
423.249	3.72
423.453	3.76
423.657	3.94
423.86	3.99
424.064	4.19
424.268	4.3
424.471	4.25
424.675	4.56
424.878	4.51
425.082	4.75
425.285	4.97
425.489	4.88
425.692	5.1
425.896	4.99
426.099	5.25
426.303	5.31
426.506	5.57
426.71	5.75
426.913	5.93
427.116	6.15
427.32	6.04
427.523	6.21
427.726	6.46
427.93	6.6
428.133	6.9
428.336	6.98
428.54	7.14
428.743	7.4
428.946	7.59
429.149	7.58
429.353	7.64
429.556	7.78
429.759	7.78
429.962	7.84
430.165	8.07
430.368	7.73
430.571	7.81
430.775	7.88
430.978	7.88
431.181	7.93
431.384	7.93
431.587	8.1
431.79	8.49
431.993	8.41
432.196	8.75
432.399	9.07
432.602	9.3
432.805	9.29
433.008	9.86
433.211	9.7
433.414	10.08
433.616	10.21
433.819	9.97
434.022	10.19
434.225	10.28
434.428	10.35
434.631	10.82
434.833	10.61
435.036	10.86
435.239	11.03
435.442	11.06
435.645	11.26
435.847	11.35
436.05	11.74
436.253	11.82
436.455	11.83
436.658	11.9
436.861	12.12
437.063	12.22
437.266	12.09
437.468	12.45
437.671	12.88
437.874	12.79
438.076	12.57
438.279	13.14
438.481	13.14
438.684	13.99
438.886	13.54
439.089	13.83
439.291	13.93
439.494	14.15
439.696	14.41
439.899	14.91
440.101	15.2
440.303	15.54
440.506	16.06
440.708	15.91
440.91	16.17
441.113	16.32
441.315	16.64
441.517	16.43
441.72	16.93
441.922	16.44
442.124	16.52
442.326	16.85
442.529	17.08
442.731	17.1
442.933	17.32
443.135	17.13
443.337	17.22
443.539	17.62
443.742	17.39
443.944	18.1
444.146	17.67
444.348	17.68
444.55	17.59
444.752	17.83
444.954	17.75
445.156	17.78
445.358	18.24
445.56	18.45
445.762	18.28
445.964	18.6
446.166	18.32
446.368	18.39
446.57	18.23
446.772	17.95
446.974	17.81
447.175	18.14
447.377	17.73
447.579	18.18
447.781	17.96
447.983	17.72
448.184	17.32
448.386	17.73
448.588	17.1
448.79	17.14
448.991	17.58
449.193	17.3
449.395	16.9
449.597	16.53
449.798	16.46
450	15.92
450.202	15.82
450.403	15.97
450.605	15.78
450.806	15.54
451.008	15.26
451.21	15.08
451.411	14.68
451.613	13.88
451.814	14.15
452.016	14.19
452.217	13.49
452.419	13.49
452.62	13.11
452.821	12.93
453.023	12.67
453.224	12.42
453.426	12.03
453.627	11.31
453.828	11.32
454.03	11.56
454.231	11.47
454.432	11.34
454.634	10.99
454.835	10.79
455.036	10.68
455.238	10.22
455.439	10.06
455.64	9.76
455.841	9.58
456.042	9.75
456.244	9.39
456.445	9.01
456.646	8.76
456.847	8.68
457.048	8.66
457.249	8.68
457.45	8.5
457.651	7.86
457.852	7.78
458.054	7.48
458.255	7.38
458.456	7.48
458.657	7.33
458.858	6.84
459.058	6.79
459.259	6.91
459.46	6.6
459.661	6.6
459.862	6.67
460.063	6.46
460.264	6.43
460.465	6.06
460.666	6.24
460.866	5.86
461.067	5.65
461.268	5.71
461.469	5.66
461.67	5.55
461.87	5.29
462.071	5.34
462.272	5.22
462.473	5.21
462.673	5.4
462.874	5.2
463.075	5.27
463.275	5.19
463.476	5.27
463.676	5.22
463.877	5.02
464.078	5.08
464.278	5.13
464.479	4.97
464.679	4.86
464.88	4.75
465.08	4.8
465.281	4.57
465.481	4.53
465.682	4.19
465.882	4.27
466.083	4.27
466.283	4.21
466.483	4.09
466.684	3.79
466.884	3.69
467.085	3.81
467.285	3.87
467.485	3.71
467.686	3.63
467.886	3.48
468.086	3.47
468.286	3.47
468.487	3.6
468.687	3.32
468.887	3.35
469.087	3.49
469.287	3.37
469.488	3.16
469.688	3.24
469.888	3.27
470.088	3.22
470.288	3.17
470.488	3.1
470.688	2.97
470.888	2.98
471.088	2.78
471.288	2.88
471.488	2.85
471.688	2.82
471.888	2.75
472.088	2.9
472.288	2.79
472.488	2.66
472.688	2.64
472.888	2.7
473.088	2.64
473.288	2.52
473.488	2.53
473.688	2.65
473.887	2.56
474.087	2.48
474.287	2.53
474.487	2.43
474.687	2.47
474.886	2.46
475.086	2.35
475.286	2.41
475.486	2.36
475.685	2.28
475.885	2.29
476.085	2.37
476.284	2.28
476.484	2.31
476.684	2.26
476.883	2.34
477.083	2.24
477.282	2.17
477.482	2.18
477.681	2.21
477.881	2.14
478.08	2.15
478.28	2.09
478.479	2.18
478.679	2.23
478.878	2.03
479.078	2.01
479.277	2.13
479.477	2.09
479.676	2.05
479.875	2.07
480.075	2.02
480.274	2.06
480.473	2.08
480.673	2.02
480.872	2.11
481.071	2.1
481.271	2.11
481.47	2.02
481.669	2.05
481.868	1.98
482.067	2.01
482.267	1.93
482.466	1.99
482.665	1.96
482.864	1.95
483.063	1.98
483.262	2.04
483.461	2.05
483.661	2.09
483.86	2.01
484.059	2.08
484.258	2.06
484.457	2.03
484.656	2.03
484.855	2.14
485.054	1.94
485.253	2.02
485.452	2
485.651	2.09
485.849	2.04
486.048	2.03
486.247	2.06
486.446	2.12
486.645	2.07
486.844	2.08
487.043	2.06
487.241	2.07
487.44	2.13
487.639	2.16
487.838	2.12
488.037	2.16
488.235	2.21
488.434	2.18
488.633	2.07
488.831	2.28
489.03	2.26
489.229	2.25
489.427	2.24
489.626	2.31
489.825	2.29
490.023	2.34
490.222	2.3
490.42	2.35
490.619	2.37
490.817	2.37
491.016	2.34
491.214	2.39
491.413	2.46
491.611	2.37
491.81	2.45
492.008	2.48
492.207	2.54
492.405	2.55
492.604	2.44
492.802	2.58
493	2.62
493.199	2.62
493.397	2.63
493.595	2.67
493.794	2.67
493.992	2.8
494.19	2.75
494.388	2.83
494.587	2.75
494.785	2.78
494.983	2.78
495.181	2.85
495.379	2.9
495.578	2.96
495.776	2.95
495.974	2.89
496.172	2.95
496.37	3.08
496.568	3.13
496.766	3.08
496.964	3.17
497.162	3.16
497.36	3.21
497.558	3.23
497.756	3.33
497.954	3.26
498.152	3.36
498.35	3.42
498.548	3.41
498.746	3.41
498.944	3.33
499.142	3.48
499.34	3.55
499.538	3.63
499.736	3.5
499.933	3.58
500.131	3.67
500.329	3.78
500.527	3.77
500.725	3.83
500.922	3.8
501.12	3.83
501.318	3.95
501.516	3.94
501.713	4.03
501.911	3.94
502.109	3.96
502.306	4.09
502.504	3.95
502.701	4.11
502.899	4.14
503.097	4.38
503.294	4.19
503.492	4.34
503.689	4.35
503.887	4.32
504.084	4.43
504.282	4.4
504.479	4.39
504.677	4.57
504.874	4.44
505.072	4.43
505.269	4.63
505.466	4.64
505.664	4.73
505.861	4.6
506.059	4.74
506.256	4.73
506.453	4.86
506.651	4.95
506.848	4.96
507.045	4.92
507.242	4.97
507.44	4.97
507.637	5.02
507.834	5.06
508.031	5.26
508.229	5.1
508.426	5.08
508.623	5.25
508.82	5.23
509.017	5.23
509.214	5.27
509.411	5.41
509.608	5.32
509.805	5.5
510.003	5.42
510.2	5.49
510.397	5.64
510.594	5.49
510.791	5.54
510.988	5.62
511.184	5.58
511.381	5.49
511.578	5.65
511.775	5.79
511.972	5.78
512.169	5.8
512.366	5.77
512.563	5.93
512.76	5.94
512.956	5.98
513.153	5.95
513.35	5.91
513.547	5.91
513.744	6.01
513.94	6
514.137	6.15
514.334	6.13
514.53	6.15
514.727	6.37
514.924	6.22
515.12	6.23
515.317	6.26
515.514	6.2
515.71	6.06
515.907	6.47
516.103	6.37
516.3	6.32
516.497	6.47
516.693	6.46
516.89	6.49
517.086	6.44
517.283	6.55
517.479	6.39
517.676	6.62
517.872	6.66
518.068	6.61
518.265	6.57
518.461	6.54
518.658	6.67
518.854	6.64
519.05	6.82
519.247	6.8
519.443	6.74
519.639	6.85
519.836	6.73
520.032	6.69
520.228	6.9
520.424	6.89
520.621	6.9
520.817	6.93
521.013	6.88
521.209	7.01
521.405	7.05
521.601	7
521.798	6.97
521.994	7.01
522.19	6.93
522.386	6.99
522.582	7.1
522.778	7.22
522.974	7.09
523.17	7.06
523.366	7.09
523.562	7.15
523.758	7.14
523.954	7.04
524.15	7.21
524.346	7.21
524.542	7.26
524.738	7.17
524.934	7.31
525.129	7.24
525.325	7.24
525.521	7.27
525.717	7.44
525.913	7.27
526.109	7.3
526.304	7.38
526.5	7.36
526.696	7.47
526.892	7.37
527.087	7.57
527.283	7.53
527.479	7.49
527.674	7.29
527.87	7.44
528.066	7.47
528.261	7.47
528.457	7.41
528.653	7.59
528.848	7.57
529.044	7.66
529.239	7.51
529.435	7.49
529.63	7.45
529.826	7.49
530.021	7.57
530.217	7.61
530.412	7.56
530.608	7.58
530.803	7.62
530.999	7.53
531.194	7.59
531.389	7.73
531.585	7.72
531.78	7.8
531.975	7.68
532.171	7.77
532.366	7.68
532.561	7.73
532.757	7.61
532.952	7.88
533.147	7.61
533.342	7.82
533.538	7.67
533.733	7.87
533.928	7.53
534.123	7.71
534.318	7.77
534.513	7.74
534.709	7.94
534.904	7.78
535.099	7.85
535.294	7.87
535.489	7.85
535.684	7.82
535.879	7.8
536.074	7.92
536.269	7.84
536.464	7.94
536.659	7.84
536.854	7.88
537.049	8.01
537.244	7.91
537.439	7.87
537.634	7.85
537.828	7.94
538.023	7.87
538.218	7.91
538.413	7.85
538.608	7.9
538.803	7.86
538.997	7.9
539.192	7.95
539.387	7.89
539.582	7.9
539.776	7.86
539.971	8
540.166	8.01
540.36	7.85
540.555	8
540.75	7.95
540.944	7.98
541.139	7.95
541.334	8
541.528	7.97
541.723	8.02
541.917	8.02
542.112	7.88
542.306	7.83
542.501	7.88
542.695	7.97
542.89	7.93
543.084	8
543.279	7.96
543.473	8.06
543.668	8.05
543.862	7.9
544.056	7.96
544.251	8.04
544.445	8.06
544.64	8.13
544.834	7.8
545.028	7.66
545.222	7.98
545.417	8.18
545.611	8.07
545.805	8.01
546	7.83
546.194	8.02
546.388	8.05
546.582	7.99
546.776	7.98
546.97	8.04
547.165	8.02
547.359	7.98
547.553	7.98
547.747	8.03
547.941	8.24
548.135	8
548.329	8.06
548.523	8.05
548.717	7.97
548.911	7.99
549.105	7.95
549.299	8.15
549.493	8.06
549.687	7.97
549.881	8.11
550.075	8.11
550.269	7.95
550.463	8.12
550.657	8.02
550.85	8.07
551.044	8.06
551.238	8.08
551.432	8.06
551.626	8.07
551.82	8.12
552.013	8.01
552.207	8.12
552.401	8.12
552.594	8.01
552.788	8.05
552.982	8.06
553.176	8.03
553.369	8.22
553.563	8.13
553.756	8.01
553.95	8.16
554.144	8.14
554.337	8.1
554.531	7.94
554.724	8.13
554.918	8.17
555.111	8.01
555.305	8.08
555.498	8.09
555.692	8.16
555.885	8.12
556.079	8
556.272	8.13
556.466	8.06
556.659	8.04
556.852	8.13
557.046	7.97
557.239	7.98
557.432	8
557.626	8.11
557.819	8.12
558.012	8.13
558.206	8.21
558.399	8.19
558.592	8.04
558.785	8.02
558.979	8.11
559.172	8.07
559.365	8.15
559.558	8.06
559.751	8
559.944	8.22
560.138	8.07
560.331	8.07
560.524	8.12
560.717	8.09
560.91	8.03
561.103	8.14
561.296	7.99
561.489	8.15
561.682	8.17
561.875	8.14
562.068	8.19
562.261	8.01
562.454	8.22
562.647	8.06
562.84	8.18
563.032	8.1
563.225	8.03
563.418	7.99
563.611	8.11
563.804	8.1
563.997	7.94
564.19	7.89
564.382	8.22
564.575	8.1
564.768	8.01
564.961	8.19
565.153	8.08
565.346	7.94
565.539	8.14
565.731	8.08
565.924	8.12
566.117	8.18
566.309	8.14
566.502	8.05
566.695	7.94
566.887	8.08
567.08	8.07
567.272	8.14
567.465	7.96
567.657	8.07
567.85	7.96
568.042	8.08
568.235	8.12
568.427	7.93
568.62	8.06
568.812	8.06
569.005	8.05
569.197	7.9
569.389	8.09
569.582	8.07
569.774	8.03
569.966	7.96
570.159	7.9
570.351	7.95
570.543	7.95
570.736	7.99
570.928	7.87
571.12	8
571.312	7.96
571.505	7.76
571.697	8.01
571.889	7.95
572.081	7.95
572.273	7.92
572.465	7.98
572.658	7.98
572.85	7.94
573.042	8.02
573.234	7.87
573.426	7.97
573.618	7.93
573.81	7.99
574.002	7.84
574.194	7.98
574.386	7.88
574.578	7.8
574.77	7.91
574.962	7.93
575.154	7.77
575.346	7.92
575.538	7.87
575.729	7.84
575.921	7.94
576.113	7.94
576.305	7.88
576.497	8.03
576.689	7.82
576.88	7.77
577.072	7.89
577.264	7.81
577.456	7.87
577.647	7.86
577.839	7.96
578.031	7.81
578.223	7.81
578.414	7.71
578.606	7.77
578.798	7.87
578.989	7.81
579.181	7.87
579.372	7.84
579.564	7.85
579.755	7.72
579.947	7.75
580.139	7.83
580.33	7.65
580.522	7.77
580.713	7.71
580.905	7.69
581.096	7.79
581.287	7.66
581.479	7.7
581.67	7.76
581.862	7.71
582.053	7.7
582.244	7.47
582.436	7.87
582.627	7.61
582.818	7.59
583.01	7.54
583.201	7.64
583.392	7.59
583.583	7.56
583.775	7.48
583.966	7.55
584.157	7.61
584.348	7.67
584.54	7.55
584.731	7.56
584.922	7.52
585.113	7.43
585.304	7.53
585.495	7.51
585.686	7.65
585.877	7.59
586.068	7.63
586.259	7.49
586.45	7.54
586.641	7.5
586.832	7.58
587.023	7.44
587.214	7.48
587.405	7.5
587.596	7.32
587.787	7.4
587.978	7.43
588.169	7.38
588.36	7.3
588.551	7.4
588.742	7.38
588.932	7.47
589.123	7.24
589.314	7.47
589.505	7.27
589.696	7.34
589.886	7.31
590.077	7.31
590.268	7.29
590.458	7.21
590.649	7.12
590.84	7.28
591.03	7.3
591.221	7.22
591.412	7.13
591.602	7.37
591.793	7.24
591.984	7.25
592.174	7.19
592.365	7.42
592.555	7.1
592.746	7.11
592.936	7.08
593.127	7.17
593.317	7.15
593.508	7.18
593.698	7.03
593.889	7.06
594.079	7.02
594.269	7.02
594.46	6.96
594.65	7.08
594.84	7.03
595.031	6.88
595.221	6.97
595.411	7.01
595.602	6.99
595.792	6.94
595.982	6.84
596.172	6.97
596.363	6.91
596.553	6.89
596.743	6.92
596.933	6.84
597.123	6.81
597.314	6.75
597.504	6.76
597.694	6.86
597.884	6.78
598.074	6.84
598.264	6.72
598.454	6.8
598.644	6.72
598.834	6.7
599.024	6.58
599.214	6.71
599.404	6.79
599.594	6.73
599.784	6.62
599.974	6.74
600.164	6.71
600.354	6.56
600.544	6.54
600.734	6.61
600.924	6.6
601.114	6.46
601.303	6.46
601.493	6.54
601.683	6.54
601.873	6.53
602.063	6.4
602.252	6.47
602.442	6.38
602.632	6.4
602.821	6.37
603.011	6.46
603.201	6.43
603.39	6.41
603.58	6.24
603.77	6.36
603.959	6.45
604.149	6.34
604.339	6.34
604.528	6.43
604.718	6.38
604.907	6.27
605.097	6.24
605.286	6.17
605.476	6.23
605.665	6.17
605.855	6.18
606.044	6.29
606.234	6.16
606.423	6.17
606.612	6.14
606.802	6.05
606.991	6.18
607.181	6.15
607.37	6.11
607.559	5.95
607.749	6.09
607.938	5.94
608.127	6.01
608.316	6
608.506	5.99
608.695	6.07
608.884	5.93
609.073	6
609.263	5.98
609.452	6.01
609.641	5.83
609.83	5.83
610.019	5.97
610.208	5.88
610.397	5.8
610.586	5.84
610.775	5.81
610.965	5.78
611.154	5.63
611.343	5.77
611.532	5.65
611.721	5.76
611.91	5.73
612.099	5.68
612.287	5.59
612.476	5.58
612.665	5.7
612.854	5.55
613.043	5.65
613.232	5.62
613.421	5.5
613.61	5.6
613.798	5.55
613.987	5.61
614.176	5.53
614.365	5.52
614.554	5.51
614.742	5.53
614.931	5.38
615.12	5.51
615.309	5.47
615.497	5.31
615.686	5.26
615.875	5.33
616.063	5.35
616.252	5.3
616.44	5.35
616.629	5.3
616.818	5.3
617.006	5.23
617.195	5.2
617.383	5.24
617.572	5.15
617.76	5.14
617.949	5.19
618.137	5.25
618.326	5.26
618.514	4.93
618.703	4.98
618.891	5.2
619.079	5.08
619.268	5.17
619.456	5.01
619.644	5.06
619.833	4.98
620.021	4.99
620.209	4.89
620.398	4.97
620.586	4.88
620.774	4.9
620.962	4.91
621.151	4.98
621.339	4.96
621.527	4.81
621.715	4.82
621.903	4.89
622.092	4.78
622.28	4.9
622.468	4.68
622.656	4.76
622.844	4.79
623.032	4.8
623.22	4.63
623.408	4.75
623.596	4.71
623.784	4.72
623.972	4.63
624.16	4.62
624.348	4.71
624.536	4.7
624.724	4.57
624.912	4.63
625.1	4.66
625.288	4.64
625.476	4.45
625.664	4.6
625.851	4.46
626.039	4.45
626.227	4.41
626.415	4.49
626.603	4.35
626.79	4.44
626.978	4.48
627.166	4.45
627.354	4.38
627.541	4.35
627.729	4.2
627.917	4.53
628.104	4.43
628.292	4.24
628.48	4.28
628.667	4.27
628.855	4.35
629.042	4.34
629.23	4.22
629.418	4.3
629.605	4.2
629.793	4.1
629.98	4.17
630.168	4.15
630.355	4.2
630.543	4.13
630.73	4.06
630.917	4.07
631.105	4.25
631.292	4.11
631.48	4.07
631.667	4.19
631.854	4.04
632.042	3.93
632.229	3.94
632.416	4.04
632.604	3.99
632.791	3.87
632.978	3.93
633.165	3.92
633.353	4
633.54	3.97
633.727	3.84
633.914	3.84
634.101	3.79
634.289	3.86
634.476	3.83
634.663	3.74
634.85	3.79
635.037	3.72
635.224	3.71
635.411	3.82
635.598	3.73
635.785	3.76
635.972	3.71
636.159	3.75
636.346	3.68
636.533	3.61
636.72	3.62
636.907	3.63
637.094	3.65
637.281	3.45
637.468	3.58
637.655	3.54
637.842	3.57
638.029	3.49
638.215	3.54
638.402	3.48
638.589	3.43
638.776	3.47
638.963	3.37
639.149	3.54
639.336	3.54
639.523	3.43
639.709	3.35
639.896	3.31
640.083	3.42
640.27	3.43
640.456	3.38
640.643	3.39
640.829	3.3
641.016	3.25
641.203	3.26
641.389	3.3
641.576	3.27
641.762	3.29
641.949	3.2
642.135	3.29
642.322	3.19
642.508	3.15
642.695	3.22
642.881	3.11
643.068	3.15
643.254	3.12
643.441	3.15
643.627	3.18
643.813	3.01
644	3.14
644.186	2.96
644.372	3.17
644.559	3.11
644.745	3.03
644.931	2.95
645.118	3.03
645.304	3.04
645.49	2.99
645.676	2.99
645.862	2.95
646.049	3.05
646.235	2.97
646.421	3.09
646.607	3.04
646.793	2.89
646.979	2.82
647.165	2.89
647.352	2.84
647.538	2.83
647.724	2.81
647.91	2.78
648.096	2.88
648.282	2.87
648.468	2.8
648.654	2.79
648.84	2.77
649.026	2.75
649.212	2.7
649.397	2.68
649.583	2.71
649.769	2.72
649.955	2.7
650.141	2.74
650.327	2.72
650.513	2.6
650.698	2.66
650.884	2.52
651.07	2.71
651.256	2.61
651.442	2.58
651.627	2.53
651.813	2.67
651.999	2.56
652.184	2.62
652.37	2.56
652.556	2.52
652.741	2.58
652.927	2.43
653.113	2.5
653.298	2.52
653.484	2.44
653.669	2.44
653.855	2.44
654.04	2.53
654.226	2.47
654.412	2.41
654.597	2.3
654.782	2.45
654.968	2.43
655.153	2.38
655.339	2.31
655.524	2.3
655.71	2.37
655.895	2.29
656.08	2.32
656.266	2.37
656.451	2.32
656.636	2.28
656.822	2.31
657.007	2.28
657.192	2.25
657.378	2.24
657.563	2.26
657.748	2.26
657.933	2.28
658.118	2.19
658.304	2.18
658.489	2.3
658.674	2.23
658.859	2.09
659.044	2.15
659.229	2.21
659.414	2.14
659.599	2.12
659.785	2.02
659.97	2.1
660.155	2.13
660.34	2.12
660.525	2.1
660.71	2.08
660.895	2.1
661.08	2.06
661.264	2.01
661.449	2.1
661.634	2.05
661.819	2.05
662.004	2.03
662.189	1.92
662.374	1.99
662.559	1.96
662.743	1.92
662.928	1.99
663.113	1.89
663.298	1.93
663.483	1.96
663.667	1.97
663.852	1.9
664.037	1.98
664.221	1.9
664.406	1.98
664.591	1.92
664.775	1.93
664.96	1.86
665.145	1.86
665.329	1.98
665.514	1.82
665.698	1.81
665.883	1.78
666.068	1.9
666.252	1.81
666.437	1.78
666.621	1.83
666.806	1.82
666.99	1.78
667.174	1.77
667.359	1.89
667.543	1.74
667.728	1.73
667.912	1.68
668.096	1.76
668.281	1.67
668.465	1.78
668.649	1.71
668.834	1.69
669.018	1.71
669.202	1.69
669.387	1.66
669.571	1.73
669.755	1.67
669.939	1.68
670.124	1.68
670.308	1.69
670.492	1.66
670.676	1.57
670.86	1.55
671.044	1.54
671.228	1.64
671.413	1.61
671.597	1.58
671.781	1.6
671.965	1.65
672.149	1.56
672.333	1.6
672.517	1.55
672.701	1.65
672.885	1.56
673.069	1.48
673.253	1.6
673.437	1.54
673.621	1.53
673.804	1.55
673.988	1.55
674.172	1.51
674.356	1.36
674.54	1.54
674.724	1.68
674.908	1.42
675.091	1.52
675.275	1.48
675.459	1.58
675.643	1.54
675.826	1.5
676.01	1.47
676.194	1.5
676.377	1.46
676.561	1.51
676.745	1.4
676.928	1.46
677.112	1.47
677.296	1.36
677.479	1.33
677.663	1.34
677.846	1.38
678.03	1.39
678.213	1.31
678.397	1.39
678.58	1.36
678.764	1.35
678.947	1.3
679.131	1.38
679.314	1.39
679.498	1.31
679.681	1.36
679.865	1.39
680.048	1.34
680.231	1.28
680.415	1.3
680.598	1.28
680.781	1.27
680.965	1.31
681.148	1.3
681.331	1.23
681.514	1.34
681.698	1.2
681.881	1.3
682.064	1.33
682.247	1.32
682.43	1.15
682.614	1.19
682.797	1.32
682.98	1.24
683.163	1.14
683.346	1.24
683.529	1.23
683.712	1.14
683.895	1.28
684.078	1.11
684.261	1.19
684.444	1.24
684.627	1.18
684.81	1.16
684.993	1.14
685.176	1.24
685.359	1.04
685.542	1.11
685.725	1.21
685.908	1.23
686.091	1.14
686.274	1.2
686.457	1.17
686.639	1.18
686.822	1.19
687.005	1.14
687.188	1.18
687.371	1.27
687.553	1.13
687.736	1.16
687.919	1.29
688.102	1.14
688.284	1.08
688.467	1.03
688.65	1.09
688.832	1.05
689.015	1.03
689.197	0.95
689.38	1.17
689.563	1.14
689.745	1.02
689.928	0.98
690.11	1.06
690.293	1.04
690.475	0.94
690.658	1.06
690.84	1
691.023	0.99
691.205	0.99
691.388	1.03
691.57	1.1
691.752	1.05
691.935	0.86
692.117	0.89
692.3	1.02
692.482	1.01
692.664	0.93
692.847	0.97
693.029	1.1
693.211	1.06
693.393	0.91
693.576	0.94
693.758	0.95
693.94	0.95
694.122	0.93
694.304	0.93
694.487	0.86
694.669	1.03
694.851	0.82
695.033	0.94
695.215	0.87
695.397	0.89
695.579	0.92
695.761	0.86
695.943	0.83
696.125	1.02
696.308	0.87
696.49	0.85
696.671	0.99
696.853	0.88
697.035	1.07
697.217	0.86
697.399	0.91
697.581	0.83
697.763	0.88
697.945	0.83
698.127	0.91
698.309	0.86
698.491	0.82
698.672	0.92
698.854	0.87
699.036	0.94
699.218	0.86
699.399	0.87
699.581	0.94
699.763	0.86
699.945	0.78
700.126	0.75
700.308	0.78
700.49	0.79
700.671	0.67
700.853	0.68
701.035	0.77
701.216	0.81
701.398	0.74
701.579	0.75
701.761	0.88
701.943	0.72
702.124	0.76
702.306	0.79
702.487	0.97
702.669	0.79
702.85	0.72
703.031	0.64
703.213	0.86
703.394	0.87
703.576	0.71
703.757	0.97
703.938	0.81
704.12	1.02
704.301	0.82
704.483	0.73
704.664	0.76
704.845	0.88
705.026	0.78
705.208	0.77
705.389	0.81
705.57	0.75
705.751	0.71
705.933	0.75
706.114	0.89
706.295	0.77
706.476	0.64
706.657	0.78
706.838	0.74
707.02	0.8
707.201	0.71
707.382	0.67
707.563	0.79
707.744	0.71
707.925	0.68
708.106	0.61
708.287	0.71
708.468	0.81
708.649	0.66
708.83	0.7
709.011	0.67
709.192	0.74
709.373	0.67
709.554	0.69
709.734	0.76
709.915	0.74
710.096	0.71
710.277	0.52
710.458	0.67
710.639	0.77
710.819	0.52
711	0.57
711.181	0.78
711.362	0.77
711.542	0.71
711.723	0.62
711.904	0.78
712.085	0.74
712.265	0.69
712.446	0.59
712.627	0.67
712.807	0.62
712.988	0.68
713.168	0.55
713.349	0.72
713.53	0.56
713.71	0.5
713.891	0.5
714.071	0.65
714.252	0.65
714.432	0.59
714.613	0.54
714.793	0.67
714.974	0.73
715.154	0.67
715.334	0.71
715.515	0.75
715.695	0.54
715.876	0.59
716.056	0.57
716.236	0.57
716.417	0.59
716.597	0.51
716.777	0.8
716.957	0.6
717.138	0.58
717.318	0.55
717.498	0.45
717.678	0.54
717.859	0.61
718.039	0.49
718.219	0.63
718.399	0.52
718.579	0.58
718.759	0.49
718.939	0.63
719.12	0.5
719.3	0.58
719.48	0.35
719.66	0.46
719.84	0.63
720.02	0.54
720.2	0.49
720.38	0.47
720.56	0.67
720.74	0.45
720.92	0.56
721.1	0.75
721.279	0.63
721.459	0.63
721.639	0.45
721.819	0.54
721.999	0.55
722.179	0.57
722.359	0.41
722.538	0.53
722.718	0.63
722.898	0.56
723.078	0.59
723.257	0.48
723.437	0.66
723.617	0.55
723.797	0.51
723.976	0.51
724.156	0.65
724.336	0.73
724.515	0.74
724.695	0.34
724.874	0.56
725.054	0.62
725.234	0.49
725.413	0.57
725.593	0.49
725.772	0.55
725.952	0.55
726.131	0.57
726.311	0.52
726.49	0.57
726.67	0.47
726.849	0.41
727.028	0.6
727.208	0.44
727.387	0.49
727.567	0.44
727.746	0.58
727.925	0.58
728.105	0.38
728.284	0.49
728.463	0.5
728.643	0.56
728.822	0.33
729.001	0.45
729.18	0.49
729.359	0.61
729.539	0.51
729.718	0.52
729.897	0.58
730.076	0.44
730.255	0.34
730.434	0.47
730.614	0.68
730.793	0.66
730.972	0.4
731.151	0.44
731.33	0.59
731.509	0.55
731.688	0.5
731.867	0.46
732.046	0.36
732.225	0.74
732.404	0.46
732.583	0.4
732.762	0.62
732.941	0.58
733.12	0.57
733.298	0.51
733.477	0.64
733.656	0.37
733.835	0.4
734.014	0.62
734.193	0.43
734.371	0.56
734.55	0.58
734.729	0.36
734.908	0.41
735.086	0.56
735.265	0.52
735.444	0.28
735.623	0.31
735.801	0.47
735.98	0.47
736.159	0.4
736.337	0.54
736.516	0.53
736.694	0.48
736.873	0.49
737.052	0.79
737.23	0.65
737.409	0.47
737.587	0.72
737.766	0.39
737.944	0.58
738.123	0.52
738.301	0.6
738.479	0.46
738.658	0.53
738.836	0.39
739.015	0.47
739.193	0.61
739.371	0.34
739.55	0.49
739.728	0.44
739.906	0.68
740.085	0.63
740.263	0.47
740.441	0.25
740.62	0.64
740.798	0.49
740.976	0.32
741.154	0.44
741.332	0.64
741.511	0.41
741.689	0.56
741.867	0.52
742.045	0.54
742.223	0.49
742.401	0.37
742.579	0.49
742.757	0.42
742.935	0.21
743.114	0.37
743.292	0.38
743.47	0.49
743.648	0.52
743.826	0.48
744.004	0.55
744.181	0.61
744.359	0.4
744.537	0.47
744.715	0.35
744.893	0.46
745.071	0.56
745.249	0.37
745.427	0.45
745.605	0.45
745.782	0.48
745.96	0.48
746.138	0.53
746.316	0.48
746.493	0.41
746.671	0.45
746.849	0.31
747.027	0.59
747.204	0.36
747.382	0.51
747.56	0.34
747.737	0.45
747.915	0.35
748.093	0.47
748.27	0.29
748.448	0.39
748.625	0.31
748.803	0.32
748.98	0.37
749.158	0.56
749.335	0.45
749.513	0.42
749.69	0.38
749.868	0.39
750.045	0.4
750.223	0.29
750.4	0.23
750.578	0.62
750.755	0.34
750.932	0.34
751.11	0.41
751.287	0.31
751.464	0.67
751.642	0.35
751.819	0.37
751.996	0.4
752.173	0.27
752.351	0.25
752.528	0.42
752.705	0.43
752.882	0.35
753.06	0.47
753.237	0.34
753.414	0.65
753.591	0.57
753.768	0.46
753.945	0.25
754.122	0.39
754.299	0.57
754.476	0.31
754.654	0.38
754.831	0.52
755.008	0.48
755.185	0.3
755.362	0.2
755.539	0.44
755.716	0.37
755.892	0.37
756.069	0.42
756.246	0.43
756.423	0.31
756.6	0.55
756.777	0.29
756.954	0.52
757.131	0.36
757.307	0.28
757.484	0.26
757.661	0.45
757.838	0.45
758.015	0.19
758.191	0.45
758.368	0.39
758.545	0.67
758.721	0.47
758.898	0.22
759.075	0.43
759.251	0.43
759.428	0.38
759.605	0.12
759.781	0.37
759.958	0.33
760.134	0.41
760.311	0.29
760.488	0.54
760.664	0.58
760.841	0.32
761.017	0.21
761.194	0.38
761.37	0.56
761.547	0.38
761.723	0.24
761.899	0.52
762.076	0.31
762.252	0.25
762.429	0.33
762.605	0.41
762.781	0.34
762.958	0.51
763.134	0.28
763.31	0.24
763.486	0.68
763.663	0.14
763.839	0.48
764.015	0.18
764.191	0.27
764.368	0.37
764.544	0.27
764.72	0.45
764.896	0.38
765.072	0.38
765.248	0.36
765.425	0.32
765.601	0.43
765.777	0.33
765.953	0.14
766.129	0.24
766.305	0.22
766.481	0.36
766.657	0.48
766.833	0.64
767.009	0.11
767.185	0.29
767.361	0.25
767.537	0.26
767.713	0.59
767.889	0.25
768.065	0.34
768.24	0.48
768.416	0.53
768.592	0.38
768.768	0.4
768.944	0.5
769.12	0.34
769.295	0.33
769.471	0.39
769.647	0.35
769.823	0.8
769.998	0.23
770.174	0.22
770.35	0.7
770.525	0.75
770.701	0.45
770.877	0.33
771.052	0.18
771.228	0.58
771.403	0.34
771.579	0.2
771.755	0.73
771.93	0.33
772.106	0.17
772.281	0.11
772.457	0.48
772.632	0.54
772.808	0.14
772.983	0.21
773.159	0
773.334	0.67
773.509	0.4
773.685	0.2
773.86	0.88
774.036	0.56
774.211	0.48
774.386	0.42
774.562	0.42
774.737	0.55
774.912	0.32
775.087	0.46
775.263	0.4
775.438	0.38
775.613	0.44
775.788	0.25
775.964	0.51
776.139	0.99
776.314	0.22
776.489	0.49
776.664	0.45
776.839	0.14
777.014	0.5
777.19	0.41
777.365	0.8
777.54	0.73
777.715	0.38
777.89	0.28
778.065	0.43
778.24	0.4
778.415	0.61
778.59	0.08
778.765	0.45
778.94	0.57
779.115	0.23
779.289	0.22
779.464	0.42
779.639	0.33
779.814	0.14
779.989	0.05
780.164	0.64
780.339	0.5
780.513	0.29
780.688	0.24
780.863	0.36
781.038	0.61
781.212	0.15
781.387	0.46
781.562	0.74
781.737	0.31
781.911	0.69
782.086	0.24
782.261	0.37
782.435	0.82
782.61	0.24
782.784	0.35
782.959	0.61
783.134	0.29
783.308	0.17
783.483	0.45
783.657	1.03
783.832	0.96
784.006	0.13
784.181	0.35
784.355	0.68
784.53	0.21
784.704	0.13
784.878	0.73
785.053	0.54
785.227	0.57
785.402	0.87
785.576	0.19
785.75	0.57
785.925	0.32
786.099	0.35
786.273	0.38
786.448	0.61
786.622	0.6
786.796	0.58
786.97	0.34
787.145	1.17
787.319	0.18
787.493	0.18
787.667	0.17
787.841	0.5
788.015	0.8
788.19	0.36
788.364	0.4
788.538	0.64
788.712	0.5
788.886	0.35
789.06	0.66
789.234	0.67
789.408	0.1
789.582	0.22
789.756	0.35
789.93	0.31
790.104	0.36
790.278	0.18
790.452	0.24
790.626	0.66
790.8	0.22
790.973	0.49
791.147	0.93
791.321	0.84
791.495	0.75
791.669	0.38
791.843	0.26
792.016	0.56
792.19	0.91
792.364	0.24
792.538	1.07
792.711	0.72
792.885	0.43
793.059	0.21
793.233	-0.2
793.406	0.66
793.58	0.57
793.754	0.35
793.927	0.64
794.101	0.67
794.274	0.37
794.448	0.86
794.622	0.03
794.795	1.14
794.969	0.31
795.142	1.08
795.316	0.2
795.489	0.18
795.663	0.96
795.836	0.57
796.009	0.09
796.183	1.07
796.356	0.51
796.53	0.64
796.703	0.7
796.876	1.13
797.05	0.25
797.223	0.42
797.396	0.46
797.57	0.53
797.743	0.95
797.916	0.63
798.09	0.56
798.263	0.88
798.436	0.44
798.609	0.3
798.782	0.26
798.956	0.37
799.129	0.33
799.302	0.28
799.475	0.35
799.648	0.45
799.821	0.2
799.994	0.44
800.167	0.09
800.34	0.64
800.514	0.47
800.687	0.53
800.86	0.32
801.033	0.58
801.206	0.91
801.379	0.29
801.551	0.78
801.724	0.5
801.897	1.09
802.07	0.42
802.243	0.18
802.416	0.41
802.589	0.38
802.762	0.51
802.935	0.49
803.107	0.74
803.28	1.01
803.453	0.57
803.626	0.87
803.798	0.62
803.971	0.27
804.144	0.38
804.317	0.65
804.489	1.16
804.662	0.46
804.835	0.55
805.007	0.14
805.18	1.07
805.353	0.43
805.525	0.03
805.698	0.05
805.87	0.94
806.043	0.9
806.215	0.19
806.388	0.29
806.56	0.66
806.733	1.01
806.905	0.76
807.078	0.65
807.25	0.52
807.423	0.68
807.595	0.3
807.768	0.49
807.94	0.68
808.112	0.89
808.285	0.7
808.457	0.3
808.629	0.74
808.802	0.92
808.974	0.4
809.146	0.24
809.318	0.18
809.491	0.84
809.663	0.64
809.835	0.32
810.007	0.95
810.18	0.46
810.352	0.18
810.524	0.56
810.696	1.08
810.868	1.24
811.04	0.53
811.212	0.53
811.384	0.7
811.556	0.84
811.728	0.54
811.901	1.3
812.073	0.88
812.245	0.9
812.417	0.86
812.589	-0.25
812.76	0.86
812.932	0.93
813.104	0.8
813.276	0.28
813.448	1.04
813.62	0.92
813.792	0.87
813.964	0.92
814.136	0.9
814.307	0.69
814.479	0.21
814.651	0.41
814.823	1.66
814.995	0.85
815.166	1.03
815.338	0.32
815.51	0.18
815.681	1.79
815.853	0.25
816.025	0.66
816.196	1.41
816.368	1.39
816.54	-0.14
816.711	0.46
816.883	0.65
817.054	1.72
817.226	-0.05
817.398	0.98
817.569	0.14
817.741	0.76
817.912	0.73
818.084	0.18
818.255	0.95
818.426	0.36
818.598	0.72
818.769	0.6
818.941	1.23
819.112	1.36
819.283	1.08
819.455	0.27
819.626	0.71
819.798	1.06
819.969	0.29
820.14	0.66
820.311	0.9
820.483	1.03
820.654	1.16
820.825	0.92
820.996	0.74
821.168	-0.06
821.339	0.74
821.51	0.11
821.681	0.45
821.852	0.66
822.023	0.38
822.195	-0.23
822.366	1.24
822.537	0.64
822.708	1.05
822.879	0.24
823.05	1.41
823.221	0.82
823.392	0.98
823.563	0.82
823.734	0.91
823.905	0.41
824.076	0.63
824.247	0.57
824.418	0.82
824.589	1.37
824.759	0.86
824.93	0.68
825.101	0.05
825.272	1.36
825.443	1.02
825.614	1.45
825.784	0.65
825.955	2.16
826.126	1.07
826.297	0.54
826.467	1.86
826.638	2
826.809	-0.06
826.98	0.92
827.15	1.45
827.321	1.26
827.492	1.59
827.662	0.55
827.833	1.93
828.003	1.78
828.174	0.38
828.345	0.04
828.515	1.89
828.686	0.86
828.856	0.78
829.027	0.96
829.197	1.2
829.368	1.11
829.538	0.23
829.709	0.53
829.879	1.44
830.049	0.83
830.22	0.45
830.39	0.95
830.56	1.2
830.731	0.85
830.901	0.59
831.072	0.46
831.242	0.76
831.412	0.7
831.582	0.98
831.753	0.13
831.923	1.61
832.093	1.62
832.263	0.6
832.434	-0.18
832.604	-0.02
832.774	1.74
832.944	0.41
833.114	0.52
833.284	1.4
833.454	0.63
833.624	0.12
833.795	0.61
833.965	1.87
834.135	2.13
834.305	-0.42
834.475	0.01
834.645	1.7
834.815	0.32
834.985	0.25
835.155	0.01
835.325	1.27
835.494	1.41
835.664	0.71
835.834	0.7
836.004	1.14
836.174	1.37
836.344	0.88
836.514	-0.12
836.684	0.74
836.853	0.77
837.023	1.06
837.193	0.52
837.363	1.97
837.532	1.54
837.702	0.6
837.872	0.3
838.041	1.87
838.211	2.88
838.381	0.92
838.55	1.36
838.72	3.8
838.89	2.74
839.059	0.69
839.229	0.11
839.398	3.14
839.568	1.14
839.738	0.34
839.907	2.75
840.077	1.64
840.246	0.7
840.416	0.45
840.585	-0.06
840.755	2.45
840.924	2.27
841.093	0.6
841.263	0.24
841.432	1.41
841.602	0.43
841.771	0
841.94	1.04
842.11	2.95
842.279	2.75
842.448	-0.57
842.617	0.54
842.787	2.55
842.956	-0.15
843.125	0.55
843.294	1.24
843.464	2.41
843.633	1.58
843.802	0.06
843.971	1.25
844.14	1.42
844.309	1.83
844.479	-0.97
844.648	-0.5
844.817	1.44
844.986	0.59
845.155	0.69
845.324	0.24
845.493	0.88
845.662	0.2
845.831	1.43
846	1.36
846.169	0.63
846.338	3.25
846.507	0.93
846.676	1.2
846.844	1.17
847.013	1.61
847.182	1.16
847.351	0.5
847.52	1.43
847.689	1.56
847.858	0.69
848.026	0.51
848.195	1.26
848.364	0.93
848.533	0.41
848.701	1.06
848.87	1.84
849.039	2.52
849.207	1.2
849.376	2.8
849.545	3.38
849.713	0.74
849.882	0.71
850.051	0.97
850.219	1.1
850.388	1.39
850.556	0.07
850.725	0.49
850.893	1.6
851.062	1.92
851.23	1.54
851.399	-0.26
851.567	1.32
851.736	0.81
851.904	0.03
852.073	1.29
852.241	1.63
852.41	1.29
852.578	0.68
852.746	1.1
852.915	2.59
853.083	0.7
853.251	0.99
853.42	0.31
853.588	1.53
853.756	3.18
853.924	1.62
854.093	0.83
854.261	1.15
854.429	-0.09
854.597	1.21
854.765	-0.15
854.934	2.59
855.102	2.44
855.27	0.54
855.438	2.34
855.606	2.98
855.774	3.94
855.942	0.03
856.11	-0.26
856.278	1.29
856.446	2.2
856.614	1.4
856.782	1.04
856.95	2.24
857.118	1.88
857.286	2.53
857.454	0.87
857.622	3.06
857.79	2.49
857.958	0.03
858.126	1.44
858.294	-1.23
858.462	1.61
858.629	0.3
858.797	0.41
858.965	1.84
859.133	2.79
859.301	1.37
859.468	1.98
859.636	0.78
859.804	2.94
859.971	2.37
860.139	1.48
860.307	2.4
860.474	1.55
860.642	-0.54
860.81	1.21
860.977	2.55
861.145	3.07
861.313	1.56
861.48	0.93
861.648	1.96
861.815	1.74
861.983	-0.54
862.15	1.24
862.318	2.15
862.485	3.43
862.653	1.37
862.82	0.19
862.988	4.15
863.155	2.63
863.322	1.07
863.49	1.71
863.657	0.5
863.824	6.12
863.992	1.41
864.159	0.81
864.326	4.71
864.494	1.23
864.661	3.45
864.828	0.95
864.996	3.28
865.163	4.11
865.33	0.94
865.497	-1.57
865.664	0.26
865.832	-0.37
865.999	1.58
866.166	2.16
866.333	1.08
866.5	-0.23
866.667	1.79
866.834	1.37
867.001	3.88
867.168	0.35
867.335	1.62
867.502	-0.81
867.669	1.71
867.836	3.49
868.003	1.01
868.17	0.63
868.337	2.19
868.504	4.92
868.671	-1.12
868.838	0.88
869.005	3.64
869.172	3.7
869.339	2.01
869.505	3.11
869.672	2.55
869.839	5.65
870.006	2.19
870.173	-0.36
870.339	4.39
870.506	5.5
870.673	1.35
870.84	2.99
871.006	2.91
871.173	3.54
871.34	2.23
871.506	-0.88
871.673	2.9
871.839	0.07
872.006	2.49
872.173	0.63
872.339	4.11
872.506	4.41
872.672	1.25
872.839	0.6
873.005	1.5
873.172	7.09
873.338	3.96
873.505	1.92
873.671	2.82
873.838	3.04
874.004	-0.78
874.171	-0.27
874.337	3.93
874.503	2.55
874.67	-0.13
874.836	0.11
875.002	4.66
875.169	4.89
875.335	1.28
875.501	2.74
875.668	4.51
875.834	2.93
876	0.57
876.166	2.21
876.332	3.06
876.499	5.38
876.665	0.39
876.831	1.63
876.997	7.62
877.163	4.58
877.329	0.76
877.495	3.24
877.662	3.39
877.828	2.86
877.994	0.21
878.16	-1.08
878.326	1.72
878.492	4.52
878.658	2.6
878.824	3.79
878.99	3.91
879.156	2.8
879.322	4.71
879.487	3.5
879.653	2.16
879.819	4.48
879.985	1.9
880.151	2.3
880.317	4.14
880.483	3.11
880.648	3.91
880.814	-0.91
880.98	2.76
881.146	-0.41
881.312	0.33
881.477	1.17
881.643	2.32
881.809	5.18
881.974	5.16
882.14	-0.63
882.306	3.7
882.471	6.67
882.637	1.08
882.803	2.83
882.968	5.63
883.134	9.13
883.299	1.02
883.465	2.19
883.63	5.71
883.796	3.38
883.961	5.35
884.127	3.04
884.292	-3.06
884.458	0.25
884.623	0.25
