Data from Apollo_Calib_20240827__AbsoluteIrradiance__51__00-00-02-555.txt Node

Date: Wed Aug 28 00:00:02 BST 2024
User: biology
Spectrometer: FLMT08252
Trigger mode: 0
Integration Time (sec): 5.000000E-1
Scans to average: 5
Electric dark correction enabled: true
Nonlinearity correction enabled: false
Boxcar width: 0
XAxis mode: Wavelengths
Number of Pixels in Spectrum: 3648
>>>>>Begin Spectral Data<<<<<
179.588	-0
179.809	-0
180.03	-0
180.251	-0
180.473	-0
180.694	0
180.915	0
181.136	-0
181.357	0
181.578	0
181.799	-0
182.02	-0
182.241	-0
182.462	-0
182.683	0
182.904	-0
183.125	-0
183.346	0
183.567	0
183.788	0
184.009	0
184.23	0
184.451	0
184.672	0
184.892	0
185.113	0
185.334	0
185.555	0
185.776	0
185.996	0
186.217	0
186.438	0
186.659	0
186.879	0
187.1	0
187.321	0
187.541	0
187.762	0
187.983	0
188.203	0
188.424	0
188.644	0
188.865	0
189.086	0
189.306	0
189.527	0
189.747	0
189.968	0
190.188	0
190.409	0
190.629	0
190.849	0
191.07	0
191.29	0
191.511	0
191.731	0
191.951	0
192.172	0
192.392	0
192.612	0
192.833	0
193.053	0
193.273	0
193.493	0
193.714	0
193.934	0
194.154	0
194.374	0
194.594	0
194.815	0
195.035	0
195.255	0
195.475	0
195.695	0
195.915	0
196.135	0
196.355	0
196.575	0
196.795	0
197.015	0
197.235	0
197.455	0
197.675	0
197.895	0
198.115	0
198.335	0
198.555	0
198.775	0
198.995	0
199.214	0
199.434	0
199.654	0
199.874	0
200.094	4.06
200.313	2.27
200.533	2.6
200.753	2.11
200.973	3.82
201.192	4.09
201.412	1.67
201.632	2.04
201.851	3.15
202.071	1.7
202.291	1.92
202.51	1.71
202.73	2.9
202.95	1.98
203.169	1.79
203.389	1.93
203.608	2.23
203.828	1.69
204.047	1.46
204.267	2.16
204.486	1.44
204.706	2.12
204.925	1.92
205.145	1.34
205.364	2.04
205.583	2.48
205.803	1.55
206.022	1.07
206.242	1.78
206.461	1.52
206.68	1.18
206.9	1.75
207.119	2.5
207.338	2.25
207.557	1.39
207.777	1.35
207.996	1.38
208.215	2.23
208.434	1.01
208.654	1.22
208.873	1.68
209.092	2.27
209.311	1.19
209.53	1.32
209.749	1.15
209.968	1.19
210.187	1.17
210.407	0.88
210.626	1.01
210.845	1.58
211.064	1.09
211.283	1.22
211.502	1.54
211.721	1.37
211.94	1.16
212.159	1.43
212.377	1.33
212.596	1.62
212.815	1.09
213.034	1.16
213.253	1.48
213.472	1.28
213.691	1.04
213.91	0.82
214.128	0.83
214.347	1.46
214.566	0.72
214.785	0.76
215.003	1.16
215.222	1.24
215.441	1.14
215.66	0.55
215.878	1.1
216.097	1.35
216.316	0.66
216.534	0.79
216.753	1.09
216.972	0.85
217.19	0.82
217.409	0.8
217.627	0.91
217.846	0.72
218.064	1.12
218.283	0.58
218.501	1.47
218.72	1.11
218.938	0.47
219.157	0.84
219.375	0.95
219.594	1.22
219.812	0.62
220.031	0.63
220.249	1.22
220.467	1.1
220.686	0.76
220.904	0.7
221.122	0.57
221.341	1.19
221.559	0.87
221.777	0.61
221.995	0.65
222.214	1.03
222.432	0.7
222.65	0.89
222.868	0.75
223.086	0.83
223.305	0.85
223.523	0.62
223.741	1.12
223.959	0.64
224.177	0.47
224.395	0.74
224.613	0.77
224.831	0.89
225.049	0.58
225.267	0.62
225.485	0.83
225.703	0.63
225.921	0.66
226.139	0.61
226.357	0.86
226.575	0.81
226.793	0.64
227.011	1.43
227.229	0.69
227.447	0.92
227.665	0.6
227.883	0.49
228.1	0.62
228.318	0.75
228.536	0.3
228.754	0.39
228.972	0.74
229.189	0.84
229.407	0.57
229.625	0.63
229.843	0.77
230.06	0.81
230.278	0.55
230.496	0.67
230.713	0.62
230.931	0.73
231.149	0.54
231.366	0.43
231.584	0.53
231.801	1.03
232.019	0.53
232.236	0.44
232.454	0.46
232.671	0.63
232.889	0.46
233.106	0.41
233.324	0.62
233.541	0.65
233.759	0.61
233.976	0.44
234.194	0.58
234.411	0.59
234.628	0.51
234.846	0.48
235.063	0.51
235.28	0.54
235.498	0.52
235.715	0.44
235.932	0.71
236.149	0.56
236.367	0.48
236.584	0.54
236.801	0.47
237.018	0.66
237.236	0.54
237.453	0.36
237.67	0.68
237.887	0.49
238.104	0.43
238.321	0.41
238.538	0.44
238.755	0.63
238.973	0.34
239.19	0.5
239.407	0.56
239.624	0.59
239.841	0.4
240.058	0.42
240.275	0.59
240.492	0.51
240.709	0.47
240.925	0.31
241.142	0.51
241.359	0.41
241.576	0.37
241.793	0.49
242.01	0.55
242.227	0.56
242.444	0.52
242.66	0.73
242.877	0.54
243.094	0.4
243.311	0.52
243.527	0.49
243.744	0.51
243.961	0.6
244.178	0.34
244.394	0.35
244.611	0.61
244.828	0.68
245.044	0.32
245.261	0.45
245.477	0.52
245.694	0.53
245.911	0.37
246.127	0.43
246.344	0.68
246.56	0.53
246.777	0.47
246.993	0.52
247.21	0.45
247.426	0.43
247.643	0.46
247.859	0.4
248.076	0.42
248.292	0.66
248.508	0.35
248.725	0.51
248.941	0.51
249.157	0.55
249.374	0.38
249.59	0.46
249.806	0.48
250.023	0.45
250.239	0.38
250.455	0.35
250.671	0.44
250.888	0.5
251.104	0.52
251.32	0.41
251.536	0.44
251.752	0.43
251.969	0.41
252.185	0.46
252.401	0.49
252.617	0.54
252.833	0.34
253.049	0.44
253.265	0.44
253.481	0.43
253.697	0.38
253.913	0.35
254.129	0.42
254.345	0.36
254.561	0.35
254.777	0.38
254.993	0.48
255.209	0.47
255.425	0.27
255.641	0.33
255.857	0.49
256.073	0.42
256.288	0.32
256.504	0.36
256.72	0.43
256.936	0.54
257.152	0.46
257.367	0.39
257.583	0.41
257.799	0.43
258.015	0.42
258.23	0.38
258.446	0.46
258.662	0.46
258.877	0.32
259.093	0.33
259.309	0.38
259.524	0.45
259.74	0.36
259.955	0.33
260.171	0.39
260.387	0.4
260.602	0.44
260.818	0.45
261.033	0.25
261.249	0.36
261.464	0.37
261.68	0.28
261.895	0.47
262.11	0.41
262.326	0.31
262.541	0.25
262.757	0.55
262.972	0.34
263.187	0.44
263.403	0.43
263.618	0.46
263.833	0.36
264.049	0.28
264.264	0.32
264.479	0.38
264.694	0.49
264.91	0.3
265.125	0.39
265.34	0.41
265.555	0.54
265.77	0.36
265.986	0.36
266.201	0.46
266.416	0.54
266.631	0.26
266.846	0.32
267.061	0.42
267.276	0.38
267.491	0.24
267.706	0.38
267.921	0.4
268.136	0.36
268.351	0.36
268.566	0.24
268.781	0.51
268.996	0.44
269.211	0.31
269.426	0.36
269.641	0.31
269.856	0.38
270.071	0.3
270.285	0.25
270.5	0.43
270.715	0.42
270.93	0.34
271.145	0.37
271.359	0.37
271.574	0.3
271.789	0.34
272.004	0.35
272.218	0.3
272.433	0.36
272.648	0.24
272.862	0.41
273.077	0.38
273.292	0.44
273.506	0.28
273.721	0.27
273.936	0.31
274.15	0.41
274.365	0.36
274.579	0.34
274.794	0.41
275.008	0.42
275.223	0.2
275.437	0.38
275.652	0.54
275.866	0.42
276.081	0.34
276.295	0.36
276.509	0.32
276.724	0.37
276.938	0.36
277.153	0.39
277.367	0.41
277.581	0.31
277.796	0.34
278.01	0.24
278.224	0.37
278.438	0.48
278.653	0.27
278.867	0.28
279.081	0.43
279.295	0.25
279.51	0.36
279.724	0.22
279.938	0.38
280.152	0.37
280.366	0.31
280.58	0.31
280.794	0.41
281.008	0.39
281.222	0.4
281.437	0.45
281.651	0.37
281.865	0.41
282.079	0.28
282.293	0.22
282.507	0.22
282.721	0.35
282.935	0.31
283.148	0.19
283.362	0.27
283.576	0.25
283.79	0.29
284.004	0.29
284.218	0.37
284.432	0.23
284.646	0.3
284.859	0.3
285.073	0.25
285.287	0.27
285.501	0.32
285.714	0.31
285.928	0.28
286.142	0.35
286.356	0.28
286.569	0.3
286.783	0.39
286.997	0.41
287.21	0.29
287.424	0.33
287.637	0.31
287.851	0.25
288.065	0.39
288.278	0.26
288.492	0.3
288.705	0.26
288.919	0.33
289.132	0.19
289.346	0.36
289.559	0.21
289.773	0.2
289.986	0.28
290.2	0.29
290.413	0.31
290.626	0.3
290.84	0.3
291.053	0.31
291.267	0.4
291.48	0.27
291.693	0.29
291.906	0.28
292.12	0.28
292.333	0.27
292.546	0.24
292.76	0.35
292.973	0.29
293.186	0.31
293.399	0.23
293.612	0.36
293.826	0.27
294.039	0.31
294.252	0.22
294.465	0.29
294.678	0.33
294.891	0.31
295.104	0.2
295.317	0.28
295.53	0.3
295.743	0.27
295.956	0.27
296.169	0.4
296.382	0.3
296.595	0.27
296.808	0.24
297.021	0.33
297.234	0.33
297.447	0.27
297.66	0.27
297.873	0.38
298.086	0.29
298.299	0.25
298.511	0.17
298.724	0.3
298.937	0.17
299.15	0.22
299.363	0.27
299.575	0.34
299.788	0.25
300.001	0.26
300.213	0.24
300.426	0.23
300.639	0.2
300.852	0.21
301.064	0.34
301.277	0.34
301.489	0.35
301.702	0.28
301.915	0.24
302.127	0.24
302.34	0.3
302.552	0.28
302.765	0.27
302.977	0.33
303.19	0.26
303.402	0.24
303.615	0.3
303.827	0.22
304.04	0.21
304.252	0.3
304.464	0.21
304.677	0.36
304.889	0.27
305.102	0.24
305.314	0.2
305.526	0.24
305.739	0.24
305.951	0.24
306.163	0.22
306.375	0.35
306.588	0.25
306.8	0.24
307.012	0.19
307.224	0.29
307.436	0.32
307.649	0.16
307.861	0.26
308.073	0.29
308.285	0.31
308.497	0.2
308.709	0.2
308.921	0.3
309.133	0.32
309.346	0.24
309.558	0.25
309.77	0.34
309.982	0.33
310.194	0.28
310.406	0.23
310.617	0.34
310.829	0.3
311.041	0.25
311.253	0.22
311.465	0.27
311.677	0.27
311.889	0.25
312.101	0.25
312.313	0.3
312.524	0.32
312.736	0.22
312.948	0.25
313.16	0.31
313.372	0.32
313.583	0.29
313.795	0.25
314.007	0.19
314.218	0.3
314.43	0.23
314.642	0.25
314.853	0.19
315.065	0.32
315.277	0.28
315.488	0.31
315.7	0.32
315.912	0.31
316.123	0.22
316.335	0.27
316.546	0.31
316.758	0.27
316.969	0.24
317.181	0.22
317.392	0.24
317.604	0.33
317.815	0.19
318.026	0.22
318.238	0.24
318.449	0.28
318.661	0.19
318.872	0.21
319.083	0.23
319.295	0.3
319.506	0.23
319.717	0.26
319.929	0.26
320.14	0.24
320.351	0.28
320.562	0.2
320.774	0.24
320.985	0.26
321.196	0.24
321.407	0.17
321.618	0.33
321.829	0.33
322.041	0.27
322.252	0.24
322.463	0.33
322.674	0.32
322.885	0.22
323.096	0.24
323.307	0.22
323.518	0.27
323.729	0.25
323.94	0.27
324.151	0.22
324.362	0.29
324.573	0.24
324.784	0.24
324.995	0.32
325.206	0.28
325.417	0.2
325.628	0.23
325.838	0.29
326.049	0.26
326.26	0.33
326.471	0.22
326.682	0.29
326.892	0.29
327.103	0.22
327.314	0.21
327.525	0.33
327.735	0.27
327.946	0.26
328.157	0.25
328.368	0.35
328.578	0.22
328.789	0.3
328.999	0.31
329.21	0.27
329.421	0.31
329.631	0.24
329.842	0.2
330.052	0.26
330.263	0.31
330.473	0.32
330.684	0.22
330.894	0.24
331.105	0.28
331.315	0.27
331.526	0.23
331.736	0.34
331.947	0.27
332.157	0.3
332.367	0.22
332.578	0.27
332.788	0.33
332.999	0.29
333.209	0.23
333.419	0.2
333.629	0.25
333.84	0.28
334.05	0.27
334.26	0.32
334.47	0.28
334.681	0.28
334.891	0.25
335.101	0.34
335.311	0.34
335.521	0.23
335.732	0.23
335.942	0.33
336.152	0.3
336.362	0.28
336.572	0.25
336.782	0.3
336.992	0.24
337.202	0.24
337.412	0.23
337.622	0.28
337.832	0.24
338.042	0.27
338.252	0.22
338.462	0.25
338.672	0.27
338.882	0.28
339.092	0.24
339.302	0.35
339.511	0.3
339.721	0.24
339.931	0.2
340.141	0.34
340.351	0.35
340.561	0.26
340.77	0.29
340.98	0.27
341.19	0.29
341.4	0.24
341.609	0.18
341.819	0.24
342.029	0.19
342.238	0.28
342.448	0.21
342.658	0.28
342.867	0.26
343.077	0.25
343.286	0.28
343.496	0.31
343.706	0.3
343.915	0.21
344.125	0.23
344.334	0.27
344.544	0.19
344.753	0.25
344.963	0.23
345.172	0.21
345.381	0.19
345.591	0.24
345.8	0.27
346.01	0.31
346.219	0.29
346.428	0.11
346.638	0.29
346.847	0.28
347.056	0.35
347.266	0.24
347.475	0.26
347.684	0.28
347.893	0.28
348.103	0.29
348.312	0.2
348.521	0.27
348.73	0.23
348.94	0.24
349.149	0.24
349.358	0.2
349.567	0.23
349.776	0.23
349.985	0.25
350.194	0.33
350.403	0.31
350.612	0.15
350.821	0.22
351.03	0.26
351.239	0.19
351.448	0.26
351.657	0.18
351.866	0.32
352.075	0.22
352.284	0.3
352.493	0.22
352.702	0.33
352.911	0.27
353.12	0.28
353.329	0.27
353.538	0.25
353.746	0.24
353.955	0.23
354.164	0.24
354.373	0.27
354.582	0.29
354.79	0.27
354.999	0.32
355.208	0.25
355.416	0.3
355.625	0.2
355.834	0.23
356.042	0.27
356.251	0.25
356.46	0.26
356.668	0.29
356.877	0.33
357.085	0.27
357.294	0.16
357.503	0.28
357.711	0.27
357.92	0.38
358.128	0.29
358.337	0.21
358.545	0.3
358.754	0.22
358.962	0.3
359.17	0.24
359.379	0.27
359.587	0.25
359.796	0.27
360.004	0.28
360.212	0.32
360.421	0.26
360.629	0.26
360.837	0.3
361.046	0.33
361.254	0.39
361.462	0.24
361.67	0.21
361.879	0.26
362.087	0.31
362.295	0.22
362.503	0.22
362.711	0.21
362.92	0.28
363.128	0.25
363.336	0.21
363.544	0.19
363.752	0.28
363.96	0.23
364.168	0.24
364.376	0.23
364.584	0.24
364.792	0.27
365	0.26
365.208	0.25
365.416	0.31
365.624	0.29
365.832	0.22
366.04	0.28
366.248	0.25
366.456	0.24
366.664	0.25
366.872	0.24
367.079	0.24
367.287	0.25
367.495	0.28
367.703	0.26
367.911	0.26
368.118	0.26
368.326	0.26
368.534	0.19
368.742	0.29
368.949	0.21
369.157	0.24
369.365	0.27
369.572	0.23
369.78	0.24
369.988	0.28
370.195	0.29
370.403	0.27
370.61	0.25
370.818	0.26
371.026	0.3
371.233	0.22
371.441	0.24
371.648	0.26
371.856	0.28
372.063	0.26
372.271	0.23
372.478	0.23
372.685	0.26
372.893	0.29
373.1	0.26
373.308	0.22
373.515	0.34
373.722	0.3
373.93	0.22
374.137	0.31
374.344	0.35
374.552	0.24
374.759	0.33
374.966	0.24
375.173	0.23
375.381	0.34
375.588	0.26
375.795	0.22
376.002	0.24
376.209	0.21
376.417	0.27
376.624	0.28
376.831	0.3
377.038	0.25
377.245	0.18
377.452	0.26
377.659	0.26
377.866	0.25
378.073	0.25
378.28	0.28
378.487	0.29
378.694	0.3
378.901	0.28
379.108	0.26
379.315	0.29
379.522	0.37
379.729	0.31
379.936	0.23
380.143	0.28
380.35	0.28
380.557	0.29
380.763	0.33
380.97	0.28
381.177	0.28
381.384	0.29
381.591	0.26
381.797	0.28
382.004	0.32
382.211	0.31
382.418	0.3
382.624	0.28
382.831	0.29
383.038	0.29
383.244	0.31
383.451	0.26
383.658	0.31
383.864	0.27
384.071	0.25
384.277	0.4
384.484	0.24
384.69	0.32
384.897	0.23
385.103	0.28
385.31	0.24
385.516	0.28
385.723	0.26
385.929	0.31
386.136	0.27
386.342	0.32
386.549	0.28
386.755	0.32
386.961	0.34
387.168	0.27
387.374	0.28
387.58	0.34
387.787	0.28
387.993	0.32
388.199	0.26
388.406	0.29
388.612	0.26
388.818	0.21
389.024	0.29
389.231	0.32
389.437	0.37
389.643	0.34
389.849	0.31
390.055	0.27
390.261	0.31
390.467	0.34
390.674	0.25
390.88	0.29
391.086	0.3
391.292	0.23
391.498	0.36
391.704	0.34
391.91	0.32
392.116	0.27
392.322	0.24
392.528	0.36
392.734	0.28
392.94	0.33
393.146	0.28
393.352	0.3
393.557	0.28
393.763	0.26
393.969	0.31
394.175	0.32
394.381	0.32
394.587	0.26
394.792	0.31
394.998	0.37
395.204	0.37
395.41	0.28
395.615	0.32
395.821	0.35
396.027	0.34
396.233	0.31
396.438	0.33
396.644	0.46
396.85	0.34
397.055	0.36
397.261	0.34
397.466	0.43
397.672	0.33
397.878	0.36
398.083	0.4
398.289	0.29
398.494	0.43
398.7	0.34
398.905	0.28
399.111	0.42
399.316	0.3
399.522	0.33
399.727	0.33
399.932	0.33
400.138	0.35
400.343	0.37
400.549	0.38
400.754	0.37
400.959	0.38
401.165	0.37
401.37	0.35
401.575	0.5
401.78	0.38
401.986	0.36
402.191	0.34
402.396	0.37
402.601	0.36
402.807	0.42
403.012	0.35
403.217	0.41
403.422	0.41
403.627	0.43
403.832	0.42
404.037	0.48
404.243	0.41
404.448	0.41
404.653	0.4
404.858	0.45
405.063	0.48
405.268	0.39
405.473	0.42
405.678	0.42
405.883	0.61
406.088	0.5
406.293	0.45
406.498	0.42
406.703	0.5
406.907	0.54
407.112	0.44
407.317	0.52
407.522	0.55
407.727	0.5
407.932	0.51
408.136	0.63
408.341	0.58
408.546	0.56
408.751	0.59
408.956	0.59
409.16	0.7
409.365	0.61
409.57	0.67
409.774	0.62
409.979	0.67
410.184	0.73
410.388	0.7
410.593	0.82
410.798	0.7
411.002	0.76
411.207	0.78
411.411	0.82
411.616	0.76
411.82	0.82
412.025	0.87
412.229	0.8
412.434	0.96
412.638	0.89
412.843	0.98
413.047	0.94
413.252	0.98
413.456	0.99
413.66	1.12
413.865	1.07
414.069	1.18
414.273	1.09
414.478	1.18
414.682	1.23
414.886	1.2
415.091	1.2
415.295	1.28
415.499	1.39
415.703	1.42
415.908	1.48
416.112	1.43
416.316	1.57
416.52	1.62
416.724	1.57
416.929	1.63
417.133	1.83
417.337	1.8
417.541	1.85
417.745	1.82
417.949	2
418.153	2.03
418.357	2.07
418.561	2.31
418.765	2.22
418.969	2.41
419.173	2.49
419.377	2.4
419.581	2.67
419.785	2.67
419.989	2.69
420.193	2.86
420.397	2.88
420.601	3.05
420.804	3.17
421.008	3.04
421.212	3.28
421.416	3.25
421.62	3.31
421.823	3.4
422.027	3.55
422.231	3.58
422.435	3.55
422.638	3.59
422.842	3.7
423.046	3.84
423.249	4.05
423.453	3.98
423.657	4.16
423.86	4.21
424.064	4.44
424.268	4.46
424.471	4.57
424.675	4.74
424.878	4.81
425.082	4.97
425.285	5.23
425.489	5.14
425.692	5.27
425.896	5.26
426.099	5.57
426.303	5.69
426.506	5.86
426.71	6.11
426.913	6.21
427.116	6.41
427.32	6.41
427.523	6.54
427.726	6.84
427.93	6.89
428.133	7.22
428.336	7.45
428.54	7.55
428.743	7.77
428.946	7.96
429.149	7.91
429.353	8.07
429.556	8.05
429.759	8.1
429.962	8.3
430.165	8.31
430.368	8.07
430.571	8.11
430.775	8.17
430.978	8.12
431.181	8.22
431.384	8.26
431.587	8.38
431.79	8.82
431.993	8.66
432.196	8.99
432.399	9.4
432.602	9.47
432.805	9.68
433.008	10.28
433.211	10.09
433.414	10.36
433.616	10.36
433.819	10.43
434.022	10.52
434.225	10.68
434.428	10.69
434.631	11.23
434.833	10.9
435.036	11.16
435.239	11.35
435.442	11.48
435.645	11.59
435.847	11.7
436.05	11.98
436.253	12.22
436.455	12.3
436.658	12.07
436.861	12.46
437.063	12.56
437.266	12.67
437.468	12.81
437.671	13.18
437.874	13.34
438.076	13.05
438.279	13.62
438.481	13.52
438.684	14.23
438.886	13.93
439.089	14.29
439.291	14.21
439.494	14.6
439.696	14.75
439.899	15.32
440.101	15.84
440.303	15.94
440.506	16.7
440.708	16.41
440.91	16.5
441.113	16.93
441.315	17.14
441.517	16.81
441.72	17.38
441.922	17.03
442.124	17.01
442.326	17.39
442.529	17.43
442.731	17.42
442.933	17.87
443.135	17.53
443.337	17.58
443.539	18.23
443.742	17.86
443.944	18.51
444.146	18.35
444.348	18.25
444.55	18.15
444.752	18.2
444.954	18.33
445.156	18.27
445.358	18.62
445.56	18.68
445.762	18.6
445.964	18.98
446.166	18.63
446.368	18.72
446.57	18.65
446.772	18.26
446.974	18.08
447.175	18.42
447.377	17.95
447.579	18.47
447.781	17.95
447.983	17.92
448.184	17.47
448.386	17.79
448.588	17.3
448.79	17.25
448.991	17.52
449.193	17.63
449.395	16.81
449.597	16.53
449.798	16.47
450	16.09
450.202	15.86
450.403	15.92
450.605	15.79
450.806	15.46
451.008	15.32
451.21	15.06
451.411	14.61
451.613	13.78
451.814	14.13
452.016	14.02
452.217	13.31
452.419	13.4
452.62	13.01
452.821	12.71
453.023	12.51
453.224	12.33
453.426	11.76
453.627	11.16
453.828	11.21
454.03	11.39
454.231	11.37
454.432	11.19
454.634	10.88
454.835	10.63
455.036	10.46
455.238	10.03
455.439	9.72
455.64	9.53
455.841	9.39
456.042	9.35
456.244	9.25
456.445	8.83
456.646	8.68
456.847	8.64
457.048	8.27
457.249	8.46
457.45	8.2
457.651	7.68
457.852	7.5
458.054	7.27
458.255	7.14
458.456	7.25
458.657	7.08
458.858	6.78
459.058	6.73
459.259	6.73
459.46	6.41
459.661	6.4
459.862	6.36
460.063	6.39
460.264	6.15
460.465	6.02
460.666	6.08
460.866	5.74
461.067	5.49
461.268	5.54
461.469	5.45
461.67	5.41
461.87	5.27
462.071	5.24
462.272	5.12
462.473	5.09
462.673	5.19
462.874	5.14
463.075	5.04
463.275	5.09
463.476	5.18
463.676	5.04
463.877	4.89
464.078	4.92
464.278	5.05
464.479	4.79
464.679	4.7
464.88	4.67
465.08	4.69
465.281	4.45
465.481	4.23
465.682	4.05
465.882	4.21
466.083	4.12
466.283	4.04
466.483	3.85
466.684	3.71
466.884	3.62
467.085	3.69
467.285	3.74
467.485	3.59
467.686	3.49
467.886	3.47
468.086	3.34
468.286	3.34
468.487	3.38
468.687	3.27
468.887	3.21
469.087	3.36
469.287	3.26
469.488	3.03
469.688	3.2
469.888	3.22
470.088	3.1
470.288	3.07
470.488	2.96
470.688	2.79
470.888	2.82
471.088	2.72
471.288	2.79
471.488	2.77
471.688	2.68
471.888	2.66
472.088	2.79
472.288	2.69
472.488	2.62
472.688	2.55
472.888	2.55
473.088	2.54
473.288	2.47
473.488	2.44
473.688	2.59
473.887	2.46
474.087	2.43
474.287	2.43
474.487	2.36
474.687	2.43
474.886	2.37
475.086	2.33
475.286	2.28
475.486	2.27
475.685	2.22
475.885	2.19
476.085	2.28
476.284	2.23
476.484	2.25
476.684	2.24
476.883	2.26
477.083	2.18
477.282	2.1
477.482	2.23
477.681	2.12
477.881	2.05
478.08	2.06
478.28	2.01
478.479	2.13
478.679	2.08
478.878	2.02
479.078	2.05
479.277	2.11
479.477	2.04
479.676	2.05
479.875	1.99
480.075	1.97
480.274	2.01
480.473	2.06
480.673	2.02
480.872	2.06
481.071	2.03
481.271	2.01
481.47	2.01
481.669	2.03
481.868	1.93
482.067	2.01
482.267	1.91
482.466	1.91
482.665	1.91
482.864	1.93
483.063	1.95
483.262	1.97
483.461	2.03
483.661	2.02
483.86	1.97
484.059	2.04
484.258	2.07
484.457	1.97
484.656	1.99
484.855	2.06
485.054	1.92
485.253	1.96
485.452	1.95
485.651	2.03
485.849	2
486.048	2.01
486.247	2.03
486.446	2.05
486.645	2.02
486.844	2.07
487.043	2.02
487.241	2.07
487.44	2.06
487.639	2.11
487.838	2.08
488.037	2.11
488.235	2.22
488.434	2.18
488.633	2.06
488.831	2.22
489.03	2.2
489.229	2.21
489.427	2.21
489.626	2.27
489.825	2.28
490.023	2.24
490.222	2.27
490.42	2.28
490.619	2.36
490.817	2.35
491.016	2.34
491.214	2.43
491.413	2.38
491.611	2.36
491.81	2.36
492.008	2.4
492.207	2.53
492.405	2.52
492.604	2.46
492.802	2.49
493	2.59
493.199	2.59
493.397	2.63
493.595	2.67
493.794	2.68
493.992	2.76
494.19	2.78
494.388	2.84
494.587	2.74
494.785	2.77
494.983	2.73
495.181	2.84
495.379	2.88
495.578	2.97
495.776	2.97
495.974	2.9
496.172	2.99
496.37	3.09
496.568	3.08
496.766	3.06
496.964	3.22
497.162	3.18
497.36	3.21
497.558	3.22
497.756	3.32
497.954	3.31
498.152	3.32
498.35	3.46
498.548	3.37
498.746	3.39
498.944	3.38
499.142	3.42
499.34	3.51
499.538	3.62
499.736	3.47
499.933	3.6
500.131	3.62
500.329	3.79
500.527	3.77
500.725	3.82
500.922	3.87
501.12	3.88
501.318	3.94
501.516	3.93
501.713	4.03
501.911	4.02
502.109	3.94
502.306	4.07
502.504	4
502.701	4.05
502.899	4.15
503.097	4.32
503.294	4.2
503.492	4.35
503.689	4.34
503.887	4.37
504.084	4.44
504.282	4.45
504.479	4.44
504.677	4.57
504.874	4.54
505.072	4.41
505.269	4.71
505.466	4.68
505.664	4.73
505.861	4.63
506.059	4.75
506.256	4.74
506.453	4.82
506.651	4.93
506.848	4.95
507.045	4.97
507.242	4.92
507.44	5.02
507.637	5.07
507.834	5.1
508.031	5.18
508.229	5.13
508.426	5.11
508.623	5.26
508.82	5.32
509.017	5.3
509.214	5.25
509.411	5.4
509.608	5.32
509.805	5.49
510.003	5.47
510.2	5.57
510.397	5.66
510.594	5.58
510.791	5.68
510.988	5.69
511.184	5.6
511.381	5.48
511.578	5.69
511.775	5.81
511.972	5.76
512.169	5.77
512.366	5.8
512.563	5.98
512.76	5.9
512.956	6.03
513.153	5.93
513.35	5.93
513.547	5.95
513.744	6.06
513.94	6.01
514.137	6.16
514.334	6.09
514.53	6.19
514.727	6.37
514.924	6.2
515.12	6.27
515.317	6.32
515.514	6.25
515.71	6.18
515.907	6.41
516.103	6.44
516.3	6.36
516.497	6.44
516.693	6.43
516.89	6.49
517.086	6.53
517.283	6.52
517.479	6.42
517.676	6.61
517.872	6.65
518.068	6.63
518.265	6.67
518.461	6.57
518.658	6.77
518.854	6.73
519.05	6.79
519.247	6.82
519.443	6.77
519.639	6.88
519.836	6.83
520.032	6.72
520.228	6.88
520.424	6.86
520.621	6.92
520.817	6.99
521.013	6.92
521.209	7.1
521.405	7.05
521.601	7.02
521.798	6.97
521.994	7.05
522.19	6.97
522.386	7.08
522.582	7.1
522.778	7.28
522.974	7.05
523.17	7.12
523.366	7.03
523.562	7.19
523.758	7.16
523.954	7.02
524.15	7.2
524.346	7.24
524.542	7.33
524.738	7.24
524.934	7.34
525.129	7.36
525.325	7.22
525.521	7.29
525.717	7.46
525.913	7.34
526.109	7.27
526.304	7.45
526.5	7.44
526.696	7.46
526.892	7.32
527.087	7.62
527.283	7.51
527.479	7.52
527.674	7.32
527.87	7.54
528.066	7.51
528.261	7.53
528.457	7.44
528.653	7.59
528.848	7.58
529.044	7.71
529.239	7.53
529.435	7.6
529.63	7.53
529.826	7.58
530.021	7.6
530.217	7.69
530.412	7.61
530.608	7.61
530.803	7.65
530.999	7.51
531.194	7.65
531.389	7.71
531.585	7.72
531.78	7.79
531.975	7.66
532.171	7.76
532.366	7.77
532.561	7.77
532.757	7.67
532.952	7.87
533.147	7.66
533.342	7.79
533.538	7.7
533.733	7.91
533.928	7.56
534.123	7.78
534.318	7.84
534.513	7.75
534.709	7.94
534.904	7.82
535.099	7.91
535.294	7.93
535.489	7.93
535.684	7.8
535.879	7.82
536.074	7.91
536.269	7.9
536.464	7.95
536.659	7.89
536.854	7.88
537.049	7.94
537.244	7.93
537.439	7.86
537.634	7.88
537.828	8
538.023	7.96
538.218	7.92
538.413	7.82
538.608	7.9
538.803	7.95
538.997	7.97
539.192	7.94
539.387	7.9
539.582	7.92
539.776	7.85
539.971	8
540.166	8.04
540.36	7.92
540.555	8.02
540.75	8.09
540.944	7.97
541.139	8.06
541.334	8
541.528	8.02
541.723	8.1
541.917	8.04
542.112	7.99
542.306	7.83
542.501	7.94
542.695	8.02
542.89	7.96
543.084	7.99
543.279	8.03
543.473	8.13
543.668	8.07
543.862	7.85
544.056	7.95
544.251	8.03
544.445	8.1
544.64	8.12
544.834	7.86
545.028	7.72
545.222	8.07
545.417	8.16
545.611	8.11
545.805	8.11
546	7.89
546.194	8.12
546.388	8.04
546.582	7.99
546.776	7.98
546.97	8.08
547.165	8.08
547.359	8.04
547.553	8.03
547.747	8.02
547.941	8.24
548.135	8.04
548.329	8.11
548.523	8.11
548.717	8.03
548.911	7.99
549.105	8.02
549.299	8.07
549.493	8.07
549.687	8
549.881	8.19
550.075	8.09
550.269	8
550.463	8.13
550.657	8.11
550.85	8.07
551.044	8.05
551.238	8.16
551.432	8.07
551.626	8.13
551.82	8.13
552.013	8.02
552.207	8.2
552.401	8.12
552.594	8.13
552.788	8.02
552.982	8
553.176	7.93
553.369	8.19
553.563	8.12
553.756	8.11
553.95	8.11
554.144	8.08
554.337	8.19
554.531	7.94
554.724	8.03
554.918	8.16
555.111	8.02
555.305	8.12
555.498	8.03
555.692	8.17
555.885	8.14
556.079	8.09
556.272	8.03
556.466	8.1
556.659	7.99
556.852	8.14
557.046	8.02
557.239	7.95
557.432	8.06
557.626	8.12
557.819	8.19
558.012	8.09
558.206	8.22
558.399	8.14
558.592	8.04
558.785	7.99
558.979	8.1
559.172	8.1
559.365	8.1
559.558	8.07
559.751	7.98
559.944	8.16
560.138	8.05
560.331	8.1
560.524	8.17
560.717	8.12
560.91	8.12
561.103	8.13
561.296	7.94
561.489	8.12
561.682	8.13
561.875	8.11
562.068	8.23
562.261	8.03
562.454	8.25
562.647	8.07
562.84	8.12
563.032	8.14
563.225	8
563.418	8.09
563.611	8.15
563.804	8.12
563.997	7.94
564.19	7.85
564.382	8.22
564.575	8.11
564.768	8.06
564.961	8.14
565.153	8.03
565.346	7.98
565.539	8.1
565.731	8.11
565.924	8.17
566.117	8.28
566.309	8.14
566.502	7.97
566.695	7.98
566.887	8.13
567.08	8.09
567.272	8.18
567.465	8.02
567.657	8.18
567.85	7.99
568.042	8.11
568.235	8.14
568.427	7.95
568.62	8.09
568.812	8.03
569.005	8.16
569.197	7.97
569.389	8.01
569.582	8.09
569.774	8.02
569.966	8.02
570.159	7.92
570.351	7.95
570.543	8.01
570.736	7.96
570.928	7.98
571.12	8
571.312	7.95
571.505	7.83
571.697	8
571.889	8.01
572.081	8.01
572.273	8
572.465	7.98
572.658	8.07
572.85	8.03
573.042	7.99
573.234	7.89
573.426	7.94
573.618	7.97
573.81	8.02
574.002	7.99
574.194	7.99
574.386	7.87
574.578	7.82
574.77	7.86
574.962	7.96
575.154	7.79
575.346	7.8
575.538	7.85
575.729	7.86
575.921	7.87
576.113	8.02
576.305	7.91
576.497	7.96
576.689	7.77
576.88	7.8
577.072	7.9
577.264	7.88
577.456	7.89
577.647	7.86
577.839	7.98
578.031	7.89
578.223	7.81
578.414	7.69
578.606	7.84
578.798	7.96
578.989	7.77
579.181	7.96
579.372	7.82
579.564	7.86
579.755	7.79
579.947	7.72
580.139	7.78
580.33	7.63
580.522	7.79
580.713	7.7
580.905	7.73
581.096	7.88
581.287	7.73
581.479	7.8
581.67	7.79
581.862	7.68
582.053	7.68
582.244	7.59
582.436	7.83
582.627	7.66
582.818	7.59
583.01	7.6
583.201	7.71
583.392	7.65
583.583	7.61
583.775	7.45
583.966	7.63
584.157	7.63
584.348	7.71
584.54	7.6
584.731	7.64
584.922	7.48
585.113	7.48
585.304	7.6
585.495	7.55
585.686	7.61
585.877	7.62
586.068	7.67
586.259	7.59
586.45	7.52
586.641	7.54
586.832	7.6
587.023	7.52
587.214	7.51
587.405	7.56
587.596	7.44
587.787	7.28
587.978	7.45
588.169	7.44
588.36	7.37
588.551	7.44
588.742	7.41
588.932	7.49
589.123	7.23
589.314	7.49
589.505	7.34
589.696	7.39
589.886	7.32
590.077	7.32
590.268	7.29
590.458	7.23
590.649	7.16
590.84	7.27
591.03	7.3
591.221	7.26
591.412	7.15
591.602	7.33
591.793	7.22
591.984	7.27
592.174	7.26
592.365	7.34
592.555	7.07
592.746	7.18
592.936	7.2
593.127	7.18
593.317	7.22
593.508	7.17
593.698	7.1
593.889	7.13
594.079	7.08
594.269	7.06
594.46	7.11
594.65	7.05
594.84	7.1
595.031	6.99
595.221	6.94
595.411	7.03
595.602	7.08
595.792	6.94
595.982	6.91
596.172	7
596.363	6.97
596.553	6.9
596.743	6.94
596.933	6.92
597.123	6.89
597.314	6.79
597.504	6.77
597.694	6.93
597.884	6.82
598.074	6.79
598.264	6.84
598.454	6.8
598.644	6.73
598.834	6.76
599.024	6.7
599.214	6.69
599.404	6.81
599.594	6.77
599.784	6.65
599.974	6.75
600.164	6.67
600.354	6.69
600.544	6.64
600.734	6.63
600.924	6.58
601.114	6.55
601.303	6.57
601.493	6.58
601.683	6.55
601.873	6.55
602.063	6.45
602.252	6.55
602.442	6.39
602.632	6.45
602.821	6.39
603.011	6.48
603.201	6.41
603.39	6.45
603.58	6.32
603.77	6.47
603.959	6.5
604.149	6.37
604.339	6.43
604.528	6.42
604.718	6.36
604.907	6.29
605.097	6.24
605.286	6.27
605.476	6.25
605.665	6.32
605.855	6.2
606.044	6.35
606.234	6.23
606.423	6.16
606.612	6.25
606.802	6.12
606.991	6.17
607.181	6.18
607.37	6.16
607.559	5.96
607.749	6.1
607.938	6.01
608.127	6.04
608.316	6.08
608.506	6
608.695	6.09
608.884	6
609.073	5.98
609.263	6.08
609.452	6.03
609.641	5.9
609.83	5.89
610.019	5.97
610.208	5.87
610.397	5.9
610.586	5.86
610.775	5.83
610.965	5.88
611.154	5.73
611.343	5.84
611.532	5.63
611.721	5.85
611.91	5.73
612.099	5.74
612.287	5.61
612.476	5.6
612.665	5.78
612.854	5.59
613.043	5.64
613.232	5.64
613.421	5.56
613.61	5.58
613.798	5.59
613.987	5.59
614.176	5.56
614.365	5.59
614.554	5.47
614.742	5.58
614.931	5.39
615.12	5.48
615.309	5.46
615.497	5.38
615.686	5.33
615.875	5.38
616.063	5.34
616.252	5.35
616.44	5.33
616.629	5.31
616.818	5.37
617.006	5.33
617.195	5.23
617.383	5.27
617.572	5.1
617.76	5.15
617.949	5.2
618.137	5.21
618.326	5.2
618.514	5.06
618.703	5.04
618.891	5.13
619.079	5.12
619.268	5.16
619.456	5.09
619.644	5.12
619.833	4.99
620.021	5.04
620.209	4.96
620.398	4.98
620.586	4.92
620.774	5.07
620.962	4.99
621.151	4.96
621.339	4.85
621.527	4.88
621.715	4.86
621.903	4.92
622.092	4.8
622.28	4.93
622.468	4.66
622.656	4.81
622.844	4.79
623.032	4.79
623.22	4.67
623.408	4.74
623.596	4.72
623.784	4.79
623.972	4.63
624.16	4.64
624.348	4.71
624.536	4.73
624.724	4.65
624.912	4.62
625.1	4.69
625.288	4.64
625.476	4.54
625.664	4.63
625.851	4.55
626.039	4.58
626.227	4.49
626.415	4.51
626.603	4.39
626.79	4.43
626.978	4.45
627.166	4.5
627.354	4.36
627.541	4.41
627.729	4.29
627.917	4.52
628.104	4.51
628.292	4.3
628.48	4.34
628.667	4.28
628.855	4.35
629.042	4.37
629.23	4.29
629.418	4.29
629.605	4.29
629.793	4.14
629.98	4.2
630.168	4.18
630.355	4.22
630.543	4.15
630.73	4.1
630.917	4.17
631.105	4.28
631.292	4.14
631.48	4.12
631.667	4.13
631.854	4.1
632.042	3.99
632.229	3.94
632.416	4.07
632.604	4.01
632.791	3.94
632.978	4.01
633.165	3.97
633.353	4.04
633.54	4.04
633.727	3.87
633.914	3.89
634.101	3.83
634.289	3.93
634.476	3.82
634.663	3.77
634.85	3.83
635.037	3.74
635.224	3.75
635.411	3.8
635.598	3.72
635.785	3.71
635.972	3.71
636.159	3.75
636.346	3.7
636.533	3.64
636.72	3.68
636.907	3.66
637.094	3.58
637.281	3.56
637.468	3.66
637.655	3.67
637.842	3.59
638.029	3.54
638.215	3.58
638.402	3.58
638.589	3.53
638.776	3.5
638.963	3.48
639.149	3.55
639.336	3.52
639.523	3.45
639.709	3.46
639.896	3.48
640.083	3.4
640.27	3.48
640.456	3.44
640.643	3.4
640.829	3.33
641.016	3.36
641.203	3.29
641.389	3.33
641.576	3.34
641.762	3.26
641.949	3.25
642.135	3.3
642.322	3.27
642.508	3.21
642.695	3.26
642.881	3.22
643.068	3.18
643.254	3.22
643.441	3.22
643.627	3.22
643.813	3.14
644	3.17
644.186	3.07
644.372	3.14
644.559	3.13
644.745	3.11
644.931	3.03
645.118	3.08
645.304	3.08
645.49	3.07
645.676	3.02
645.862	3.02
646.049	3.05
646.235	3.01
646.421	3.13
646.607	3.09
646.793	2.95
646.979	2.93
647.165	2.97
647.352	2.92
647.538	2.93
647.724	2.85
647.91	2.83
648.096	2.83
648.282	2.89
648.468	2.87
648.654	2.94
648.84	2.84
649.026	2.79
649.212	2.8
649.397	2.77
649.583	2.79
649.769	2.86
649.955	2.82
650.141	2.84
650.327	2.8
650.513	2.74
650.698	2.77
650.884	2.65
651.07	2.81
651.256	2.73
651.442	2.65
651.627	2.61
651.813	2.74
651.999	2.65
652.184	2.63
652.37	2.67
652.556	2.62
652.741	2.63
652.927	2.54
653.113	2.58
653.298	2.6
653.484	2.55
653.669	2.5
653.855	2.58
654.04	2.61
654.226	2.53
654.412	2.53
654.597	2.45
654.782	2.54
654.968	2.53
655.153	2.53
655.339	2.5
655.524	2.47
655.71	2.5
655.895	2.52
656.08	2.47
656.266	2.53
656.451	2.44
656.636	2.38
656.822	2.41
657.007	2.39
657.192	2.39
657.378	2.32
657.563	2.33
657.748	2.44
657.933	2.38
658.118	2.31
658.304	2.36
658.489	2.41
658.674	2.35
658.859	2.28
659.044	2.31
659.229	2.38
659.414	2.3
659.599	2.28
659.785	2.2
659.97	2.23
660.155	2.25
660.34	2.3
660.525	2.21
660.71	2.23
660.895	2.22
661.08	2.2
661.264	2.18
661.449	2.24
661.634	2.2
661.819	2.24
662.004	2.13
662.189	2.1
662.374	2.15
662.559	2.06
662.743	2.02
662.928	2.09
663.113	2.04
663.298	2.01
663.483	2.07
663.667	2.08
663.852	2.02
664.037	2.06
664.221	2.02
664.406	2.06
664.591	2.02
664.775	2.03
664.96	1.99
665.145	1.93
665.329	1.98
665.514	1.99
665.698	1.9
665.883	1.92
666.068	1.98
666.252	1.93
666.437	1.9
666.621	1.88
666.806	1.87
666.99	1.85
667.174	1.81
667.359	1.98
667.543	1.81
667.728	1.83
667.912	1.77
668.096	1.85
668.281	1.75
668.465	1.85
668.649	1.8
668.834	1.68
669.018	1.72
669.202	1.72
669.387	1.69
669.571	1.77
669.755	1.7
669.939	1.71
670.124	1.72
670.308	1.75
670.492	1.74
670.676	1.61
670.86	1.64
671.044	1.61
671.228	1.69
671.413	1.58
671.597	1.61
671.781	1.65
671.965	1.7
672.149	1.6
672.333	1.67
672.517	1.56
672.701	1.58
672.885	1.61
673.069	1.48
673.253	1.62
673.437	1.52
673.621	1.54
673.804	1.63
673.988	1.55
674.172	1.56
674.356	1.44
674.54	1.51
674.724	1.61
674.908	1.45
675.091	1.55
675.275	1.48
675.459	1.52
675.643	1.49
675.826	1.53
676.01	1.49
676.194	1.47
676.377	1.47
676.561	1.5
676.745	1.41
676.928	1.43
677.112	1.5
677.296	1.45
677.479	1.4
677.663	1.4
677.846	1.38
678.03	1.38
678.213	1.33
678.397	1.4
678.58	1.38
678.764	1.4
678.947	1.35
679.131	1.34
679.314	1.38
679.498	1.35
679.681	1.38
679.865	1.39
680.048	1.32
680.231	1.34
680.415	1.31
680.598	1.32
680.781	1.32
680.965	1.27
681.148	1.28
681.331	1.27
681.514	1.32
681.698	1.26
681.881	1.27
682.064	1.23
682.247	1.29
682.43	1.17
682.614	1.28
682.797	1.35
682.98	1.25
683.163	1.24
683.346	1.23
683.529	1.17
683.712	1.21
683.895	1.26
684.078	1.15
684.261	1.23
684.444	1.17
684.627	1.21
684.81	1.07
684.993	1.15
685.176	1.21
685.359	1.11
685.542	1.13
685.725	1.19
685.908	1.14
686.091	1.11
686.274	1.2
686.457	1.15
686.639	1.16
686.822	1.16
687.005	1.1
687.188	1.16
687.371	1.23
687.553	1.18
687.736	1.16
687.919	1.24
688.102	1.21
688.284	1.12
688.467	1.1
688.65	1.09
688.832	1.05
689.015	1.07
689.197	1
689.38	1.22
689.563	1.14
689.745	1.03
689.928	1.02
690.11	1.08
690.293	1.05
690.475	1.03
690.658	1.05
690.84	1.03
691.023	0.98
691.205	1.05
691.388	1.06
691.57	1.05
691.752	1.01
691.935	0.89
692.117	0.94
692.3	1.03
692.482	0.96
692.664	1.01
692.847	0.99
693.029	1.02
693.211	1.01
693.393	0.99
693.576	0.9
693.758	0.93
693.94	0.93
694.122	0.98
694.304	0.93
694.487	0.92
694.669	1
694.851	0.88
695.033	0.97
695.215	0.91
695.397	0.89
695.579	0.91
695.761	0.85
695.943	0.85
696.125	0.98
696.308	0.93
696.49	0.78
696.671	1.05
696.853	0.87
697.035	1.05
697.217	0.84
697.399	0.96
697.581	0.92
697.763	0.95
697.945	0.86
698.127	0.91
698.309	0.96
698.491	0.91
698.672	0.93
698.854	0.94
699.036	0.95
699.218	0.91
699.399	0.87
699.581	0.88
699.763	0.78
699.945	0.81
700.126	0.75
700.308	0.89
700.49	0.85
700.671	0.78
700.853	0.75
701.035	0.82
701.216	0.89
701.398	0.79
701.579	0.76
701.761	0.85
701.943	0.74
702.124	0.75
702.306	0.82
702.487	0.93
702.669	0.8
702.85	0.73
703.031	0.71
703.213	0.88
703.394	0.89
703.576	0.74
703.757	0.89
703.938	0.85
704.12	0.97
704.301	0.82
704.483	0.79
704.664	0.77
704.845	0.9
705.026	0.82
705.208	0.71
705.389	0.84
705.57	0.79
705.751	0.74
705.933	0.79
706.114	0.88
706.295	0.77
706.476	0.66
706.657	0.83
706.838	0.82
707.02	0.87
707.201	0.74
707.382	0.72
707.563	0.78
707.744	0.73
707.925	0.66
708.106	0.67
708.287	0.72
708.468	0.79
708.649	0.7
708.83	0.75
709.011	0.64
709.192	0.8
709.373	0.65
709.554	0.67
709.734	0.73
709.915	0.76
710.096	0.69
710.277	0.58
710.458	0.78
710.639	0.74
710.819	0.63
711	0.67
711.181	0.73
711.362	0.8
711.542	0.66
711.723	0.73
711.904	0.72
712.085	0.71
712.265	0.69
712.446	0.6
712.627	0.6
712.807	0.65
712.988	0.68
713.168	0.58
713.349	0.8
713.53	0.57
713.71	0.64
713.891	0.54
714.071	0.62
714.252	0.55
714.432	0.6
714.613	0.56
714.793	0.65
714.974	0.79
715.154	0.73
715.334	0.7
715.515	0.82
715.695	0.6
715.876	0.65
716.056	0.64
716.236	0.58
716.417	0.6
716.597	0.61
716.777	0.87
716.957	0.61
717.138	0.62
717.318	0.63
717.498	0.52
717.678	0.61
717.859	0.63
718.039	0.45
718.219	0.68
718.399	0.63
718.579	0.54
718.759	0.58
718.939	0.65
719.12	0.68
719.3	0.65
719.48	0.49
719.66	0.56
719.84	0.72
720.02	0.65
720.2	0.62
720.38	0.6
720.56	0.77
720.74	0.57
720.92	0.59
721.1	0.78
721.279	0.69
721.459	0.66
721.639	0.55
721.819	0.64
721.999	0.5
722.179	0.68
722.359	0.44
722.538	0.63
722.718	0.59
722.898	0.58
723.078	0.56
723.257	0.59
723.437	0.65
723.617	0.63
723.797	0.66
723.976	0.63
724.156	0.63
724.336	0.71
724.515	0.82
724.695	0.43
724.874	0.55
725.054	0.66
725.234	0.55
725.413	0.71
725.593	0.58
725.772	0.58
725.952	0.61
726.131	0.64
726.311	0.57
726.49	0.61
726.67	0.48
726.849	0.54
727.028	0.59
727.208	0.58
727.387	0.61
727.567	0.6
727.746	0.57
727.925	0.53
728.105	0.46
728.284	0.51
728.463	0.54
728.643	0.6
728.822	0.47
729.001	0.64
729.18	0.58
729.359	0.63
729.539	0.58
729.718	0.62
729.897	0.63
730.076	0.55
730.255	0.49
730.434	0.54
730.614	0.61
730.793	0.64
730.972	0.6
731.151	0.6
731.33	0.74
731.509	0.58
731.688	0.54
731.867	0.66
732.046	0.48
732.225	0.8
732.404	0.51
732.583	0.46
732.762	0.55
732.941	0.68
733.12	0.69
733.298	0.53
733.477	0.71
733.656	0.56
733.835	0.43
734.014	0.7
734.193	0.57
734.371	0.66
734.55	0.63
734.729	0.53
734.908	0.65
735.086	0.62
735.265	0.78
735.444	0.42
735.623	0.49
735.801	0.55
735.98	0.57
736.159	0.63
736.337	0.57
736.516	0.58
736.694	0.65
736.873	0.44
737.052	0.89
737.23	0.72
737.409	0.74
737.587	0.85
737.766	0.57
737.944	0.56
738.123	0.67
738.301	0.65
738.479	0.57
738.658	0.72
738.836	0.51
739.015	0.74
739.193	0.6
739.371	0.52
739.55	0.65
739.728	0.42
739.906	0.71
740.085	0.8
740.263	0.65
740.441	0.33
740.62	0.66
740.798	0.74
740.976	0.51
741.154	0.41
741.332	0.75
741.511	0.55
741.689	0.47
741.867	0.59
742.045	0.55
742.223	0.4
742.401	0.4
742.579	0.54
742.757	0.58
742.935	0.41
743.114	0.43
743.292	0.55
743.47	0.59
743.648	0.61
743.826	0.61
744.004	0.59
744.181	0.61
744.359	0.49
744.537	0.5
744.715	0.44
744.893	0.55
745.071	0.59
745.249	0.52
745.427	0.42
745.605	0.52
745.782	0.5
745.96	0.58
746.138	0.55
746.316	0.55
746.493	0.52
746.671	0.51
746.849	0.57
747.027	0.6
747.204	0.34
747.382	0.54
747.56	0.36
747.737	0.46
747.915	0.44
748.093	0.48
748.27	0.36
748.448	0.48
748.625	0.21
748.803	0.45
748.98	0.42
749.158	0.43
749.335	0.49
749.513	0.39
749.69	0.37
749.868	0.46
750.045	0.48
750.223	0.36
750.4	0.21
750.578	0.57
750.755	0.44
750.932	0.29
751.11	0.54
751.287	0.41
751.464	0.64
751.642	0.27
751.819	0.41
751.996	0.55
752.173	0.39
752.351	0.33
752.528	0.45
752.705	0.38
752.882	0.29
753.06	0.47
753.237	0.47
753.414	0.64
753.591	0.67
753.768	0.41
753.945	0.32
754.122	0.4
754.299	0.45
754.476	0.34
754.654	0.47
754.831	0.38
755.008	0.39
755.185	0.32
755.362	0.35
755.539	0.48
755.716	0.6
755.892	0.41
756.069	0.36
756.246	0.38
756.423	0.36
756.6	0.5
756.777	0.32
756.954	0.59
757.131	0.39
757.307	0.27
757.484	0.3
757.661	0.47
757.838	0.54
758.015	0.31
758.191	0.41
758.368	0.49
758.545	0.54
758.721	0.5
758.898	0.24
759.075	0.46
759.251	0.52
759.428	0.58
759.605	0.25
759.781	0.34
759.958	0.52
760.134	0.44
760.311	0.31
760.488	0.63
760.664	0.62
760.841	0.5
761.017	0.31
761.194	0.57
761.37	0.56
761.547	0.37
761.723	0.3
761.899	0.48
762.076	0.38
762.252	0.26
762.429	0.31
762.605	0.52
762.781	0.35
762.958	0.58
763.134	0.4
763.31	0.37
763.486	0.5
763.663	0.18
763.839	0.38
764.015	0.17
764.191	0.32
764.368	0.48
764.544	0.34
764.72	0.54
764.896	0.56
765.072	0.49
765.248	0.33
765.425	0.48
765.601	0.55
765.777	0.42
765.953	0.22
766.129	0.32
766.305	0.28
766.481	0.46
766.657	0.35
766.833	0.48
767.009	0.12
767.185	0.41
767.361	0.45
767.537	0.27
767.713	0.59
767.889	0.33
768.065	0.34
768.24	0.21
768.416	0.5
768.592	0.37
768.768	0.38
768.944	0.61
769.12	0.39
769.295	0.29
769.471	0.32
769.647	0.38
769.823	0.58
769.998	0.38
770.174	0.34
770.35	0.76
770.525	0.7
770.701	0.55
770.877	0.42
771.052	0.27
771.228	0.63
771.403	0.35
771.579	0.34
771.755	0.74
771.93	0.41
772.106	0.31
772.281	0.24
772.457	0.36
772.632	0.42
772.808	0.2
772.983	0.29
773.159	0.16
773.334	0.55
773.509	0.38
773.685	0.26
773.86	0.84
774.036	0.67
774.211	0.46
774.386	0.3
774.562	0.46
774.737	0.59
774.912	0.15
775.087	0.45
775.263	0.28
775.438	0.47
775.613	0.3
775.788	0.47
775.964	0.56
776.139	0.89
776.314	0.21
776.489	0.4
776.664	0.54
776.839	0.31
777.014	0.64
777.19	0.6
777.365	0.52
777.54	0.64
777.715	0.4
777.89	0.36
778.065	0.46
778.24	0.39
778.415	0.55
778.59	0.21
778.765	0.48
778.94	0.35
779.115	0.41
779.289	0.3
779.464	0.21
779.639	0.52
779.814	0.2
779.989	0.21
780.164	0.55
780.339	0.5
780.513	0.39
780.688	0.28
780.863	0.45
781.038	0.55
781.212	0.28
781.387	0.31
781.562	0.61
781.737	0.53
781.911	0.59
782.086	0.13
782.261	0.39
782.435	0.76
782.61	0.32
782.784	0.24
782.959	0.42
783.134	0.39
783.308	0.19
783.483	0.35
783.657	0.95
783.832	0.6
784.006	0.05
784.181	0.31
784.355	0.76
784.53	0.62
784.704	0.22
784.878	0.74
785.053	0.56
785.227	0.61
785.402	0.98
785.576	0.23
785.75	0.41
785.925	0.48
786.099	0.44
786.273	0.52
786.448	0.7
786.622	0.53
786.796	0.46
786.97	0.39
787.145	0.79
787.319	0.45
787.493	0.42
787.667	0.28
787.841	0.61
788.015	0.66
788.19	0.28
788.364	0.43
788.538	0.77
788.712	0.57
788.886	0.38
789.06	0.64
789.234	0.64
789.408	0.43
789.582	0.46
789.756	0.22
789.93	0.37
790.104	0.3
790.278	0.31
790.452	0.19
790.626	0.65
790.8	0.4
790.973	0.44
791.147	0.82
791.321	0.95
791.495	0.71
791.669	0.44
791.843	0.65
792.016	0.4
792.19	1.03
792.364	0.13
792.538	1.16
792.711	0.79
792.885	0.27
793.059	0.31
793.233	-0.16
793.406	0.83
793.58	0.65
793.754	0.58
793.927	0.46
794.101	0.79
794.274	0.66
794.448	0.68
794.622	0.29
794.795	0.75
794.969	0.36
795.142	0.96
795.316	0.37
795.489	0.46
795.663	0.96
795.836	0.47
796.009	0.25
796.183	0.82
796.356	0.79
796.53	0.3
796.703	0.41
796.876	1.01
797.05	0.51
797.223	0.39
797.396	0.54
797.57	0.62
797.743	0.88
797.916	0.67
798.09	0.23
798.263	0.67
798.436	0.65
798.609	0.36
798.782	0.43
798.956	0.57
799.129	0.84
799.302	0.11
799.475	0.35
799.648	0.28
799.821	0.19
799.994	0.42
800.167	0.3
800.34	0.47
800.514	0.74
800.687	0.4
800.86	0.55
801.033	0.73
801.206	0.66
801.379	0.15
801.551	0.73
801.724	0.73
801.897	1
802.07	0.62
802.243	0.19
802.416	0.6
802.589	0.4
802.762	0.88
802.935	0.43
803.107	0.97
803.28	1.07
803.453	0.78
803.626	0.23
803.798	0.61
803.971	0.45
804.144	0.63
804.317	0.97
804.489	0.65
804.662	0.7
804.835	0.56
805.007	0.63
805.18	1.31
805.353	0.73
805.525	0.32
805.698	0.31
805.87	0.78
806.043	0.99
806.215	0.39
806.388	0.5
806.56	0.61
806.733	0.92
806.905	0.88
807.078	0.41
807.25	0.52
807.423	1.02
807.595	0.62
807.768	1.01
807.94	0.84
808.112	1.11
808.285	0.74
808.457	0.64
808.629	0.66
808.802	0.95
808.974	0.65
809.146	0.44
809.318	0.48
809.491	0.86
809.663	0.72
809.835	0.37
810.007	0.73
810.18	0.56
810.352	0.06
810.524	0.16
810.696	0.64
810.868	1.34
811.04	0.49
811.212	0.74
811.384	0.81
811.556	0.76
811.728	0.85
811.901	1.44
812.073	0.49
812.245	0.94
812.417	0.6
812.589	-0.23
812.76	0.87
812.932	1.21
813.104	1.29
813.276	0.71
813.448	1.13
813.62	0.75
813.792	0.71
813.964	0.63
814.136	0.69
814.307	0.68
814.479	0.09
814.651	0.28
814.823	1.61
814.995	0.51
815.166	1.11
815.338	0.7
815.51	0.13
815.681	1.72
815.853	1.27
816.025	0.51
816.196	1.24
816.368	0.57
816.54	0.12
816.711	0.69
816.883	1.34
817.054	1.8
817.226	0.19
817.398	1.35
817.569	0.77
817.741	1.41
817.912	0.79
818.084	0.99
818.255	1.17
818.426	0.35
818.598	0.42
818.769	0.38
818.941	1.23
819.112	1.23
819.283	0.87
819.455	0.31
819.626	0.8
819.798	0.99
819.969	1.14
820.14	0.22
820.311	0.72
820.483	0.93
820.654	0.92
820.825	0.55
820.996	0.73
821.168	0.22
821.339	0.8
821.51	0.34
821.681	0.58
821.852	1.1
822.023	0.04
822.195	-0.35
822.366	1.27
822.537	0.94
822.708	0.99
822.879	0.23
823.05	1.54
823.221	0.51
823.392	0.69
823.563	0.6
823.734	1.06
823.905	1.07
824.076	1.12
824.247	0.2
824.418	0.6
824.589	1.4
824.759	1.35
824.93	0.94
825.101	0.69
825.272	1.45
825.443	1.43
825.614	1.39
825.784	-0.38
825.955	1.65
826.126	1.87
826.297	1.24
826.467	2.03
826.638	1.58
826.809	0.86
826.98	0.93
827.15	1.41
827.321	0.63
827.492	1.5
827.662	0.8
827.833	1.5
828.003	1.37
828.174	0.11
828.345	0.44
828.515	1.7
828.686	0.75
828.856	0.75
829.027	0.93
829.197	0.72
829.368	1.2
829.538	0.46
829.709	0.86
829.879	1.06
830.049	1.21
830.22	-0.05
830.39	1.02
830.56	1.05
830.731	0.65
830.901	0.6
831.072	1.22
831.242	0.79
831.412	1.82
831.582	1.35
831.753	0.05
831.923	1.44
832.093	0.57
832.263	1.04
832.434	0.34
832.604	0.92
832.774	1.49
832.944	0.95
833.114	0.43
833.284	1.25
833.454	0.63
833.624	0.76
833.795	0.38
833.965	1.49
834.135	1.97
834.305	-0.44
834.475	0.27
834.645	0.69
834.815	0.98
834.985	-0.1
835.155	0.18
835.325	1.29
835.494	1.85
835.664	0.93
835.834	0.26
836.004	0.91
836.174	1.49
836.344	0.84
836.514	-0.18
836.684	0.53
836.853	0.82
837.023	1.19
837.193	0.95
837.363	2.05
837.532	1.4
837.702	1.28
837.872	1.11
838.041	1.52
838.211	3
838.381	0.72
838.55	1.31
838.72	3.27
838.89	2.15
839.059	0.58
839.229	0.03
839.398	2.49
839.568	0.8
839.738	0.31
839.907	1.51
840.077	0.79
840.246	0.99
840.416	0.52
840.585	0.56
840.755	2.98
840.924	2.06
841.093	0.45
841.263	0.55
841.432	1.74
841.602	0.91
841.771	0.35
841.94	1.88
842.11	2.83
842.279	2.86
842.448	0.54
842.617	0.73
842.787	2.26
842.956	0.68
843.125	1.56
843.294	1.38
843.464	2.1
843.633	0.9
843.802	-0.09
843.971	1.54
844.14	1.25
844.309	1.77
844.479	0.88
844.648	1.24
844.817	1.42
844.986	1.18
845.155	0.62
845.324	1.04
845.493	1.08
845.662	1.33
845.831	1.42
846	1.57
846.169	0.73
846.338	2.95
846.507	1.5
846.676	1.05
846.844	0.88
847.013	2.38
847.182	1.35
847.351	0.69
847.52	0.83
847.689	2.17
847.858	0.57
848.026	0.25
848.195	1.58
848.364	1.33
848.533	0.69
848.701	0.93
848.87	1.59
849.039	2.83
849.207	1.97
849.376	2.62
849.545	3.17
849.713	0.39
849.882	1.41
850.051	1.29
850.219	1.49
850.388	1.95
850.556	-0.36
850.725	1.28
850.893	2.36
851.062	1.06
851.23	2.06
851.399	0.05
851.567	1.64
851.736	0.74
851.904	0.82
852.073	1.7
852.241	2.94
852.41	1.61
852.578	1.15
852.746	1.13
852.915	1.43
853.083	1.32
853.251	0.69
853.42	0.06
853.588	1.94
853.756	2.08
853.924	0.8
854.093	1.44
854.261	1.27
854.429	-0.21
854.597	1.63
854.765	1
854.934	2.14
855.102	1.86
855.27	2.07
855.438	3.13
855.606	3.98
855.774	3.01
855.942	-0.43
856.11	0.91
856.278	1.64
856.446	2.06
856.614	1.92
856.782	1.24
856.95	3.03
857.118	3.2
857.286	1.33
857.454	0.46
857.622	3.45
857.79	1.2
857.958	-0.32
858.126	1.61
858.294	0.72
858.462	1.22
858.629	1.06
858.797	0.73
858.965	1.93
859.133	2.89
859.301	2.04
859.468	1.31
859.636	1.07
859.804	2.98
859.971	1.85
860.139	0.45
860.307	1.97
860.474	2.65
860.642	0.55
860.81	2.24
860.977	1.19
861.145	2.71
861.313	1.24
861.48	0.72
861.648	2.08
861.815	1.45
861.983	0.78
862.15	0.7
862.318	3.43
862.485	1.65
862.653	1.05
862.82	1.3
862.988	3.84
863.155	3.32
863.322	0.62
863.49	0.31
863.657	1.93
863.824	4.3
863.992	2.14
864.159	2.38
864.326	5.21
864.494	0.27
864.661	4.24
864.828	-0.11
864.996	1.83
865.163	3.48
865.33	0.66
865.497	0.05
865.664	2.11
865.832	0.66
865.999	0.92
866.166	0.88
866.333	1.91
866.5	2.83
866.667	2.56
866.834	1.36
867.001	3.96
867.168	-0.29
867.335	2.27
867.502	-0.33
867.669	1.47
867.836	4.76
868.003	1.32
868.17	2.65
868.337	-0.18
868.504	5.08
868.671	0.21
868.838	1.69
869.005	2.75
869.172	3.18
869.339	2.46
869.505	1.76
869.672	2.27
869.839	3.21
870.006	2.97
870.173	1.31
870.339	2.77
870.506	4.61
870.673	0.09
870.84	2.82
871.006	2.45
871.173	-0.02
871.34	1.64
871.506	-0.11
871.673	2.08
871.839	1.34
872.006	1.6
872.173	0.75
872.339	1.73
872.506	3.54
872.672	1.28
872.839	0.91
873.005	1.35
873.172	5.02
873.338	3.65
873.505	3.68
873.671	4.27
873.838	4
874.004	0.66
874.171	0.92
874.337	2.94
874.503	4.26
874.67	1.92
874.836	1.83
875.002	4.54
875.169	2.9
875.335	2.26
875.501	1.33
875.668	4.93
875.834	0.83
876	2.38
876.166	2.84
876.332	3.23
876.499	5.1
876.665	2.72
876.831	2.97
876.997	5.62
877.163	3.82
877.329	2.56
877.495	1.94
877.662	3.55
877.828	3.09
877.994	1.89
878.16	-0.19
878.326	2.49
878.492	3.76
878.658	3
878.824	2.11
878.99	3.14
879.156	3.39
879.322	5.86
879.487	1.49
879.653	2.03
879.819	2.57
879.985	0.67
880.151	2.98
880.317	2.73
880.483	3.17
880.648	2.63
880.814	-0.28
880.98	3.52
881.146	0.52
881.312	0.13
881.477	3.26
881.643	2.82
881.809	4.69
881.974	3.78
882.14	-2.01
882.306	2.99
882.471	6.4
882.637	0.69
882.803	3.65
882.968	4.95
883.134	7.29
883.299	1.16
883.465	1.43
883.63	3.56
883.796	2.57
883.961	2.5
884.127	3.74
884.292	0.18
884.458	0.92
884.623	0.92
