Data from Apollo_Calib_20240827__AbsoluteIrradiance__23__23-32-02-621.txt Node

Date: Tue Aug 27 23:32:02 BST 2024
User: biology
Spectrometer: FLMT08252
Trigger mode: 0
Integration Time (sec): 5.000000E-1
Scans to average: 5
Electric dark correction enabled: true
Nonlinearity correction enabled: false
Boxcar width: 0
XAxis mode: Wavelengths
Number of Pixels in Spectrum: 3648
>>>>>Begin Spectral Data<<<<<
179.588	-0
179.809	-0
180.03	-0
180.251	-0
180.473	-0
180.694	0
180.915	0
181.136	0
181.357	0
181.578	-0
181.799	-0
182.02	-0
182.241	0
182.462	-0
182.683	0
182.904	-0
183.125	-0
183.346	-0
183.567	0
183.788	0
184.009	0
184.23	0
184.451	0
184.672	0
184.892	0
185.113	0
185.334	0
185.555	0
185.776	0
185.996	0
186.217	0
186.438	0
186.659	0
186.879	0
187.1	0
187.321	0
187.541	0
187.762	0
187.983	0
188.203	0
188.424	0
188.644	0
188.865	0
189.086	0
189.306	0
189.527	0
189.747	0
189.968	0
190.188	0
190.409	0
190.629	0
190.849	0
191.07	0
191.29	0
191.511	0
191.731	0
191.951	0
192.172	0
192.392	0
192.612	0
192.833	0
193.053	0
193.273	0
193.493	0
193.714	0
193.934	0
194.154	0
194.374	0
194.594	0
194.815	0
195.035	0
195.255	0
195.475	0
195.695	0
195.915	0
196.135	0
196.355	0
196.575	0
196.795	0
197.015	0
197.235	0
197.455	0
197.675	0
197.895	0
198.115	0
198.335	0
198.555	0
198.775	0
198.995	0
199.214	0
199.434	0
199.654	0
199.874	0
200.094	3.33
200.313	2.86
200.533	2.63
200.753	2.28
200.973	3.18
201.192	2.83
201.412	1.51
201.632	2.39
201.851	2.97
202.071	1.86
202.291	1.58
202.51	1.59
202.73	2.49
202.95	1.74
203.169	1.41
203.389	1.75
203.608	1.85
203.828	2.08
204.047	1.46
204.267	2.6
204.486	1.77
204.706	1.77
204.925	1.6
205.145	1.28
205.364	2.06
205.583	2.78
205.803	1.45
206.022	1.36
206.242	1.59
206.461	1.54
206.68	1.28
206.9	1.75
207.119	2.27
207.338	2.13
207.557	1.26
207.777	1.11
207.996	1.65
208.215	1.59
208.434	1.16
208.654	0.76
208.873	1.28
209.092	1.95
209.311	1.42
209.53	1.43
209.749	1.2
209.968	1.02
210.187	1.18
210.407	0.81
210.626	1.04
210.845	1.46
211.064	1.41
211.283	0.8
211.502	1.66
211.721	1.17
211.94	0.94
212.159	1.37
212.377	1.36
212.596	1.46
212.815	0.96
213.034	1.24
213.253	1.24
213.472	1.2
213.691	1.02
213.91	0.83
214.128	0.87
214.347	1.5
214.566	0.72
214.785	0.8
215.003	1.14
215.222	1.07
215.441	1.01
215.66	0.67
215.878	0.79
216.097	1.04
216.316	0.67
216.534	1.14
216.753	0.82
216.972	0.77
217.19	0.88
217.409	0.69
217.627	0.58
217.846	0.73
218.064	0.95
218.283	0.73
218.501	1.37
218.72	0.99
218.938	0.56
219.157	0.79
219.375	0.94
219.594	0.95
219.812	0.71
220.031	0.65
220.249	1.05
220.467	1.12
220.686	0.55
220.904	0.65
221.122	0.54
221.341	1
221.559	0.73
221.777	0.57
221.995	0.91
222.214	0.9
222.432	0.61
222.65	0.86
222.868	0.76
223.086	0.84
223.305	0.92
223.523	0.8
223.741	1.14
223.959	0.48
224.177	0.48
224.395	0.6
224.613	0.74
224.831	0.9
225.049	0.59
225.267	0.74
225.485	0.71
225.703	0.55
225.921	0.7
226.139	0.56
226.357	0.79
226.575	0.8
226.793	0.64
227.011	1.4
227.229	0.63
227.447	0.81
227.665	0.44
227.883	0.5
228.1	0.62
228.318	0.62
228.536	0.37
228.754	0.53
228.972	0.62
229.189	0.75
229.407	0.5
229.625	0.54
229.843	0.79
230.06	0.78
230.278	0.57
230.496	0.74
230.713	0.74
230.931	0.7
231.149	0.51
231.366	0.38
231.584	0.61
231.801	0.8
232.019	0.45
232.236	0.43
232.454	0.45
232.671	0.62
232.889	0.49
233.106	0.42
233.324	0.5
233.541	0.55
233.759	0.42
233.976	0.36
234.194	0.57
234.411	0.43
234.628	0.49
234.846	0.43
235.063	0.49
235.28	0.51
235.498	0.55
235.715	0.43
235.932	0.61
236.149	0.57
236.367	0.5
236.584	0.64
236.801	0.46
237.018	0.53
237.236	0.64
237.453	0.33
237.67	0.5
237.887	0.47
238.104	0.45
238.321	0.42
238.538	0.44
238.755	0.6
238.973	0.3
239.19	0.49
239.407	0.52
239.624	0.54
239.841	0.37
240.058	0.41
240.275	0.61
240.492	0.51
240.709	0.54
240.925	0.42
241.142	0.41
241.359	0.41
241.576	0.47
241.793	0.4
242.01	0.52
242.227	0.56
242.444	0.54
242.66	0.59
242.877	0.46
243.094	0.47
243.311	0.5
243.527	0.46
243.744	0.56
243.961	0.52
244.178	0.39
244.394	0.4
244.611	0.53
244.828	0.59
245.044	0.39
245.261	0.49
245.477	0.42
245.694	0.51
245.911	0.38
246.127	0.42
246.344	0.51
246.56	0.46
246.777	0.43
246.993	0.45
247.21	0.4
247.426	0.53
247.643	0.34
247.859	0.35
248.076	0.38
248.292	0.6
248.508	0.39
248.725	0.45
248.941	0.49
249.157	0.57
249.374	0.3
249.59	0.42
249.806	0.38
250.023	0.51
250.239	0.35
250.455	0.31
250.671	0.43
250.888	0.5
251.104	0.48
251.32	0.35
251.536	0.43
251.752	0.42
251.969	0.48
252.185	0.48
252.401	0.55
252.617	0.44
252.833	0.4
253.049	0.45
253.265	0.41
253.481	0.45
253.697	0.3
253.913	0.35
254.129	0.36
254.345	0.35
254.561	0.36
254.777	0.37
254.993	0.46
255.209	0.44
255.425	0.41
255.641	0.36
255.857	0.47
256.073	0.41
256.288	0.31
256.504	0.37
256.72	0.47
256.936	0.48
257.152	0.38
257.367	0.31
257.583	0.42
257.799	0.46
258.015	0.3
258.23	0.33
258.446	0.46
258.662	0.39
258.877	0.35
259.093	0.32
259.309	0.39
259.524	0.35
259.74	0.29
259.955	0.26
260.171	0.4
260.387	0.38
260.602	0.51
260.818	0.44
261.033	0.31
261.249	0.31
261.464	0.31
261.68	0.29
261.895	0.43
262.11	0.4
262.326	0.36
262.541	0.29
262.757	0.42
262.972	0.43
263.187	0.38
263.403	0.36
263.618	0.39
263.833	0.39
264.049	0.29
264.264	0.32
264.479	0.35
264.694	0.45
264.91	0.31
265.125	0.35
265.34	0.35
265.555	0.59
265.77	0.45
265.986	0.36
266.201	0.41
266.416	0.43
266.631	0.26
266.846	0.34
267.061	0.44
267.276	0.36
267.491	0.29
267.706	0.32
267.921	0.43
268.136	0.32
268.351	0.33
268.566	0.25
268.781	0.47
268.996	0.44
269.211	0.37
269.426	0.3
269.641	0.34
269.856	0.35
270.071	0.28
270.285	0.29
270.5	0.37
270.715	0.46
270.93	0.34
271.145	0.34
271.359	0.44
271.574	0.27
271.789	0.35
272.004	0.35
272.218	0.29
272.433	0.39
272.648	0.26
272.862	0.41
273.077	0.3
273.292	0.34
273.506	0.23
273.721	0.29
273.936	0.36
274.15	0.41
274.365	0.27
274.579	0.43
274.794	0.4
275.008	0.37
275.223	0.22
275.437	0.3
275.652	0.49
275.866	0.4
276.081	0.3
276.295	0.34
276.509	0.33
276.724	0.3
276.938	0.31
277.153	0.29
277.367	0.28
277.581	0.26
277.796	0.26
278.01	0.21
278.224	0.37
278.438	0.37
278.653	0.27
278.867	0.32
279.081	0.1
279.295	0.32
279.51	0.4
279.724	0.24
279.938	0.33
280.152	0.4
280.366	0.29
280.58	0.3
280.794	0.41
281.008	0.29
281.222	0.36
281.437	0.47
281.651	0.32
281.865	0.41
282.079	0.31
282.293	0.16
282.507	0.26
282.721	0.26
282.935	0.32
283.148	0.25
283.362	0.26
283.576	0.29
283.79	0.31
284.004	0.26
284.218	0.34
284.432	0.25
284.646	0.32
284.859	0.3
285.073	0.31
285.287	0.32
285.501	0.3
285.714	0.3
285.928	0.3
286.142	0.35
286.356	0.27
286.569	0.27
286.783	0.37
286.997	0.34
287.21	0.29
287.424	0.25
287.637	0.28
287.851	0.23
288.065	0.29
288.278	0.28
288.492	0.33
288.705	0.3
288.919	0.28
289.132	0.24
289.346	0.31
289.559	0.19
289.773	0.2
289.986	0.28
290.2	0.28
290.413	0.29
290.626	0.22
290.84	0.25
291.053	0.23
291.267	0.34
291.48	0.3
291.693	0.3
291.906	0.21
292.12	0.3
292.333	0.21
292.546	0.23
292.76	0.35
292.973	0.29
293.186	0.28
293.399	0.21
293.612	0.34
293.826	0.31
294.039	0.31
294.252	0.24
294.465	0.31
294.678	0.29
294.891	0.27
295.104	0.24
295.317	0.23
295.53	0.27
295.743	0.25
295.956	0.26
296.169	0.35
296.382	0.29
296.595	0.24
296.808	0.24
297.021	0.31
297.234	0.33
297.447	0.26
297.66	0.3
297.873	0.32
298.086	0.26
298.299	0.2
298.511	0.23
298.724	0.26
298.937	0.2
299.15	0.24
299.363	0.25
299.575	0.25
299.788	0.29
300.001	0.24
300.213	0.25
300.426	0.19
300.639	0.25
300.852	0.22
301.064	0.24
301.277	0.3
301.489	0.28
301.702	0.28
301.915	0.27
302.127	0.25
302.34	0.27
302.552	0.28
302.765	0.19
302.977	0.33
303.19	0.22
303.402	0.26
303.615	0.26
303.827	0.24
304.04	0.21
304.252	0.27
304.464	0.23
304.677	0.4
304.889	0.29
305.102	0.22
305.314	0.19
305.526	0.28
305.739	0.27
305.951	0.25
306.163	0.26
306.375	0.31
306.588	0.25
306.8	0.27
307.012	0.23
307.224	0.27
307.436	0.33
307.649	0.18
307.861	0.29
308.073	0.28
308.285	0.24
308.497	0.23
308.709	0.23
308.921	0.32
309.133	0.28
309.346	0.22
309.558	0.25
309.77	0.29
309.982	0.34
310.194	0.27
310.406	0.25
310.617	0.3
310.829	0.26
311.041	0.28
311.253	0.2
311.465	0.25
311.677	0.23
311.889	0.23
312.101	0.19
312.313	0.3
312.524	0.35
312.736	0.2
312.948	0.24
313.16	0.3
313.372	0.24
313.583	0.29
313.795	0.21
314.007	0.23
314.218	0.29
314.43	0.25
314.642	0.22
314.853	0.22
315.065	0.31
315.277	0.24
315.488	0.31
315.7	0.26
315.912	0.25
316.123	0.25
316.335	0.22
316.546	0.37
316.758	0.23
316.969	0.24
317.181	0.25
317.392	0.21
317.604	0.31
317.815	0.24
318.026	0.19
318.238	0.25
318.449	0.24
318.661	0.19
318.872	0.2
319.083	0.21
319.295	0.31
319.506	0.22
319.717	0.26
319.929	0.29
320.14	0.24
320.351	0.32
320.562	0.23
320.774	0.3
320.985	0.29
321.196	0.2
321.407	0.22
321.618	0.27
321.829	0.27
322.041	0.29
322.252	0.25
322.463	0.32
322.674	0.29
322.885	0.2
323.096	0.22
323.307	0.26
323.518	0.26
323.729	0.21
323.94	0.29
324.151	0.25
324.362	0.27
324.573	0.26
324.784	0.23
324.995	0.31
325.206	0.24
325.417	0.23
325.628	0.27
325.838	0.26
326.049	0.24
326.26	0.27
326.471	0.24
326.682	0.27
326.892	0.22
327.103	0.16
327.314	0.21
327.525	0.28
327.735	0.25
327.946	0.22
328.157	0.22
328.368	0.29
328.578	0.23
328.789	0.31
328.999	0.27
329.21	0.25
329.421	0.3
329.631	0.22
329.842	0.24
330.052	0.27
330.263	0.29
330.473	0.31
330.684	0.24
330.894	0.2
331.105	0.24
331.315	0.27
331.526	0.22
331.736	0.35
331.947	0.26
332.157	0.28
332.367	0.17
332.578	0.27
332.788	0.36
332.999	0.28
333.209	0.25
333.419	0.2
333.629	0.28
333.84	0.3
334.05	0.25
334.26	0.33
334.47	0.3
334.681	0.27
334.891	0.24
335.101	0.31
335.311	0.36
335.521	0.27
335.732	0.17
335.942	0.29
336.152	0.25
336.362	0.27
336.572	0.19
336.782	0.28
336.992	0.24
337.202	0.24
337.412	0.22
337.622	0.27
337.832	0.26
338.042	0.29
338.252	0.2
338.462	0.24
338.672	0.28
338.882	0.27
339.092	0.22
339.302	0.36
339.511	0.28
339.721	0.23
339.931	0.24
340.141	0.32
340.351	0.31
340.561	0.28
340.77	0.24
340.98	0.27
341.19	0.27
341.4	0.23
341.609	0.21
341.819	0.25
342.029	0.28
342.238	0.22
342.448	0.21
342.658	0.27
342.867	0.26
343.077	0.24
343.286	0.25
343.496	0.21
343.706	0.34
343.915	0.2
344.125	0.26
344.334	0.3
344.544	0.16
344.753	0.24
344.963	0.24
345.172	0.2
345.381	0.22
345.591	0.23
345.8	0.28
346.01	0.31
346.219	0.3
346.428	0.09
346.638	0.24
346.847	0.28
347.056	0.33
347.266	0.25
347.475	0.26
347.684	0.26
347.893	0.32
348.103	0.29
348.312	0.22
348.521	0.23
348.73	0.28
348.94	0.24
349.149	0.24
349.358	0.26
349.567	0.24
349.776	0.19
349.985	0.26
350.194	0.28
350.403	0.3
350.612	0.19
350.821	0.21
351.03	0.26
351.239	0.18
351.448	0.25
351.657	0.16
351.866	0.34
352.075	0.24
352.284	0.29
352.493	0.2
352.702	0.3
352.911	0.25
353.12	0.24
353.329	0.24
353.538	0.29
353.746	0.23
353.955	0.25
354.164	0.29
354.373	0.28
354.582	0.26
354.79	0.25
354.999	0.25
355.208	0.22
355.416	0.33
355.625	0.19
355.834	0.25
356.042	0.27
356.251	0.21
356.46	0.21
356.668	0.27
356.877	0.33
357.085	0.26
357.294	0.23
357.503	0.26
357.711	0.23
357.92	0.38
358.128	0.27
358.337	0.25
358.545	0.29
358.754	0.24
358.962	0.28
359.17	0.23
359.379	0.26
359.587	0.27
359.796	0.23
360.004	0.26
360.212	0.28
360.421	0.27
360.629	0.23
360.837	0.2
361.046	0.24
361.254	0.37
361.462	0.27
361.67	0.22
361.879	0.28
362.087	0.31
362.295	0.21
362.503	0.24
362.711	0.2
362.92	0.28
363.128	0.2
363.336	0.2
363.544	0.16
363.752	0.26
363.96	0.21
364.168	0.2
364.376	0.26
364.584	0.22
364.792	0.3
365	0.25
365.208	0.25
365.416	0.27
365.624	0.28
365.832	0.23
366.04	0.29
366.248	0.24
366.456	0.27
366.664	0.25
366.872	0.25
367.079	0.19
367.287	0.24
367.495	0.24
367.703	0.27
367.911	0.21
368.118	0.24
368.326	0.26
368.534	0.19
368.742	0.28
368.949	0.2
369.157	0.18
369.365	0.27
369.572	0.23
369.78	0.19
369.988	0.28
370.195	0.29
370.403	0.26
370.61	0.24
370.818	0.26
371.026	0.33
371.233	0.22
371.441	0.25
371.648	0.21
371.856	0.28
372.063	0.24
372.271	0.23
372.478	0.26
372.685	0.2
372.893	0.29
373.1	0.22
373.308	0.28
373.515	0.35
373.722	0.28
373.93	0.25
374.137	0.29
374.344	0.35
374.552	0.27
374.759	0.31
374.966	0.33
375.173	0.22
375.381	0.26
375.588	0.24
375.795	0.21
376.002	0.21
376.209	0.24
376.417	0.26
376.624	0.26
376.831	0.29
377.038	0.24
377.245	0.19
377.452	0.23
377.659	0.3
377.866	0.26
378.073	0.28
378.28	0.22
378.487	0.31
378.694	0.29
378.901	0.23
379.108	0.23
379.315	0.33
379.522	0.33
379.729	0.29
379.936	0.25
380.143	0.25
380.35	0.31
380.557	0.25
380.763	0.27
380.97	0.28
381.177	0.26
381.384	0.24
381.591	0.22
381.797	0.29
382.004	0.22
382.211	0.3
382.418	0.28
382.624	0.32
382.831	0.26
383.038	0.26
383.244	0.26
383.451	0.26
383.658	0.27
383.864	0.25
384.071	0.26
384.277	0.34
384.484	0.22
384.69	0.29
384.897	0.22
385.103	0.25
385.31	0.21
385.516	0.23
385.723	0.22
385.929	0.26
386.136	0.28
386.342	0.31
386.549	0.24
386.755	0.33
386.961	0.29
387.168	0.31
387.374	0.29
387.58	0.36
387.787	0.3
387.993	0.32
388.199	0.24
388.406	0.29
388.612	0.29
388.818	0.25
389.024	0.26
389.231	0.29
389.437	0.34
389.643	0.33
389.849	0.25
390.055	0.25
390.261	0.31
390.467	0.3
390.674	0.24
390.88	0.29
391.086	0.31
391.292	0.26
391.498	0.32
391.704	0.26
391.91	0.28
392.116	0.24
392.322	0.21
392.528	0.31
392.734	0.26
392.94	0.27
393.146	0.3
393.352	0.29
393.557	0.3
393.763	0.29
393.969	0.29
394.175	0.29
394.381	0.3
394.587	0.24
394.792	0.27
394.998	0.35
395.204	0.39
395.41	0.29
395.615	0.31
395.821	0.34
396.027	0.27
396.233	0.28
396.438	0.31
396.644	0.4
396.85	0.35
397.055	0.3
397.261	0.34
397.466	0.34
397.672	0.3
397.878	0.33
398.083	0.33
398.289	0.28
398.494	0.38
398.7	0.35
398.905	0.28
399.111	0.38
399.316	0.29
399.522	0.38
399.727	0.34
399.932	0.31
400.138	0.34
400.343	0.42
400.549	0.36
400.754	0.39
400.959	0.38
401.165	0.33
401.37	0.36
401.575	0.38
401.78	0.34
401.986	0.35
402.191	0.31
402.396	0.39
402.601	0.41
402.807	0.41
403.012	0.36
403.217	0.43
403.422	0.38
403.627	0.39
403.832	0.38
404.037	0.42
404.243	0.46
404.448	0.4
404.653	0.41
404.858	0.43
405.063	0.43
405.268	0.41
405.473	0.35
405.678	0.4
405.883	0.58
406.088	0.48
406.293	0.39
406.498	0.41
406.703	0.46
406.907	0.49
407.112	0.48
407.317	0.53
407.522	0.57
407.727	0.5
407.932	0.55
408.136	0.64
408.341	0.56
408.546	0.59
408.751	0.58
408.956	0.58
409.16	0.64
409.365	0.63
409.57	0.6
409.774	0.64
409.979	0.68
410.184	0.7
410.388	0.63
410.593	0.7
410.798	0.75
411.002	0.71
411.207	0.8
411.411	0.82
411.616	0.81
411.82	0.81
412.025	0.83
412.229	0.83
412.434	0.91
412.638	0.9
412.843	0.92
413.047	0.92
413.252	0.91
413.456	1
413.66	1.07
413.865	0.99
414.069	1.1
414.273	1.06
414.478	1.11
414.682	1.13
414.886	1.14
415.091	1.23
415.295	1.24
415.499	1.36
415.703	1.33
415.908	1.44
416.112	1.35
416.316	1.52
416.52	1.59
416.724	1.5
416.929	1.56
417.133	1.77
417.337	1.72
417.541	1.75
417.745	1.81
417.949	1.98
418.153	1.96
418.357	1.95
418.561	2.24
418.765	2.14
418.969	2.27
419.173	2.37
419.377	2.37
419.581	2.59
419.785	2.59
419.989	2.62
420.193	2.82
420.397	2.81
420.601	2.97
420.804	2.97
421.008	2.97
421.212	3.2
421.416	3.21
421.62	3.21
421.823	3.34
422.027	3.41
422.231	3.38
422.435	3.55
422.638	3.49
422.842	3.66
423.046	3.63
423.249	3.93
423.453	3.97
423.657	4
423.86	4.12
424.064	4.26
424.268	4.32
424.471	4.42
424.675	4.68
424.878	4.66
425.082	4.92
425.285	5.13
425.489	4.96
425.692	5.17
425.896	5.17
426.099	5.39
426.303	5.54
426.506	5.75
426.71	5.87
426.913	6.08
427.116	6.22
427.32	6.28
427.523	6.34
427.726	6.62
427.93	6.7
428.133	7.07
428.336	7.16
428.54	7.38
428.743	7.43
428.946	7.76
429.149	7.71
429.353	7.81
429.556	7.85
429.759	7.99
429.962	7.99
430.165	8.28
430.368	7.89
430.571	7.89
430.775	8.09
430.978	7.93
431.181	8.09
431.384	8.14
431.587	8.19
431.79	8.61
431.993	8.59
432.196	8.72
432.399	9.28
432.602	9.36
432.805	9.41
433.008	10.06
433.211	9.86
433.414	10.21
433.616	10.23
433.819	10.18
434.022	10.38
434.225	10.56
434.428	10.62
434.631	10.86
434.833	10.79
435.036	11.08
435.239	11.21
435.442	11.29
435.645	11.47
435.847	11.53
436.05	11.87
436.253	12.01
436.455	12.01
436.658	11.93
436.861	12.27
437.063	12.39
437.266	12.3
437.468	12.61
437.671	13.1
437.874	12.98
438.076	12.91
438.279	13.33
438.481	13.37
438.684	14.17
438.886	13.79
439.089	14.04
439.291	14.05
439.494	14.31
439.696	14.52
439.899	15.13
440.101	15.56
440.303	15.77
440.506	16.52
440.708	16.18
440.91	16.53
441.113	16.56
441.315	16.92
441.517	16.73
441.72	17.19
441.922	16.7
442.124	16.74
442.326	17.22
442.529	17.35
442.731	17.39
442.933	17.69
443.135	17.34
443.337	17.38
443.539	18
443.742	17.63
443.944	18.16
444.146	18.09
444.348	18.01
444.55	17.95
444.752	18.22
444.954	18.22
445.156	17.98
445.358	18.45
445.56	18.63
445.762	18.49
445.964	18.81
446.166	18.63
446.368	18.56
446.57	18.47
446.772	18.23
446.974	17.96
447.175	18.24
447.377	17.91
447.579	18.59
447.781	18.19
447.983	17.96
448.184	17.48
448.386	17.87
448.588	17.39
448.79	17.31
448.991	17.51
449.193	17.51
449.395	17.01
449.597	16.5
449.798	16.44
450	16.02
450.202	15.82
450.403	15.97
450.605	15.86
450.806	15.48
451.008	15.24
451.21	15.18
451.411	14.75
451.613	13.84
451.814	14.27
452.016	14.15
452.217	13.39
452.419	13.47
452.62	13.08
452.821	12.93
453.023	12.72
453.224	12.45
453.426	11.88
453.627	11.23
453.828	11.27
454.03	11.53
454.231	11.47
454.432	11.15
454.634	10.98
454.835	10.55
455.036	10.59
455.238	10.11
455.439	9.98
455.64	9.62
455.841	9.53
456.042	9.57
456.244	9.32
456.445	9.03
456.646	8.66
456.847	8.68
457.048	8.58
457.249	8.56
457.45	8.24
457.651	7.82
457.852	7.65
458.054	7.42
458.255	7.38
458.456	7.35
458.657	7.23
458.858	6.79
459.058	6.74
459.259	6.9
459.46	6.6
459.661	6.56
459.862	6.55
460.063	6.46
460.264	6.26
460.465	6.06
460.666	6.17
460.866	5.83
461.067	5.51
461.268	5.58
461.469	5.56
461.67	5.46
461.87	5.21
462.071	5.23
462.272	5.27
462.473	5.07
462.673	5.33
462.874	5.2
463.075	5.2
463.275	5.16
463.476	5.28
463.676	5.12
463.877	4.9
464.078	4.99
464.278	5.02
464.479	4.88
464.679	4.74
464.88	4.79
465.08	4.72
465.281	4.55
465.481	4.35
465.682	4.17
465.882	4.16
466.083	4.13
466.283	4.08
466.483	3.91
466.684	3.77
466.884	3.7
467.085	3.74
467.285	3.76
467.485	3.66
467.686	3.57
467.886	3.47
468.086	3.44
468.286	3.41
468.487	3.47
468.687	3.33
468.887	3.28
469.087	3.33
469.287	3.31
469.488	3.11
469.688	3.16
469.888	3.2
470.088	3.11
470.288	3.11
470.488	3.01
470.688	2.89
470.888	2.87
471.088	2.74
471.288	2.8
471.488	2.81
471.688	2.72
471.888	2.66
472.088	2.76
472.288	2.72
472.488	2.64
472.688	2.56
472.888	2.67
473.088	2.6
473.288	2.49
473.488	2.46
473.688	2.58
473.887	2.44
474.087	2.42
474.287	2.4
474.487	2.37
474.687	2.4
474.886	2.34
475.086	2.32
475.286	2.33
475.486	2.31
475.685	2.28
475.885	2.2
476.085	2.26
476.284	2.26
476.484	2.35
476.684	2.27
476.883	2.31
477.083	2.18
477.282	2.18
477.482	2.21
477.681	2.16
477.881	2.09
478.08	2.08
478.28	2.02
478.479	2.14
478.679	2.19
478.878	2.07
479.078	2.06
479.277	2.07
479.477	2.05
479.676	2.06
479.875	1.99
480.075	2.04
480.274	2.03
480.473	2.08
480.673	2.03
480.872	2.08
481.071	2.04
481.271	2.04
481.47	1.97
481.669	2.01
481.868	1.95
482.067	2.01
482.267	1.92
482.466	1.92
482.665	1.94
482.864	1.95
483.063	1.98
483.262	2
483.461	1.99
483.661	2.1
483.86	1.96
484.059	2.02
484.258	2.03
484.457	2.03
484.656	2.01
484.855	2.08
485.054	1.93
485.253	1.95
485.452	1.99
485.651	2.06
485.849	2
486.048	2.07
486.247	2.01
486.446	2.09
486.645	2.08
486.844	2.07
487.043	2.07
487.241	2.07
487.44	2.1
487.639	2.14
487.838	2.13
488.037	2.09
488.235	2.14
488.434	2.13
488.633	2.05
488.831	2.23
489.03	2.26
489.229	2.21
489.427	2.2
489.626	2.25
489.825	2.29
490.023	2.3
490.222	2.28
490.42	2.3
490.619	2.32
490.817	2.33
491.016	2.38
491.214	2.42
491.413	2.42
491.611	2.34
491.81	2.41
492.008	2.39
492.207	2.5
492.405	2.53
492.604	2.46
492.802	2.51
493	2.57
493.199	2.64
493.397	2.61
493.595	2.67
493.794	2.64
493.992	2.72
494.19	2.74
494.388	2.79
494.587	2.75
494.785	2.74
494.983	2.73
495.181	2.82
495.379	2.87
495.578	2.94
495.776	2.92
495.974	2.92
496.172	2.96
496.37	3.08
496.568	3.06
496.766	3.07
496.964	3.19
497.162	3.16
497.36	3.26
497.558	3.23
497.756	3.26
497.954	3.29
498.152	3.38
498.35	3.43
498.548	3.33
498.746	3.38
498.944	3.41
499.142	3.43
499.34	3.53
499.538	3.58
499.736	3.49
499.933	3.64
500.131	3.6
500.329	3.78
500.527	3.76
500.725	3.82
500.922	3.88
501.12	3.8
501.318	3.96
501.516	3.92
501.713	4.01
501.911	3.96
502.109	3.97
502.306	4.08
502.504	4
502.701	4.1
502.899	4.17
503.097	4.29
503.294	4.17
503.492	4.31
503.689	4.36
503.887	4.32
504.084	4.44
504.282	4.4
504.479	4.43
504.677	4.56
504.874	4.56
505.072	4.4
505.269	4.61
505.466	4.65
505.664	4.73
505.861	4.63
506.059	4.8
506.256	4.76
506.453	4.85
506.651	4.94
506.848	5
507.045	4.91
507.242	4.9
507.44	5.01
507.637	5.05
507.834	5.01
508.031	5.13
508.229	5.11
508.426	5.1
508.623	5.26
508.82	5.29
509.017	5.24
509.214	5.25
509.411	5.4
509.608	5.35
509.805	5.46
510.003	5.44
510.2	5.47
510.397	5.62
510.594	5.59
510.791	5.65
510.988	5.63
511.184	5.59
511.381	5.49
511.578	5.63
511.775	5.79
511.972	5.68
512.169	5.8
512.366	5.81
512.563	5.94
512.76	5.97
512.956	5.96
513.153	5.94
513.35	5.93
513.547	5.87
513.744	6.01
513.94	6
514.137	6.13
514.334	6.06
514.53	6.13
514.727	6.34
514.924	6.2
515.12	6.22
515.317	6.24
515.514	6.2
515.71	6.18
515.907	6.45
516.103	6.37
516.3	6.29
516.497	6.43
516.693	6.41
516.89	6.45
517.086	6.5
517.283	6.51
517.479	6.41
517.676	6.59
517.872	6.67
518.068	6.63
518.265	6.59
518.461	6.53
518.658	6.68
518.854	6.72
519.05	6.72
519.247	6.81
519.443	6.71
519.639	6.86
519.836	6.72
520.032	6.74
520.228	6.89
520.424	6.83
520.621	6.93
520.817	6.93
521.013	6.87
521.209	7.05
521.405	7.02
521.601	6.97
521.798	6.98
521.994	6.99
522.19	6.95
522.386	7.01
522.582	7.09
522.778	7.2
522.974	7.04
523.17	7.17
523.366	7.1
523.562	7.13
523.758	7.24
523.954	7.06
524.15	7.2
524.346	7.21
524.542	7.27
524.738	7.18
524.934	7.33
525.129	7.3
525.325	7.23
525.521	7.18
525.717	7.5
525.913	7.27
526.109	7.32
526.304	7.45
526.5	7.43
526.696	7.35
526.892	7.36
527.087	7.59
527.283	7.48
527.479	7.5
527.674	7.28
527.87	7.49
528.066	7.43
528.261	7.5
528.457	7.36
528.653	7.61
528.848	7.53
529.044	7.63
529.239	7.53
529.435	7.51
529.63	7.49
529.826	7.48
530.021	7.57
530.217	7.61
530.412	7.56
530.608	7.62
530.803	7.63
530.999	7.48
531.194	7.64
531.389	7.68
531.585	7.62
531.78	7.76
531.975	7.6
532.171	7.77
532.366	7.71
532.561	7.7
532.757	7.71
532.952	7.87
533.147	7.64
533.342	7.7
533.538	7.63
533.733	7.85
533.928	7.57
534.123	7.84
534.318	7.81
534.513	7.7
534.709	7.85
534.904	7.87
535.099	7.89
535.294	7.85
535.489	7.84
535.684	7.83
535.879	7.8
536.074	7.9
536.269	7.86
536.464	7.92
536.659	7.85
536.854	7.85
537.049	7.9
537.244	7.94
537.439	7.85
537.634	7.9
537.828	7.98
538.023	7.88
538.218	7.87
538.413	7.8
538.608	7.87
538.803	7.91
538.997	7.94
539.192	7.92
539.387	7.9
539.582	7.9
539.776	7.84
539.971	7.99
540.166	8.02
540.36	7.89
540.555	8.06
540.75	8
540.944	8
541.139	8.09
541.334	7.95
541.528	8.02
541.723	8
541.917	8.02
542.112	7.87
542.306	7.86
542.501	7.88
542.695	7.87
542.89	7.93
543.084	7.94
543.279	7.92
543.473	8.04
543.668	8.08
543.862	7.91
544.056	7.95
544.251	8.08
544.445	8.08
544.64	8.15
544.834	7.81
545.028	7.71
545.222	8
545.417	8.18
545.611	8.11
545.805	8.05
546	7.86
546.194	7.99
546.388	8.07
546.582	7.92
546.776	7.94
546.97	8.07
547.165	8.04
547.359	7.96
547.553	7.94
547.747	7.99
547.941	8.19
548.135	8.01
548.329	8.12
548.523	8.08
548.717	7.97
548.911	8
549.105	7.96
549.299	8.08
549.493	8.07
549.687	7.95
549.881	8.14
550.075	8.05
550.269	8
550.463	8.08
550.657	8.08
550.85	8.02
551.044	8.05
551.238	8.15
551.432	8.05
551.626	8.12
551.82	8.09
552.013	8.02
552.207	8.18
552.401	8.15
552.594	8.08
552.788	7.99
552.982	7.96
553.176	8.04
553.369	8.27
553.563	8.13
553.756	8
553.95	8.13
554.144	8.05
554.337	8.12
554.531	7.88
554.724	8.08
554.918	8.15
555.111	8.09
555.305	8.06
555.498	8.04
555.692	8.16
555.885	8.11
556.079	8.02
556.272	8.08
556.466	8.06
556.659	8.01
556.852	8.13
557.046	7.99
557.239	7.89
557.432	7.99
557.626	8.09
557.819	8.17
558.012	8.16
558.206	8.21
558.399	8.12
558.592	8.08
558.785	7.98
558.979	8.06
559.172	8.14
559.365	8.08
559.558	7.98
559.751	7.97
559.944	8.22
560.138	8.11
560.331	8.14
560.524	8.16
560.717	8.1
560.91	8.07
561.103	8.08
561.296	7.96
561.489	8.12
561.682	8.16
561.875	8.12
562.068	8.19
562.261	8.01
562.454	8.26
562.647	8.01
562.84	8.11
563.032	8.11
563.225	7.98
563.418	8.05
563.611	8.1
563.804	8.15
563.997	7.98
564.19	7.87
564.382	8.17
564.575	8.11
564.768	8
564.961	8.13
565.153	8.03
565.346	7.99
565.539	8.12
565.731	8.05
565.924	8.14
566.117	8.21
566.309	8.11
566.502	8.05
566.695	7.93
566.887	8.11
567.08	8.05
567.272	8.06
567.465	8
567.657	8.06
567.85	7.98
568.042	8.05
568.235	8.1
568.427	7.97
568.62	8.02
568.812	7.99
569.005	8.04
569.197	7.9
569.389	8.02
569.582	8.02
569.774	8.01
569.966	7.99
570.159	7.94
570.351	7.94
570.543	8.04
570.736	8.02
570.928	7.9
571.12	8.05
571.312	7.98
571.505	7.8
571.697	8.02
571.889	8.03
572.081	8.01
572.273	7.88
572.465	7.96
572.658	7.98
572.85	8
573.042	8.04
573.234	7.93
573.426	7.92
573.618	7.95
573.81	7.97
574.002	7.94
574.194	7.96
574.386	7.94
574.578	7.87
574.77	7.9
574.962	7.95
575.154	7.78
575.346	7.81
575.538	7.76
575.729	7.78
575.921	7.94
576.113	7.95
576.305	7.93
576.497	8
576.689	7.78
576.88	7.83
577.072	7.93
577.264	7.84
577.456	7.85
577.647	7.74
577.839	7.94
578.031	7.75
578.223	7.84
578.414	7.79
578.606	7.78
578.798	7.84
578.989	7.81
579.181	7.83
579.372	7.74
579.564	7.83
579.755	7.76
579.947	7.71
580.139	7.87
580.33	7.58
580.522	7.76
580.713	7.71
580.905	7.69
581.096	7.82
581.287	7.77
581.479	7.7
581.67	7.79
581.862	7.68
582.053	7.71
582.244	7.59
582.436	7.71
582.627	7.59
582.818	7.56
583.01	7.66
583.201	7.68
583.392	7.59
583.583	7.62
583.775	7.44
583.966	7.53
584.157	7.62
584.348	7.68
584.54	7.56
584.731	7.54
584.922	7.51
585.113	7.44
585.304	7.59
585.495	7.51
585.686	7.63
585.877	7.57
586.068	7.68
586.259	7.56
586.45	7.5
586.641	7.48
586.832	7.58
587.023	7.47
587.214	7.39
587.405	7.56
587.596	7.42
587.787	7.36
587.978	7.46
588.169	7.42
588.36	7.32
588.551	7.4
588.742	7.4
588.932	7.49
589.123	7.23
589.314	7.41
589.505	7.33
589.696	7.37
589.886	7.36
590.077	7.38
590.268	7.27
590.458	7.21
590.649	7.12
590.84	7.27
591.03	7.2
591.221	7.24
591.412	7.14
591.602	7.34
591.793	7.2
591.984	7.21
592.174	7.18
592.365	7.31
592.555	7
592.746	7.08
592.936	7.16
593.127	7.18
593.317	7.19
593.508	7.19
593.698	7.07
593.889	7.12
594.079	7.05
594.269	7.01
594.46	7.01
594.65	7.05
594.84	7.07
595.031	6.95
595.221	6.94
595.411	7
595.602	6.89
595.792	6.93
595.982	6.9
596.172	7.02
596.363	6.85
596.553	6.9
596.743	6.96
596.933	6.84
597.123	6.87
597.314	6.74
597.504	6.71
597.694	6.89
597.884	6.8
598.074	6.87
598.264	6.81
598.454	6.74
598.644	6.78
598.834	6.78
599.024	6.7
599.214	6.67
599.404	6.74
599.594	6.67
599.784	6.67
599.974	6.78
600.164	6.69
600.354	6.63
600.544	6.55
600.734	6.61
600.924	6.57
601.114	6.51
601.303	6.52
601.493	6.56
601.683	6.49
601.873	6.49
602.063	6.51
602.252	6.49
602.442	6.36
602.632	6.43
602.821	6.39
603.011	6.45
603.201	6.43
603.39	6.35
603.58	6.25
603.77	6.38
603.959	6.4
604.149	6.28
604.339	6.35
604.528	6.47
604.718	6.36
604.907	6.29
605.097	6.22
605.286	6.22
605.476	6.21
605.665	6.29
605.855	6.17
606.044	6.25
606.234	6.31
606.423	6.2
606.612	6.12
606.802	6.1
606.991	6.17
607.181	6.23
607.37	6.12
607.559	5.89
607.749	6.1
607.938	5.96
608.127	6.06
608.316	6.01
608.506	6.03
608.695	6.06
608.884	6.02
609.073	5.99
609.263	6.04
609.452	5.96
609.641	5.85
609.83	5.83
610.019	5.93
610.208	5.88
610.397	5.8
610.586	5.85
610.775	5.8
610.965	5.79
611.154	5.69
611.343	5.77
611.532	5.66
611.721	5.88
611.91	5.62
612.099	5.72
612.287	5.57
612.476	5.56
612.665	5.81
612.854	5.64
613.043	5.59
613.232	5.58
613.421	5.49
613.61	5.54
613.798	5.53
613.987	5.61
614.176	5.58
614.365	5.5
614.554	5.49
614.742	5.58
614.931	5.37
615.12	5.43
615.309	5.39
615.497	5.35
615.686	5.28
615.875	5.38
616.063	5.34
616.252	5.29
616.44	5.35
616.629	5.36
616.818	5.18
617.006	5.3
617.195	5.2
617.383	5.24
617.572	5.19
617.76	5.2
617.949	5.19
618.137	5.25
618.326	5.21
618.514	5.07
618.703	5.01
618.891	5.11
619.079	5.02
619.268	5.11
619.456	5.04
619.644	5.14
619.833	4.95
620.021	4.98
620.209	4.85
620.398	4.99
620.586	4.91
620.774	4.99
620.962	4.93
621.151	4.98
621.339	4.91
621.527	4.81
621.715	4.81
621.903	4.87
622.092	4.76
622.28	4.86
622.468	4.67
622.656	4.78
622.844	4.68
623.032	4.77
623.22	4.72
623.408	4.86
623.596	4.69
623.784	4.81
623.972	4.63
624.16	4.74
624.348	4.62
624.536	4.7
624.724	4.6
624.912	4.66
625.1	4.59
625.288	4.6
625.476	4.53
625.664	4.58
625.851	4.51
626.039	4.48
626.227	4.47
626.415	4.49
626.603	4.42
626.79	4.54
626.978	4.41
627.166	4.48
627.354	4.4
627.541	4.39
627.729	4.23
627.917	4.43
628.104	4.4
628.292	4.32
628.48	4.37
628.667	4.27
628.855	4.29
629.042	4.35
629.23	4.25
629.418	4.27
629.605	4.25
629.793	4.17
629.98	4.19
630.168	4.13
630.355	4.22
630.543	4.14
630.73	4.1
630.917	4.07
631.105	4.21
631.292	4.15
631.48	4.12
631.667	4.17
631.854	4.08
632.042	3.95
632.229	3.94
632.416	4.03
632.604	3.97
632.791	3.88
632.978	4.05
633.165	3.91
633.353	3.98
633.54	4.03
633.727	3.87
633.914	3.85
634.101	3.83
634.289	3.89
634.476	3.8
634.663	3.82
634.85	3.78
635.037	3.77
635.224	3.7
635.411	3.79
635.598	3.7
635.785	3.72
635.972	3.71
636.159	3.75
636.346	3.67
636.533	3.64
636.72	3.66
636.907	3.64
637.094	3.63
637.281	3.51
637.468	3.64
637.655	3.61
637.842	3.65
638.029	3.59
638.215	3.55
638.402	3.53
638.589	3.46
638.776	3.5
638.963	3.45
639.149	3.58
639.336	3.53
639.523	3.46
639.709	3.41
639.896	3.46
640.083	3.45
640.27	3.48
640.456	3.39
640.643	3.37
640.829	3.31
641.016	3.34
641.203	3.27
641.389	3.38
641.576	3.29
641.762	3.27
641.949	3.24
642.135	3.33
642.322	3.23
642.508	3.18
642.695	3.22
642.881	3.15
643.068	3.12
643.254	3.16
643.441	3.18
643.627	3.23
643.813	3.08
644	3.19
644.186	3.08
644.372	3.13
644.559	3.14
644.745	3.09
644.931	2.99
645.118	3.06
645.304	3.06
645.49	3.07
645.676	2.98
645.862	3
646.049	3.05
646.235	3.04
646.421	3.1
646.607	3.09
646.793	2.92
646.979	2.9
647.165	2.94
647.352	2.95
647.538	2.93
647.724	2.9
647.91	2.88
648.096	2.91
648.282	2.91
648.468	2.9
648.654	2.88
648.84	2.86
649.026	2.83
649.212	2.84
649.397	2.8
649.583	2.76
649.769	2.85
649.955	2.75
650.141	2.78
650.327	2.76
650.513	2.7
650.698	2.79
650.884	2.65
651.07	2.73
651.256	2.66
651.442	2.74
651.627	2.64
651.813	2.7
651.999	2.65
652.184	2.68
652.37	2.64
652.556	2.61
652.741	2.69
652.927	2.48
653.113	2.59
653.298	2.61
653.484	2.59
653.669	2.58
653.855	2.6
654.04	2.68
654.226	2.52
654.412	2.52
654.597	2.45
654.782	2.61
654.968	2.55
655.153	2.54
655.339	2.46
655.524	2.48
655.71	2.47
655.895	2.46
656.08	2.48
656.266	2.51
656.451	2.42
656.636	2.36
656.822	2.54
657.007	2.4
657.192	2.4
657.378	2.34
657.563	2.4
657.748	2.44
657.933	2.34
658.118	2.32
658.304	2.38
658.489	2.38
658.674	2.36
658.859	2.27
659.044	2.32
659.229	2.3
659.414	2.27
659.599	2.29
659.785	2.23
659.97	2.25
660.155	2.28
660.34	2.29
660.525	2.21
660.71	2.21
660.895	2.24
661.08	2.2
661.264	2.14
661.449	2.25
661.634	2.14
661.819	2.19
662.004	2.12
662.189	2.06
662.374	2.05
662.559	2.06
662.743	2.06
662.928	2.09
663.113	2.03
663.298	1.94
663.483	2.04
663.667	2.05
663.852	2.03
664.037	2.05
664.221	1.96
664.406	2.03
664.591	2.01
664.775	2.02
664.96	1.94
665.145	1.9
665.329	1.95
665.514	1.9
665.698	1.88
665.883	1.87
666.068	1.92
666.252	1.91
666.437	1.79
666.621	1.8
666.806	1.83
666.99	1.8
667.174	1.75
667.359	1.82
667.543	1.76
667.728	1.73
667.912	1.73
668.096	1.79
668.281	1.76
668.465	1.78
668.649	1.74
668.834	1.7
669.018	1.7
669.202	1.7
669.387	1.7
669.571	1.78
669.755	1.67
669.939	1.68
670.124	1.7
670.308	1.72
670.492	1.67
670.676	1.7
670.86	1.61
671.044	1.64
671.228	1.67
671.413	1.62
671.597	1.57
671.781	1.59
671.965	1.61
672.149	1.61
672.333	1.6
672.517	1.58
672.701	1.6
672.885	1.56
673.069	1.48
673.253	1.61
673.437	1.54
673.621	1.53
673.804	1.49
673.988	1.52
674.172	1.48
674.356	1.43
674.54	1.5
674.724	1.61
674.908	1.44
675.091	1.53
675.275	1.51
675.459	1.53
675.643	1.5
675.826	1.44
676.01	1.42
676.194	1.4
676.377	1.42
676.561	1.48
676.745	1.44
676.928	1.41
677.112	1.51
677.296	1.4
677.479	1.39
677.663	1.41
677.846	1.37
678.03	1.39
678.213	1.31
678.397	1.35
678.58	1.33
678.764	1.38
678.947	1.34
679.131	1.37
679.314	1.38
679.498	1.35
679.681	1.4
679.865	1.39
680.048	1.36
680.231	1.33
680.415	1.35
680.598	1.33
680.781	1.26
680.965	1.26
681.148	1.34
681.331	1.29
681.514	1.28
681.698	1.23
681.881	1.26
682.064	1.27
682.247	1.31
682.43	1.16
682.614	1.27
682.797	1.26
682.98	1.27
683.163	1.16
683.346	1.29
683.529	1.19
683.712	1.16
683.895	1.22
684.078	1.2
684.261	1.14
684.444	1.2
684.627	1.21
684.81	1.14
684.993	1.16
685.176	1.22
685.359	1.09
685.542	1.18
685.725	1.23
685.908	1.13
686.091	1.14
686.274	1.19
686.457	1.13
686.639	1.13
686.822	1.15
687.005	1.13
687.188	1.09
687.371	1.17
687.553	1.16
687.736	1.07
687.919	1.22
688.102	1.12
688.284	1.08
688.467	1.05
688.65	1.06
688.832	0.98
689.015	1.1
689.197	1.01
689.38	1.15
689.563	1.14
689.745	1.04
689.928	1.01
690.11	0.98
690.293	1.07
690.475	0.93
690.658	1
690.84	0.95
691.023	0.99
691.205	0.97
691.388	0.95
691.57	1.08
691.752	1.04
691.935	0.91
692.117	0.93
692.3	1
692.482	1
692.664	0.9
692.847	0.99
693.029	1.01
693.211	1
693.393	0.92
693.576	0.92
693.758	0.93
693.94	0.98
694.122	0.93
694.304	0.92
694.487	0.96
694.669	0.98
694.851	0.85
695.033	0.88
695.215	0.9
695.397	0.9
695.579	0.9
695.761	0.82
695.943	0.84
696.125	0.89
696.308	0.92
696.49	0.84
696.671	0.99
696.853	0.87
697.035	0.99
697.217	0.91
697.399	0.94
697.581	0.8
697.763	0.83
697.945	0.81
698.127	0.88
698.309	0.95
698.491	0.84
698.672	0.88
698.854	0.87
699.036	0.92
699.218	0.85
699.399	0.85
699.581	0.92
699.763	0.81
699.945	0.79
700.126	0.77
700.308	0.79
700.49	0.79
700.671	0.75
700.853	0.75
701.035	0.79
701.216	0.79
701.398	0.76
701.579	0.76
701.761	0.89
701.943	0.74
702.124	0.81
702.306	0.81
702.487	0.9
702.669	0.85
702.85	0.75
703.031	0.75
703.213	0.86
703.394	0.82
703.576	0.8
703.757	0.96
703.938	0.84
704.12	0.98
704.301	0.77
704.483	0.72
704.664	0.78
704.845	0.81
705.026	0.82
705.208	0.72
705.389	0.79
705.57	0.75
705.751	0.79
705.933	0.73
706.114	0.84
706.295	0.76
706.476	0.66
706.657	0.84
706.838	0.82
707.02	0.8
707.201	0.71
707.382	0.76
707.563	0.79
707.744	0.64
707.925	0.72
708.106	0.66
708.287	0.73
708.468	0.82
708.649	0.69
708.83	0.79
709.011	0.66
709.192	0.73
709.373	0.59
709.554	0.66
709.734	0.74
709.915	0.74
710.096	0.65
710.277	0.6
710.458	0.7
710.639	0.74
710.819	0.55
711	0.65
711.181	0.72
711.362	0.75
711.542	0.68
711.723	0.69
711.904	0.68
712.085	0.68
712.265	0.65
712.446	0.57
712.627	0.55
712.807	0.68
712.988	0.64
713.168	0.59
713.349	0.68
713.53	0.55
713.71	0.61
713.891	0.6
714.071	0.71
714.252	0.61
714.432	0.61
714.613	0.54
714.793	0.63
714.974	0.73
715.154	0.72
715.334	0.68
715.515	0.76
715.695	0.54
715.876	0.6
716.056	0.64
716.236	0.57
716.417	0.67
716.597	0.56
716.777	0.86
716.957	0.57
717.138	0.67
717.318	0.62
717.498	0.55
717.678	0.66
717.859	0.68
718.039	0.54
718.219	0.67
718.399	0.67
718.579	0.62
718.759	0.58
718.939	0.62
719.12	0.64
719.3	0.59
719.48	0.44
719.66	0.47
719.84	0.72
720.02	0.59
720.2	0.55
720.38	0.57
720.56	0.72
720.74	0.55
720.92	0.53
721.1	0.73
721.279	0.63
721.459	0.57
721.639	0.5
721.819	0.59
721.999	0.53
722.179	0.61
722.359	0.48
722.538	0.54
722.718	0.57
722.898	0.56
723.078	0.6
723.257	0.64
723.437	0.6
723.617	0.59
723.797	0.61
723.976	0.64
724.156	0.67
724.336	0.62
724.515	0.84
724.695	0.42
724.874	0.56
725.054	0.66
725.234	0.56
725.413	0.56
725.593	0.58
725.772	0.57
725.952	0.65
726.131	0.59
726.311	0.55
726.49	0.57
726.67	0.49
726.849	0.5
727.028	0.66
727.208	0.53
727.387	0.63
727.567	0.53
727.746	0.54
727.925	0.5
728.105	0.51
728.284	0.45
728.463	0.59
728.643	0.6
728.822	0.52
729.001	0.58
729.18	0.61
729.359	0.58
729.539	0.53
729.718	0.58
729.897	0.66
730.076	0.53
730.255	0.47
730.434	0.48
730.614	0.62
730.793	0.65
730.972	0.53
731.151	0.58
731.33	0.67
731.509	0.6
731.688	0.56
731.867	0.53
732.046	0.42
732.225	0.85
732.404	0.49
732.583	0.54
732.762	0.64
732.941	0.6
733.12	0.58
733.298	0.56
733.477	0.67
733.656	0.53
733.835	0.57
734.014	0.63
734.193	0.55
734.371	0.61
734.55	0.62
734.729	0.38
734.908	0.57
735.086	0.7
735.265	0.66
735.444	0.51
735.623	0.41
735.801	0.43
735.98	0.61
736.159	0.66
736.337	0.73
736.516	0.64
736.694	0.55
736.873	0.5
737.052	0.76
737.23	0.66
737.409	0.51
737.587	0.79
737.766	0.43
737.944	0.61
738.123	0.71
738.301	0.65
738.479	0.46
738.658	0.62
738.836	0.44
739.015	0.57
739.193	0.71
739.371	0.45
739.55	0.59
739.728	0.52
739.906	0.64
740.085	0.76
740.263	0.5
740.441	0.38
740.62	0.78
740.798	0.6
740.976	0.5
741.154	0.39
741.332	0.68
741.511	0.43
741.689	0.55
741.867	0.68
742.045	0.63
742.223	0.58
742.401	0.39
742.579	0.44
742.757	0.55
742.935	0.44
743.114	0.51
743.292	0.45
743.47	0.56
743.648	0.56
743.826	0.51
744.004	0.52
744.181	0.55
744.359	0.56
744.537	0.44
744.715	0.43
744.893	0.4
745.071	0.4
745.249	0.43
745.427	0.48
745.605	0.43
745.782	0.5
745.96	0.56
746.138	0.53
746.316	0.56
746.493	0.45
746.671	0.42
746.849	0.34
747.027	0.66
747.204	0.41
747.382	0.54
747.56	0.39
747.737	0.46
747.915	0.37
748.093	0.46
748.27	0.38
748.448	0.35
748.625	0.31
748.803	0.29
748.98	0.4
749.158	0.36
749.335	0.5
749.513	0.34
749.69	0.4
749.868	0.41
750.045	0.4
750.223	0.31
750.4	0.15
750.578	0.67
750.755	0.41
750.932	0.21
751.11	0.49
751.287	0.21
751.464	0.43
751.642	0.32
751.819	0.39
751.996	0.51
752.173	0.35
752.351	0.37
752.528	0.47
752.705	0.39
752.882	0.31
753.06	0.44
753.237	0.43
753.414	0.62
753.591	0.53
753.768	0.45
753.945	0.28
754.122	0.31
754.299	0.39
754.476	0.29
754.654	0.41
754.831	0.45
755.008	0.35
755.185	0.37
755.362	0.32
755.539	0.34
755.716	0.52
755.892	0.49
756.069	0.45
756.246	0.37
756.423	0.44
756.6	0.63
756.777	0.36
756.954	0.56
757.131	0.48
757.307	0.26
757.484	0.3
757.661	0.43
757.838	0.51
758.015	0.33
758.191	0.49
758.368	0.32
758.545	0.58
758.721	0.45
758.898	0.3
759.075	0.43
759.251	0.43
759.428	0.55
759.605	0.29
759.781	0.42
759.958	0.39
760.134	0.52
760.311	0.33
760.488	0.53
760.664	0.42
760.841	0.28
761.017	0.25
761.194	0.44
761.37	0.47
761.547	0.41
761.723	0.4
761.899	0.43
762.076	0.25
762.252	0.28
762.429	0.34
762.605	0.49
762.781	0.26
762.958	0.44
763.134	0.36
763.31	0.25
763.486	0.38
763.663	0.17
763.839	0.44
764.015	0.12
764.191	0.24
764.368	0.3
764.544	0.33
764.72	0.4
764.896	0.43
765.072	0.44
765.248	0.27
765.425	0.22
765.601	0.47
765.777	0.27
765.953	0.19
766.129	0.18
766.305	0.27
766.481	0.45
766.657	0.4
766.833	0.51
767.009	0.33
767.185	0.32
767.361	0.28
767.537	0.15
767.713	0.53
767.889	0.26
768.065	0.34
768.24	0.46
768.416	0.48
768.592	0.29
768.768	0.34
768.944	0.25
769.12	0.1
769.295	0.18
769.471	0.31
769.647	0.37
769.823	0.45
769.998	0.26
770.174	0.25
770.35	0.59
770.525	0.71
770.701	0.37
770.877	0.24
771.052	0.23
771.228	0.46
771.403	0.49
771.579	0.39
771.755	0.57
771.93	0.34
772.106	0.23
772.281	0.3
772.457	0.3
772.632	0.36
772.808	0.19
772.983	0.33
773.159	0.21
773.334	0.57
773.509	0.41
773.685	0.25
773.86	0.81
774.036	0.52
774.211	0.38
774.386	0.23
774.562	0.37
774.737	0.27
774.912	0.3
775.087	0.43
775.263	0.28
775.438	0.32
775.613	0.3
775.788	0.35
775.964	0.36
776.139	0.83
776.314	0.24
776.489	0.28
776.664	0.37
776.839	0.2
777.014	0.59
777.19	0.52
777.365	0.53
777.54	0.58
777.715	0.29
777.89	0.46
778.065	0.26
778.24	0.52
778.415	0.5
778.59	0.21
778.765	0.34
778.94	0.44
779.115	0.3
779.289	0.31
779.464	0.31
779.639	0.44
779.814	0.3
779.989	0.06
780.164	0.56
780.339	0.59
780.513	0.35
780.688	0.28
780.863	0.45
781.038	0.55
781.212	0.19
781.387	0.29
781.562	0.69
781.737	0.46
781.911	0.53
782.086	0.17
782.261	0.36
782.435	0.67
782.61	0.43
782.784	0.28
782.959	0.6
783.134	0.31
783.308	0.16
783.483	0.33
783.657	0.65
783.832	0.65
784.006	0.13
784.181	0.48
784.355	0.75
784.53	0.45
784.704	0.34
784.878	0.52
785.053	0.49
785.227	0.75
785.402	0.75
785.576	0.22
785.75	0.4
785.925	0.36
786.099	0.39
786.273	0.48
786.448	0.66
786.622	0.54
786.796	0.44
786.97	0.31
787.145	1.03
787.319	0.23
787.493	0.44
787.667	0.38
787.841	0.38
788.015	0.67
788.19	0.34
788.364	0.4
788.538	0.51
788.712	0.59
788.886	0.54
789.06	0.56
789.234	0.71
789.408	0.13
789.582	0.3
789.756	0.36
789.93	0.21
790.104	0.36
790.278	0.33
790.452	0.25
790.626	0.6
790.8	0.29
790.973	0.55
791.147	0.58
791.321	0.56
791.495	0.68
791.669	0.58
791.843	0.35
792.016	0.73
792.19	0.7
792.364	0.24
792.538	0.92
792.711	0.62
792.885	0.48
793.059	0.16
793.233	-0.07
793.406	0.52
793.58	0.45
793.754	0.42
793.927	0.46
794.101	0.73
794.274	0.63
794.448	0.61
794.622	0.13
794.795	0.74
794.969	0.3
795.142	0.85
795.316	0.39
795.489	0.29
795.663	1.02
795.836	0.2
796.009	0.16
796.183	0.74
796.356	0.62
796.53	0.47
796.703	0.35
796.876	1.06
797.05	0.53
797.223	0.19
797.396	0.68
797.57	0.78
797.743	0.76
797.916	0.55
798.09	0.41
798.263	0.68
798.436	0.53
798.609	0.38
798.782	0.33
798.956	0.47
799.129	0.36
799.302	0.58
799.475	0.24
799.648	0.19
799.821	0.41
799.994	0.42
800.167	0.08
800.34	0.64
800.514	0.55
800.687	0.56
800.86	0.39
801.033	0.28
801.206	0.53
801.379	0.57
801.551	0.71
801.724	0.51
801.897	0.86
802.07	0.47
802.243	0.1
802.416	0.33
802.589	0.48
802.762	0.58
802.935	0.74
803.107	0.6
803.28	0.92
803.453	0.91
803.626	0.36
803.798	0.54
803.971	0.6
804.144	0.51
804.317	0.77
804.489	0.88
804.662	0.51
804.835	0.58
805.007	0.27
805.18	0.9
805.353	0.51
805.525	0.4
805.698	0.21
805.87	0.79
806.043	0.7
806.215	0.09
806.388	0.18
806.56	0.37
806.733	0.47
806.905	0.76
807.078	0.47
807.25	0.23
807.423	0.9
807.595	0.55
807.768	0.61
807.94	0.74
808.112	0.79
808.285	0.27
808.457	0.57
808.629	0.6
808.802	0.64
808.974	0.58
809.146	0.35
809.318	0.38
809.491	0.34
809.663	0.81
809.835	0.47
810.007	0.48
810.18	0.88
810.352	0.31
810.524	0.29
810.696	0.69
810.868	0.95
811.04	0.48
811.212	0.77
811.384	0.5
811.556	0.64
811.728	0.74
811.901	1.32
812.073	0.44
812.245	0.69
812.417	0.42
812.589	0.32
812.76	0.5
812.932	0.8
813.104	0.98
813.276	0.57
813.448	0.96
813.62	0.69
813.792	0.66
813.964	0.7
814.136	0.6
814.307	0.34
814.479	0.38
814.651	0.22
814.823	1.32
814.995	0.43
815.166	0.93
815.338	0.25
815.51	0.11
815.681	0.92
815.853	0.59
816.025	0.37
816.196	1.32
816.368	0.56
816.54	0.35
816.711	0.69
816.883	0.76
817.054	1.35
817.226	0.32
817.398	0.6
817.569	0.37
817.741	0.76
817.912	0.87
818.084	0.36
818.255	1.13
818.426	0.33
818.598	0.58
818.769	0.6
818.941	0.93
819.112	0.96
819.283	0.6
819.455	0.22
819.626	0.4
819.798	0.89
819.969	0.61
820.14	0.48
820.311	0.44
820.483	0.51
820.654	1.03
820.825	0.5
820.996	0.6
821.168	0.46
821.339	0.41
821.51	0.49
821.681	0.44
821.852	0.56
822.023	-0.06
822.195	0.37
822.366	0.81
822.537	0.64
822.708	0.87
822.879	0.28
823.05	1.61
823.221	0.48
823.392	1.18
823.563	0.75
823.734	0.88
823.905	0.4
824.076	0.6
824.247	0.38
824.418	0.27
824.589	1.71
824.759	0.56
824.93	0.02
825.101	0.33
825.272	1.12
825.443	1.39
825.614	1.46
825.784	-0.03
825.955	2.27
826.126	1.5
826.297	0.9
826.467	1.45
826.638	1.62
826.809	0.01
826.98	1.14
827.15	1.03
827.321	0.87
827.492	1.29
827.662	1.06
827.833	1.72
828.003	1.2
828.174	0.42
828.345	-0.09
828.515	1.61
828.686	1.35
828.856	0.6
829.027	1.09
829.197	0.27
829.368	1.18
829.538	0.53
829.709	0.59
829.879	0.59
830.049	0.38
830.22	1
830.39	0.77
830.56	1.22
830.731	0.62
830.901	0.53
831.072	1.13
831.242	0.56
831.412	1.29
831.582	0.36
831.753	0.76
831.923	1.04
832.093	0.64
832.263	0.11
832.434	0.49
832.604	0.34
832.774	0.88
832.944	0.61
833.114	0.21
833.284	0.73
833.454	0.49
833.624	0.15
833.795	0.95
833.965	1.73
834.135	1.12
834.305	-0.34
834.475	0.13
834.645	0.77
834.815	0.45
834.985	0.51
835.155	0.62
835.325	0.43
835.494	1.05
835.664	1.2
835.834	-0.26
836.004	0.97
836.174	0.77
836.344	1.15
836.514	0.6
836.684	0.64
836.853	0.64
837.023	0.87
837.193	0.65
837.363	1.62
837.532	0.94
837.702	0.92
837.872	0.81
838.041	1.2
838.211	1.95
838.381	0.11
838.55	0.57
838.72	2.08
838.89	1.89
839.059	1.15
839.229	0.03
839.398	2.24
839.568	0.94
839.738	1.5
839.907	2.28
840.077	1.25
840.246	0.5
840.416	0.87
840.585	-0.04
840.755	1.71
840.924	1.74
841.093	0.99
841.263	0.26
841.432	1.5
841.602	0.4
841.771	1.14
841.94	1.77
842.11	2.68
842.279	1.84
842.448	-0.54
842.617	1.13
842.787	1.88
842.956	-0.01
843.125	1.26
843.294	0.32
843.464	1.88
843.633	1.04
843.802	-0.57
843.971	1.12
844.14	1.42
844.309	1.38
844.479	0.83
844.648	0.13
844.817	1.28
844.986	0.93
845.155	0.22
845.324	1.28
845.493	0.96
845.662	0.78
845.831	1.13
846	1.14
846.169	0.22
846.338	1.61
846.507	2.12
846.676	1.74
846.844	-0.11
847.013	1.39
847.182	0.23
847.351	1.17
847.52	0.34
847.689	2.21
847.858	1.48
848.026	-0.49
848.195	1.18
848.364	1.12
848.533	0.34
848.701	0.49
848.87	1.6
849.039	1.64
849.207	2.42
849.376	2.5
849.545	1.75
849.713	0.94
849.882	1.17
850.051	1.44
850.219	1.22
850.388	1.26
850.556	0.37
850.725	0.61
850.893	2.08
851.062	0.1
851.23	2.1
851.399	-0.22
851.567	0.6
851.736	0.41
851.904	0.64
852.073	1.22
852.241	1.51
852.41	1.29
852.578	1.19
852.746	0.61
852.915	1.55
853.083	1.26
853.251	-0.23
853.42	0.53
853.588	0.68
853.756	2.35
853.924	0.72
854.093	0.82
854.261	1.23
854.429	0.12
854.597	1.41
854.765	0.38
854.934	1.43
855.102	1.74
855.27	1.66
855.438	2.06
855.606	2.3
855.774	3.17
855.942	-0.19
856.11	0.54
856.278	1.35
856.446	1.36
856.614	2.38
856.782	0.7
856.95	1.72
857.118	2.8
857.286	1.7
857.454	0.25
857.622	2.6
857.79	1.27
857.958	1.02
858.126	0.66
858.294	0.24
858.462	0.71
858.629	1.1
858.797	1.26
858.965	2.18
859.133	1.94
859.301	1.44
859.468	1.79
859.636	1.06
859.804	2.78
859.971	2.26
860.139	1.35
860.307	1.88
860.474	1.41
860.642	0.04
860.81	0.13
860.977	1.03
861.145	1.26
861.313	0.74
861.48	0.89
861.648	2.91
861.815	1.44
861.983	1.23
862.15	1
862.318	2.51
862.485	2.59
862.653	0.27
862.82	0.58
862.988	3.51
863.155	3.21
863.322	0.85
863.49	-0.24
863.657	0.68
863.824	4
863.992	2.43
864.159	2.06
864.326	2.66
864.494	1.77
864.661	3.27
864.828	-0.05
864.996	2.45
865.163	4.63
865.33	1.49
865.497	-0.38
865.664	2.04
865.832	0.15
865.999	1.86
866.166	1.39
866.333	1.2
866.5	2.18
866.667	2.45
866.834	0.66
867.001	2.32
867.168	0.15
867.335	1.37
867.502	1.13
867.669	2.29
867.836	2.98
868.003	1.65
868.17	3.07
868.337	5.04
868.504	4.7
868.671	-0.1
868.838	0.86
869.005	0.92
869.172	3.43
869.339	2.29
869.505	0.37
869.672	1.17
869.839	4.09
870.006	1.89
870.173	0.29
870.339	1.5
870.506	3.19
870.673	-0.25
870.84	3.18
871.006	1.53
871.173	1.39
871.34	0.55
871.506	1.08
871.673	1.87
871.839	1.15
872.006	1.87
872.173	0.58
872.339	2.5
872.506	3.9
872.672	1.15
872.839	1.15
873.005	2.64
873.172	3.84
873.338	1.74
873.505	1.95
873.671	2.31
873.838	0.82
874.004	1.18
874.171	-0.47
874.337	2.71
874.503	2.96
874.67	2.17
874.836	1.16
875.002	4.41
875.169	3.25
875.335	3.49
875.501	1.72
875.668	2.28
875.834	0.89
876	2.26
876.166	3.06
876.332	2.66
876.499	3.36
876.665	2.74
876.831	1.81
876.997	5.11
877.163	2.8
877.329	0.35
877.495	3.3
877.662	3.76
877.828	2.77
877.994	3.39
878.16	-0.53
878.326	1.63
878.492	4.13
878.658	1.54
878.824	3.44
878.99	2.44
879.156	2.52
879.322	4.93
879.487	1.01
879.653	2.53
879.819	2.28
879.985	0.71
880.151	1.63
880.317	2.32
880.483	2.19
880.648	3.53
880.814	-0.5
880.98	2.44
881.146	-0.35
881.312	1.49
881.477	1.84
881.643	1.21
881.809	3.06
881.974	3.6
882.14	-0.09
882.306	2
882.471	5.3
882.637	0.91
882.803	2.55
882.968	2.6
883.134	4.66
883.299	1.01
883.465	1.24
883.63	4.18
883.796	2.47
883.961	5.24
884.127	1.77
884.292	-2.19
884.458	-1.05
884.623	-1.05
