Data from Apollo_Calib_20240827__AbsoluteIrradiance__755__11-44-01-441.txt Node

Date: Wed Aug 28 11:44:01 BST 2024
User: biology
Spectrometer: FLMT08252
Trigger mode: 0
Integration Time (sec): 5.000000E-1
Scans to average: 5
Electric dark correction enabled: true
Nonlinearity correction enabled: false
Boxcar width: 0
XAxis mode: Wavelengths
Number of Pixels in Spectrum: 3648
>>>>>Begin Spectral Data<<<<<
179.588	-0
179.809	-0
180.03	-0
180.251	-0
180.473	-0
180.694	0
180.915	0
181.136	-0
181.357	0
181.578	-0
181.799	0
182.02	-0
182.241	-0
182.462	-0
182.683	0
182.904	-0
183.125	-0
183.346	0
183.567	0
183.788	0
184.009	0
184.23	0
184.451	0
184.672	0
184.892	0
185.113	0
185.334	0
185.555	0
185.776	0
185.996	0
186.217	0
186.438	0
186.659	0
186.879	0
187.1	0
187.321	0
187.541	0
187.762	0
187.983	0
188.203	0
188.424	0
188.644	0
188.865	0
189.086	0
189.306	0
189.527	0
189.747	0
189.968	0
190.188	0
190.409	0
190.629	0
190.849	0
191.07	0
191.29	0
191.511	0
191.731	0
191.951	0
192.172	0
192.392	0
192.612	0
192.833	0
193.053	0
193.273	0
193.493	0
193.714	0
193.934	0
194.154	0
194.374	0
194.594	0
194.815	0
195.035	0
195.255	0
195.475	0
195.695	0
195.915	0
196.135	0
196.355	0
196.575	0
196.795	0
197.015	0
197.235	0
197.455	0
197.675	0
197.895	0
198.115	0
198.335	0
198.555	0
198.775	0
198.995	0
199.214	0
199.434	0
199.654	0
199.874	0
200.094	2.94
200.313	1.49
200.533	1.27
200.753	1.47
200.973	2.65
201.192	2.47
201.412	1.45
201.632	1.34
201.851	3.14
202.071	1.38
202.291	1.15
202.51	1.02
202.73	2.05
202.95	1.17
203.169	0.9
203.389	1.65
203.608	1.23
203.828	1.22
204.047	1.19
204.267	1.5
204.486	1.69
204.706	1.72
204.925	1.3
205.145	0.97
205.364	1.77
205.583	1.95
205.803	1.21
206.022	0.58
206.242	1.28
206.461	0.93
206.68	0.86
206.9	0.96
207.119	2.01
207.338	1.8
207.557	0.76
207.777	1.02
207.996	0.95
208.215	1.43
208.434	0.8
208.654	0.58
208.873	1.13
209.092	1.57
209.311	0.78
209.53	0.7
209.749	1.21
209.968	0.62
210.187	0.68
210.407	0.15
210.626	0.9
210.845	1.25
211.064	0.81
211.283	0.55
211.502	1.15
211.721	0.81
211.94	0.63
212.159	0.91
212.377	0.9
212.596	1.42
212.815	0.86
213.034	0.74
213.253	1.16
213.472	1.11
213.691	0.62
213.91	0.6
214.128	0.48
214.347	1.14
214.566	0.37
214.785	0.29
215.003	1.06
215.222	0.78
215.441	0.65
215.66	0.35
215.878	0.59
216.097	0.87
216.316	0.51
216.534	0.7
216.753	0.58
216.972	0.74
217.19	0.64
217.409	0.69
217.627	0.44
217.846	0.56
218.064	0.71
218.283	0.43
218.501	1.03
218.72	0.91
218.938	0.36
219.157	0.37
219.375	1.07
219.594	0.64
219.812	0.36
220.031	0.32
220.249	0.91
220.467	0.85
220.686	0.36
220.904	0.36
221.122	0.7
221.341	0.9
221.559	0.59
221.777	0.29
221.995	0.6
222.214	0.87
222.432	0.47
222.65	0.65
222.868	0.57
223.086	0.56
223.305	0.73
223.523	0.48
223.741	0.88
223.959	0.46
224.177	0.11
224.395	0.41
224.613	0.67
224.831	0.62
225.049	0.2
225.267	0.6
225.485	0.59
225.703	0.52
225.921	0.47
226.139	0.38
226.357	0.63
226.575	0.61
226.793	0.3
227.011	1.32
227.229	0.67
227.447	0.61
227.665	0.48
227.883	0.18
228.1	0.55
228.318	0.52
228.536	0.16
228.754	0.24
228.972	0.59
229.189	0.56
229.407	0.43
229.625	0.57
229.843	0.59
230.06	0.72
230.278	0.37
230.496	0.42
230.713	0.51
230.931	0.58
231.149	0.24
231.366	0.2
231.584	0.39
231.801	0.88
232.019	0.37
232.236	0.27
232.454	0.41
232.671	0.65
232.889	0.36
233.106	0.26
233.324	0.42
233.541	0.39
233.759	0.4
233.976	0.21
234.194	0.39
234.411	0.43
234.628	0.36
234.846	0.38
235.063	0.39
235.28	0.43
235.498	0.4
235.715	0.18
235.932	0.49
236.149	0.34
236.367	0.27
236.584	0.42
236.801	0.25
237.018	0.46
237.236	0.35
237.453	0.18
237.67	0.49
237.887	0.33
238.104	0.39
238.321	0.27
238.538	0.25
238.755	0.53
238.973	0.23
239.19	0.36
239.407	0.38
239.624	0.46
239.841	0.28
240.058	0.29
240.275	0.45
240.492	0.38
240.709	0.24
240.925	0.4
241.142	0.33
241.359	0.19
241.576	0.25
241.793	0.33
242.01	0.29
242.227	0.51
242.444	0.45
242.66	0.48
242.877	0.35
243.094	0.3
243.311	0.37
243.527	0.33
243.744	0.38
243.961	0.34
244.178	0.19
244.394	0.4
244.611	0.42
244.828	0.61
245.044	0.19
245.261	0.35
245.477	0.38
245.694	0.5
245.911	0.24
246.127	0.28
246.344	0.46
246.56	0.39
246.777	0.34
246.993	0.39
247.21	0.39
247.426	0.47
247.643	0.23
247.859	0.19
248.076	0.3
248.292	0.47
248.508	0.3
248.725	0.37
248.941	0.37
249.157	0.47
249.374	0.22
249.59	0.28
249.806	0.34
250.023	0.38
250.239	0.26
250.455	0.3
250.671	0.31
250.888	0.43
251.104	0.39
251.32	0.21
251.536	0.33
251.752	0.26
251.969	0.34
252.185	0.29
252.401	0.44
252.617	0.33
252.833	0.26
253.049	0.33
253.265	0.34
253.481	0.35
253.697	0.27
253.913	0.16
254.129	0.26
254.345	0.37
254.561	0.24
254.777	0.29
254.993	0.35
255.209	0.3
255.425	0.27
255.641	0.22
255.857	0.38
256.073	0.29
256.288	0.18
256.504	0.16
256.72	0.32
256.936	0.45
257.152	0.25
257.367	0.23
257.583	0.28
257.799	0.37
258.015	0.22
258.23	0.24
258.446	0.51
258.662	0.29
258.877	0.24
259.093	0.16
259.309	0.29
259.524	0.29
259.74	0.17
259.955	0.14
260.171	0.28
260.387	0.28
260.602	0.33
260.818	0.33
261.033	0.26
261.249	0.24
261.464	0.24
261.68	0.11
261.895	0.27
262.11	0.39
262.326	0.25
262.541	0.15
262.757	0.37
262.972	0.28
263.187	0.23
263.403	0.29
263.618	0.38
263.833	0.25
264.049	0.24
264.264	0.26
264.479	0.25
264.694	0.45
264.91	0.19
265.125	0.23
265.34	0.34
265.555	0.45
265.77	0.29
265.986	0.22
266.201	0.32
266.416	0.41
266.631	0.18
266.846	0.25
267.061	0.38
267.276	0.32
267.491	0.11
267.706	0.26
267.921	0.27
268.136	0.31
268.351	0.27
268.566	0.22
268.781	0.37
268.996	0.3
269.211	0.18
269.426	0.22
269.641	0.28
269.856	0.34
270.071	0.2
270.285	0.17
270.5	0.35
270.715	0.38
270.93	0.24
271.145	0.22
271.359	0.38
271.574	0.2
271.789	0.25
272.004	0.18
272.218	0.28
272.433	0.32
272.648	0.18
272.862	0.28
273.077	0.29
273.292	0.26
273.506	0.13
273.721	0.26
273.936	0.3
274.15	0.35
274.365	0.17
274.579	0.31
274.794	0.28
275.008	0.32
275.223	0.17
275.437	0.2
275.652	0.26
275.866	0.24
276.081	0.24
276.295	0.27
276.509	0.2
276.724	0.23
276.938	0.22
277.153	0.27
277.367	0.27
277.581	0.2
277.796	0.15
278.01	0.14
278.224	0.24
278.438	0.4
278.653	0.19
278.867	0.15
279.081	0.08
279.295	0.21
279.51	0.25
279.724	0.11
279.938	0.23
280.152	0.3
280.366	0.13
280.58	0.23
280.794	0.33
281.008	0.28
281.222	0.26
281.437	0.38
281.651	0.26
281.865	0.34
282.079	0.26
282.293	0.09
282.507	0.16
282.721	0.26
282.935	0.2
283.148	0.1
283.362	0.25
283.576	0.15
283.79	0.25
284.004	0.17
284.218	0.33
284.432	0.19
284.646	0.25
284.859	0.18
285.073	0.19
285.287	0.26
285.501	0.22
285.714	0.23
285.928	0.22
286.142	0.23
286.356	0.18
286.569	0.18
286.783	0.31
286.997	0.25
287.21	0.27
287.424	0.21
287.637	0.18
287.851	0.18
288.065	0.31
288.278	0.17
288.492	0.25
288.705	0.2
288.919	0.26
289.132	0.16
289.346	0.28
289.559	0.17
289.773	0.14
289.986	0.22
290.2	0.18
290.413	0.26
290.626	0.17
290.84	0.18
291.053	0.26
291.267	0.31
291.48	0.18
291.693	0.18
291.906	0.16
292.12	0.23
292.333	0.18
292.546	0.2
292.76	0.3
292.973	0.26
293.186	0.24
293.399	0.18
293.612	0.27
293.826	0.2
294.039	0.19
294.252	0.2
294.465	0.26
294.678	0.21
294.891	0.25
295.104	0.18
295.317	0.22
295.53	0.23
295.743	0.18
295.956	0.22
296.169	0.31
296.382	0.28
296.595	0.21
296.808	0.17
297.021	0.22
297.234	0.25
297.447	0.21
297.66	0.2
297.873	0.27
298.086	0.23
298.299	0.15
298.511	0.08
298.724	0.21
298.937	0.15
299.15	0.13
299.363	0.2
299.575	0.26
299.788	0.25
300.001	0.2
300.213	0.18
300.426	0.2
300.639	0.18
300.852	0.17
301.064	0.24
301.277	0.28
301.489	0.2
301.702	0.24
301.915	0.23
302.127	0.19
302.34	0.21
302.552	0.22
302.765	0.18
302.977	0.21
303.19	0.14
303.402	0.19
303.615	0.18
303.827	0.21
304.04	0.19
304.252	0.26
304.464	0.18
304.677	0.27
304.889	0.24
305.102	0.12
305.314	0.15
305.526	0.23
305.739	0.22
305.951	0.14
306.163	0.18
306.375	0.31
306.588	0.19
306.8	0.15
307.012	0.13
307.224	0.19
307.436	0.27
307.649	0.09
307.861	0.21
308.073	0.24
308.285	0.16
308.497	0.13
308.709	0.16
308.921	0.2
309.133	0.24
309.346	0.15
309.558	0.18
309.77	0.25
309.982	0.26
310.194	0.21
310.406	0.16
310.617	0.28
310.829	0.18
311.041	0.23
311.253	0.17
311.465	0.22
311.677	0.21
311.889	0.21
312.101	0.14
312.313	0.26
312.524	0.27
312.736	0.09
312.948	0.17
313.16	0.26
313.372	0.22
313.583	0.21
313.795	0.17
314.007	0.18
314.218	0.23
314.43	0.17
314.642	0.14
314.853	0.15
315.065	0.25
315.277	0.22
315.488	0.22
315.7	0.18
315.912	0.22
316.123	0.16
316.335	0.16
316.546	0.3
316.758	0.23
316.969	0.18
317.181	0.2
317.392	0.22
317.604	0.31
317.815	0.16
318.026	0.13
318.238	0.14
318.449	0.24
318.661	0.13
318.872	0.16
319.083	0.15
319.295	0.23
319.506	0.21
319.717	0.15
319.929	0.21
320.14	0.2
320.351	0.19
320.562	0.16
320.774	0.23
320.985	0.2
321.196	0.16
321.407	0.1
321.618	0.24
321.829	0.22
322.041	0.22
322.252	0.14
322.463	0.23
322.674	0.24
322.885	0.11
323.096	0.19
323.307	0.19
323.518	0.19
323.729	0.16
323.94	0.18
324.151	0.18
324.362	0.21
324.573	0.21
324.784	0.15
324.995	0.27
325.206	0.18
325.417	0.15
325.628	0.17
325.838	0.21
326.049	0.2
326.26	0.25
326.471	0.17
326.682	0.19
326.892	0.21
327.103	0.18
327.314	0.14
327.525	0.24
327.735	0.21
327.946	0.16
328.157	0.13
328.368	0.2
328.578	0.22
328.789	0.27
328.999	0.18
329.21	0.21
329.421	0.26
329.631	0.15
329.842	0.13
330.052	0.2
330.263	0.23
330.473	0.24
330.684	0.19
330.894	0.16
331.105	0.22
331.315	0.22
331.526	0.14
331.736	0.3
331.947	0.24
332.157	0.24
332.367	0.12
332.578	0.25
332.788	0.24
332.999	0.23
333.209	0.19
333.419	0.15
333.629	0.24
333.84	0.22
334.05	0.19
334.26	0.27
334.47	0.18
334.681	0.26
334.891	0.15
335.101	0.21
335.311	0.32
335.521	0.15
335.732	0.13
335.942	0.27
336.152	0.23
336.362	0.21
336.572	0.19
336.782	0.23
336.992	0.16
337.202	0.17
337.412	0.15
337.622	0.2
337.832	0.18
338.042	0.22
338.252	0.14
338.462	0.21
338.672	0.22
338.882	0.19
339.092	0.21
339.302	0.25
339.511	0.21
339.721	0.14
339.931	0.1
340.141	0.24
340.351	0.25
340.561	0.2
340.77	0.19
340.98	0.2
341.19	0.22
341.4	0.23
341.609	0.13
341.819	0.18
342.029	0.15
342.238	0.19
342.448	0.16
342.658	0.2
342.867	0.22
343.077	0.21
343.286	0.16
343.496	0.22
343.706	0.28
343.915	0.13
344.125	0.17
344.334	0.22
344.544	0.12
344.753	0.17
344.963	0.16
345.172	0.17
345.381	0.17
345.591	0.15
345.8	0.2
346.01	0.25
346.219	0.25
346.428	0.05
346.638	0.17
346.847	0.22
347.056	0.22
347.266	0.15
347.475	0.15
347.684	0.23
347.893	0.23
348.103	0.16
348.312	0.16
348.521	0.18
348.73	0.2
348.94	0.17
349.149	0.12
349.358	0.16
349.567	0.15
349.776	0.11
349.985	0.17
350.194	0.22
350.403	0.24
350.612	0.12
350.821	0.15
351.03	0.19
351.239	0.12
351.448	0.25
351.657	0.14
351.866	0.26
352.075	0.21
352.284	0.15
352.493	0.15
352.702	0.28
352.911	0.19
353.12	0.18
353.329	0.1
353.538	0.23
353.746	0.19
353.955	0.14
354.164	0.19
354.373	0.21
354.582	0.24
354.79	0.16
354.999	0.24
355.208	0.17
355.416	0.24
355.625	0.16
355.834	0.17
356.042	0.18
356.251	0.15
356.46	0.16
356.668	0.19
356.877	0.28
357.085	0.23
357.294	0.1
357.503	0.22
357.711	0.23
357.92	0.33
358.128	0.18
358.337	0.14
358.545	0.22
358.754	0.19
358.962	0.21
359.17	0.18
359.379	0.2
359.587	0.25
359.796	0.17
360.004	0.21
360.212	0.22
360.421	0.23
360.629	0.18
360.837	0.18
361.046	0.21
361.254	0.3
361.462	0.18
361.67	0.16
361.879	0.2
362.087	0.27
362.295	0.18
362.503	0.18
362.711	0.14
362.92	0.16
363.128	0.14
363.336	0.12
363.544	0.13
363.752	0.16
363.96	0.17
364.168	0.12
364.376	0.19
364.584	0.2
364.792	0.23
365	0.23
365.208	0.17
365.416	0.21
365.624	0.2
365.832	0.17
366.04	0.24
366.248	0.19
366.456	0.18
366.664	0.18
366.872	0.16
367.079	0.18
367.287	0.19
367.495	0.19
367.703	0.19
367.911	0.14
368.118	0.16
368.326	0.21
368.534	0.16
368.742	0.23
368.949	0.11
369.157	0.17
369.365	0.23
369.572	0.17
369.78	0.16
369.988	0.22
370.195	0.2
370.403	0.24
370.61	0.17
370.818	0.18
371.026	0.28
371.233	0.14
371.441	0.21
371.648	0.16
371.856	0.15
372.063	0.21
372.271	0.17
372.478	0.16
372.685	0.18
372.893	0.22
373.1	0.17
373.308	0.16
373.515	0.26
373.722	0.23
373.93	0.17
374.137	0.22
374.344	0.28
374.552	0.25
374.759	0.2
374.966	0.23
375.173	0.2
375.381	0.28
375.588	0.13
375.795	0.13
376.002	0.19
376.209	0.16
376.417	0.19
376.624	0.19
376.831	0.26
377.038	0.21
377.245	0.14
377.452	0.17
377.659	0.17
377.866	0.2
378.073	0.17
378.28	0.19
378.487	0.25
378.694	0.26
378.901	0.19
379.108	0.17
379.315	0.24
379.522	0.3
379.729	0.16
379.936	0.18
380.143	0.24
380.35	0.24
380.557	0.19
380.763	0.25
380.97	0.27
381.177	0.23
381.384	0.23
381.591	0.2
381.797	0.21
382.004	0.22
382.211	0.21
382.418	0.16
382.624	0.26
382.831	0.26
383.038	0.18
383.244	0.2
383.451	0.2
383.658	0.2
383.864	0.23
384.071	0.17
384.277	0.28
384.484	0.15
384.69	0.25
384.897	0.17
385.103	0.18
385.31	0.2
385.516	0.2
385.723	0.17
385.929	0.17
386.136	0.19
386.342	0.26
386.549	0.15
386.755	0.26
386.961	0.25
387.168	0.19
387.374	0.2
387.58	0.25
387.787	0.26
387.993	0.23
388.199	0.2
388.406	0.21
388.612	0.19
388.818	0.17
389.024	0.15
389.231	0.23
389.437	0.3
389.643	0.25
389.849	0.23
390.055	0.25
390.261	0.23
390.467	0.28
390.674	0.17
390.88	0.23
391.086	0.27
391.292	0.19
391.498	0.26
391.704	0.28
391.91	0.21
392.116	0.17
392.322	0.12
392.528	0.24
392.734	0.25
392.94	0.24
393.146	0.19
393.352	0.21
393.557	0.2
393.763	0.21
393.969	0.25
394.175	0.21
394.381	0.25
394.587	0.18
394.792	0.19
394.998	0.26
395.204	0.29
395.41	0.22
395.615	0.25
395.821	0.24
396.027	0.26
396.233	0.24
396.438	0.24
396.644	0.25
396.85	0.25
397.055	0.26
397.261	0.25
397.466	0.35
397.672	0.25
397.878	0.27
398.083	0.29
398.289	0.21
398.494	0.27
398.7	0.32
398.905	0.14
399.111	0.34
399.316	0.21
399.522	0.27
399.727	0.27
399.932	0.22
400.138	0.22
400.343	0.28
400.549	0.23
400.754	0.27
400.959	0.29
401.165	0.24
401.37	0.31
401.575	0.4
401.78	0.31
401.986	0.27
402.191	0.28
402.396	0.26
402.601	0.33
402.807	0.26
403.012	0.32
403.217	0.34
403.422	0.33
403.627	0.29
403.832	0.28
404.037	0.34
404.243	0.37
404.448	0.25
404.653	0.29
404.858	0.37
405.063	0.37
405.268	0.32
405.473	0.28
405.678	0.31
405.883	0.52
406.088	0.37
406.293	0.29
406.498	0.33
406.703	0.4
406.907	0.36
407.112	0.29
407.317	0.41
407.522	0.45
407.727	0.32
407.932	0.4
408.136	0.5
408.341	0.42
408.546	0.44
408.751	0.44
408.956	0.48
409.16	0.5
409.365	0.48
409.57	0.48
409.774	0.45
409.979	0.53
410.184	0.53
410.388	0.43
410.593	0.6
410.798	0.57
411.002	0.52
411.207	0.59
411.411	0.58
411.616	0.55
411.82	0.6
412.025	0.66
412.229	0.61
412.434	0.69
412.638	0.66
412.843	0.68
413.047	0.72
413.252	0.69
413.456	0.77
413.66	0.83
413.865	0.73
414.069	0.86
414.273	0.82
414.478	0.8
414.682	0.91
414.886	0.97
415.091	0.91
415.295	0.95
415.499	1.04
415.703	0.97
415.908	1.14
416.112	1.07
416.316	1.17
416.52	1.18
416.724	1.2
416.929	1.22
417.133	1.43
417.337	1.3
417.541	1.36
417.745	1.43
417.949	1.5
418.153	1.55
418.357	1.52
418.561	1.76
418.765	1.76
418.969	1.82
419.173	1.87
419.377	1.88
419.581	2.04
419.785	2.06
419.989	2.07
420.193	2.19
420.397	2.25
420.601	2.34
420.804	2.4
421.008	2.35
421.212	2.52
421.416	2.63
421.62	2.46
421.823	2.6
422.027	2.78
422.231	2.73
422.435	2.73
422.638	2.79
422.842	2.91
423.046	2.94
423.249	3.15
423.453	3.08
423.657	3.23
423.86	3.32
424.064	3.35
424.268	3.56
424.471	3.53
424.675	3.74
424.878	3.8
425.082	3.8
425.285	4.11
425.489	4.03
425.692	4.06
425.896	4.05
426.099	4.29
426.303	4.35
426.506	4.44
426.71	4.71
426.913	4.83
427.116	4.9
427.32	4.94
427.523	5.06
427.726	5.25
427.93	5.29
428.133	5.57
428.336	5.71
428.54	5.79
428.743	5.87
428.946	6.18
429.149	6.14
429.353	6.14
429.556	6.15
429.759	6.21
429.962	6.27
430.165	6.48
430.368	6.2
430.571	6.2
430.775	6.25
430.978	6.16
431.181	6.22
431.384	6.33
431.587	6.34
431.79	6.65
431.993	6.62
432.196	6.85
432.399	7.09
432.602	7.29
432.805	7.32
433.008	7.67
433.211	7.58
433.414	7.81
433.616	7.89
433.819	7.81
434.022	7.94
434.225	8.1
434.428	8.19
434.631	8.51
434.833	8.23
435.036	8.5
435.239	8.62
435.442	8.76
435.645	8.71
435.847	8.87
436.05	9.07
436.253	9.24
436.455	9.23
436.658	9.21
436.861	9.46
437.063	9.51
437.266	9.53
437.468	9.79
437.671	10.04
437.874	10.05
438.076	9.9
438.279	10.33
438.481	10.34
438.684	10.93
438.886	10.74
439.089	10.94
439.291	11.03
439.494	11.24
439.696	11.33
439.899	11.7
440.101	12.14
440.303	12.19
440.506	12.85
440.708	12.7
440.91	12.79
441.113	12.92
441.315	13.05
441.517	13.07
441.72	13.47
441.922	13.13
442.124	13.02
442.326	13.51
442.529	13.62
442.731	13.8
442.933	13.9
443.135	13.69
443.337	13.64
443.539	14.05
443.742	13.89
443.944	14.4
444.146	14.23
444.348	14.16
444.55	14.04
444.752	14.26
444.954	14.21
445.156	14.23
445.358	14.52
445.56	14.68
445.762	14.53
445.964	14.74
446.166	14.64
446.368	14.53
446.57	14.63
446.772	14.33
446.974	14.12
447.175	14.38
447.377	14.18
447.579	14.5
447.781	14.25
447.983	14.01
448.184	13.69
448.386	13.97
448.588	13.57
448.79	13.6
448.991	13.81
449.193	13.88
449.395	13.22
449.597	12.95
449.798	12.86
450	12.5
450.202	12.36
450.403	12.5
450.605	12.33
450.806	12
451.008	11.96
451.21	11.67
451.411	11.33
451.613	10.66
451.814	10.92
452.016	10.87
452.217	10.4
452.419	10.35
452.62	10.02
452.821	9.88
453.023	9.8
453.224	9.49
453.426	9.19
453.627	8.54
453.828	8.71
454.03	8.75
454.231	8.64
454.432	8.51
454.634	8.36
454.835	7.94
455.036	7.92
455.238	7.73
455.439	7.46
455.64	7.28
455.841	7.13
456.042	7.3
456.244	6.93
456.445	6.71
456.646	6.5
456.847	6.45
457.048	6.4
457.249	6.53
457.45	6.27
457.651	5.84
457.852	5.85
458.054	5.49
458.255	5.45
458.456	5.48
458.657	5.48
458.858	5.06
459.058	5.09
459.259	5.1
459.46	4.83
459.661	4.82
459.862	4.95
460.063	4.79
460.264	4.76
460.465	4.52
460.666	4.62
460.866	4.33
461.067	4.17
461.268	4.15
461.469	4.15
461.67	4.08
461.87	4
462.071	3.9
462.272	3.93
462.473	3.84
462.673	3.99
462.874	3.92
463.075	3.88
463.275	3.87
463.476	3.99
463.676	3.85
463.877	3.7
464.078	3.79
464.278	3.76
464.479	3.68
464.679	3.54
464.88	3.56
465.08	3.58
465.281	3.37
465.481	3.23
465.682	3.13
465.882	3.11
466.083	3.09
466.283	3.03
466.483	2.9
466.684	2.83
466.884	2.8
467.085	2.76
467.285	2.84
467.485	2.73
467.686	2.62
467.886	2.57
468.086	2.58
468.286	2.54
468.487	2.58
468.687	2.41
468.887	2.41
469.087	2.46
469.287	2.48
469.488	2.24
469.688	2.36
469.888	2.35
470.088	2.35
470.288	2.27
470.488	2.2
470.688	2.16
470.888	2.07
471.088	2
471.288	2.1
471.488	2.05
471.688	2.04
471.888	1.96
472.088	2.17
472.288	2.02
472.488	1.93
472.688	1.9
472.888	1.93
473.088	1.89
473.288	1.81
473.488	1.82
473.688	2
473.887	1.85
474.087	1.8
474.287	1.82
474.487	1.8
474.687	1.8
474.886	1.75
475.086	1.72
475.286	1.73
475.486	1.7
475.685	1.68
475.885	1.63
476.085	1.72
476.284	1.68
476.484	1.66
476.684	1.65
476.883	1.72
477.083	1.61
477.282	1.54
477.482	1.69
477.681	1.61
477.881	1.53
478.08	1.52
478.28	1.5
478.479	1.57
478.679	1.62
478.878	1.47
479.078	1.53
479.277	1.55
479.477	1.54
479.676	1.53
479.875	1.49
480.075	1.41
480.274	1.52
480.473	1.57
480.673	1.52
480.872	1.6
481.071	1.56
481.271	1.54
481.47	1.51
481.669	1.49
481.868	1.45
482.067	1.46
482.267	1.41
482.466	1.43
482.665	1.46
482.864	1.43
483.063	1.37
483.262	1.51
483.461	1.5
483.661	1.54
483.86	1.49
484.059	1.56
484.258	1.51
484.457	1.51
484.656	1.49
484.855	1.59
485.054	1.43
485.253	1.47
485.452	1.48
485.651	1.56
485.849	1.52
486.048	1.51
486.247	1.52
486.446	1.59
486.645	1.5
486.844	1.55
487.043	1.49
487.241	1.59
487.44	1.57
487.639	1.63
487.838	1.63
488.037	1.63
488.235	1.7
488.434	1.65
488.633	1.53
488.831	1.68
489.03	1.68
489.229	1.66
489.427	1.71
489.626	1.75
489.825	1.74
490.023	1.76
490.222	1.73
490.42	1.74
490.619	1.83
490.817	1.81
491.016	1.79
491.214	1.84
491.413	1.82
491.611	1.8
491.81	1.83
492.008	1.9
492.207	1.96
492.405	1.96
492.604	1.88
492.802	1.94
493	1.95
493.199	2
493.397	2.02
493.595	2.08
493.794	2
493.992	2.16
494.19	2.11
494.388	2.18
494.587	2.14
494.785	2.16
494.983	2.1
495.181	2.21
495.379	2.21
495.578	2.28
495.776	2.24
495.974	2.26
496.172	2.3
496.37	2.38
496.568	2.4
496.766	2.37
496.964	2.47
497.162	2.47
497.36	2.47
497.558	2.53
497.756	2.53
497.954	2.57
498.152	2.58
498.35	2.69
498.548	2.61
498.746	2.63
498.944	2.66
499.142	2.67
499.34	2.7
499.538	2.86
499.736	2.73
499.933	2.87
500.131	2.87
500.329	2.94
500.527	2.93
500.725	3.02
500.922	3.02
501.12	2.99
501.318	3.09
501.516	3.07
501.713	3.11
501.911	3.11
502.109	3.04
502.306	3.17
502.504	3.16
502.701	3.2
502.899	3.24
503.097	3.42
503.294	3.31
503.492	3.38
503.689	3.39
503.887	3.42
504.084	3.52
504.282	3.46
504.479	3.42
504.677	3.59
504.874	3.56
505.072	3.5
505.269	3.67
505.466	3.69
505.664	3.75
505.861	3.64
506.059	3.74
506.256	3.76
506.453	3.82
506.651	3.9
506.848	3.93
507.045	3.9
507.242	3.91
507.44	3.92
507.637	3.94
507.834	3.97
508.031	4.08
508.229	4.03
508.426	4.03
508.623	4.13
508.82	4.17
509.017	4.09
509.214	4.12
509.411	4.28
509.608	4.21
509.805	4.26
510.003	4.25
510.2	4.34
510.397	4.46
510.594	4.39
510.791	4.44
510.988	4.44
511.184	4.46
511.381	4.34
511.578	4.46
511.775	4.6
511.972	4.52
512.169	4.54
512.366	4.62
512.563	4.72
512.76	4.69
512.956	4.74
513.153	4.66
513.35	4.65
513.547	4.64
513.744	4.73
513.94	4.78
514.137	4.82
514.334	4.83
514.53	4.87
514.727	4.99
514.924	4.92
515.12	4.95
515.317	4.9
515.514	4.88
515.71	4.81
515.907	5.03
516.103	5.08
516.3	4.97
516.497	5.08
516.693	5.12
516.89	5.07
517.086	5.09
517.283	5.13
517.479	5.05
517.676	5.18
517.872	5.24
518.068	5.24
518.265	5.18
518.461	5.18
518.658	5.27
518.854	5.3
519.05	5.32
519.247	5.39
519.443	5.36
519.639	5.45
519.836	5.38
520.032	5.29
520.228	5.42
520.424	5.43
520.621	5.46
520.817	5.51
521.013	5.46
521.209	5.58
521.405	5.56
521.601	5.49
521.798	5.5
521.994	5.53
522.19	5.47
522.386	5.45
522.582	5.59
522.778	5.77
522.974	5.59
523.17	5.65
523.366	5.59
523.562	5.68
523.758	5.67
523.954	5.5
524.15	5.69
524.346	5.75
524.542	5.67
524.738	5.64
524.934	5.8
525.129	5.77
525.325	5.73
525.521	5.78
525.717	5.88
525.913	5.74
526.109	5.77
526.304	5.84
526.5	5.83
526.696	5.89
526.892	5.79
527.087	6
527.283	5.88
527.479	5.91
527.674	5.73
527.87	5.86
528.066	5.97
528.261	5.97
528.457	5.86
528.653	5.99
528.848	5.93
529.044	5.99
529.239	5.93
529.435	6
529.63	5.91
529.826	6
530.021	5.94
530.217	5.95
530.412	5.98
530.608	5.98
530.803	5.97
530.999	5.94
531.194	5.98
531.389	6.01
531.585	6.05
531.78	6.11
531.975	6.08
532.171	6.16
532.366	6.06
532.561	6.15
532.757	6.06
532.952	6.17
533.147	6.06
533.342	6.14
533.538	6.06
533.733	6.23
533.928	5.98
534.123	6.11
534.318	6.1
534.513	6.09
534.709	6.26
534.904	6.16
535.099	6.17
535.294	6.23
535.489	6.25
535.684	6.18
535.879	6.15
536.074	6.24
536.269	6.2
536.464	6.23
536.659	6.13
536.854	6.21
537.049	6.24
537.244	6.17
537.439	6.2
537.634	6.25
537.828	6.28
538.023	6.22
538.218	6.2
538.413	6.09
538.608	6.23
538.803	6.21
538.997	6.19
539.192	6.26
539.387	6.21
539.582	6.17
539.776	6.18
539.971	6.22
540.166	6.34
540.36	6.23
540.555	6.3
540.75	6.28
540.944	6.26
541.139	6.27
541.334	6.31
541.528	6.3
541.723	6.36
541.917	6.34
542.112	6.2
542.306	6.2
542.501	6.25
542.695	6.25
542.89	6.24
543.084	6.24
543.279	6.31
543.473	6.27
543.668	6.31
543.862	6.21
544.056	6.23
544.251	6.3
544.445	6.34
544.64	6.41
544.834	6.12
545.028	6.01
545.222	6.3
545.417	6.44
545.611	6.34
545.805	6.28
546	6.17
546.194	6.32
546.388	6.35
546.582	6.23
546.776	6.25
546.97	6.33
547.165	6.32
547.359	6.28
547.553	6.24
547.747	6.26
547.941	6.42
548.135	6.29
548.329	6.32
548.523	6.36
548.717	6.32
548.911	6.24
549.105	6.27
549.299	6.32
549.493	6.39
549.687	6.29
549.881	6.36
550.075	6.34
550.269	6.23
550.463	6.36
550.657	6.33
550.85	6.3
551.044	6.35
551.238	6.36
551.432	6.35
551.626	6.38
551.82	6.41
552.013	6.31
552.207	6.36
552.401	6.39
552.594	6.32
552.788	6.26
552.982	6.25
553.176	6.26
553.369	6.48
553.563	6.34
553.756	6.31
553.95	6.39
554.144	6.4
554.337	6.38
554.531	6.2
554.724	6.38
554.918	6.38
555.111	6.3
555.305	6.41
555.498	6.31
555.692	6.41
555.885	6.39
556.079	6.3
556.272	6.36
556.466	6.37
556.659	6.28
556.852	6.36
557.046	6.27
557.239	6.25
557.432	6.32
557.626	6.37
557.819	6.36
558.012	6.41
558.206	6.45
558.399	6.38
558.592	6.35
558.785	6.28
558.979	6.36
559.172	6.36
559.365	6.4
559.558	6.29
559.751	6.26
559.944	6.41
560.138	6.32
560.331	6.41
560.524	6.38
560.717	6.32
560.91	6.34
561.103	6.37
561.296	6.32
561.489	6.44
561.682	6.43
561.875	6.28
562.068	6.41
562.261	6.25
562.454	6.43
562.647	6.32
562.84	6.37
563.032	6.35
563.225	6.26
563.418	6.31
563.611	6.36
563.804	6.36
563.997	6.22
564.19	6.15
564.382	6.44
564.575	6.39
564.768	6.3
564.961	6.41
565.153	6.31
565.346	6.26
565.539	6.39
565.731	6.33
565.924	6.4
566.117	6.45
566.309	6.35
566.502	6.29
566.695	6.26
566.887	6.36
567.08	6.35
567.272	6.4
567.465	6.24
567.657	6.4
567.85	6.18
568.042	6.36
568.235	6.31
568.427	6.21
568.62	6.32
568.812	6.3
569.005	6.37
569.197	6.23
569.389	6.35
569.582	6.27
569.774	6.34
569.966	6.22
570.159	6.24
570.351	6.23
570.543	6.26
570.736	6.29
570.928	6.16
571.12	6.31
571.312	6.24
571.505	6.07
571.697	6.29
571.889	6.28
572.081	6.3
572.273	6.22
572.465	6.29
572.658	6.28
572.85	6.34
573.042	6.32
573.234	6.21
573.426	6.27
573.618	6.23
573.81	6.25
574.002	6.27
574.194	6.26
574.386	6.2
574.578	6.11
574.77	6.26
574.962	6.22
575.154	6.11
575.346	6.13
575.538	6.14
575.729	6.12
575.921	6.2
576.113	6.26
576.305	6.2
576.497	6.26
576.689	6.09
576.88	6.11
577.072	6.23
577.264	6.2
577.456	6.19
577.647	6.08
577.839	6.26
578.031	6.19
578.223	6.14
578.414	6.1
578.606	6.19
578.798	6.18
578.989	6.17
579.181	6.19
579.372	6.17
579.564	6.12
579.755	6.14
579.947	6
580.139	6.21
580.33	5.98
580.522	6.06
580.713	6.07
580.905	6.08
581.096	6.11
581.287	6.06
581.479	6.03
581.67	6.12
581.862	6.03
582.053	6.14
582.244	5.97
582.436	6.1
582.627	5.98
582.818	5.96
583.01	5.98
583.201	6.03
583.392	6.03
583.583	6.03
583.775	5.88
583.966	5.96
584.157	5.99
584.348	6.02
584.54	5.93
584.731	5.97
584.922	5.94
585.113	5.88
585.304	5.94
585.495	5.95
585.686	6.02
585.877	5.94
586.068	5.99
586.259	5.94
586.45	5.94
586.641	5.85
586.832	5.96
587.023	5.83
587.214	5.88
587.405	5.91
587.596	5.8
587.787	5.73
587.978	5.91
588.169	5.8
588.36	5.78
588.551	5.86
588.742	5.87
588.932	5.88
589.123	5.71
589.314	5.87
589.505	5.76
589.696	5.77
589.886	5.73
590.077	5.77
590.268	5.71
590.458	5.69
590.649	5.62
590.84	5.75
591.03	5.77
591.221	5.75
591.412	5.61
591.602	5.85
591.793	5.73
591.984	5.7
592.174	5.69
592.365	5.81
592.555	5.58
592.746	5.58
592.936	5.62
593.127	5.72
593.317	5.71
593.508	5.64
593.698	5.57
593.889	5.59
594.079	5.55
594.269	5.49
594.46	5.52
594.65	5.56
594.84	5.53
595.031	5.47
595.221	5.5
595.411	5.43
595.602	5.49
595.792	5.47
595.982	5.46
596.172	5.52
596.363	5.41
596.553	5.46
596.743	5.43
596.933	5.44
597.123	5.39
597.314	5.31
597.504	5.35
597.694	5.36
597.884	5.33
598.074	5.36
598.264	5.36
598.454	5.35
598.644	5.36
598.834	5.34
599.024	5.24
599.214	5.29
599.404	5.3
599.594	5.26
599.784	5.24
599.974	5.36
600.164	5.28
600.354	5.22
600.544	5.16
600.734	5.23
600.924	5.21
601.114	5.11
601.303	5.16
601.493	5.21
601.683	5.19
601.873	5.17
602.063	5.09
602.252	5.1
602.442	5.06
602.632	5.07
602.821	5.05
603.011	5.13
603.201	5.05
603.39	5
603.58	4.88
603.77	5.05
603.959	5.07
604.149	4.97
604.339	5
604.528	5.09
604.718	5.01
604.907	4.97
605.097	4.9
605.286	4.9
605.476	4.91
605.665	4.95
605.855	4.87
606.044	4.93
606.234	4.93
606.423	4.86
606.612	4.87
606.802	4.81
606.991	4.83
607.181	4.9
607.37	4.85
607.559	4.63
607.749	4.79
607.938	4.71
608.127	4.73
608.316	4.79
608.506	4.73
608.695	4.76
608.884	4.64
609.073	4.71
609.263	4.78
609.452	4.75
609.641	4.62
609.83	4.6
610.019	4.67
610.208	4.57
610.397	4.6
610.586	4.67
610.775	4.5
610.965	4.56
611.154	4.52
611.343	4.6
611.532	4.49
611.721	4.54
611.91	4.43
612.099	4.5
612.287	4.4
612.476	4.43
612.665	4.54
612.854	4.37
613.043	4.47
613.232	4.44
613.421	4.4
613.61	4.39
613.798	4.44
613.987	4.39
614.176	4.35
614.365	4.39
614.554	4.4
614.742	4.32
614.931	4.22
615.12	4.36
615.309	4.29
615.497	4.15
615.686	4.15
615.875	4.22
616.063	4.2
616.252	4.24
616.44	4.17
616.629	4.13
616.818	4.17
617.006	4.17
617.195	4.08
617.383	4.12
617.572	4.06
617.76	4.06
617.949	4.06
618.137	4.12
618.326	4.12
618.514	3.95
618.703	3.89
618.891	4.05
619.079	3.94
619.268	4.01
619.456	3.87
619.644	4.02
619.833	3.93
620.021	3.91
620.209	3.83
620.398	3.97
620.586	3.85
620.774	3.97
620.962	3.84
621.151	3.97
621.339	3.87
621.527	3.78
621.715	3.8
621.903	3.81
622.092	3.8
622.28	3.85
622.468	3.66
622.656	3.78
622.844	3.74
623.032	3.8
623.22	3.71
623.408	3.74
623.596	3.72
623.784	3.76
623.972	3.61
624.16	3.72
624.348	3.7
624.536	3.67
624.724	3.58
624.912	3.67
625.1	3.69
625.288	3.6
625.476	3.54
625.664	3.6
625.851	3.52
626.039	3.54
626.227	3.51
626.415	3.5
626.603	3.45
626.79	3.52
626.978	3.5
627.166	3.54
627.354	3.4
627.541	3.4
627.729	3.3
627.917	3.53
628.104	3.45
628.292	3.43
628.48	3.35
628.667	3.3
628.855	3.46
629.042	3.4
629.23	3.29
629.418	3.3
629.605	3.35
629.793	3.25
629.98	3.3
630.168	3.27
630.355	3.27
630.543	3.29
630.73	3.19
630.917	3.25
631.105	3.32
631.292	3.27
631.48	3.21
631.667	3.3
631.854	3.19
632.042	3.2
632.229	3.1
632.416	3.17
632.604	3.08
632.791	3.01
632.978	3.15
633.165	3.11
633.353	3.15
633.54	3.13
633.727	2.97
633.914	3.01
634.101	2.93
634.289	3.11
634.476	2.96
634.663	3
634.85	3
635.037	2.92
635.224	2.84
635.411	3.03
635.598	2.9
635.785	2.88
635.972	2.84
636.159	2.92
636.346	2.85
636.533	2.83
636.72	2.85
636.907	2.81
637.094	2.87
637.281	2.73
637.468	2.81
637.655	2.8
637.842	2.8
638.029	2.69
638.215	2.77
638.402	2.76
638.589	2.74
638.776	2.7
638.963	2.66
639.149	2.78
639.336	2.8
639.523	2.7
639.709	2.64
639.896	2.61
640.083	2.7
640.27	2.67
640.456	2.57
640.643	2.68
640.829	2.56
641.016	2.54
641.203	2.54
641.389	2.62
641.576	2.58
641.762	2.5
641.949	2.51
642.135	2.59
642.322	2.57
642.508	2.42
642.695	2.53
642.881	2.46
643.068	2.46
643.254	2.45
643.441	2.51
643.627	2.48
643.813	2.36
644	2.42
644.186	2.41
644.372	2.43
644.559	2.39
644.745	2.4
644.931	2.36
645.118	2.31
645.304	2.38
645.49	2.36
645.676	2.28
645.862	2.34
646.049	2.35
646.235	2.32
646.421	2.37
646.607	2.37
646.793	2.26
646.979	2.23
647.165	2.27
647.352	2.24
647.538	2.27
647.724	2.21
647.91	2.15
648.096	2.2
648.282	2.22
648.468	2.17
648.654	2.21
648.84	2.21
649.026	2.15
649.212	2.11
649.397	2.07
649.583	2.11
649.769	2.13
649.955	2.14
650.141	2.15
650.327	2.13
650.513	2.03
650.698	2.07
650.884	1.97
651.07	2.07
651.256	2.05
651.442	2.05
651.627	1.95
651.813	2.07
651.999	1.93
652.184	2.01
652.37	1.96
652.556	2
652.741	2.02
652.927	1.84
653.113	1.88
653.298	1.95
653.484	1.9
653.669	1.94
653.855	1.85
654.04	1.92
654.226	1.88
654.412	1.89
654.597	1.79
654.782	1.92
654.968	1.89
655.153	1.83
655.339	1.82
655.524	1.8
655.71	1.84
655.895	1.82
656.08	1.79
656.266	1.89
656.451	1.82
656.636	1.74
656.822	1.81
657.007	1.77
657.192	1.75
657.378	1.7
657.563	1.76
657.748	1.76
657.933	1.73
658.118	1.64
658.304	1.7
658.489	1.77
658.674	1.73
658.859	1.67
659.044	1.68
659.229	1.72
659.414	1.63
659.599	1.63
659.785	1.56
659.97	1.65
660.155	1.68
660.34	1.64
660.525	1.54
660.71	1.58
660.895	1.65
661.08	1.59
661.264	1.54
661.449	1.66
661.634	1.57
661.819	1.59
662.004	1.61
662.189	1.49
662.374	1.53
662.559	1.5
662.743	1.51
662.928	1.5
663.113	1.5
663.298	1.44
663.483	1.45
663.667	1.52
663.852	1.47
664.037	1.51
664.221	1.5
664.406	1.55
664.591	1.55
664.775	1.51
664.96	1.46
665.145	1.41
665.329	1.48
665.514	1.42
665.698	1.42
665.883	1.37
666.068	1.52
666.252	1.41
666.437	1.38
666.621	1.37
666.806	1.43
666.99	1.41
667.174	1.36
667.359	1.45
667.543	1.31
667.728	1.33
667.912	1.27
668.096	1.35
668.281	1.28
668.465	1.3
668.649	1.36
668.834	1.26
669.018	1.26
669.202	1.34
669.387	1.25
669.571	1.37
669.755	1.25
669.939	1.3
670.124	1.26
670.308	1.32
670.492	1.3
670.676	1.3
670.86	1.23
671.044	1.21
671.228	1.31
671.413	1.2
671.597	1.17
671.781	1.2
671.965	1.23
672.149	1.2
672.333	1.24
672.517	1.16
672.701	1.19
672.885	1.2
673.069	1.09
673.253	1.23
673.437	1.16
673.621	1.12
673.804	1.15
673.988	1.21
674.172	1.14
674.356	1.13
674.54	1.13
674.724	1.25
674.908	1.08
675.091	1.19
675.275	1.11
675.459	1.18
675.643	1.1
675.826	1.1
676.01	1.14
676.194	1.14
676.377	1.1
676.561	1.19
676.745	1.14
676.928	1.11
677.112	1.13
677.296	1.05
677.479	1.03
677.663	1.06
677.846	1.1
678.03	1.02
678.213	1.01
678.397	1.03
678.58	1.05
678.764	1.07
678.947	0.94
679.131	1.03
679.314	1.12
679.498	1.01
679.681	1.05
679.865	1.07
680.048	0.98
680.231	0.98
680.415	0.95
680.598	0.99
680.781	0.97
680.965	1.02
681.148	0.97
681.331	0.93
681.514	0.98
681.698	0.95
681.881	0.99
682.064	1
682.247	1.03
682.43	0.88
682.614	0.98
682.797	1
682.98	1
683.163	0.87
683.346	0.95
683.529	0.95
683.712	0.86
683.895	0.9
684.078	0.82
684.261	0.84
684.444	0.98
684.627	0.97
684.81	0.82
684.993	0.9
685.176	0.94
685.359	0.82
685.542	0.87
685.725	0.97
685.908	0.87
686.091	0.89
686.274	0.93
686.457	0.89
686.639	0.82
686.822	0.91
687.005	0.83
687.188	0.87
687.371	0.98
687.553	0.96
687.736	0.91
687.919	0.95
688.102	0.96
688.284	0.85
688.467	0.78
688.65	0.81
688.832	0.72
689.015	0.78
689.197	0.73
689.38	0.92
689.563	0.87
689.745	0.72
689.928	0.73
690.11	0.75
690.293	0.79
690.475	0.72
690.658	0.84
690.84	0.79
691.023	0.82
691.205	0.79
691.388	0.72
691.57	0.79
691.752	0.87
691.935	0.7
692.117	0.72
692.3	0.79
692.482	0.73
692.664	0.75
692.847	0.7
693.029	0.84
693.211	0.84
693.393	0.74
693.576	0.72
693.758	0.69
693.94	0.71
694.122	0.76
694.304	0.69
694.487	0.66
694.669	0.76
694.851	0.61
695.033	0.69
695.215	0.66
695.397	0.65
695.579	0.71
695.761	0.62
695.943	0.62
696.125	0.75
696.308	0.72
696.49	0.59
696.671	0.81
696.853	0.63
697.035	0.93
697.217	0.71
697.399	0.7
697.581	0.63
697.763	0.63
697.945	0.62
698.127	0.65
698.309	0.72
698.491	0.64
698.672	0.67
698.854	0.74
699.036	0.74
699.218	0.65
699.399	0.72
699.581	0.69
699.763	0.67
699.945	0.61
700.126	0.54
700.308	0.62
700.49	0.63
700.671	0.49
700.853	0.6
701.035	0.64
701.216	0.65
701.398	0.57
701.579	0.63
701.761	0.71
701.943	0.53
702.124	0.52
702.306	0.62
702.487	0.71
702.669	0.58
702.85	0.55
703.031	0.51
703.213	0.75
703.394	0.64
703.576	0.56
703.757	0.74
703.938	0.68
704.12	0.73
704.301	0.61
704.483	0.54
704.664	0.59
704.845	0.65
705.026	0.62
705.208	0.58
705.389	0.59
705.57	0.56
705.751	0.55
705.933	0.64
706.114	0.61
706.295	0.59
706.476	0.46
706.657	0.63
706.838	0.59
707.02	0.6
707.201	0.48
707.382	0.49
707.563	0.58
707.744	0.55
707.925	0.46
708.106	0.48
708.287	0.57
708.468	0.71
708.649	0.56
708.83	0.6
709.011	0.5
709.192	0.62
709.373	0.4
709.554	0.47
709.734	0.63
709.915	0.58
710.096	0.56
710.277	0.42
710.458	0.55
710.639	0.54
710.819	0.45
711	0.52
711.181	0.55
711.362	0.54
711.542	0.55
711.723	0.48
711.904	0.56
712.085	0.54
712.265	0.49
712.446	0.36
712.627	0.44
712.807	0.44
712.988	0.52
713.168	0.41
713.349	0.56
713.53	0.29
713.71	0.39
713.891	0.41
714.071	0.44
714.252	0.47
714.432	0.42
714.613	0.37
714.793	0.44
714.974	0.53
715.154	0.52
715.334	0.5
715.515	0.54
715.695	0.43
715.876	0.5
716.056	0.39
716.236	0.42
716.417	0.49
716.597	0.39
716.777	0.61
716.957	0.44
717.138	0.49
717.318	0.4
717.498	0.38
717.678	0.47
717.859	0.48
718.039	0.3
718.219	0.5
718.399	0.41
718.579	0.39
718.759	0.32
718.939	0.46
719.12	0.49
719.3	0.44
719.48	0.29
719.66	0.23
719.84	0.5
720.02	0.48
720.2	0.3
720.38	0.41
720.56	0.56
720.74	0.29
720.92	0.37
721.1	0.57
721.279	0.49
721.459	0.37
721.639	0.27
721.819	0.46
721.999	0.4
722.179	0.42
722.359	0.36
722.538	0.39
722.718	0.39
722.898	0.42
723.078	0.34
723.257	0.45
723.437	0.41
723.617	0.41
723.797	0.38
723.976	0.43
724.156	0.48
724.336	0.49
724.515	0.65
724.695	0.22
724.874	0.43
725.054	0.49
725.234	0.39
725.413	0.4
725.593	0.42
725.772	0.44
725.952	0.4
726.131	0.37
726.311	0.39
726.49	0.41
726.67	0.27
726.849	0.33
727.028	0.4
727.208	0.31
727.387	0.42
727.567	0.31
727.746	0.39
727.925	0.34
728.105	0.25
728.284	0.34
728.463	0.28
728.643	0.39
728.822	0.26
729.001	0.38
729.18	0.44
729.359	0.5
729.539	0.31
729.718	0.45
729.897	0.4
730.076	0.35
730.255	0.27
730.434	0.35
730.614	0.37
730.793	0.48
730.972	0.31
731.151	0.33
731.33	0.51
731.509	0.41
731.688	0.36
731.867	0.28
732.046	0.15
732.225	0.51
732.404	0.29
732.583	0.21
732.762	0.32
732.941	0.37
733.12	0.41
733.298	0.26
733.477	0.45
733.656	0.35
733.835	0.31
734.014	0.45
734.193	0.4
734.371	0.44
734.55	0.48
734.729	0.29
734.908	0.42
735.086	0.44
735.265	0.42
735.444	0.16
735.623	0.24
735.801	0.33
735.98	0.36
736.159	0.35
736.337	0.43
736.516	0.32
736.694	0.41
736.873	0.41
737.052	0.53
737.23	0.53
737.409	0.36
737.587	0.64
737.766	0.25
737.944	0.3
738.123	0.3
738.301	0.34
738.479	0.46
738.658	0.38
738.836	0.06
739.015	0.49
739.193	0.55
739.371	0.16
739.55	0.35
739.728	0.28
739.906	0.56
740.085	0.57
740.263	0.43
740.441	0.15
740.62	0.58
740.798	0.43
740.976	0.19
741.154	0.2
741.332	0.56
741.511	0.37
741.689	0.42
741.867	0.44
742.045	0.35
742.223	0.36
742.401	0.27
742.579	0.27
742.757	0.48
742.935	0.22
743.114	0.3
743.292	0.25
743.47	0.35
743.648	0.4
743.826	0.39
744.004	0.39
744.181	0.55
744.359	0.28
744.537	0.39
744.715	0.28
744.893	0.33
745.071	0.35
745.249	0.34
745.427	0.38
745.605	0.45
745.782	0.35
745.96	0.41
746.138	0.38
746.316	0.45
746.493	0.36
746.671	0.28
746.849	0.21
747.027	0.46
747.204	0.34
747.382	0.39
747.56	0.1
747.737	0.32
747.915	0.28
748.093	0.38
748.27	0.17
748.448	0.24
748.625	0.11
748.803	0.23
748.98	0.33
749.158	0.38
749.335	0.35
749.513	0.31
749.69	0.24
749.868	0.33
750.045	0.28
750.223	0.28
750.4	0.16
750.578	0.55
750.755	0.31
750.932	0.1
751.11	0.36
751.287	0.06
751.464	0.45
751.642	0.18
751.819	0.26
751.996	0.31
752.173	0.18
752.351	0.05
752.528	0.29
752.705	0.34
752.882	0.23
753.06	0.31
753.237	0.39
753.414	0.51
753.591	0.46
753.768	0.28
753.945	0.25
754.122	0.34
754.299	0.34
754.476	0.11
754.654	0.4
754.831	0.34
755.008	0.26
755.185	0.27
755.362	0.19
755.539	0.32
755.716	0.14
755.892	0.25
756.069	0.26
756.246	0.18
756.423	0.26
756.6	0.5
756.777	0.34
756.954	0.35
757.131	0.32
757.307	0.11
757.484	0.16
757.661	0.36
757.838	0.38
758.015	0.13
758.191	0.25
758.368	0.33
758.545	0.44
758.721	0.31
758.898	0.24
759.075	0.33
759.251	0.4
759.428	0.24
759.605	0.16
759.781	0.22
759.958	0.33
760.134	0.33
760.311	0.24
760.488	0.43
760.664	0.43
760.841	0.37
761.017	0.13
761.194	0.35
761.37	0.46
761.547	0.24
761.723	0.27
761.899	0.34
762.076	0.12
762.252	0.21
762.429	0.26
762.605	0.44
762.781	0.28
762.958	0.34
763.134	0.19
763.31	0.22
763.486	0.44
763.663	0.01
763.839	0.34
764.015	-0
764.191	0.27
764.368	0.19
764.544	0.14
764.72	0.26
764.896	0.31
765.072	0.24
765.248	0.18
765.425	0.16
765.601	0.29
765.777	0.41
765.953	-0.04
766.129	0.25
766.305	0.21
766.481	0.39
766.657	0.31
766.833	0.45
767.009	0.11
767.185	0.19
767.361	0.19
767.537	0.1
767.713	0.45
767.889	0.17
768.065	0.22
768.24	0.32
768.416	0.42
768.592	0.16
768.768	0.21
768.944	0.36
769.12	0.11
769.295	0.22
769.471	0.34
769.647	0.14
769.823	0.38
769.998	0.28
770.174	0.09
770.35	0.62
770.525	0.63
770.701	0.34
770.877	0.23
771.052	0.11
771.228	0.45
771.403	0.35
771.579	0.45
771.755	0.67
771.93	0.21
772.106	0.08
772.281	-0.01
772.457	0.24
772.632	0.32
772.808	0.14
772.983	0.17
773.159	0.11
773.334	0.5
773.509	0.31
773.685	0.07
773.86	0.64
774.036	0.45
774.211	0.37
774.386	0.27
774.562	0.31
774.737	0.45
774.912	0.25
775.087	0.46
775.263	0.18
775.438	0.33
775.613	0.17
775.788	0.17
775.964	0.38
776.139	0.7
776.314	0.1
776.489	0.33
776.664	0.41
776.839	0.34
777.014	0.66
777.19	0.49
777.365	0.36
777.54	0.5
777.715	0.16
777.89	0.26
778.065	0.17
778.24	0.2
778.415	0.45
778.59	0.03
778.765	0.28
778.94	0.45
779.115	0.14
779.289	0.26
779.464	0.27
779.639	0.35
779.814	0.07
779.989	0.09
780.164	0.47
780.339	0.31
780.513	0.32
780.688	0.17
780.863	0.26
781.038	0.52
781.212	0.17
781.387	0.31
781.562	0.53
781.737	0.16
781.911	0.59
782.086	0.15
782.261	0.41
782.435	0.64
782.61	0.15
782.784	0.23
782.959	0.34
783.134	0.03
783.308	0.04
783.483	0.34
783.657	0.64
783.832	0.49
784.006	-0.09
784.181	0.2
784.355	0.46
784.53	0.19
784.704	0.16
784.878	0.47
785.053	0.18
785.227	0.49
785.402	0.66
785.576	0.1
785.75	0.3
785.925	0.28
786.099	0.27
786.273	0.51
786.448	0.53
786.622	0.46
786.796	0.31
786.97	0.25
787.145	0.69
787.319	-0.03
787.493	0.21
787.667	-0.23
787.841	0.22
788.015	0.61
788.19	0.09
788.364	0.3
788.538	0.46
788.712	0.41
788.886	0.17
789.06	0.47
789.234	0.62
789.408	0.16
789.582	0.29
789.756	0.23
789.93	0.05
790.104	0.34
790.278	0.35
790.452	0.13
790.626	0.46
790.8	0.16
790.973	0.29
791.147	0.49
791.321	0.64
791.495	0.48
791.669	0.52
791.843	0.59
792.016	0.2
792.19	0.84
792.364	0.05
792.538	0.82
792.711	0.67
792.885	0.23
793.059	0.1
793.233	-0.31
793.406	0.34
793.58	0.31
793.754	0.28
793.927	0.36
794.101	0.51
794.274	0.14
794.448	0.41
794.622	-0.04
794.795	0.8
794.969	0.21
795.142	0.5
795.316	0.27
795.489	0.35
795.663	0.86
795.836	0.39
796.009	0.16
796.183	0.64
796.356	0.45
796.53	0.47
796.703	0.36
796.876	1.03
797.05	0.24
797.223	0.09
797.396	0.48
797.57	0.23
797.743	0.93
797.916	0.27
798.09	0.41
798.263	0.53
798.436	0.48
798.609	0.39
798.782	0.3
798.956	0.21
799.129	0.51
799.302	-0.01
799.475	-0.08
799.648	0.02
799.821	0.44
799.994	0.26
800.167	-0.11
800.34	0.36
800.514	0.47
800.687	0.3
800.86	0.29
801.033	0.46
801.206	0.42
801.379	-0.12
801.551	0.55
801.724	0.49
801.897	0.66
802.07	0.2
802.243	-0.07
802.416	0.59
802.589	0.13
802.762	0.6
802.935	0.51
803.107	0.4
803.28	0.74
803.453	0.7
803.626	0.14
803.798	0.58
803.971	0.2
804.144	0.3
804.317	0.73
804.489	0.75
804.662	0.55
804.835	0.52
805.007	0.4
805.18	1.02
805.353	0.27
805.525	0.13
805.698	-0.08
805.87	0.79
806.043	0.54
806.215	0.02
806.388	0.47
806.56	0.77
806.733	0.8
806.905	0.63
807.078	0.31
807.25	0.16
807.423	0.72
807.595	0.25
807.768	0.65
807.94	0.94
808.112	0.49
808.285	0.58
808.457	0.39
808.629	0.6
808.802	1.1
808.974	0.59
809.146	0.22
809.318	0.13
809.491	0.55
809.663	0.78
809.835	0.44
810.007	0.4
810.18	0.58
810.352	0.17
810.524	0.31
810.696	0.39
810.868	0.74
811.04	0.44
811.212	0.48
811.384	0.83
811.556	0.83
811.728	0.11
811.901	1.32
812.073	0.16
812.245	0.95
812.417	0.33
812.589	-0.06
812.76	0.35
812.932	0.64
813.104	0.54
813.276	0.43
813.448	0.71
813.62	0.8
813.792	0.51
813.964	0.26
814.136	0.26
814.307	0.2
814.479	0.44
814.651	0.26
814.823	1.38
814.995	0.28
815.166	0.65
815.338	0.34
815.51	0.08
815.681	1.37
815.853	0.79
816.025	0.22
816.196	1.43
816.368	0.75
816.54	0.12
816.711	0.27
816.883	0.7
817.054	1.16
817.226	-0.61
817.398	1.09
817.569	0.28
817.741	1.17
817.912	0.19
818.084	0.05
818.255	1.28
818.426	0.38
818.598	0.55
818.769	0.26
818.941	0.55
819.112	1.09
819.283	0.71
819.455	0.04
819.626	0.33
819.798	0.73
819.969	0.27
820.14	0.48
820.311	0.51
820.483	0.68
820.654	0.54
820.825	0.46
820.996	0.4
821.168	0.12
821.339	0.36
821.51	0.14
821.681	0.28
821.852	0.62
822.023	0.19
822.195	-0.04
822.366	0.74
822.537	0.82
822.708	0.59
822.879	0.32
823.05	1.35
823.221	0.81
823.392	0.73
823.563	0.78
823.734	0.37
823.905	0.18
824.076	0.14
824.247	0.3
824.418	0.58
824.589	1.06
824.759	0.83
824.93	0.69
825.101	-0.21
825.272	0.86
825.443	1.04
825.614	1.09
825.784	0.05
825.955	2.01
826.126	0.75
826.297	0.7
826.467	1.64
826.638	1.48
826.809	0.04
826.98	0.32
827.15	1.55
827.321	0.76
827.492	0.77
827.662	0.14
827.833	1.73
828.003	0.68
828.174	0.05
828.345	-0.56
828.515	1.25
828.686	0.41
828.856	1.17
829.027	0.07
829.197	0.87
829.368	1.35
829.538	0.21
829.709	0.44
829.879	1.33
830.049	0.84
830.22	0.51
830.39	0.65
830.56	0.98
830.731	0.54
830.901	0.29
831.072	0.67
831.242	0.91
831.412	0.65
831.582	0.73
831.753	-0.28
831.923	1.12
832.093	0.84
832.263	0.11
832.434	0.32
832.604	0.72
832.774	1.38
832.944	0.1
833.114	-0.07
833.284	1
833.454	0.06
833.624	-0.05
833.795	0.13
833.965	1.57
834.135	0.91
834.305	-0.54
834.475	-0.24
834.645	1.07
834.815	0.11
834.985	0.02
835.155	0.11
835.325	0.91
835.494	1.21
835.664	0.47
835.834	-0.05
836.004	1.43
836.174	1.3
836.344	0.46
836.514	0.27
836.684	0.44
836.853	1.06
837.023	1.35
837.193	0.17
837.363	1.55
837.532	1.36
837.702	0.46
837.872	-0.14
838.041	1.57
838.211	1.97
838.381	-0.14
838.55	0.35
838.72	2.34
838.89	1.94
839.059	0.34
839.229	0.07
839.398	2.6
839.568	0.82
839.738	0.31
839.907	2.27
840.077	1.56
840.246	0.64
840.416	0.14
840.585	-0.3
840.755	1.77
840.924	1.41
841.093	0.1
841.263	0.4
841.432	0.84
841.602	-0.43
841.771	0.38
841.94	0.81
842.11	2.48
842.279	1.74
842.448	0.17
842.617	-0.64
842.787	2.42
842.956	-0.01
843.125	1.25
843.294	0.61
843.464	2.36
843.633	1.31
843.802	0.67
843.971	1.15
844.14	1.04
844.309	1.54
844.479	-0.44
844.648	-0.43
844.817	0.66
844.986	0.52
845.155	0.23
845.324	0.87
845.493	0.49
845.662	-0.11
845.831	0.68
846	1.1
846.169	0.49
846.338	2.15
846.507	0.89
846.676	0.97
846.844	0.58
847.013	2.27
847.182	0.85
847.351	0.72
847.52	1.39
847.689	1.04
847.858	0.91
848.026	-0.39
848.195	0.34
848.364	0.02
848.533	-0.07
848.701	-0.09
848.87	1.19
849.039	2.87
849.207	1.57
849.376	1.85
849.545	1.34
849.713	0.9
849.882	1.2
850.051	0.83
850.219	1.58
850.388	1.35
850.556	-0.01
850.725	-0.5
850.893	1.08
851.062	0.07
851.23	1.5
851.399	-0.74
851.567	-0.02
851.736	0.43
851.904	0.04
852.073	1.63
852.241	0.78
852.41	1.16
852.578	0.48
852.746	0.76
852.915	1.59
853.083	1.43
853.251	-0.12
853.42	0.99
853.588	0.9
853.756	2.47
853.924	0.08
854.093	0.02
854.261	1.48
854.429	-0.05
854.597	0.87
854.765	-0.17
854.934	1.52
855.102	3.08
855.27	0.97
855.438	1.3
855.606	2.01
855.774	2.64
855.942	0.56
856.11	-1.17
856.278	1.7
856.446	2.06
856.614	1.36
856.782	0.6
856.95	2.68
857.118	2.22
857.286	1.21
857.454	0.6
857.622	2.37
857.79	1.51
857.958	0.52
858.126	1.12
858.294	-1.36
858.462	2.26
858.629	1.36
858.797	-0.71
858.965	2.07
859.133	2.34
859.301	0.52
859.468	1.02
859.636	0.59
859.804	2.94
859.971	2.07
860.139	0.18
860.307	2.3
860.474	0.85
860.642	-0.38
860.81	0.75
860.977	0.85
861.145	3.33
861.313	1.04
861.48	-0.55
861.648	2.09
861.815	0.19
861.983	-0.32
862.15	-0.01
862.318	1.04
862.485	2.6
862.653	0.63
862.82	-0.04
862.988	3.68
863.155	1.89
863.322	-1.27
863.49	-0.34
863.657	0.18
863.824	3.44
863.992	3.13
864.159	1.16
864.326	2.49
864.494	-1.34
864.661	3.95
864.828	-0.68
864.996	2.14
865.163	3.03
865.33	-0.21
865.497	-0.62
865.664	0.62
865.832	-1.65
865.999	0.2
866.166	-0.75
866.333	0.43
866.5	2.13
866.667	2.15
866.834	1.15
867.001	3.83
867.168	0.12
867.335	1.04
867.502	-1.57
867.669	1.39
867.836	4.61
868.003	0.65
868.17	3.3
868.337	-0.36
868.504	5.07
868.671	-0.97
868.838	0.23
869.005	2.78
869.172	1.77
869.339	1.41
869.505	0.33
869.672	2.58
869.839	3.65
870.006	1.37
870.173	0.16
870.339	0.85
870.506	4.99
870.673	-0.74
870.84	2.6
871.006	2.87
871.173	2.24
871.34	1.15
871.506	-0.4
871.673	2.24
871.839	-1.34
872.006	1.55
872.173	0.48
872.339	1.48
872.506	4.16
872.672	2.28
872.839	-0.57
873.005	1.48
873.172	3.22
873.338	3.02
873.505	2.81
873.671	1.88
873.838	2.12
874.004	-0.89
874.171	0.25
874.337	2.55
874.503	2.59
874.67	1.56
874.836	0.69
875.002	3.13
875.169	2.95
875.335	1.86
875.501	2.45
875.668	2.22
875.834	1.33
876	1.78
876.166	1.64
876.332	2.73
876.499	4.76
876.665	-0.94
876.831	1.06
876.997	5.29
877.163	1.56
877.329	0.42
877.495	1.97
877.662	2.97
877.828	2.8
877.994	1.03
878.16	-2.83
878.326	-0.7
878.492	3.02
878.658	1.55
878.824	1.09
878.99	2.14
879.156	0.09
879.322	4.82
879.487	1.57
879.653	2.47
879.819	0.04
879.985	-0.39
880.151	1.34
880.317	2.24
880.483	0.52
880.648	3.34
880.814	-2.3
880.98	0.95
881.146	-1.26
881.312	-1.37
881.477	0.45
881.643	1.54
881.809	3.29
881.974	3.55
882.14	-1.26
882.306	1.75
882.471	3.45
882.637	0.67
882.803	1.67
882.968	3.23
883.134	5.48
883.299	1.96
883.465	-0.41
883.63	4.57
883.796	2.72
883.961	1.81
884.127	1.47
884.292	-1.5
884.458	-0.13
884.623	-0.13
