Data from Apollo_Calib_20240827__AbsoluteIrradiance__5__23-14-01-063.txt Node

Date: Tue Aug 27 23:14:01 BST 2024
User: biology
Spectrometer: FLMT08252
Trigger mode: 0
Integration Time (sec): 5.000000E-1
Scans to average: 5
Electric dark correction enabled: true
Nonlinearity correction enabled: false
Boxcar width: 0
XAxis mode: Wavelengths
Number of Pixels in Spectrum: 3648
>>>>>Begin Spectral Data<<<<<
179.588	-0
179.809	-0
180.03	-0
180.251	-0
180.473	-0
180.694	0
180.915	0
181.136	-0
181.357	-0
181.578	-0
181.799	-0
182.02	-0
182.241	0
182.462	0
182.683	0
182.904	-0
183.125	-0
183.346	-0
183.567	0
183.788	0
184.009	0
184.23	0
184.451	0
184.672	0
184.892	0
185.113	0
185.334	0
185.555	0
185.776	0
185.996	0
186.217	0
186.438	0
186.659	0
186.879	0
187.1	0
187.321	0
187.541	0
187.762	0
187.983	0
188.203	0
188.424	0
188.644	0
188.865	0
189.086	0
189.306	0
189.527	0
189.747	0
189.968	0
190.188	0
190.409	0
190.629	0
190.849	0
191.07	0
191.29	0
191.511	0
191.731	0
191.951	0
192.172	0
192.392	0
192.612	0
192.833	0
193.053	0
193.273	0
193.493	0
193.714	0
193.934	0
194.154	0
194.374	0
194.594	0
194.815	0
195.035	0
195.255	0
195.475	0
195.695	0
195.915	0
196.135	0
196.355	0
196.575	0
196.795	0
197.015	0
197.235	0
197.455	0
197.675	0
197.895	0
198.115	0
198.335	0
198.555	0
198.775	0
198.995	0
199.214	0
199.434	0
199.654	0
199.874	0
200.094	3.24
200.313	2.64
200.533	2.32
200.753	2.28
200.973	3.31
201.192	2.61
201.412	1.67
201.632	2.41
201.851	3.13
202.071	2.07
202.291	2.14
202.51	2.01
202.73	2.41
202.95	1.62
203.169	1.85
203.389	2.23
203.608	2.23
203.828	1.6
204.047	2.07
204.267	2.13
204.486	1.83
204.706	1.99
204.925	2.13
205.145	1.64
205.364	2.29
205.583	2.25
205.803	1.51
206.022	1.58
206.242	1.7
206.461	1.54
206.68	1.68
206.9	1.99
207.119	2.06
207.338	2.16
207.557	1.51
207.777	1.23
207.996	1.44
208.215	1.93
208.434	1.2
208.654	1.36
208.873	1.51
209.092	1.94
209.311	1.44
209.53	1.22
209.749	1.01
209.968	0.99
210.187	1.31
210.407	0.99
210.626	1.41
210.845	1.51
211.064	1.18
211.283	1.15
211.502	1.51
211.721	1.44
211.94	1.38
212.159	1.55
212.377	1.29
212.596	1.39
212.815	1.08
213.034	1.15
213.253	1.28
213.472	1.49
213.691	0.93
213.91	0.87
214.128	0.95
214.347	1.16
214.566	0.9
214.785	0.72
215.003	0.96
215.222	1.05
215.441	1.04
215.66	0.63
215.878	0.94
216.097	1.13
216.316	0.91
216.534	1.1
216.753	0.86
216.972	1.09
217.19	0.95
217.409	0.78
217.627	0.71
217.846	0.81
218.064	0.99
218.283	0.81
218.501	1.17
218.72	0.94
218.938	0.8
219.157	0.9
219.375	0.9
219.594	0.79
219.812	0.69
220.031	0.79
220.249	1.26
220.467	1.1
220.686	0.77
220.904	0.75
221.122	0.62
221.341	1.1
221.559	0.83
221.777	0.63
221.995	0.81
222.214	0.71
222.432	0.65
222.65	0.95
222.868	0.73
223.086	0.75
223.305	0.98
223.523	0.76
223.741	1.08
223.959	0.4
224.177	0.53
224.395	0.82
224.613	0.73
224.831	0.78
225.049	0.57
225.267	0.66
225.485	0.75
225.703	0.71
225.921	0.72
226.139	0.65
226.357	0.82
226.575	0.72
226.793	0.61
227.011	1.11
227.229	0.6
227.447	0.74
227.665	0.6
227.883	0.5
228.1	0.82
228.318	0.76
228.536	0.48
228.754	0.58
228.972	0.76
229.189	0.92
229.407	0.65
229.625	0.63
229.843	0.75
230.06	0.62
230.278	0.54
230.496	0.63
230.713	0.65
230.931	0.79
231.149	0.62
231.366	0.48
231.584	0.56
231.801	0.88
232.019	0.62
232.236	0.45
232.454	0.53
232.671	0.54
232.889	0.58
233.106	0.57
233.324	0.53
233.541	0.51
233.759	0.7
233.976	0.58
234.194	0.57
234.411	0.6
234.628	0.52
234.846	0.49
235.063	0.62
235.28	0.49
235.498	0.65
235.715	0.47
235.932	0.69
236.149	0.53
236.367	0.48
236.584	0.67
236.801	0.4
237.018	0.55
237.236	0.64
237.453	0.47
237.67	0.61
237.887	0.45
238.104	0.49
238.321	0.47
238.538	0.48
238.755	0.61
238.973	0.49
239.19	0.59
239.407	0.54
239.624	0.56
239.841	0.39
240.058	0.42
240.275	0.6
240.492	0.41
240.709	0.54
240.925	0.43
241.142	0.49
241.359	0.32
241.576	0.5
241.793	0.53
242.01	0.49
242.227	0.62
242.444	0.62
242.66	0.66
242.877	0.42
243.094	0.43
243.311	0.46
243.527	0.54
243.744	0.51
243.961	0.61
244.178	0.43
244.394	0.51
244.611	0.5
244.828	0.6
245.044	0.37
245.261	0.5
245.477	0.52
245.694	0.45
245.911	0.42
246.127	0.44
246.344	0.59
246.56	0.5
246.777	0.47
246.993	0.5
247.21	0.46
247.426	0.41
247.643	0.53
247.859	0.37
248.076	0.42
248.292	0.54
248.508	0.39
248.725	0.53
248.941	0.49
249.157	0.51
249.374	0.38
249.59	0.42
249.806	0.41
250.023	0.48
250.239	0.38
250.455	0.36
250.671	0.43
250.888	0.46
251.104	0.47
251.32	0.38
251.536	0.37
251.752	0.38
251.969	0.41
252.185	0.54
252.401	0.59
252.617	0.42
252.833	0.39
253.049	0.41
253.265	0.42
253.481	0.45
253.697	0.38
253.913	0.39
254.129	0.46
254.345	0.43
254.561	0.4
254.777	0.42
254.993	0.51
255.209	0.42
255.425	0.43
255.641	0.32
255.857	0.51
256.073	0.38
256.288	0.44
256.504	0.44
256.72	0.43
256.936	0.52
257.152	0.41
257.367	0.33
257.583	0.4
257.799	0.4
258.015	0.26
258.23	0.39
258.446	0.46
258.662	0.38
258.877	0.31
259.093	0.4
259.309	0.39
259.524	0.42
259.74	0.42
259.955	0.26
260.171	0.39
260.387	0.34
260.602	0.43
260.818	0.43
261.033	0.31
261.249	0.36
261.464	0.38
261.68	0.25
261.895	0.38
262.11	0.48
262.326	0.35
262.541	0.3
262.757	0.47
262.972	0.33
263.187	0.41
263.403	0.32
263.618	0.37
263.833	0.36
264.049	0.36
264.264	0.4
264.479	0.4
264.694	0.42
264.91	0.32
265.125	0.36
265.34	0.36
265.555	0.51
265.77	0.37
265.986	0.34
266.201	0.41
266.416	0.46
266.631	0.36
266.846	0.36
267.061	0.41
267.276	0.39
267.491	0.29
267.706	0.33
267.921	0.34
268.136	0.36
268.351	0.32
268.566	0.3
268.781	0.46
268.996	0.33
269.211	0.35
269.426	0.3
269.641	0.3
269.856	0.4
270.071	0.29
270.285	0.26
270.5	0.36
270.715	0.42
270.93	0.38
271.145	0.38
271.359	0.36
271.574	0.3
271.789	0.4
272.004	0.4
272.218	0.29
272.433	0.44
272.648	0.25
272.862	0.35
273.077	0.3
273.292	0.39
273.506	0.33
273.721	0.27
273.936	0.35
274.15	0.35
274.365	0.3
274.579	0.4
274.794	0.35
275.008	0.34
275.223	0.29
275.437	0.36
275.652	0.5
275.866	0.4
276.081	0.29
276.295	0.4
276.509	0.3
276.724	0.28
276.938	0.33
277.153	0.35
277.367	0.4
277.581	0.23
277.796	0.32
278.01	0.31
278.224	0.35
278.438	0.42
278.653	0.27
278.867	0.37
279.081	0.1
279.295	0.31
279.51	0.34
279.724	0.28
279.938	0.37
280.152	0.34
280.366	0.26
280.58	0.35
280.794	0.43
281.008	0.32
281.222	0.31
281.437	0.41
281.651	0.38
281.865	0.38
282.079	0.31
282.293	0.24
282.507	0.25
282.721	0.29
282.935	0.31
283.148	0.26
283.362	0.28
283.576	0.28
283.79	0.33
284.004	0.29
284.218	0.37
284.432	0.28
284.646	0.31
284.859	0.33
285.073	0.3
285.287	0.25
285.501	0.34
285.714	0.27
285.928	0.33
286.142	0.25
286.356	0.25
286.569	0.3
286.783	0.37
286.997	0.29
287.21	0.31
287.424	0.31
287.637	0.34
287.851	0.28
288.065	0.3
288.278	0.31
288.492	0.28
288.705	0.23
288.919	0.31
289.132	0.22
289.346	0.37
289.559	0.18
289.773	0.22
289.986	0.31
290.2	0.3
290.413	0.36
290.626	0.24
290.84	0.31
291.053	0.26
291.267	0.37
291.48	0.29
291.693	0.29
291.906	0.24
292.12	0.27
292.333	0.23
292.546	0.26
292.76	0.36
292.973	0.26
293.186	0.26
293.399	0.27
293.612	0.3
293.826	0.31
294.039	0.25
294.252	0.28
294.465	0.31
294.678	0.32
294.891	0.26
295.104	0.24
295.317	0.31
295.53	0.24
295.743	0.28
295.956	0.23
296.169	0.33
296.382	0.33
296.595	0.26
296.808	0.2
297.021	0.29
297.234	0.31
297.447	0.29
297.66	0.28
297.873	0.33
298.086	0.26
298.299	0.22
298.511	0.22
298.724	0.24
298.937	0.27
299.15	0.25
299.363	0.24
299.575	0.26
299.788	0.26
300.001	0.26
300.213	0.22
300.426	0.26
300.639	0.21
300.852	0.27
301.064	0.3
301.277	0.31
301.489	0.25
301.702	0.32
301.915	0.29
302.127	0.2
302.34	0.28
302.552	0.28
302.765	0.22
302.977	0.31
303.19	0.22
303.402	0.25
303.615	0.25
303.827	0.22
304.04	0.21
304.252	0.34
304.464	0.27
304.677	0.33
304.889	0.29
305.102	0.22
305.314	0.24
305.526	0.29
305.739	0.27
305.951	0.24
306.163	0.28
306.375	0.34
306.588	0.27
306.8	0.23
307.012	0.24
307.224	0.24
307.436	0.32
307.649	0.17
307.861	0.29
308.073	0.3
308.285	0.27
308.497	0.2
308.709	0.23
308.921	0.25
309.133	0.28
309.346	0.26
309.558	0.27
309.77	0.28
309.982	0.21
310.194	0.33
310.406	0.21
310.617	0.33
310.829	0.28
311.041	0.29
311.253	0.23
311.465	0.27
311.677	0.25
311.889	0.27
312.101	0.28
312.313	0.29
312.524	0.27
312.736	0.19
312.948	0.24
313.16	0.34
313.372	0.27
313.583	0.27
313.795	0.23
314.007	0.19
314.218	0.28
314.43	0.27
314.642	0.21
314.853	0.22
315.065	0.29
315.277	0.23
315.488	0.28
315.7	0.31
315.912	0.27
316.123	0.25
316.335	0.27
316.546	0.3
316.758	0.22
316.969	0.25
317.181	0.26
317.392	0.29
317.604	0.31
317.815	0.3
318.026	0.22
318.238	0.23
318.449	0.31
318.661	0.19
318.872	0.22
319.083	0.21
319.295	0.34
319.506	0.24
319.717	0.32
319.929	0.27
320.14	0.27
320.351	0.26
320.562	0.24
320.774	0.25
320.985	0.24
321.196	0.24
321.407	0.19
321.618	0.28
321.829	0.29
322.041	0.28
322.252	0.22
322.463	0.29
322.674	0.32
322.885	0.18
323.096	0.29
323.307	0.24
323.518	0.26
323.729	0.22
323.94	0.25
324.151	0.22
324.362	0.26
324.573	0.25
324.784	0.21
324.995	0.3
325.206	0.25
325.417	0.28
325.628	0.28
325.838	0.23
326.049	0.28
326.26	0.29
326.471	0.28
326.682	0.27
326.892	0.22
327.103	0.24
327.314	0.19
327.525	0.29
327.735	0.26
327.946	0.23
328.157	0.27
328.368	0.28
328.578	0.21
328.789	0.3
328.999	0.27
329.21	0.25
329.421	0.29
329.631	0.25
329.842	0.21
330.052	0.27
330.263	0.28
330.473	0.27
330.684	0.27
330.894	0.23
331.105	0.2
331.315	0.24
331.526	0.18
331.736	0.32
331.947	0.27
332.157	0.29
332.367	0.24
332.578	0.29
332.788	0.35
332.999	0.28
333.209	0.26
333.419	0.2
333.629	0.24
333.84	0.35
334.05	0.29
334.26	0.32
334.47	0.3
334.681	0.29
334.891	0.25
335.101	0.32
335.311	0.27
335.521	0.25
335.732	0.21
335.942	0.32
336.152	0.24
336.362	0.27
336.572	0.25
336.782	0.27
336.992	0.27
337.202	0.21
337.412	0.23
337.622	0.24
337.832	0.27
338.042	0.26
338.252	0.21
338.462	0.21
338.672	0.23
338.882	0.23
339.092	0.22
339.302	0.3
339.511	0.29
339.721	0.26
339.931	0.22
340.141	0.23
340.351	0.3
340.561	0.28
340.77	0.27
340.98	0.25
341.19	0.26
341.4	0.23
341.609	0.24
341.819	0.22
342.029	0.2
342.238	0.28
342.448	0.23
342.658	0.29
342.867	0.3
343.077	0.27
343.286	0.28
343.496	0.26
343.706	0.28
343.915	0.22
344.125	0.27
344.334	0.29
344.544	0.21
344.753	0.26
344.963	0.25
345.172	0.22
345.381	0.2
345.591	0.23
345.8	0.26
346.01	0.26
346.219	0.26
346.428	0.12
346.638	0.25
346.847	0.24
347.056	0.3
347.266	0.24
347.475	0.31
347.684	0.24
347.893	0.26
348.103	0.31
348.312	0.24
348.521	0.25
348.73	0.24
348.94	0.27
349.149	0.23
349.358	0.24
349.567	0.22
349.776	0.2
349.985	0.23
350.194	0.26
350.403	0.23
350.612	0.19
350.821	0.24
351.03	0.2
351.239	0.24
351.448	0.25
351.657	0.2
351.866	0.27
352.075	0.25
352.284	0.29
352.493	0.23
352.702	0.27
352.911	0.25
353.12	0.25
353.329	0.25
353.538	0.25
353.746	0.25
353.955	0.23
354.164	0.26
354.373	0.27
354.582	0.27
354.79	0.25
354.999	0.28
355.208	0.23
355.416	0.3
355.625	0.23
355.834	0.24
356.042	0.25
356.251	0.22
356.46	0.2
356.668	0.27
356.877	0.32
357.085	0.3
357.294	0.2
357.503	0.28
357.711	0.2
357.92	0.33
358.128	0.25
358.337	0.24
358.545	0.27
358.754	0.24
358.962	0.29
359.17	0.26
359.379	0.25
359.587	0.29
359.796	0.24
360.004	0.25
360.212	0.23
360.421	0.27
360.629	0.22
360.837	0.26
361.046	0.26
361.254	0.32
361.462	0.28
361.67	0.26
361.879	0.26
362.087	0.28
362.295	0.26
362.503	0.23
362.711	0.16
362.92	0.21
363.128	0.23
363.336	0.21
363.544	0.2
363.752	0.22
363.96	0.24
364.168	0.21
364.376	0.21
364.584	0.25
364.792	0.29
365	0.24
365.208	0.25
365.416	0.26
365.624	0.26
365.832	0.22
366.04	0.23
366.248	0.22
366.456	0.24
366.664	0.27
366.872	0.23
367.079	0.21
367.287	0.24
367.495	0.29
367.703	0.24
367.911	0.2
368.118	0.24
368.326	0.25
368.534	0.23
368.742	0.31
368.949	0.18
369.157	0.2
369.365	0.25
369.572	0.25
369.78	0.21
369.988	0.26
370.195	0.28
370.403	0.26
370.61	0.23
370.818	0.29
371.026	0.3
371.233	0.21
371.441	0.24
371.648	0.24
371.856	0.25
372.063	0.26
372.271	0.24
372.478	0.24
372.685	0.24
372.893	0.28
373.1	0.23
373.308	0.26
373.515	0.27
373.722	0.25
373.93	0.26
374.137	0.26
374.344	0.28
374.552	0.3
374.759	0.29
374.966	0.23
375.173	0.24
375.381	0.28
375.588	0.26
375.795	0.17
376.002	0.24
376.209	0.23
376.417	0.24
376.624	0.29
376.831	0.24
377.038	0.23
377.245	0.18
377.452	0.21
377.659	0.28
377.866	0.26
378.073	0.26
378.28	0.27
378.487	0.3
378.694	0.32
378.901	0.34
379.108	0.28
379.315	0.3
379.522	0.31
379.729	0.27
379.936	0.23
380.143	0.25
380.35	0.31
380.557	0.29
380.763	0.29
380.97	0.22
381.177	0.27
381.384	0.3
381.591	0.3
381.797	0.25
382.004	0.25
382.211	0.29
382.418	0.29
382.624	0.31
382.831	0.3
383.038	0.28
383.244	0.28
383.451	0.24
383.658	0.25
383.864	0.26
384.071	0.24
384.277	0.31
384.484	0.24
384.69	0.29
384.897	0.24
385.103	0.27
385.31	0.25
385.516	0.27
385.723	0.27
385.929	0.23
386.136	0.24
386.342	0.28
386.549	0.26
386.755	0.34
386.961	0.24
387.168	0.28
387.374	0.31
387.58	0.3
387.787	0.28
387.993	0.31
388.199	0.28
388.406	0.22
388.612	0.23
388.818	0.3
389.024	0.29
389.231	0.31
389.437	0.32
389.643	0.31
389.849	0.28
390.055	0.29
390.261	0.29
390.467	0.31
390.674	0.25
390.88	0.29
391.086	0.34
391.292	0.29
391.498	0.36
391.704	0.28
391.91	0.32
392.116	0.27
392.322	0.22
392.528	0.32
392.734	0.27
392.94	0.28
393.146	0.32
393.352	0.29
393.557	0.29
393.763	0.3
393.969	0.33
394.175	0.27
394.381	0.31
394.587	0.27
394.792	0.32
394.998	0.33
395.204	0.36
395.41	0.27
395.615	0.3
395.821	0.31
396.027	0.33
396.233	0.3
396.438	0.37
396.644	0.37
396.85	0.36
397.055	0.33
397.261	0.32
397.466	0.35
397.672	0.34
397.878	0.42
398.083	0.35
398.289	0.28
398.494	0.4
398.7	0.33
398.905	0.3
399.111	0.39
399.316	0.28
399.522	0.37
399.727	0.35
399.932	0.37
400.138	0.33
400.343	0.37
400.549	0.35
400.754	0.33
400.959	0.38
401.165	0.33
401.37	0.35
401.575	0.45
401.78	0.36
401.986	0.35
402.191	0.36
402.396	0.4
402.601	0.39
402.807	0.42
403.012	0.43
403.217	0.42
403.422	0.38
403.627	0.4
403.832	0.41
404.037	0.47
404.243	0.47
404.448	0.43
404.653	0.37
404.858	0.45
405.063	0.43
405.268	0.38
405.473	0.39
405.678	0.42
405.883	0.53
406.088	0.44
406.293	0.43
406.498	0.4
406.703	0.47
406.907	0.47
407.112	0.46
407.317	0.54
407.522	0.58
407.727	0.46
407.932	0.53
408.136	0.59
408.341	0.56
408.546	0.59
408.751	0.6
408.956	0.59
409.16	0.63
409.365	0.6
409.57	0.64
409.774	0.62
409.979	0.68
410.184	0.65
410.388	0.61
410.593	0.73
410.798	0.7
411.002	0.7
411.207	0.77
411.411	0.83
411.616	0.8
411.82	0.75
412.025	0.85
412.229	0.79
412.434	0.87
412.638	0.89
412.843	0.89
413.047	0.91
413.252	0.92
413.456	1.03
413.66	1.03
413.865	0.98
414.069	1.1
414.273	1.08
414.478	1.09
414.682	1.16
414.886	1.15
415.091	1.2
415.295	1.22
415.499	1.29
415.703	1.36
415.908	1.41
416.112	1.35
416.316	1.49
416.52	1.48
416.724	1.52
416.929	1.59
417.133	1.8
417.337	1.68
417.541	1.78
417.745	1.77
417.949	1.87
418.153	2.01
418.357	1.94
418.561	2.15
418.765	2.08
418.969	2.24
419.173	2.41
419.377	2.32
419.581	2.57
419.785	2.58
419.989	2.6
420.193	2.7
420.397	2.86
420.601	2.89
420.804	3.02
421.008	2.96
421.212	3.11
421.416	3.12
421.62	3.19
421.823	3.3
422.027	3.46
422.231	3.4
422.435	3.44
422.638	3.51
422.842	3.53
423.046	3.62
423.249	3.8
423.453	3.88
423.657	4
423.86	4.06
424.064	4.2
424.268	4.37
424.471	4.37
424.675	4.59
424.878	4.66
425.082	4.74
425.285	5.05
425.489	4.93
425.692	5.05
425.896	5.19
426.099	5.27
426.303	5.4
426.506	5.62
426.71	5.82
426.913	6
427.116	6.11
427.32	6.14
427.523	6.25
427.726	6.51
427.93	6.58
428.133	6.99
428.336	7.04
428.54	7.27
428.743	7.44
428.946	7.6
429.149	7.83
429.353	7.69
429.556	7.91
429.759	7.85
429.962	8.02
430.165	8.2
430.368	7.8
430.571	7.89
430.775	7.85
430.978	7.95
431.181	8.01
431.384	8.11
431.587	8.13
431.79	8.57
431.993	8.53
432.196	8.85
432.399	9.27
432.602	9.22
432.805	9.37
433.008	9.91
433.211	9.82
433.414	10.21
433.616	10.11
433.819	10.11
434.022	10.27
434.225	10.37
434.428	10.53
434.631	10.89
434.833	10.72
435.036	10.93
435.239	11.13
435.442	11.2
435.645	11.36
435.847	11.39
436.05	11.65
436.253	11.93
436.455	11.97
436.658	11.92
436.861	12.27
437.063	12.35
437.266	12.31
437.468	12.62
437.671	12.88
437.874	12.95
438.076	12.86
438.279	13.22
438.481	13.39
438.684	14.1
438.886	13.58
439.089	14.03
439.291	13.9
439.494	14.33
439.696	14.57
439.899	14.99
440.101	15.34
440.303	15.61
440.506	16.46
440.708	16.07
440.91	16.24
441.113	16.64
441.315	16.84
441.517	16.66
441.72	17.07
441.922	16.83
442.124	16.62
442.326	16.98
442.529	17.23
442.731	17.23
442.933	17.63
443.135	17.32
443.337	17.28
443.539	17.87
443.742	17.42
443.944	18.25
444.146	18.02
444.348	17.79
444.55	17.92
444.752	17.99
444.954	17.97
445.156	17.92
445.358	18.41
445.56	18.75
445.762	18.31
445.964	18.75
446.166	18.5
446.368	18.45
446.57	18.49
446.772	18.24
446.974	17.87
447.175	18.27
447.377	17.99
447.579	18.48
447.781	18.11
447.983	17.84
448.184	17.3
448.386	17.8
448.588	17.38
448.79	17.31
448.991	17.51
449.193	17.66
449.395	16.95
449.597	16.57
449.798	16.38
450	16.09
450.202	15.93
450.403	16.04
450.605	15.85
450.806	15.48
451.008	15.4
451.21	15.17
451.411	14.73
451.613	14.07
451.814	14.33
452.016	14.29
452.217	13.49
452.419	13.57
452.62	13.28
452.821	12.93
453.023	12.9
453.224	12.4
453.426	12.02
453.627	11.39
453.828	11.48
454.03	11.66
454.231	11.49
454.432	11.27
454.634	11.06
454.835	10.83
455.036	10.63
455.238	10.28
455.439	10.05
455.64	9.78
455.841	9.58
456.042	9.68
456.244	9.45
456.445	9.17
456.646	8.86
456.847	8.72
457.048	8.63
457.249	8.61
457.45	8.26
457.651	7.91
457.852	7.62
458.054	7.37
458.255	7.37
458.456	7.45
458.657	7.38
458.858	6.94
459.058	6.7
459.259	6.87
459.46	6.53
459.661	6.53
459.862	6.55
460.063	6.53
460.264	6.35
460.465	6.13
460.666	6.22
460.866	5.93
461.067	5.61
461.268	5.66
461.469	5.56
461.67	5.47
461.87	5.27
462.071	5.36
462.272	5.24
462.473	5.17
462.673	5.45
462.874	5.24
463.075	5.27
463.275	5.16
463.476	5.25
463.676	5.14
463.877	5.09
464.078	5.01
464.278	5.03
464.479	4.95
464.679	4.83
464.88	4.86
465.08	4.71
465.281	4.64
465.481	4.36
465.682	4.17
465.882	4.18
466.083	4.2
466.283	4.13
466.483	3.97
466.684	3.84
466.884	3.64
467.085	3.77
467.285	3.82
467.485	3.79
467.686	3.55
467.886	3.52
468.086	3.42
468.286	3.44
468.487	3.58
468.687	3.33
468.887	3.28
469.087	3.39
469.287	3.34
469.488	3.11
469.688	3.15
469.888	3.18
470.088	3.22
470.288	3.16
470.488	3
470.688	2.89
470.888	2.9
471.088	2.74
471.288	2.86
471.488	2.83
471.688	2.85
471.888	2.74
472.088	2.84
472.288	2.77
472.488	2.63
472.688	2.6
472.888	2.66
473.088	2.65
473.288	2.54
473.488	2.57
473.688	2.63
473.887	2.52
474.087	2.47
474.287	2.49
474.487	2.45
474.687	2.45
474.886	2.38
475.086	2.27
475.286	2.34
475.486	2.33
475.685	2.31
475.885	2.24
476.085	2.27
476.284	2.26
476.484	2.27
476.684	2.24
476.883	2.33
477.083	2.3
477.282	2.13
477.482	2.2
477.681	2.14
477.881	2.06
478.08	2.1
478.28	2.08
478.479	2.1
478.679	2.16
478.878	2.02
479.078	2.09
479.277	2.13
479.477	2.11
479.676	2.05
479.875	2.06
480.075	2.04
480.274	2.02
480.473	2.1
480.673	2.07
480.872	2.11
481.071	2.06
481.271	2.06
481.47	2.02
481.669	2.06
481.868	1.94
482.067	1.99
482.267	1.98
482.466	1.96
482.665	1.94
482.864	1.98
483.063	2.01
483.262	2.06
483.461	2.02
483.661	2.08
483.86	2
484.059	2.05
484.258	2.05
484.457	2.05
484.656	1.99
484.855	2.12
485.054	1.94
485.253	2.02
485.452	1.98
485.651	2.07
485.849	2.03
486.048	2.04
486.247	2.04
486.446	2.09
486.645	2.08
486.844	2.12
487.043	2.05
487.241	2.06
487.44	2.07
487.639	2.14
487.838	2.12
488.037	2.13
488.235	2.15
488.434	2.18
488.633	2.05
488.831	2.21
489.03	2.26
489.229	2.23
489.427	2.2
489.626	2.24
489.825	2.26
490.023	2.29
490.222	2.26
490.42	2.33
490.619	2.35
490.817	2.37
491.016	2.36
491.214	2.42
491.413	2.4
491.611	2.36
491.81	2.41
492.008	2.38
492.207	2.56
492.405	2.5
492.604	2.44
492.802	2.55
493	2.59
493.199	2.61
493.397	2.69
493.595	2.66
493.794	2.58
493.992	2.74
494.19	2.76
494.388	2.82
494.587	2.73
494.785	2.72
494.983	2.7
495.181	2.83
495.379	2.88
495.578	2.89
495.776	2.97
495.974	2.89
496.172	2.96
496.37	3.1
496.568	3.1
496.766	3.06
496.964	3.17
497.162	3.13
497.36	3.2
497.558	3.21
497.756	3.28
497.954	3.31
498.152	3.31
498.35	3.43
498.548	3.36
498.746	3.36
498.944	3.4
499.142	3.44
499.34	3.46
499.538	3.62
499.736	3.49
499.933	3.57
500.131	3.62
500.329	3.77
500.527	3.73
500.725	3.82
500.922	3.82
501.12	3.86
501.318	3.93
501.516	3.89
501.713	4
501.911	3.97
502.109	3.96
502.306	4.05
502.504	3.99
502.701	4.02
502.899	4.13
503.097	4.31
503.294	4.18
503.492	4.31
503.689	4.42
503.887	4.3
504.084	4.4
504.282	4.4
504.479	4.35
504.677	4.53
504.874	4.52
505.072	4.46
505.269	4.63
505.466	4.65
505.664	4.71
505.861	4.61
506.059	4.77
506.256	4.73
506.453	4.81
506.651	4.96
506.848	4.94
507.045	4.91
507.242	4.95
507.44	5
507.637	5.09
507.834	5.02
508.031	5.2
508.229	5.11
508.426	5.09
508.623	5.22
508.82	5.32
509.017	5.25
509.214	5.27
509.411	5.36
509.608	5.29
509.805	5.43
510.003	5.45
510.2	5.45
510.397	5.59
510.594	5.54
510.791	5.59
510.988	5.64
511.184	5.64
511.381	5.46
511.578	5.7
511.775	5.8
511.972	5.63
512.169	5.74
512.366	5.8
512.563	5.91
512.76	5.9
512.956	5.95
513.153	5.93
513.35	5.86
513.547	5.92
513.744	6.01
513.94	6.05
514.137	6.15
514.334	6.05
514.53	6.16
514.727	6.35
514.924	6.2
515.12	6.18
515.317	6.24
515.514	6.16
515.71	6.17
515.907	6.39
516.103	6.4
516.3	6.3
516.497	6.35
516.693	6.4
516.89	6.41
517.086	6.45
517.283	6.5
517.479	6.37
517.676	6.58
517.872	6.56
518.068	6.57
518.265	6.63
518.461	6.54
518.658	6.68
518.854	6.66
519.05	6.79
519.247	6.78
519.443	6.71
519.639	6.86
519.836	6.71
520.032	6.7
520.228	6.83
520.424	6.81
520.621	6.9
520.817	6.94
521.013	6.91
521.209	7.01
521.405	7.05
521.601	7.01
521.798	6.95
521.994	7
522.19	6.97
522.386	7
522.582	7.09
522.778	7.22
522.974	7.06
523.17	7.1
523.366	7.09
523.562	7.18
523.758	7.17
523.954	6.98
524.15	7.21
524.346	7.24
524.542	7.28
524.738	7.24
524.934	7.31
525.129	7.26
525.325	7.22
525.521	7.15
525.717	7.44
525.913	7.26
526.109	7.29
526.304	7.42
526.5	7.38
526.696	7.44
526.892	7.34
527.087	7.56
527.283	7.46
527.479	7.48
527.674	7.32
527.87	7.48
528.066	7.45
528.261	7.47
528.457	7.4
528.653	7.57
528.848	7.55
529.044	7.64
529.239	7.5
529.435	7.48
529.63	7.53
529.826	7.56
530.021	7.5
530.217	7.62
530.412	7.57
530.608	7.63
530.803	7.55
530.999	7.52
531.194	7.64
531.389	7.65
531.585	7.66
531.78	7.8
531.975	7.68
532.171	7.68
532.366	7.66
532.561	7.73
532.757	7.65
532.952	7.81
533.147	7.58
533.342	7.75
533.538	7.68
533.733	7.86
533.928	7.52
534.123	7.76
534.318	7.77
534.513	7.73
534.709	7.89
534.904	7.81
535.099	7.86
535.294	7.8
535.489	7.9
535.684	7.83
535.879	7.77
536.074	7.94
536.269	7.9
536.464	7.85
536.659	7.8
536.854	7.82
537.049	7.95
537.244	7.86
537.439	7.84
537.634	7.84
537.828	7.97
538.023	7.93
538.218	7.93
538.413	7.76
538.608	7.97
538.803	7.91
538.997	7.93
539.192	7.93
539.387	7.84
539.582	7.88
539.776	7.86
539.971	7.95
540.166	8.04
540.36	7.83
540.555	8.01
540.75	7.99
540.944	7.96
541.139	7.99
541.334	7.94
541.528	7.97
541.723	8.08
541.917	8.04
542.112	7.91
542.306	7.79
542.501	7.97
542.695	7.96
542.89	7.96
543.084	7.97
543.279	7.98
543.473	8.01
543.668	8.07
543.862	7.92
544.056	7.96
544.251	8.06
544.445	8.05
544.64	8.13
544.834	7.74
545.028	7.69
545.222	8.03
545.417	8.17
545.611	8.09
545.805	8.07
546	7.83
546.194	8.06
546.388	8.03
546.582	7.94
546.776	7.97
546.97	8.06
547.165	7.97
547.359	8.04
547.553	7.99
547.747	7.96
547.941	8.2
548.135	8.03
548.329	8.06
548.523	8.06
548.717	8
548.911	7.95
549.105	7.95
549.299	8.05
549.493	8.08
549.687	7.97
549.881	8.19
550.075	8.05
550.269	7.93
550.463	8.05
550.657	8.04
550.85	8
551.044	8
551.238	8.12
551.432	8.04
551.626	8.09
551.82	8.14
552.013	7.97
552.207	8.16
552.401	8.11
552.594	8.03
552.788	8
552.982	8.08
553.176	8
553.369	8.19
553.563	8.11
553.756	8.09
553.95	8.09
554.144	8.14
554.337	8.15
554.531	7.84
554.724	8.04
554.918	8.16
555.111	8.03
555.305	8.08
555.498	8
555.692	8.17
555.885	8.13
556.079	7.97
556.272	8.06
556.466	8.01
556.659	8
556.852	8.16
557.046	8.02
557.239	7.95
557.432	8.06
557.626	8.1
557.819	8.16
558.012	8.13
558.206	8.18
558.399	8.12
558.592	8.08
558.785	7.97
558.979	8
559.172	8.1
559.365	8.05
559.558	8.06
559.751	8.04
559.944	8.18
560.138	8.07
560.331	8.1
560.524	8.17
560.717	8.06
560.91	8.06
561.103	8.08
561.296	7.97
561.489	8.1
561.682	8.18
561.875	8.11
562.068	8.18
562.261	8.03
562.454	8.21
562.647	8
562.84	8.1
563.032	8.07
563.225	7.97
563.418	7.99
563.611	8.14
563.804	8.06
563.997	7.91
564.19	7.9
564.382	8.18
564.575	8.1
564.768	8.01
564.961	8.1
565.153	8.01
565.346	7.99
565.539	8.14
565.731	8.07
565.924	8.17
566.117	8.21
566.309	8.03
566.502	8.03
566.695	7.95
566.887	8.09
567.08	8.02
567.272	8.04
567.465	8.01
567.657	8.12
567.85	8
568.042	8.04
568.235	8.1
568.427	7.9
568.62	7.98
568.812	7.99
569.005	8.11
569.197	7.92
569.389	8.03
569.582	8.02
569.774	8.01
569.966	7.97
570.159	8.04
570.351	7.9
570.543	7.99
570.736	8.02
570.928	7.83
571.12	8.03
571.312	7.97
571.505	7.74
571.697	7.94
571.889	8.01
572.081	7.94
572.273	7.9
572.465	7.86
572.658	8.08
572.85	8.03
573.042	8.06
573.234	7.89
573.426	7.95
573.618	7.94
573.81	7.93
574.002	7.88
574.194	7.98
574.386	7.9
574.578	7.8
574.77	7.85
574.962	7.98
575.154	7.79
575.346	7.83
575.538	7.78
575.729	7.77
575.921	7.84
576.113	7.97
576.305	7.88
576.497	7.96
576.689	7.76
576.88	7.72
577.072	7.89
577.264	7.74
577.456	7.85
577.647	7.8
577.839	7.95
578.031	7.78
578.223	7.77
578.414	7.72
578.606	7.8
578.798	7.89
578.989	7.81
579.181	7.95
579.372	7.81
579.564	7.83
579.755	7.73
579.947	7.69
580.139	7.78
580.33	7.69
580.522	7.8
580.713	7.71
580.905	7.72
581.096	7.77
581.287	7.64
581.479	7.73
581.67	7.76
581.862	7.61
582.053	7.67
582.244	7.64
582.436	7.78
582.627	7.56
582.818	7.57
583.01	7.6
583.201	7.72
583.392	7.57
583.583	7.57
583.775	7.43
583.966	7.58
584.157	7.6
584.348	7.71
584.54	7.54
584.731	7.59
584.922	7.49
585.113	7.49
585.304	7.56
585.495	7.56
585.686	7.58
585.877	7.55
586.068	7.6
586.259	7.53
586.45	7.46
586.641	7.48
586.832	7.6
587.023	7.51
587.214	7.42
587.405	7.53
587.596	7.4
587.787	7.25
587.978	7.42
588.169	7.39
588.36	7.31
588.551	7.33
588.742	7.38
588.932	7.46
589.123	7.21
589.314	7.45
589.505	7.27
589.696	7.38
589.886	7.34
590.077	7.3
590.268	7.26
590.458	7.2
590.649	7.15
590.84	7.23
591.03	7.23
591.221	7.25
591.412	7.15
591.602	7.31
591.793	7.16
591.984	7.24
592.174	7.22
592.365	7.33
592.555	7.02
592.746	7.14
592.936	7.11
593.127	7.2
593.317	7.18
593.508	7.16
593.698	7.07
593.889	7.06
594.079	7.01
594.269	7.01
594.46	7.04
594.65	7.07
594.84	6.98
595.031	6.93
595.221	6.94
595.411	6.96
595.602	6.98
595.792	6.95
595.982	6.88
596.172	7.01
596.363	6.88
596.553	6.9
596.743	6.92
596.933	6.89
597.123	6.84
597.314	6.74
597.504	6.76
597.694	6.85
597.884	6.75
598.074	6.87
598.264	6.81
598.454	6.77
598.644	6.71
598.834	6.81
599.024	6.64
599.214	6.69
599.404	6.75
599.594	6.69
599.784	6.65
599.974	6.67
600.164	6.7
600.354	6.63
600.544	6.51
600.734	6.62
600.924	6.59
601.114	6.56
601.303	6.5
601.493	6.54
601.683	6.57
601.873	6.51
602.063	6.45
602.252	6.46
602.442	6.37
602.632	6.45
602.821	6.36
603.011	6.47
603.201	6.38
603.39	6.35
603.58	6.24
603.77	6.36
603.959	6.46
604.149	6.27
604.339	6.35
604.528	6.33
604.718	6.38
604.907	6.28
605.097	6.23
605.286	6.14
605.476	6.2
605.665	6.25
605.855	6.16
606.044	6.26
606.234	6.16
606.423	6.21
606.612	6.2
606.802	6.07
606.991	6.1
607.181	6.15
607.37	6.12
607.559	5.86
607.749	6.09
607.938	5.99
608.127	6.03
608.316	6.01
608.506	5.91
608.695	6.07
608.884	5.96
609.073	6.02
609.263	6.01
609.452	5.98
609.641	5.82
609.83	5.82
610.019	5.88
610.208	5.81
610.397	5.83
610.586	5.79
610.775	5.76
610.965	5.81
611.154	5.65
611.343	5.82
611.532	5.7
611.721	5.84
611.91	5.66
612.099	5.72
612.287	5.58
612.476	5.57
612.665	5.74
612.854	5.6
613.043	5.58
613.232	5.6
613.421	5.51
613.61	5.54
613.798	5.53
613.987	5.55
614.176	5.52
614.365	5.53
614.554	5.5
614.742	5.49
614.931	5.31
615.12	5.53
615.309	5.47
615.497	5.32
615.686	5.31
615.875	5.44
616.063	5.31
616.252	5.26
616.44	5.39
616.629	5.27
616.818	5.24
617.006	5.28
617.195	5.2
617.383	5.16
617.572	5.13
617.76	5.2
617.949	5.14
618.137	5.25
618.326	5.19
618.514	5.02
618.703	5.02
618.891	5.1
619.079	5.01
619.268	5.15
619.456	4.96
619.644	5.09
619.833	4.99
620.021	4.98
620.209	4.94
620.398	5
620.586	4.93
620.774	4.95
620.962	4.94
621.151	4.99
621.339	4.89
621.527	4.82
621.715	4.88
621.903	4.9
622.092	4.75
622.28	4.87
622.468	4.7
622.656	4.76
622.844	4.79
623.032	4.78
623.22	4.62
623.408	4.81
623.596	4.72
623.784	4.79
623.972	4.6
624.16	4.61
624.348	4.74
624.536	4.68
624.724	4.53
624.912	4.63
625.1	4.56
625.288	4.59
625.476	4.55
625.664	4.6
625.851	4.53
626.039	4.56
626.227	4.47
626.415	4.45
626.603	4.43
626.79	4.45
626.978	4.47
627.166	4.47
627.354	4.33
627.541	4.36
627.729	4.28
627.917	4.48
628.104	4.34
628.292	4.3
628.48	4.32
628.667	4.27
628.855	4.36
629.042	4.31
629.23	4.25
629.418	4.31
629.605	4.25
629.793	4.18
629.98	4.22
630.168	4.13
630.355	4.17
630.543	4.17
630.73	4.13
630.917	4.07
631.105	4.19
631.292	4.13
631.48	4.13
631.667	4.13
631.854	4.07
632.042	4.03
632.229	3.99
632.416	4.04
632.604	3.99
632.791	3.88
632.978	4.01
633.165	3.93
633.353	3.91
633.54	3.95
633.727	3.85
633.914	3.85
634.101	3.81
634.289	4.01
634.476	3.83
634.663	3.84
634.85	3.79
635.037	3.78
635.224	3.69
635.411	3.77
635.598	3.67
635.785	3.68
635.972	3.68
636.159	3.67
636.346	3.68
636.533	3.66
636.72	3.72
636.907	3.65
637.094	3.58
637.281	3.54
637.468	3.62
637.655	3.54
637.842	3.61
638.029	3.56
638.215	3.48
638.402	3.55
638.589	3.52
638.776	3.47
638.963	3.43
639.149	3.49
639.336	3.55
639.523	3.46
639.709	3.41
639.896	3.42
640.083	3.43
640.27	3.46
640.456	3.34
640.643	3.37
640.829	3.29
641.016	3.34
641.203	3.28
641.389	3.28
641.576	3.35
641.762	3.34
641.949	3.24
642.135	3.29
642.322	3.27
642.508	3.22
642.695	3.27
642.881	3.16
643.068	3.15
643.254	3.21
643.441	3.19
643.627	3.17
643.813	3.1
644	3.2
644.186	3.07
644.372	3.13
644.559	3.12
644.745	3.07
644.931	3.06
645.118	3.03
645.304	3.09
645.49	3.08
645.676	2.95
645.862	2.99
646.049	3.04
646.235	3.04
646.421	3.07
646.607	3.04
646.793	2.92
646.979	2.91
647.165	2.94
647.352	2.91
647.538	2.94
647.724	2.94
647.91	2.89
648.096	2.85
648.282	2.93
648.468	2.84
648.654	2.85
648.84	2.83
649.026	2.83
649.212	2.84
649.397	2.79
649.583	2.8
649.769	2.77
649.955	2.78
650.141	2.88
650.327	2.75
650.513	2.67
650.698	2.77
650.884	2.67
651.07	2.76
651.256	2.72
651.442	2.72
651.627	2.67
651.813	2.67
651.999	2.58
652.184	2.67
652.37	2.66
652.556	2.62
652.741	2.62
652.927	2.56
653.113	2.62
653.298	2.63
653.484	2.56
653.669	2.58
653.855	2.56
654.04	2.57
654.226	2.51
654.412	2.48
654.597	2.51
654.782	2.58
654.968	2.53
655.153	2.47
655.339	2.49
655.524	2.49
655.71	2.47
655.895	2.51
656.08	2.49
656.266	2.52
656.451	2.42
656.636	2.37
656.822	2.45
657.007	2.47
657.192	2.4
657.378	2.34
657.563	2.39
657.748	2.46
657.933	2.34
658.118	2.28
658.304	2.38
658.489	2.32
658.674	2.33
658.859	2.27
659.044	2.32
659.229	2.32
659.414	2.22
659.599	2.32
659.785	2.22
659.97	2.26
660.155	2.29
660.34	2.3
660.525	2.22
660.71	2.27
660.895	2.2
661.08	2.18
661.264	2.19
661.449	2.2
661.634	2.16
661.819	2.21
662.004	2.17
662.189	2.09
662.374	2.14
662.559	2.09
662.743	2.04
662.928	2.07
663.113	2.01
663.298	2.04
663.483	2.03
663.667	2.04
663.852	2.05
664.037	2.07
664.221	2.04
664.406	2
664.591	1.99
664.775	2
664.96	1.94
665.145	1.92
665.329	1.9
665.514	1.99
665.698	1.91
665.883	1.87
666.068	1.92
666.252	1.9
666.437	1.81
666.621	1.88
666.806	1.86
666.99	1.85
667.174	1.83
667.359	1.84
667.543	1.8
667.728	1.8
667.912	1.77
668.096	1.75
668.281	1.73
668.465	1.81
668.649	1.77
668.834	1.69
669.018	1.74
669.202	1.73
669.387	1.75
669.571	1.77
669.755	1.68
669.939	1.71
670.124	1.64
670.308	1.76
670.492	1.71
670.676	1.66
670.86	1.67
671.044	1.61
671.228	1.71
671.413	1.58
671.597	1.62
671.781	1.58
671.965	1.66
672.149	1.66
672.333	1.59
672.517	1.57
672.701	1.58
672.885	1.59
673.069	1.5
673.253	1.61
673.437	1.55
673.621	1.55
673.804	1.53
673.988	1.54
674.172	1.49
674.356	1.47
674.54	1.47
674.724	1.53
674.908	1.54
675.091	1.54
675.275	1.48
675.459	1.52
675.643	1.47
675.826	1.48
676.01	1.43
676.194	1.38
676.377	1.52
676.561	1.48
676.745	1.44
676.928	1.44
677.112	1.46
677.296	1.42
677.479	1.43
677.663	1.33
677.846	1.43
678.03	1.42
678.213	1.34
678.397	1.41
678.58	1.38
678.764	1.4
678.947	1.3
679.131	1.36
679.314	1.34
679.498	1.33
679.681	1.37
679.865	1.33
680.048	1.3
680.231	1.29
680.415	1.31
680.598	1.33
680.781	1.28
680.965	1.29
681.148	1.28
681.331	1.24
681.514	1.34
681.698	1.22
681.881	1.25
682.064	1.29
682.247	1.28
682.43	1.16
682.614	1.27
682.797	1.25
682.98	1.27
683.163	1.2
683.346	1.23
683.529	1.19
683.712	1.14
683.895	1.24
684.078	1.1
684.261	1.16
684.444	1.23
684.627	1.21
684.81	1.16
684.993	1.23
685.176	1.16
685.359	1.16
685.542	1.17
685.725	1.22
685.908	1.15
686.091	1.13
686.274	1.21
686.457	1.2
686.639	1.13
686.822	1.07
687.005	1.11
687.188	1.11
687.371	1.16
687.553	1.19
687.736	1.1
687.919	1.18
688.102	1.16
688.284	1.09
688.467	1.05
688.65	1
688.832	1.01
689.015	1.01
689.197	0.99
689.38	1.17
689.563	1.04
689.745	0.97
689.928	1.02
690.11	1.06
690.293	1.02
690.475	1
690.658	1.07
690.84	0.97
691.023	1.06
691.205	1.06
691.388	1.05
691.57	1
691.752	1.06
691.935	0.91
692.117	0.93
692.3	1.04
692.482	0.99
692.664	0.93
692.847	0.97
693.029	1.03
693.211	1.01
693.393	0.98
693.576	0.9
693.758	0.96
693.94	1.04
694.122	0.96
694.304	0.89
694.487	0.94
694.669	1.04
694.851	0.97
695.033	0.97
695.215	0.87
695.397	0.88
695.579	0.95
695.761	0.8
695.943	0.83
696.125	0.91
696.308	0.9
696.49	0.82
696.671	0.92
696.853	0.95
697.035	1.07
697.217	0.87
697.399	0.9
697.581	0.85
697.763	0.86
697.945	0.83
698.127	0.9
698.309	0.9
698.491	0.87
698.672	0.9
698.854	0.9
699.036	0.86
699.218	0.84
699.399	0.94
699.581	0.86
699.763	0.79
699.945	0.8
700.126	0.78
700.308	0.83
700.49	0.78
700.671	0.78
700.853	0.8
701.035	0.79
701.216	0.85
701.398	0.72
701.579	0.79
701.761	0.87
701.943	0.69
702.124	0.75
702.306	0.8
702.487	0.91
702.669	0.77
702.85	0.68
703.031	0.7
703.213	0.8
703.394	0.83
703.576	0.8
703.757	0.87
703.938	0.77
704.12	0.9
704.301	0.81
704.483	0.71
704.664	0.79
704.845	0.83
705.026	0.83
705.208	0.8
705.389	0.77
705.57	0.77
705.751	0.76
705.933	0.71
706.114	0.79
706.295	0.76
706.476	0.74
706.657	0.86
706.838	0.76
707.02	0.78
707.201	0.69
707.382	0.71
707.563	0.73
707.744	0.64
707.925	0.67
708.106	0.69
708.287	0.73
708.468	0.72
708.649	0.74
708.83	0.81
709.011	0.73
709.192	0.74
709.373	0.64
709.554	0.72
709.734	0.76
709.915	0.76
710.096	0.72
710.277	0.63
710.458	0.73
710.639	0.71
710.819	0.55
711	0.66
711.181	0.74
711.362	0.77
711.542	0.68
711.723	0.69
711.904	0.78
712.085	0.66
712.265	0.65
712.446	0.64
712.627	0.69
712.807	0.66
712.988	0.74
713.168	0.63
713.349	0.67
713.53	0.61
713.71	0.62
713.891	0.59
714.071	0.63
714.252	0.68
714.432	0.61
714.613	0.59
714.793	0.65
714.974	0.75
715.154	0.71
715.334	0.64
715.515	0.69
715.695	0.59
715.876	0.66
716.056	0.6
716.236	0.59
716.417	0.67
716.597	0.58
716.777	0.79
716.957	0.58
717.138	0.64
717.318	0.68
717.498	0.55
717.678	0.59
717.859	0.61
718.039	0.52
718.219	0.7
718.399	0.66
718.579	0.52
718.759	0.6
718.939	0.7
719.12	0.61
719.3	0.59
719.48	0.5
719.66	0.54
719.84	0.75
720.02	0.53
720.2	0.52
720.38	0.64
720.56	0.66
720.74	0.6
720.92	0.66
721.1	0.68
721.279	0.63
721.459	0.59
721.639	0.51
721.819	0.55
721.999	0.59
722.179	0.54
722.359	0.53
722.538	0.61
722.718	0.51
722.898	0.55
723.078	0.59
723.257	0.57
723.437	0.55
723.617	0.63
723.797	0.59
723.976	0.63
724.156	0.58
724.336	0.63
724.515	0.72
724.695	0.51
724.874	0.56
725.054	0.64
725.234	0.52
725.413	0.63
725.593	0.55
725.772	0.49
725.952	0.58
726.131	0.65
726.311	0.63
726.49	0.63
726.67	0.63
726.849	0.56
727.028	0.62
727.208	0.53
727.387	0.6
727.567	0.49
727.746	0.59
727.925	0.56
728.105	0.52
728.284	0.6
728.463	0.5
728.643	0.61
728.822	0.5
729.001	0.53
729.18	0.6
729.359	0.57
729.539	0.6
729.718	0.57
729.897	0.58
730.076	0.54
730.255	0.45
730.434	0.61
730.614	0.59
730.793	0.54
730.972	0.6
731.151	0.7
731.33	0.64
731.509	0.55
731.688	0.67
731.867	0.56
732.046	0.46
732.225	0.67
732.404	0.5
732.583	0.53
732.762	0.62
732.941	0.59
733.12	0.58
733.298	0.62
733.477	0.69
733.656	0.49
733.835	0.56
734.014	0.71
734.193	0.55
734.371	0.69
734.55	0.63
734.729	0.52
734.908	0.67
735.086	0.5
735.265	0.71
735.444	0.47
735.623	0.56
735.801	0.54
735.98	0.59
736.159	0.56
736.337	0.73
736.516	0.61
736.694	0.62
736.873	0.54
737.052	0.66
737.23	0.64
737.409	0.54
737.587	0.84
737.766	0.42
737.944	0.53
738.123	0.78
738.301	0.59
738.479	0.53
738.658	0.72
738.836	0.39
739.015	0.62
739.193	0.67
739.371	0.52
739.55	0.56
739.728	0.39
739.906	0.61
740.085	0.64
740.263	0.62
740.441	0.39
740.62	0.77
740.798	0.6
740.976	0.41
741.154	0.59
741.332	0.66
741.511	0.55
741.689	0.59
741.867	0.52
742.045	0.47
742.223	0.47
742.401	0.43
742.579	0.46
742.757	0.57
742.935	0.41
743.114	0.56
743.292	0.54
743.47	0.49
743.648	0.44
743.826	0.68
744.004	0.58
744.181	0.52
744.359	0.47
744.537	0.51
744.715	0.52
744.893	0.53
745.071	0.46
745.249	0.42
745.427	0.41
745.605	0.51
745.782	0.47
745.96	0.53
746.138	0.47
746.316	0.55
746.493	0.43
746.671	0.47
746.849	0.46
747.027	0.51
747.204	0.38
747.382	0.47
747.56	0.39
747.737	0.55
747.915	0.47
748.093	0.62
748.27	0.41
748.448	0.29
748.625	0.36
748.803	0.43
748.98	0.43
749.158	0.51
749.335	0.49
749.513	0.32
749.69	0.46
749.868	0.41
750.045	0.39
750.223	0.38
750.4	0.38
750.578	0.56
750.755	0.37
750.932	0.32
751.11	0.57
751.287	0.35
751.464	0.52
751.642	0.38
751.819	0.44
751.996	0.38
752.173	0.34
752.351	0.29
752.528	0.48
752.705	0.36
752.882	0.39
753.06	0.52
753.237	0.46
753.414	0.61
753.591	0.53
753.768	0.34
753.945	0.32
754.122	0.35
754.299	0.5
754.476	0.33
754.654	0.44
754.831	0.45
755.008	0.39
755.185	0.43
755.362	0.36
755.539	0.44
755.716	0.49
755.892	0.49
756.069	0.37
756.246	0.35
756.423	0.35
756.6	0.56
756.777	0.39
756.954	0.41
757.131	0.46
757.307	0.31
757.484	0.34
757.661	0.43
757.838	0.47
758.015	0.25
758.191	0.47
758.368	0.33
758.545	0.49
758.721	0.52
758.898	0.27
759.075	0.46
759.251	0.38
759.428	0.46
759.605	0.26
759.781	0.31
759.958	0.54
760.134	0.4
760.311	0.39
760.488	0.44
760.664	0.41
760.841	0.48
761.017	0.34
761.194	0.44
761.37	0.39
761.547	0.36
761.723	0.38
761.899	0.43
762.076	0.28
762.252	0.39
762.429	0.24
762.605	0.33
762.781	0.44
762.958	0.4
763.134	0.34
763.31	0.3
763.486	0.41
763.663	0.21
763.839	0.42
764.015	0.22
764.191	0.26
764.368	0.28
764.544	0.29
764.72	0.35
764.896	0.38
765.072	0.46
765.248	0.41
765.425	0.44
765.601	0.31
765.777	0.46
765.953	0.18
766.129	0.34
766.305	0.28
766.481	0.44
766.657	0.43
766.833	0.53
767.009	0.25
767.185	0.27
767.361	0.41
767.537	0.28
767.713	0.37
767.889	0.34
768.065	0.36
768.24	0.5
768.416	0.5
768.592	0.38
768.768	0.29
768.944	0.37
769.12	0.12
769.295	0.41
769.471	0.38
769.647	0.22
769.823	0.53
769.998	0.37
770.174	0.31
770.35	0.55
770.525	0.6
770.701	0.47
770.877	0.41
771.052	0.31
771.228	0.47
771.403	0.39
771.579	0.45
771.755	0.63
771.93	0.35
772.106	0.21
772.281	0.25
772.457	0.42
772.632	0.44
772.808	0.19
772.983	0.25
773.159	0.08
773.334	0.53
773.509	0.34
773.685	0.28
773.86	0.58
774.036	0.57
774.211	0.45
774.386	0.29
774.562	0.39
774.737	0.44
774.912	0.33
775.087	0.5
775.263	0.36
775.438	0.31
775.613	0.16
775.788	0.45
775.964	0.5
776.139	0.56
776.314	0.23
776.489	0.46
776.664	0.48
776.839	0.44
777.014	0.42
777.19	0.46
777.365	0.52
777.54	0.72
777.715	0.31
777.89	0.43
778.065	0.32
778.24	0.3
778.415	0.62
778.59	0.17
778.765	0.39
778.94	0.4
779.115	0.25
779.289	0.35
779.464	0.4
779.639	0.35
779.814	0.21
779.989	0.37
780.164	0.57
780.339	0.6
780.513	0.25
780.688	0.22
780.863	0.44
781.038	0.61
781.212	0.19
781.387	0.33
781.562	0.6
781.737	0.4
781.911	0.51
782.086	0.4
782.261	0.5
782.435	0.53
782.61	0.35
782.784	0.24
782.959	0.58
783.134	0.41
783.308	0.33
783.483	0.44
783.657	0.77
783.832	0.39
784.006	0.29
784.181	0.63
784.355	0.54
784.53	0.31
784.704	0.45
784.878	0.82
785.053	0.57
785.227	0.55
785.402	0.97
785.576	0.35
785.75	0.49
785.925	0.43
786.099	0.49
786.273	0.67
786.448	0.49
786.622	0.57
786.796	0.37
786.97	0.41
787.145	0.88
787.319	0.39
787.493	0.46
787.667	0.26
787.841	0.4
788.015	0.56
788.19	0.43
788.364	0.57
788.538	0.44
788.712	0.66
788.886	0.38
789.06	0.61
789.234	0.6
789.408	0.12
789.582	0.35
789.756	0.52
789.93	0.27
790.104	0.36
790.278	0.22
790.452	0.48
790.626	0.51
790.8	0.47
790.973	0.55
791.147	0.71
791.321	0.72
791.495	0.52
791.669	0.54
791.843	0.53
792.016	0.32
792.19	0.67
792.364	0.17
792.538	0.88
792.711	0.75
792.885	0.41
793.059	0.2
793.233	-0.01
793.406	0.58
793.58	0.59
793.754	0.28
793.927	0.45
794.101	0.6
794.274	0.57
794.448	0.59
794.622	0.47
794.795	0.78
794.969	0.5
795.142	0.74
795.316	0.36
795.489	0.37
795.663	0.86
795.836	0.54
796.009	0.4
796.183	0.78
796.356	0.62
796.53	0.54
796.703	0.4
796.876	1.08
797.05	0.47
797.223	0.58
797.396	0.84
797.57	0.53
797.743	0.59
797.916	0.74
798.09	0.55
798.263	0.65
798.436	0.36
798.609	0.38
798.782	0.54
798.956	0.53
799.129	0.55
799.302	0.7
799.475	0.59
799.648	0.19
799.821	0.42
799.994	0.84
800.167	0.2
800.34	0.34
800.514	0.43
800.687	0.61
800.86	0.49
801.033	0.4
801.206	0.53
801.379	0.13
801.551	0.68
801.724	0.76
801.897	0.47
802.07	0.28
802.243	0.07
802.416	0.73
802.589	0.08
802.762	0.42
802.935	0.46
803.107	0.95
803.28	0.77
803.453	0.93
803.626	0.13
803.798	0.33
803.971	0.11
804.144	0.51
804.317	0.88
804.489	0.63
804.662	0.17
804.835	0.52
805.007	0.44
805.18	0.73
805.353	0.69
805.525	0.29
805.698	0.18
805.87	0.72
806.043	0.85
806.215	0.48
806.388	0.35
806.56	0.54
806.733	0.79
806.905	0.7
807.078	0.55
807.25	0.11
807.423	0.52
807.595	0.37
807.768	0.78
807.94	0.7
808.112	0.55
808.285	0.9
808.457	0.62
808.629	0.67
808.802	0.55
808.974	0.46
809.146	0.66
809.318	0.29
809.491	0.67
809.663	0.67
809.835	0.36
810.007	0.72
810.18	0.95
810.352	0.47
810.524	0.53
810.696	0.43
810.868	0.93
811.04	0.77
811.212	0.71
811.384	0.71
811.556	0.6
811.728	0.84
811.901	0.75
812.073	0.13
812.245	0.78
812.417	0.51
812.589	-0.11
812.76	0.74
812.932	0.39
813.104	1
813.276	0.58
813.448	0.8
813.62	0.22
813.792	0.91
813.964	0.59
814.136	0.78
814.307	0.01
814.479	0.76
814.651	0.82
814.823	1.4
814.995	1.04
815.166	0.87
815.338	0.63
815.51	0.5
815.681	0.97
815.853	0.37
816.025	0.33
816.196	1.3
816.368	0.76
816.54	0.57
816.711	0.66
816.883	0.82
817.054	1.24
817.226	0.42
817.398	1.26
817.569	0.63
817.741	1.02
817.912	0.87
818.084	0.58
818.255	0.63
818.426	0.58
818.598	1.08
818.769	0.62
818.941	0.85
819.112	1.14
819.283	0.77
819.455	0.1
819.626	0.76
819.798	0.66
819.969	0.55
820.14	0.72
820.311	0.68
820.483	0.86
820.654	0.89
820.825	0.87
820.996	-0.01
821.168	0.53
821.339	0.52
821.51	0.34
821.681	0.17
821.852	0.77
822.023	0.3
822.195	0.29
822.366	0.78
822.537	0.85
822.708	0.4
822.879	0.6
823.05	1.55
823.221	0.72
823.392	1.69
823.563	0.85
823.734	0.78
823.905	0.62
824.076	0.48
824.247	0.77
824.418	0.43
824.589	0.93
824.759	1.05
824.93	0.56
825.101	0.52
825.272	0.98
825.443	1.54
825.614	1.17
825.784	-0.54
825.955	1.3
826.126	1.19
826.297	1.34
826.467	1.45
826.638	1.36
826.809	-0.18
826.98	0.93
827.15	1.07
827.321	1.05
827.492	1.5
827.662	1.06
827.833	1.33
828.003	1.21
828.174	0.83
828.345	0.39
828.515	1.06
828.686	0.88
828.856	0.42
829.027	0.62
829.197	0.69
829.368	1.21
829.538	0.77
829.709	1.09
829.879	0.85
830.049	0.75
830.22	-0.19
830.39	0.96
830.56	1.22
830.731	0.81
830.901	0.12
831.072	1.13
831.242	0.96
831.412	1.11
831.582	0.95
831.753	0.22
831.923	1.22
832.093	0.64
832.263	1.01
832.434	0.71
832.604	0.72
832.774	0.35
832.944	1.09
833.114	0.8
833.284	0.64
833.454	0.24
833.624	1.3
833.795	0.84
833.965	1.65
834.135	1.32
834.305	0.3
834.475	0.61
834.645	0.53
834.815	0.3
834.985	0.47
835.155	0.67
835.325	1.2
835.494	0.91
835.664	0.37
835.834	0.1
836.004	2
836.174	1.47
836.344	0.64
836.514	0.42
836.684	0.55
836.853	0.7
837.023	0.59
837.193	0.85
837.363	0.97
837.532	1.79
837.702	0.9
837.872	0.6
838.041	1.09
838.211	2.07
838.381	0.58
838.55	0.7
838.72	3.04
838.89	2.11
839.059	1.2
839.229	0.66
839.398	1.53
839.568	0.97
839.738	1.61
839.907	1.6
840.077	1.46
840.246	0.66
840.416	0.7
840.585	0.31
840.755	2.08
840.924	1.51
841.093	0.55
841.263	0.66
841.432	1.92
841.602	1.03
841.771	0.34
841.94	1.22
842.11	2.31
842.279	2.73
842.448	0.08
842.617	0.35
842.787	1.89
842.956	0.23
843.125	2.12
843.294	1.53
843.464	1.33
843.633	1
843.802	0.75
843.971	0.92
844.14	1.65
844.309	1.74
844.479	0.62
844.648	0.38
844.817	0.43
844.986	0.8
845.155	0.42
845.324	1.2
845.493	0.95
845.662	0.94
845.831	1.59
846	1.5
846.169	1.19
846.338	1.61
846.507	1.22
846.676	1.44
846.844	0.47
847.013	1.28
847.182	0.79
847.351	1.05
847.52	1.55
847.689	1.06
847.858	1.3
848.026	0.71
848.195	0.17
848.364	1.09
848.533	0.83
848.701	1.13
848.87	1.77
849.039	1.18
849.207	1.96
849.376	1.85
849.545	1.46
849.713	0.59
849.882	0.67
850.051	1.5
850.219	1.9
850.388	2.26
850.556	0.89
850.725	0.8
850.893	1.09
851.062	0.73
851.23	2.55
851.399	0.36
851.567	1.08
851.736	1.9
851.904	0.14
852.073	1.4
852.241	2.04
852.41	0.61
852.578	1.18
852.746	0.68
852.915	1.2
853.083	1.64
853.251	0.77
853.42	1.08
853.588	1.59
853.756	2.92
853.924	1.11
854.093	1.37
854.261	1.45
854.429	0.13
854.597	1.99
854.765	1.33
854.934	1.63
855.102	1.88
855.27	1.72
855.438	2.9
855.606	1.21
855.774	2.61
855.942	0.45
856.11	1.52
856.278	2.34
856.446	2.57
856.614	2.55
856.782	1.5
856.95	2.99
857.118	1.92
857.286	1.99
857.454	0.38
857.622	2.89
857.79	2.41
857.958	-0.28
858.126	1.79
858.294	1.64
858.462	0.77
858.629	1.95
858.797	1.43
858.965	1.77
859.133	0.15
859.301	0.74
859.468	1.83
859.636	-0.02
859.804	2.33
859.971	2.16
860.139	0.86
860.307	2.2
860.474	1.93
860.642	0.41
860.81	1.1
860.977	0.77
861.145	1.69
861.313	2.5
861.48	1.82
861.648	2.09
861.815	2.53
861.983	0.82
862.15	1.81
862.318	2.29
862.485	2.79
862.653	1.05
862.82	2.43
862.988	3.24
863.155	2.18
863.322	0.71
863.49	0.35
863.657	2.29
863.824	3.64
863.992	3.85
864.159	2.17
864.326	2.88
864.494	1.53
864.661	2.89
864.828	0.01
864.996	1.01
865.163	3.67
865.33	1.52
865.497	1.26
865.664	1.54
865.832	-1.23
865.999	1.36
866.166	0.8
866.333	1.25
866.5	0.9
866.667	1.79
866.834	0.46
867.001	2.1
867.168	1.67
867.335	1.82
867.502	0.47
867.669	1.32
867.836	3.13
868.003	1.73
868.17	3.6
868.337	1.23
868.504	2.09
868.671	0.92
868.838	0.38
869.005	1.92
869.172	2.09
869.339	0.3
869.505	3.18
869.672	1.44
869.839	2.85
870.006	3.01
870.173	-1.31
870.339	3.52
870.506	4.12
870.673	0.43
870.84	2.76
871.006	1.71
871.173	1.29
871.34	0.59
871.506	1.99
871.673	2.65
871.839	0.24
872.006	3.09
872.173	2.99
872.339	0.25
872.506	3.96
872.672	2.34
872.839	-0.55
873.005	2.23
873.172	4.57
873.338	3.75
873.505	3.55
873.671	1.43
873.838	3.9
874.004	2.86
874.171	2.19
874.337	3.25
874.503	2.03
874.67	1.77
874.836	1.31
875.002	3.46
875.169	2.22
875.335	3.84
875.501	1.54
875.668	3.79
875.834	1.75
876	3.17
876.166	3.22
876.332	4.25
876.499	4.84
876.665	-0.24
876.831	1.73
876.997	4.43
877.163	3.23
877.329	1.45
877.495	0.82
877.662	3.37
877.828	3.17
877.994	1.51
878.16	0.96
878.326	2.12
878.492	2.7
878.658	1.52
878.824	3.43
878.99	3.64
879.156	0.3
879.322	4.46
879.487	3.42
879.653	2.54
879.819	2.85
879.985	0.15
880.151	3.4
880.317	3.2
880.483	2.58
880.648	2.8
880.814	0.06
880.98	3.04
881.146	0.88
881.312	2.06
881.477	0.94
881.643	4
881.809	4.37
881.974	3.91
882.14	0.41
882.306	1.28
882.471	3.01
882.637	1.47
882.803	2.51
882.968	3.1
883.134	4.1
883.299	1.76
883.465	3.25
883.63	2.48
883.796	1.9
883.961	2.52
884.127	2.49
884.292	-1.15
884.458	0.89
884.623	0.88
