Data from Apollo_Calib_20240827__AbsoluteIrradiance__858__13-27-00-407.txt Node

Date: Wed Aug 28 13:27:00 BST 2024
User: biology
Spectrometer: FLMT08252
Trigger mode: 0
Integration Time (sec): 5.000000E-1
Scans to average: 5
Electric dark correction enabled: true
Nonlinearity correction enabled: false
Boxcar width: 0
XAxis mode: Wavelengths
Number of Pixels in Spectrum: 3648
>>>>>Begin Spectral Data<<<<<
179.588	-0
179.809	-0
180.03	-0
180.251	-0
180.473	-0
180.694	0
180.915	0
181.136	-0
181.357	0
181.578	-0
181.799	-0
182.02	-0
182.241	0
182.462	-0
182.683	0
182.904	-0
183.125	-0
183.346	0
183.567	0
183.788	0
184.009	0
184.23	0
184.451	0
184.672	0
184.892	0
185.113	0
185.334	0
185.555	0
185.776	0
185.996	0
186.217	0
186.438	0
186.659	0
186.879	0
187.1	0
187.321	0
187.541	0
187.762	0
187.983	0
188.203	0
188.424	0
188.644	0
188.865	0
189.086	0
189.306	0
189.527	0
189.747	0
189.968	0
190.188	0
190.409	0
190.629	0
190.849	0
191.07	0
191.29	0
191.511	0
191.731	0
191.951	0
192.172	0
192.392	0
192.612	0
192.833	0
193.053	0
193.273	0
193.493	0
193.714	0
193.934	0
194.154	0
194.374	0
194.594	0
194.815	0
195.035	0
195.255	0
195.475	0
195.695	0
195.915	0
196.135	0
196.355	0
196.575	0
196.795	0
197.015	0
197.235	0
197.455	0
197.675	0
197.895	0
198.115	0
198.335	0
198.555	0
198.775	0
198.995	0
199.214	0
199.434	0
199.654	0
199.874	0
200.094	4.29
200.313	2.57
200.533	1.94
200.753	1.7
200.973	4.38
201.192	3.64
201.412	2.05
201.632	1.77
201.851	3.22
202.071	1.73
202.291	1.59
202.51	1.72
202.73	3.22
202.95	1.86
203.169	1.32
203.389	1.72
203.608	2.26
203.828	2.03
204.047	1.18
204.267	2.32
204.486	2.24
204.706	2.1
204.925	1.87
205.145	1.37
205.364	2.67
205.583	2.83
205.803	1.54
206.022	1.55
206.242	1.78
206.461	1.62
206.68	1.16
206.9	1.84
207.119	2.44
207.338	2.41
207.557	1.49
207.777	1.11
207.996	1.56
208.215	2.64
208.434	1.04
208.654	1.12
208.873	1.64
209.092	2.41
209.311	1.24
209.53	1.46
209.749	1.31
209.968	0.96
210.187	1.16
210.407	0.84
210.626	1.29
210.845	1.79
211.064	1.24
211.283	1.03
211.502	1.76
211.721	1.28
211.94	1.1
212.159	1.36
212.377	1.48
212.596	1.44
212.815	1.27
213.034	1.29
213.253	1.39
213.472	1.49
213.691	1.29
213.91	0.91
214.128	0.83
214.347	1.45
214.566	0.65
214.785	0.64
215.003	1.27
215.222	1.09
215.441	0.97
215.66	0.43
215.878	1.06
216.097	1.33
216.316	0.68
216.534	0.72
216.753	1.15
216.972	0.77
217.19	0.92
217.409	0.62
217.627	0.94
217.846	0.86
218.064	1
218.283	0.69
218.501	1.56
218.72	1.28
218.938	0.56
219.157	0.81
219.375	1.18
219.594	1.23
219.812	0.5
220.031	0.75
220.249	1.34
220.467	1.35
220.686	0.68
220.904	0.69
221.122	0.69
221.341	1.19
221.559	0.95
221.777	0.39
221.995	1.03
222.214	0.84
222.432	0.77
222.65	0.85
222.868	0.69
223.086	0.97
223.305	0.92
223.523	0.63
223.741	1.07
223.959	0.72
224.177	0.46
224.395	0.55
224.613	0.91
224.831	1.02
225.049	0.64
225.267	0.64
225.485	0.83
225.703	0.76
225.921	0.54
226.139	0.59
226.357	1.04
226.575	0.82
226.793	0.62
227.011	1.55
227.229	0.91
227.447	1.03
227.665	0.5
227.883	0.43
228.1	0.67
228.318	0.81
228.536	0.3
228.754	0.45
228.972	0.92
229.189	0.7
229.407	0.56
229.625	0.55
229.843	0.91
230.06	0.95
230.278	0.57
230.496	0.57
230.713	0.62
230.931	0.84
231.149	0.53
231.366	0.41
231.584	0.64
231.801	1.04
232.019	0.49
232.236	0.47
232.454	0.52
232.671	0.74
232.889	0.51
233.106	0.45
233.324	0.73
233.541	0.62
233.759	0.48
233.976	0.41
234.194	0.55
234.411	0.61
234.628	0.46
234.846	0.46
235.063	0.47
235.28	0.63
235.498	0.48
235.715	0.38
235.932	0.91
236.149	0.59
236.367	0.32
236.584	0.62
236.801	0.41
237.018	0.75
237.236	0.43
237.453	0.28
237.67	0.7
237.887	0.52
238.104	0.53
238.321	0.44
238.538	0.44
238.755	0.7
238.973	0.43
239.19	0.58
239.407	0.71
239.624	0.66
239.841	0.35
240.058	0.38
240.275	0.58
240.492	0.5
240.709	0.51
240.925	0.39
241.142	0.52
241.359	0.35
241.576	0.34
241.793	0.34
242.01	0.47
242.227	0.7
242.444	0.56
242.66	0.76
242.877	0.58
243.094	0.4
243.311	0.52
243.527	0.52
243.744	0.59
243.961	0.6
244.178	0.36
244.394	0.42
244.611	0.6
244.828	0.72
245.044	0.32
245.261	0.4
245.477	0.48
245.694	0.52
245.911	0.32
246.127	0.46
246.344	0.7
246.56	0.58
246.777	0.42
246.993	0.44
247.21	0.46
247.426	0.55
247.643	0.31
247.859	0.37
248.076	0.42
248.292	0.68
248.508	0.37
248.725	0.52
248.941	0.46
249.157	0.65
249.374	0.37
249.59	0.38
249.806	0.45
250.023	0.63
250.239	0.34
250.455	0.34
250.671	0.51
250.888	0.52
251.104	0.49
251.32	0.41
251.536	0.39
251.752	0.48
251.969	0.37
252.185	0.45
252.401	0.75
252.617	0.49
252.833	0.38
253.049	0.35
253.265	0.36
253.481	0.42
253.697	0.35
253.913	0.32
254.129	0.46
254.345	0.51
254.561	0.37
254.777	0.32
254.993	0.51
255.209	0.5
255.425	0.39
255.641	0.39
255.857	0.5
256.073	0.44
256.288	0.29
256.504	0.35
256.72	0.52
256.936	0.6
257.152	0.39
257.367	0.33
257.583	0.45
257.799	0.51
258.015	0.31
258.23	0.37
258.446	0.63
258.662	0.38
258.877	0.3
259.093	0.3
259.309	0.47
259.524	0.48
259.74	0.28
259.955	0.25
260.171	0.42
260.387	0.43
260.602	0.47
260.818	0.37
261.033	0.26
261.249	0.4
261.464	0.33
261.68	0.24
261.895	0.51
262.11	0.48
262.326	0.41
262.541	0.36
262.757	0.54
262.972	0.47
263.187	0.41
263.403	0.39
263.618	0.54
263.833	0.39
264.049	0.29
264.264	0.35
264.479	0.42
264.694	0.53
264.91	0.2
265.125	0.32
265.34	0.49
265.555	0.53
265.77	0.41
265.986	0.26
266.201	0.43
266.416	0.47
266.631	0.26
266.846	0.33
267.061	0.44
267.276	0.47
267.491	0.21
267.706	0.44
267.921	0.47
268.136	0.38
268.351	0.35
268.566	0.27
268.781	0.46
268.996	0.49
269.211	0.39
269.426	0.28
269.641	0.37
269.856	0.45
270.071	0.29
270.285	0.26
270.5	0.43
270.715	0.46
270.93	0.3
271.145	0.36
271.359	0.44
271.574	0.35
271.789	0.37
272.004	0.3
272.218	0.36
272.433	0.43
272.648	0.24
272.862	0.49
273.077	0.41
273.292	0.39
273.506	0.3
273.721	0.29
273.936	0.44
274.15	0.43
274.365	0.31
274.579	0.4
274.794	0.41
275.008	0.4
275.223	0.21
275.437	0.25
275.652	0.44
275.866	0.41
276.081	0.32
276.295	0.38
276.509	0.37
276.724	0.4
276.938	0.32
277.153	0.33
277.367	0.38
277.581	0.32
277.796	0.3
278.01	0.24
278.224	0.32
278.438	0.48
278.653	0.29
278.867	0.24
279.081	0.19
279.295	0.29
279.51	0.33
279.724	0.17
279.938	0.35
280.152	0.38
280.366	0.25
280.58	0.38
280.794	0.45
281.008	0.36
281.222	0.36
281.437	0.53
281.651	0.33
281.865	0.38
282.079	0.3
282.293	0.19
282.507	0.29
282.721	0.29
282.935	0.31
283.148	0.24
283.362	0.24
283.576	0.23
283.79	0.28
284.004	0.24
284.218	0.44
284.432	0.27
284.646	0.3
284.859	0.2
285.073	0.34
285.287	0.29
285.501	0.27
285.714	0.28
285.928	0.3
286.142	0.36
286.356	0.26
286.569	0.3
286.783	0.42
286.997	0.43
287.21	0.31
287.424	0.3
287.637	0.31
287.851	0.28
288.065	0.39
288.278	0.32
288.492	0.34
288.705	0.32
288.919	0.33
289.132	0.21
289.346	0.36
289.559	0.24
289.773	0.22
289.986	0.27
290.2	0.3
290.413	0.35
290.626	0.27
290.84	0.25
291.053	0.32
291.267	0.42
291.48	0.27
291.693	0.27
291.906	0.25
292.12	0.31
292.333	0.26
292.546	0.24
292.76	0.39
292.973	0.33
293.186	0.35
293.399	0.21
293.612	0.31
293.826	0.29
294.039	0.27
294.252	0.3
294.465	0.35
294.678	0.32
294.891	0.34
295.104	0.24
295.317	0.31
295.53	0.35
295.743	0.3
295.956	0.26
296.169	0.4
296.382	0.34
296.595	0.26
296.808	0.18
297.021	0.35
297.234	0.35
297.447	0.28
297.66	0.27
297.873	0.37
298.086	0.37
298.299	0.19
298.511	0.24
298.724	0.28
298.937	0.26
299.15	0.24
299.363	0.21
299.575	0.34
299.788	0.29
300.001	0.25
300.213	0.22
300.426	0.25
300.639	0.25
300.852	0.2
301.064	0.32
301.277	0.35
301.489	0.33
301.702	0.3
301.915	0.22
302.127	0.32
302.34	0.34
302.552	0.34
302.765	0.22
302.977	0.33
303.19	0.21
303.402	0.21
303.615	0.26
303.827	0.27
304.04	0.23
304.252	0.34
304.464	0.24
304.677	0.39
304.889	0.3
305.102	0.19
305.314	0.25
305.526	0.3
305.739	0.3
305.951	0.18
306.163	0.27
306.375	0.41
306.588	0.27
306.8	0.25
307.012	0.19
307.224	0.33
307.436	0.38
307.649	0.23
307.861	0.29
308.073	0.32
308.285	0.28
308.497	0.19
308.709	0.25
308.921	0.29
309.133	0.38
309.346	0.23
309.558	0.26
309.77	0.32
309.982	0.39
310.194	0.33
310.406	0.21
310.617	0.36
310.829	0.26
311.041	0.3
311.253	0.17
311.465	0.23
311.677	0.24
311.889	0.24
312.101	0.21
312.313	0.34
312.524	0.4
312.736	0.19
312.948	0.21
313.16	0.39
313.372	0.33
313.583	0.27
313.795	0.22
314.007	0.26
314.218	0.33
314.43	0.29
314.642	0.25
314.853	0.22
315.065	0.31
315.277	0.26
315.488	0.28
315.7	0.32
315.912	0.31
316.123	0.27
316.335	0.23
316.546	0.41
316.758	0.26
316.969	0.23
317.181	0.26
317.392	0.3
317.604	0.32
317.815	0.24
318.026	0.2
318.238	0.25
318.449	0.33
318.661	0.17
318.872	0.19
319.083	0.2
319.295	0.38
319.506	0.23
319.717	0.26
319.929	0.34
320.14	0.3
320.351	0.24
320.562	0.21
320.774	0.25
320.985	0.26
321.196	0.18
321.407	0.21
321.618	0.31
321.829	0.26
322.041	0.27
322.252	0.27
322.463	0.32
322.674	0.3
322.885	0.21
323.096	0.27
323.307	0.33
323.518	0.27
323.729	0.23
323.94	0.27
324.151	0.25
324.362	0.33
324.573	0.24
324.784	0.25
324.995	0.36
325.206	0.32
325.417	0.27
325.628	0.21
325.838	0.26
326.049	0.32
326.26	0.29
326.471	0.25
326.682	0.26
326.892	0.32
327.103	0.15
327.314	0.21
327.525	0.38
327.735	0.3
327.946	0.23
328.157	0.17
328.368	0.31
328.578	0.28
328.789	0.29
328.999	0.22
329.21	0.24
329.421	0.36
329.631	0.25
329.842	0.19
330.052	0.28
330.263	0.32
330.473	0.32
330.684	0.23
330.894	0.3
331.105	0.29
331.315	0.3
331.526	0.18
331.736	0.35
331.947	0.3
332.157	0.3
332.367	0.16
332.578	0.31
332.788	0.35
332.999	0.29
333.209	0.26
333.419	0.2
333.629	0.35
333.84	0.29
334.05	0.22
334.26	0.34
334.47	0.23
334.681	0.34
334.891	0.25
335.101	0.34
335.311	0.37
335.521	0.26
335.732	0.19
335.942	0.36
336.152	0.31
336.362	0.24
336.572	0.27
336.782	0.33
336.992	0.28
337.202	0.23
337.412	0.16
337.622	0.31
337.832	0.26
338.042	0.27
338.252	0.21
338.462	0.24
338.672	0.23
338.882	0.26
339.092	0.24
339.302	0.34
339.511	0.32
339.721	0.26
339.931	0.16
340.141	0.32
340.351	0.32
340.561	0.28
340.77	0.31
340.98	0.29
341.19	0.31
341.4	0.24
341.609	0.25
341.819	0.26
342.029	0.27
342.238	0.26
342.448	0.26
342.658	0.3
342.867	0.22
343.077	0.27
343.286	0.22
343.496	0.27
343.706	0.37
343.915	0.22
344.125	0.26
344.334	0.32
344.544	0.18
344.753	0.22
344.963	0.22
345.172	0.23
345.381	0.25
345.591	0.22
345.8	0.26
346.01	0.31
346.219	0.33
346.428	0.12
346.638	0.25
346.847	0.27
347.056	0.37
347.266	0.25
347.475	0.21
347.684	0.32
347.893	0.3
348.103	0.29
348.312	0.22
348.521	0.26
348.73	0.27
348.94	0.27
349.149	0.22
349.358	0.26
349.567	0.23
349.776	0.18
349.985	0.19
350.194	0.35
350.403	0.34
350.612	0.21
350.821	0.21
351.03	0.25
351.239	0.21
351.448	0.26
351.657	0.2
351.866	0.37
352.075	0.27
352.284	0.36
352.493	0.16
352.702	0.34
352.911	0.28
353.12	0.27
353.329	0.25
353.538	0.27
353.746	0.33
353.955	0.2
354.164	0.26
354.373	0.25
354.582	0.25
354.79	0.22
354.999	0.29
355.208	0.27
355.416	0.31
355.625	0.2
355.834	0.21
356.042	0.3
356.251	0.24
356.46	0.19
356.668	0.28
356.877	0.35
357.085	0.29
357.294	0.17
357.503	0.27
357.711	0.24
357.92	0.46
358.128	0.31
358.337	0.24
358.545	0.28
358.754	0.21
358.962	0.28
359.17	0.22
359.379	0.31
359.587	0.24
359.796	0.28
360.004	0.35
360.212	0.32
360.421	0.36
360.629	0.24
360.837	0.24
361.046	0.3
361.254	0.41
361.462	0.24
361.67	0.23
361.879	0.29
362.087	0.31
362.295	0.24
362.503	0.21
362.711	0.23
362.92	0.25
363.128	0.22
363.336	0.2
363.544	0.22
363.752	0.29
363.96	0.23
364.168	0.25
364.376	0.25
364.584	0.26
364.792	0.34
365	0.26
365.208	0.28
365.416	0.28
365.624	0.34
365.832	0.24
366.04	0.32
366.248	0.29
366.456	0.28
366.664	0.26
366.872	0.26
367.079	0.22
367.287	0.27
367.495	0.26
367.703	0.24
367.911	0.25
368.118	0.3
368.326	0.29
368.534	0.22
368.742	0.36
368.949	0.19
369.157	0.19
369.365	0.3
369.572	0.24
369.78	0.24
369.988	0.27
370.195	0.28
370.403	0.3
370.61	0.23
370.818	0.23
371.026	0.33
371.233	0.24
371.441	0.28
371.648	0.2
371.856	0.27
372.063	0.29
372.271	0.22
372.478	0.25
372.685	0.26
372.893	0.31
373.1	0.22
373.308	0.23
373.515	0.43
373.722	0.29
373.93	0.3
374.137	0.29
374.344	0.34
374.552	0.31
374.759	0.29
374.966	0.26
375.173	0.22
375.381	0.34
375.588	0.28
375.795	0.18
376.002	0.26
376.209	0.26
376.417	0.3
376.624	0.33
376.831	0.34
377.038	0.25
377.245	0.19
377.452	0.22
377.659	0.24
377.866	0.23
378.073	0.25
378.28	0.26
378.487	0.32
378.694	0.34
378.901	0.26
379.108	0.28
379.315	0.3
379.522	0.39
379.729	0.3
379.936	0.25
380.143	0.3
380.35	0.32
380.557	0.3
380.763	0.28
380.97	0.3
381.177	0.28
381.384	0.3
381.591	0.23
381.797	0.3
382.004	0.34
382.211	0.28
382.418	0.19
382.624	0.34
382.831	0.37
383.038	0.29
383.244	0.3
383.451	0.33
383.658	0.3
383.864	0.29
384.071	0.2
384.277	0.38
384.484	0.27
384.69	0.36
384.897	0.23
385.103	0.28
385.31	0.26
385.516	0.26
385.723	0.21
385.929	0.3
386.136	0.26
386.342	0.31
386.549	0.24
386.755	0.34
386.961	0.32
387.168	0.32
387.374	0.31
387.58	0.33
387.787	0.31
387.993	0.3
388.199	0.27
388.406	0.23
388.612	0.26
388.818	0.24
389.024	0.26
389.231	0.35
389.437	0.42
389.643	0.33
389.849	0.35
390.055	0.37
390.261	0.32
390.467	0.34
390.674	0.28
390.88	0.3
391.086	0.35
391.292	0.26
391.498	0.34
391.704	0.35
391.91	0.29
392.116	0.35
392.322	0.22
392.528	0.35
392.734	0.31
392.94	0.31
393.146	0.29
393.352	0.34
393.557	0.32
393.763	0.31
393.969	0.4
394.175	0.28
394.381	0.31
394.587	0.25
394.792	0.3
394.998	0.4
395.204	0.36
395.41	0.27
395.615	0.3
395.821	0.37
396.027	0.37
396.233	0.3
396.438	0.39
396.644	0.37
396.85	0.32
397.055	0.35
397.261	0.36
397.466	0.43
397.672	0.41
397.878	0.4
398.083	0.37
398.289	0.31
398.494	0.39
398.7	0.42
398.905	0.25
399.111	0.47
399.316	0.27
399.522	0.33
399.727	0.34
399.932	0.34
400.138	0.36
400.343	0.37
400.549	0.33
400.754	0.37
400.959	0.39
401.165	0.34
401.37	0.41
401.575	0.49
401.78	0.4
401.986	0.35
402.191	0.34
402.396	0.4
402.601	0.42
402.807	0.42
403.012	0.41
403.217	0.44
403.422	0.45
403.627	0.45
403.832	0.39
404.037	0.5
404.243	0.46
404.448	0.4
404.653	0.41
404.858	0.47
405.063	0.5
405.268	0.42
405.473	0.41
405.678	0.41
405.883	0.68
406.088	0.56
406.293	0.42
406.498	0.47
406.703	0.53
406.907	0.5
407.112	0.45
407.317	0.52
407.522	0.61
407.727	0.48
407.932	0.54
408.136	0.66
408.341	0.57
408.546	0.53
408.751	0.57
408.956	0.57
409.16	0.7
409.365	0.57
409.57	0.62
409.774	0.66
409.979	0.72
410.184	0.7
410.388	0.68
410.593	0.77
410.798	0.74
411.002	0.76
411.207	0.81
411.411	0.79
411.616	0.73
411.82	0.81
412.025	0.85
412.229	0.79
412.434	0.91
412.638	0.93
412.843	0.88
413.047	0.96
413.252	0.91
413.456	1.03
413.66	1.1
413.865	1.12
414.069	1.17
414.273	1.13
414.478	1.1
414.682	1.16
414.886	1.2
415.091	1.17
415.295	1.26
415.499	1.4
415.703	1.4
415.908	1.46
416.112	1.4
416.316	1.56
416.52	1.57
416.724	1.48
416.929	1.52
417.133	1.82
417.337	1.73
417.541	1.82
417.745	1.84
417.949	2.01
418.153	1.91
418.357	2.02
418.561	2.19
418.765	2.12
418.969	2.31
419.173	2.44
419.377	2.35
419.581	2.66
419.785	2.57
419.989	2.56
420.193	2.73
420.397	2.79
420.601	3
420.804	3.08
421.008	3.01
421.212	3.23
421.416	3.22
421.62	3.22
421.823	3.24
422.027	3.39
422.231	3.39
422.435	3.43
422.638	3.5
422.842	3.62
423.046	3.62
423.249	3.83
423.453	3.82
423.657	4.07
423.86	3.98
424.064	4.22
424.268	4.38
424.471	4.43
424.675	4.6
424.878	4.72
425.082	4.77
425.285	5.07
425.489	5.01
425.692	5.1
425.896	5.06
426.099	5.37
426.303	5.43
426.506	5.55
426.71	5.87
426.913	6.1
427.116	6.19
427.32	6.15
427.523	6.27
427.726	6.61
427.93	6.62
428.133	6.9
428.336	6.99
428.54	7.25
428.743	7.53
428.946	7.62
429.149	7.72
429.353	7.69
429.556	7.91
429.759	7.96
429.962	8.08
430.165	8.23
430.368	7.82
430.571	7.87
430.775	7.98
430.978	7.88
431.181	7.99
431.384	8.04
431.587	8.2
431.79	8.61
431.993	8.5
432.196	8.77
432.399	9.21
432.602	9.22
432.805	9.32
433.008	9.96
433.211	9.79
433.414	10.07
433.616	10.29
433.819	10.2
434.022	10.47
434.225	10.47
434.428	10.47
434.631	10.96
434.833	10.58
435.036	10.96
435.239	11.19
435.442	11.17
435.645	11.37
435.847	11.53
436.05	11.78
436.253	12.03
436.455	11.85
436.658	11.95
436.861	12.3
437.063	12.4
437.266	12.4
437.468	12.6
437.671	13.02
437.874	12.92
438.076	12.91
438.279	13.18
438.481	13.28
438.684	14.08
438.886	13.68
439.089	13.85
439.291	14.07
439.494	14.36
439.696	14.43
439.899	15.02
440.101	15.5
440.303	15.66
440.506	16.3
440.708	16.13
440.91	16.26
441.113	16.63
441.315	16.82
441.517	16.62
441.72	17.19
441.922	16.65
442.124	16.68
442.326	17.05
442.529	17.27
442.731	17.18
442.933	17.48
443.135	17.37
443.337	17.37
443.539	17.76
443.742	17.41
443.944	18.2
444.146	17.97
444.348	17.89
444.55	17.88
444.752	17.88
444.954	17.99
445.156	17.88
445.358	18.34
445.56	18.55
445.762	18.26
445.964	18.63
446.166	18.47
446.368	18.46
446.57	18.49
446.772	18.16
446.974	17.92
447.175	18.22
447.377	17.92
447.579	18.34
447.781	17.92
447.983	17.73
448.184	17.33
448.386	17.78
448.588	17.17
448.79	17.21
448.991	17.7
449.193	17.56
449.395	16.86
449.597	16.4
449.798	16.38
450	16.06
450.202	15.75
450.403	15.94
450.605	15.84
450.806	15.44
451.008	15.4
451.21	15.15
451.411	14.64
451.613	13.91
451.814	14.26
452.016	14.18
452.217	13.46
452.419	13.4
452.62	13.12
452.821	12.76
453.023	12.73
453.224	12.37
453.426	11.93
453.627	11.22
453.828	11.33
454.03	11.4
454.231	11.47
454.432	11.19
454.634	11.05
454.835	10.71
455.036	10.57
455.238	10.14
455.439	10.1
455.64	9.81
455.841	9.54
456.042	9.74
456.244	9.37
456.445	8.97
456.646	8.7
456.847	8.73
457.048	8.58
457.249	8.6
457.45	8.47
457.651	7.81
457.852	7.7
458.054	7.44
458.255	7.34
458.456	7.48
458.657	7.36
458.858	6.78
459.058	6.75
459.259	6.89
459.46	6.6
459.661	6.57
459.862	6.61
460.063	6.41
460.264	6.38
460.465	6.01
460.666	6.19
460.866	5.76
461.067	5.6
461.268	5.61
461.469	5.59
461.67	5.53
461.87	5.32
462.071	5.28
462.272	5.14
462.473	5.22
462.673	5.33
462.874	5.31
463.075	5.23
463.275	5.22
463.476	5.34
463.676	5.23
463.877	5.08
464.078	5.07
464.278	5.11
464.479	4.92
464.679	4.91
464.88	4.76
465.08	4.76
465.281	4.52
465.481	4.4
465.682	4.2
465.882	4.29
466.083	4.23
466.283	4.14
466.483	3.95
466.684	3.8
466.884	3.69
467.085	3.78
467.285	3.88
467.485	3.64
467.686	3.61
467.886	3.55
468.086	3.43
468.286	3.47
468.487	3.53
468.687	3.34
468.887	3.32
469.087	3.46
469.287	3.34
469.488	3.1
469.688	3.33
469.888	3.25
470.088	3.2
470.288	3.14
470.488	3.09
470.688	2.91
470.888	2.93
471.088	2.72
471.288	2.91
471.488	2.85
471.688	2.77
471.888	2.68
472.088	2.91
472.288	2.84
472.488	2.74
472.688	2.59
472.888	2.66
473.088	2.62
473.288	2.52
473.488	2.54
473.688	2.61
473.887	2.53
474.087	2.49
474.287	2.5
474.487	2.46
474.687	2.45
474.886	2.38
475.086	2.36
475.286	2.44
475.486	2.42
475.685	2.31
475.885	2.23
476.085	2.31
476.284	2.29
476.484	2.32
476.684	2.25
476.883	2.32
477.083	2.27
477.282	2.24
477.482	2.28
477.681	2.18
477.881	2.11
478.08	2.1
478.28	2.06
478.479	2.12
478.679	2.2
478.878	2.06
479.078	2.02
479.277	2.11
479.477	2.08
479.676	2.05
479.875	2.05
480.075	1.98
480.274	2.08
480.473	2.12
480.673	2.01
480.872	2.15
481.071	2.1
481.271	2.14
481.47	2.03
481.669	2.04
481.868	2.03
482.067	2.03
482.267	1.94
482.466	1.98
482.665	1.96
482.864	1.96
483.063	1.96
483.262	2.03
483.461	2.09
483.661	2.04
483.86	2.05
484.059	2.06
484.258	2.1
484.457	2.04
484.656	2.06
484.855	2.15
485.054	1.95
485.253	1.99
485.452	2.01
485.651	2.1
485.849	2.03
486.048	2.05
486.247	2.1
486.446	2.14
486.645	2.04
486.844	2.09
487.043	2.07
487.241	2.12
487.44	2.1
487.639	2.15
487.838	2.13
488.037	2.13
488.235	2.24
488.434	2.2
488.633	2.05
488.831	2.27
489.03	2.25
489.229	2.28
489.427	2.24
489.626	2.27
489.825	2.32
490.023	2.33
490.222	2.31
490.42	2.35
490.619	2.41
490.817	2.41
491.016	2.36
491.214	2.46
491.413	2.41
491.611	2.39
491.81	2.41
492.008	2.49
492.207	2.55
492.405	2.52
492.604	2.53
492.802	2.57
493	2.6
493.199	2.67
493.397	2.65
493.595	2.73
493.794	2.65
493.992	2.78
494.19	2.73
494.388	2.84
494.587	2.74
494.785	2.8
494.983	2.74
495.181	2.85
495.379	2.91
495.578	2.96
495.776	2.95
495.974	2.94
496.172	2.93
496.37	3.07
496.568	3.11
496.766	3.11
496.964	3.23
497.162	3.21
497.36	3.19
497.558	3.24
497.756	3.32
497.954	3.28
498.152	3.39
498.35	3.47
498.548	3.36
498.746	3.42
498.944	3.43
499.142	3.43
499.34	3.55
499.538	3.61
499.736	3.52
499.933	3.68
500.131	3.6
500.329	3.78
500.527	3.74
500.725	3.9
500.922	3.89
501.12	3.84
501.318	3.98
501.516	3.93
501.713	4.01
501.911	3.99
502.109	3.95
502.306	4.11
502.504	4.02
502.701	4.12
502.899	4.19
503.097	4.35
503.294	4.22
503.492	4.34
503.689	4.36
503.887	4.38
504.084	4.49
504.282	4.42
504.479	4.39
504.677	4.61
504.874	4.53
505.072	4.43
505.269	4.71
505.466	4.69
505.664	4.74
505.861	4.71
506.059	4.75
506.256	4.79
506.453	4.85
506.651	4.94
506.848	4.99
507.045	4.97
507.242	4.99
507.44	4.98
507.637	5.13
507.834	5.06
508.031	5.25
508.229	5.09
508.426	5.09
508.623	5.28
508.82	5.3
509.017	5.27
509.214	5.29
509.411	5.43
509.608	5.31
509.805	5.5
510.003	5.45
510.2	5.47
510.397	5.7
510.594	5.53
510.791	5.66
510.988	5.64
511.184	5.61
511.381	5.48
511.578	5.61
511.775	5.82
511.972	5.7
512.169	5.82
512.366	5.84
512.563	5.97
512.76	5.99
512.956	5.94
513.153	5.91
513.35	5.92
513.547	5.88
513.744	5.99
513.94	6.04
514.137	6.13
514.334	6.08
514.53	6.14
514.727	6.41
514.924	6.26
515.12	6.2
515.317	6.21
515.514	6.22
515.71	6.18
515.907	6.45
516.103	6.43
516.3	6.31
516.497	6.48
516.693	6.44
516.89	6.47
517.086	6.44
517.283	6.52
517.479	6.42
517.676	6.55
517.872	6.62
518.068	6.58
518.265	6.59
518.461	6.57
518.658	6.7
518.854	6.71
519.05	6.81
519.247	6.87
519.443	6.76
519.639	6.87
519.836	6.8
520.032	6.72
520.228	6.87
520.424	6.8
520.621	6.92
520.817	6.97
521.013	6.86
521.209	7.09
521.405	7.11
521.601	7.01
521.798	7.01
521.994	7.04
522.19	6.95
522.386	7
522.582	7.12
522.778	7.2
522.974	7.09
523.17	7.13
523.366	7.04
523.562	7.16
523.758	7.22
523.954	7.04
524.15	7.29
524.346	7.26
524.542	7.28
524.738	7.2
524.934	7.37
525.129	7.29
525.325	7.27
525.521	7.27
525.717	7.45
525.913	7.32
526.109	7.33
526.304	7.41
526.5	7.38
526.696	7.51
526.892	7.34
527.087	7.61
527.283	7.47
527.479	7.44
527.674	7.29
527.87	7.49
528.066	7.48
528.261	7.51
528.457	7.39
528.653	7.61
528.848	7.6
529.044	7.65
529.239	7.53
529.435	7.57
529.63	7.46
529.826	7.54
530.021	7.54
530.217	7.62
530.412	7.56
530.608	7.67
530.803	7.64
530.999	7.53
531.194	7.65
531.389	7.69
531.585	7.68
531.78	7.82
531.975	7.7
532.171	7.76
532.366	7.75
532.561	7.75
532.757	7.7
532.952	7.86
533.147	7.63
533.342	7.79
533.538	7.7
533.733	7.93
533.928	7.55
534.123	7.77
534.318	7.84
534.513	7.74
534.709	7.87
534.904	7.84
535.099	7.89
535.294	7.92
535.489	7.87
535.684	7.8
535.879	7.85
536.074	7.86
536.269	7.89
536.464	7.9
536.659	7.92
536.854	7.84
537.049	7.94
537.244	7.86
537.439	7.89
537.634	8
537.828	7.94
538.023	7.98
538.218	7.94
538.413	7.83
538.608	7.91
538.803	7.95
538.997	7.89
539.192	7.97
539.387	7.86
539.582	7.88
539.776	7.86
539.971	7.93
540.166	8.07
540.36	7.89
540.555	8.08
540.75	7.99
540.944	8.01
541.139	7.97
541.334	8.01
541.528	8.02
541.723	8.09
541.917	8.12
542.112	7.96
542.306	7.83
542.501	7.92
542.695	7.93
542.89	7.96
543.084	7.98
543.279	8.03
543.473	8.04
543.668	8.09
543.862	7.91
544.056	7.91
544.251	8.04
544.445	8.1
544.64	8.12
544.834	7.84
545.028	7.72
545.222	8.03
545.417	8.23
545.611	8.18
545.805	8.04
546	7.88
546.194	8.13
546.388	8.09
546.582	8.04
546.776	8.04
546.97	8.1
547.165	8.06
547.359	8.02
547.553	7.93
547.747	7.99
547.941	8.22
548.135	8.09
548.329	8.07
548.523	8.14
548.717	7.97
548.911	8.03
549.105	7.98
549.299	8.15
549.493	8.12
549.687	8.08
549.881	8.17
550.075	8.03
550.269	7.98
550.463	8.11
550.657	8.05
550.85	8.08
551.044	8.1
551.238	8.17
551.432	8.08
551.626	8.14
551.82	8.12
552.013	7.95
552.207	8.16
552.401	8.13
552.594	8.07
552.788	8.02
552.982	8.05
553.176	7.97
553.369	8.24
553.563	8.13
553.756	8.05
553.95	8.16
554.144	8.18
554.337	8.18
554.531	7.94
554.724	8.11
554.918	8.2
555.111	8.13
555.305	8.13
555.498	8.04
555.692	8.18
555.885	8.1
556.079	8.06
556.272	8.03
556.466	8.09
556.659	8.04
556.852	8.14
557.046	7.98
557.239	7.97
557.432	8.07
557.626	8.12
557.819	8.17
558.012	8.2
558.206	8.23
558.399	8.17
558.592	8.08
558.785	8.03
558.979	8.04
559.172	8.11
559.365	8.11
559.558	8.09
559.751	8.05
559.944	8.21
560.138	8.12
560.331	8.11
560.524	8.13
560.717	8.08
560.91	8.13
561.103	8.11
561.296	7.94
561.489	8.16
561.682	8.14
561.875	8.19
562.068	8.28
562.261	8.02
562.454	8.23
562.647	8.09
562.84	8.15
563.032	8.17
563.225	7.99
563.418	8.06
563.611	8.19
563.804	8.19
563.997	8.02
564.19	7.87
564.382	8.16
564.575	8.05
564.768	8.08
564.961	8.17
565.153	8.08
565.346	7.93
565.539	8.15
565.731	8.14
565.924	8.15
566.117	8.27
566.309	8.07
566.502	8.07
566.695	7.98
566.887	8.14
567.08	8.1
567.272	8.17
567.465	8.04
567.657	8.17
567.85	8.01
568.042	8.08
568.235	8.12
568.427	8
568.62	8.07
568.812	8.06
569.005	8.16
569.197	8
569.389	8.03
569.582	8.03
569.774	8.05
569.966	7.98
570.159	7.93
570.351	7.93
570.543	8.03
570.736	7.98
570.928	7.86
571.12	8.08
571.312	7.95
571.505	7.84
571.697	8.06
571.889	7.95
572.081	8.05
572.273	7.91
572.465	8.02
572.658	7.98
572.85	8
573.042	7.99
573.234	7.93
573.426	7.97
573.618	7.91
573.81	7.97
574.002	7.94
574.194	7.99
574.386	7.89
574.578	7.77
574.77	7.84
574.962	7.99
575.154	7.76
575.346	7.84
575.538	7.83
575.729	7.81
575.921	7.95
576.113	7.95
576.305	7.91
576.497	8
576.689	7.78
576.88	7.71
577.072	7.97
577.264	7.87
577.456	7.95
577.647	7.86
577.839	7.94
578.031	7.91
578.223	7.8
578.414	7.69
578.606	7.87
578.798	7.9
578.989	7.87
579.181	7.87
579.372	7.77
579.564	7.84
579.755	7.73
579.947	7.74
580.139	7.93
580.33	7.64
580.522	7.77
580.713	7.74
580.905	7.77
581.096	7.87
581.287	7.7
581.479	7.7
581.67	7.81
581.862	7.7
582.053	7.64
582.244	7.6
582.436	7.8
582.627	7.69
582.818	7.6
583.01	7.61
583.201	7.68
583.392	7.67
583.583	7.56
583.775	7.41
583.966	7.64
584.157	7.62
584.348	7.65
584.54	7.55
584.731	7.62
584.922	7.52
585.113	7.5
585.304	7.58
585.495	7.61
585.686	7.65
585.877	7.59
586.068	7.67
586.259	7.55
586.45	7.56
586.641	7.51
586.832	7.62
587.023	7.48
587.214	7.44
587.405	7.56
587.596	7.36
587.787	7.41
587.978	7.52
588.169	7.35
588.36	7.36
588.551	7.4
588.742	7.37
588.932	7.47
589.123	7.24
589.314	7.52
589.505	7.38
589.696	7.35
589.886	7.36
590.077	7.28
590.268	7.24
590.458	7.19
590.649	7.14
590.84	7.27
591.03	7.31
591.221	7.23
591.412	7.16
591.602	7.32
591.793	7.27
591.984	7.28
592.174	7.24
592.365	7.44
592.555	7.06
592.746	7.08
592.936	7.17
593.127	7.16
593.317	7.27
593.508	7.24
593.698	7.12
593.889	7.07
594.079	7.09
594.269	7.05
594.46	7.09
594.65	7.11
594.84	7.06
595.031	6.91
595.221	7
595.411	6.94
595.602	6.99
595.792	6.94
595.982	6.87
596.172	7.05
596.363	6.93
596.553	6.87
596.743	6.97
596.933	6.9
597.123	6.86
597.314	6.75
597.504	6.74
597.694	6.91
597.884	6.85
598.074	6.85
598.264	6.74
598.454	6.84
598.644	6.7
598.834	6.83
599.024	6.63
599.214	6.67
599.404	6.77
599.594	6.7
599.784	6.62
599.974	6.78
600.164	6.76
600.354	6.61
600.544	6.53
600.734	6.69
600.924	6.57
601.114	6.54
601.303	6.55
601.493	6.61
601.683	6.55
601.873	6.48
602.063	6.47
602.252	6.51
602.442	6.45
602.632	6.43
602.821	6.41
603.011	6.5
603.201	6.41
603.39	6.42
603.58	6.25
603.77	6.42
603.959	6.46
604.149	6.31
604.339	6.33
604.528	6.41
604.718	6.37
604.907	6.3
605.097	6.22
605.286	6.27
605.476	6.25
605.665	6.33
605.855	6.21
606.044	6.24
606.234	6.2
606.423	6.17
606.612	6.19
606.802	6.1
606.991	6.21
607.181	6.21
607.37	6.14
607.559	5.93
607.749	6.11
607.938	5.98
608.127	6.08
608.316	6.03
608.506	6.02
608.695	6.05
608.884	5.97
609.073	6.06
609.263	6.04
609.452	5.95
609.641	5.85
609.83	5.81
610.019	5.94
610.208	5.84
610.397	5.87
610.586	5.87
610.775	5.79
610.965	5.79
611.154	5.68
611.343	5.83
611.532	5.72
611.721	5.75
611.91	5.7
612.099	5.58
612.287	5.67
612.476	5.6
612.665	5.75
612.854	5.64
613.043	5.65
613.232	5.58
613.421	5.51
613.61	5.58
613.798	5.53
613.987	5.59
614.176	5.51
614.365	5.63
614.554	5.52
614.742	5.55
614.931	5.37
615.12	5.48
615.309	5.46
615.497	5.35
615.686	5.3
615.875	5.41
616.063	5.32
616.252	5.34
616.44	5.33
616.629	5.25
616.818	5.33
617.006	5.26
617.195	5.23
617.383	5.26
617.572	5.23
617.76	5.17
617.949	5.2
618.137	5.24
618.326	5.23
618.514	4.97
618.703	5.05
618.891	5.16
619.079	5.11
619.268	5.11
619.456	4.98
619.644	5.16
619.833	4.96
620.021	4.93
620.209	4.9
620.398	5.07
620.586	4.9
620.774	4.99
620.962	4.95
621.151	5.02
621.339	4.93
621.527	4.87
621.715	4.82
621.903	4.87
622.092	4.77
622.28	4.92
622.468	4.66
622.656	4.8
622.844	4.73
623.032	4.75
623.22	4.64
623.408	4.85
623.596	4.75
623.784	4.72
623.972	4.62
624.16	4.66
624.348	4.73
624.536	4.69
624.724	4.55
624.912	4.63
625.1	4.65
625.288	4.56
625.476	4.46
625.664	4.56
625.851	4.48
626.039	4.5
626.227	4.48
626.415	4.5
626.603	4.41
626.79	4.52
626.978	4.4
627.166	4.43
627.354	4.36
627.541	4.38
627.729	4.31
627.917	4.44
628.104	4.52
628.292	4.3
628.48	4.35
628.667	4.3
628.855	4.36
629.042	4.34
629.23	4.31
629.418	4.27
629.605	4.25
629.793	4.19
629.98	4.21
630.168	4.17
630.355	4.25
630.543	4.11
630.73	4.01
630.917	4.12
631.105	4.21
631.292	4.13
631.48	4.07
631.667	4.22
631.854	4.09
632.042	3.99
632.229	3.94
632.416	4
632.604	3.95
632.791	3.82
632.978	4
633.165	3.92
633.353	3.95
633.54	3.95
633.727	3.82
633.914	3.83
634.101	3.81
634.289	3.95
634.476	3.79
634.663	3.79
634.85	3.8
635.037	3.76
635.224	3.66
635.411	3.83
635.598	3.72
635.785	3.71
635.972	3.69
636.159	3.74
636.346	3.66
636.533	3.63
636.72	3.67
636.907	3.59
637.094	3.61
637.281	3.45
637.468	3.6
637.655	3.6
637.842	3.58
638.029	3.56
638.215	3.55
638.402	3.56
638.589	3.43
638.776	3.47
638.963	3.45
639.149	3.5
639.336	3.51
639.523	3.48
639.709	3.47
639.896	3.38
640.083	3.39
640.27	3.48
640.456	3.33
640.643	3.41
640.829	3.24
641.016	3.27
641.203	3.24
641.389	3.34
641.576	3.25
641.762	3.24
641.949	3.25
642.135	3.26
642.322	3.22
642.508	3.14
642.695	3.21
642.881	3.15
643.068	3.18
643.254	3.13
643.441	3.15
643.627	3.2
643.813	3.07
644	3.16
644.186	3.03
644.372	3.1
644.559	3.08
644.745	3.09
644.931	2.94
645.118	3.1
645.304	3.04
645.49	2.95
645.676	2.95
645.862	3.01
646.049	3.04
646.235	2.95
646.421	3.09
646.607	3.04
646.793	2.92
646.979	2.82
647.165	2.93
647.352	2.91
647.538	2.87
647.724	2.82
647.91	2.82
648.096	2.82
648.282	2.83
648.468	2.76
648.654	2.81
648.84	2.83
649.026	2.81
649.212	2.71
649.397	2.73
649.583	2.71
649.769	2.77
649.955	2.66
650.141	2.73
650.327	2.76
650.513	2.61
650.698	2.71
650.884	2.56
651.07	2.69
651.256	2.63
651.442	2.61
651.627	2.53
651.813	2.62
651.999	2.52
652.184	2.58
652.37	2.59
652.556	2.57
652.741	2.62
652.927	2.41
653.113	2.47
653.298	2.57
653.484	2.53
653.669	2.46
653.855	2.45
654.04	2.51
654.226	2.43
654.412	2.42
654.597	2.37
654.782	2.45
654.968	2.46
655.153	2.4
655.339	2.36
655.524	2.39
655.71	2.39
655.895	2.36
656.08	2.37
656.266	2.46
656.451	2.34
656.636	2.3
656.822	2.34
657.007	2.31
657.192	2.29
657.378	2.22
657.563	2.24
657.748	2.26
657.933	2.29
658.118	2.16
658.304	2.17
658.489	2.27
658.674	2.23
658.859	2.19
659.044	2.2
659.229	2.21
659.414	2.18
659.599	2.11
659.785	2.07
659.97	2.13
660.155	2.13
660.34	2.2
660.525	2.11
660.71	2.11
660.895	2.16
661.08	2.09
661.264	1.97
661.449	2.15
661.634	2.11
661.819	2.08
662.004	2.08
662.189	2.02
662.374	2.06
662.559	1.93
662.743	1.98
662.928	2.04
663.113	2.01
663.298	1.92
663.483	1.92
663.667	1.92
663.852	1.89
664.037	1.99
664.221	1.89
664.406	1.98
664.591	1.95
664.775	1.89
664.96	1.83
665.145	1.9
665.329	1.95
665.514	1.86
665.698	1.84
665.883	1.74
666.068	1.89
666.252	1.82
666.437	1.78
666.621	1.83
666.806	1.83
666.99	1.77
667.174	1.77
667.359	1.86
667.543	1.75
667.728	1.77
667.912	1.64
668.096	1.76
668.281	1.75
668.465	1.76
668.649	1.71
668.834	1.71
669.018	1.69
669.202	1.71
669.387	1.7
669.571	1.77
669.755	1.65
669.939	1.72
670.124	1.67
670.308	1.73
670.492	1.68
670.676	1.69
670.86	1.64
671.044	1.54
671.228	1.66
671.413	1.61
671.597	1.55
671.781	1.65
671.965	1.64
672.149	1.58
672.333	1.57
672.517	1.54
672.701	1.63
672.885	1.58
673.069	1.48
673.253	1.68
673.437	1.55
673.621	1.5
673.804	1.56
673.988	1.52
674.172	1.51
674.356	1.43
674.54	1.48
674.724	1.65
674.908	1.51
675.091	1.54
675.275	1.48
675.459	1.56
675.643	1.53
675.826	1.51
676.01	1.46
676.194	1.46
676.377	1.47
676.561	1.49
676.745	1.45
676.928	1.49
677.112	1.46
677.296	1.45
677.479	1.38
677.663	1.34
677.846	1.44
678.03	1.39
678.213	1.37
678.397	1.38
678.58	1.4
678.764	1.35
678.947	1.3
679.131	1.4
679.314	1.39
679.498	1.35
679.681	1.36
679.865	1.39
680.048	1.33
680.231	1.29
680.415	1.35
680.598	1.33
680.781	1.35
680.965	1.26
681.148	1.25
681.331	1.25
681.514	1.38
681.698	1.31
681.881	1.3
682.064	1.27
682.247	1.28
682.43	1.18
682.614	1.28
682.797	1.3
682.98	1.28
683.163	1.18
683.346	1.23
683.529	1.19
683.712	1.15
683.895	1.27
684.078	1.16
684.261	1.17
684.444	1.24
684.627	1.3
684.81	1.1
684.993	1.16
685.176	1.24
685.359	1.1
685.542	1.17
685.725	1.23
685.908	1.2
686.091	1.09
686.274	1.26
686.457	1.27
686.639	1.15
686.822	1.14
687.005	1.14
687.188	1.19
687.371	1.27
687.553	1.17
687.736	1.2
687.919	1.29
688.102	1.24
688.284	1.09
688.467	1.11
688.65	1.12
688.832	1.03
689.015	1.1
689.197	0.94
689.38	1.19
689.563	1.19
689.745	1.01
689.928	1.03
690.11	1.07
690.293	1.03
690.475	0.96
690.658	1.03
690.84	1.04
691.023	0.99
691.205	0.98
691.388	1.01
691.57	1.07
691.752	1.08
691.935	0.91
692.117	0.97
692.3	1.05
692.482	0.98
692.664	0.89
692.847	0.98
693.029	1.09
693.211	1.06
693.393	0.95
693.576	0.91
693.758	1.02
693.94	0.92
694.122	0.96
694.304	0.93
694.487	0.87
694.669	1.05
694.851	0.84
695.033	0.91
695.215	0.92
695.397	0.89
695.579	0.87
695.761	0.86
695.943	0.87
696.125	1.02
696.308	0.96
696.49	0.86
696.671	1.06
696.853	0.93
697.035	1.11
697.217	0.9
697.399	1.03
697.581	0.83
697.763	0.92
697.945	0.74
698.127	0.95
698.309	0.97
698.491	0.85
698.672	0.92
698.854	0.97
699.036	0.93
699.218	0.82
699.399	0.88
699.581	0.9
699.763	0.89
699.945	0.8
700.126	0.79
700.308	0.84
700.49	0.9
700.671	0.79
700.853	0.77
701.035	0.78
701.216	0.83
701.398	0.81
701.579	0.8
701.761	0.89
701.943	0.79
702.124	0.78
702.306	0.76
702.487	1.02
702.669	0.83
702.85	0.79
703.031	0.72
703.213	0.95
703.394	0.89
703.576	0.81
703.757	0.91
703.938	0.85
704.12	0.97
704.301	0.73
704.483	0.72
704.664	0.83
704.845	0.9
705.026	0.81
705.208	0.73
705.389	0.87
705.57	0.77
705.751	0.71
705.933	0.76
706.114	0.91
706.295	0.74
706.476	0.64
706.657	0.9
706.838	0.75
707.02	0.79
707.201	0.75
707.382	0.65
707.563	0.83
707.744	0.68
707.925	0.65
708.106	0.66
708.287	0.75
708.468	0.83
708.649	0.67
708.83	0.78
709.011	0.64
709.192	0.81
709.373	0.64
709.554	0.71
709.734	0.8
709.915	0.76
710.096	0.73
710.277	0.55
710.458	0.65
710.639	0.79
710.819	0.54
711	0.68
711.181	0.67
711.362	0.79
711.542	0.64
711.723	0.63
711.904	0.82
712.085	0.76
712.265	0.68
712.446	0.52
712.627	0.72
712.807	0.66
712.988	0.61
713.168	0.6
713.349	0.74
713.53	0.56
713.71	0.52
713.891	0.56
714.071	0.65
714.252	0.65
714.432	0.6
714.613	0.54
714.793	0.7
714.974	0.76
715.154	0.77
715.334	0.75
715.515	0.75
715.695	0.57
715.876	0.62
716.056	0.64
716.236	0.5
716.417	0.54
716.597	0.57
716.777	0.84
716.957	0.72
717.138	0.69
717.318	0.58
717.498	0.53
717.678	0.57
717.859	0.6
718.039	0.52
718.219	0.62
718.399	0.58
718.579	0.55
718.759	0.51
718.939	0.64
719.12	0.66
719.3	0.55
719.48	0.38
719.66	0.44
719.84	0.67
720.02	0.59
720.2	0.52
720.38	0.57
720.56	0.76
720.74	0.44
720.92	0.56
721.1	0.8
721.279	0.64
721.459	0.57
721.639	0.47
721.819	0.54
721.999	0.54
722.179	0.66
722.359	0.44
722.538	0.6
722.718	0.61
722.898	0.57
723.078	0.52
723.257	0.43
723.437	0.6
723.617	0.57
723.797	0.54
723.976	0.56
724.156	0.66
724.336	0.75
724.515	0.74
724.695	0.4
724.874	0.58
725.054	0.58
725.234	0.5
725.413	0.53
725.593	0.46
725.772	0.53
725.952	0.49
726.131	0.52
726.311	0.55
726.49	0.46
726.67	0.42
726.849	0.5
727.028	0.56
727.208	0.45
727.387	0.57
727.567	0.37
727.746	0.49
727.925	0.54
728.105	0.4
728.284	0.43
728.463	0.55
728.643	0.5
728.822	0.42
729.001	0.51
729.18	0.56
729.359	0.72
729.539	0.52
729.718	0.51
729.897	0.61
730.076	0.47
730.255	0.42
730.434	0.51
730.614	0.64
730.793	0.69
730.972	0.52
731.151	0.5
731.33	0.63
731.509	0.65
731.688	0.45
731.867	0.54
732.046	0.29
732.225	0.77
732.404	0.46
732.583	0.34
732.762	0.52
732.941	0.57
733.12	0.55
733.298	0.49
733.477	0.55
733.656	0.46
733.835	0.31
734.014	0.56
734.193	0.57
734.371	0.62
734.55	0.53
734.729	0.37
734.908	0.5
735.086	0.61
735.265	0.59
735.444	0.37
735.623	0.35
735.801	0.43
735.98	0.5
736.159	0.46
736.337	0.57
736.516	0.54
736.694	0.58
736.873	0.44
737.052	0.77
737.23	0.67
737.409	0.43
737.587	0.7
737.766	0.38
737.944	0.54
738.123	0.53
738.301	0.57
738.479	0.53
738.658	0.72
738.836	0.3
739.015	0.49
739.193	0.64
739.371	0.31
739.55	0.45
739.728	0.54
739.906	0.71
740.085	0.72
740.263	0.51
740.441	0.29
740.62	0.77
740.798	0.67
740.976	0.37
741.154	0.37
741.332	0.75
741.511	0.42
741.689	0.45
741.867	0.68
742.045	0.59
742.223	0.56
742.401	0.47
742.579	0.5
742.757	0.62
742.935	0.29
743.114	0.39
743.292	0.44
743.47	0.46
743.648	0.5
743.826	0.42
744.004	0.58
744.181	0.69
744.359	0.44
744.537	0.45
744.715	0.48
744.893	0.48
745.071	0.58
745.249	0.52
745.427	0.48
745.605	0.5
745.782	0.43
745.96	0.48
746.138	0.6
746.316	0.57
746.493	0.48
746.671	0.47
746.849	0.34
747.027	0.65
747.204	0.5
747.382	0.51
747.56	0.31
747.737	0.4
747.915	0.4
748.093	0.48
748.27	0.34
748.448	0.5
748.625	0.3
748.803	0.35
748.98	0.34
749.158	0.55
749.335	0.51
749.513	0.35
749.69	0.37
749.868	0.4
750.045	0.44
750.223	0.29
750.4	0.12
750.578	0.67
750.755	0.45
750.932	0.26
751.11	0.56
751.287	0.45
751.464	0.61
751.642	0.34
751.819	0.5
751.996	0.57
752.173	0.4
752.351	0.36
752.528	0.46
752.705	0.4
752.882	0.31
753.06	0.51
753.237	0.47
753.414	0.71
753.591	0.72
753.768	0.44
753.945	0.39
754.122	0.43
754.299	0.56
754.476	0.39
754.654	0.5
754.831	0.57
755.008	0.42
755.185	0.22
755.362	0.39
755.539	0.57
755.716	0.46
755.892	0.37
756.069	0.44
756.246	0.45
756.423	0.41
756.6	0.53
756.777	0.34
756.954	0.59
757.131	0.42
757.307	0.29
757.484	0.33
757.661	0.39
757.838	0.48
758.015	0.22
758.191	0.48
758.368	0.58
758.545	0.66
758.721	0.46
758.898	0.37
759.075	0.32
759.251	0.52
759.428	0.48
759.605	0.26
759.781	0.51
759.958	0.57
760.134	0.48
760.311	0.37
760.488	0.63
760.664	0.55
760.841	0.4
761.017	0.31
761.194	0.48
761.37	0.55
761.547	0.33
761.723	0.33
761.899	0.62
762.076	0.28
762.252	0.13
762.429	0.37
762.605	0.41
762.781	0.38
762.958	0.54
763.134	0.39
763.31	0.42
763.486	0.59
763.663	0.09
763.839	0.46
764.015	0.16
764.191	0.35
764.368	0.4
764.544	0.35
764.72	0.52
764.896	0.56
765.072	0.41
765.248	0.31
765.425	0.39
765.601	0.52
765.777	0.5
765.953	0.09
766.129	0.27
766.305	0.38
766.481	0.51
766.657	0.38
766.833	0.71
767.009	0.31
767.185	0.29
767.361	0.4
767.537	0.34
767.713	0.58
767.889	0.41
768.065	0.39
768.24	0.43
768.416	0.34
768.592	0.35
768.768	0.35
768.944	0.46
769.12	0.28
769.295	0.4
769.471	0.34
769.647	0.23
769.823	0.66
769.998	0.39
770.174	0.33
770.35	0.76
770.525	0.75
770.701	0.45
770.877	0.37
771.052	0.39
771.228	0.63
771.403	0.53
771.579	0.44
771.755	0.7
771.93	0.39
772.106	0.31
772.281	0.01
772.457	0.45
772.632	0.57
772.808	0.21
772.983	0.47
773.159	0.3
773.334	0.59
773.509	0.43
773.685	0.26
773.86	0.94
774.036	0.68
774.211	0.41
774.386	0.37
774.562	0.47
774.737	0.73
774.912	0.4
775.087	0.44
775.263	0.52
775.438	0.47
775.613	0.29
775.788	0.36
775.964	0.66
776.139	0.97
776.314	0.21
776.489	0.38
776.664	0.52
776.839	0.19
777.014	0.64
777.19	0.6
777.365	0.7
777.54	0.77
777.715	0.22
777.89	0.48
778.065	0.44
778.24	0.46
778.415	0.63
778.59	0.29
778.765	0.38
778.94	0.57
779.115	0.48
779.289	0.36
779.464	0.51
779.639	0.33
779.814	0.24
779.989	0.16
780.164	0.59
780.339	0.51
780.513	0.33
780.688	0.16
780.863	0.5
781.038	0.57
781.212	0.16
781.387	0.25
781.562	0.75
781.737	0.37
781.911	0.75
782.086	0.24
782.261	0.56
782.435	0.89
782.61	0.26
782.784	0.35
782.959	0.66
783.134	0.15
783.308	0.23
783.483	0.41
783.657	1.05
783.832	0.7
784.006	0
784.181	0.55
784.355	0.68
784.53	0.27
784.704	0.23
784.878	0.69
785.053	0.65
785.227	0.82
785.402	0.8
785.576	0.28
785.75	0.72
785.925	0.51
786.099	0.53
786.273	0.67
786.448	0.92
786.622	0.56
786.796	0.45
786.97	0.44
787.145	1.06
787.319	0.17
787.493	0.37
787.667	-0.03
787.841	0.6
788.015	0.96
788.19	0.16
788.364	0.57
788.538	0.95
788.712	0.54
788.886	0.16
789.06	0.53
789.234	0.76
789.408	0.36
789.582	0.23
789.756	0.43
789.93	0.39
790.104	0.51
790.278	0.44
790.452	-0.04
790.626	0.62
790.8	0.19
790.973	0.75
791.147	0.86
791.321	0.85
791.495	0.9
791.669	0.52
791.843	0.71
792.016	0.68
792.19	0.9
792.364	0.58
792.538	1.03
792.711	0.88
792.885	0.3
793.059	0.52
793.233	-0.23
793.406	0.74
793.58	0.67
793.754	0.48
793.927	0.49
794.101	0.75
794.274	0.43
794.448	0.87
794.622	0.25
794.795	0.92
794.969	0.4
795.142	0.87
795.316	0.34
795.489	0.4
795.663	0.81
795.836	0.52
796.009	0.41
796.183	0.82
796.356	0.53
796.53	0.59
796.703	0.47
796.876	1.16
797.05	0.59
797.223	0.47
797.396	0.48
797.57	0.81
797.743	1
797.916	0.64
798.09	0.49
798.263	0.95
798.436	0.74
798.609	0.36
798.782	0.28
798.956	0.51
799.129	0.48
799.302	0.46
799.475	0.36
799.648	0.7
799.821	0.08
799.994	0.6
800.167	0.15
800.34	0.38
800.514	0.72
800.687	0.45
800.86	0.4
801.033	0.78
801.206	0.74
801.379	0.11
801.551	0.84
801.724	0.9
801.897	1.16
802.07	0.46
802.243	-0.08
802.416	0.76
802.589	0.91
802.762	0.93
802.935	0.5
803.107	1
803.28	0.89
803.453	1.04
803.626	0.6
803.798	1.12
803.971	0.48
804.144	0.59
804.317	0.83
804.489	0.95
804.662	0.7
804.835	0.58
805.007	0.16
805.18	1.19
805.353	0.61
805.525	0.17
805.698	0.21
805.87	0.97
806.043	1.05
806.215	0.19
806.388	0.37
806.56	0.91
806.733	1.07
806.905	0.55
807.078	0.47
807.25	0.71
807.423	1.17
807.595	0.61
807.768	0.66
807.94	0.96
808.112	0.87
808.285	0.7
808.457	0.6
808.629	0.75
808.802	1.28
808.974	0.79
809.146	0.41
809.318	0.5
809.491	0.69
809.663	0.95
809.835	0.21
810.007	0.96
810.18	0.8
810.352	0.67
810.524	0.51
810.696	0.93
810.868	1.25
811.04	0.67
811.212	0.64
811.384	1.15
811.556	0.7
811.728	0.33
811.901	1.88
812.073	0.6
812.245	1.2
812.417	0.57
812.589	-0.03
812.76	1.12
812.932	1.08
813.104	1.34
813.276	0.69
813.448	1.21
813.62	0.9
813.792	0.73
813.964	0.77
814.136	1.02
814.307	0.68
814.479	0.73
814.651	0.44
814.823	1.74
814.995	0.66
815.166	0.77
815.338	0.38
815.51	0.18
815.681	1.99
815.853	0.57
816.025	0.86
816.196	1.75
816.368	1.22
816.54	0.09
816.711	0.39
816.883	1
817.054	2.59
817.226	0.1
817.398	0.94
817.569	0.98
817.741	0.78
817.912	0.57
818.084	0.59
818.255	1.52
818.426	0.61
818.598	0.67
818.769	0.36
818.941	1.12
819.112	1.77
819.283	0.81
819.455	0.53
819.626	0.83
819.798	1.38
819.969	0.57
820.14	0.41
820.311	0.64
820.483	1.16
820.654	1.1
820.825	0.67
820.996	0.78
821.168	0.09
821.339	1.07
821.51	-0.39
821.681	0.73
821.852	0.66
822.023	0.01
822.195	0.48
822.366	1.37
822.537	1.06
822.708	1.02
822.879	0.26
823.05	1.75
823.221	0.57
823.392	0.96
823.563	0.94
823.734	1.16
823.905	1.14
824.076	0.56
824.247	0.47
824.418	0.9
824.589	1.47
824.759	0.45
824.93	1.42
825.101	-0.47
825.272	1.96
825.443	1.51
825.614	1.59
825.784	0.2
825.955	2.06
826.126	1.82
826.297	1.05
826.467	1.95
826.638	1.96
826.809	0.25
826.98	0.61
827.15	1.24
827.321	1.07
827.492	2.04
827.662	1
827.833	2.43
828.003	1.4
828.174	0.57
828.345	0.65
828.515	2.42
828.686	1.05
828.856	0.74
829.027	0.51
829.197	1.18
829.368	1.33
829.538	0.43
829.709	0.67
829.879	1
830.049	1.54
830.22	0.56
830.39	1.03
830.56	1.48
830.731	1.56
830.901	1
831.072	0.71
831.242	1.91
831.412	2.02
831.582	1.31
831.753	-0.01
831.923	1.44
832.093	1.61
832.263	1.04
832.434	0.09
832.604	1.17
832.774	1.35
832.944	0.78
833.114	0.5
833.284	1.66
833.454	0.75
833.624	0.04
833.795	0.89
833.965	1.72
834.135	2.37
834.305	0.02
834.475	0.44
834.645	1.3
834.815	1.08
834.985	0.62
835.155	0.39
835.325	1.46
835.494	1.73
835.664	0.59
835.834	0.25
836.004	0.8
836.174	1.97
836.344	0.72
836.514	0.36
836.684	0.63
836.853	0.58
837.023	1.28
837.193	0.83
837.363	2.74
837.532	1.85
837.702	0.59
837.872	0.42
838.041	1.53
838.211	2.2
838.381	0.23
838.55	1.45
838.72	3.48
838.89	2.32
839.059	0.78
839.229	0.68
839.398	3.64
839.568	0.8
839.738	0.45
839.907	1.82
840.077	1.59
840.246	0.79
840.416	0.06
840.585	0.04
840.755	2.74
840.924	1.84
841.093	0.43
841.263	0.62
841.432	1.18
841.602	0.28
841.771	0.5
841.94	1.43
842.11	3.56
842.279	3.28
842.448	0.37
842.617	0.57
842.787	3.24
842.956	0.79
843.125	0.7
843.294	1.52
843.464	3.32
843.633	1.51
843.802	1.56
843.971	1.26
844.14	1.99
844.309	2.39
844.479	-0.85
844.648	-0.21
844.817	1.83
844.986	1.82
845.155	0.55
845.324	1.37
845.493	1.26
845.662	0.02
845.831	0.64
846	1.35
846.169	1.39
846.338	3.04
846.507	1.79
846.676	1.64
846.844	1.12
847.013	1.42
847.182	1.64
847.351	1.22
847.52	2.06
847.689	1.81
847.858	1.11
848.026	0.06
848.195	1.71
848.364	1.28
848.533	0.23
848.701	0.34
848.87	1.99
849.039	3.03
849.207	1.91
849.376	3.25
849.545	3.6
849.713	0.91
849.882	0.27
850.051	1.15
850.219	1.55
850.388	2.28
850.556	0.53
850.725	0.23
850.893	1.71
851.062	1.03
851.23	2.16
851.399	-0.17
851.567	1.52
851.736	1.62
851.904	0.89
852.073	1.74
852.241	2.37
852.41	1.17
852.578	0.74
852.746	0.17
852.915	3.41
853.083	2.85
853.251	0.57
853.42	0.95
853.588	1.23
853.756	2.81
853.924	1.3
854.093	1.27
854.261	2.33
854.429	0.12
854.597	2.36
854.765	0.51
854.934	1.85
855.102	2.09
855.27	2.41
855.438	3.01
855.606	2.95
855.774	4.13
855.942	-0.61
856.11	0.68
856.278	2.14
856.446	1.92
856.614	1.14
856.782	0.49
856.95	3.08
857.118	2
857.286	2.3
857.454	1.35
857.622	2.75
857.79	3.01
857.958	0.9
858.126	1.3
858.294	-0.66
858.462	1.57
858.629	1.28
858.797	0.85
858.965	1.81
859.133	1.87
859.301	2.29
859.468	2.62
859.636	1.64
859.804	4.99
859.971	1.53
860.139	1.59
860.307	3.19
860.474	2.88
860.642	0.77
860.81	1.19
860.977	1.87
861.145	4.18
861.313	0.17
861.48	0.91
861.648	3.78
861.815	1.47
861.983	0.05
862.15	1.87
862.318	2.39
862.485	4.19
862.653	-0.55
862.82	1.4
862.988	4.63
863.155	3.68
863.322	0.59
863.49	0.04
863.657	1.05
863.824	5.52
863.992	3.2
864.159	2.96
864.326	4.89
864.494	0.85
864.661	5.36
864.828	1.36
864.996	4.55
865.163	4.37
865.33	1.88
865.497	-1.73
865.664	0.18
865.832	-0.31
865.999	2.91
866.166	1.81
866.333	2.72
866.5	2.48
866.667	0.78
866.834	2.92
867.001	3.84
867.168	0.62
867.335	3.85
867.502	-0.71
867.669	3.21
867.836	6.33
868.003	2.22
868.17	3.57
868.337	2.45
868.504	7.76
868.671	-0.29
868.838	1.16
869.005	4.37
869.172	3.64
869.339	1.89
869.505	1.95
869.672	3.54
869.839	6.13
870.006	2.61
870.173	-0.02
870.339	3.42
870.506	6.53
870.673	1.7
870.84	2.11
871.006	2.8
871.173	3.18
871.34	2.92
871.506	-0.08
871.673	1.91
871.839	-0.05
872.006	2.63
872.173	2.46
872.339	2.42
872.506	4.6
872.672	0.91
872.839	0.45
873.005	3.21
873.172	7.38
873.338	4.87
873.505	3.63
873.671	3.77
873.838	3.71
874.004	-0.46
874.171	0.88
874.337	4.19
874.503	5.34
874.67	2.53
874.836	1.17
875.002	4.44
875.169	4.27
875.335	1.71
875.501	0.73
875.668	4.64
875.834	1.87
876	1.35
876.166	3.09
876.332	3.71
876.499	6.35
876.665	-0.02
876.831	2.33
876.997	7.3
877.163	4.92
877.329	2.03
877.495	2.39
877.662	2.27
877.828	4.68
877.994	2.02
878.16	-0.08
878.326	1.12
878.492	2.35
878.658	2.96
878.824	3.02
878.99	4.38
879.156	4
879.322	5.63
879.487	1.08
879.653	3.47
879.819	3.48
879.985	1.8
880.151	3.2
880.317	3.14
880.483	4.68
880.648	4.42
880.814	-0.51
880.98	3.8
881.146	-1.21
881.312	0.03
881.477	3.47
881.643	3.66
881.809	6.02
881.974	4.19
882.14	1.78
882.306	2.63
882.471	7.34
882.637	0.99
882.803	1.92
882.968	4.84
883.134	7.48
883.299	2.67
883.465	1.84
883.63	6.24
883.796	3.87
883.961	4.46
884.127	2.9
884.292	-2.06
884.458	-0.13
884.623	-0.13
