Data from Apollo_Calib_20240827__AbsoluteIrradiance__751__11-40-01-449.txt Node

Date: Wed Aug 28 11:40:01 BST 2024
User: biology
Spectrometer: FLMT08252
Trigger mode: 0
Integration Time (sec): 5.000000E-1
Scans to average: 5
Electric dark correction enabled: true
Nonlinearity correction enabled: false
Boxcar width: 0
XAxis mode: Wavelengths
Number of Pixels in Spectrum: 3648
>>>>>Begin Spectral Data<<<<<
179.588	-0
179.809	-0
180.03	-0
180.251	-0
180.473	-0
180.694	0
180.915	0
181.136	-0
181.357	0
181.578	-0
181.799	-0
182.02	0
182.241	0
182.462	-0
182.683	0
182.904	-0
183.125	-0
183.346	0
183.567	0
183.788	0
184.009	0
184.23	0
184.451	0
184.672	0
184.892	0
185.113	0
185.334	0
185.555	0
185.776	0
185.996	0
186.217	0
186.438	0
186.659	0
186.879	0
187.1	0
187.321	0
187.541	0
187.762	0
187.983	0
188.203	0
188.424	0
188.644	0
188.865	0
189.086	0
189.306	0
189.527	0
189.747	0
189.968	0
190.188	0
190.409	0
190.629	0
190.849	0
191.07	0
191.29	0
191.511	0
191.731	0
191.951	0
192.172	0
192.392	0
192.612	0
192.833	0
193.053	0
193.273	0
193.493	0
193.714	0
193.934	0
194.154	0
194.374	0
194.594	0
194.815	0
195.035	0
195.255	0
195.475	0
195.695	0
195.915	0
196.135	0
196.355	0
196.575	0
196.795	0
197.015	0
197.235	0
197.455	0
197.675	0
197.895	0
198.115	0
198.335	0
198.555	0
198.775	0
198.995	0
199.214	0
199.434	0
199.654	0
199.874	0
200.094	2.59
200.313	0.76
200.533	0.85
200.753	0.68
200.973	2.67
201.192	2.14
201.412	0.08
201.632	1.27
201.851	2.8
202.071	0.97
202.291	0.93
202.51	0.67
202.73	2.3
202.95	1.22
203.169	0.5
203.389	0.98
203.608	1.55
203.828	0.87
204.047	0.92
204.267	1.56
204.486	1.06
204.706	1.44
204.925	0.69
205.145	0.88
205.364	1.32
205.583	1.8
205.803	0.87
206.022	0.67
206.242	1.1
206.461	1.18
206.68	0.52
206.9	1.12
207.119	1.65
207.338	1.58
207.557	0.54
207.777	0.67
207.996	1
208.215	1.63
208.434	0.56
208.654	0.42
208.873	0.72
209.092	1.43
209.311	0.69
209.53	0.43
209.749	0.88
209.968	0.7
210.187	0.59
210.407	0.37
210.626	0.81
210.845	0.97
211.064	0.59
211.283	0.26
211.502	0.82
211.721	0.74
211.94	0.64
212.159	0.89
212.377	1.22
212.596	1.26
212.815	0.77
213.034	0.76
213.253	0.99
213.472	0.79
213.691	0.34
213.91	0.34
214.128	0.4
214.347	1.1
214.566	0.4
214.785	0.3
215.003	0.86
215.222	0.77
215.441	0.47
215.66	0.16
215.878	0.51
216.097	0.69
216.316	0.43
216.534	0.51
216.753	0.56
216.972	0.51
217.19	0.51
217.409	0.41
217.627	0.37
217.846	0.46
218.064	0.71
218.283	0.37
218.501	0.98
218.72	0.75
218.938	0.39
219.157	0.33
219.375	0.77
219.594	0.64
219.812	0.22
220.031	0.25
220.249	0.93
220.467	0.74
220.686	0.28
220.904	0.15
221.122	0.4
221.341	0.79
221.559	0.5
221.777	0.12
221.995	0.54
222.214	0.59
222.432	0.4
222.65	0.6
222.868	0.45
223.086	0.62
223.305	0.46
223.523	0.44
223.741	0.87
223.959	0.42
224.177	0.2
224.395	0.32
224.613	0.53
224.831	0.65
225.049	0.21
225.267	0.43
225.485	0.38
225.703	0.44
225.921	0.29
226.139	0.27
226.357	0.58
226.575	0.47
226.793	0.4
227.011	1.21
227.229	0.39
227.447	0.57
227.665	0.32
227.883	0.1
228.1	0.41
228.318	0.53
228.536	0.16
228.754	0.32
228.972	0.52
229.189	0.56
229.407	0.25
229.625	0.28
229.843	0.68
230.06	0.39
230.278	0.26
230.496	0.36
230.713	0.45
230.931	0.52
231.149	0.29
231.366	0.04
231.584	0.35
231.801	0.78
232.019	0.35
232.236	0.18
232.454	0.08
232.671	0.43
232.889	0.44
233.106	0.19
233.324	0.44
233.541	0.36
233.759	0.25
233.976	0.17
234.194	0.36
234.411	0.41
234.628	0.2
234.846	0.17
235.063	0.45
235.28	0.34
235.498	0.36
235.715	0.19
235.932	0.5
236.149	0.33
236.367	0.12
236.584	0.34
236.801	0.22
237.018	0.37
237.236	0.27
237.453	0.09
237.67	0.46
237.887	0.21
238.104	0.33
238.321	0.2
238.538	0.19
238.755	0.52
238.973	0.08
239.19	0.28
239.407	0.43
239.624	0.26
239.841	0.07
240.058	0.23
240.275	0.39
240.492	0.31
240.709	0.22
240.925	0.28
241.142	0.3
241.359	0.2
241.576	0.19
241.793	0.15
242.01	0.26
242.227	0.45
242.444	0.42
242.66	0.47
242.877	0.41
243.094	0.3
243.311	0.34
243.527	0.32
243.744	0.33
243.961	0.33
244.178	0.21
244.394	0.27
244.611	0.5
244.828	0.5
245.044	0.2
245.261	0.23
245.477	0.32
245.694	0.34
245.911	0.22
246.127	0.32
246.344	0.51
246.56	0.34
246.777	0.24
246.993	0.17
247.21	0.34
247.426	0.42
247.643	0.17
247.859	0.21
248.076	0.21
248.292	0.45
248.508	0.19
248.725	0.37
248.941	0.39
249.157	0.46
249.374	0.2
249.59	0.26
249.806	0.29
250.023	0.45
250.239	0.19
250.455	0.12
250.671	0.23
250.888	0.32
251.104	0.32
251.32	0.19
251.536	0.31
251.752	0.19
251.969	0.3
252.185	0.21
252.401	0.46
252.617	0.33
252.833	0.22
253.049	0.28
253.265	0.28
253.481	0.29
253.697	0.16
253.913	0.16
254.129	0.28
254.345	0.29
254.561	0.15
254.777	0.21
254.993	0.28
255.209	0.25
255.425	0.18
255.641	0.19
255.857	0.33
256.073	0.3
256.288	0.1
256.504	0.21
256.72	0.28
256.936	0.4
257.152	0.22
257.367	0.18
257.583	0.24
257.799	0.32
258.015	0.13
258.23	0.24
258.446	0.43
258.662	0.26
258.877	0.14
259.093	0.16
259.309	0.21
259.524	0.29
259.74	0.12
259.955	0.16
260.171	0.26
260.387	0.25
260.602	0.25
260.818	0.27
261.033	0.19
261.249	0.21
261.464	0.16
261.68	0.11
261.895	0.24
262.11	0.33
262.326	0.2
262.541	0.12
262.757	0.34
262.972	0.31
263.187	0.21
263.403	0.23
263.618	0.33
263.833	0.25
264.049	0.17
264.264	0.27
264.479	0.19
264.694	0.42
264.91	0.15
265.125	0.19
265.34	0.28
265.555	0.42
265.77	0.21
265.986	0.18
266.201	0.35
266.416	0.31
266.631	0.16
266.846	0.15
267.061	0.3
267.276	0.35
267.491	0.02
267.706	0.22
267.921	0.28
268.136	0.2
268.351	0.18
268.566	0.12
268.781	0.34
268.996	0.36
269.211	0.26
269.426	0.16
269.641	0.2
269.856	0.36
270.071	0.17
270.285	0.13
270.5	0.28
270.715	0.21
270.93	0.17
271.145	0.19
271.359	0.27
271.574	0.2
271.789	0.16
272.004	0.2
272.218	0.19
272.433	0.21
272.648	0.14
272.862	0.27
273.077	0.22
273.292	0.26
273.506	0.2
273.721	0.12
273.936	0.26
274.15	0.3
274.365	0.13
274.579	0.25
274.794	0.21
275.008	0.31
275.223	0.03
275.437	0.2
275.652	0.29
275.866	0.21
276.081	0.17
276.295	0.25
276.509	0.22
276.724	0.22
276.938	0.19
277.153	0.19
277.367	0.25
277.581	0.18
277.796	0.14
278.01	0.11
278.224	0.26
278.438	0.32
278.653	0.12
278.867	0.09
279.081	0.03
279.295	0.21
279.51	0.22
279.724	0.15
279.938	0.22
280.152	0.16
280.366	0.14
280.58	0.19
280.794	0.32
281.008	0.29
281.222	0.2
281.437	0.36
281.651	0.2
281.865	0.32
282.079	0.17
282.293	0.08
282.507	0.15
282.721	0.16
282.935	0.18
283.148	0.09
283.362	0.13
283.576	0.1
283.79	0.18
284.004	0.14
284.218	0.31
284.432	0.11
284.646	0.15
284.859	0.16
285.073	0.12
285.287	0.23
285.501	0.17
285.714	0.18
285.928	0.17
286.142	0.22
286.356	0.15
286.569	0.15
286.783	0.28
286.997	0.27
287.21	0.21
287.424	0.17
287.637	0.21
287.851	0.12
288.065	0.22
288.278	0.1
288.492	0.23
288.705	0.16
288.919	0.22
289.132	0.08
289.346	0.22
289.559	0.13
289.773	0.12
289.986	0.16
290.2	0.17
290.413	0.25
290.626	0.15
290.84	0.17
291.053	0.21
291.267	0.27
291.48	0.16
291.693	0.19
291.906	0.14
292.12	0.19
292.333	0.15
292.546	0.15
292.76	0.28
292.973	0.18
293.186	0.21
293.399	0.13
293.612	0.26
293.826	0.18
294.039	0.16
294.252	0.13
294.465	0.26
294.678	0.17
294.891	0.18
295.104	0.11
295.317	0.17
295.53	0.16
295.743	0.16
295.956	0.2
296.169	0.25
296.382	0.22
296.595	0.13
296.808	0.08
297.021	0.28
297.234	0.21
297.447	0.14
297.66	0.18
297.873	0.23
298.086	0.22
298.299	0.11
298.511	0.1
298.724	0.15
298.937	0.11
299.15	0.11
299.363	0.17
299.575	0.21
299.788	0.18
300.001	0.12
300.213	0.18
300.426	0.18
300.639	0.16
300.852	0.14
301.064	0.2
301.277	0.27
301.489	0.19
301.702	0.19
301.915	0.12
302.127	0.16
302.34	0.15
302.552	0.21
302.765	0.13
302.977	0.25
303.19	0.2
303.402	0.15
303.615	0.11
303.827	0.19
304.04	0.18
304.252	0.2
304.464	0.12
304.677	0.27
304.889	0.21
305.102	0.13
305.314	0.14
305.526	0.21
305.739	0.2
305.951	0.14
306.163	0.14
306.375	0.23
306.588	0.16
306.8	0.12
307.012	0.08
307.224	0.16
307.436	0.25
307.649	0.07
307.861	0.15
308.073	0.19
308.285	0.14
308.497	0.11
308.709	0.14
308.921	0.17
309.133	0.17
309.346	0.15
309.558	0.17
309.77	0.21
309.982	0.23
310.194	0.23
310.406	0.11
310.617	0.25
310.829	0.2
311.041	0.2
311.253	0.13
311.465	0.14
311.677	0.18
311.889	0.17
312.101	0.15
312.313	0.21
312.524	0.25
312.736	0.07
312.948	0.1
313.16	0.27
313.372	0.24
313.583	0.17
313.795	0.13
314.007	0.08
314.218	0.22
314.43	0.17
314.642	0.13
314.853	0.1
315.065	0.23
315.277	0.14
315.488	0.19
315.7	0.21
315.912	0.19
316.123	0.16
316.335	0.14
316.546	0.28
316.758	0.2
316.969	0.13
317.181	0.17
317.392	0.15
317.604	0.21
317.815	0.12
318.026	0.13
318.238	0.16
318.449	0.23
318.661	0.08
318.872	0.09
319.083	0.11
319.295	0.16
319.506	0.13
319.717	0.19
319.929	0.19
320.14	0.17
320.351	0.16
320.562	0.15
320.774	0.15
320.985	0.17
321.196	0.11
321.407	0.11
321.618	0.21
321.829	0.18
322.041	0.18
322.252	0.16
322.463	0.19
322.674	0.2
322.885	0.1
323.096	0.11
323.307	0.14
323.518	0.21
323.729	0.12
323.94	0.13
324.151	0.11
324.362	0.16
324.573	0.17
324.784	0.14
324.995	0.19
325.206	0.2
325.417	0.13
325.628	0.15
325.838	0.16
326.049	0.17
326.26	0.17
326.471	0.15
326.682	0.24
326.892	0.15
327.103	0.05
327.314	0.13
327.525	0.22
327.735	0.16
327.946	0.18
328.157	0.11
328.368	0.2
328.578	0.15
328.789	0.2
328.999	0.18
329.21	0.17
329.421	0.23
329.631	0.14
329.842	0.14
330.052	0.16
330.263	0.22
330.473	0.19
330.684	0.11
330.894	0.15
331.105	0.17
331.315	0.17
331.526	0.1
331.736	0.28
331.947	0.16
332.157	0.2
332.367	0.14
332.578	0.22
332.788	0.23
332.999	0.2
333.209	0.19
333.419	0.05
333.629	0.13
333.84	0.19
334.05	0.18
334.26	0.27
334.47	0.18
334.681	0.18
334.891	0.13
335.101	0.2
335.311	0.23
335.521	0.14
335.732	0.16
335.942	0.21
336.152	0.21
336.362	0.19
336.572	0.16
336.782	0.21
336.992	0.16
337.202	0.19
337.412	0.11
337.622	0.19
337.832	0.13
338.042	0.19
338.252	0.1
338.462	0.13
338.672	0.17
338.882	0.19
339.092	0.18
339.302	0.25
339.511	0.22
339.721	0.18
339.931	0.15
340.141	0.24
340.351	0.23
340.561	0.17
340.77	0.21
340.98	0.17
341.19	0.17
341.4	0.17
341.609	0.17
341.819	0.13
342.029	0.12
342.238	0.18
342.448	0.08
342.658	0.24
342.867	0.2
343.077	0.16
343.286	0.17
343.496	0.19
343.706	0.19
343.915	0.13
344.125	0.15
344.334	0.23
344.544	0.15
344.753	0.17
344.963	0.14
345.172	0.13
345.381	0.1
345.591	0.12
345.8	0.18
346.01	0.2
346.219	0.22
346.428	0.05
346.638	0.19
346.847	0.15
347.056	0.26
347.266	0.14
347.475	0.15
347.684	0.19
347.893	0.17
348.103	0.19
348.312	0.11
348.521	0.14
348.73	0.15
348.94	0.15
349.149	0.16
349.358	0.17
349.567	0.17
349.776	0.11
349.985	0.15
350.194	0.18
350.403	0.23
350.612	0.06
350.821	0.17
351.03	0.15
351.239	0.11
351.448	0.15
351.657	0.11
351.866	0.25
352.075	0.17
352.284	0.24
352.493	0.09
352.702	0.22
352.911	0.18
353.12	0.2
353.329	0.15
353.538	0.19
353.746	0.16
353.955	0.13
354.164	0.16
354.373	0.17
354.582	0.2
354.79	0.14
354.999	0.18
355.208	0.2
355.416	0.24
355.625	0.12
355.834	0.1
356.042	0.17
356.251	0.15
356.46	0.15
356.668	0.17
356.877	0.26
357.085	0.21
357.294	0.05
357.503	0.14
357.711	0.15
357.92	0.29
358.128	0.15
358.337	0.14
358.545	0.2
358.754	0.15
358.962	0.2
359.17	0.14
359.379	0.18
359.587	0.2
359.796	0.16
360.004	0.23
360.212	0.22
360.421	0.27
360.629	0.14
360.837	0.17
361.046	0.19
361.254	0.3
361.462	0.16
361.67	0.17
361.879	0.17
362.087	0.23
362.295	0.17
362.503	0.14
362.711	0.12
362.92	0.17
363.128	0.16
363.336	0.13
363.544	0.1
363.752	0.18
363.96	0.14
364.168	0.13
364.376	0.17
364.584	0.16
364.792	0.17
365	0.19
365.208	0.17
365.416	0.2
365.624	0.21
365.832	0.1
366.04	0.23
366.248	0.18
366.456	0.18
366.664	0.17
366.872	0.14
367.079	0.14
367.287	0.17
367.495	0.16
367.703	0.2
367.911	0.13
368.118	0.13
368.326	0.15
368.534	0.14
368.742	0.23
368.949	0.08
369.157	0.13
369.365	0.17
369.572	0.15
369.78	0.11
369.988	0.21
370.195	0.15
370.403	0.2
370.61	0.14
370.818	0.19
371.026	0.22
371.233	0.14
371.441	0.12
371.648	0.11
371.856	0.2
372.063	0.15
372.271	0.17
372.478	0.16
372.685	0.18
372.893	0.18
373.1	0.15
373.308	0.12
373.515	0.23
373.722	0.22
373.93	0.14
374.137	0.17
374.344	0.26
374.552	0.2
374.759	0.21
374.966	0.22
375.173	0.17
375.381	0.26
375.588	0.15
375.795	0.12
376.002	0.15
376.209	0.15
376.417	0.12
376.624	0.14
376.831	0.17
377.038	0.18
377.245	0.08
377.452	0.14
377.659	0.13
377.866	0.14
378.073	0.13
378.28	0.16
378.487	0.22
378.694	0.17
378.901	0.19
379.108	0.15
379.315	0.24
379.522	0.28
379.729	0.17
379.936	0.15
380.143	0.17
380.35	0.18
380.557	0.19
380.763	0.18
380.97	0.15
381.177	0.22
381.384	0.2
381.591	0.18
381.797	0.19
382.004	0.19
382.211	0.19
382.418	0.14
382.624	0.23
382.831	0.23
383.038	0.13
383.244	0.17
383.451	0.18
383.658	0.2
383.864	0.17
384.071	0.15
384.277	0.25
384.484	0.17
384.69	0.25
384.897	0.15
385.103	0.13
385.31	0.12
385.516	0.19
385.723	0.13
385.929	0.15
386.136	0.16
386.342	0.2
386.549	0.15
386.755	0.21
386.961	0.21
387.168	0.16
387.374	0.18
387.58	0.2
387.787	0.19
387.993	0.17
388.199	0.19
388.406	0.15
388.612	0.2
388.818	0.13
389.024	0.17
389.231	0.2
389.437	0.29
389.643	0.2
389.849	0.16
390.055	0.16
390.261	0.19
390.467	0.22
390.674	0.15
390.88	0.15
391.086	0.28
391.292	0.12
391.498	0.18
391.704	0.23
391.91	0.2
392.116	0.12
392.322	0.11
392.528	0.26
392.734	0.16
392.94	0.2
393.146	0.14
393.352	0.23
393.557	0.11
393.763	0.2
393.969	0.21
394.175	0.2
394.381	0.18
394.587	0.21
394.792	0.15
394.998	0.27
395.204	0.21
395.41	0.18
395.615	0.21
395.821	0.23
396.027	0.22
396.233	0.17
396.438	0.22
396.644	0.26
396.85	0.27
397.055	0.18
397.261	0.24
397.466	0.19
397.672	0.21
397.878	0.25
398.083	0.21
398.289	0.19
398.494	0.3
398.7	0.24
398.905	0.14
399.111	0.28
399.316	0.2
399.522	0.24
399.727	0.17
399.932	0.17
400.138	0.21
400.343	0.26
400.549	0.23
400.754	0.22
400.959	0.26
401.165	0.21
401.37	0.23
401.575	0.33
401.78	0.21
401.986	0.26
402.191	0.21
402.396	0.25
402.601	0.26
402.807	0.29
403.012	0.24
403.217	0.3
403.422	0.26
403.627	0.25
403.832	0.27
404.037	0.32
404.243	0.31
404.448	0.24
404.653	0.24
404.858	0.29
405.063	0.28
405.268	0.23
405.473	0.22
405.678	0.24
405.883	0.5
406.088	0.32
406.293	0.26
406.498	0.31
406.703	0.32
406.907	0.28
407.112	0.24
407.317	0.34
407.522	0.4
407.727	0.31
407.932	0.39
408.136	0.42
408.341	0.32
408.546	0.37
408.751	0.37
408.956	0.4
409.16	0.45
409.365	0.41
409.57	0.42
409.774	0.41
409.979	0.46
410.184	0.43
410.388	0.36
410.593	0.51
410.798	0.5
411.002	0.46
411.207	0.55
411.411	0.52
411.616	0.5
411.82	0.52
412.025	0.6
412.229	0.59
412.434	0.65
412.638	0.61
412.843	0.61
413.047	0.64
413.252	0.62
413.456	0.7
413.66	0.73
413.865	0.69
414.069	0.78
414.273	0.75
414.478	0.77
414.682	0.78
414.886	0.8
415.091	0.78
415.295	0.8
415.499	0.96
415.703	0.9
415.908	1.03
416.112	0.84
416.316	1.07
416.52	1.08
416.724	1.07
416.929	1.09
417.133	1.39
417.337	1.16
417.541	1.25
417.745	1.24
417.949	1.4
418.153	1.38
418.357	1.41
418.561	1.67
418.765	1.54
418.969	1.7
419.173	1.71
419.377	1.68
419.581	1.89
419.785	1.85
419.989	1.85
420.193	1.97
420.397	2.02
420.601	2.15
420.804	2.22
421.008	2.2
421.212	2.3
421.416	2.26
421.62	2.34
421.823	2.36
422.027	2.48
422.231	2.49
422.435	2.53
422.638	2.57
422.842	2.57
423.046	2.7
423.249	2.85
423.453	2.9
423.657	2.99
423.86	2.99
424.064	3.03
424.268	3.18
424.471	3.23
424.675	3.43
424.878	3.41
425.082	3.52
425.285	3.66
425.489	3.54
425.692	3.84
425.896	3.7
426.099	3.91
426.303	3.92
426.506	4.03
426.71	4.26
426.913	4.41
427.116	4.49
427.32	4.47
427.523	4.53
427.726	4.77
427.93	4.8
428.133	5.04
428.336	5.01
428.54	5.17
428.743	5.45
428.946	5.62
429.149	5.56
429.353	5.65
429.556	5.65
429.759	5.62
429.962	5.72
430.165	5.77
430.368	5.51
430.571	5.61
430.775	5.69
430.978	5.63
431.181	5.66
431.384	5.74
431.587	5.74
431.79	6.07
431.993	6.05
432.196	6.1
432.399	6.43
432.602	6.62
432.805	6.49
433.008	6.97
433.211	6.76
433.414	7.11
433.616	7.06
433.819	6.98
434.022	7.15
434.225	7.24
434.428	7.35
434.631	7.6
434.833	7.41
435.036	7.64
435.239	7.76
435.442	7.8
435.645	7.93
435.847	7.99
436.05	8.17
436.253	8.36
436.455	8.3
436.658	8.33
436.861	8.55
437.063	8.55
437.266	8.55
437.468	8.75
437.671	9.06
437.874	9.18
438.076	8.97
438.279	9.39
438.481	9.36
438.684	9.97
438.886	9.7
439.089	9.8
439.291	9.84
439.494	10.11
439.696	10.24
439.899	10.61
440.101	10.93
440.303	11.02
440.506	11.51
440.708	11.41
440.91	11.52
441.113	11.67
441.315	11.95
441.517	11.77
441.72	12.18
441.922	11.84
442.124	11.93
442.326	12.23
442.529	12.37
442.731	12.32
442.933	12.57
443.135	12.45
443.337	12.48
443.539	12.9
443.742	12.66
443.944	13.02
444.146	12.95
444.348	12.96
444.55	12.93
444.752	13.02
444.954	12.99
445.156	12.93
445.358	13.33
445.56	13.44
445.762	13.35
445.964	13.43
446.166	13.29
446.368	13.34
446.57	13.37
446.772	13.16
446.974	12.87
447.175	13.03
447.377	12.9
447.579	13.06
447.781	12.96
447.983	12.78
448.184	12.42
448.386	12.78
448.588	12.24
448.79	12.27
448.991	12.39
449.193	12.55
449.395	11.95
449.597	11.71
449.798	11.69
450	11.39
450.202	11.25
450.403	11.16
450.605	11.25
450.806	10.81
451.008	10.78
451.21	10.55
451.411	10.2
451.613	9.69
451.814	9.89
452.016	9.8
452.217	9.25
452.419	9.33
452.62	9.06
452.821	8.84
453.023	8.76
453.224	8.54
453.426	8.33
453.627	7.65
453.828	7.79
454.03	7.79
454.231	7.71
454.432	7.62
454.634	7.44
454.835	7.28
455.036	7.06
455.238	6.86
455.439	6.68
455.64	6.47
455.841	6.34
456.042	6.42
456.244	6.19
456.445	6.01
456.646	5.77
456.847	5.83
457.048	5.7
457.249	5.75
457.45	5.7
457.651	5.21
457.852	5.12
458.054	4.92
458.255	4.8
458.456	4.92
458.657	4.78
458.858	4.54
459.058	4.47
459.259	4.48
459.46	4.37
459.661	4.36
459.862	4.46
460.063	4.25
460.264	4.23
460.465	3.99
460.666	4.11
460.866	3.88
461.067	3.68
461.268	3.82
461.469	3.66
461.67	3.59
461.87	3.5
462.071	3.46
462.272	3.41
462.473	3.41
462.673	3.54
462.874	3.43
463.075	3.5
463.275	3.45
463.476	3.44
463.676	3.39
463.877	3.32
464.078	3.32
464.278	3.39
464.479	3.24
464.679	3.2
464.88	3.24
465.08	3.13
465.281	3.03
465.481	2.88
465.682	2.75
465.882	2.75
466.083	2.74
466.283	2.69
466.483	2.61
466.684	2.52
466.884	2.44
467.085	2.46
467.285	2.49
467.485	2.35
467.686	2.33
467.886	2.28
468.086	2.26
468.286	2.24
468.487	2.27
468.687	2.17
468.887	2.09
469.087	2.24
469.287	2.11
469.488	2
469.688	2.11
469.888	2.14
470.088	2.08
470.288	2.04
470.488	1.96
470.688	1.87
470.888	1.86
471.088	1.78
471.288	1.87
471.488	1.79
471.688	1.81
471.888	1.75
472.088	1.86
472.288	1.82
472.488	1.72
472.688	1.69
472.888	1.69
473.088	1.71
473.288	1.65
473.488	1.6
473.688	1.75
473.887	1.62
474.087	1.59
474.287	1.6
474.487	1.58
474.687	1.59
474.886	1.58
475.086	1.48
475.286	1.5
475.486	1.54
475.685	1.45
475.885	1.49
476.085	1.48
476.284	1.47
476.484	1.46
476.684	1.42
476.883	1.53
477.083	1.43
477.282	1.39
477.482	1.47
477.681	1.44
477.881	1.33
478.08	1.39
478.28	1.33
478.479	1.41
478.679	1.45
478.878	1.31
479.078	1.31
479.277	1.38
479.477	1.37
479.676	1.35
479.875	1.36
480.075	1.29
480.274	1.36
480.473	1.38
480.673	1.33
480.872	1.37
481.071	1.35
481.271	1.39
481.47	1.34
481.669	1.3
481.868	1.26
482.067	1.35
482.267	1.27
482.466	1.27
482.665	1.27
482.864	1.26
483.063	1.29
483.262	1.36
483.461	1.4
483.661	1.39
483.86	1.29
484.059	1.33
484.258	1.32
484.457	1.33
484.656	1.32
484.855	1.43
485.054	1.25
485.253	1.32
485.452	1.31
485.651	1.38
485.849	1.36
486.048	1.3
486.247	1.33
486.446	1.4
486.645	1.31
486.844	1.36
487.043	1.35
487.241	1.42
487.44	1.38
487.639	1.43
487.838	1.44
488.037	1.39
488.235	1.51
488.434	1.47
488.633	1.36
488.831	1.53
489.03	1.51
489.229	1.5
489.427	1.51
489.626	1.54
489.825	1.54
490.023	1.59
490.222	1.54
490.42	1.56
490.619	1.56
490.817	1.61
491.016	1.59
491.214	1.66
491.413	1.63
491.611	1.62
491.81	1.63
492.008	1.7
492.207	1.73
492.405	1.71
492.604	1.64
492.802	1.79
493	1.8
493.199	1.81
493.397	1.82
493.595	1.87
493.794	1.8
493.992	1.9
494.19	1.89
494.388	1.93
494.587	1.89
494.785	1.94
494.983	1.9
495.181	1.99
495.379	2.02
495.578	2.04
495.776	2.05
495.974	2.08
496.172	2.03
496.37	2.14
496.568	2.18
496.766	2.14
496.964	2.23
497.162	2.2
497.36	2.24
497.558	2.27
497.756	2.33
497.954	2.31
498.152	2.28
498.35	2.39
498.548	2.38
498.746	2.4
498.944	2.36
499.142	2.41
499.34	2.48
499.538	2.57
499.736	2.48
499.933	2.58
500.131	2.54
500.329	2.64
500.527	2.66
500.725	2.73
500.922	2.73
501.12	2.75
501.318	2.77
501.516	2.72
501.713	2.82
501.911	2.83
502.109	2.78
502.306	2.91
502.504	2.84
502.701	2.89
502.899	2.96
503.097	3.08
503.294	2.98
503.492	3.06
503.689	3.1
503.887	3.08
504.084	3.18
504.282	3.14
504.479	3.07
504.677	3.28
504.874	3.22
505.072	3.14
505.269	3.3
505.466	3.33
505.664	3.43
505.861	3.29
506.059	3.35
506.256	3.41
506.453	3.41
506.651	3.57
506.848	3.53
507.045	3.51
507.242	3.51
507.44	3.59
507.637	3.61
507.834	3.58
508.031	3.73
508.229	3.67
508.426	3.62
508.623	3.77
508.82	3.79
509.017	3.72
509.214	3.71
509.411	3.84
509.608	3.8
509.805	3.91
510.003	3.85
510.2	3.9
510.397	4.08
510.594	3.94
510.791	4.02
510.988	4.03
511.184	4.04
511.381	3.94
511.578	4.1
511.775	4.21
511.972	4.1
512.169	4.13
512.366	4.16
512.563	4.2
512.76	4.26
512.956	4.33
513.153	4.21
513.35	4.21
513.547	4.21
513.744	4.32
513.94	4.3
514.137	4.4
514.334	4.35
514.53	4.38
514.727	4.57
514.924	4.48
515.12	4.45
515.317	4.49
515.514	4.42
515.71	4.42
515.907	4.61
516.103	4.62
516.3	4.49
516.497	4.66
516.693	4.63
516.89	4.64
517.086	4.66
517.283	4.7
517.479	4.62
517.676	4.71
517.872	4.77
518.068	4.75
518.265	4.73
518.461	4.71
518.658	4.77
518.854	4.79
519.05	4.83
519.247	4.9
519.443	4.84
519.639	4.97
519.836	4.84
520.032	4.82
520.228	4.92
520.424	4.95
520.621	4.99
520.817	4.98
521.013	4.97
521.209	5.07
521.405	5.11
521.601	5.01
521.798	5.04
521.994	5.05
522.19	5
522.386	5.04
522.582	5.1
522.778	5.16
522.974	5.06
523.17	5.07
523.366	5.08
523.562	5.14
523.758	5.13
523.954	5
524.15	5.16
524.346	5.22
524.542	5.13
524.738	5.16
524.934	5.25
525.129	5.28
525.325	5.15
525.521	5.21
525.717	5.38
525.913	5.23
526.109	5.23
526.304	5.32
526.5	5.29
526.696	5.35
526.892	5.3
527.087	5.42
527.283	5.4
527.479	5.35
527.674	5.22
527.87	5.37
528.066	5.36
528.261	5.38
528.457	5.36
528.653	5.48
528.848	5.4
529.044	5.47
529.239	5.36
529.435	5.43
529.63	5.33
529.826	5.42
530.021	5.42
530.217	5.42
530.412	5.36
530.608	5.44
530.803	5.48
530.999	5.33
531.194	5.45
531.389	5.51
531.585	5.46
531.78	5.52
531.975	5.5
532.171	5.57
532.366	5.49
532.561	5.54
532.757	5.5
532.952	5.62
533.147	5.43
533.342	5.59
533.538	5.51
533.733	5.65
533.928	5.34
534.123	5.54
534.318	5.6
534.513	5.5
534.709	5.65
534.904	5.62
535.099	5.66
535.294	5.58
535.489	5.69
535.684	5.58
535.879	5.53
536.074	5.58
536.269	5.62
536.464	5.66
536.659	5.63
536.854	5.62
537.049	5.69
537.244	5.62
537.439	5.62
537.634	5.62
537.828	5.7
538.023	5.7
538.218	5.63
538.413	5.55
538.608	5.7
538.803	5.66
538.997	5.61
539.192	5.71
539.387	5.64
539.582	5.64
539.776	5.57
539.971	5.66
540.166	5.75
540.36	5.66
540.555	5.72
540.75	5.69
540.944	5.71
541.139	5.68
541.334	5.69
541.528	5.74
541.723	5.78
541.917	5.71
542.112	5.68
542.306	5.6
542.501	5.69
542.695	5.65
542.89	5.65
543.084	5.66
543.279	5.65
543.473	5.75
543.668	5.72
543.862	5.62
544.056	5.62
544.251	5.71
544.445	5.74
544.64	5.76
544.834	5.51
545.028	5.49
545.222	5.71
545.417	5.83
545.611	5.76
545.805	5.73
546	5.58
546.194	5.71
546.388	5.75
546.582	5.68
546.776	5.71
546.97	5.76
547.165	5.73
547.359	5.66
547.553	5.65
547.747	5.7
547.941	5.83
548.135	5.71
548.329	5.79
548.523	5.77
548.717	5.69
548.911	5.67
549.105	5.68
549.299	5.75
549.493	5.78
549.687	5.66
549.881	5.75
550.075	5.73
550.269	5.63
550.463	5.81
550.657	5.81
550.85	5.74
551.044	5.66
551.238	5.78
551.432	5.74
551.626	5.79
551.82	5.8
552.013	5.66
552.207	5.82
552.401	5.81
552.594	5.72
552.788	5.67
552.982	5.71
553.176	5.71
553.369	5.89
553.563	5.8
553.756	5.72
553.95	5.8
554.144	5.71
554.337	5.73
554.531	5.63
554.724	5.76
554.918	5.84
555.111	5.72
555.305	5.76
555.498	5.75
555.692	5.8
555.885	5.75
556.079	5.7
556.272	5.75
556.466	5.78
556.659	5.73
556.852	5.77
557.046	5.67
557.239	5.73
557.432	5.69
557.626	5.76
557.819	5.83
558.012	5.79
558.206	5.81
558.399	5.76
558.592	5.76
558.785	5.73
558.979	5.72
559.172	5.74
559.365	5.8
559.558	5.72
559.751	5.67
559.944	5.78
560.138	5.72
560.331	5.79
560.524	5.79
560.717	5.77
560.91	5.75
561.103	5.8
561.296	5.68
561.489	5.76
561.682	5.79
561.875	5.78
562.068	5.84
562.261	5.71
562.454	5.84
562.647	5.76
562.84	5.79
563.032	5.77
563.225	5.7
563.418	5.75
563.611	5.74
563.804	5.75
563.997	5.64
564.19	5.57
564.382	5.81
564.575	5.78
564.768	5.68
564.961	5.76
565.153	5.71
565.346	5.69
565.539	5.79
565.731	5.8
565.924	5.87
566.117	5.86
566.309	5.77
566.502	5.7
566.695	5.67
566.887	5.78
567.08	5.73
567.272	5.8
567.465	5.68
567.657	5.8
567.85	5.69
568.042	5.73
568.235	5.77
568.427	5.62
568.62	5.73
568.812	5.69
569.005	5.74
569.197	5.65
569.389	5.75
569.582	5.76
569.774	5.76
569.966	5.62
570.159	5.66
570.351	5.59
570.543	5.68
570.736	5.67
570.928	5.59
571.12	5.72
571.312	5.63
571.505	5.51
571.697	5.71
571.889	5.64
572.081	5.69
572.273	5.62
572.465	5.77
572.658	5.71
572.85	5.67
573.042	5.71
573.234	5.62
573.426	5.68
573.618	5.66
573.81	5.68
574.002	5.59
574.194	5.72
574.386	5.59
574.578	5.56
574.77	5.63
574.962	5.61
575.154	5.52
575.346	5.59
575.538	5.53
575.729	5.61
575.921	5.71
576.113	5.64
576.305	5.67
576.497	5.67
576.689	5.53
576.88	5.54
577.072	5.63
577.264	5.59
577.456	5.6
577.647	5.58
577.839	5.68
578.031	5.56
578.223	5.57
578.414	5.52
578.606	5.57
578.798	5.61
578.989	5.57
579.181	5.62
579.372	5.57
579.564	5.6
579.755	5.55
579.947	5.51
580.139	5.64
580.33	5.42
580.522	5.55
580.713	5.43
580.905	5.5
581.096	5.55
581.287	5.53
581.479	5.48
581.67	5.56
581.862	5.46
582.053	5.51
582.244	5.4
582.436	5.55
582.627	5.4
582.818	5.47
583.01	5.4
583.201	5.48
583.392	5.41
583.583	5.38
583.775	5.29
583.966	5.4
584.157	5.43
584.348	5.46
584.54	5.43
584.731	5.43
584.922	5.33
585.113	5.31
585.304	5.41
585.495	5.36
585.686	5.45
585.877	5.46
586.068	5.49
586.259	5.34
586.45	5.4
586.641	5.38
586.832	5.41
587.023	5.31
587.214	5.31
587.405	5.36
587.596	5.3
587.787	5.22
587.978	5.35
588.169	5.29
588.36	5.22
588.551	5.33
588.742	5.27
588.932	5.32
589.123	5.12
589.314	5.36
589.505	5.25
589.696	5.25
589.886	5.21
590.077	5.2
590.268	5.2
590.458	5.12
590.649	5.1
590.84	5.24
591.03	5.21
591.221	5.21
591.412	5.13
591.602	5.32
591.793	5.18
591.984	5.18
592.174	5.12
592.365	5.28
592.555	5.04
592.746	5.11
592.936	5.14
593.127	5.13
593.317	5.12
593.508	5.13
593.698	5.05
593.889	5.14
594.079	5.05
594.269	4.96
594.46	5.04
594.65	5.04
594.84	5.02
595.031	4.92
595.221	4.98
595.411	5.02
595.602	5.03
595.792	5.03
595.982	4.95
596.172	5.03
596.363	4.93
596.553	4.92
596.743	4.9
596.933	4.93
597.123	4.89
597.314	4.81
597.504	4.84
597.694	4.94
597.884	4.88
598.074	4.88
598.264	4.84
598.454	4.84
598.644	4.82
598.834	4.83
599.024	4.73
599.214	4.8
599.404	4.86
599.594	4.79
599.784	4.74
599.974	4.88
600.164	4.79
600.354	4.73
600.544	4.68
600.734	4.74
600.924	4.74
601.114	4.69
601.303	4.6
601.493	4.63
601.683	4.72
601.873	4.69
602.063	4.61
602.252	4.68
602.442	4.59
602.632	4.6
602.821	4.55
603.011	4.62
603.201	4.59
603.39	4.58
603.58	4.52
603.77	4.57
603.959	4.6
604.149	4.54
604.339	4.56
604.528	4.58
604.718	4.59
604.907	4.52
605.097	4.43
605.286	4.45
605.476	4.5
605.665	4.47
605.855	4.44
606.044	4.5
606.234	4.5
606.423	4.41
606.612	4.4
606.802	4.36
606.991	4.44
607.181	4.44
607.37	4.38
607.559	4.16
607.749	4.32
607.938	4.27
608.127	4.33
608.316	4.32
608.506	4.23
608.695	4.34
608.884	4.26
609.073	4.26
609.263	4.36
609.452	4.31
609.641	4.17
609.83	4.14
610.019	4.25
610.208	4.2
610.397	4.11
610.586	4.25
610.775	4.13
610.965	4.21
611.154	4.05
611.343	4.15
611.532	4.08
611.721	4.14
611.91	4.09
612.099	4.05
612.287	4
612.476	3.93
612.665	4.06
612.854	3.98
613.043	3.98
613.232	3.95
613.421	3.94
613.61	4.01
613.798	3.93
613.987	4.01
614.176	3.91
614.365	3.9
614.554	3.96
614.742	3.96
614.931	3.84
615.12	4.01
615.309	3.91
615.497	3.81
615.686	3.76
615.875	3.81
616.063	3.8
616.252	3.82
616.44	3.86
616.629	3.82
616.818	3.77
617.006	3.76
617.195	3.75
617.383	3.74
617.572	3.7
617.76	3.7
617.949	3.71
618.137	3.71
618.326	3.78
618.514	3.54
618.703	3.54
618.891	3.68
619.079	3.6
619.268	3.65
619.456	3.56
619.644	3.67
619.833	3.52
620.021	3.52
620.209	3.55
620.398	3.53
620.586	3.48
620.774	3.58
620.962	3.54
621.151	3.63
621.339	3.46
621.527	3.45
621.715	3.43
621.903	3.41
622.092	3.33
622.28	3.47
622.468	3.3
622.656	3.39
622.844	3.36
623.032	3.47
623.22	3.29
623.408	3.42
623.596	3.34
623.784	3.43
623.972	3.3
624.16	3.27
624.348	3.34
624.536	3.37
624.724	3.23
624.912	3.31
625.1	3.34
625.288	3.23
625.476	3.2
625.664	3.3
625.851	3.2
626.039	3.24
626.227	3.19
626.415	3.16
626.603	3.15
626.79	3.18
626.978	3.19
627.166	3.14
627.354	3.16
627.541	3.04
627.729	3
627.917	3.18
628.104	3.14
628.292	3.1
628.48	3.14
628.667	3.03
628.855	3.08
629.042	3.07
629.23	3.01
629.418	2.99
629.605	3
629.793	2.97
629.98	3.01
630.168	2.94
630.355	2.93
630.543	2.99
630.73	2.87
630.917	2.96
631.105	3
631.292	2.91
631.48	2.88
631.667	2.95
631.854	2.88
632.042	2.85
632.229	2.76
632.416	2.87
632.604	2.86
632.791	2.78
632.978	2.88
633.165	2.82
633.353	2.85
633.54	2.85
633.727	2.7
633.914	2.68
634.101	2.65
634.289	2.82
634.476	2.68
634.663	2.67
634.85	2.68
635.037	2.68
635.224	2.61
635.411	2.72
635.598	2.66
635.785	2.63
635.972	2.64
636.159	2.64
636.346	2.61
636.533	2.55
636.72	2.55
636.907	2.55
637.094	2.56
637.281	2.51
637.468	2.53
637.655	2.57
637.842	2.54
638.029	2.49
638.215	2.51
638.402	2.45
638.589	2.45
638.776	2.48
638.963	2.39
639.149	2.5
639.336	2.48
639.523	2.42
639.709	2.42
639.896	2.42
640.083	2.45
640.27	2.41
640.456	2.41
640.643	2.41
640.829	2.28
641.016	2.34
641.203	2.27
641.389	2.34
641.576	2.34
641.762	2.3
641.949	2.23
642.135	2.27
642.322	2.31
642.508	2.17
642.695	2.23
642.881	2.23
643.068	2.17
643.254	2.23
643.441	2.27
643.627	2.28
643.813	2.14
644	2.27
644.186	2.16
644.372	2.11
644.559	2.18
644.745	2.1
644.931	2.06
645.118	2.18
645.304	2.1
645.49	2.08
645.676	2.11
645.862	2.12
646.049	2.13
646.235	2.08
646.421	2.19
646.607	2.12
646.793	2
646.979	1.97
647.165	2.06
647.352	2.04
647.538	2.05
647.724	1.99
647.91	1.98
648.096	2
648.282	1.98
648.468	1.93
648.654	1.95
648.84	1.97
649.026	1.98
649.212	1.9
649.397	1.89
649.583	1.87
649.769	1.96
649.955	1.9
650.141	1.88
650.327	1.92
650.513	1.84
650.698	1.86
650.884	1.77
651.07	1.87
651.256	1.87
651.442	1.81
651.627	1.73
651.813	1.85
651.999	1.73
652.184	1.78
652.37	1.77
652.556	1.76
652.741	1.8
652.927	1.69
653.113	1.73
653.298	1.74
653.484	1.71
653.669	1.68
653.855	1.73
654.04	1.76
654.226	1.72
654.412	1.67
654.597	1.65
654.782	1.67
654.968	1.69
655.153	1.66
655.339	1.64
655.524	1.55
655.71	1.73
655.895	1.62
656.08	1.61
656.266	1.68
656.451	1.65
656.636	1.56
656.822	1.62
657.007	1.58
657.192	1.54
657.378	1.5
657.563	1.57
657.748	1.56
657.933	1.58
658.118	1.51
658.304	1.48
658.489	1.56
658.674	1.58
658.859	1.47
659.044	1.51
659.229	1.48
659.414	1.49
659.599	1.45
659.785	1.44
659.97	1.47
660.155	1.49
660.34	1.5
660.525	1.51
660.71	1.43
660.895	1.48
661.08	1.43
661.264	1.4
661.449	1.5
661.634	1.48
661.819	1.44
662.004	1.45
662.189	1.36
662.374	1.36
662.559	1.32
662.743	1.34
662.928	1.35
663.113	1.33
663.298	1.35
663.483	1.32
663.667	1.33
663.852	1.32
664.037	1.42
664.221	1.33
664.406	1.38
664.591	1.38
664.775	1.34
664.96	1.35
665.145	1.28
665.329	1.32
665.514	1.29
665.698	1.25
665.883	1.18
666.068	1.28
666.252	1.26
666.437	1.26
666.621	1.21
666.806	1.29
666.99	1.23
667.174	1.2
667.359	1.27
667.543	1.24
667.728	1.2
667.912	1.17
668.096	1.25
668.281	1.16
668.465	1.23
668.649	1.18
668.834	1.09
669.018	1.2
669.202	1.18
669.387	1.13
669.571	1.25
669.755	1.16
669.939	1.13
670.124	1.13
670.308	1.17
670.492	1.21
670.676	1.15
670.86	1.08
671.044	1.07
671.228	1.2
671.413	1.05
671.597	1.02
671.781	1.06
671.965	1.11
672.149	1.07
672.333	1.05
672.517	1.07
672.701	1.07
672.885	1.04
673.069	0.98
673.253	1.13
673.437	1.08
673.621	0.96
673.804	1.01
673.988	1.06
674.172	1
674.356	0.99
674.54	1
674.724	1.12
674.908	1.02
675.091	1.07
675.275	1
675.459	1.02
675.643	1.03
675.826	1.01
676.01	0.93
676.194	0.97
676.377	1.03
676.561	0.99
676.745	0.97
676.928	1.02
677.112	1.01
677.296	0.92
677.479	0.94
677.663	0.94
677.846	1.01
678.03	0.97
678.213	0.89
678.397	0.97
678.58	0.93
678.764	0.88
678.947	0.87
679.131	0.89
679.314	0.92
679.498	0.88
679.681	0.97
679.865	0.99
680.048	0.86
680.231	0.85
680.415	0.84
680.598	0.91
680.781	0.83
680.965	0.88
681.148	0.88
681.331	0.87
681.514	0.87
681.698	0.85
681.881	0.86
682.064	0.86
682.247	0.9
682.43	0.73
682.614	0.84
682.797	0.93
682.98	0.88
683.163	0.79
683.346	0.89
683.529	0.82
683.712	0.83
683.895	0.85
684.078	0.75
684.261	0.81
684.444	0.88
684.627	0.84
684.81	0.77
684.993	0.77
685.176	0.85
685.359	0.72
685.542	0.73
685.725	0.82
685.908	0.83
686.091	0.75
686.274	0.79
686.457	0.8
686.639	0.75
686.822	0.75
687.005	0.75
687.188	0.79
687.371	0.8
687.553	0.81
687.736	0.78
687.919	0.84
688.102	0.79
688.284	0.79
688.467	0.7
688.65	0.7
688.832	0.67
689.015	0.7
689.197	0.66
689.38	0.84
689.563	0.75
689.745	0.64
689.928	0.72
690.11	0.68
690.293	0.69
690.475	0.66
690.658	0.74
690.84	0.68
691.023	0.67
691.205	0.65
691.388	0.71
691.57	0.7
691.752	0.67
691.935	0.54
692.117	0.64
692.3	0.67
692.482	0.62
692.664	0.62
692.847	0.62
693.029	0.74
693.211	0.69
693.393	0.6
693.576	0.65
693.758	0.64
693.94	0.63
694.122	0.61
694.304	0.59
694.487	0.56
694.669	0.65
694.851	0.53
695.033	0.59
695.215	0.59
695.397	0.59
695.579	0.64
695.761	0.57
695.943	0.55
696.125	0.68
696.308	0.66
696.49	0.46
696.671	0.69
696.853	0.59
697.035	0.8
697.217	0.59
697.399	0.65
697.581	0.57
697.763	0.63
697.945	0.57
698.127	0.59
698.309	0.64
698.491	0.61
698.672	0.56
698.854	0.62
699.036	0.67
699.218	0.53
699.399	0.63
699.581	0.61
699.763	0.53
699.945	0.51
700.126	0.45
700.308	0.56
700.49	0.52
700.671	0.45
700.853	0.51
701.035	0.5
701.216	0.53
701.398	0.42
701.579	0.58
701.761	0.57
701.943	0.54
702.124	0.47
702.306	0.5
702.487	0.68
702.669	0.54
702.85	0.52
703.031	0.49
703.213	0.64
703.394	0.53
703.576	0.53
703.757	0.61
703.938	0.58
704.12	0.72
704.301	0.5
704.483	0.46
704.664	0.57
704.845	0.66
705.026	0.57
705.208	0.46
705.389	0.46
705.57	0.52
705.751	0.45
705.933	0.48
706.114	0.61
706.295	0.48
706.476	0.38
706.657	0.59
706.838	0.55
707.02	0.56
707.201	0.44
707.382	0.43
707.563	0.5
707.744	0.38
707.925	0.42
708.106	0.43
708.287	0.53
708.468	0.58
708.649	0.44
708.83	0.56
709.011	0.43
709.192	0.49
709.373	0.42
709.554	0.44
709.734	0.55
709.915	0.54
710.096	0.4
710.277	0.31
710.458	0.38
710.639	0.45
710.819	0.38
711	0.44
711.181	0.46
711.362	0.57
711.542	0.49
711.723	0.43
711.904	0.49
712.085	0.39
712.265	0.41
712.446	0.28
712.627	0.4
712.807	0.44
712.988	0.42
713.168	0.29
713.349	0.49
713.53	0.32
713.71	0.36
713.891	0.35
714.071	0.39
714.252	0.36
714.432	0.42
714.613	0.27
714.793	0.41
714.974	0.5
715.154	0.46
715.334	0.49
715.515	0.47
715.695	0.29
715.876	0.38
716.056	0.25
716.236	0.39
716.417	0.39
716.597	0.33
716.777	0.51
716.957	0.42
717.138	0.41
717.318	0.41
717.498	0.29
717.678	0.39
717.859	0.47
718.039	0.25
718.219	0.38
718.399	0.4
718.579	0.31
718.759	0.31
718.939	0.4
719.12	0.35
719.3	0.39
719.48	0.27
719.66	0.22
719.84	0.45
720.02	0.34
720.2	0.31
720.38	0.39
720.56	0.5
720.74	0.26
720.92	0.42
721.1	0.45
721.279	0.49
721.459	0.32
721.639	0.25
721.819	0.28
721.999	0.26
722.179	0.38
722.359	0.25
722.538	0.35
722.718	0.37
722.898	0.32
723.078	0.33
723.257	0.33
723.437	0.36
723.617	0.32
723.797	0.4
723.976	0.33
724.156	0.43
724.336	0.43
724.515	0.45
724.695	0.2
724.874	0.33
725.054	0.37
725.234	0.24
725.413	0.4
725.593	0.38
725.772	0.32
725.952	0.37
726.131	0.2
726.311	0.38
726.49	0.37
726.67	0.29
726.849	0.35
727.028	0.34
727.208	0.19
727.387	0.39
727.567	0.2
727.746	0.33
727.925	0.35
728.105	0.23
728.284	0.22
728.463	0.19
728.643	0.46
728.822	0.26
729.001	0.21
729.18	0.27
729.359	0.34
729.539	0.34
729.718	0.28
729.897	0.34
730.076	0.34
730.255	0.22
730.434	0.31
730.614	0.27
730.793	0.44
730.972	0.32
731.151	0.29
731.33	0.47
731.509	0.46
731.688	0.29
731.867	0.36
732.046	0.17
732.225	0.54
732.404	0.28
732.583	0.28
732.762	0.29
732.941	0.37
733.12	0.32
733.298	0.23
733.477	0.45
733.656	0.14
733.835	0.17
734.014	0.4
734.193	0.23
734.371	0.33
734.55	0.38
734.729	0.16
734.908	0.39
735.086	0.31
735.265	0.39
735.444	0.18
735.623	0.25
735.801	0.27
735.98	0.24
736.159	0.27
736.337	0.37
736.516	0.34
736.694	0.4
736.873	0.18
737.052	0.43
737.23	0.41
737.409	0.15
737.587	0.48
737.766	0.05
737.944	0.22
738.123	0.36
738.301	0.38
738.479	0.25
738.658	0.31
738.836	0.11
739.015	0.23
739.193	0.33
739.371	0.17
739.55	0.29
739.728	0.19
739.906	0.4
740.085	0.46
740.263	0.24
740.441	0.08
740.62	0.6
740.798	0.42
740.976	0.18
741.154	0.17
741.332	0.5
741.511	0.31
741.689	0.32
741.867	0.31
742.045	0.34
742.223	0.31
742.401	0.22
742.579	0.22
742.757	0.37
742.935	0.06
743.114	0.21
743.292	0.29
743.47	0.36
743.648	0.25
743.826	0.18
744.004	0.34
744.181	0.36
744.359	0.22
744.537	0.28
744.715	0.19
744.893	0.3
745.071	0.3
745.249	0.18
745.427	0.22
745.605	0.3
745.782	0.34
745.96	0.29
746.138	0.32
746.316	0.43
746.493	0.33
746.671	0.3
746.849	0.24
747.027	0.43
747.204	0.25
747.382	0.27
747.56	0.08
747.737	0.27
747.915	0.23
748.093	0.3
748.27	0.21
748.448	0.27
748.625	0.13
748.803	0.21
748.98	0.15
749.158	0.4
749.335	0.31
749.513	0.28
749.69	0.19
749.868	0.23
750.045	0.31
750.223	0.2
750.4	0.07
750.578	0.51
750.755	0.28
750.932	0.09
751.11	0.36
751.287	0.14
751.464	0.53
751.642	0.1
751.819	0.31
751.996	0.2
752.173	0.18
752.351	0.19
752.528	0.32
752.705	0.14
752.882	0.19
753.06	0.27
753.237	0.32
753.414	0.37
753.591	0.56
753.768	0.32
753.945	0.15
754.122	0.19
754.299	0.32
754.476	0.18
754.654	0.2
754.831	0.29
755.008	0.38
755.185	0.21
755.362	0.12
755.539	0.23
755.716	0.12
755.892	0.24
756.069	0.3
756.246	0.12
756.423	0.19
756.6	0.36
756.777	0.15
756.954	0.31
757.131	0.26
757.307	0.11
757.484	0.12
757.661	0.24
757.838	0.26
758.015	0.14
758.191	0.33
758.368	0.18
758.545	0.47
758.721	0.31
758.898	0.02
759.075	0.29
759.251	0.3
759.428	0.28
759.605	0.05
759.781	0.08
759.958	0.28
760.134	0.31
760.311	0.18
760.488	0.44
760.664	0.43
760.841	0.13
761.017	0.09
761.194	0.4
761.37	0.31
761.547	0.32
761.723	0.19
761.899	0.37
762.076	0.26
762.252	0.16
762.429	0.09
762.605	0.27
762.781	0.25
762.958	0.32
763.134	0.14
763.31	0.26
763.486	0.39
763.663	0.02
763.839	0.35
764.015	0.06
764.191	0.15
764.368	0.14
764.544	0.11
764.72	0.22
764.896	0.32
765.072	0.28
765.248	0.3
765.425	0.14
765.601	0.32
765.777	0.21
765.953	0.01
766.129	0.06
766.305	0.12
766.481	0.31
766.657	0.26
766.833	0.47
767.009	0.02
767.185	0.11
767.361	0.2
767.537	-0.02
767.713	0.36
767.889	0.15
768.065	0.22
768.24	0.32
768.416	0.35
768.592	0.07
768.768	0.24
768.944	0.15
769.12	0.15
769.295	0.14
769.471	0.16
769.647	0.19
769.823	0.42
769.998	0.16
770.174	0.01
770.35	0.62
770.525	0.41
770.701	0.3
770.877	0.18
771.052	0.05
771.228	0.3
771.403	0.16
771.579	0.29
771.755	0.49
771.93	0.17
772.106	0.25
772.281	-0.18
772.457	0.17
772.632	0.31
772.808	0.14
772.983	0.07
773.159	0.1
773.334	0.47
773.509	0.22
773.685	0.1
773.86	0.55
774.036	0.41
774.211	0.24
774.386	0.14
774.562	0.14
774.737	0.44
774.912	0.11
775.087	0.15
775.263	0.22
775.438	0.29
775.613	0.16
775.788	0.17
775.964	0.35
776.139	0.78
776.314	-0.05
776.489	0.28
776.664	0.16
776.839	0.13
777.014	0.31
777.19	0.26
777.365	0.43
777.54	0.52
777.715	0.24
777.89	0.28
778.065	0.19
778.24	0.28
778.415	0.38
778.59	-0
778.765	-0
778.94	0.43
779.115	0.07
779.289	0.05
779.464	0.32
779.639	0.29
779.814	-0.14
779.989	0.13
780.164	0.36
780.339	0.25
780.513	0.04
780.688	0.06
780.863	0.2
781.038	0.48
781.212	0.11
781.387	0.15
781.562	0.52
781.737	0.1
781.911	0.4
782.086	-0.12
782.261	0.17
782.435	0.45
782.61	0.2
782.784	-0.01
782.959	0.62
783.134	0.12
783.308	0.06
783.483	0.06
783.657	0.66
783.832	0.56
784.006	-0.16
784.181	0.22
784.355	0.34
784.53	0.03
784.704	-0
784.878	0.39
785.053	0.61
785.227	0.44
785.402	0.7
785.576	-0.04
785.75	0.18
785.925	0.21
786.099	0.25
786.273	0.23
786.448	0.45
786.622	0.23
786.796	0.22
786.97	0.46
787.145	0.91
787.319	0.01
787.493	0.01
787.667	-0.19
787.841	0.28
788.015	0.59
788.19	0
788.364	0.12
788.538	0.53
788.712	0.59
788.886	0.17
789.06	0.38
789.234	0.47
789.408	-0
789.582	0.19
789.756	0.14
789.93	0.22
790.104	0.06
790.278	0.24
790.452	-0.14
790.626	0.39
790.8	0.14
790.973	0.58
791.147	0.54
791.321	0.59
791.495	0.56
791.669	0.2
791.843	0.15
792.016	0.45
792.19	0.74
792.364	0.03
792.538	0.86
792.711	0.4
792.885	0.37
793.059	-0.05
793.233	-0.32
793.406	0.57
793.58	0.47
793.754	0.35
793.927	0.32
794.101	0.54
794.274	0.15
794.448	0.66
794.622	-0.03
794.795	0.46
794.969	0.15
795.142	0.35
795.316	0.09
795.489	0.04
795.663	0.73
795.836	0.51
796.009	-0.1
796.183	0.77
796.356	0.6
796.53	0.35
796.703	0
796.876	0.9
797.05	0.12
797.223	0.11
797.396	0.37
797.57	0.1
797.743	0.64
797.916	0.16
798.09	0.22
798.263	0.57
798.436	0.3
798.609	0.14
798.782	0.19
798.956	0.52
799.129	0.18
799.302	0.06
799.475	-0.19
799.648	0.23
799.821	-0.13
799.994	0.16
800.167	-0.07
800.34	0.26
800.514	0.33
800.687	0.48
800.86	-0.07
801.033	0.63
801.206	0.08
801.379	-0
801.551	0.53
801.724	0.31
801.897	0.66
802.07	0.28
802.243	-0
802.416	0.33
802.589	-0.1
802.762	0.5
802.935	0.29
803.107	0.68
803.28	0.6
803.453	0.65
803.626	0.27
803.798	0.19
803.971	-0.07
804.144	0.45
804.317	0.5
804.489	0.35
804.662	0.55
804.835	0.34
805.007	-0.26
805.18	0.97
805.353	0.59
805.525	0.05
805.698	0.14
805.87	0.52
806.043	0.52
806.215	-0.31
806.388	0.08
806.56	0.59
806.733	0.61
806.905	0.67
807.078	0.06
807.25	0.44
807.423	0.32
807.595	0.42
807.768	-0.02
807.94	0.73
808.112	0.63
808.285	0.35
808.457	0.09
808.629	0.55
808.802	0.36
808.974	0.26
809.146	0.2
809.318	-0
809.491	0.52
809.663	0.63
809.835	0.15
810.007	0.43
810.18	0.16
810.352	0.17
810.524	0.08
810.696	0.5
810.868	0.45
811.04	0.56
811.212	0.49
811.384	0.56
811.556	0.48
811.728	0.28
811.901	1.35
812.073	0.3
812.245	0.71
812.417	0.4
812.589	-0.39
812.76	0.17
812.932	0.25
813.104	0.82
813.276	0.4
813.448	0.74
813.62	0.27
813.792	0.25
813.964	0.44
814.136	0.46
814.307	0.15
814.479	-0.04
814.651	0.1
814.823	1.05
814.995	0.26
815.166	-0.03
815.338	-0.11
815.51	-0.16
815.681	0.91
815.853	0.19
816.025	0.02
816.196	1.08
816.368	0.88
816.54	-0.2
816.711	-0.23
816.883	0.74
817.054	1.64
817.226	-0.23
817.398	0.67
817.569	0.49
817.741	0.52
817.912	0.44
818.084	0.18
818.255	0.41
818.426	0.07
818.598	0.86
818.769	0.01
818.941	0.89
819.112	1.21
819.283	0.63
819.455	0.17
819.626	0.53
819.798	1
819.969	0.8
820.14	0.52
820.311	0.14
820.483	0.21
820.654	0.5
820.825	0.35
820.996	0.09
821.168	-0.09
821.339	0.46
821.51	0.14
821.681	0
821.852	0.57
822.023	-0.36
822.195	-0.09
822.366	0.61
822.537	0.31
822.708	0.4
822.879	-0.27
823.05	1.37
823.221	0.56
823.392	0.75
823.563	0.65
823.734	0.84
823.905	0.12
824.076	0.13
824.247	-0.05
824.418	0.32
824.589	1.03
824.759	0.13
824.93	0.43
825.101	-0.38
825.272	1.2
825.443	1.15
825.614	0.71
825.784	-0.52
825.955	1.11
826.126	1.03
826.297	1.05
826.467	1.42
826.638	1.41
826.809	-0.14
826.98	0.03
827.15	0.82
827.321	0.96
827.492	0.99
827.662	0.88
827.833	0.98
828.003	1.29
828.174	-0.03
828.345	-0.59
828.515	1.34
828.686	0.85
828.856	-0.28
829.027	-0.11
829.197	0.9
829.368	0.8
829.538	-0.2
829.709	-0.01
829.879	0.35
830.049	0.68
830.22	0.15
830.39	0.56
830.56	1.37
830.731	0.42
830.901	-0.44
831.072	0.12
831.242	0.55
831.412	0.89
831.582	-0.01
831.753	-0.58
831.923	1.28
832.093	0.55
832.263	-0.19
832.434	-0.07
832.604	-0.36
832.774	0.9
832.944	0.33
833.114	0.01
833.284	0.6
833.454	0.19
833.624	-0.02
833.795	0.48
833.965	1.46
834.135	1.55
834.305	-0.53
834.475	-0.41
834.645	0.96
834.815	0.25
834.985	0.18
835.155	0.13
835.325	0.78
835.494	1.5
835.664	-0.31
835.834	0.07
836.004	0.61
836.174	0.7
836.344	-0.11
836.514	-0.6
836.684	0.03
836.853	0.18
837.023	1.05
837.193	-0.1
837.363	0.93
837.532	1.26
837.702	0.32
837.872	-0.39
838.041	1.34
838.211	2.22
838.381	-0.34
838.55	0.19
838.72	3.22
838.89	1.8
839.059	-0.11
839.229	-0.41
839.398	1.48
839.568	0.21
839.738	-0.01
839.907	2.15
840.077	0.85
840.246	0.05
840.416	0.6
840.585	-0.3
840.755	2.11
840.924	1.71
841.093	-0.28
841.263	0.44
841.432	0.87
841.602	-0.08
841.771	0.06
841.94	0.14
842.11	2.7
842.279	1.65
842.448	0.11
842.617	-0.03
842.787	1.89
842.956	-0.7
843.125	0.5
843.294	0.62
843.464	1.76
843.633	1.05
843.802	-0.26
843.971	0.26
844.14	1.5
844.309	1.16
844.479	-1.18
844.648	-0.22
844.817	0.7
844.986	0.94
845.155	-0.12
845.324	-0.07
845.493	0.53
845.662	-0.72
845.831	0.17
846	1.33
846.169	0.65
846.338	2.52
846.507	0.55
846.676	0.76
846.844	0.29
847.013	1.07
847.182	-0.19
847.351	-0.29
847.52	0.41
847.689	0.52
847.858	1.08
848.026	-0.34
848.195	0.87
848.364	-0.27
848.533	-0.66
848.701	-0.12
848.87	0.16
849.039	0.95
849.207	1.48
849.376	2.45
849.545	2.01
849.713	0.45
849.882	0.36
850.051	0.52
850.219	0.61
850.388	0.27
850.556	-0.51
850.725	0.41
850.893	1.53
851.062	-0.19
851.23	0.55
851.399	-1.04
851.567	0.65
851.736	-0.89
851.904	-0.13
852.073	0.61
852.241	1.09
852.41	0.53
852.578	0.32
852.746	-0.2
852.915	1.69
853.083	0.83
853.251	-1.21
853.42	-0.02
853.588	1.6
853.756	2.49
853.924	-0.17
854.093	0.59
854.261	0.14
854.429	-0.5
854.597	0.42
854.765	-1.31
854.934	1.21
855.102	2.07
855.27	0.55
855.438	1.12
855.606	1.75
855.774	1.91
855.942	-0.85
856.11	-1.26
856.278	0.79
856.446	1.69
856.614	0.95
856.782	-0.2
856.95	1.58
857.118	1.18
857.286	1.39
857.454	-0.5
857.622	2.38
857.79	0.84
857.958	0.15
858.126	0.57
858.294	-1.54
858.462	0.84
858.629	-0.42
858.797	-0.5
858.965	1.16
859.133	0.95
859.301	-0.32
859.468	0.67
859.636	-0
859.804	2.77
859.971	2.17
860.139	-0.4
860.307	2
860.474	0.7
860.642	-0.43
860.81	-1.11
860.977	1.47
861.145	2.53
861.313	0.36
861.48	-0.64
861.648	1.65
861.815	0.58
861.983	-1.07
862.15	0.39
862.318	1.99
862.485	1.26
862.653	0.54
862.82	0.24
862.988	1.63
863.155	-0.59
863.322	-0.67
863.49	0.63
863.657	-0.46
863.824	2.5
863.992	1.3
864.159	1.89
864.326	3.36
864.494	-0.1
864.661	3.14
864.828	-0.17
864.996	3.39
865.163	2.58
865.33	-0.44
865.497	-0.03
865.664	-0.35
865.832	-0.15
865.999	0.47
866.166	0.38
866.333	1.09
866.5	-1.02
866.667	0.37
866.834	0.09
867.001	3.24
867.168	-1.36
867.335	1.41
867.502	0.37
867.669	2.07
867.836	4.24
868.003	1.15
868.17	2.88
868.337	2.29
868.504	3.31
868.671	-0.55
868.838	-0.51
869.005	0.8
869.172	0.86
869.339	1
869.505	1.01
869.672	1.41
869.839	1.46
870.006	1.89
870.173	-0.27
870.339	1.99
870.506	4.45
870.673	-0.92
870.84	0.55
871.006	2.69
871.173	1.32
871.34	1.18
871.506	-0.42
871.673	0.97
871.839	-0.7
872.006	1.34
872.173	0.8
872.339	1.99
872.506	1.87
872.672	-0.22
872.839	-1.07
873.005	2.13
873.172	4.18
873.338	2.48
873.505	0.07
873.671	-0.02
873.838	1.13
874.004	-1.36
874.171	-0.46
874.337	2.05
874.503	1.51
874.67	0.88
874.836	-0.59
875.002	5.05
875.169	2.62
875.335	1.22
875.501	-0.28
875.668	0.97
875.834	1.66
876	0.87
876.166	1.36
876.332	1.02
876.499	3.93
876.665	0.14
876.831	0.05
876.997	4.46
877.163	1.6
877.329	-0.17
877.495	0.64
877.662	3.24
877.828	2.51
877.994	0.48
878.16	-2.35
878.326	-1.5
878.492	1.31
878.658	-0.65
878.824	0.2
878.99	1.5
879.156	-0.06
879.322	3.83
879.487	0.76
879.653	1.42
879.819	0.3
879.985	-0.56
880.151	3.39
880.317	0.76
880.483	0.61
880.648	1.55
880.814	-1.57
880.98	1.67
881.146	-1.39
881.312	-1.67
881.477	0.28
881.643	2.25
881.809	2.16
881.974	3.25
882.14	-2.29
882.306	2.05
882.471	5.22
882.637	0.13
882.803	1.14
882.968	4.8
883.134	4.84
883.299	0.11
883.465	0.52
883.63	2.68
883.796	2.63
883.961	2.11
884.127	1.75
884.292	-3.53
884.458	-1.85
884.623	-1.85
