Data from Apollo_Calib_20240827__AbsoluteIrradiance__886__13-55-00-344.txt Node

Date: Wed Aug 28 13:55:00 BST 2024
User: biology
Spectrometer: FLMT08252
Trigger mode: 0
Integration Time (sec): 5.000000E-1
Scans to average: 5
Electric dark correction enabled: true
Nonlinearity correction enabled: false
Boxcar width: 0
XAxis mode: Wavelengths
Number of Pixels in Spectrum: 3648
>>>>>Begin Spectral Data<<<<<
179.588	-0
179.809	-0
180.03	-0
180.251	-0
180.473	-0
180.694	0
180.915	0
181.136	-0
181.357	0
181.578	-0
181.799	-0
182.02	-0
182.241	-0
182.462	-0
182.683	0
182.904	-0
183.125	-0
183.346	0
183.567	0
183.788	0
184.009	0
184.23	0
184.451	0
184.672	0
184.892	0
185.113	0
185.334	0
185.555	0
185.776	0
185.996	0
186.217	0
186.438	0
186.659	0
186.879	0
187.1	0
187.321	0
187.541	0
187.762	0
187.983	0
188.203	0
188.424	0
188.644	0
188.865	0
189.086	0
189.306	0
189.527	0
189.747	0
189.968	0
190.188	0
190.409	0
190.629	0
190.849	0
191.07	0
191.29	0
191.511	0
191.731	0
191.951	0
192.172	0
192.392	0
192.612	0
192.833	0
193.053	0
193.273	0
193.493	0
193.714	0
193.934	0
194.154	0
194.374	0
194.594	0
194.815	0
195.035	0
195.255	0
195.475	0
195.695	0
195.915	0
196.135	0
196.355	0
196.575	0
196.795	0
197.015	0
197.235	0
197.455	0
197.675	0
197.895	0
198.115	0
198.335	0
198.555	0
198.775	0
198.995	0
199.214	0
199.434	0
199.654	0
199.874	0
200.094	4.95
200.313	1.69
200.533	1.67
200.753	1.01
200.973	3.99
201.192	3.66
201.412	1.25
201.632	1.55
201.851	3.43
202.071	1.78
202.291	1.56
202.51	1.23
202.73	2.54
202.95	1.85
203.169	1.04
203.389	1.72
203.608	2.24
203.828	1.32
204.047	1.31
204.267	2.11
204.486	2.31
204.706	1.98
204.925	1.47
205.145	1.29
205.364	2.35
205.583	2.6
205.803	1.08
206.022	0.95
206.242	1.9
206.461	1.59
206.68	1.16
206.9	1.86
207.119	2.33
207.338	2.13
207.557	1.11
207.777	0.89
207.996	1.28
208.215	2.2
208.434	0.89
208.654	0.54
208.873	1.33
209.092	2.18
209.311	0.97
209.53	1.05
209.749	1.3
209.968	1.09
210.187	0.73
210.407	0.46
210.626	1.27
210.845	1.78
211.064	1.15
211.283	0.84
211.502	1.65
211.721	0.95
211.94	0.87
212.159	1.33
212.377	1.52
212.596	1.45
212.815	0.92
213.034	1.29
213.253	1.41
213.472	1.24
213.691	1.1
213.91	0.73
214.128	0.54
214.347	1.32
214.566	0.46
214.785	0.49
215.003	1.18
215.222	1.23
215.441	1.04
215.66	0.58
215.878	0.93
216.097	1.28
216.316	0.61
216.534	0.88
216.753	1.27
216.972	0.9
217.19	0.77
217.409	0.55
217.627	0.65
217.846	0.72
218.064	0.97
218.283	0.6
218.501	1.47
218.72	1.07
218.938	0.58
219.157	0.54
219.375	1.15
219.594	1.05
219.812	0.33
220.031	0.55
220.249	1.46
220.467	1.16
220.686	0.62
220.904	0.41
221.122	0.79
221.341	1.22
221.559	0.77
221.777	0.52
221.995	0.77
222.214	0.79
222.432	0.67
222.65	0.83
222.868	0.75
223.086	0.77
223.305	0.82
223.523	0.6
223.741	1.2
223.959	0.63
224.177	0.29
224.395	0.38
224.613	0.73
224.831	0.9
225.049	0.49
225.267	0.52
225.485	0.63
225.703	0.55
225.921	0.55
226.139	0.39
226.357	0.9
226.575	0.78
226.793	0.37
227.011	1.57
227.229	0.68
227.447	0.91
227.665	0.46
227.883	0.19
228.1	0.66
228.318	0.77
228.536	0.37
228.754	0.52
228.972	0.76
229.189	0.76
229.407	0.52
229.625	0.57
229.843	0.83
230.06	0.78
230.278	0.55
230.496	0.56
230.713	0.63
230.931	0.94
231.149	0.42
231.366	0.3
231.584	0.53
231.801	1.11
232.019	0.56
232.236	0.35
232.454	0.36
232.671	0.56
232.889	0.44
233.106	0.41
233.324	0.55
233.541	0.53
233.759	0.57
233.976	0.33
234.194	0.55
234.411	0.52
234.628	0.42
234.846	0.49
235.063	0.49
235.28	0.5
235.498	0.49
235.715	0.31
235.932	0.7
236.149	0.51
236.367	0.4
236.584	0.59
236.801	0.35
237.018	0.56
237.236	0.35
237.453	0.31
237.67	0.58
237.887	0.43
238.104	0.42
238.321	0.36
238.538	0.44
238.755	0.68
238.973	0.22
239.19	0.36
239.407	0.62
239.624	0.49
239.841	0.35
240.058	0.34
240.275	0.48
240.492	0.44
240.709	0.43
240.925	0.36
241.142	0.5
241.359	0.23
241.576	0.33
241.793	0.3
242.01	0.44
242.227	0.68
242.444	0.46
242.66	0.64
242.877	0.51
243.094	0.34
243.311	0.32
243.527	0.39
243.744	0.57
243.961	0.5
244.178	0.26
244.394	0.43
244.611	0.59
244.828	0.7
245.044	0.28
245.261	0.39
245.477	0.46
245.694	0.53
245.911	0.36
246.127	0.43
246.344	0.59
246.56	0.63
246.777	0.3
246.993	0.42
247.21	0.56
247.426	0.45
247.643	0.24
247.859	0.28
248.076	0.33
248.292	0.61
248.508	0.27
248.725	0.45
248.941	0.41
249.157	0.65
249.374	0.24
249.59	0.39
249.806	0.39
250.023	0.57
250.239	0.26
250.455	0.25
250.671	0.41
250.888	0.48
251.104	0.38
251.32	0.32
251.536	0.39
251.752	0.39
251.969	0.4
252.185	0.32
252.401	0.66
252.617	0.39
252.833	0.28
253.049	0.35
253.265	0.44
253.481	0.43
253.697	0.33
253.913	0.24
254.129	0.48
254.345	0.48
254.561	0.34
254.777	0.36
254.993	0.46
255.209	0.4
255.425	0.37
255.641	0.29
255.857	0.44
256.073	0.44
256.288	0.16
256.504	0.27
256.72	0.41
256.936	0.59
257.152	0.34
257.367	0.27
257.583	0.36
257.799	0.5
258.015	0.32
258.23	0.25
258.446	0.61
258.662	0.38
258.877	0.29
259.093	0.27
259.309	0.4
259.524	0.42
259.74	0.29
259.955	0.22
260.171	0.39
260.387	0.32
260.602	0.43
260.818	0.37
261.033	0.24
261.249	0.38
261.464	0.28
261.68	0.15
261.895	0.42
262.11	0.48
262.326	0.34
262.541	0.21
262.757	0.5
262.972	0.37
263.187	0.37
263.403	0.39
263.618	0.48
263.833	0.39
264.049	0.24
264.264	0.24
264.479	0.32
264.694	0.52
264.91	0.25
265.125	0.23
265.34	0.44
265.555	0.57
265.77	0.31
265.986	0.24
266.201	0.36
266.416	0.45
266.631	0.29
266.846	0.3
267.061	0.47
267.276	0.38
267.491	0.15
267.706	0.33
267.921	0.41
268.136	0.42
268.351	0.29
268.566	0.23
268.781	0.45
268.996	0.39
269.211	0.38
269.426	0.24
269.641	0.26
269.856	0.45
270.071	0.2
270.285	0.21
270.5	0.47
270.715	0.46
270.93	0.32
271.145	0.35
271.359	0.41
271.574	0.3
271.789	0.39
272.004	0.27
272.218	0.35
272.433	0.37
272.648	0.26
272.862	0.4
273.077	0.4
273.292	0.33
273.506	0.25
273.721	0.28
273.936	0.37
274.15	0.37
274.365	0.22
274.579	0.36
274.794	0.41
275.008	0.45
275.223	0.2
275.437	0.32
275.652	0.37
275.866	0.42
276.081	0.33
276.295	0.32
276.509	0.29
276.724	0.34
276.938	0.3
277.153	0.29
277.367	0.42
277.581	0.24
277.796	0.3
278.01	0.21
278.224	0.42
278.438	0.42
278.653	0.25
278.867	0.17
279.081	0.36
279.295	0.33
279.51	0.3
279.724	0.19
279.938	0.4
280.152	0.35
280.366	0.21
280.58	0.32
280.794	0.44
281.008	0.33
281.222	0.35
281.437	0.48
281.651	0.37
281.865	0.46
282.079	0.3
282.293	0.15
282.507	0.27
282.721	0.26
282.935	0.25
283.148	0.19
283.362	0.27
283.576	0.23
283.79	0.27
284.004	0.27
284.218	0.41
284.432	0.31
284.646	0.29
284.859	0.25
285.073	0.24
285.287	0.29
285.501	0.27
285.714	0.25
285.928	0.26
286.142	0.33
286.356	0.22
286.569	0.23
286.783	0.42
286.997	0.36
287.21	0.27
287.424	0.33
287.637	0.3
287.851	0.27
288.065	0.34
288.278	0.21
288.492	0.3
288.705	0.28
288.919	0.31
289.132	0.13
289.346	0.37
289.559	0.2
289.773	0.19
289.986	0.24
290.2	0.27
290.413	0.37
290.626	0.23
290.84	0.23
291.053	0.31
291.267	0.31
291.48	0.26
291.693	0.23
291.906	0.19
292.12	0.29
292.333	0.21
292.546	0.27
292.76	0.37
292.973	0.37
293.186	0.31
293.399	0.22
293.612	0.32
293.826	0.26
294.039	0.21
294.252	0.27
294.465	0.35
294.678	0.28
294.891	0.26
295.104	0.2
295.317	0.29
295.53	0.27
295.743	0.26
295.956	0.22
296.169	0.39
296.382	0.32
296.595	0.23
296.808	0.25
297.021	0.36
297.234	0.36
297.447	0.21
297.66	0.26
297.873	0.33
298.086	0.35
298.299	0.2
298.511	0.17
298.724	0.26
298.937	0.21
299.15	0.24
299.363	0.23
299.575	0.33
299.788	0.26
300.001	0.25
300.213	0.2
300.426	0.28
300.639	0.21
300.852	0.18
301.064	0.3
301.277	0.36
301.489	0.29
301.702	0.24
301.915	0.28
302.127	0.28
302.34	0.23
302.552	0.29
302.765	0.18
302.977	0.32
303.19	0.24
303.402	0.25
303.615	0.22
303.827	0.24
304.04	0.23
304.252	0.27
304.464	0.21
304.677	0.44
304.889	0.31
305.102	0.22
305.314	0.22
305.526	0.26
305.739	0.34
305.951	0.23
306.163	0.23
306.375	0.38
306.588	0.25
306.8	0.21
307.012	0.17
307.224	0.26
307.436	0.32
307.649	0.15
307.861	0.23
308.073	0.34
308.285	0.21
308.497	0.23
308.709	0.17
308.921	0.27
309.133	0.32
309.346	0.24
309.558	0.25
309.77	0.32
309.982	0.34
310.194	0.3
310.406	0.23
310.617	0.35
310.829	0.29
311.041	0.28
311.253	0.18
311.465	0.25
311.677	0.26
311.889	0.22
312.101	0.18
312.313	0.34
312.524	0.33
312.736	0.15
312.948	0.19
313.16	0.33
313.372	0.3
313.583	0.26
313.795	0.23
314.007	0.18
314.218	0.29
314.43	0.21
314.642	0.21
314.853	0.18
315.065	0.29
315.277	0.21
315.488	0.26
315.7	0.27
315.912	0.29
316.123	0.19
316.335	0.26
316.546	0.37
316.758	0.27
316.969	0.22
317.181	0.24
317.392	0.24
317.604	0.38
317.815	0.17
318.026	0.19
318.238	0.22
318.449	0.31
318.661	0.19
318.872	0.21
319.083	0.2
319.295	0.28
319.506	0.17
319.717	0.2
319.929	0.3
320.14	0.27
320.351	0.28
320.562	0.21
320.774	0.25
320.985	0.24
321.196	0.23
321.407	0.13
321.618	0.29
321.829	0.23
322.041	0.26
322.252	0.25
322.463	0.29
322.674	0.3
322.885	0.17
323.096	0.22
323.307	0.25
323.518	0.29
323.729	0.2
323.94	0.22
324.151	0.2
324.362	0.29
324.573	0.24
324.784	0.19
324.995	0.28
325.206	0.26
325.417	0.21
325.628	0.17
325.838	0.3
326.049	0.27
326.26	0.3
326.471	0.2
326.682	0.26
326.892	0.25
327.103	0.15
327.314	0.19
327.525	0.33
327.735	0.31
327.946	0.22
328.157	0.15
328.368	0.34
328.578	0.26
328.789	0.32
328.999	0.24
329.21	0.26
329.421	0.35
329.631	0.18
329.842	0.19
330.052	0.25
330.263	0.29
330.473	0.31
330.684	0.24
330.894	0.23
331.105	0.25
331.315	0.28
331.526	0.18
331.736	0.37
331.947	0.29
332.157	0.25
332.367	0.14
332.578	0.32
332.788	0.32
332.999	0.28
333.209	0.24
333.419	0.17
333.629	0.29
333.84	0.28
334.05	0.26
334.26	0.33
334.47	0.29
334.681	0.28
334.891	0.19
335.101	0.25
335.311	0.34
335.521	0.25
335.732	0.17
335.942	0.33
336.152	0.27
336.362	0.24
336.572	0.25
336.782	0.29
336.992	0.27
337.202	0.24
337.412	0.23
337.622	0.28
337.832	0.23
338.042	0.24
338.252	0.22
338.462	0.24
338.672	0.29
338.882	0.19
339.092	0.21
339.302	0.32
339.511	0.32
339.721	0.3
339.931	0.18
340.141	0.35
340.351	0.34
340.561	0.25
340.77	0.27
340.98	0.26
341.19	0.29
341.4	0.23
341.609	0.2
341.819	0.23
342.029	0.17
342.238	0.23
342.448	0.21
342.658	0.31
342.867	0.27
343.077	0.26
343.286	0.24
343.496	0.29
343.706	0.33
343.915	0.19
344.125	0.24
344.334	0.27
344.544	0.21
344.753	0.21
344.963	0.23
345.172	0.22
345.381	0.18
345.591	0.14
345.8	0.25
346.01	0.34
346.219	0.3
346.428	0.1
346.638	0.21
346.847	0.27
347.056	0.33
347.266	0.22
347.475	0.22
347.684	0.33
347.893	0.27
348.103	0.25
348.312	0.22
348.521	0.26
348.73	0.26
348.94	0.22
349.149	0.21
349.358	0.28
349.567	0.2
349.776	0.2
349.985	0.18
350.194	0.32
350.403	0.35
350.612	0.17
350.821	0.17
351.03	0.25
351.239	0.19
351.448	0.2
351.657	0.22
351.866	0.37
352.075	0.26
352.284	0.27
352.493	0.16
352.702	0.36
352.911	0.26
353.12	0.25
353.329	0.24
353.538	0.25
353.746	0.21
353.955	0.23
354.164	0.29
354.373	0.23
354.582	0.32
354.79	0.25
354.999	0.29
355.208	0.23
355.416	0.32
355.625	0.23
355.834	0.2
356.042	0.3
356.251	0.25
356.46	0.17
356.668	0.28
356.877	0.39
357.085	0.3
357.294	0.13
357.503	0.23
357.711	0.27
357.92	0.42
358.128	0.29
358.337	0.22
358.545	0.25
358.754	0.23
358.962	0.28
359.17	0.2
359.379	0.27
359.587	0.24
359.796	0.21
360.004	0.29
360.212	0.31
360.421	0.34
360.629	0.2
360.837	0.21
361.046	0.28
361.254	0.42
361.462	0.26
361.67	0.24
361.879	0.31
362.087	0.28
362.295	0.23
362.503	0.19
362.711	0.19
362.92	0.22
363.128	0.21
363.336	0.17
363.544	0.19
363.752	0.22
363.96	0.2
364.168	0.22
364.376	0.27
364.584	0.28
364.792	0.32
365	0.28
365.208	0.27
365.416	0.26
365.624	0.31
365.832	0.21
366.04	0.34
366.248	0.24
366.456	0.24
366.664	0.23
366.872	0.24
367.079	0.32
367.287	0.22
367.495	0.22
367.703	0.21
367.911	0.2
368.118	0.23
368.326	0.24
368.534	0.2
368.742	0.28
368.949	0.17
369.157	0.23
369.365	0.29
369.572	0.21
369.78	0.23
369.988	0.29
370.195	0.25
370.403	0.32
370.61	0.2
370.818	0.23
371.026	0.35
371.233	0.23
371.441	0.22
371.648	0.22
371.856	0.27
372.063	0.29
372.271	0.23
372.478	0.19
372.685	0.18
372.893	0.32
373.1	0.24
373.308	0.24
373.515	0.35
373.722	0.3
373.93	0.25
374.137	0.23
374.344	0.36
374.552	0.32
374.759	0.33
374.966	0.29
375.173	0.24
375.381	0.33
375.588	0.26
375.795	0.18
376.002	0.27
376.209	0.22
376.417	0.24
376.624	0.23
376.831	0.25
377.038	0.25
377.245	0.16
377.452	0.27
377.659	0.27
377.866	0.23
378.073	0.21
378.28	0.22
378.487	0.32
378.694	0.29
378.901	0.26
379.108	0.21
379.315	0.32
379.522	0.41
379.729	0.3
379.936	0.24
380.143	0.26
380.35	0.28
380.557	0.22
380.763	0.27
380.97	0.24
381.177	0.32
381.384	0.25
381.591	0.26
381.797	0.3
382.004	0.29
382.211	0.25
382.418	0.2
382.624	0.28
382.831	0.32
383.038	0.25
383.244	0.26
383.451	0.3
383.658	0.26
383.864	0.22
384.071	0.19
384.277	0.37
384.484	0.25
384.69	0.33
384.897	0.22
385.103	0.25
385.31	0.21
385.516	0.21
385.723	0.24
385.929	0.28
386.136	0.26
386.342	0.29
386.549	0.24
386.755	0.34
386.961	0.36
387.168	0.27
387.374	0.29
387.58	0.31
387.787	0.3
387.993	0.3
388.199	0.25
388.406	0.2
388.612	0.28
388.818	0.24
389.024	0.27
389.231	0.3
389.437	0.35
389.643	0.29
389.849	0.27
390.055	0.32
390.261	0.26
390.467	0.33
390.674	0.26
390.88	0.27
391.086	0.29
391.292	0.19
391.498	0.32
391.704	0.28
391.91	0.29
392.116	0.25
392.322	0.19
392.528	0.34
392.734	0.3
392.94	0.29
393.146	0.24
393.352	0.32
393.557	0.26
393.763	0.3
393.969	0.34
394.175	0.3
394.381	0.33
394.587	0.29
394.792	0.29
394.998	0.36
395.204	0.32
395.41	0.27
395.615	0.27
395.821	0.37
396.027	0.37
396.233	0.3
396.438	0.33
396.644	0.34
396.85	0.33
397.055	0.29
397.261	0.34
397.466	0.34
397.672	0.35
397.878	0.36
398.083	0.38
398.289	0.28
398.494	0.33
398.7	0.38
398.905	0.21
399.111	0.46
399.316	0.28
399.522	0.38
399.727	0.33
399.932	0.34
400.138	0.32
400.343	0.34
400.549	0.32
400.754	0.32
400.959	0.37
401.165	0.31
401.37	0.32
401.575	0.47
401.78	0.38
401.986	0.34
402.191	0.33
402.396	0.36
402.601	0.4
402.807	0.36
403.012	0.4
403.217	0.44
403.422	0.38
403.627	0.44
403.832	0.42
404.037	0.48
404.243	0.38
404.448	0.39
404.653	0.38
404.858	0.47
405.063	0.43
405.268	0.48
405.473	0.4
405.678	0.38
405.883	0.62
406.088	0.51
406.293	0.38
406.498	0.46
406.703	0.49
406.907	0.47
407.112	0.39
407.317	0.52
407.522	0.54
407.727	0.5
407.932	0.53
408.136	0.62
408.341	0.53
408.546	0.55
408.751	0.49
408.956	0.57
409.16	0.67
409.365	0.57
409.57	0.54
409.774	0.62
409.979	0.64
410.184	0.61
410.388	0.58
410.593	0.73
410.798	0.66
411.002	0.69
411.207	0.77
411.411	0.79
411.616	0.65
411.82	0.76
412.025	0.81
412.229	0.81
412.434	0.91
412.638	0.86
412.843	0.87
413.047	0.88
413.252	0.9
413.456	0.88
413.66	0.98
413.865	1.04
414.069	1.1
414.273	1.05
414.478	1.02
414.682	1.11
414.886	1.2
415.091	1.09
415.295	1.12
415.499	1.38
415.703	1.26
415.908	1.41
416.112	1.23
416.316	1.52
416.52	1.45
416.724	1.47
416.929	1.49
417.133	1.75
417.337	1.58
417.541	1.67
417.745	1.76
417.949	1.83
418.153	1.92
418.357	1.85
418.561	2.18
418.765	2.09
418.969	2.19
419.173	2.23
419.377	2.22
419.581	2.54
419.785	2.49
419.989	2.5
420.193	2.59
420.397	2.68
420.601	2.83
420.804	2.9
421.008	2.78
421.212	2.99
421.416	2.97
421.62	3.06
421.823	3.08
422.027	3.28
422.231	3.2
422.435	3.25
422.638	3.33
422.842	3.38
423.046	3.53
423.249	3.64
423.453	3.68
423.657	3.81
423.86	3.9
424.064	4.04
424.268	4.2
424.471	4.18
424.675	4.4
424.878	4.39
425.082	4.52
425.285	4.84
425.489	4.69
425.692	4.77
425.896	4.91
426.099	5.09
426.303	5.24
426.506	5.32
426.71	5.53
426.913	5.88
427.116	6.02
427.32	6
427.523	5.96
427.726	6.28
427.93	6.42
428.133	6.61
428.336	6.74
428.54	6.92
428.743	7.23
428.946	7.34
429.149	7.33
429.353	7.42
429.556	7.46
429.759	7.49
429.962	7.72
430.165	7.92
430.368	7.56
430.571	7.6
430.775	7.69
430.978	7.69
431.181	7.67
431.384	7.83
431.587	7.92
431.79	8.24
431.993	8.21
432.196	8.58
432.399	8.94
432.602	9.01
432.805	9.12
433.008	9.6
433.211	9.46
433.414	9.88
433.616	9.96
433.819	9.79
434.022	10.1
434.225	10.23
434.428	10.2
434.631	10.68
434.833	10.44
435.036	10.7
435.239	10.98
435.442	10.92
435.645	11.12
435.847	11.2
436.05	11.53
436.253	11.68
436.455	11.75
436.658	11.53
436.861	11.88
437.063	12
437.266	12.05
437.468	12.47
437.671	12.76
437.874	12.73
438.076	12.51
438.279	12.93
438.481	13.05
438.684	13.71
438.886	13.31
439.089	13.71
439.291	13.71
439.494	14.05
439.696	14.17
439.899	14.8
440.101	15.09
440.303	15.26
440.506	16.02
440.708	15.72
440.91	16
441.113	16.13
441.315	16.49
441.517	16.13
441.72	16.72
441.922	16.34
442.124	16.29
442.326	16.68
442.529	16.88
442.731	16.83
442.933	17.12
443.135	16.75
443.337	17.07
443.539	17.46
443.742	17.03
443.944	17.85
444.146	17.53
444.348	17.46
444.55	17.48
444.752	17.65
444.954	17.58
445.156	17.52
445.358	17.93
445.56	18.1
445.762	18
445.964	18.44
446.166	18.18
446.368	18.24
446.57	18.23
446.772	17.78
446.974	17.66
447.175	17.9
447.377	17.55
447.579	18.21
447.781	17.79
447.983	17.54
448.184	17.08
448.386	17.63
448.588	17.02
448.79	17.08
448.991	17.36
449.193	17.33
449.395	16.76
449.597	16.41
449.798	16.26
450	15.94
450.202	15.92
450.403	16.03
450.605	15.84
450.806	15.45
451.008	15.43
451.21	15.14
451.411	14.9
451.613	14.02
451.814	14.25
452.016	14.33
452.217	13.64
452.419	13.69
452.62	13.32
452.821	13.01
453.023	12.94
453.224	12.58
453.426	12.2
453.627	11.34
453.828	11.64
454.03	11.72
454.231	11.56
454.432	11.5
454.634	11.2
454.835	10.86
455.036	10.9
455.238	10.37
455.439	10.18
455.64	9.93
455.841	9.85
456.042	9.94
456.244	9.51
456.445	9.3
456.646	9
456.847	8.93
457.048	8.85
457.249	8.8
457.45	8.69
457.651	8.03
457.852	7.96
458.054	7.67
458.255	7.46
458.456	7.67
458.657	7.47
458.858	7.03
459.058	6.93
459.259	7.01
459.46	6.7
459.661	6.71
459.862	6.76
460.063	6.56
460.264	6.5
460.465	6.24
460.666	6.25
460.866	5.97
461.067	5.74
461.268	5.8
461.469	5.68
461.67	5.63
461.87	5.46
462.071	5.38
462.272	5.36
462.473	5.28
462.673	5.52
462.874	5.4
463.075	5.43
463.275	5.29
463.476	5.37
463.676	5.28
463.877	5.12
464.078	5.18
464.278	5.2
464.479	5.05
464.679	4.97
464.88	4.94
465.08	4.94
465.281	4.75
465.481	4.44
465.682	4.37
465.882	4.35
466.083	4.27
466.283	4.18
466.483	4.05
466.684	3.9
466.884	3.75
467.085	3.87
467.285	3.87
467.485	3.83
467.686	3.7
467.886	3.58
468.086	3.54
468.286	3.57
468.487	3.6
468.687	3.38
468.887	3.33
469.087	3.51
469.287	3.5
469.488	3.21
469.688	3.34
469.888	3.4
470.088	3.23
470.288	3.22
470.488	3.21
470.688	3.01
470.888	2.96
471.088	2.82
471.288	3.01
471.488	2.93
471.688	2.88
471.888	2.75
472.088	3
472.288	2.82
472.488	2.76
472.688	2.72
472.888	2.75
473.088	2.72
473.288	2.59
473.488	2.56
473.688	2.73
473.887	2.61
474.087	2.5
474.287	2.54
474.487	2.52
474.687	2.5
474.886	2.48
475.086	2.39
475.286	2.38
475.486	2.38
475.685	2.33
475.885	2.27
476.085	2.4
476.284	2.37
476.484	2.33
476.684	2.32
476.883	2.38
477.083	2.3
477.282	2.25
477.482	2.29
477.681	2.26
477.881	2.17
478.08	2.14
478.28	2.17
478.479	2.19
478.679	2.25
478.878	2.13
479.078	2.08
479.277	2.14
479.477	2.11
479.676	2.08
479.875	2.06
480.075	2.03
480.274	2.08
480.473	2.14
480.673	2.08
480.872	2.13
481.071	2.12
481.271	2.11
481.47	2.07
481.669	2.09
481.868	2.05
482.067	2.07
482.267	1.97
482.466	1.97
482.665	1.99
482.864	2.02
483.063	1.99
483.262	2.09
483.461	2.11
483.661	2.11
483.86	2.01
484.059	2.08
484.258	2.09
484.457	2.07
484.656	2.09
484.855	2.16
485.054	1.98
485.253	2.05
485.452	2.01
485.651	2.11
485.849	2.09
486.048	2.06
486.247	2.09
486.446	2.12
486.645	2.07
486.844	2.13
487.043	2.08
487.241	2.16
487.44	2.11
487.639	2.15
487.838	2.18
488.037	2.16
488.235	2.27
488.434	2.18
488.633	2.09
488.831	2.26
489.03	2.28
489.229	2.27
489.427	2.23
489.626	2.29
489.825	2.36
490.023	2.34
490.222	2.3
490.42	2.37
490.619	2.39
490.817	2.37
491.016	2.4
491.214	2.43
491.413	2.44
491.611	2.38
491.81	2.4
492.008	2.52
492.207	2.58
492.405	2.59
492.604	2.52
492.802	2.54
493	2.62
493.199	2.6
493.397	2.65
493.595	2.72
493.794	2.67
493.992	2.82
494.19	2.8
494.388	2.83
494.587	2.79
494.785	2.79
494.983	2.73
495.181	2.89
495.379	2.93
495.578	2.98
495.776	2.98
495.974	2.93
496.172	2.99
496.37	3.07
496.568	3.08
496.766	3.09
496.964	3.16
497.162	3.19
497.36	3.23
497.558	3.25
497.756	3.3
497.954	3.27
498.152	3.35
498.35	3.45
498.548	3.33
498.746	3.42
498.944	3.4
499.142	3.48
499.34	3.51
499.538	3.63
499.736	3.51
499.933	3.66
500.131	3.61
500.329	3.8
500.527	3.74
500.725	3.82
500.922	3.92
501.12	3.86
501.318	3.94
501.516	3.9
501.713	3.98
501.911	3.98
502.109	3.92
502.306	4.04
502.504	4.01
502.701	4.05
502.899	4.14
503.097	4.4
503.294	4.23
503.492	4.3
503.689	4.34
503.887	4.36
504.084	4.46
504.282	4.42
504.479	4.37
504.677	4.54
504.874	4.49
505.072	4.39
505.269	4.62
505.466	4.7
505.664	4.69
505.861	4.62
506.059	4.71
506.256	4.8
506.453	4.81
506.651	4.96
506.848	4.98
507.045	4.96
507.242	4.96
507.44	4.96
507.637	5.07
507.834	5.03
508.031	5.22
508.229	5.1
508.426	5.04
508.623	5.25
508.82	5.25
509.017	5.21
509.214	5.23
509.411	5.33
509.608	5.34
509.805	5.45
510.003	5.43
510.2	5.49
510.397	5.61
510.594	5.49
510.791	5.55
510.988	5.63
511.184	5.58
511.381	5.5
511.578	5.67
511.775	5.78
511.972	5.65
512.169	5.73
512.366	5.78
512.563	5.87
512.76	5.96
512.956	5.92
513.153	5.92
513.35	5.9
513.547	5.85
513.744	6.02
513.94	5.99
514.137	6.09
514.334	6.05
514.53	6.14
514.727	6.3
514.924	6.26
515.12	6.15
515.317	6.18
515.514	6.12
515.71	6.09
515.907	6.39
516.103	6.33
516.3	6.29
516.497	6.44
516.693	6.4
516.89	6.41
517.086	6.4
517.283	6.57
517.479	6.37
517.676	6.53
517.872	6.53
518.068	6.6
518.265	6.57
518.461	6.55
518.658	6.63
518.854	6.6
519.05	6.73
519.247	6.8
519.443	6.72
519.639	6.82
519.836	6.71
520.032	6.66
520.228	6.85
520.424	6.79
520.621	6.9
520.817	6.9
521.013	6.81
521.209	7.01
521.405	7.06
521.601	6.93
521.798	6.94
521.994	6.97
522.19	6.95
522.386	6.96
522.582	7.08
522.778	7.17
522.974	7.05
523.17	7.07
523.366	7.07
523.562	7.15
523.758	7.13
523.954	6.95
524.15	7.14
524.346	7.24
524.542	7.23
524.738	7.18
524.934	7.29
525.129	7.27
525.325	7.18
525.521	7.22
525.717	7.44
525.913	7.31
526.109	7.28
526.304	7.37
526.5	7.39
526.696	7.41
526.892	7.31
527.087	7.53
527.283	7.46
527.479	7.43
527.674	7.23
527.87	7.46
528.066	7.4
528.261	7.5
528.457	7.37
528.653	7.52
528.848	7.51
529.044	7.65
529.239	7.46
529.435	7.45
529.63	7.41
529.826	7.54
530.021	7.53
530.217	7.52
530.412	7.54
530.608	7.5
530.803	7.57
530.999	7.43
531.194	7.56
531.389	7.63
531.585	7.58
531.78	7.75
531.975	7.66
532.171	7.73
532.366	7.71
532.561	7.65
532.757	7.62
532.952	7.86
533.147	7.61
533.342	7.77
533.538	7.66
533.733	7.84
533.928	7.5
534.123	7.74
534.318	7.77
534.513	7.7
534.709	7.86
534.904	7.83
535.099	7.84
535.294	7.91
535.489	7.88
535.684	7.8
535.879	7.74
536.074	7.89
536.269	7.87
536.464	7.85
536.659	7.83
536.854	7.86
537.049	7.91
537.244	7.81
537.439	7.88
537.634	7.89
537.828	7.96
538.023	7.87
538.218	7.85
538.413	7.77
538.608	7.95
538.803	7.9
538.997	7.84
539.192	7.9
539.387	7.88
539.582	7.81
539.776	7.82
539.971	7.96
540.166	7.94
540.36	7.89
540.555	8.02
540.75	7.92
540.944	7.96
541.139	7.97
541.334	8
541.528	7.95
541.723	8.03
541.917	8.06
542.112	7.89
542.306	7.79
542.501	7.89
542.695	7.91
542.89	7.94
543.084	7.92
543.279	7.98
543.473	7.99
543.668	8.07
543.862	7.93
544.056	7.86
544.251	8.01
544.445	8.09
544.64	8.07
544.834	7.76
545.028	7.64
545.222	7.96
545.417	8.21
545.611	8.07
545.805	8.01
546	7.83
546.194	8.04
546.388	8.03
546.582	7.98
546.776	7.99
546.97	8.05
547.165	7.99
547.359	7.97
547.553	7.95
547.747	7.97
547.941	8.19
548.135	8.04
548.329	8.1
548.523	8.01
548.717	7.95
548.911	7.99
549.105	7.91
549.299	8.05
549.493	8.09
549.687	7.95
549.881	8.15
550.075	8.08
550.269	7.91
550.463	8.08
550.657	8.13
550.85	8.02
551.044	7.98
551.238	8.11
551.432	8.08
551.626	8.12
551.82	8.1
552.013	7.93
552.207	8.17
552.401	8.16
552.594	8.06
552.788	8.06
552.982	8.03
553.176	7.94
553.369	8.2
553.563	8.1
553.756	8.02
553.95	8.08
554.144	8.12
554.337	8.09
554.531	7.88
554.724	8.12
554.918	8.1
555.111	8.03
555.305	8.06
555.498	8
555.692	8.18
555.885	8.12
556.079	8
556.272	8.04
556.466	8.07
556.659	8.07
556.852	8.16
557.046	7.96
557.239	7.95
557.432	8.01
557.626	8.11
557.819	8.14
558.012	8.12
558.206	8.21
558.399	8.11
558.592	8.01
558.785	8
558.979	8.12
559.172	8.06
559.365	8.12
559.558	8.03
559.751	7.99
559.944	8.18
560.138	8.07
560.331	8.08
560.524	8.03
560.717	8.07
560.91	8.05
561.103	8.09
561.296	7.93
561.489	8.15
561.682	8.16
561.875	8.14
562.068	8.18
562.261	7.95
562.454	8.16
562.647	7.98
562.84	8.12
563.032	8.11
563.225	8.03
563.418	7.99
563.611	8.14
563.804	8.04
563.997	7.96
564.19	7.85
564.382	8.12
564.575	8.06
564.768	8.01
564.961	8.1
565.153	7.98
565.346	7.97
565.539	8.14
565.731	8.08
565.924	8.11
566.117	8.16
566.309	8.08
566.502	8.05
566.695	7.97
566.887	8.13
567.08	8.01
567.272	8.1
567.465	7.99
567.657	8.08
567.85	7.96
568.042	8.07
568.235	8.09
568.427	7.84
568.62	8.04
568.812	8.01
569.005	8.12
569.197	7.96
569.389	8.01
569.582	8.02
569.774	8.03
569.966	7.96
570.159	7.91
570.351	7.94
570.543	7.97
570.736	7.95
570.928	7.82
571.12	8.06
571.312	7.98
571.505	7.71
571.697	8.05
571.889	7.94
572.081	8.01
572.273	7.83
572.465	7.95
572.658	7.94
572.85	7.96
573.042	7.94
573.234	7.88
573.426	7.93
573.618	7.85
573.81	7.98
574.002	7.93
574.194	7.93
574.386	7.83
574.578	7.73
574.77	7.85
574.962	7.92
575.154	7.79
575.346	7.76
575.538	7.77
575.729	7.8
575.921	7.93
576.113	7.91
576.305	7.89
576.497	7.94
576.689	7.72
576.88	7.68
577.072	7.87
577.264	7.82
577.456	7.81
577.647	7.81
577.839	7.88
578.031	7.83
578.223	7.72
578.414	7.69
578.606	7.81
578.798	7.85
578.989	7.8
579.181	7.86
579.372	7.8
579.564	7.81
579.755	7.77
579.947	7.65
580.139	7.76
580.33	7.6
580.522	7.76
580.713	7.63
580.905	7.68
581.096	7.85
581.287	7.71
581.479	7.65
581.67	7.72
581.862	7.64
582.053	7.64
582.244	7.5
582.436	7.75
582.627	7.59
582.818	7.53
583.01	7.57
583.201	7.66
583.392	7.62
583.583	7.59
583.775	7.38
583.966	7.56
584.157	7.57
584.348	7.68
584.54	7.47
584.731	7.54
584.922	7.53
585.113	7.39
585.304	7.48
585.495	7.52
585.686	7.6
585.877	7.56
586.068	7.59
586.259	7.46
586.45	7.54
586.641	7.48
586.832	7.53
587.023	7.46
587.214	7.44
587.405	7.58
587.596	7.34
587.787	7.34
587.978	7.38
588.169	7.37
588.36	7.32
588.551	7.39
588.742	7.33
588.932	7.49
589.123	7.19
589.314	7.44
589.505	7.25
589.696	7.38
589.886	7.31
590.077	7.31
590.268	7.21
590.458	7.19
590.649	7.07
590.84	7.24
591.03	7.14
591.221	7.19
591.412	7.06
591.602	7.34
591.793	7.23
591.984	7.18
592.174	7.14
592.365	7.3
592.555	7.06
592.746	7.13
592.936	7.13
593.127	7.14
593.317	7.13
593.508	7.13
593.698	7.07
593.889	7.09
594.079	7.06
594.269	6.95
594.46	7
594.65	7.06
594.84	7.01
595.031	6.88
595.221	6.93
595.411	6.92
595.602	6.94
595.792	6.92
595.982	6.83
596.172	6.98
596.363	6.87
596.553	6.79
596.743	6.9
596.933	6.85
597.123	6.84
597.314	6.74
597.504	6.72
597.694	6.81
597.884	6.73
598.074	6.8
598.264	6.76
598.454	6.74
598.644	6.73
598.834	6.73
599.024	6.65
599.214	6.65
599.404	6.72
599.594	6.68
599.784	6.69
599.974	6.74
600.164	6.63
600.354	6.57
600.544	6.48
600.734	6.62
600.924	6.55
601.114	6.49
601.303	6.47
601.493	6.53
601.683	6.52
601.873	6.49
602.063	6.4
602.252	6.47
602.442	6.31
602.632	6.36
602.821	6.36
603.011	6.45
603.201	6.38
603.39	6.34
603.58	6.2
603.77	6.32
603.959	6.45
604.149	6.32
604.339	6.3
604.528	6.39
604.718	6.35
604.907	6.27
605.097	6.13
605.286	6.19
605.476	6.19
605.665	6.25
605.855	6.15
606.044	6.28
606.234	6.17
606.423	6.1
606.612	6.1
606.802	6.04
606.991	6.1
607.181	6.14
607.37	6.09
607.559	5.83
607.749	6.1
607.938	5.99
608.127	5.93
608.316	5.98
608.506	5.95
608.695	5.99
608.884	5.88
609.073	5.94
609.263	6
609.452	5.91
609.641	5.83
609.83	5.76
610.019	5.88
610.208	5.81
610.397	5.76
610.586	5.83
610.775	5.78
610.965	5.7
611.154	5.67
611.343	5.78
611.532	5.58
611.721	5.78
611.91	5.66
612.099	5.68
612.287	5.56
612.476	5.56
612.665	5.68
612.854	5.55
613.043	5.64
613.232	5.55
613.421	5.49
613.61	5.56
613.798	5.5
613.987	5.55
614.176	5.48
614.365	5.49
614.554	5.45
614.742	5.52
614.931	5.34
615.12	5.46
615.309	5.44
615.497	5.36
615.686	5.18
615.875	5.3
616.063	5.27
616.252	5.3
616.44	5.33
616.629	5.28
616.818	5.22
617.006	5.26
617.195	5.16
617.383	5.21
617.572	5.17
617.76	5.11
617.949	5.12
618.137	5.19
618.326	5.2
618.514	4.96
618.703	4.89
618.891	5.14
619.079	5
619.268	5.08
619.456	4.9
619.644	5.11
619.833	4.96
620.021	4.95
620.209	4.84
620.398	5.01
620.586	4.88
620.774	4.97
620.962	4.91
621.151	4.99
621.339	4.84
621.527	4.77
621.715	4.81
621.903	4.75
622.092	4.68
622.28	4.84
622.468	4.61
622.656	4.8
622.844	4.69
623.032	4.75
623.22	4.54
623.408	4.72
623.596	4.69
623.784	4.73
623.972	4.55
624.16	4.63
624.348	4.69
624.536	4.7
624.724	4.53
624.912	4.59
625.1	4.59
625.288	4.58
625.476	4.49
625.664	4.68
625.851	4.41
626.039	4.47
626.227	4.48
626.415	4.51
626.603	4.41
626.79	4.43
626.978	4.43
627.166	4.44
627.354	4.31
627.541	4.34
627.729	4.18
627.917	4.51
628.104	4.36
628.292	4.27
628.48	4.32
628.667	4.26
628.855	4.31
629.042	4.3
629.23	4.19
629.418	4.18
629.605	4.22
629.793	4.11
629.98	4.14
630.168	4.08
630.355	4.18
630.543	4.15
630.73	4.05
630.917	4.12
631.105	4.2
631.292	4.09
631.48	4.03
631.667	4.21
631.854	4
632.042	4.05
632.229	3.93
632.416	4.02
632.604	3.98
632.791	3.8
632.978	3.98
633.165	3.9
633.353	4.03
633.54	3.95
633.727	3.81
633.914	3.8
634.101	3.77
634.289	3.87
634.476	3.73
634.663	3.78
634.85	3.83
635.037	3.75
635.224	3.61
635.411	3.76
635.598	3.68
635.785	3.64
635.972	3.62
636.159	3.71
636.346	3.61
636.533	3.59
636.72	3.59
636.907	3.64
637.094	3.62
637.281	3.52
637.468	3.51
637.655	3.54
637.842	3.56
638.029	3.51
638.215	3.5
638.402	3.47
638.589	3.44
638.776	3.43
638.963	3.41
639.149	3.5
639.336	3.54
639.523	3.39
639.709	3.44
639.896	3.39
640.083	3.39
640.27	3.37
640.456	3.31
640.643	3.38
640.829	3.24
641.016	3.23
641.203	3.2
641.389	3.26
641.576	3.25
641.762	3.17
641.949	3.17
642.135	3.23
642.322	3.15
642.508	3.06
642.695	3.19
642.881	3.1
643.068	3.08
643.254	3.16
643.441	3.13
643.627	3.18
643.813	3.08
644	3.12
644.186	3.03
644.372	3.07
644.559	3.07
644.745	3.02
644.931	2.98
645.118	2.98
645.304	3.03
645.49	3.01
645.676	2.93
645.862	2.98
646.049	3.04
646.235	2.9
646.421	3.07
646.607	3.08
646.793	2.87
646.979	2.86
647.165	2.89
647.352	2.92
647.538	2.89
647.724	2.84
647.91	2.76
648.096	2.84
648.282	2.8
648.468	2.78
648.654	2.81
648.84	2.83
649.026	2.75
649.212	2.71
649.397	2.66
649.583	2.64
649.769	2.69
649.955	2.73
650.141	2.73
650.327	2.68
650.513	2.58
650.698	2.66
650.884	2.55
651.07	2.7
651.256	2.65
651.442	2.63
651.627	2.52
651.813	2.66
651.999	2.54
652.184	2.54
652.37	2.52
652.556	2.56
652.741	2.59
652.927	2.38
653.113	2.49
653.298	2.53
653.484	2.46
653.669	2.4
653.855	2.41
654.04	2.53
654.226	2.48
654.412	2.45
654.597	2.31
654.782	2.37
654.968	2.41
655.153	2.36
655.339	2.35
655.524	2.34
655.71	2.42
655.895	2.33
656.08	2.31
656.266	2.38
656.451	2.29
656.636	2.2
656.822	2.31
657.007	2.27
657.192	2.28
657.378	2.2
657.563	2.2
657.748	2.25
657.933	2.24
658.118	2.17
658.304	2.16
658.489	2.25
658.674	2.23
658.859	2.15
659.044	2.11
659.229	2.21
659.414	2.18
659.599	2.14
659.785	2.09
659.97	2.16
660.155	2.17
660.34	2.12
660.525	2.09
660.71	2.01
660.895	2.13
661.08	2.02
661.264	1.95
661.449	2.1
661.634	2.02
661.819	2.11
662.004	1.97
662.189	1.94
662.374	1.98
662.559	1.94
662.743	1.91
662.928	1.96
663.113	1.93
663.298	1.89
663.483	1.91
663.667	1.94
663.852	1.85
664.037	1.98
664.221	1.9
664.406	1.96
664.591	1.94
664.775	1.92
664.96	1.75
665.145	1.86
665.329	1.92
665.514	1.83
665.698	1.76
665.883	1.73
666.068	1.92
666.252	1.82
666.437	1.76
666.621	1.84
666.806	1.86
666.99	1.82
667.174	1.71
667.359	1.83
667.543	1.78
667.728	1.78
667.912	1.65
668.096	1.76
668.281	1.72
668.465	1.73
668.649	1.71
668.834	1.68
669.018	1.77
669.202	1.68
669.387	1.61
669.571	1.76
669.755	1.64
669.939	1.68
670.124	1.65
670.308	1.69
670.492	1.65
670.676	1.66
670.86	1.59
671.044	1.52
671.228	1.73
671.413	1.6
671.597	1.54
671.781	1.56
671.965	1.61
672.149	1.57
672.333	1.51
672.517	1.56
672.701	1.65
672.885	1.5
673.069	1.43
673.253	1.65
673.437	1.47
673.621	1.47
673.804	1.49
673.988	1.53
674.172	1.48
674.356	1.4
674.54	1.48
674.724	1.61
674.908	1.48
675.091	1.57
675.275	1.49
675.459	1.5
675.643	1.39
675.826	1.42
676.01	1.47
676.194	1.43
676.377	1.48
676.561	1.47
676.745	1.41
676.928	1.45
677.112	1.45
677.296	1.37
677.479	1.29
677.663	1.38
677.846	1.43
678.03	1.34
678.213	1.34
678.397	1.4
678.58	1.36
678.764	1.35
678.947	1.31
679.131	1.35
679.314	1.42
679.498	1.33
679.681	1.39
679.865	1.37
680.048	1.27
680.231	1.25
680.415	1.26
680.598	1.31
680.781	1.25
680.965	1.29
681.148	1.27
681.331	1.24
681.514	1.28
681.698	1.24
681.881	1.28
682.064	1.27
682.247	1.23
682.43	1.17
682.614	1.21
682.797	1.3
682.98	1.26
683.163	1.18
683.346	1.18
683.529	1.2
683.712	1.12
683.895	1.23
684.078	1.15
684.261	1.19
684.444	1.2
684.627	1.17
684.81	1.12
684.993	1.1
685.176	1.2
685.359	1.07
685.542	1.14
685.725	1.24
685.908	1.1
686.091	1.13
686.274	1.17
686.457	1.13
686.639	1.16
686.822	1.16
687.005	1.11
687.188	1.17
687.371	1.25
687.553	1.16
687.736	1.15
687.919	1.24
688.102	1.19
688.284	1.11
688.467	1.06
688.65	1.08
688.832	1.02
689.015	1
689.197	0.95
689.38	1.18
689.563	1.19
689.745	0.95
689.928	0.94
690.11	1
690.293	1.07
690.475	0.95
690.658	1.06
690.84	0.98
691.023	0.99
691.205	0.94
691.388	1.01
691.57	1.1
691.752	1.07
691.935	0.95
692.117	0.93
692.3	0.98
692.482	0.97
692.664	0.93
692.847	0.95
693.029	1.05
693.211	1.05
693.393	0.89
693.576	0.89
693.758	0.91
693.94	0.96
694.122	0.96
694.304	0.89
694.487	0.89
694.669	1
694.851	0.86
695.033	0.88
695.215	0.94
695.397	0.85
695.579	0.91
695.761	0.86
695.943	0.83
696.125	0.95
696.308	0.93
696.49	0.8
696.671	1.05
696.853	0.91
697.035	1.16
697.217	0.84
697.399	1.01
697.581	0.86
697.763	0.86
697.945	0.78
698.127	0.93
698.309	0.93
698.491	0.84
698.672	0.92
698.854	0.91
699.036	0.96
699.218	0.83
699.399	0.96
699.581	0.92
699.763	0.84
699.945	0.76
700.126	0.72
700.308	0.8
700.49	0.79
700.671	0.72
700.853	0.74
701.035	0.8
701.216	0.84
701.398	0.71
701.579	0.8
701.761	0.85
701.943	0.72
702.124	0.68
702.306	0.74
702.487	0.96
702.669	0.83
702.85	0.73
703.031	0.65
703.213	0.81
703.394	0.93
703.576	0.71
703.757	0.97
703.938	0.85
704.12	0.98
704.301	0.81
704.483	0.7
704.664	0.77
704.845	0.89
705.026	0.82
705.208	0.71
705.389	0.81
705.57	0.81
705.751	0.74
705.933	0.71
706.114	0.83
706.295	0.72
706.476	0.69
706.657	0.83
706.838	0.72
707.02	0.73
707.201	0.65
707.382	0.64
707.563	0.76
707.744	0.72
707.925	0.66
708.106	0.67
708.287	0.72
708.468	0.83
708.649	0.67
708.83	0.69
709.011	0.71
709.192	0.68
709.373	0.62
709.554	0.68
709.734	0.77
709.915	0.73
710.096	0.72
710.277	0.56
710.458	0.64
710.639	0.7
710.819	0.56
711	0.64
711.181	0.8
711.362	0.78
711.542	0.72
711.723	0.64
711.904	0.77
712.085	0.7
712.265	0.69
712.446	0.51
712.627	0.62
712.807	0.67
712.988	0.73
713.168	0.51
713.349	0.69
713.53	0.45
713.71	0.54
713.891	0.57
714.071	0.56
714.252	0.59
714.432	0.58
714.613	0.49
714.793	0.55
714.974	0.73
715.154	0.61
715.334	0.65
715.515	0.76
715.695	0.57
715.876	0.61
716.056	0.53
716.236	0.53
716.417	0.54
716.597	0.52
716.777	0.78
716.957	0.64
717.138	0.56
717.318	0.53
717.498	0.44
717.678	0.58
717.859	0.61
718.039	0.58
718.219	0.59
718.399	0.59
718.579	0.49
718.759	0.48
718.939	0.62
719.12	0.67
719.3	0.52
719.48	0.35
719.66	0.41
719.84	0.68
720.02	0.53
720.2	0.53
720.38	0.47
720.56	0.74
720.74	0.51
720.92	0.57
721.1	0.72
721.279	0.64
721.459	0.52
721.639	0.5
721.819	0.51
721.999	0.47
722.179	0.59
722.359	0.37
722.538	0.53
722.718	0.6
722.898	0.56
723.078	0.51
723.257	0.52
723.437	0.63
723.617	0.62
723.797	0.42
723.976	0.54
724.156	0.69
724.336	0.65
724.515	0.83
724.695	0.42
724.874	0.55
725.054	0.59
725.234	0.34
725.413	0.5
725.593	0.48
725.772	0.53
725.952	0.44
726.131	0.44
726.311	0.56
726.49	0.5
726.67	0.41
726.849	0.4
727.028	0.45
727.208	0.52
727.387	0.5
727.567	0.38
727.746	0.39
727.925	0.58
728.105	0.39
728.284	0.47
728.463	0.38
728.643	0.53
728.822	0.34
729.001	0.38
729.18	0.47
729.359	0.51
729.539	0.43
729.718	0.43
729.897	0.59
730.076	0.5
730.255	0.39
730.434	0.51
730.614	0.54
730.793	0.69
730.972	0.47
731.151	0.51
731.33	0.59
731.509	0.47
731.688	0.45
731.867	0.61
732.046	0.35
732.225	0.77
732.404	0.4
732.583	0.28
732.762	0.52
732.941	0.58
733.12	0.48
733.298	0.38
733.477	0.65
733.656	0.48
733.835	0.35
734.014	0.58
734.193	0.5
734.371	0.51
734.55	0.6
734.729	0.27
734.908	0.46
735.086	0.54
735.265	0.52
735.444	0.33
735.623	0.28
735.801	0.35
735.98	0.46
736.159	0.47
736.337	0.62
736.516	0.55
736.694	0.52
736.873	0.4
737.052	0.77
737.23	0.73
737.409	0.52
737.587	0.67
737.766	0.37
737.944	0.47
738.123	0.5
738.301	0.67
738.479	0.4
738.658	0.51
738.836	0.34
739.015	0.45
739.193	0.5
739.371	0.27
739.55	0.43
739.728	0.31
739.906	0.69
740.085	0.81
740.263	0.42
740.441	0.21
740.62	0.79
740.798	0.55
740.976	0.41
741.154	0.34
741.332	0.6
741.511	0.47
741.689	0.41
741.867	0.48
742.045	0.42
742.223	0.47
742.401	0.32
742.579	0.42
742.757	0.64
742.935	0.34
743.114	0.43
743.292	0.36
743.47	0.44
743.648	0.43
743.826	0.55
744.004	0.43
744.181	0.65
744.359	0.35
744.537	0.46
744.715	0.36
744.893	0.55
745.071	0.56
745.249	0.4
745.427	0.43
745.605	0.55
745.782	0.43
745.96	0.5
746.138	0.59
746.316	0.54
746.493	0.44
746.671	0.43
746.849	0.3
747.027	0.67
747.204	0.35
747.382	0.45
747.56	0.29
747.737	0.45
747.915	0.45
748.093	0.44
748.27	0.21
748.448	0.39
748.625	0.19
748.803	0.35
748.98	0.26
749.158	0.44
749.335	0.56
749.513	0.43
749.69	0.4
749.868	0.43
750.045	0.54
750.223	0.35
750.4	0.13
750.578	0.61
750.755	0.48
750.932	0.28
751.11	0.57
751.287	0.22
751.464	0.59
751.642	0.26
751.819	0.44
751.996	0.46
752.173	0.29
752.351	0.21
752.528	0.28
752.705	0.39
752.882	0.28
753.06	0.42
753.237	0.34
753.414	0.67
753.591	0.6
753.768	0.4
753.945	0.23
754.122	0.42
754.299	0.49
754.476	0.24
754.654	0.38
754.831	0.51
755.008	0.51
755.185	0.29
755.362	0.28
755.539	0.45
755.716	0.46
755.892	0.31
756.069	0.39
756.246	0.43
756.423	0.38
756.6	0.45
756.777	0.3
756.954	0.47
757.131	0.21
757.307	0.26
757.484	0.19
757.661	0.39
757.838	0.49
758.015	0.2
758.191	0.42
758.368	0.4
758.545	0.62
758.721	0.41
758.898	0.28
759.075	0.46
759.251	0.48
759.428	0.43
759.605	0.16
759.781	0.33
759.958	0.41
760.134	0.42
760.311	0.2
760.488	0.6
760.664	0.56
760.841	0.48
761.017	0.26
761.194	0.44
761.37	0.55
761.547	0.43
761.723	0.22
761.899	0.48
762.076	0.33
762.252	0.19
762.429	0.27
762.605	0.5
762.781	0.34
762.958	0.43
763.134	0.36
763.31	0.33
763.486	0.72
763.663	0.02
763.839	0.39
764.015	-0.05
764.191	0.27
764.368	0.29
764.544	0.37
764.72	0.44
764.896	0.4
765.072	0.47
765.248	0.3
765.425	0.34
765.601	0.41
765.777	0.37
765.953	0.03
766.129	0.25
766.305	0.33
766.481	0.34
766.657	0.3
766.833	0.59
767.009	0.31
767.185	0.33
767.361	0.26
767.537	0.3
767.713	0.52
767.889	0.32
768.065	0.24
768.24	0.4
768.416	0.51
768.592	0.22
768.768	0.3
768.944	0.4
769.12	0.23
769.295	0.25
769.471	0.27
769.647	0.4
769.823	0.67
769.998	0.34
770.174	0.19
770.35	0.79
770.525	0.91
770.701	0.36
770.877	0.25
771.052	0.14
771.228	0.56
771.403	0.41
771.579	0.35
771.755	0.82
771.93	0.38
772.106	0.26
772.281	0.07
772.457	0.22
772.632	0.44
772.808	0.12
772.983	0.25
773.159	0.11
773.334	0.67
773.509	0.27
773.685	0.13
773.86	0.85
774.036	0.66
774.211	0.41
774.386	0.23
774.562	0.32
774.737	0.6
774.912	0.15
775.087	0.47
775.263	0.4
775.438	0.45
775.613	0.26
775.788	0.18
775.964	0.51
776.139	0.9
776.314	0.01
776.489	0.29
776.664	0.44
776.839	0.16
777.014	0.57
777.19	0.4
777.365	0.63
777.54	0.66
777.715	0.16
777.89	0.35
778.065	0.15
778.24	0.26
778.415	0.47
778.59	0.09
778.765	0.45
778.94	0.5
779.115	0.21
779.289	0.37
779.464	0.31
779.639	0.28
779.814	0.18
779.989	0.07
780.164	0.61
780.339	0.44
780.513	0.17
780.688	0.16
780.863	0.37
781.038	0.66
781.212	0.15
781.387	0.45
781.562	0.91
781.737	0.34
781.911	0.53
782.086	0.3
782.261	0.5
782.435	0.72
782.61	0.39
782.784	0.32
782.959	0.68
783.134	0.2
783.308	0.12
783.483	0.27
783.657	1.1
783.832	0.42
784.006	-0.06
784.181	0.46
784.355	0.54
784.53	0.4
784.704	0.2
784.878	0.65
785.053	0.55
785.227	0.63
785.402	0.86
785.576	0.14
785.75	0.62
785.925	0.43
786.099	0.47
786.273	0.54
786.448	0.63
786.622	0.83
786.796	0.29
786.97	0.2
787.145	1.09
787.319	0.11
787.493	0.36
787.667	0.03
787.841	0.44
788.015	0.87
788.19	0.24
788.364	0.2
788.538	0.78
788.712	0.62
788.886	0.32
789.06	0.68
789.234	0.7
789.408	0.17
789.582	0.17
789.756	0.33
789.93	0.18
790.104	0.34
790.278	0.24
790.452	0.23
790.626	0.61
790.8	0.01
790.973	0.51
791.147	0.82
791.321	1.19
791.495	0.69
791.669	0.54
791.843	0.6
792.016	0.63
792.19	1.06
792.364	0.16
792.538	1.18
792.711	0.68
792.885	0.19
793.059	0.2
793.233	-0.28
793.406	0.78
793.58	0.36
793.754	0.73
793.927	0.34
794.101	0.69
794.274	0.55
794.448	0.54
794.622	0.01
794.795	1.05
794.969	0.3
795.142	0.75
795.316	0.31
795.489	0.14
795.663	0.89
795.836	0.31
796.009	0.13
796.183	0.79
796.356	0.45
796.53	0.52
796.703	0.29
796.876	1.09
797.05	0.39
797.223	0.4
797.396	0.56
797.57	0.43
797.743	0.95
797.916	0.27
798.09	0.3
798.263	0.86
798.436	0.76
798.609	0.18
798.782	0.1
798.956	0.8
799.129	0.39
799.302	0.34
799.475	0.17
799.648	0.17
799.821	0.41
799.994	0.23
800.167	-0.18
800.34	0.36
800.514	0.34
800.687	0.19
800.86	0.25
801.033	0.81
801.206	0.72
801.379	0.23
801.551	0.84
801.724	0.67
801.897	1.01
802.07	0.41
802.243	-0.02
802.416	0.63
802.589	0.68
802.762	0.7
802.935	0.53
803.107	1.15
803.28	1.03
803.453	0.74
803.626	0.26
803.798	0.43
803.971	0.28
804.144	0.66
804.317	0.53
804.489	0.95
804.662	0.49
804.835	0.38
805.007	0.02
805.18	0.84
805.353	0.8
805.525	0.07
805.698	0.35
805.87	0.58
806.043	0.61
806.215	-0.04
806.388	0.11
806.56	0.7
806.733	0.96
806.905	0.6
807.078	0.23
807.25	0.53
807.423	1.05
807.595	0.5
807.768	0.75
807.94	0.52
808.112	1.09
808.285	0.67
808.457	0.5
808.629	0.61
808.802	1.12
808.974	0.65
809.146	0.09
809.318	0.01
809.491	0.66
809.663	1.13
809.835	-0.07
810.007	0.66
810.18	0.65
810.352	-0.2
810.524	0.37
810.696	0.65
810.868	0.88
811.04	0.53
811.212	0.55
811.384	0.82
811.556	0.8
811.728	0.34
811.901	1.48
812.073	0.55
812.245	0.99
812.417	0.67
812.589	-0.1
812.76	0.81
812.932	0.95
813.104	0.74
813.276	0.46
813.448	1.11
813.62	0.56
813.792	0.69
813.964	0.52
814.136	0.72
814.307	0.38
814.479	0.07
814.651	0.4
814.823	1.69
814.995	0.4
815.166	0.57
815.338	0.25
815.51	0.04
815.681	1.94
815.853	0.69
816.025	0.29
816.196	1.42
816.368	0.85
816.54	-0.26
816.711	0.54
816.883	1.19
817.054	1.97
817.226	-0.11
817.398	1.19
817.569	0.45
817.741	0.9
817.912	0.58
818.084	0.45
818.255	1.32
818.426	0.49
818.598	0.66
818.769	0.48
818.941	0.78
819.112	1.13
819.283	0.56
819.455	0.29
819.626	0.85
819.798	0.89
819.969	0.59
820.14	0.13
820.311	0.68
820.483	0.76
820.654	0.98
820.825	0.69
820.996	0.45
821.168	0.13
821.339	0.21
821.51	-0.46
821.681	0.66
821.852	1.32
822.023	-0.28
822.195	-0.57
822.366	1.05
822.537	0.83
822.708	0.43
822.879	0.5
823.05	1.26
823.221	0.34
823.392	1.19
823.563	0.45
823.734	0.78
823.905	0.37
824.076	0.2
824.247	0.34
824.418	0.69
824.589	1.33
824.759	0.44
824.93	0.83
825.101	0.33
825.272	0.81
825.443	0.97
825.614	1.41
825.784	-0.08
825.955	2.28
826.126	1.48
826.297	0.92
826.467	1.58
826.638	1.92
826.809	-0.26
826.98	0.92
827.15	1.54
827.321	1.2
827.492	1.08
827.662	0.84
827.833	2.53
828.003	1.47
828.174	0.32
828.345	-0.46
828.515	1.79
828.686	0.86
828.856	0.53
829.027	0.75
829.197	1.06
829.368	1.35
829.538	0.01
829.709	0.15
829.879	1.32
830.049	1
830.22	0.74
830.39	0.23
830.56	1.57
830.731	1.16
830.901	0.49
831.072	0.7
831.242	1.53
831.412	1.4
831.582	0.67
831.753	-0.28
831.923	2.09
832.093	1.15
832.263	1.08
832.434	-0.22
832.604	0.17
832.774	1.96
832.944	0.62
833.114	0.07
833.284	1.29
833.454	0.42
833.624	0.23
833.795	1
833.965	1.92
834.135	2.08
834.305	-0.94
834.475	-0.72
834.645	1.4
834.815	0.89
834.985	0.14
835.155	-0
835.325	1.13
835.494	1.92
835.664	0.91
835.834	0.52
836.004	1.58
836.174	1.1
836.344	0.46
836.514	-0.28
836.684	0.45
836.853	1.69
837.023	1.06
837.193	0.44
837.363	2.41
837.532	1.35
837.702	0.66
837.872	0.38
838.041	1.69
838.211	2.5
838.381	-0.49
838.55	0.3
838.72	4.05
838.89	2.12
839.059	1.19
839.229	-0.01
839.398	3.3
839.568	1.84
839.738	0.74
839.907	1.96
840.077	1.02
840.246	0.66
840.416	-0.03
840.585	-0.14
840.755	2.47
840.924	2.14
841.093	-0.03
841.263	0.36
841.432	0.24
841.602	0.23
841.771	-0.12
841.94	1.65
842.11	2.76
842.279	2.63
842.448	0.4
842.617	-0.25
842.787	2.29
842.956	0.13
843.125	0.17
843.294	0.49
843.464	1.69
843.633	1.74
843.802	-0.21
843.971	0.64
844.14	1.33
844.309	2.21
844.479	-0.72
844.648	-1.02
844.817	1.23
844.986	1.69
845.155	0.71
845.324	1.22
845.493	1.06
845.662	1.25
845.831	1.57
846	1.04
846.169	0.88
846.338	2.71
846.507	1.52
846.676	0.17
846.844	1.28
847.013	1.04
847.182	0.85
847.351	0.04
847.52	0.88
847.689	0.9
847.858	0.9
848.026	0.28
848.195	1.34
848.364	0.93
848.533	-0.87
848.701	0.33
848.87	1.53
849.039	3.43
849.207	1.19
849.376	2.78
849.545	2.73
849.713	0.09
849.882	0.44
850.051	0.9
850.219	1.59
850.388	2.13
850.556	0.41
850.725	-0.68
850.893	2.06
851.062	0.91
851.23	1.37
851.399	-0.5
851.567	1.56
851.736	0.84
851.904	-0.34
852.073	0.7
852.241	1.99
852.41	1.91
852.578	1.17
852.746	0.42
852.915	1.68
853.083	1.51
853.251	-0.09
853.42	0.33
853.588	1.51
853.756	2.69
853.924	0.28
854.093	1.37
854.261	0.01
854.429	-0.76
854.597	1.08
854.765	-0.25
854.934	0.89
855.102	3
855.27	0.99
855.438	1.99
855.606	4.34
855.774	2.54
855.942	-0.1
856.11	-0.26
856.278	1.4
856.446	2.5
856.614	1.2
856.782	0.73
856.95	2.32
857.118	2.25
857.286	2.67
857.454	0.53
857.622	2.6
857.79	2.37
857.958	0.07
858.126	0.21
858.294	-0.71
858.462	0.99
858.629	0.62
858.797	0.22
858.965	1.76
859.133	1.59
859.301	0.84
859.468	2.71
859.636	1.62
859.804	4.96
859.971	2.55
860.139	-0.64
860.307	2.61
860.474	1.39
860.642	0.99
860.81	1.04
860.977	0.86
861.145	3.5
861.313	1.62
861.48	1.35
861.648	2.22
861.815	0.43
861.983	-0.32
862.15	-0.78
862.318	3.72
862.485	2.82
862.653	0.69
862.82	-0.2
862.988	3.95
863.155	3.12
863.322	0.49
863.49	0.21
863.657	1.66
863.824	4.43
863.992	1.46
864.159	2.76
864.326	2.9
864.494	1.26
864.661	3.68
864.828	-1.26
864.996	3.14
865.163	2.93
865.33	0.09
865.497	-1.37
865.664	-0.11
865.832	0.11
865.999	1.07
866.166	-0.42
866.333	-1.04
866.5	1.19
866.667	0.64
866.834	1.91
867.001	2.78
867.168	-0.14
867.335	0.04
867.502	-0.35
867.669	1.61
867.836	5.4
868.003	0.11
868.17	3.96
868.337	2.3
868.504	4.22
868.671	-0.95
868.838	-0.86
869.005	3.33
869.172	2.5
869.339	1.56
869.505	1.6
869.672	1.04
869.839	3.89
870.006	1.66
870.173	0.32
870.339	3.08
870.506	4.82
870.673	0.34
870.84	2.09
871.006	2.24
871.173	1.47
871.34	1.6
871.506	-1.31
871.673	3.31
871.839	0.01
872.006	1.73
872.173	-0.47
872.339	2.43
872.506	4.12
872.672	1.06
872.839	-1.41
873.005	2.51
873.172	5.98
873.338	3.93
873.505	2.19
873.671	5.06
873.838	4.77
874.004	-1.42
874.171	0.25
874.337	1.09
874.503	2.71
874.67	1.45
874.836	0.99
875.002	4.12
875.169	4.89
875.335	1.94
875.501	1.97
875.668	3.02
875.834	2.56
876	-0.12
876.166	2.32
876.332	3.81
876.499	6.54
876.665	1.86
876.831	1.89
876.997	7.73
877.163	2.51
877.329	2.24
877.495	2.46
877.662	3.49
877.828	2.83
877.994	-0.25
878.16	-1.34
878.326	0.9
878.492	2.9
878.658	1.81
878.824	3.41
878.99	3.06
879.156	0.79
879.322	4.45
879.487	0.51
879.653	2.87
879.819	2.69
879.985	-0.29
880.151	1.3
880.317	2.68
880.483	2.27
880.648	2.59
880.814	-0.59
880.98	2.02
881.146	-1.45
881.312	0.38
881.477	0.8
881.643	2.75
881.809	4.89
881.974	3.47
882.14	-0.48
882.306	2.12
882.471	6.73
882.637	0.69
882.803	3.29
882.968	5.41
883.134	7.13
883.299	0.66
883.465	1.43
883.63	5.4
883.796	3.51
883.961	1.84
884.127	3.82
884.292	-3.76
884.458	0.58
884.623	0.58
