Data from Apollo_Calib_20240827__AbsoluteIrradiance__34__23-43-01-795.txt Node

Date: Tue Aug 27 23:43:01 BST 2024
User: biology
Spectrometer: FLMT08252
Trigger mode: 0
Integration Time (sec): 5.000000E-1
Scans to average: 5
Electric dark correction enabled: true
Nonlinearity correction enabled: false
Boxcar width: 0
XAxis mode: Wavelengths
Number of Pixels in Spectrum: 3648
>>>>>Begin Spectral Data<<<<<
179.588	-0
179.809	-0
180.03	-0
180.251	-0
180.473	-0
180.694	0
180.915	0
181.136	-0
181.357	0
181.578	-0
181.799	-0
182.02	-0
182.241	0
182.462	-0
182.683	0
182.904	0
183.125	-0
183.346	0
183.567	0
183.788	0
184.009	0
184.23	0
184.451	0
184.672	0
184.892	0
185.113	0
185.334	0
185.555	0
185.776	0
185.996	0
186.217	0
186.438	0
186.659	0
186.879	0
187.1	0
187.321	0
187.541	0
187.762	0
187.983	0
188.203	0
188.424	0
188.644	0
188.865	0
189.086	0
189.306	0
189.527	0
189.747	0
189.968	0
190.188	0
190.409	0
190.629	0
190.849	0
191.07	0
191.29	0
191.511	0
191.731	0
191.951	0
192.172	0
192.392	0
192.612	0
192.833	0
193.053	0
193.273	0
193.493	0
193.714	0
193.934	0
194.154	0
194.374	0
194.594	0
194.815	0
195.035	0
195.255	0
195.475	0
195.695	0
195.915	0
196.135	0
196.355	0
196.575	0
196.795	0
197.015	0
197.235	0
197.455	0
197.675	0
197.895	0
198.115	0
198.335	0
198.555	0
198.775	0
198.995	0
199.214	0
199.434	0
199.654	0
199.874	0
200.094	3.64
200.313	2.69
200.533	1.96
200.753	1.78
200.973	3.41
201.192	3.07
201.412	1.18
201.632	1.9
201.851	2.92
202.071	1.89
202.291	1.66
202.51	2.06
202.73	2.02
202.95	1.79
203.169	1.47
203.389	2.11
203.608	2.48
203.828	1.23
204.047	1.35
204.267	1.72
204.486	1.82
204.706	2.25
204.925	1.6
205.145	1.86
205.364	2.22
205.583	2.33
205.803	1.36
206.022	1.27
206.242	1.57
206.461	1.48
206.68	1.44
206.9	1.58
207.119	2.13
207.338	2.22
207.557	1.15
207.777	1.22
207.996	1.34
208.215	1.96
208.434	1.02
208.654	0.87
208.873	1.34
209.092	1.79
209.311	1.45
209.53	1.2
209.749	1.43
209.968	1.37
210.187	0.85
210.407	0.94
210.626	1.1
210.845	1.51
211.064	1.3
211.283	0.75
211.502	1.25
211.721	1.13
211.94	1.24
212.159	1.22
212.377	1.25
212.596	1.58
212.815	1.15
213.034	1.28
213.253	1.07
213.472	1.34
213.691	0.73
213.91	0.76
214.128	0.76
214.347	1.43
214.566	0.6
214.785	0.59
215.003	1.2
215.222	1.03
215.441	1
215.66	0.73
215.878	1.14
216.097	1.05
216.316	0.66
216.534	0.8
216.753	0.88
216.972	0.85
217.19	0.74
217.409	0.75
217.627	0.75
217.846	0.81
218.064	1
218.283	0.68
218.501	1.21
218.72	0.86
218.938	0.44
219.157	0.74
219.375	1.26
219.594	0.88
219.812	0.62
220.031	0.53
220.249	1.14
220.467	1.22
220.686	0.74
220.904	0.71
221.122	0.58
221.341	1.03
221.559	0.82
221.777	0.64
221.995	0.85
222.214	1.03
222.432	0.67
222.65	0.77
222.868	0.81
223.086	0.89
223.305	0.88
223.523	0.63
223.741	0.97
223.959	0.56
224.177	0.39
224.395	0.57
224.613	0.82
224.831	0.83
225.049	0.48
225.267	0.58
225.485	0.67
225.703	0.53
225.921	0.58
226.139	0.64
226.357	0.86
226.575	0.79
226.793	0.54
227.011	1.37
227.229	0.66
227.447	0.82
227.665	0.6
227.883	0.39
228.1	0.59
228.318	0.6
228.536	0.32
228.754	0.43
228.972	0.67
229.189	0.85
229.407	0.63
229.625	0.5
229.843	0.86
230.06	0.78
230.278	0.35
230.496	0.61
230.713	0.75
230.931	0.76
231.149	0.49
231.366	0.33
231.584	0.49
231.801	0.96
232.019	0.58
232.236	0.49
232.454	0.39
232.671	0.56
232.889	0.54
233.106	0.39
233.324	0.62
233.541	0.57
233.759	0.6
233.976	0.45
234.194	0.55
234.411	0.57
234.628	0.54
234.846	0.5
235.063	0.49
235.28	0.54
235.498	0.53
235.715	0.48
235.932	0.7
236.149	0.48
236.367	0.43
236.584	0.58
236.801	0.54
237.018	0.53
237.236	0.61
237.453	0.27
237.67	0.57
237.887	0.51
238.104	0.63
238.321	0.42
238.538	0.39
238.755	0.58
238.973	0.35
239.19	0.49
239.407	0.51
239.624	0.56
239.841	0.44
240.058	0.37
240.275	0.52
240.492	0.43
240.709	0.45
240.925	0.4
241.142	0.54
241.359	0.42
241.576	0.37
241.793	0.43
242.01	0.48
242.227	0.64
242.444	0.6
242.66	0.62
242.877	0.47
243.094	0.44
243.311	0.5
243.527	0.43
243.744	0.57
243.961	0.53
244.178	0.3
244.394	0.46
244.611	0.56
244.828	0.6
245.044	0.36
245.261	0.38
245.477	0.41
245.694	0.54
245.911	0.41
246.127	0.49
246.344	0.61
246.56	0.46
246.777	0.42
246.993	0.45
247.21	0.58
247.426	0.31
247.643	0.36
247.859	0.38
248.076	0.29
248.292	0.63
248.508	0.38
248.725	0.44
248.941	0.44
249.157	0.61
249.374	0.4
249.59	0.38
249.806	0.41
250.023	0.45
250.239	0.34
250.455	0.28
250.671	0.45
250.888	0.51
251.104	0.49
251.32	0.39
251.536	0.43
251.752	0.4
251.969	0.42
252.185	0.45
252.401	0.61
252.617	0.45
252.833	0.35
253.049	0.31
253.265	0.46
253.481	0.43
253.697	0.34
253.913	0.25
254.129	0.4
254.345	0.48
254.561	0.31
254.777	0.39
254.993	0.44
255.209	0.49
255.425	0.4
255.641	0.36
255.857	0.51
256.073	0.38
256.288	0.26
256.504	0.36
256.72	0.41
256.936	0.53
257.152	0.35
257.367	0.3
257.583	0.4
257.799	0.48
258.015	0.27
258.23	0.4
258.446	0.56
258.662	0.44
258.877	0.29
259.093	0.36
259.309	0.36
259.524	0.4
259.74	0.4
259.955	0.28
260.171	0.38
260.387	0.4
260.602	0.41
260.818	0.44
261.033	0.28
261.249	0.36
261.464	0.32
261.68	0.23
261.895	0.44
262.11	0.47
262.326	0.4
262.541	0.24
262.757	0.39
262.972	0.4
263.187	0.39
263.403	0.36
263.618	0.48
263.833	0.36
264.049	0.27
264.264	0.32
264.479	0.4
264.694	0.44
264.91	0.25
265.125	0.36
265.34	0.44
265.555	0.55
265.77	0.36
265.986	0.31
266.201	0.35
266.416	0.41
266.631	0.33
266.846	0.3
267.061	0.38
267.276	0.39
267.491	0.2
267.706	0.34
267.921	0.44
268.136	0.33
268.351	0.3
268.566	0.28
268.781	0.44
268.996	0.4
269.211	0.32
269.426	0.19
269.641	0.28
269.856	0.44
270.071	0.31
270.285	0.2
270.5	0.43
270.715	0.41
270.93	0.36
271.145	0.38
271.359	0.43
271.574	0.3
271.789	0.36
272.004	0.31
272.218	0.3
272.433	0.39
272.648	0.31
272.862	0.39
273.077	0.34
273.292	0.38
273.506	0.28
273.721	0.3
273.936	0.33
274.15	0.4
274.365	0.29
274.579	0.39
274.794	0.33
275.008	0.46
275.223	0.24
275.437	0.28
275.652	0.42
275.866	0.32
276.081	0.32
276.295	0.34
276.509	0.36
276.724	0.36
276.938	0.35
277.153	0.34
277.367	0.36
277.581	0.26
277.796	0.28
278.01	0.3
278.224	0.38
278.438	0.4
278.653	0.28
278.867	0.3
279.081	0.11
279.295	0.31
279.51	0.35
279.724	0.18
279.938	0.33
280.152	0.33
280.366	0.26
280.58	0.32
280.794	0.39
281.008	0.35
281.222	0.41
281.437	0.45
281.651	0.33
281.865	0.42
282.079	0.27
282.293	0.16
282.507	0.24
282.721	0.3
282.935	0.26
283.148	0.22
283.362	0.26
283.576	0.22
283.79	0.29
284.004	0.25
284.218	0.38
284.432	0.27
284.646	0.31
284.859	0.27
285.073	0.28
285.287	0.3
285.501	0.3
285.714	0.31
285.928	0.32
286.142	0.24
286.356	0.28
286.569	0.25
286.783	0.38
286.997	0.33
287.21	0.3
287.424	0.28
287.637	0.27
287.851	0.24
288.065	0.35
288.278	0.26
288.492	0.33
288.705	0.31
288.919	0.35
289.132	0.2
289.346	0.29
289.559	0.2
289.773	0.28
289.986	0.26
290.2	0.3
290.413	0.33
290.626	0.24
290.84	0.31
291.053	0.26
291.267	0.34
291.48	0.24
291.693	0.23
291.906	0.23
292.12	0.25
292.333	0.26
292.546	0.21
292.76	0.39
292.973	0.38
293.186	0.3
293.399	0.25
293.612	0.35
293.826	0.25
294.039	0.27
294.252	0.26
294.465	0.29
294.678	0.29
294.891	0.28
295.104	0.21
295.317	0.26
295.53	0.3
295.743	0.23
295.956	0.28
296.169	0.31
296.382	0.31
296.595	0.26
296.808	0.22
297.021	0.31
297.234	0.28
297.447	0.26
297.66	0.27
297.873	0.34
298.086	0.29
298.299	0.2
298.511	0.2
298.724	0.29
298.937	0.25
299.15	0.25
299.363	0.25
299.575	0.29
299.788	0.29
300.001	0.27
300.213	0.26
300.426	0.22
300.639	0.24
300.852	0.23
301.064	0.31
301.277	0.33
301.489	0.29
301.702	0.24
301.915	0.28
302.127	0.27
302.34	0.26
302.552	0.24
302.765	0.23
302.977	0.3
303.19	0.25
303.402	0.22
303.615	0.19
303.827	0.22
304.04	0.24
304.252	0.27
304.464	0.25
304.677	0.33
304.889	0.29
305.102	0.21
305.314	0.23
305.526	0.36
305.739	0.3
305.951	0.14
306.163	0.22
306.375	0.29
306.588	0.25
306.8	0.21
307.012	0.21
307.224	0.25
307.436	0.39
307.649	0.19
307.861	0.26
308.073	0.3
308.285	0.24
308.497	0.21
308.709	0.21
308.921	0.26
309.133	0.3
309.346	0.24
309.558	0.21
309.77	0.28
309.982	0.33
310.194	0.26
310.406	0.22
310.617	0.34
310.829	0.25
311.041	0.31
311.253	0.21
311.465	0.25
311.677	0.22
311.889	0.23
312.101	0.23
312.313	0.35
312.524	0.3
312.736	0.19
312.948	0.25
313.16	0.33
313.372	0.27
313.583	0.28
313.795	0.18
314.007	0.22
314.218	0.28
314.43	0.24
314.642	0.21
314.853	0.2
315.065	0.27
315.277	0.27
315.488	0.26
315.7	0.3
315.912	0.26
316.123	0.23
316.335	0.25
316.546	0.32
316.758	0.23
316.969	0.2
317.181	0.25
317.392	0.23
317.604	0.31
317.815	0.22
318.026	0.2
318.238	0.22
318.449	0.28
318.661	0.16
318.872	0.19
319.083	0.26
319.295	0.28
319.506	0.24
319.717	0.27
319.929	0.26
320.14	0.27
320.351	0.25
320.562	0.23
320.774	0.27
320.985	0.24
321.196	0.21
321.407	0.17
321.618	0.32
321.829	0.28
322.041	0.25
322.252	0.25
322.463	0.27
322.674	0.32
322.885	0.21
323.096	0.25
323.307	0.27
323.518	0.29
323.729	0.23
323.94	0.25
324.151	0.23
324.362	0.26
324.573	0.25
324.784	0.2
324.995	0.29
325.206	0.29
325.417	0.22
325.628	0.21
325.838	0.27
326.049	0.28
326.26	0.28
326.471	0.28
326.682	0.28
326.892	0.25
327.103	0.23
327.314	0.2
327.525	0.32
327.735	0.27
327.946	0.21
328.157	0.22
328.368	0.32
328.578	0.26
328.789	0.27
328.999	0.31
329.21	0.24
329.421	0.29
329.631	0.21
329.842	0.22
330.052	0.24
330.263	0.28
330.473	0.28
330.684	0.21
330.894	0.24
331.105	0.26
331.315	0.23
331.526	0.19
331.736	0.3
331.947	0.27
332.157	0.31
332.367	0.19
332.578	0.35
332.788	0.33
332.999	0.29
333.209	0.18
333.419	0.21
333.629	0.24
333.84	0.3
334.05	0.22
334.26	0.35
334.47	0.32
334.681	0.28
334.891	0.17
335.101	0.28
335.311	0.33
335.521	0.24
335.732	0.25
335.942	0.32
336.152	0.29
336.362	0.28
336.572	0.27
336.782	0.32
336.992	0.29
337.202	0.26
337.412	0.23
337.622	0.26
337.832	0.28
338.042	0.23
338.252	0.24
338.462	0.23
338.672	0.24
338.882	0.22
339.092	0.19
339.302	0.34
339.511	0.28
339.721	0.22
339.931	0.23
340.141	0.29
340.351	0.31
340.561	0.27
340.77	0.27
340.98	0.26
341.19	0.31
341.4	0.23
341.609	0.19
341.819	0.26
342.029	0.25
342.238	0.25
342.448	0.2
342.658	0.28
342.867	0.26
343.077	0.22
343.286	0.27
343.496	0.25
343.706	0.34
343.915	0.22
344.125	0.24
344.334	0.29
344.544	0.2
344.753	0.23
344.963	0.24
345.172	0.21
345.381	0.23
345.591	0.21
345.8	0.25
346.01	0.31
346.219	0.31
346.428	0.12
346.638	0.25
346.847	0.25
347.056	0.31
347.266	0.21
347.475	0.27
347.684	0.24
347.893	0.27
348.103	0.29
348.312	0.24
348.521	0.21
348.73	0.24
348.94	0.26
349.149	0.24
349.358	0.26
349.567	0.25
349.776	0.2
349.985	0.25
350.194	0.29
350.403	0.22
350.612	0.2
350.821	0.24
351.03	0.26
351.239	0.21
351.448	0.22
351.657	0.22
351.866	0.28
352.075	0.22
352.284	0.27
352.493	0.23
352.702	0.33
352.911	0.27
353.12	0.26
353.329	0.21
353.538	0.27
353.746	0.21
353.955	0.2
354.164	0.29
354.373	0.22
354.582	0.27
354.79	0.22
354.999	0.23
355.208	0.24
355.416	0.31
355.625	0.17
355.834	0.21
356.042	0.26
356.251	0.18
356.46	0.21
356.668	0.26
356.877	0.3
357.085	0.28
357.294	0.14
357.503	0.25
357.711	0.19
357.92	0.43
358.128	0.25
358.337	0.22
358.545	0.31
358.754	0.19
358.962	0.28
359.17	0.19
359.379	0.3
359.587	0.26
359.796	0.23
360.004	0.33
360.212	0.29
360.421	0.27
360.629	0.26
360.837	0.21
361.046	0.31
361.254	0.28
361.462	0.25
361.67	0.25
361.879	0.25
362.087	0.32
362.295	0.27
362.503	0.2
362.711	0.23
362.92	0.27
363.128	0.21
363.336	0.22
363.544	0.17
363.752	0.25
363.96	0.21
364.168	0.22
364.376	0.23
364.584	0.23
364.792	0.27
365	0.27
365.208	0.25
365.416	0.28
365.624	0.28
365.832	0.19
366.04	0.28
366.248	0.25
366.456	0.26
366.664	0.25
366.872	0.25
367.079	0.23
367.287	0.25
367.495	0.25
367.703	0.22
367.911	0.23
368.118	0.23
368.326	0.19
368.534	0.22
368.742	0.3
368.949	0.11
369.157	0.2
369.365	0.27
369.572	0.28
369.78	0.2
369.988	0.24
370.195	0.23
370.403	0.33
370.61	0.21
370.818	0.26
371.026	0.34
371.233	0.2
371.441	0.27
371.648	0.24
371.856	0.24
372.063	0.29
372.271	0.23
372.478	0.23
372.685	0.22
372.893	0.32
373.1	0.25
373.308	0.25
373.515	0.37
373.722	0.31
373.93	0.21
374.137	0.28
374.344	0.32
374.552	0.3
374.759	0.32
374.966	0.23
375.173	0.25
375.381	0.3
375.588	0.25
375.795	0.2
376.002	0.23
376.209	0.25
376.417	0.25
376.624	0.29
376.831	0.29
377.038	0.24
377.245	0.15
377.452	0.21
377.659	0.26
377.866	0.22
378.073	0.23
378.28	0.27
378.487	0.33
378.694	0.29
378.901	0.24
379.108	0.22
379.315	0.29
379.522	0.36
379.729	0.26
379.936	0.26
380.143	0.3
380.35	0.27
380.557	0.25
380.763	0.28
380.97	0.28
381.177	0.24
381.384	0.32
381.591	0.17
381.797	0.27
382.004	0.34
382.211	0.27
382.418	0.27
382.624	0.29
382.831	0.27
383.038	0.26
383.244	0.25
383.451	0.23
383.658	0.29
383.864	0.25
384.071	0.2
384.277	0.3
384.484	0.22
384.69	0.31
384.897	0.27
385.103	0.26
385.31	0.22
385.516	0.25
385.723	0.24
385.929	0.26
386.136	0.24
386.342	0.24
386.549	0.26
386.755	0.3
386.961	0.31
387.168	0.27
387.374	0.26
387.58	0.33
387.787	0.24
387.993	0.26
388.199	0.26
388.406	0.23
388.612	0.26
388.818	0.22
389.024	0.27
389.231	0.31
389.437	0.43
389.643	0.32
389.849	0.31
390.055	0.29
390.261	0.29
390.467	0.3
390.674	0.27
390.88	0.34
391.086	0.32
391.292	0.21
391.498	0.31
391.704	0.33
391.91	0.26
392.116	0.27
392.322	0.21
392.528	0.31
392.734	0.3
392.94	0.31
393.146	0.26
393.352	0.31
393.557	0.33
393.763	0.31
393.969	0.33
394.175	0.31
394.381	0.32
394.587	0.26
394.792	0.23
394.998	0.34
395.204	0.32
395.41	0.29
395.615	0.32
395.821	0.3
396.027	0.35
396.233	0.27
396.438	0.27
396.644	0.37
396.85	0.35
397.055	0.31
397.261	0.32
397.466	0.4
397.672	0.35
397.878	0.34
398.083	0.3
398.289	0.31
398.494	0.36
398.7	0.33
398.905	0.23
399.111	0.4
399.316	0.28
399.522	0.35
399.727	0.36
399.932	0.36
400.138	0.29
400.343	0.42
400.549	0.33
400.754	0.36
400.959	0.37
401.165	0.35
401.37	0.4
401.575	0.43
401.78	0.38
401.986	0.33
402.191	0.35
402.396	0.31
402.601	0.4
402.807	0.41
403.012	0.36
403.217	0.43
403.422	0.37
403.627	0.47
403.832	0.38
404.037	0.39
404.243	0.43
404.448	0.4
404.653	0.41
404.858	0.42
405.063	0.46
405.268	0.38
405.473	0.36
405.678	0.42
405.883	0.6
406.088	0.48
406.293	0.39
406.498	0.41
406.703	0.52
406.907	0.49
407.112	0.47
407.317	0.48
407.522	0.56
407.727	0.46
407.932	0.52
408.136	0.63
408.341	0.55
408.546	0.61
408.751	0.61
408.956	0.6
409.16	0.61
409.365	0.62
409.57	0.6
409.774	0.58
409.979	0.64
410.184	0.69
410.388	0.59
410.593	0.76
410.798	0.67
411.002	0.75
411.207	0.78
411.411	0.74
411.616	0.74
411.82	0.79
412.025	0.84
412.229	0.91
412.434	0.92
412.638	0.94
412.843	0.9
413.047	0.96
413.252	0.93
413.456	0.95
413.66	1.04
413.865	0.98
414.069	1.16
414.273	1.12
414.478	1.15
414.682	1.15
414.886	1.21
415.091	1.26
415.295	1.2
415.499	1.31
415.703	1.32
415.908	1.46
416.112	1.41
416.316	1.57
416.52	1.57
416.724	1.56
416.929	1.59
417.133	1.85
417.337	1.71
417.541	1.81
417.745	1.87
417.949	1.94
418.153	2.06
418.357	2.01
418.561	2.24
418.765	2.13
418.969	2.3
419.173	2.51
419.377	2.47
419.581	2.63
419.785	2.58
419.989	2.59
420.193	2.79
420.397	2.93
420.601	2.99
420.804	3.1
421.008	3.11
421.212	3.25
421.416	3.21
421.62	3.27
421.823	3.4
422.027	3.47
422.231	3.45
422.435	3.52
422.638	3.6
422.842	3.6
423.046	3.74
423.249	3.96
423.453	3.98
423.657	4.1
423.86	4.2
424.064	4.28
424.268	4.45
424.471	4.45
424.675	4.61
424.878	4.78
425.082	4.88
425.285	5.12
425.489	5.1
425.692	5.23
425.896	5.23
426.099	5.51
426.303	5.6
426.506	5.7
426.71	5.88
426.913	6.15
427.116	6.38
427.32	6.32
427.523	6.5
427.726	6.64
427.93	6.85
428.133	7.08
428.336	7.28
428.54	7.41
428.743	7.67
428.946	7.89
429.149	7.96
429.353	7.84
429.556	7.99
429.759	7.95
429.962	8.33
430.165	8.43
430.368	8.02
430.571	8.08
430.775	8.18
430.978	8.05
431.181	8.17
431.384	8.33
431.587	8.31
431.79	8.73
431.993	8.69
432.196	8.89
432.399	9.27
432.602	9.45
432.805	9.47
433.008	10.03
433.211	9.91
433.414	10.3
433.616	10.31
433.819	10.26
434.022	10.38
434.225	10.6
434.428	10.65
434.631	10.82
434.833	10.82
435.036	11.08
435.239	11.3
435.442	11.34
435.645	11.59
435.847	11.56
436.05	11.87
436.253	12.07
436.455	12.09
436.658	12.08
436.861	12.25
437.063	12.47
437.266	12.37
437.468	12.86
437.671	13.03
437.874	13.21
438.076	12.93
438.279	13.46
438.481	13.5
438.684	14.32
438.886	13.79
439.089	14.11
439.291	14.16
439.494	14.59
439.696	14.61
439.899	15.21
440.101	15.69
440.303	15.84
440.506	16.56
440.708	16.37
440.91	16.4
441.113	16.72
441.315	16.92
441.517	16.74
441.72	17.34
441.922	16.96
442.124	16.85
442.326	17.24
442.529	17.33
442.731	17.4
442.933	17.62
443.135	17.45
443.337	17.58
443.539	17.98
443.742	17.78
443.944	18.43
444.146	18.24
444.348	18.06
444.55	18.09
444.752	18.06
444.954	18.18
445.156	18.16
445.358	18.48
445.56	18.81
445.762	18.53
445.964	18.81
446.166	18.71
446.368	18.67
446.57	18.57
446.772	18.27
446.974	18.06
447.175	18.27
447.377	17.93
447.579	18.45
447.781	18.05
447.983	17.84
448.184	17.45
448.386	17.82
448.588	17.35
448.79	17.1
448.991	17.53
449.193	17.59
449.395	16.91
449.597	16.52
449.798	16.29
450	16.01
450.202	15.92
450.403	16.03
450.605	15.87
450.806	15.44
451.008	15.22
451.21	15.07
451.411	14.7
451.613	13.94
451.814	14.12
452.016	14.04
452.217	13.37
452.419	13.39
452.62	12.92
452.821	12.71
453.023	12.69
453.224	12.3
453.426	11.94
453.627	11.1
453.828	11.28
454.03	11.37
454.231	11.36
454.432	11.11
454.634	10.77
454.835	10.48
455.036	10.45
455.238	9.98
455.439	9.76
455.64	9.53
455.841	9.5
456.042	9.45
456.244	9.18
456.445	8.95
456.646	8.61
456.847	8.64
457.048	8.46
457.249	8.45
457.45	8.19
457.651	7.74
457.852	7.5
458.054	7.24
458.255	7.22
458.456	7.29
458.657	7.15
458.858	6.71
459.058	6.66
459.259	6.8
459.46	6.47
459.661	6.43
459.862	6.49
460.063	6.38
460.264	6.27
460.465	5.89
460.666	6.03
460.866	5.77
461.067	5.51
461.268	5.55
461.469	5.46
461.67	5.41
461.87	5.28
462.071	5.32
462.272	5.15
462.473	5.15
462.673	5.23
462.874	5.14
463.075	5.12
463.275	5.12
463.476	5.13
463.676	5.14
463.877	4.91
464.078	4.96
464.278	4.88
464.479	4.86
464.679	4.74
464.88	4.66
465.08	4.66
465.281	4.51
465.481	4.34
465.682	4.13
465.882	4.15
466.083	4.11
466.283	4.02
466.483	3.9
466.684	3.72
466.884	3.62
467.085	3.65
467.285	3.69
467.485	3.62
467.686	3.58
467.886	3.41
468.086	3.41
468.286	3.39
468.487	3.41
468.687	3.3
468.887	3.16
469.087	3.29
469.287	3.27
469.488	3.06
469.688	3.15
469.888	3.23
470.088	3.13
470.288	3.05
470.488	2.98
470.688	2.93
470.888	2.92
471.088	2.7
471.288	2.82
471.488	2.75
471.688	2.75
471.888	2.66
472.088	2.76
472.288	2.7
472.488	2.63
472.688	2.6
472.888	2.61
473.088	2.56
473.288	2.44
473.488	2.48
473.688	2.56
473.887	2.47
474.087	2.42
474.287	2.47
474.487	2.39
474.687	2.41
474.886	2.32
475.086	2.26
475.286	2.29
475.486	2.23
475.685	2.25
475.885	2.2
476.085	2.31
476.284	2.24
476.484	2.25
476.684	2.18
476.883	2.25
477.083	2.19
477.282	2.13
477.482	2.14
477.681	2.12
477.881	2.06
478.08	2.11
478.28	2.08
478.479	2.06
478.679	2.11
478.878	2.07
479.078	2.03
479.277	2.03
479.477	2.02
479.676	2.04
479.875	2.02
480.075	1.96
480.274	2.06
480.473	2.06
480.673	2
480.872	2.11
481.071	2.03
481.271	2.06
481.47	1.94
481.669	2.03
481.868	1.94
482.067	1.98
482.267	1.93
482.466	1.92
482.665	1.97
482.864	1.93
483.063	1.97
483.262	1.98
483.461	2
483.661	2.06
483.86	1.97
484.059	2.06
484.258	2.05
484.457	2.05
484.656	2
484.855	2.11
485.054	1.9
485.253	1.98
485.452	1.95
485.651	2.03
485.849	2
486.048	2.04
486.247	2.02
486.446	2.09
486.645	2.03
486.844	2.07
487.043	2.05
487.241	2.09
487.44	2.07
487.639	2.13
487.838	2.13
488.037	2.14
488.235	2.2
488.434	2.14
488.633	2.04
488.831	2.21
489.03	2.2
489.229	2.2
489.427	2.19
489.626	2.25
489.825	2.25
490.023	2.29
490.222	2.25
490.42	2.27
490.619	2.34
490.817	2.38
491.016	2.33
491.214	2.41
491.413	2.43
491.611	2.32
491.81	2.39
492.008	2.41
492.207	2.58
492.405	2.53
492.604	2.47
492.802	2.55
493	2.59
493.199	2.59
493.397	2.66
493.595	2.69
493.794	2.61
493.992	2.75
494.19	2.74
494.388	2.81
494.587	2.72
494.785	2.77
494.983	2.71
495.181	2.84
495.379	2.87
495.578	2.95
495.776	2.96
495.974	2.92
496.172	2.95
496.37	3.07
496.568	3.1
496.766	3.07
496.964	3.17
497.162	3.15
497.36	3.21
497.558	3.19
497.756	3.33
497.954	3.26
498.152	3.34
498.35	3.42
498.548	3.34
498.746	3.36
498.944	3.42
499.142	3.41
499.34	3.53
499.538	3.62
499.736	3.47
499.933	3.6
500.131	3.62
500.329	3.79
500.527	3.72
500.725	3.84
500.922	3.82
501.12	3.81
501.318	3.91
501.516	3.9
501.713	4
501.911	3.97
502.109	3.91
502.306	4.11
502.504	4
502.701	4.09
502.899	4.17
503.097	4.3
503.294	4.16
503.492	4.34
503.689	4.37
503.887	4.32
504.084	4.43
504.282	4.41
504.479	4.37
504.677	4.58
504.874	4.47
505.072	4.46
505.269	4.7
505.466	4.65
505.664	4.72
505.861	4.62
506.059	4.74
506.256	4.77
506.453	4.83
506.651	4.92
506.848	4.99
507.045	4.95
507.242	4.93
507.44	5
507.637	5.06
507.834	5.07
508.031	5.23
508.229	5.12
508.426	5.08
508.623	5.28
508.82	5.34
509.017	5.23
509.214	5.24
509.411	5.41
509.608	5.33
509.805	5.5
510.003	5.45
510.2	5.5
510.397	5.69
510.594	5.56
510.791	5.62
510.988	5.63
511.184	5.55
511.381	5.5
511.578	5.7
511.775	5.8
511.972	5.7
512.169	5.79
512.366	5.83
512.563	5.93
512.76	5.93
512.956	6.02
513.153	5.91
513.35	5.88
513.547	5.89
513.744	6.1
513.94	6.06
514.137	6.13
514.334	6.11
514.53	6.16
514.727	6.32
514.924	6.23
515.12	6.24
515.317	6.23
515.514	6.2
515.71	6.18
515.907	6.43
516.103	6.43
516.3	6.3
516.497	6.44
516.693	6.45
516.89	6.46
517.086	6.51
517.283	6.55
517.479	6.43
517.676	6.61
517.872	6.63
518.068	6.59
518.265	6.62
518.461	6.58
518.658	6.71
518.854	6.69
519.05	6.74
519.247	6.91
519.443	6.72
519.639	6.86
519.836	6.79
520.032	6.73
520.228	6.89
520.424	6.85
520.621	6.87
520.817	6.98
521.013	6.92
521.209	7.09
521.405	7.05
521.601	7.03
521.798	6.98
521.994	6.99
522.19	6.95
522.386	6.99
522.582	7.1
522.778	7.22
522.974	7.15
523.17	7.1
523.366	7.09
523.562	7.19
523.758	7.2
523.954	6.99
524.15	7.24
524.346	7.22
524.542	7.3
524.738	7.22
524.934	7.32
525.129	7.33
525.325	7.23
525.521	7.22
525.717	7.47
525.913	7.32
526.109	7.3
526.304	7.49
526.5	7.39
526.696	7.41
526.892	7.36
527.087	7.61
527.283	7.47
527.479	7.42
527.674	7.31
527.87	7.49
528.066	7.55
528.261	7.55
528.457	7.41
528.653	7.59
528.848	7.56
529.044	7.66
529.239	7.51
529.435	7.56
529.63	7.55
529.826	7.54
530.021	7.6
530.217	7.59
530.412	7.53
530.608	7.63
530.803	7.63
530.999	7.58
531.194	7.63
531.389	7.68
531.585	7.67
531.78	7.83
531.975	7.69
532.171	7.74
532.366	7.75
532.561	7.76
532.757	7.71
532.952	7.85
533.147	7.65
533.342	7.77
533.538	7.67
533.733	7.87
533.928	7.58
534.123	7.73
534.318	7.78
534.513	7.72
534.709	7.92
534.904	7.79
535.099	7.87
535.294	7.86
535.489	7.92
535.684	7.79
535.879	7.8
536.074	7.89
536.269	7.89
536.464	7.89
536.659	7.85
536.854	7.85
537.049	7.95
537.244	7.94
537.439	7.84
537.634	7.88
537.828	7.99
538.023	7.92
538.218	7.93
538.413	7.79
538.608	7.92
538.803	7.9
538.997	7.9
539.192	7.91
539.387	7.89
539.582	7.94
539.776	7.86
539.971	7.95
540.166	8.08
540.36	7.89
540.555	8.1
540.75	7.99
540.944	7.92
541.139	7.98
541.334	7.96
541.528	8
541.723	8.08
541.917	8.02
542.112	7.97
542.306	7.82
542.501	7.89
542.695	7.98
542.89	7.94
543.084	8.01
543.279	7.98
543.473	8.07
543.668	8.09
543.862	7.9
544.056	7.91
544.251	8.01
544.445	8.09
544.64	8.1
544.834	7.81
545.028	7.68
545.222	8
545.417	8.19
545.611	8.05
545.805	8.02
546	7.83
546.194	8.07
546.388	8.07
546.582	7.98
546.776	8.02
546.97	8
547.165	8.05
547.359	8.08
547.553	7.97
547.747	8.03
547.941	8.19
548.135	8.01
548.329	8.06
548.523	8.09
548.717	7.98
548.911	8.02
549.105	7.98
549.299	8.09
549.493	8.13
549.687	8.02
549.881	8.19
550.075	8.09
550.269	7.93
550.463	8.12
550.657	8.18
550.85	8.06
551.044	8.06
551.238	8.12
551.432	8.08
551.626	8.11
551.82	8.08
552.013	8.01
552.207	8.15
552.401	8.11
552.594	8.08
552.788	8.02
552.982	8.05
553.176	7.99
553.369	8.22
553.563	8.11
553.756	8.06
553.95	8.1
554.144	8.1
554.337	8.13
554.531	7.98
554.724	8.03
554.918	8.21
555.111	8.04
555.305	8.14
555.498	8.04
555.692	8.17
555.885	8.2
556.079	8.01
556.272	8.08
556.466	8.13
556.659	8.06
556.852	8.12
557.046	7.99
557.239	7.94
557.432	8.03
557.626	8.18
557.819	8.14
558.012	8.12
558.206	8.18
558.399	8.11
558.592	8.06
558.785	8.08
558.979	8.1
559.172	8.06
559.365	8.07
559.558	8.04
559.751	7.96
559.944	8.21
560.138	8.1
560.331	8.06
560.524	8.22
560.717	8.08
560.91	8.08
561.103	8.12
561.296	7.92
561.489	8.13
561.682	8.11
561.875	8.11
562.068	8.16
562.261	8.03
562.454	8.24
562.647	8.08
562.84	8.08
563.032	8.14
563.225	8
563.418	8.06
563.611	8.12
563.804	8.09
563.997	8.03
564.19	7.86
564.382	8.24
564.575	8.14
564.768	8
564.961	8.09
565.153	8.04
565.346	7.96
565.539	8.16
565.731	8.1
565.924	8.16
566.117	8.22
566.309	8.14
566.502	8.02
566.695	8.01
566.887	8.12
567.08	8.09
567.272	8.07
567.465	7.98
567.657	8.14
567.85	7.96
568.042	8.03
568.235	8.06
568.427	7.94
568.62	8.05
568.812	8.05
569.005	8.12
569.197	7.98
569.389	8.05
569.582	8.07
569.774	8.05
569.966	7.99
570.159	7.9
570.351	7.98
570.543	8.01
570.736	8.08
570.928	7.86
571.12	8.05
571.312	7.97
571.505	7.83
571.697	8.02
571.889	7.99
572.081	8.02
572.273	7.93
572.465	8
572.658	7.92
572.85	8.01
573.042	8.03
573.234	7.92
573.426	7.85
573.618	7.93
573.81	7.98
574.002	7.92
574.194	7.99
574.386	7.79
574.578	7.82
574.77	7.9
574.962	7.93
575.154	7.81
575.346	7.85
575.538	7.77
575.729	7.86
575.921	7.93
576.113	8
576.305	7.94
576.497	8
576.689	7.73
576.88	7.75
577.072	7.85
577.264	7.87
577.456	7.86
577.647	7.83
577.839	7.97
578.031	7.8
578.223	7.81
578.414	7.69
578.606	7.85
578.798	7.87
578.989	7.83
579.181	7.86
579.372	7.79
579.564	7.81
579.755	7.78
579.947	7.75
580.139	7.84
580.33	7.62
580.522	7.73
580.713	7.71
580.905	7.73
581.096	7.88
581.287	7.74
581.479	7.73
581.67	7.72
581.862	7.67
582.053	7.78
582.244	7.58
582.436	7.84
582.627	7.57
582.818	7.55
583.01	7.59
583.201	7.72
583.392	7.63
583.583	7.58
583.775	7.46
583.966	7.61
584.157	7.62
584.348	7.67
584.54	7.53
584.731	7.64
584.922	7.55
585.113	7.43
585.304	7.55
585.495	7.5
585.686	7.61
585.877	7.61
586.068	7.69
586.259	7.58
586.45	7.57
586.641	7.5
586.832	7.58
587.023	7.53
587.214	7.4
587.405	7.49
587.596	7.42
587.787	7.37
587.978	7.43
588.169	7.41
588.36	7.36
588.551	7.38
588.742	7.47
588.932	7.45
589.123	7.26
589.314	7.48
589.505	7.31
589.696	7.27
589.886	7.38
590.077	7.3
590.268	7.23
590.458	7.25
590.649	7.12
590.84	7.23
591.03	7.29
591.221	7.26
591.412	7.06
591.602	7.37
591.793	7.23
591.984	7.29
592.174	7.2
592.365	7.26
592.555	7.12
592.746	7.17
592.936	7.13
593.127	7.22
593.317	7.17
593.508	7.18
593.698	7.08
593.889	7.09
594.079	7.09
594.269	7.02
594.46	7.06
594.65	7.13
594.84	7.05
595.031	6.93
595.221	6.95
595.411	6.92
595.602	7.05
595.792	6.96
595.982	6.9
596.172	7.04
596.363	6.92
596.553	6.86
596.743	6.99
596.933	6.88
597.123	6.9
597.314	6.79
597.504	6.76
597.694	6.92
597.884	6.74
598.074	6.85
598.264	6.8
598.454	6.77
598.644	6.77
598.834	6.75
599.024	6.61
599.214	6.68
599.404	6.76
599.594	6.68
599.784	6.58
599.974	6.77
600.164	6.66
600.354	6.62
600.544	6.56
600.734	6.63
600.924	6.63
601.114	6.49
601.303	6.55
601.493	6.51
601.683	6.6
601.873	6.48
602.063	6.45
602.252	6.51
602.442	6.45
602.632	6.44
602.821	6.38
603.011	6.45
603.201	6.44
603.39	6.41
603.58	6.26
603.77	6.39
603.959	6.43
604.149	6.32
604.339	6.34
604.528	6.4
604.718	6.35
604.907	6.32
605.097	6.23
605.286	6.25
605.476	6.21
605.665	6.31
605.855	6.17
606.044	6.29
606.234	6.24
606.423	6.15
606.612	6.14
606.802	6.15
606.991	6.23
607.181	6.19
607.37	6.16
607.559	5.99
607.749	6.11
607.938	6
608.127	6.03
608.316	6.03
608.506	5.91
608.695	6.06
608.884	5.94
609.073	5.96
609.263	6.06
609.452	6.04
609.641	5.79
609.83	5.84
610.019	5.93
610.208	5.88
610.397	5.85
610.586	5.84
610.775	5.82
610.965	5.81
611.154	5.7
611.343	5.78
611.532	5.7
611.721	5.79
611.91	5.64
612.099	5.66
612.287	5.65
612.476	5.59
612.665	5.7
612.854	5.56
613.043	5.59
613.232	5.64
613.421	5.53
613.61	5.56
613.798	5.62
613.987	5.61
614.176	5.55
614.365	5.47
614.554	5.51
614.742	5.57
614.931	5.35
615.12	5.49
615.309	5.46
615.497	5.35
615.686	5.29
615.875	5.36
616.063	5.33
616.252	5.31
616.44	5.33
616.629	5.34
616.818	5.25
617.006	5.23
617.195	5.24
617.383	5.21
617.572	5.15
617.76	5.15
617.949	5.2
618.137	5.26
618.326	5.18
618.514	5.03
618.703	4.98
618.891	5.16
619.079	5.07
619.268	5.16
619.456	4.99
619.644	5.1
619.833	5.02
620.021	5
620.209	4.84
620.398	4.99
620.586	4.92
620.774	5.05
620.962	4.91
621.151	5.06
621.339	4.89
621.527	4.84
621.715	4.82
621.903	4.84
622.092	4.73
622.28	4.95
622.468	4.68
622.656	4.73
622.844	4.73
623.032	4.79
623.22	4.61
623.408	4.81
623.596	4.74
623.784	4.82
623.972	4.63
624.16	4.64
624.348	4.72
624.536	4.73
624.724	4.58
624.912	4.68
625.1	4.61
625.288	4.58
625.476	4.56
625.664	4.63
625.851	4.48
626.039	4.54
626.227	4.47
626.415	4.49
626.603	4.41
626.79	4.49
626.978	4.38
627.166	4.46
627.354	4.35
627.541	4.4
627.729	4.21
627.917	4.48
628.104	4.42
628.292	4.32
628.48	4.29
628.667	4.24
628.855	4.33
629.042	4.35
629.23	4.23
629.418	4.24
629.605	4.26
629.793	4.17
629.98	4.2
630.168	4.19
630.355	4.2
630.543	4.19
630.73	4.12
630.917	4.11
631.105	4.2
631.292	4.11
631.48	4.1
631.667	4.12
631.854	4.01
632.042	4.02
632.229	3.99
632.416	4.03
632.604	4.01
632.791	3.87
632.978	3.94
633.165	3.94
633.353	4.04
633.54	3.99
633.727	3.87
633.914	3.84
634.101	3.76
634.289	3.9
634.476	3.78
634.663	3.8
634.85	3.77
635.037	3.74
635.224	3.73
635.411	3.84
635.598	3.73
635.785	3.77
635.972	3.7
636.159	3.7
636.346	3.67
636.533	3.69
636.72	3.64
636.907	3.65
637.094	3.61
637.281	3.54
637.468	3.68
637.655	3.66
637.842	3.57
638.029	3.53
638.215	3.52
638.402	3.51
638.589	3.44
638.776	3.47
638.963	3.47
639.149	3.53
639.336	3.49
639.523	3.46
639.709	3.47
639.896	3.36
640.083	3.4
640.27	3.49
640.456	3.36
640.643	3.38
640.829	3.27
641.016	3.29
641.203	3.25
641.389	3.33
641.576	3.26
641.762	3.31
641.949	3.28
642.135	3.29
642.322	3.18
642.508	3.17
642.695	3.29
642.881	3.14
643.068	3.19
643.254	3.18
643.441	3.15
643.627	3.21
643.813	3.09
644	3.2
644.186	3.03
644.372	3.15
644.559	3.11
644.745	3.1
644.931	3.04
645.118	3.09
645.304	3.06
645.49	3.04
645.676	2.99
645.862	3.01
646.049	3.07
646.235	2.98
646.421	3.14
646.607	3.12
646.793	2.93
646.979	2.87
647.165	2.92
647.352	2.97
647.538	2.98
647.724	2.85
647.91	2.87
648.096	2.94
648.282	2.87
648.468	2.85
648.654	2.87
648.84	2.84
649.026	2.81
649.212	2.81
649.397	2.78
649.583	2.78
649.769	2.8
649.955	2.78
650.141	2.79
650.327	2.83
650.513	2.69
650.698	2.74
650.884	2.63
651.07	2.74
651.256	2.7
651.442	2.72
651.627	2.67
651.813	2.69
651.999	2.62
652.184	2.66
652.37	2.6
652.556	2.66
652.741	2.69
652.927	2.49
653.113	2.58
653.298	2.62
653.484	2.59
653.669	2.48
653.855	2.57
654.04	2.66
654.226	2.55
654.412	2.54
654.597	2.45
654.782	2.54
654.968	2.52
655.153	2.5
655.339	2.47
655.524	2.41
655.71	2.48
655.895	2.45
656.08	2.46
656.266	2.51
656.451	2.49
656.636	2.35
656.822	2.4
657.007	2.41
657.192	2.43
657.378	2.3
657.563	2.38
657.748	2.39
657.933	2.37
658.118	2.32
658.304	2.35
658.489	2.36
658.674	2.36
658.859	2.29
659.044	2.31
659.229	2.33
659.414	2.29
659.599	2.25
659.785	2.21
659.97	2.25
660.155	2.29
660.34	2.27
660.525	2.24
660.71	2.24
660.895	2.24
661.08	2.22
661.264	2.15
661.449	2.23
661.634	2.17
661.819	2.22
662.004	2.1
662.189	2.06
662.374	2.1
662.559	2.08
662.743	2.05
662.928	2.05
663.113	2.03
663.298	1.99
663.483	2
663.667	2.09
663.852	2
664.037	2.05
664.221	1.98
664.406	2.02
664.591	2.06
664.775	1.99
664.96	1.96
665.145	1.91
665.329	1.96
665.514	1.86
665.698	1.84
665.883	1.89
666.068	1.97
666.252	1.87
666.437	1.79
666.621	1.86
666.806	1.87
666.99	1.83
667.174	1.83
667.359	1.82
667.543	1.83
667.728	1.78
667.912	1.74
668.096	1.78
668.281	1.73
668.465	1.8
668.649	1.72
668.834	1.74
669.018	1.74
669.202	1.76
669.387	1.71
669.571	1.72
669.755	1.64
669.939	1.7
670.124	1.68
670.308	1.68
670.492	1.7
670.676	1.71
670.86	1.63
671.044	1.61
671.228	1.68
671.413	1.56
671.597	1.58
671.781	1.57
671.965	1.6
672.149	1.62
672.333	1.62
672.517	1.56
672.701	1.61
672.885	1.58
673.069	1.47
673.253	1.68
673.437	1.55
673.621	1.5
673.804	1.55
673.988	1.56
674.172	1.49
674.356	1.43
674.54	1.48
674.724	1.58
674.908	1.52
675.091	1.5
675.275	1.48
675.459	1.53
675.643	1.49
675.826	1.5
676.01	1.44
676.194	1.43
676.377	1.48
676.561	1.46
676.745	1.47
676.928	1.47
677.112	1.47
677.296	1.42
677.479	1.42
677.663	1.34
677.846	1.46
678.03	1.38
678.213	1.28
678.397	1.44
678.58	1.38
678.764	1.37
678.947	1.36
679.131	1.36
679.314	1.42
679.498	1.34
679.681	1.4
679.865	1.35
680.048	1.33
680.231	1.27
680.415	1.24
680.598	1.32
680.781	1.28
680.965	1.29
681.148	1.31
681.331	1.24
681.514	1.32
681.698	1.19
681.881	1.27
682.064	1.35
682.247	1.29
682.43	1.21
682.614	1.27
682.797	1.32
682.98	1.26
683.163	1.15
683.346	1.23
683.529	1.2
683.712	1.12
683.895	1.22
684.078	1.11
684.261	1.19
684.444	1.16
684.627	1.18
684.81	1.11
684.993	1.2
685.176	1.18
685.359	1.17
685.542	1.11
685.725	1.23
685.908	1.16
686.091	1.14
686.274	1.14
686.457	1.19
686.639	1.15
686.822	1.16
687.005	1.15
687.188	1.14
687.371	1.19
687.553	1.18
687.736	1.17
687.919	1.18
688.102	1.15
688.284	1.07
688.467	1.06
688.65	1.07
688.832	1.03
689.015	1.04
689.197	1.01
689.38	1.17
689.563	1.14
689.745	1.01
689.928	0.95
690.11	0.99
690.293	1.04
690.475	0.96
690.658	1.02
690.84	1.04
691.023	0.99
691.205	0.95
691.388	1.01
691.57	1.05
691.752	1.04
691.935	0.91
692.117	0.94
692.3	0.97
692.482	0.96
692.664	0.96
692.847	0.93
693.029	1.04
693.211	1.01
693.393	0.9
693.576	0.9
693.758	0.91
693.94	0.99
694.122	0.94
694.304	0.94
694.487	0.92
694.669	0.93
694.851	0.89
695.033	0.92
695.215	0.88
695.397	0.86
695.579	0.89
695.761	0.85
695.943	0.88
696.125	0.94
696.308	0.94
696.49	0.83
696.671	1.05
696.853	0.88
697.035	1.11
697.217	0.81
697.399	0.87
697.581	0.84
697.763	0.85
697.945	0.81
698.127	0.85
698.309	0.93
698.491	0.88
698.672	0.9
698.854	0.8
699.036	0.87
699.218	0.87
699.399	0.9
699.581	0.94
699.763	0.82
699.945	0.79
700.126	0.79
700.308	0.83
700.49	0.83
700.671	0.69
700.853	0.78
701.035	0.81
701.216	0.82
701.398	0.73
701.579	0.8
701.761	0.8
701.943	0.76
702.124	0.74
702.306	0.79
702.487	0.95
702.669	0.81
702.85	0.74
703.031	0.73
703.213	0.91
703.394	0.79
703.576	0.77
703.757	0.89
703.938	0.86
704.12	0.92
704.301	0.77
704.483	0.67
704.664	0.77
704.845	0.9
705.026	0.76
705.208	0.76
705.389	0.81
705.57	0.74
705.751	0.73
705.933	0.76
706.114	0.83
706.295	0.77
706.476	0.64
706.657	0.83
706.838	0.78
707.02	0.75
707.201	0.69
707.382	0.71
707.563	0.77
707.744	0.69
707.925	0.68
708.106	0.68
708.287	0.73
708.468	0.83
708.649	0.74
708.83	0.76
709.011	0.68
709.192	0.69
709.373	0.62
709.554	0.69
709.734	0.79
709.915	0.74
710.096	0.71
710.277	0.59
710.458	0.68
710.639	0.71
710.819	0.6
711	0.66
711.181	0.72
711.362	0.75
711.542	0.69
711.723	0.68
711.904	0.72
712.085	0.72
712.265	0.68
712.446	0.55
712.627	0.61
712.807	0.74
712.988	0.6
713.168	0.57
713.349	0.69
713.53	0.53
713.71	0.54
713.891	0.53
714.071	0.57
714.252	0.55
714.432	0.63
714.613	0.55
714.793	0.66
714.974	0.76
715.154	0.73
715.334	0.61
715.515	0.67
715.695	0.5
715.876	0.62
716.056	0.6
716.236	0.57
716.417	0.62
716.597	0.52
716.777	0.81
716.957	0.63
717.138	0.65
717.318	0.65
717.498	0.53
717.678	0.63
717.859	0.61
718.039	0.58
718.219	0.57
718.399	0.67
718.579	0.55
718.759	0.54
718.939	0.68
719.12	0.59
719.3	0.63
719.48	0.48
719.66	0.51
719.84	0.67
720.02	0.66
720.2	0.52
720.38	0.6
720.56	0.67
720.74	0.55
720.92	0.61
721.1	0.76
721.279	0.61
721.459	0.61
721.639	0.48
721.819	0.67
721.999	0.56
722.179	0.69
722.359	0.44
722.538	0.61
722.718	0.53
722.898	0.51
723.078	0.55
723.257	0.52
723.437	0.62
723.617	0.66
723.797	0.56
723.976	0.6
724.156	0.6
724.336	0.7
724.515	0.76
724.695	0.52
724.874	0.56
725.054	0.68
725.234	0.54
725.413	0.63
725.593	0.51
725.772	0.5
725.952	0.58
726.131	0.49
726.311	0.64
726.49	0.58
726.67	0.48
726.849	0.54
727.028	0.53
727.208	0.44
727.387	0.56
727.567	0.51
727.746	0.55
727.925	0.56
728.105	0.43
728.284	0.5
728.463	0.49
728.643	0.54
728.822	0.49
729.001	0.54
729.18	0.59
729.359	0.66
729.539	0.51
729.718	0.65
729.897	0.58
730.076	0.46
730.255	0.51
730.434	0.59
730.614	0.63
730.793	0.68
730.972	0.56
731.151	0.59
731.33	0.6
731.509	0.57
731.688	0.59
731.867	0.69
732.046	0.34
732.225	0.77
732.404	0.47
732.583	0.48
732.762	0.63
732.941	0.58
733.12	0.6
733.298	0.59
733.477	0.67
733.656	0.52
733.835	0.54
734.014	0.64
734.193	0.5
734.371	0.56
734.55	0.65
734.729	0.5
734.908	0.61
735.086	0.66
735.265	0.67
735.444	0.4
735.623	0.51
735.801	0.53
735.98	0.6
736.159	0.51
736.337	0.6
736.516	0.57
736.694	0.56
736.873	0.58
737.052	0.7
737.23	0.68
737.409	0.48
737.587	0.83
737.766	0.51
737.944	0.58
738.123	0.71
738.301	0.67
738.479	0.55
738.658	0.66
738.836	0.38
739.015	0.59
739.193	0.69
739.371	0.46
739.55	0.5
739.728	0.38
739.906	0.75
740.085	0.81
740.263	0.54
740.441	0.45
740.62	0.73
740.798	0.62
740.976	0.43
741.154	0.35
741.332	0.65
741.511	0.62
741.689	0.57
741.867	0.58
742.045	0.47
742.223	0.48
742.401	0.46
742.579	0.48
742.757	0.51
742.935	0.29
743.114	0.4
743.292	0.51
743.47	0.49
743.648	0.58
743.826	0.59
744.004	0.64
744.181	0.56
744.359	0.38
744.537	0.53
744.715	0.49
744.893	0.49
745.071	0.46
745.249	0.45
745.427	0.44
745.605	0.46
745.782	0.5
745.96	0.49
746.138	0.52
746.316	0.58
746.493	0.36
746.671	0.38
746.849	0.45
747.027	0.59
747.204	0.41
747.382	0.63
747.56	0.44
747.737	0.51
747.915	0.42
748.093	0.45
748.27	0.39
748.448	0.27
748.625	0.41
748.803	0.37
748.98	0.4
749.158	0.45
749.335	0.52
749.513	0.43
749.69	0.35
749.868	0.53
750.045	0.45
750.223	0.29
750.4	0.26
750.578	0.65
750.755	0.37
750.932	0.3
751.11	0.47
751.287	0.27
751.464	0.52
751.642	0.31
751.819	0.41
751.996	0.39
752.173	0.37
752.351	0.28
752.528	0.41
752.705	0.31
752.882	0.24
753.06	0.39
753.237	0.41
753.414	0.61
753.591	0.5
753.768	0.32
753.945	0.37
754.122	0.41
754.299	0.48
754.476	0.4
754.654	0.36
754.831	0.42
755.008	0.43
755.185	0.37
755.362	0.27
755.539	0.4
755.716	0.59
755.892	0.47
756.069	0.29
756.246	0.44
756.423	0.28
756.6	0.48
756.777	0.33
756.954	0.52
757.131	0.37
757.307	0.4
757.484	0.31
757.661	0.41
757.838	0.53
758.015	0.25
758.191	0.43
758.368	0.33
758.545	0.6
758.721	0.39
758.898	0.24
759.075	0.4
759.251	0.52
759.428	0.44
759.605	0.14
759.781	0.37
759.958	0.35
760.134	0.42
760.311	0.4
760.488	0.61
760.664	0.57
760.841	0.35
761.017	0.21
761.194	0.38
761.37	0.43
761.547	0.49
761.723	0.26
761.899	0.52
762.076	0.3
762.252	0.32
762.429	0.25
762.605	0.38
762.781	0.4
762.958	0.51
763.134	0.31
763.31	0.32
763.486	0.53
763.663	0.23
763.839	0.41
764.015	0.21
764.191	0.26
764.368	0.24
764.544	0.35
764.72	0.41
764.896	0.42
765.072	0.44
765.248	0.24
765.425	0.28
765.601	0.35
765.777	0.4
765.953	0.17
766.129	0.32
766.305	0.31
766.481	0.37
766.657	0.33
766.833	0.54
767.009	0.27
767.185	0.26
767.361	0.39
767.537	0.14
767.713	0.38
767.889	0.36
768.065	0.4
768.24	0.44
768.416	0.45
768.592	0.37
768.768	0.33
768.944	0.27
769.12	0.21
769.295	0.39
769.471	0.43
769.647	0.34
769.823	0.61
769.998	0.13
770.174	0.16
770.35	0.57
770.525	0.59
770.701	0.32
770.877	0.19
771.052	0.3
771.228	0.57
771.403	0.37
771.579	0.46
771.755	0.64
771.93	0.36
772.106	0.22
772.281	0.16
772.457	0.43
772.632	0.44
772.808	0.21
772.983	0.33
773.159	0.09
773.334	0.48
773.509	0.52
773.685	0.27
773.86	0.53
774.036	0.55
774.211	0.38
774.386	0.31
774.562	0.34
774.737	0.62
774.912	0.25
775.087	0.48
775.263	0.32
775.438	0.34
775.613	0.14
775.788	0.36
775.964	0.48
776.139	0.85
776.314	0.32
776.489	0.39
776.664	0.37
776.839	0.07
777.014	0.46
777.19	0.42
777.365	0.47
777.54	0.65
777.715	0.3
777.89	0.27
778.065	0.13
778.24	0.23
778.415	0.5
778.59	0.19
778.765	0.39
778.94	0.33
779.115	0.19
779.289	0.18
779.464	0.33
779.639	0.45
779.814	0.27
779.989	0.24
780.164	0.56
780.339	0.32
780.513	0.29
780.688	0.1
780.863	0.38
781.038	0.57
781.212	0.2
781.387	0.4
781.562	0.5
781.737	0.44
781.911	0.48
782.086	0.19
782.261	0.36
782.435	0.61
782.61	0.24
782.784	0.27
782.959	0.55
783.134	0.33
783.308	0.12
783.483	0.29
783.657	0.99
783.832	0.53
784.006	0.18
784.181	0.21
784.355	0.6
784.53	0.6
784.704	0.42
784.878	0.67
785.053	0.47
785.227	0.63
785.402	0.78
785.576	0.14
785.75	0.34
785.925	0.29
786.099	0.5
786.273	0.45
786.448	0.5
786.622	0.62
786.796	0.39
786.97	0.46
787.145	0.82
787.319	0.2
787.493	0.36
787.667	0.21
787.841	0.41
788.015	0.51
788.19	0.2
788.364	0.59
788.538	0.62
788.712	0.46
788.886	0.42
789.06	0.75
789.234	0.39
789.408	0.15
789.582	0.3
789.756	0.39
789.93	0.24
790.104	0.4
790.278	0.22
790.452	0.37
790.626	0.66
790.8	0.29
790.973	0.68
791.147	0.64
791.321	0.44
791.495	0.49
791.669	0.36
791.843	0.5
792.016	0.45
792.19	0.7
792.364	0.17
792.538	1.09
792.711	0.72
792.885	0.21
793.059	0.18
793.233	0.01
793.406	0.58
793.58	0.32
793.754	0.49
793.927	0.27
794.101	0.96
794.274	0.57
794.448	0.58
794.622	0.18
794.795	0.81
794.969	0.32
795.142	0.67
795.316	0.23
795.489	0.4
795.663	0.89
795.836	0.72
796.009	0.39
796.183	0.85
796.356	0.63
796.53	0.41
796.703	0.51
796.876	0.91
797.05	0.3
797.223	0.37
797.396	0.63
797.57	0.69
797.743	0.86
797.916	0.46
798.09	0.61
798.263	0.88
798.436	0.66
798.609	0.23
798.782	0.49
798.956	0.82
799.129	0.45
799.302	0.24
799.475	0.23
799.648	-0.03
799.821	0.44
799.994	0.39
800.167	0.03
800.34	0.71
800.514	0.61
800.687	0.21
800.86	0.06
801.033	0.52
801.206	0.72
801.379	0.28
801.551	0.78
801.724	0.67
801.897	0.73
802.07	0.36
802.243	0.04
802.416	0.41
802.589	0.25
802.762	0.46
802.935	0.84
803.107	0.75
803.28	0.93
803.453	0.76
803.626	0.42
803.798	0.43
803.971	0.22
804.144	0.75
804.317	0.72
804.489	0.88
804.662	0.59
804.835	0.48
805.007	0.1
805.18	0.91
805.353	0.68
805.525	0.36
805.698	0.29
805.87	0.83
806.043	0.75
806.215	0.48
806.388	0.36
806.56	0.49
806.733	0.92
806.905	0.48
807.078	0.28
807.25	0.22
807.423	0.89
807.595	0.42
807.768	0.59
807.94	0.93
808.112	0.56
808.285	0.5
808.457	0.67
808.629	0.63
808.802	0.63
808.974	0.74
809.146	0.52
809.318	0.21
809.491	1.08
809.663	0.85
809.835	0.19
810.007	0.96
810.18	0.34
810.352	0.01
810.524	0.49
810.696	0.73
810.868	0.87
811.04	0.14
811.212	0.44
811.384	0.7
811.556	0.7
811.728	0.16
811.901	1.48
812.073	0.26
812.245	1.1
812.417	0.55
812.589	-0.07
812.76	0.55
812.932	0.86
813.104	0.54
813.276	0.01
813.448	0.9
813.62	0.56
813.792	0.58
813.964	0.77
814.136	0.92
814.307	0.44
814.479	0.46
814.651	0
814.823	1.24
814.995	0.77
815.166	0.84
815.338	-0.05
815.51	0.26
815.681	1.55
815.853	0.72
816.025	0.98
816.196	1.07
816.368	0.7
816.54	-0.16
816.711	0.58
816.883	0.93
817.054	1.6
817.226	0.27
817.398	1.06
817.569	0.28
817.741	0.59
817.912	0.65
818.084	0.34
818.255	0.88
818.426	0.19
818.598	0.57
818.769	0.32
818.941	0.58
819.112	1.11
819.283	1.02
819.455	0.33
819.626	0.51
819.798	0.77
819.969	0.66
820.14	0.49
820.311	0.52
820.483	0.93
820.654	1.06
820.825	0.48
820.996	0.89
821.168	-0.05
821.339	0.34
821.51	0.49
821.681	0.52
821.852	0.83
822.023	0.33
822.195	0.39
822.366	0.99
822.537	0.57
822.708	0.62
822.879	0.15
823.05	1.13
823.221	0.65
823.392	1.09
823.563	1
823.734	1.38
823.905	0.93
824.076	0.51
824.247	0.35
824.418	0.56
824.589	0.84
824.759	0.66
824.93	0.72
825.101	0.6
825.272	0.93
825.443	1.24
825.614	1.67
825.784	-0.33
825.955	1.75
826.126	1.66
826.297	0.76
826.467	1.53
826.638	1.21
826.809	0.27
826.98	0.99
827.15	1.41
827.321	0.64
827.492	1.71
827.662	0.3
827.833	2.06
828.003	1.36
828.174	0.52
828.345	0.05
828.515	1.32
828.686	0.44
828.856	0.61
829.027	0.68
829.197	1.01
829.368	0.53
829.538	-0.02
829.709	0.61
829.879	1.11
830.049	0.6
830.22	0
830.39	0.72
830.56	1.09
830.731	0.74
830.901	0
831.072	0.34
831.242	1.19
831.412	0.52
831.582	1.02
831.753	0.06
831.923	1.3
832.093	0.99
832.263	0.88
832.434	0.29
832.604	0.81
832.774	1.14
832.944	0.51
833.114	0.37
833.284	0.91
833.454	0.06
833.624	0.23
833.795	0.41
833.965	1.18
834.135	0.76
834.305	0.11
834.475	0.17
834.645	0.44
834.815	0.72
834.985	0.48
835.155	0.56
835.325	1.54
835.494	0.91
835.664	0.08
835.834	-0.27
836.004	0.82
836.174	1.12
836.344	0.43
836.514	-0.11
836.684	-0.01
836.853	0.85
837.023	0.92
837.193	0.34
837.363	1.64
837.532	1.09
837.702	0.97
837.872	-0.07
838.041	0.95
838.211	2.11
838.381	0.48
838.55	0.85
838.72	3.38
838.89	2.16
839.059	0.4
839.229	0.02
839.398	2.54
839.568	1.44
839.738	1.04
839.907	2.08
840.077	1.44
840.246	0.21
840.416	0.54
840.585	0.23
840.755	2.01
840.924	2.53
841.093	-0.33
841.263	0.6
841.432	1.03
841.602	1.05
841.771	0.15
841.94	0.62
842.11	3.11
842.279	2.46
842.448	0.93
842.617	0.42
842.787	1.9
842.956	-0.04
843.125	1.34
843.294	0.86
843.464	1.7
843.633	1.44
843.802	0.54
843.971	1.24
844.14	1.33
844.309	1.55
844.479	-0.7
844.648	-0.76
844.817	0.53
844.986	0.78
845.155	0.46
845.324	1.13
845.493	0.71
845.662	0.32
845.831	1.27
846	1.32
846.169	0.74
846.338	2.15
846.507	1.17
846.676	1.45
846.844	0.8
847.013	1.51
847.182	1.71
847.351	0.29
847.52	1.12
847.689	1.93
847.858	0.87
848.026	-0.35
848.195	0.75
848.364	0.05
848.533	0.82
848.701	1.29
848.87	1.33
849.039	1.78
849.207	2.24
849.376	2.77
849.545	2.66
849.713	0.92
849.882	0.29
850.051	1.21
850.219	1.31
850.388	1.76
850.556	0.37
850.725	0.14
850.893	0.86
851.062	0.94
851.23	2.11
851.399	0.43
851.567	0.67
851.736	0.27
851.904	0.27
852.073	1.98
852.241	1.44
852.41	1.36
852.578	0.34
852.746	0.36
852.915	2.26
853.083	1.37
853.251	-0.07
853.42	0.44
853.588	0.47
853.756	2.5
853.924	0.82
854.093	0.95
854.261	0.23
854.429	0.04
854.597	0.6
854.765	-0.14
854.934	2.17
855.102	2.15
855.27	1.58
855.438	1.19
855.606	2.77
855.774	3.22
855.942	0.09
856.11	-0.24
856.278	1.6
856.446	2.09
856.614	2.19
856.782	0.26
856.95	1.89
857.118	2.39
857.286	1.19
857.454	0.24
857.622	1.81
857.79	1.87
857.958	-0.29
858.126	2.31
858.294	0.99
858.462	1.64
858.629	0.42
858.797	1.14
858.965	1.84
859.133	0.4
859.301	1.64
859.468	1
859.636	1.03
859.804	3.19
859.971	2.1
860.139	0.58
860.307	1.8
860.474	2.23
860.642	0.69
860.81	1.1
860.977	1.4
861.145	2.72
861.313	1.26
861.48	0.59
861.648	1.84
861.815	1.93
861.983	0.69
862.15	0.5
862.318	2.99
862.485	2.92
862.653	0.16
862.82	1.4
862.988	3.55
863.155	1.7
863.322	0.94
863.49	1.07
863.657	1.38
863.824	4.02
863.992	2.58
864.159	0.6
864.326	3.68
864.494	0.28
864.661	2.83
864.828	-0.04
864.996	2.41
865.163	3.5
865.33	0.6
865.497	-0.83
865.664	1.11
865.832	-0.29
865.999	1.02
866.166	0.67
866.333	0.28
866.5	0.47
866.667	1.32
866.834	0.32
867.001	4.39
867.168	-0.09
867.335	1.87
867.502	-0.27
867.669	2.02
867.836	4.03
868.003	2.16
868.17	1.41
868.337	0.18
868.504	2.69
868.671	1.27
868.838	1.24
869.005	2.43
869.172	2.87
869.339	2.24
869.505	1.58
869.672	0.44
869.839	4.22
870.006	1.06
870.173	1.63
870.339	2.29
870.506	3.98
870.673	0.59
870.84	2.46
871.006	1.82
871.173	2.9
871.34	1.79
871.506	-0.8
871.673	3.12
871.839	-0.37
872.006	3.05
872.173	1.37
872.339	1.83
872.506	2.04
872.672	2.1
872.839	-0.36
873.005	2.27
873.172	5.32
873.338	3.4
873.505	1.73
873.671	2.85
873.838	2.22
874.004	-1.31
874.171	-0.36
874.337	2.91
874.503	4.66
874.67	1.6
874.836	0.61
875.002	3.77
875.169	3.91
875.335	2.97
875.501	3
875.668	2.11
875.834	2.64
876	1.35
876.166	2.38
876.332	4.08
876.499	4.64
876.665	-0.05
876.831	2.03
876.997	4.69
877.163	2.66
877.329	1.65
877.495	2.03
877.662	2.2
877.828	3.41
877.994	4.29
878.16	-0.92
878.326	0.08
878.492	2.32
878.658	1.35
878.824	1.52
878.99	3.4
879.156	0.91
879.322	3.49
879.487	1.66
879.653	1.85
879.819	2.55
879.985	1.23
880.151	2.18
880.317	3.89
880.483	2.21
880.648	4.2
880.814	-1.49
880.98	3.47
881.146	0.25
881.312	-1.25
881.477	1.65
881.643	2.45
881.809	3.39
881.974	4.4
882.14	0.23
882.306	1.07
882.471	4.82
882.637	1.02
882.803	4.31
882.968	3.72
883.134	4.45
883.299	1.98
883.465	2.62
883.63	3.9
883.796	2.54
883.961	4.2
884.127	2.12
884.292	-4.42
884.458	0.7
884.623	0.7
