Data from Apollo_Calib_20240827__AbsoluteIrradiance__881__13-50-02-754.txt Node

Date: Wed Aug 28 13:50:02 BST 2024
User: biology
Spectrometer: FLMT08252
Trigger mode: 0
Integration Time (sec): 5.000000E-1
Scans to average: 5
Electric dark correction enabled: true
Nonlinearity correction enabled: false
Boxcar width: 0
XAxis mode: Wavelengths
Number of Pixels in Spectrum: 3648
>>>>>Begin Spectral Data<<<<<
179.588	-0
179.809	-0
180.03	-0
180.251	-0
180.473	-0
180.694	0
180.915	0
181.136	-0
181.357	0
181.578	0
181.799	0
182.02	-0
182.241	-0
182.462	-0
182.683	0
182.904	-0
183.125	-0
183.346	0
183.567	0
183.788	0
184.009	0
184.23	0
184.451	0
184.672	0
184.892	0
185.113	0
185.334	0
185.555	0
185.776	0
185.996	0
186.217	0
186.438	0
186.659	0
186.879	0
187.1	0
187.321	0
187.541	0
187.762	0
187.983	0
188.203	0
188.424	0
188.644	0
188.865	0
189.086	0
189.306	0
189.527	0
189.747	0
189.968	0
190.188	0
190.409	0
190.629	0
190.849	0
191.07	0
191.29	0
191.511	0
191.731	0
191.951	0
192.172	0
192.392	0
192.612	0
192.833	0
193.053	0
193.273	0
193.493	0
193.714	0
193.934	0
194.154	0
194.374	0
194.594	0
194.815	0
195.035	0
195.255	0
195.475	0
195.695	0
195.915	0
196.135	0
196.355	0
196.575	0
196.795	0
197.015	0
197.235	0
197.455	0
197.675	0
197.895	0
198.115	0
198.335	0
198.555	0
198.775	0
198.995	0
199.214	0
199.434	0
199.654	0
199.874	0
200.094	3.67
200.313	2.16
200.533	1.29
200.753	1.47
200.973	3.04
201.192	3.06
201.412	1.38
201.632	1.89
201.851	3
202.071	1.48
202.291	0.84
202.51	0.98
202.73	2.16
202.95	1.68
203.169	1.16
203.389	1.22
203.608	2.02
203.828	1.81
204.047	1.27
204.267	2.8
204.486	1.99
204.706	1.98
204.925	1.77
205.145	0.91
205.364	2.13
205.583	2.48
205.803	0.98
206.022	1.13
206.242	1.52
206.461	1.57
206.68	1.44
206.9	1.45
207.119	2.34
207.338	2.15
207.557	1.08
207.777	0.84
207.996	1.15
208.215	1.96
208.434	0.95
208.654	0.63
208.873	1.53
209.092	1.75
209.311	1
209.53	1
209.749	1.21
209.968	0.92
210.187	0.76
210.407	0.79
210.626	0.99
210.845	1.29
211.064	0.91
211.283	0.56
211.502	1.43
211.721	0.95
211.94	0.96
212.159	1.25
212.377	1.16
212.596	1.33
212.815	0.93
213.034	0.93
213.253	1.2
213.472	1.14
213.691	0.78
213.91	0.55
214.128	0.73
214.347	1.53
214.566	0.42
214.785	0.37
215.003	1.11
215.222	1.15
215.441	0.72
215.66	0.53
215.878	0.88
216.097	1.29
216.316	0.53
216.534	0.56
216.753	1.08
216.972	0.78
217.19	0.75
217.409	0.63
217.627	0.8
217.846	0.64
218.064	0.75
218.283	0.49
218.501	1.27
218.72	1.18
218.938	0.55
219.157	0.69
219.375	1.07
219.594	1.05
219.812	0.49
220.031	0.43
220.249	1.15
220.467	1.18
220.686	0.63
220.904	0.4
221.122	0.55
221.341	1.16
221.559	0.63
221.777	0.34
221.995	0.64
222.214	1.01
222.432	0.65
222.65	0.84
222.868	0.63
223.086	0.79
223.305	0.77
223.523	0.66
223.741	0.95
223.959	0.63
224.177	0.29
224.395	0.41
224.613	0.7
224.831	0.91
225.049	0.25
225.267	0.54
225.485	0.75
225.703	0.54
225.921	0.43
226.139	0.44
226.357	0.71
226.575	0.88
226.793	0.4
227.011	1.6
227.229	0.8
227.447	0.88
227.665	0.58
227.883	0.37
228.1	0.62
228.318	0.66
228.536	0.17
228.754	0.42
228.972	0.63
229.189	0.72
229.407	0.42
229.625	0.49
229.843	0.87
230.06	0.78
230.278	0.51
230.496	0.53
230.713	0.7
230.931	0.76
231.149	0.51
231.366	0.3
231.584	0.45
231.801	0.96
232.019	0.42
232.236	0.26
232.454	0.4
232.671	0.67
232.889	0.44
233.106	0.33
233.324	0.55
233.541	0.51
233.759	0.44
233.976	0.38
234.194	0.49
234.411	0.53
234.628	0.28
234.846	0.34
235.063	0.52
235.28	0.5
235.498	0.39
235.715	0.23
235.932	0.68
236.149	0.49
236.367	0.27
236.584	0.49
236.801	0.44
237.018	0.63
237.236	0.47
237.453	0.22
237.67	0.7
237.887	0.52
238.104	0.42
238.321	0.32
238.538	0.33
238.755	0.63
238.973	0.32
239.19	0.49
239.407	0.61
239.624	0.55
239.841	0.26
240.058	0.26
240.275	0.46
240.492	0.49
240.709	0.33
240.925	0.33
241.142	0.45
241.359	0.28
241.576	0.22
241.793	0.34
242.01	0.44
242.227	0.63
242.444	0.53
242.66	0.64
242.877	0.37
243.094	0.34
243.311	0.48
243.527	0.37
243.744	0.55
243.961	0.53
244.178	0.36
244.394	0.37
244.611	0.58
244.828	0.54
245.044	0.25
245.261	0.38
245.477	0.51
245.694	0.49
245.911	0.32
246.127	0.46
246.344	0.74
246.56	0.48
246.777	0.27
246.993	0.43
247.21	0.44
247.426	0.49
247.643	0.26
247.859	0.31
248.076	0.35
248.292	0.73
248.508	0.33
248.725	0.47
248.941	0.48
249.157	0.52
249.374	0.29
249.59	0.37
249.806	0.34
250.023	0.41
250.239	0.28
250.455	0.25
250.671	0.42
250.888	0.47
251.104	0.47
251.32	0.3
251.536	0.35
251.752	0.39
251.969	0.43
252.185	0.39
252.401	0.74
252.617	0.48
252.833	0.29
253.049	0.36
253.265	0.41
253.481	0.4
253.697	0.29
253.913	0.2
254.129	0.52
254.345	0.47
254.561	0.28
254.777	0.32
254.993	0.45
255.209	0.37
255.425	0.37
255.641	0.33
255.857	0.42
256.073	0.35
256.288	0.19
256.504	0.31
256.72	0.42
256.936	0.58
257.152	0.35
257.367	0.33
257.583	0.37
257.799	0.52
258.015	0.28
258.23	0.33
258.446	0.59
258.662	0.33
258.877	0.29
259.093	0.2
259.309	0.34
259.524	0.41
259.74	0.3
259.955	0.17
260.171	0.43
260.387	0.38
260.602	0.42
260.818	0.41
261.033	0.26
261.249	0.41
261.464	0.24
261.68	0.16
261.895	0.4
262.11	0.46
262.326	0.26
262.541	0.22
262.757	0.45
262.972	0.41
263.187	0.3
263.403	0.43
263.618	0.42
263.833	0.34
264.049	0.21
264.264	0.29
264.479	0.36
264.694	0.5
264.91	0.2
265.125	0.35
265.34	0.42
265.555	0.56
265.77	0.28
265.986	0.29
266.201	0.35
266.416	0.49
266.631	0.29
266.846	0.26
267.061	0.36
267.276	0.45
267.491	0.22
267.706	0.3
267.921	0.4
268.136	0.42
268.351	0.34
268.566	0.19
268.781	0.45
268.996	0.44
269.211	0.31
269.426	0.25
269.641	0.31
269.856	0.4
270.071	0.21
270.285	0.21
270.5	0.45
270.715	0.43
270.93	0.25
271.145	0.34
271.359	0.44
271.574	0.3
271.789	0.26
272.004	0.26
272.218	0.27
272.433	0.36
272.648	0.22
272.862	0.37
273.077	0.35
273.292	0.36
273.506	0.26
273.721	0.27
273.936	0.35
274.15	0.45
274.365	0.26
274.579	0.32
274.794	0.34
275.008	0.43
275.223	0.18
275.437	0.28
275.652	0.39
275.866	0.39
276.081	0.26
276.295	0.35
276.509	0.32
276.724	0.36
276.938	0.27
277.153	0.31
277.367	0.34
277.581	0.31
277.796	0.25
278.01	0.26
278.224	0.37
278.438	0.5
278.653	0.2
278.867	0.19
279.081	0.22
279.295	0.3
279.51	0.33
279.724	0.2
279.938	0.4
280.152	0.37
280.366	0.26
280.58	0.29
280.794	0.41
281.008	0.32
281.222	0.39
281.437	0.5
281.651	0.31
281.865	0.38
282.079	0.26
282.293	0.16
282.507	0.28
282.721	0.32
282.935	0.28
283.148	0.16
283.362	0.25
283.576	0.18
283.79	0.24
284.004	0.24
284.218	0.37
284.432	0.24
284.646	0.31
284.859	0.26
285.073	0.27
285.287	0.26
285.501	0.28
285.714	0.22
285.928	0.29
286.142	0.3
286.356	0.19
286.569	0.21
286.783	0.43
286.997	0.4
287.21	0.28
287.424	0.31
287.637	0.3
287.851	0.22
288.065	0.31
288.278	0.21
288.492	0.31
288.705	0.2
288.919	0.32
289.132	0.18
289.346	0.37
289.559	0.16
289.773	0.19
289.986	0.24
290.2	0.23
290.413	0.38
290.626	0.21
290.84	0.23
291.053	0.32
291.267	0.34
291.48	0.28
291.693	0.22
291.906	0.22
292.12	0.27
292.333	0.23
292.546	0.2
292.76	0.36
292.973	0.31
293.186	0.36
293.399	0.19
293.612	0.3
293.826	0.29
294.039	0.19
294.252	0.23
294.465	0.33
294.678	0.32
294.891	0.26
295.104	0.21
295.317	0.23
295.53	0.3
295.743	0.24
295.956	0.23
296.169	0.37
296.382	0.36
296.595	0.21
296.808	0.21
297.021	0.31
297.234	0.33
297.447	0.26
297.66	0.28
297.873	0.32
298.086	0.33
298.299	0.2
298.511	0.14
298.724	0.25
298.937	0.23
299.15	0.17
299.363	0.21
299.575	0.32
299.788	0.29
300.001	0.25
300.213	0.21
300.426	0.23
300.639	0.19
300.852	0.19
301.064	0.23
301.277	0.37
301.489	0.31
301.702	0.27
301.915	0.22
302.127	0.28
302.34	0.27
302.552	0.3
302.765	0.14
302.977	0.34
303.19	0.19
303.402	0.21
303.615	0.2
303.827	0.24
304.04	0.25
304.252	0.32
304.464	0.21
304.677	0.38
304.889	0.37
305.102	0.2
305.314	0.2
305.526	0.22
305.739	0.3
305.951	0.18
306.163	0.25
306.375	0.33
306.588	0.22
306.8	0.18
307.012	0.2
307.224	0.28
307.436	0.38
307.649	0.16
307.861	0.25
308.073	0.28
308.285	0.26
308.497	0.17
308.709	0.2
308.921	0.29
309.133	0.33
309.346	0.22
309.558	0.21
309.77	0.28
309.982	0.34
310.194	0.28
310.406	0.21
310.617	0.39
310.829	0.23
311.041	0.3
311.253	0.18
311.465	0.23
311.677	0.27
311.889	0.25
312.101	0.19
312.313	0.29
312.524	0.36
312.736	0.15
312.948	0.22
313.16	0.35
313.372	0.26
313.583	0.25
313.795	0.19
314.007	0.22
314.218	0.31
314.43	0.21
314.642	0.24
314.853	0.15
315.065	0.34
315.277	0.2
315.488	0.25
315.7	0.29
315.912	0.26
316.123	0.16
316.335	0.21
316.546	0.39
316.758	0.3
316.969	0.19
317.181	0.24
317.392	0.22
317.604	0.31
317.815	0.17
318.026	0.23
318.238	0.21
318.449	0.28
318.661	0.18
318.872	0.18
319.083	0.21
319.295	0.27
319.506	0.22
319.717	0.23
319.929	0.27
320.14	0.26
320.351	0.24
320.562	0.21
320.774	0.26
320.985	0.29
321.196	0.21
321.407	0.15
321.618	0.32
321.829	0.27
322.041	0.26
322.252	0.22
322.463	0.31
322.674	0.28
322.885	0.16
323.096	0.27
323.307	0.28
323.518	0.29
323.729	0.2
323.94	0.2
324.151	0.18
324.362	0.28
324.573	0.23
324.784	0.22
324.995	0.27
325.206	0.27
325.417	0.19
325.628	0.17
325.838	0.26
326.049	0.26
326.26	0.29
326.471	0.17
326.682	0.28
326.892	0.31
327.103	0.14
327.314	0.16
327.525	0.36
327.735	0.25
327.946	0.22
328.157	0.19
328.368	0.32
328.578	0.24
328.789	0.24
328.999	0.24
329.21	0.26
329.421	0.31
329.631	0.21
329.842	0.18
330.052	0.25
330.263	0.24
330.473	0.3
330.684	0.19
330.894	0.25
331.105	0.26
331.315	0.24
331.526	0.18
331.736	0.36
331.947	0.29
332.157	0.25
332.367	0.16
332.578	0.27
332.788	0.31
332.999	0.3
333.209	0.24
333.419	0.2
333.629	0.24
333.84	0.21
334.05	0.24
334.26	0.36
334.47	0.27
334.681	0.33
334.891	0.22
335.101	0.27
335.311	0.37
335.521	0.26
335.732	0.21
335.942	0.31
336.152	0.29
336.362	0.27
336.572	0.28
336.782	0.25
336.992	0.19
337.202	0.2
337.412	0.21
337.622	0.25
337.832	0.22
338.042	0.24
338.252	0.2
338.462	0.25
338.672	0.24
338.882	0.25
339.092	0.25
339.302	0.32
339.511	0.27
339.721	0.22
339.931	0.16
340.141	0.31
340.351	0.33
340.561	0.28
340.77	0.25
340.98	0.25
341.19	0.26
341.4	0.17
341.609	0.19
341.819	0.23
342.029	0.18
342.238	0.25
342.448	0.22
342.658	0.28
342.867	0.21
343.077	0.27
343.286	0.24
343.496	0.27
343.706	0.35
343.915	0.21
344.125	0.26
344.334	0.26
344.544	0.18
344.753	0.21
344.963	0.21
345.172	0.24
345.381	0.2
345.591	0.18
345.8	0.23
346.01	0.35
346.219	0.29
346.428	0.1
346.638	0.22
346.847	0.26
347.056	0.32
347.266	0.22
347.475	0.2
347.684	0.27
347.893	0.31
348.103	0.25
348.312	0.2
348.521	0.26
348.73	0.23
348.94	0.25
349.149	0.2
349.358	0.21
349.567	0.2
349.776	0.17
349.985	0.18
350.194	0.29
350.403	0.32
350.612	0.13
350.821	0.2
351.03	0.24
351.239	0.23
351.448	0.21
351.657	0.21
351.866	0.34
352.075	0.26
352.284	0.26
352.493	0.18
352.702	0.3
352.911	0.25
353.12	0.21
353.329	0.2
353.538	0.26
353.746	0.22
353.955	0.19
354.164	0.22
354.373	0.25
354.582	0.26
354.79	0.22
354.999	0.27
355.208	0.23
355.416	0.32
355.625	0.18
355.834	0.17
356.042	0.27
356.251	0.18
356.46	0.17
356.668	0.27
356.877	0.36
357.085	0.3
357.294	0.1
357.503	0.24
357.711	0.27
357.92	0.43
358.128	0.24
358.337	0.19
358.545	0.26
358.754	0.2
358.962	0.21
359.17	0.2
359.379	0.22
359.587	0.29
359.796	0.22
360.004	0.31
360.212	0.28
360.421	0.34
360.629	0.22
360.837	0.23
361.046	0.29
361.254	0.38
361.462	0.2
361.67	0.23
361.879	0.27
362.087	0.31
362.295	0.22
362.503	0.22
362.711	0.2
362.92	0.22
363.128	0.23
363.336	0.18
363.544	0.18
363.752	0.23
363.96	0.19
364.168	0.18
364.376	0.24
364.584	0.28
364.792	0.3
365	0.25
365.208	0.24
365.416	0.28
365.624	0.28
365.832	0.23
366.04	0.29
366.248	0.22
366.456	0.21
366.664	0.25
366.872	0.26
367.079	0.22
367.287	0.22
367.495	0.24
367.703	0.21
367.911	0.26
368.118	0.22
368.326	0.24
368.534	0.2
368.742	0.29
368.949	0.16
369.157	0.2
369.365	0.28
369.572	0.24
369.78	0.19
369.988	0.3
370.195	0.22
370.403	0.29
370.61	0.21
370.818	0.21
371.026	0.37
371.233	0.21
371.441	0.22
371.648	0.23
371.856	0.27
372.063	0.25
372.271	0.18
372.478	0.2
372.685	0.2
372.893	0.34
373.1	0.21
373.308	0.19
373.515	0.38
373.722	0.32
373.93	0.24
374.137	0.26
374.344	0.31
374.552	0.26
374.759	0.29
374.966	0.23
375.173	0.22
375.381	0.32
375.588	0.26
375.795	0.18
376.002	0.23
376.209	0.21
376.417	0.18
376.624	0.23
376.831	0.3
377.038	0.23
377.245	0.16
377.452	0.22
377.659	0.24
377.866	0.22
378.073	0.25
378.28	0.23
378.487	0.3
378.694	0.28
378.901	0.25
379.108	0.22
379.315	0.29
379.522	0.36
379.729	0.26
379.936	0.25
380.143	0.26
380.35	0.28
380.557	0.2
380.763	0.19
380.97	0.28
381.177	0.26
381.384	0.24
381.591	0.23
381.797	0.31
382.004	0.33
382.211	0.27
382.418	0.21
382.624	0.31
382.831	0.35
383.038	0.22
383.244	0.22
383.451	0.23
383.658	0.29
383.864	0.24
384.071	0.23
384.277	0.4
384.484	0.27
384.69	0.33
384.897	0.26
385.103	0.29
385.31	0.23
385.516	0.23
385.723	0.2
385.929	0.32
386.136	0.28
386.342	0.34
386.549	0.24
386.755	0.34
386.961	0.32
387.168	0.23
387.374	0.24
387.58	0.32
387.787	0.3
387.993	0.28
388.199	0.25
388.406	0.28
388.612	0.27
388.818	0.25
389.024	0.22
389.231	0.28
389.437	0.4
389.643	0.25
389.849	0.26
390.055	0.27
390.261	0.31
390.467	0.29
390.674	0.29
390.88	0.24
391.086	0.31
391.292	0.22
391.498	0.3
391.704	0.32
391.91	0.27
392.116	0.27
392.322	0.17
392.528	0.33
392.734	0.28
392.94	0.28
393.146	0.26
393.352	0.35
393.557	0.29
393.763	0.26
393.969	0.31
394.175	0.33
394.381	0.28
394.587	0.23
394.792	0.25
394.998	0.4
395.204	0.35
395.41	0.29
395.615	0.29
395.821	0.29
396.027	0.34
396.233	0.26
396.438	0.33
396.644	0.37
396.85	0.35
397.055	0.33
397.261	0.33
397.466	0.42
397.672	0.33
397.878	0.36
398.083	0.33
398.289	0.31
398.494	0.37
398.7	0.34
398.905	0.25
399.111	0.47
399.316	0.25
399.522	0.29
399.727	0.32
399.932	0.3
400.138	0.29
400.343	0.38
400.549	0.31
400.754	0.36
400.959	0.37
401.165	0.33
401.37	0.35
401.575	0.48
401.78	0.38
401.986	0.34
402.191	0.32
402.396	0.37
402.601	0.39
402.807	0.39
403.012	0.34
403.217	0.44
403.422	0.4
403.627	0.39
403.832	0.4
404.037	0.47
404.243	0.4
404.448	0.33
404.653	0.34
404.858	0.46
405.063	0.43
405.268	0.38
405.473	0.35
405.678	0.44
405.883	0.61
406.088	0.46
406.293	0.42
406.498	0.44
406.703	0.51
406.907	0.5
407.112	0.34
407.317	0.51
407.522	0.57
407.727	0.43
407.932	0.48
408.136	0.61
408.341	0.53
408.546	0.56
408.751	0.53
408.956	0.58
409.16	0.69
409.365	0.6
409.57	0.57
409.774	0.61
409.979	0.7
410.184	0.65
410.388	0.53
410.593	0.67
410.798	0.71
411.002	0.68
411.207	0.75
411.411	0.79
411.616	0.71
411.82	0.78
412.025	0.81
412.229	0.82
412.434	0.87
412.638	0.88
412.843	0.88
413.047	0.93
413.252	0.89
413.456	0.98
413.66	0.99
413.865	1
414.069	1.1
414.273	1.02
414.478	1.06
414.682	1.06
414.886	1.18
415.091	1.12
415.295	1.16
415.499	1.32
415.703	1.31
415.908	1.4
416.112	1.27
416.316	1.47
416.52	1.45
416.724	1.45
416.929	1.53
417.133	1.76
417.337	1.65
417.541	1.69
417.745	1.77
417.949	1.86
418.153	1.91
418.357	1.91
418.561	2.16
418.765	2.08
418.969	2.22
419.173	2.27
419.377	2.32
419.581	2.57
419.785	2.46
419.989	2.45
420.193	2.62
420.397	2.72
420.601	2.9
420.804	2.89
421.008	2.96
421.212	3.07
421.416	3.1
421.62	3.07
421.823	3.17
422.027	3.3
422.231	3.25
422.435	3.29
422.638	3.36
422.842	3.5
423.046	3.49
423.249	3.73
423.453	3.69
423.657	3.9
423.86	3.96
424.064	4.13
424.268	4.3
424.471	4.25
424.675	4.41
424.878	4.51
425.082	4.59
425.285	4.85
425.489	4.84
425.692	4.89
425.896	4.97
426.099	5.15
426.303	5.3
426.506	5.43
426.71	5.55
426.913	5.84
427.116	6
427.32	5.97
427.523	6.09
427.726	6.34
427.93	6.5
428.133	6.79
428.336	6.86
428.54	7.09
428.743	7.37
428.946	7.5
429.149	7.61
429.353	7.58
429.556	7.5
429.759	7.7
429.962	7.78
430.165	7.99
430.368	7.58
430.571	7.76
430.775	7.71
430.978	7.76
431.181	7.75
431.384	7.8
431.587	8.09
431.79	8.34
431.993	8.24
432.196	8.58
432.399	8.96
432.602	9.11
432.805	9.17
433.008	9.61
433.211	9.55
433.414	9.93
433.616	9.97
433.819	9.96
434.022	10.18
434.225	10.33
434.428	10.28
434.631	10.73
434.833	10.46
435.036	10.85
435.239	10.9
435.442	10.99
435.645	11.08
435.847	11.3
436.05	11.6
436.253	11.84
436.455	11.72
436.658	11.67
436.861	11.94
437.063	12.2
437.266	12.03
437.468	12.39
437.671	12.78
437.874	12.79
438.076	12.67
438.279	12.98
438.481	13.04
438.684	13.88
438.886	13.43
439.089	13.61
439.291	13.75
439.494	14.04
439.696	14.29
439.899	14.82
440.101	15.23
440.303	15.35
440.506	16.12
440.708	15.91
440.91	16.1
441.113	16.11
441.315	16.52
441.517	16.1
441.72	16.67
441.922	16.33
442.124	16.34
442.326	16.73
442.529	16.97
442.731	16.87
442.933	17.28
443.135	16.9
443.337	16.95
443.539	17.65
443.742	17.25
443.944	17.74
444.146	17.69
444.348	17.75
444.55	17.45
444.752	17.6
444.954	17.75
445.156	17.61
445.358	18.11
445.56	18.36
445.762	18.16
445.964	18.46
446.166	18.22
446.368	18.27
446.57	18.36
446.772	17.84
446.974	17.77
447.175	17.98
447.377	17.56
447.579	17.99
447.781	17.75
447.983	17.59
448.184	17.16
448.386	17.62
448.588	17.09
448.79	17.06
448.991	17.32
449.193	17.41
449.395	16.69
449.597	16.46
449.798	16.34
450	15.91
450.202	15.94
450.403	15.94
450.605	15.72
450.806	15.39
451.008	15.24
451.21	15.04
451.411	14.73
451.613	14.03
451.814	14.18
452.016	14.12
452.217	13.4
452.419	13.5
452.62	13.18
452.821	12.83
453.023	12.72
453.224	12.49
453.426	12
453.627	11.31
453.828	11.49
454.03	11.52
454.231	11.41
454.432	11.25
454.634	11.12
454.835	10.87
455.036	10.63
455.238	10.34
455.439	10.03
455.64	9.7
455.841	9.53
456.042	9.76
456.244	9.39
456.445	9.09
456.646	8.83
456.847	8.74
457.048	8.65
457.249	8.67
457.45	8.52
457.651	8
457.852	7.85
458.054	7.37
458.255	7.34
458.456	7.51
458.657	7.3
458.858	6.97
459.058	6.86
459.259	6.87
459.46	6.6
459.661	6.56
459.862	6.61
460.063	6.45
460.264	6.38
460.465	6.1
460.666	6.25
460.866	5.89
461.067	5.67
461.268	5.68
461.469	5.66
461.67	5.51
461.87	5.31
462.071	5.4
462.272	5.18
462.473	5.16
462.673	5.34
462.874	5.24
463.075	5.16
463.275	5.22
463.476	5.24
463.676	5.23
463.877	5.01
464.078	5.03
464.278	5.08
464.479	4.99
464.679	4.86
464.88	4.7
465.08	4.77
465.281	4.6
465.481	4.43
465.682	4.35
465.882	4.26
466.083	4.17
466.283	4.16
466.483	3.98
466.684	3.9
466.884	3.65
467.085	3.8
467.285	3.85
467.485	3.66
467.686	3.66
467.886	3.56
468.086	3.46
468.286	3.54
468.487	3.56
468.687	3.35
468.887	3.32
469.087	3.44
469.287	3.36
469.488	3.15
469.688	3.34
469.888	3.28
470.088	3.25
470.288	3.14
470.488	3.15
470.688	3.01
470.888	2.94
471.088	2.77
471.288	2.94
471.488	2.82
471.688	2.78
471.888	2.77
472.088	2.92
472.288	2.76
472.488	2.65
472.688	2.62
472.888	2.65
473.088	2.66
473.288	2.5
473.488	2.52
473.688	2.68
473.887	2.53
474.087	2.45
474.287	2.54
474.487	2.46
474.687	2.49
474.886	2.36
475.086	2.37
475.286	2.36
475.486	2.36
475.685	2.35
475.885	2.24
476.085	2.31
476.284	2.32
476.484	2.28
476.684	2.23
476.883	2.33
477.083	2.24
477.282	2.18
477.482	2.26
477.681	2.17
477.881	2.09
478.08	2.15
478.28	2.08
478.479	2.12
478.679	2.2
478.878	2.04
479.078	2.06
479.277	2.12
479.477	2.05
479.676	2.06
479.875	2
480.075	1.95
480.274	2.07
480.473	2.13
480.673	2.05
480.872	2.14
481.071	2.1
481.271	2.08
481.47	2.04
481.669	2.02
481.868	2.03
482.067	2.04
482.267	1.96
482.466	1.95
482.665	1.94
482.864	1.96
483.063	1.92
483.262	2.06
483.461	2.05
483.661	2.07
483.86	2.01
484.059	2.13
484.258	2.07
484.457	2.01
484.656	2.06
484.855	2.17
485.054	1.95
485.253	2
485.452	1.99
485.651	2.08
485.849	2.1
486.048	2.07
486.247	2.03
486.446	2.11
486.645	2.04
486.844	2.11
487.043	2.06
487.241	2.15
487.44	2.05
487.639	2.16
487.838	2.13
488.037	2.15
488.235	2.26
488.434	2.2
488.633	2.07
488.831	2.25
489.03	2.27
489.229	2.25
489.427	2.22
489.626	2.3
489.825	2.31
490.023	2.3
490.222	2.28
490.42	2.34
490.619	2.35
490.817	2.36
491.016	2.36
491.214	2.42
491.413	2.44
491.611	2.39
491.81	2.4
492.008	2.46
492.207	2.53
492.405	2.57
492.604	2.46
492.802	2.57
493	2.62
493.199	2.63
493.397	2.64
493.595	2.7
493.794	2.62
493.992	2.78
494.19	2.77
494.388	2.78
494.587	2.72
494.785	2.79
494.983	2.7
495.181	2.85
495.379	2.91
495.578	2.93
495.776	2.9
495.974	2.96
496.172	2.95
496.37	3.11
496.568	3.07
496.766	3.11
496.964	3.19
497.162	3.18
497.36	3.23
497.558	3.23
497.756	3.26
497.954	3.3
498.152	3.32
498.35	3.41
498.548	3.34
498.746	3.35
498.944	3.38
499.142	3.41
499.34	3.53
499.538	3.62
499.736	3.47
499.933	3.63
500.131	3.62
500.329	3.73
500.527	3.7
500.725	3.8
500.922	3.86
501.12	3.83
501.318	3.92
501.516	3.93
501.713	3.98
501.911	3.94
502.109	3.89
502.306	4.05
502.504	3.98
502.701	4.05
502.899	4.16
503.097	4.36
503.294	4.18
503.492	4.3
503.689	4.29
503.887	4.34
504.084	4.42
504.282	4.39
504.479	4.33
504.677	4.54
504.874	4.48
505.072	4.4
505.269	4.64
505.466	4.62
505.664	4.71
505.861	4.63
506.059	4.7
506.256	4.73
506.453	4.8
506.651	4.96
506.848	4.97
507.045	4.93
507.242	4.97
507.44	4.96
507.637	5
507.834	5
508.031	5.19
508.229	5.09
508.426	5.02
508.623	5.2
508.82	5.23
509.017	5.15
509.214	5.15
509.411	5.3
509.608	5.29
509.805	5.43
510.003	5.37
510.2	5.5
510.397	5.61
510.594	5.48
510.791	5.6
510.988	5.55
511.184	5.59
511.381	5.52
511.578	5.61
511.775	5.8
511.972	5.68
512.169	5.75
512.366	5.74
512.563	5.89
512.76	5.91
512.956	5.94
513.153	5.86
513.35	5.85
513.547	5.84
513.744	5.99
513.94	5.95
514.137	6.09
514.334	6.06
514.53	6.09
514.727	6.3
514.924	6.23
515.12	6.22
515.317	6.2
515.514	6.16
515.71	6.17
515.907	6.31
516.103	6.38
516.3	6.24
516.497	6.45
516.693	6.38
516.89	6.45
517.086	6.41
517.283	6.47
517.479	6.34
517.676	6.6
517.872	6.54
518.068	6.59
518.265	6.53
518.461	6.46
518.658	6.64
518.854	6.68
519.05	6.71
519.247	6.78
519.443	6.67
519.639	6.86
519.836	6.71
520.032	6.65
520.228	6.76
520.424	6.82
520.621	6.84
520.817	6.92
521.013	6.79
521.209	7.01
521.405	7.02
521.601	6.95
521.798	6.97
521.994	6.93
522.19	6.93
522.386	6.95
522.582	7.03
522.778	7.21
522.974	7.03
523.17	7.07
523.366	7
523.562	7.13
523.758	7.13
523.954	6.98
524.15	7.11
524.346	7.21
524.542	7.24
524.738	7.1
524.934	7.28
525.129	7.25
525.325	7.14
525.521	7.2
525.717	7.41
525.913	7.27
526.109	7.31
526.304	7.34
526.5	7.34
526.696	7.38
526.892	7.32
527.087	7.48
527.283	7.47
527.479	7.43
527.674	7.3
527.87	7.44
528.066	7.4
528.261	7.47
528.457	7.41
528.653	7.58
528.848	7.53
529.044	7.59
529.239	7.47
529.435	7.47
529.63	7.44
529.826	7.48
530.021	7.53
530.217	7.59
530.412	7.54
530.608	7.55
530.803	7.55
530.999	7.47
531.194	7.52
531.389	7.61
531.585	7.58
531.78	7.78
531.975	7.63
532.171	7.71
532.366	7.65
532.561	7.7
532.757	7.63
532.952	7.8
533.147	7.57
533.342	7.72
533.538	7.59
533.733	7.84
533.928	7.5
534.123	7.76
534.318	7.8
534.513	7.67
534.709	7.89
534.904	7.76
535.099	7.8
535.294	7.81
535.489	7.88
535.684	7.74
535.879	7.75
536.074	7.89
536.269	7.82
536.464	7.88
536.659	7.8
536.854	7.88
537.049	7.91
537.244	7.88
537.439	7.84
537.634	7.88
537.828	7.94
538.023	7.91
538.218	7.86
538.413	7.76
538.608	7.85
538.803	7.83
538.997	7.87
539.192	7.95
539.387	7.84
539.582	7.88
539.776	7.81
539.971	7.97
540.166	7.98
540.36	7.84
540.555	7.97
540.75	7.96
540.944	7.98
541.139	7.93
541.334	7.96
541.528	7.9
541.723	8.05
541.917	8.01
542.112	7.86
542.306	7.8
542.501	7.87
542.695	7.94
542.89	7.88
543.084	7.89
543.279	7.97
543.473	7.97
543.668	8.03
543.862	7.84
544.056	7.86
544.251	8.05
544.445	8.07
544.64	8.07
544.834	7.78
545.028	7.6
545.222	7.94
545.417	8.14
545.611	8.08
545.805	7.96
546	7.88
546.194	8
546.388	8.03
546.582	7.93
546.776	7.97
546.97	7.98
547.165	7.99
547.359	8.05
547.553	7.95
547.747	8.01
547.941	8.23
548.135	7.95
548.329	8.03
548.523	8.05
548.717	7.98
548.911	7.98
549.105	7.87
549.299	8.05
549.493	8.07
549.687	7.96
549.881	8.15
550.075	8.07
550.269	8
550.463	8.12
550.657	8.06
550.85	7.96
551.044	8.01
551.238	8.1
551.432	8.01
551.626	8.05
551.82	8.07
552.013	7.93
552.207	8.12
552.401	8.06
552.594	8.01
552.788	7.92
552.982	7.99
553.176	7.97
553.369	8.15
553.563	8.17
553.756	8.03
553.95	8.15
554.144	8.18
554.337	8.07
554.531	7.88
554.724	8.1
554.918	8.14
555.111	8.03
555.305	8.07
555.498	8
555.692	8.14
555.885	8.13
556.079	7.99
556.272	8.05
556.466	8.09
556.659	8.02
556.852	8.07
557.046	7.97
557.239	7.9
557.432	8
557.626	8.09
557.819	8.13
558.012	8.15
558.206	8.11
558.399	8.11
558.592	8.05
558.785	7.97
558.979	8.09
559.172	8.13
559.365	8.03
559.558	7.97
559.751	7.94
559.944	8.17
560.138	8.05
560.331	8.06
560.524	8.08
560.717	8.08
560.91	8.07
561.103	8.08
561.296	7.91
561.489	8.08
561.682	8.12
561.875	8.08
562.068	8.1
562.261	7.92
562.454	8.22
562.647	8.08
562.84	8.13
563.032	8.08
563.225	7.97
563.418	8.03
563.611	8.12
563.804	8.06
563.997	7.97
564.19	7.77
564.382	8.17
564.575	8
564.768	8
564.961	8.12
565.153	7.96
565.346	7.93
565.539	8.1
565.731	8.06
565.924	8.14
566.117	8.14
566.309	8.08
566.502	8.01
566.695	7.95
566.887	8.08
567.08	8
567.272	8.07
567.465	7.98
567.657	8.09
567.85	7.96
568.042	8.08
568.235	8.1
568.427	7.88
568.62	8.03
568.812	7.97
569.005	8.09
569.197	7.99
569.389	7.99
569.582	8
569.774	7.95
569.966	7.91
570.159	7.91
570.351	7.85
570.543	7.97
570.736	7.94
570.928	7.8
571.12	7.98
571.312	7.93
571.505	7.73
571.697	8
571.889	7.96
572.081	7.97
572.273	7.82
572.465	7.94
572.658	7.96
572.85	8.01
573.042	7.92
573.234	7.8
573.426	7.87
573.618	7.84
573.81	7.89
574.002	7.9
574.194	7.93
574.386	7.87
574.578	7.71
574.77	7.85
574.962	7.9
575.154	7.71
575.346	7.75
575.538	7.8
575.729	7.82
575.921	7.97
576.113	7.9
576.305	7.82
576.497	7.91
576.689	7.71
576.88	7.7
577.072	7.87
577.264	7.8
577.456	7.78
577.647	7.75
577.839	7.89
578.031	7.8
578.223	7.7
578.414	7.67
578.606	7.75
578.798	7.84
578.989	7.72
579.181	7.89
579.372	7.73
579.564	7.79
579.755	7.68
579.947	7.67
580.139	7.83
580.33	7.57
580.522	7.7
580.713	7.68
580.905	7.6
581.096	7.76
581.287	7.64
581.479	7.64
581.67	7.75
581.862	7.6
582.053	7.64
582.244	7.55
582.436	7.75
582.627	7.58
582.818	7.54
583.01	7.53
583.201	7.66
583.392	7.54
583.583	7.57
583.775	7.41
583.966	7.51
584.157	7.53
584.348	7.65
584.54	7.46
584.731	7.56
584.922	7.46
585.113	7.32
585.304	7.52
585.495	7.55
585.686	7.6
585.877	7.57
586.068	7.63
586.259	7.53
586.45	7.5
586.641	7.4
586.832	7.54
587.023	7.44
587.214	7.42
587.405	7.49
587.596	7.31
587.787	7.3
587.978	7.38
588.169	7.37
588.36	7.27
588.551	7.32
588.742	7.41
588.932	7.38
589.123	7.16
589.314	7.42
589.505	7.22
589.696	7.3
589.886	7.29
590.077	7.26
590.268	7.24
590.458	7.17
590.649	7.05
590.84	7.21
591.03	7.18
591.221	7.24
591.412	7.06
591.602	7.23
591.793	7.21
591.984	7.17
592.174	7.21
592.365	7.36
592.555	6.95
592.746	7
592.936	7.07
593.127	7.09
593.317	7.12
593.508	7.1
593.698	7.04
593.889	7.03
594.079	7.03
594.269	6.92
594.46	6.99
594.65	6.99
594.84	6.95
595.031	6.9
595.221	6.94
595.411	6.94
595.602	7
595.792	6.88
595.982	6.8
596.172	7.05
596.363	6.82
596.553	6.78
596.743	6.88
596.933	6.85
597.123	6.84
597.314	6.7
597.504	6.7
597.694	6.9
597.884	6.73
598.074	6.75
598.264	6.69
598.454	6.71
598.644	6.72
598.834	6.71
599.024	6.56
599.214	6.66
599.404	6.66
599.594	6.62
599.784	6.54
599.974	6.68
600.164	6.6
600.354	6.54
600.544	6.49
600.734	6.58
600.924	6.56
601.114	6.47
601.303	6.45
601.493	6.5
601.683	6.53
601.873	6.51
602.063	6.4
602.252	6.46
602.442	6.32
602.632	6.29
602.821	6.27
603.011	6.46
603.201	6.33
603.39	6.33
603.58	6.25
603.77	6.33
603.959	6.39
604.149	6.24
604.339	6.27
604.528	6.38
604.718	6.3
604.907	6.2
605.097	6.15
605.286	6.17
605.476	6.17
605.665	6.22
605.855	6.18
606.044	6.2
606.234	6.16
606.423	6.1
606.612	6.1
606.802	6.1
606.991	6.13
607.181	6.14
607.37	6.07
607.559	5.87
607.749	6.05
607.938	5.99
608.127	5.97
608.316	5.99
608.506	5.89
608.695	6.04
608.884	5.94
609.073	5.93
609.263	5.94
609.452	5.9
609.641	5.79
609.83	5.73
610.019	5.89
610.208	5.76
610.397	5.86
610.586	5.84
610.775	5.75
610.965	5.71
611.154	5.63
611.343	5.76
611.532	5.6
611.721	5.81
611.91	5.68
612.099	5.64
612.287	5.62
612.476	5.53
612.665	5.69
612.854	5.64
613.043	5.66
613.232	5.53
613.421	5.5
613.61	5.53
613.798	5.46
613.987	5.48
614.176	5.48
614.365	5.51
614.554	5.44
614.742	5.46
614.931	5.36
615.12	5.48
615.309	5.36
615.497	5.3
615.686	5.23
615.875	5.35
616.063	5.3
616.252	5.28
616.44	5.33
616.629	5.25
616.818	5.23
617.006	5.19
617.195	5.19
617.383	5.18
617.572	5.12
617.76	5.12
617.949	5.11
618.137	5.26
618.326	5.18
618.514	4.96
618.703	5
618.891	5.15
619.079	5.01
619.268	5.15
619.456	4.92
619.644	5.15
619.833	4.97
620.021	4.94
620.209	4.87
620.398	5
620.586	4.85
620.774	4.87
620.962	4.88
621.151	4.94
621.339	4.84
621.527	4.79
621.715	4.79
621.903	4.82
622.092	4.72
622.28	4.88
622.468	4.62
622.656	4.73
622.844	4.72
623.032	4.74
623.22	4.62
623.408	4.82
623.596	4.69
623.784	4.65
623.972	4.52
624.16	4.62
624.348	4.74
624.536	4.69
624.724	4.49
624.912	4.7
625.1	4.59
625.288	4.6
625.476	4.46
625.664	4.58
625.851	4.46
626.039	4.46
626.227	4.41
626.415	4.37
626.603	4.31
626.79	4.45
626.978	4.4
627.166	4.41
627.354	4.36
627.541	4.32
627.729	4.22
627.917	4.4
628.104	4.41
628.292	4.19
628.48	4.3
628.667	4.18
628.855	4.33
629.042	4.31
629.23	4.16
629.418	4.21
629.605	4.2
629.793	4.13
629.98	4.15
630.168	4.12
630.355	4.14
630.543	4.17
630.73	4
630.917	4.05
631.105	4.22
631.292	4.04
631.48	4.03
631.667	4.1
631.854	3.96
632.042	3.98
632.229	3.89
632.416	3.96
632.604	3.93
632.791	3.8
632.978	3.98
633.165	3.91
633.353	3.96
633.54	4
633.727	3.81
633.914	3.79
634.101	3.77
634.289	3.89
634.476	3.75
634.663	3.75
634.85	3.75
635.037	3.72
635.224	3.64
635.411	3.79
635.598	3.72
635.785	3.65
635.972	3.63
636.159	3.73
636.346	3.6
636.533	3.58
636.72	3.61
636.907	3.62
637.094	3.55
637.281	3.49
637.468	3.55
637.655	3.55
637.842	3.55
638.029	3.5
638.215	3.52
638.402	3.51
638.589	3.42
638.776	3.42
638.963	3.39
639.149	3.54
639.336	3.54
639.523	3.41
639.709	3.41
639.896	3.34
640.083	3.39
640.27	3.38
640.456	3.33
640.643	3.36
640.829	3.26
641.016	3.26
641.203	3.15
641.389	3.29
641.576	3.23
641.762	3.19
641.949	3.15
642.135	3.21
642.322	3.17
642.508	3.15
642.695	3.16
642.881	3.16
643.068	3.05
643.254	3.09
643.441	3.12
643.627	3.15
643.813	3.02
644	3.09
644.186	3.02
644.372	3.04
644.559	3.06
644.745	3.01
644.931	2.96
645.118	3.05
645.304	2.97
645.49	2.98
645.676	2.89
645.862	2.9
646.049	3
646.235	2.88
646.421	3
646.607	3.04
646.793	2.87
646.979	2.8
647.165	2.89
647.352	2.89
647.538	2.82
647.724	2.8
647.91	2.8
648.096	2.85
648.282	2.79
648.468	2.77
648.654	2.76
648.84	2.78
649.026	2.76
649.212	2.71
649.397	2.6
649.583	2.74
649.769	2.74
649.955	2.7
650.141	2.67
650.327	2.72
650.513	2.63
650.698	2.65
650.884	2.49
651.07	2.64
651.256	2.61
651.442	2.57
651.627	2.56
651.813	2.63
651.999	2.52
652.184	2.55
652.37	2.48
652.556	2.5
652.741	2.54
652.927	2.37
653.113	2.44
653.298	2.46
653.484	2.46
653.669	2.38
653.855	2.44
654.04	2.45
654.226	2.43
654.412	2.43
654.597	2.31
654.782	2.43
654.968	2.45
655.153	2.4
655.339	2.34
655.524	2.29
655.71	2.35
655.895	2.3
656.08	2.32
656.266	2.35
656.451	2.32
656.636	2.24
656.822	2.26
657.007	2.28
657.192	2.29
657.378	2.16
657.563	2.24
657.748	2.3
657.933	2.27
658.118	2.17
658.304	2.16
658.489	2.26
658.674	2.18
658.859	2.13
659.044	2.13
659.229	2.16
659.414	2.1
659.599	2.16
659.785	2.08
659.97	2.13
660.155	2.17
660.34	2.13
660.525	2.11
660.71	2.09
660.895	2.14
661.08	1.98
661.264	1.99
661.449	2.07
661.634	2.09
661.819	2.02
662.004	2.04
662.189	1.93
662.374	2
662.559	1.94
662.743	1.87
662.928	1.93
663.113	1.94
663.298	1.88
663.483	1.93
663.667	1.88
663.852	1.92
664.037	1.92
664.221	1.86
664.406	1.97
664.591	1.94
664.775	1.92
664.96	1.84
665.145	1.9
665.329	1.9
665.514	1.85
665.698	1.78
665.883	1.7
666.068	1.84
666.252	1.85
666.437	1.76
666.621	1.81
666.806	1.83
666.99	1.78
667.174	1.71
667.359	1.84
667.543	1.75
667.728	1.69
667.912	1.65
668.096	1.77
668.281	1.7
668.465	1.75
668.649	1.7
668.834	1.66
669.018	1.75
669.202	1.67
669.387	1.63
669.571	1.74
669.755	1.65
669.939	1.61
670.124	1.59
670.308	1.63
670.492	1.66
670.676	1.62
670.86	1.58
671.044	1.56
671.228	1.66
671.413	1.52
671.597	1.5
671.781	1.53
671.965	1.61
672.149	1.54
672.333	1.57
672.517	1.5
672.701	1.54
672.885	1.59
673.069	1.49
673.253	1.6
673.437	1.52
673.621	1.46
673.804	1.5
673.988	1.52
674.172	1.43
674.356	1.38
674.54	1.44
674.724	1.57
674.908	1.43
675.091	1.45
675.275	1.49
675.459	1.5
675.643	1.47
675.826	1.46
676.01	1.43
676.194	1.43
676.377	1.48
676.561	1.44
676.745	1.41
676.928	1.41
677.112	1.5
677.296	1.35
677.479	1.33
677.663	1.37
677.846	1.43
678.03	1.37
678.213	1.26
678.397	1.45
678.58	1.31
678.764	1.38
678.947	1.29
679.131	1.34
679.314	1.36
679.498	1.31
679.681	1.32
679.865	1.37
680.048	1.29
680.231	1.26
680.415	1.25
680.598	1.3
680.781	1.25
680.965	1.27
681.148	1.3
681.331	1.2
681.514	1.29
681.698	1.19
681.881	1.23
682.064	1.19
682.247	1.29
682.43	1.14
682.614	1.23
682.797	1.27
682.98	1.3
683.163	1.14
683.346	1.21
683.529	1.13
683.712	1.13
683.895	1.15
684.078	1.09
684.261	1.14
684.444	1.21
684.627	1.21
684.81	1.12
684.993	1.13
685.176	1.25
685.359	1.09
685.542	1.07
685.725	1.23
685.908	1.14
686.091	1.11
686.274	1.17
686.457	1.19
686.639	1.15
686.822	1.12
687.005	1.08
687.188	1.23
687.371	1.23
687.553	1.18
687.736	1.16
687.919	1.23
688.102	1.13
688.284	1.04
688.467	1.05
688.65	1.08
688.832	1.02
689.015	1.02
689.197	0.99
689.38	1.13
689.563	1.12
689.745	0.95
689.928	0.99
690.11	0.99
690.293	1.06
690.475	0.92
690.658	1.03
690.84	1.02
691.023	0.9
691.205	0.92
691.388	0.97
691.57	1.12
691.752	1.01
691.935	0.91
692.117	0.9
692.3	1.02
692.482	0.98
692.664	0.91
692.847	0.91
693.029	1.06
693.211	1.01
693.393	0.84
693.576	0.87
693.758	0.96
693.94	0.95
694.122	0.92
694.304	0.86
694.487	0.89
694.669	1
694.851	0.81
695.033	0.86
695.215	0.92
695.397	0.86
695.579	0.88
695.761	0.87
695.943	0.83
696.125	1.01
696.308	0.96
696.49	0.73
696.671	1
696.853	0.89
697.035	1.16
697.217	0.81
697.399	0.92
697.581	0.86
697.763	0.84
697.945	0.74
698.127	0.86
698.309	0.92
698.491	0.87
698.672	0.92
698.854	0.98
699.036	0.94
699.218	0.84
699.399	0.86
699.581	0.85
699.763	0.84
699.945	0.72
700.126	0.65
700.308	0.8
700.49	0.8
700.671	0.77
700.853	0.76
701.035	0.77
701.216	0.8
701.398	0.73
701.579	0.75
701.761	0.86
701.943	0.8
702.124	0.76
702.306	0.77
702.487	0.91
702.669	0.79
702.85	0.71
703.031	0.71
703.213	0.89
703.394	0.89
703.576	0.76
703.757	0.92
703.938	0.82
704.12	0.97
704.301	0.76
704.483	0.67
704.664	0.76
704.845	0.84
705.026	0.85
705.208	0.73
705.389	0.79
705.57	0.73
705.751	0.77
705.933	0.77
706.114	0.74
706.295	0.75
706.476	0.6
706.657	0.84
706.838	0.81
707.02	0.87
707.201	0.72
707.382	0.64
707.563	0.75
707.744	0.74
707.925	0.65
708.106	0.58
708.287	0.7
708.468	0.8
708.649	0.61
708.83	0.67
709.011	0.65
709.192	0.76
709.373	0.62
709.554	0.7
709.734	0.79
709.915	0.71
710.096	0.69
710.277	0.51
710.458	0.64
710.639	0.72
710.819	0.47
711	0.61
711.181	0.68
711.362	0.74
711.542	0.67
711.723	0.58
711.904	0.72
712.085	0.73
712.265	0.69
712.446	0.6
712.627	0.57
712.807	0.63
712.988	0.72
713.168	0.51
713.349	0.66
713.53	0.45
713.71	0.45
713.891	0.46
714.071	0.56
714.252	0.58
714.432	0.58
714.613	0.52
714.793	0.62
714.974	0.72
715.154	0.65
715.334	0.7
715.515	0.68
715.695	0.56
715.876	0.6
716.056	0.51
716.236	0.56
716.417	0.57
716.597	0.54
716.777	0.79
716.957	0.59
717.138	0.59
717.318	0.57
717.498	0.47
717.678	0.62
717.859	0.62
718.039	0.42
718.219	0.52
718.399	0.55
718.579	0.51
718.759	0.45
718.939	0.52
719.12	0.61
719.3	0.61
719.48	0.4
719.66	0.36
719.84	0.65
720.02	0.51
720.2	0.51
720.38	0.51
720.56	0.63
720.74	0.45
720.92	0.61
721.1	0.68
721.279	0.62
721.459	0.5
721.639	0.44
721.819	0.55
721.999	0.49
722.179	0.56
722.359	0.42
722.538	0.49
722.718	0.47
722.898	0.47
723.078	0.46
723.257	0.43
723.437	0.62
723.617	0.55
723.797	0.45
723.976	0.47
724.156	0.63
724.336	0.65
724.515	0.68
724.695	0.34
724.874	0.49
725.054	0.55
725.234	0.44
725.413	0.55
725.593	0.49
725.772	0.49
725.952	0.52
726.131	0.46
726.311	0.47
726.49	0.41
726.67	0.42
726.849	0.42
727.028	0.56
727.208	0.45
727.387	0.43
727.567	0.27
727.746	0.45
727.925	0.47
728.105	0.35
728.284	0.44
728.463	0.45
728.643	0.52
728.822	0.41
729.001	0.44
729.18	0.42
729.359	0.52
729.539	0.5
729.718	0.4
729.897	0.59
730.076	0.4
730.255	0.3
730.434	0.49
730.614	0.45
730.793	0.69
730.972	0.35
731.151	0.47
731.33	0.66
731.509	0.53
731.688	0.42
731.867	0.49
732.046	0.31
732.225	0.67
732.404	0.35
732.583	0.29
732.762	0.49
732.941	0.53
733.12	0.49
733.298	0.41
733.477	0.64
733.656	0.46
733.835	0.28
734.014	0.6
734.193	0.46
734.371	0.49
734.55	0.62
734.729	0.26
734.908	0.47
735.086	0.59
735.265	0.52
735.444	0.17
735.623	0.33
735.801	0.37
735.98	0.37
736.159	0.38
736.337	0.65
736.516	0.51
736.694	0.48
736.873	0.35
737.052	0.71
737.23	0.68
737.409	0.42
737.587	0.78
737.766	0.38
737.944	0.5
738.123	0.53
738.301	0.58
738.479	0.42
738.658	0.39
738.836	0.32
739.015	0.37
739.193	0.7
739.371	0.33
739.55	0.44
739.728	0.34
739.906	0.57
740.085	0.65
740.263	0.5
740.441	0.27
740.62	0.73
740.798	0.47
740.976	0.33
741.154	0.31
741.332	0.66
741.511	0.45
741.689	0.44
741.867	0.46
742.045	0.54
742.223	0.5
742.401	0.25
742.579	0.35
742.757	0.51
742.935	0.39
743.114	0.39
743.292	0.47
743.47	0.55
743.648	0.45
743.826	0.24
744.004	0.45
744.181	0.52
744.359	0.43
744.537	0.46
744.715	0.43
744.893	0.37
745.071	0.45
745.249	0.52
745.427	0.46
745.605	0.37
745.782	0.47
745.96	0.52
746.138	0.53
746.316	0.58
746.493	0.4
746.671	0.39
746.849	0.3
747.027	0.59
747.204	0.25
747.382	0.42
747.56	0.23
747.737	0.49
747.915	0.34
748.093	0.49
748.27	0.3
748.448	0.37
748.625	0.2
748.803	0.26
748.98	0.25
749.158	0.47
749.335	0.44
749.513	0.39
749.69	0.39
749.868	0.29
750.045	0.4
750.223	0.26
750.4	0.15
750.578	0.63
750.755	0.41
750.932	0.2
751.11	0.46
751.287	0.22
751.464	0.61
751.642	0.27
751.819	0.46
751.996	0.48
752.173	0.28
752.351	0.26
752.528	0.43
752.705	0.31
752.882	0.27
753.06	0.38
753.237	0.35
753.414	0.57
753.591	0.74
753.768	0.4
753.945	0.39
754.122	0.37
754.299	0.5
754.476	0.31
754.654	0.33
754.831	0.51
755.008	0.42
755.185	0.29
755.362	0.24
755.539	0.52
755.716	0.38
755.892	0.19
756.069	0.36
756.246	0.38
756.423	0.28
756.6	0.57
756.777	0.11
756.954	0.49
757.131	0.39
757.307	0.26
757.484	0.16
757.661	0.34
757.838	0.48
758.015	0.19
758.191	0.36
758.368	0.42
758.545	0.58
758.721	0.43
758.898	0.28
759.075	0.4
759.251	0.5
759.428	0.34
759.605	0.24
759.781	0.31
759.958	0.35
760.134	0.34
760.311	0.16
760.488	0.55
760.664	0.48
760.841	0.27
761.017	0.26
761.194	0.37
761.37	0.47
761.547	0.2
761.723	0.28
761.899	0.65
762.076	0.21
762.252	0.19
762.429	0.27
762.605	0.51
762.781	0.31
762.958	0.38
763.134	0.2
763.31	0.17
763.486	0.64
763.663	0.17
763.839	0.43
764.015	0.16
764.191	0.23
764.368	0.24
764.544	0.32
764.72	0.37
764.896	0.42
765.072	0.28
765.248	0.31
765.425	0.23
765.601	0.28
765.777	0.44
765.953	0.04
766.129	0.29
766.305	0.27
766.481	0.53
766.657	0.3
766.833	0.3
767.009	0.19
767.185	0.3
767.361	0.25
767.537	0.11
767.713	0.6
767.889	0.34
768.065	0.3
768.24	0.51
768.416	0.48
768.592	0.4
768.768	0.25
768.944	0.32
769.12	0.28
769.295	0.07
769.471	0.3
769.647	0.34
769.823	0.57
769.998	0.12
770.174	0.17
770.35	0.79
770.525	0.57
770.701	0.42
770.877	0.29
771.052	0.22
771.228	0.62
771.403	0.45
771.579	0.36
771.755	0.8
771.93	0.29
772.106	0.21
772.281	0.06
772.457	0.34
772.632	0.33
772.808	0.1
772.983	0.22
773.159	0.15
773.334	0.55
773.509	0.28
773.685	0.15
773.86	0.75
774.036	0.62
774.211	0.39
774.386	0.29
774.562	0.28
774.737	0.64
774.912	0.12
775.087	0.34
775.263	0.3
775.438	0.45
775.613	0.23
775.788	0.35
775.964	0.54
776.139	0.95
776.314	0.1
776.489	0.47
776.664	0.44
776.839	0.08
777.014	0.46
777.19	0.44
777.365	0.76
777.54	0.64
777.715	0.15
777.89	0.21
778.065	0.16
778.24	0.22
778.415	0.4
778.59	-0.04
778.765	0.36
778.94	0.68
779.115	0.24
779.289	0.26
779.464	0.27
779.639	0.2
779.814	0.09
779.989	0.15
780.164	0.51
780.339	0.41
780.513	0.3
780.688	0.14
780.863	0.45
781.038	0.46
781.212	0.08
781.387	0.34
781.562	0.63
781.737	0.39
781.911	0.64
782.086	0.25
782.261	0.36
782.435	0.55
782.61	0.19
782.784	0.26
782.959	0.77
783.134	0.31
783.308	0.18
783.483	0.2
783.657	0.8
783.832	0.81
784.006	-0.05
784.181	0.32
784.355	0.68
784.53	0.2
784.704	0.01
784.878	0.59
785.053	0.64
785.227	0.65
785.402	0.75
785.576	0.28
785.75	0.49
785.925	0.05
786.099	0.41
786.273	0.42
786.448	0.66
786.622	0.61
786.796	0.18
786.97	0.36
787.145	0.94
787.319	-0.13
787.493	0.47
787.667	-0.08
787.841	0.23
788.015	0.7
788.19	0.18
788.364	0.22
788.538	0.76
788.712	0.72
788.886	0.17
789.06	0.63
789.234	0.91
789.408	0.21
789.582	0.41
789.756	0.11
789.93	0.37
790.104	0.35
790.278	0.2
790.452	0.21
790.626	0.42
790.8	0.41
790.973	0.3
791.147	0.73
791.321	1.09
791.495	0.85
791.669	0.25
791.843	0.41
792.016	0.47
792.19	0.94
792.364	-0
792.538	1.01
792.711	0.7
792.885	0.29
793.059	0.15
793.233	-0.19
793.406	0.61
793.58	0.61
793.754	0.53
793.927	0.15
794.101	0.64
794.274	0.34
794.448	0.8
794.622	0.14
794.795	0.9
794.969	0.36
795.142	0.63
795.316	0.35
795.489	0.44
795.663	0.89
795.836	0.06
796.009	0.04
796.183	0.7
796.356	0.45
796.53	0.62
796.703	0.4
796.876	0.83
797.05	0.5
797.223	0.21
797.396	0.6
797.57	0.6
797.743	0.93
797.916	0.46
798.09	0.16
798.263	0.81
798.436	0.53
798.609	0.03
798.782	0.06
798.956	0.85
799.129	0.46
799.302	0.44
799.475	0.19
799.648	0.47
799.821	0.48
799.994	0.39
800.167	-0.02
800.34	0.36
800.514	0.49
800.687	0.35
800.86	0.01
801.033	0.76
801.206	0.58
801.379	0.13
801.551	0.67
801.724	0.56
801.897	1.12
802.07	0.58
802.243	-0.05
802.416	0.44
802.589	0.38
802.762	0.52
802.935	0.29
803.107	0.8
803.28	1.01
803.453	0.57
803.626	0.19
803.798	0.39
803.971	0.01
804.144	0.57
804.317	0.61
804.489	0.9
804.662	0.5
804.835	0.49
805.007	-0.02
805.18	1
805.353	0.46
805.525	0.21
805.698	0.19
805.87	0.87
806.043	1.15
806.215	-0.11
806.388	0.05
806.56	0.37
806.733	1.1
806.905	0.45
807.078	0.17
807.25	0.37
807.423	0.59
807.595	0.62
807.768	0.2
807.94	0.72
808.112	0.61
808.285	0.52
808.457	0
808.629	0.39
808.802	0.51
808.974	0.61
809.146	0.18
809.318	0.25
809.491	0.62
809.663	0.29
809.835	0.14
810.007	0.89
810.18	0.61
810.352	0.13
810.524	0.45
810.696	0.92
810.868	1.08
811.04	0.12
811.212	0.27
811.384	0.91
811.556	1
811.728	0.59
811.901	1.44
812.073	0.33
812.245	0.81
812.417	0.41
812.589	-0.21
812.76	0.53
812.932	1.01
813.104	1.22
813.276	0.54
813.448	0.9
813.62	0.55
813.792	0.2
813.964	0.88
814.136	0.75
814.307	0.57
814.479	0.48
814.651	0.29
814.823	1.51
814.995	0.37
815.166	0.57
815.338	0.42
815.51	0.29
815.681	1.91
815.853	0.94
816.025	0.4
816.196	1.59
816.368	0.44
816.54	0.07
816.711	0.09
816.883	1.33
817.054	1.74
817.226	-0.04
817.398	0.81
817.569	0.19
817.741	0.63
817.912	0.19
818.084	0.9
818.255	1.2
818.426	0.13
818.598	0.64
818.769	0.21
818.941	0.85
819.112	1.82
819.283	0.64
819.455	-0.07
819.626	0.4
819.798	0.99
819.969	0.8
820.14	-0.1
820.311	0.48
820.483	0.75
820.654	1.14
820.825	0.57
820.996	0.63
821.168	0.1
821.339	0.39
821.51	-0.44
821.681	0.43
821.852	0.75
822.023	-0.13
822.195	-0.81
822.366	1.47
822.537	0.38
822.708	0.45
822.879	0
823.05	1.53
823.221	0.42
823.392	0.88
823.563	0.25
823.734	0.74
823.905	0.61
824.076	0.57
824.247	0.06
824.418	0.96
824.589	1.67
824.759	0.4
824.93	0.64
825.101	-0.36
825.272	1.78
825.443	1.38
825.614	1.13
825.784	-0.09
825.955	2.18
826.126	1.3
826.297	0.5
826.467	1.25
826.638	2.04
826.809	-0.24
826.98	0.98
827.15	0.97
827.321	0.87
827.492	1.55
827.662	0.37
827.833	1.74
828.003	1.41
828.174	-0.55
828.345	-0.38
828.515	2.14
828.686	0.6
828.856	0.16
829.027	0.58
829.197	0.92
829.368	1.22
829.538	0.15
829.709	-0.38
829.879	0.83
830.049	1.39
830.22	0.46
830.39	0.28
830.56	1.85
830.731	1.09
830.901	-0.03
831.072	0.26
831.242	1.4
831.412	1.15
831.582	0.67
831.753	-0.16
831.923	1.16
832.093	1.46
832.263	0.6
832.434	-0.21
832.604	0.63
832.774	1.8
832.944	0.55
833.114	-0.21
833.284	1.3
833.454	0.5
833.624	0.06
833.795	0.62
833.965	1.86
834.135	1.94
834.305	-0.84
834.475	-0.36
834.645	0.71
834.815	1.02
834.985	-0.13
835.155	-0.04
835.325	1.06
835.494	1.24
835.664	-0.03
835.834	0.97
836.004	0.87
836.174	0.8
836.344	-0.03
836.514	-0.23
836.684	0.04
836.853	1.28
837.023	1.32
837.193	-0.43
837.363	1.75
837.532	1.63
837.702	-0.63
837.872	0.18
838.041	1.74
838.211	3.1
838.381	-0.15
838.55	0.36
838.72	3.44
838.89	2.39
839.059	0.85
839.229	-0.34
839.398	2.78
839.568	1.09
839.738	0.2
839.907	2.03
840.077	0.58
840.246	0.13
840.416	-0.33
840.585	-0.46
840.755	2.64
840.924	2.08
841.093	0.28
841.263	0.54
841.432	1.22
841.602	0.65
841.771	0.12
841.94	1.34
842.11	3.59
842.279	2.24
842.448	0.01
842.617	-0.45
842.787	2.11
842.956	0.37
843.125	0.61
843.294	0.6
843.464	2.13
843.633	1.63
843.802	-0.35
843.971	0.73
844.14	2.29
844.309	2.53
844.479	-0.53
844.648	-0.93
844.817	0.05
844.986	1.01
845.155	-0.34
845.324	0.22
845.493	0.99
845.662	0.31
845.831	1.7
846	0.83
846.169	0.53
846.338	2.08
846.507	1.07
846.676	0.54
846.844	0.59
847.013	2.11
847.182	1.5
847.351	0.46
847.52	1.19
847.689	1.35
847.858	0.54
848.026	0.37
848.195	1.28
848.364	0.61
848.533	0.27
848.701	0
848.87	0.15
849.039	2.91
849.207	1.13
849.376	1.83
849.545	3.16
849.713	1.13
849.882	0.35
850.051	0.62
850.219	0.84
850.388	1.39
850.556	-0.08
850.725	0.62
850.893	0.58
851.062	0.85
851.23	1.7
851.399	-0.32
851.567	1.08
851.736	0.97
851.904	0.37
852.073	2.13
852.241	1.59
852.41	1.17
852.578	0.75
852.746	-0.59
852.915	2.29
853.083	1.84
853.251	-0.07
853.42	0.12
853.588	1.97
853.756	3.48
853.924	1.32
854.093	1.45
854.261	1.37
854.429	-0.85
854.597	1.59
854.765	0.67
854.934	1.82
855.102	3.21
855.27	0.1
855.438	1.71
855.606	3.15
855.774	2.62
855.942	-0.52
856.11	-1.08
856.278	1.33
856.446	2.2
856.614	0.73
856.782	-1.22
856.95	2.5
857.118	2.44
857.286	1.49
857.454	-0.99
857.622	2.4
857.79	2.83
857.958	0.31
858.126	-0.22
858.294	-1.49
858.462	0.41
858.629	0.53
858.797	-0.07
858.965	2.23
859.133	1.34
859.301	1.16
859.468	2.76
859.636	0.17
859.804	3.81
859.971	1.38
860.139	0.71
860.307	3.74
860.474	1.19
860.642	-0.31
860.81	-0.42
860.977	0.86
861.145	2.87
861.313	0
861.48	0.26
861.648	2.22
861.815	1.49
861.983	-0.75
862.15	-0.5
862.318	2.61
862.485	3.21
862.653	-1.01
862.82	-0.5
862.988	2.63
863.155	2.45
863.322	-0.08
863.49	0.18
863.657	0.44
863.824	3.41
863.992	1.59
864.159	2.5
864.326	3.64
864.494	1.55
864.661	2.43
864.828	0.22
864.996	4.59
865.163	3.53
865.33	-0.48
865.497	-3.12
865.664	0.23
865.832	-0.98
865.999	1.04
866.166	0.27
866.333	-0.77
866.5	2.5
866.667	0.26
866.834	1.14
867.001	3.52
867.168	-0.46
867.335	1.14
867.502	-1.86
867.669	1.28
867.836	4.73
868.003	1.26
868.17	1.86
868.337	3.31
868.504	4.92
868.671	-1.06
868.838	1.16
869.005	3
869.172	2.4
869.339	0.06
869.505	1.77
869.672	0.74
869.839	4.25
870.006	1.95
870.173	-0.82
870.339	0.74
870.506	7.14
870.673	1.85
870.84	1.33
871.006	1.32
871.173	1.08
871.34	0.69
871.506	-0.29
871.673	3.36
871.839	-0.86
872.006	1.87
872.173	-0.36
872.339	2.99
872.506	3.26
872.672	0.68
872.839	-0.63
873.005	2.17
873.172	3.54
873.338	3.29
873.505	0.07
873.671	2.83
873.838	2.39
874.004	-1.34
874.171	-0.55
874.337	2.04
874.503	4.42
874.67	-0.74
874.836	1.95
875.002	5.13
875.169	2.83
875.335	0.82
875.501	0.25
875.668	-2.08
875.834	0.69
876	0.43
876.166	1.88
876.332	2.28
876.499	6.19
876.665	1.94
876.831	-0.97
876.997	5.44
877.163	2.9
877.329	0.77
877.495	0.48
877.662	2.55
877.828	2.6
877.994	3.1
878.16	-2.11
878.326	1.17
878.492	3.04
878.658	0.82
878.824	2.86
878.99	3.01
879.156	-0.13
879.322	4.46
879.487	0.64
879.653	2.36
879.819	1.81
879.985	0.15
880.151	0.54
880.317	3.18
880.483	2.17
880.648	2.99
880.814	-1.17
880.98	1.71
881.146	-1.97
881.312	-0.2
881.477	0.08
881.643	0.53
881.809	4.2
881.974	4.23
882.14	-1.84
882.306	0.34
882.471	5.22
882.637	0.3
882.803	0.17
882.968	5.52
883.134	5.46
883.299	-0.35
883.465	2.06
883.63	5.19
883.796	1.92
883.961	1.56
884.127	1.82
884.292	-2.43
884.458	0.24
884.623	0.24
