Data from Apollo_Calib_20240827__AbsoluteIrradiance__1__23-10-01-073.txt Node

Date: Tue Aug 27 23:10:01 BST 2024
User: biology
Spectrometer: FLMT08252
Trigger mode: 0
Integration Time (sec): 5.000000E-1
Scans to average: 5
Electric dark correction enabled: true
Nonlinearity correction enabled: false
Boxcar width: 0
XAxis mode: Wavelengths
Number of Pixels in Spectrum: 3648
>>>>>Begin Spectral Data<<<<<
179.588	-0
179.809	-0
180.03	-0
180.251	-0
180.473	-0
180.694	0
180.915	0
181.136	-0
181.357	-0
181.578	-0
181.799	-0
182.02	-0
182.241	0
182.462	-0
182.683	0
182.904	-0
183.125	-0
183.346	0
183.567	0
183.788	0
184.009	0
184.23	0
184.451	0
184.672	0
184.892	0
185.113	0
185.334	0
185.555	0
185.776	0
185.996	0
186.217	0
186.438	0
186.659	0
186.879	0
187.1	0
187.321	0
187.541	0
187.762	0
187.983	0
188.203	0
188.424	0
188.644	0
188.865	0
189.086	0
189.306	0
189.527	0
189.747	0
189.968	0
190.188	0
190.409	0
190.629	0
190.849	0
191.07	0
191.29	0
191.511	0
191.731	0
191.951	0
192.172	0
192.392	0
192.612	0
192.833	0
193.053	0
193.273	0
193.493	0
193.714	0
193.934	0
194.154	0
194.374	0
194.594	0
194.815	0
195.035	0
195.255	0
195.475	0
195.695	0
195.915	0
196.135	0
196.355	0
196.575	0
196.795	0
197.015	0
197.235	0
197.455	0
197.675	0
197.895	0
198.115	0
198.335	0
198.555	0
198.775	0
198.995	0
199.214	0
199.434	0
199.654	0
199.874	0
200.094	3.02
200.313	2.95
200.533	2.89
200.753	1.84
200.973	3.33
201.192	2.51
201.412	1.54
201.632	2.28
201.851	2.55
202.071	2.12
202.291	1.95
202.51	1.59
202.73	2.49
202.95	2.11
203.169	1.88
203.389	2.06
203.608	2.32
203.828	1.42
204.047	2.39
204.267	2.34
204.486	1.99
204.706	1.87
204.925	2.13
205.145	1.81
205.364	1.69
205.583	2
205.803	1.87
206.022	1.51
206.242	1.68
206.461	2.08
206.68	1.59
206.9	1.94
207.119	1.71
207.338	1.78
207.557	1.74
207.777	1.75
207.996	1.65
208.215	1.57
208.434	1.32
208.654	1.44
208.873	1.57
209.092	1.61
209.311	1.53
209.53	1.68
209.749	1.29
209.968	1.06
210.187	1.2
210.407	1.1
210.626	1.4
210.845	1.65
211.064	1.16
211.283	1.06
211.502	1.33
211.721	1.09
211.94	1.17
212.159	1.58
212.377	1.2
212.596	1.11
212.815	1.52
213.034	1.22
213.253	1.29
213.472	1.26
213.691	0.9
213.91	0.81
214.128	1.16
214.347	1.13
214.566	0.84
214.785	0.81
215.003	1.26
215.222	1.11
215.441	1.16
215.66	0.95
215.878	1.11
216.097	1.21
216.316	0.9
216.534	1.01
216.753	1.05
216.972	0.73
217.19	1.01
217.409	0.77
217.627	0.71
217.846	0.72
218.064	1.01
218.283	0.8
218.501	1.17
218.72	1.03
218.938	0.78
219.157	0.95
219.375	1.05
219.594	0.93
219.812	0.67
220.031	0.76
220.249	1.07
220.467	1.09
220.686	0.78
220.904	0.69
221.122	0.78
221.341	1.01
221.559	0.93
221.777	0.63
221.995	0.79
222.214	0.89
222.432	0.72
222.65	0.69
222.868	0.82
223.086	0.8
223.305	0.97
223.523	0.7
223.741	0.94
223.959	0.54
224.177	0.58
224.395	0.52
224.613	0.67
224.831	0.71
225.049	0.67
225.267	0.63
225.485	0.6
225.703	0.72
225.921	0.73
226.139	0.62
226.357	0.77
226.575	0.62
226.793	0.66
227.011	0.95
227.229	0.72
227.447	0.66
227.665	0.59
227.883	0.61
228.1	0.63
228.318	0.61
228.536	0.56
228.754	0.73
228.972	0.65
229.189	0.72
229.407	0.55
229.625	0.71
229.843	0.73
230.06	0.67
230.278	0.6
230.496	0.67
230.713	0.65
230.931	0.6
231.149	0.71
231.366	0.56
231.584	0.55
231.801	0.76
232.019	0.54
232.236	0.64
232.454	0.49
232.671	0.54
232.889	0.66
233.106	0.53
233.324	0.58
233.541	0.58
233.759	0.68
233.976	0.57
234.194	0.6
234.411	0.6
234.628	0.41
234.846	0.51
235.063	0.56
235.28	0.53
235.498	0.7
235.715	0.5
235.932	0.62
236.149	0.54
236.367	0.53
236.584	0.55
236.801	0.61
237.018	0.59
237.236	0.59
237.453	0.3
237.67	0.59
237.887	0.46
238.104	0.48
238.321	0.46
238.538	0.51
238.755	0.59
238.973	0.42
239.19	0.52
239.407	0.6
239.624	0.54
239.841	0.41
240.058	0.43
240.275	0.55
240.492	0.49
240.709	0.52
240.925	0.48
241.142	0.54
241.359	0.37
241.576	0.44
241.793	0.52
242.01	0.4
242.227	0.54
242.444	0.55
242.66	0.57
242.877	0.38
243.094	0.45
243.311	0.53
243.527	0.42
243.744	0.51
243.961	0.51
244.178	0.32
244.394	0.52
244.611	0.58
244.828	0.55
245.044	0.35
245.261	0.48
245.477	0.46
245.694	0.48
245.911	0.44
246.127	0.52
246.344	0.53
246.56	0.43
246.777	0.4
246.993	0.41
247.21	0.47
247.426	0.47
247.643	0.4
247.859	0.42
248.076	0.52
248.292	0.52
248.508	0.37
248.725	0.45
248.941	0.46
249.157	0.43
249.374	0.44
249.59	0.39
249.806	0.45
250.023	0.5
250.239	0.41
250.455	0.44
250.671	0.38
250.888	0.42
251.104	0.53
251.32	0.46
251.536	0.41
251.752	0.44
251.969	0.51
252.185	0.57
252.401	0.56
252.617	0.46
252.833	0.41
253.049	0.46
253.265	0.41
253.481	0.46
253.697	0.44
253.913	0.27
254.129	0.31
254.345	0.36
254.561	0.39
254.777	0.43
254.993	0.53
255.209	0.44
255.425	0.47
255.641	0.39
255.857	0.51
256.073	0.42
256.288	0.28
256.504	0.39
256.72	0.45
256.936	0.44
257.152	0.4
257.367	0.34
257.583	0.42
257.799	0.44
258.015	0.36
258.23	0.33
258.446	0.47
258.662	0.4
258.877	0.4
259.093	0.34
259.309	0.36
259.524	0.38
259.74	0.36
259.955	0.27
260.171	0.42
260.387	0.39
260.602	0.51
260.818	0.4
261.033	0.32
261.249	0.36
261.464	0.37
261.68	0.29
261.895	0.4
262.11	0.42
262.326	0.4
262.541	0.31
262.757	0.4
262.972	0.3
263.187	0.4
263.403	0.42
263.618	0.4
263.833	0.38
264.049	0.35
264.264	0.33
264.479	0.42
264.694	0.37
264.91	0.34
265.125	0.39
265.34	0.42
265.555	0.5
265.77	0.34
265.986	0.36
266.201	0.48
266.416	0.39
266.631	0.39
266.846	0.41
267.061	0.31
267.276	0.34
267.491	0.19
267.706	0.38
267.921	0.36
268.136	0.35
268.351	0.36
268.566	0.31
268.781	0.42
268.996	0.37
269.211	0.38
269.426	0.33
269.641	0.3
269.856	0.32
270.071	0.29
270.285	0.28
270.5	0.41
270.715	0.41
270.93	0.32
271.145	0.37
271.359	0.34
271.574	0.31
271.789	0.37
272.004	0.34
272.218	0.37
272.433	0.42
272.648	0.3
272.862	0.37
273.077	0.32
273.292	0.32
273.506	0.33
273.721	0.33
273.936	0.33
274.15	0.33
274.365	0.34
274.579	0.43
274.794	0.34
275.008	0.39
275.223	0.29
275.437	0.4
275.652	0.44
275.866	0.28
276.081	0.36
276.295	0.36
276.509	0.35
276.724	0.32
276.938	0.34
277.153	0.37
277.367	0.35
277.581	0.28
277.796	0.29
278.01	0.3
278.224	0.33
278.438	0.4
278.653	0.31
278.867	0.28
279.081	0.18
279.295	0.27
279.51	0.34
279.724	0.23
279.938	0.28
280.152	0.29
280.366	0.25
280.58	0.34
280.794	0.38
281.008	0.27
281.222	0.35
281.437	0.4
281.651	0.33
281.865	0.36
282.079	0.33
282.293	0.23
282.507	0.27
282.721	0.29
282.935	0.34
283.148	0.23
283.362	0.29
283.576	0.26
283.79	0.25
284.004	0.25
284.218	0.31
284.432	0.27
284.646	0.31
284.859	0.33
285.073	0.28
285.287	0.3
285.501	0.33
285.714	0.28
285.928	0.3
286.142	0.29
286.356	0.3
286.569	0.28
286.783	0.35
286.997	0.33
287.21	0.32
287.424	0.37
287.637	0.26
287.851	0.29
288.065	0.36
288.278	0.32
288.492	0.35
288.705	0.3
288.919	0.33
289.132	0.26
289.346	0.33
289.559	0.26
289.773	0.28
289.986	0.29
290.2	0.31
290.413	0.26
290.626	0.27
290.84	0.28
291.053	0.34
291.267	0.3
291.48	0.33
291.693	0.3
291.906	0.22
292.12	0.22
292.333	0.24
292.546	0.28
292.76	0.36
292.973	0.29
293.186	0.28
293.399	0.26
293.612	0.29
293.826	0.26
294.039	0.32
294.252	0.27
294.465	0.24
294.678	0.27
294.891	0.29
295.104	0.26
295.317	0.28
295.53	0.29
295.743	0.28
295.956	0.26
296.169	0.31
296.382	0.28
296.595	0.27
296.808	0.24
297.021	0.3
297.234	0.26
297.447	0.27
297.66	0.28
297.873	0.28
298.086	0.25
298.299	0.25
298.511	0.2
298.724	0.28
298.937	0.24
299.15	0.24
299.363	0.3
299.575	0.29
299.788	0.28
300.001	0.33
300.213	0.21
300.426	0.24
300.639	0.23
300.852	0.28
301.064	0.27
301.277	0.26
301.489	0.26
301.702	0.29
301.915	0.22
302.127	0.22
302.34	0.28
302.552	0.29
302.765	0.25
302.977	0.31
303.19	0.23
303.402	0.22
303.615	0.2
303.827	0.25
304.04	0.25
304.252	0.26
304.464	0.23
304.677	0.32
304.889	0.27
305.102	0.24
305.314	0.25
305.526	0.29
305.739	0.28
305.951	0.21
306.163	0.26
306.375	0.31
306.588	0.24
306.8	0.29
307.012	0.25
307.224	0.27
307.436	0.27
307.649	0.18
307.861	0.27
308.073	0.26
308.285	0.23
308.497	0.24
308.709	0.22
308.921	0.28
309.133	0.25
309.346	0.26
309.558	0.26
309.77	0.25
309.982	0.27
310.194	0.32
310.406	0.27
310.617	0.26
310.829	0.31
311.041	0.33
311.253	0.22
311.465	0.25
311.677	0.25
311.889	0.29
312.101	0.23
312.313	0.28
312.524	0.24
312.736	0.2
312.948	0.26
313.16	0.28
313.372	0.25
313.583	0.23
313.795	0.25
314.007	0.18
314.218	0.23
314.43	0.26
314.642	0.24
314.853	0.24
315.065	0.28
315.277	0.23
315.488	0.28
315.7	0.3
315.912	0.26
316.123	0.24
316.335	0.23
316.546	0.32
316.758	0.21
316.969	0.25
317.181	0.25
317.392	0.24
317.604	0.29
317.815	0.22
318.026	0.21
318.238	0.19
318.449	0.27
318.661	0.21
318.872	0.21
319.083	0.21
319.295	0.31
319.506	0.27
319.717	0.27
319.929	0.25
320.14	0.31
320.351	0.32
320.562	0.24
320.774	0.25
320.985	0.25
321.196	0.19
321.407	0.2
321.618	0.26
321.829	0.24
322.041	0.26
322.252	0.26
322.463	0.26
322.674	0.26
322.885	0.25
323.096	0.24
323.307	0.24
323.518	0.27
323.729	0.24
323.94	0.25
324.151	0.21
324.362	0.25
324.573	0.28
324.784	0.24
324.995	0.29
325.206	0.29
325.417	0.26
325.628	0.26
325.838	0.28
326.049	0.24
326.26	0.26
326.471	0.27
326.682	0.26
326.892	0.28
327.103	0.2
327.314	0.19
327.525	0.3
327.735	0.24
327.946	0.26
328.157	0.27
328.368	0.27
328.578	0.23
328.789	0.27
328.999	0.3
329.21	0.26
329.421	0.25
329.631	0.18
329.842	0.26
330.052	0.25
330.263	0.31
330.473	0.32
330.684	0.3
330.894	0.22
331.105	0.22
331.315	0.27
331.526	0.23
331.736	0.32
331.947	0.3
332.157	0.26
332.367	0.24
332.578	0.25
332.788	0.27
332.999	0.29
333.209	0.23
333.419	0.25
333.629	0.19
333.84	0.28
334.05	0.24
334.26	0.3
334.47	0.3
334.681	0.32
334.891	0.23
335.101	0.31
335.311	0.31
335.521	0.25
335.732	0.24
335.942	0.28
336.152	0.29
336.362	0.29
336.572	0.21
336.782	0.25
336.992	0.26
337.202	0.23
337.412	0.19
337.622	0.31
337.832	0.29
338.042	0.29
338.252	0.27
338.462	0.26
338.672	0.27
338.882	0.23
339.092	0.25
339.302	0.3
339.511	0.22
339.721	0.21
339.931	0.2
340.141	0.29
340.351	0.26
340.561	0.3
340.77	0.25
340.98	0.24
341.19	0.27
341.4	0.24
341.609	0.21
341.819	0.26
342.029	0.23
342.238	0.24
342.448	0.22
342.658	0.27
342.867	0.33
343.077	0.3
343.286	0.3
343.496	0.25
343.706	0.24
343.915	0.2
344.125	0.22
344.334	0.31
344.544	0.18
344.753	0.23
344.963	0.24
345.172	0.24
345.381	0.2
345.591	0.24
345.8	0.23
346.01	0.29
346.219	0.29
346.428	0.11
346.638	0.21
346.847	0.21
347.056	0.32
347.266	0.25
347.475	0.27
347.684	0.23
347.893	0.25
348.103	0.28
348.312	0.29
348.521	0.25
348.73	0.2
348.94	0.27
349.149	0.22
349.358	0.19
349.567	0.25
349.776	0.2
349.985	0.21
350.194	0.24
350.403	0.25
350.612	0.22
350.821	0.26
351.03	0.26
351.239	0.19
351.448	0.24
351.657	0.23
351.866	0.3
352.075	0.24
352.284	0.28
352.493	0.17
352.702	0.23
352.911	0.23
353.12	0.25
353.329	0.26
353.538	0.26
353.746	0.23
353.955	0.24
354.164	0.24
354.373	0.28
354.582	0.27
354.79	0.26
354.999	0.29
355.208	0.22
355.416	0.2
355.625	0.22
355.834	0.22
356.042	0.23
356.251	0.25
356.46	0.19
356.668	0.28
356.877	0.28
357.085	0.28
357.294	0.22
357.503	0.28
357.711	0.22
357.92	0.33
358.128	0.22
358.337	0.23
358.545	0.26
358.754	0.25
358.962	0.31
359.17	0.25
359.379	0.23
359.587	0.25
359.796	0.24
360.004	0.27
360.212	0.23
360.421	0.3
360.629	0.24
360.837	0.24
361.046	0.22
361.254	0.3
361.462	0.22
361.67	0.23
361.879	0.28
362.087	0.3
362.295	0.26
362.503	0.21
362.711	0.18
362.92	0.23
363.128	0.27
363.336	0.2
363.544	0.19
363.752	0.23
363.96	0.22
364.168	0.24
364.376	0.22
364.584	0.27
364.792	0.3
365	0.25
365.208	0.25
365.416	0.22
365.624	0.26
365.832	0.21
366.04	0.27
366.248	0.23
366.456	0.27
366.664	0.26
366.872	0.24
367.079	0.2
367.287	0.28
367.495	0.26
367.703	0.26
367.911	0.22
368.118	0.22
368.326	0.21
368.534	0.2
368.742	0.3
368.949	0.22
369.157	0.22
369.365	0.25
369.572	0.24
369.78	0.2
369.988	0.27
370.195	0.29
370.403	0.26
370.61	0.18
370.818	0.26
371.026	0.25
371.233	0.23
371.441	0.3
371.648	0.24
371.856	0.23
372.063	0.24
372.271	0.22
372.478	0.22
372.685	0.23
372.893	0.24
373.1	0.26
373.308	0.27
373.515	0.33
373.722	0.26
373.93	0.25
374.137	0.31
374.344	0.31
374.552	0.31
374.759	0.29
374.966	0.27
375.173	0.2
375.381	0.29
375.588	0.26
375.795	0.16
376.002	0.26
376.209	0.21
376.417	0.26
376.624	0.29
376.831	0.26
377.038	0.25
377.245	0.15
377.452	0.29
377.659	0.28
377.866	0.26
378.073	0.31
378.28	0.24
378.487	0.27
378.694	0.26
378.901	0.26
379.108	0.31
379.315	0.25
379.522	0.29
379.729	0.25
379.936	0.21
380.143	0.24
380.35	0.22
380.557	0.24
380.763	0.3
380.97	0.21
381.177	0.29
381.384	0.3
381.591	0.28
381.797	0.25
382.004	0.25
382.211	0.32
382.418	0.29
382.624	0.31
382.831	0.28
383.038	0.3
383.244	0.29
383.451	0.25
383.658	0.26
383.864	0.3
384.071	0.22
384.277	0.31
384.484	0.22
384.69	0.32
384.897	0.25
385.103	0.28
385.31	0.23
385.516	0.26
385.723	0.22
385.929	0.25
386.136	0.18
386.342	0.26
386.549	0.25
386.755	0.33
386.961	0.28
387.168	0.25
387.374	0.33
387.58	0.29
387.787	0.29
387.993	0.33
388.199	0.27
388.406	0.24
388.612	0.32
388.818	0.24
389.024	0.28
389.231	0.28
389.437	0.31
389.643	0.37
389.849	0.32
390.055	0.31
390.261	0.28
390.467	0.32
390.674	0.27
390.88	0.3
391.086	0.31
391.292	0.24
391.498	0.36
391.704	0.33
391.91	0.32
392.116	0.28
392.322	0.17
392.528	0.32
392.734	0.29
392.94	0.33
393.146	0.32
393.352	0.25
393.557	0.26
393.763	0.31
393.969	0.34
394.175	0.28
394.381	0.29
394.587	0.3
394.792	0.28
394.998	0.37
395.204	0.32
395.41	0.3
395.615	0.32
395.821	0.32
396.027	0.33
396.233	0.29
396.438	0.32
396.644	0.37
396.85	0.38
397.055	0.33
397.261	0.36
397.466	0.43
397.672	0.33
397.878	0.4
398.083	0.33
398.289	0.27
398.494	0.31
398.7	0.34
398.905	0.27
399.111	0.36
399.316	0.29
399.522	0.38
399.727	0.34
399.932	0.29
400.138	0.32
400.343	0.36
400.549	0.39
400.754	0.32
400.959	0.37
401.165	0.36
401.37	0.33
401.575	0.44
401.78	0.38
401.986	0.37
402.191	0.35
402.396	0.38
402.601	0.4
402.807	0.41
403.012	0.41
403.217	0.35
403.422	0.35
403.627	0.39
403.832	0.39
404.037	0.45
404.243	0.45
404.448	0.37
404.653	0.38
404.858	0.44
405.063	0.4
405.268	0.39
405.473	0.39
405.678	0.46
405.883	0.56
406.088	0.49
406.293	0.45
406.498	0.47
406.703	0.45
406.907	0.47
407.112	0.4
407.317	0.49
407.522	0.58
407.727	0.45
407.932	0.56
408.136	0.55
408.341	0.58
408.546	0.6
408.751	0.54
408.956	0.56
409.16	0.6
409.365	0.61
409.57	0.53
409.774	0.59
409.979	0.64
410.184	0.65
410.388	0.66
410.593	0.72
410.798	0.71
411.002	0.73
411.207	0.78
411.411	0.79
411.616	0.76
411.82	0.83
412.025	0.81
412.229	0.83
412.434	0.92
412.638	0.89
412.843	0.91
413.047	0.9
413.252	0.88
413.456	1.02
413.66	1.05
413.865	1.05
414.069	1.09
414.273	1.11
414.478	1.1
414.682	1.16
414.886	1.16
415.091	1.16
415.295	1.22
415.499	1.27
415.703	1.29
415.908	1.38
416.112	1.37
416.316	1.55
416.52	1.45
416.724	1.48
416.929	1.51
417.133	1.77
417.337	1.72
417.541	1.72
417.745	1.79
417.949	1.87
418.153	1.91
418.357	1.94
418.561	2.16
418.765	2.14
418.969	2.23
419.173	2.39
419.377	2.26
419.581	2.5
419.785	2.46
419.989	2.54
420.193	2.71
420.397	2.76
420.601	2.86
420.804	3.02
421.008	2.95
421.212	3.09
421.416	3.1
421.62	3.1
421.823	3.22
422.027	3.36
422.231	3.29
422.435	3.34
422.638	3.45
422.842	3.51
423.046	3.63
423.249	3.76
423.453	3.83
423.657	3.88
423.86	4.04
424.064	4.12
424.268	4.24
424.471	4.28
424.675	4.55
424.878	4.63
425.082	4.76
425.285	4.95
425.489	4.84
425.692	5.01
425.896	5.07
426.099	5.21
426.303	5.4
426.506	5.62
426.71	5.78
426.913	5.95
427.116	6.07
427.32	6.15
427.523	6.19
427.726	6.43
427.93	6.58
428.133	6.85
428.336	7.17
428.54	7.18
428.743	7.37
428.946	7.68
429.149	7.69
429.353	7.67
429.556	7.73
429.759	7.83
429.962	7.96
430.165	8.19
430.368	7.78
430.571	7.94
430.775	7.93
430.978	7.89
431.181	7.96
431.384	8.05
431.587	8.18
431.79	8.55
431.993	8.32
432.196	8.72
432.399	9.03
432.602	9.22
432.805	9.34
433.008	9.87
433.211	9.71
433.414	10.07
433.616	10.07
433.819	9.92
434.022	10.18
434.225	10.36
434.428	10.4
434.631	10.85
434.833	10.65
435.036	10.89
435.239	11.02
435.442	11.12
435.645	11.13
435.847	11.43
436.05	11.67
436.253	11.89
436.455	11.98
436.658	11.87
436.861	12.03
437.063	12.28
437.266	12.28
437.468	12.46
437.671	12.77
437.874	12.93
438.076	12.78
438.279	13.26
438.481	13.28
438.684	14.11
438.886	13.58
439.089	13.94
439.291	13.89
439.494	14.31
439.696	14.53
439.899	15.01
440.101	15.43
440.303	15.65
440.506	16.27
440.708	15.93
440.91	16.22
441.113	16.45
441.315	16.67
441.517	16.52
441.72	16.85
441.922	16.68
442.124	16.73
442.326	16.89
442.529	17.19
442.731	17.22
442.933	17.65
443.135	17.22
443.337	17.41
443.539	17.81
443.742	17.73
443.944	18.12
444.146	17.98
444.348	17.94
444.55	17.67
444.752	18.02
444.954	18.02
445.156	18.07
445.358	18.34
445.56	18.62
445.762	18.24
445.964	18.75
446.166	18.4
446.368	18.45
446.57	18.5
446.772	18.1
446.974	17.91
447.175	18.22
447.377	17.86
447.579	18.49
447.781	18.12
447.983	17.81
448.184	17.44
448.386	17.81
448.588	17.25
448.79	17.25
448.991	17.71
449.193	17.66
449.395	16.95
449.597	16.69
449.798	16.61
450	16.08
450.202	16.05
450.403	16.1
450.605	15.9
450.806	15.69
451.008	15.54
451.21	15.33
451.411	14.84
451.613	14.01
451.814	14.32
452.016	14.33
452.217	13.66
452.419	13.52
452.62	13.27
452.821	12.99
453.023	12.99
453.224	12.56
453.426	12.08
453.627	11.33
453.828	11.62
454.03	11.58
454.231	11.7
454.432	11.47
454.634	11.01
454.835	10.87
455.036	10.86
455.238	10.27
455.439	10.03
455.64	9.96
455.841	9.68
456.042	9.68
456.244	9.35
456.445	9.33
456.646	8.86
456.847	8.83
457.048	8.75
457.249	8.7
457.45	8.35
457.651	8.02
457.852	7.75
458.054	7.47
458.255	7.54
458.456	7.43
458.657	7.41
458.858	6.94
459.058	6.93
459.259	7
459.46	6.63
459.661	6.62
459.862	6.58
460.063	6.62
460.264	6.38
460.465	6.14
460.666	6.2
460.866	5.88
461.067	5.66
461.268	5.76
461.469	5.76
461.67	5.52
461.87	5.34
462.071	5.4
462.272	5.18
462.473	5.34
462.673	5.32
462.874	5.33
463.075	5.2
463.275	5.22
463.476	5.23
463.676	5.26
463.877	5.01
464.078	5.06
464.278	5.05
464.479	4.98
464.679	4.8
464.88	4.81
465.08	4.76
465.281	4.65
465.481	4.37
465.682	4.25
465.882	4.21
466.083	4.15
466.283	4.1
466.483	4.05
466.684	3.83
466.884	3.74
467.085	3.78
467.285	3.9
467.485	3.76
467.686	3.58
467.886	3.53
468.086	3.55
468.286	3.45
468.487	3.51
468.687	3.35
468.887	3.36
469.087	3.43
469.287	3.34
469.488	3.09
469.688	3.23
469.888	3.23
470.088	3.19
470.288	3.16
470.488	3.01
470.688	2.98
470.888	2.93
471.088	2.77
471.288	2.8
471.488	2.77
471.688	2.85
471.888	2.74
472.088	2.84
472.288	2.76
472.488	2.68
472.688	2.57
472.888	2.66
473.088	2.69
473.288	2.55
473.488	2.55
473.688	2.63
473.887	2.46
474.087	2.53
474.287	2.55
474.487	2.44
474.687	2.48
474.886	2.44
475.086	2.39
475.286	2.35
475.486	2.29
475.685	2.25
475.885	2.32
476.085	2.32
476.284	2.31
476.484	2.29
476.684	2.3
476.883	2.37
477.083	2.22
477.282	2.16
477.482	2.19
477.681	2.13
477.881	2.06
478.08	2.08
478.28	2.09
478.479	2.18
478.679	2.16
478.878	2.07
479.078	2.09
479.277	2.12
479.477	2.04
479.676	2.07
479.875	2.05
480.075	2.03
480.274	2.07
480.473	2.04
480.673	2.06
480.872	2.1
481.071	2.08
481.271	2.08
481.47	2.04
481.669	2.02
481.868	1.96
482.067	2.02
482.267	1.95
482.466	1.98
482.665	1.95
482.864	2.02
483.063	1.97
483.262	2.02
483.461	1.99
483.661	2.06
483.86	2.06
484.059	2.01
484.258	2.07
484.457	2.07
484.656	2.03
484.855	2.07
485.054	1.97
485.253	2.04
485.452	1.97
485.651	2.07
485.849	2.03
486.048	2.07
486.247	2.06
486.446	2.08
486.645	2.07
486.844	2.07
487.043	2.07
487.241	2.1
487.44	2.09
487.639	2.17
487.838	2.12
488.037	2.13
488.235	2.17
488.434	2.19
488.633	2.08
488.831	2.22
489.03	2.22
489.229	2.23
489.427	2.22
489.626	2.28
489.825	2.25
490.023	2.3
490.222	2.26
490.42	2.28
490.619	2.33
490.817	2.37
491.016	2.38
491.214	2.39
491.413	2.45
491.611	2.35
491.81	2.42
492.008	2.42
492.207	2.53
492.405	2.51
492.604	2.44
492.802	2.56
493	2.58
493.199	2.64
493.397	2.65
493.595	2.67
493.794	2.62
493.992	2.73
494.19	2.74
494.388	2.78
494.587	2.72
494.785	2.76
494.983	2.72
495.181	2.79
495.379	2.91
495.578	3
495.776	2.91
495.974	2.9
496.172	2.97
496.37	3.06
496.568	3.11
496.766	3.12
496.964	3.16
497.162	3.15
497.36	3.25
497.558	3.2
497.756	3.27
497.954	3.24
498.152	3.34
498.35	3.39
498.548	3.31
498.746	3.37
498.944	3.43
499.142	3.44
499.34	3.53
499.538	3.66
499.736	3.51
499.933	3.58
500.131	3.52
500.329	3.8
500.527	3.71
500.725	3.83
500.922	3.79
501.12	3.83
501.318	3.93
501.516	3.92
501.713	3.97
501.911	3.99
502.109	3.93
502.306	4.09
502.504	3.97
502.701	4.05
502.899	4.1
503.097	4.3
503.294	4.2
503.492	4.34
503.689	4.39
503.887	4.3
504.084	4.43
504.282	4.42
504.479	4.37
504.677	4.52
504.874	4.49
505.072	4.48
505.269	4.61
505.466	4.7
505.664	4.7
505.861	4.64
506.059	4.73
506.256	4.69
506.453	4.79
506.651	4.89
506.848	4.98
507.045	4.92
507.242	4.9
507.44	4.99
507.637	5.04
507.834	5.03
508.031	5.14
508.229	5.12
508.426	5.06
508.623	5.21
508.82	5.26
509.017	5.18
509.214	5.23
509.411	5.38
509.608	5.34
509.805	5.44
510.003	5.46
510.2	5.5
510.397	5.62
510.594	5.56
510.791	5.67
510.988	5.61
511.184	5.57
511.381	5.5
511.578	5.71
511.775	5.79
511.972	5.68
512.169	5.72
512.366	5.78
512.563	5.86
512.76	5.96
512.956	5.95
513.153	5.95
513.35	5.9
513.547	5.89
513.744	6.02
513.94	5.99
514.137	6.09
514.334	6.06
514.53	6.11
514.727	6.37
514.924	6.2
515.12	6.19
515.317	6.25
515.514	6.19
515.71	6.16
515.907	6.38
516.103	6.35
516.3	6.3
516.497	6.34
516.693	6.43
516.89	6.43
517.086	6.49
517.283	6.49
517.479	6.39
517.676	6.63
517.872	6.57
518.068	6.59
518.265	6.63
518.461	6.47
518.658	6.75
518.854	6.65
519.05	6.74
519.247	6.8
519.443	6.68
519.639	6.88
519.836	6.71
520.032	6.7
520.228	6.86
520.424	6.79
520.621	6.89
520.817	6.9
521.013	6.86
521.209	7.03
521.405	7.02
521.601	7.02
521.798	6.98
521.994	6.97
522.19	6.91
522.386	7.04
522.582	7.04
522.778	7.21
522.974	7.04
523.17	7.09
523.366	7.07
523.562	7.12
523.758	7.09
523.954	6.99
524.15	7.16
524.346	7.2
524.542	7.24
524.738	7.21
524.934	7.35
525.129	7.25
525.325	7.24
525.521	7.2
525.717	7.39
525.913	7.27
526.109	7.36
526.304	7.42
526.5	7.35
526.696	7.45
526.892	7.31
527.087	7.52
527.283	7.44
527.479	7.45
527.674	7.2
527.87	7.51
528.066	7.49
528.261	7.47
528.457	7.37
528.653	7.56
528.848	7.53
529.044	7.56
529.239	7.47
529.435	7.48
529.63	7.41
529.826	7.47
530.021	7.55
530.217	7.58
530.412	7.54
530.608	7.6
530.803	7.54
530.999	7.48
531.194	7.6
531.389	7.61
531.585	7.68
531.78	7.75
531.975	7.65
532.171	7.65
532.366	7.74
532.561	7.73
532.757	7.62
532.952	7.81
533.147	7.6
533.342	7.69
533.538	7.65
533.733	7.82
533.928	7.49
534.123	7.71
534.318	7.83
534.513	7.65
534.709	7.87
534.904	7.75
535.099	7.9
535.294	7.86
535.489	7.91
535.684	7.72
535.879	7.83
536.074	7.85
536.269	7.87
536.464	7.89
536.659	7.85
536.854	7.84
537.049	7.93
537.244	7.82
537.439	7.85
537.634	7.85
537.828	8
538.023	7.89
538.218	7.89
538.413	7.8
538.608	7.86
538.803	7.88
538.997	7.92
539.192	7.89
539.387	7.84
539.582	7.95
539.776	7.84
539.971	7.96
540.166	7.93
540.36	7.84
540.555	8.05
540.75	7.97
540.944	7.96
541.139	7.97
541.334	7.91
541.528	7.96
541.723	7.99
541.917	8.11
542.112	7.88
542.306	7.79
542.501	7.91
542.695	7.94
542.89	7.87
543.084	7.9
543.279	8.01
543.473	8.03
543.668	8.07
543.862	7.82
544.056	7.93
544.251	8.07
544.445	8.03
544.64	8.09
544.834	7.79
545.028	7.65
545.222	8.03
545.417	8.13
545.611	8.13
545.805	8.01
546	7.83
546.194	8.03
546.388	8.03
546.582	7.94
546.776	8.01
546.97	7.96
547.165	7.97
547.359	8.02
547.553	7.96
547.747	7.97
547.941	8.13
548.135	8.02
548.329	8.08
548.523	8.02
548.717	7.98
548.911	7.89
549.105	7.94
549.299	8.11
549.493	8.1
549.687	7.93
549.881	8.1
550.075	8.07
550.269	7.99
550.463	8.09
550.657	8.04
550.85	8.06
551.044	8.07
551.238	8.05
551.432	8.05
551.626	8.07
551.82	8.07
552.013	8
552.207	8.14
552.401	8.12
552.594	8.03
552.788	8
552.982	8.06
553.176	8.01
553.369	8.22
553.563	8.17
553.756	8.07
553.95	8.1
554.144	8.1
554.337	8.08
554.531	7.87
554.724	8.06
554.918	8.16
555.111	8.03
555.305	8.07
555.498	7.98
555.692	8.18
555.885	8.09
556.079	7.99
556.272	8.1
556.466	8.06
556.659	8.05
556.852	8.18
557.046	8.01
557.239	7.91
557.432	8.11
557.626	8.14
557.819	8.19
558.012	8.09
558.206	8.14
558.399	8.07
558.592	7.99
558.785	7.97
558.979	8.05
559.172	8.02
559.365	8.06
559.558	7.98
559.751	7.98
559.944	8.17
560.138	8.04
560.331	8.12
560.524	8.14
560.717	8.05
560.91	8.05
561.103	8.07
561.296	7.97
561.489	8.12
561.682	8.09
561.875	8.04
562.068	8.17
562.261	8.04
562.454	8.22
562.647	8.04
562.84	8.08
563.032	8.09
563.225	7.96
563.418	8.02
563.611	8.13
563.804	8.11
563.997	8.01
564.19	7.86
564.382	8.17
564.575	8.09
564.768	7.97
564.961	8.1
565.153	8.04
565.346	7.94
565.539	8.12
565.731	8.04
565.924	8.09
566.117	8.19
566.309	8.07
566.502	8.08
566.695	7.98
566.887	8.09
567.08	7.99
567.272	8.14
567.465	7.95
567.657	8.12
567.85	7.92
568.042	8
568.235	8.09
568.427	7.94
568.62	8.01
568.812	7.95
569.005	8.11
569.197	7.96
569.389	7.99
569.582	8
569.774	7.99
569.966	8
570.159	7.92
570.351	7.94
570.543	7.97
570.736	8.03
570.928	7.84
571.12	8.01
571.312	8
571.505	7.79
571.697	7.98
571.889	7.93
572.081	7.96
572.273	7.95
572.465	7.94
572.658	8.01
572.85	7.94
573.042	8
573.234	7.87
573.426	7.9
573.618	7.9
573.81	8.02
574.002	7.86
574.194	7.94
574.386	7.95
574.578	7.85
574.77	7.88
574.962	7.92
575.154	7.75
575.346	7.88
575.538	7.81
575.729	7.84
575.921	7.94
576.113	8.02
576.305	7.82
576.497	7.97
576.689	7.75
576.88	7.72
577.072	7.88
577.264	7.84
577.456	7.82
577.647	7.77
577.839	7.92
578.031	7.74
578.223	7.75
578.414	7.68
578.606	7.81
578.798	7.84
578.989	7.79
579.181	7.79
579.372	7.74
579.564	7.81
579.755	7.71
579.947	7.65
580.139	7.69
580.33	7.62
580.522	7.78
580.713	7.78
580.905	7.69
581.096	7.77
581.287	7.65
581.479	7.68
581.67	7.73
581.862	7.6
582.053	7.6
582.244	7.59
582.436	7.72
582.627	7.57
582.818	7.61
583.01	7.61
583.201	7.66
583.392	7.53
583.583	7.55
583.775	7.52
583.966	7.49
584.157	7.63
584.348	7.75
584.54	7.55
584.731	7.58
584.922	7.53
585.113	7.41
585.304	7.53
585.495	7.47
585.686	7.56
585.877	7.59
586.068	7.63
586.259	7.52
586.45	7.46
586.641	7.49
586.832	7.68
587.023	7.45
587.214	7.4
587.405	7.5
587.596	7.35
587.787	7.25
587.978	7.4
588.169	7.37
588.36	7.34
588.551	7.39
588.742	7.38
588.932	7.47
589.123	7.22
589.314	7.43
589.505	7.3
589.696	7.33
589.886	7.35
590.077	7.28
590.268	7.27
590.458	7.19
590.649	7.1
590.84	7.17
591.03	7.25
591.221	7.27
591.412	7.14
591.602	7.3
591.793	7.18
591.984	7.2
592.174	7.2
592.365	7.29
592.555	7.1
592.746	7.1
592.936	7.12
593.127	7.19
593.317	7.17
593.508	7.18
593.698	7.06
593.889	7
594.079	7.01
594.269	6.96
594.46	7.06
594.65	7.05
594.84	7.01
595.031	6.96
595.221	6.92
595.411	6.94
595.602	6.97
595.792	6.91
595.982	6.84
596.172	6.95
596.363	6.86
596.553	6.87
596.743	6.88
596.933	6.86
597.123	6.81
597.314	6.74
597.504	6.76
597.694	6.82
597.884	6.68
598.074	6.84
598.264	6.83
598.454	6.79
598.644	6.7
598.834	6.74
599.024	6.73
599.214	6.68
599.404	6.68
599.594	6.7
599.784	6.61
599.974	6.68
600.164	6.64
600.354	6.59
600.544	6.56
600.734	6.55
600.924	6.56
601.114	6.51
601.303	6.56
601.493	6.52
601.683	6.48
601.873	6.53
602.063	6.47
602.252	6.46
602.442	6.35
602.632	6.38
602.821	6.34
603.011	6.43
603.201	6.47
603.39	6.44
603.58	6.24
603.77	6.35
603.959	6.35
604.149	6.36
604.339	6.37
604.528	6.42
604.718	6.27
604.907	6.3
605.097	6.19
605.286	6.16
605.476	6.16
605.665	6.3
605.855	6.15
606.044	6.21
606.234	6.19
606.423	6.18
606.612	6.17
606.802	6.05
606.991	6.11
607.181	6.22
607.37	6.14
607.559	5.86
607.749	6.08
607.938	5.99
608.127	6.07
608.316	6.03
608.506	5.91
608.695	6.05
608.884	5.99
609.073	5.98
609.263	6.04
609.452	5.93
609.641	5.89
609.83	5.85
610.019	5.92
610.208	5.83
610.397	5.84
610.586	5.85
610.775	5.77
610.965	5.8
611.154	5.71
611.343	5.78
611.532	5.72
611.721	5.81
611.91	5.68
612.099	5.65
612.287	5.58
612.476	5.56
612.665	5.72
612.854	5.55
613.043	5.58
613.232	5.6
613.421	5.51
613.61	5.6
613.798	5.53
613.987	5.54
614.176	5.43
614.365	5.48
614.554	5.5
614.742	5.45
614.931	5.32
615.12	5.5
615.309	5.41
615.497	5.33
615.686	5.23
615.875	5.35
616.063	5.31
616.252	5.31
616.44	5.34
616.629	5.24
616.818	5.2
617.006	5.24
617.195	5.17
617.383	5.18
617.572	5.13
617.76	5.19
617.949	5.19
618.137	5.2
618.326	5.19
618.514	4.96
618.703	5.04
618.891	5.14
619.079	5.02
619.268	5.06
619.456	4.98
619.644	4.99
619.833	4.97
620.021	5.02
620.209	4.93
620.398	5.01
620.586	4.88
620.774	4.97
620.962	4.97
621.151	4.95
621.339	4.91
621.527	4.83
621.715	4.84
621.903	4.81
622.092	4.75
622.28	4.88
622.468	4.66
622.656	4.75
622.844	4.74
623.032	4.83
623.22	4.64
623.408	4.75
623.596	4.68
623.784	4.8
623.972	4.61
624.16	4.7
624.348	4.61
624.536	4.71
624.724	4.58
624.912	4.59
625.1	4.6
625.288	4.56
625.476	4.46
625.664	4.52
625.851	4.51
626.039	4.59
626.227	4.46
626.415	4.45
626.603	4.43
626.79	4.42
626.978	4.45
627.166	4.53
627.354	4.39
627.541	4.32
627.729	4.29
627.917	4.4
628.104	4.39
628.292	4.29
628.48	4.38
628.667	4.24
628.855	4.37
629.042	4.32
629.23	4.27
629.418	4.26
629.605	4.24
629.793	4.14
629.98	4.24
630.168	4.11
630.355	4.21
630.543	4.13
630.73	4.08
630.917	4.08
631.105	4.17
631.292	4.06
631.48	4.11
631.667	4.16
631.854	4.02
632.042	4.05
632.229	3.99
632.416	4.06
632.604	4.03
632.791	3.87
632.978	4.01
633.165	3.97
633.353	3.96
633.54	3.9
633.727	3.87
633.914	3.79
634.101	3.78
634.289	3.86
634.476	3.8
634.663	3.77
634.85	3.8
635.037	3.75
635.224	3.68
635.411	3.74
635.598	3.73
635.785	3.7
635.972	3.69
636.159	3.69
636.346	3.69
636.533	3.63
636.72	3.65
636.907	3.64
637.094	3.61
637.281	3.54
637.468	3.63
637.655	3.63
637.842	3.59
638.029	3.51
638.215	3.56
638.402	3.54
638.589	3.44
638.776	3.53
638.963	3.43
639.149	3.52
639.336	3.48
639.523	3.47
639.709	3.4
639.896	3.43
640.083	3.39
640.27	3.45
640.456	3.41
640.643	3.35
640.829	3.26
641.016	3.31
641.203	3.3
641.389	3.37
641.576	3.25
641.762	3.29
641.949	3.27
642.135	3.28
642.322	3.22
642.508	3.2
642.695	3.24
642.881	3.18
643.068	3.14
643.254	3.22
643.441	3.2
643.627	3.15
643.813	3.09
644	3.17
644.186	3.04
644.372	3.07
644.559	3.12
644.745	3.02
644.931	3.06
645.118	3.1
645.304	3.01
645.49	3.06
645.676	2.98
645.862	3
646.049	3.01
646.235	3
646.421	3.08
646.607	3
646.793	2.99
646.979	2.88
647.165	2.97
647.352	2.97
647.538	2.93
647.724	2.91
647.91	2.89
648.096	2.89
648.282	2.88
648.468	2.86
648.654	2.87
648.84	2.82
649.026	2.78
649.212	2.78
649.397	2.75
649.583	2.78
649.769	2.8
649.955	2.72
650.141	2.78
650.327	2.71
650.513	2.72
650.698	2.77
650.884	2.67
651.07	2.77
651.256	2.65
651.442	2.72
651.627	2.62
651.813	2.71
651.999	2.62
652.184	2.65
652.37	2.64
652.556	2.61
652.741	2.62
652.927	2.55
653.113	2.63
653.298	2.58
653.484	2.53
653.669	2.52
653.855	2.56
654.04	2.58
654.226	2.5
654.412	2.53
654.597	2.43
654.782	2.51
654.968	2.5
655.153	2.48
655.339	2.46
655.524	2.44
655.71	2.42
655.895	2.44
656.08	2.43
656.266	2.47
656.451	2.41
656.636	2.43
656.822	2.41
657.007	2.44
657.192	2.41
657.378	2.39
657.563	2.37
657.748	2.38
657.933	2.37
658.118	2.26
658.304	2.33
658.489	2.36
658.674	2.34
658.859	2.27
659.044	2.28
659.229	2.27
659.414	2.28
659.599	2.31
659.785	2.25
659.97	2.28
660.155	2.29
660.34	2.29
660.525	2.2
660.71	2.24
660.895	2.23
661.08	2.2
661.264	2.17
661.449	2.17
661.634	2.19
661.819	2.17
662.004	2.2
662.189	2.07
662.374	2.1
662.559	2.08
662.743	2.04
662.928	2.09
663.113	2
663.298	2.05
663.483	2
663.667	2.05
663.852	1.98
664.037	2.05
664.221	1.99
664.406	2.01
664.591	2
664.775	2
664.96	1.89
665.145	1.94
665.329	1.93
665.514	1.91
665.698	1.92
665.883	1.89
666.068	1.87
666.252	1.9
666.437	1.87
666.621	1.86
666.806	1.84
666.99	1.84
667.174	1.8
667.359	1.82
667.543	1.78
667.728	1.79
667.912	1.75
668.096	1.74
668.281	1.71
668.465	1.82
668.649	1.79
668.834	1.69
669.018	1.74
669.202	1.76
669.387	1.67
669.571	1.76
669.755	1.69
669.939	1.72
670.124	1.69
670.308	1.72
670.492	1.65
670.676	1.67
670.86	1.68
671.044	1.61
671.228	1.65
671.413	1.61
671.597	1.6
671.781	1.58
671.965	1.61
672.149	1.66
672.333	1.66
672.517	1.57
672.701	1.56
672.885	1.59
673.069	1.47
673.253	1.55
673.437	1.58
673.621	1.56
673.804	1.53
673.988	1.49
674.172	1.53
674.356	1.5
674.54	1.5
674.724	1.59
674.908	1.44
675.091	1.55
675.275	1.47
675.459	1.55
675.643	1.52
675.826	1.46
676.01	1.51
676.194	1.45
676.377	1.42
676.561	1.43
676.745	1.42
676.928	1.42
677.112	1.48
677.296	1.39
677.479	1.45
677.663	1.31
677.846	1.43
678.03	1.39
678.213	1.33
678.397	1.39
678.58	1.32
678.764	1.42
678.947	1.3
679.131	1.27
679.314	1.37
679.498	1.35
679.681	1.39
679.865	1.36
680.048	1.28
680.231	1.29
680.415	1.22
680.598	1.31
680.781	1.29
680.965	1.29
681.148	1.34
681.331	1.24
681.514	1.3
681.698	1.23
681.881	1.28
682.064	1.2
682.247	1.25
682.43	1.22
682.614	1.29
682.797	1.27
682.98	1.22
683.163	1.21
683.346	1.27
683.529	1.17
683.712	1.16
683.895	1.26
684.078	1.13
684.261	1.2
684.444	1.22
684.627	1.18
684.81	1.17
684.993	1.18
685.176	1.19
685.359	1.2
685.542	1.13
685.725	1.2
685.908	1.13
686.091	1.13
686.274	1.16
686.457	1.18
686.639	1.11
686.822	1.12
687.005	1.14
687.188	1.1
687.371	1.18
687.553	1.13
687.736	1.12
687.919	1.09
688.102	1.12
688.284	1.17
688.467	1.12
688.65	1.1
688.832	1.01
689.015	1.03
689.197	1
689.38	1.15
689.563	1.08
689.745	1.04
689.928	1.01
690.11	1.04
690.293	1.13
690.475	0.96
690.658	1.05
690.84	1.01
691.023	0.99
691.205	0.96
691.388	1.05
691.57	1.01
691.752	1.04
691.935	0.93
692.117	0.94
692.3	1.02
692.482	0.95
692.664	0.94
692.847	0.94
693.029	0.92
693.211	1.02
693.393	0.97
693.576	0.92
693.758	0.87
693.94	1.02
694.122	0.94
694.304	0.88
694.487	0.95
694.669	1
694.851	0.89
695.033	0.92
695.215	0.9
695.397	0.87
695.579	0.99
695.761	0.84
695.943	0.77
696.125	0.93
696.308	0.88
696.49	0.85
696.671	0.92
696.853	0.9
697.035	0.98
697.217	0.89
697.399	0.93
697.581	0.82
697.763	0.89
697.945	0.81
698.127	0.86
698.309	0.86
698.491	0.9
698.672	0.89
698.854	0.9
699.036	0.91
699.218	0.83
699.399	0.89
699.581	0.82
699.763	0.8
699.945	0.76
700.126	0.82
700.308	0.84
700.49	0.78
700.671	0.77
700.853	0.82
701.035	0.78
701.216	0.8
701.398	0.75
701.579	0.79
701.761	0.86
701.943	0.71
702.124	0.76
702.306	0.76
702.487	0.86
702.669	0.82
702.85	0.74
703.031	0.78
703.213	0.87
703.394	0.76
703.576	0.78
703.757	0.87
703.938	0.8
704.12	0.74
704.301	0.81
704.483	0.81
704.664	0.83
704.845	0.86
705.026	0.8
705.208	0.75
705.389	0.75
705.57	0.77
705.751	0.74
705.933	0.76
706.114	0.77
706.295	0.75
706.476	0.68
706.657	0.84
706.838	0.71
707.02	0.74
707.201	0.74
707.382	0.7
707.563	0.74
707.744	0.66
707.925	0.63
708.106	0.67
708.287	0.68
708.468	0.8
708.649	0.7
708.83	0.73
709.011	0.66
709.192	0.72
709.373	0.65
709.554	0.68
709.734	0.77
709.915	0.7
710.096	0.68
710.277	0.65
710.458	0.69
710.639	0.65
710.819	0.62
711	0.67
711.181	0.69
711.362	0.68
711.542	0.68
711.723	0.65
711.904	0.77
712.085	0.7
712.265	0.68
712.446	0.65
712.627	0.69
712.807	0.6
712.988	0.63
713.168	0.59
713.349	0.58
713.53	0.53
713.71	0.61
713.891	0.59
714.071	0.65
714.252	0.65
714.432	0.61
714.613	0.55
714.793	0.66
714.974	0.76
715.154	0.69
715.334	0.7
715.515	0.67
715.695	0.59
715.876	0.63
716.056	0.63
716.236	0.58
716.417	0.55
716.597	0.57
716.777	0.73
716.957	0.62
717.138	0.63
717.318	0.63
717.498	0.55
717.678	0.54
717.859	0.65
718.039	0.5
718.219	0.69
718.399	0.61
718.579	0.55
718.759	0.57
718.939	0.65
719.12	0.63
719.3	0.68
719.48	0.45
719.66	0.51
719.84	0.61
720.02	0.6
720.2	0.56
720.38	0.48
720.56	0.68
720.74	0.62
720.92	0.62
721.1	0.73
721.279	0.61
721.459	0.6
721.639	0.46
721.819	0.64
721.999	0.59
722.179	0.53
722.359	0.49
722.538	0.63
722.718	0.6
722.898	0.54
723.078	0.55
723.257	0.54
723.437	0.55
723.617	0.58
723.797	0.55
723.976	0.59
724.156	0.61
724.336	0.63
724.515	0.68
724.695	0.54
724.874	0.52
725.054	0.61
725.234	0.55
725.413	0.64
725.593	0.54
725.772	0.6
725.952	0.57
726.131	0.64
726.311	0.65
726.49	0.52
726.67	0.52
726.849	0.51
727.028	0.56
727.208	0.51
727.387	0.67
727.567	0.52
727.746	0.54
727.925	0.53
728.105	0.5
728.284	0.48
728.463	0.59
728.643	0.54
728.822	0.54
729.001	0.67
729.18	0.65
729.359	0.61
729.539	0.54
729.718	0.58
729.897	0.58
730.076	0.59
730.255	0.52
730.434	0.64
730.614	0.6
730.793	0.62
730.972	0.57
731.151	0.62
731.33	0.6
731.509	0.52
731.688	0.56
731.867	0.55
732.046	0.53
732.225	0.71
732.404	0.53
732.583	0.5
732.762	0.67
732.941	0.67
733.12	0.65
733.298	0.59
733.477	0.55
733.656	0.46
733.835	0.59
734.014	0.58
734.193	0.53
734.371	0.62
734.55	0.6
734.729	0.53
734.908	0.62
735.086	0.64
735.265	0.61
735.444	0.54
735.623	0.54
735.801	0.45
735.98	0.64
736.159	0.56
736.337	0.64
736.516	0.58
736.694	0.54
736.873	0.57
737.052	0.62
737.23	0.62
737.409	0.45
737.587	0.68
737.766	0.49
737.944	0.52
738.123	0.74
738.301	0.65
738.479	0.6
738.658	0.66
738.836	0.55
739.015	0.68
739.193	0.58
739.371	0.56
739.55	0.49
739.728	0.44
739.906	0.7
740.085	0.56
740.263	0.72
740.441	0.54
740.62	0.72
740.798	0.6
740.976	0.43
741.154	0.52
741.332	0.71
741.511	0.51
741.689	0.58
741.867	0.54
742.045	0.33
742.223	0.58
742.401	0.5
742.579	0.54
742.757	0.55
742.935	0.39
743.114	0.48
743.292	0.5
743.47	0.48
743.648	0.48
743.826	0.44
744.004	0.51
744.181	0.49
744.359	0.43
744.537	0.52
744.715	0.45
744.893	0.46
745.071	0.38
745.249	0.41
745.427	0.51
745.605	0.46
745.782	0.52
745.96	0.5
746.138	0.51
746.316	0.46
746.493	0.51
746.671	0.54
746.849	0.46
747.027	0.58
747.204	0.36
747.382	0.51
747.56	0.39
747.737	0.53
747.915	0.34
748.093	0.48
748.27	0.39
748.448	0.26
748.625	0.41
748.803	0.32
748.98	0.33
749.158	0.36
749.335	0.52
749.513	0.46
749.69	0.37
749.868	0.47
750.045	0.43
750.223	0.44
750.4	0.19
750.578	0.46
750.755	0.44
750.932	0.33
751.11	0.49
751.287	0.27
751.464	0.42
751.642	0.36
751.819	0.53
751.996	0.4
752.173	0.36
752.351	0.32
752.528	0.59
752.705	0.34
752.882	0.32
753.06	0.45
753.237	0.37
753.414	0.59
753.591	0.55
753.768	0.45
753.945	0.39
754.122	0.32
754.299	0.35
754.476	0.29
754.654	0.41
754.831	0.32
755.008	0.36
755.185	0.45
755.362	0.3
755.539	0.36
755.716	0.5
755.892	0.31
756.069	0.42
756.246	0.27
756.423	0.37
756.6	0.5
756.777	0.47
756.954	0.47
757.131	0.4
757.307	0.36
757.484	0.35
757.661	0.35
757.838	0.45
758.015	0.26
758.191	0.41
758.368	0.39
758.545	0.44
758.721	0.49
758.898	0.31
759.075	0.43
759.251	0.54
759.428	0.37
759.605	0.32
759.781	0.37
759.958	0.3
760.134	0.47
760.311	0.28
760.488	0.44
760.664	0.43
760.841	0.42
761.017	0.38
761.194	0.45
761.37	0.34
761.547	0.48
761.723	0.46
761.899	0.49
762.076	0.25
762.252	0.3
762.429	0.3
762.605	0.45
762.781	0.39
762.958	0.45
763.134	0.42
763.31	0.27
763.486	0.37
763.663	0.28
763.839	0.52
764.015	0.15
764.191	0.23
764.368	0.45
764.544	0.33
764.72	0.47
764.896	0.52
765.072	0.39
765.248	0.37
765.425	0.5
765.601	0.39
765.777	0.41
765.953	0.22
766.129	0.35
766.305	0.26
766.481	0.46
766.657	0.49
766.833	0.54
767.009	0.32
767.185	0.33
767.361	0.39
767.537	0.28
767.713	0.34
767.889	0.35
768.065	0.39
768.24	0.5
768.416	0.38
768.592	0.24
768.768	0.38
768.944	0.28
769.12	0.23
769.295	0.2
769.471	0.42
769.647	0.31
769.823	0.53
769.998	0.35
770.174	0.36
770.35	0.6
770.525	0.44
770.701	0.39
770.877	0.3
771.052	0.35
771.228	0.52
771.403	0.38
771.579	0.65
771.755	0.45
771.93	0.24
772.106	0.21
772.281	0.23
772.457	0.46
772.632	0.44
772.808	0.21
772.983	0.32
773.159	0.24
773.334	0.41
773.509	0.26
773.685	0.37
773.86	0.45
774.036	0.51
774.211	0.26
774.386	0.31
774.562	0.31
774.737	0.43
774.912	0.23
775.087	0.36
775.263	0.37
775.438	0.4
775.613	0.29
775.788	0.49
775.964	0.5
776.139	0.54
776.314	0.3
776.489	0.47
776.664	0.52
776.839	0.4
777.014	0.34
777.19	0.52
777.365	0.43
777.54	0.57
777.715	0.26
777.89	0.26
778.065	0.26
778.24	0.37
778.415	0.51
778.59	0.14
778.765	0.31
778.94	0.39
779.115	0.41
779.289	0.34
779.464	0.38
779.639	0.42
779.814	0.12
779.989	0.23
780.164	0.61
780.339	0.34
780.513	0.3
780.688	0.37
780.863	0.23
781.038	0.54
781.212	0.17
781.387	0.47
781.562	0.58
781.737	0.42
781.911	0.63
782.086	0.4
782.261	0.43
782.435	0.51
782.61	0.36
782.784	0.36
782.959	0.57
783.134	0.31
783.308	0.23
783.483	0.34
783.657	0.76
783.832	0.79
784.006	0.09
784.181	0.58
784.355	0.49
784.53	0.37
784.704	0.42
784.878	0.75
785.053	0.39
785.227	0.41
785.402	0.81
785.576	0.27
785.75	0.4
785.925	0.15
786.099	0.37
786.273	0.42
786.448	0.48
786.622	0.5
786.796	0.43
786.97	0.41
787.145	0.66
787.319	0.18
787.493	0.4
787.667	0.13
787.841	0.61
788.015	0.45
788.19	0.33
788.364	0.54
788.538	0.43
788.712	0.59
788.886	0.47
789.06	0.64
789.234	0.51
789.408	0.39
789.582	0.38
789.756	0.55
789.93	0.26
790.104	0.43
790.278	0.18
790.452	0.35
790.626	0.58
790.8	0.37
790.973	0.52
791.147	0.64
791.321	0.4
791.495	0.45
791.669	0.52
791.843	0.51
792.016	0.75
792.19	0.66
792.364	0.31
792.538	0.84
792.711	0.74
792.885	0.32
793.059	0.12
793.233	0.26
793.406	0.48
793.58	0.51
793.754	0.54
793.927	0.43
794.101	0.71
794.274	0.59
794.448	0.75
794.622	0.33
794.795	0.57
794.969	0.12
795.142	0.75
795.316	0.42
795.489	0.36
795.663	0.87
795.836	0.32
796.009	0.42
796.183	0.52
796.356	0.34
796.53	0.52
796.703	0.39
796.876	0.61
797.05	0.38
797.223	0.34
797.396	0.75
797.57	0.44
797.743	0.58
797.916	0.61
798.09	0.79
798.263	0.65
798.436	0.45
798.609	0.62
798.782	0.3
798.956	0.58
799.129	0.51
799.302	0.51
799.475	0.3
799.648	0.24
799.821	0.38
799.994	0.55
800.167	0.42
800.34	0.6
800.514	0.69
800.687	0.58
800.86	0.41
801.033	0.18
801.206	0.29
801.379	0.54
801.551	0.52
801.724	0.63
801.897	0.41
802.07	0.54
802.243	0.06
802.416	0.72
802.589	0.3
802.762	0.65
802.935	0.76
803.107	0.63
803.28	0.96
803.453	1.05
803.626	0.35
803.798	0.4
803.971	0.28
804.144	0.59
804.317	0.44
804.489	0.45
804.662	0.02
804.835	0.74
805.007	0.41
805.18	0.77
805.353	0.65
805.525	0.15
805.698	0.32
805.87	0.33
806.043	0.68
806.215	0.37
806.388	0.6
806.56	0.49
806.733	0.53
806.905	0.76
807.078	0.65
807.25	0.24
807.423	0.71
807.595	0.25
807.768	0.87
807.94	0.86
808.112	0.84
808.285	0.65
808.457	0.53
808.629	0.77
808.802	1.03
808.974	0.76
809.146	0.87
809.318	0.48
809.491	0.67
809.663	0.67
809.835	0.59
810.007	0.65
810.18	0.77
810.352	0.37
810.524	0.6
810.696	0.68
810.868	0.95
811.04	0.41
811.212	0.69
811.384	0.56
811.556	0.57
811.728	1.1
811.901	1
812.073	0.53
812.245	0.8
812.417	0.54
812.589	0.28
812.76	0.38
812.932	0.64
813.104	0.88
813.276	0.55
813.448	0.7
813.62	0.67
813.792	0.69
813.964	0.65
814.136	0.37
814.307	0.5
814.479	0.75
814.651	0.89
814.823	1.29
814.995	0.37
815.166	0.75
815.338	0.44
815.51	0.44
815.681	1.53
815.853	0.62
816.025	0.51
816.196	0.5
816.368	0.32
816.54	0.18
816.711	0.37
816.883	0.6
817.054	1.25
817.226	0.18
817.398	0.92
817.569	1.05
817.741	1.08
817.912	0.72
818.084	0.62
818.255	0.85
818.426	1.07
818.598	0.59
818.769	1.01
818.941	0.38
819.112	1.15
819.283	0.8
819.455	0.38
819.626	0.97
819.798	0.75
819.969	1.12
820.14	0.44
820.311	0.83
820.483	1.09
820.654	0.91
820.825	1
820.996	0.72
821.168	0.55
821.339	0.6
821.51	0.14
821.681	0.43
821.852	0.59
822.023	0.23
822.195	0.4
822.366	0.88
822.537	0.96
822.708	1.1
822.879	0.37
823.05	1.29
823.221	0.35
823.392	0.92
823.563	0.58
823.734	0.66
823.905	0.83
824.076	0.94
824.247	0.74
824.418	-0.19
824.589	1.2
824.759	1.01
824.93	1.24
825.101	0.62
825.272	0.91
825.443	1.34
825.614	0.8
825.784	0.05
825.955	2.12
826.126	1.64
826.297	1.61
826.467	1.57
826.638	1.35
826.809	1.14
826.98	1.16
827.15	0.58
827.321	0.24
827.492	1.75
827.662	0.96
827.833	0.67
828.003	0.37
828.174	0.03
828.345	0.35
828.515	1.2
828.686	1
828.856	0.86
829.027	0.76
829.197	1.02
829.368	0.84
829.538	0.52
829.709	0.45
829.879	0.74
830.049	0.82
830.22	-0.08
830.39	1.41
830.56	0.67
830.731	1.38
830.901	0.31
831.072	1.09
831.242	0.49
831.412	-0.09
831.582	0.82
831.753	0.59
831.923	1.7
832.093	0.56
832.263	0.55
832.434	0.82
832.604	0.79
832.774	0.26
832.944	1.07
833.114	0.83
833.284	0.48
833.454	0.5
833.624	0.2
833.795	1.02
833.965	1.27
834.135	1.31
834.305	0.91
834.475	0.69
834.645	0.58
834.815	0.49
834.985	0.96
835.155	0.66
835.325	0.86
835.494	0.94
835.664	0.59
835.834	0.5
836.004	1.16
836.174	0.8
836.344	0.77
836.514	0.51
836.684	1
836.853	1.64
837.023	1.22
837.193	0.84
837.363	1.12
837.532	0.88
837.702	0.81
837.872	0.31
838.041	1.77
838.211	1.51
838.381	1.1
838.55	0.8
838.72	2.23
838.89	1.61
839.059	1.4
839.229	0.92
839.398	1.54
839.568	0.94
839.738	0.78
839.907	1.67
840.077	1.34
840.246	0.12
840.416	0.32
840.585	0.7
840.755	1.38
840.924	2.05
841.093	0.49
841.263	0.96
841.432	0.92
841.602	0.55
841.771	0.37
841.94	1.4
842.11	2.66
842.279	2.02
842.448	0.29
842.617	0.76
842.787	1.87
842.956	0.72
843.125	2.63
843.294	1.4
843.464	1.34
843.633	1.26
843.802	1.04
843.971	1.14
844.14	1.77
844.309	0.73
844.479	0.36
844.648	1.03
844.817	0.44
844.986	1.46
845.155	0.48
845.324	1.25
845.493	1.69
845.662	1.31
845.831	1.76
846	1.5
846.169	0.82
846.338	1.61
846.507	1.08
846.676	1.13
846.844	0.51
847.013	1.37
847.182	1.23
847.351	1.02
847.52	0.6
847.689	1.22
847.858	1.54
848.026	0.6
848.195	1.06
848.364	0.68
848.533	0.7
848.701	0.87
848.87	1.36
849.039	1.36
849.207	2.43
849.376	2.25
849.545	1.93
849.713	1.31
849.882	1.24
850.051	1.85
850.219	1.44
850.388	1.74
850.556	1.06
850.725	1.45
850.893	1.45
851.062	1.16
851.23	2.19
851.399	-0.29
851.567	0.05
851.736	0.98
851.904	-0.18
852.073	1.47
852.241	1.62
852.41	1.19
852.578	0.7
852.746	0.47
852.915	0.65
853.083	1.58
853.251	0.75
853.42	1.68
853.588	2.34
853.756	1.86
853.924	1.51
854.093	1.34
854.261	0.93
854.429	0.51
854.597	1.75
854.765	0.04
854.934	1.89
855.102	2.4
855.27	0.98
855.438	2.61
855.606	2.33
855.774	2.41
855.942	0.55
856.11	1.17
856.278	0.37
856.446	2.55
856.614	1.27
856.782	2.03
856.95	1.23
857.118	2.57
857.286	1.19
857.454	0.41
857.622	0.77
857.79	0.67
857.958	0.54
858.126	1.6
858.294	0.94
858.462	3.19
858.629	2.07
858.797	1.03
858.965	1.15
859.133	1.15
859.301	1.46
859.468	0.88
859.636	-0.05
859.804	1.59
859.971	2.43
860.139	0.98
860.307	2.48
860.474	2.66
860.642	0.71
860.81	0.4
860.977	0.69
861.145	1.16
861.313	0.95
861.48	1.53
861.648	2.5
861.815	1.04
861.983	0.15
862.15	1.36
862.318	0.69
862.485	2.03
862.653	1.49
862.82	0.83
862.988	2.47
863.155	1.82
863.322	1.76
863.49	1.5
863.657	0.62
863.824	2.3
863.992	2.15
864.159	2.03
864.326	2.82
864.494	1.17
864.661	4.39
864.828	2.31
864.996	1.3
865.163	5.07
865.33	0.89
865.497	1.27
865.664	1
865.832	-0.03
865.999	1.84
866.166	1
866.333	1.66
866.5	1.67
866.667	2.46
866.834	1.33
867.001	2.31
867.168	1.57
867.335	1.94
867.502	0.91
867.669	2.52
867.836	2.87
868.003	2.14
868.17	3.42
868.337	-0.57
868.504	3.09
868.671	1.37
868.838	1.75
869.005	1
869.172	2.94
869.339	0.36
869.505	2.48
869.672	-0.07
869.839	2.91
870.006	4.14
870.173	-0.37
870.339	2.19
870.506	3.78
870.673	0.66
870.84	3.32
871.006	2.17
871.173	0.85
871.34	1.16
871.506	2.24
871.673	0.97
871.839	0.79
872.006	2.53
872.173	2.86
872.339	1.12
872.506	3.11
872.672	3.15
872.839	1.31
873.005	0.48
873.172	5.2
873.338	2.46
873.505	4.03
873.671	2.52
873.838	2.54
874.004	0.56
874.171	1.87
874.337	1.91
874.503	2.18
874.67	2.2
874.836	2.12
875.002	2.29
875.169	2.81
875.335	2.8
875.501	-0.37
875.668	2.46
875.834	3.38
876	1.59
876.166	3.36
876.332	2.85
876.499	2.01
876.665	1.88
876.831	2.2
876.997	3.36
877.163	4.13
877.329	1.26
877.495	1.55
877.662	3.89
877.828	1.7
877.994	1.23
878.16	-0.39
878.326	1.08
878.492	1.1
878.658	1.68
878.824	1.57
878.99	4.07
879.156	3.22
879.322	4.16
879.487	2.07
879.653	3.28
879.819	2.32
879.985	1.87
880.151	2.62
880.317	1.28
880.483	0.83
880.648	3.3
880.814	-0.12
880.98	2.64
881.146	0.44
881.312	2
881.477	0.88
881.643	1.74
881.809	3.67
881.974	4.19
882.14	0.48
882.306	4.45
882.471	3.93
882.637	1.99
882.803	3.57
882.968	2.07
883.134	4.24
883.299	1.19
883.465	2.55
883.63	3.07
883.796	3.16
883.961	3.63
884.127	1.46
884.292	-0.62
884.458	0.88
884.623	0.88
