Data from Apollo_Calib_20240827__AbsoluteIrradiance__745__11-34-03-064.txt Node

Date: Wed Aug 28 11:34:03 BST 2024
User: biology
Spectrometer: FLMT08252
Trigger mode: 0
Integration Time (sec): 5.000000E-1
Scans to average: 5
Electric dark correction enabled: true
Nonlinearity correction enabled: false
Boxcar width: 0
XAxis mode: Wavelengths
Number of Pixels in Spectrum: 3648
>>>>>Begin Spectral Data<<<<<
179.588	-0
179.809	-0
180.03	-0
180.251	-0
180.473	-0
180.694	0
180.915	0
181.136	-0
181.357	0
181.578	-0
181.799	-0
182.02	-0
182.241	0
182.462	-0
182.683	0
182.904	-0
183.125	-0
183.346	0
183.567	0
183.788	0
184.009	0
184.23	0
184.451	0
184.672	0
184.892	0
185.113	0
185.334	0
185.555	0
185.776	0
185.996	0
186.217	0
186.438	0
186.659	0
186.879	0
187.1	0
187.321	0
187.541	0
187.762	0
187.983	0
188.203	0
188.424	0
188.644	0
188.865	0
189.086	0
189.306	0
189.527	0
189.747	0
189.968	0
190.188	0
190.409	0
190.629	0
190.849	0
191.07	0
191.29	0
191.511	0
191.731	0
191.951	0
192.172	0
192.392	0
192.612	0
192.833	0
193.053	0
193.273	0
193.493	0
193.714	0
193.934	0
194.154	0
194.374	0
194.594	0
194.815	0
195.035	0
195.255	0
195.475	0
195.695	0
195.915	0
196.135	0
196.355	0
196.575	0
196.795	0
197.015	0
197.235	0
197.455	0
197.675	0
197.895	0
198.115	0
198.335	0
198.555	0
198.775	0
198.995	0
199.214	0
199.434	0
199.654	0
199.874	0
200.094	2.21
200.313	1.11
200.533	0.67
200.753	0.16
200.973	2.41
201.192	2.38
201.412	0.17
201.632	1.11
201.851	2.38
202.071	1.02
202.291	0.31
202.51	0.63
202.73	1.49
202.95	1.19
203.169	0.57
203.389	0.85
203.608	1.21
203.828	0.86
204.047	0.81
204.267	1.22
204.486	1.21
204.706	1.42
204.925	0.89
205.145	0.56
205.364	1.52
205.583	1.58
205.803	1.18
206.022	0.49
206.242	0.96
206.461	1.27
206.68	0.51
206.9	1.14
207.119	1.59
207.338	1.43
207.557	0.65
207.777	0.5
207.996	0.74
208.215	1.47
208.434	0.37
208.654	0.41
208.873	1.07
209.092	1.02
209.311	0.7
209.53	0.59
209.749	0.71
209.968	0.59
210.187	0.73
210.407	0.31
210.626	0.62
210.845	1.04
211.064	0.71
211.283	0.3
211.502	1.08
211.721	0.54
211.94	0.59
212.159	0.85
212.377	0.75
212.596	1.07
212.815	0.69
213.034	0.7
213.253	0.88
213.472	0.74
213.691	0.47
213.91	0.23
214.128	0.28
214.347	0.98
214.566	0.18
214.785	0.34
215.003	0.74
215.222	0.6
215.441	0.43
215.66	0.19
215.878	0.49
216.097	0.84
216.316	0.13
216.534	0.51
216.753	0.7
216.972	0.45
217.19	0.45
217.409	0.24
217.627	0.35
217.846	0.32
218.064	0.5
218.283	0.32
218.501	0.96
218.72	0.72
218.938	0.31
219.157	0.3
219.375	0.77
219.594	0.53
219.812	0.09
220.031	0.23
220.249	0.96
220.467	0.86
220.686	0.37
220.904	0.3
221.122	0.27
221.341	0.86
221.559	0.49
221.777	0.19
221.995	0.53
222.214	0.56
222.432	0.39
222.65	0.61
222.868	0.53
223.086	0.46
223.305	0.69
223.523	0.38
223.741	0.8
223.959	0.42
224.177	0.12
224.395	0.34
224.613	0.52
224.831	0.7
225.049	0.18
225.267	0.29
225.485	0.57
225.703	0.46
225.921	0.26
226.139	0.3
226.357	0.56
226.575	0.39
226.793	0.32
227.011	1.02
227.229	0.42
227.447	0.57
227.665	0.3
227.883	0.16
228.1	0.46
228.318	0.45
228.536	0.2
228.754	0.24
228.972	0.41
229.189	0.51
229.407	0.27
229.625	0.32
229.843	0.53
230.06	0.53
230.278	0.26
230.496	0.46
230.713	0.35
230.931	0.53
231.149	0.33
231.366	0.07
231.584	0.38
231.801	0.76
232.019	0.2
232.236	0.21
232.454	0.14
232.671	0.35
232.889	0.33
233.106	0.26
233.324	0.36
233.541	0.35
233.759	0.36
233.976	0.27
234.194	0.35
234.411	0.39
234.628	0.23
234.846	0.35
235.063	0.27
235.28	0.37
235.498	0.18
235.715	0.24
235.932	0.43
236.149	0.23
236.367	0.09
236.584	0.25
236.801	0.32
237.018	0.38
237.236	0.34
237.453	0.12
237.67	0.47
237.887	0.22
238.104	0.32
238.321	0.19
238.538	0.25
238.755	0.55
238.973	0.06
239.19	0.35
239.407	0.42
239.624	0.39
239.841	0.19
240.058	0.24
240.275	0.3
240.492	0.24
240.709	0.33
240.925	0.32
241.142	0.35
241.359	0.23
241.576	0.2
241.793	0.2
242.01	0.25
242.227	0.44
242.444	0.32
242.66	0.48
242.877	0.3
243.094	0.19
243.311	0.28
243.527	0.22
243.744	0.35
243.961	0.4
244.178	0.23
244.394	0.27
244.611	0.45
244.828	0.43
245.044	0.2
245.261	0.2
245.477	0.27
245.694	0.48
245.911	0.19
246.127	0.31
246.344	0.48
246.56	0.36
246.777	0.19
246.993	0.24
247.21	0.3
247.426	0.4
247.643	0.15
247.859	0.23
248.076	0.17
248.292	0.53
248.508	0.28
248.725	0.33
248.941	0.3
249.157	0.36
249.374	0.14
249.59	0.24
249.806	0.25
250.023	0.38
250.239	0.12
250.455	0.23
250.671	0.28
250.888	0.34
251.104	0.28
251.32	0.15
251.536	0.23
251.752	0.23
251.969	0.29
252.185	0.15
252.401	0.47
252.617	0.34
252.833	0.19
253.049	0.27
253.265	0.31
253.481	0.26
253.697	0.21
253.913	0.16
254.129	0.33
254.345	0.35
254.561	0.22
254.777	0.18
254.993	0.33
255.209	0.23
255.425	0.17
255.641	0.23
255.857	0.35
256.073	0.25
256.288	0.12
256.504	0.2
256.72	0.31
256.936	0.41
257.152	0.2
257.367	0.15
257.583	0.22
257.799	0.35
258.015	0.19
258.23	0.14
258.446	0.36
258.662	0.2
258.877	0.14
259.093	0.16
259.309	0.25
259.524	0.29
259.74	0.14
259.955	0.14
260.171	0.24
260.387	0.22
260.602	0.27
260.818	0.25
261.033	0.17
261.249	0.25
261.464	0.18
261.68	0.13
261.895	0.32
262.11	0.3
262.326	0.15
262.541	0.12
262.757	0.29
262.972	0.27
263.187	0.26
263.403	0.2
263.618	0.32
263.833	0.23
264.049	0.14
264.264	0.21
264.479	0.15
264.694	0.35
264.91	0.13
265.125	0.2
265.34	0.24
265.555	0.37
265.77	0.27
265.986	0.18
266.201	0.26
266.416	0.23
266.631	0.18
266.846	0.24
267.061	0.22
267.276	0.29
267.491	0.08
267.706	0.23
267.921	0.27
268.136	0.2
268.351	0.15
268.566	0.1
268.781	0.33
268.996	0.27
269.211	0.27
269.426	0.15
269.641	0.18
269.856	0.31
270.071	0.19
270.285	0.16
270.5	0.25
270.715	0.3
270.93	0.21
271.145	0.18
271.359	0.31
271.574	0.17
271.789	0.17
272.004	0.15
272.218	0.16
272.433	0.29
272.648	0.13
272.862	0.23
273.077	0.18
273.292	0.21
273.506	0.13
273.721	0.2
273.936	0.23
274.15	0.26
274.365	0.15
274.579	0.27
274.794	0.15
275.008	0.24
275.223	0.07
275.437	0.19
275.652	0.33
275.866	0.23
276.081	0.22
276.295	0.22
276.509	0.15
276.724	0.17
276.938	0.2
277.153	0.22
277.367	0.28
277.581	0.18
277.796	0.15
278.01	0.12
278.224	0.23
278.438	0.3
278.653	0.15
278.867	0.13
279.081	0.01
279.295	0.17
279.51	0.2
279.724	0.09
279.938	0.2
280.152	0.25
280.366	0.15
280.58	0.15
280.794	0.24
281.008	0.24
281.222	0.17
281.437	0.35
281.651	0.22
281.865	0.26
282.079	0.17
282.293	0.06
282.507	0.07
282.721	0.17
282.935	0.17
283.148	0.06
283.362	0.11
283.576	0.12
283.79	0.14
284.004	0.1
284.218	0.24
284.432	0.15
284.646	0.18
284.859	0.14
285.073	0.16
285.287	0.17
285.501	0.19
285.714	0.11
285.928	0.2
286.142	0.19
286.356	0.12
286.569	0.14
286.783	0.28
286.997	0.17
287.21	0.22
287.424	0.16
287.637	0.17
287.851	0.16
288.065	0.22
288.278	0.16
288.492	0.15
288.705	0.17
288.919	0.22
289.132	0.12
289.346	0.25
289.559	0.08
289.773	0.09
289.986	0.13
290.2	0.14
290.413	0.25
290.626	0.1
290.84	0.13
291.053	0.16
291.267	0.23
291.48	0.22
291.693	0.16
291.906	0.11
292.12	0.16
292.333	0.09
292.546	0.13
292.76	0.28
292.973	0.17
293.186	0.17
293.399	0.13
293.612	0.23
293.826	0.15
294.039	0.19
294.252	0.14
294.465	0.2
294.678	0.18
294.891	0.18
295.104	0.07
295.317	0.15
295.53	0.16
295.743	0.17
295.956	0.18
296.169	0.27
296.382	0.22
296.595	0.13
296.808	0.1
297.021	0.24
297.234	0.23
297.447	0.19
297.66	0.22
297.873	0.27
298.086	0.19
298.299	0.11
298.511	0.1
298.724	0.14
298.937	0.12
299.15	0.13
299.363	0.17
299.575	0.18
299.788	0.19
300.001	0.15
300.213	0.12
300.426	0.14
300.639	0.1
300.852	0.15
301.064	0.22
301.277	0.21
301.489	0.19
301.702	0.18
301.915	0.16
302.127	0.12
302.34	0.18
302.552	0.24
302.765	0.11
302.977	0.16
303.19	0.15
303.402	0.13
303.615	0.15
303.827	0.12
304.04	0.13
304.252	0.2
304.464	0.12
304.677	0.25
304.889	0.2
305.102	0.1
305.314	0.14
305.526	0.2
305.739	0.18
305.951	0.09
306.163	0.12
306.375	0.22
306.588	0.13
306.8	0.12
307.012	0.1
307.224	0.19
307.436	0.2
307.649	0.08
307.861	0.19
308.073	0.2
308.285	0.14
308.497	0.08
308.709	0.14
308.921	0.22
309.133	0.22
309.346	0.13
309.558	0.14
309.77	0.16
309.982	0.18
310.194	0.21
310.406	0.12
310.617	0.24
310.829	0.15
311.041	0.18
311.253	0.11
311.465	0.12
311.677	0.16
311.889	0.14
312.101	0.17
312.313	0.21
312.524	0.21
312.736	0.13
312.948	0.13
313.16	0.24
313.372	0.16
313.583	0.19
313.795	0.14
314.007	0.12
314.218	0.2
314.43	0.17
314.642	0.14
314.853	0.11
315.065	0.18
315.277	0.14
315.488	0.17
315.7	0.22
315.912	0.16
316.123	0.14
316.335	0.17
316.546	0.25
316.758	0.12
316.969	0.14
317.181	0.17
317.392	0.16
317.604	0.22
317.815	0.12
318.026	0.15
318.238	0.15
318.449	0.18
318.661	0.1
318.872	0.12
319.083	0.12
319.295	0.22
319.506	0.14
319.717	0.17
319.929	0.16
320.14	0.19
320.351	0.15
320.562	0.12
320.774	0.18
320.985	0.13
321.196	0.1
321.407	0.09
321.618	0.2
321.829	0.18
322.041	0.15
322.252	0.17
322.463	0.19
322.674	0.2
322.885	0.13
323.096	0.11
323.307	0.12
323.518	0.18
323.729	0.14
323.94	0.11
324.151	0.12
324.362	0.2
324.573	0.17
324.784	0.11
324.995	0.18
325.206	0.16
325.417	0.15
325.628	0.14
325.838	0.13
326.049	0.19
326.26	0.19
326.471	0.14
326.682	0.19
326.892	0.16
327.103	0.06
327.314	0.1
327.525	0.24
327.735	0.17
327.946	0.16
328.157	0.07
328.368	0.21
328.578	0.12
328.789	0.18
328.999	0.19
329.21	0.12
329.421	0.23
329.631	0.15
329.842	0.11
330.052	0.19
330.263	0.16
330.473	0.15
330.684	0.14
330.894	0.13
331.105	0.17
331.315	0.2
331.526	0.08
331.736	0.23
331.947	0.17
332.157	0.19
332.367	0.11
332.578	0.19
332.788	0.23
332.999	0.17
333.209	0.14
333.419	0.09
333.629	0.17
333.84	0.17
334.05	0.17
334.26	0.23
334.47	0.14
334.681	0.22
334.891	0.14
335.101	0.18
335.311	0.25
335.521	0.18
335.732	0.11
335.942	0.22
336.152	0.17
336.362	0.17
336.572	0.14
336.782	0.22
336.992	0.11
337.202	0.1
337.412	0.15
337.622	0.2
337.832	0.14
338.042	0.19
338.252	0.11
338.462	0.11
338.672	0.2
338.882	0.13
339.092	0.13
339.302	0.23
339.511	0.19
339.721	0.14
339.931	0.07
340.141	0.24
340.351	0.23
340.561	0.17
340.77	0.19
340.98	0.15
341.19	0.17
341.4	0.13
341.609	0.12
341.819	0.14
342.029	0.12
342.238	0.17
342.448	0.08
342.658	0.15
342.867	0.11
343.077	0.14
343.286	0.17
343.496	0.16
343.706	0.24
343.915	0.12
344.125	0.12
344.334	0.2
344.544	0.08
344.753	0.14
344.963	0.13
345.172	0.1
345.381	0.12
345.591	0.1
345.8	0.12
346.01	0.19
346.219	0.19
346.428	0
346.638	0.13
346.847	0.08
347.056	0.23
347.266	0.12
347.475	0.12
347.684	0.16
347.893	0.16
348.103	0.15
348.312	0.13
348.521	0.15
348.73	0.15
348.94	0.13
349.149	0.17
349.358	0.16
349.567	0.15
349.776	0.07
349.985	0.09
350.194	0.22
350.403	0.2
350.612	0.1
350.821	0.12
351.03	0.12
351.239	0.1
351.448	0.14
351.657	0.12
351.866	0.21
352.075	0.16
352.284	0.2
352.493	0.11
352.702	0.22
352.911	0.13
353.12	0.17
353.329	0.08
353.538	0.17
353.746	0.15
353.955	0.11
354.164	0.18
354.373	0.14
354.582	0.17
354.79	0.18
354.999	0.17
355.208	0.14
355.416	0.2
355.625	0.1
355.834	0.09
356.042	0.17
356.251	0.16
356.46	0.11
356.668	0.12
356.877	0.23
357.085	0.17
357.294	0.05
357.503	0.16
357.711	0.15
357.92	0.32
358.128	0.19
358.337	0.13
358.545	0.17
358.754	0.08
358.962	0.2
359.17	0.14
359.379	0.15
359.587	0.16
359.796	0.15
360.004	0.19
360.212	0.22
360.421	0.23
360.629	0.16
360.837	0.12
361.046	0.15
361.254	0.26
361.462	0.15
361.67	0.12
361.879	0.15
362.087	0.17
362.295	0.17
362.503	0.11
362.711	0.07
362.92	0.13
363.128	0.14
363.336	0.11
363.544	0.08
363.752	0.14
363.96	0.12
364.168	0.12
364.376	0.15
364.584	0.16
364.792	0.22
365	0.17
365.208	0.16
365.416	0.21
365.624	0.18
365.832	0.11
366.04	0.24
366.248	0.14
366.456	0.15
366.664	0.15
366.872	0.13
367.079	0.16
367.287	0.15
367.495	0.15
367.703	0.17
367.911	0.17
368.118	0.15
368.326	0.12
368.534	0.11
368.742	0.2
368.949	0.08
369.157	0.12
369.365	0.19
369.572	0.13
369.78	0.1
369.988	0.2
370.195	0.2
370.403	0.2
370.61	0.13
370.818	0.15
371.026	0.21
371.233	0.12
371.441	0.13
371.648	0.14
371.856	0.17
372.063	0.15
372.271	0.11
372.478	0.1
372.685	0.14
372.893	0.24
373.1	0.15
373.308	0.12
373.515	0.24
373.722	0.17
373.93	0.14
374.137	0.18
374.344	0.23
374.552	0.17
374.759	0.18
374.966	0.16
375.173	0.13
375.381	0.18
375.588	0.12
375.795	0.06
376.002	0.14
376.209	0.14
376.417	0.15
376.624	0.12
376.831	0.2
377.038	0.13
377.245	0.07
377.452	0.13
377.659	0.18
377.866	0.13
378.073	0.16
378.28	0.16
378.487	0.21
378.694	0.21
378.901	0.16
379.108	0.17
379.315	0.18
379.522	0.25
379.729	0.15
379.936	0.12
380.143	0.21
380.35	0.16
380.557	0.18
380.763	0.15
380.97	0.16
381.177	0.18
381.384	0.14
381.591	0.18
381.797	0.16
382.004	0.18
382.211	0.2
382.418	0.1
382.624	0.17
382.831	0.23
383.038	0.14
383.244	0.17
383.451	0.17
383.658	0.18
383.864	0.13
384.071	0.11
384.277	0.24
384.484	0.16
384.69	0.22
384.897	0.14
385.103	0.15
385.31	0.12
385.516	0.15
385.723	0.12
385.929	0.15
386.136	0.16
386.342	0.2
386.549	0.11
386.755	0.24
386.961	0.22
387.168	0.15
387.374	0.16
387.58	0.21
387.787	0.15
387.993	0.23
388.199	0.16
388.406	0.16
388.612	0.14
388.818	0.12
389.024	0.11
389.231	0.14
389.437	0.24
389.643	0.23
389.849	0.19
390.055	0.19
390.261	0.17
390.467	0.17
390.674	0.14
390.88	0.19
391.086	0.17
391.292	0.16
391.498	0.19
391.704	0.18
391.91	0.17
392.116	0.17
392.322	0.09
392.528	0.21
392.734	0.16
392.94	0.18
393.146	0.16
393.352	0.17
393.557	0.19
393.763	0.22
393.969	0.19
394.175	0.19
394.381	0.2
394.587	0.14
394.792	0.18
394.998	0.24
395.204	0.25
395.41	0.17
395.615	0.16
395.821	0.25
396.027	0.24
396.233	0.15
396.438	0.21
396.644	0.23
396.85	0.23
397.055	0.14
397.261	0.18
397.466	0.3
397.672	0.22
397.878	0.23
398.083	0.22
398.289	0.16
398.494	0.25
398.7	0.25
398.905	0.14
399.111	0.27
399.316	0.13
399.522	0.19
399.727	0.23
399.932	0.21
400.138	0.2
400.343	0.26
400.549	0.19
400.754	0.19
400.959	0.21
401.165	0.22
401.37	0.24
401.575	0.31
401.78	0.24
401.986	0.16
402.191	0.21
402.396	0.21
402.601	0.27
402.807	0.29
403.012	0.23
403.217	0.26
403.422	0.22
403.627	0.26
403.832	0.21
404.037	0.25
404.243	0.3
404.448	0.23
404.653	0.22
404.858	0.3
405.063	0.33
405.268	0.23
405.473	0.24
405.678	0.23
405.883	0.39
406.088	0.31
406.293	0.22
406.498	0.25
406.703	0.27
406.907	0.31
407.112	0.24
407.317	0.29
407.522	0.32
407.727	0.25
407.932	0.35
408.136	0.41
408.341	0.28
408.546	0.31
408.751	0.37
408.956	0.31
409.16	0.37
409.365	0.34
409.57	0.28
409.774	0.35
409.979	0.44
410.184	0.36
410.388	0.32
410.593	0.46
410.798	0.42
411.002	0.36
411.207	0.47
411.411	0.44
411.616	0.39
411.82	0.45
412.025	0.48
412.229	0.42
412.434	0.58
412.638	0.49
412.843	0.48
413.047	0.52
413.252	0.48
413.456	0.57
413.66	0.59
413.865	0.55
414.069	0.7
414.273	0.59
414.478	0.54
414.682	0.66
414.886	0.64
415.091	0.62
415.295	0.67
415.499	0.76
415.703	0.73
415.908	0.81
416.112	0.64
416.316	0.92
416.52	0.85
416.724	0.83
416.929	0.85
417.133	1.03
417.337	0.94
417.541	0.98
417.745	1.02
417.949	1.14
418.153	1.09
418.357	1.06
418.561	1.32
418.765	1.19
418.969	1.38
419.173	1.39
419.377	1.33
419.581	1.47
419.785	1.43
419.989	1.44
420.193	1.52
420.397	1.57
420.601	1.69
420.804	1.72
421.008	1.68
421.212	1.82
421.416	1.85
421.62	1.8
421.823	1.84
422.027	2.04
422.231	2
422.435	1.96
422.638	2.03
422.842	2.08
423.046	2.05
423.249	2.25
423.453	2.26
423.657	2.35
423.86	2.36
424.064	2.46
424.268	2.61
424.471	2.48
424.675	2.69
424.878	2.75
425.082	2.72
425.285	2.98
425.489	2.93
425.692	2.98
425.896	2.93
426.099	3.1
426.303	3.12
426.506	3.2
426.71	3.44
426.913	3.58
427.116	3.59
427.32	3.59
427.523	3.62
427.726	3.92
427.93	3.86
428.133	3.99
428.336	4.08
428.54	4.28
428.743	4.41
428.946	4.44
429.149	4.51
429.353	4.5
429.556	4.63
429.759	4.59
429.962	4.63
430.165	4.74
430.368	4.56
430.571	4.63
430.775	4.63
430.978	4.6
431.181	4.67
431.384	4.75
431.587	4.74
431.79	4.94
431.993	5
432.196	5.05
432.399	5.3
432.602	5.43
432.805	5.42
433.008	5.74
433.211	5.55
433.414	5.92
433.616	5.93
433.819	5.88
434.022	5.95
434.225	6.04
434.428	6.11
434.631	6.47
434.833	6.26
435.036	6.44
435.239	6.5
435.442	6.56
435.645	6.61
435.847	6.65
436.05	6.9
436.253	6.98
436.455	7.06
436.658	7.01
436.861	7.22
437.063	7.26
437.266	7.24
437.468	7.48
437.671	7.75
437.874	7.73
438.076	7.52
438.279	7.91
438.481	7.93
438.684	8.4
438.886	8.14
439.089	8.3
439.291	8.36
439.494	8.54
439.696	8.72
439.899	8.98
440.101	9.18
440.303	9.38
440.506	9.8
440.708	9.73
440.91	9.8
441.113	9.99
441.315	10.22
441.517	10.07
441.72	10.37
441.922	10.06
442.124	10.07
442.326	10.36
442.529	10.59
442.731	10.58
442.933	10.76
443.135	10.61
443.337	10.59
443.539	11
443.742	10.82
443.944	11.24
444.146	11.23
444.348	11.05
444.55	11.04
444.752	11.22
444.954	11.22
445.156	11.07
445.358	11.48
445.56	11.72
445.762	11.49
445.964	11.76
446.166	11.53
446.368	11.67
446.57	11.65
446.772	11.53
446.974	11.42
447.175	11.56
447.377	11.32
447.579	11.68
447.781	11.43
447.983	11.43
448.184	11.1
448.386	11.22
448.588	10.99
448.79	10.9
448.991	11.24
449.193	11.19
449.395	10.79
449.597	10.56
449.798	10.64
450	10.18
450.202	10.2
450.403	10.19
450.605	10.2
450.806	9.96
451.008	9.72
451.21	9.75
451.411	9.45
451.613	8.97
451.814	9.13
452.016	9
452.217	8.56
452.419	8.61
452.62	8.36
452.821	8.29
453.023	8.25
453.224	7.95
453.426	7.64
453.627	7.17
453.828	7.2
454.03	7.27
454.231	7.29
454.432	7.07
454.634	7.01
454.835	6.75
455.036	6.66
455.238	6.45
455.439	6.27
455.64	6.13
455.841	6
456.042	6.06
456.244	5.89
456.445	5.78
456.646	5.46
456.847	5.41
457.048	5.39
457.249	5.48
457.45	5.3
457.651	4.91
457.852	4.8
458.054	4.62
458.255	4.57
458.456	4.61
458.657	4.48
458.858	4.3
459.058	4.11
459.259	4.25
459.46	4.13
459.661	4.04
459.862	4.2
460.063	3.94
460.264	4
460.465	3.81
460.666	3.84
460.866	3.63
461.067	3.42
461.268	3.48
461.469	3.47
461.67	3.38
461.87	3.35
462.071	3.3
462.272	3.26
462.473	3.24
462.673	3.3
462.874	3.26
463.075	3.27
463.275	3.19
463.476	3.3
463.676	3.21
463.877	3.07
464.078	3.06
464.278	3.15
464.479	3.05
464.679	2.97
464.88	2.97
465.08	2.91
465.281	2.83
465.481	2.71
465.682	2.59
465.882	2.6
466.083	2.59
466.283	2.53
466.483	2.42
466.684	2.4
466.884	2.3
467.085	2.28
467.285	2.31
467.485	2.23
467.686	2.23
467.886	2.16
468.086	2.07
468.286	2.07
468.487	2.18
468.687	2.02
468.887	2
469.087	2.13
469.287	2.06
469.488	1.88
469.688	2.01
469.888	1.98
470.088	1.94
470.288	1.93
470.488	1.83
470.688	1.76
470.888	1.78
471.088	1.63
471.288	1.73
471.488	1.72
471.688	1.7
471.888	1.65
472.088	1.77
472.288	1.73
472.488	1.61
472.688	1.56
472.888	1.63
473.088	1.61
473.288	1.52
473.488	1.5
473.688	1.65
473.887	1.53
474.087	1.48
474.287	1.52
474.487	1.41
474.687	1.52
474.886	1.42
475.086	1.36
475.286	1.44
475.486	1.45
475.685	1.4
475.885	1.39
476.085	1.41
476.284	1.37
476.484	1.36
476.684	1.35
476.883	1.44
477.083	1.35
477.282	1.27
477.482	1.38
477.681	1.36
477.881	1.29
478.08	1.26
478.28	1.27
478.479	1.29
478.679	1.34
478.878	1.27
479.078	1.21
479.277	1.28
479.477	1.27
479.676	1.28
479.875	1.22
480.075	1.18
480.274	1.24
480.473	1.27
480.673	1.19
480.872	1.34
481.071	1.22
481.271	1.25
481.47	1.21
481.669	1.22
481.868	1.2
482.067	1.2
482.267	1.18
482.466	1.18
482.665	1.15
482.864	1.2
483.063	1.14
483.262	1.22
483.461	1.26
483.661	1.28
483.86	1.24
484.059	1.25
484.258	1.24
484.457	1.23
484.656	1.26
484.855	1.27
485.054	1.16
485.253	1.21
485.452	1.19
485.651	1.27
485.849	1.25
486.048	1.2
486.247	1.23
486.446	1.27
486.645	1.21
486.844	1.23
487.043	1.22
487.241	1.29
487.44	1.26
487.639	1.32
487.838	1.33
488.037	1.28
488.235	1.36
488.434	1.3
488.633	1.24
488.831	1.36
489.03	1.37
489.229	1.38
489.427	1.33
489.626	1.42
489.825	1.44
490.023	1.44
490.222	1.4
490.42	1.43
490.619	1.44
490.817	1.46
491.016	1.43
491.214	1.52
491.413	1.49
491.611	1.43
491.81	1.48
492.008	1.53
492.207	1.54
492.405	1.54
492.604	1.49
492.802	1.56
493	1.6
493.199	1.61
493.397	1.61
493.595	1.65
493.794	1.62
493.992	1.76
494.19	1.67
494.388	1.76
494.587	1.71
494.785	1.71
494.983	1.67
495.181	1.78
495.379	1.76
495.578	1.84
495.776	1.83
495.974	1.82
496.172	1.83
496.37	1.9
496.568	1.93
496.766	1.93
496.964	2
497.162	1.99
497.36	2
497.558	2.03
497.756	2.06
497.954	2.06
498.152	2.09
498.35	2.16
498.548	2.07
498.746	2.12
498.944	2.12
499.142	2.18
499.34	2.18
499.538	2.28
499.736	2.22
499.933	2.33
500.131	2.28
500.329	2.37
500.527	2.39
500.725	2.41
500.922	2.42
501.12	2.41
501.318	2.51
501.516	2.43
501.713	2.51
501.911	2.53
502.109	2.46
502.306	2.53
502.504	2.47
502.701	2.56
502.899	2.6
503.097	2.73
503.294	2.66
503.492	2.76
503.689	2.75
503.887	2.79
504.084	2.83
504.282	2.75
504.479	2.78
504.677	2.85
504.874	2.84
505.072	2.8
505.269	2.9
505.466	2.92
505.664	3
505.861	2.87
506.059	2.96
506.256	3
506.453	3
506.651	3.18
506.848	3.21
507.045	3.13
507.242	3.14
507.44	3.15
507.637	3.2
507.834	3.16
508.031	3.29
508.229	3.23
508.426	3.22
508.623	3.34
508.82	3.36
509.017	3.35
509.214	3.31
509.411	3.41
509.608	3.38
509.805	3.43
510.003	3.44
510.2	3.47
510.397	3.61
510.594	3.51
510.791	3.53
510.988	3.55
511.184	3.57
511.381	3.48
511.578	3.58
511.775	3.66
511.972	3.65
512.169	3.66
512.366	3.67
512.563	3.78
512.76	3.78
512.956	3.8
513.153	3.8
513.35	3.74
513.547	3.76
513.744	3.84
513.94	3.82
514.137	3.9
514.334	3.9
514.53	3.92
514.727	3.97
514.924	3.99
515.12	3.91
515.317	3.97
515.514	3.94
515.71	3.91
515.907	4.03
516.103	4.05
516.3	4.01
516.497	4.11
516.693	4.08
516.89	4.09
517.086	4.1
517.283	4.14
517.479	4.05
517.676	4.19
517.872	4.2
518.068	4.2
518.265	4.17
518.461	4.15
518.658	4.26
518.854	4.28
519.05	4.31
519.247	4.33
519.443	4.27
519.639	4.39
519.836	4.27
520.032	4.23
520.228	4.38
520.424	4.36
520.621	4.4
520.817	4.41
521.013	4.37
521.209	4.52
521.405	4.51
521.601	4.5
521.798	4.44
521.994	4.48
522.19	4.42
522.386	4.45
522.582	4.45
522.778	4.62
522.974	4.5
523.17	4.5
523.366	4.49
523.562	4.52
523.758	4.51
523.954	4.48
524.15	4.59
524.346	4.62
524.542	4.57
524.738	4.58
524.934	4.67
525.129	4.6
525.325	4.58
525.521	4.58
525.717	4.74
525.913	4.68
526.109	4.65
526.304	4.72
526.5	4.74
526.696	4.71
526.892	4.64
527.087	4.85
527.283	4.72
527.479	4.72
527.674	4.61
527.87	4.78
528.066	4.76
528.261	4.73
528.457	4.69
528.653	4.82
528.848	4.81
529.044	4.84
529.239	4.77
529.435	4.79
529.63	4.75
529.826	4.75
530.021	4.8
530.217	4.8
530.412	4.76
530.608	4.81
530.803	4.82
530.999	4.75
531.194	4.8
531.389	4.85
531.585	4.81
531.78	4.93
531.975	4.9
532.171	4.93
532.366	4.87
532.561	4.88
532.757	4.88
532.952	5.01
533.147	4.87
533.342	4.92
533.538	4.86
533.733	4.98
533.928	4.8
534.123	4.91
534.318	4.93
534.513	4.9
534.709	4.99
534.904	4.89
535.099	5.01
535.294	5.04
535.489	5
535.684	4.98
535.879	4.96
536.074	5.08
536.269	4.97
536.464	5.04
536.659	4.97
536.854	5.01
537.049	5.07
537.244	5.01
537.439	4.98
537.634	5.01
537.828	5.07
538.023	4.99
538.218	4.99
538.413	4.97
538.608	5.02
538.803	5.05
538.997	4.99
539.192	5.06
539.387	5.04
539.582	4.98
539.776	4.96
539.971	5.05
540.166	5.12
540.36	5.01
540.555	5.09
540.75	5.02
540.944	5.07
541.139	5.08
541.334	5.08
541.528	5.04
541.723	5.13
541.917	5.1
542.112	4.99
542.306	4.95
542.501	5
542.695	5.05
542.89	4.99
543.084	5.04
543.279	5.05
543.473	5.06
543.668	5.1
543.862	4.98
544.056	4.99
544.251	5.11
544.445	5.13
544.64	5.13
544.834	4.9
545.028	4.86
545.222	5.06
545.417	5.23
545.611	5.15
545.805	5.13
546	4.95
546.194	5.06
546.388	5.13
546.582	5.04
546.776	5.04
546.97	5.09
547.165	5.06
547.359	5.09
547.553	5.01
547.747	5.05
547.941	5.24
548.135	5.12
548.329	5.1
548.523	5.15
548.717	5.08
548.911	5.08
549.105	5.03
549.299	5.1
549.493	5.08
549.687	5.09
549.881	5.17
550.075	5.11
550.269	5.02
550.463	5.13
550.657	5.14
550.85	5.11
551.044	5.13
551.238	5.11
551.432	5.05
551.626	5.16
551.82	5.11
552.013	5.09
552.207	5.13
552.401	5.21
552.594	5.08
552.788	5.11
552.982	5.03
553.176	5.03
553.369	5.2
553.563	5.16
553.756	5.09
553.95	5.12
554.144	5.1
554.337	5.19
554.531	4.96
554.724	5.11
554.918	5.14
555.111	5.1
555.305	5.09
555.498	5.04
555.692	5.17
555.885	5.14
556.079	5.15
556.272	5.06
556.466	5.15
556.659	5.08
556.852	5.14
557.046	5.07
557.239	5
557.432	5.05
557.626	5.13
557.819	5.15
558.012	5.14
558.206	5.18
558.399	5.12
558.592	5.07
558.785	5.05
558.979	5.11
559.172	5.09
559.365	5.12
559.558	5.06
559.751	5.03
559.944	5.14
560.138	5.08
560.331	5.09
560.524	5.15
560.717	5.1
560.91	5.12
561.103	5.12
561.296	5.03
561.489	5.12
561.682	5.18
561.875	5.14
562.068	5.19
562.261	5.09
562.454	5.21
562.647	5.06
562.84	5.13
563.032	5.14
563.225	5.11
563.418	5.1
563.611	5.08
563.804	5.1
563.997	4.99
564.19	4.97
564.382	5.14
564.575	5.09
564.768	5.06
564.961	5.17
565.153	5.08
565.346	5.06
565.539	5.15
565.731	5.11
565.924	5.16
566.117	5.22
566.309	5.15
566.502	5.09
566.695	5.06
566.887	5.1
567.08	5.06
567.272	5.11
567.465	5.07
567.657	5.11
567.85	5.05
568.042	5.12
568.235	5.15
568.427	4.98
568.62	5.04
568.812	5.07
569.005	5.14
569.197	5.04
569.389	5.12
569.582	5.12
569.774	5.14
569.966	4.99
570.159	4.99
570.351	5.04
570.543	5.07
570.736	5.07
570.928	4.98
571.12	5.17
571.312	5
571.505	4.92
571.697	5.08
571.889	5.03
572.081	5.05
572.273	4.96
572.465	5.05
572.658	5.05
572.85	5.07
573.042	5.04
573.234	5.02
573.426	5.02
573.618	4.98
573.81	5.07
574.002	5
574.194	5.08
574.386	4.98
574.578	4.91
574.77	5
574.962	5.02
575.154	4.88
575.346	4.97
575.538	4.95
575.729	4.91
575.921	4.99
576.113	5.04
576.305	4.97
576.497	5.05
576.689	4.87
576.88	4.91
577.072	5.05
577.264	4.97
577.456	4.97
577.647	4.92
577.839	5.05
578.031	4.96
578.223	4.94
578.414	4.92
578.606	5.03
578.798	5
578.989	4.95
579.181	5.02
579.372	4.92
579.564	4.98
579.755	4.9
579.947	4.88
580.139	4.92
580.33	4.84
580.522	4.96
580.713	4.85
580.905	4.87
581.096	4.93
581.287	4.88
581.479	4.87
581.67	4.92
581.862	4.88
582.053	4.9
582.244	4.77
582.436	4.96
582.627	4.87
582.818	4.83
583.01	4.85
583.201	4.85
583.392	4.88
583.583	4.81
583.775	4.73
583.966	4.81
584.157	4.87
584.348	4.85
584.54	4.76
584.731	4.82
584.922	4.75
585.113	4.73
585.304	4.85
585.495	4.82
585.686	4.81
585.877	4.82
586.068	4.85
586.259	4.81
586.45	4.83
586.641	4.71
586.832	4.78
587.023	4.73
587.214	4.7
587.405	4.8
587.596	4.69
587.787	4.66
587.978	4.71
588.169	4.67
588.36	4.66
588.551	4.71
588.742	4.69
588.932	4.75
589.123	4.63
589.314	4.72
589.505	4.64
589.696	4.67
589.886	4.61
590.077	4.63
590.268	4.63
590.458	4.56
590.649	4.54
590.84	4.62
591.03	4.63
591.221	4.6
591.412	4.55
591.602	4.69
591.793	4.62
591.984	4.62
592.174	4.56
592.365	4.73
592.555	4.49
592.746	4.5
592.936	4.53
593.127	4.58
593.317	4.54
593.508	4.53
593.698	4.52
593.889	4.52
594.079	4.47
594.269	4.44
594.46	4.48
594.65	4.44
594.84	4.49
595.031	4.41
595.221	4.46
595.411	4.38
595.602	4.47
595.792	4.44
595.982	4.33
596.172	4.52
596.363	4.38
596.553	4.4
596.743	4.41
596.933	4.37
597.123	4.31
597.314	4.25
597.504	4.29
597.694	4.41
597.884	4.35
598.074	4.33
598.264	4.33
598.454	4.29
598.644	4.27
598.834	4.31
599.024	4.16
599.214	4.24
599.404	4.27
599.594	4.29
599.784	4.21
599.974	4.3
600.164	4.25
600.354	4.15
600.544	4.1
600.734	4.25
600.924	4.27
601.114	4.14
601.303	4.11
601.493	4.19
601.683	4.19
601.873	4.17
602.063	4.06
602.252	4.07
602.442	4.03
602.632	4.08
602.821	4.03
603.011	4.14
603.201	4.05
603.39	4.01
603.58	3.98
603.77	4.02
603.959	4.06
604.149	4.02
604.339	4.01
604.528	4.13
604.718	3.99
604.907	3.99
605.097	3.95
605.286	3.97
605.476	3.95
605.665	3.95
605.855	3.92
606.044	3.95
606.234	3.96
606.423	3.9
606.612	3.88
606.802	3.88
606.991	3.86
607.181	3.93
607.37	3.88
607.559	3.73
607.749	3.85
607.938	3.81
608.127	3.8
608.316	3.81
608.506	3.79
608.695	3.85
608.884	3.79
609.073	3.79
609.263	3.78
609.452	3.81
609.641	3.66
609.83	3.69
610.019	3.78
610.208	3.69
610.397	3.7
610.586	3.73
610.775	3.64
610.965	3.67
611.154	3.6
611.343	3.7
611.532	3.63
611.721	3.63
611.91	3.63
612.099	3.62
612.287	3.51
612.476	3.49
612.665	3.63
612.854	3.47
613.043	3.57
613.232	3.55
613.421	3.53
613.61	3.57
613.798	3.51
613.987	3.59
614.176	3.52
614.365	3.55
614.554	3.48
614.742	3.5
614.931	3.39
615.12	3.47
615.309	3.44
615.497	3.41
615.686	3.25
615.875	3.37
616.063	3.35
616.252	3.35
616.44	3.37
616.629	3.35
616.818	3.36
617.006	3.33
617.195	3.34
617.383	3.3
617.572	3.27
617.76	3.26
617.949	3.26
618.137	3.36
618.326	3.34
618.514	3.14
618.703	3.11
618.891	3.31
619.079	3.15
619.268	3.29
619.456	3.14
619.644	3.24
619.833	3.16
620.021	3.16
620.209	3.1
620.398	3.18
620.586	3.1
620.774	3.12
620.962	3.07
621.151	3.18
621.339	3.08
621.527	3.03
621.715	3.02
621.903	3.04
622.092	3.01
622.28	3.06
622.468	2.92
622.656	3.03
622.844	2.98
623.032	3.05
623.22	2.95
623.408	3.06
623.596	3.01
623.784	3.02
623.972	2.94
624.16	2.97
624.348	2.97
624.536	2.92
624.724	2.85
624.912	2.98
625.1	2.94
625.288	2.88
625.476	2.86
625.664	2.9
625.851	2.81
626.039	2.87
626.227	2.84
626.415	2.84
626.603	2.77
626.79	2.82
626.978	2.81
627.166	2.81
627.354	2.78
627.541	2.78
627.729	2.67
627.917	2.87
628.104	2.85
628.292	2.66
628.48	2.75
628.667	2.69
628.855	2.74
629.042	2.77
629.23	2.68
629.418	2.65
629.605	2.69
629.793	2.62
629.98	2.66
630.168	2.62
630.355	2.63
630.543	2.64
630.73	2.61
630.917	2.58
631.105	2.68
631.292	2.57
631.48	2.61
631.667	2.68
631.854	2.52
632.042	2.54
632.229	2.45
632.416	2.56
632.604	2.5
632.791	2.43
632.978	2.55
633.165	2.5
633.353	2.56
633.54	2.54
633.727	2.36
633.914	2.39
634.101	2.34
634.289	2.45
634.476	2.4
634.663	2.36
634.85	2.33
635.037	2.36
635.224	2.29
635.411	2.41
635.598	2.33
635.785	2.3
635.972	2.31
636.159	2.38
636.346	2.26
636.533	2.31
636.72	2.22
636.907	2.3
637.094	2.28
637.281	2.16
637.468	2.25
637.655	2.27
637.842	2.24
638.029	2.16
638.215	2.21
638.402	2.21
638.589	2.12
638.776	2.18
638.963	2.16
639.149	2.22
639.336	2.23
639.523	2.2
639.709	2.13
639.896	2.13
640.083	2.17
640.27	2.21
640.456	2.11
640.643	2.08
640.829	2.03
641.016	2.07
641.203	1.96
641.389	2.06
641.576	2.1
641.762	2.06
641.949	1.99
642.135	2.04
642.322	2.05
642.508	1.96
642.695	2.02
642.881	1.95
643.068	1.95
643.254	1.96
643.441	1.97
643.627	1.93
643.813	1.86
644	1.97
644.186	1.91
644.372	1.96
644.559	1.91
644.745	1.91
644.931	1.84
645.118	1.93
645.304	1.85
645.49	1.81
645.676	1.8
645.862	1.85
646.049	1.93
646.235	1.85
646.421	1.96
646.607	1.87
646.793	1.8
646.979	1.8
647.165	1.82
647.352	1.8
647.538	1.8
647.724	1.74
647.91	1.74
648.096	1.81
648.282	1.81
648.468	1.71
648.654	1.76
648.84	1.74
649.026	1.73
649.212	1.69
649.397	1.66
649.583	1.67
649.769	1.7
649.955	1.69
650.141	1.73
650.327	1.67
650.513	1.63
650.698	1.65
650.884	1.53
651.07	1.67
651.256	1.65
651.442	1.59
651.627	1.58
651.813	1.59
651.999	1.63
652.184	1.61
652.37	1.61
652.556	1.61
652.741	1.57
652.927	1.47
653.113	1.57
653.298	1.55
653.484	1.56
653.669	1.46
653.855	1.53
654.04	1.58
654.226	1.49
654.412	1.46
654.597	1.43
654.782	1.52
654.968	1.51
655.153	1.5
655.339	1.45
655.524	1.4
655.71	1.52
655.895	1.49
656.08	1.44
656.266	1.49
656.451	1.43
656.636	1.37
656.822	1.44
657.007	1.4
657.192	1.39
657.378	1.38
657.563	1.38
657.748	1.36
657.933	1.39
658.118	1.29
658.304	1.36
658.489	1.41
658.674	1.37
658.859	1.34
659.044	1.38
659.229	1.37
659.414	1.3
659.599	1.35
659.785	1.25
659.97	1.29
660.155	1.3
660.34	1.31
660.525	1.27
660.71	1.25
660.895	1.34
661.08	1.27
661.264	1.26
661.449	1.35
661.634	1.27
661.819	1.3
662.004	1.26
662.189	1.15
662.374	1.18
662.559	1.17
662.743	1.15
662.928	1.2
663.113	1.17
663.298	1.16
663.483	1.17
663.667	1.22
663.852	1.17
664.037	1.18
664.221	1.14
664.406	1.23
664.591	1.2
664.775	1.2
664.96	1.09
665.145	1.16
665.329	1.18
665.514	1.12
665.698	1.17
665.883	1.08
666.068	1.16
666.252	1.13
666.437	1.08
666.621	1.15
666.806	1.16
666.99	1.08
667.174	1.08
667.359	1.17
667.543	1.06
667.728	1.08
667.912	1
668.096	1.14
668.281	1.04
668.465	1.05
668.649	1.07
668.834	1.04
669.018	1.05
669.202	1.09
669.387	0.99
669.571	1.1
669.755	1
669.939	1.03
670.124	1.01
670.308	1.06
670.492	1.03
670.676	1.01
670.86	0.97
671.044	0.94
671.228	1.03
671.413	0.96
671.597	0.91
671.781	0.94
671.965	0.95
672.149	0.95
672.333	1
672.517	0.92
672.701	0.96
672.885	0.94
673.069	0.9
673.253	0.98
673.437	0.92
673.621	0.9
673.804	0.91
673.988	0.92
674.172	0.92
674.356	0.89
674.54	0.89
674.724	1
674.908	0.89
675.091	0.96
675.275	0.9
675.459	0.93
675.643	0.95
675.826	0.83
676.01	0.87
676.194	0.9
676.377	0.9
676.561	0.97
676.745	0.9
676.928	0.91
677.112	0.91
677.296	0.83
677.479	0.83
677.663	0.86
677.846	0.83
678.03	0.86
678.213	0.8
678.397	0.85
678.58	0.83
678.764	0.84
678.947	0.79
679.131	0.8
679.314	0.89
679.498	0.84
679.681	0.86
679.865	0.86
680.048	0.75
680.231	0.8
680.415	0.78
680.598	0.81
680.781	0.73
680.965	0.79
681.148	0.79
681.331	0.77
681.514	0.81
681.698	0.72
681.881	0.81
682.064	0.76
682.247	0.8
682.43	0.69
682.614	0.76
682.797	0.81
682.98	0.8
683.163	0.68
683.346	0.73
683.529	0.7
683.712	0.74
683.895	0.72
684.078	0.69
684.261	0.71
684.444	0.77
684.627	0.77
684.81	0.66
684.993	0.71
685.176	0.72
685.359	0.68
685.542	0.66
685.725	0.74
685.908	0.71
686.091	0.68
686.274	0.73
686.457	0.66
686.639	0.69
686.822	0.74
687.005	0.71
687.188	0.69
687.371	0.76
687.553	0.72
687.736	0.72
687.919	0.75
688.102	0.8
688.284	0.64
688.467	0.61
688.65	0.68
688.832	0.62
689.015	0.62
689.197	0.55
689.38	0.78
689.563	0.68
689.745	0.58
689.928	0.58
690.11	0.65
690.293	0.61
690.475	0.55
690.658	0.63
690.84	0.6
691.023	0.63
691.205	0.62
691.388	0.62
691.57	0.69
691.752	0.64
691.935	0.54
692.117	0.54
692.3	0.63
692.482	0.56
692.664	0.57
692.847	0.58
693.029	0.64
693.211	0.67
693.393	0.61
693.576	0.55
693.758	0.57
693.94	0.52
694.122	0.56
694.304	0.54
694.487	0.56
694.669	0.63
694.851	0.53
695.033	0.58
695.215	0.54
695.397	0.53
695.579	0.53
695.761	0.51
695.943	0.47
696.125	0.63
696.308	0.62
696.49	0.43
696.671	0.66
696.853	0.55
697.035	0.72
697.217	0.52
697.399	0.57
697.581	0.5
697.763	0.58
697.945	0.49
698.127	0.53
698.309	0.6
698.491	0.49
698.672	0.58
698.854	0.57
699.036	0.57
699.218	0.51
699.399	0.57
699.581	0.54
699.763	0.48
699.945	0.45
700.126	0.49
700.308	0.51
700.49	0.51
700.671	0.4
700.853	0.44
701.035	0.46
701.216	0.52
701.398	0.4
701.579	0.44
701.761	0.54
701.943	0.48
702.124	0.45
702.306	0.49
702.487	0.67
702.669	0.51
702.85	0.44
703.031	0.4
703.213	0.57
703.394	0.51
703.576	0.43
703.757	0.53
703.938	0.54
704.12	0.64
704.301	0.44
704.483	0.41
704.664	0.48
704.845	0.6
705.026	0.52
705.208	0.4
705.389	0.44
705.57	0.47
705.751	0.45
705.933	0.45
706.114	0.53
706.295	0.44
706.476	0.39
706.657	0.53
706.838	0.45
707.02	0.55
707.201	0.39
707.382	0.36
707.563	0.48
707.744	0.45
707.925	0.39
708.106	0.34
708.287	0.4
708.468	0.53
708.649	0.4
708.83	0.51
709.011	0.36
709.192	0.49
709.373	0.33
709.554	0.42
709.734	0.48
709.915	0.51
710.096	0.4
710.277	0.34
710.458	0.36
710.639	0.45
710.819	0.28
711	0.38
711.181	0.47
711.362	0.45
711.542	0.43
711.723	0.38
711.904	0.52
712.085	0.43
712.265	0.39
712.446	0.31
712.627	0.35
712.807	0.36
712.988	0.39
713.168	0.3
713.349	0.4
713.53	0.22
713.71	0.32
713.891	0.32
714.071	0.34
714.252	0.37
714.432	0.38
714.613	0.29
714.793	0.41
714.974	0.46
715.154	0.47
715.334	0.47
715.515	0.45
715.695	0.33
715.876	0.38
716.056	0.34
716.236	0.31
716.417	0.36
716.597	0.29
716.777	0.57
716.957	0.38
717.138	0.4
717.318	0.35
717.498	0.22
717.678	0.36
717.859	0.38
718.039	0.22
718.219	0.34
718.399	0.39
718.579	0.27
718.759	0.3
718.939	0.38
719.12	0.31
719.3	0.3
719.48	0.17
719.66	0.16
719.84	0.46
720.02	0.33
720.2	0.21
720.38	0.34
720.56	0.49
720.74	0.23
720.92	0.37
721.1	0.45
721.279	0.47
721.459	0.31
721.639	0.27
721.819	0.32
721.999	0.35
722.179	0.39
722.359	0.29
722.538	0.31
722.718	0.31
722.898	0.29
723.078	0.37
723.257	0.3
723.437	0.29
723.617	0.39
723.797	0.34
723.976	0.38
724.156	0.39
724.336	0.44
724.515	0.46
724.695	0.25
724.874	0.36
725.054	0.37
725.234	0.25
725.413	0.29
725.593	0.27
725.772	0.3
725.952	0.3
726.131	0.3
726.311	0.31
726.49	0.2
726.67	0.23
726.849	0.25
727.028	0.37
727.208	0.27
727.387	0.32
727.567	0.18
727.746	0.32
727.925	0.23
728.105	0.2
728.284	0.24
728.463	0.29
728.643	0.32
728.822	0.22
729.001	0.21
729.18	0.3
729.359	0.34
729.539	0.3
729.718	0.33
729.897	0.35
730.076	0.25
730.255	0.15
730.434	0.25
730.614	0.31
730.793	0.39
730.972	0.24
731.151	0.32
731.33	0.33
731.509	0.37
731.688	0.34
731.867	0.26
732.046	0.05
732.225	0.51
732.404	0.26
732.583	0.16
732.762	0.36
732.941	0.45
733.12	0.33
733.298	0.23
733.477	0.33
733.656	0.19
733.835	0.15
734.014	0.33
734.193	0.32
734.371	0.39
734.55	0.34
734.729	0.19
734.908	0.36
735.086	0.34
735.265	0.32
735.444	0.09
735.623	0.23
735.801	0.18
735.98	0.26
736.159	0.28
736.337	0.34
736.516	0.25
736.694	0.36
736.873	0.2
737.052	0.47
737.23	0.5
737.409	0.17
737.587	0.47
737.766	0.13
737.944	0.25
738.123	0.36
738.301	0.28
738.479	0.2
738.658	0.3
738.836	0.02
739.015	0.32
739.193	0.38
739.371	0.18
739.55	0.33
739.728	0.24
739.906	0.45
740.085	0.4
740.263	0.32
740.441	0.16
740.62	0.41
740.798	0.35
740.976	0.13
741.154	0.19
741.332	0.45
741.511	0.25
741.689	0.32
741.867	0.3
742.045	0.23
742.223	0.23
742.401	0.2
742.579	0.17
742.757	0.35
742.935	0.13
743.114	0.2
743.292	0.21
743.47	0.3
743.648	0.31
743.826	0.1
744.004	0.29
744.181	0.39
744.359	0.26
744.537	0.27
744.715	0.3
744.893	0.28
745.071	0.29
745.249	0.19
745.427	0.2
745.605	0.29
745.782	0.28
745.96	0.31
746.138	0.27
746.316	0.32
746.493	0.13
746.671	0.23
746.849	0.21
747.027	0.3
747.204	0.24
747.382	0.28
747.56	0.12
747.737	0.27
747.915	0.25
748.093	0.27
748.27	0.11
748.448	0.22
748.625	0.1
748.803	0.12
748.98	0.13
749.158	0.3
749.335	0.34
749.513	0.19
749.69	0.13
749.868	0.22
750.045	0.21
750.223	0.24
750.4	-0.02
750.578	0.46
750.755	0.18
750.932	0.12
751.11	0.36
751.287	0.12
751.464	0.28
751.642	0.15
751.819	0.29
751.996	0.22
752.173	0.15
752.351	0.23
752.528	0.3
752.705	0.2
752.882	0.22
753.06	0.33
753.237	0.29
753.414	0.3
753.591	0.45
753.768	0.21
753.945	0.1
754.122	0.23
754.299	0.33
754.476	0.16
754.654	0.23
754.831	0.28
755.008	0.33
755.185	0.17
755.362	0.09
755.539	0.23
755.716	0.17
755.892	0.21
756.069	0.32
756.246	0.34
756.423	0.19
756.6	0.39
756.777	0.22
756.954	0.35
757.131	0.14
757.307	0.12
757.484	0.14
757.661	0.15
757.838	0.27
758.015	0.06
758.191	0.35
758.368	0.1
758.545	0.37
758.721	0.34
758.898	0.14
759.075	0.28
759.251	0.37
759.428	0.14
759.605	0.16
759.781	0.19
759.958	0.23
760.134	0.24
760.311	0.15
760.488	0.29
760.664	0.29
760.841	0.16
761.017	0.15
761.194	0.22
761.37	0.34
761.547	0.32
761.723	0.16
761.899	0.45
762.076	0.11
762.252	0.12
762.429	0.25
762.605	0.33
762.781	0.18
762.958	0.33
763.134	0.17
763.31	0.11
763.486	0.26
763.663	0.16
763.839	0.43
764.015	0.01
764.191	0.11
764.368	0.15
764.544	0.25
764.72	0.27
764.896	0.28
765.072	0.39
765.248	0.2
765.425	0.24
765.601	0.25
765.777	0.25
765.953	-0.02
766.129	0.19
766.305	0.14
766.481	0.27
766.657	0.25
766.833	0.32
767.009	0.17
767.185	0.25
767.361	0.16
767.537	0.1
767.713	0.46
767.889	0.2
768.065	0.27
768.24	0.01
768.416	0.37
768.592	0.17
768.768	0.19
768.944	0.17
769.12	0.28
769.295	0.16
769.471	0.21
769.647	0.26
769.823	0.46
769.998	0.11
770.174	0.13
770.35	0.71
770.525	0.44
770.701	0.18
770.877	0.22
771.052	0.13
771.228	0.29
771.403	0.25
771.579	0.25
771.755	0.51
771.93	-0
772.106	0.12
772.281	-0.09
772.457	0.13
772.632	0.27
772.808	0.02
772.983	0.25
773.159	-0.04
773.334	0.29
773.509	0.35
773.685	0.07
773.86	0.47
774.036	0.46
774.211	0.25
774.386	0.19
774.562	0.28
774.737	0.23
774.912	0.13
775.087	0.33
775.263	0.24
775.438	0.06
775.613	0.05
775.788	0.13
775.964	0.37
776.139	0.66
776.314	0.13
776.489	0.22
776.664	0.28
776.839	0.14
777.014	0.37
777.19	0.37
777.365	0.48
777.54	0.54
777.715	0.06
777.89	0.24
778.065	0.26
778.24	0.29
778.415	0.35
778.59	-0.01
778.765	0.11
778.94	0.3
779.115	0.03
779.289	0.17
779.464	0.13
779.639	0.14
779.814	0.02
779.989	-0.06
780.164	0.24
780.339	0.25
780.513	0.22
780.688	0.17
780.863	0.33
781.038	0.3
781.212	0.12
781.387	0.08
781.562	0.47
781.737	0.2
781.911	0.5
782.086	0.05
782.261	0.26
782.435	0.62
782.61	0.11
782.784	0.28
782.959	0.48
783.134	0.21
783.308	-0.03
783.483	0.11
783.657	0.69
783.832	0.45
784.006	0
784.181	0.32
784.355	0.37
784.53	-0.07
784.704	0.13
784.878	0.48
785.053	0.29
785.227	0.38
785.402	0.48
785.576	0.04
785.75	0.16
785.925	0.33
786.099	0.27
786.273	0.3
786.448	0.28
786.622	0.14
786.796	0.25
786.97	0.08
787.145	0.85
787.319	-0.23
787.493	0.08
787.667	-0.06
787.841	0.23
788.015	0.59
788.19	0.06
788.364	0.31
788.538	0.55
788.712	0.27
788.886	0.27
789.06	0.4
789.234	0.39
789.408	0.11
789.582	-0
789.756	0.08
789.93	0.01
790.104	0.31
790.278	0.1
790.452	0.18
790.626	0.46
790.8	0.28
790.973	0.4
791.147	0.49
791.321	0.69
791.495	0.34
791.669	0.44
791.843	0.27
792.016	0.33
792.19	0.58
792.364	-0.06
792.538	0.72
792.711	0.53
792.885	0.21
793.059	0.21
793.233	0.18
793.406	0.34
793.58	0.2
793.754	0.33
793.927	0.19
794.101	0.63
794.274	0.23
794.448	0.52
794.622	0.12
794.795	0.55
794.969	0.31
795.142	0.53
795.316	0.22
795.489	0.1
795.663	0.6
795.836	0.29
796.009	0.09
796.183	0.65
796.356	0.39
796.53	0.4
796.703	0.29
796.876	0.83
797.05	0.19
797.223	0.02
797.396	0.47
797.57	0.3
797.743	0.82
797.916	0.45
798.09	-0
798.263	0.58
798.436	0.25
798.609	0.23
798.782	0.26
798.956	0.38
799.129	0.34
799.302	-0.12
799.475	-0.01
799.648	-0.12
799.821	0.19
799.994	0.56
800.167	0.03
800.34	0.35
800.514	0.27
800.687	0.02
800.86	0.05
801.033	0.15
801.206	0.41
801.379	-0.09
801.551	0.24
801.724	0.52
801.897	0.79
802.07	0.27
802.243	-0.46
802.416	0.16
802.589	0.08
802.762	0.36
802.935	0.5
803.107	0.67
803.28	0.67
803.453	0.75
803.626	-0.05
803.798	0.31
803.971	0.2
804.144	0.31
804.317	0.66
804.489	0.51
804.662	0.25
804.835	0.28
805.007	0.47
805.18	1.05
805.353	0.44
805.525	-0.01
805.698	0.26
805.87	0.53
806.043	0.7
806.215	0.02
806.388	0.18
806.56	0.54
806.733	0.79
806.905	0.55
807.078	0.02
807.25	0.38
807.423	0.68
807.595	0.52
807.768	0.26
807.94	0.87
808.112	0.33
808.285	0.32
808.457	0.35
808.629	0.42
808.802	0.82
808.974	0.53
809.146	0.21
809.318	0.17
809.491	0.47
809.663	0.52
809.835	0.13
810.007	0.56
810.18	0.13
810.352	-0.02
810.524	0.08
810.696	0.61
810.868	0.48
811.04	0.31
811.212	0.53
811.384	0.8
811.556	0.46
811.728	0.22
811.901	1
812.073	0.45
812.245	0.65
812.417	0.45
812.589	-0.46
812.76	0.87
812.932	0.54
813.104	0.63
813.276	0.32
813.448	0.77
813.62	0.33
813.792	0.63
813.964	0.15
814.136	0.94
814.307	0.35
814.479	0.18
814.651	0.14
814.823	1.36
814.995	0.38
815.166	0.75
815.338	0.19
815.51	-0.31
815.681	1.29
815.853	0.52
816.025	0.22
816.196	0.7
816.368	1.19
816.54	0.18
816.711	0.18
816.883	0.69
817.054	1.46
817.226	-0.16
817.398	0.33
817.569	0.04
817.741	0.32
817.912	0.66
818.084	0.19
818.255	1.16
818.426	0.09
818.598	0.43
818.769	-0.12
818.941	0.72
819.112	1.08
819.283	0.82
819.455	-0.2
819.626	0.15
819.798	0.53
819.969	0.45
820.14	0.03
820.311	-0.01
820.483	0.73
820.654	0.37
820.825	0.43
820.996	0.39
821.168	-0.37
821.339	0.55
821.51	0.12
821.681	0.06
821.852	0.56
822.023	0
822.195	0.18
822.366	1.17
822.537	1.01
822.708	0.58
822.879	0.31
823.05	0.88
823.221	0.21
823.392	0.39
823.563	0.26
823.734	-0.03
823.905	0.57
824.076	-0.18
824.247	-0.03
824.418	0.55
824.589	1.41
824.759	0.33
824.93	0.12
825.101	-0.18
825.272	0.95
825.443	1.6
825.614	0.79
825.784	-0.71
825.955	1.61
826.126	1.38
826.297	0.79
826.467	1.59
826.638	1.59
826.809	-0.22
826.98	0.44
827.15	0.89
827.321	0.36
827.492	1.39
827.662	0.71
827.833	1.71
828.003	0.84
828.174	0.15
828.345	-0.44
828.515	1.25
828.686	0.74
828.856	0.27
829.027	0.72
829.197	1.24
829.368	0.77
829.538	0.21
829.709	0.47
829.879	0.96
830.049	0.5
830.22	0.36
830.39	0.12
830.56	0.74
830.731	0.32
830.901	0.22
831.072	0.38
831.242	0.98
831.412	0.3
831.582	0.69
831.753	-0.49
831.923	1.17
832.093	1.04
832.263	0.39
832.434	0.03
832.604	-0.15
832.774	0.86
832.944	0.48
833.114	0.21
833.284	0.92
833.454	0.38
833.624	0.33
833.795	0.42
833.965	1.12
834.135	1.2
834.305	-0.34
834.475	0.62
834.645	0.8
834.815	0.63
834.985	-0.19
835.155	0.53
835.325	1.15
835.494	0.68
835.664	0.22
835.834	-0.39
836.004	0.85
836.174	0.73
836.344	0.78
836.514	-0.12
836.684	0.11
836.853	0.75
837.023	0.92
837.193	-0.17
837.363	1.91
837.532	1.17
837.702	0.66
837.872	-0.16
838.041	0.75
838.211	2.32
838.381	-0.93
838.55	0.58
838.72	3.39
838.89	1.71
839.059	0.46
839.229	-0.35
839.398	2.42
839.568	1.2
839.738	0.57
839.907	1.58
840.077	1.03
840.246	-0.36
840.416	-0.04
840.585	-0.69
840.755	1.88
840.924	1.2
841.093	-0.02
841.263	0.6
841.432	1.26
841.602	0.36
841.771	-0.21
841.94	0.96
842.11	3.01
842.279	1.87
842.448	0.17
842.617	0.05
842.787	1.35
842.956	-0.33
843.125	0.54
843.294	0.67
843.464	1.03
843.633	-0.13
843.802	-0.14
843.971	0.28
844.14	1.12
844.309	1.8
844.479	-0.3
844.648	-0.46
844.817	-0.09
844.986	1.01
845.155	0.08
845.324	0.08
845.493	1.09
845.662	1.14
845.831	1.27
846	1.24
846.169	0.59
846.338	1.91
846.507	0.99
846.676	1.22
846.844	1.01
847.013	0.85
847.182	0.06
847.351	-0.04
847.52	0.93
847.689	0.83
847.858	0.34
848.026	0.5
848.195	0.89
848.364	0.05
848.533	0.86
848.701	-0.06
848.87	0.61
849.039	1.65
849.207	1.43
849.376	1.37
849.545	2.45
849.713	-0.22
849.882	0.83
850.051	0.25
850.219	0.99
850.388	1.52
850.556	-0.14
850.725	-0.36
850.893	0.7
851.062	-0.32
851.23	1.12
851.399	-0.63
851.567	0.45
851.736	0.3
851.904	-0.01
852.073	0.38
852.241	0.76
852.41	1.41
852.578	0.67
852.746	0.17
852.915	1.75
853.083	0.27
853.251	0.1
853.42	0.51
853.588	0.68
853.756	1.94
853.924	0.55
854.093	0.21
854.261	0.9
854.429	-0.35
854.597	0.14
854.765	-0.35
854.934	0.36
855.102	2.61
855.27	0.81
855.438	1.82
855.606	1.66
855.774	3.06
855.942	-1.08
856.11	-0.99
856.278	1.06
856.446	2.25
856.614	0.81
856.782	-0.35
856.95	1.15
857.118	1.64
857.286	1.89
857.454	0.56
857.622	1.83
857.79	1.13
857.958	0.09
858.126	0.66
858.294	-1.07
858.462	-0.1
858.629	-0.23
858.797	-0.71
858.965	1.08
859.133	-0.13
859.301	1.07
859.468	1.91
859.636	-0.35
859.804	2.9
859.971	1.98
860.139	0.17
860.307	1.69
860.474	1.7
860.642	0.54
860.81	0.27
860.977	-0.23
861.145	2.89
861.313	1.05
861.48	1.73
861.648	1.42
861.815	0.66
861.983	-1.49
862.15	0.28
862.318	1.54
862.485	2.67
862.653	0.93
862.82	-0.28
862.988	2.36
863.155	1.79
863.322	0.21
863.49	-0.45
863.657	0.45
863.824	2.21
863.992	2.08
864.159	1.48
864.326	3.09
864.494	0.29
864.661	3.11
864.828	-1.16
864.996	2.02
865.163	3.68
865.33	0.78
865.497	-2.21
865.664	0.66
865.832	-1.42
865.999	-0.28
866.166	-0.82
866.333	0.7
866.5	0.58
866.667	-0.19
866.834	2.29
867.001	2.55
867.168	-1.09
867.335	0.81
867.502	-1.29
867.669	0.83
867.836	3.61
868.003	0.6
868.17	1.93
868.337	0.17
868.504	3.59
868.671	-0.58
868.838	-0.01
869.005	1.01
869.172	0.63
869.339	1.23
869.505	0.67
869.672	1.47
869.839	3.47
870.006	2.53
870.173	-0.19
870.339	0.58
870.506	4.32
870.673	-0.98
870.84	2.31
871.006	2.25
871.173	-0.16
871.34	1.96
871.506	0.04
871.673	1.59
871.839	-0.17
872.006	0.68
872.173	-0.7
872.339	1.35
872.506	3.8
872.672	2.07
872.839	0.11
873.005	-0.26
873.172	3.31
873.338	1.36
873.505	0.26
873.671	2.55
873.838	2.04
874.004	-0.31
874.171	0.52
874.337	3.45
874.503	1.71
874.67	-0.35
874.836	0.51
875.002	3
875.169	3.56
875.335	0.13
875.501	0.82
875.668	2.62
875.834	0.95
876	1.84
876.166	1.57
876.332	2.2
876.499	3.69
876.665	0.16
876.831	1.09
876.997	5.21
877.163	1.92
877.329	-1.01
877.495	1.59
877.662	1.24
877.828	0.96
877.994	0.34
878.16	-0.6
878.326	-1.02
878.492	3.29
878.658	-0.19
878.824	0.31
878.99	2.41
879.156	2.32
879.322	3.32
879.487	0.52
879.653	2.74
879.819	3.03
879.985	0.38
880.151	1.99
880.317	3
880.483	1.06
880.648	1.41
880.814	-1.8
880.98	2.94
881.146	-1.13
881.312	-1.56
881.477	-1.28
881.643	0.52
881.809	2.74
881.974	3
882.14	-0.44
882.306	0.9
882.471	4.55
882.637	0.82
882.803	2.82
882.968	4.13
883.134	6.2
883.299	1.12
883.465	0.57
883.63	3.26
883.796	3.61
883.961	3.72
884.127	1
884.292	-3.22
884.458	-0.84
884.623	-0.84
