Data from Apollo_Calib_20240827__AbsoluteIrradiance__891__14-00-01-132.txt Node

Date: Wed Aug 28 14:00:01 BST 2024
User: biology
Spectrometer: FLMT08252
Trigger mode: 0
Integration Time (sec): 5.000000E-1
Scans to average: 5
Electric dark correction enabled: true
Nonlinearity correction enabled: false
Boxcar width: 0
XAxis mode: Wavelengths
Number of Pixels in Spectrum: 3648
>>>>>Begin Spectral Data<<<<<
179.588	-0
179.809	-0
180.03	-0
180.251	-0
180.473	-0
180.694	0
180.915	0
181.136	-0
181.357	0
181.578	-0
181.799	-0
182.02	-0
182.241	-0
182.462	-0
182.683	0
182.904	-0
183.125	-0
183.346	0
183.567	0
183.788	0
184.009	0
184.23	0
184.451	0
184.672	0
184.892	0
185.113	0
185.334	0
185.555	0
185.776	0
185.996	0
186.217	0
186.438	0
186.659	0
186.879	0
187.1	0
187.321	0
187.541	0
187.762	0
187.983	0
188.203	0
188.424	0
188.644	0
188.865	0
189.086	0
189.306	0
189.527	0
189.747	0
189.968	0
190.188	0
190.409	0
190.629	0
190.849	0
191.07	0
191.29	0
191.511	0
191.731	0
191.951	0
192.172	0
192.392	0
192.612	0
192.833	0
193.053	0
193.273	0
193.493	0
193.714	0
193.934	0
194.154	0
194.374	0
194.594	0
194.815	0
195.035	0
195.255	0
195.475	0
195.695	0
195.915	0
196.135	0
196.355	0
196.575	0
196.795	0
197.015	0
197.235	0
197.455	0
197.675	0
197.895	0
198.115	0
198.335	0
198.555	0
198.775	0
198.995	0
199.214	0
199.434	0
199.654	0
199.874	0
200.094	4.06
200.313	1.97
200.533	2.07
200.753	1.3
200.973	3.66
201.192	2.96
201.412	1.53
201.632	1.83
201.851	3.32
202.071	1.51
202.291	1.93
202.51	1.54
202.73	2.68
202.95	1.94
203.169	1.29
203.389	1.62
203.608	2.35
203.828	1.66
204.047	1.53
204.267	2.15
204.486	2.45
204.706	2.4
204.925	1.73
205.145	1.35
205.364	2.17
205.583	2.65
205.803	1.24
206.022	1.11
206.242	1.75
206.461	1.88
206.68	1.44
206.9	1.67
207.119	2.44
207.338	1.95
207.557	1.15
207.777	1.47
207.996	1.38
208.215	2.38
208.434	1.21
208.654	0.51
208.873	1.49
209.092	1.89
209.311	1.19
209.53	0.83
209.749	1.34
209.968	1.1
210.187	0.99
210.407	0.74
210.626	1.16
210.845	1.67
211.064	0.98
211.283	0.79
211.502	1.76
211.721	1.19
211.94	0.91
212.159	1.23
212.377	1.41
212.596	1.51
212.815	1.14
213.034	1.41
213.253	1.47
213.472	1.34
213.691	0.97
213.91	0.67
214.128	0.64
214.347	1.68
214.566	0.49
214.785	0.45
215.003	1.39
215.222	1.07
215.441	0.77
215.66	0.48
215.878	1.11
216.097	1.33
216.316	0.61
216.534	0.74
216.753	1.2
216.972	0.74
217.19	0.8
217.409	0.6
217.627	0.75
217.846	0.93
218.064	0.77
218.283	0.49
218.501	1.65
218.72	1.12
218.938	0.62
219.157	0.63
219.375	1.14
219.594	1.09
219.812	0.52
220.031	0.46
220.249	1.39
220.467	1.29
220.686	0.56
220.904	0.49
221.122	0.61
221.341	1.22
221.559	0.94
221.777	0.55
221.995	0.91
222.214	1.13
222.432	0.63
222.65	1
222.868	0.86
223.086	0.97
223.305	0.94
223.523	0.66
223.741	1.18
223.959	0.78
224.177	0.32
224.395	0.48
224.613	0.75
224.831	0.98
225.049	0.5
225.267	0.63
225.485	0.81
225.703	0.61
225.921	0.48
226.139	0.57
226.357	0.85
226.575	0.92
226.793	0.31
227.011	1.67
227.229	0.76
227.447	0.96
227.665	0.57
227.883	0.45
228.1	0.66
228.318	0.81
228.536	0.29
228.754	0.51
228.972	0.68
229.189	0.81
229.407	0.47
229.625	0.52
229.843	0.96
230.06	0.89
230.278	0.49
230.496	0.68
230.713	0.68
230.931	0.85
231.149	0.53
231.366	0.36
231.584	0.6
231.801	1.15
232.019	0.57
232.236	0.39
232.454	0.37
232.671	0.66
232.889	0.45
233.106	0.44
233.324	0.61
233.541	0.52
233.759	0.56
233.976	0.36
234.194	0.65
234.411	0.61
234.628	0.35
234.846	0.41
235.063	0.53
235.28	0.62
235.498	0.5
235.715	0.36
235.932	0.83
236.149	0.57
236.367	0.26
236.584	0.59
236.801	0.54
237.018	0.63
237.236	0.56
237.453	0.24
237.67	0.74
237.887	0.45
238.104	0.59
238.321	0.39
238.538	0.35
238.755	0.69
238.973	0.23
239.19	0.46
239.407	0.63
239.624	0.6
239.841	0.36
240.058	0.39
240.275	0.58
240.492	0.48
240.709	0.42
240.925	0.44
241.142	0.52
241.359	0.41
241.576	0.41
241.793	0.35
242.01	0.43
242.227	0.7
242.444	0.5
242.66	0.56
242.877	0.58
243.094	0.45
243.311	0.47
243.527	0.39
243.744	0.59
243.961	0.54
244.178	0.37
244.394	0.43
244.611	0.64
244.828	0.68
245.044	0.4
245.261	0.41
245.477	0.52
245.694	0.6
245.911	0.36
246.127	0.47
246.344	0.64
246.56	0.44
246.777	0.37
246.993	0.37
247.21	0.53
247.426	0.53
247.643	0.31
247.859	0.37
248.076	0.48
248.292	0.73
248.508	0.4
248.725	0.43
248.941	0.46
249.157	0.62
249.374	0.27
249.59	0.4
249.806	0.45
250.023	0.46
250.239	0.31
250.455	0.28
250.671	0.38
250.888	0.41
251.104	0.44
251.32	0.37
251.536	0.39
251.752	0.37
251.969	0.45
252.185	0.29
252.401	0.62
252.617	0.54
252.833	0.38
253.049	0.37
253.265	0.45
253.481	0.48
253.697	0.35
253.913	0.33
254.129	0.47
254.345	0.5
254.561	0.41
254.777	0.38
254.993	0.53
255.209	0.51
255.425	0.38
255.641	0.33
255.857	0.52
256.073	0.47
256.288	0.23
256.504	0.28
256.72	0.4
256.936	0.61
257.152	0.4
257.367	0.24
257.583	0.38
257.799	0.51
258.015	0.23
258.23	0.32
258.446	0.64
258.662	0.38
258.877	0.33
259.093	0.28
259.309	0.42
259.524	0.43
259.74	0.32
259.955	0.26
260.171	0.39
260.387	0.42
260.602	0.5
260.818	0.46
261.033	0.25
261.249	0.41
261.464	0.31
261.68	0.31
261.895	0.45
262.11	0.53
262.326	0.35
262.541	0.21
262.757	0.5
262.972	0.47
263.187	0.36
263.403	0.41
263.618	0.52
263.833	0.37
264.049	0.27
264.264	0.29
264.479	0.37
264.694	0.53
264.91	0.23
265.125	0.34
265.34	0.49
265.555	0.6
265.77	0.32
265.986	0.22
266.201	0.4
266.416	0.53
266.631	0.31
266.846	0.3
267.061	0.45
267.276	0.44
267.491	0.19
267.706	0.44
267.921	0.37
268.136	0.42
268.351	0.29
268.566	0.22
268.781	0.55
268.996	0.44
269.211	0.37
269.426	0.24
269.641	0.32
269.856	0.41
270.071	0.29
270.285	0.22
270.5	0.44
270.715	0.43
270.93	0.3
271.145	0.37
271.359	0.46
271.574	0.34
271.789	0.29
272.004	0.3
272.218	0.27
272.433	0.42
272.648	0.3
272.862	0.39
273.077	0.36
273.292	0.41
273.506	0.23
273.721	0.32
273.936	0.42
274.15	0.41
274.365	0.26
274.579	0.3
274.794	0.4
275.008	0.44
275.223	0.22
275.437	0.32
275.652	0.42
275.866	0.37
276.081	0.32
276.295	0.36
276.509	0.35
276.724	0.35
276.938	0.34
277.153	0.31
277.367	0.41
277.581	0.28
277.796	0.28
278.01	0.25
278.224	0.38
278.438	0.49
278.653	0.27
278.867	0.21
279.081	0.48
279.295	0.35
279.51	0.3
279.724	0.21
279.938	0.4
280.152	0.37
280.366	0.33
280.58	0.36
280.794	0.46
281.008	0.44
281.222	0.32
281.437	0.56
281.651	0.35
281.865	0.47
282.079	0.3
282.293	0.15
282.507	0.23
282.721	0.32
282.935	0.25
283.148	0.16
283.362	0.33
283.576	0.24
283.79	0.25
284.004	0.24
284.218	0.44
284.432	0.3
284.646	0.3
284.859	0.25
285.073	0.28
285.287	0.32
285.501	0.32
285.714	0.23
285.928	0.28
286.142	0.41
286.356	0.3
286.569	0.24
286.783	0.4
286.997	0.35
287.21	0.34
287.424	0.3
287.637	0.28
287.851	0.28
288.065	0.37
288.278	0.24
288.492	0.35
288.705	0.26
288.919	0.33
289.132	0.19
289.346	0.34
289.559	0.2
289.773	0.24
289.986	0.28
290.2	0.23
290.413	0.37
290.626	0.25
290.84	0.24
291.053	0.33
291.267	0.37
291.48	0.27
291.693	0.22
291.906	0.24
292.12	0.27
292.333	0.22
292.546	0.21
292.76	0.41
292.973	0.31
293.186	0.34
293.399	0.29
293.612	0.34
293.826	0.32
294.039	0.25
294.252	0.25
294.465	0.32
294.678	0.33
294.891	0.28
295.104	0.26
295.317	0.27
295.53	0.29
295.743	0.28
295.956	0.2
296.169	0.39
296.382	0.3
296.595	0.24
296.808	0.25
297.021	0.34
297.234	0.35
297.447	0.25
297.66	0.26
297.873	0.36
298.086	0.34
298.299	0.21
298.511	0.15
298.724	0.25
298.937	0.18
299.15	0.18
299.363	0.24
299.575	0.32
299.788	0.38
300.001	0.26
300.213	0.2
300.426	0.26
300.639	0.23
300.852	0.22
301.064	0.3
301.277	0.38
301.489	0.32
301.702	0.27
301.915	0.28
302.127	0.31
302.34	0.28
302.552	0.31
302.765	0.22
302.977	0.34
303.19	0.2
303.402	0.2
303.615	0.22
303.827	0.25
304.04	0.26
304.252	0.3
304.464	0.25
304.677	0.43
304.889	0.39
305.102	0.23
305.314	0.25
305.526	0.3
305.739	0.29
305.951	0.21
306.163	0.22
306.375	0.38
306.588	0.25
306.8	0.2
307.012	0.2
307.224	0.3
307.436	0.35
307.649	0.14
307.861	0.25
308.073	0.29
308.285	0.24
308.497	0.17
308.709	0.17
308.921	0.29
309.133	0.34
309.346	0.24
309.558	0.26
309.77	0.33
309.982	0.37
310.194	0.26
310.406	0.18
310.617	0.37
310.829	0.32
311.041	0.28
311.253	0.18
311.465	0.28
311.677	0.27
311.889	0.23
312.101	0.18
312.313	0.35
312.524	0.37
312.736	0.18
312.948	0.22
313.16	0.35
313.372	0.37
313.583	0.25
313.795	0.22
314.007	0.25
314.218	0.35
314.43	0.24
314.642	0.23
314.853	0.15
315.065	0.33
315.277	0.25
315.488	0.27
315.7	0.34
315.912	0.27
316.123	0.25
316.335	0.23
316.546	0.39
316.758	0.26
316.969	0.26
317.181	0.28
317.392	0.24
317.604	0.32
317.815	0.22
318.026	0.21
318.238	0.24
318.449	0.29
318.661	0.2
318.872	0.22
319.083	0.22
319.295	0.34
319.506	0.25
319.717	0.22
319.929	0.35
320.14	0.29
320.351	0.27
320.562	0.24
320.774	0.35
320.985	0.29
321.196	0.19
321.407	0.16
321.618	0.28
321.829	0.31
322.041	0.3
322.252	0.26
322.463	0.3
322.674	0.29
322.885	0.26
323.096	0.21
323.307	0.26
323.518	0.32
323.729	0.23
323.94	0.19
324.151	0.26
324.362	0.28
324.573	0.26
324.784	0.18
324.995	0.35
325.206	0.31
325.417	0.22
325.628	0.25
325.838	0.25
326.049	0.3
326.26	0.24
326.471	0.2
326.682	0.29
326.892	0.28
327.103	0.15
327.314	0.18
327.525	0.34
327.735	0.28
327.946	0.3
328.157	0.23
328.368	0.31
328.578	0.28
328.789	0.31
328.999	0.26
329.21	0.25
329.421	0.33
329.631	0.21
329.842	0.21
330.052	0.27
330.263	0.28
330.473	0.31
330.684	0.25
330.894	0.28
331.105	0.3
331.315	0.24
331.526	0.17
331.736	0.37
331.947	0.32
332.157	0.28
332.367	0.19
332.578	0.3
332.788	0.35
332.999	0.31
333.209	0.24
333.419	0.2
333.629	0.32
333.84	0.29
334.05	0.27
334.26	0.36
334.47	0.32
334.681	0.31
334.891	0.28
335.101	0.35
335.311	0.34
335.521	0.29
335.732	0.18
335.942	0.34
336.152	0.29
336.362	0.25
336.572	0.29
336.782	0.31
336.992	0.24
337.202	0.25
337.412	0.26
337.622	0.28
337.832	0.23
338.042	0.24
338.252	0.2
338.462	0.24
338.672	0.32
338.882	0.25
339.092	0.29
339.302	0.37
339.511	0.29
339.721	0.27
339.931	0.17
340.141	0.31
340.351	0.35
340.561	0.28
340.77	0.3
340.98	0.3
341.19	0.31
341.4	0.24
341.609	0.2
341.819	0.28
342.029	0.22
342.238	0.27
342.448	0.22
342.658	0.3
342.867	0.25
343.077	0.28
343.286	0.29
343.496	0.29
343.706	0.35
343.915	0.24
344.125	0.22
344.334	0.31
344.544	0.19
344.753	0.23
344.963	0.24
345.172	0.18
345.381	0.21
345.591	0.21
345.8	0.29
346.01	0.33
346.219	0.32
346.428	0.12
346.638	0.25
346.847	0.27
347.056	0.32
347.266	0.21
347.475	0.23
347.684	0.33
347.893	0.29
348.103	0.28
348.312	0.22
348.521	0.23
348.73	0.24
348.94	0.25
349.149	0.22
349.358	0.25
349.567	0.23
349.776	0.18
349.985	0.2
350.194	0.29
350.403	0.3
350.612	0.18
350.821	0.17
351.03	0.28
351.239	0.2
351.448	0.29
351.657	0.19
351.866	0.36
352.075	0.22
352.284	0.31
352.493	0.2
352.702	0.32
352.911	0.27
353.12	0.22
353.329	0.25
353.538	0.25
353.746	0.23
353.955	0.21
354.164	0.28
354.373	0.25
354.582	0.29
354.79	0.27
354.999	0.28
355.208	0.24
355.416	0.31
355.625	0.21
355.834	0.24
356.042	0.26
356.251	0.24
356.46	0.19
356.668	0.25
356.877	0.34
357.085	0.28
357.294	0.15
357.503	0.23
357.711	0.25
357.92	0.44
358.128	0.26
358.337	0.21
358.545	0.27
358.754	0.21
358.962	0.28
359.17	0.22
359.379	0.29
359.587	0.26
359.796	0.23
360.004	0.32
360.212	0.27
360.421	0.33
360.629	0.23
360.837	0.21
361.046	0.29
361.254	0.43
361.462	0.22
361.67	0.22
361.879	0.29
362.087	0.32
362.295	0.24
362.503	0.24
362.711	0.2
362.92	0.23
363.128	0.23
363.336	0.21
363.544	0.23
363.752	0.27
363.96	0.19
364.168	0.19
364.376	0.24
364.584	0.31
364.792	0.34
365	0.24
365.208	0.27
365.416	0.27
365.624	0.31
365.832	0.21
366.04	0.36
366.248	0.28
366.456	0.26
366.664	0.29
366.872	0.24
367.079	0.29
367.287	0.26
367.495	0.28
367.703	0.26
367.911	0.25
368.118	0.26
368.326	0.29
368.534	0.2
368.742	0.35
368.949	0.18
369.157	0.21
369.365	0.25
369.572	0.28
369.78	0.21
369.988	0.31
370.195	0.29
370.403	0.31
370.61	0.25
370.818	0.25
371.026	0.35
371.233	0.23
371.441	0.29
371.648	0.22
371.856	0.33
372.063	0.28
372.271	0.27
372.478	0.21
372.685	0.21
372.893	0.31
373.1	0.23
373.308	0.23
373.515	0.39
373.722	0.33
373.93	0.26
374.137	0.26
374.344	0.34
374.552	0.26
374.759	0.31
374.966	0.3
375.173	0.23
375.381	0.37
375.588	0.29
375.795	0.21
376.002	0.26
376.209	0.21
376.417	0.24
376.624	0.3
376.831	0.31
377.038	0.23
377.245	0.13
377.452	0.28
377.659	0.26
377.866	0.23
378.073	0.23
378.28	0.28
378.487	0.34
378.694	0.31
378.901	0.3
379.108	0.23
379.315	0.31
379.522	0.36
379.729	0.27
379.936	0.25
380.143	0.28
380.35	0.27
380.557	0.24
380.763	0.23
380.97	0.28
381.177	0.31
381.384	0.27
381.591	0.25
381.797	0.28
382.004	0.34
382.211	0.3
382.418	0.2
382.624	0.31
382.831	0.36
383.038	0.26
383.244	0.27
383.451	0.31
383.658	0.31
383.864	0.24
384.071	0.22
384.277	0.37
384.484	0.24
384.69	0.33
384.897	0.23
385.103	0.26
385.31	0.27
385.516	0.25
385.723	0.22
385.929	0.26
386.136	0.27
386.342	0.29
386.549	0.25
386.755	0.33
386.961	0.36
387.168	0.23
387.374	0.28
387.58	0.32
387.787	0.28
387.993	0.3
388.199	0.29
388.406	0.29
388.612	0.28
388.818	0.3
389.024	0.26
389.231	0.28
389.437	0.39
389.643	0.29
389.849	0.31
390.055	0.27
390.261	0.29
390.467	0.35
390.674	0.21
390.88	0.27
391.086	0.35
391.292	0.24
391.498	0.29
391.704	0.32
391.91	0.31
392.116	0.28
392.322	0.18
392.528	0.34
392.734	0.27
392.94	0.32
393.146	0.34
393.352	0.34
393.557	0.31
393.763	0.27
393.969	0.34
394.175	0.34
394.381	0.34
394.587	0.23
394.792	0.3
394.998	0.42
395.204	0.41
395.41	0.31
395.615	0.34
395.821	0.4
396.027	0.35
396.233	0.27
396.438	0.37
396.644	0.36
396.85	0.37
397.055	0.34
397.261	0.32
397.466	0.39
397.672	0.36
397.878	0.38
398.083	0.36
398.289	0.36
398.494	0.43
398.7	0.35
398.905	0.28
399.111	0.41
399.316	0.29
399.522	0.36
399.727	0.34
399.932	0.31
400.138	0.32
400.343	0.4
400.549	0.34
400.754	0.32
400.959	0.39
401.165	0.3
401.37	0.38
401.575	0.48
401.78	0.42
401.986	0.36
402.191	0.34
402.396	0.37
402.601	0.43
402.807	0.41
403.012	0.39
403.217	0.45
403.422	0.38
403.627	0.42
403.832	0.42
404.037	0.47
404.243	0.41
404.448	0.39
404.653	0.44
404.858	0.42
405.063	0.48
405.268	0.45
405.473	0.38
405.678	0.41
405.883	0.69
406.088	0.49
406.293	0.39
406.498	0.46
406.703	0.56
406.907	0.43
407.112	0.44
407.317	0.54
407.522	0.56
407.727	0.5
407.932	0.6
408.136	0.68
408.341	0.54
408.546	0.56
408.751	0.58
408.956	0.62
409.16	0.63
409.365	0.63
409.57	0.56
409.774	0.63
409.979	0.7
410.184	0.72
410.388	0.61
410.593	0.78
410.798	0.75
411.002	0.75
411.207	0.79
411.411	0.85
411.616	0.74
411.82	0.85
412.025	0.86
412.229	0.87
412.434	0.93
412.638	0.88
412.843	0.91
413.047	0.98
413.252	0.93
413.456	1.04
413.66	1.08
413.865	1.05
414.069	1.2
414.273	1.07
414.478	1.08
414.682	1.19
414.886	1.2
415.091	1.19
415.295	1.21
415.499	1.39
415.703	1.36
415.908	1.51
416.112	1.37
416.316	1.61
416.52	1.59
416.724	1.52
416.929	1.56
417.133	1.94
417.337	1.78
417.541	1.84
417.745	1.83
417.949	1.95
418.153	1.93
418.357	1.99
418.561	2.27
418.765	2.22
418.969	2.37
419.173	2.42
419.377	2.36
419.581	2.63
419.785	2.66
419.989	2.62
420.193	2.7
420.397	2.86
420.601	3.01
420.804	3.11
421.008	3.05
421.212	3.27
421.416	3.32
421.62	3.26
421.823	3.34
422.027	3.53
422.231	3.5
422.435	3.45
422.638	3.52
422.842	3.68
423.046	3.8
423.249	3.91
423.453	3.92
423.657	4.08
423.86	4.18
424.064	4.29
424.268	4.44
424.471	4.39
424.675	4.67
424.878	4.76
425.082	4.81
425.285	5.12
425.489	5.02
425.692	5.26
425.896	5.16
426.099	5.47
426.303	5.66
426.506	5.57
426.71	5.87
426.913	6.15
427.116	6.34
427.32	6.35
427.523	6.33
427.726	6.71
427.93	6.78
428.133	7.04
428.336	7.11
428.54	7.32
428.743	7.56
428.946	7.88
429.149	7.79
429.353	7.87
429.556	7.97
429.759	8.03
429.962	8.14
430.165	8.29
430.368	7.91
430.571	7.93
430.775	8.04
430.978	8
431.181	8.06
431.384	8.21
431.587	8.29
431.79	8.79
431.993	8.67
432.196	8.88
432.399	9.26
432.602	9.43
432.805	9.51
433.008	9.96
433.211	9.96
433.414	10.34
433.616	10.3
433.819	10.15
434.022	10.34
434.225	10.54
434.428	10.67
434.631	11.14
434.833	10.77
435.036	11.06
435.239	11.31
435.442	11.29
435.645	11.52
435.847	11.62
436.05	11.85
436.253	11.89
436.455	12.07
436.658	11.95
436.861	12.35
437.063	12.42
437.266	12.46
437.468	12.71
437.671	13.1
437.874	13.11
438.076	12.88
438.279	13.39
438.481	13.5
438.684	14.14
438.886	13.86
439.089	14.17
439.291	14.1
439.494	14.44
439.696	14.63
439.899	15.14
440.101	15.51
440.303	15.73
440.506	16.38
440.708	16.18
440.91	16.5
441.113	16.65
441.315	16.96
441.517	16.65
441.72	17.27
441.922	16.82
442.124	16.72
442.326	17.12
442.529	17.4
442.731	17.35
442.933	17.66
443.135	17.33
443.337	17.39
443.539	17.88
443.742	17.67
443.944	18.33
444.146	18.02
444.348	17.96
444.55	17.79
444.752	18.07
444.954	18.01
445.156	17.93
445.358	18.33
445.56	18.65
445.762	18.41
445.964	18.78
446.166	18.48
446.368	18.53
446.57	18.67
446.772	18.17
446.974	17.88
447.175	18.25
447.377	17.82
447.579	18.25
447.781	17.93
447.983	17.79
448.184	17.29
448.386	17.71
448.588	17.16
448.79	17.18
448.991	17.52
449.193	17.51
449.395	16.94
449.597	16.45
449.798	16.23
450	15.95
450.202	15.88
450.403	15.74
450.605	15.73
450.806	15.33
451.008	15.14
451.21	14.94
451.411	14.6
451.613	13.84
451.814	14.08
452.016	13.96
452.217	13.3
452.419	13.31
452.62	12.87
452.821	12.59
453.023	12.6
453.224	12.29
453.426	11.84
453.627	11.22
453.828	11.34
454.03	11.36
454.231	11.25
454.432	11.05
454.634	10.83
454.835	10.51
455.036	10.42
455.238	10.02
455.439	9.91
455.64	9.58
455.841	9.45
456.042	9.6
456.244	9.19
456.445	8.89
456.646	8.65
456.847	8.62
457.048	8.47
457.249	8.58
457.45	8.45
457.651	7.85
457.852	7.6
458.054	7.3
458.255	7.17
458.456	7.22
458.657	7.26
458.858	6.69
459.058	6.71
459.259	6.74
459.46	6.45
459.661	6.44
459.862	6.49
460.063	6.4
460.264	6.3
460.465	6.04
460.666	6.11
460.866	5.75
461.067	5.57
461.268	5.6
461.469	5.54
461.67	5.37
461.87	5.25
462.071	5.25
462.272	5.12
462.473	5.19
462.673	5.37
462.874	5.2
463.075	5.21
463.275	5.1
463.476	5.2
463.676	5.06
463.877	4.92
464.078	4.98
464.278	4.99
464.479	4.91
464.679	4.74
464.88	4.71
465.08	4.72
465.281	4.48
465.481	4.37
465.682	4.11
465.882	4.26
466.083	4.13
466.283	4.07
466.483	3.93
466.684	3.8
466.884	3.62
467.085	3.67
467.285	3.81
467.485	3.65
467.686	3.54
467.886	3.47
468.086	3.37
468.286	3.39
468.487	3.46
468.687	3.3
468.887	3.25
469.087	3.34
469.287	3.29
469.488	3.11
469.688	3.24
469.888	3.23
470.088	3.19
470.288	3.06
470.488	3.11
470.688	2.86
470.888	2.89
471.088	2.69
471.288	2.86
471.488	2.79
471.688	2.75
471.888	2.67
472.088	2.8
472.288	2.76
472.488	2.64
472.688	2.57
472.888	2.61
473.088	2.6
473.288	2.48
473.488	2.43
473.688	2.65
473.887	2.49
474.087	2.52
474.287	2.46
474.487	2.43
474.687	2.47
474.886	2.37
475.086	2.32
475.286	2.35
475.486	2.3
475.685	2.26
475.885	2.21
476.085	2.33
476.284	2.29
476.484	2.29
476.684	2.22
476.883	2.33
477.083	2.19
477.282	2.14
477.482	2.24
477.681	2.18
477.881	2.08
478.08	2.12
478.28	2.05
478.479	2.11
478.679	2.19
478.878	2.04
479.078	2.06
479.277	2.11
479.477	2.08
479.676	2.1
479.875	2.01
480.075	1.95
480.274	2.05
480.473	2.04
480.673	2.03
480.872	2.09
481.071	2.02
481.271	2.03
481.47	1.98
481.669	2.04
481.868	2.01
482.067	2.04
482.267	1.93
482.466	1.97
482.665	1.95
482.864	1.95
483.063	1.91
483.262	2.07
483.461	2.07
483.661	2.08
483.86	2.03
484.059	2.06
484.258	2.04
484.457	2.06
484.656	1.99
484.855	2.09
485.054	1.93
485.253	2
485.452	1.96
485.651	2.07
485.849	2.04
486.048	2.05
486.247	2.03
486.446	2.12
486.645	2.06
486.844	2.11
487.043	2.06
487.241	2.1
487.44	2.05
487.639	2.14
487.838	2.17
488.037	2.1
488.235	2.22
488.434	2.18
488.633	2.08
488.831	2.26
489.03	2.22
489.229	2.24
489.427	2.22
489.626	2.3
489.825	2.32
490.023	2.31
490.222	2.3
490.42	2.3
490.619	2.39
490.817	2.41
491.016	2.38
491.214	2.42
491.413	2.44
491.611	2.41
491.81	2.43
492.008	2.47
492.207	2.57
492.405	2.53
492.604	2.44
492.802	2.56
493	2.62
493.199	2.65
493.397	2.64
493.595	2.74
493.794	2.67
493.992	2.8
494.19	2.71
494.388	2.83
494.587	2.76
494.785	2.79
494.983	2.74
495.181	2.89
495.379	2.92
495.578	2.95
495.776	2.96
495.974	2.97
496.172	2.95
496.37	3.07
496.568	3.1
496.766	3.07
496.964	3.22
497.162	3.15
497.36	3.22
497.558	3.26
497.756	3.35
497.954	3.26
498.152	3.35
498.35	3.46
498.548	3.38
498.746	3.44
498.944	3.42
499.142	3.44
499.34	3.55
499.538	3.63
499.736	3.52
499.933	3.67
500.131	3.67
500.329	3.78
500.527	3.77
500.725	3.88
500.922	3.88
501.12	3.85
501.318	3.93
501.516	3.93
501.713	4.04
501.911	4.02
502.109	3.99
502.306	4.11
502.504	4.01
502.701	4.12
502.899	4.17
503.097	4.41
503.294	4.19
503.492	4.35
503.689	4.4
503.887	4.32
504.084	4.47
504.282	4.44
504.479	4.44
504.677	4.58
504.874	4.55
505.072	4.4
505.269	4.69
505.466	4.67
505.664	4.76
505.861	4.67
506.059	4.8
506.256	4.81
506.453	4.83
506.651	4.99
506.848	4.99
507.045	4.93
507.242	5.03
507.44	5
507.637	5.1
507.834	5.08
508.031	5.26
508.229	5.15
508.426	5.1
508.623	5.28
508.82	5.3
509.017	5.26
509.214	5.26
509.411	5.38
509.608	5.37
509.805	5.51
510.003	5.43
510.2	5.5
510.397	5.68
510.594	5.53
510.791	5.62
510.988	5.65
511.184	5.64
511.381	5.52
511.578	5.7
511.775	5.8
511.972	5.72
512.169	5.86
512.366	5.84
512.563	5.94
512.76	5.97
512.956	6.02
513.153	5.96
513.35	5.9
513.547	5.91
513.744	6.1
513.94	6.02
514.137	6.17
514.334	6.14
514.53	6.11
514.727	6.38
514.924	6.31
515.12	6.25
515.317	6.28
515.514	6.21
515.71	6.14
515.907	6.49
516.103	6.42
516.3	6.31
516.497	6.46
516.693	6.52
516.89	6.53
517.086	6.53
517.283	6.55
517.479	6.39
517.676	6.63
517.872	6.71
518.068	6.65
518.265	6.63
518.461	6.6
518.658	6.72
518.854	6.72
519.05	6.8
519.247	6.84
519.443	6.79
519.639	6.92
519.836	6.75
520.032	6.75
520.228	6.93
520.424	6.89
520.621	6.98
520.817	7.02
521.013	6.89
521.209	7.11
521.405	7.09
521.601	7.07
521.798	6.96
521.994	7.06
522.19	7.01
522.386	6.98
522.582	7.1
522.778	7.23
522.974	7.13
523.17	7.13
523.366	7.13
523.562	7.25
523.758	7.22
523.954	7.04
524.15	7.28
524.346	7.27
524.542	7.28
524.738	7.17
524.934	7.38
525.129	7.35
525.325	7.31
525.521	7.21
525.717	7.5
525.913	7.3
526.109	7.34
526.304	7.48
526.5	7.44
526.696	7.44
526.892	7.38
527.087	7.61
527.283	7.55
527.479	7.51
527.674	7.31
527.87	7.53
528.066	7.47
528.261	7.6
528.457	7.5
528.653	7.61
528.848	7.62
529.044	7.69
529.239	7.5
529.435	7.61
529.63	7.52
529.826	7.52
530.021	7.57
530.217	7.61
530.412	7.58
530.608	7.65
530.803	7.62
530.999	7.48
531.194	7.61
531.389	7.75
531.585	7.66
531.78	7.82
531.975	7.72
532.171	7.79
532.366	7.63
532.561	7.78
532.757	7.68
532.952	7.86
533.147	7.66
533.342	7.78
533.538	7.72
533.733	7.96
533.928	7.62
534.123	7.77
534.318	7.82
534.513	7.67
534.709	7.88
534.904	7.8
535.099	7.9
535.294	7.97
535.489	7.94
535.684	7.84
535.879	7.8
536.074	7.93
536.269	7.91
536.464	7.87
536.659	7.86
536.854	7.86
537.049	7.98
537.244	7.92
537.439	7.87
537.634	7.89
537.828	7.94
538.023	7.94
538.218	7.98
538.413	7.85
538.608	7.96
538.803	7.95
538.997	7.88
539.192	8.02
539.387	7.93
539.582	7.91
539.776	7.81
539.971	7.95
540.166	8.08
540.36	7.91
540.555	8.06
540.75	8.01
540.944	8.05
541.139	8.01
541.334	7.93
541.528	8.05
541.723	8.1
541.917	8.09
542.112	7.9
542.306	7.84
542.501	7.92
542.695	7.96
542.89	7.92
543.084	7.99
543.279	8.03
543.473	8.05
543.668	8.04
543.862	7.94
544.056	7.93
544.251	8.08
544.445	8.15
544.64	8.11
544.834	7.83
545.028	7.68
545.222	8.12
545.417	8.21
545.611	8.09
545.805	8.02
546	7.88
546.194	8.17
546.388	8.13
546.582	8.05
546.776	8
546.97	8.04
547.165	8.07
547.359	8.03
547.553	8.01
547.747	8
547.941	8.2
548.135	8.04
548.329	8.08
548.523	8.12
548.717	8.01
548.911	8
549.105	8.01
549.299	8.13
549.493	8.13
549.687	8.07
549.881	8.19
550.075	8.13
550.269	8.01
550.463	8.12
550.657	8.14
550.85	8.13
551.044	8.02
551.238	8.12
551.432	8.09
551.626	8.06
551.82	8.16
552.013	8.04
552.207	8.2
552.401	8.21
552.594	8.12
552.788	8.07
552.982	8.08
553.176	7.98
553.369	8.2
553.563	8.15
553.756	8.11
553.95	8.13
554.144	8.07
554.337	8.21
554.531	7.96
554.724	8.12
554.918	8.2
555.111	8.12
555.305	8.08
555.498	8.05
555.692	8.22
555.885	8.12
556.079	8.11
556.272	8.14
556.466	8.18
556.659	8.09
556.852	8.14
557.046	8.01
557.239	7.97
557.432	8.08
557.626	8.15
557.819	8.18
558.012	8.16
558.206	8.22
558.399	8.12
558.592	8.1
558.785	8.06
558.979	8.09
559.172	8.08
559.365	8.11
559.558	8.08
559.751	8
559.944	8.2
560.138	8.1
560.331	8.17
560.524	8.13
560.717	8.11
560.91	8.09
561.103	8.14
561.296	8
561.489	8.16
561.682	8.13
561.875	8.16
562.068	8.31
562.261	8.05
562.454	8.26
562.647	8.11
562.84	8.17
563.032	8.16
563.225	7.97
563.418	8.08
563.611	8.15
563.804	8.13
563.997	7.96
564.19	7.86
564.382	8.26
564.575	8.14
564.768	8.01
564.961	8.16
565.153	8.05
565.346	8
565.539	8.18
565.731	8.14
565.924	8.14
566.117	8.29
566.309	8.16
566.502	8.04
566.695	8.02
566.887	8.13
567.08	8.06
567.272	8.15
567.465	7.99
567.657	8.15
567.85	8.03
568.042	8.13
568.235	8.13
568.427	7.98
568.62	8.08
568.812	8.06
569.005	8.07
569.197	7.94
569.389	8.09
569.582	8.08
569.774	8.01
569.966	7.93
570.159	8.01
570.351	7.97
570.543	8.01
570.736	8.01
570.928	7.84
571.12	8.07
571.312	8.04
571.505	7.79
571.697	8.11
571.889	8.02
572.081	8
572.273	7.97
572.465	8.06
572.658	7.99
572.85	7.98
573.042	8.02
573.234	7.93
573.426	7.93
573.618	7.91
573.81	8.03
574.002	7.94
574.194	7.99
574.386	8
574.578	7.78
574.77	7.9
574.962	7.96
575.154	7.77
575.346	7.89
575.538	7.85
575.729	7.83
575.921	7.94
576.113	7.9
576.305	7.93
576.497	8.02
576.689	7.8
576.88	7.81
577.072	7.93
577.264	7.89
577.456	7.84
577.647	7.75
577.839	7.98
578.031	7.9
578.223	7.83
578.414	7.71
578.606	7.85
578.798	7.88
578.989	7.88
579.181	7.9
579.372	7.86
579.564	7.82
579.755	7.79
579.947	7.73
580.139	7.85
580.33	7.69
580.522	7.75
580.713	7.76
580.905	7.71
581.096	7.85
581.287	7.76
581.479	7.76
581.67	7.85
581.862	7.67
582.053	7.77
582.244	7.59
582.436	7.75
582.627	7.7
582.818	7.63
583.01	7.7
583.201	7.68
583.392	7.65
583.583	7.59
583.775	7.56
583.966	7.63
584.157	7.61
584.348	7.71
584.54	7.55
584.731	7.68
584.922	7.53
585.113	7.42
585.304	7.6
585.495	7.6
585.686	7.59
585.877	7.59
586.068	7.65
586.259	7.57
586.45	7.55
586.641	7.51
586.832	7.58
587.023	7.5
587.214	7.53
587.405	7.55
587.596	7.37
587.787	7.34
587.978	7.48
588.169	7.35
588.36	7.3
588.551	7.42
588.742	7.4
588.932	7.42
589.123	7.25
589.314	7.45
589.505	7.33
589.696	7.31
589.886	7.37
590.077	7.3
590.268	7.32
590.458	7.24
590.649	7.09
590.84	7.34
591.03	7.33
591.221	7.26
591.412	7.13
591.602	7.39
591.793	7.19
591.984	7.28
592.174	7.24
592.365	7.43
592.555	7.09
592.746	7.14
592.936	7.13
593.127	7.23
593.317	7.21
593.508	7.21
593.698	7.09
593.889	7.13
594.079	7.1
594.269	7.06
594.46	7.1
594.65	7.19
594.84	7.09
595.031	6.98
595.221	6.96
595.411	7.03
595.602	6.97
595.792	6.97
595.982	6.85
596.172	7.01
596.363	6.92
596.553	6.91
596.743	6.97
596.933	6.93
597.123	6.92
597.314	6.74
597.504	6.76
597.694	6.97
597.884	6.81
598.074	6.86
598.264	6.81
598.454	6.82
598.644	6.74
598.834	6.76
599.024	6.63
599.214	6.72
599.404	6.79
599.594	6.74
599.784	6.63
599.974	6.8
600.164	6.72
600.354	6.61
600.544	6.52
600.734	6.63
600.924	6.63
601.114	6.51
601.303	6.52
601.493	6.51
601.683	6.59
601.873	6.55
602.063	6.5
602.252	6.57
602.442	6.4
602.632	6.43
602.821	6.39
603.011	6.54
603.201	6.44
603.39	6.43
603.58	6.3
603.77	6.43
603.959	6.46
604.149	6.43
604.339	6.36
604.528	6.41
604.718	6.38
604.907	6.24
605.097	6.26
605.286	6.25
605.476	6.26
605.665	6.28
605.855	6.19
606.044	6.31
606.234	6.28
606.423	6.14
606.612	6.16
606.802	6.14
606.991	6.22
607.181	6.19
607.37	6.08
607.559	5.91
607.749	6.16
607.938	6.03
608.127	5.99
608.316	6.03
608.506	6
608.695	6.04
608.884	5.96
609.073	6.02
609.263	6.04
609.452	6
609.641	5.85
609.83	5.83
610.019	6.01
610.208	5.83
610.397	5.86
610.586	5.89
610.775	5.82
610.965	5.83
611.154	5.7
611.343	5.79
611.532	5.71
611.721	5.79
611.91	5.66
612.099	5.69
612.287	5.64
612.476	5.57
612.665	5.79
612.854	5.53
613.043	5.69
613.232	5.6
613.421	5.49
613.61	5.58
613.798	5.57
613.987	5.61
614.176	5.51
614.365	5.56
614.554	5.52
614.742	5.58
614.931	5.33
615.12	5.55
615.309	5.43
615.497	5.35
615.686	5.26
615.875	5.39
616.063	5.35
616.252	5.34
616.44	5.38
616.629	5.33
616.818	5.3
617.006	5.27
617.195	5.24
617.383	5.35
617.572	5.18
617.76	5.18
617.949	5.15
618.137	5.3
618.326	5.26
618.514	5
618.703	5.02
618.891	5.19
619.079	5.09
619.268	5.16
619.456	5.07
619.644	5.15
619.833	5.04
620.021	5.02
620.209	4.92
620.398	5
620.586	4.92
620.774	4.99
620.962	4.93
621.151	5.02
621.339	4.97
621.527	4.86
621.715	4.76
621.903	4.88
622.092	4.79
622.28	4.86
622.468	4.7
622.656	4.79
622.844	4.77
623.032	4.8
623.22	4.64
623.408	4.86
623.596	4.68
623.784	4.77
623.972	4.64
624.16	4.67
624.348	4.76
624.536	4.7
624.724	4.57
624.912	4.66
625.1	4.64
625.288	4.6
625.476	4.53
625.664	4.66
625.851	4.51
626.039	4.53
626.227	4.47
626.415	4.5
626.603	4.43
626.79	4.43
626.978	4.42
627.166	4.49
627.354	4.38
627.541	4.36
627.729	4.27
627.917	4.52
628.104	4.44
628.292	4.31
628.48	4.3
628.667	4.25
628.855	4.41
629.042	4.35
629.23	4.24
629.418	4.25
629.605	4.21
629.793	4.15
629.98	4.19
630.168	4.18
630.355	4.26
630.543	4.14
630.73	4.07
630.917	4.1
631.105	4.23
631.292	4.09
631.48	4.02
631.667	4.21
631.854	4.07
632.042	4.04
632.229	3.96
632.416	4.01
632.604	4.02
632.791	3.85
632.978	3.98
633.165	3.97
633.353	4.02
633.54	4.02
633.727	3.82
633.914	3.89
634.101	3.88
634.289	3.9
634.476	3.84
634.663	3.81
634.85	3.85
635.037	3.74
635.224	3.68
635.411	3.83
635.598	3.73
635.785	3.73
635.972	3.69
636.159	3.72
636.346	3.68
636.533	3.63
636.72	3.66
636.907	3.64
637.094	3.63
637.281	3.51
637.468	3.58
637.655	3.6
637.842	3.59
638.029	3.55
638.215	3.5
638.402	3.6
638.589	3.45
638.776	3.43
638.963	3.42
639.149	3.55
639.336	3.57
639.523	3.44
639.709	3.45
639.896	3.39
640.083	3.39
640.27	3.48
640.456	3.35
640.643	3.34
640.829	3.28
641.016	3.32
641.203	3.22
641.389	3.36
641.576	3.29
641.762	3.26
641.949	3.2
642.135	3.31
642.322	3.25
642.508	3.17
642.695	3.2
642.881	3.15
643.068	3.17
643.254	3.21
643.441	3.24
643.627	3.15
643.813	3.06
644	3.16
644.186	3.03
644.372	3.09
644.559	3.14
644.745	3.02
644.931	2.98
645.118	3.04
645.304	3.02
645.49	2.98
645.676	2.97
645.862	3
646.049	3
646.235	2.94
646.421	3.08
646.607	3.03
646.793	2.84
646.979	2.81
647.165	2.92
647.352	2.95
647.538	2.9
647.724	2.8
647.91	2.84
648.096	2.9
648.282	2.87
648.468	2.8
648.654	2.86
648.84	2.85
649.026	2.82
649.212	2.74
649.397	2.7
649.583	2.68
649.769	2.72
649.955	2.68
650.141	2.71
650.327	2.76
650.513	2.67
650.698	2.65
650.884	2.57
651.07	2.69
651.256	2.68
651.442	2.55
651.627	2.58
651.813	2.62
651.999	2.58
652.184	2.58
652.37	2.53
652.556	2.52
652.741	2.6
652.927	2.46
653.113	2.52
653.298	2.5
653.484	2.51
653.669	2.42
653.855	2.46
654.04	2.54
654.226	2.47
654.412	2.41
654.597	2.34
654.782	2.45
654.968	2.43
655.153	2.38
655.339	2.37
655.524	2.35
655.71	2.41
655.895	2.39
656.08	2.35
656.266	2.42
656.451	2.31
656.636	2.26
656.822	2.34
657.007	2.33
657.192	2.29
657.378	2.23
657.563	2.2
657.748	2.27
657.933	2.21
658.118	2.16
658.304	2.16
658.489	2.3
658.674	2.28
658.859	2.1
659.044	2.22
659.229	2.22
659.414	2.14
659.599	2.18
659.785	2.1
659.97	2.12
660.155	2.16
660.34	2.19
660.525	2.1
660.71	2.09
660.895	2.15
661.08	2.07
661.264	2.02
661.449	2.12
661.634	2.08
661.819	2.08
662.004	2.05
662.189	1.99
662.374	1.97
662.559	1.93
662.743	1.88
662.928	1.99
663.113	1.95
663.298	1.94
663.483	1.93
663.667	1.91
663.852	1.89
664.037	1.99
664.221	1.89
664.406	1.95
664.591	1.94
664.775	1.95
664.96	1.86
665.145	1.83
665.329	1.94
665.514	1.82
665.698	1.79
665.883	1.73
666.068	1.94
666.252	1.82
666.437	1.81
666.621	1.8
666.806	1.84
666.99	1.83
667.174	1.77
667.359	1.91
667.543	1.82
667.728	1.75
667.912	1.65
668.096	1.81
668.281	1.73
668.465	1.73
668.649	1.74
668.834	1.67
669.018	1.74
669.202	1.72
669.387	1.65
669.571	1.78
669.755	1.68
669.939	1.65
670.124	1.6
670.308	1.75
670.492	1.68
670.676	1.62
670.86	1.59
671.044	1.6
671.228	1.71
671.413	1.59
671.597	1.52
671.781	1.61
671.965	1.67
672.149	1.57
672.333	1.55
672.517	1.54
672.701	1.62
672.885	1.57
673.069	1.42
673.253	1.65
673.437	1.54
673.621	1.51
673.804	1.56
673.988	1.56
674.172	1.51
674.356	1.4
674.54	1.55
674.724	1.6
674.908	1.48
675.091	1.52
675.275	1.46
675.459	1.56
675.643	1.47
675.826	1.44
676.01	1.46
676.194	1.46
676.377	1.52
676.561	1.51
676.745	1.46
676.928	1.43
677.112	1.54
677.296	1.43
677.479	1.41
677.663	1.36
677.846	1.47
678.03	1.43
678.213	1.33
678.397	1.44
678.58	1.36
678.764	1.35
678.947	1.29
679.131	1.34
679.314	1.34
679.498	1.34
679.681	1.36
679.865	1.41
680.048	1.3
680.231	1.29
680.415	1.29
680.598	1.32
680.781	1.29
680.965	1.28
681.148	1.3
681.331	1.27
681.514	1.33
681.698	1.25
681.881	1.24
682.064	1.29
682.247	1.34
682.43	1.2
682.614	1.26
682.797	1.35
682.98	1.29
683.163	1.12
683.346	1.26
683.529	1.21
683.712	1.18
683.895	1.25
684.078	1.13
684.261	1.2
684.444	1.23
684.627	1.24
684.81	1.14
684.993	1.14
685.176	1.23
685.359	1.11
685.542	1.13
685.725	1.25
685.908	1.16
686.091	1.14
686.274	1.19
686.457	1.22
686.639	1.12
686.822	1.17
687.005	1.11
687.188	1.2
687.371	1.25
687.553	1.2
687.736	1.18
687.919	1.24
688.102	1.24
688.284	1.07
688.467	1.07
688.65	1.03
688.832	1.03
689.015	1.01
689.197	0.93
689.38	1.2
689.563	1.18
689.745	0.9
689.928	0.98
690.11	1.05
690.293	1.12
690.475	0.95
690.658	1.07
690.84	1.06
691.023	1.04
691.205	0.97
691.388	1.07
691.57	1.08
691.752	1.13
691.935	0.91
692.117	0.94
692.3	1.02
692.482	1
692.664	0.89
692.847	0.96
693.029	1.12
693.211	1.02
693.393	0.94
693.576	0.91
693.758	1
693.94	0.97
694.122	0.92
694.304	0.93
694.487	0.9
694.669	1.03
694.851	0.84
695.033	0.93
695.215	0.94
695.397	0.9
695.579	0.92
695.761	0.81
695.943	0.87
696.125	1
696.308	0.93
696.49	0.78
696.671	1.09
696.853	0.92
697.035	1.15
697.217	0.87
697.399	0.97
697.581	0.8
697.763	0.87
697.945	0.79
698.127	0.94
698.309	0.99
698.491	0.88
698.672	0.92
698.854	0.95
699.036	0.97
699.218	0.88
699.399	0.93
699.581	0.97
699.763	0.84
699.945	0.81
700.126	0.71
700.308	0.86
700.49	0.84
700.671	0.72
700.853	0.73
701.035	0.78
701.216	0.82
701.398	0.76
701.579	0.7
701.761	0.87
701.943	0.76
702.124	0.79
702.306	0.78
702.487	0.95
702.669	0.84
702.85	0.78
703.031	0.7
703.213	0.89
703.394	0.89
703.576	0.77
703.757	0.95
703.938	0.78
704.12	0.99
704.301	0.69
704.483	0.69
704.664	0.78
704.845	0.91
705.026	0.87
705.208	0.75
705.389	0.79
705.57	0.83
705.751	0.79
705.933	0.78
706.114	0.83
706.295	0.77
706.476	0.6
706.657	0.89
706.838	0.79
707.02	0.82
707.201	0.74
707.382	0.71
707.563	0.8
707.744	0.65
707.925	0.66
708.106	0.64
708.287	0.74
708.468	0.88
708.649	0.72
708.83	0.7
709.011	0.7
709.192	0.8
709.373	0.63
709.554	0.66
709.734	0.83
709.915	0.75
710.096	0.68
710.277	0.56
710.458	0.69
710.639	0.79
710.819	0.59
711	0.61
711.181	0.76
711.362	0.76
711.542	0.74
711.723	0.65
711.904	0.67
712.085	0.74
712.265	0.69
712.446	0.59
712.627	0.67
712.807	0.55
712.988	0.68
713.168	0.53
713.349	0.7
713.53	0.46
713.71	0.51
713.891	0.49
714.071	0.66
714.252	0.6
714.432	0.58
714.613	0.55
714.793	0.68
714.974	0.79
715.154	0.69
715.334	0.6
715.515	0.71
715.695	0.62
715.876	0.57
716.056	0.53
716.236	0.59
716.417	0.6
716.597	0.61
716.777	0.86
716.957	0.58
717.138	0.64
717.318	0.58
717.498	0.47
717.678	0.63
717.859	0.58
718.039	0.54
718.219	0.54
718.399	0.5
718.579	0.6
718.759	0.47
718.939	0.58
719.12	0.66
719.3	0.56
719.48	0.5
719.66	0.45
719.84	0.71
720.02	0.55
720.2	0.43
720.38	0.58
720.56	0.76
720.74	0.44
720.92	0.55
721.1	0.71
721.279	0.66
721.459	0.65
721.639	0.49
721.819	0.58
721.999	0.54
722.179	0.66
722.359	0.38
722.538	0.5
722.718	0.54
722.898	0.55
723.078	0.57
723.257	0.53
723.437	0.61
723.617	0.53
723.797	0.52
723.976	0.59
724.156	0.7
724.336	0.66
724.515	0.8
724.695	0.51
724.874	0.52
725.054	0.71
725.234	0.49
725.413	0.46
725.593	0.54
725.772	0.47
725.952	0.48
726.131	0.45
726.311	0.59
726.49	0.53
726.67	0.42
726.849	0.51
727.028	0.64
727.208	0.48
727.387	0.5
727.567	0.43
727.746	0.52
727.925	0.49
728.105	0.38
728.284	0.47
728.463	0.56
728.643	0.59
728.822	0.4
729.001	0.51
729.18	0.58
729.359	0.58
729.539	0.49
729.718	0.52
729.897	0.61
730.076	0.52
730.255	0.42
730.434	0.52
730.614	0.59
730.793	0.6
730.972	0.48
731.151	0.48
731.33	0.6
731.509	0.57
731.688	0.46
731.867	0.54
732.046	0.33
732.225	0.77
732.404	0.44
732.583	0.29
732.762	0.56
732.941	0.65
733.12	0.46
733.298	0.49
733.477	0.63
733.656	0.49
733.835	0.38
734.014	0.56
734.193	0.53
734.371	0.52
734.55	0.54
734.729	0.43
734.908	0.51
735.086	0.49
735.265	0.63
735.444	0.25
735.623	0.44
735.801	0.4
735.98	0.47
736.159	0.44
736.337	0.54
736.516	0.62
736.694	0.55
736.873	0.48
737.052	0.7
737.23	0.6
737.409	0.36
737.587	0.64
737.766	0.33
737.944	0.51
738.123	0.56
738.301	0.53
738.479	0.41
738.658	0.44
738.836	0.28
739.015	0.4
739.193	0.68
739.371	0.27
739.55	0.44
739.728	0.37
739.906	0.58
740.085	0.67
740.263	0.56
740.441	0.23
740.62	0.6
740.798	0.55
740.976	0.48
741.154	0.39
741.332	0.77
741.511	0.55
741.689	0.46
741.867	0.57
742.045	0.48
742.223	0.39
742.401	0.37
742.579	0.38
742.757	0.63
742.935	0.29
743.114	0.45
743.292	0.42
743.47	0.44
743.648	0.53
743.826	0.55
744.004	0.56
744.181	0.56
744.359	0.47
744.537	0.51
744.715	0.38
744.893	0.53
745.071	0.49
745.249	0.38
745.427	0.35
745.605	0.54
745.782	0.58
745.96	0.56
746.138	0.58
746.316	0.62
746.493	0.48
746.671	0.38
746.849	0.29
747.027	0.78
747.204	0.35
747.382	0.39
747.56	0.3
747.737	0.38
747.915	0.41
748.093	0.56
748.27	0.3
748.448	0.42
748.625	0.26
748.803	0.41
748.98	0.38
749.158	0.58
749.335	0.59
749.513	0.37
749.69	0.3
749.868	0.56
750.045	0.46
750.223	0.34
750.4	0.21
750.578	0.6
750.755	0.33
750.932	0.26
751.11	0.63
751.287	0.32
751.464	0.62
751.642	0.25
751.819	0.41
751.996	0.5
752.173	0.4
752.351	0.29
752.528	0.41
752.705	0.35
752.882	0.4
753.06	0.5
753.237	0.48
753.414	0.67
753.591	0.65
753.768	0.46
753.945	0.26
754.122	0.37
754.299	0.52
754.476	0.38
754.654	0.3
754.831	0.62
755.008	0.46
755.185	0.31
755.362	0.29
755.539	0.49
755.716	0.51
755.892	0.37
756.069	0.44
756.246	0.36
756.423	0.42
756.6	0.5
756.777	0.25
756.954	0.49
757.131	0.31
757.307	0.32
757.484	0.24
757.661	0.41
757.838	0.42
758.015	0.18
758.191	0.47
758.368	0.58
758.545	0.6
758.721	0.41
758.898	0.16
759.075	0.4
759.251	0.59
759.428	0.39
759.605	0.15
759.781	0.41
759.958	0.51
760.134	0.39
760.311	0.42
760.488	0.71
760.664	0.61
760.841	0.28
761.017	0.26
761.194	0.51
761.37	0.5
761.547	0.33
761.723	0.41
761.899	0.6
762.076	0.16
762.252	0.22
762.429	0.34
762.605	0.55
762.781	0.36
762.958	0.53
763.134	0.25
763.31	0.34
763.486	0.68
763.663	0.09
763.839	0.44
764.015	0.18
764.191	0.37
764.368	0.47
764.544	0.22
764.72	0.51
764.896	0.49
765.072	0.44
765.248	0.35
765.425	0.47
765.601	0.43
765.777	0.4
765.953	0.07
766.129	0.27
766.305	0.32
766.481	0.41
766.657	0.3
766.833	0.54
767.009	0.19
767.185	0.4
767.361	0.31
767.537	0.2
767.713	0.61
767.889	0.25
768.065	0.35
768.24	0.1
768.416	0.54
768.592	0.27
768.768	0.37
768.944	0.48
769.12	0.27
769.295	0.29
769.471	0.45
769.647	0.4
769.823	0.68
769.998	0.18
770.174	0.16
770.35	0.9
770.525	0.83
770.701	0.4
770.877	0.34
771.052	0.4
771.228	0.63
771.403	0.47
771.579	0.47
771.755	0.85
771.93	0.24
772.106	0.23
772.281	0.07
772.457	0.42
772.632	0.67
772.808	0.14
772.983	0.35
773.159	0.12
773.334	0.59
773.509	0.29
773.685	0.17
773.86	0.88
774.036	0.68
774.211	0.42
774.386	0.28
774.562	0.46
774.737	0.54
774.912	0.1
775.087	0.49
775.263	0.37
775.438	0.44
775.613	0.4
775.788	0.33
775.964	0.53
776.139	1.02
776.314	0.2
776.489	0.44
776.664	0.33
776.839	0.32
777.014	0.51
777.19	0.52
777.365	0.79
777.54	0.86
777.715	0.36
777.89	0.43
778.065	0.34
778.24	0.34
778.415	0.57
778.59	0.27
778.765	0.36
778.94	0.57
779.115	0.4
779.289	0.24
779.464	0.47
779.639	0.23
779.814	0.05
779.989	0.13
780.164	0.66
780.339	0.49
780.513	0.37
780.688	0.28
780.863	0.55
781.038	0.7
781.212	0.17
781.387	0.38
781.562	0.84
781.737	0.17
781.911	0.76
782.086	0.25
782.261	0.35
782.435	0.81
782.61	0.28
782.784	0.32
782.959	0.82
783.134	0.28
783.308	0.19
783.483	0.26
783.657	1.11
783.832	0.6
784.006	0.09
784.181	0.46
784.355	0.65
784.53	0.3
784.704	0.13
784.878	0.68
785.053	0.73
785.227	0.62
785.402	0.72
785.576	0.21
785.75	0.4
785.925	0.27
786.099	0.53
786.273	0.52
786.448	0.72
786.622	0.74
786.796	0.15
786.97	0.48
787.145	1.08
787.319	0.3
787.493	0.4
787.667	0.11
787.841	0.3
788.015	0.87
788.19	0.28
788.364	0.38
788.538	0.82
788.712	0.66
788.886	0.11
789.06	0.5
789.234	0.78
789.408	0.25
789.582	0.36
789.756	0.19
789.93	0.51
790.104	0.35
790.278	0.43
790.452	0.2
790.626	0.35
790.8	0.32
790.973	0.67
791.147	0.81
791.321	0.89
791.495	0.71
791.669	0.6
791.843	0.77
792.016	0.49
792.19	1.06
792.364	0.38
792.538	1.22
792.711	0.6
792.885	0.23
793.059	0.12
793.233	-0.31
793.406	0.89
793.58	0.43
793.754	0.54
793.927	0.25
794.101	0.74
794.274	0.46
794.448	0.88
794.622	0.26
794.795	1.03
794.969	0.28
795.142	0.9
795.316	0.28
795.489	0.23
795.663	1.02
795.836	0.57
796.009	0.19
796.183	0.92
796.356	0.71
796.53	0.67
796.703	0.48
796.876	1.13
797.05	0.36
797.223	0.24
797.396	0.47
797.57	0.5
797.743	1.14
797.916	0.52
798.09	0.31
798.263	1.18
798.436	0.57
798.609	0.36
798.782	0.34
798.956	0.68
799.129	0.56
799.302	0.3
799.475	0.42
799.648	0.23
799.821	0.34
799.994	0.5
800.167	-0.12
800.34	0.25
800.514	0.47
800.687	0.3
800.86	0.42
801.033	0.62
801.206	0.68
801.379	0.33
801.551	0.66
801.724	0.83
801.897	1.12
802.07	0.39
802.243	0.17
802.416	0.61
802.589	0.72
802.762	0.58
802.935	0.46
803.107	0.88
803.28	1.35
803.453	0.57
803.626	0.41
803.798	0.54
803.971	0.34
804.144	0.6
804.317	0.41
804.489	1.23
804.662	0.95
804.835	0.65
805.007	0.17
805.18	1.1
805.353	0.54
805.525	0.25
805.698	0.27
805.87	1.1
806.043	0.94
806.215	0.1
806.388	0.11
806.56	0.67
806.733	1.16
806.905	0.65
807.078	0.45
807.25	0.39
807.423	0.7
807.595	0.74
807.768	0.65
807.94	0.87
808.112	1.13
808.285	0.57
808.457	0.33
808.629	0.85
808.802	1.01
808.974	0.43
809.146	0.14
809.318	0.39
809.491	0.73
809.663	0.98
809.835	0.53
810.007	0.53
810.18	0.68
810.352	-0.16
810.524	0.6
810.696	1.04
810.868	1.19
811.04	0.67
811.212	0.26
811.384	1.18
811.556	1.01
811.728	0.61
811.901	1.75
812.073	0.73
812.245	0.81
812.417	0.59
812.589	0.01
812.76	0.74
812.932	1.01
813.104	1.21
813.276	0.62
813.448	1.26
813.62	0.64
813.792	0.56
813.964	0.57
814.136	0.74
814.307	0.73
814.479	0.37
814.651	0.19
814.823	1.56
814.995	0.47
815.166	0.77
815.338	0.3
815.51	0.1
815.681	1.97
815.853	0.87
816.025	0.39
816.196	1.52
816.368	1.25
816.54	0.41
816.711	0.48
816.883	1.15
817.054	2.14
817.226	0.14
817.398	1.17
817.569	0.44
817.741	0.9
817.912	0.5
818.084	0.33
818.255	1.05
818.426	0.38
818.598	0.74
818.769	-0.23
818.941	1.03
819.112	1.47
819.283	0.77
819.455	-0.07
819.626	0.86
819.798	0.8
819.969	0.78
820.14	0.41
820.311	0.52
820.483	0.98
820.654	0.71
820.825	0.94
820.996	0.99
821.168	0.21
821.339	0.13
821.51	0.21
821.681	0.39
821.852	0.76
822.023	-0.02
822.195	-0.22
822.366	1.52
822.537	0.85
822.708	0.86
822.879	0.57
823.05	1.44
823.221	0.49
823.392	0.77
823.563	1.32
823.734	0.84
823.905	0.72
824.076	1.15
824.247	0.15
824.418	0.33
824.589	1.89
824.759	0.71
824.93	0.98
825.101	0.14
825.272	2
825.443	1.56
825.614	1.79
825.784	-0.18
825.955	2.31
826.126	1.42
826.297	1.1
826.467	2
826.638	2.62
826.809	0.09
826.98	0.7
827.15	0.97
827.321	1.52
827.492	1.44
827.662	0.31
827.833	2.73
828.003	1.81
828.174	0.02
828.345	-0.23
828.515	1.44
828.686	0.64
828.856	0.57
829.027	0.52
829.197	2.19
829.368	1.32
829.538	0.03
829.709	0.76
829.879	0.86
830.049	1.18
830.22	0.76
830.39	0.81
830.56	1.29
830.731	0.33
830.901	-0.04
831.072	0.16
831.242	1.05
831.412	1.69
831.582	0.42
831.753	-0.35
831.923	1.92
832.093	1.54
832.263	1.23
832.434	0.18
832.604	0.5
832.774	1.77
832.944	0.7
833.114	0.85
833.284	1.62
833.454	0.69
833.624	0.47
833.795	0.17
833.965	1.71
834.135	2.33
834.305	-0.25
834.475	-0.09
834.645	1.08
834.815	1.55
834.985	0.06
835.155	0.38
835.325	1.66
835.494	1.52
835.664	0.82
835.834	0.35
836.004	1.32
836.174	1.3
836.344	0.88
836.514	0.24
836.684	0.72
836.853	0.94
837.023	1.33
837.193	0.11
837.363	2.12
837.532	2.3
837.702	0.7
837.872	0.19
838.041	2.02
838.211	1.66
838.381	0.04
838.55	0.82
838.72	3.59
838.89	2.53
839.059	0.41
839.229	0.07
839.398	3.76
839.568	1.86
839.738	0.36
839.907	2.12
840.077	1.02
840.246	0.56
840.416	-0.33
840.585	-0.47
840.755	2.81
840.924	2.73
841.093	0.08
841.263	0.61
841.432	1.4
841.602	0.56
841.771	0.01
841.94	0.65
842.11	3.58
842.279	3.23
842.448	1
842.617	-0.33
842.787	3
842.956	0.4
843.125	0.1
843.294	0.99
843.464	2.37
843.633	1.9
843.802	0.31
843.971	1.45
844.14	2.49
844.309	3.09
844.479	-0.44
844.648	0.23
844.817	1.47
844.986	1.45
845.155	0.89
845.324	0.54
845.493	0.4
845.662	0.66
845.831	1.42
846	1.52
846.169	1.11
846.338	3.48
846.507	0.91
846.676	1.37
846.844	0.98
847.013	2.84
847.182	1.84
847.351	0.65
847.52	1.03
847.689	1.58
847.858	0.53
848.026	0.71
848.195	1.6
848.364	0.8
848.533	-0.22
848.701	-0.26
848.87	1.53
849.039	2.98
849.207	1.51
849.376	2.15
849.545	3.54
849.713	0.91
849.882	1.8
850.051	1.14
850.219	1.36
850.388	2.25
850.556	0.79
850.725	0.43
850.893	1.77
851.062	0.22
851.23	2.16
851.399	0.05
851.567	2.17
851.736	1.5
851.904	-0.06
852.073	1.27
852.241	2.91
852.41	2.07
852.578	0.05
852.746	1.29
852.915	2.15
853.083	1.45
853.251	0.18
853.42	1.79
853.588	2.06
853.756	2.73
853.924	1.26
854.093	1.09
854.261	0.92
854.429	-0.03
854.597	0.76
854.765	1.3
854.934	2.61
855.102	2.87
855.27	1.12
855.438	1.46
855.606	3.15
855.774	4.14
855.942	-0.46
856.11	0.22
856.278	1.95
856.446	2.15
856.614	1.83
856.782	0.07
856.95	3.15
857.118	2.64
857.286	1.96
857.454	1.21
857.622	3.28
857.79	3.08
857.958	0.67
858.126	0.94
858.294	-1.52
858.462	1.82
858.629	-0.04
858.797	-0.19
858.965	2.75
859.133	2.36
859.301	1.46
859.468	2.29
859.636	0.44
859.804	4.2
859.971	2.85
860.139	0.81
860.307	3.29
860.474	2.32
860.642	0.29
860.81	-0.1
860.977	2.28
861.145	3.42
861.313	0.79
861.48	1.75
861.648	2.99
861.815	0.99
861.983	1
862.15	1.55
862.318	2.75
862.485	4.28
862.653	0.12
862.82	-0.1
862.988	3.83
863.155	2.27
863.322	1.41
863.49	0.44
863.657	0.81
863.824	4.93
863.992	1.44
864.159	2.14
864.326	4.11
864.494	2.1
864.661	4.66
864.828	0.9
864.996	4.51
865.163	4.01
865.33	1.5
865.497	-0.81
865.664	0.41
865.832	-0.24
865.999	3.22
866.166	-0.24
866.333	1.56
866.5	1.6
866.667	0.38
866.834	2.08
867.001	4.63
867.168	-0.86
867.335	1.82
867.502	0.3
867.669	2.85
867.836	6.04
868.003	0.73
868.17	2.45
868.337	0.5
868.504	6.85
868.671	-1.51
868.838	1.52
869.005	4.41
869.172	3.39
869.339	2.36
869.505	2.09
869.672	3.34
869.839	5.59
870.006	2.2
870.173	-0.69
870.339	2.66
870.506	5.53
870.673	1.68
870.84	3.12
871.006	3.43
871.173	1.28
871.34	1.8
871.506	0.06
871.673	3.05
871.839	0.37
872.006	3.05
872.173	0.57
872.339	1.76
872.506	4.61
872.672	1.27
872.839	-0.51
873.005	3.95
873.172	6.19
873.338	3.18
873.505	2.04
873.671	4.6
873.838	3.85
874.004	-0.72
874.171	-0.52
874.337	3.6
874.503	4.63
874.67	2.25
874.836	2.29
875.002	5.25
875.169	3.64
875.335	2.08
875.501	1.62
875.668	3.3
875.834	1.16
876	0.61
876.166	1.4
876.332	2.52
876.499	7.57
876.665	0.17
876.831	0.87
876.997	5.74
877.163	2.95
877.329	0.01
877.495	1.71
877.662	4.26
877.828	2.21
877.994	1.32
878.16	-0.69
878.326	1.21
878.492	3.08
878.658	1.01
878.824	3.74
878.99	3.41
879.156	2.26
879.322	4.75
879.487	2.48
879.653	4.05
879.819	3.16
879.985	1.59
880.151	2.98
880.317	3.88
880.483	2.16
880.648	2.96
880.814	0.18
880.98	3.29
881.146	-2.36
881.312	0.57
881.477	1.92
881.643	2.11
881.809	3.14
881.974	5.03
882.14	-1.93
882.306	1.97
882.471	7.32
882.637	-0.2
882.803	1.71
882.968	5.97
883.134	8.33
883.299	1.56
883.465	2.83
883.63	3.76
883.796	4.76
883.961	3.59
884.127	4.03
884.292	-1.79
884.458	0.38
884.623	0.38
