Data from Apollo_Calib_20240827__AbsoluteIrradiance__879__13-48-01-158.txt Node

Date: Wed Aug 28 13:48:01 BST 2024
User: biology
Spectrometer: FLMT08252
Trigger mode: 0
Integration Time (sec): 5.000000E-1
Scans to average: 5
Electric dark correction enabled: true
Nonlinearity correction enabled: false
Boxcar width: 0
XAxis mode: Wavelengths
Number of Pixels in Spectrum: 3648
>>>>>Begin Spectral Data<<<<<
179.588	-0
179.809	-0
180.03	-0
180.251	-0
180.473	-0
180.694	0
180.915	0
181.136	-0
181.357	0
181.578	-0
181.799	-0
182.02	-0
182.241	0
182.462	-0
182.683	0
182.904	-0
183.125	-0
183.346	0
183.567	0
183.788	0
184.009	0
184.23	0
184.451	0
184.672	0
184.892	0
185.113	0
185.334	0
185.555	0
185.776	0
185.996	0
186.217	0
186.438	0
186.659	0
186.879	0
187.1	0
187.321	0
187.541	0
187.762	0
187.983	0
188.203	0
188.424	0
188.644	0
188.865	0
189.086	0
189.306	0
189.527	0
189.747	0
189.968	0
190.188	0
190.409	0
190.629	0
190.849	0
191.07	0
191.29	0
191.511	0
191.731	0
191.951	0
192.172	0
192.392	0
192.612	0
192.833	0
193.053	0
193.273	0
193.493	0
193.714	0
193.934	0
194.154	0
194.374	0
194.594	0
194.815	0
195.035	0
195.255	0
195.475	0
195.695	0
195.915	0
196.135	0
196.355	0
196.575	0
196.795	0
197.015	0
197.235	0
197.455	0
197.675	0
197.895	0
198.115	0
198.335	0
198.555	0
198.775	0
198.995	0
199.214	0
199.434	0
199.654	0
199.874	0
200.094	4.75
200.313	2.38
200.533	2.12
200.753	1.69
200.973	3.57
201.192	3.7
201.412	1.25
201.632	1.85
201.851	3.47
202.071	1.9
202.291	1.36
202.51	1.06
202.73	2.76
202.95	2
203.169	1.16
203.389	1.93
203.608	2.13
203.828	1.93
204.047	1.14
204.267	2.26
204.486	2.3
204.706	2.32
204.925	1.83
205.145	1.29
205.364	2.03
205.583	2.83
205.803	1.02
206.022	1.08
206.242	1.76
206.461	2.04
206.68	1.29
206.9	1.45
207.119	2.47
207.338	2.27
207.557	1.13
207.777	1.11
207.996	1.35
208.215	2.14
208.434	1.23
208.654	1
208.873	1.31
209.092	2.07
209.311	1.08
209.53	1.13
209.749	1.41
209.968	1.24
210.187	0.79
210.407	0.62
210.626	1.02
210.845	1.48
211.064	1.12
211.283	0.79
211.502	1.76
211.721	1.23
211.94	0.86
212.159	1.29
212.377	1.27
212.596	1.51
212.815	1.24
213.034	1.07
213.253	1.26
213.472	1.38
213.691	0.83
213.91	0.61
214.128	0.66
214.347	1.48
214.566	0.46
214.785	0.63
215.003	1.3
215.222	1.18
215.441	0.8
215.66	0.5
215.878	0.81
216.097	1.18
216.316	0.66
216.534	0.95
216.753	1.16
216.972	0.92
217.19	0.77
217.409	0.67
217.627	0.89
217.846	0.81
218.064	0.75
218.283	0.68
218.501	1.34
218.72	1.13
218.938	0.68
219.157	0.56
219.375	0.91
219.594	1.26
219.812	0.53
220.031	0.53
220.249	1.38
220.467	1.15
220.686	0.51
220.904	0.43
221.122	0.69
221.341	1.32
221.559	0.57
221.777	0.49
221.995	0.85
222.214	1.06
222.432	0.51
222.65	0.87
222.868	0.78
223.086	0.85
223.305	0.74
223.523	0.51
223.741	1.21
223.959	0.68
224.177	0.38
224.395	0.56
224.613	0.83
224.831	1.01
225.049	0.48
225.267	0.65
225.485	0.78
225.703	0.66
225.921	0.62
226.139	0.47
226.357	0.68
226.575	0.79
226.793	0.42
227.011	1.56
227.229	0.78
227.447	0.9
227.665	0.51
227.883	0.33
228.1	0.69
228.318	0.75
228.536	0.27
228.754	0.46
228.972	0.69
229.189	0.71
229.407	0.59
229.625	0.6
229.843	0.94
230.06	0.73
230.278	0.61
230.496	0.56
230.713	0.71
230.931	0.78
231.149	0.46
231.366	0.28
231.584	0.48
231.801	1.09
232.019	0.49
232.236	0.22
232.454	0.43
232.671	0.52
232.889	0.47
233.106	0.37
233.324	0.61
233.541	0.54
233.759	0.56
233.976	0.41
234.194	0.55
234.411	0.59
234.628	0.36
234.846	0.41
235.063	0.59
235.28	0.51
235.498	0.51
235.715	0.28
235.932	0.76
236.149	0.5
236.367	0.35
236.584	0.58
236.801	0.57
237.018	0.61
237.236	0.53
237.453	0.29
237.67	0.69
237.887	0.52
238.104	0.5
238.321	0.31
238.538	0.46
238.755	0.64
238.973	0.25
239.19	0.51
239.407	0.62
239.624	0.51
239.841	0.35
240.058	0.37
240.275	0.58
240.492	0.52
240.709	0.47
240.925	0.44
241.142	0.47
241.359	0.28
241.576	0.32
241.793	0.41
242.01	0.42
242.227	0.67
242.444	0.58
242.66	0.65
242.877	0.54
243.094	0.38
243.311	0.43
243.527	0.33
243.744	0.47
243.961	0.61
244.178	0.4
244.394	0.35
244.611	0.59
244.828	0.83
245.044	0.3
245.261	0.38
245.477	0.5
245.694	0.59
245.911	0.42
246.127	0.45
246.344	0.77
246.56	0.48
246.777	0.39
246.993	0.44
247.21	0.51
247.426	0.47
247.643	0.31
247.859	0.3
248.076	0.31
248.292	0.65
248.508	0.25
248.725	0.41
248.941	0.45
249.157	0.54
249.374	0.34
249.59	0.33
249.806	0.41
250.023	0.44
250.239	0.29
250.455	0.31
250.671	0.41
250.888	0.51
251.104	0.46
251.32	0.3
251.536	0.35
251.752	0.41
251.969	0.42
252.185	0.39
252.401	0.62
252.617	0.44
252.833	0.38
253.049	0.37
253.265	0.46
253.481	0.46
253.697	0.31
253.913	0.3
254.129	0.41
254.345	0.46
254.561	0.39
254.777	0.37
254.993	0.47
255.209	0.44
255.425	0.33
255.641	0.25
255.857	0.51
256.073	0.4
256.288	0.26
256.504	0.29
256.72	0.44
256.936	0.57
257.152	0.32
257.367	0.26
257.583	0.35
257.799	0.5
258.015	0.33
258.23	0.32
258.446	0.6
258.662	0.3
258.877	0.28
259.093	0.26
259.309	0.47
259.524	0.44
259.74	0.24
259.955	0.23
260.171	0.37
260.387	0.38
260.602	0.4
260.818	0.44
261.033	0.29
261.249	0.46
261.464	0.35
261.68	0.3
261.895	0.43
262.11	0.39
262.326	0.35
262.541	0.25
262.757	0.54
262.972	0.46
263.187	0.34
263.403	0.39
263.618	0.48
263.833	0.42
264.049	0.31
264.264	0.33
264.479	0.38
264.694	0.5
264.91	0.3
265.125	0.31
265.34	0.43
265.555	0.57
265.77	0.41
265.986	0.33
266.201	0.46
266.416	0.45
266.631	0.31
266.846	0.25
267.061	0.49
267.276	0.48
267.491	0.13
267.706	0.38
267.921	0.43
268.136	0.45
268.351	0.34
268.566	0.22
268.781	0.47
268.996	0.47
269.211	0.29
269.426	0.31
269.641	0.34
269.856	0.47
270.071	0.26
270.285	0.19
270.5	0.46
270.715	0.49
270.93	0.29
271.145	0.33
271.359	0.41
271.574	0.35
271.789	0.31
272.004	0.29
272.218	0.27
272.433	0.37
272.648	0.31
272.862	0.44
273.077	0.34
273.292	0.35
273.506	0.22
273.721	0.28
273.936	0.41
274.15	0.46
274.365	0.27
274.579	0.37
274.794	0.43
275.008	0.43
275.223	0.2
275.437	0.26
275.652	0.44
275.866	0.42
276.081	0.3
276.295	0.36
276.509	0.38
276.724	0.31
276.938	0.27
277.153	0.3
277.367	0.38
277.581	0.21
277.796	0.33
278.01	0.18
278.224	0.41
278.438	0.49
278.653	0.24
278.867	0.27
279.081	0.36
279.295	0.3
279.51	0.33
279.724	0.19
279.938	0.36
280.152	0.34
280.366	0.24
280.58	0.29
280.794	0.49
281.008	0.4
281.222	0.33
281.437	0.46
281.651	0.35
281.865	0.4
282.079	0.26
282.293	0.13
282.507	0.24
282.721	0.3
282.935	0.26
283.148	0.22
283.362	0.31
283.576	0.23
283.79	0.25
284.004	0.22
284.218	0.4
284.432	0.24
284.646	0.35
284.859	0.24
285.073	0.29
285.287	0.35
285.501	0.28
285.714	0.26
285.928	0.29
286.142	0.36
286.356	0.24
286.569	0.25
286.783	0.36
286.997	0.35
287.21	0.31
287.424	0.28
287.637	0.26
287.851	0.28
288.065	0.31
288.278	0.29
288.492	0.26
288.705	0.23
288.919	0.31
289.132	0.14
289.346	0.36
289.559	0.18
289.773	0.19
289.986	0.28
290.2	0.24
290.413	0.31
290.626	0.27
290.84	0.28
291.053	0.29
291.267	0.35
291.48	0.26
291.693	0.27
291.906	0.23
292.12	0.26
292.333	0.22
292.546	0.25
292.76	0.37
292.973	0.26
293.186	0.31
293.399	0.21
293.612	0.38
293.826	0.32
294.039	0.23
294.252	0.21
294.465	0.37
294.678	0.33
294.891	0.27
295.104	0.2
295.317	0.23
295.53	0.29
295.743	0.21
295.956	0.24
296.169	0.42
296.382	0.35
296.595	0.24
296.808	0.22
297.021	0.37
297.234	0.31
297.447	0.27
297.66	0.27
297.873	0.35
298.086	0.34
298.299	0.24
298.511	0.18
298.724	0.32
298.937	0.2
299.15	0.21
299.363	0.24
299.575	0.33
299.788	0.29
300.001	0.21
300.213	0.18
300.426	0.22
300.639	0.22
300.852	0.19
301.064	0.3
301.277	0.36
301.489	0.32
301.702	0.27
301.915	0.24
302.127	0.28
302.34	0.28
302.552	0.3
302.765	0.22
302.977	0.32
303.19	0.2
303.402	0.21
303.615	0.18
303.827	0.25
304.04	0.28
304.252	0.29
304.464	0.22
304.677	0.4
304.889	0.34
305.102	0.22
305.314	0.16
305.526	0.26
305.739	0.29
305.951	0.22
306.163	0.23
306.375	0.38
306.588	0.23
306.8	0.17
307.012	0.22
307.224	0.27
307.436	0.36
307.649	0.14
307.861	0.27
308.073	0.31
308.285	0.25
308.497	0.21
308.709	0.21
308.921	0.31
309.133	0.32
309.346	0.26
309.558	0.27
309.77	0.33
309.982	0.37
310.194	0.24
310.406	0.16
310.617	0.41
310.829	0.26
311.041	0.31
311.253	0.21
311.465	0.29
311.677	0.25
311.889	0.23
312.101	0.2
312.313	0.36
312.524	0.36
312.736	0.21
312.948	0.25
313.16	0.38
313.372	0.3
313.583	0.28
313.795	0.28
314.007	0.28
314.218	0.31
314.43	0.27
314.642	0.19
314.853	0.17
315.065	0.3
315.277	0.2
315.488	0.29
315.7	0.34
315.912	0.32
316.123	0.26
316.335	0.24
316.546	0.41
316.758	0.24
316.969	0.22
317.181	0.27
317.392	0.26
317.604	0.32
317.815	0.21
318.026	0.24
318.238	0.21
318.449	0.27
318.661	0.17
318.872	0.17
319.083	0.23
319.295	0.31
319.506	0.23
319.717	0.25
319.929	0.32
320.14	0.31
320.351	0.27
320.562	0.25
320.774	0.28
320.985	0.21
321.196	0.22
321.407	0.17
321.618	0.33
321.829	0.27
322.041	0.29
322.252	0.25
322.463	0.3
322.674	0.28
322.885	0.21
323.096	0.25
323.307	0.29
323.518	0.31
323.729	0.23
323.94	0.23
324.151	0.24
324.362	0.29
324.573	0.25
324.784	0.22
324.995	0.34
325.206	0.29
325.417	0.26
325.628	0.19
325.838	0.26
326.049	0.23
326.26	0.29
326.471	0.21
326.682	0.28
326.892	0.26
327.103	0.15
327.314	0.24
327.525	0.3
327.735	0.28
327.946	0.27
328.157	0.24
328.368	0.31
328.578	0.26
328.789	0.28
328.999	0.25
329.21	0.23
329.421	0.31
329.631	0.23
329.842	0.2
330.052	0.31
330.263	0.34
330.473	0.25
330.684	0.2
330.894	0.25
331.105	0.26
331.315	0.24
331.526	0.21
331.736	0.38
331.947	0.27
332.157	0.3
332.367	0.21
332.578	0.31
332.788	0.35
332.999	0.3
333.209	0.21
333.419	0.23
333.629	0.29
333.84	0.29
334.05	0.21
334.26	0.34
334.47	0.27
334.681	0.31
334.891	0.21
335.101	0.31
335.311	0.38
335.521	0.22
335.732	0.17
335.942	0.36
336.152	0.27
336.362	0.29
336.572	0.26
336.782	0.33
336.992	0.2
337.202	0.23
337.412	0.2
337.622	0.25
337.832	0.23
338.042	0.21
338.252	0.22
338.462	0.25
338.672	0.25
338.882	0.29
339.092	0.24
339.302	0.35
339.511	0.31
339.721	0.24
339.931	0.19
340.141	0.34
340.351	0.32
340.561	0.26
340.77	0.28
340.98	0.31
341.19	0.28
341.4	0.27
341.609	0.19
341.819	0.22
342.029	0.14
342.238	0.3
342.448	0.22
342.658	0.31
342.867	0.21
343.077	0.27
343.286	0.28
343.496	0.21
343.706	0.35
343.915	0.18
344.125	0.25
344.334	0.24
344.544	0.17
344.753	0.24
344.963	0.23
345.172	0.2
345.381	0.24
345.591	0.18
345.8	0.24
346.01	0.26
346.219	0.31
346.428	0.14
346.638	0.27
346.847	0.25
347.056	0.34
347.266	0.23
347.475	0.28
347.684	0.28
347.893	0.26
348.103	0.29
348.312	0.23
348.521	0.25
348.73	0.23
348.94	0.24
349.149	0.2
349.358	0.27
349.567	0.21
349.776	0.18
349.985	0.21
350.194	0.3
350.403	0.28
350.612	0.14
350.821	0.22
351.03	0.24
351.239	0.18
351.448	0.19
351.657	0.2
351.866	0.36
352.075	0.28
352.284	0.26
352.493	0.2
352.702	0.36
352.911	0.25
353.12	0.21
353.329	0.22
353.538	0.27
353.746	0.28
353.955	0.17
354.164	0.26
354.373	0.2
354.582	0.28
354.79	0.26
354.999	0.24
355.208	0.23
355.416	0.33
355.625	0.16
355.834	0.25
356.042	0.31
356.251	0.24
356.46	0.2
356.668	0.25
356.877	0.32
357.085	0.29
357.294	0.15
357.503	0.22
357.711	0.26
357.92	0.45
358.128	0.28
358.337	0.21
358.545	0.28
358.754	0.22
358.962	0.3
359.17	0.22
359.379	0.27
359.587	0.24
359.796	0.2
360.004	0.35
360.212	0.28
360.421	0.32
360.629	0.26
360.837	0.21
361.046	0.33
361.254	0.44
361.462	0.26
361.67	0.25
361.879	0.27
362.087	0.33
362.295	0.24
362.503	0.22
362.711	0.22
362.92	0.22
363.128	0.21
363.336	0.19
363.544	0.18
363.752	0.27
363.96	0.2
364.168	0.22
364.376	0.26
364.584	0.26
364.792	0.3
365	0.26
365.208	0.28
365.416	0.3
365.624	0.3
365.832	0.25
366.04	0.37
366.248	0.27
366.456	0.28
366.664	0.26
366.872	0.26
367.079	0.25
367.287	0.26
367.495	0.27
367.703	0.23
367.911	0.24
368.118	0.24
368.326	0.21
368.534	0.19
368.742	0.34
368.949	0.14
369.157	0.21
369.365	0.28
369.572	0.26
369.78	0.2
369.988	0.27
370.195	0.28
370.403	0.31
370.61	0.19
370.818	0.25
371.026	0.34
371.233	0.21
371.441	0.27
371.648	0.21
371.856	0.25
372.063	0.27
372.271	0.24
372.478	0.19
372.685	0.25
372.893	0.3
373.1	0.28
373.308	0.23
373.515	0.38
373.722	0.29
373.93	0.24
374.137	0.25
374.344	0.34
374.552	0.33
374.759	0.29
374.966	0.27
375.173	0.22
375.381	0.33
375.588	0.23
375.795	0.16
376.002	0.24
376.209	0.25
376.417	0.19
376.624	0.24
376.831	0.27
377.038	0.24
377.245	0.18
377.452	0.23
377.659	0.26
377.866	0.28
378.073	0.26
378.28	0.28
378.487	0.36
378.694	0.32
378.901	0.27
379.108	0.23
379.315	0.32
379.522	0.36
379.729	0.29
379.936	0.24
380.143	0.29
380.35	0.31
380.557	0.28
380.763	0.29
380.97	0.29
381.177	0.26
381.384	0.29
381.591	0.26
381.797	0.33
382.004	0.29
382.211	0.31
382.418	0.23
382.624	0.32
382.831	0.34
383.038	0.24
383.244	0.27
383.451	0.32
383.658	0.35
383.864	0.24
384.071	0.17
384.277	0.39
384.484	0.26
384.69	0.38
384.897	0.24
385.103	0.25
385.31	0.23
385.516	0.23
385.723	0.22
385.929	0.24
386.136	0.26
386.342	0.25
386.549	0.24
386.755	0.36
386.961	0.31
387.168	0.27
387.374	0.26
387.58	0.37
387.787	0.32
387.993	0.28
388.199	0.29
388.406	0.22
388.612	0.28
388.818	0.23
389.024	0.21
389.231	0.33
389.437	0.44
389.643	0.32
389.849	0.28
390.055	0.3
390.261	0.29
390.467	0.33
390.674	0.23
390.88	0.33
391.086	0.38
391.292	0.24
391.498	0.33
391.704	0.33
391.91	0.29
392.116	0.31
392.322	0.19
392.528	0.35
392.734	0.27
392.94	0.3
393.146	0.33
393.352	0.32
393.557	0.27
393.763	0.32
393.969	0.32
394.175	0.32
394.381	0.32
394.587	0.26
394.792	0.31
394.998	0.4
395.204	0.34
395.41	0.29
395.615	0.31
395.821	0.34
396.027	0.37
396.233	0.3
396.438	0.3
396.644	0.41
396.85	0.36
397.055	0.33
397.261	0.33
397.466	0.41
397.672	0.35
397.878	0.41
398.083	0.37
398.289	0.29
398.494	0.38
398.7	0.34
398.905	0.25
399.111	0.46
399.316	0.27
399.522	0.4
399.727	0.32
399.932	0.31
400.138	0.35
400.343	0.38
400.549	0.31
400.754	0.38
400.959	0.38
401.165	0.33
401.37	0.37
401.575	0.5
401.78	0.38
401.986	0.35
402.191	0.36
402.396	0.34
402.601	0.42
402.807	0.43
403.012	0.41
403.217	0.46
403.422	0.44
403.627	0.45
403.832	0.42
404.037	0.49
404.243	0.39
404.448	0.34
404.653	0.43
404.858	0.47
405.063	0.44
405.268	0.44
405.473	0.38
405.678	0.4
405.883	0.66
406.088	0.51
406.293	0.4
406.498	0.45
406.703	0.53
406.907	0.44
407.112	0.42
407.317	0.51
407.522	0.58
407.727	0.44
407.932	0.54
408.136	0.69
408.341	0.54
408.546	0.59
408.751	0.53
408.956	0.57
409.16	0.65
409.365	0.57
409.57	0.6
409.774	0.63
409.979	0.67
410.184	0.7
410.388	0.62
410.593	0.8
410.798	0.75
411.002	0.68
411.207	0.8
411.411	0.82
411.616	0.72
411.82	0.81
412.025	0.84
412.229	0.81
412.434	0.99
412.638	0.87
412.843	0.92
413.047	0.97
413.252	0.92
413.456	1.01
413.66	1.04
413.865	1.02
414.069	1.2
414.273	1.09
414.478	1.09
414.682	1.22
414.886	1.16
415.091	1.14
415.295	1.18
415.499	1.44
415.703	1.29
415.908	1.41
416.112	1.27
416.316	1.6
416.52	1.55
416.724	1.49
416.929	1.54
417.133	1.83
417.337	1.7
417.541	1.69
417.745	1.8
417.949	1.92
418.153	1.92
418.357	1.93
418.561	2.2
418.765	2.12
418.969	2.27
419.173	2.32
419.377	2.32
419.581	2.49
419.785	2.53
419.989	2.56
420.193	2.75
420.397	2.82
420.601	2.96
420.804	3.08
421.008	2.92
421.212	3.12
421.416	3.09
421.62	3.15
421.823	3.25
422.027	3.41
422.231	3.36
422.435	3.29
422.638	3.45
422.842	3.56
423.046	3.63
423.249	3.76
423.453	3.83
423.657	4.06
423.86	4.03
424.064	4.16
424.268	4.28
424.471	4.34
424.675	4.53
424.878	4.59
425.082	4.67
425.285	5.04
425.489	4.9
425.692	5.06
425.896	5.03
426.099	5.28
426.303	5.48
426.506	5.41
426.71	5.71
426.913	5.93
427.116	6.17
427.32	6.03
427.523	6.22
427.726	6.48
427.93	6.68
428.133	6.89
428.336	7.04
428.54	7.15
428.743	7.44
428.946	7.64
429.149	7.73
429.353	7.67
429.556	7.8
429.759	7.88
429.962	7.96
430.165	8.13
430.368	7.7
430.571	7.91
430.775	7.83
430.978	7.86
431.181	7.88
431.384	8.04
431.587	8.15
431.79	8.51
431.993	8.3
432.196	8.66
432.399	9.16
432.602	9.37
432.805	9.28
433.008	9.88
433.211	9.68
433.414	10.09
433.616	10.06
433.819	10.08
434.022	10.25
434.225	10.43
434.428	10.41
434.631	10.88
434.833	10.6
435.036	10.97
435.239	11.08
435.442	11.18
435.645	11.3
435.847	11.35
436.05	11.71
436.253	11.91
436.455	11.85
436.658	11.68
436.861	12.08
437.063	12.21
437.266	12.17
437.468	12.53
437.671	12.79
437.874	12.79
438.076	12.62
438.279	13.24
438.481	13.33
438.684	13.95
438.886	13.58
439.089	13.73
439.291	13.89
439.494	14.2
439.696	14.38
439.899	14.95
440.101	15.4
440.303	15.48
440.506	16.28
440.708	15.96
440.91	16.17
441.113	16.38
441.315	16.76
441.517	16.4
441.72	16.98
441.922	16.55
442.124	16.55
442.326	16.88
442.529	17.2
442.731	17.08
442.933	17.36
443.135	17.17
443.337	17.11
443.539	17.6
443.742	17.25
443.944	18.05
444.146	17.89
444.348	17.76
444.55	17.64
444.752	17.88
444.954	17.86
445.156	17.84
445.358	18.12
445.56	18.4
445.762	18.11
445.964	18.58
446.166	18.36
446.368	18.27
446.57	18.39
446.772	17.96
446.974	17.85
447.175	18.14
447.377	17.72
447.579	18.06
447.781	17.96
447.983	17.6
448.184	17.26
448.386	17.6
448.588	17.14
448.79	17.11
448.991	17.52
449.193	17.43
449.395	16.72
449.597	16.34
449.798	16.33
450	15.85
450.202	15.84
450.403	15.87
450.605	15.75
450.806	15.4
451.008	15.34
451.21	15.14
451.411	14.57
451.613	13.88
451.814	14.13
452.016	14.16
452.217	13.44
452.419	13.42
452.62	13.21
452.821	12.76
453.023	12.72
453.224	12.38
453.426	11.95
453.627	11.28
453.828	11.47
454.03	11.43
454.231	11.43
454.432	11.22
454.634	10.99
454.835	10.62
455.036	10.56
455.238	10.25
455.439	10.03
455.64	9.63
455.841	9.53
456.042	9.58
456.244	9.24
456.445	9
456.646	8.79
456.847	8.72
457.048	8.6
457.249	8.6
457.45	8.44
457.651	7.91
457.852	7.69
458.054	7.47
458.255	7.28
458.456	7.46
458.657	7.36
458.858	6.79
459.058	6.78
459.259	6.86
459.46	6.57
459.661	6.52
459.862	6.62
460.063	6.34
460.264	6.36
460.465	6.07
460.666	6.2
460.866	5.89
461.067	5.67
461.268	5.6
461.469	5.6
461.67	5.49
461.87	5.4
462.071	5.32
462.272	5.25
462.473	5.17
462.673	5.4
462.874	5.22
463.075	5.13
463.275	5.25
463.476	5.27
463.676	5.18
463.877	4.99
464.078	4.93
464.278	5.14
464.479	4.92
464.679	4.84
464.88	4.7
465.08	4.75
465.281	4.57
465.481	4.36
465.682	4.26
465.882	4.31
466.083	4.18
466.283	4.07
466.483	3.98
466.684	3.77
466.884	3.68
467.085	3.72
467.285	3.76
467.485	3.68
467.686	3.63
467.886	3.61
468.086	3.43
468.286	3.43
468.487	3.48
468.687	3.3
468.887	3.29
469.087	3.42
469.287	3.3
469.488	3.08
469.688	3.21
469.888	3.27
470.088	3.2
470.288	3.11
470.488	3.07
470.688	2.93
470.888	2.94
471.088	2.72
471.288	2.83
471.488	2.82
471.688	2.82
471.888	2.69
472.088	2.91
472.288	2.82
472.488	2.68
472.688	2.58
472.888	2.71
473.088	2.62
473.288	2.57
473.488	2.43
473.688	2.66
473.887	2.53
474.087	2.42
474.287	2.49
474.487	2.39
474.687	2.5
474.886	2.36
475.086	2.36
475.286	2.31
475.486	2.39
475.685	2.27
475.885	2.24
476.085	2.32
476.284	2.32
476.484	2.3
476.684	2.25
476.883	2.35
477.083	2.21
477.282	2.16
477.482	2.16
477.681	2.17
477.881	2.12
478.08	2.16
478.28	2.09
478.479	2.13
478.679	2.19
478.878	2.09
479.078	2.06
479.277	2.11
479.477	2.09
479.676	2.05
479.875	2.02
480.075	1.99
480.274	2.06
480.473	2.09
480.673	2.08
480.872	2.09
481.071	2.09
481.271	2.07
481.47	2.03
481.669	2.04
481.868	2.01
482.067	2.03
482.267	1.95
482.466	1.98
482.665	1.96
482.864	2.02
483.063	1.96
483.262	2.03
483.461	2.08
483.661	2.08
483.86	2.05
484.059	2.08
484.258	2.05
484.457	2.04
484.656	2.09
484.855	2.11
485.054	1.97
485.253	1.98
485.452	1.98
485.651	2.04
485.849	2.05
486.048	2
486.247	2.04
486.446	2.12
486.645	2.03
486.844	2.08
487.043	2.08
487.241	2.12
487.44	2.11
487.639	2.12
487.838	2.1
488.037	2.12
488.235	2.2
488.434	2.16
488.633	2.05
488.831	2.26
489.03	2.25
489.229	2.22
489.427	2.21
489.626	2.31
489.825	2.32
490.023	2.31
490.222	2.28
490.42	2.33
490.619	2.36
490.817	2.36
491.016	2.33
491.214	2.41
491.413	2.43
491.611	2.34
491.81	2.39
492.008	2.49
492.207	2.52
492.405	2.54
492.604	2.47
492.802	2.57
493	2.62
493.199	2.61
493.397	2.65
493.595	2.72
493.794	2.66
493.992	2.79
494.19	2.79
494.388	2.81
494.587	2.78
494.785	2.78
494.983	2.74
495.181	2.86
495.379	2.95
495.578	2.99
495.776	2.97
495.974	2.9
496.172	2.92
496.37	3.07
496.568	3.1
496.766	3.05
496.964	3.16
497.162	3.16
497.36	3.2
497.558	3.2
497.756	3.34
497.954	3.29
498.152	3.31
498.35	3.4
498.548	3.34
498.746	3.4
498.944	3.39
499.142	3.43
499.34	3.49
499.538	3.59
499.736	3.56
499.933	3.63
500.131	3.68
500.329	3.76
500.527	3.71
500.725	3.84
500.922	3.9
501.12	3.89
501.318	3.92
501.516	3.91
501.713	3.96
501.911	3.95
502.109	3.92
502.306	4.06
502.504	4.01
502.701	4.09
502.899	4.11
503.097	4.31
503.294	4.15
503.492	4.37
503.689	4.32
503.887	4.32
504.084	4.4
504.282	4.38
504.479	4.41
504.677	4.58
504.874	4.53
505.072	4.44
505.269	4.62
505.466	4.68
505.664	4.69
505.861	4.62
506.059	4.77
506.256	4.77
506.453	4.79
506.651	4.97
506.848	4.97
507.045	4.96
507.242	4.96
507.44	4.96
507.637	5.04
507.834	5.02
508.031	5.22
508.229	5.08
508.426	5.08
508.623	5.22
508.82	5.25
509.017	5.28
509.214	5.22
509.411	5.34
509.608	5.33
509.805	5.45
510.003	5.44
510.2	5.47
510.397	5.63
510.594	5.48
510.791	5.57
510.988	5.57
511.184	5.63
511.381	5.48
511.578	5.66
511.775	5.82
511.972	5.71
512.169	5.8
512.366	5.8
512.563	5.91
512.76	5.93
512.956	5.97
513.153	5.88
513.35	5.85
513.547	5.92
513.744	6.02
513.94	6
514.137	6.14
514.334	6.08
514.53	6.11
514.727	6.29
514.924	6.27
515.12	6.17
515.317	6.21
515.514	6.14
515.71	6.16
515.907	6.42
516.103	6.35
516.3	6.29
516.497	6.43
516.693	6.42
516.89	6.47
517.086	6.45
517.283	6.5
517.479	6.43
517.676	6.59
517.872	6.62
518.068	6.56
518.265	6.54
518.461	6.5
518.658	6.68
518.854	6.64
519.05	6.77
519.247	6.76
519.443	6.66
519.639	6.79
519.836	6.78
520.032	6.74
520.228	6.8
520.424	6.84
520.621	6.94
520.817	6.93
521.013	6.85
521.209	7.02
521.405	7.06
521.601	6.99
521.798	6.94
521.994	7.04
522.19	6.88
522.386	6.98
522.582	7.14
522.778	7.25
522.974	7.05
523.17	7.09
523.366	7.05
523.562	7.16
523.758	7.17
523.954	7.05
524.15	7.2
524.346	7.28
524.542	7.2
524.738	7.16
524.934	7.34
525.129	7.31
525.325	7.15
525.521	7.16
525.717	7.38
525.913	7.3
526.109	7.26
526.304	7.43
526.5	7.38
526.696	7.44
526.892	7.34
527.087	7.57
527.283	7.44
527.479	7.49
527.674	7.33
527.87	7.46
528.066	7.49
528.261	7.55
528.457	7.41
528.653	7.56
528.848	7.5
529.044	7.68
529.239	7.52
529.435	7.5
529.63	7.42
529.826	7.56
530.021	7.54
530.217	7.51
530.412	7.52
530.608	7.59
530.803	7.54
530.999	7.51
531.194	7.56
531.389	7.7
531.585	7.61
531.78	7.75
531.975	7.63
532.171	7.68
532.366	7.66
532.561	7.7
532.757	7.61
532.952	7.89
533.147	7.59
533.342	7.73
533.538	7.71
533.733	7.8
533.928	7.56
534.123	7.69
534.318	7.78
534.513	7.67
534.709	7.93
534.904	7.8
535.099	7.88
535.294	7.85
535.489	7.91
535.684	7.79
535.879	7.8
536.074	7.89
536.269	7.86
536.464	7.86
536.659	7.82
536.854	7.85
537.049	7.9
537.244	7.88
537.439	7.9
537.634	7.86
537.828	7.98
538.023	7.88
538.218	7.84
538.413	7.77
538.608	7.93
538.803	7.92
538.997	7.86
539.192	7.89
539.387	7.83
539.582	7.89
539.776	7.89
539.971	8.01
540.166	7.98
540.36	7.86
540.555	8.05
540.75	7.96
540.944	7.95
541.139	7.95
541.334	7.92
541.528	7.99
541.723	8.07
541.917	8.04
542.112	7.89
542.306	7.82
542.501	7.89
542.695	7.95
542.89	7.87
543.084	7.97
543.279	8
543.473	8.03
543.668	8.03
543.862	7.81
544.056	7.89
544.251	8.07
544.445	8.07
544.64	8.1
544.834	7.83
545.028	7.66
545.222	8
545.417	8.25
545.611	8.1
545.805	7.98
546	7.83
546.194	8.05
546.388	8.08
546.582	8.02
546.776	8
546.97	8.02
547.165	8.01
547.359	7.96
547.553	7.94
547.747	7.99
547.941	8.19
548.135	7.99
548.329	8.03
548.523	8.02
548.717	7.98
548.911	7.97
549.105	7.95
549.299	8.07
549.493	8.11
549.687	7.95
549.881	8.16
550.075	8
550.269	7.9
550.463	8.03
550.657	8.09
550.85	8.02
551.044	7.98
551.238	8.06
551.432	8.06
551.626	8.11
551.82	8.08
552.013	7.97
552.207	8.14
552.401	8.12
552.594	8.1
552.788	7.95
552.982	7.99
553.176	7.97
553.369	8.17
553.563	8.12
553.756	8.09
553.95	8.1
554.144	8.12
554.337	8.1
554.531	7.92
554.724	8.15
554.918	8.11
555.111	8.05
555.305	8.11
555.498	8.05
555.692	8.15
555.885	8.11
556.079	8.09
556.272	8.06
556.466	8.06
556.659	8.1
556.852	8.18
557.046	8.01
557.239	7.97
557.432	7.98
557.626	8.05
557.819	8.16
558.012	8.06
558.206	8.2
558.399	8.09
558.592	8.02
558.785	8.1
558.979	8.06
559.172	7.99
559.365	8.11
559.558	8
559.751	7.97
559.944	8.22
560.138	8.05
560.331	8.07
560.524	8.12
560.717	8.09
560.91	8.07
561.103	8.09
561.296	7.96
561.489	8.12
561.682	8.21
561.875	8.1
562.068	8.19
562.261	8
562.454	8.25
562.647	8.07
562.84	8.07
563.032	8.08
563.225	8
563.418	8.02
563.611	8.16
563.804	8.12
563.997	7.95
564.19	7.85
564.382	8.11
564.575	8.07
564.768	8.07
564.961	8.08
565.153	8.01
565.346	7.95
565.539	8.15
565.731	8.07
565.924	8.12
566.117	8.17
566.309	8.06
566.502	8.07
566.695	7.96
566.887	8.1
567.08	8.05
567.272	8.06
567.465	7.95
567.657	8.08
567.85	7.98
568.042	8.1
568.235	8.11
568.427	7.94
568.62	8.07
568.812	7.95
569.005	8.05
569.197	7.94
569.389	8.08
569.582	8.05
569.774	8.02
569.966	7.84
570.159	7.91
570.351	7.96
570.543	7.95
570.736	7.96
570.928	7.91
571.12	8
571.312	7.91
571.505	7.71
571.697	8.01
571.889	7.97
572.081	7.93
572.273	7.84
572.465	7.98
572.658	7.93
572.85	7.97
573.042	7.93
573.234	7.85
573.426	7.93
573.618	7.92
573.81	7.96
574.002	7.9
574.194	7.93
574.386	7.88
574.578	7.75
574.77	7.84
574.962	7.88
575.154	7.76
575.346	7.8
575.538	7.89
575.729	7.82
575.921	7.88
576.113	7.88
576.305	7.85
576.497	7.97
576.689	7.78
576.88	7.69
577.072	7.96
577.264	7.83
577.456	7.85
577.647	7.73
577.839	7.96
578.031	7.76
578.223	7.81
578.414	7.69
578.606	7.79
578.798	7.77
578.989	7.83
579.181	7.84
579.372	7.8
579.564	7.8
579.755	7.76
579.947	7.69
580.139	7.75
580.33	7.58
580.522	7.71
580.713	7.71
580.905	7.7
581.096	7.82
581.287	7.64
581.479	7.58
581.67	7.74
581.862	7.65
582.053	7.65
582.244	7.5
582.436	7.78
582.627	7.61
582.818	7.54
583.01	7.56
583.201	7.65
583.392	7.53
583.583	7.6
583.775	7.45
583.966	7.52
584.157	7.61
584.348	7.66
584.54	7.53
584.731	7.58
584.922	7.48
585.113	7.43
585.304	7.57
585.495	7.53
585.686	7.6
585.877	7.61
586.068	7.64
586.259	7.55
586.45	7.53
586.641	7.47
586.832	7.62
587.023	7.39
587.214	7.4
587.405	7.47
587.596	7.39
587.787	7.33
587.978	7.43
588.169	7.31
588.36	7.31
588.551	7.43
588.742	7.39
588.932	7.42
589.123	7.28
589.314	7.4
589.505	7.33
589.696	7.34
589.886	7.31
590.077	7.33
590.268	7.2
590.458	7.24
590.649	7.02
590.84	7.27
591.03	7.23
591.221	7.18
591.412	7.06
591.602	7.37
591.793	7.21
591.984	7.18
592.174	7.16
592.365	7.33
592.555	6.99
592.746	7.11
592.936	7.11
593.127	7.19
593.317	7.17
593.508	7.23
593.698	7
593.889	7.07
594.079	7
594.269	6.95
594.46	7.01
594.65	7.03
594.84	7
595.031	6.89
595.221	6.95
595.411	6.94
595.602	7.06
595.792	6.93
595.982	6.84
596.172	6.98
596.363	6.91
596.553	6.86
596.743	6.93
596.933	6.86
597.123	6.76
597.314	6.73
597.504	6.69
597.694	6.87
597.884	6.75
598.074	6.75
598.264	6.79
598.454	6.74
598.644	6.71
598.834	6.76
599.024	6.57
599.214	6.74
599.404	6.75
599.594	6.74
599.784	6.6
599.974	6.75
600.164	6.63
600.354	6.57
600.544	6.49
600.734	6.6
600.924	6.58
601.114	6.48
601.303	6.43
601.493	6.48
601.683	6.51
601.873	6.48
602.063	6.45
602.252	6.52
602.442	6.39
602.632	6.42
602.821	6.3
603.011	6.44
603.201	6.39
603.39	6.33
603.58	6.27
603.77	6.36
603.959	6.41
604.149	6.32
604.339	6.33
604.528	6.4
604.718	6.36
604.907	6.32
605.097	6.2
605.286	6.18
605.476	6.18
605.665	6.17
605.855	6.07
606.044	6.22
606.234	6.25
606.423	6.14
606.612	6.07
606.802	6.07
606.991	6.17
607.181	6.14
607.37	6.1
607.559	5.88
607.749	6.07
607.938	5.95
608.127	6.01
608.316	5.98
608.506	5.94
608.695	6.07
608.884	5.96
609.073	5.99
609.263	5.98
609.452	5.98
609.641	5.82
609.83	5.77
610.019	5.88
610.208	5.88
610.397	5.81
610.586	5.91
610.775	5.7
610.965	5.75
611.154	5.7
611.343	5.86
611.532	5.7
611.721	5.76
611.91	5.66
612.099	5.67
612.287	5.56
612.476	5.53
612.665	5.72
612.854	5.55
613.043	5.61
613.232	5.58
613.421	5.52
613.61	5.54
613.798	5.56
613.987	5.56
614.176	5.52
614.365	5.54
614.554	5.5
614.742	5.48
614.931	5.33
615.12	5.52
615.309	5.39
615.497	5.29
615.686	5.28
615.875	5.37
616.063	5.33
616.252	5.26
616.44	5.3
616.629	5.3
616.818	5.33
617.006	5.24
617.195	5.19
617.383	5.22
617.572	5.1
617.76	5.21
617.949	5.19
618.137	5.16
618.326	5.27
618.514	5
618.703	4.97
618.891	5.15
619.079	5.02
619.268	5.1
619.456	4.97
619.644	5.08
619.833	5
620.021	5.04
620.209	4.83
620.398	5.02
620.586	4.88
620.774	4.93
620.962	4.88
621.151	4.95
621.339	4.92
621.527	4.82
621.715	4.84
621.903	4.84
622.092	4.72
622.28	4.88
622.468	4.7
622.656	4.75
622.844	4.77
623.032	4.78
623.22	4.63
623.408	4.78
623.596	4.71
623.784	4.75
623.972	4.6
624.16	4.63
624.348	4.73
624.536	4.66
624.724	4.53
624.912	4.53
625.1	4.63
625.288	4.55
625.476	4.48
625.664	4.62
625.851	4.53
626.039	4.54
626.227	4.44
626.415	4.45
626.603	4.34
626.79	4.44
626.978	4.41
627.166	4.42
627.354	4.31
627.541	4.35
627.729	4.25
627.917	4.55
628.104	4.41
628.292	4.29
628.48	4.32
628.667	4.33
628.855	4.34
629.042	4.32
629.23	4.22
629.418	4.18
629.605	4.21
629.793	4.13
629.98	4.15
630.168	4.15
630.355	4.16
630.543	4.13
630.73	4.06
630.917	4.1
631.105	4.17
631.292	4.06
631.48	4.08
631.667	4.17
631.854	4.06
632.042	3.99
632.229	3.94
632.416	4.03
632.604	4.01
632.791	3.84
632.978	3.92
633.165	3.91
633.353	4
633.54	3.97
633.727	3.81
633.914	3.82
634.101	3.79
634.289	3.94
634.476	3.82
634.663	3.73
634.85	3.79
635.037	3.72
635.224	3.64
635.411	3.72
635.598	3.76
635.785	3.64
635.972	3.7
636.159	3.66
636.346	3.62
636.533	3.61
636.72	3.63
636.907	3.59
637.094	3.61
637.281	3.42
637.468	3.55
637.655	3.57
637.842	3.59
638.029	3.46
638.215	3.52
638.402	3.5
638.589	3.43
638.776	3.41
638.963	3.37
639.149	3.52
639.336	3.53
639.523	3.4
639.709	3.46
639.896	3.4
640.083	3.37
640.27	3.46
640.456	3.29
640.643	3.35
640.829	3.21
641.016	3.31
641.203	3.21
641.389	3.29
641.576	3.27
641.762	3.21
641.949	3.19
642.135	3.2
642.322	3.23
642.508	3.11
642.695	3.19
642.881	3.13
643.068	3.2
643.254	3.16
643.441	3.19
643.627	3.19
643.813	3
644	3.16
644.186	2.96
644.372	3.03
644.559	3.12
644.745	3.06
644.931	2.96
645.118	3.01
645.304	3.03
645.49	2.94
645.676	2.91
645.862	2.96
646.049	3.05
646.235	2.91
646.421	3.07
646.607	2.97
646.793	2.89
646.979	2.79
647.165	2.86
647.352	2.91
647.538	2.86
647.724	2.82
647.91	2.81
648.096	2.85
648.282	2.87
648.468	2.79
648.654	2.79
648.84	2.87
649.026	2.82
649.212	2.68
649.397	2.66
649.583	2.74
649.769	2.74
649.955	2.64
650.141	2.75
650.327	2.72
650.513	2.6
650.698	2.62
650.884	2.51
651.07	2.68
651.256	2.6
651.442	2.58
651.627	2.51
651.813	2.65
651.999	2.54
652.184	2.56
652.37	2.49
652.556	2.51
652.741	2.61
652.927	2.37
653.113	2.47
653.298	2.5
653.484	2.47
653.669	2.39
653.855	2.44
654.04	2.49
654.226	2.45
654.412	2.4
654.597	2.4
654.782	2.4
654.968	2.41
655.153	2.42
655.339	2.31
655.524	2.33
655.71	2.39
655.895	2.37
656.08	2.4
656.266	2.44
656.451	2.3
656.636	2.21
656.822	2.29
657.007	2.25
657.192	2.26
657.378	2.2
657.563	2.25
657.748	2.26
657.933	2.28
658.118	2.13
658.304	2.21
658.489	2.29
658.674	2.24
658.859	2.13
659.044	2.13
659.229	2.25
659.414	2.15
659.599	2.17
659.785	2.07
659.97	2.12
660.155	2.13
660.34	2.14
660.525	2.1
660.71	2.06
660.895	2.12
661.08	2.06
661.264	2.01
661.449	2.1
661.634	2.08
661.819	2.06
662.004	1.98
662.189	1.96
662.374	1.97
662.559	1.92
662.743	1.87
662.928	1.94
663.113	1.94
663.298	1.89
663.483	1.88
663.667	1.95
663.852	1.88
664.037	2.02
664.221	1.91
664.406	2.02
664.591	1.98
664.775	1.92
664.96	1.9
665.145	1.85
665.329	1.93
665.514	1.79
665.698	1.79
665.883	1.71
666.068	1.89
666.252	1.83
666.437	1.8
666.621	1.76
666.806	1.85
666.99	1.8
667.174	1.74
667.359	1.82
667.543	1.73
667.728	1.77
667.912	1.65
668.096	1.76
668.281	1.67
668.465	1.73
668.649	1.72
668.834	1.68
669.018	1.68
669.202	1.69
669.387	1.69
669.571	1.77
669.755	1.67
669.939	1.67
670.124	1.65
670.308	1.74
670.492	1.68
670.676	1.67
670.86	1.62
671.044	1.56
671.228	1.66
671.413	1.56
671.597	1.5
671.781	1.59
671.965	1.61
672.149	1.61
672.333	1.59
672.517	1.54
672.701	1.59
672.885	1.56
673.069	1.47
673.253	1.66
673.437	1.51
673.621	1.48
673.804	1.52
673.988	1.53
674.172	1.46
674.356	1.42
674.54	1.5
674.724	1.63
674.908	1.48
675.091	1.51
675.275	1.48
675.459	1.5
675.643	1.46
675.826	1.44
676.01	1.41
676.194	1.45
676.377	1.49
676.561	1.5
676.745	1.43
676.928	1.44
677.112	1.46
677.296	1.38
677.479	1.38
677.663	1.37
677.846	1.43
678.03	1.47
678.213	1.31
678.397	1.39
678.58	1.33
678.764	1.35
678.947	1.28
679.131	1.38
679.314	1.39
679.498	1.3
679.681	1.38
679.865	1.38
680.048	1.31
680.231	1.29
680.415	1.25
680.598	1.27
680.781	1.29
680.965	1.32
681.148	1.25
681.331	1.22
681.514	1.3
681.698	1.26
681.881	1.25
682.064	1.33
682.247	1.28
682.43	1.09
682.614	1.2
682.797	1.3
682.98	1.28
683.163	1.14
683.346	1.19
683.529	1.18
683.712	1.23
683.895	1.2
684.078	1.14
684.261	1.22
684.444	1.16
684.627	1.17
684.81	1.1
684.993	1.18
685.176	1.2
685.359	1.1
685.542	1.1
685.725	1.23
685.908	1.15
686.091	1.16
686.274	1.13
686.457	1.19
686.639	1.15
686.822	1.16
687.005	1.1
687.188	1.19
687.371	1.24
687.553	1.17
687.736	1.09
687.919	1.2
688.102	1.2
688.284	1.07
688.467	1.08
688.65	1.1
688.832	1.02
689.015	1.05
689.197	0.98
689.38	1.16
689.563	1.21
689.745	0.96
689.928	0.97
690.11	0.99
690.293	1.05
690.475	0.96
690.658	1.08
690.84	1.03
691.023	0.99
691.205	0.96
691.388	0.99
691.57	1.12
691.752	1.11
691.935	0.87
692.117	0.87
692.3	1.04
692.482	0.98
692.664	0.95
692.847	1
693.029	1.07
693.211	1.05
693.393	0.94
693.576	0.86
693.758	0.98
693.94	0.98
694.122	0.94
694.304	0.94
694.487	0.91
694.669	0.97
694.851	0.85
695.033	0.9
695.215	0.89
695.397	0.92
695.579	0.9
695.761	0.81
695.943	0.85
696.125	1
696.308	0.92
696.49	0.73
696.671	1.1
696.853	0.91
697.035	1.17
697.217	0.85
697.399	0.97
697.581	0.83
697.763	0.88
697.945	0.79
698.127	0.85
698.309	0.94
698.491	0.86
698.672	0.96
698.854	0.93
699.036	0.97
699.218	0.9
699.399	0.84
699.581	0.9
699.763	0.86
699.945	0.77
700.126	0.76
700.308	0.85
700.49	0.81
700.671	0.71
700.853	0.76
701.035	0.86
701.216	0.81
701.398	0.74
701.579	0.76
701.761	0.84
701.943	0.78
702.124	0.7
702.306	0.72
702.487	0.99
702.669	0.77
702.85	0.78
703.031	0.65
703.213	0.91
703.394	0.85
703.576	0.74
703.757	0.91
703.938	0.79
704.12	0.95
704.301	0.74
704.483	0.69
704.664	0.77
704.845	0.89
705.026	0.84
705.208	0.77
705.389	0.84
705.57	0.76
705.751	0.7
705.933	0.75
706.114	0.85
706.295	0.74
706.476	0.65
706.657	0.88
706.838	0.82
707.02	0.83
707.201	0.61
707.382	0.7
707.563	0.83
707.744	0.67
707.925	0.63
708.106	0.61
708.287	0.73
708.468	0.83
708.649	0.73
708.83	0.74
709.011	0.68
709.192	0.76
709.373	0.6
709.554	0.61
709.734	0.84
709.915	0.81
710.096	0.61
710.277	0.52
710.458	0.7
710.639	0.64
710.819	0.6
711	0.63
711.181	0.74
711.362	0.78
711.542	0.73
711.723	0.66
711.904	0.72
712.085	0.68
712.265	0.63
712.446	0.55
712.627	0.63
712.807	0.68
712.988	0.66
713.168	0.5
713.349	0.71
713.53	0.5
713.71	0.52
713.891	0.47
714.071	0.68
714.252	0.57
714.432	0.62
714.613	0.61
714.793	0.57
714.974	0.73
715.154	0.69
715.334	0.64
715.515	0.72
715.695	0.56
715.876	0.63
716.056	0.58
716.236	0.58
716.417	0.57
716.597	0.57
716.777	0.81
716.957	0.6
717.138	0.58
717.318	0.57
717.498	0.49
717.678	0.63
717.859	0.64
718.039	0.48
718.219	0.59
718.399	0.56
718.579	0.51
718.759	0.45
718.939	0.58
719.12	0.7
719.3	0.62
719.48	0.39
719.66	0.42
719.84	0.73
720.02	0.56
720.2	0.49
720.38	0.52
720.56	0.76
720.74	0.39
720.92	0.56
721.1	0.7
721.279	0.65
721.459	0.56
721.639	0.47
721.819	0.55
721.999	0.47
722.179	0.59
722.359	0.38
722.538	0.52
722.718	0.58
722.898	0.54
723.078	0.53
723.257	0.43
723.437	0.62
723.617	0.57
723.797	0.54
723.976	0.48
724.156	0.62
724.336	0.65
724.515	0.68
724.695	0.43
724.874	0.51
725.054	0.67
725.234	0.42
725.413	0.53
725.593	0.57
725.772	0.53
725.952	0.48
726.131	0.42
726.311	0.5
726.49	0.5
726.67	0.43
726.849	0.47
727.028	0.55
727.208	0.49
727.387	0.53
727.567	0.42
727.746	0.5
727.925	0.55
728.105	0.3
728.284	0.42
728.463	0.44
728.643	0.59
728.822	0.38
729.001	0.43
729.18	0.53
729.359	0.73
729.539	0.45
729.718	0.46
729.897	0.67
730.076	0.49
730.255	0.41
730.434	0.49
730.614	0.59
730.793	0.75
730.972	0.47
731.151	0.48
731.33	0.62
731.509	0.53
731.688	0.45
731.867	0.51
732.046	0.33
732.225	0.76
732.404	0.33
732.583	0.35
732.762	0.49
732.941	0.57
733.12	0.61
733.298	0.38
733.477	0.69
733.656	0.39
733.835	0.36
734.014	0.49
734.193	0.51
734.371	0.59
734.55	0.56
734.729	0.31
734.908	0.48
735.086	0.52
735.265	0.58
735.444	0.36
735.623	0.4
735.801	0.4
735.98	0.46
736.159	0.52
736.337	0.64
736.516	0.57
736.694	0.59
736.873	0.5
737.052	0.71
737.23	0.58
737.409	0.46
737.587	0.65
737.766	0.38
737.944	0.5
738.123	0.65
738.301	0.56
738.479	0.53
738.658	0.55
738.836	0.24
739.015	0.49
739.193	0.63
739.371	0.42
739.55	0.45
739.728	0.27
739.906	0.74
740.085	0.71
740.263	0.59
740.441	0.23
740.62	0.77
740.798	0.58
740.976	0.39
741.154	0.39
741.332	0.66
741.511	0.4
741.689	0.55
741.867	0.57
742.045	0.5
742.223	0.49
742.401	0.34
742.579	0.35
742.757	0.64
742.935	0.33
743.114	0.43
743.292	0.42
743.47	0.53
743.648	0.56
743.826	0.38
744.004	0.52
744.181	0.55
744.359	0.48
744.537	0.54
744.715	0.34
744.893	0.43
745.071	0.5
745.249	0.31
745.427	0.41
745.605	0.47
745.782	0.43
745.96	0.57
746.138	0.47
746.316	0.58
746.493	0.34
746.671	0.52
746.849	0.4
747.027	0.59
747.204	0.32
747.382	0.53
747.56	0.42
747.737	0.55
747.915	0.37
748.093	0.55
748.27	0.37
748.448	0.33
748.625	0.29
748.803	0.33
748.98	0.22
749.158	0.5
749.335	0.47
749.513	0.41
749.69	0.37
749.868	0.33
750.045	0.4
750.223	0.27
750.4	0.25
750.578	0.57
750.755	0.42
750.932	0.26
751.11	0.47
751.287	0.33
751.464	0.61
751.642	0.37
751.819	0.5
751.996	0.37
752.173	0.44
752.351	0.3
752.528	0.35
752.705	0.5
752.882	0.34
753.06	0.45
753.237	0.44
753.414	0.68
753.591	0.71
753.768	0.38
753.945	0.34
754.122	0.34
754.299	0.55
754.476	0.22
754.654	0.41
754.831	0.42
755.008	0.44
755.185	0.29
755.362	0.26
755.539	0.45
755.716	0.48
755.892	0.36
756.069	0.38
756.246	0.48
756.423	0.48
756.6	0.59
756.777	0.23
756.954	0.54
757.131	0.47
757.307	0.31
757.484	0.17
757.661	0.39
757.838	0.5
758.015	0.21
758.191	0.45
758.368	0.33
758.545	0.62
758.721	0.29
758.898	0.31
759.075	0.51
759.251	0.43
759.428	0.52
759.605	0.31
759.781	0.34
759.958	0.48
760.134	0.36
760.311	0.24
760.488	0.41
760.664	0.54
760.841	0.29
761.017	0.25
761.194	0.31
761.37	0.56
761.547	0.37
761.723	0.32
761.899	0.67
762.076	0.22
762.252	0.31
762.429	0.27
762.605	0.6
762.781	0.32
762.958	0.55
763.134	0.27
763.31	0.41
763.486	0.63
763.663	0.16
763.839	0.45
764.015	0.07
764.191	0.26
764.368	0.37
764.544	0.3
764.72	0.42
764.896	0.46
765.072	0.39
765.248	0.49
765.425	0.34
765.601	0.48
765.777	0.39
765.953	0.07
766.129	0.41
766.305	0.29
766.481	0.57
766.657	0.4
766.833	0.68
767.009	0.13
767.185	0.36
767.361	0.29
767.537	0.25
767.713	0.55
767.889	0.33
768.065	0.38
768.24	0.15
768.416	0.5
768.592	0.4
768.768	0.42
768.944	0.58
769.12	0.2
769.295	0.27
769.471	0.26
769.647	0.39
769.823	0.57
769.998	0.16
770.174	0.17
770.35	0.84
770.525	0.66
770.701	0.36
770.877	0.32
771.052	0.24
771.228	0.51
771.403	0.48
771.579	0.48
771.755	0.71
771.93	0.3
772.106	0.28
772.281	-0.03
772.457	0.22
772.632	0.44
772.808	0.11
772.983	0.26
773.159	0.22
773.334	0.76
773.509	0.39
773.685	0.12
773.86	0.97
774.036	0.85
774.211	0.22
774.386	0.32
774.562	0.45
774.737	0.68
774.912	0.37
775.087	0.37
775.263	0.21
775.438	0.28
775.613	0.32
775.788	0.26
775.964	0.54
776.139	1
776.314	0.27
776.489	0.43
776.664	0.54
776.839	0.16
777.014	0.42
777.19	0.56
777.365	0.79
777.54	0.6
777.715	0.21
777.89	0.33
778.065	0.43
778.24	0.35
778.415	0.46
778.59	0.17
778.765	0.33
778.94	0.58
779.115	0.35
779.289	0.32
779.464	0.34
779.639	0.42
779.814	0.02
779.989	0.12
780.164	0.68
780.339	0.63
780.513	0.17
780.688	0.14
780.863	0.56
781.038	0.67
781.212	0.24
781.387	0.16
781.562	0.82
781.737	0.19
781.911	0.61
782.086	0.16
782.261	0.36
782.435	0.58
782.61	0.27
782.784	0.35
782.959	0.59
783.134	0.49
783.308	0.27
783.483	0.47
783.657	0.78
783.832	0.73
784.006	0.04
784.181	0.55
784.355	0.56
784.53	0.37
784.704	0.19
784.878	0.74
785.053	0.69
785.227	0.86
785.402	0.76
785.576	0.07
785.75	0.38
785.925	0.51
786.099	0.66
786.273	0.62
786.448	0.66
786.622	0.84
786.796	0.38
786.97	0.46
787.145	1.07
787.319	0.03
787.493	0.34
787.667	-0.01
787.841	0.46
788.015	0.72
788.19	0.24
788.364	0.39
788.538	0.95
788.712	0.72
788.886	0.38
789.06	0.62
789.234	0.63
789.408	0.2
789.582	0.4
789.756	0.26
789.93	0.29
790.104	0.36
790.278	0.4
790.452	0.04
790.626	0.59
790.8	0.22
790.973	0.67
791.147	0.67
791.321	0.82
791.495	0.73
791.669	0.49
791.843	0.57
792.016	0.44
792.19	0.94
792.364	0.2
792.538	1.21
792.711	0.74
792.885	0.17
793.059	0.31
793.233	-0.19
793.406	0.7
793.58	0.44
793.754	0.58
793.927	0.35
794.101	0.76
794.274	0.3
794.448	0.69
794.622	-0.11
794.795	1.04
794.969	0.48
795.142	0.81
795.316	0.53
795.489	0.17
795.663	0.84
795.836	0.44
796.009	0.26
796.183	0.93
796.356	0.85
796.53	0.62
796.703	0.47
796.876	1.18
797.05	0.57
797.223	0.33
797.396	0.63
797.57	0.31
797.743	0.99
797.916	0.59
798.09	0.36
798.263	0.74
798.436	0.71
798.609	0.16
798.782	0.61
798.956	0.69
799.129	0.54
799.302	0.56
799.475	0.2
799.648	0.37
799.821	0.36
799.994	0.62
800.167	-0.15
800.34	0.6
800.514	0.47
800.687	0.2
800.86	0.24
801.033	0.73
801.206	0.9
801.379	0.28
801.551	0.47
801.724	0.7
801.897	1.36
802.07	0.31
802.243	-0.33
802.416	0.61
802.589	0.53
802.762	0.62
802.935	0.42
803.107	0.86
803.28	0.84
803.453	0.83
803.626	0.2
803.798	0.78
803.971	0.32
804.144	0.69
804.317	0.78
804.489	0.78
804.662	0.26
804.835	0.49
805.007	0.31
805.18	0.82
805.353	0.47
805.525	0.22
805.698	0.15
805.87	0.88
806.043	0.68
806.215	-0.25
806.388	0.18
806.56	0.49
806.733	1.28
806.905	0.55
807.078	0.17
807.25	0.37
807.423	0.96
807.595	0.43
807.768	0.53
807.94	0.92
808.112	0.81
808.285	0.71
808.457	0.26
808.629	0.65
808.802	0.96
808.974	0.8
809.146	0.12
809.318	0.29
809.491	0.71
809.663	0.73
809.835	0.35
810.007	0.8
810.18	0.32
810.352	-0.06
810.524	0.35
810.696	0.93
810.868	0.9
811.04	0.23
811.212	0.51
811.384	0.86
811.556	0.66
811.728	0.51
811.901	1.87
812.073	0.71
812.245	1.23
812.417	0.41
812.589	-0.33
812.76	0.66
812.932	0.92
813.104	1.14
813.276	0.48
813.448	1.24
813.62	0.68
813.792	0.65
813.964	0.76
814.136	0.68
814.307	0.67
814.479	0.36
814.651	0.5
814.823	1.77
814.995	0.52
815.166	0.39
815.338	0.73
815.51	-0.08
815.681	1.31
815.853	0.88
816.025	0.79
816.196	1.87
816.368	0.88
816.54	0.42
816.711	0.47
816.883	0.89
817.054	2.26
817.226	-0.18
817.398	0.84
817.569	0.43
817.741	0.95
817.912	0.35
818.084	0.41
818.255	1.26
818.426	0.17
818.598	1.02
818.769	-0.1
818.941	1.26
819.112	1.25
819.283	0.59
819.455	0.31
819.626	1.24
819.798	0.74
819.969	0.25
820.14	0.61
820.311	0.58
820.483	0.91
820.654	1.08
820.825	0.63
820.996	0.91
821.168	0.01
821.339	0.52
821.51	-0.09
821.681	0.2
821.852	0.65
822.023	0.02
822.195	-0.08
822.366	0.85
822.537	0.52
822.708	0.86
822.879	0.7
823.05	1.49
823.221	0.73
823.392	0.9
823.563	1.11
823.734	0.47
823.905	0.54
824.076	0.4
824.247	0.62
824.418	0.89
824.589	1.49
824.759	0.86
824.93	0.1
825.101	-0.02
825.272	1.82
825.443	1.07
825.614	1.39
825.784	-0.07
825.955	1.77
826.126	1.12
826.297	0.7
826.467	1.81
826.638	1.95
826.809	-0.04
826.98	0.94
827.15	1.77
827.321	0.48
827.492	1.37
827.662	0.52
827.833	2.01
828.003	1.62
828.174	0.07
828.345	-0.09
828.515	1.62
828.686	0.72
828.856	0.75
829.027	0.21
829.197	1.72
829.368	0.72
829.538	0.6
829.709	0.16
829.879	1.32
830.049	0.46
830.22	0.56
830.39	0.57
830.56	1.98
830.731	0.4
830.901	0.67
831.072	0.86
831.242	1.83
831.412	1.66
831.582	0.3
831.753	-0.13
831.923	1.52
832.093	1.08
832.263	1
832.434	0.17
832.604	0.36
832.774	1.76
832.944	0.94
833.114	0.46
833.284	1.4
833.454	0.21
833.624	0.12
833.795	0.68
833.965	1.63
834.135	2.33
834.305	-0.35
834.475	-0.48
834.645	1.36
834.815	1.34
834.985	0.45
835.155	-0.44
835.325	1.59
835.494	1.6
835.664	0.51
835.834	0.35
836.004	1.35
836.174	1.29
836.344	0.17
836.514	-0.14
836.684	0.04
836.853	0.7
837.023	0.71
837.193	0.36
837.363	2.07
837.532	1.9
837.702	1.23
837.872	0.01
838.041	1.39
838.211	3.04
838.381	0.47
838.55	0.54
838.72	3.34
838.89	2.4
839.059	0.18
839.229	-0.16
839.398	2.98
839.568	1.15
839.738	0.29
839.907	2.2
840.077	1.07
840.246	0.63
840.416	0.98
840.585	-0.38
840.755	3.1
840.924	1.69
841.093	0.37
841.263	1.26
841.432	0.65
841.602	0.65
841.771	1.22
841.94	1.32
842.11	3.18
842.279	2.52
842.448	-0.27
842.617	-0.15
842.787	2.77
842.956	0.22
843.125	1.06
843.294	0.9
843.464	1.93
843.633	1.5
843.802	0.14
843.971	1.59
844.14	1.46
844.309	2.18
844.479	-0.63
844.648	-0.55
844.817	0.18
844.986	1.72
845.155	0.22
845.324	0.48
845.493	1.47
845.662	0.82
845.831	1.97
846	1.47
846.169	0.55
846.338	3.27
846.507	0.85
846.676	2.28
846.844	1.25
847.013	2.35
847.182	0.74
847.351	0.61
847.52	0.88
847.689	1.88
847.858	1.04
848.026	0.33
848.195	1.51
848.364	0.69
848.533	0.09
848.701	-0.3
848.87	1.1
849.039	2.66
849.207	1.18
849.376	2.29
849.545	3.19
849.713	0.63
849.882	0.66
850.051	-0.19
850.219	1.51
850.388	2.11
850.556	-0.28
850.725	0.07
850.893	1.82
851.062	0.33
851.23	1.24
851.399	-0.49
851.567	1.48
851.736	0.83
851.904	-0.01
852.073	1.13
852.241	2.57
852.41	2.13
852.578	1.6
852.746	0.83
852.915	2.28
853.083	2.1
853.251	-0.66
853.42	0.89
853.588	0.2
853.756	2.86
853.924	0.23
854.093	0.43
854.261	1.52
854.429	0.34
854.597	1.29
854.765	0.73
854.934	2
855.102	2.63
855.27	1.14
855.438	1.99
855.606	3.16
855.774	5.03
855.942	-0.66
856.11	-1.1
856.278	2.3
856.446	2.04
856.614	1.93
856.782	0.53
856.95	2.56
857.118	1.89
857.286	1.01
857.454	0.37
857.622	2.13
857.79	2.98
857.958	0.27
858.126	0.29
858.294	-1.23
858.462	1.04
858.629	-0.06
858.797	-1.32
858.965	2.25
859.133	2.16
859.301	1.41
859.468	2.43
859.636	0.34
859.804	4.27
859.971	2.69
860.139	-0.2
860.307	2.75
860.474	2.19
860.642	0.7
860.81	-0.02
860.977	0.84
861.145	2.81
861.313	1.99
861.48	1.33
861.648	2.83
861.815	2.26
861.983	-0.45
862.15	0.96
862.318	2.51
862.485	3.63
862.653	-0.43
862.82	-0.58
862.988	4.31
863.155	3.17
863.322	1.31
863.49	1.23
863.657	0.21
863.824	5.12
863.992	1.67
864.159	2.06
864.326	4.52
864.494	2.73
864.661	4.22
864.828	-0.33
864.996	4.05
865.163	4.7
865.33	0.73
865.497	-2.77
865.664	1.08
865.832	0.61
865.999	1.33
866.166	0.89
866.333	2.16
866.5	1.05
866.667	1.5
866.834	1.94
867.001	4.27
867.168	-0.92
867.335	1.89
867.502	0.09
867.669	1.77
867.836	5.92
868.003	0.92
868.17	3.27
868.337	4.71
868.504	5.78
868.671	-0.45
868.838	0.08
869.005	3.03
869.172	3.74
869.339	2.06
869.505	1.01
869.672	2.03
869.839	4.25
870.006	1.86
870.173	0.19
870.339	3.93
870.506	6.05
870.673	1.63
870.84	3.84
871.006	2.75
871.173	2.63
871.34	1.09
871.506	-0.05
871.673	3.98
871.839	0.36
872.006	2.61
872.173	0.22
872.339	2.63
872.506	3.73
872.672	0.22
872.839	-0.15
873.005	2.15
873.172	4.59
873.338	1.82
873.505	2.35
873.671	1.4
873.838	2.53
874.004	-1.94
874.171	0.45
874.337	2.81
874.503	2.74
874.67	2.29
874.836	1.54
875.002	3.22
875.169	5.09
875.335	1.45
875.501	1.95
875.668	5.13
875.834	1.69
876	1.07
876.166	2.81
876.332	3.07
876.499	5.36
876.665	1.4
876.831	2.1
876.997	5.51
877.163	2.46
877.329	1.27
877.495	1.85
877.662	3.02
877.828	2.24
877.994	1.99
878.16	-1.66
878.326	2.77
878.492	3.41
878.658	1.23
878.824	3.07
878.99	3.07
879.156	0.26
879.322	4.2
879.487	1.22
879.653	2.36
879.819	2.71
879.985	0.73
880.151	1.57
880.317	3.01
880.483	3.72
880.648	2.3
880.814	-0.22
880.98	2.53
881.146	-1.18
881.312	0.45
881.477	0.75
881.643	-0.03
881.809	6.18
881.974	4.35
882.14	-1.67
882.306	2.05
882.471	6.94
882.637	1.88
882.803	1.86
882.968	5.97
883.134	7.54
883.299	1.56
883.465	1.67
883.63	2.82
883.796	3.9
883.961	4.62
884.127	3
884.292	-4.08
884.458	-0.4
884.623	-0.4
