Data from Apollo_Calib_20240827__AbsoluteIrradiance__883__13-52-01-149.txt Node

Date: Wed Aug 28 13:52:01 BST 2024
User: biology
Spectrometer: FLMT08252
Trigger mode: 0
Integration Time (sec): 5.000000E-1
Scans to average: 5
Electric dark correction enabled: true
Nonlinearity correction enabled: false
Boxcar width: 0
XAxis mode: Wavelengths
Number of Pixels in Spectrum: 3648
>>>>>Begin Spectral Data<<<<<
179.588	-0
179.809	-0
180.03	-0
180.251	-0
180.473	-0
180.694	0
180.915	0
181.136	-0
181.357	0
181.578	0
181.799	-0
182.02	-0
182.241	-0
182.462	-0
182.683	0
182.904	-0
183.125	-0
183.346	0
183.567	0
183.788	0
184.009	0
184.23	0
184.451	0
184.672	0
184.892	0
185.113	0
185.334	0
185.555	0
185.776	0
185.996	0
186.217	0
186.438	0
186.659	0
186.879	0
187.1	0
187.321	0
187.541	0
187.762	0
187.983	0
188.203	0
188.424	0
188.644	0
188.865	0
189.086	0
189.306	0
189.527	0
189.747	0
189.968	0
190.188	0
190.409	0
190.629	0
190.849	0
191.07	0
191.29	0
191.511	0
191.731	0
191.951	0
192.172	0
192.392	0
192.612	0
192.833	0
193.053	0
193.273	0
193.493	0
193.714	0
193.934	0
194.154	0
194.374	0
194.594	0
194.815	0
195.035	0
195.255	0
195.475	0
195.695	0
195.915	0
196.135	0
196.355	0
196.575	0
196.795	0
197.015	0
197.235	0
197.455	0
197.675	0
197.895	0
198.115	0
198.335	0
198.555	0
198.775	0
198.995	0
199.214	0
199.434	0
199.654	0
199.874	0
200.094	3.49
200.313	2.65
200.533	1.78
200.753	1.65
200.973	3.55
201.192	3.59
201.412	0.97
201.632	1.8
201.851	3.43
202.071	1.96
202.291	1.55
202.51	1.32
202.73	2.66
202.95	1.89
203.169	1.6
203.389	1.75
203.608	1.82
203.828	1.61
204.047	1.41
204.267	2.57
204.486	2.16
204.706	2.23
204.925	1.5
205.145	1.28
205.364	2.49
205.583	2.5
205.803	1.43
206.022	0.9
206.242	1.86
206.461	1.76
206.68	0.9
206.9	1.47
207.119	2.5
207.338	1.9
207.557	1.22
207.777	1.08
207.996	1.32
208.215	2
208.434	0.99
208.654	0.69
208.873	1.67
209.092	1.94
209.311	0.97
209.53	1.12
209.749	1.29
209.968	1.07
210.187	1.01
210.407	0.68
210.626	1.45
210.845	1.58
211.064	1.28
211.283	0.81
211.502	1.73
211.721	1.36
211.94	0.99
212.159	1.15
212.377	1.31
212.596	1.65
212.815	1.21
213.034	1.32
213.253	1.23
213.472	1.44
213.691	1.05
213.91	0.66
214.128	0.59
214.347	1.76
214.566	0.52
214.785	0.42
215.003	1.31
215.222	1
215.441	0.75
215.66	0.55
215.878	1.06
216.097	1.34
216.316	0.57
216.534	0.9
216.753	1.26
216.972	0.72
217.19	1.04
217.409	0.75
217.627	0.65
217.846	0.9
218.064	0.86
218.283	0.42
218.501	1.45
218.72	1.24
218.938	0.62
219.157	0.7
219.375	1.03
219.594	1.07
219.812	0.44
220.031	0.42
220.249	1.21
220.467	1.25
220.686	0.52
220.904	0.64
221.122	0.74
221.341	1.32
221.559	0.83
221.777	0.7
221.995	0.89
222.214	1.01
222.432	0.54
222.65	0.77
222.868	0.69
223.086	0.91
223.305	0.91
223.523	0.61
223.741	1.1
223.959	0.73
224.177	0.29
224.395	0.49
224.613	0.71
224.831	0.94
225.049	0.41
225.267	0.58
225.485	0.81
225.703	0.55
225.921	0.57
226.139	0.69
226.357	0.86
226.575	0.92
226.793	0.49
227.011	1.66
227.229	0.67
227.447	0.91
227.665	0.48
227.883	0.36
228.1	0.77
228.318	0.75
228.536	0.25
228.754	0.52
228.972	0.7
229.189	0.68
229.407	0.41
229.625	0.62
229.843	0.99
230.06	0.81
230.278	0.5
230.496	0.55
230.713	0.61
230.931	0.83
231.149	0.46
231.366	0.24
231.584	0.66
231.801	0.99
232.019	0.45
232.236	0.43
232.454	0.38
232.671	0.69
232.889	0.57
233.106	0.43
233.324	0.65
233.541	0.53
233.759	0.54
233.976	0.36
234.194	0.49
234.411	0.64
234.628	0.41
234.846	0.43
235.063	0.64
235.28	0.53
235.498	0.39
235.715	0.29
235.932	0.7
236.149	0.52
236.367	0.39
236.584	0.57
236.801	0.41
237.018	0.65
237.236	0.35
237.453	0.3
237.67	0.72
237.887	0.53
238.104	0.37
238.321	0.3
238.538	0.32
238.755	0.72
238.973	0.25
239.19	0.55
239.407	0.47
239.624	0.58
239.841	0.34
240.058	0.37
240.275	0.52
240.492	0.51
240.709	0.48
240.925	0.39
241.142	0.45
241.359	0.42
241.576	0.34
241.793	0.23
242.01	0.52
242.227	0.68
242.444	0.47
242.66	0.58
242.877	0.54
243.094	0.45
243.311	0.42
243.527	0.43
243.744	0.56
243.961	0.47
244.178	0.33
244.394	0.33
244.611	0.66
244.828	0.73
245.044	0.31
245.261	0.38
245.477	0.57
245.694	0.58
245.911	0.33
246.127	0.43
246.344	0.62
246.56	0.51
246.777	0.38
246.993	0.47
247.21	0.46
247.426	0.61
247.643	0.3
247.859	0.35
248.076	0.39
248.292	0.77
248.508	0.31
248.725	0.49
248.941	0.52
249.157	0.7
249.374	0.35
249.59	0.49
249.806	0.36
250.023	0.45
250.239	0.33
250.455	0.36
250.671	0.43
250.888	0.51
251.104	0.43
251.32	0.39
251.536	0.43
251.752	0.39
251.969	0.46
252.185	0.37
252.401	0.72
252.617	0.5
252.833	0.32
253.049	0.46
253.265	0.41
253.481	0.47
253.697	0.34
253.913	0.33
254.129	0.48
254.345	0.42
254.561	0.32
254.777	0.23
254.993	0.53
255.209	0.44
255.425	0.32
255.641	0.3
255.857	0.57
256.073	0.48
256.288	0.19
256.504	0.4
256.72	0.51
256.936	0.58
257.152	0.36
257.367	0.27
257.583	0.43
257.799	0.53
258.015	0.27
258.23	0.27
258.446	0.56
258.662	0.34
258.877	0.29
259.093	0.27
259.309	0.45
259.524	0.48
259.74	0.28
259.955	0.27
260.171	0.39
260.387	0.39
260.602	0.41
260.818	0.34
261.033	0.25
261.249	0.43
261.464	0.32
261.68	0.25
261.895	0.56
262.11	0.47
262.326	0.29
262.541	0.23
262.757	0.51
262.972	0.5
263.187	0.37
263.403	0.34
263.618	0.46
263.833	0.41
264.049	0.23
264.264	0.35
264.479	0.35
264.694	0.54
264.91	0.22
265.125	0.28
265.34	0.41
265.555	0.54
265.77	0.33
265.986	0.33
266.201	0.37
266.416	0.45
266.631	0.28
266.846	0.29
267.061	0.4
267.276	0.47
267.491	0.16
267.706	0.34
267.921	0.36
268.136	0.41
268.351	0.36
268.566	0.29
268.781	0.49
268.996	0.5
269.211	0.32
269.426	0.25
269.641	0.32
269.856	0.43
270.071	0.27
270.285	0.23
270.5	0.34
270.715	0.46
270.93	0.33
271.145	0.35
271.359	0.44
271.574	0.3
271.789	0.32
272.004	0.28
272.218	0.3
272.433	0.41
272.648	0.29
272.862	0.36
273.077	0.38
273.292	0.34
273.506	0.27
273.721	0.32
273.936	0.4
274.15	0.39
274.365	0.21
274.579	0.38
274.794	0.4
275.008	0.37
275.223	0.19
275.437	0.33
275.652	0.43
275.866	0.42
276.081	0.32
276.295	0.43
276.509	0.35
276.724	0.32
276.938	0.23
277.153	0.41
277.367	0.39
277.581	0.3
277.796	0.3
278.01	0.2
278.224	0.38
278.438	0.42
278.653	0.27
278.867	0.3
279.081	0.42
279.295	0.32
279.51	0.29
279.724	0.2
279.938	0.39
280.152	0.37
280.366	0.26
280.58	0.3
280.794	0.42
281.008	0.39
281.222	0.28
281.437	0.46
281.651	0.37
281.865	0.41
282.079	0.24
282.293	0.2
282.507	0.26
282.721	0.33
282.935	0.26
283.148	0.18
283.362	0.25
283.576	0.22
283.79	0.3
284.004	0.24
284.218	0.42
284.432	0.27
284.646	0.3
284.859	0.26
285.073	0.28
285.287	0.35
285.501	0.29
285.714	0.22
285.928	0.29
286.142	0.32
286.356	0.24
286.569	0.24
286.783	0.38
286.997	0.38
287.21	0.32
287.424	0.24
287.637	0.33
287.851	0.22
288.065	0.31
288.278	0.26
288.492	0.31
288.705	0.22
288.919	0.32
289.132	0.2
289.346	0.34
289.559	0.19
289.773	0.23
289.986	0.24
290.2	0.3
290.413	0.38
290.626	0.26
290.84	0.26
291.053	0.29
291.267	0.36
291.48	0.28
291.693	0.27
291.906	0.22
292.12	0.28
292.333	0.27
292.546	0.25
292.76	0.36
292.973	0.31
293.186	0.32
293.399	0.26
293.612	0.29
293.826	0.3
294.039	0.25
294.252	0.31
294.465	0.31
294.678	0.26
294.891	0.3
295.104	0.19
295.317	0.22
295.53	0.25
295.743	0.24
295.956	0.17
296.169	0.36
296.382	0.34
296.595	0.28
296.808	0.25
297.021	0.33
297.234	0.35
297.447	0.24
297.66	0.3
297.873	0.33
298.086	0.3
298.299	0.22
298.511	0.15
298.724	0.27
298.937	0.23
299.15	0.17
299.363	0.26
299.575	0.37
299.788	0.28
300.001	0.22
300.213	0.23
300.426	0.24
300.639	0.27
300.852	0.22
301.064	0.32
301.277	0.38
301.489	0.31
301.702	0.26
301.915	0.27
302.127	0.28
302.34	0.26
302.552	0.27
302.765	0.22
302.977	0.32
303.19	0.19
303.402	0.19
303.615	0.21
303.827	0.28
304.04	0.26
304.252	0.28
304.464	0.22
304.677	0.41
304.889	0.36
305.102	0.23
305.314	0.22
305.526	0.31
305.739	0.29
305.951	0.19
306.163	0.25
306.375	0.32
306.588	0.23
306.8	0.23
307.012	0.2
307.224	0.3
307.436	0.37
307.649	0.17
307.861	0.26
308.073	0.34
308.285	0.23
308.497	0.2
308.709	0.21
308.921	0.29
309.133	0.33
309.346	0.28
309.558	0.25
309.77	0.32
309.982	0.36
310.194	0.29
310.406	0.24
310.617	0.41
310.829	0.29
311.041	0.3
311.253	0.18
311.465	0.26
311.677	0.27
311.889	0.24
312.101	0.19
312.313	0.37
312.524	0.36
312.736	0.12
312.948	0.25
313.16	0.37
313.372	0.29
313.583	0.24
313.795	0.21
314.007	0.25
314.218	0.35
314.43	0.28
314.642	0.25
314.853	0.15
315.065	0.34
315.277	0.27
315.488	0.25
315.7	0.31
315.912	0.3
316.123	0.24
316.335	0.26
316.546	0.36
316.758	0.23
316.969	0.24
317.181	0.24
317.392	0.25
317.604	0.32
317.815	0.23
318.026	0.22
318.238	0.27
318.449	0.3
318.661	0.14
318.872	0.15
319.083	0.2
319.295	0.3
319.506	0.24
319.717	0.28
319.929	0.3
320.14	0.24
320.351	0.27
320.562	0.22
320.774	0.26
320.985	0.28
321.196	0.19
321.407	0.18
321.618	0.32
321.829	0.3
322.041	0.25
322.252	0.24
322.463	0.28
322.674	0.31
322.885	0.2
323.096	0.23
323.307	0.29
323.518	0.28
323.729	0.21
323.94	0.17
324.151	0.27
324.362	0.33
324.573	0.28
324.784	0.25
324.995	0.29
325.206	0.3
325.417	0.24
325.628	0.19
325.838	0.26
326.049	0.28
326.26	0.3
326.471	0.24
326.682	0.27
326.892	0.27
327.103	0.21
327.314	0.22
327.525	0.35
327.735	0.3
327.946	0.22
328.157	0.2
328.368	0.34
328.578	0.25
328.789	0.3
328.999	0.21
329.21	0.25
329.421	0.33
329.631	0.2
329.842	0.24
330.052	0.28
330.263	0.29
330.473	0.26
330.684	0.23
330.894	0.29
331.105	0.3
331.315	0.26
331.526	0.19
331.736	0.35
331.947	0.26
332.157	0.25
332.367	0.18
332.578	0.31
332.788	0.34
332.999	0.33
333.209	0.21
333.419	0.21
333.629	0.28
333.84	0.31
334.05	0.23
334.26	0.37
334.47	0.27
334.681	0.31
334.891	0.19
335.101	0.28
335.311	0.35
335.521	0.24
335.732	0.21
335.942	0.31
336.152	0.29
336.362	0.23
336.572	0.23
336.782	0.29
336.992	0.25
337.202	0.24
337.412	0.23
337.622	0.25
337.832	0.23
338.042	0.24
338.252	0.22
338.462	0.3
338.672	0.31
338.882	0.24
339.092	0.24
339.302	0.33
339.511	0.32
339.721	0.25
339.931	0.19
340.141	0.38
340.351	0.39
340.561	0.22
340.77	0.27
340.98	0.25
341.19	0.32
341.4	0.24
341.609	0.18
341.819	0.26
342.029	0.16
342.238	0.24
342.448	0.22
342.658	0.32
342.867	0.24
343.077	0.19
343.286	0.24
343.496	0.27
343.706	0.32
343.915	0.21
344.125	0.29
344.334	0.29
344.544	0.25
344.753	0.22
344.963	0.22
345.172	0.2
345.381	0.22
345.591	0.19
345.8	0.23
346.01	0.33
346.219	0.32
346.428	0.14
346.638	0.2
346.847	0.25
347.056	0.34
347.266	0.22
347.475	0.24
347.684	0.31
347.893	0.28
348.103	0.27
348.312	0.19
348.521	0.27
348.73	0.28
348.94	0.26
349.149	0.22
349.358	0.29
349.567	0.25
349.776	0.18
349.985	0.25
350.194	0.3
350.403	0.29
350.612	0.15
350.821	0.24
351.03	0.27
351.239	0.21
351.448	0.26
351.657	0.18
351.866	0.33
352.075	0.29
352.284	0.29
352.493	0.19
352.702	0.3
352.911	0.28
353.12	0.22
353.329	0.24
353.538	0.26
353.746	0.24
353.955	0.22
354.164	0.27
354.373	0.23
354.582	0.32
354.79	0.25
354.999	0.29
355.208	0.23
355.416	0.33
355.625	0.19
355.834	0.2
356.042	0.3
356.251	0.21
356.46	0.16
356.668	0.25
356.877	0.35
357.085	0.31
357.294	0.16
357.503	0.24
357.711	0.24
357.92	0.43
358.128	0.3
358.337	0.19
358.545	0.27
358.754	0.23
358.962	0.28
359.17	0.26
359.379	0.28
359.587	0.3
359.796	0.23
360.004	0.31
360.212	0.3
360.421	0.31
360.629	0.22
360.837	0.21
361.046	0.29
361.254	0.42
361.462	0.25
361.67	0.2
361.879	0.31
362.087	0.36
362.295	0.27
362.503	0.19
362.711	0.17
362.92	0.22
363.128	0.2
363.336	0.21
363.544	0.2
363.752	0.22
363.96	0.21
364.168	0.21
364.376	0.22
364.584	0.23
364.792	0.34
365	0.22
365.208	0.23
365.416	0.3
365.624	0.31
365.832	0.24
366.04	0.34
366.248	0.31
366.456	0.25
366.664	0.27
366.872	0.24
367.079	0.24
367.287	0.21
367.495	0.24
367.703	0.22
367.911	0.26
368.118	0.23
368.326	0.28
368.534	0.18
368.742	0.36
368.949	0.21
369.157	0.22
369.365	0.29
369.572	0.22
369.78	0.26
369.988	0.27
370.195	0.24
370.403	0.32
370.61	0.21
370.818	0.27
371.026	0.35
371.233	0.26
371.441	0.28
371.648	0.25
371.856	0.27
372.063	0.3
372.271	0.26
372.478	0.2
372.685	0.23
372.893	0.32
373.1	0.24
373.308	0.2
373.515	0.38
373.722	0.32
373.93	0.22
374.137	0.28
374.344	0.37
374.552	0.32
374.759	0.3
374.966	0.3
375.173	0.27
375.381	0.33
375.588	0.25
375.795	0.18
376.002	0.27
376.209	0.22
376.417	0.25
376.624	0.28
376.831	0.31
377.038	0.27
377.245	0.19
377.452	0.2
377.659	0.27
377.866	0.25
378.073	0.27
378.28	0.25
378.487	0.32
378.694	0.3
378.901	0.25
379.108	0.17
379.315	0.32
379.522	0.33
379.729	0.28
379.936	0.24
380.143	0.27
380.35	0.3
380.557	0.26
380.763	0.21
380.97	0.26
381.177	0.32
381.384	0.27
381.591	0.25
381.797	0.27
382.004	0.31
382.211	0.28
382.418	0.19
382.624	0.29
382.831	0.33
383.038	0.25
383.244	0.32
383.451	0.29
383.658	0.31
383.864	0.24
384.071	0.18
384.277	0.4
384.484	0.22
384.69	0.33
384.897	0.23
385.103	0.21
385.31	0.26
385.516	0.22
385.723	0.22
385.929	0.31
386.136	0.29
386.342	0.28
386.549	0.25
386.755	0.37
386.961	0.3
387.168	0.26
387.374	0.26
387.58	0.36
387.787	0.32
387.993	0.23
388.199	0.27
388.406	0.27
388.612	0.32
388.818	0.26
389.024	0.25
389.231	0.29
389.437	0.41
389.643	0.3
389.849	0.27
390.055	0.3
390.261	0.28
390.467	0.34
390.674	0.28
390.88	0.28
391.086	0.33
391.292	0.2
391.498	0.29
391.704	0.31
391.91	0.3
392.116	0.27
392.322	0.21
392.528	0.35
392.734	0.28
392.94	0.28
393.146	0.29
393.352	0.28
393.557	0.29
393.763	0.34
393.969	0.34
394.175	0.34
394.381	0.3
394.587	0.26
394.792	0.31
394.998	0.35
395.204	0.34
395.41	0.25
395.615	0.33
395.821	0.35
396.027	0.36
396.233	0.28
396.438	0.32
396.644	0.34
396.85	0.34
397.055	0.36
397.261	0.33
397.466	0.37
397.672	0.38
397.878	0.39
398.083	0.34
398.289	0.34
398.494	0.42
398.7	0.4
398.905	0.25
399.111	0.44
399.316	0.26
399.522	0.34
399.727	0.35
399.932	0.34
400.138	0.29
400.343	0.4
400.549	0.38
400.754	0.33
400.959	0.39
401.165	0.33
401.37	0.38
401.575	0.48
401.78	0.38
401.986	0.35
402.191	0.34
402.396	0.36
402.601	0.43
402.807	0.39
403.012	0.37
403.217	0.42
403.422	0.38
403.627	0.39
403.832	0.38
404.037	0.47
404.243	0.43
404.448	0.39
404.653	0.38
404.858	0.48
405.063	0.49
405.268	0.41
405.473	0.36
405.678	0.43
405.883	0.69
406.088	0.53
406.293	0.38
406.498	0.45
406.703	0.54
406.907	0.46
407.112	0.44
407.317	0.53
407.522	0.54
407.727	0.47
407.932	0.54
408.136	0.68
408.341	0.48
408.546	0.52
408.751	0.52
408.956	0.55
409.16	0.67
409.365	0.62
409.57	0.61
409.774	0.6
409.979	0.67
410.184	0.66
410.388	0.57
410.593	0.74
410.798	0.73
411.002	0.72
411.207	0.77
411.411	0.8
411.616	0.67
411.82	0.84
412.025	0.81
412.229	0.72
412.434	0.95
412.638	0.88
412.843	0.87
413.047	0.92
413.252	0.89
413.456	0.97
413.66	1.02
413.865	0.97
414.069	1.07
414.273	1.05
414.478	1.05
414.682	1.15
414.886	1.15
415.091	1.11
415.295	1.22
415.499	1.33
415.703	1.27
415.908	1.4
416.112	1.28
416.316	1.51
416.52	1.48
416.724	1.42
416.929	1.5
417.133	1.77
417.337	1.65
417.541	1.69
417.745	1.71
417.949	1.81
418.153	1.9
418.357	1.87
418.561	2.1
418.765	2.01
418.969	2.21
419.173	2.25
419.377	2.3
419.581	2.55
419.785	2.43
419.989	2.45
420.193	2.56
420.397	2.61
420.601	2.86
420.804	2.91
421.008	2.85
421.212	3.06
421.416	3.01
421.62	3.08
421.823	3.19
422.027	3.27
422.231	3.21
422.435	3.2
422.638	3.31
422.842	3.45
423.046	3.46
423.249	3.71
423.453	3.65
423.657	3.89
423.86	3.92
424.064	4.05
424.268	4.14
424.471	4.14
424.675	4.4
424.878	4.45
425.082	4.51
425.285	4.85
425.489	4.72
425.692	4.85
425.896	4.85
426.099	5.09
426.303	5.33
426.506	5.33
426.71	5.6
426.913	5.79
427.116	5.92
427.32	5.87
427.523	6
427.726	6.32
427.93	6.39
428.133	6.69
428.336	6.83
428.54	6.87
428.743	7.12
428.946	7.38
429.149	7.31
429.353	7.45
429.556	7.48
429.759	7.57
429.962	7.78
430.165	7.92
430.368	7.57
430.571	7.61
430.775	7.7
430.978	7.59
431.181	7.72
431.384	7.87
431.587	7.86
431.79	8.24
431.993	8.29
432.196	8.48
432.399	8.89
432.602	8.99
432.805	9.11
433.008	9.53
433.211	9.48
433.414	9.95
433.616	9.98
433.819	9.81
434.022	10.07
434.225	10.2
434.428	10.25
434.631	10.67
434.833	10.4
435.036	10.73
435.239	10.86
435.442	10.89
435.645	11.06
435.847	11.23
436.05	11.51
436.253	11.67
436.455	11.66
436.658	11.53
436.861	11.84
437.063	11.93
437.266	11.9
437.468	12.33
437.671	12.65
437.874	12.63
438.076	12.42
438.279	12.93
438.481	12.96
438.684	13.72
438.886	13.33
439.089	13.66
439.291	13.63
439.494	13.94
439.696	14.19
439.899	14.63
440.101	15.06
440.303	15.23
440.506	16.03
440.708	15.64
440.91	15.87
441.113	16.14
441.315	16.34
441.517	16.24
441.72	16.74
441.922	16.38
442.124	16.23
442.326	16.64
442.529	16.95
442.731	16.73
442.933	17.09
443.135	16.84
443.337	16.95
443.539	17.48
443.742	17.15
443.944	17.83
444.146	17.6
444.348	17.52
444.55	17.46
444.752	17.53
444.954	17.65
445.156	17.61
445.358	17.88
445.56	18.17
445.762	18.11
445.964	18.36
446.166	18.12
446.368	18.17
446.57	18.26
446.772	17.91
446.974	17.56
447.175	17.87
447.377	17.72
447.579	18.04
447.781	17.67
447.983	17.61
448.184	17.18
448.386	17.68
448.588	17.1
448.79	16.97
448.991	17.4
449.193	17.47
449.395	16.81
449.597	16.4
449.798	16.47
450	15.96
450.202	15.98
450.403	15.93
450.605	15.8
450.806	15.4
451.008	15.26
451.21	15.21
451.411	14.81
451.613	13.91
451.814	14.22
452.016	14.42
452.217	13.46
452.419	13.56
452.62	13.19
452.821	12.88
453.023	12.84
453.224	12.49
453.426	12.12
453.627	11.44
453.828	11.52
454.03	11.65
454.231	11.59
454.432	11.39
454.634	11.22
454.835	10.82
455.036	10.83
455.238	10.46
455.439	10.06
455.64	9.84
455.841	9.74
456.042	9.89
456.244	9.62
456.445	9.29
456.646	8.91
456.847	8.85
457.048	8.82
457.249	8.74
457.45	8.55
457.651	7.99
457.852	7.93
458.054	7.53
458.255	7.37
458.456	7.52
458.657	7.41
458.858	7.05
459.058	6.97
459.259	6.97
459.46	6.72
459.661	6.61
459.862	6.71
460.063	6.59
460.264	6.54
460.465	6.24
460.666	6.18
460.866	5.89
461.067	5.74
461.268	5.77
461.469	5.57
461.67	5.58
461.87	5.44
462.071	5.42
462.272	5.27
462.473	5.22
462.673	5.45
462.874	5.36
463.075	5.36
463.275	5.29
463.476	5.4
463.676	5.24
463.877	5.07
464.078	5.16
464.278	5.18
464.479	5
464.679	4.97
464.88	4.79
465.08	4.82
465.281	4.67
465.481	4.49
465.682	4.31
465.882	4.36
466.083	4.26
466.283	4.19
466.483	4.08
466.684	3.86
466.884	3.75
467.085	3.78
467.285	3.89
467.485	3.76
467.686	3.72
467.886	3.63
468.086	3.52
468.286	3.5
468.487	3.6
468.687	3.44
468.887	3.33
469.087	3.49
469.287	3.4
469.488	3.19
469.688	3.3
469.888	3.37
470.088	3.27
470.288	3.14
470.488	3.2
470.688	3.04
470.888	2.99
471.088	2.77
471.288	2.97
471.488	2.92
471.688	2.84
471.888	2.82
472.088	3.02
472.288	2.87
472.488	2.73
472.688	2.71
472.888	2.73
473.088	2.73
473.288	2.61
473.488	2.57
473.688	2.71
473.887	2.55
474.087	2.55
474.287	2.51
474.487	2.46
474.687	2.52
474.886	2.44
475.086	2.37
475.286	2.42
475.486	2.33
475.685	2.32
475.885	2.28
476.085	2.38
476.284	2.39
476.484	2.35
476.684	2.32
476.883	2.4
477.083	2.3
477.282	2.16
477.482	2.27
477.681	2.17
477.881	2.09
478.08	2.17
478.28	2.14
478.479	2.17
478.679	2.23
478.878	2.09
479.078	2.07
479.277	2.16
479.477	2.17
479.676	2.11
479.875	2.04
480.075	2.05
480.274	2.12
480.473	2.15
480.673	2.02
480.872	2.15
481.071	2.15
481.271	2.1
481.47	2.01
481.669	2.05
481.868	2.03
482.067	2.09
482.267	1.98
482.466	1.97
482.665	2.01
482.864	2.03
483.063	2
483.262	2.06
483.461	2.11
483.661	2.13
483.86	2.04
484.059	2.13
484.258	2.09
484.457	2.06
484.656	2.09
484.855	2.11
485.054	2
485.253	2.04
485.452	2.01
485.651	2.09
485.849	2.05
486.048	2.02
486.247	2.03
486.446	2.14
486.645	2.05
486.844	2.12
487.043	2.1
487.241	2.14
487.44	2.12
487.639	2.19
487.838	2.19
488.037	2.17
488.235	2.26
488.434	2.22
488.633	2.07
488.831	2.29
489.03	2.22
489.229	2.26
489.427	2.23
489.626	2.28
489.825	2.35
490.023	2.32
490.222	2.29
490.42	2.33
490.619	2.4
490.817	2.38
491.016	2.38
491.214	2.45
491.413	2.47
491.611	2.39
491.81	2.42
492.008	2.48
492.207	2.57
492.405	2.52
492.604	2.46
492.802	2.57
493	2.63
493.199	2.64
493.397	2.63
493.595	2.7
493.794	2.65
493.992	2.78
494.19	2.78
494.388	2.85
494.587	2.76
494.785	2.8
494.983	2.76
495.181	2.9
495.379	2.9
495.578	2.99
495.776	2.95
495.974	2.91
496.172	2.91
496.37	3.11
496.568	3.12
496.766	3.11
496.964	3.2
497.162	3.2
497.36	3.2
497.558	3.26
497.756	3.32
497.954	3.3
498.152	3.34
498.35	3.45
498.548	3.36
498.746	3.38
498.944	3.41
499.142	3.43
499.34	3.5
499.538	3.64
499.736	3.48
499.933	3.63
500.131	3.65
500.329	3.75
500.527	3.72
500.725	3.87
500.922	3.79
501.12	3.85
501.318	3.94
501.516	3.92
501.713	4.02
501.911	3.96
502.109	3.93
502.306	4.08
502.504	3.98
502.701	4.03
502.899	4.14
503.097	4.31
503.294	4.19
503.492	4.27
503.689	4.35
503.887	4.29
504.084	4.43
504.282	4.37
504.479	4.39
504.677	4.5
504.874	4.51
505.072	4.44
505.269	4.64
505.466	4.71
505.664	4.72
505.861	4.57
506.059	4.69
506.256	4.77
506.453	4.83
506.651	4.95
506.848	4.96
507.045	4.88
507.242	4.89
507.44	4.92
507.637	5.04
507.834	5.05
508.031	5.17
508.229	5.09
508.426	5.01
508.623	5.2
508.82	5.31
509.017	5.22
509.214	5.17
509.411	5.3
509.608	5.29
509.805	5.46
510.003	5.35
510.2	5.43
510.397	5.64
510.594	5.48
510.791	5.56
510.988	5.58
511.184	5.55
511.381	5.48
511.578	5.63
511.775	5.83
511.972	5.63
512.169	5.73
512.366	5.81
512.563	5.85
512.76	5.98
512.956	5.96
513.153	5.84
513.35	5.89
513.547	5.83
513.744	5.99
513.94	5.98
514.137	6.11
514.334	6.05
514.53	6.14
514.727	6.24
514.924	6.18
515.12	6.18
515.317	6.19
515.514	6.15
515.71	6.08
515.907	6.42
516.103	6.35
516.3	6.26
516.497	6.41
516.693	6.39
516.89	6.35
517.086	6.42
517.283	6.4
517.479	6.34
517.676	6.54
517.872	6.61
518.068	6.55
518.265	6.57
518.461	6.43
518.658	6.7
518.854	6.64
519.05	6.75
519.247	6.76
519.443	6.7
519.639	6.79
519.836	6.73
520.032	6.69
520.228	6.88
520.424	6.81
520.621	6.89
520.817	6.87
521.013	6.83
521.209	7.04
521.405	6.99
521.601	6.96
521.798	6.95
521.994	7
522.19	6.88
522.386	6.91
522.582	7.02
522.778	7.18
522.974	7.01
523.17	7.04
523.366	7.04
523.562	7.1
523.758	7.09
523.954	6.98
524.15	7.12
524.346	7.19
524.542	7.22
524.738	7.13
524.934	7.3
525.129	7.29
525.325	7.2
525.521	7.15
525.717	7.37
525.913	7.22
526.109	7.28
526.304	7.38
526.5	7.35
526.696	7.33
526.892	7.31
527.087	7.53
527.283	7.45
527.479	7.42
527.674	7.27
527.87	7.43
528.066	7.41
528.261	7.48
528.457	7.39
528.653	7.5
528.848	7.53
529.044	7.61
529.239	7.44
529.435	7.43
529.63	7.41
529.826	7.45
530.021	7.46
530.217	7.53
530.412	7.53
530.608	7.6
530.803	7.47
530.999	7.48
531.194	7.55
531.389	7.7
531.585	7.64
531.78	7.75
531.975	7.7
532.171	7.69
532.366	7.62
532.561	7.7
532.757	7.61
532.952	7.8
533.147	7.63
533.342	7.73
533.538	7.62
533.733	7.85
533.928	7.51
534.123	7.75
534.318	7.76
534.513	7.64
534.709	7.88
534.904	7.76
535.099	7.88
535.294	7.88
535.489	7.8
535.684	7.75
535.879	7.77
536.074	7.84
536.269	7.79
536.464	7.86
536.659	7.82
536.854	7.78
537.049	7.87
537.244	7.8
537.439	7.82
537.634	7.87
537.828	7.88
538.023	7.87
538.218	7.87
538.413	7.78
538.608	7.92
538.803	7.84
538.997	7.81
539.192	7.91
539.387	7.82
539.582	7.86
539.776	7.77
539.971	7.95
540.166	7.99
540.36	7.86
540.555	7.98
540.75	7.97
540.944	7.95
541.139	7.92
541.334	7.96
541.528	7.94
541.723	8.04
541.917	8.01
542.112	7.92
542.306	7.82
542.501	7.85
542.695	7.92
542.89	7.85
543.084	8.01
543.279	7.99
543.473	7.99
543.668	8.08
543.862	7.9
544.056	7.88
544.251	7.94
544.445	8.06
544.64	8.08
544.834	7.76
545.028	7.58
545.222	8
545.417	8.15
545.611	8.05
545.805	7.97
546	7.79
546.194	7.99
546.388	8
546.582	7.94
546.776	8.01
546.97	8.05
547.165	7.96
547.359	7.94
547.553	7.95
547.747	7.94
547.941	8.13
548.135	7.94
548.329	8.09
548.523	8.03
548.717	7.93
548.911	7.9
549.105	7.94
549.299	8
549.493	8.08
549.687	7.93
549.881	8.06
550.075	8.05
550.269	7.92
550.463	8.04
550.657	8.06
550.85	8.02
551.044	7.98
551.238	8.05
551.432	8.02
551.626	8
551.82	8.05
552.013	7.93
552.207	8.12
552.401	8.12
552.594	8.04
552.788	7.98
552.982	7.96
553.176	7.91
553.369	8.18
553.563	8.13
553.756	8.01
553.95	8.03
554.144	8.11
554.337	8.13
554.531	7.85
554.724	8.09
554.918	8.16
555.111	8.05
555.305	8.05
555.498	8
555.692	8.11
555.885	8.08
556.079	7.98
556.272	8.02
556.466	8.01
556.659	8.02
556.852	8.04
557.046	7.93
557.239	7.88
557.432	7.97
557.626	8.1
557.819	8.19
558.012	8.06
558.206	8.18
558.399	8.09
558.592	8
558.785	8.05
558.979	7.97
559.172	8.09
559.365	8.03
559.558	8
559.751	7.97
559.944	8.07
560.138	7.99
560.331	8.07
560.524	8.13
560.717	8.09
560.91	8.03
561.103	8.08
561.296	7.94
561.489	8.03
561.682	8.1
561.875	8.05
562.068	8.14
562.261	7.96
562.454	8.18
562.647	8
562.84	8.12
563.032	8.09
563.225	7.99
563.418	8
563.611	8.09
563.804	8.06
563.997	7.89
564.19	7.81
564.382	8.11
564.575	8.08
564.768	7.93
564.961	8.09
565.153	8.01
565.346	7.92
565.539	8.12
565.731	8.07
565.924	8.13
566.117	8.11
566.309	8.06
566.502	7.95
566.695	7.96
566.887	8.12
567.08	8.01
567.272	8.09
567.465	7.92
567.657	8.03
567.85	7.9
568.042	8.1
568.235	8.04
568.427	7.95
568.62	8
568.812	7.97
569.005	8.04
569.197	7.87
569.389	7.97
569.582	8.02
569.774	8.03
569.966	7.91
570.159	7.84
570.351	7.88
570.543	7.93
570.736	8
570.928	7.83
571.12	8.02
571.312	7.93
571.505	7.72
571.697	7.97
571.889	7.98
572.081	7.91
572.273	7.84
572.465	8
572.658	7.91
572.85	7.97
573.042	8.01
573.234	7.8
573.426	7.86
573.618	7.86
573.81	7.93
574.002	7.89
574.194	7.92
574.386	7.88
574.578	7.74
574.77	7.84
574.962	7.89
575.154	7.76
575.346	7.78
575.538	7.85
575.729	7.75
575.921	7.87
576.113	7.87
576.305	7.83
576.497	7.9
576.689	7.7
576.88	7.7
577.072	7.88
577.264	7.83
577.456	7.82
577.647	7.81
577.839	7.91
578.031	7.85
578.223	7.72
578.414	7.64
578.606	7.8
578.798	7.85
578.989	7.75
579.181	7.79
579.372	7.76
579.564	7.75
579.755	7.71
579.947	7.59
580.139	7.79
580.33	7.62
580.522	7.68
580.713	7.61
580.905	7.62
581.096	7.78
581.287	7.66
581.479	7.63
581.67	7.73
581.862	7.66
582.053	7.62
582.244	7.5
582.436	7.76
582.627	7.53
582.818	7.53
583.01	7.56
583.201	7.61
583.392	7.59
583.583	7.53
583.775	7.46
583.966	7.5
584.157	7.6
584.348	7.69
584.54	7.48
584.731	7.54
584.922	7.45
585.113	7.37
585.304	7.58
585.495	7.47
585.686	7.54
585.877	7.53
586.068	7.53
586.259	7.51
586.45	7.47
586.641	7.47
586.832	7.5
587.023	7.41
587.214	7.41
587.405	7.51
587.596	7.31
587.787	7.33
587.978	7.31
588.169	7.3
588.36	7.27
588.551	7.33
588.742	7.34
588.932	7.41
589.123	7.16
589.314	7.44
589.505	7.24
589.696	7.25
589.886	7.27
590.077	7.25
590.268	7.18
590.458	7.16
590.649	7.06
590.84	7.28
591.03	7.16
591.221	7.16
591.412	7.11
591.602	7.29
591.793	7.14
591.984	7.22
592.174	7.11
592.365	7.23
592.555	7.07
592.746	7.1
592.936	7.07
593.127	7.13
593.317	7.13
593.508	7.11
593.698	7.02
593.889	7.03
594.079	7.03
594.269	6.92
594.46	6.96
594.65	7.05
594.84	7
595.031	6.89
595.221	6.93
595.411	6.96
595.602	6.97
595.792	6.85
595.982	6.84
596.172	6.93
596.363	6.82
596.553	6.83
596.743	6.89
596.933	6.81
597.123	6.82
597.314	6.76
597.504	6.66
597.694	6.87
597.884	6.8
598.074	6.81
598.264	6.7
598.454	6.77
598.644	6.68
598.834	6.71
599.024	6.54
599.214	6.63
599.404	6.73
599.594	6.67
599.784	6.56
599.974	6.63
600.164	6.6
600.354	6.58
600.544	6.46
600.734	6.54
600.924	6.56
601.114	6.44
601.303	6.45
601.493	6.55
601.683	6.53
601.873	6.46
602.063	6.38
602.252	6.47
602.442	6.33
602.632	6.36
602.821	6.29
603.011	6.37
603.201	6.42
603.39	6.29
603.58	6.21
603.77	6.41
603.959	6.43
604.149	6.35
604.339	6.29
604.528	6.38
604.718	6.29
604.907	6.14
605.097	6.22
605.286	6.2
605.476	6.17
605.665	6.24
605.855	6.09
606.044	6.22
606.234	6.23
606.423	6.1
606.612	6.12
606.802	6.12
606.991	6.16
607.181	6.12
607.37	6.1
607.559	5.8
607.749	6.04
607.938	5.94
608.127	5.95
608.316	5.97
608.506	5.95
608.695	5.95
608.884	5.96
609.073	5.89
609.263	6.01
609.452	5.94
609.641	5.86
609.83	5.71
610.019	5.91
610.208	5.77
610.397	5.78
610.586	5.86
610.775	5.72
610.965	5.75
611.154	5.62
611.343	5.81
611.532	5.67
611.721	5.68
611.91	5.69
612.099	5.65
612.287	5.53
612.476	5.58
612.665	5.65
612.854	5.51
613.043	5.61
613.232	5.67
613.421	5.48
613.61	5.48
613.798	5.52
613.987	5.52
614.176	5.4
614.365	5.47
614.554	5.42
614.742	5.45
614.931	5.33
615.12	5.5
615.309	5.42
615.497	5.32
615.686	5.26
615.875	5.37
616.063	5.3
616.252	5.24
616.44	5.34
616.629	5.23
616.818	5.25
617.006	5.17
617.195	5.2
617.383	5.23
617.572	5.1
617.76	5.15
617.949	5.13
618.137	5.15
618.326	5.21
618.514	4.95
618.703	4.91
618.891	5.14
619.079	5.01
619.268	5.16
619.456	4.98
619.644	5.12
619.833	4.99
620.021	4.93
620.209	4.85
620.398	4.98
620.586	4.84
620.774	4.92
620.962	4.9
621.151	4.94
621.339	4.82
621.527	4.74
621.715	4.75
621.903	4.8
622.092	4.69
622.28	4.9
622.468	4.58
622.656	4.75
622.844	4.74
623.032	4.71
623.22	4.61
623.408	4.76
623.596	4.68
623.784	4.76
623.972	4.56
624.16	4.56
624.348	4.7
624.536	4.7
624.724	4.49
624.912	4.61
625.1	4.58
625.288	4.56
625.476	4.47
625.664	4.52
625.851	4.46
626.039	4.51
626.227	4.45
626.415	4.46
626.603	4.34
626.79	4.46
626.978	4.35
627.166	4.47
627.354	4.3
627.541	4.29
627.729	4.21
627.917	4.48
628.104	4.4
628.292	4.22
628.48	4.33
628.667	4.26
628.855	4.34
629.042	4.26
629.23	4.23
629.418	4.15
629.605	4.2
629.793	4.11
629.98	4.11
630.168	4.1
630.355	4.25
630.543	4.1
630.73	4.02
630.917	4.1
631.105	4.19
631.292	4.13
631.48	4.07
631.667	4.13
631.854	3.97
632.042	3.99
632.229	3.94
632.416	4
632.604	3.96
632.791	3.85
632.978	3.92
633.165	3.91
633.353	3.99
633.54	4.01
633.727	3.81
633.914	3.77
634.101	3.75
634.289	3.84
634.476	3.74
634.663	3.69
634.85	3.75
635.037	3.73
635.224	3.67
635.411	3.78
635.598	3.68
635.785	3.69
635.972	3.66
636.159	3.73
636.346	3.57
636.533	3.62
636.72	3.62
636.907	3.64
637.094	3.62
637.281	3.48
637.468	3.55
637.655	3.5
637.842	3.59
638.029	3.47
638.215	3.52
638.402	3.49
638.589	3.46
638.776	3.42
638.963	3.37
639.149	3.48
639.336	3.52
639.523	3.42
639.709	3.38
639.896	3.37
640.083	3.36
640.27	3.43
640.456	3.32
640.643	3.29
640.829	3.21
641.016	3.26
641.203	3.17
641.389	3.25
641.576	3.29
641.762	3.2
641.949	3.13
642.135	3.26
642.322	3.2
642.508	3.08
642.695	3.12
642.881	3.17
643.068	3.16
643.254	3.15
643.441	3.13
643.627	3.13
643.813	3.05
644	3.1
644.186	3.02
644.372	3
644.559	3.07
644.745	2.98
644.931	2.95
645.118	3
645.304	3
645.49	2.95
645.676	2.95
645.862	2.91
646.049	3.03
646.235	2.92
646.421	3.02
646.607	3.01
646.793	2.89
646.979	2.81
647.165	2.88
647.352	2.91
647.538	2.86
647.724	2.81
647.91	2.76
648.096	2.86
648.282	2.86
648.468	2.8
648.654	2.76
648.84	2.82
649.026	2.75
649.212	2.65
649.397	2.66
649.583	2.68
649.769	2.72
649.955	2.7
650.141	2.68
650.327	2.73
650.513	2.65
650.698	2.62
650.884	2.51
651.07	2.7
651.256	2.61
651.442	2.59
651.627	2.52
651.813	2.6
651.999	2.56
652.184	2.57
652.37	2.5
652.556	2.52
652.741	2.62
652.927	2.4
653.113	2.48
653.298	2.48
653.484	2.49
653.669	2.42
653.855	2.46
654.04	2.57
654.226	2.41
654.412	2.41
654.597	2.34
654.782	2.4
654.968	2.47
655.153	2.34
655.339	2.32
655.524	2.33
655.71	2.41
655.895	2.32
656.08	2.3
656.266	2.38
656.451	2.3
656.636	2.25
656.822	2.31
657.007	2.31
657.192	2.28
657.378	2.21
657.563	2.24
657.748	2.29
657.933	2.27
658.118	2.15
658.304	2.18
658.489	2.28
658.674	2.16
658.859	2.14
659.044	2.12
659.229	2.16
659.414	2.11
659.599	2.09
659.785	2.08
659.97	2.12
660.155	2.12
660.34	2.11
660.525	2.09
660.71	2.04
660.895	2.11
661.08	2.07
661.264	1.99
661.449	2.1
661.634	2.06
661.819	2.07
662.004	2.03
662.189	1.94
662.374	1.99
662.559	1.98
662.743	1.92
662.928	1.97
663.113	1.92
663.298	1.92
663.483	1.94
663.667	1.88
663.852	1.87
664.037	1.96
664.221	1.89
664.406	1.98
664.591	1.97
664.775	1.91
664.96	1.87
665.145	1.85
665.329	1.94
665.514	1.86
665.698	1.86
665.883	1.77
666.068	1.9
666.252	1.86
666.437	1.73
666.621	1.78
666.806	1.83
666.99	1.77
667.174	1.76
667.359	1.83
667.543	1.76
667.728	1.76
667.912	1.65
668.096	1.74
668.281	1.7
668.465	1.74
668.649	1.71
668.834	1.67
669.018	1.67
669.202	1.7
669.387	1.62
669.571	1.77
669.755	1.66
669.939	1.63
670.124	1.67
670.308	1.74
670.492	1.69
670.676	1.66
670.86	1.62
671.044	1.53
671.228	1.68
671.413	1.55
671.597	1.59
671.781	1.59
671.965	1.61
672.149	1.55
672.333	1.56
672.517	1.58
672.701	1.57
672.885	1.5
673.069	1.48
673.253	1.63
673.437	1.55
673.621	1.45
673.804	1.48
673.988	1.56
674.172	1.51
674.356	1.42
674.54	1.54
674.724	1.62
674.908	1.49
675.091	1.53
675.275	1.5
675.459	1.51
675.643	1.56
675.826	1.44
676.01	1.45
676.194	1.41
676.377	1.46
676.561	1.49
676.745	1.41
676.928	1.44
677.112	1.49
677.296	1.36
677.479	1.37
677.663	1.38
677.846	1.43
678.03	1.35
678.213	1.36
678.397	1.41
678.58	1.4
678.764	1.35
678.947	1.32
679.131	1.34
679.314	1.39
679.498	1.31
679.681	1.37
679.865	1.38
680.048	1.32
680.231	1.31
680.415	1.29
680.598	1.3
680.781	1.24
680.965	1.27
681.148	1.23
681.331	1.27
681.514	1.27
681.698	1.22
681.881	1.28
682.064	1.3
682.247	1.29
682.43	1.17
682.614	1.27
682.797	1.31
682.98	1.29
683.163	1.12
683.346	1.24
683.529	1.2
683.712	1.17
683.895	1.21
684.078	1.1
684.261	1.18
684.444	1.24
684.627	1.21
684.81	1.17
684.993	1.13
685.176	1.19
685.359	1.12
685.542	1.16
685.725	1.3
685.908	1.12
686.091	1.17
686.274	1.14
686.457	1.21
686.639	1.17
686.822	1.17
687.005	1.09
687.188	1.14
687.371	1.24
687.553	1.19
687.736	1.09
687.919	1.25
688.102	1.16
688.284	1.06
688.467	1.08
688.65	1.09
688.832	1
689.015	1.04
689.197	0.95
689.38	1.16
689.563	1.24
689.745	1.02
689.928	0.98
690.11	1.02
690.293	1.08
690.475	0.93
690.658	1.05
690.84	1.03
691.023	1.01
691.205	0.98
691.388	1.02
691.57	1.13
691.752	1.06
691.935	0.9
692.117	0.97
692.3	1.03
692.482	0.97
692.664	0.98
692.847	0.99
693.029	1.08
693.211	0.98
693.393	0.93
693.576	0.9
693.758	0.88
693.94	0.89
694.122	1
694.304	0.86
694.487	0.95
694.669	1
694.851	0.79
695.033	0.92
695.215	0.86
695.397	0.92
695.579	0.86
695.761	0.82
695.943	0.86
696.125	0.96
696.308	0.96
696.49	0.78
696.671	1.02
696.853	0.89
697.035	1.14
697.217	0.74
697.399	1.03
697.581	0.81
697.763	0.87
697.945	0.79
698.127	0.9
698.309	0.91
698.491	0.88
698.672	0.9
698.854	0.96
699.036	0.92
699.218	0.86
699.399	0.87
699.581	0.9
699.763	0.83
699.945	0.79
700.126	0.76
700.308	0.81
700.49	0.86
700.671	0.69
700.853	0.77
701.035	0.77
701.216	0.85
701.398	0.76
701.579	0.8
701.761	0.85
701.943	0.82
702.124	0.8
702.306	0.82
702.487	1.04
702.669	0.81
702.85	0.75
703.031	0.73
703.213	0.93
703.394	0.89
703.576	0.79
703.757	0.96
703.938	0.87
704.12	1
704.301	0.73
704.483	0.69
704.664	0.82
704.845	0.95
705.026	0.83
705.208	0.75
705.389	0.81
705.57	0.74
705.751	0.74
705.933	0.82
706.114	0.82
706.295	0.76
706.476	0.6
706.657	0.84
706.838	0.83
707.02	0.83
707.201	0.69
707.382	0.74
707.563	0.8
707.744	0.66
707.925	0.58
708.106	0.7
708.287	0.72
708.468	0.88
708.649	0.7
708.83	0.72
709.011	0.62
709.192	0.83
709.373	0.64
709.554	0.67
709.734	0.79
709.915	0.8
710.096	0.7
710.277	0.52
710.458	0.7
710.639	0.67
710.819	0.55
711	0.67
711.181	0.74
711.362	0.76
711.542	0.64
711.723	0.65
711.904	0.77
712.085	0.77
712.265	0.66
712.446	0.58
712.627	0.65
712.807	0.7
712.988	0.56
713.168	0.48
713.349	0.7
713.53	0.46
713.71	0.58
713.891	0.59
714.071	0.66
714.252	0.56
714.432	0.58
714.613	0.46
714.793	0.63
714.974	0.76
715.154	0.69
715.334	0.67
715.515	0.71
715.695	0.57
715.876	0.57
716.056	0.54
716.236	0.54
716.417	0.59
716.597	0.54
716.777	0.83
716.957	0.55
717.138	0.64
717.318	0.57
717.498	0.44
717.678	0.61
717.859	0.64
718.039	0.56
718.219	0.55
718.399	0.58
718.579	0.51
718.759	0.48
718.939	0.6
719.12	0.62
719.3	0.52
719.48	0.4
719.66	0.45
719.84	0.66
720.02	0.54
720.2	0.47
720.38	0.49
720.56	0.74
720.74	0.5
720.92	0.55
721.1	0.73
721.279	0.69
721.459	0.58
721.639	0.46
721.819	0.54
721.999	0.54
722.179	0.65
722.359	0.51
722.538	0.57
722.718	0.57
722.898	0.5
723.078	0.57
723.257	0.44
723.437	0.6
723.617	0.58
723.797	0.49
723.976	0.46
724.156	0.59
724.336	0.68
724.515	0.77
724.695	0.38
724.874	0.57
725.054	0.64
725.234	0.52
725.413	0.5
725.593	0.51
725.772	0.54
725.952	0.55
726.131	0.46
726.311	0.53
726.49	0.54
726.67	0.35
726.849	0.47
727.028	0.53
727.208	0.55
727.387	0.46
727.567	0.42
727.746	0.31
727.925	0.47
728.105	0.41
728.284	0.45
728.463	0.44
728.643	0.59
728.822	0.39
729.001	0.46
729.18	0.49
729.359	0.6
729.539	0.5
729.718	0.5
729.897	0.52
730.076	0.42
730.255	0.37
730.434	0.48
730.614	0.57
730.793	0.66
730.972	0.51
731.151	0.46
731.33	0.65
731.509	0.6
731.688	0.49
731.867	0.59
732.046	0.35
732.225	0.62
732.404	0.4
732.583	0.39
732.762	0.5
732.941	0.54
733.12	0.5
733.298	0.44
733.477	0.63
733.656	0.48
733.835	0.38
734.014	0.54
734.193	0.49
734.371	0.63
734.55	0.54
734.729	0.35
734.908	0.48
735.086	0.54
735.265	0.62
735.444	0.27
735.623	0.3
735.801	0.3
735.98	0.49
736.159	0.47
736.337	0.6
736.516	0.59
736.694	0.52
736.873	0.41
737.052	0.76
737.23	0.64
737.409	0.48
737.587	0.77
737.766	0.34
737.944	0.39
738.123	0.49
738.301	0.47
738.479	0.45
738.658	0.61
738.836	0.22
739.015	0.44
739.193	0.61
739.371	0.3
739.55	0.39
739.728	0.31
739.906	0.69
740.085	0.78
740.263	0.42
740.441	0.34
740.62	0.79
740.798	0.58
740.976	0.35
741.154	0.28
741.332	0.74
741.511	0.41
741.689	0.59
741.867	0.44
742.045	0.58
742.223	0.47
742.401	0.38
742.579	0.38
742.757	0.72
742.935	0.31
743.114	0.31
743.292	0.35
743.47	0.46
743.648	0.61
743.826	0.58
744.004	0.46
744.181	0.62
744.359	0.51
744.537	0.35
744.715	0.45
744.893	0.42
745.071	0.52
745.249	0.47
745.427	0.48
745.605	0.54
745.782	0.49
745.96	0.48
746.138	0.53
746.316	0.62
746.493	0.43
746.671	0.54
746.849	0.37
747.027	0.68
747.204	0.28
747.382	0.37
747.56	0.25
747.737	0.48
747.915	0.32
748.093	0.31
748.27	0.25
748.448	0.49
748.625	0.33
748.803	0.31
748.98	0.38
749.158	0.59
749.335	0.57
749.513	0.33
749.69	0.35
749.868	0.38
750.045	0.52
750.223	0.36
750.4	0.27
750.578	0.52
750.755	0.4
750.932	0.21
751.11	0.48
751.287	0.21
751.464	0.61
751.642	0.28
751.819	0.4
751.996	0.41
752.173	0.36
752.351	0.3
752.528	0.43
752.705	0.43
752.882	0.31
753.06	0.47
753.237	0.39
753.414	0.58
753.591	0.7
753.768	0.46
753.945	0.31
754.122	0.39
754.299	0.47
754.476	0.28
754.654	0.3
754.831	0.45
755.008	0.52
755.185	0.26
755.362	0.29
755.539	0.41
755.716	0.35
755.892	0.31
756.069	0.42
756.246	0.42
756.423	0.41
756.6	0.47
756.777	0.19
756.954	0.64
757.131	0.3
757.307	0.28
757.484	0.27
757.661	0.33
757.838	0.45
758.015	0.27
758.191	0.38
758.368	0.45
758.545	0.67
758.721	0.51
758.898	0.17
759.075	0.45
759.251	0.48
759.428	0.48
759.605	0.19
759.781	0.26
759.958	0.52
760.134	0.46
760.311	0.24
760.488	0.56
760.664	0.66
760.841	0.4
761.017	0.23
761.194	0.39
761.37	0.45
761.547	0.42
761.723	0.37
761.899	0.61
762.076	0.24
762.252	0.27
762.429	0.41
762.605	0.47
762.781	0.39
762.958	0.46
763.134	0.31
763.31	0.34
763.486	0.72
763.663	0.09
763.839	0.4
764.015	0.19
764.191	0.25
764.368	0.29
764.544	0.25
764.72	0.32
764.896	0.48
765.072	0.53
765.248	0.3
765.425	0.32
765.601	0.34
765.777	0.3
765.953	0.06
766.129	0.2
766.305	0.22
766.481	0.5
766.657	0.39
766.833	0.55
767.009	0.3
767.185	0.37
767.361	0.36
767.537	0.18
767.713	0.53
767.889	0.37
768.065	0.26
768.24	0.55
768.416	0.57
768.592	0.24
768.768	0.28
768.944	0.56
769.12	0.26
769.295	0.35
769.471	0.41
769.647	0.3
769.823	0.48
769.998	0.26
770.174	0.25
770.35	0.86
770.525	0.69
770.701	0.38
770.877	0.37
771.052	0.22
771.228	0.53
771.403	0.52
771.579	0.29
771.755	0.78
771.93	0.39
772.106	0.19
772.281	0.06
772.457	0.44
772.632	0.53
772.808	0.16
772.983	0.24
773.159	0.16
773.334	0.59
773.509	0.45
773.685	0.21
773.86	0.8
774.036	0.64
774.211	0.42
774.386	0.35
774.562	0.42
774.737	0.79
774.912	0.24
775.087	0.46
775.263	0.45
775.438	0.35
775.613	0.2
775.788	0.34
775.964	0.53
776.139	1.04
776.314	0.12
776.489	0.48
776.664	0.42
776.839	0.23
777.014	0.52
777.19	0.62
777.365	0.75
777.54	0.75
777.715	0.25
777.89	0.4
778.065	0.33
778.24	0.42
778.415	0.49
778.59	0.17
778.765	0.4
778.94	0.53
779.115	0.34
779.289	0.22
779.464	0.46
779.639	0.36
779.814	0.22
779.989	0.18
780.164	0.81
780.339	0.43
780.513	0.2
780.688	0.14
780.863	0.46
781.038	0.75
781.212	0.16
781.387	0.47
781.562	0.82
781.737	0.26
781.911	0.73
782.086	0.11
782.261	0.43
782.435	0.77
782.61	0.36
782.784	0.42
782.959	0.79
783.134	0.39
783.308	0.29
783.483	0.41
783.657	1.05
783.832	0.52
784.006	0.24
784.181	0.46
784.355	0.51
784.53	0.1
784.704	0.07
784.878	0.65
785.053	0.51
785.227	0.77
785.402	0.68
785.576	0.25
785.75	0.6
785.925	0.42
786.099	0.27
786.273	0.39
786.448	0.67
786.622	0.7
786.796	0.39
786.97	0.43
787.145	1.11
787.319	0.04
787.493	0.45
787.667	-0.05
787.841	0.49
788.015	0.9
788.19	0.37
788.364	0.43
788.538	0.82
788.712	0.87
788.886	0.46
789.06	0.79
789.234	0.64
789.408	0.32
789.582	0.15
789.756	0.28
789.93	0.28
790.104	0.52
790.278	0.43
790.452	0.1
790.626	0.7
790.8	0.3
790.973	0.77
791.147	0.8
791.321	0.93
791.495	0.5
791.669	0.44
791.843	0.53
792.016	0.45
792.19	1.11
792.364	0.14
792.538	1.05
792.711	0.87
792.885	0.36
793.059	0.2
793.233	-0.24
793.406	0.78
793.58	0.36
793.754	0.75
793.927	0.43
794.101	0.77
794.274	0.32
794.448	0.84
794.622	0.19
794.795	0.92
794.969	0.24
795.142	0.97
795.316	0.45
795.489	0.43
795.663	0.91
795.836	0.65
796.009	-0.05
796.183	0.7
796.356	0.82
796.53	0.56
796.703	0.55
796.876	1.24
797.05	0.27
797.223	0.47
797.396	0.44
797.57	0.58
797.743	1.16
797.916	0.51
798.09	0.66
798.263	0.71
798.436	0.89
798.609	0.2
798.782	0.51
798.956	0.63
799.129	0.35
799.302	0.27
799.475	0.2
799.648	0.45
799.821	0.45
799.994	0.18
800.167	-0.08
800.34	0.45
800.514	0.69
800.687	0.31
800.86	0.29
801.033	0.68
801.206	0.85
801.379	0.3
801.551	0.75
801.724	0.78
801.897	1.36
802.07	0.39
802.243	-0
802.416	0.63
802.589	0.55
802.762	0.66
802.935	0.46
803.107	0.72
803.28	0.89
803.453	0.72
803.626	0.25
803.798	0.6
803.971	0.21
804.144	0.48
804.317	0.75
804.489	1.06
804.662	0.42
804.835	0.24
805.007	0.46
805.18	1.21
805.353	0.62
805.525	0.48
805.698	0.45
805.87	0.8
806.043	1.1
806.215	0.08
806.388	0.48
806.56	0.7
806.733	0.92
806.905	0.51
807.078	0.31
807.25	0.53
807.423	0.96
807.595	0.36
807.768	0.55
807.94	1.13
808.112	0.75
808.285	0.61
808.457	0.43
808.629	0.66
808.802	1.05
808.974	0.83
809.146	0.39
809.318	0.14
809.491	0.73
809.663	0.89
809.835	0.5
810.007	0.71
810.18	0.33
810.352	0.01
810.524	0.45
810.696	0.99
810.868	1.21
811.04	0.63
811.212	0.39
811.384	1.15
811.556	0.78
811.728	0.59
811.901	1.7
812.073	0.71
812.245	1.14
812.417	0.47
812.589	0.07
812.76	0.93
812.932	0.97
813.104	0.75
813.276	0.52
813.448	1.36
813.62	0.87
813.792	0.93
813.964	0.74
814.136	0.87
814.307	0.63
814.479	0.17
814.651	0.33
814.823	1.41
814.995	-0.02
815.166	0.85
815.338	0.14
815.51	0.05
815.681	1.81
815.853	1
816.025	0.71
816.196	1.9
816.368	1.13
816.54	0.25
816.711	0.13
816.883	0.74
817.054	2.14
817.226	-0.02
817.398	0.93
817.569	0.62
817.741	0.74
817.912	0.34
818.084	0.47
818.255	1.09
818.426	0.17
818.598	0.26
818.769	0.2
818.941	0.75
819.112	1.22
819.283	0.83
819.455	0.03
819.626	0.52
819.798	1.19
819.969	0.94
820.14	0.53
820.311	0.74
820.483	1.07
820.654	0.89
820.825	0.02
820.996	0.64
821.168	0.26
821.339	0.44
821.51	0.29
821.681	0.31
821.852	1.09
822.023	0.29
822.195	-0.37
822.366	1.08
822.537	0.84
822.708	0.92
822.879	-0.11
823.05	1.64
823.221	0.37
823.392	1.08
823.563	0.7
823.734	1.07
823.905	1
824.076	0.35
824.247	-0.05
824.418	0.77
824.589	2.09
824.759	0.68
824.93	0.64
825.101	0.24
825.272	1.19
825.443	1.24
825.614	1.14
825.784	-0.2
825.955	2.25
826.126	1.35
826.297	1.24
826.467	1.44
826.638	2.89
826.809	0.31
826.98	0.85
827.15	1.42
827.321	1.35
827.492	1.78
827.662	0.48
827.833	2.26
828.003	1.87
828.174	0.15
828.345	-0.47
828.515	2.04
828.686	0.73
828.856	0.99
829.027	0.75
829.197	1.48
829.368	1.43
829.538	0.74
829.709	0.55
829.879	0.92
830.049	0.77
830.22	0.96
830.39	0.66
830.56	1.44
830.731	1.26
830.901	0.09
831.072	0.53
831.242	1.47
831.412	0.88
831.582	0.59
831.753	-0.28
831.923	1.38
832.093	0.97
832.263	0.73
832.434	-0.05
832.604	0.44
832.774	1.67
832.944	0.73
833.114	0.77
833.284	1.77
833.454	0.72
833.624	-0.09
833.795	0.24
833.965	2.49
834.135	2.17
834.305	-0.72
834.475	0.27
834.645	1.03
834.815	0.36
834.985	0.7
835.155	0.4
835.325	1.7
835.494	1.35
835.664	0.69
835.834	-0.17
836.004	1.43
836.174	1.54
836.344	0.96
836.514	-0.29
836.684	0.33
836.853	0.9
837.023	1.47
837.193	0.58
837.363	1.67
837.532	1.38
837.702	0.66
837.872	0.56
838.041	1.26
838.211	2.86
838.381	-0.09
838.55	1.31
838.72	3.8
838.89	2.75
839.059	0.64
839.229	0.19
839.398	3.66
839.568	1.01
839.738	1.49
839.907	1.79
840.077	1.25
840.246	0.12
840.416	0.75
840.585	-0.42
840.755	2.57
840.924	2.16
841.093	0.48
841.263	0.06
841.432	1.89
841.602	0.22
841.771	0.17
841.94	0.63
842.11	4.17
842.279	3.03
842.448	-0.64
842.617	1.29
842.787	2.42
842.956	0.66
843.125	0.1
843.294	1.23
843.464	2.09
843.633	1.72
843.802	-0.27
843.971	1.27
844.14	1.29
844.309	2.51
844.479	-0.14
844.648	-0.4
844.817	1.68
844.986	1.16
845.155	0.24
845.324	0.72
845.493	1.29
845.662	-0.05
845.831	1.67
846	1.03
846.169	1.54
846.338	2.72
846.507	1.3
846.676	0.99
846.844	1.88
847.013	2.68
847.182	1.36
847.351	-0.36
847.52	1.02
847.689	2.45
847.858	0.93
848.026	0.98
848.195	1.72
848.364	1
848.533	-0.3
848.701	0.17
848.87	2.33
849.039	2.8
849.207	1.98
849.376	2.88
849.545	3.29
849.713	0.63
849.882	0.56
850.051	1.21
850.219	0.71
850.388	2.11
850.556	-0.71
850.725	0.93
850.893	0.86
851.062	1.02
851.23	1.5
851.399	-0.29
851.567	1.51
851.736	0.92
851.904	-0.18
852.073	0.58
852.241	2.29
852.41	2.51
852.578	0.2
852.746	0.15
852.915	2.67
853.083	1.48
853.251	-0.96
853.42	0.76
853.588	1.34
853.756	2.77
853.924	0.77
854.093	0.91
854.261	0.95
854.429	-1.09
854.597	1.03
854.765	-0.26
854.934	2.36
855.102	3.37
855.27	1.19
855.438	2.33
855.606	3.06
855.774	2.93
855.942	-0.34
856.11	-0.73
856.278	0.61
856.446	2.7
856.614	1.62
856.782	-0.1
856.95	2.68
857.118	2.18
857.286	1.52
857.454	0.2
857.622	2.28
857.79	3.06
857.958	0.84
858.126	1.39
858.294	-1.66
858.462	1.38
858.629	0.56
858.797	0.63
858.965	2.42
859.133	0.63
859.301	1.51
859.468	1.42
859.636	1.26
859.804	4.91
859.971	2.32
860.139	1.07
860.307	2.54
860.474	1.39
860.642	-0.48
860.81	0.99
860.977	2.47
861.145	2.47
861.313	1.14
861.48	1.6
861.648	2.91
861.815	2.57
861.983	-1.04
862.15	0.08
862.318	3.07
862.485	4.01
862.653	0.12
862.82	0.22
862.988	3.74
863.155	-0.03
863.322	0.12
863.49	0.19
863.657	1.76
863.824	4.41
863.992	1.99
864.159	2.45
864.326	3.06
864.494	0.05
864.661	4.74
864.828	-0.42
864.996	3.75
865.163	3.98
865.33	2.85
865.497	-1.95
865.664	1.18
865.832	-2.03
865.999	2.03
866.166	-0.02
866.333	1.42
866.5	1.44
866.667	0.43
866.834	1.39
867.001	4.15
867.168	-0.27
867.335	2.15
867.502	-0.59
867.669	3.32
867.836	5.22
868.003	1.69
868.17	2.74
868.337	6.28
868.504	6.03
868.671	-1.24
868.838	1.18
869.005	3.47
869.172	2.27
869.339	1.5
869.505	1.27
869.672	2.61
869.839	3.95
870.006	2.66
870.173	-0.49
870.339	1.92
870.506	5.87
870.673	1.83
870.84	3.01
871.006	1.9
871.173	2.36
871.34	2.49
871.506	-0.43
871.673	4.55
871.839	0.16
872.006	2.29
872.173	1.89
872.339	2.94
872.506	3.56
872.672	0.53
872.839	-0.5
873.005	2.28
873.172	4.8
873.338	3.68
873.505	2.5
873.671	4.85
873.838	3.66
874.004	-1.17
874.171	1.93
874.337	4.09
874.503	3.87
874.67	2.44
874.836	3.07
875.002	4.82
875.169	5.37
875.335	2.23
875.501	2.21
875.668	3.54
875.834	0.73
876	1.74
876.166	3.41
876.332	3.53
876.499	6.68
876.665	3.23
876.831	1.68
876.997	6.79
877.163	3.71
877.329	1.28
877.495	4.19
877.662	3.33
877.828	2.76
877.994	1.08
878.16	-0.89
878.326	2.46
878.492	3.79
878.658	1.89
878.824	3.69
878.99	2.64
879.156	0.8
879.322	3.81
879.487	-0.32
879.653	2.54
879.819	3.84
879.985	0.07
880.151	1.71
880.317	3.34
880.483	3.86
880.648	4.13
880.814	-1.08
880.98	3.3
881.146	-1.09
881.312	0.86
881.477	1.63
881.643	0.56
881.809	4.93
881.974	4.81
882.14	-0.11
882.306	1.77
882.471	5.99
882.637	2.16
882.803	1.78
882.968	5.78
883.134	7.2
883.299	2.15
883.465	0.6
883.63	5.31
883.796	4.62
883.961	1.86
884.127	3.29
884.292	-1.99
884.458	0.16
884.623	0.16
