Data from Apollo_Calib_20240827__AbsoluteIrradiance__763__11-52-01-421.txt Node

Date: Wed Aug 28 11:52:01 BST 2024
User: biology
Spectrometer: FLMT08252
Trigger mode: 0
Integration Time (sec): 5.000000E-1
Scans to average: 5
Electric dark correction enabled: true
Nonlinearity correction enabled: false
Boxcar width: 0
XAxis mode: Wavelengths
Number of Pixels in Spectrum: 3648
>>>>>Begin Spectral Data<<<<<
179.588	-0
179.809	-0
180.03	-0
180.251	-0
180.473	-0
180.694	0
180.915	0
181.136	-0
181.357	0
181.578	-0
181.799	0
182.02	-0
182.241	0
182.462	-0
182.683	0
182.904	-0
183.125	-0
183.346	-0
183.567	0
183.788	0
184.009	0
184.23	0
184.451	0
184.672	0
184.892	0
185.113	0
185.334	0
185.555	0
185.776	0
185.996	0
186.217	0
186.438	0
186.659	0
186.879	0
187.1	0
187.321	0
187.541	0
187.762	0
187.983	0
188.203	0
188.424	0
188.644	0
188.865	0
189.086	0
189.306	0
189.527	0
189.747	0
189.968	0
190.188	0
190.409	0
190.629	0
190.849	0
191.07	0
191.29	0
191.511	0
191.731	0
191.951	0
192.172	0
192.392	0
192.612	0
192.833	0
193.053	0
193.273	0
193.493	0
193.714	0
193.934	0
194.154	0
194.374	0
194.594	0
194.815	0
195.035	0
195.255	0
195.475	0
195.695	0
195.915	0
196.135	0
196.355	0
196.575	0
196.795	0
197.015	0
197.235	0
197.455	0
197.675	0
197.895	0
198.115	0
198.335	0
198.555	0
198.775	0
198.995	0
199.214	0
199.434	0
199.654	0
199.874	0
200.094	3.58
200.313	2.08
200.533	1.94
200.753	1.09
200.973	3.12
201.192	3.04
201.412	1.18
201.632	1.4
201.851	2.84
202.071	1.53
202.291	1.6
202.51	1.37
202.73	2.56
202.95	1.81
203.169	1.5
203.389	1.5
203.608	2.14
203.828	0.99
204.047	1.47
204.267	1.81
204.486	1.67
204.706	2.05
204.925	1.7
205.145	1.46
205.364	2.09
205.583	2.76
205.803	1.31
206.022	1.31
206.242	1.62
206.461	1.53
206.68	1.1
206.9	1.69
207.119	2.13
207.338	2.2
207.557	1.43
207.777	1.01
207.996	1.13
208.215	1.9
208.434	1.01
208.654	0.81
208.873	1.42
209.092	1.8
209.311	1.11
209.53	1.08
209.749	1.12
209.968	0.82
210.187	1.03
210.407	0.5
210.626	1.18
210.845	1.36
211.064	1
211.283	0.85
211.502	1.38
211.721	1.09
211.94	0.94
212.159	1.28
212.377	1.23
212.596	1.46
212.815	1.04
213.034	0.97
213.253	1.22
213.472	1.34
213.691	0.95
213.91	0.76
214.128	0.85
214.347	1.49
214.566	0.41
214.785	0.61
215.003	1.08
215.222	0.9
215.441	0.81
215.66	0.42
215.878	0.7
216.097	1.1
216.316	0.53
216.534	0.7
216.753	0.95
216.972	0.84
217.19	0.7
217.409	0.87
217.627	0.69
217.846	0.72
218.064	0.88
218.283	0.43
218.501	1.4
218.72	0.99
218.938	0.55
219.157	0.64
219.375	0.94
219.594	0.88
219.812	0.4
220.031	0.57
220.249	1.09
220.467	1.14
220.686	0.58
220.904	0.49
221.122	0.5
221.341	1.1
221.559	0.7
221.777	0.43
221.995	0.52
222.214	0.66
222.432	0.51
222.65	0.86
222.868	0.71
223.086	0.82
223.305	0.86
223.523	0.59
223.741	0.9
223.959	0.68
224.177	0.32
224.395	0.64
224.613	0.83
224.831	0.87
225.049	0.42
225.267	0.56
225.485	0.67
225.703	0.61
225.921	0.48
226.139	0.53
226.357	0.66
226.575	0.68
226.793	0.54
227.011	1.4
227.229	0.7
227.447	0.71
227.665	0.62
227.883	0.24
228.1	0.61
228.318	0.61
228.536	0.31
228.754	0.44
228.972	0.55
229.189	0.7
229.407	0.44
229.625	0.54
229.843	0.81
230.06	0.64
230.278	0.44
230.496	0.6
230.713	0.68
230.931	0.67
231.149	0.49
231.366	0.21
231.584	0.4
231.801	1.01
232.019	0.52
232.236	0.3
232.454	0.42
232.671	0.58
232.889	0.46
233.106	0.33
233.324	0.58
233.541	0.54
233.759	0.47
233.976	0.43
234.194	0.48
234.411	0.46
234.628	0.35
234.846	0.46
235.063	0.51
235.28	0.47
235.498	0.42
235.715	0.31
235.932	0.72
236.149	0.45
236.367	0.32
236.584	0.43
236.801	0.36
237.018	0.59
237.236	0.47
237.453	0.26
237.67	0.6
237.887	0.48
238.104	0.4
238.321	0.29
238.538	0.27
238.755	0.57
238.973	0.31
239.19	0.49
239.407	0.5
239.624	0.45
239.841	0.31
240.058	0.37
240.275	0.45
240.492	0.48
240.709	0.42
240.925	0.33
241.142	0.41
241.359	0.32
241.576	0.3
241.793	0.34
242.01	0.45
242.227	0.68
242.444	0.39
242.66	0.61
242.877	0.38
243.094	0.3
243.311	0.36
243.527	0.37
243.744	0.45
243.961	0.49
244.178	0.26
244.394	0.37
244.611	0.64
244.828	0.6
245.044	0.33
245.261	0.34
245.477	0.45
245.694	0.47
245.911	0.3
246.127	0.39
246.344	0.61
246.56	0.55
246.777	0.41
246.993	0.37
247.21	0.46
247.426	0.5
247.643	0.34
247.859	0.29
248.076	0.39
248.292	0.69
248.508	0.3
248.725	0.45
248.941	0.49
249.157	0.4
249.374	0.29
249.59	0.38
249.806	0.42
250.023	0.58
250.239	0.3
250.455	0.29
250.671	0.35
250.888	0.4
251.104	0.4
251.32	0.31
251.536	0.35
251.752	0.33
251.969	0.42
252.185	0.37
252.401	0.52
252.617	0.4
252.833	0.31
253.049	0.37
253.265	0.44
253.481	0.31
253.697	0.33
253.913	0.24
254.129	0.43
254.345	0.41
254.561	0.24
254.777	0.31
254.993	0.37
255.209	0.47
255.425	0.31
255.641	0.34
255.857	0.43
256.073	0.35
256.288	0.28
256.504	0.31
256.72	0.38
256.936	0.49
257.152	0.29
257.367	0.24
257.583	0.37
257.799	0.45
258.015	0.31
258.23	0.24
258.446	0.53
258.662	0.3
258.877	0.26
259.093	0.29
259.309	0.38
259.524	0.42
259.74	0.28
259.955	0.2
260.171	0.34
260.387	0.34
260.602	0.46
260.818	0.36
261.033	0.25
261.249	0.32
261.464	0.29
261.68	0.26
261.895	0.4
262.11	0.39
262.326	0.24
262.541	0.15
262.757	0.42
262.972	0.42
263.187	0.36
263.403	0.34
263.618	0.47
263.833	0.33
264.049	0.23
264.264	0.29
264.479	0.34
264.694	0.48
264.91	0.28
265.125	0.28
265.34	0.39
265.555	0.48
265.77	0.4
265.986	0.22
266.201	0.37
266.416	0.37
266.631	0.29
266.846	0.23
267.061	0.39
267.276	0.43
267.491	0.14
267.706	0.32
267.921	0.41
268.136	0.28
268.351	0.38
268.566	0.2
268.781	0.41
268.996	0.4
269.211	0.3
269.426	0.19
269.641	0.29
269.856	0.4
270.071	0.22
270.285	0.2
270.5	0.37
270.715	0.45
270.93	0.23
271.145	0.23
271.359	0.4
271.574	0.22
271.789	0.31
272.004	0.27
272.218	0.27
272.433	0.35
272.648	0.19
272.862	0.38
273.077	0.33
273.292	0.3
273.506	0.21
273.721	0.29
273.936	0.31
274.15	0.37
274.365	0.24
274.579	0.33
274.794	0.38
275.008	0.4
275.223	0.19
275.437	0.26
275.652	0.41
275.866	0.33
276.081	0.28
276.295	0.3
276.509	0.36
276.724	0.32
276.938	0.3
277.153	0.29
277.367	0.35
277.581	0.27
277.796	0.25
278.01	0.25
278.224	0.34
278.438	0.45
278.653	0.2
278.867	0.29
279.081	0.39
279.295	0.27
279.51	0.33
279.724	0.17
279.938	0.36
280.152	0.37
280.366	0.23
280.58	0.34
280.794	0.4
281.008	0.33
281.222	0.32
281.437	0.42
281.651	0.27
281.865	0.41
282.079	0.22
282.293	0.18
282.507	0.2
282.721	0.26
282.935	0.23
283.148	0.24
283.362	0.32
283.576	0.2
283.79	0.25
284.004	0.22
284.218	0.33
284.432	0.23
284.646	0.26
284.859	0.27
285.073	0.25
285.287	0.28
285.501	0.27
285.714	0.26
285.928	0.31
286.142	0.28
286.356	0.25
286.569	0.23
286.783	0.38
286.997	0.35
287.21	0.24
287.424	0.25
287.637	0.27
287.851	0.31
288.065	0.34
288.278	0.24
288.492	0.28
288.705	0.27
288.919	0.28
289.132	0.17
289.346	0.36
289.559	0.23
289.773	0.23
289.986	0.26
290.2	0.27
290.413	0.31
290.626	0.23
290.84	0.27
291.053	0.26
291.267	0.37
291.48	0.23
291.693	0.24
291.906	0.21
292.12	0.28
292.333	0.2
292.546	0.2
292.76	0.36
292.973	0.26
293.186	0.3
293.399	0.23
293.612	0.31
293.826	0.28
294.039	0.24
294.252	0.27
294.465	0.3
294.678	0.28
294.891	0.25
295.104	0.21
295.317	0.21
295.53	0.26
295.743	0.21
295.956	0.26
296.169	0.35
296.382	0.27
296.595	0.23
296.808	0.21
297.021	0.27
297.234	0.33
297.447	0.19
297.66	0.26
297.873	0.28
298.086	0.3
298.299	0.18
298.511	0.14
298.724	0.22
298.937	0.19
299.15	0.21
299.363	0.23
299.575	0.28
299.788	0.26
300.001	0.21
300.213	0.22
300.426	0.24
300.639	0.21
300.852	0.22
301.064	0.35
301.277	0.33
301.489	0.24
301.702	0.25
301.915	0.23
302.127	0.24
302.34	0.23
302.552	0.26
302.765	0.2
302.977	0.32
303.19	0.21
303.402	0.21
303.615	0.21
303.827	0.24
304.04	0.24
304.252	0.28
304.464	0.23
304.677	0.37
304.889	0.3
305.102	0.19
305.314	0.2
305.526	0.29
305.739	0.26
305.951	0.17
306.163	0.18
306.375	0.32
306.588	0.21
306.8	0.21
307.012	0.16
307.224	0.26
307.436	0.35
307.649	0.16
307.861	0.23
308.073	0.32
308.285	0.2
308.497	0.2
308.709	0.2
308.921	0.24
309.133	0.3
309.346	0.21
309.558	0.19
309.77	0.29
309.982	0.3
310.194	0.28
310.406	0.21
310.617	0.29
310.829	0.23
311.041	0.27
311.253	0.2
311.465	0.24
311.677	0.23
311.889	0.22
312.101	0.22
312.313	0.26
312.524	0.32
312.736	0.16
312.948	0.2
313.16	0.3
313.372	0.24
313.583	0.25
313.795	0.23
314.007	0.19
314.218	0.28
314.43	0.23
314.642	0.2
314.853	0.13
315.065	0.22
315.277	0.24
315.488	0.26
315.7	0.3
315.912	0.28
316.123	0.23
316.335	0.21
316.546	0.34
316.758	0.21
316.969	0.22
317.181	0.26
317.392	0.19
317.604	0.32
317.815	0.18
318.026	0.2
318.238	0.23
318.449	0.29
318.661	0.2
318.872	0.16
319.083	0.18
319.295	0.27
319.506	0.2
319.717	0.22
319.929	0.28
320.14	0.23
320.351	0.2
320.562	0.21
320.774	0.26
320.985	0.22
321.196	0.21
321.407	0.19
321.618	0.28
321.829	0.27
322.041	0.28
322.252	0.23
322.463	0.27
322.674	0.27
322.885	0.18
323.096	0.26
323.307	0.22
323.518	0.24
323.729	0.24
323.94	0.22
324.151	0.23
324.362	0.29
324.573	0.27
324.784	0.2
324.995	0.27
325.206	0.21
325.417	0.2
325.628	0.19
325.838	0.22
326.049	0.22
326.26	0.22
326.471	0.13
326.682	0.24
326.892	0.24
327.103	0.13
327.314	0.2
327.525	0.28
327.735	0.24
327.946	0.18
328.157	0.19
328.368	0.25
328.578	0.23
328.789	0.27
328.999	0.24
329.21	0.18
329.421	0.29
329.631	0.2
329.842	0.17
330.052	0.24
330.263	0.26
330.473	0.26
330.684	0.21
330.894	0.22
331.105	0.21
331.315	0.22
331.526	0.17
331.736	0.33
331.947	0.26
332.157	0.26
332.367	0.12
332.578	0.23
332.788	0.32
332.999	0.24
333.209	0.22
333.419	0.16
333.629	0.25
333.84	0.27
334.05	0.24
334.26	0.3
334.47	0.22
334.681	0.32
334.891	0.22
335.101	0.27
335.311	0.3
335.521	0.24
335.732	0.19
335.942	0.29
336.152	0.26
336.362	0.22
336.572	0.24
336.782	0.28
336.992	0.21
337.202	0.25
337.412	0.2
337.622	0.26
337.832	0.24
338.042	0.22
338.252	0.19
338.462	0.21
338.672	0.25
338.882	0.18
339.092	0.18
339.302	0.29
339.511	0.28
339.721	0.22
339.931	0.18
340.141	0.31
340.351	0.24
340.561	0.19
340.77	0.23
340.98	0.22
341.19	0.28
341.4	0.19
341.609	0.13
341.819	0.22
342.029	0.17
342.238	0.23
342.448	0.18
342.658	0.24
342.867	0.21
343.077	0.23
343.286	0.21
343.496	0.22
343.706	0.31
343.915	0.18
344.125	0.19
344.334	0.26
344.544	0.21
344.753	0.22
344.963	0.19
345.172	0.17
345.381	0.19
345.591	0.21
345.8	0.22
346.01	0.27
346.219	0.24
346.428	0.13
346.638	0.23
346.847	0.19
347.056	0.29
347.266	0.17
347.475	0.2
347.684	0.25
347.893	0.27
348.103	0.3
348.312	0.18
348.521	0.27
348.73	0.22
348.94	0.24
349.149	0.21
349.358	0.19
349.567	0.22
349.776	0.13
349.985	0.2
350.194	0.26
350.403	0.29
350.612	0.14
350.821	0.19
351.03	0.25
351.239	0.12
351.448	0.25
351.657	0.17
351.866	0.33
352.075	0.22
352.284	0.2
352.493	0.17
352.702	0.32
352.911	0.22
353.12	0.23
353.329	0.19
353.538	0.27
353.746	0.25
353.955	0.18
354.164	0.24
354.373	0.23
354.582	0.27
354.79	0.2
354.999	0.26
355.208	0.24
355.416	0.3
355.625	0.21
355.834	0.23
356.042	0.25
356.251	0.22
356.46	0.18
356.668	0.23
356.877	0.3
357.085	0.26
357.294	0.11
357.503	0.28
357.711	0.2
357.92	0.37
358.128	0.22
358.337	0.22
358.545	0.26
358.754	0.21
358.962	0.25
359.17	0.2
359.379	0.24
359.587	0.23
359.796	0.22
360.004	0.26
360.212	0.25
360.421	0.31
360.629	0.24
360.837	0.22
361.046	0.28
361.254	0.32
361.462	0.23
361.67	0.16
361.879	0.25
362.087	0.31
362.295	0.21
362.503	0.24
362.711	0.17
362.92	0.22
363.128	0.19
363.336	0.18
363.544	0.17
363.752	0.2
363.96	0.17
364.168	0.17
364.376	0.21
364.584	0.24
364.792	0.24
365	0.22
365.208	0.2
365.416	0.24
365.624	0.27
365.832	0.2
366.04	0.29
366.248	0.2
366.456	0.23
366.664	0.21
366.872	0.24
367.079	0.26
367.287	0.26
367.495	0.25
367.703	0.2
367.911	0.23
368.118	0.21
368.326	0.21
368.534	0.18
368.742	0.29
368.949	0.19
369.157	0.17
369.365	0.24
369.572	0.2
369.78	0.17
369.988	0.26
370.195	0.24
370.403	0.29
370.61	0.15
370.818	0.24
371.026	0.29
371.233	0.18
371.441	0.23
371.648	0.2
371.856	0.24
372.063	0.26
372.271	0.16
372.478	0.2
372.685	0.21
372.893	0.26
373.1	0.26
373.308	0.22
373.515	0.34
373.722	0.28
373.93	0.19
374.137	0.25
374.344	0.31
374.552	0.25
374.759	0.24
374.966	0.2
375.173	0.23
375.381	0.31
375.588	0.17
375.795	0.19
376.002	0.23
376.209	0.2
376.417	0.24
376.624	0.23
376.831	0.26
377.038	0.22
377.245	0.14
377.452	0.24
377.659	0.24
377.866	0.2
378.073	0.23
378.28	0.23
378.487	0.32
378.694	0.29
378.901	0.24
379.108	0.18
379.315	0.3
379.522	0.33
379.729	0.26
379.936	0.22
380.143	0.26
380.35	0.29
380.557	0.26
380.763	0.22
380.97	0.23
381.177	0.22
381.384	0.3
381.591	0.22
381.797	0.23
382.004	0.26
382.211	0.27
382.418	0.19
382.624	0.28
382.831	0.31
383.038	0.22
383.244	0.25
383.451	0.23
383.658	0.26
383.864	0.2
384.071	0.21
384.277	0.35
384.484	0.23
384.69	0.3
384.897	0.27
385.103	0.22
385.31	0.23
385.516	0.22
385.723	0.19
385.929	0.25
386.136	0.23
386.342	0.26
386.549	0.24
386.755	0.24
386.961	0.31
387.168	0.21
387.374	0.26
387.58	0.32
387.787	0.23
387.993	0.27
388.199	0.25
388.406	0.18
388.612	0.26
388.818	0.2
389.024	0.21
389.231	0.27
389.437	0.38
389.643	0.31
389.849	0.29
390.055	0.25
390.261	0.28
390.467	0.31
390.674	0.25
390.88	0.27
391.086	0.33
391.292	0.19
391.498	0.33
391.704	0.29
391.91	0.24
392.116	0.22
392.322	0.14
392.528	0.3
392.734	0.27
392.94	0.23
393.146	0.2
393.352	0.28
393.557	0.27
393.763	0.3
393.969	0.34
394.175	0.26
394.381	0.26
394.587	0.24
394.792	0.26
394.998	0.31
395.204	0.36
395.41	0.28
395.615	0.28
395.821	0.33
396.027	0.33
396.233	0.26
396.438	0.31
396.644	0.36
396.85	0.32
397.055	0.32
397.261	0.28
397.466	0.41
397.672	0.34
397.878	0.33
398.083	0.33
398.289	0.28
398.494	0.39
398.7	0.38
398.905	0.22
399.111	0.44
399.316	0.27
399.522	0.3
399.727	0.3
399.932	0.3
400.138	0.29
400.343	0.32
400.549	0.33
400.754	0.32
400.959	0.34
401.165	0.31
401.37	0.34
401.575	0.41
401.78	0.36
401.986	0.29
402.191	0.31
402.396	0.32
402.601	0.39
402.807	0.31
403.012	0.34
403.217	0.41
403.422	0.38
403.627	0.4
403.832	0.33
404.037	0.45
404.243	0.35
404.448	0.37
404.653	0.36
404.858	0.41
405.063	0.41
405.268	0.41
405.473	0.3
405.678	0.39
405.883	0.58
406.088	0.44
406.293	0.38
406.498	0.36
406.703	0.5
406.907	0.42
407.112	0.35
407.317	0.49
407.522	0.55
407.727	0.39
407.932	0.49
408.136	0.58
408.341	0.46
408.546	0.53
408.751	0.49
408.956	0.52
409.16	0.58
409.365	0.57
409.57	0.58
409.774	0.54
409.979	0.65
410.184	0.58
410.388	0.6
410.593	0.66
410.798	0.61
411.002	0.64
411.207	0.75
411.411	0.71
411.616	0.7
411.82	0.73
412.025	0.78
412.229	0.76
412.434	0.85
412.638	0.83
412.843	0.81
413.047	0.88
413.252	0.85
413.456	0.9
413.66	0.95
413.865	0.9
414.069	1.06
414.273	1.02
414.478	0.98
414.682	1.05
414.886	1.01
415.091	1.03
415.295	1.02
415.499	1.2
415.703	1.16
415.908	1.25
416.112	1.19
416.316	1.41
416.52	1.31
416.724	1.33
416.929	1.39
417.133	1.67
417.337	1.45
417.541	1.57
417.745	1.6
417.949	1.72
418.153	1.76
418.357	1.71
418.561	1.99
418.765	1.88
418.969	2.07
419.173	2.13
419.377	2.1
419.581	2.25
419.785	2.25
419.989	2.24
420.193	2.45
420.397	2.49
420.601	2.64
420.804	2.72
421.008	2.74
421.212	2.81
421.416	2.85
421.62	2.83
421.823	3.02
422.027	3.09
422.231	3.04
422.435	3.05
422.638	3.02
422.842	3.22
423.046	3.31
423.249	3.52
423.453	3.36
423.657	3.64
423.86	3.63
424.064	3.79
424.268	3.88
424.471	3.93
424.675	4.12
424.878	4.18
425.082	4.23
425.285	4.51
425.489	4.41
425.692	4.55
425.896	4.52
426.099	4.74
426.303	4.9
426.506	5.09
426.71	5.28
426.913	5.41
427.116	5.59
427.32	5.48
427.523	5.6
427.726	5.96
427.93	5.93
428.133	6.24
428.336	6.38
428.54	6.46
428.743	6.73
428.946	6.94
429.149	6.93
429.353	7.02
429.556	7.06
429.759	7.14
429.962	7.26
430.165	7.43
430.368	7.03
430.571	7.1
430.775	7.13
430.978	7.17
431.181	7.2
431.384	7.3
431.587	7.4
431.79	7.7
431.993	7.74
432.196	7.95
432.399	8.3
432.602	8.39
432.805	8.48
433.008	8.92
433.211	8.77
433.414	9.16
433.616	9.23
433.819	9.1
434.022	9.29
434.225	9.55
434.428	9.44
434.631	9.88
434.833	9.7
435.036	10
435.239	10.07
435.442	10.11
435.645	10.32
435.847	10.26
436.05	10.67
436.253	10.84
436.455	10.84
436.658	10.75
436.861	11.16
437.063	11.23
437.266	11.2
437.468	11.39
437.671	11.81
437.874	11.83
438.076	11.64
438.279	12.12
438.481	12.11
438.684	12.83
438.886	12.38
439.089	12.66
439.291	12.69
439.494	13.09
439.696	13.24
439.899	13.69
440.101	14.12
440.303	14.14
440.506	14.97
440.708	14.73
440.91	14.81
441.113	14.97
441.315	15.3
441.517	15.08
441.72	15.55
441.922	15.26
442.124	15.29
442.326	15.55
442.529	15.75
442.731	15.7
442.933	16
443.135	15.78
443.337	15.79
443.539	16.49
443.742	16.09
443.944	16.55
444.146	16.27
444.348	16.5
444.55	16.34
444.752	16.49
444.954	16.39
445.156	16.51
445.358	16.86
445.56	17.21
445.762	16.82
445.964	17.2
446.166	16.98
446.368	17.05
446.57	17.05
446.772	16.73
446.974	16.43
447.175	16.82
447.377	16.7
447.579	16.96
447.781	16.68
447.983	16.38
448.184	16.12
448.386	16.4
448.588	15.99
448.79	15.87
448.991	16.24
449.193	16.23
449.395	15.66
449.597	15.29
449.798	15.31
450	14.94
450.202	14.89
450.403	14.73
450.605	14.71
450.806	14.44
451.008	14.21
451.21	14.04
451.411	13.7
451.613	12.86
451.814	13.2
452.016	13.1
452.217	12.58
452.419	12.46
452.62	12.24
452.821	12.07
453.023	11.94
453.224	11.66
453.426	11.19
453.627	10.5
453.828	10.7
454.03	10.67
454.231	10.6
454.432	10.45
454.634	10.31
454.835	9.96
455.036	9.91
455.238	9.52
455.439	9.26
455.64	9
455.841	8.93
456.042	9.05
456.244	8.71
456.445	8.48
456.646	8.07
456.847	8.05
457.048	8.07
457.249	7.99
457.45	7.92
457.651	7.26
457.852	7.26
458.054	6.94
458.255	6.81
458.456	6.95
458.657	6.79
458.858	6.35
459.058	6.41
459.259	6.43
459.46	6.14
459.661	6.08
459.862	6.11
460.063	5.99
460.264	5.97
460.465	5.61
460.666	5.76
460.866	5.42
461.067	5.2
461.268	5.25
461.469	5.15
461.67	5.13
461.87	5.05
462.071	4.88
462.272	4.86
462.473	4.75
462.673	5
462.874	4.91
463.075	4.84
463.275	4.89
463.476	4.96
463.676	4.88
463.877	4.68
464.078	4.69
464.278	4.69
464.479	4.61
464.679	4.47
464.88	4.49
465.08	4.46
465.281	4.27
465.481	4.05
465.682	3.91
465.882	3.95
466.083	3.89
466.283	3.83
466.483	3.63
466.684	3.5
466.884	3.44
467.085	3.47
467.285	3.53
467.485	3.42
467.686	3.39
467.886	3.25
468.086	3.26
468.286	3.22
468.487	3.26
468.687	3.09
468.887	3.03
469.087	3.2
469.287	3.13
469.488	2.92
469.688	3.04
469.888	3.03
470.088	2.97
470.288	2.87
470.488	2.81
470.688	2.7
470.888	2.69
471.088	2.59
471.288	2.68
471.488	2.59
471.688	2.63
471.888	2.54
472.088	2.69
472.288	2.59
472.488	2.4
472.688	2.41
472.888	2.46
473.088	2.47
473.288	2.36
473.488	2.31
473.688	2.47
473.887	2.3
474.087	2.3
474.287	2.34
474.487	2.23
474.687	2.27
474.886	2.23
475.086	2.18
475.286	2.14
475.486	2.17
475.685	2.15
475.885	2.06
476.085	2.11
476.284	2.18
476.484	2.13
476.684	2.1
476.883	2.17
477.083	2.07
477.282	2
477.482	2.09
477.681	2.04
477.881	1.95
478.08	2
478.28	1.86
478.479	1.99
478.679	2.05
478.878	1.91
479.078	1.94
479.277	1.93
479.477	1.86
479.676	1.87
479.875	1.86
480.075	1.86
480.274	1.93
480.473	1.95
480.673	1.9
480.872	1.98
481.071	1.91
481.271	1.94
481.47	1.89
481.669	1.88
481.868	1.83
482.067	1.87
482.267	1.79
482.466	1.77
482.665	1.82
482.864	1.81
483.063	1.83
483.262	1.91
483.461	1.92
483.661	1.96
483.86	1.87
484.059	1.93
484.258	1.91
484.457	1.86
484.656	1.91
484.855	1.95
485.054	1.77
485.253	1.84
485.452	1.86
485.651	1.91
485.849	1.84
486.048	1.87
486.247	1.89
486.446	1.96
486.645	1.86
486.844	1.94
487.043	1.91
487.241	1.95
487.44	1.94
487.639	1.98
487.838	1.99
488.037	1.98
488.235	2.07
488.434	2.03
488.633	1.89
488.831	2.04
489.03	2.08
489.229	2.07
489.427	2.03
489.626	2.09
489.825	2.14
490.023	2.13
490.222	2.14
490.42	2.16
490.619	2.18
490.817	2.18
491.016	2.18
491.214	2.24
491.413	2.27
491.611	2.22
491.81	2.23
492.008	2.27
492.207	2.34
492.405	2.36
492.604	2.3
492.802	2.39
493	2.41
493.199	2.44
493.397	2.45
493.595	2.49
493.794	2.44
493.992	2.58
494.19	2.53
494.388	2.61
494.587	2.53
494.785	2.58
494.983	2.53
495.181	2.64
495.379	2.72
495.578	2.7
495.776	2.72
495.974	2.68
496.172	2.73
496.37	2.87
496.568	2.87
496.766	2.81
496.964	2.95
497.162	2.97
497.36	2.95
497.558	3
497.756	3.07
497.954	3.07
498.152	3.12
498.35	3.16
498.548	3.08
498.746	3.12
498.944	3.15
499.142	3.13
499.34	3.25
499.538	3.38
499.736	3.25
499.933	3.38
500.131	3.37
500.329	3.51
500.527	3.46
500.725	3.6
500.922	3.58
501.12	3.54
501.318	3.64
501.516	3.58
501.713	3.73
501.911	3.68
502.109	3.68
502.306	3.78
502.504	3.72
502.701	3.81
502.899	3.83
503.097	4.02
503.294	3.87
503.492	4.03
503.689	4.06
503.887	4.04
504.084	4.11
504.282	4.1
504.479	4.11
504.677	4.14
504.874	4.2
505.072	4.1
505.269	4.29
505.466	4.36
505.664	4.39
505.861	4.32
506.059	4.39
506.256	4.45
506.453	4.49
506.651	4.59
506.848	4.61
507.045	4.59
507.242	4.61
507.44	4.62
507.637	4.72
507.834	4.68
508.031	4.86
508.229	4.74
508.426	4.69
508.623	4.86
508.82	4.83
509.017	4.83
509.214	4.86
509.411	5.01
509.608	4.95
509.805	5.07
510.003	5.06
510.2	5.09
510.397	5.24
510.594	5.09
510.791	5.2
510.988	5.2
511.184	5.17
511.381	5.1
511.578	5.25
511.775	5.37
511.972	5.31
512.169	5.34
512.366	5.35
512.563	5.47
512.76	5.56
512.956	5.59
513.153	5.49
513.35	5.48
513.547	5.48
513.744	5.61
513.94	5.54
514.137	5.66
514.334	5.62
514.53	5.75
514.727	5.98
514.924	5.76
515.12	5.8
515.317	5.84
515.514	5.78
515.71	5.72
515.907	5.95
516.103	5.91
516.3	5.79
516.497	5.96
516.693	6.02
516.89	6
517.086	6.04
517.283	6.1
517.479	5.91
517.676	6.1
517.872	6.15
518.068	6.1
518.265	6.14
518.461	6.05
518.658	6.14
518.854	6.23
519.05	6.24
519.247	6.27
519.443	6.26
519.639	6.38
519.836	6.28
520.032	6.25
520.228	6.4
520.424	6.36
520.621	6.42
520.817	6.43
521.013	6.33
521.209	6.53
521.405	6.54
521.601	6.49
521.798	6.45
521.994	6.52
522.19	6.44
522.386	6.45
522.582	6.63
522.778	6.66
522.974	6.58
523.17	6.61
523.366	6.57
523.562	6.66
523.758	6.64
523.954	6.51
524.15	6.7
524.346	6.69
524.542	6.71
524.738	6.69
524.934	6.75
525.129	6.79
525.325	6.67
525.521	6.75
525.717	6.85
525.913	6.76
526.109	6.82
526.304	6.88
526.5	6.86
526.696	6.88
526.892	6.79
527.087	6.98
527.283	6.96
527.479	6.96
527.674	6.81
527.87	6.93
528.066	6.97
528.261	7.02
528.457	6.85
528.653	6.98
528.848	6.98
529.044	7.06
529.239	6.99
529.435	7.02
529.63	6.94
529.826	7.02
530.021	6.95
530.217	7.06
530.412	7.04
530.608	7.03
530.803	7
530.999	6.97
531.194	7.04
531.389	7.15
531.585	7.09
531.78	7.21
531.975	7.09
532.171	7.18
532.366	7.1
532.561	7.16
532.757	7.17
532.952	7.3
533.147	7.07
533.342	7.19
533.538	7.13
533.733	7.27
533.928	6.98
534.123	7.21
534.318	7.25
534.513	7.15
534.709	7.31
534.904	7.25
535.099	7.33
535.294	7.26
535.489	7.28
535.684	7.24
535.879	7.22
536.074	7.32
536.269	7.29
536.464	7.29
536.659	7.26
536.854	7.22
537.049	7.36
537.244	7.32
537.439	7.3
537.634	7.29
537.828	7.36
538.023	7.34
538.218	7.3
538.413	7.24
538.608	7.31
538.803	7.35
538.997	7.34
539.192	7.33
539.387	7.29
539.582	7.34
539.776	7.26
539.971	7.38
540.166	7.43
540.36	7.29
540.555	7.41
540.75	7.38
540.944	7.4
541.139	7.48
541.334	7.41
541.528	7.45
541.723	7.48
541.917	7.54
542.112	7.34
542.306	7.32
542.501	7.31
542.695	7.39
542.89	7.33
543.084	7.35
543.279	7.42
543.473	7.46
543.668	7.5
543.862	7.33
544.056	7.36
544.251	7.47
544.445	7.49
544.64	7.55
544.834	7.21
545.028	7.12
545.222	7.41
545.417	7.63
545.611	7.45
545.805	7.48
546	7.28
546.194	7.48
546.388	7.55
546.582	7.36
546.776	7.39
546.97	7.44
547.165	7.48
547.359	7.44
547.553	7.4
547.747	7.43
547.941	7.63
548.135	7.46
548.329	7.54
548.523	7.48
548.717	7.43
548.911	7.42
549.105	7.41
549.299	7.5
549.493	7.49
549.687	7.39
549.881	7.6
550.075	7.55
550.269	7.37
550.463	7.55
550.657	7.49
550.85	7.44
551.044	7.46
551.238	7.52
551.432	7.48
551.626	7.55
551.82	7.53
552.013	7.42
552.207	7.46
552.401	7.55
552.594	7.55
552.788	7.42
552.982	7.48
553.176	7.4
553.369	7.57
553.563	7.51
553.756	7.46
553.95	7.52
554.144	7.55
554.337	7.57
554.531	7.36
554.724	7.51
554.918	7.58
555.111	7.5
555.305	7.54
555.498	7.45
555.692	7.54
555.885	7.57
556.079	7.49
556.272	7.47
556.466	7.48
556.659	7.4
556.852	7.62
557.046	7.43
557.239	7.37
557.432	7.44
557.626	7.49
557.819	7.58
558.012	7.52
558.206	7.56
558.399	7.54
558.592	7.5
558.785	7.43
558.979	7.5
559.172	7.52
559.365	7.56
559.558	7.4
559.751	7.37
559.944	7.63
560.138	7.49
560.331	7.52
560.524	7.54
560.717	7.47
560.91	7.47
561.103	7.46
561.296	7.37
561.489	7.51
561.682	7.6
561.875	7.54
562.068	7.63
562.261	7.46
562.454	7.67
562.647	7.46
562.84	7.51
563.032	7.53
563.225	7.43
563.418	7.49
563.611	7.54
563.804	7.56
563.997	7.36
564.19	7.27
564.382	7.57
564.575	7.52
564.768	7.43
564.961	7.56
565.153	7.48
565.346	7.42
565.539	7.57
565.731	7.5
565.924	7.56
566.117	7.59
566.309	7.55
566.502	7.5
566.695	7.39
566.887	7.5
567.08	7.47
567.272	7.54
567.465	7.36
567.657	7.52
567.85	7.44
568.042	7.45
568.235	7.5
568.427	7.37
568.62	7.49
568.812	7.46
569.005	7.48
569.197	7.4
569.389	7.45
569.582	7.45
569.774	7.48
569.966	7.4
570.159	7.33
570.351	7.38
570.543	7.4
570.736	7.43
570.928	7.27
571.12	7.45
571.312	7.34
571.505	7.21
571.697	7.37
571.889	7.39
572.081	7.4
572.273	7.29
572.465	7.4
572.658	7.45
572.85	7.43
573.042	7.42
573.234	7.35
573.426	7.41
573.618	7.32
573.81	7.36
574.002	7.35
574.194	7.42
574.386	7.31
574.578	7.28
574.77	7.31
574.962	7.37
575.154	7.22
575.346	7.22
575.538	7.26
575.729	7.23
575.921	7.33
576.113	7.37
576.305	7.32
576.497	7.31
576.689	7.21
576.88	7.18
577.072	7.35
577.264	7.26
577.456	7.32
577.647	7.24
577.839	7.43
578.031	7.27
578.223	7.27
578.414	7.17
578.606	7.25
578.798	7.35
578.989	7.27
579.181	7.35
579.372	7.25
579.564	7.26
579.755	7.2
579.947	7.19
580.139	7.26
580.33	7.01
580.522	7.26
580.713	7.15
580.905	7.13
581.096	7.24
581.287	7.17
581.479	7.12
581.67	7.16
581.862	7.11
582.053	7.16
582.244	7
582.436	7.2
582.627	7.08
582.818	7.03
583.01	7.05
583.201	7.14
583.392	7.09
583.583	7.03
583.775	6.91
583.966	7.02
584.157	7.01
584.348	7.11
584.54	6.99
584.731	7.05
584.922	6.95
585.113	6.9
585.304	7.02
585.495	6.97
585.686	7.07
585.877	6.97
586.068	7.1
586.259	7.01
586.45	6.97
586.641	6.96
586.832	7.06
587.023	6.94
587.214	6.9
587.405	6.95
587.596	6.86
587.787	6.82
587.978	6.93
588.169	6.85
588.36	6.76
588.551	6.9
588.742	6.86
588.932	6.92
589.123	6.7
589.314	6.89
589.505	6.8
589.696	6.82
589.886	6.78
590.077	6.8
590.268	6.77
590.458	6.62
590.649	6.6
590.84	6.75
591.03	6.74
591.221	6.76
591.412	6.62
591.602	6.81
591.793	6.68
591.984	6.71
592.174	6.68
592.365	6.81
592.555	6.54
592.746	6.62
592.936	6.66
593.127	6.59
593.317	6.65
593.508	6.68
593.698	6.57
593.889	6.59
594.079	6.56
594.269	6.47
594.46	6.46
594.65	6.6
594.84	6.5
595.031	6.48
595.221	6.46
595.411	6.47
595.602	6.52
595.792	6.45
595.982	6.39
596.172	6.49
596.363	6.36
596.553	6.44
596.743	6.36
596.933	6.4
597.123	6.44
597.314	6.21
597.504	6.29
597.694	6.39
597.884	6.32
598.074	6.38
598.264	6.29
598.454	6.25
598.644	6.23
598.834	6.28
599.024	6.16
599.214	6.15
599.404	6.22
599.594	6.2
599.784	6.1
599.974	6.29
600.164	6.18
600.354	6.09
600.544	6.09
600.734	6.14
600.924	6.11
601.114	6.02
601.303	6.09
601.493	6.12
601.683	6.03
601.873	6.01
602.063	5.95
602.252	5.98
602.442	5.94
602.632	5.98
602.821	5.88
603.011	6.01
603.201	5.91
603.39	5.9
603.58	5.83
603.77	5.95
603.959	5.97
604.149	5.88
604.339	5.87
604.528	5.93
604.718	5.94
604.907	5.89
605.097	5.8
605.286	5.69
605.476	5.76
605.665	5.8
605.855	5.74
606.044	5.76
606.234	5.75
606.423	5.7
606.612	5.67
606.802	5.6
606.991	5.68
607.181	5.69
607.37	5.66
607.559	5.49
607.749	5.68
607.938	5.65
608.127	5.59
608.316	5.57
608.506	5.58
608.695	5.56
608.884	5.56
609.073	5.54
609.263	5.59
609.452	5.56
609.641	5.39
609.83	5.38
610.019	5.47
610.208	5.43
610.397	5.35
610.586	5.42
610.775	5.34
610.965	5.37
611.154	5.28
611.343	5.33
611.532	5.3
611.721	5.35
611.91	5.27
612.099	5.26
612.287	5.18
612.476	5.17
612.665	5.27
612.854	5.22
613.043	5.19
613.232	5.21
613.421	5.12
613.61	5.13
613.798	5.1
613.987	5.14
614.176	5.06
614.365	5.07
614.554	5.09
614.742	5.08
614.931	4.98
615.12	5.13
615.309	5.04
615.497	4.93
615.686	4.89
615.875	5.03
616.063	4.91
616.252	4.94
616.44	4.96
616.629	4.88
616.818	4.9
617.006	4.83
617.195	4.8
617.383	4.87
617.572	4.77
617.76	4.85
617.949	4.84
618.137	4.82
618.326	4.87
618.514	4.6
618.703	4.61
618.891	4.74
619.079	4.66
619.268	4.75
619.456	4.62
619.644	4.68
619.833	4.6
620.021	4.62
620.209	4.56
620.398	4.62
620.586	4.58
620.774	4.59
620.962	4.51
621.151	4.64
621.339	4.57
621.527	4.44
621.715	4.48
621.903	4.45
622.092	4.4
622.28	4.48
622.468	4.38
622.656	4.42
622.844	4.36
623.032	4.4
623.22	4.36
623.408	4.44
623.596	4.38
623.784	4.4
623.972	4.27
624.16	4.36
624.348	4.38
624.536	4.36
624.724	4.27
624.912	4.26
625.1	4.28
625.288	4.24
625.476	4.18
625.664	4.26
625.851	4.12
626.039	4.2
626.227	4.19
626.415	4.1
626.603	4.09
626.79	4.16
626.978	4.07
627.166	4.17
627.354	4.01
627.541	4.02
627.729	3.96
627.917	4.11
628.104	4.06
628.292	3.93
628.48	3.99
628.667	3.96
628.855	4.05
629.042	3.99
629.23	3.93
629.418	3.97
629.605	3.9
629.793	3.81
629.98	3.91
630.168	3.87
630.355	3.89
630.543	3.85
630.73	3.76
630.917	3.74
631.105	3.89
631.292	3.75
631.48	3.72
631.667	3.87
631.854	3.7
632.042	3.7
632.229	3.61
632.416	3.72
632.604	3.68
632.791	3.6
632.978	3.7
633.165	3.61
633.353	3.68
633.54	3.66
633.727	3.49
633.914	3.54
634.101	3.53
634.289	3.59
634.476	3.5
634.663	3.46
634.85	3.52
635.037	3.46
635.224	3.39
635.411	3.47
635.598	3.44
635.785	3.46
635.972	3.41
636.159	3.46
636.346	3.36
636.533	3.32
636.72	3.31
636.907	3.35
637.094	3.41
637.281	3.23
637.468	3.31
637.655	3.31
637.842	3.32
638.029	3.27
638.215	3.27
638.402	3.27
638.589	3.21
638.776	3.21
638.963	3.2
639.149	3.24
639.336	3.26
639.523	3.18
639.709	3.2
639.896	3.12
640.083	3.14
640.27	3.14
640.456	3.17
640.643	3.12
640.829	2.98
641.016	3.04
641.203	2.99
641.389	3.05
641.576	3.03
641.762	3.01
641.949	2.97
642.135	2.97
642.322	2.99
642.508	2.88
642.695	2.96
642.881	2.93
643.068	2.88
643.254	2.93
643.441	2.93
643.627	2.95
643.813	2.86
644	2.9
644.186	2.83
644.372	2.9
644.559	2.86
644.745	2.81
644.931	2.75
645.118	2.8
645.304	2.82
645.49	2.8
645.676	2.75
645.862	2.68
646.049	2.77
646.235	2.72
646.421	2.82
646.607	2.77
646.793	2.7
646.979	2.6
647.165	2.71
647.352	2.7
647.538	2.71
647.724	2.64
647.91	2.58
648.096	2.62
648.282	2.66
648.468	2.59
648.654	2.59
648.84	2.62
649.026	2.58
649.212	2.5
649.397	2.51
649.583	2.51
649.769	2.5
649.955	2.5
650.141	2.52
650.327	2.45
650.513	2.47
650.698	2.45
650.884	2.33
651.07	2.48
651.256	2.41
651.442	2.38
651.627	2.31
651.813	2.4
651.999	2.37
652.184	2.36
652.37	2.31
652.556	2.3
652.741	2.37
652.927	2.18
653.113	2.29
653.298	2.29
653.484	2.29
653.669	2.25
653.855	2.25
654.04	2.29
654.226	2.25
654.412	2.21
654.597	2.17
654.782	2.23
654.968	2.19
655.153	2.23
655.339	2.19
655.524	2.12
655.71	2.25
655.895	2.14
656.08	2.15
656.266	2.27
656.451	2.16
656.636	2.07
656.822	2.1
657.007	2.15
657.192	2.11
657.378	2.07
657.563	2.04
657.748	2.07
657.933	2.1
658.118	1.99
658.304	2.05
658.489	2.1
658.674	2.06
658.859	1.99
659.044	2
659.229	2.05
659.414	1.94
659.599	1.94
659.785	1.89
659.97	1.95
660.155	1.94
660.34	1.97
660.525	1.93
660.71	1.87
660.895	1.93
661.08	1.92
661.264	1.83
661.449	1.96
661.634	1.9
661.819	1.9
662.004	1.84
662.189	1.84
662.374	1.84
662.559	1.77
662.743	1.78
662.928	1.81
663.113	1.81
663.298	1.71
663.483	1.78
663.667	1.79
663.852	1.74
664.037	1.81
664.221	1.77
664.406	1.81
664.591	1.79
664.775	1.77
664.96	1.72
665.145	1.73
665.329	1.78
665.514	1.71
665.698	1.7
665.883	1.59
666.068	1.76
666.252	1.72
666.437	1.66
666.621	1.72
666.806	1.68
666.99	1.65
667.174	1.59
667.359	1.7
667.543	1.64
667.728	1.64
667.912	1.53
668.096	1.62
668.281	1.59
668.465	1.62
668.649	1.59
668.834	1.56
669.018	1.61
669.202	1.54
669.387	1.53
669.571	1.56
669.755	1.48
669.939	1.5
670.124	1.51
670.308	1.62
670.492	1.57
670.676	1.52
670.86	1.51
671.044	1.47
671.228	1.57
671.413	1.42
671.597	1.48
671.781	1.46
671.965	1.51
672.149	1.48
672.333	1.48
672.517	1.43
672.701	1.51
672.885	1.41
673.069	1.35
673.253	1.5
673.437	1.45
673.621	1.44
673.804	1.44
673.988	1.41
674.172	1.39
674.356	1.29
674.54	1.32
674.724	1.49
674.908	1.36
675.091	1.41
675.275	1.31
675.459	1.4
675.643	1.4
675.826	1.38
676.01	1.35
676.194	1.36
676.377	1.42
676.561	1.39
676.745	1.29
676.928	1.38
677.112	1.41
677.296	1.29
677.479	1.3
677.663	1.25
677.846	1.33
678.03	1.26
678.213	1.21
678.397	1.29
678.58	1.26
678.764	1.22
678.947	1.22
679.131	1.23
679.314	1.32
679.498	1.23
679.681	1.24
679.865	1.24
680.048	1.18
680.231	1.21
680.415	1.23
680.598	1.13
680.781	1.18
680.965	1.18
681.148	1.16
681.331	1.16
681.514	1.24
681.698	1.15
681.881	1.18
682.064	1.16
682.247	1.22
682.43	1.08
682.614	1.19
682.797	1.19
682.98	1.16
683.163	1.06
683.346	1.14
683.529	1.08
683.712	1.08
683.895	1.12
684.078	1.04
684.261	1.07
684.444	1.11
684.627	1.18
684.81	1.06
684.993	1.1
685.176	1.13
685.359	1
685.542	1.06
685.725	1.17
685.908	1.07
686.091	1.01
686.274	1.08
686.457	1.07
686.639	1.06
686.822	1.03
687.005	1.03
687.188	1.08
687.371	1.14
687.553	1.07
687.736	1.02
687.919	1.09
688.102	1.04
688.284	0.98
688.467	0.99
688.65	0.99
688.832	0.89
689.015	1
689.197	0.93
689.38	1.09
689.563	1.04
689.745	0.88
689.928	0.94
690.11	0.92
690.293	0.93
690.475	0.84
690.658	0.91
690.84	0.93
691.023	0.93
691.205	0.84
691.388	0.92
691.57	0.94
691.752	0.93
691.935	0.82
692.117	0.89
692.3	0.99
692.482	0.87
692.664	0.79
692.847	0.86
693.029	0.97
693.211	0.91
693.393	0.87
693.576	0.82
693.758	0.84
693.94	0.87
694.122	0.88
694.304	0.85
694.487	0.84
694.669	0.93
694.851	0.81
695.033	0.83
695.215	0.81
695.397	0.84
695.579	0.87
695.761	0.81
695.943	0.81
696.125	0.95
696.308	0.85
696.49	0.67
696.671	0.93
696.853	0.78
697.035	0.99
697.217	0.85
697.399	0.85
697.581	0.74
697.763	0.85
697.945	0.7
698.127	0.82
698.309	0.88
698.491	0.79
698.672	0.84
698.854	0.75
699.036	0.85
699.218	0.71
699.399	0.79
699.581	0.8
699.763	0.78
699.945	0.72
700.126	0.68
700.308	0.82
700.49	0.73
700.671	0.68
700.853	0.69
701.035	0.74
701.216	0.72
701.398	0.67
701.579	0.77
701.761	0.82
701.943	0.64
702.124	0.66
702.306	0.65
702.487	0.86
702.669	0.76
702.85	0.69
703.031	0.65
703.213	0.8
703.394	0.79
703.576	0.69
703.757	0.88
703.938	0.78
704.12	0.87
704.301	0.68
704.483	0.59
704.664	0.66
704.845	0.81
705.026	0.75
705.208	0.69
705.389	0.67
705.57	0.73
705.751	0.66
705.933	0.65
706.114	0.78
706.295	0.59
706.476	0.58
706.657	0.71
706.838	0.71
707.02	0.71
707.201	0.58
707.382	0.56
707.563	0.68
707.744	0.62
707.925	0.61
708.106	0.57
708.287	0.67
708.468	0.75
708.649	0.67
708.83	0.66
709.011	0.61
709.192	0.69
709.373	0.51
709.554	0.64
709.734	0.68
709.915	0.62
710.096	0.68
710.277	0.47
710.458	0.63
710.639	0.7
710.819	0.52
711	0.55
711.181	0.63
711.362	0.6
711.542	0.68
711.723	0.6
711.904	0.64
712.085	0.65
712.265	0.62
712.446	0.49
712.627	0.59
712.807	0.61
712.988	0.64
713.168	0.42
713.349	0.61
713.53	0.42
713.71	0.54
713.891	0.52
714.071	0.54
714.252	0.56
714.432	0.55
714.613	0.44
714.793	0.57
714.974	0.65
715.154	0.6
715.334	0.63
715.515	0.69
715.695	0.44
715.876	0.56
716.056	0.53
716.236	0.51
716.417	0.51
716.597	0.53
716.777	0.77
716.957	0.56
717.138	0.59
717.318	0.56
717.498	0.46
717.678	0.57
717.859	0.56
718.039	0.48
718.219	0.52
718.399	0.64
718.579	0.46
718.759	0.45
718.939	0.56
719.12	0.51
719.3	0.51
719.48	0.34
719.66	0.37
719.84	0.56
720.02	0.54
720.2	0.39
720.38	0.51
720.56	0.74
720.74	0.39
720.92	0.63
721.1	0.56
721.279	0.62
721.459	0.45
721.639	0.36
721.819	0.46
721.999	0.48
722.179	0.56
722.359	0.4
722.538	0.48
722.718	0.47
722.898	0.49
723.078	0.49
723.257	0.49
723.437	0.51
723.617	0.48
723.797	0.46
723.976	0.47
724.156	0.6
724.336	0.58
724.515	0.61
724.695	0.36
724.874	0.44
725.054	0.62
725.234	0.43
725.413	0.49
725.593	0.46
725.772	0.37
725.952	0.45
726.131	0.35
726.311	0.44
726.49	0.46
726.67	0.46
726.849	0.38
727.028	0.47
727.208	0.45
727.387	0.46
727.567	0.37
727.746	0.44
727.925	0.34
728.105	0.4
728.284	0.33
728.463	0.39
728.643	0.44
728.822	0.34
729.001	0.36
729.18	0.43
729.359	0.59
729.539	0.38
729.718	0.43
729.897	0.51
730.076	0.45
730.255	0.39
730.434	0.37
730.614	0.47
730.793	0.52
730.972	0.39
731.151	0.42
731.33	0.54
731.509	0.54
731.688	0.48
731.867	0.45
732.046	0.28
732.225	0.6
732.404	0.41
732.583	0.34
732.762	0.44
732.941	0.57
733.12	0.49
733.298	0.44
733.477	0.55
733.656	0.29
733.835	0.42
734.014	0.52
734.193	0.5
734.371	0.51
734.55	0.46
734.729	0.3
734.908	0.54
735.086	0.48
735.265	0.52
735.444	0.16
735.623	0.31
735.801	0.4
735.98	0.44
736.159	0.45
736.337	0.46
736.516	0.52
736.694	0.37
736.873	0.28
737.052	0.6
737.23	0.61
737.409	0.34
737.587	0.58
737.766	0.3
737.944	0.38
738.123	0.48
738.301	0.57
738.479	0.48
738.658	0.5
738.836	0.25
739.015	0.53
739.193	0.59
739.371	0.33
739.55	0.45
739.728	0.32
739.906	0.61
740.085	0.6
740.263	0.38
740.441	0.22
740.62	0.74
740.798	0.52
740.976	0.32
741.154	0.35
741.332	0.7
741.511	0.44
741.689	0.4
741.867	0.54
742.045	0.45
742.223	0.44
742.401	0.36
742.579	0.36
742.757	0.53
742.935	0.22
743.114	0.36
743.292	0.4
743.47	0.48
743.648	0.51
743.826	0.45
744.004	0.48
744.181	0.42
744.359	0.39
744.537	0.49
744.715	0.17
744.893	0.4
745.071	0.39
745.249	0.37
745.427	0.35
745.605	0.31
745.782	0.45
745.96	0.54
746.138	0.53
746.316	0.41
746.493	0.31
746.671	0.43
746.849	0.37
747.027	0.55
747.204	0.42
747.382	0.34
747.56	0.22
747.737	0.33
747.915	0.38
748.093	0.45
748.27	0.28
748.448	0.35
748.625	0.18
748.803	0.32
748.98	0.31
749.158	0.43
749.335	0.43
749.513	0.33
749.69	0.38
749.868	0.42
750.045	0.45
750.223	0.4
750.4	0.09
750.578	0.55
750.755	0.41
750.932	0.27
751.11	0.43
751.287	0.31
751.464	0.55
751.642	0.19
751.819	0.47
751.996	0.39
752.173	0.3
752.351	0.29
752.528	0.38
752.705	0.36
752.882	0.35
753.06	0.34
753.237	0.37
753.414	0.55
753.591	0.62
753.768	0.47
753.945	0.28
754.122	0.23
754.299	0.43
754.476	0.37
754.654	0.31
754.831	0.47
755.008	0.35
755.185	0.29
755.362	0.35
755.539	0.28
755.716	0.22
755.892	0.28
756.069	0.35
756.246	0.42
756.423	0.38
756.6	0.48
756.777	0.23
756.954	0.5
757.131	0.33
757.307	0.29
757.484	0.19
757.661	0.41
757.838	0.44
758.015	0.21
758.191	0.48
758.368	0.49
758.545	0.59
758.721	0.41
758.898	0.24
759.075	0.41
759.251	0.39
759.428	0.32
759.605	0.21
759.781	0.28
759.958	0.39
760.134	0.31
760.311	0.24
760.488	0.46
760.664	0.53
760.841	0.38
761.017	0.21
761.194	0.34
761.37	0.43
761.547	0.33
761.723	0.33
761.899	0.5
762.076	0.3
762.252	0.19
762.429	0.35
762.605	0.42
762.781	0.31
762.958	0.43
763.134	0.31
763.31	0.26
763.486	0.54
763.663	0.1
763.839	0.43
764.015	0.05
764.191	0.26
764.368	0.35
764.544	0.24
764.72	0.38
764.896	0.28
765.072	0.31
765.248	0.27
765.425	0.2
765.601	0.36
765.777	0.31
765.953	0.15
766.129	0.19
766.305	0.21
766.481	0.38
766.657	0.36
766.833	0.51
767.009	0.23
767.185	0.32
767.361	0.28
767.537	0.19
767.713	0.54
767.889	0.4
768.065	0.26
768.24	0.34
768.416	0.54
768.592	0.21
768.768	0.31
768.944	0.42
769.12	0.05
769.295	0.28
769.471	0.18
769.647	0.36
769.823	0.61
769.998	0.21
770.174	0.17
770.35	0.66
770.525	0.64
770.701	0.36
770.877	0.24
771.052	0.3
771.228	0.33
771.403	0.44
771.579	0.41
771.755	0.6
771.93	0.25
772.106	0.09
772.281	0.02
772.457	0.38
772.632	0.39
772.808	0.24
772.983	0.31
773.159	0.16
773.334	0.41
773.509	0.5
773.685	0.17
773.86	0.73
774.036	0.58
774.211	0.38
774.386	0.2
774.562	0.43
774.737	0.26
774.912	0.26
775.087	0.54
775.263	0.34
775.438	0.42
775.613	0.26
775.788	0.31
775.964	0.6
776.139	0.84
776.314	0.12
776.489	0.37
776.664	0.42
776.839	0.32
777.014	0.61
777.19	0.57
777.365	0.71
777.54	0.63
777.715	0.26
777.89	0.22
778.065	0.3
778.24	0.31
778.415	0.4
778.59	0.11
778.765	0.31
778.94	0.42
779.115	0.23
779.289	0.22
779.464	0.47
779.639	0.29
779.814	0.16
779.989	0.11
780.164	0.52
780.339	0.4
780.513	0.4
780.688	0.18
780.863	0.36
781.038	0.54
781.212	0.17
781.387	0.31
781.562	0.6
781.737	0.23
781.911	0.68
782.086	0.36
782.261	0.35
782.435	0.69
782.61	0.2
782.784	0.37
782.959	0.4
783.134	0.12
783.308	0.15
783.483	0.27
783.657	0.68
783.832	0.42
784.006	0.07
784.181	0.39
784.355	0.67
784.53	0.04
784.704	0.17
784.878	0.66
785.053	0.55
785.227	0.67
785.402	0.74
785.576	0.2
785.75	0.47
785.925	0.29
786.099	0.28
786.273	0.5
786.448	0.61
786.622	0.46
786.796	0.39
786.97	0.45
787.145	1.08
787.319	0.06
787.493	0.29
787.667	-0.02
787.841	0.47
788.015	0.72
788.19	0.24
788.364	0.32
788.538	0.66
788.712	0.68
788.886	0.3
789.06	0.5
789.234	0.59
789.408	0.04
789.582	0.43
789.756	0.39
789.93	0.08
790.104	0.46
790.278	0.22
790.452	0.15
790.626	0.49
790.8	0.36
790.973	0.6
791.147	0.79
791.321	0.88
791.495	0.74
791.669	0.47
791.843	0.57
792.016	0.42
792.19	0.85
792.364	0.1
792.538	0.86
792.711	0.74
792.885	0.31
793.059	0.31
793.233	-0.15
793.406	0.7
793.58	0.24
793.754	0.38
793.927	0.3
794.101	0.59
794.274	0.36
794.448	0.48
794.622	-0.02
794.795	0.75
794.969	0.45
795.142	0.7
795.316	0.19
795.489	0.3
795.663	0.83
795.836	0.15
796.009	0.23
796.183	0.77
796.356	0.49
796.53	0.36
796.703	0.34
796.876	1.16
797.05	0.24
797.223	0.14
797.396	0.42
797.57	0.29
797.743	0.83
797.916	0.19
798.09	0.27
798.263	0.8
798.436	0.61
798.609	0.47
798.782	0.32
798.956	0.53
799.129	0.48
799.302	0.25
799.475	0.34
799.648	0.37
799.821	0.37
799.994	0.39
800.167	0.06
800.34	0.33
800.514	0.6
800.687	0.41
800.86	0.2
801.033	0.57
801.206	0.84
801.379	0.04
801.551	0.73
801.724	0.55
801.897	0.85
802.07	0.45
802.243	0.1
802.416	0.31
802.589	0.29
802.762	0.43
802.935	0.47
803.107	0.65
803.28	0.87
803.453	0.61
803.626	0.22
803.798	0.24
803.971	0.26
804.144	0.74
804.317	0.7
804.489	0.81
804.662	0.29
804.835	0.3
805.007	0.18
805.18	1.04
805.353	0.76
805.525	0.2
805.698	0.27
805.87	0.66
806.043	0.8
806.215	-0.15
806.388	-0.11
806.56	0.35
806.733	0.72
806.905	0.26
807.078	0.25
807.25	0.57
807.423	0.8
807.595	0.42
807.768	0.36
807.94	0.74
808.112	0.86
808.285	0.66
808.457	0.39
808.629	0.36
808.802	0.9
808.974	0.77
809.146	0.19
809.318	0.15
809.491	0.38
809.663	0.88
809.835	0.34
810.007	0.8
810.18	0.69
810.352	0.41
810.524	0.1
810.696	0.87
810.868	0.96
811.04	0.33
811.212	0.49
811.384	0.85
811.556	0.37
811.728	0.48
811.901	1.55
812.073	0.65
812.245	0.96
812.417	0.55
812.589	-0.23
812.76	0.73
812.932	0.78
813.104	0.82
813.276	0.64
813.448	0.95
813.62	0.55
813.792	0.85
813.964	0.33
814.136	0.92
814.307	0.37
814.479	0.11
814.651	-0.02
814.823	1.91
814.995	0.35
815.166	0.53
815.338	0.23
815.51	-0.26
815.681	1.9
815.853	0.66
816.025	0.15
816.196	1.49
816.368	1.25
816.54	0.3
816.711	-0.39
816.883	1.22
817.054	1.95
817.226	-0.12
817.398	0.75
817.569	0.66
817.741	0.56
817.912	0.97
818.084	0.25
818.255	1.1
818.426	0.49
818.598	0.52
818.769	0.42
818.941	0.91
819.112	0.89
819.283	0.81
819.455	0.14
819.626	0.85
819.798	1.18
819.969	0.44
820.14	0.52
820.311	0.28
820.483	0.83
820.654	1.12
820.825	0.27
820.996	0.67
821.168	0.06
821.339	0.67
821.51	0.24
821.681	0.29
821.852	0.73
822.023	0.14
822.195	-0.02
822.366	0.81
822.537	0.74
822.708	0.64
822.879	0.42
823.05	1.22
823.221	0.8
823.392	0.89
823.563	0.65
823.734	0.77
823.905	0.84
824.076	0.01
824.247	0.18
824.418	0.6
824.589	1.75
824.759	0.5
824.93	1.07
825.101	0.45
825.272	1.14
825.443	1.29
825.614	1.2
825.784	-0.06
825.955	1.59
826.126	1.32
826.297	1.51
826.467	1.7
826.638	2.41
826.809	0.24
826.98	0.93
827.15	0.57
827.321	1.1
827.492	1.37
827.662	0.8
827.833	2.16
828.003	1.16
828.174	0.28
828.345	-0.23
828.515	1.3
828.686	0.62
828.856	0.55
829.027	0.85
829.197	0.99
829.368	0.93
829.538	0.3
829.709	0.48
829.879	1.22
830.049	0.72
830.22	0.2
830.39	0.6
830.56	1.46
830.731	0.29
830.901	0.27
831.072	1.1
831.242	1.27
831.412	1.74
831.582	0.88
831.753	-0.11
831.923	1.37
832.093	0.81
832.263	0.41
832.434	-0.31
832.604	-0.19
832.774	1.46
832.944	0.63
833.114	0.65
833.284	1.37
833.454	0.16
833.624	0.59
833.795	0.69
833.965	1.67
834.135	1.38
834.305	-0.11
834.475	0.03
834.645	0.38
834.815	0.16
834.985	0.02
835.155	0.09
835.325	1.23
835.494	1.3
835.664	0.59
835.834	-0.39
836.004	0.96
836.174	0.96
836.344	0.34
836.514	0.73
836.684	0.67
836.853	0.96
837.023	1.48
837.193	0.09
837.363	1.72
837.532	1.16
837.702	0.75
837.872	0.27
838.041	1.53
838.211	1.91
838.381	-0.22
838.55	0.98
838.72	2.74
838.89	2.61
839.059	0.61
839.229	-0.08
839.398	2.53
839.568	0.46
839.738	0.24
839.907	1.59
840.077	1.71
840.246	0.37
840.416	0.53
840.585	-0.1
840.755	1.74
840.924	2.18
841.093	0.72
841.263	0.77
841.432	1.11
841.602	0.89
841.771	0.21
841.94	0.88
842.11	3.11
842.279	2.63
842.448	0.19
842.617	0.14
842.787	1.58
842.956	0.06
843.125	0.96
843.294	1.27
843.464	2.47
843.633	1.34
843.802	0.06
843.971	0.89
844.14	1.54
844.309	1.73
844.479	-0.79
844.648	-0.01
844.817	0.79
844.986	1.38
845.155	0.36
845.324	0.67
845.493	0.82
845.662	0.99
845.831	1.28
846	0.85
846.169	0.64
846.338	2.4
846.507	0.94
846.676	1.01
846.844	0.6
847.013	1.66
847.182	0.96
847.351	0.24
847.52	0.96
847.689	1.98
847.858	0.77
848.026	0.46
848.195	1.26
848.364	-0.07
848.533	0.43
848.701	0.12
848.87	1.84
849.039	2.32
849.207	1.25
849.376	2.57
849.545	2.82
849.713	-0.08
849.882	0.58
850.051	0.55
850.219	1.43
850.388	2.41
850.556	0.05
850.725	0.28
850.893	1.82
851.062	1.4
851.23	2.1
851.399	0.2
851.567	0.36
851.736	1.77
851.904	0.48
852.073	1.01
852.241	1.95
852.41	1.37
852.578	1.51
852.746	0.09
852.915	1.95
853.083	1.24
853.251	0
853.42	0.28
853.588	0.82
853.756	2.21
853.924	1.24
854.093	0.91
854.261	1.24
854.429	0.42
854.597	2.12
854.765	-0.33
854.934	2.32
855.102	2.07
855.27	0.95
855.438	1.59
855.606	2.88
855.774	2.5
855.942	-0.16
856.11	0.08
856.278	1.68
856.446	1.61
856.614	0.59
856.782	0.25
856.95	2.69
857.118	0.92
857.286	1.96
857.454	0.84
857.622	1.94
857.79	2.13
857.958	0.82
858.126	0.64
858.294	-0.11
858.462	1.23
858.629	1.39
858.797	0.7
858.965	1.73
859.133	1.37
859.301	0.25
859.468	0.23
859.636	0.49
859.804	3.35
859.971	1.67
860.139	0.85
860.307	2.78
860.474	2.04
860.642	0.92
860.81	1.56
860.977	1.64
861.145	2.55
861.313	0.6
861.48	0.55
861.648	2.96
861.815	0.38
861.983	-0.4
862.15	1.14
862.318	1.85
862.485	2.24
862.653	0.54
862.82	0.8
862.988	3.2
863.155	1.01
863.322	0.72
863.49	-1.3
863.657	1.13
863.824	3.18
863.992	1.71
864.159	1.58
864.326	1.84
864.494	1.09
864.661	3.62
864.828	0.48
864.996	3.81
865.163	3.81
865.33	0.59
865.497	-1.57
865.664	1.15
865.832	-2.12
865.999	1.99
866.166	0.8
866.333	0.18
866.5	0.81
866.667	1.01
866.834	1.26
867.001	3
867.168	-0.43
867.335	1.04
867.502	-0.17
867.669	0.15
867.836	4.94
868.003	0.71
868.17	2.76
868.337	4.28
868.504	4.92
868.671	-0.89
868.838	1.32
869.005	2.34
869.172	2.99
869.339	1.63
869.505	1.33
869.672	2.03
869.839	2.8
870.006	1.47
870.173	-0.31
870.339	2.16
870.506	5.28
870.673	-0.42
870.84	1.42
871.006	2.7
871.173	1.36
871.34	2.96
871.506	-0.65
871.673	3.42
871.839	-0.01
872.006	1.89
872.173	-0.21
872.339	1.09
872.506	3.05
872.672	0.97
872.839	0.19
873.005	2.04
873.172	4.56
873.338	2.51
873.505	2.12
873.671	3.22
873.838	3.83
874.004	-1.24
874.171	0.47
874.337	2.66
874.503	2.6
874.67	-0.03
874.836	-0.62
875.002	4.38
875.169	3.64
875.335	2.81
875.501	2.04
875.668	4.37
875.834	2.01
876	1.66
876.166	2.7
876.332	3.43
876.499	4.64
876.665	0.58
876.831	2.18
876.997	5.73
877.163	3.86
877.329	-0.32
877.495	1.21
877.662	3.58
877.828	3.37
877.994	2.38
878.16	-1.58
878.326	1.5
878.492	3.17
878.658	-0.18
878.824	2.29
878.99	3
879.156	1.89
879.322	4.09
879.487	1.31
879.653	2.75
879.819	1.81
879.985	0.97
880.151	1.91
880.317	2.04
880.483	3.59
880.648	1.46
880.814	-0.37
880.98	1.86
881.146	0.36
881.312	0.1
881.477	1.47
881.643	0.55
881.809	3.83
881.974	2.77
882.14	-1.87
882.306	1.1
882.471	3.81
882.637	1.24
882.803	3.13
882.968	6.1
883.134	5.6
883.299	2.59
883.465	2.66
883.63	3.96
883.796	2.71
883.961	2.23
884.127	2.46
884.292	-0.77
884.458	-0.24
884.623	-0.24
