Data from Apollo_Calib_20240827__AbsoluteIrradiance__813__12-42-02-910.txt Node

Date: Wed Aug 28 12:42:02 BST 2024
User: biology
Spectrometer: FLMT08252
Trigger mode: 0
Integration Time (sec): 5.000000E-1
Scans to average: 5
Electric dark correction enabled: true
Nonlinearity correction enabled: false
Boxcar width: 0
XAxis mode: Wavelengths
Number of Pixels in Spectrum: 3648
>>>>>Begin Spectral Data<<<<<
179.588	-0
179.809	-0
180.03	-0
180.251	-0
180.473	-0
180.694	0
180.915	0
181.136	-0
181.357	0
181.578	-0
181.799	0
182.02	-0
182.241	-0
182.462	-0
182.683	0
182.904	-0
183.125	-0
183.346	0
183.567	0
183.788	0
184.009	0
184.23	0
184.451	0
184.672	0
184.892	0
185.113	0
185.334	0
185.555	0
185.776	0
185.996	0
186.217	0
186.438	0
186.659	0
186.879	0
187.1	0
187.321	0
187.541	0
187.762	0
187.983	0
188.203	0
188.424	0
188.644	0
188.865	0
189.086	0
189.306	0
189.527	0
189.747	0
189.968	0
190.188	0
190.409	0
190.629	0
190.849	0
191.07	0
191.29	0
191.511	0
191.731	0
191.951	0
192.172	0
192.392	0
192.612	0
192.833	0
193.053	0
193.273	0
193.493	0
193.714	0
193.934	0
194.154	0
194.374	0
194.594	0
194.815	0
195.035	0
195.255	0
195.475	0
195.695	0
195.915	0
196.135	0
196.355	0
196.575	0
196.795	0
197.015	0
197.235	0
197.455	0
197.675	0
197.895	0
198.115	0
198.335	0
198.555	0
198.775	0
198.995	0
199.214	0
199.434	0
199.654	0
199.874	0
200.094	3.63
200.313	2.09
200.533	1.89
200.753	1.45
200.973	4.03
201.192	3.27
201.412	1.73
201.632	1.54
201.851	3.49
202.071	1.83
202.291	2.03
202.51	1.48
202.73	3.04
202.95	2.19
203.169	1.49
203.389	1.65
203.608	2.46
203.828	1.55
204.047	1.28
204.267	2.16
204.486	2.66
204.706	2.11
204.925	2.07
205.145	1.36
205.364	2.17
205.583	2.46
205.803	1.12
206.022	1.34
206.242	1.92
206.461	1.63
206.68	1.2
206.9	1.53
207.119	2.78
207.338	2.37
207.557	1.6
207.777	1.07
207.996	1.72
208.215	1.93
208.434	1.1
208.654	0.88
208.873	1.4
209.092	2.07
209.311	0.91
209.53	0.99
209.749	1.37
209.968	0.87
210.187	1.01
210.407	0.69
210.626	1.31
210.845	1.72
211.064	1.01
211.283	0.74
211.502	1.53
211.721	1.15
211.94	1.03
212.159	1.48
212.377	1.28
212.596	1.5
212.815	1.12
213.034	1.14
213.253	1.35
213.472	1.42
213.691	1.18
213.91	0.8
214.128	0.83
214.347	1.37
214.566	0.61
214.785	0.42
215.003	1.41
215.222	1.14
215.441	0.94
215.66	0.44
215.878	1.18
216.097	1.2
216.316	0.67
216.534	0.95
216.753	1.19
216.972	0.95
217.19	0.8
217.409	0.64
217.627	0.69
217.846	0.85
218.064	1.07
218.283	0.6
218.501	1.37
218.72	1.17
218.938	0.63
219.157	0.72
219.375	1.41
219.594	1.03
219.812	0.54
220.031	0.59
220.249	1.23
220.467	1.2
220.686	0.64
220.904	0.43
221.122	0.62
221.341	1.2
221.559	0.84
221.777	0.56
221.995	0.95
222.214	1.06
222.432	0.48
222.65	1.03
222.868	0.78
223.086	0.84
223.305	0.82
223.523	0.59
223.741	1.11
223.959	0.86
224.177	0.34
224.395	0.65
224.613	0.78
224.831	1.12
225.049	0.49
225.267	0.55
225.485	0.83
225.703	0.57
225.921	0.71
226.139	0.62
226.357	0.9
226.575	0.74
226.793	0.65
227.011	1.5
227.229	0.82
227.447	1
227.665	0.53
227.883	0.24
228.1	0.69
228.318	0.76
228.536	0.29
228.754	0.53
228.972	0.84
229.189	0.92
229.407	0.55
229.625	0.5
229.843	0.86
230.06	0.9
230.278	0.42
230.496	0.62
230.713	0.67
230.931	0.71
231.149	0.43
231.366	0.3
231.584	0.62
231.801	1.09
232.019	0.47
232.236	0.48
232.454	0.47
232.671	0.79
232.889	0.52
233.106	0.4
233.324	0.59
233.541	0.53
233.759	0.53
233.976	0.43
234.194	0.52
234.411	0.61
234.628	0.4
234.846	0.38
235.063	0.56
235.28	0.59
235.498	0.56
235.715	0.34
235.932	0.75
236.149	0.51
236.367	0.39
236.584	0.57
236.801	0.49
237.018	0.64
237.236	0.42
237.453	0.26
237.67	0.7
237.887	0.52
238.104	0.57
238.321	0.42
238.538	0.44
238.755	0.72
238.973	0.33
239.19	0.44
239.407	0.57
239.624	0.56
239.841	0.41
240.058	0.4
240.275	0.59
240.492	0.53
240.709	0.44
240.925	0.47
241.142	0.56
241.359	0.3
241.576	0.37
241.793	0.32
242.01	0.39
242.227	0.68
242.444	0.51
242.66	0.59
242.877	0.49
243.094	0.41
243.311	0.47
243.527	0.52
243.744	0.61
243.961	0.5
244.178	0.31
244.394	0.35
244.611	0.62
244.828	0.76
245.044	0.34
245.261	0.39
245.477	0.48
245.694	0.48
245.911	0.38
246.127	0.48
246.344	0.68
246.56	0.63
246.777	0.34
246.993	0.46
247.21	0.52
247.426	0.59
247.643	0.32
247.859	0.25
248.076	0.35
248.292	0.7
248.508	0.4
248.725	0.51
248.941	0.49
249.157	0.58
249.374	0.42
249.59	0.38
249.806	0.44
250.023	0.53
250.239	0.3
250.455	0.31
250.671	0.47
250.888	0.48
251.104	0.41
251.32	0.39
251.536	0.41
251.752	0.37
251.969	0.33
252.185	0.43
252.401	0.66
252.617	0.49
252.833	0.37
253.049	0.38
253.265	0.44
253.481	0.46
253.697	0.32
253.913	0.27
254.129	0.46
254.345	0.42
254.561	0.38
254.777	0.32
254.993	0.47
255.209	0.48
255.425	0.34
255.641	0.32
255.857	0.54
256.073	0.47
256.288	0.27
256.504	0.33
256.72	0.41
256.936	0.58
257.152	0.42
257.367	0.27
257.583	0.45
257.799	0.52
258.015	0.3
258.23	0.32
258.446	0.59
258.662	0.43
258.877	0.29
259.093	0.32
259.309	0.42
259.524	0.46
259.74	0.4
259.955	0.25
260.171	0.39
260.387	0.39
260.602	0.42
260.818	0.41
261.033	0.32
261.249	0.49
261.464	0.33
261.68	0.33
261.895	0.47
262.11	0.39
262.326	0.33
262.541	0.27
262.757	0.48
262.972	0.43
263.187	0.38
263.403	0.39
263.618	0.46
263.833	0.41
264.049	0.26
264.264	0.33
264.479	0.33
264.694	0.56
264.91	0.19
265.125	0.26
265.34	0.43
265.555	0.57
265.77	0.33
265.986	0.31
266.201	0.36
266.416	0.42
266.631	0.3
266.846	0.27
267.061	0.4
267.276	0.45
267.491	0.11
267.706	0.38
267.921	0.45
268.136	0.38
268.351	0.4
268.566	0.31
268.781	0.5
268.996	0.44
269.211	0.27
269.426	0.25
269.641	0.27
269.856	0.48
270.071	0.34
270.285	0.2
270.5	0.39
270.715	0.49
270.93	0.29
271.145	0.36
271.359	0.47
271.574	0.3
271.789	0.31
272.004	0.3
272.218	0.3
272.433	0.37
272.648	0.29
272.862	0.36
273.077	0.37
273.292	0.37
273.506	0.33
273.721	0.31
273.936	0.37
274.15	0.49
274.365	0.32
274.579	0.38
274.794	0.38
275.008	0.4
275.223	0.26
275.437	0.3
275.652	0.43
275.866	0.4
276.081	0.32
276.295	0.37
276.509	0.39
276.724	0.38
276.938	0.36
277.153	0.32
277.367	0.4
277.581	0.29
277.796	0.31
278.01	0.23
278.224	0.4
278.438	0.46
278.653	0.24
278.867	0.26
279.081	0.15
279.295	0.31
279.51	0.3
279.724	0.18
279.938	0.42
280.152	0.33
280.366	0.29
280.58	0.26
280.794	0.41
281.008	0.35
281.222	0.3
281.437	0.54
281.651	0.37
281.865	0.41
282.079	0.27
282.293	0.18
282.507	0.23
282.721	0.27
282.935	0.3
283.148	0.24
283.362	0.27
283.576	0.23
283.79	0.3
284.004	0.28
284.218	0.41
284.432	0.26
284.646	0.31
284.859	0.28
285.073	0.25
285.287	0.32
285.501	0.28
285.714	0.29
285.928	0.3
286.142	0.31
286.356	0.32
286.569	0.24
286.783	0.42
286.997	0.37
287.21	0.32
287.424	0.25
287.637	0.31
287.851	0.32
288.065	0.37
288.278	0.27
288.492	0.34
288.705	0.31
288.919	0.32
289.132	0.22
289.346	0.32
289.559	0.22
289.773	0.23
289.986	0.26
290.2	0.32
290.413	0.38
290.626	0.26
290.84	0.26
291.053	0.28
291.267	0.36
291.48	0.3
291.693	0.31
291.906	0.22
292.12	0.31
292.333	0.27
292.546	0.22
292.76	0.37
292.973	0.32
293.186	0.32
293.399	0.24
293.612	0.37
293.826	0.25
294.039	0.26
294.252	0.23
294.465	0.36
294.678	0.3
294.891	0.26
295.104	0.22
295.317	0.24
295.53	0.3
295.743	0.27
295.956	0.29
296.169	0.36
296.382	0.37
296.595	0.28
296.808	0.21
297.021	0.35
297.234	0.36
297.447	0.27
297.66	0.31
297.873	0.38
298.086	0.35
298.299	0.24
298.511	0.15
298.724	0.28
298.937	0.17
299.15	0.25
299.363	0.23
299.575	0.35
299.788	0.29
300.001	0.25
300.213	0.21
300.426	0.24
300.639	0.24
300.852	0.26
301.064	0.27
301.277	0.39
301.489	0.31
301.702	0.29
301.915	0.31
302.127	0.25
302.34	0.27
302.552	0.31
302.765	0.21
302.977	0.32
303.19	0.29
303.402	0.26
303.615	0.25
303.827	0.26
304.04	0.31
304.252	0.3
304.464	0.26
304.677	0.42
304.889	0.29
305.102	0.22
305.314	0.22
305.526	0.3
305.739	0.28
305.951	0.18
306.163	0.21
306.375	0.34
306.588	0.24
306.8	0.22
307.012	0.22
307.224	0.31
307.436	0.37
307.649	0.18
307.861	0.23
308.073	0.3
308.285	0.26
308.497	0.2
308.709	0.19
308.921	0.27
309.133	0.33
309.346	0.27
309.558	0.25
309.77	0.3
309.982	0.33
310.194	0.28
310.406	0.21
310.617	0.4
310.829	0.29
311.041	0.26
311.253	0.19
311.465	0.27
311.677	0.28
311.889	0.25
312.101	0.17
312.313	0.33
312.524	0.38
312.736	0.19
312.948	0.22
313.16	0.33
313.372	0.34
313.583	0.25
313.795	0.18
314.007	0.26
314.218	0.34
314.43	0.25
314.642	0.25
314.853	0.19
315.065	0.32
315.277	0.28
315.488	0.26
315.7	0.33
315.912	0.24
316.123	0.28
316.335	0.26
316.546	0.41
316.758	0.27
316.969	0.2
317.181	0.25
317.392	0.28
317.604	0.35
317.815	0.23
318.026	0.2
318.238	0.27
318.449	0.29
318.661	0.2
318.872	0.26
319.083	0.2
319.295	0.3
319.506	0.26
319.717	0.25
319.929	0.3
320.14	0.26
320.351	0.26
320.562	0.22
320.774	0.34
320.985	0.26
321.196	0.23
321.407	0.2
321.618	0.31
321.829	0.3
322.041	0.28
322.252	0.23
322.463	0.28
322.674	0.29
322.885	0.2
323.096	0.29
323.307	0.29
323.518	0.31
323.729	0.21
323.94	0.18
324.151	0.24
324.362	0.3
324.573	0.24
324.784	0.25
324.995	0.29
325.206	0.3
325.417	0.23
325.628	0.22
325.838	0.29
326.049	0.25
326.26	0.3
326.471	0.19
326.682	0.27
326.892	0.27
327.103	0.15
327.314	0.22
327.525	0.32
327.735	0.29
327.946	0.28
328.157	0.21
328.368	0.29
328.578	0.24
328.789	0.3
328.999	0.27
329.21	0.21
329.421	0.32
329.631	0.23
329.842	0.22
330.052	0.25
330.263	0.34
330.473	0.32
330.684	0.23
330.894	0.27
331.105	0.27
331.315	0.27
331.526	0.18
331.736	0.39
331.947	0.31
332.157	0.3
332.367	0.17
332.578	0.31
332.788	0.37
332.999	0.27
333.209	0.27
333.419	0.16
333.629	0.28
333.84	0.3
334.05	0.25
334.26	0.3
334.47	0.31
334.681	0.32
334.891	0.25
335.101	0.32
335.311	0.37
335.521	0.27
335.732	0.19
335.942	0.37
336.152	0.27
336.362	0.27
336.572	0.26
336.782	0.31
336.992	0.24
337.202	0.25
337.412	0.25
337.622	0.26
337.832	0.25
338.042	0.27
338.252	0.25
338.462	0.19
338.672	0.28
338.882	0.25
339.092	0.18
339.302	0.31
339.511	0.31
339.721	0.25
339.931	0.18
340.141	0.3
340.351	0.34
340.561	0.31
340.77	0.26
340.98	0.3
341.19	0.3
341.4	0.21
341.609	0.2
341.819	0.24
342.029	0.24
342.238	0.29
342.448	0.23
342.658	0.28
342.867	0.22
343.077	0.22
343.286	0.23
343.496	0.3
343.706	0.4
343.915	0.23
344.125	0.27
344.334	0.28
344.544	0.2
344.753	0.2
344.963	0.22
345.172	0.22
345.381	0.23
345.591	0.2
345.8	0.25
346.01	0.35
346.219	0.29
346.428	0.26
346.638	0.26
346.847	0.25
347.056	0.31
347.266	0.18
347.475	0.21
347.684	0.34
347.893	0.29
348.103	0.3
348.312	0.21
348.521	0.27
348.73	0.25
348.94	0.27
349.149	0.23
349.358	0.27
349.567	0.23
349.776	0.18
349.985	0.23
350.194	0.3
350.403	0.34
350.612	0.19
350.821	0.2
351.03	0.28
351.239	0.21
351.448	0.23
351.657	0.21
351.866	0.36
352.075	0.26
352.284	0.3
352.493	0.22
352.702	0.31
352.911	0.28
353.12	0.24
353.329	0.23
353.538	0.28
353.746	0.27
353.955	0.19
354.164	0.26
354.373	0.25
354.582	0.29
354.79	0.24
354.999	0.28
355.208	0.27
355.416	0.34
355.625	0.18
355.834	0.2
356.042	0.25
356.251	0.2
356.46	0.2
356.668	0.25
356.877	0.34
357.085	0.28
357.294	0.14
357.503	0.28
357.711	0.26
357.92	0.41
358.128	0.24
358.337	0.23
358.545	0.28
358.754	0.26
358.962	0.31
359.17	0.25
359.379	0.26
359.587	0.29
359.796	0.26
360.004	0.3
360.212	0.31
360.421	0.33
360.629	0.24
360.837	0.25
361.046	0.33
361.254	0.36
361.462	0.25
361.67	0.26
361.879	0.27
362.087	0.29
362.295	0.25
362.503	0.21
362.711	0.21
362.92	0.23
363.128	0.23
363.336	0.21
363.544	0.19
363.752	0.24
363.96	0.21
364.168	0.21
364.376	0.26
364.584	0.26
364.792	0.32
365	0.26
365.208	0.23
365.416	0.31
365.624	0.29
365.832	0.23
366.04	0.32
366.248	0.3
366.456	0.25
366.664	0.29
366.872	0.29
367.079	0.27
367.287	0.22
367.495	0.25
367.703	0.27
367.911	0.26
368.118	0.23
368.326	0.25
368.534	0.25
368.742	0.32
368.949	0.21
369.157	0.24
369.365	0.31
369.572	0.21
369.78	0.23
369.988	0.28
370.195	0.25
370.403	0.32
370.61	0.21
370.818	0.27
371.026	0.39
371.233	0.2
371.441	0.27
371.648	0.23
371.856	0.28
372.063	0.29
372.271	0.26
372.478	0.21
372.685	0.25
372.893	0.3
373.1	0.25
373.308	0.26
373.515	0.36
373.722	0.31
373.93	0.26
374.137	0.3
374.344	0.36
374.552	0.31
374.759	0.26
374.966	0.3
375.173	0.23
375.381	0.33
375.588	0.24
375.795	0.19
376.002	0.23
376.209	0.25
376.417	0.22
376.624	0.26
376.831	0.29
377.038	0.27
377.245	0.18
377.452	0.27
377.659	0.29
377.866	0.28
378.073	0.23
378.28	0.24
378.487	0.32
378.694	0.32
378.901	0.29
379.108	0.25
379.315	0.3
379.522	0.37
379.729	0.29
379.936	0.25
380.143	0.29
380.35	0.31
380.557	0.25
380.763	0.22
380.97	0.28
381.177	0.29
381.384	0.28
381.591	0.23
381.797	0.28
382.004	0.34
382.211	0.32
382.418	0.19
382.624	0.33
382.831	0.32
383.038	0.33
383.244	0.34
383.451	0.29
383.658	0.29
383.864	0.26
384.071	0.23
384.277	0.35
384.484	0.25
384.69	0.36
384.897	0.25
385.103	0.29
385.31	0.23
385.516	0.24
385.723	0.21
385.929	0.28
386.136	0.26
386.342	0.34
386.549	0.26
386.755	0.35
386.961	0.3
387.168	0.27
387.374	0.27
387.58	0.34
387.787	0.29
387.993	0.29
388.199	0.26
388.406	0.22
388.612	0.3
388.818	0.3
389.024	0.24
389.231	0.3
389.437	0.39
389.643	0.33
389.849	0.28
390.055	0.33
390.261	0.31
390.467	0.34
390.674	0.23
390.88	0.31
391.086	0.35
391.292	0.26
391.498	0.37
391.704	0.36
391.91	0.28
392.116	0.25
392.322	0.23
392.528	0.34
392.734	0.29
392.94	0.32
393.146	0.27
393.352	0.34
393.557	0.24
393.763	0.27
393.969	0.35
394.175	0.27
394.381	0.28
394.587	0.25
394.792	0.32
394.998	0.39
395.204	0.36
395.41	0.28
395.615	0.37
395.821	0.36
396.027	0.38
396.233	0.29
396.438	0.34
396.644	0.42
396.85	0.32
397.055	0.34
397.261	0.37
397.466	0.33
397.672	0.38
397.878	0.37
398.083	0.35
398.289	0.27
398.494	0.39
398.7	0.4
398.905	0.24
399.111	0.5
399.316	0.28
399.522	0.36
399.727	0.31
399.932	0.3
400.138	0.34
400.343	0.41
400.549	0.34
400.754	0.39
400.959	0.35
401.165	0.37
401.37	0.4
401.575	0.48
401.78	0.39
401.986	0.41
402.191	0.36
402.396	0.38
402.601	0.43
402.807	0.44
403.012	0.32
403.217	0.43
403.422	0.45
403.627	0.41
403.832	0.32
404.037	0.47
404.243	0.47
404.448	0.37
404.653	0.44
404.858	0.5
405.063	0.47
405.268	0.43
405.473	0.39
405.678	0.45
405.883	0.65
406.088	0.49
406.293	0.41
406.498	0.45
406.703	0.51
406.907	0.47
407.112	0.44
407.317	0.55
407.522	0.61
407.727	0.48
407.932	0.54
408.136	0.65
408.341	0.55
408.546	0.56
408.751	0.56
408.956	0.6
409.16	0.71
409.365	0.6
409.57	0.61
409.774	0.64
409.979	0.65
410.184	0.68
410.388	0.6
410.593	0.78
410.798	0.76
411.002	0.7
411.207	0.77
411.411	0.82
411.616	0.71
411.82	0.86
412.025	0.87
412.229	0.85
412.434	0.98
412.638	0.96
412.843	0.94
413.047	1
413.252	0.98
413.456	1.06
413.66	1.02
413.865	1
414.069	1.19
414.273	1.09
414.478	1.12
414.682	1.19
414.886	1.26
415.091	1.2
415.295	1.22
415.499	1.48
415.703	1.45
415.908	1.43
416.112	1.27
416.316	1.64
416.52	1.59
416.724	1.55
416.929	1.61
417.133	1.89
417.337	1.8
417.541	1.8
417.745	1.8
417.949	2
418.153	2.1
418.357	2.06
418.561	2.28
418.765	2.25
418.969	2.4
419.173	2.45
419.377	2.43
419.581	2.69
419.785	2.64
419.989	2.61
420.193	2.78
420.397	2.96
420.601	3.08
420.804	3.11
421.008	3.18
421.212	3.31
421.416	3.35
421.62	3.24
421.823	3.42
422.027	3.57
422.231	3.53
422.435	3.53
422.638	3.6
422.842	3.73
423.046	3.79
423.249	4.02
423.453	3.99
423.657	4.15
423.86	4.27
424.064	4.41
424.268	4.5
424.471	4.5
424.675	4.73
424.878	4.88
425.082	4.96
425.285	5.31
425.489	5.15
425.692	5.24
425.896	5.31
426.099	5.57
426.303	5.62
426.506	5.8
426.71	6.08
426.913	6.3
427.116	6.4
427.32	6.36
427.523	6.37
427.726	6.86
427.93	6.91
428.133	7.14
428.336	7.36
428.54	7.46
428.743	7.76
428.946	7.97
429.149	7.92
429.353	7.93
429.556	8.08
429.759	8.12
429.962	8.24
430.165	8.37
430.368	8.06
430.571	8.08
430.775	8.11
430.978	8.17
431.181	8.24
431.384	8.23
431.587	8.43
431.79	8.83
431.993	8.69
432.196	8.95
432.399	9.34
432.602	9.45
432.805	9.67
433.008	10.15
433.211	9.94
433.414	10.38
433.616	10.34
433.819	10.3
434.022	10.5
434.225	10.66
434.428	10.66
434.631	11
434.833	10.84
435.036	11.24
435.239	11.34
435.442	11.46
435.645	11.5
435.847	11.59
436.05	11.96
436.253	12.22
436.455	12.2
436.658	11.97
436.861	12.36
437.063	12.5
437.266	12.46
437.468	12.79
437.671	13.18
437.874	13.29
438.076	13.01
438.279	13.58
438.481	13.51
438.684	14.26
438.886	13.86
439.089	14.02
439.291	14.19
439.494	14.52
439.696	14.79
439.899	15.23
440.101	15.66
440.303	15.9
440.506	16.66
440.708	16.27
440.91	16.46
441.113	16.5
441.315	17.07
441.517	16.82
441.72	17.24
441.922	16.78
442.124	16.83
442.326	17.24
442.529	17.47
442.731	17.27
442.933	17.75
443.135	17.37
443.337	17.46
443.539	18.01
443.742	17.75
443.944	18.33
444.146	18.03
444.348	18.12
444.55	17.98
444.752	18.06
444.954	18.18
445.156	18.09
445.358	18.3
445.56	18.66
445.762	18.43
445.964	18.85
446.166	18.65
446.368	18.45
446.57	18.56
446.772	18.17
446.974	17.94
447.175	18.35
447.377	17.95
447.579	18.23
447.781	18.02
447.983	17.71
448.184	17.37
448.386	17.76
448.588	17.19
448.79	17.16
448.991	17.52
449.193	17.49
449.395	16.71
449.597	16.32
449.798	16.26
450	15.83
450.202	15.9
450.403	15.66
450.605	15.72
450.806	15.42
451.008	15.16
451.21	14.94
451.411	14.62
451.613	13.72
451.814	14.02
452.016	13.91
452.217	13.16
452.419	13.21
452.62	12.91
452.821	12.67
453.023	12.44
453.224	12.09
453.426	11.71
453.627	11
453.828	11.17
454.03	11.12
454.231	11.16
454.432	10.98
454.634	10.69
454.835	10.37
455.036	10.27
455.238	9.91
455.439	9.71
455.64	9.33
455.841	9.24
456.042	9.5
456.244	9.11
456.445	8.81
456.646	8.48
456.847	8.47
457.048	8.36
457.249	8.47
457.45	8.24
457.651	7.56
457.852	7.56
458.054	7.17
458.255	7.15
458.456	7.26
458.657	7.11
458.858	6.62
459.058	6.52
459.259	6.68
459.46	6.41
459.661	6.37
459.862	6.34
460.063	6.3
460.264	6.28
460.465	5.91
460.666	6.08
460.866	5.71
461.067	5.51
461.268	5.52
461.469	5.47
461.67	5.33
461.87	5.16
462.071	5.23
462.272	5.07
462.473	5.07
462.673	5.17
462.874	5
463.075	5.11
463.275	5.13
463.476	5.14
463.676	5.03
463.877	4.95
464.078	4.94
464.278	5.01
464.479	4.85
464.679	4.69
464.88	4.66
465.08	4.76
465.281	4.49
465.481	4.3
465.682	4.17
465.882	4.19
466.083	4.04
466.283	4.05
466.483	3.87
466.684	3.61
466.884	3.59
467.085	3.66
467.285	3.68
467.485	3.63
467.686	3.52
467.886	3.39
468.086	3.35
468.286	3.25
468.487	3.42
468.687	3.2
468.887	3.17
469.087	3.34
469.287	3.19
469.488	3.06
469.688	3.13
469.888	3.23
470.088	3.1
470.288	3.06
470.488	3.02
470.688	2.81
470.888	2.86
471.088	2.68
471.288	2.82
471.488	2.76
471.688	2.73
471.888	2.55
472.088	2.73
472.288	2.73
472.488	2.6
472.688	2.56
472.888	2.58
473.088	2.54
473.288	2.4
473.488	2.39
473.688	2.59
473.887	2.5
474.087	2.38
474.287	2.43
474.487	2.39
474.687	2.44
474.886	2.37
475.086	2.26
475.286	2.31
475.486	2.22
475.685	2.17
475.885	2.21
476.085	2.26
476.284	2.23
476.484	2.28
476.684	2.27
476.883	2.28
477.083	2.16
477.282	2.12
477.482	2.17
477.681	2.12
477.881	2.05
478.08	2.08
478.28	2.05
478.479	2.07
478.679	2.14
478.878	2.05
479.078	2.05
479.277	2.06
479.477	2.03
479.676	2.01
479.875	1.96
480.075	1.95
480.274	1.99
480.473	2.04
480.673	1.99
480.872	2.04
481.071	2.05
481.271	2.01
481.47	1.97
481.669	1.99
481.868	1.94
482.067	1.98
482.267	1.89
482.466	1.88
482.665	1.9
482.864	1.9
483.063	1.89
483.262	2.02
483.461	2.04
483.661	2.02
483.86	1.99
484.059	2.02
484.258	2
484.457	1.98
484.656	2.01
484.855	2.11
485.054	1.91
485.253	1.98
485.452	1.98
485.651	2.04
485.849	2.01
486.048	1.99
486.247	2
486.446	2.06
486.645	2.04
486.844	2.05
487.043	2.03
487.241	2.05
487.44	2.09
487.639	2.11
487.838	2.1
488.037	2.13
488.235	2.23
488.434	2.16
488.633	2.04
488.831	2.19
489.03	2.21
489.229	2.2
489.427	2.23
489.626	2.25
489.825	2.28
490.023	2.31
490.222	2.26
490.42	2.29
490.619	2.36
490.817	2.36
491.016	2.37
491.214	2.43
491.413	2.41
491.611	2.35
491.81	2.38
492.008	2.44
492.207	2.55
492.405	2.51
492.604	2.42
492.802	2.55
493	2.61
493.199	2.63
493.397	2.6
493.595	2.68
493.794	2.67
493.992	2.79
494.19	2.74
494.388	2.8
494.587	2.75
494.785	2.75
494.983	2.74
495.181	2.87
495.379	2.9
495.578	2.95
495.776	2.95
495.974	2.95
496.172	2.96
496.37	3.12
496.568	3.06
496.766	3.09
496.964	3.21
497.162	3.17
497.36	3.19
497.558	3.22
497.756	3.32
497.954	3.27
498.152	3.36
498.35	3.44
498.548	3.37
498.746	3.37
498.944	3.39
499.142	3.44
499.34	3.53
499.538	3.61
499.736	3.54
499.933	3.66
500.131	3.62
500.329	3.76
500.527	3.76
500.725	3.84
500.922	3.9
501.12	3.9
501.318	3.92
501.516	3.95
501.713	4
501.911	3.98
502.109	3.96
502.306	4.1
502.504	4.01
502.701	4.08
502.899	4.15
503.097	4.33
503.294	4.25
503.492	4.37
503.689	4.38
503.887	4.36
504.084	4.48
504.282	4.44
504.479	4.39
504.677	4.59
504.874	4.53
505.072	4.43
505.269	4.68
505.466	4.71
505.664	4.73
505.861	4.65
506.059	4.73
506.256	4.8
506.453	4.87
506.651	4.94
506.848	4.99
507.045	4.92
507.242	5
507.44	5.04
507.637	5.14
507.834	5.02
508.031	5.23
508.229	5.14
508.426	5.11
508.623	5.26
508.82	5.29
509.017	5.28
509.214	5.27
509.411	5.41
509.608	5.34
509.805	5.5
510.003	5.5
510.2	5.52
510.397	5.69
510.594	5.53
510.791	5.67
510.988	5.67
511.184	5.63
511.381	5.57
511.578	5.71
511.775	5.81
511.972	5.72
512.169	5.82
512.366	5.87
512.563	5.94
512.76	5.96
512.956	6.02
513.153	5.96
513.35	5.93
513.547	5.9
513.744	6.04
513.94	6.04
514.137	6.22
514.334	6.1
514.53	6.18
514.727	6.43
514.924	6.26
515.12	6.23
515.317	6.26
515.514	6.2
515.71	6.15
515.907	6.41
516.103	6.4
516.3	6.35
516.497	6.5
516.693	6.42
516.89	6.5
517.086	6.47
517.283	6.56
517.479	6.37
517.676	6.62
517.872	6.58
518.068	6.65
518.265	6.64
518.461	6.53
518.658	6.74
518.854	6.66
519.05	6.8
519.247	6.85
519.443	6.76
519.639	6.94
519.836	6.8
520.032	6.74
520.228	6.95
520.424	6.91
520.621	6.91
520.817	7
521.013	6.91
521.209	7.14
521.405	7.09
521.601	6.99
521.798	6.99
521.994	7.04
522.19	6.99
522.386	7.06
522.582	7.11
522.778	7.25
522.974	7.13
523.17	7.18
523.366	7.08
523.562	7.21
523.758	7.22
523.954	7.04
524.15	7.2
524.346	7.29
524.542	7.27
524.738	7.19
524.934	7.36
525.129	7.24
525.325	7.23
525.521	7.25
525.717	7.49
525.913	7.29
526.109	7.36
526.304	7.45
526.5	7.48
526.696	7.44
526.892	7.41
527.087	7.65
527.283	7.47
527.479	7.49
527.674	7.3
527.87	7.54
528.066	7.48
528.261	7.54
528.457	7.42
528.653	7.59
528.848	7.66
529.044	7.68
529.239	7.51
529.435	7.52
529.63	7.49
529.826	7.54
530.021	7.55
530.217	7.64
530.412	7.59
530.608	7.62
530.803	7.64
530.999	7.57
531.194	7.6
531.389	7.73
531.585	7.65
531.78	7.83
531.975	7.78
532.171	7.73
532.366	7.71
532.561	7.75
532.757	7.65
532.952	7.86
533.147	7.71
533.342	7.83
533.538	7.66
533.733	7.91
533.928	7.55
534.123	7.75
534.318	7.85
534.513	7.73
534.709	7.9
534.904	7.86
535.099	7.92
535.294	7.93
535.489	7.89
535.684	7.81
535.879	7.88
536.074	7.91
536.269	7.87
536.464	7.92
536.659	7.82
536.854	7.88
537.049	7.91
537.244	7.89
537.439	7.86
537.634	7.96
537.828	7.98
538.023	7.94
538.218	7.88
538.413	7.85
538.608	7.92
538.803	7.91
538.997	7.87
539.192	7.93
539.387	7.86
539.582	7.94
539.776	7.83
539.971	7.98
540.166	8.03
540.36	7.92
540.555	8.03
540.75	8.01
540.944	8.02
541.139	8.07
541.334	7.96
541.528	7.96
541.723	8.08
541.917	8.09
542.112	7.98
542.306	7.88
542.501	7.96
542.695	7.94
542.89	8
543.084	7.98
543.279	8.03
543.473	8.07
543.668	8.1
543.862	7.92
544.056	7.94
544.251	8.1
544.445	8.11
544.64	8.1
544.834	7.84
545.028	7.76
545.222	8.07
545.417	8.2
545.611	8.11
545.805	8.02
546	7.89
546.194	8.1
546.388	8.05
546.582	7.97
546.776	7.99
546.97	8.13
547.165	8.08
547.359	8.05
547.553	8
547.747	8.01
547.941	8.24
548.135	7.97
548.329	8.11
548.523	8.14
548.717	8.02
548.911	8.03
549.105	7.96
549.299	8.1
549.493	8.08
549.687	8.02
549.881	8.09
550.075	8.1
550.269	7.95
550.463	8.04
550.657	8.09
550.85	8.02
551.044	8.03
551.238	8.15
551.432	8.05
551.626	8.12
551.82	8.12
552.013	8.02
552.207	8.18
552.401	8.16
552.594	8.09
552.788	8.02
552.982	8.02
553.176	8.01
553.369	8.28
553.563	8.14
553.756	8.08
553.95	8.18
554.144	8.14
554.337	8.07
554.531	7.98
554.724	8.1
554.918	8.22
555.111	8.05
555.305	8.15
555.498	7.99
555.692	8.23
555.885	8.12
556.079	8.04
556.272	8.14
556.466	8.1
556.659	8.07
556.852	8.21
557.046	7.97
557.239	7.98
557.432	8.05
557.626	8.1
557.819	8.18
558.012	8.14
558.206	8.2
558.399	8.13
558.592	8
558.785	8.08
558.979	8.12
559.172	8.08
559.365	8.07
559.558	8
559.751	8.07
559.944	8.13
560.138	8.09
560.331	8.03
560.524	8.12
560.717	8.11
560.91	8.08
561.103	8.18
561.296	7.93
561.489	8.12
561.682	8.19
561.875	8.18
562.068	8.16
562.261	8.07
562.454	8.22
562.647	8.03
562.84	8.17
563.032	8.22
563.225	8.04
563.418	8.05
563.611	8.14
563.804	8.15
563.997	8.01
564.19	7.82
564.382	8.18
564.575	8.1
564.768	8.1
564.961	8.15
565.153	8.02
565.346	8
565.539	8.13
565.731	8.08
565.924	8.16
566.117	8.22
566.309	8.15
566.502	8.03
566.695	8
566.887	8.18
567.08	8.06
567.272	8.13
567.465	7.96
567.657	8.18
567.85	8.02
568.042	8.08
568.235	8.2
568.427	7.94
568.62	8.1
568.812	8.03
569.005	8.16
569.197	7.98
569.389	8.07
569.582	8.02
569.774	8.05
569.966	8.02
570.159	7.94
570.351	7.9
570.543	7.96
570.736	8.04
570.928	7.88
571.12	8.04
571.312	7.91
571.505	7.8
571.697	8.04
571.889	8
572.081	7.97
572.273	7.84
572.465	8.04
572.658	8.01
572.85	8.05
573.042	8
573.234	7.9
573.426	7.98
573.618	7.86
573.81	7.99
574.002	7.96
574.194	7.99
574.386	7.83
574.578	7.8
574.77	7.9
574.962	7.92
575.154	7.81
575.346	7.84
575.538	7.82
575.729	7.86
575.921	7.91
576.113	8
576.305	7.93
576.497	7.99
576.689	7.79
576.88	7.75
577.072	7.97
577.264	7.92
577.456	7.89
577.647	7.76
577.839	7.96
578.031	7.82
578.223	7.82
578.414	7.72
578.606	7.83
578.798	7.94
578.989	7.82
579.181	7.89
579.372	7.86
579.564	7.9
579.755	7.78
579.947	7.66
580.139	7.82
580.33	7.64
580.522	7.79
580.713	7.75
580.905	7.74
581.096	7.84
581.287	7.73
581.479	7.66
581.67	7.81
581.862	7.68
582.053	7.65
582.244	7.53
582.436	7.81
582.627	7.68
582.818	7.65
583.01	7.62
583.201	7.62
583.392	7.63
583.583	7.63
583.775	7.48
583.966	7.61
584.157	7.65
584.348	7.74
584.54	7.56
584.731	7.62
584.922	7.48
585.113	7.39
585.304	7.66
585.495	7.6
585.686	7.62
585.877	7.66
586.068	7.63
586.259	7.49
586.45	7.52
586.641	7.48
586.832	7.57
587.023	7.48
587.214	7.47
587.405	7.53
587.596	7.42
587.787	7.36
587.978	7.48
588.169	7.48
588.36	7.28
588.551	7.46
588.742	7.43
588.932	7.58
589.123	7.25
589.314	7.51
589.505	7.32
589.696	7.4
589.886	7.36
590.077	7.26
590.268	7.27
590.458	7.24
590.649	7.15
590.84	7.31
591.03	7.26
591.221	7.31
591.412	7.11
591.602	7.35
591.793	7.25
591.984	7.25
592.174	7.26
592.365	7.38
592.555	7.12
592.746	7.12
592.936	7.16
593.127	7.18
593.317	7.22
593.508	7.19
593.698	7.04
593.889	7.14
594.079	7.11
594.269	6.97
594.46	7.08
594.65	7.09
594.84	7.1
595.031	6.91
595.221	6.95
595.411	6.99
595.602	7.06
595.792	6.94
595.982	6.84
596.172	7.06
596.363	6.98
596.553	6.89
596.743	6.9
596.933	6.91
597.123	6.9
597.314	6.76
597.504	6.75
597.694	6.9
597.884	6.81
598.074	6.82
598.264	6.82
598.454	6.77
598.644	6.82
598.834	6.75
599.024	6.66
599.214	6.7
599.404	6.79
599.594	6.73
599.784	6.66
599.974	6.72
600.164	6.7
600.354	6.58
600.544	6.53
600.734	6.72
600.924	6.66
601.114	6.47
601.303	6.56
601.493	6.62
601.683	6.59
601.873	6.52
602.063	6.43
602.252	6.53
602.442	6.43
602.632	6.42
602.821	6.4
603.011	6.43
603.201	6.47
603.39	6.31
603.58	6.28
603.77	6.39
603.959	6.44
604.149	6.32
604.339	6.36
604.528	6.44
604.718	6.3
604.907	6.28
605.097	6.19
605.286	6.25
605.476	6.25
605.665	6.26
605.855	6.16
606.044	6.3
606.234	6.23
606.423	6.15
606.612	6.17
606.802	6.13
606.991	6.2
607.181	6.24
607.37	6.11
607.559	5.95
607.749	6.09
607.938	5.99
608.127	6.05
608.316	6.04
608.506	6.02
608.695	6.05
608.884	5.96
609.073	6.04
609.263	6.09
609.452	5.96
609.641	5.85
609.83	5.81
610.019	5.97
610.208	5.84
610.397	5.89
610.586	5.9
610.775	5.82
610.965	5.84
611.154	5.67
611.343	5.84
611.532	5.67
611.721	5.76
611.91	5.73
612.099	5.72
612.287	5.61
612.476	5.6
612.665	5.76
612.854	5.56
613.043	5.64
613.232	5.62
613.421	5.52
613.61	5.6
613.798	5.58
613.987	5.58
614.176	5.55
614.365	5.58
614.554	5.51
614.742	5.53
614.931	5.38
615.12	5.52
615.309	5.47
615.497	5.43
615.686	5.27
615.875	5.37
616.063	5.4
616.252	5.35
616.44	5.33
616.629	5.29
616.818	5.32
617.006	5.28
617.195	5.21
617.383	5.28
617.572	5.2
617.76	5.13
617.949	5.19
618.137	5.26
618.326	5.19
618.514	5.05
618.703	5.01
618.891	5.18
619.079	5.06
619.268	5.12
619.456	4.97
619.644	5.12
619.833	4.98
620.021	5
620.209	4.93
620.398	4.96
620.586	4.88
620.774	4.96
620.962	4.95
621.151	5.01
621.339	4.92
621.527	4.83
621.715	4.82
621.903	4.85
622.092	4.78
622.28	4.89
622.468	4.63
622.656	4.79
622.844	4.76
623.032	4.81
623.22	4.68
623.408	4.82
623.596	4.82
623.784	4.71
623.972	4.62
624.16	4.62
624.348	4.72
624.536	4.77
624.724	4.57
624.912	4.61
625.1	4.63
625.288	4.56
625.476	4.5
625.664	4.61
625.851	4.52
626.039	4.56
626.227	4.53
626.415	4.54
626.603	4.4
626.79	4.49
626.978	4.48
627.166	4.46
627.354	4.41
627.541	4.33
627.729	4.28
627.917	4.48
628.104	4.44
628.292	4.33
628.48	4.31
628.667	4.27
628.855	4.37
629.042	4.3
629.23	4.27
629.418	4.2
629.605	4.25
629.793	4.18
629.98	4.19
630.168	4.18
630.355	4.25
630.543	4.14
630.73	4.1
630.917	4.12
631.105	4.17
631.292	4.05
631.48	4.08
631.667	4.21
631.854	4.02
632.042	4.04
632.229	3.91
632.416	4.06
632.604	4.01
632.791	3.9
632.978	4.02
633.165	3.97
633.353	4.01
633.54	4
633.727	3.77
633.914	3.87
634.101	3.83
634.289	3.95
634.476	3.81
634.663	3.77
634.85	3.8
635.037	3.77
635.224	3.65
635.411	3.83
635.598	3.77
635.785	3.71
635.972	3.69
636.159	3.74
636.346	3.64
636.533	3.6
636.72	3.63
636.907	3.67
637.094	3.63
637.281	3.52
637.468	3.59
637.655	3.56
637.842	3.56
638.029	3.52
638.215	3.57
638.402	3.6
638.589	3.46
638.776	3.49
638.963	3.41
639.149	3.57
639.336	3.56
639.523	3.44
639.709	3.48
639.896	3.39
640.083	3.37
640.27	3.44
640.456	3.35
640.643	3.32
640.829	3.25
641.016	3.32
641.203	3.21
641.389	3.41
641.576	3.28
641.762	3.24
641.949	3.22
642.135	3.28
642.322	3.22
642.508	3.15
642.695	3.19
642.881	3.09
643.068	3.1
643.254	3.21
643.441	3.19
643.627	3.18
643.813	3.04
644	3.14
644.186	2.97
644.372	3.16
644.559	3.12
644.745	3.06
644.931	2.99
645.118	3.03
645.304	3.01
645.49	2.98
645.676	2.92
645.862	3.01
646.049	3.05
646.235	2.92
646.421	3.05
646.607	3.07
646.793	2.92
646.979	2.85
647.165	2.93
647.352	2.9
647.538	2.87
647.724	2.89
647.91	2.84
648.096	2.86
648.282	2.97
648.468	2.77
648.654	2.8
648.84	2.84
649.026	2.8
649.212	2.71
649.397	2.73
649.583	2.72
649.769	2.79
649.955	2.7
650.141	2.71
650.327	2.71
650.513	2.63
650.698	2.77
650.884	2.55
651.07	2.64
651.256	2.63
651.442	2.64
651.627	2.51
651.813	2.61
651.999	2.53
652.184	2.57
652.37	2.49
652.556	2.55
652.741	2.62
652.927	2.45
653.113	2.46
653.298	2.55
653.484	2.47
653.669	2.44
653.855	2.45
654.04	2.56
654.226	2.48
654.412	2.46
654.597	2.33
654.782	2.42
654.968	2.45
655.153	2.4
655.339	2.37
655.524	2.35
655.71	2.41
655.895	2.38
656.08	2.31
656.266	2.41
656.451	2.33
656.636	2.26
656.822	2.28
657.007	2.27
657.192	2.3
657.378	2.22
657.563	2.23
657.748	2.3
657.933	2.29
658.118	2.15
658.304	2.26
658.489	2.26
658.674	2.19
658.859	2.14
659.044	2.14
659.229	2.21
659.414	2.2
659.599	2.15
659.785	2.02
659.97	2.13
660.155	2.15
660.34	2.18
660.525	2.08
660.71	2.04
660.895	2.11
661.08	2.06
661.264	2.03
661.449	2.11
661.634	2.05
661.819	2.07
662.004	2.04
662.189	1.96
662.374	1.93
662.559	1.91
662.743	1.86
662.928	1.97
663.113	1.97
663.298	1.88
663.483	1.93
663.667	1.94
663.852	1.88
664.037	1.95
664.221	1.9
664.406	1.96
664.591	1.99
664.775	1.94
664.96	1.83
665.145	1.86
665.329	1.9
665.514	1.89
665.698	1.83
665.883	1.76
666.068	1.89
666.252	1.84
666.437	1.76
666.621	1.83
666.806	1.83
666.99	1.76
667.174	1.72
667.359	1.9
667.543	1.73
667.728	1.77
667.912	1.67
668.096	1.79
668.281	1.75
668.465	1.74
668.649	1.71
668.834	1.65
669.018	1.71
669.202	1.68
669.387	1.67
669.571	1.76
669.755	1.64
669.939	1.7
670.124	1.68
670.308	1.74
670.492	1.71
670.676	1.62
670.86	1.61
671.044	1.58
671.228	1.65
671.413	1.57
671.597	1.59
671.781	1.53
671.965	1.61
672.149	1.6
672.333	1.59
672.517	1.53
672.701	1.6
672.885	1.58
673.069	1.48
673.253	1.59
673.437	1.49
673.621	1.5
673.804	1.56
673.988	1.53
674.172	1.48
674.356	1.43
674.54	1.44
674.724	1.62
674.908	1.46
675.091	1.53
675.275	1.43
675.459	1.56
675.643	1.41
675.826	1.4
676.01	1.49
676.194	1.46
676.377	1.51
676.561	1.43
676.745	1.42
676.928	1.5
677.112	1.53
677.296	1.37
677.479	1.35
677.663	1.37
677.846	1.44
678.03	1.39
678.213	1.3
678.397	1.41
678.58	1.33
678.764	1.39
678.947	1.28
679.131	1.32
679.314	1.4
679.498	1.3
679.681	1.39
679.865	1.39
680.048	1.32
680.231	1.29
680.415	1.31
680.598	1.35
680.781	1.3
680.965	1.28
681.148	1.28
681.331	1.24
681.514	1.29
681.698	1.24
681.881	1.23
682.064	1.3
682.247	1.25
682.43	1.13
682.614	1.23
682.797	1.31
682.98	1.25
683.163	1.17
683.346	1.21
683.529	1.2
683.712	1.18
683.895	1.21
684.078	1.16
684.261	1.19
684.444	1.24
684.627	1.21
684.81	1.16
684.993	1.2
685.176	1.21
685.359	1.1
685.542	1.13
685.725	1.25
685.908	1.14
686.091	1.12
686.274	1.18
686.457	1.19
686.639	1.2
686.822	1.17
687.005	1.13
687.188	1.19
687.371	1.26
687.553	1.16
687.736	1.15
687.919	1.2
688.102	1.2
688.284	1.07
688.467	1.1
688.65	1.1
688.832	1.02
689.015	1.1
689.197	0.95
689.38	1.11
689.563	1.15
689.745	0.97
689.928	1.03
690.11	1.01
690.293	1.1
690.475	0.96
690.658	1.09
690.84	1
691.023	1.02
691.205	1
691.388	1
691.57	1.1
691.752	1.03
691.935	0.93
692.117	0.95
692.3	1.03
692.482	0.96
692.664	0.95
692.847	0.96
693.029	1.08
693.211	1.03
693.393	0.89
693.576	0.91
693.758	1
693.94	0.97
694.122	0.94
694.304	0.92
694.487	0.89
694.669	1
694.851	0.89
695.033	0.9
695.215	0.95
695.397	0.88
695.579	0.93
695.761	0.87
695.943	0.85
696.125	1
696.308	0.97
696.49	0.79
696.671	1.02
696.853	0.91
697.035	1.13
697.217	0.8
697.399	1.02
697.581	0.84
697.763	0.96
697.945	0.8
698.127	0.93
698.309	0.94
698.491	0.87
698.672	0.91
698.854	0.92
699.036	0.93
699.218	0.8
699.399	0.91
699.581	0.92
699.763	0.87
699.945	0.8
700.126	0.75
700.308	0.9
700.49	0.78
700.671	0.72
700.853	0.76
701.035	0.83
701.216	0.82
701.398	0.76
701.579	0.76
701.761	0.89
701.943	0.8
702.124	0.75
702.306	0.8
702.487	0.97
702.669	0.81
702.85	0.72
703.031	0.72
703.213	0.95
703.394	0.9
703.576	0.76
703.757	0.9
703.938	0.88
704.12	0.94
704.301	0.84
704.483	0.73
704.664	0.76
704.845	0.89
705.026	0.84
705.208	0.71
705.389	0.8
705.57	0.74
705.751	0.78
705.933	0.76
706.114	0.86
706.295	0.74
706.476	0.65
706.657	0.84
706.838	0.73
707.02	0.76
707.201	0.64
707.382	0.69
707.563	0.74
707.744	0.68
707.925	0.64
708.106	0.63
708.287	0.69
708.468	0.76
708.649	0.72
708.83	0.77
709.011	0.72
709.192	0.77
709.373	0.63
709.554	0.62
709.734	0.81
709.915	0.75
710.096	0.69
710.277	0.56
710.458	0.67
710.639	0.68
710.819	0.52
711	0.71
711.181	0.67
711.362	0.82
711.542	0.65
711.723	0.65
711.904	0.77
712.085	0.65
712.265	0.66
712.446	0.55
712.627	0.65
712.807	0.6
712.988	0.63
713.168	0.54
713.349	0.7
713.53	0.48
713.71	0.5
713.891	0.57
714.071	0.69
714.252	0.62
714.432	0.59
714.613	0.49
714.793	0.58
714.974	0.81
715.154	0.67
715.334	0.7
715.515	0.71
715.695	0.62
715.876	0.56
716.056	0.52
716.236	0.54
716.417	0.56
716.597	0.5
716.777	0.86
716.957	0.63
717.138	0.7
717.318	0.57
717.498	0.46
717.678	0.61
717.859	0.62
718.039	0.44
718.219	0.59
718.399	0.59
718.579	0.52
718.759	0.49
718.939	0.62
719.12	0.65
719.3	0.58
719.48	0.4
719.66	0.53
719.84	0.7
720.02	0.53
720.2	0.51
720.38	0.57
720.56	0.78
720.74	0.42
720.92	0.54
721.1	0.62
721.279	0.65
721.459	0.53
721.639	0.46
721.819	0.56
721.999	0.57
722.179	0.52
722.359	0.46
722.538	0.57
722.718	0.53
722.898	0.56
723.078	0.54
723.257	0.51
723.437	0.61
723.617	0.6
723.797	0.6
723.976	0.57
724.156	0.64
724.336	0.64
724.515	0.75
724.695	0.33
724.874	0.53
725.054	0.58
725.234	0.47
725.413	0.48
725.593	0.66
725.772	0.5
725.952	0.52
726.131	0.5
726.311	0.59
726.49	0.58
726.67	0.41
726.849	0.47
727.028	0.52
727.208	0.51
727.387	0.49
727.567	0.35
727.746	0.57
727.925	0.49
728.105	0.42
728.284	0.45
728.463	0.42
728.643	0.53
728.822	0.39
729.001	0.46
729.18	0.56
729.359	0.61
729.539	0.49
729.718	0.53
729.897	0.57
730.076	0.49
730.255	0.44
730.434	0.48
730.614	0.64
730.793	0.66
730.972	0.43
731.151	0.57
731.33	0.66
731.509	0.58
731.688	0.55
731.867	0.49
732.046	0.35
732.225	0.7
732.404	0.5
732.583	0.34
732.762	0.45
732.941	0.6
733.12	0.51
733.298	0.46
733.477	0.62
733.656	0.54
733.835	0.43
734.014	0.62
734.193	0.57
734.371	0.56
734.55	0.57
734.729	0.33
734.908	0.38
735.086	0.61
735.265	0.58
735.444	0.28
735.623	0.45
735.801	0.39
735.98	0.54
736.159	0.44
736.337	0.52
736.516	0.66
736.694	0.54
736.873	0.46
737.052	0.74
737.23	0.71
737.409	0.52
737.587	0.82
737.766	0.3
737.944	0.48
738.123	0.52
738.301	0.49
738.479	0.5
738.658	0.56
738.836	0.32
739.015	0.37
739.193	0.54
739.371	0.37
739.55	0.47
739.728	0.44
739.906	0.7
740.085	0.57
740.263	0.54
740.441	0.22
740.62	0.87
740.798	0.51
740.976	0.37
741.154	0.35
741.332	0.68
741.511	0.37
741.689	0.42
741.867	0.42
742.045	0.49
742.223	0.32
742.401	0.31
742.579	0.4
742.757	0.66
742.935	0.29
743.114	0.36
743.292	0.54
743.47	0.49
743.648	0.56
743.826	0.5
744.004	0.43
744.181	0.53
744.359	0.42
744.537	0.48
744.715	0.43
744.893	0.45
745.071	0.59
745.249	0.47
745.427	0.51
745.605	0.43
745.782	0.45
745.96	0.55
746.138	0.56
746.316	0.58
746.493	0.31
746.671	0.44
746.849	0.39
747.027	0.57
747.204	0.46
747.382	0.51
747.56	0.31
747.737	0.34
747.915	0.5
748.093	0.52
748.27	0.34
748.448	0.45
748.625	0.28
748.803	0.43
748.98	0.38
749.158	0.46
749.335	0.53
749.513	0.45
749.69	0.43
749.868	0.38
750.045	0.59
750.223	0.42
750.4	0.13
750.578	0.69
750.755	0.39
750.932	0.23
751.11	0.46
751.287	0.34
751.464	0.68
751.642	0.35
751.819	0.48
751.996	0.48
752.173	0.38
752.351	0.35
752.528	0.46
752.705	0.36
752.882	0.29
753.06	0.39
753.237	0.57
753.414	0.58
753.591	0.74
753.768	0.42
753.945	0.41
754.122	0.39
754.299	0.54
754.476	0.24
754.654	0.36
754.831	0.52
755.008	0.52
755.185	0.33
755.362	0.29
755.539	0.49
755.716	0.43
755.892	0.32
756.069	0.34
756.246	0.44
756.423	0.45
756.6	0.51
756.777	0.36
756.954	0.56
757.131	0.38
757.307	0.28
757.484	0.19
757.661	0.5
757.838	0.41
758.015	0.24
758.191	0.43
758.368	0.47
758.545	0.5
758.721	0.48
758.898	0.21
759.075	0.36
759.251	0.47
759.428	0.43
759.605	0.23
759.781	0.42
759.958	0.43
760.134	0.36
760.311	0.26
760.488	0.65
760.664	0.7
760.841	0.36
761.017	0.17
761.194	0.51
761.37	0.56
761.547	0.37
761.723	0.35
761.899	0.61
762.076	0.34
762.252	0.21
762.429	0.27
762.605	0.54
762.781	0.27
762.958	0.39
763.134	0.28
763.31	0.28
763.486	0.57
763.663	0.1
763.839	0.39
764.015	0.18
764.191	0.25
764.368	0.34
764.544	0.21
764.72	0.41
764.896	0.51
765.072	0.33
765.248	0.33
765.425	0.35
765.601	0.42
765.777	0.33
765.953	0.07
766.129	0.27
766.305	0.33
766.481	0.49
766.657	0.48
766.833	0.62
767.009	0.21
767.185	0.23
767.361	0.32
767.537	0.3
767.713	0.59
767.889	0.37
768.065	0.42
768.24	0.17
768.416	0.54
768.592	0.29
768.768	0.25
768.944	0.49
769.12	0.16
769.295	0.34
769.471	0.33
769.647	0.48
769.823	0.57
769.998	0.15
770.174	0.24
770.35	0.74
770.525	0.79
770.701	0.44
770.877	0.36
771.052	0.31
771.228	0.61
771.403	0.43
771.579	0.48
771.755	0.79
771.93	0.42
772.106	0.2
772.281	0.16
772.457	0.34
772.632	0.41
772.808	0.09
772.983	0.39
773.159	0.24
773.334	0.54
773.509	0.49
773.685	0.37
773.86	0.89
774.036	0.59
774.211	0.4
774.386	0.41
774.562	0.34
774.737	0.56
774.912	0.26
775.087	0.47
775.263	0.52
775.438	0.33
775.613	0.3
775.788	0.3
775.964	0.55
776.139	1.06
776.314	0.24
776.489	0.44
776.664	0.49
776.839	0.22
777.014	0.51
777.19	0.46
777.365	0.63
777.54	0.79
777.715	0.33
777.89	0.51
778.065	0.37
778.24	0.45
778.415	0.41
778.59	0.24
778.765	0.36
778.94	0.57
779.115	0.37
779.289	0.28
779.464	0.37
779.639	0.36
779.814	0.12
779.989	0.23
780.164	0.76
780.339	0.42
780.513	0.16
780.688	0.16
780.863	0.58
781.038	0.72
781.212	0.33
781.387	0.35
781.562	0.81
781.737	0.14
781.911	0.63
782.086	0.12
782.261	0.24
782.435	0.85
782.61	0.22
782.784	0.56
782.959	0.75
783.134	0.42
783.308	0.15
783.483	0.31
783.657	0.99
783.832	0.8
784.006	0.04
784.181	0.42
784.355	0.65
784.53	0.09
784.704	0.43
784.878	0.75
785.053	0.44
785.227	0.82
785.402	0.74
785.576	0.4
785.75	0.63
785.925	0.49
786.099	0.39
786.273	0.42
786.448	0.49
786.622	0.72
786.796	0.3
786.97	0.44
787.145	1.2
787.319	0.09
787.493	0.4
787.667	-0.05
787.841	0.64
788.015	0.77
788.19	0.26
788.364	0.46
788.538	0.8
788.712	0.55
788.886	0.5
789.06	0.48
789.234	0.73
789.408	-0.14
789.582	0.28
789.756	0.35
789.93	0.14
790.104	0.55
790.278	0.52
790.452	0.42
790.626	0.38
790.8	0.29
790.973	0.62
791.147	0.67
791.321	0.83
791.495	0.61
791.669	0.49
791.843	0.49
792.016	0.59
792.19	1.02
792.364	0.29
792.538	1.06
792.711	0.66
792.885	0.26
793.059	0.14
793.233	-0.22
793.406	0.71
793.58	0.46
793.754	0.61
793.927	0.33
794.101	0.94
794.274	0.4
794.448	0.59
794.622	0.1
794.795	1.03
794.969	0.21
795.142	0.92
795.316	0.18
795.489	0.31
795.663	0.88
795.836	0.35
796.009	0.12
796.183	0.9
796.356	0.67
796.53	0.5
796.703	0.41
796.876	1.08
797.05	0.33
797.223	0.41
797.396	0.61
797.57	0.57
797.743	1.01
797.916	0.44
798.09	0.5
798.263	0.98
798.436	0.91
798.609	0.47
798.782	0.23
798.956	0.71
799.129	0.69
799.302	0.38
799.475	0.5
799.648	0.14
799.821	0.21
799.994	0.71
800.167	-0.03
800.34	0.57
800.514	0.53
800.687	0.39
800.86	0.27
801.033	0.73
801.206	0.6
801.379	0.08
801.551	0.79
801.724	0.78
801.897	1.35
802.07	0.33
802.243	0.05
802.416	0.75
802.589	0.43
802.762	0.63
802.935	0.51
803.107	0.87
803.28	0.83
803.453	0.78
803.626	0.27
803.798	0.74
803.971	0.46
804.144	0.56
804.317	0.56
804.489	1.01
804.662	0.68
804.835	0.5
805.007	0.39
805.18	1.15
805.353	0.73
805.525	0.41
805.698	0.36
805.87	0.89
806.043	1.14
806.215	0.18
806.388	0.26
806.56	0.76
806.733	0.99
806.905	0.3
807.078	0.29
807.25	0.55
807.423	0.83
807.595	0.39
807.768	0.5
807.94	1.13
808.112	0.69
808.285	0.76
808.457	0.4
808.629	0.64
808.802	0.88
808.974	0.64
809.146	0.39
809.318	0.41
809.491	0.54
809.663	0.72
809.835	0.17
810.007	0.65
810.18	0.44
810.352	0.06
810.524	0.41
810.696	1.04
810.868	1.44
811.04	0.77
811.212	0.54
811.384	0.79
811.556	0.69
811.728	0.54
811.901	1.54
812.073	0.84
812.245	1.03
812.417	0.45
812.589	-0.12
812.76	0.66
812.932	1.03
813.104	1.01
813.276	0.35
813.448	0.97
813.62	0.46
813.792	0.75
813.964	0.62
814.136	0.84
814.307	0.37
814.479	-0.05
814.651	0.37
814.823	1.62
814.995	0.62
815.166	0.93
815.338	0.33
815.51	-0.06
815.681	1.9
815.853	0.75
816.025	0.44
816.196	1.4
816.368	1.06
816.54	0.37
816.711	0.27
816.883	1.06
817.054	2.06
817.226	0.09
817.398	0.99
817.569	0.48
817.741	1.4
817.912	0.96
818.084	0.56
818.255	1.3
818.426	0.32
818.598	0.32
818.769	0.24
818.941	0.93
819.112	1.82
819.283	0.82
819.455	-0.16
819.626	0.38
819.798	1.21
819.969	0.68
820.14	0.52
820.311	0.56
820.483	1.18
820.654	0.85
820.825	0.52
820.996	0.97
821.168	0.31
821.339	0.51
821.51	0.39
821.681	0.88
821.852	0.85
822.023	0.18
822.195	0.32
822.366	1.5
822.537	1.11
822.708	0.97
822.879	-0.02
823.05	1.55
823.221	0.31
823.392	0.8
823.563	0.55
823.734	1.05
823.905	0.34
824.076	0.25
824.247	0.23
824.418	0.7
824.589	1.27
824.759	1.14
824.93	0.2
825.101	0.1
825.272	1.6
825.443	1.43
825.614	1.48
825.784	0.69
825.955	2.26
826.126	1.51
826.297	0.7
826.467	1.68
826.638	1.97
826.809	-0.75
826.98	0.49
827.15	1.31
827.321	1.44
827.492	1.99
827.662	1.15
827.833	2.33
828.003	1.44
828.174	0.08
828.345	0
828.515	2.18
828.686	0.54
828.856	0.92
829.027	1.21
829.197	0.87
829.368	0.93
829.538	0.19
829.709	-0
829.879	1.26
830.049	0.99
830.22	0.73
830.39	1.1
830.56	1.39
830.731	0.81
830.901	0.66
831.072	1.31
831.242	1.32
831.412	1.79
831.582	1.37
831.753	-0.46
831.923	1.68
832.093	1.24
832.263	0.98
832.434	-0.28
832.604	0.24
832.774	1.7
832.944	0.67
833.114	0.53
833.284	1.51
833.454	0.82
833.624	0.58
833.795	0.54
833.965	1.64
834.135	2.25
834.305	0.03
834.475	-0.03
834.645	1.25
834.815	0.7
834.985	0.14
835.155	0.04
835.325	1.37
835.494	1.09
835.664	0.86
835.834	-0
836.004	1.42
836.174	1.66
836.344	1.3
836.514	0.15
836.684	1.1
836.853	1.1
837.023	1.4
837.193	0.29
837.363	2.37
837.532	2.41
837.702	0.87
837.872	0.47
838.041	1.54
838.211	3.15
838.381	-0
838.55	0.92
838.72	3.6
838.89	2.67
839.059	0.06
839.229	0.7
839.398	3.64
839.568	1.63
839.738	1.12
839.907	1.89
840.077	1.5
840.246	0.47
840.416	0.03
840.585	0.1
840.755	3.19
840.924	2.07
841.093	0.46
841.263	0.4
841.432	0.84
841.602	0.5
841.771	0.29
841.94	1.14
842.11	4.04
842.279	2.38
842.448	0.08
842.617	0.14
842.787	2.45
842.956	-0.1
843.125	0.42
843.294	1.45
843.464	2.02
843.633	1.17
843.802	0.1
843.971	1.07
844.14	2.04
844.309	2.37
844.479	-0.18
844.648	-0.14
844.817	0.95
844.986	1.11
845.155	0.8
845.324	0.52
845.493	1.53
845.662	1
845.831	1.08
846	1.39
846.169	1.39
846.338	3.1
846.507	1.39
846.676	1.45
846.844	1.2
847.013	2.18
847.182	1.23
847.351	0.12
847.52	1.73
847.689	1.74
847.858	0.98
848.026	0.84
848.195	1.9
848.364	1.1
848.533	0.47
848.701	0.47
848.87	1.56
849.039	2.92
849.207	0.97
849.376	2.51
849.545	3.34
849.713	0.77
849.882	0.74
850.051	1.14
850.219	2.57
850.388	1.68
850.556	0.02
850.725	0.26
850.893	1.89
851.062	0.71
851.23	1.26
851.399	-0.67
851.567	1.82
851.736	1.38
851.904	-0.22
852.073	1.3
852.241	2.85
852.41	2.3
852.578	0.87
852.746	0.73
852.915	1.62
853.083	1.97
853.251	-0.47
853.42	0.78
853.588	1.28
853.756	2.52
853.924	1.09
854.093	0.51
854.261	1.24
854.429	0.2
854.597	2.63
854.765	0.09
854.934	2.71
855.102	2.39
855.27	0.3
855.438	2.39
855.606	3.67
855.774	3.54
855.942	-0.77
856.11	1.07
856.278	2.54
856.446	3.02
856.614	1.27
856.782	0.03
856.95	2.26
857.118	2.01
857.286	1.82
857.454	1.46
857.622	3.32
857.79	2.76
857.958	-0.43
858.126	1.27
858.294	-0.94
858.462	1.64
858.629	-0.44
858.797	1.1
858.965	1.33
859.133	1.85
859.301	0.41
859.468	2.51
859.636	1.29
859.804	5.84
859.971	1.79
860.139	0.65
860.307	2.38
860.474	2.83
860.642	1.14
860.81	0.37
860.977	2.01
861.145	3.43
861.313	0.54
861.48	1.44
861.648	3.2
861.815	2.15
861.983	-0.82
862.15	1.34
862.318	2.72
862.485	2.74
862.653	-0.15
862.82	0.52
862.988	3.85
863.155	2.47
863.322	-0
863.49	0.7
863.657	1.37
863.824	4.26
863.992	2.81
864.159	1.83
864.326	4.16
864.494	1.17
864.661	3.81
864.828	0.98
864.996	4.36
865.163	3.56
865.33	1.33
865.497	-0.62
865.664	0.2
865.832	-0.11
865.999	1.82
866.166	0.72
866.333	1.07
866.5	1.43
866.667	1
866.834	1.76
867.001	4.35
867.168	0.59
867.335	2.16
867.502	-0.89
867.669	2.13
867.836	5.21
868.003	0.66
868.17	2.87
868.337	1.57
868.504	5.59
868.671	-0.72
868.838	1.02
869.005	2.11
869.172	4.12
869.339	2.86
869.505	0.58
869.672	2.59
869.839	5.11
870.006	1.93
870.173	0.74
870.339	3.56
870.506	4.92
870.673	2.08
870.84	3.39
871.006	1.64
871.173	1.21
871.34	2.2
871.506	0.54
871.673	4.75
871.839	-0.54
872.006	3.74
872.173	1.16
872.339	2.4
872.506	5.06
872.672	1.61
872.839	-0.04
873.005	3.16
873.172	6.93
873.338	3.15
873.505	0.73
873.671	4.03
873.838	4.52
874.004	-2.4
874.171	0.42
874.337	3.13
874.503	4.45
874.67	0.17
874.836	0.2
875.002	4.26
875.169	3.23
875.335	1.65
875.501	1.38
875.668	4.91
875.834	2.26
876	0.4
876.166	3.02
876.332	2.94
876.499	6.45
876.665	1.99
876.831	0.49
876.997	6.71
877.163	2.97
877.329	1.06
877.495	1.68
877.662	4.96
877.828	1.77
877.994	2.57
878.16	-1.11
878.326	2.89
878.492	4.64
878.658	0.29
878.824	3.93
878.99	3.32
879.156	1.37
879.322	5.91
879.487	1.17
879.653	4.55
879.819	4.8
879.985	1.11
880.151	2.66
880.317	2.33
880.483	1.25
880.648	3.75
880.814	-1.54
880.98	2.22
881.146	-0.96
881.312	0.46
881.477	2.19
881.643	0.56
881.809	3.67
881.974	2.74
882.14	-0.66
882.306	1.61
882.471	6.57
882.637	2.44
882.803	3.4
882.968	5.44
883.134	6.5
883.299	2.99
883.465	1.24
883.63	5.31
883.796	4.23
883.961	3.82
884.127	1.8
884.292	-3.05
884.458	-0.87
884.623	-0.87
