Data from Apollo_Calib_20240827__AbsoluteIrradiance__759__11-48-01-431.txt Node

Date: Wed Aug 28 11:48:01 BST 2024
User: biology
Spectrometer: FLMT08252
Trigger mode: 0
Integration Time (sec): 5.000000E-1
Scans to average: 5
Electric dark correction enabled: true
Nonlinearity correction enabled: false
Boxcar width: 0
XAxis mode: Wavelengths
Number of Pixels in Spectrum: 3648
>>>>>Begin Spectral Data<<<<<
179.588	-0
179.809	-0
180.03	-0
180.251	-0
180.473	-0
180.694	0
180.915	0
181.136	-0
181.357	0
181.578	-0
181.799	-0
182.02	-0
182.241	0
182.462	-0
182.683	0
182.904	-0
183.125	-0
183.346	0
183.567	0
183.788	0
184.009	0
184.23	0
184.451	0
184.672	0
184.892	0
185.113	0
185.334	0
185.555	0
185.776	0
185.996	0
186.217	0
186.438	0
186.659	0
186.879	0
187.1	0
187.321	0
187.541	0
187.762	0
187.983	0
188.203	0
188.424	0
188.644	0
188.865	0
189.086	0
189.306	0
189.527	0
189.747	0
189.968	0
190.188	0
190.409	0
190.629	0
190.849	0
191.07	0
191.29	0
191.511	0
191.731	0
191.951	0
192.172	0
192.392	0
192.612	0
192.833	0
193.053	0
193.273	0
193.493	0
193.714	0
193.934	0
194.154	0
194.374	0
194.594	0
194.815	0
195.035	0
195.255	0
195.475	0
195.695	0
195.915	0
196.135	0
196.355	0
196.575	0
196.795	0
197.015	0
197.235	0
197.455	0
197.675	0
197.895	0
198.115	0
198.335	0
198.555	0
198.775	0
198.995	0
199.214	0
199.434	0
199.654	0
199.874	0
200.094	3.37
200.313	1.31
200.533	1.26
200.753	1.5
200.973	3.02
201.192	2.97
201.412	1.13
201.632	1.01
201.851	2.45
202.071	0.96
202.291	1.21
202.51	1.24
202.73	2.28
202.95	1.22
203.169	0.8
203.389	1.45
203.608	1.74
203.828	0.96
204.047	1.04
204.267	1.7
204.486	1.3
204.706	1.66
204.925	1.74
205.145	1.31
205.364	2.18
205.583	2.15
205.803	1.16
206.022	0.91
206.242	1.58
206.461	1.01
206.68	0.84
206.9	1.3
207.119	1.75
207.338	1.89
207.557	0.8
207.777	1.16
207.996	1.11
208.215	1.72
208.434	0.77
208.654	0.59
208.873	1.39
209.092	1.78
209.311	0.91
209.53	1.03
209.749	0.88
209.968	1
210.187	0.8
210.407	0.71
210.626	1
210.845	1.41
211.064	0.93
211.283	0.75
211.502	1.3
211.721	0.78
211.94	0.74
212.159	1.25
212.377	1.02
212.596	1.32
212.815	0.81
213.034	0.96
213.253	1.24
213.472	1.06
213.691	0.76
213.91	0.37
214.128	0.6
214.347	1.24
214.566	0.16
214.785	0.38
215.003	0.99
215.222	1.09
215.441	0.74
215.66	0.29
215.878	0.74
216.097	0.89
216.316	0.58
216.534	0.55
216.753	0.88
216.972	0.74
217.19	0.58
217.409	0.45
217.627	0.62
217.846	0.58
218.064	0.7
218.283	0.54
218.501	0.98
218.72	0.96
218.938	0.41
219.157	0.54
219.375	0.87
219.594	0.7
219.812	0.41
220.031	0.43
220.249	1.02
220.467	0.91
220.686	0.49
220.904	0.26
221.122	0.38
221.341	1
221.559	0.72
221.777	0.37
221.995	0.73
222.214	0.84
222.432	0.49
222.65	0.7
222.868	0.56
223.086	0.7
223.305	0.7
223.523	0.52
223.741	0.99
223.959	0.55
224.177	0.3
224.395	0.52
224.613	0.54
224.831	0.86
225.049	0.39
225.267	0.38
225.485	0.57
225.703	0.5
225.921	0.55
226.139	0.53
226.357	0.64
226.575	0.72
226.793	0.51
227.011	1.4
227.229	0.59
227.447	0.69
227.665	0.52
227.883	0.24
228.1	0.52
228.318	0.63
228.536	0.13
228.754	0.3
228.972	0.7
229.189	0.73
229.407	0.48
229.625	0.36
229.843	0.78
230.06	0.62
230.278	0.36
230.496	0.43
230.713	0.5
230.931	0.6
231.149	0.39
231.366	0.3
231.584	0.46
231.801	0.83
232.019	0.31
232.236	0.35
232.454	0.29
232.671	0.46
232.889	0.29
233.106	0.33
233.324	0.44
233.541	0.4
233.759	0.42
233.976	0.39
234.194	0.4
234.411	0.39
234.628	0.28
234.846	0.33
235.063	0.45
235.28	0.5
235.498	0.36
235.715	0.26
235.932	0.66
236.149	0.48
236.367	0.34
236.584	0.39
236.801	0.29
237.018	0.58
237.236	0.39
237.453	0.24
237.67	0.5
237.887	0.35
238.104	0.44
238.321	0.2
238.538	0.32
238.755	0.73
238.973	0.26
239.19	0.37
239.407	0.53
239.624	0.47
239.841	0.34
240.058	0.33
240.275	0.39
240.492	0.47
240.709	0.26
240.925	0.35
241.142	0.4
241.359	0.29
241.576	0.28
241.793	0.3
242.01	0.39
242.227	0.52
242.444	0.48
242.66	0.53
242.877	0.36
243.094	0.38
243.311	0.38
243.527	0.33
243.744	0.47
243.961	0.44
244.178	0.25
244.394	0.41
244.611	0.4
244.828	0.62
245.044	0.23
245.261	0.31
245.477	0.35
245.694	0.34
245.911	0.25
246.127	0.38
246.344	0.55
246.56	0.45
246.777	0.31
246.993	0.4
247.21	0.41
247.426	0.46
247.643	0.3
247.859	0.22
248.076	0.26
248.292	0.51
248.508	0.26
248.725	0.36
248.941	0.41
249.157	0.48
249.374	0.26
249.59	0.32
249.806	0.38
250.023	0.59
250.239	0.35
250.455	0.27
250.671	0.35
250.888	0.37
251.104	0.37
251.32	0.25
251.536	0.34
251.752	0.34
251.969	0.34
252.185	0.36
252.401	0.45
252.617	0.39
252.833	0.28
253.049	0.28
253.265	0.4
253.481	0.32
253.697	0.25
253.913	0.27
254.129	0.44
254.345	0.44
254.561	0.31
254.777	0.27
254.993	0.42
255.209	0.34
255.425	0.31
255.641	0.21
255.857	0.38
256.073	0.46
256.288	0.15
256.504	0.24
256.72	0.33
256.936	0.46
257.152	0.28
257.367	0.22
257.583	0.32
257.799	0.36
258.015	0.32
258.23	0.3
258.446	0.5
258.662	0.33
258.877	0.16
259.093	0.23
259.309	0.34
259.524	0.33
259.74	0.3
259.955	0.17
260.171	0.32
260.387	0.26
260.602	0.39
260.818	0.28
261.033	0.25
261.249	0.27
261.464	0.23
261.68	0.2
261.895	0.38
262.11	0.37
262.326	0.17
262.541	0.22
262.757	0.33
262.972	0.35
263.187	0.32
263.403	0.29
263.618	0.44
263.833	0.31
264.049	0.21
264.264	0.3
264.479	0.3
264.694	0.42
264.91	0.2
265.125	0.27
265.34	0.35
265.555	0.47
265.77	0.28
265.986	0.27
266.201	0.36
266.416	0.4
266.631	0.28
266.846	0.28
267.061	0.28
267.276	0.41
267.491	0.13
267.706	0.32
267.921	0.29
268.136	0.3
268.351	0.27
268.566	0.19
268.781	0.39
268.996	0.34
269.211	0.25
269.426	0.16
269.641	0.22
269.856	0.4
270.071	0.24
270.285	0.12
270.5	0.35
270.715	0.37
270.93	0.22
271.145	0.31
271.359	0.31
271.574	0.24
271.789	0.26
272.004	0.25
272.218	0.24
272.433	0.3
272.648	0.27
272.862	0.35
273.077	0.29
273.292	0.21
273.506	0.14
273.721	0.18
273.936	0.34
274.15	0.34
274.365	0.18
274.579	0.3
274.794	0.35
275.008	0.3
275.223	0.18
275.437	0.23
275.652	0.33
275.866	0.25
276.081	0.24
276.295	0.39
276.509	0.32
276.724	0.25
276.938	0.21
277.153	0.29
277.367	0.38
277.581	0.21
277.796	0.22
278.01	0.17
278.224	0.29
278.438	0.37
278.653	0.19
278.867	0.2
279.081	0.09
279.295	0.25
279.51	0.25
279.724	0.15
279.938	0.27
280.152	0.26
280.366	0.19
280.58	0.27
280.794	0.28
281.008	0.32
281.222	0.29
281.437	0.43
281.651	0.26
281.865	0.3
282.079	0.21
282.293	0.12
282.507	0.1
282.721	0.22
282.935	0.26
283.148	0.11
283.362	0.25
283.576	0.18
283.79	0.22
284.004	0.16
284.218	0.31
284.432	0.17
284.646	0.29
284.859	0.21
285.073	0.24
285.287	0.29
285.501	0.22
285.714	0.22
285.928	0.21
286.142	0.29
286.356	0.21
286.569	0.15
286.783	0.3
286.997	0.27
287.21	0.13
287.424	0.26
287.637	0.21
287.851	0.2
288.065	0.28
288.278	0.21
288.492	0.24
288.705	0.28
288.919	0.27
289.132	0.14
289.346	0.27
289.559	0.14
289.773	0.22
289.986	0.22
290.2	0.24
290.413	0.32
290.626	0.21
290.84	0.23
291.053	0.25
291.267	0.28
291.48	0.25
291.693	0.22
291.906	0.19
292.12	0.23
292.333	0.18
292.546	0.21
292.76	0.35
292.973	0.24
293.186	0.23
293.399	0.17
293.612	0.28
293.826	0.23
294.039	0.19
294.252	0.21
294.465	0.25
294.678	0.19
294.891	0.22
295.104	0.13
295.317	0.22
295.53	0.23
295.743	0.22
295.956	0.23
296.169	0.3
296.382	0.25
296.595	0.22
296.808	0.17
297.021	0.33
297.234	0.31
297.447	0.22
297.66	0.24
297.873	0.31
298.086	0.28
298.299	0.19
298.511	0.12
298.724	0.17
298.937	0.17
299.15	0.2
299.363	0.19
299.575	0.27
299.788	0.25
300.001	0.21
300.213	0.16
300.426	0.23
300.639	0.15
300.852	0.17
301.064	0.26
301.277	0.29
301.489	0.22
301.702	0.24
301.915	0.2
302.127	0.18
302.34	0.2
302.552	0.23
302.765	0.19
302.977	0.23
303.19	0.23
303.402	0.19
303.615	0.22
303.827	0.23
304.04	0.19
304.252	0.28
304.464	0.17
304.677	0.33
304.889	0.29
305.102	0.21
305.314	0.15
305.526	0.26
305.739	0.23
305.951	0.17
306.163	0.21
306.375	0.28
306.588	0.19
306.8	0.18
307.012	0.18
307.224	0.19
307.436	0.29
307.649	0.11
307.861	0.22
308.073	0.25
308.285	0.21
308.497	0.16
308.709	0.14
308.921	0.22
309.133	0.24
309.346	0.19
309.558	0.18
309.77	0.25
309.982	0.3
310.194	0.22
310.406	0.18
310.617	0.3
310.829	0.17
311.041	0.25
311.253	0.18
311.465	0.16
311.677	0.19
311.889	0.18
312.101	0.15
312.313	0.26
312.524	0.29
312.736	0.11
312.948	0.22
313.16	0.3
313.372	0.3
313.583	0.21
313.795	0.21
314.007	0.19
314.218	0.27
314.43	0.19
314.642	0.16
314.853	0.15
315.065	0.26
315.277	0.18
315.488	0.2
315.7	0.26
315.912	0.26
316.123	0.19
316.335	0.18
316.546	0.34
316.758	0.23
316.969	0.19
317.181	0.19
317.392	0.25
317.604	0.26
317.815	0.19
318.026	0.14
318.238	0.17
318.449	0.2
318.661	0.15
318.872	0.17
319.083	0.17
319.295	0.26
319.506	0.19
319.717	0.22
319.929	0.26
320.14	0.23
320.351	0.23
320.562	0.15
320.774	0.18
320.985	0.22
321.196	0.15
321.407	0.15
321.618	0.27
321.829	0.23
322.041	0.23
322.252	0.21
322.463	0.24
322.674	0.24
322.885	0.16
323.096	0.19
323.307	0.21
323.518	0.21
323.729	0.18
323.94	0.18
324.151	0.2
324.362	0.22
324.573	0.21
324.784	0.21
324.995	0.27
325.206	0.21
325.417	0.2
325.628	0.16
325.838	0.22
326.049	0.24
326.26	0.2
326.471	0.22
326.682	0.22
326.892	0.21
327.103	0.16
327.314	0.15
327.525	0.24
327.735	0.22
327.946	0.2
328.157	0.15
328.368	0.28
328.578	0.23
328.789	0.26
328.999	0.22
329.21	0.19
329.421	0.25
329.631	0.15
329.842	0.18
330.052	0.23
330.263	0.24
330.473	0.27
330.684	0.19
330.894	0.19
331.105	0.23
331.315	0.24
331.526	0.12
331.736	0.3
331.947	0.22
332.157	0.2
332.367	0.16
332.578	0.28
332.788	0.3
332.999	0.22
333.209	0.22
333.419	0.14
333.629	0.25
333.84	0.23
334.05	0.2
334.26	0.31
334.47	0.18
334.681	0.25
334.891	0.17
335.101	0.23
335.311	0.31
335.521	0.22
335.732	0.15
335.942	0.31
336.152	0.25
336.362	0.25
336.572	0.2
336.782	0.28
336.992	0.19
337.202	0.21
337.412	0.14
337.622	0.24
337.832	0.22
338.042	0.16
338.252	0.17
338.462	0.17
338.672	0.2
338.882	0.19
339.092	0.18
339.302	0.31
339.511	0.24
339.721	0.15
339.931	0.12
340.141	0.28
340.351	0.28
340.561	0.25
340.77	0.24
340.98	0.24
341.19	0.22
341.4	0.19
341.609	0.16
341.819	0.22
342.029	0.13
342.238	0.22
342.448	0.2
342.658	0.2
342.867	0.2
343.077	0.23
343.286	0.19
343.496	0.23
343.706	0.26
343.915	0.19
344.125	0.19
344.334	0.22
344.544	0.14
344.753	0.17
344.963	0.2
345.172	0.18
345.381	0.12
345.591	0.17
345.8	0.18
346.01	0.23
346.219	0.31
346.428	0.1
346.638	0.17
346.847	0.17
347.056	0.22
347.266	0.2
347.475	0.19
347.684	0.25
347.893	0.21
348.103	0.25
348.312	0.18
348.521	0.18
348.73	0.2
348.94	0.18
349.149	0.13
349.358	0.22
349.567	0.15
349.776	0.14
349.985	0.14
350.194	0.27
350.403	0.28
350.612	0.15
350.821	0.17
351.03	0.21
351.239	0.12
351.448	0.22
351.657	0.19
351.866	0.31
352.075	0.19
352.284	0.19
352.493	0.16
352.702	0.29
352.911	0.2
353.12	0.26
353.329	0.19
353.538	0.21
353.746	0.19
353.955	0.17
354.164	0.21
354.373	0.19
354.582	0.23
354.79	0.18
354.999	0.26
355.208	0.16
355.416	0.25
355.625	0.13
355.834	0.13
356.042	0.26
356.251	0.18
356.46	0.19
356.668	0.25
356.877	0.3
357.085	0.2
357.294	0.13
357.503	0.21
357.711	0.21
357.92	0.4
358.128	0.22
358.337	0.16
358.545	0.2
358.754	0.19
358.962	0.26
359.17	0.15
359.379	0.22
359.587	0.21
359.796	0.17
360.004	0.27
360.212	0.27
360.421	0.25
360.629	0.17
360.837	0.2
361.046	0.27
361.254	0.32
361.462	0.21
361.67	0.16
361.879	0.22
362.087	0.3
362.295	0.22
362.503	0.17
362.711	0.12
362.92	0.16
363.128	0.16
363.336	0.16
363.544	0.13
363.752	0.19
363.96	0.21
364.168	0.14
364.376	0.2
364.584	0.18
364.792	0.27
365	0.23
365.208	0.2
365.416	0.23
365.624	0.22
365.832	0.17
366.04	0.28
366.248	0.25
366.456	0.18
366.664	0.22
366.872	0.17
367.079	0.19
367.287	0.17
367.495	0.2
367.703	0.22
367.911	0.19
368.118	0.2
368.326	0.21
368.534	0.17
368.742	0.26
368.949	0.14
369.157	0.18
369.365	0.21
369.572	0.15
369.78	0.14
369.988	0.24
370.195	0.19
370.403	0.25
370.61	0.2
370.818	0.24
371.026	0.31
371.233	0.16
371.441	0.23
371.648	0.16
371.856	0.26
372.063	0.19
372.271	0.22
372.478	0.19
372.685	0.16
372.893	0.28
373.1	0.2
373.308	0.17
373.515	0.28
373.722	0.25
373.93	0.2
374.137	0.26
374.344	0.32
374.552	0.27
374.759	0.21
374.966	0.2
375.173	0.19
375.381	0.32
375.588	0.2
375.795	0.11
376.002	0.19
376.209	0.17
376.417	0.21
376.624	0.19
376.831	0.27
377.038	0.22
377.245	0.1
377.452	0.19
377.659	0.22
377.866	0.17
378.073	0.25
378.28	0.19
378.487	0.27
378.694	0.23
378.901	0.23
379.108	0.21
379.315	0.28
379.522	0.33
379.729	0.24
379.936	0.22
380.143	0.22
380.35	0.23
380.557	0.19
380.763	0.18
380.97	0.25
381.177	0.27
381.384	0.31
381.591	0.19
381.797	0.25
382.004	0.26
382.211	0.21
382.418	0.18
382.624	0.26
382.831	0.24
383.038	0.19
383.244	0.25
383.451	0.22
383.658	0.27
383.864	0.2
384.071	0.18
384.277	0.29
384.484	0.21
384.69	0.27
384.897	0.21
385.103	0.22
385.31	0.17
385.516	0.18
385.723	0.23
385.929	0.2
386.136	0.19
386.342	0.25
386.549	0.2
386.755	0.27
386.961	0.26
387.168	0.22
387.374	0.21
387.58	0.28
387.787	0.26
387.993	0.23
388.199	0.23
388.406	0.22
388.612	0.23
388.818	0.2
389.024	0.2
389.231	0.22
389.437	0.33
389.643	0.25
389.849	0.27
390.055	0.26
390.261	0.26
390.467	0.28
390.674	0.23
390.88	0.25
391.086	0.26
391.292	0.15
391.498	0.28
391.704	0.27
391.91	0.23
392.116	0.21
392.322	0.13
392.528	0.28
392.734	0.2
392.94	0.26
393.146	0.23
393.352	0.24
393.557	0.18
393.763	0.25
393.969	0.24
394.175	0.31
394.381	0.26
394.587	0.21
394.792	0.26
394.998	0.33
395.204	0.33
395.41	0.23
395.615	0.25
395.821	0.3
396.027	0.31
396.233	0.27
396.438	0.27
396.644	0.28
396.85	0.27
397.055	0.26
397.261	0.29
397.466	0.25
397.672	0.3
397.878	0.3
398.083	0.29
398.289	0.25
398.494	0.38
398.7	0.31
398.905	0.19
399.111	0.38
399.316	0.2
399.522	0.29
399.727	0.27
399.932	0.26
400.138	0.21
400.343	0.32
400.549	0.29
400.754	0.31
400.959	0.32
401.165	0.29
401.37	0.29
401.575	0.38
401.78	0.34
401.986	0.29
402.191	0.28
402.396	0.29
402.601	0.28
402.807	0.38
403.012	0.32
403.217	0.37
403.422	0.3
403.627	0.32
403.832	0.34
404.037	0.4
404.243	0.38
404.448	0.33
404.653	0.31
404.858	0.33
405.063	0.37
405.268	0.31
405.473	0.33
405.678	0.35
405.883	0.54
406.088	0.4
406.293	0.34
406.498	0.4
406.703	0.39
406.907	0.38
407.112	0.31
407.317	0.41
407.522	0.47
407.727	0.39
407.932	0.45
408.136	0.52
408.341	0.46
408.546	0.46
408.751	0.46
408.956	0.5
409.16	0.55
409.365	0.47
409.57	0.45
409.774	0.52
409.979	0.58
410.184	0.56
410.388	0.51
410.593	0.61
410.798	0.56
411.002	0.58
411.207	0.61
411.411	0.64
411.616	0.61
411.82	0.66
412.025	0.67
412.229	0.67
412.434	0.82
412.638	0.75
412.843	0.73
413.047	0.78
413.252	0.76
413.456	0.86
413.66	0.88
413.865	0.86
414.069	0.97
414.273	0.9
414.478	0.9
414.682	0.93
414.886	1.01
415.091	0.95
415.295	0.97
415.499	1.12
415.703	1.11
415.908	1.23
416.112	1.08
416.316	1.29
416.52	1.28
416.724	1.23
416.929	1.3
417.133	1.54
417.337	1.39
417.541	1.51
417.745	1.48
417.949	1.59
418.153	1.63
418.357	1.65
418.561	1.9
418.765	1.78
418.969	1.94
419.173	2
419.377	1.99
419.581	2.19
419.785	2.12
419.989	2.17
420.193	2.26
420.397	2.36
420.601	2.52
420.804	2.61
421.008	2.58
421.212	2.76
421.416	2.71
421.62	2.67
421.823	2.75
422.027	2.91
422.231	2.84
422.435	2.89
422.638	2.96
422.842	3.11
423.046	3.03
423.249	3.25
423.453	3.27
423.657	3.43
423.86	3.4
424.064	3.56
424.268	3.74
424.471	3.73
424.675	3.92
424.878	3.92
425.082	4.08
425.285	4.28
425.489	4.25
425.692	4.35
425.896	4.33
426.099	4.56
426.303	4.61
426.506	4.71
426.71	4.95
426.913	5.12
427.116	5.28
427.32	5.19
427.523	5.31
427.726	5.61
427.93	5.57
428.133	5.93
428.336	6.08
428.54	6.09
428.743	6.33
428.946	6.54
429.149	6.57
429.353	6.56
429.556	6.61
429.759	6.67
429.962	6.62
430.165	6.96
430.368	6.53
430.571	6.72
430.775	6.73
430.978	6.69
431.181	6.72
431.384	6.77
431.587	6.95
431.79	7.24
431.993	7.16
432.196	7.43
432.399	7.77
432.602	7.9
432.805	7.97
433.008	8.37
433.211	8.31
433.414	8.51
433.616	8.54
433.819	8.51
434.022	8.66
434.225	8.89
434.428	8.78
434.631	9.24
434.833	9.03
435.036	9.19
435.239	9.35
435.442	9.44
435.645	9.53
435.847	9.67
436.05	9.87
436.253	10.08
436.455	10.08
436.658	10.02
436.861	10.39
437.063	10.35
437.266	10.28
437.468	10.62
437.671	10.92
437.874	10.95
438.076	10.79
438.279	11.19
438.481	11.21
438.684	11.85
438.886	11.66
439.089	11.86
439.291	11.92
439.494	12.17
439.696	12.27
439.899	12.86
440.101	13.03
440.303	13.39
440.506	13.89
440.708	13.75
440.91	13.84
441.113	14.01
441.315	14.31
441.517	14.02
441.72	14.62
441.922	14.16
442.124	14.14
442.326	14.48
442.529	14.84
442.731	14.66
442.933	15.05
443.135	14.71
443.337	14.83
443.539	15.3
443.742	14.95
443.944	15.65
444.146	15.33
444.348	15.4
444.55	15.24
444.752	15.42
444.954	15.42
445.156	15.46
445.358	15.78
445.56	16
445.762	15.8
445.964	16.05
446.166	15.8
446.368	15.79
446.57	15.83
446.772	15.64
446.974	15.36
447.175	15.65
447.377	15.37
447.579	15.73
447.781	15.4
447.983	15.25
448.184	14.86
448.386	15.33
448.588	14.83
448.79	14.79
448.991	15.15
449.193	15.03
449.395	14.53
449.597	14.2
449.798	14.11
450	13.68
450.202	13.65
450.403	13.62
450.605	13.56
450.806	13.18
451.008	13.11
451.21	12.82
451.411	12.52
451.613	12.01
451.814	12
452.016	12.08
452.217	11.45
452.419	11.54
452.62	11.2
452.821	10.88
453.023	10.7
453.224	10.43
453.426	10.17
453.627	9.55
453.828	9.65
454.03	9.7
454.231	9.57
454.432	9.49
454.634	9.29
454.835	8.98
455.036	8.94
455.238	8.6
455.439	8.33
455.64	8.1
455.841	8.02
456.042	8.19
456.244	7.84
456.445	7.55
456.646	7.33
456.847	7.33
457.048	7.15
457.249	7.3
457.45	7.03
457.651	6.52
457.852	6.55
458.054	6.25
458.255	6.1
458.456	6.19
458.657	6.12
458.858	5.71
459.058	5.65
459.259	5.72
459.46	5.4
459.661	5.48
459.862	5.51
460.063	5.35
460.264	5.26
460.465	5.09
460.666	5.18
460.866	4.93
461.067	4.67
461.268	4.74
461.469	4.7
461.67	4.64
461.87	4.4
462.071	4.51
462.272	4.37
462.473	4.36
462.673	4.51
462.874	4.35
463.075	4.35
463.275	4.29
463.476	4.43
463.676	4.25
463.877	4.18
464.078	4.23
464.278	4.26
464.479	4.16
464.679	4.05
464.88	3.96
465.08	3.96
465.281	3.79
465.481	3.71
465.682	3.55
465.882	3.58
466.083	3.49
466.283	3.41
466.483	3.32
466.684	3.15
466.884	3.04
467.085	3.15
467.285	3.19
467.485	3.09
467.686	3.06
467.886	2.95
468.086	2.83
468.286	2.84
468.487	2.94
468.687	2.73
468.887	2.69
469.087	2.82
469.287	2.75
469.488	2.61
469.688	2.71
469.888	2.67
470.088	2.67
470.288	2.58
470.488	2.51
470.688	2.42
470.888	2.42
471.088	2.24
471.288	2.37
471.488	2.36
471.688	2.31
471.888	2.29
472.088	2.4
472.288	2.29
472.488	2.22
472.688	2.15
472.888	2.19
473.088	2.25
473.288	2.08
473.488	2.04
473.688	2.23
473.887	1.99
474.087	2.09
474.287	2.09
474.487	1.96
474.687	2.06
474.886	2
475.086	1.97
475.286	1.93
475.486	1.86
475.685	1.9
475.885	1.87
476.085	1.92
476.284	1.93
476.484	1.85
476.684	1.89
476.883	1.91
477.083	1.85
477.282	1.79
477.482	1.86
477.681	1.77
477.881	1.73
478.08	1.76
478.28	1.69
478.479	1.82
478.679	1.83
478.878	1.75
479.078	1.69
479.277	1.78
479.477	1.71
479.676	1.72
479.875	1.72
480.075	1.64
480.274	1.7
480.473	1.78
480.673	1.69
480.872	1.76
481.071	1.71
481.271	1.68
481.47	1.7
481.669	1.69
481.868	1.66
482.067	1.68
482.267	1.57
482.466	1.62
482.665	1.63
482.864	1.6
483.063	1.6
483.262	1.7
483.461	1.74
483.661	1.73
483.86	1.69
484.059	1.71
484.258	1.71
484.457	1.72
484.656	1.72
484.855	1.79
485.054	1.61
485.253	1.69
485.452	1.65
485.651	1.75
485.849	1.71
486.048	1.66
486.247	1.72
486.446	1.73
486.645	1.67
486.844	1.76
487.043	1.75
487.241	1.74
487.44	1.75
487.639	1.77
487.838	1.78
488.037	1.78
488.235	1.87
488.434	1.82
488.633	1.73
488.831	1.87
489.03	1.91
489.229	1.88
489.427	1.87
489.626	1.93
489.825	1.93
490.023	1.91
490.222	1.92
490.42	1.94
490.619	1.96
490.817	1.99
491.016	1.96
491.214	2.04
491.413	2.03
491.611	2
491.81	2
492.008	2.09
492.207	2.16
492.405	2.14
492.604	2.09
492.802	2.17
493	2.22
493.199	2.19
493.397	2.25
493.595	2.28
493.794	2.26
493.992	2.38
494.19	2.36
494.388	2.41
494.587	2.34
494.785	2.36
494.983	2.33
495.181	2.42
495.379	2.48
495.578	2.54
495.776	2.52
495.974	2.47
496.172	2.52
496.37	2.59
496.568	2.66
496.766	2.6
496.964	2.73
497.162	2.67
497.36	2.7
497.558	2.79
497.756	2.79
497.954	2.77
498.152	2.86
498.35	2.96
498.548	2.87
498.746	2.86
498.944	2.89
499.142	2.91
499.34	2.97
499.538	3.08
499.736	3.03
499.933	3.14
500.131	3.07
500.329	3.22
500.527	3.2
500.725	3.31
500.922	3.3
501.12	3.31
501.318	3.38
501.516	3.34
501.713	3.44
501.911	3.39
502.109	3.42
502.306	3.47
502.504	3.39
502.701	3.49
502.899	3.56
503.097	3.76
503.294	3.58
503.492	3.67
503.689	3.74
503.887	3.73
504.084	3.81
504.282	3.8
504.479	3.78
504.677	3.85
504.874	3.89
505.072	3.83
505.269	3.99
505.466	4.01
505.664	4.05
505.861	3.95
506.059	4.06
506.256	4.1
506.453	4.14
506.651	4.22
506.848	4.28
507.045	4.22
507.242	4.29
507.44	4.26
507.637	4.36
507.834	4.31
508.031	4.49
508.229	4.4
508.426	4.32
508.623	4.52
508.82	4.5
509.017	4.49
509.214	4.52
509.411	4.63
509.608	4.61
509.805	4.68
510.003	4.68
510.2	4.74
510.397	4.8
510.594	4.72
510.791	4.81
510.988	4.82
511.184	4.84
511.381	4.71
511.578	4.87
511.775	5.02
511.972	4.94
512.169	4.96
512.366	5.03
512.563	5.05
512.76	5.12
512.956	5.14
513.153	5.1
513.35	5.09
513.547	5.09
513.744	5.21
513.94	5.18
514.137	5.28
514.334	5.15
514.53	5.29
514.727	5.47
514.924	5.4
515.12	5.37
515.317	5.39
515.514	5.29
515.71	5.34
515.907	5.48
516.103	5.49
516.3	5.43
516.497	5.57
516.693	5.6
516.89	5.54
517.086	5.6
517.283	5.56
517.479	5.55
517.676	5.71
517.872	5.68
518.068	5.69
518.265	5.67
518.461	5.65
518.658	5.77
518.854	5.7
519.05	5.82
519.247	5.9
519.443	5.77
519.639	5.91
519.836	5.79
520.032	5.75
520.228	5.96
520.424	5.91
520.621	5.97
520.817	5.97
521.013	5.93
521.209	6.07
521.405	6.08
521.601	5.98
521.798	6.06
521.994	6.03
522.19	5.95
522.386	6
522.582	6.12
522.778	6.22
522.974	6.08
523.17	6.08
523.366	6.09
523.562	6.16
523.758	6.15
523.954	6.04
524.15	6.19
524.346	6.23
524.542	6.22
524.738	6.24
524.934	6.32
525.129	6.33
525.325	6.22
525.521	6.24
525.717	6.41
525.913	6.28
526.109	6.27
526.304	6.41
526.5	6.38
526.696	6.45
526.892	6.32
527.087	6.57
527.283	6.42
527.479	6.42
527.674	6.29
527.87	6.41
528.066	6.42
528.261	6.43
528.457	6.38
528.653	6.49
528.848	6.47
529.044	6.53
529.239	6.44
529.435	6.54
529.63	6.4
529.826	6.49
530.021	6.47
530.217	6.57
530.412	6.52
530.608	6.57
530.803	6.51
530.999	6.39
531.194	6.53
531.389	6.65
531.585	6.56
531.78	6.68
531.975	6.58
532.171	6.66
532.366	6.59
532.561	6.62
532.757	6.61
532.952	6.74
533.147	6.53
533.342	6.66
533.538	6.58
533.733	6.77
533.928	6.53
534.123	6.67
534.318	6.72
534.513	6.59
534.709	6.8
534.904	6.74
535.099	6.78
535.294	6.74
535.489	6.76
535.684	6.71
535.879	6.75
536.074	6.8
536.269	6.77
536.464	6.84
536.659	6.73
536.854	6.72
537.049	6.8
537.244	6.73
537.439	6.77
537.634	6.81
537.828	6.79
538.023	6.77
538.218	6.81
538.413	6.74
538.608	6.81
538.803	6.8
538.997	6.8
539.192	6.76
539.387	6.8
539.582	6.81
539.776	6.73
539.971	6.82
540.166	6.86
540.36	6.76
540.555	6.91
540.75	6.82
540.944	6.82
541.139	6.83
541.334	6.87
541.528	6.9
541.723	6.92
541.917	6.92
542.112	6.84
542.306	6.76
542.501	6.82
542.695	6.89
542.89	6.79
543.084	6.85
543.279	6.88
543.473	6.9
543.668	6.89
543.862	6.74
544.056	6.81
544.251	6.96
544.445	7
544.64	7.02
544.834	6.68
545.028	6.56
545.222	6.88
545.417	7.05
545.611	6.97
545.805	6.91
546	6.73
546.194	6.89
546.388	6.92
546.582	6.83
546.776	6.86
546.97	6.93
547.165	6.88
547.359	6.85
547.553	6.81
547.747	6.88
547.941	7.01
548.135	6.86
548.329	6.92
548.523	6.9
548.717	6.86
548.911	6.83
549.105	6.83
549.299	6.96
549.493	6.88
549.687	6.88
549.881	6.97
550.075	6.93
550.269	6.83
550.463	6.96
550.657	6.9
550.85	6.9
551.044	6.92
551.238	6.94
551.432	6.97
551.626	6.99
551.82	6.97
552.013	6.83
552.207	7.01
552.401	6.96
552.594	6.91
552.788	6.87
552.982	6.87
553.176	6.88
553.369	7.05
553.563	6.92
553.756	6.94
553.95	7.01
554.144	6.92
554.337	6.98
554.531	6.79
554.724	6.97
554.918	7.06
555.111	6.88
555.305	6.92
555.498	6.91
555.692	7.02
555.885	6.94
556.079	6.9
556.272	6.95
556.466	6.97
556.659	6.86
556.852	6.98
557.046	6.88
557.239	6.84
557.432	6.87
557.626	6.97
557.819	7.03
558.012	7
558.206	7.08
558.399	6.96
558.592	6.9
558.785	6.89
558.979	6.91
559.172	6.94
559.365	6.97
559.558	6.89
559.751	6.81
559.944	7.02
560.138	6.88
560.331	6.9
560.524	6.97
560.717	6.92
560.91	6.91
561.103	6.97
561.296	6.82
561.489	6.91
561.682	7.01
561.875	6.96
562.068	7.05
562.261	6.88
562.454	7.08
562.647	6.9
562.84	6.95
563.032	6.95
563.225	6.87
563.418	6.91
563.611	7.02
563.804	7.02
563.997	6.83
564.19	6.7
564.382	6.98
564.575	6.94
564.768	6.79
564.961	6.96
565.153	6.91
565.346	6.85
565.539	6.97
565.731	6.93
565.924	6.95
566.117	7.08
566.309	6.93
566.502	6.91
566.695	6.83
566.887	6.92
567.08	6.89
567.272	6.95
567.465	6.9
567.657	6.96
567.85	6.86
568.042	6.92
568.235	6.98
568.427	6.83
568.62	6.9
568.812	6.82
569.005	6.9
569.197	6.88
569.389	6.91
569.582	6.95
569.774	6.88
569.966	6.83
570.159	6.79
570.351	6.81
570.543	6.89
570.736	6.84
570.928	6.73
571.12	6.9
571.312	6.8
571.505	6.65
571.697	6.92
571.889	6.8
572.081	6.86
572.273	6.79
572.465	6.84
572.658	6.88
572.85	6.88
573.042	6.88
573.234	6.78
573.426	6.78
573.618	6.79
573.81	6.82
574.002	6.83
574.194	6.84
574.386	6.75
574.578	6.66
574.77	6.79
574.962	6.78
575.154	6.73
575.346	6.72
575.538	6.72
575.729	6.66
575.921	6.79
576.113	6.88
576.305	6.81
576.497	6.85
576.689	6.72
576.88	6.64
577.072	6.77
577.264	6.75
577.456	6.74
577.647	6.69
577.839	6.82
578.031	6.68
578.223	6.73
578.414	6.62
578.606	6.75
578.798	6.73
578.989	6.63
579.181	6.77
579.372	6.65
579.564	6.72
579.755	6.71
579.947	6.6
580.139	6.71
580.33	6.58
580.522	6.63
580.713	6.64
580.905	6.63
581.096	6.71
581.287	6.62
581.479	6.63
581.67	6.71
581.862	6.61
582.053	6.61
582.244	6.47
582.436	6.68
582.627	6.55
582.818	6.51
583.01	6.55
583.201	6.59
583.392	6.56
583.583	6.57
583.775	6.42
583.966	6.5
584.157	6.52
584.348	6.59
584.54	6.46
584.731	6.53
584.922	6.43
585.113	6.43
585.304	6.46
585.495	6.52
585.686	6.54
585.877	6.45
586.068	6.61
586.259	6.45
586.45	6.49
586.641	6.47
586.832	6.52
587.023	6.39
587.214	6.37
587.405	6.5
587.596	6.34
587.787	6.33
587.978	6.45
588.169	6.27
588.36	6.29
588.551	6.33
588.742	6.37
588.932	6.34
589.123	6.21
589.314	6.41
589.505	6.36
589.696	6.36
589.886	6.27
590.077	6.29
590.268	6.24
590.458	6.17
590.649	6.12
590.84	6.26
591.03	6.2
591.221	6.25
591.412	6.08
591.602	6.26
591.793	6.15
591.984	6.22
592.174	6.17
592.365	6.34
592.555	6.08
592.746	6.09
592.936	6.17
593.127	6.21
593.317	6.17
593.508	6.21
593.698	6.1
593.889	6.1
594.079	6.08
594.269	5.98
594.46	6.02
594.65	6.04
594.84	6.04
595.031	5.93
595.221	6.02
595.411	5.99
595.602	5.98
595.792	5.95
595.982	5.92
596.172	6.04
596.363	5.93
596.553	5.92
596.743	5.98
596.933	5.93
597.123	5.93
597.314	5.78
597.504	5.81
597.694	5.97
597.884	5.84
598.074	5.87
598.264	5.85
598.454	5.81
598.644	5.84
598.834	5.8
599.024	5.71
599.214	5.72
599.404	5.8
599.594	5.79
599.784	5.7
599.974	5.83
600.164	5.73
600.354	5.58
600.544	5.63
600.734	5.72
600.924	5.64
601.114	5.57
601.303	5.59
601.493	5.65
601.683	5.62
601.873	5.59
602.063	5.58
602.252	5.57
602.442	5.48
602.632	5.51
602.821	5.47
603.011	5.54
603.201	5.56
603.39	5.51
603.58	5.37
603.77	5.51
603.959	5.54
604.149	5.45
604.339	5.4
604.528	5.57
604.718	5.48
604.907	5.42
605.097	5.31
605.286	5.34
605.476	5.36
605.665	5.45
605.855	5.33
606.044	5.38
606.234	5.35
606.423	5.26
606.612	5.3
606.802	5.29
606.991	5.28
607.181	5.3
607.37	5.32
607.559	5.08
607.749	5.28
607.938	5.16
608.127	5.17
608.316	5.13
608.506	5.1
608.695	5.24
608.884	5.09
609.073	5.11
609.263	5.2
609.452	5.18
609.641	5
609.83	5.02
610.019	5.11
610.208	4.99
610.397	5.01
610.586	5.02
610.775	4.92
610.965	4.97
611.154	4.89
611.343	5
611.532	4.95
611.721	4.96
611.91	4.89
612.099	4.95
612.287	4.84
612.476	4.8
612.665	4.96
612.854	4.77
613.043	4.83
613.232	4.83
613.421	4.76
613.61	4.76
613.798	4.68
613.987	4.82
614.176	4.74
614.365	4.75
614.554	4.73
614.742	4.78
614.931	4.61
615.12	4.72
615.309	4.7
615.497	4.58
615.686	4.55
615.875	4.55
616.063	4.57
616.252	4.62
616.44	4.56
616.629	4.53
616.818	4.57
617.006	4.5
617.195	4.46
617.383	4.49
617.572	4.4
617.76	4.4
617.949	4.46
618.137	4.5
618.326	4.49
618.514	4.28
618.703	4.3
618.891	4.38
619.079	4.3
619.268	4.39
619.456	4.28
619.644	4.41
619.833	4.32
620.021	4.33
620.209	4.17
620.398	4.36
620.586	4.15
620.774	4.29
620.962	4.23
621.151	4.29
621.339	4.22
621.527	4.08
621.715	4.13
621.903	4.14
622.092	4.11
622.28	4.18
622.468	4.06
622.656	4.07
622.844	4.09
623.032	4.17
623.22	3.94
623.408	4.09
623.596	4.07
623.784	4.1
623.972	3.95
624.16	3.98
624.348	3.98
624.536	4.02
624.724	3.94
624.912	4
625.1	3.94
625.288	3.94
625.476	3.83
625.664	3.95
625.851	3.85
626.039	3.87
626.227	3.85
626.415	3.82
626.603	3.79
626.79	3.79
626.978	3.76
627.166	3.85
627.354	3.74
627.541	3.71
627.729	3.61
627.917	3.82
628.104	3.81
628.292	3.67
628.48	3.73
628.667	3.63
628.855	3.74
629.042	3.72
629.23	3.61
629.418	3.59
629.605	3.65
629.793	3.54
629.98	3.57
630.168	3.54
630.355	3.56
630.543	3.55
630.73	3.42
630.917	3.5
631.105	3.59
631.292	3.54
631.48	3.44
631.667	3.6
631.854	3.48
632.042	3.43
632.229	3.36
632.416	3.44
632.604	3.39
632.791	3.29
632.978	3.42
633.165	3.38
633.353	3.38
633.54	3.38
633.727	3.24
633.914	3.29
634.101	3.24
634.289	3.4
634.476	3.18
634.663	3.24
634.85	3.25
635.037	3.19
635.224	3.17
635.411	3.27
635.598	3.19
635.785	3.2
635.972	3.19
636.159	3.15
636.346	3.16
636.533	3.15
636.72	3.11
636.907	3.1
637.094	3.08
637.281	3.01
637.468	3.09
637.655	3.09
637.842	3.1
638.029	2.98
638.215	3.05
638.402	3.03
638.589	2.93
638.776	2.99
638.963	2.9
639.149	3.01
639.336	3
639.523	2.89
639.709	2.97
639.896	2.87
640.083	2.89
640.27	2.93
640.456	2.85
640.643	2.82
640.829	2.78
641.016	2.84
641.203	2.78
641.389	2.8
641.576	2.81
641.762	2.75
641.949	2.72
642.135	2.84
642.322	2.76
642.508	2.65
642.695	2.72
642.881	2.68
643.068	2.65
643.254	2.69
643.441	2.66
643.627	2.73
643.813	2.57
644	2.71
644.186	2.6
644.372	2.68
644.559	2.6
644.745	2.53
644.931	2.56
645.118	2.58
645.304	2.6
645.49	2.55
645.676	2.5
645.862	2.58
646.049	2.55
646.235	2.53
646.421	2.62
646.607	2.56
646.793	2.47
646.979	2.43
647.165	2.51
647.352	2.42
647.538	2.49
647.724	2.41
647.91	2.41
648.096	2.46
648.282	2.51
648.468	2.39
648.654	2.47
648.84	2.44
649.026	2.36
649.212	2.28
649.397	2.3
649.583	2.33
649.769	2.34
649.955	2.3
650.141	2.3
650.327	2.3
650.513	2.26
650.698	2.29
650.884	2.16
651.07	2.29
651.256	2.27
651.442	2.22
651.627	2.16
651.813	2.28
651.999	2.17
652.184	2.2
652.37	2.16
652.556	2.14
652.741	2.2
652.927	2.05
653.113	2.11
653.298	2.17
653.484	2.12
653.669	2.02
653.855	2.06
654.04	2.13
654.226	2.04
654.412	2.06
654.597	1.95
654.782	2.07
654.968	2.06
655.153	1.97
655.339	2.03
655.524	1.93
655.71	2.01
655.895	2
656.08	2.02
656.266	2.05
656.451	1.99
656.636	1.92
656.822	1.96
657.007	1.94
657.192	1.91
657.378	1.88
657.563	1.88
657.748	1.91
657.933	1.95
658.118	1.87
658.304	1.83
658.489	1.93
658.674	1.88
658.859	1.8
659.044	1.85
659.229	1.84
659.414	1.83
659.599	1.83
659.785	1.74
659.97	1.83
660.155	1.78
660.34	1.83
660.525	1.72
660.71	1.7
660.895	1.78
661.08	1.75
661.264	1.71
661.449	1.78
661.634	1.7
661.819	1.75
662.004	1.75
662.189	1.65
662.374	1.66
662.559	1.68
662.743	1.59
662.928	1.67
663.113	1.64
663.298	1.6
663.483	1.61
663.667	1.6
663.852	1.61
664.037	1.66
664.221	1.58
664.406	1.64
664.591	1.65
664.775	1.68
664.96	1.59
665.145	1.59
665.329	1.6
665.514	1.54
665.698	1.52
665.883	1.49
666.068	1.65
666.252	1.56
666.437	1.43
666.621	1.54
666.806	1.52
666.99	1.53
667.174	1.48
667.359	1.57
667.543	1.49
667.728	1.46
667.912	1.4
668.096	1.51
668.281	1.44
668.465	1.48
668.649	1.46
668.834	1.41
669.018	1.41
669.202	1.42
669.387	1.39
669.571	1.48
669.755	1.39
669.939	1.43
670.124	1.38
670.308	1.46
670.492	1.45
670.676	1.4
670.86	1.36
671.044	1.33
671.228	1.43
671.413	1.3
671.597	1.33
671.781	1.29
671.965	1.39
672.149	1.29
672.333	1.33
672.517	1.31
672.701	1.36
672.885	1.29
673.069	1.23
673.253	1.38
673.437	1.31
673.621	1.23
673.804	1.28
673.988	1.27
674.172	1.22
674.356	1.2
674.54	1.26
674.724	1.39
674.908	1.25
675.091	1.27
675.275	1.22
675.459	1.26
675.643	1.21
675.826	1.26
676.01	1.19
676.194	1.17
676.377	1.22
676.561	1.24
676.745	1.17
676.928	1.23
677.112	1.22
677.296	1.16
677.479	1.13
677.663	1.16
677.846	1.25
678.03	1.18
678.213	1.16
678.397	1.19
678.58	1.19
678.764	1.13
678.947	1.09
679.131	1.13
679.314	1.18
679.498	1.07
679.681	1.14
679.865	1.14
680.048	1.1
680.231	1.09
680.415	1.06
680.598	1.06
680.781	1.03
680.965	1.07
681.148	1.07
681.331	1.07
681.514	1.11
681.698	1.01
681.881	1.12
682.064	1.06
682.247	1.05
682.43	0.99
682.614	1.04
682.797	1.1
682.98	1.05
683.163	0.94
683.346	1.11
683.529	1.07
683.712	1.01
683.895	1.05
684.078	0.94
684.261	0.95
684.444	1.05
684.627	1.01
684.81	0.91
684.993	0.99
685.176	1.02
685.359	0.93
685.542	0.91
685.725	1.07
685.908	0.98
686.091	0.94
686.274	1.06
686.457	0.97
686.639	0.95
686.822	0.97
687.005	0.92
687.188	1.03
687.371	1.04
687.553	0.98
687.736	0.92
687.919	1.07
688.102	0.97
688.284	0.88
688.467	0.84
688.65	0.94
688.832	0.83
689.015	0.84
689.197	0.8
689.38	1
689.563	1
689.745	0.83
689.928	0.91
690.11	0.86
690.293	0.9
690.475	0.78
690.658	0.89
690.84	0.89
691.023	0.8
691.205	0.81
691.388	0.86
691.57	0.89
691.752	0.87
691.935	0.7
692.117	0.8
692.3	0.82
692.482	0.89
692.664	0.74
692.847	0.83
693.029	0.89
693.211	0.87
693.393	0.77
693.576	0.82
693.758	0.85
693.94	0.78
694.122	0.73
694.304	0.76
694.487	0.73
694.669	0.87
694.851	0.73
695.033	0.76
695.215	0.74
695.397	0.71
695.579	0.74
695.761	0.74
695.943	0.72
696.125	0.85
696.308	0.76
696.49	0.6
696.671	0.9
696.853	0.74
697.035	0.88
697.217	0.76
697.399	0.8
697.581	0.65
697.763	0.72
697.945	0.7
698.127	0.75
698.309	0.76
698.491	0.75
698.672	0.72
698.854	0.8
699.036	0.75
699.218	0.7
699.399	0.76
699.581	0.76
699.763	0.68
699.945	0.62
700.126	0.59
700.308	0.7
700.49	0.62
700.671	0.58
700.853	0.6
701.035	0.68
701.216	0.72
701.398	0.61
701.579	0.6
701.761	0.73
701.943	0.61
702.124	0.58
702.306	0.67
702.487	0.84
702.669	0.66
702.85	0.63
703.031	0.49
703.213	0.75
703.394	0.66
703.576	0.62
703.757	0.71
703.938	0.72
704.12	0.82
704.301	0.63
704.483	0.57
704.664	0.61
704.845	0.72
705.026	0.66
705.208	0.6
705.389	0.65
705.57	0.66
705.751	0.61
705.933	0.62
706.114	0.61
706.295	0.63
706.476	0.51
706.657	0.73
706.838	0.68
707.02	0.64
707.201	0.55
707.382	0.6
707.563	0.66
707.744	0.56
707.925	0.53
708.106	0.56
708.287	0.61
708.468	0.65
708.649	0.59
708.83	0.6
709.011	0.5
709.192	0.61
709.373	0.46
709.554	0.52
709.734	0.65
709.915	0.61
710.096	0.58
710.277	0.43
710.458	0.55
710.639	0.57
710.819	0.48
711	0.54
711.181	0.67
711.362	0.67
711.542	0.53
711.723	0.56
711.904	0.64
712.085	0.58
712.265	0.54
712.446	0.48
712.627	0.54
712.807	0.6
712.988	0.56
713.168	0.43
713.349	0.57
713.53	0.4
713.71	0.47
713.891	0.43
714.071	0.46
714.252	0.52
714.432	0.51
714.613	0.41
714.793	0.54
714.974	0.67
715.154	0.56
715.334	0.52
715.515	0.58
715.695	0.41
715.876	0.46
716.056	0.45
716.236	0.42
716.417	0.52
716.597	0.42
716.777	0.69
716.957	0.47
717.138	0.46
717.318	0.45
717.498	0.4
717.678	0.49
717.859	0.6
718.039	0.31
718.219	0.44
718.399	0.46
718.579	0.38
718.759	0.41
718.939	0.5
719.12	0.5
719.3	0.47
719.48	0.33
719.66	0.33
719.84	0.59
720.02	0.45
720.2	0.37
720.38	0.48
720.56	0.6
720.74	0.38
720.92	0.46
721.1	0.6
721.279	0.56
721.459	0.47
721.639	0.37
721.819	0.42
721.999	0.4
722.179	0.51
722.359	0.35
722.538	0.4
722.718	0.36
722.898	0.39
723.078	0.44
723.257	0.31
723.437	0.47
723.617	0.46
723.797	0.45
723.976	0.44
724.156	0.48
724.336	0.54
724.515	0.63
724.695	0.3
724.874	0.42
725.054	0.43
725.234	0.43
725.413	0.42
725.593	0.46
725.772	0.47
725.952	0.37
726.131	0.41
726.311	0.44
726.49	0.4
726.67	0.29
726.849	0.35
727.028	0.4
727.208	0.39
727.387	0.45
727.567	0.31
727.746	0.38
727.925	0.4
728.105	0.29
728.284	0.38
728.463	0.34
728.643	0.46
728.822	0.31
729.001	0.36
729.18	0.33
729.359	0.51
729.539	0.39
729.718	0.3
729.897	0.46
730.076	0.45
730.255	0.32
730.434	0.42
730.614	0.48
730.793	0.46
730.972	0.35
731.151	0.37
731.33	0.51
731.509	0.41
731.688	0.43
731.867	0.41
732.046	0.21
732.225	0.51
732.404	0.3
732.583	0.27
732.762	0.41
732.941	0.43
733.12	0.4
733.298	0.37
733.477	0.41
733.656	0.28
733.835	0.24
734.014	0.54
734.193	0.47
734.371	0.44
734.55	0.46
734.729	0.27
734.908	0.5
735.086	0.46
735.265	0.46
735.444	0.18
735.623	0.33
735.801	0.33
735.98	0.31
736.159	0.27
736.337	0.39
736.516	0.38
736.694	0.42
736.873	0.38
737.052	0.58
737.23	0.55
737.409	0.35
737.587	0.55
737.766	0.25
737.944	0.28
738.123	0.4
738.301	0.56
738.479	0.43
738.658	0.4
738.836	0.19
739.015	0.42
739.193	0.56
739.371	0.29
739.55	0.43
739.728	0.32
739.906	0.51
740.085	0.58
740.263	0.32
740.441	0.16
740.62	0.62
740.798	0.52
740.976	0.22
741.154	0.23
741.332	0.52
741.511	0.31
741.689	0.32
741.867	0.41
742.045	0.39
742.223	0.44
742.401	0.3
742.579	0.26
742.757	0.49
742.935	0.22
743.114	0.31
743.292	0.32
743.47	0.42
743.648	0.35
743.826	0.21
744.004	0.43
744.181	0.42
744.359	0.31
744.537	0.35
744.715	0.41
744.893	0.31
745.071	0.42
745.249	0.32
745.427	0.38
745.605	0.51
745.782	0.34
745.96	0.48
746.138	0.49
746.316	0.45
746.493	0.33
746.671	0.36
746.849	0.3
747.027	0.43
747.204	0.25
747.382	0.36
747.56	0.19
747.737	0.41
747.915	0.28
748.093	0.36
748.27	0.36
748.448	0.4
748.625	0.18
748.803	0.19
748.98	0.3
749.158	0.36
749.335	0.44
749.513	0.39
749.69	0.29
749.868	0.36
750.045	0.37
750.223	0.16
750.4	0.12
750.578	0.55
750.755	0.42
750.932	0.09
751.11	0.43
751.287	0.18
751.464	0.41
751.642	0.31
751.819	0.34
751.996	0.41
752.173	0.27
752.351	0.19
752.528	0.37
752.705	0.23
752.882	0.15
753.06	0.39
753.237	0.39
753.414	0.52
753.591	0.43
753.768	0.41
753.945	0.24
754.122	0.21
754.299	0.42
754.476	0.18
754.654	0.35
754.831	0.5
755.008	0.4
755.185	0.17
755.362	0.14
755.539	0.38
755.716	0.27
755.892	0.24
756.069	0.34
756.246	0.28
756.423	0.33
756.6	0.47
756.777	0.3
756.954	0.41
757.131	0.2
757.307	0.19
757.484	0.15
757.661	0.26
757.838	0.48
758.015	0.22
758.191	0.37
758.368	0.4
758.545	0.47
758.721	0.45
758.898	0.26
759.075	0.36
759.251	0.41
759.428	0.29
759.605	0.19
759.781	0.31
759.958	0.36
760.134	0.29
760.311	0.19
760.488	0.42
760.664	0.42
760.841	0.24
761.017	0.26
761.194	0.31
761.37	0.44
761.547	0.32
761.723	0.39
761.899	0.34
762.076	0.12
762.252	0.14
762.429	0.31
762.605	0.39
762.781	0.37
762.958	0.43
763.134	0.32
763.31	0.25
763.486	0.4
763.663	0.07
763.839	0.23
764.015	0.05
764.191	0.1
764.368	0.3
764.544	0.2
764.72	0.3
764.896	0.33
765.072	0.23
765.248	0.22
765.425	0.34
765.601	0.28
765.777	0.21
765.953	0.09
766.129	0.2
766.305	0.33
766.481	0.41
766.657	0.31
766.833	0.47
767.009	0.14
767.185	0.24
767.361	0.2
767.537	0.21
767.713	0.51
767.889	0.25
768.065	0.31
768.24	0.44
768.416	0.39
768.592	0.22
768.768	0.32
768.944	0.33
769.12	0.18
769.295	0.31
769.471	0.18
769.647	0.28
769.823	0.43
769.998	0.18
770.174	0.07
770.35	0.66
770.525	0.57
770.701	0.37
770.877	0.33
771.052	0.26
771.228	0.42
771.403	0.4
771.579	0.3
771.755	0.69
771.93	0.34
772.106	0.12
772.281	-0.01
772.457	0.31
772.632	0.43
772.808	-0
772.983	0.2
773.159	0.14
773.334	0.51
773.509	0.38
773.685	0.22
773.86	0.69
774.036	0.41
774.211	0.34
774.386	0.39
774.562	0.3
774.737	0.52
774.912	0.19
775.087	0.34
775.263	0.21
775.438	0.24
775.613	0.29
775.788	0.29
775.964	0.31
776.139	0.88
776.314	0.01
776.489	0.3
776.664	0.29
776.839	0.13
777.014	0.42
777.19	0.3
777.365	0.64
777.54	0.68
777.715	0.24
777.89	0.19
778.065	0.14
778.24	0.33
778.415	0.39
778.59	0.13
778.765	0.12
778.94	0.32
779.115	0.15
779.289	0.18
779.464	0.27
779.639	0.38
779.814	0.02
779.989	0.14
780.164	0.56
780.339	0.47
780.513	0.13
780.688	0.27
780.863	0.48
781.038	0.43
781.212	0.19
781.387	0.43
781.562	0.59
781.737	0.06
781.911	0.54
782.086	0.24
782.261	0.27
782.435	0.53
782.61	0.35
782.784	0.12
782.959	0.63
783.134	0.18
783.308	0.01
783.483	0.18
783.657	0.54
783.832	0.57
784.006	0.09
784.181	0.37
784.355	0.41
784.53	0.13
784.704	0.05
784.878	0.69
785.053	0.41
785.227	0.61
785.402	0.67
785.576	0.22
785.75	0.33
785.925	0.17
786.099	0.44
786.273	0.31
786.448	0.67
786.622	0.58
786.796	0.3
786.97	0.19
787.145	0.79
787.319	-0.08
787.493	0.44
787.667	-0.09
787.841	0.28
788.015	0.69
788.19	0.31
788.364	0.53
788.538	0.55
788.712	0.48
788.886	0.39
789.06	0.41
789.234	0.59
789.408	0.14
789.582	0.16
789.756	0.29
789.93	0.21
790.104	0.18
790.278	0.31
790.452	0.14
790.626	0.51
790.8	0.15
790.973	0.47
791.147	0.5
791.321	0.64
791.495	0.53
791.669	0.43
791.843	0.41
792.016	0.21
792.19	0.73
792.364	0.14
792.538	0.83
792.711	0.6
792.885	0.19
793.059	0.05
793.233	-0.29
793.406	0.59
793.58	0.24
793.754	0.42
793.927	0.19
794.101	0.55
794.274	0.36
794.448	0.58
794.622	0.06
794.795	0.73
794.969	0.29
795.142	0.81
795.316	0.26
795.489	0.14
795.663	0.72
795.836	0.7
796.009	0.26
796.183	0.58
796.356	0.58
796.53	0.32
796.703	0.29
796.876	1
797.05	0.05
797.223	0.27
797.396	0.37
797.57	0.73
797.743	0.81
797.916	0.52
798.09	0.39
798.263	0.67
798.436	0.57
798.609	0.18
798.782	0.37
798.956	0.46
799.129	0.38
799.302	0.35
799.475	0.12
799.648	0.01
799.821	0.29
799.994	0.53
800.167	0.09
800.34	0.55
800.514	0.75
800.687	0.43
800.86	0.47
801.033	0.22
801.206	0.52
801.379	0.01
801.551	0.72
801.724	0.5
801.897	0.85
802.07	0.36
802.243	0.13
802.416	0.27
802.589	0.4
802.762	0.64
802.935	0.65
803.107	0.48
803.28	0.66
803.453	0.71
803.626	0.27
803.798	0.32
803.971	0.33
804.144	0.3
804.317	0.57
804.489	0.61
804.662	0.33
804.835	0.38
805.007	-0.04
805.18	0.91
805.353	0.6
805.525	0.05
805.698	0.06
805.87	0.76
806.043	0.79
806.215	-0.22
806.388	0.08
806.56	0.32
806.733	0.49
806.905	0.58
807.078	0.22
807.25	0.16
807.423	0.93
807.595	0.49
807.768	0.62
807.94	0.46
808.112	0.23
808.285	0.59
808.457	0.52
808.629	0.33
808.802	0.55
808.974	0.36
809.146	0.31
809.318	0.52
809.491	0.41
809.663	0.55
809.835	-0.18
810.007	0.69
810.18	0.44
810.352	-0.2
810.524	0.38
810.696	0.87
810.868	0.95
811.04	0.27
811.212	0.19
811.384	0.62
811.556	0.5
811.728	0.48
811.901	1.04
812.073	0.08
812.245	0.49
812.417	0.66
812.589	-0.23
812.76	0.8
812.932	0.85
813.104	0.71
813.276	0.38
813.448	1.22
813.62	0.38
813.792	0.57
813.964	0.39
814.136	0.58
814.307	0.53
814.479	0
814.651	0.37
814.823	1.64
814.995	0.44
815.166	0.6
815.338	0.24
815.51	-0.14
815.681	1.27
815.853	0.87
816.025	0.23
816.196	1.17
816.368	0.95
816.54	0.12
816.711	0.07
816.883	0.86
817.054	1.87
817.226	-0.15
817.398	0.02
817.569	0.31
817.741	0.79
817.912	0.4
818.084	0.47
818.255	0.55
818.426	-0.13
818.598	0.64
818.769	0.07
818.941	0.72
819.112	1.31
819.283	0.43
819.455	-0.08
819.626	0.26
819.798	0.89
819.969	0.84
820.14	0.35
820.311	0.02
820.483	0.56
820.654	0.43
820.825	0.3
820.996	0.15
821.168	0.23
821.339	0.33
821.51	-0.17
821.681	0.19
821.852	0.74
822.023	0.11
822.195	0.08
822.366	1.12
822.537	0.36
822.708	0.44
822.879	0.13
823.05	1.15
823.221	0.67
823.392	0.72
823.563	0.68
823.734	0.59
823.905	0.33
824.076	0.09
824.247	0.16
824.418	0.17
824.589	0.97
824.759	0.46
824.93	0.36
825.101	-0.38
825.272	1.65
825.443	1.12
825.614	0.6
825.784	-0.51
825.955	1.89
826.126	0.49
826.297	0.67
826.467	1.68
826.638	2.07
826.809	-0.03
826.98	1.02
827.15	0.56
827.321	1
827.492	1.4
827.662	0.74
827.833	1.56
828.003	0.83
828.174	0.48
828.345	-0.13
828.515	1.7
828.686	0.52
828.856	0.5
829.027	0.6
829.197	1.19
829.368	0.57
829.538	0.18
829.709	0.16
829.879	0.87
830.049	0.97
830.22	0
830.39	0.61
830.56	0.93
830.731	0.31
830.901	0.26
831.072	0.21
831.242	0.85
831.412	0.61
831.582	0.34
831.753	-0.62
831.923	1.69
832.093	0.47
832.263	0.12
832.434	0.01
832.604	0.39
832.774	1.22
832.944	0.29
833.114	0.2
833.284	1.63
833.454	-0.02
833.624	0.14
833.795	0.2
833.965	1.76
834.135	1.64
834.305	0.08
834.475	-0.49
834.645	0.95
834.815	0.32
834.985	0.33
835.155	0.34
835.325	0.66
835.494	0.48
835.664	0.18
835.834	0.19
836.004	0.23
836.174	1.52
836.344	0.2
836.514	-0.22
836.684	0.3
836.853	0.96
837.023	1.28
837.193	-0.25
837.363	1.51
837.532	2.41
837.702	0.62
837.872	0.46
838.041	1.17
838.211	2.5
838.381	0.6
838.55	0.9
838.72	3.17
838.89	2.03
839.059	0.05
839.229	0.37
839.398	2.86
839.568	0.54
839.738	0.39
839.907	2.08
840.077	1.26
840.246	0.29
840.416	-0.13
840.585	-0.48
840.755	2.4
840.924	1.27
841.093	0.3
841.263	0.14
841.432	0.36
841.602	0.55
841.771	0.28
841.94	0.71
842.11	2.4
842.279	1.39
842.448	-0.01
842.617	-0.47
842.787	2.16
842.956	-0.6
843.125	0.44
843.294	0.31
843.464	1.67
843.633	0.84
843.802	-0.39
843.971	0.58
844.14	0.93
844.309	1.05
844.479	-0.7
844.648	-0.94
844.817	0.67
844.986	1.3
845.155	-0.45
845.324	0.73
845.493	0.46
845.662	0.34
845.831	1.47
846	1.47
846.169	0.25
846.338	2.33
846.507	1.36
846.676	0.63
846.844	0.45
847.013	1.69
847.182	0.84
847.351	-0.36
847.52	1.28
847.689	1.39
847.858	0.63
848.026	-0.01
848.195	0.81
848.364	1
848.533	0.46
848.701	-0.07
848.87	1.02
849.039	2.68
849.207	1.63
849.376	2.37
849.545	2.82
849.713	-0.07
849.882	0.64
850.051	0.27
850.219	1.41
850.388	2.14
850.556	0.01
850.725	-0.23
850.893	1.75
851.062	-0.05
851.23	1.2
851.399	-0.19
851.567	0.54
851.736	1.67
851.904	-0.96
852.073	1.28
852.241	2.13
852.41	1.48
852.578	0.92
852.746	-0.13
852.915	0.8
853.083	0.88
853.251	-0.14
853.42	0.44
853.588	1.35
853.756	1.49
853.924	0.54
854.093	0.19
854.261	1.03
854.429	-0.52
854.597	1.28
854.765	0.66
854.934	2.56
855.102	2.33
855.27	-0.05
855.438	2.75
855.606	2.91
855.774	2.72
855.942	-0.53
856.11	-0.23
856.278	0.44
856.446	1.09
856.614	0.97
856.782	0.16
856.95	1.92
857.118	1.6
857.286	1.16
857.454	0.81
857.622	2.49
857.79	1.21
857.958	0.05
858.126	0.47
858.294	-0.65
858.462	0.66
858.629	0.88
858.797	-0.03
858.965	1.03
859.133	1.24
859.301	0.44
859.468	0.98
859.636	-0.44
859.804	2.83
859.971	1.76
860.139	-0.08
860.307	3.22
860.474	1.13
860.642	0.53
860.81	-0.14
860.977	1.13
861.145	2.35
861.313	2.04
861.48	0
861.648	2.79
861.815	-0.13
861.983	-0.96
862.15	0.02
862.318	2.87
862.485	2.81
862.653	-0.51
862.82	-0.43
862.988	3.3
863.155	2.15
863.322	0.09
863.49	-0.69
863.657	0.86
863.824	3.85
863.992	1.12
864.159	1.12
864.326	2.72
864.494	0.68
864.661	3.64
864.828	0.5
864.996	3.08
865.163	2.44
865.33	-0.38
865.497	-2.35
865.664	0.49
865.832	-1.8
865.999	1.76
866.166	0.06
866.333	-0.41
866.5	0.45
866.667	0.16
866.834	1.91
867.001	1.75
867.168	-0.04
867.335	0.91
867.502	-0.44
867.669	0.84
867.836	4.45
868.003	-0.05
868.17	3.22
868.337	2.88
868.504	3.77
868.671	-0.37
868.838	1.35
869.005	2.43
869.172	0.71
869.339	1.84
869.505	0.7
869.672	1.73
869.839	3.53
870.006	1.6
870.173	-1.95
870.339	3.92
870.506	4.57
870.673	0.08
870.84	1.44
871.006	1.78
871.173	1.93
871.34	1.39
871.506	-0.78
871.673	1.86
871.839	-0.39
872.006	1.64
872.173	-0.03
872.339	0.88
872.506	4.11
872.672	2.15
872.839	-1.13
873.005	2.09
873.172	4.06
873.338	0.77
873.505	1.33
873.671	0.66
873.838	4.7
874.004	-1.01
874.171	-0.2
874.337	1.77
874.503	4.11
874.67	-0.01
874.836	0.97
875.002	4.88
875.169	4.54
875.335	1.28
875.501	1.74
875.668	1.5
875.834	2.63
876	0.34
876.166	2.4
876.332	2.72
876.499	4.54
876.665	1.55
876.831	1.5
876.997	4.51
877.163	0.81
877.329	0.63
877.495	1.09
877.662	2.11
877.828	-0.53
877.994	1.04
878.16	-2.08
878.326	1.54
878.492	1.47
878.658	0.1
878.824	1.19
878.99	1.55
879.156	-0.16
879.322	3.74
879.487	-0.24
879.653	3.15
879.819	3.12
879.985	-1.02
880.151	-0.33
880.317	3.05
880.483	1.11
880.648	2.79
880.814	0.06
880.98	2.48
881.146	-2.6
881.312	1.04
881.477	1.64
881.643	2.81
881.809	2.87
881.974	2.45
882.14	-1.7
882.306	1.1
882.471	5.11
882.637	1.85
882.803	1.84
882.968	4.34
883.134	4.76
883.299	1.67
883.465	1.44
883.63	4
883.796	0.83
883.961	3.85
884.127	-0.14
884.292	-3.17
884.458	-0.81
884.623	-0.81
