Data from Apollo_Calib_20240827__AbsoluteIrradiance__766__11-55-00-616.txt Node

Date: Wed Aug 28 11:55:00 BST 2024
User: biology
Spectrometer: FLMT08252
Trigger mode: 0
Integration Time (sec): 5.000000E-1
Scans to average: 5
Electric dark correction enabled: true
Nonlinearity correction enabled: false
Boxcar width: 0
XAxis mode: Wavelengths
Number of Pixels in Spectrum: 3648
>>>>>Begin Spectral Data<<<<<
179.588	-0
179.809	-0
180.03	-0
180.251	-0
180.473	-0
180.694	0
180.915	0
181.136	-0
181.357	0
181.578	-0
181.799	-0
182.02	-0
182.241	0
182.462	-0
182.683	0
182.904	-0
183.125	-0
183.346	0
183.567	0
183.788	0
184.009	0
184.23	0
184.451	0
184.672	0
184.892	0
185.113	0
185.334	0
185.555	0
185.776	0
185.996	0
186.217	0
186.438	0
186.659	0
186.879	0
187.1	0
187.321	0
187.541	0
187.762	0
187.983	0
188.203	0
188.424	0
188.644	0
188.865	0
189.086	0
189.306	0
189.527	0
189.747	0
189.968	0
190.188	0
190.409	0
190.629	0
190.849	0
191.07	0
191.29	0
191.511	0
191.731	0
191.951	0
192.172	0
192.392	0
192.612	0
192.833	0
193.053	0
193.273	0
193.493	0
193.714	0
193.934	0
194.154	0
194.374	0
194.594	0
194.815	0
195.035	0
195.255	0
195.475	0
195.695	0
195.915	0
196.135	0
196.355	0
196.575	0
196.795	0
197.015	0
197.235	0
197.455	0
197.675	0
197.895	0
198.115	0
198.335	0
198.555	0
198.775	0
198.995	0
199.214	0
199.434	0
199.654	0
199.874	0
200.094	3.13
200.313	2.22
200.533	1.67
200.753	1.08
200.973	3.5
201.192	3.17
201.412	1.24
201.632	1.62
201.851	2.87
202.071	1.7
202.291	1.48
202.51	1.27
202.73	2.61
202.95	1.92
203.169	1.31
203.389	1.63
203.608	1.73
203.828	0.92
204.047	1.3
204.267	2.05
204.486	1.77
204.706	1.9
204.925	1.23
205.145	1.44
205.364	2.03
205.583	2.12
205.803	1.17
206.022	0.82
206.242	1.66
206.461	1.47
206.68	1.12
206.9	1.56
207.119	2.17
207.338	1.64
207.557	1.07
207.777	1.2
207.996	0.91
208.215	2.25
208.434	0.91
208.654	0.68
208.873	1.33
209.092	1.88
209.311	1.12
209.53	1.01
209.749	1.41
209.968	0.93
210.187	0.7
210.407	0.66
210.626	1.06
210.845	1.23
211.064	1.1
211.283	0.75
211.502	1.32
211.721	1.1
211.94	1.01
212.159	1.07
212.377	1.18
212.596	1.53
212.815	1.12
213.034	1.09
213.253	1.09
213.472	0.97
213.691	0.98
213.91	0.47
214.128	0.64
214.347	1.4
214.566	0.47
214.785	0.46
215.003	1.17
215.222	1.11
215.441	0.87
215.66	0.34
215.878	1.08
216.097	1.29
216.316	0.62
216.534	0.8
216.753	1.15
216.972	0.7
217.19	0.65
217.409	0.52
217.627	0.74
217.846	0.67
218.064	0.87
218.283	0.6
218.501	1.26
218.72	1.07
218.938	0.49
219.157	0.59
219.375	0.88
219.594	0.91
219.812	0.45
220.031	0.33
220.249	1.3
220.467	1.03
220.686	0.65
220.904	0.37
221.122	0.52
221.341	1.07
221.559	0.75
221.777	0.34
221.995	0.84
222.214	0.84
222.432	0.58
222.65	0.72
222.868	0.71
223.086	0.77
223.305	0.85
223.523	0.54
223.741	0.94
223.959	0.45
224.177	0.28
224.395	0.54
224.613	0.72
224.831	0.82
225.049	0.33
225.267	0.66
225.485	0.68
225.703	0.46
225.921	0.51
226.139	0.55
226.357	0.82
226.575	0.75
226.793	0.57
227.011	1.33
227.229	0.76
227.447	0.71
227.665	0.58
227.883	0.31
228.1	0.48
228.318	0.69
228.536	0.19
228.754	0.56
228.972	0.59
229.189	0.57
229.407	0.43
229.625	0.52
229.843	0.75
230.06	0.7
230.278	0.47
230.496	0.55
230.713	0.63
230.931	0.73
231.149	0.42
231.366	0.3
231.584	0.52
231.801	0.89
232.019	0.49
232.236	0.33
232.454	0.33
232.671	0.54
232.889	0.47
233.106	0.34
233.324	0.49
233.541	0.45
233.759	0.53
233.976	0.35
234.194	0.42
234.411	0.54
234.628	0.26
234.846	0.48
235.063	0.53
235.28	0.47
235.498	0.41
235.715	0.33
235.932	0.67
236.149	0.5
236.367	0.34
236.584	0.57
236.801	0.46
237.018	0.49
237.236	0.51
237.453	0.25
237.67	0.69
237.887	0.43
238.104	0.43
238.321	0.33
238.538	0.4
238.755	0.55
238.973	0.24
239.19	0.44
239.407	0.5
239.624	0.51
239.841	0.36
240.058	0.22
240.275	0.43
240.492	0.41
240.709	0.46
240.925	0.4
241.142	0.37
241.359	0.35
241.576	0.24
241.793	0.38
242.01	0.4
242.227	0.53
242.444	0.48
242.66	0.5
242.877	0.46
243.094	0.35
243.311	0.49
243.527	0.36
243.744	0.48
243.961	0.5
244.178	0.29
244.394	0.37
244.611	0.49
244.828	0.64
245.044	0.29
245.261	0.31
245.477	0.47
245.694	0.58
245.911	0.27
246.127	0.38
246.344	0.58
246.56	0.58
246.777	0.34
246.993	0.4
247.21	0.48
247.426	0.49
247.643	0.37
247.859	0.27
248.076	0.33
248.292	0.64
248.508	0.3
248.725	0.39
248.941	0.44
249.157	0.62
249.374	0.35
249.59	0.35
249.806	0.38
250.023	0.51
250.239	0.22
250.455	0.28
250.671	0.4
250.888	0.44
251.104	0.4
251.32	0.29
251.536	0.39
251.752	0.33
251.969	0.35
252.185	0.43
252.401	0.55
252.617	0.45
252.833	0.32
253.049	0.29
253.265	0.43
253.481	0.43
253.697	0.28
253.913	0.25
254.129	0.47
254.345	0.34
254.561	0.26
254.777	0.35
254.993	0.43
255.209	0.41
255.425	0.3
255.641	0.27
255.857	0.47
256.073	0.43
256.288	0.29
256.504	0.24
256.72	0.42
256.936	0.49
257.152	0.29
257.367	0.28
257.583	0.41
257.799	0.42
258.015	0.34
258.23	0.34
258.446	0.51
258.662	0.29
258.877	0.29
259.093	0.26
259.309	0.39
259.524	0.39
259.74	0.26
259.955	0.2
260.171	0.38
260.387	0.34
260.602	0.39
260.818	0.41
261.033	0.25
261.249	0.31
261.464	0.28
261.68	0.17
261.895	0.42
262.11	0.45
262.326	0.24
262.541	0.26
262.757	0.39
262.972	0.37
263.187	0.32
263.403	0.31
263.618	0.42
263.833	0.29
264.049	0.22
264.264	0.35
264.479	0.35
264.694	0.47
264.91	0.24
265.125	0.3
265.34	0.42
265.555	0.56
265.77	0.35
265.986	0.31
266.201	0.39
266.416	0.48
266.631	0.26
266.846	0.31
267.061	0.42
267.276	0.42
267.491	0.14
267.706	0.37
267.921	0.38
268.136	0.37
268.351	0.31
268.566	0.27
268.781	0.34
268.996	0.38
269.211	0.34
269.426	0.29
269.641	0.34
269.856	0.36
270.071	0.24
270.285	0.15
270.5	0.4
270.715	0.37
270.93	0.28
271.145	0.24
271.359	0.41
271.574	0.22
271.789	0.27
272.004	0.26
272.218	0.3
272.433	0.34
272.648	0.29
272.862	0.38
273.077	0.33
273.292	0.32
273.506	0.19
273.721	0.3
273.936	0.35
274.15	0.43
274.365	0.23
274.579	0.35
274.794	0.31
275.008	0.38
275.223	0.2
275.437	0.25
275.652	0.38
275.866	0.32
276.081	0.33
276.295	0.33
276.509	0.32
276.724	0.33
276.938	0.23
277.153	0.31
277.367	0.33
277.581	0.24
277.796	0.26
278.01	0.18
278.224	0.32
278.438	0.39
278.653	0.19
278.867	0.2
279.081	0.33
279.295	0.31
279.51	0.24
279.724	0.17
279.938	0.3
280.152	0.29
280.366	0.22
280.58	0.29
280.794	0.44
281.008	0.36
281.222	0.32
281.437	0.45
281.651	0.3
281.865	0.34
282.079	0.26
282.293	0.17
282.507	0.24
282.721	0.28
282.935	0.25
283.148	0.18
283.362	0.23
283.576	0.21
283.79	0.29
284.004	0.21
284.218	0.36
284.432	0.18
284.646	0.31
284.859	0.24
285.073	0.21
285.287	0.26
285.501	0.27
285.714	0.25
285.928	0.25
286.142	0.31
286.356	0.22
286.569	0.23
286.783	0.34
286.997	0.31
287.21	0.26
287.424	0.28
287.637	0.26
287.851	0.26
288.065	0.3
288.278	0.21
288.492	0.27
288.705	0.24
288.919	0.29
289.132	0.18
289.346	0.38
289.559	0.21
289.773	0.16
289.986	0.25
290.2	0.23
290.413	0.37
290.626	0.19
290.84	0.19
291.053	0.29
291.267	0.32
291.48	0.28
291.693	0.24
291.906	0.25
292.12	0.3
292.333	0.19
292.546	0.22
292.76	0.3
292.973	0.3
293.186	0.27
293.399	0.21
293.612	0.28
293.826	0.26
294.039	0.25
294.252	0.25
294.465	0.26
294.678	0.27
294.891	0.24
295.104	0.23
295.317	0.23
295.53	0.27
295.743	0.25
295.956	0.23
296.169	0.34
296.382	0.31
296.595	0.22
296.808	0.19
297.021	0.32
297.234	0.32
297.447	0.26
297.66	0.28
297.873	0.31
298.086	0.3
298.299	0.17
298.511	0.15
298.724	0.22
298.937	0.21
299.15	0.19
299.363	0.24
299.575	0.27
299.788	0.25
300.001	0.21
300.213	0.22
300.426	0.23
300.639	0.21
300.852	0.17
301.064	0.29
301.277	0.32
301.489	0.31
301.702	0.31
301.915	0.28
302.127	0.25
302.34	0.27
302.552	0.27
302.765	0.2
302.977	0.28
303.19	0.2
303.402	0.2
303.615	0.19
303.827	0.22
304.04	0.27
304.252	0.31
304.464	0.22
304.677	0.38
304.889	0.29
305.102	0.24
305.314	0.16
305.526	0.27
305.739	0.29
305.951	0.19
306.163	0.2
306.375	0.3
306.588	0.22
306.8	0.2
307.012	0.12
307.224	0.21
307.436	0.33
307.649	0.17
307.861	0.23
308.073	0.25
308.285	0.21
308.497	0.21
308.709	0.16
308.921	0.28
309.133	0.34
309.346	0.18
309.558	0.17
309.77	0.28
309.982	0.32
310.194	0.25
310.406	0.22
310.617	0.3
310.829	0.24
311.041	0.29
311.253	0.15
311.465	0.22
311.677	0.24
311.889	0.19
312.101	0.17
312.313	0.29
312.524	0.33
312.736	0.15
312.948	0.23
313.16	0.3
313.372	0.29
313.583	0.25
313.795	0.22
314.007	0.22
314.218	0.27
314.43	0.24
314.642	0.17
314.853	0.14
315.065	0.29
315.277	0.22
315.488	0.26
315.7	0.26
315.912	0.28
316.123	0.27
316.335	0.2
316.546	0.35
316.758	0.25
316.969	0.18
317.181	0.27
317.392	0.21
317.604	0.31
317.815	0.21
318.026	0.18
318.238	0.17
318.449	0.2
318.661	0.16
318.872	0.17
319.083	0.18
319.295	0.29
319.506	0.2
319.717	0.24
319.929	0.26
320.14	0.23
320.351	0.22
320.562	0.22
320.774	0.25
320.985	0.25
321.196	0.21
321.407	0.18
321.618	0.28
321.829	0.27
322.041	0.27
322.252	0.22
322.463	0.2
322.674	0.27
322.885	0.17
323.096	0.2
323.307	0.21
323.518	0.25
323.729	0.18
323.94	0.21
324.151	0.21
324.362	0.25
324.573	0.24
324.784	0.25
324.995	0.24
325.206	0.26
325.417	0.25
325.628	0.19
325.838	0.21
326.049	0.23
326.26	0.26
326.471	0.21
326.682	0.26
326.892	0.26
327.103	0.16
327.314	0.21
327.525	0.34
327.735	0.26
327.946	0.23
328.157	0.17
328.368	0.25
328.578	0.25
328.789	0.26
328.999	0.25
329.21	0.21
329.421	0.27
329.631	0.16
329.842	0.16
330.052	0.25
330.263	0.27
330.473	0.21
330.684	0.2
330.894	0.23
331.105	0.23
331.315	0.26
331.526	0.18
331.736	0.33
331.947	0.26
332.157	0.25
332.367	0.13
332.578	0.24
332.788	0.26
332.999	0.27
333.209	0.2
333.419	0.16
333.629	0.26
333.84	0.27
334.05	0.25
334.26	0.3
334.47	0.26
334.681	0.26
334.891	0.2
335.101	0.27
335.311	0.37
335.521	0.21
335.732	0.2
335.942	0.29
336.152	0.24
336.362	0.23
336.572	0.25
336.782	0.26
336.992	0.18
337.202	0.26
337.412	0.18
337.622	0.27
337.832	0.28
338.042	0.23
338.252	0.17
338.462	0.22
338.672	0.24
338.882	0.21
339.092	0.21
339.302	0.32
339.511	0.28
339.721	0.2
339.931	0.13
340.141	0.28
340.351	0.33
340.561	0.28
340.77	0.25
340.98	0.25
341.19	0.28
341.4	0.19
341.609	0.14
341.819	0.16
342.029	0.18
342.238	0.25
342.448	0.2
342.658	0.25
342.867	0.22
343.077	0.18
343.286	0.21
343.496	0.2
343.706	0.3
343.915	0.23
344.125	0.24
344.334	0.25
344.544	0.17
344.753	0.19
344.963	0.19
345.172	0.21
345.381	0.2
345.591	0.19
345.8	0.2
346.01	0.28
346.219	0.3
346.428	0.05
346.638	0.19
346.847	0.2
347.056	0.29
347.266	0.21
347.475	0.2
347.684	0.24
347.893	0.27
348.103	0.27
348.312	0.18
348.521	0.23
348.73	0.25
348.94	0.25
349.149	0.17
349.358	0.21
349.567	0.22
349.776	0.21
349.985	0.19
350.194	0.24
350.403	0.24
350.612	0.15
350.821	0.2
351.03	0.26
351.239	0.16
351.448	0.24
351.657	0.18
351.866	0.33
352.075	0.25
352.284	0.22
352.493	0.16
352.702	0.29
352.911	0.25
353.12	0.24
353.329	0.19
353.538	0.22
353.746	0.2
353.955	0.24
354.164	0.26
354.373	0.19
354.582	0.3
354.79	0.23
354.999	0.24
355.208	0.2
355.416	0.31
355.625	0.18
355.834	0.2
356.042	0.24
356.251	0.21
356.46	0.19
356.668	0.25
356.877	0.27
357.085	0.26
357.294	0.12
357.503	0.22
357.711	0.18
357.92	0.36
358.128	0.22
358.337	0.22
358.545	0.25
358.754	0.2
358.962	0.26
359.17	0.22
359.379	0.23
359.587	0.28
359.796	0.24
360.004	0.29
360.212	0.25
360.421	0.25
360.629	0.24
360.837	0.16
361.046	0.29
361.254	0.35
361.462	0.25
361.67	0.19
361.879	0.25
362.087	0.3
362.295	0.21
362.503	0.24
362.711	0.19
362.92	0.2
363.128	0.22
363.336	0.18
363.544	0.16
363.752	0.19
363.96	0.16
364.168	0.18
364.376	0.25
364.584	0.21
364.792	0.31
365	0.27
365.208	0.24
365.416	0.26
365.624	0.3
365.832	0.21
366.04	0.32
366.248	0.25
366.456	0.27
366.664	0.24
366.872	0.2
367.079	0.23
367.287	0.24
367.495	0.27
367.703	0.22
367.911	0.23
368.118	0.21
368.326	0.19
368.534	0.21
368.742	0.25
368.949	0.21
369.157	0.18
369.365	0.26
369.572	0.17
369.78	0.17
369.988	0.21
370.195	0.2
370.403	0.28
370.61	0.2
370.818	0.24
371.026	0.33
371.233	0.2
371.441	0.22
371.648	0.18
371.856	0.28
372.063	0.22
372.271	0.22
372.478	0.2
372.685	0.2
372.893	0.31
373.1	0.24
373.308	0.21
373.515	0.34
373.722	0.28
373.93	0.18
374.137	0.24
374.344	0.31
374.552	0.29
374.759	0.22
374.966	0.25
375.173	0.21
375.381	0.31
375.588	0.24
375.795	0.15
376.002	0.21
376.209	0.21
376.417	0.2
376.624	0.21
376.831	0.23
377.038	0.23
377.245	0.14
377.452	0.23
377.659	0.24
377.866	0.21
378.073	0.19
378.28	0.21
378.487	0.28
378.694	0.28
378.901	0.24
379.108	0.23
379.315	0.3
379.522	0.31
379.729	0.27
379.936	0.23
380.143	0.27
380.35	0.28
380.557	0.24
380.763	0.27
380.97	0.27
381.177	0.25
381.384	0.28
381.591	0.28
381.797	0.28
382.004	0.26
382.211	0.26
382.418	0.19
382.624	0.27
382.831	0.27
383.038	0.23
383.244	0.26
383.451	0.21
383.658	0.28
383.864	0.23
384.071	0.27
384.277	0.32
384.484	0.21
384.69	0.28
384.897	0.25
385.103	0.22
385.31	0.25
385.516	0.21
385.723	0.17
385.929	0.22
386.136	0.23
386.342	0.27
386.549	0.19
386.755	0.29
386.961	0.27
387.168	0.23
387.374	0.23
387.58	0.28
387.787	0.25
387.993	0.26
388.199	0.22
388.406	0.28
388.612	0.24
388.818	0.21
389.024	0.23
389.231	0.27
389.437	0.32
389.643	0.25
389.849	0.25
390.055	0.3
390.261	0.31
390.467	0.31
390.674	0.22
390.88	0.24
391.086	0.31
391.292	0.2
391.498	0.33
391.704	0.23
391.91	0.27
392.116	0.26
392.322	0.2
392.528	0.3
392.734	0.27
392.94	0.28
393.146	0.27
393.352	0.28
393.557	0.24
393.763	0.29
393.969	0.33
394.175	0.25
394.381	0.28
394.587	0.25
394.792	0.31
394.998	0.33
395.204	0.35
395.41	0.24
395.615	0.27
395.821	0.33
396.027	0.31
396.233	0.29
396.438	0.34
396.644	0.36
396.85	0.29
397.055	0.33
397.261	0.29
397.466	0.41
397.672	0.3
397.878	0.36
398.083	0.34
398.289	0.28
398.494	0.38
398.7	0.37
398.905	0.21
399.111	0.41
399.316	0.25
399.522	0.32
399.727	0.33
399.932	0.3
400.138	0.23
400.343	0.37
400.549	0.3
400.754	0.29
400.959	0.33
401.165	0.3
401.37	0.35
401.575	0.47
401.78	0.3
401.986	0.35
402.191	0.3
402.396	0.33
402.601	0.36
402.807	0.38
403.012	0.34
403.217	0.43
403.422	0.36
403.627	0.36
403.832	0.35
404.037	0.44
404.243	0.36
404.448	0.32
404.653	0.33
404.858	0.41
405.063	0.41
405.268	0.38
405.473	0.34
405.678	0.37
405.883	0.56
406.088	0.48
406.293	0.32
406.498	0.4
406.703	0.46
406.907	0.43
407.112	0.38
407.317	0.44
407.522	0.53
407.727	0.41
407.932	0.44
408.136	0.59
408.341	0.45
408.546	0.48
408.751	0.52
408.956	0.54
409.16	0.56
409.365	0.55
409.57	0.58
409.774	0.58
409.979	0.59
410.184	0.64
410.388	0.56
410.593	0.72
410.798	0.68
411.002	0.63
411.207	0.68
411.411	0.71
411.616	0.67
411.82	0.68
412.025	0.74
412.229	0.7
412.434	0.86
412.638	0.79
412.843	0.81
413.047	0.81
413.252	0.8
413.456	0.85
413.66	0.97
413.865	0.88
414.069	0.99
414.273	0.94
414.478	0.89
414.682	1
414.886	1.04
415.091	1.07
415.295	1.06
415.499	1.21
415.703	1.15
415.908	1.21
416.112	1.14
416.316	1.38
416.52	1.31
416.724	1.26
416.929	1.32
417.133	1.59
417.337	1.46
417.541	1.51
417.745	1.57
417.949	1.73
418.153	1.72
418.357	1.78
418.561	1.94
418.765	1.85
418.969	2.04
419.173	2.04
419.377	1.98
419.581	2.27
419.785	2.22
419.989	2.23
420.193	2.35
420.397	2.41
420.601	2.55
420.804	2.61
421.008	2.62
421.212	2.77
421.416	2.76
421.62	2.74
421.823	2.83
422.027	3.01
422.231	3
422.435	2.97
422.638	2.99
422.842	3.12
423.046	3.15
423.249	3.36
423.453	3.35
423.657	3.45
423.86	3.58
424.064	3.66
424.268	3.79
424.471	3.79
424.675	4.06
424.878	4.12
425.082	4.2
425.285	4.46
425.489	4.35
425.692	4.47
425.896	4.49
426.099	4.64
426.303	4.8
426.506	4.83
426.71	5.09
426.913	5.32
427.116	5.45
427.32	5.5
427.523	5.5
427.726	5.75
427.93	5.9
428.133	6.15
428.336	6.22
428.54	6.34
428.743	6.58
428.946	6.86
429.149	6.91
429.353	6.91
429.556	6.94
429.759	6.96
429.962	7.03
430.165	7.28
430.368	6.98
430.571	7.03
430.775	7.01
430.978	7
431.181	7.15
431.384	7.21
431.587	7.31
431.79	7.72
431.993	7.61
432.196	7.82
432.399	8.12
432.602	8.24
432.805	8.48
433.008	8.87
433.211	8.69
433.414	9.12
433.616	9.12
433.819	9.01
434.022	9.1
434.225	9.36
434.428	9.35
434.631	9.86
434.833	9.47
435.036	9.81
435.239	10.01
435.442	9.93
435.645	10.15
435.847	10.25
436.05	10.6
436.253	10.8
436.455	10.79
436.658	10.62
436.861	10.94
437.063	11.07
437.266	10.99
437.468	11.33
437.671	11.6
437.874	11.67
438.076	11.46
438.279	11.97
438.481	11.99
438.684	12.72
438.886	12.35
439.089	12.52
439.291	12.55
439.494	12.91
439.696	13.04
439.899	13.51
440.101	13.94
440.303	14.01
440.506	14.91
440.708	14.46
440.91	14.65
441.113	14.99
441.315	15.18
441.517	14.91
441.72	15.3
441.922	15.06
442.124	15.04
442.326	15.4
442.529	15.66
442.731	15.52
442.933	15.83
443.135	15.69
443.337	15.67
443.539	16.23
443.742	15.83
443.944	16.46
444.146	16.29
444.348	16.42
444.55	16.17
444.752	16.27
444.954	16.43
445.156	16.38
445.358	16.67
445.56	16.95
445.762	16.8
445.964	17.09
446.166	16.9
446.368	16.9
446.57	16.91
446.772	16.56
446.974	16.42
447.175	16.7
447.377	16.48
447.579	16.78
447.781	16.62
447.983	16.5
448.184	16.16
448.386	16.33
448.588	16
448.79	15.97
448.991	16.22
449.193	16.27
449.395	15.58
449.597	15.31
449.798	15.32
450	14.87
450.202	14.84
450.403	14.87
450.605	14.76
450.806	14.39
451.008	14.24
451.21	14.14
451.411	13.66
451.613	13.05
451.814	13.21
452.016	13.2
452.217	12.5
452.419	12.59
452.62	12.32
452.821	12.15
453.023	12.02
453.224	11.69
453.426	11.38
453.627	10.58
453.828	10.75
454.03	10.79
454.231	10.76
454.432	10.61
454.634	10.4
454.835	9.99
455.036	10.13
455.238	9.64
455.439	9.5
455.64	9.11
455.841	9.01
456.042	9.1
456.244	8.93
456.445	8.55
456.646	8.23
456.847	8.19
457.048	8.1
457.249	8.22
457.45	8
457.651	7.49
457.852	7.33
458.054	7.01
458.255	6.91
458.456	6.98
458.657	6.95
458.858	6.47
459.058	6.42
459.259	6.44
459.46	6.12
459.661	6.13
459.862	6.27
460.063	6.12
460.264	6.03
460.465	5.72
460.666	5.85
460.866	5.47
461.067	5.22
461.268	5.39
461.469	5.26
461.67	5.17
461.87	4.95
462.071	4.99
462.272	4.86
462.473	4.92
462.673	5.01
462.874	4.93
463.075	5.03
463.275	4.84
463.476	4.92
463.676	4.82
463.877	4.73
464.078	4.72
464.278	4.76
464.479	4.65
464.679	4.56
464.88	4.56
465.08	4.46
465.281	4.35
465.481	4.13
465.682	3.89
465.882	4.05
466.083	3.85
466.283	3.88
466.483	3.76
466.684	3.58
466.884	3.54
467.085	3.51
467.285	3.6
467.485	3.49
467.686	3.38
467.886	3.3
468.086	3.29
468.286	3.21
468.487	3.28
468.687	3.09
468.887	3.09
469.087	3.26
469.287	3.13
469.488	2.94
469.688	3.05
469.888	3.05
470.088	3.06
470.288	2.96
470.488	2.88
470.688	2.75
470.888	2.81
471.088	2.57
471.288	2.72
471.488	2.71
471.688	2.67
471.888	2.53
472.088	2.72
472.288	2.62
472.488	2.47
472.688	2.44
472.888	2.5
473.088	2.57
473.288	2.42
473.488	2.39
473.688	2.46
473.887	2.34
474.087	2.31
474.287	2.29
474.487	2.27
474.687	2.32
474.886	2.29
475.086	2.21
475.286	2.21
475.486	2.18
475.685	2.2
475.885	2.13
476.085	2.14
476.284	2.13
476.484	2.16
476.684	2.14
476.883	2.23
477.083	2.12
477.282	1.99
477.482	2.07
477.681	2.1
477.881	2
478.08	2
478.28	1.97
478.479	2.03
478.679	2.05
478.878	1.95
479.078	1.92
479.277	2
479.477	1.97
479.676	1.92
479.875	1.95
480.075	1.84
480.274	1.94
480.473	1.95
480.673	1.93
480.872	2.01
481.071	1.94
481.271	1.93
481.47	1.88
481.669	1.87
481.868	1.87
482.067	1.86
482.267	1.81
482.466	1.84
482.665	1.8
482.864	1.82
483.063	1.84
483.262	1.9
483.461	1.9
483.661	1.97
483.86	1.87
484.059	1.95
484.258	1.93
484.457	1.91
484.656	1.93
484.855	1.99
485.054	1.84
485.253	1.87
485.452	1.83
485.651	1.92
485.849	1.91
486.048	1.92
486.247	1.89
486.446	2
486.645	1.94
486.844	1.96
487.043	1.9
487.241	1.96
487.44	1.95
487.639	2
487.838	1.97
488.037	2.03
488.235	2.09
488.434	2.03
488.633	1.93
488.831	2.04
489.03	2.08
489.229	2.09
489.427	2.1
489.626	2.13
489.825	2.12
490.023	2.15
490.222	2.1
490.42	2.18
490.619	2.21
490.817	2.19
491.016	2.25
491.214	2.24
491.413	2.27
491.611	2.19
491.81	2.24
492.008	2.31
492.207	2.39
492.405	2.37
492.604	2.32
492.802	2.37
493	2.44
493.199	2.43
493.397	2.44
493.595	2.47
493.794	2.46
493.992	2.6
494.19	2.56
494.388	2.62
494.587	2.52
494.785	2.58
494.983	2.52
495.181	2.64
495.379	2.67
495.578	2.75
495.776	2.76
495.974	2.72
496.172	2.75
496.37	2.87
496.568	2.9
496.766	2.82
496.964	2.98
497.162	2.93
497.36	2.97
497.558	3
497.756	3.1
497.954	3.07
498.152	3.08
498.35	3.19
498.548	3.12
498.746	3.14
498.944	3.13
499.142	3.2
499.34	3.24
499.538	3.36
499.736	3.24
499.933	3.37
500.131	3.3
500.329	3.48
500.527	3.46
500.725	3.56
500.922	3.53
501.12	3.57
501.318	3.64
501.516	3.61
501.713	3.71
501.911	3.7
502.109	3.63
502.306	3.81
502.504	3.69
502.701	3.77
502.899	3.83
503.097	4.01
503.294	3.88
503.492	3.99
503.689	4.06
503.887	4
504.084	4.13
504.282	4.08
504.479	4.03
504.677	4.21
504.874	4.23
505.072	4.11
505.269	4.31
505.466	4.32
505.664	4.37
505.861	4.26
506.059	4.35
506.256	4.45
506.453	4.47
506.651	4.59
506.848	4.63
507.045	4.6
507.242	4.58
507.44	4.64
507.637	4.7
507.834	4.66
508.031	4.82
508.229	4.65
508.426	4.71
508.623	4.82
508.82	4.91
509.017	4.87
509.214	4.87
509.411	4.98
509.608	4.94
509.805	5.04
510.003	5.1
510.2	5.09
510.397	5.23
510.594	5.12
510.791	5.2
510.988	5.23
511.184	5.15
511.381	5.06
511.578	5.24
511.775	5.34
511.972	5.32
512.169	5.34
512.366	5.35
512.563	5.45
512.76	5.5
512.956	5.58
513.153	5.44
513.35	5.45
513.547	5.43
513.744	5.57
513.94	5.59
514.137	5.65
514.334	5.67
514.53	5.69
514.727	5.89
514.924	5.75
515.12	5.77
515.317	5.81
515.514	5.77
515.71	5.69
515.907	5.9
516.103	5.95
516.3	5.84
516.497	5.98
516.693	5.95
516.89	5.96
517.086	6.04
517.283	6.03
517.479	5.92
517.676	6.09
517.872	6.09
518.068	6.07
518.265	6.13
518.461	6.04
518.658	6.18
518.854	6.12
519.05	6.24
519.247	6.27
519.443	6.24
519.639	6.36
519.836	6.25
520.032	6.2
520.228	6.34
520.424	6.31
520.621	6.4
520.817	6.42
521.013	6.34
521.209	6.53
521.405	6.48
521.601	6.5
521.798	6.45
521.994	6.48
522.19	6.43
522.386	6.49
522.582	6.52
522.778	6.66
522.974	6.52
523.17	6.54
523.366	6.53
523.562	6.61
523.758	6.63
523.954	6.49
524.15	6.62
524.346	6.7
524.542	6.73
524.738	6.72
524.934	6.81
525.129	6.77
525.325	6.68
525.521	6.67
525.717	6.84
525.913	6.7
526.109	6.75
526.304	6.89
526.5	6.86
526.696	6.87
526.892	6.81
527.087	7.02
527.283	6.92
527.479	6.86
527.674	6.77
527.87	6.91
528.066	6.95
528.261	6.96
528.457	6.86
528.653	6.96
528.848	7.03
529.044	7.11
529.239	6.92
529.435	6.98
529.63	6.88
529.826	6.96
530.021	7.01
530.217	7.06
530.412	6.97
530.608	7.01
530.803	7.06
530.999	6.96
531.194	7.05
531.389	7.09
531.585	7.08
531.78	7.2
531.975	7.14
532.171	7.18
532.366	7.12
532.561	7.14
532.757	7.09
532.952	7.26
533.147	7.06
533.342	7.2
533.538	7.11
533.733	7.28
533.928	7
534.123	7.2
534.318	7.21
534.513	7.23
534.709	7.28
534.904	7.3
535.099	7.26
535.294	7.32
535.489	7.3
535.684	7.22
535.879	7.22
536.074	7.31
536.269	7.3
536.464	7.3
536.659	7.24
536.854	7.22
537.049	7.3
537.244	7.36
537.439	7.29
537.634	7.31
537.828	7.34
538.023	7.33
538.218	7.34
538.413	7.24
538.608	7.37
538.803	7.33
538.997	7.34
539.192	7.39
539.387	7.31
539.582	7.28
539.776	7.28
539.971	7.42
540.166	7.44
540.36	7.26
540.555	7.41
540.75	7.37
540.944	7.41
541.139	7.37
541.334	7.44
541.528	7.39
541.723	7.4
541.917	7.49
542.112	7.38
542.306	7.25
542.501	7.37
542.695	7.33
542.89	7.32
543.084	7.37
543.279	7.4
543.473	7.43
543.668	7.49
543.862	7.28
544.056	7.34
544.251	7.47
544.445	7.51
544.64	7.54
544.834	7.26
545.028	7.12
545.222	7.43
545.417	7.59
545.611	7.46
545.805	7.42
546	7.3
546.194	7.47
546.388	7.51
546.582	7.34
546.776	7.4
546.97	7.48
547.165	7.4
547.359	7.44
547.553	7.37
547.747	7.4
547.941	7.63
548.135	7.4
548.329	7.46
548.523	7.45
548.717	7.38
548.911	7.45
549.105	7.36
549.299	7.54
549.493	7.47
549.687	7.36
549.881	7.54
550.075	7.48
550.269	7.35
550.463	7.53
550.657	7.46
550.85	7.48
551.044	7.41
551.238	7.52
551.432	7.45
551.626	7.54
551.82	7.48
552.013	7.38
552.207	7.54
552.401	7.62
552.594	7.43
552.788	7.45
552.982	7.43
553.176	7.4
553.369	7.56
553.563	7.55
553.756	7.44
553.95	7.57
554.144	7.54
554.337	7.53
554.531	7.39
554.724	7.48
554.918	7.46
555.111	7.47
555.305	7.53
555.498	7.42
555.692	7.59
555.885	7.52
556.079	7.44
556.272	7.46
556.466	7.45
556.659	7.45
556.852	7.56
557.046	7.44
557.239	7.32
557.432	7.49
557.626	7.54
557.819	7.53
558.012	7.55
558.206	7.57
558.399	7.51
558.592	7.46
558.785	7.4
558.979	7.51
559.172	7.5
559.365	7.47
559.558	7.43
559.751	7.42
559.944	7.6
560.138	7.53
560.331	7.54
560.524	7.5
560.717	7.48
560.91	7.49
561.103	7.51
561.296	7.38
561.489	7.46
561.682	7.57
561.875	7.51
562.068	7.57
562.261	7.4
562.454	7.63
562.647	7.46
562.84	7.54
563.032	7.55
563.225	7.44
563.418	7.49
563.611	7.52
563.804	7.45
563.997	7.39
564.19	7.22
564.382	7.56
564.575	7.46
564.768	7.38
564.961	7.58
565.153	7.43
565.346	7.35
565.539	7.54
565.731	7.44
565.924	7.53
566.117	7.58
566.309	7.42
566.502	7.49
566.695	7.38
566.887	7.52
567.08	7.41
567.272	7.53
567.465	7.37
567.657	7.5
567.85	7.38
568.042	7.46
568.235	7.48
568.427	7.27
568.62	7.47
568.812	7.39
569.005	7.52
569.197	7.36
569.389	7.48
569.582	7.48
569.774	7.42
569.966	7.44
570.159	7.32
570.351	7.31
570.543	7.45
570.736	7.44
570.928	7.26
571.12	7.47
571.312	7.36
571.505	7.21
571.697	7.43
571.889	7.35
572.081	7.43
572.273	7.31
572.465	7.33
572.658	7.38
572.85	7.42
573.042	7.36
573.234	7.33
573.426	7.33
573.618	7.3
573.81	7.38
574.002	7.31
574.194	7.37
574.386	7.29
574.578	7.18
574.77	7.3
574.962	7.37
575.154	7.23
575.346	7.24
575.538	7.24
575.729	7.23
575.921	7.31
576.113	7.37
576.305	7.34
576.497	7.36
576.689	7.16
576.88	7.16
577.072	7.43
577.264	7.29
577.456	7.22
577.647	7.24
577.839	7.38
578.031	7.3
578.223	7.23
578.414	7.17
578.606	7.21
578.798	7.28
578.989	7.2
579.181	7.34
579.372	7.25
579.564	7.22
579.755	7.14
579.947	7.13
580.139	7.25
580.33	7.1
580.522	7.25
580.713	7.1
580.905	7.12
581.096	7.27
581.287	7.18
581.479	7.07
581.67	7.19
581.862	7.08
582.053	7.13
582.244	7.01
582.436	7.17
582.627	7.03
582.818	6.98
583.01	7.03
583.201	7.07
583.392	7
583.583	7.05
583.775	6.89
583.966	7
584.157	6.97
584.348	7.05
584.54	7.01
584.731	7.02
584.922	6.97
585.113	6.88
585.304	6.98
585.495	7.01
585.686	7.02
585.877	7
586.068	7.05
586.259	6.96
586.45	6.92
586.641	6.93
586.832	6.96
587.023	6.94
587.214	6.85
587.405	6.93
587.596	6.8
587.787	6.81
587.978	6.87
588.169	6.82
588.36	6.83
588.551	6.83
588.742	6.83
588.932	6.83
589.123	6.65
589.314	6.85
589.505	6.8
589.696	6.78
589.886	6.76
590.077	6.72
590.268	6.69
590.458	6.7
590.649	6.55
590.84	6.74
591.03	6.72
591.221	6.73
591.412	6.58
591.602	6.78
591.793	6.75
591.984	6.66
592.174	6.7
592.365	6.85
592.555	6.53
592.746	6.56
592.936	6.65
593.127	6.6
593.317	6.63
593.508	6.6
593.698	6.53
593.889	6.52
594.079	6.56
594.269	6.47
594.46	6.52
594.65	6.53
594.84	6.51
595.031	6.44
595.221	6.44
595.411	6.43
595.602	6.54
595.792	6.44
595.982	6.3
596.172	6.5
596.363	6.37
596.553	6.39
596.743	6.38
596.933	6.33
597.123	6.3
597.314	6.2
597.504	6.24
597.694	6.33
597.884	6.35
598.074	6.35
598.264	6.25
598.454	6.3
598.644	6.26
598.834	6.19
599.024	6.13
599.214	6.21
599.404	6.28
599.594	6.22
599.784	6.11
599.974	6.22
600.164	6.18
600.354	6.06
600.544	6.07
600.734	6.14
600.924	6.06
601.114	6.02
601.303	6.09
601.493	6.01
601.683	6.06
601.873	6.03
602.063	5.95
602.252	6.03
602.442	5.9
602.632	5.95
602.821	5.91
603.011	5.94
603.201	5.98
603.39	5.92
603.58	5.82
603.77	5.96
603.959	5.98
604.149	5.88
604.339	5.84
604.528	5.9
604.718	5.84
604.907	5.82
605.097	5.74
605.286	5.75
605.476	5.76
605.665	5.79
605.855	5.7
606.044	5.81
606.234	5.72
606.423	5.69
606.612	5.65
606.802	5.6
606.991	5.7
607.181	5.75
607.37	5.66
607.559	5.46
607.749	5.67
607.938	5.59
608.127	5.63
608.316	5.59
608.506	5.52
608.695	5.59
608.884	5.46
609.073	5.53
609.263	5.57
609.452	5.54
609.641	5.4
609.83	5.35
610.019	5.48
610.208	5.38
610.397	5.43
610.586	5.44
610.775	5.33
610.965	5.35
611.154	5.25
611.343	5.29
611.532	5.25
611.721	5.35
611.91	5.21
612.099	5.28
612.287	5.22
612.476	5.12
612.665	5.29
612.854	5.14
613.043	5.2
613.232	5.11
613.421	5.09
613.61	5.09
613.798	5.1
613.987	5.15
614.176	5.08
614.365	5.12
614.554	5.06
614.742	5.14
614.931	4.94
615.12	5.09
615.309	5.01
615.497	4.94
615.686	4.86
615.875	5.01
616.063	4.91
616.252	4.92
616.44	4.94
616.629	4.92
616.818	4.9
617.006	4.84
617.195	4.83
617.383	4.87
617.572	4.81
617.76	4.75
617.949	4.8
618.137	4.87
618.326	4.87
618.514	4.64
618.703	4.59
618.891	4.76
619.079	4.7
619.268	4.73
619.456	4.63
619.644	4.73
619.833	4.6
620.021	4.65
620.209	4.52
620.398	4.59
620.586	4.57
620.774	4.55
620.962	4.55
621.151	4.58
621.339	4.56
621.527	4.38
621.715	4.48
621.903	4.49
622.092	4.4
622.28	4.55
622.468	4.33
622.656	4.46
622.844	4.4
623.032	4.41
623.22	4.31
623.408	4.44
623.596	4.35
623.784	4.42
623.972	4.26
624.16	4.29
624.348	4.38
624.536	4.34
624.724	4.22
624.912	4.27
625.1	4.28
625.288	4.19
625.476	4.15
625.664	4.26
625.851	4.13
626.039	4.18
626.227	4.16
626.415	4.15
626.603	4.07
626.79	4.13
626.978	4.15
627.166	4.13
627.354	4.03
627.541	4.02
627.729	3.96
627.917	4.09
628.104	4
628.292	3.98
628.48	4.02
628.667	3.91
628.855	4.03
629.042	3.99
629.23	3.89
629.418	3.88
629.605	3.91
629.793	3.85
629.98	3.87
630.168	3.81
630.355	3.88
630.543	3.9
630.73	3.7
630.917	3.74
631.105	3.9
631.292	3.78
631.48	3.7
631.667	3.78
631.854	3.68
632.042	3.69
632.229	3.61
632.416	3.71
632.604	3.68
632.791	3.59
632.978	3.66
633.165	3.64
633.353	3.68
633.54	3.65
633.727	3.51
633.914	3.57
634.101	3.45
634.289	3.62
634.476	3.46
634.663	3.48
634.85	3.55
635.037	3.47
635.224	3.41
635.411	3.52
635.598	3.41
635.785	3.42
635.972	3.43
636.159	3.4
636.346	3.4
636.533	3.36
636.72	3.36
636.907	3.33
637.094	3.35
637.281	3.22
637.468	3.32
637.655	3.33
637.842	3.3
638.029	3.24
638.215	3.25
638.402	3.27
638.589	3.15
638.776	3.21
638.963	3.17
639.149	3.26
639.336	3.29
639.523	3.18
639.709	3.16
639.896	3.13
640.083	3.1
640.27	3.16
640.456	3.07
640.643	3.1
640.829	2.97
641.016	3.04
641.203	2.94
641.389	3.03
641.576	3.03
641.762	2.97
641.949	3
642.135	3.05
642.322	3
642.508	2.86
642.695	2.99
642.881	2.97
643.068	2.88
643.254	2.96
643.441	2.93
643.627	2.9
643.813	2.83
644	2.92
644.186	2.8
644.372	2.9
644.559	2.83
644.745	2.77
644.931	2.76
645.118	2.79
645.304	2.78
645.49	2.76
645.676	2.69
645.862	2.77
646.049	2.75
646.235	2.78
646.421	2.87
646.607	2.82
646.793	2.65
646.979	2.63
647.165	2.65
647.352	2.73
647.538	2.64
647.724	2.57
647.91	2.61
648.096	2.65
648.282	2.64
648.468	2.55
648.654	2.63
648.84	2.62
649.026	2.58
649.212	2.45
649.397	2.46
649.583	2.47
649.769	2.56
649.955	2.45
650.141	2.52
650.327	2.45
650.513	2.45
650.698	2.48
650.884	2.37
651.07	2.45
651.256	2.39
651.442	2.4
651.627	2.36
651.813	2.43
651.999	2.37
652.184	2.35
652.37	2.32
652.556	2.34
652.741	2.4
652.927	2.19
653.113	2.27
653.298	2.34
653.484	2.25
653.669	2.25
653.855	2.25
654.04	2.3
654.226	2.28
654.412	2.27
654.597	2.18
654.782	2.24
654.968	2.22
655.153	2.2
655.339	2.19
655.524	2.12
655.71	2.26
655.895	2.2
656.08	2.16
656.266	2.17
656.451	2.12
656.636	2.04
656.822	2.14
657.007	2.12
657.192	2.09
657.378	2.11
657.563	2.08
657.748	2.03
657.933	2.11
658.118	1.99
658.304	2
658.489	2.08
658.674	2.03
658.859	2.01
659.044	2
659.229	2.01
659.414	1.99
659.599	2.01
659.785	1.95
659.97	1.98
660.155	1.98
660.34	1.98
660.525	1.93
660.71	1.92
660.895	1.94
661.08	1.89
661.264	1.86
661.449	1.99
661.634	1.88
661.819	1.9
662.004	1.9
662.189	1.8
662.374	1.82
662.559	1.78
662.743	1.73
662.928	1.8
663.113	1.81
663.298	1.79
663.483	1.75
663.667	1.81
663.852	1.75
664.037	1.84
664.221	1.73
664.406	1.83
664.591	1.79
664.775	1.79
664.96	1.64
665.145	1.72
665.329	1.71
665.514	1.69
665.698	1.65
665.883	1.66
666.068	1.76
666.252	1.71
666.437	1.64
666.621	1.67
666.806	1.72
666.99	1.64
667.174	1.63
667.359	1.71
667.543	1.59
667.728	1.59
667.912	1.53
668.096	1.6
668.281	1.58
668.465	1.6
668.649	1.57
668.834	1.54
669.018	1.57
669.202	1.56
669.387	1.53
669.571	1.62
669.755	1.5
669.939	1.53
670.124	1.5
670.308	1.57
670.492	1.56
670.676	1.53
670.86	1.5
671.044	1.48
671.228	1.52
671.413	1.45
671.597	1.44
671.781	1.45
671.965	1.51
672.149	1.47
672.333	1.48
672.517	1.43
672.701	1.47
672.885	1.52
673.069	1.33
673.253	1.5
673.437	1.4
673.621	1.36
673.804	1.38
673.988	1.4
674.172	1.35
674.356	1.29
674.54	1.39
674.724	1.48
674.908	1.35
675.091	1.38
675.275	1.4
675.459	1.43
675.643	1.32
675.826	1.38
676.01	1.36
676.194	1.36
676.377	1.34
676.561	1.36
676.745	1.32
676.928	1.36
677.112	1.36
677.296	1.29
677.479	1.28
677.663	1.25
677.846	1.32
678.03	1.28
678.213	1.21
678.397	1.27
678.58	1.23
678.764	1.29
678.947	1.13
679.131	1.22
679.314	1.29
679.498	1.26
679.681	1.28
679.865	1.26
680.048	1.2
680.231	1.2
680.415	1.16
680.598	1.21
680.781	1.18
680.965	1.22
681.148	1.22
681.331	1.12
681.514	1.19
681.698	1.16
681.881	1.17
682.064	1.16
682.247	1.16
682.43	1.07
682.614	1.18
682.797	1.23
682.98	1.19
683.163	1.09
683.346	1.12
683.529	1.09
683.712	1.07
683.895	1.14
684.078	1.07
684.261	1.04
684.444	1.14
684.627	1.12
684.81	1.04
684.993	1.07
685.176	1.08
685.359	1.03
685.542	1.02
685.725	1.16
685.908	1.03
686.091	1.05
686.274	1.11
686.457	1.06
686.639	1.03
686.822	1.06
687.005	1.02
687.188	1.04
687.371	1.13
687.553	1.11
687.736	1.04
687.919	1.1
688.102	1.07
688.284	0.99
688.467	0.97
688.65	1.02
688.832	0.95
689.015	0.98
689.197	0.9
689.38	1.05
689.563	1.08
689.745	0.86
689.928	0.91
690.11	0.98
690.293	0.97
690.475	0.88
690.658	0.97
690.84	0.92
691.023	0.9
691.205	0.9
691.388	0.96
691.57	0.97
691.752	0.92
691.935	0.8
692.117	0.83
692.3	0.93
692.482	0.92
692.664	0.86
692.847	0.9
693.029	0.94
693.211	0.91
693.393	0.9
693.576	0.84
693.758	0.93
693.94	0.87
694.122	0.82
694.304	0.82
694.487	0.81
694.669	0.91
694.851	0.75
695.033	0.83
695.215	0.84
695.397	0.85
695.579	0.83
695.761	0.79
695.943	0.8
696.125	0.92
696.308	0.89
696.49	0.72
696.671	0.93
696.853	0.8
697.035	1.01
697.217	0.83
697.399	0.85
697.581	0.74
697.763	0.81
697.945	0.73
698.127	0.79
698.309	0.86
698.491	0.81
698.672	0.79
698.854	0.81
699.036	0.83
699.218	0.77
699.399	0.82
699.581	0.81
699.763	0.74
699.945	0.72
700.126	0.68
700.308	0.79
700.49	0.73
700.671	0.7
700.853	0.68
701.035	0.74
701.216	0.74
701.398	0.65
701.579	0.72
701.761	0.84
701.943	0.75
702.124	0.67
702.306	0.64
702.487	0.87
702.669	0.72
702.85	0.64
703.031	0.61
703.213	0.78
703.394	0.79
703.576	0.63
703.757	0.81
703.938	0.81
704.12	0.86
704.301	0.7
704.483	0.62
704.664	0.71
704.845	0.8
705.026	0.75
705.208	0.7
705.389	0.68
705.57	0.73
705.751	0.64
705.933	0.65
706.114	0.76
706.295	0.66
706.476	0.6
706.657	0.8
706.838	0.76
707.02	0.73
707.201	0.62
707.382	0.66
707.563	0.66
707.744	0.59
707.925	0.55
708.106	0.6
708.287	0.66
708.468	0.75
708.649	0.67
708.83	0.67
709.011	0.6
709.192	0.71
709.373	0.62
709.554	0.63
709.734	0.7
709.915	0.66
710.096	0.66
710.277	0.49
710.458	0.6
710.639	0.65
710.819	0.45
711	0.6
711.181	0.63
711.362	0.75
711.542	0.6
711.723	0.59
711.904	0.63
712.085	0.71
712.265	0.61
712.446	0.49
712.627	0.55
712.807	0.56
712.988	0.63
713.168	0.47
713.349	0.65
713.53	0.44
713.71	0.45
713.891	0.49
714.071	0.63
714.252	0.55
714.432	0.54
714.613	0.47
714.793	0.57
714.974	0.65
715.154	0.69
715.334	0.59
715.515	0.68
715.695	0.52
715.876	0.56
716.056	0.55
716.236	0.5
716.417	0.47
716.597	0.48
716.777	0.74
716.957	0.5
717.138	0.56
717.318	0.53
717.498	0.42
717.678	0.53
717.859	0.56
718.039	0.39
718.219	0.53
718.399	0.56
718.579	0.45
718.759	0.4
718.939	0.48
719.12	0.49
719.3	0.6
719.48	0.35
719.66	0.39
719.84	0.62
720.02	0.48
720.2	0.39
720.38	0.52
720.56	0.63
720.74	0.44
720.92	0.52
721.1	0.67
721.279	0.59
721.459	0.45
721.639	0.4
721.819	0.46
721.999	0.43
722.179	0.48
722.359	0.41
722.538	0.53
722.718	0.49
722.898	0.48
723.078	0.45
723.257	0.45
723.437	0.51
723.617	0.5
723.797	0.41
723.976	0.46
724.156	0.56
724.336	0.6
724.515	0.71
724.695	0.33
724.874	0.48
725.054	0.5
725.234	0.49
725.413	0.51
725.593	0.44
725.772	0.48
725.952	0.38
726.131	0.45
726.311	0.49
726.49	0.44
726.67	0.44
726.849	0.35
727.028	0.45
727.208	0.41
727.387	0.56
727.567	0.36
727.746	0.39
727.925	0.46
728.105	0.41
728.284	0.44
728.463	0.38
728.643	0.49
728.822	0.39
729.001	0.47
729.18	0.51
729.359	0.49
729.539	0.38
729.718	0.5
729.897	0.47
730.076	0.52
730.255	0.41
730.434	0.45
730.614	0.55
730.793	0.63
730.972	0.4
731.151	0.5
731.33	0.53
731.509	0.44
731.688	0.41
731.867	0.42
732.046	0.36
732.225	0.68
732.404	0.38
732.583	0.35
732.762	0.51
732.941	0.5
733.12	0.36
733.298	0.39
733.477	0.53
733.656	0.32
733.835	0.43
734.014	0.51
734.193	0.48
734.371	0.46
734.55	0.5
734.729	0.37
734.908	0.52
735.086	0.57
735.265	0.55
735.444	0.31
735.623	0.24
735.801	0.34
735.98	0.44
736.159	0.39
736.337	0.37
736.516	0.52
736.694	0.52
736.873	0.35
737.052	0.65
737.23	0.59
737.409	0.34
737.587	0.67
737.766	0.34
737.944	0.36
738.123	0.42
738.301	0.46
738.479	0.49
738.658	0.44
738.836	0.27
739.015	0.47
739.193	0.62
739.371	0.31
739.55	0.44
739.728	0.4
739.906	0.71
740.085	0.63
740.263	0.43
740.441	0.3
740.62	0.67
740.798	0.43
740.976	0.34
741.154	0.29
741.332	0.64
741.511	0.35
741.689	0.42
741.867	0.46
742.045	0.51
742.223	0.37
742.401	0.29
742.579	0.34
742.757	0.5
742.935	0.34
743.114	0.37
743.292	0.42
743.47	0.47
743.648	0.37
743.826	0.15
744.004	0.47
744.181	0.45
744.359	0.38
744.537	0.52
744.715	0.41
744.893	0.43
745.071	0.4
745.249	0.39
745.427	0.4
745.605	0.41
745.782	0.46
745.96	0.53
746.138	0.44
746.316	0.45
746.493	0.31
746.671	0.31
746.849	0.36
747.027	0.56
747.204	0.35
747.382	0.46
747.56	0.23
747.737	0.3
747.915	0.41
748.093	0.36
748.27	0.25
748.448	0.39
748.625	0.22
748.803	0.31
748.98	0.38
749.158	0.39
749.335	0.46
749.513	0.36
749.69	0.33
749.868	0.4
750.045	0.38
750.223	0.37
750.4	0.15
750.578	0.51
750.755	0.26
750.932	0.16
751.11	0.55
751.287	0.31
751.464	0.53
751.642	0.28
751.819	0.45
751.996	0.43
752.173	0.25
752.351	0.2
752.528	0.31
752.705	0.33
752.882	0.23
753.06	0.41
753.237	0.35
753.414	0.56
753.591	0.62
753.768	0.38
753.945	0.3
754.122	0.28
754.299	0.44
754.476	0.22
754.654	0.38
754.831	0.43
755.008	0.42
755.185	0.26
755.362	0.21
755.539	0.41
755.716	0.33
755.892	0.31
756.069	0.23
756.246	0.33
756.423	0.21
756.6	0.53
756.777	0.25
756.954	0.53
757.131	0.35
757.307	0.31
757.484	0.24
757.661	0.35
757.838	0.46
758.015	0.3
758.191	0.36
758.368	0.52
758.545	0.5
758.721	0.44
758.898	0.16
759.075	0.48
759.251	0.4
759.428	0.27
759.605	0.26
759.781	0.28
759.958	0.4
760.134	0.41
760.311	0.25
760.488	0.53
760.664	0.53
760.841	0.27
761.017	0.21
761.194	0.41
761.37	0.47
761.547	0.36
761.723	0.38
761.899	0.44
762.076	0.27
762.252	0.23
762.429	0.26
762.605	0.41
762.781	0.39
762.958	0.46
763.134	0.18
763.31	0.21
763.486	0.46
763.663	0.16
763.839	0.44
764.015	0.03
764.191	0.22
764.368	0.25
764.544	0.29
764.72	0.27
764.896	0.32
765.072	0.36
765.248	0.23
765.425	0.23
765.601	0.3
765.777	0.39
765.953	0.01
766.129	0.25
766.305	0.23
766.481	0.36
766.657	0.36
766.833	0.66
767.009	0.15
767.185	0.34
767.361	0.38
767.537	0.24
767.713	0.57
767.889	0.33
768.065	0.35
768.24	0.24
768.416	0.43
768.592	0.34
768.768	0.29
768.944	0.48
769.12	0.3
769.295	0.3
769.471	0.18
769.647	0.3
769.823	0.5
769.998	0.18
770.174	0.26
770.35	0.65
770.525	0.7
770.701	0.31
770.877	0.39
771.052	0.19
771.228	0.55
771.403	0.46
771.579	0.38
771.755	0.69
771.93	0.24
772.106	0.22
772.281	0.1
772.457	0.25
772.632	0.35
772.808	0.24
772.983	0.31
773.159	0.15
773.334	0.54
773.509	0.27
773.685	0.18
773.86	0.69
774.036	0.54
774.211	0.31
774.386	0.17
774.562	0.25
774.737	0.59
774.912	0.22
775.087	0.37
775.263	0.18
775.438	0.29
775.613	0.13
775.788	0.28
775.964	0.46
776.139	0.86
776.314	0.17
776.489	0.44
776.664	0.38
776.839	0.26
777.014	0.46
777.19	0.54
777.365	0.58
777.54	0.62
777.715	0.15
777.89	0.43
778.065	0.19
778.24	0.36
778.415	0.41
778.59	0.21
778.765	0.37
778.94	0.56
779.115	0.24
779.289	0.23
779.464	0.36
779.639	0.4
779.814	0
779.989	0.16
780.164	0.57
780.339	0.51
780.513	0.21
780.688	0.04
780.863	0.38
781.038	0.63
781.212	0.26
781.387	0.34
781.562	0.67
781.737	0.21
781.911	0.65
782.086	0.22
782.261	0.37
782.435	0.56
782.61	0.32
782.784	0.3
782.959	0.65
783.134	0.26
783.308	0.11
783.483	0.18
783.657	0.88
783.832	0.68
784.006	0.06
784.181	0.21
784.355	0.62
784.53	0.36
784.704	0.2
784.878	0.57
785.053	0.62
785.227	0.7
785.402	0.69
785.576	0.15
785.75	0.14
785.925	0.19
786.099	0.58
786.273	0.5
786.448	0.81
786.622	0.65
786.796	0.38
786.97	0.33
787.145	1.07
787.319	0
787.493	0.21
787.667	0.08
787.841	0.44
788.015	0.77
788.19	0.14
788.364	0.33
788.538	0.43
788.712	0.93
788.886	0.37
789.06	0.65
789.234	0.48
789.408	0.11
789.582	0.4
789.756	0.15
789.93	0.12
790.104	0.29
790.278	0.37
790.452	0.22
790.626	0.47
790.8	0.23
790.973	0.62
791.147	0.64
791.321	0.79
791.495	0.63
791.669	0.34
791.843	0.32
792.016	0.43
792.19	0.77
792.364	0.12
792.538	1
792.711	0.79
792.885	0.28
793.059	0.17
793.233	-0.2
793.406	0.48
793.58	0.4
793.754	0.62
793.927	0.32
794.101	0.75
794.274	0.26
794.448	0.53
794.622	0.3
794.795	0.87
794.969	0.16
795.142	0.53
795.316	0.21
795.489	0.26
795.663	1
795.836	0.45
796.009	0.06
796.183	0.78
796.356	0.54
796.53	0.6
796.703	0.33
796.876	0.95
797.05	0.26
797.223	0.47
797.396	0.42
797.57	0.39
797.743	1.04
797.916	0.69
798.09	0.22
798.263	0.85
798.436	0.77
798.609	0.21
798.782	0.48
798.956	0.62
799.129	0.49
799.302	0.48
799.475	0.34
799.648	0.29
799.821	0.19
799.994	0.39
800.167	0.03
800.34	0.42
800.514	0.45
800.687	0.33
800.86	0.18
801.033	0.62
801.206	0.78
801.379	0.41
801.551	0.52
801.724	0.48
801.897	1.1
802.07	0.38
802.243	-0.02
802.416	0.68
802.589	0.52
802.762	0.71
802.935	0.47
803.107	0.73
803.28	0.95
803.453	0.67
803.626	0.23
803.798	0.82
803.971	0.48
804.144	0.53
804.317	0.46
804.489	0.95
804.662	0.63
804.835	0.56
805.007	0.03
805.18	0.99
805.353	0.54
805.525	0.06
805.698	0.1
805.87	0.88
806.043	0.76
806.215	0.17
806.388	0.3
806.56	0.68
806.733	0.91
806.905	0.62
807.078	0.07
807.25	0.34
807.423	0.88
807.595	0.71
807.768	0.59
807.94	0.79
808.112	0.6
808.285	0.53
808.457	0.36
808.629	0.79
808.802	0.66
808.974	0.68
809.146	0.28
809.318	0.48
809.491	0.6
809.663	0.69
809.835	0.09
810.007	0.92
810.18	0.8
810.352	0.14
810.524	0.34
810.696	0.69
810.868	0.99
811.04	0.27
811.212	0.12
811.384	1.14
811.556	0.87
811.728	0.4
811.901	1.4
812.073	0.23
812.245	0.45
812.417	0.62
812.589	-0.45
812.76	1.03
812.932	0.99
813.104	0.88
813.276	0.45
813.448	1.12
813.62	0.62
813.792	0.69
813.964	0.54
814.136	0.35
814.307	0.33
814.479	0.21
814.651	0.42
814.823	1.61
814.995	0.49
815.166	0.44
815.338	0.22
815.51	0.3
815.681	1.41
815.853	0.69
816.025	0.26
816.196	1.34
816.368	1.05
816.54	0.23
816.711	-0.19
816.883	1.34
817.054	1.67
817.226	-0.37
817.398	0.79
817.569	0.85
817.741	0.97
817.912	0.3
818.084	0.29
818.255	0.82
818.426	0.11
818.598	0.26
818.769	0.55
818.941	0.89
819.112	1.35
819.283	0.76
819.455	0.15
819.626	0.26
819.798	0.97
819.969	0.46
820.14	0.75
820.311	0.38
820.483	0.72
820.654	0.89
820.825	0.37
820.996	0.36
821.168	0.21
821.339	0.51
821.51	-0.06
821.681	0.2
821.852	0.83
822.023	0.3
822.195	-0.03
822.366	0.87
822.537	0.52
822.708	0.8
822.879	0.27
823.05	0.92
823.221	0.23
823.392	0.83
823.563	0.84
823.734	1.01
823.905	0.68
824.076	0.13
824.247	0.46
824.418	0.74
824.589	1
824.759	0.39
824.93	-0.11
825.101	0.05
825.272	1.45
825.443	1.16
825.614	1.4
825.784	-0.2
825.955	2.14
826.126	1.25
826.297	0.74
826.467	1.7
826.638	1.39
826.809	0.54
826.98	0.88
827.15	0.73
827.321	0.94
827.492	1.68
827.662	0.72
827.833	2.29
828.003	1.12
828.174	0.35
828.345	0.09
828.515	1.25
828.686	0.78
828.856	0.88
829.027	0.79
829.197	0.74
829.368	0.74
829.538	0.22
829.709	-0.14
829.879	0.6
830.049	0.54
830.22	0.54
830.39	1.02
830.56	1.2
830.731	0.89
830.901	0.25
831.072	0.6
831.242	1.56
831.412	1.48
831.582	0.46
831.753	-0.21
831.923	1.7
832.093	0.67
832.263	0.72
832.434	-0.05
832.604	-0.21
832.774	1.77
832.944	0.39
833.114	0.57
833.284	0.78
833.454	0.78
833.624	-0.05
833.795	0.29
833.965	1.52
834.135	1.94
834.305	-0.69
834.475	0.37
834.645	-0.05
834.815	0.27
834.985	-0.02
835.155	0.61
835.325	1.57
835.494	1.39
835.664	0.55
835.834	-0.03
836.004	0.56
836.174	1.35
836.344	0.75
836.514	-0.19
836.684	0.63
836.853	0.4
837.023	0.78
837.193	-0.32
837.363	1.44
837.532	1.46
837.702	1.02
837.872	0.44
838.041	1.7
838.211	2.82
838.381	-0.38
838.55	0.61
838.72	3.13
838.89	2.26
839.059	0.38
839.229	-0.09
839.398	2.41
839.568	0.69
839.738	0.55
839.907	1.79
840.077	0.97
840.246	1.08
840.416	0.32
840.585	-0.43
840.755	2.43
840.924	2.35
841.093	0.21
841.263	-0.02
841.432	0.93
841.602	0.33
841.771	0.53
841.94	0.34
842.11	3.65
842.279	1.82
842.448	0.15
842.617	0.72
842.787	3
842.956	-0.11
843.125	1.06
843.294	1.23
843.464	2.25
843.633	1.94
843.802	0.29
843.971	0.48
844.14	2.14
844.309	2.25
844.479	-0.64
844.648	-0.25
844.817	0.8
844.986	1.44
845.155	1.46
845.324	1.39
845.493	0.87
845.662	0.58
845.831	1.19
846	1.68
846.169	1.18
846.338	2.04
846.507	1.12
846.676	1
846.844	0.56
847.013	0.77
847.182	0.29
847.351	0.36
847.52	0.69
847.689	1.99
847.858	0.55
848.026	0.01
848.195	2.15
848.364	0.12
848.533	0.28
848.701	0.53
848.87	1.12
849.039	2.55
849.207	1.81
849.376	2.15
849.545	3.65
849.713	0.67
849.882	0.81
850.051	0.51
850.219	0.98
850.388	1.74
850.556	0.23
850.725	0.5
850.893	1.47
851.062	0.57
851.23	2.11
851.399	-0.21
851.567	0.92
851.736	1.56
851.904	0.65
852.073	0.69
852.241	2.15
852.41	1.35
852.578	0.43
852.746	1
852.915	2.81
853.083	1.35
853.251	0.34
853.42	0.63
853.588	1.82
853.756	2.41
853.924	1.17
854.093	0.66
854.261	2.42
854.429	0.39
854.597	2.23
854.765	0.42
854.934	2.5
855.102	2.09
855.27	0.51
855.438	1.11
855.606	2.07
855.774	3.48
855.942	-0.17
856.11	-0.19
856.278	0.36
856.446	2.2
856.614	0.7
856.782	0.71
856.95	2.33
857.118	2.55
857.286	1.85
857.454	-0.11
857.622	2.66
857.79	1.81
857.958	0.01
858.126	-0.05
858.294	-0.65
858.462	1.69
858.629	1.37
858.797	0.13
858.965	2.23
859.133	1.42
859.301	0.49
859.468	2.23
859.636	0.57
859.804	4.38
859.971	1.75
860.139	0.47
860.307	2.92
860.474	2.17
860.642	-0.15
860.81	0.48
860.977	0.49
861.145	3.8
861.313	0.06
861.48	0.54
861.648	2.82
861.815	0.83
861.983	-0.24
862.15	0.43
862.318	3.66
862.485	4.18
862.653	-0.24
862.82	0.5
862.988	4.24
863.155	1.74
863.322	1.41
863.49	0.84
863.657	0.65
863.824	3.81
863.992	1.61
864.159	0.69
864.326	3.33
864.494	1.71
864.661	4.77
864.828	0.58
864.996	3.53
865.163	2.58
865.33	1.09
865.497	-1.05
865.664	0.2
865.832	-1.09
865.999	1.91
866.166	-0.7
866.333	1.67
866.5	0.67
866.667	2.54
866.834	1.53
867.001	3.44
867.168	0.1
867.335	2.16
867.502	0.18
867.669	2.39
867.836	5.01
868.003	0.53
868.17	3.43
868.337	0.07
868.504	4.83
868.671	-1
868.838	0.64
869.005	4.06
869.172	1.98
869.339	1.33
869.505	1.07
869.672	2.4
869.839	3.26
870.006	1.34
870.173	0.91
870.339	1.64
870.506	4.55
870.673	-0.19
870.84	1.73
871.006	2.28
871.173	0.81
871.34	3.26
871.506	-0.16
871.673	3.08
871.839	-1.01
872.006	2.5
872.173	0.71
872.339	2.13
872.506	4.55
872.672	1.53
872.839	-0.48
873.005	2.28
873.172	7.08
873.338	2.28
873.505	1.34
873.671	1.06
873.838	1.59
874.004	-2.16
874.171	-0.02
874.337	1.88
874.503	2.3
874.67	1.62
874.836	0.64
875.002	4.01
875.169	3.09
875.335	2.46
875.501	1.4
875.668	5.33
875.834	2.11
876	0.87
876.166	1.54
876.332	1.24
876.499	6.13
876.665	0.72
876.831	1.33
876.997	7.28
877.163	4.83
877.329	2.01
877.495	2.76
877.662	3.5
877.828	2.31
877.994	0.88
878.16	-1.76
878.326	0.31
878.492	0.24
878.658	1.18
878.824	1.6
878.99	3.08
879.156	0.15
879.322	3.27
879.487	-0.49
879.653	3.12
879.819	2.4
879.985	-0.26
880.151	1.66
880.317	3.77
880.483	3.73
880.648	1.87
880.814	-0.28
880.98	2.9
881.146	0.28
881.312	0.19
881.477	0.3
881.643	3.29
881.809	4.44
881.974	3.06
882.14	-0.13
882.306	2.09
882.471	6.95
882.637	1.11
882.803	3.33
882.968	4.13
883.134	5.16
883.299	0.65
883.465	1.42
883.63	4.74
883.796	2.91
883.961	1.82
884.127	4.02
884.292	-2.17
884.458	0.24
884.623	0.24
